date	time	subject	blockcode	trialcode	values.TaskNumber	response	latency	correct	values.Score	script.starttime	script.elapsedtime	values.ScoreS7	values.Word1	values.Word2	values.Word3	values.Word4	values.Word5	values.Word6	values.Word7	values.Word8	values.DigitSpanFwrd	values.DigitSpanBack	values.ScoreAbs	values.Contour	values.Numbers	values.Hands	values.corsiblockspanFwrd	values.corsiblockspanRev
101512	09:52:34	10033	Language	Language	0	French	50628	0	0	09:52:34	51153	0	0	0	0	0	0	0	0	0	0	0	0	0	0	0	0	0
101512	09:52:34	10033	Session	Session	0	3mo	814	0	0	09:52:34	52033	0	0	0	0	0	0	0	0	0	0	0	0	0	0	0	0	0
101512	09:52:34	10033	HandFr	HandFr	0	RightFr	1750	0	0	09:52:34	53846	0	0	0	0	0	0	0	0	0	0	0	0	0	0	0	0	0
101512	09:52:34	10033	AudioCheckFr	WordsFr	0	0	0	0	0	09:52:34	1628557	0	0	0	0	0	0	0	0	0	0	0	0	0	0	0	0	0
101512	09:52:34	10033	CubeFr	CubeFr	1	1Cube	29954	0	0	09:52:34	1661180	0	0	0	0	0	0	0	0	0	0	0	0	0	0	0	0	0
101512	09:52:34	10033	pm.simpleFrRight	blank.simpleFr	2	0	2100	1	0	09:52:34	1698352	0	0	0	0	0	0	0	0	0	0	0	0	0	0	0	0	0
101512	09:52:34	10033	pm.simpleFrRight	pm.simpleFr	2	57	654	0	0	09:52:34	1699031	0	0	0	0	0	0	0	0	0	0	0	0	0	0	0	0	0
101512	09:52:34	10033	pm.simpleFrRight	blank.simpleFr	2	0	1600	1	0	09:52:34	1700644	0	0	0	0	0	0	0	0	0	0	0	0	0	0	0	0	0
101512	09:52:34	10033	pm.simpleFrRight	pm.simpleFr	2	57	525	0	0	09:52:34	1701190	0	0	0	0	0	0	0	0	0	0	0	0	0	0	0	0	0
101512	09:52:34	10033	pm.simpleFrRight	blank.simpleFr	2	0	2500	1	0	09:52:34	1703709	0	0	0	0	0	0	0	0	0	0	0	0	0	0	0	0	0
101512	09:52:34	10033	pm.simpleFrRight	pm.simpleFr	2	57	787	0	0	09:52:34	1704522	0	0	0	0	0	0	0	0	0	0	0	0	0	0	0	0	0
101512	09:52:34	10033	pm.simpleFrRight	blank.simpleFr	2	0	1800	1	0	09:52:34	1706335	0	0	0	0	0	0	0	0	0	0	0	0	0	0	0	0	0
101512	09:52:34	10033	pm.simpleFrRight	pm.simpleFr	2	57	514	0	0	09:52:34	1706868	0	0	0	0	0	0	0	0	0	0	0	0	0	0	0	0	0
101512	09:52:34	10033	pm.simpleFrRight	blank.simpleFr	2	0	1500	1	0	09:52:34	1708387	0	0	0	0	0	0	0	0	0	0	0	0	0	0	0	0	0
101512	09:52:34	10033	pm.simpleFrRight	pm.simpleFr	2	57	429	0	0	09:52:34	1708841	0	0	0	0	0	0	0	0	0	0	0	0	0	0	0	0	0
101512	09:52:34	10033	pm.simpleFrRight	blank.simpleFr	2	0	2400	1	0	09:52:34	1711253	0	0	0	0	0	0	0	0	0	0	0	0	0	0	0	0	0
101512	09:52:34	10033	pm.simpleFrRight	pm.simpleFr	2	57	636	0	0	09:52:34	1711906	0	0	0	0	0	0	0	0	0	0	0	0	0	0	0	0	0
101512	09:52:34	10033	pm.simpleFrRight	blank.simpleFr	2	0	1900	1	0	09:52:34	1713825	0	0	0	0	0	0	0	0	0	0	0	0	0	0	0	0	0
101512	09:52:34	10033	pm.simpleFrRight	pm.simpleFr	2	57	464	0	0	09:52:34	1714318	0	0	0	0	0	0	0	0	0	0	0	0	0	0	0	0	0
101512	09:52:34	10033	pm.simpleFrRight	blank.simpleFr	2	0	2300	1	0	09:52:34	1716638	0	0	0	0	0	0	0	0	0	0	0	0	0	0	0	0	0
101512	09:52:34	10033	pm.simpleFrRight	pm.simpleFr	2	57	355	0	0	09:52:34	1717011	0	0	0	0	0	0	0	0	0	0	0	0	0	0	0	0	0
101512	09:52:34	10033	pm.simpleFrRight	blank.simpleFr	2	0	2200	1	0	09:52:34	1719223	0	0	0	0	0	0	0	0	0	0	0	0	0	0	0	0	0
101512	09:52:34	10033	pm.simpleFrRight	pm.simpleFr	2	57	346	0	0	09:52:34	1719596	0	0	0	0	0	0	0	0	0	0	0	0	0	0	0	0	0
101512	09:52:34	10033	pm.simpleFrRight	blank.simpleFr	2	0	1700	1	0	09:52:34	1721316	0	0	0	0	0	0	0	0	0	0	0	0	0	0	0	0	0
101512	09:52:34	10033	pm.simpleFrRight	pm.simpleFr	2	57	397	0	0	09:52:34	1721729	0	0	0	0	0	0	0	0	0	0	0	0	0	0	0	0	0
101512	09:52:34	10033	pm.simpleFrRight	blank.simpleFr	2	0	2000	1	0	09:52:34	1723741	0	0	0	0	0	0	0	0	0	0	0	0	0	0	0	0	0
101512	09:52:34	10033	pm.simpleFrRight	pm.simpleFr	2	57	323	0	0	09:52:34	1724088	0	0	0	0	0	0	0	0	0	0	0	0	0	0	0	0	0
101512	09:52:34	10033	pm.simpleFrRight	blank.simpleFr	2	0	2100	1	0	09:52:34	1726207	0	0	0	0	0	0	0	0	0	0	0	0	0	0	0	0	0
101512	09:52:34	10033	pm.simpleFrRight	pm.simpleFr	2	57	322	0	0	09:52:34	1726553	0	0	0	0	0	0	0	0	0	0	0	0	0	0	0	0	0
101512	09:52:34	10033	pm.simpleFrRight	blank.simpleFr	2	0	2200	1	0	09:52:34	1728766	0	0	0	0	0	0	0	0	0	0	0	0	0	0	0	0	0
101512	09:52:34	10033	pm.simpleFrRight	pm.simpleFr	2	57	338	0	0	09:52:34	1729126	0	0	0	0	0	0	0	0	0	0	0	0	0	0	0	0	0
101512	09:52:34	10033	pm.simpleFrRight	blank.simpleFr	2	0	1900	1	0	09:52:34	1731045	0	0	0	0	0	0	0	0	0	0	0	0	0	0	0	0	0
101512	09:52:34	10033	pm.simpleFrRight	pm.simpleFr	2	57	379	0	0	09:52:34	1731445	0	0	0	0	0	0	0	0	0	0	0	0	0	0	0	0	0
101512	09:52:34	10033	pm.simpleFrRight	blank.simpleFr	2	0	1700	1	0	09:52:34	1733164	0	0	0	0	0	0	0	0	0	0	0	0	0	0	0	0	0
101512	09:52:34	10033	pm.simpleFrRight	pm.simpleFr	2	57	388	0	0	09:52:34	1733577	0	0	0	0	0	0	0	0	0	0	0	0	0	0	0	0	0
101512	09:52:34	10033	pm.simpleFrRight	blank.simpleFr	2	0	2000	1	0	09:52:34	1735590	0	0	0	0	0	0	0	0	0	0	0	0	0	0	0	0	0
101512	09:52:34	10033	pm.simpleFrRight	pm.simpleFr	2	57	331	0	0	09:52:34	1735950	0	0	0	0	0	0	0	0	0	0	0	0	0	0	0	0	0
101512	09:52:34	10033	pm.simpleFrRight	blank.simpleFr	2	0	1600	1	0	09:52:34	1737562	0	0	0	0	0	0	0	0	0	0	0	0	0	0	0	0	0
101512	09:52:34	10033	pm.simpleFrRight	pm.simpleFr	2	57	310	0	0	09:52:34	1737895	0	0	0	0	0	0	0	0	0	0	0	0	0	0	0	0	0
101512	09:52:34	10033	pm.simpleFrRight	blank.simpleFr	2	0	2400	1	0	09:52:34	1740308	0	0	0	0	0	0	0	0	0	0	0	0	0	0	0	0	0
101512	09:52:34	10033	pm.simpleFrRight	pm.simpleFr	2	57	492	0	0	09:52:34	1740828	0	0	0	0	0	0	0	0	0	0	0	0	0	0	0	0	0
101512	09:52:34	10033	pm.simpleFrRight	blank.simpleFr	2	0	2500	1	0	09:52:34	1743347	0	0	0	0	0	0	0	0	0	0	0	0	0	0	0	0	0
101512	09:52:34	10033	pm.simpleFrRight	pm.simpleFr	2	57	397	0	0	09:52:34	1743773	0	0	0	0	0	0	0	0	0	0	0	0	0	0	0	0	0
101512	09:52:34	10033	pm.simpleFrRight	blank.simpleFr	2	0	1500	1	0	09:52:34	1745293	0	0	0	0	0	0	0	0	0	0	0	0	0	0	0	0	0
101512	09:52:34	10033	pm.simpleFrRight	pm.simpleFr	2	57	340	0	0	09:52:34	1745653	0	0	0	0	0	0	0	0	0	0	0	0	0	0	0	0	0
101512	09:52:34	10033	pm.simpleFrRight	blank.simpleFr	2	0	1800	1	0	09:52:34	1747465	0	0	0	0	0	0	0	0	0	0	0	0	0	0	0	0	0
101512	09:52:34	10033	pm.simpleFrRight	pm.simpleFr	2	57	294	0	0	09:52:34	1747785	0	0	0	0	0	0	0	0	0	0	0	0	0	0	0	0	0
101512	09:52:34	10033	pm.simpleFrRight	blank.simpleFr	2	0	2300	1	0	09:52:34	1750104	0	0	0	0	0	0	0	0	0	0	0	0	0	0	0	0	0
101512	09:52:34	10033	pm.simpleFrRight	pm.simpleFr	2	57	344	0	0	09:52:34	1750477	0	0	0	0	0	0	0	0	0	0	0	0	0	0	0	0	0
101512	09:52:34	10033	pm.simpleFrRight	blank.simpleFr	2	0	1900	1	0	09:52:34	1752397	0	0	0	0	0	0	0	0	0	0	0	0	0	0	0	0	0
101512	09:52:34	10033	pm.simpleFrRight	pm.simpleFr	2	57	338	0	0	09:52:34	1752756	0	0	0	0	0	0	0	0	0	0	0	0	0	0	0	0	0
101512	09:52:34	10033	pm.simpleFrRight	blank.simpleFr	2	0	1800	1	0	09:52:34	1754569	0	0	0	0	0	0	0	0	0	0	0	0	0	0	0	0	0
101512	09:52:34	10033	pm.simpleFrRight	pm.simpleFr	2	57	343	0	0	09:52:34	1754929	0	0	0	0	0	0	0	0	0	0	0	0	0	0	0	0	0
101512	09:52:34	10033	pm.simpleFrRight	blank.simpleFr	2	0	2300	1	0	09:52:34	1757248	0	0	0	0	0	0	0	0	0	0	0	0	0	0	0	0	0
101512	09:52:34	10033	pm.simpleFrRight	pm.simpleFr	2	57	320	0	0	09:52:34	1757594	0	0	0	0	0	0	0	0	0	0	0	0	0	0	0	0	0
101512	09:52:34	10033	pm.simpleFrRight	blank.simpleFr	2	0	2400	1	0	09:52:34	1760020	0	0	0	0	0	0	0	0	0	0	0	0	0	0	0	0	0
101512	09:52:34	10033	pm.simpleFrRight	pm.simpleFr	2	57	348	0	0	09:52:34	1760393	0	0	0	0	0	0	0	0	0	0	0	0	0	0	0	0	0
101512	09:52:34	10033	pm.simpleFrRight	blank.simpleFr	2	0	2200	1	0	09:52:34	1762606	0	0	0	0	0	0	0	0	0	0	0	0	0	0	0	0	0
101512	09:52:34	10033	pm.simpleFrRight	pm.simpleFr	2	57	354	0	0	09:52:34	1762979	0	0	0	0	0	0	0	0	0	0	0	0	0	0	0	0	0
101512	09:52:34	10033	pm.simpleFrRight	blank.simpleFr	2	0	1600	1	0	09:52:34	1764591	0	0	0	0	0	0	0	0	0	0	0	0	0	0	0	0	0
101512	09:52:34	10033	pm.simpleFrRight	pm.simpleFr	2	57	464	0	0	09:52:34	1765084	0	0	0	0	0	0	0	0	0	0	0	0	0	0	0	0	0
101512	09:52:34	10033	pm.simpleFrRight	blank.simpleFr	2	0	1500	1	0	09:52:34	1766604	0	0	0	0	0	0	0	0	0	0	0	0	0	0	0	0	0
101512	09:52:34	10033	pm.simpleFrRight	pm.simpleFr	2	57	388	0	0	09:52:34	1767017	0	0	0	0	0	0	0	0	0	0	0	0	0	0	0	0	0
101512	09:52:34	10033	pm.simpleFrRight	blank.simpleFr	2	0	2100	1	0	09:52:34	1769136	0	0	0	0	0	0	0	0	0	0	0	0	0	0	0	0	0
101512	09:52:34	10033	pm.simpleFrRight	pm.simpleFr	2	57	352	0	0	09:52:34	1769509	0	0	0	0	0	0	0	0	0	0	0	0	0	0	0	0	0
101512	09:52:34	10033	pm.simpleFrRight	blank.simpleFr	2	0	2500	1	0	09:52:34	1772028	0	0	0	0	0	0	0	0	0	0	0	0	0	0	0	0	0
101512	09:52:34	10033	pm.simpleFrRight	pm.simpleFr	2	57	451	0	0	09:52:34	1772508	0	0	0	0	0	0	0	0	0	0	0	0	0	0	0	0	0
101512	09:52:34	10033	pm.simpleFrRight	blank.simpleFr	2	0	2000	1	0	09:52:34	1774534	0	0	0	0	0	0	0	0	0	0	0	0	0	0	0	0	0
101512	09:52:34	10033	pm.simpleFrRight	pm.simpleFr	2	57	345	0	0	09:52:34	1774907	0	0	0	0	0	0	0	0	0	0	0	0	0	0	0	0	0
101512	09:52:34	10033	pm.simpleFrRight	blank.simpleFr	2	0	1700	1	0	09:52:34	1776627	0	0	0	0	0	0	0	0	0	0	0	0	0	0	0	0	0
101512	09:52:34	10033	pm.simpleFrRight	pm.simpleFr	2	57	413	0	0	09:52:34	1777066	0	0	0	0	0	0	0	0	0	0	0	0	0	0	0	0	0
101512	09:52:34	10033	pm.simpleFrRight	blank.simpleFr	2	0	2200	1	0	09:52:34	1779279	0	0	0	0	0	0	0	0	0	0	0	0	0	0	0	0	0
101512	09:52:34	10033	pm.simpleFrRight	pm.simpleFr	2	57	401	0	0	09:52:34	1779705	0	0	0	0	0	0	0	0	0	0	0	0	0	0	0	0	0
101512	09:52:34	10033	pm.simpleFrRight	blank.simpleFr	2	0	1800	1	0	09:52:34	1781518	0	0	0	0	0	0	0	0	0	0	0	0	0	0	0	0	0
101512	09:52:34	10033	pm.simpleFrRight	pm.simpleFr	2	57	353	0	0	09:52:34	1781891	0	0	0	0	0	0	0	0	0	0	0	0	0	0	0	0	0
101512	09:52:34	10033	pm.simpleFrRight	blank.simpleFr	2	0	2000	1	0	09:52:34	1783904	0	0	0	0	0	0	0	0	0	0	0	0	0	0	0	0	0
101512	09:52:34	10033	pm.simpleFrRight	pm.simpleFr	2	57	336	0	0	09:52:34	1784263	0	0	0	0	0	0	0	0	0	0	0	0	0	0	0	0	0
101512	09:52:34	10033	pm.simpleFrRight	blank.simpleFr	2	0	1600	1	0	09:52:34	1785876	0	0	0	0	0	0	0	0	0	0	0	0	0	0	0	0	0
101512	09:52:34	10033	pm.simpleFrRight	pm.simpleFr	2	57	315	0	0	09:52:34	1786209	0	0	0	0	0	0	0	0	0	0	0	0	0	0	0	0	0
101512	09:52:34	10033	pm.simpleFrRight	blank.simpleFr	2	0	1700	1	0	09:52:34	1787929	0	0	0	0	0	0	0	0	0	0	0	0	0	0	0	0	0
101512	09:52:34	10033	pm.simpleFrRight	pm.simpleFr	2	57	327	0	0	09:52:34	1788275	0	0	0	0	0	0	0	0	0	0	0	0	0	0	0	0	0
101512	09:52:34	10033	pm.simpleFrRight	blank.simpleFr	2	0	2300	1	0	09:52:34	1790594	0	0	0	0	0	0	0	0	0	0	0	0	0	0	0	0	0
101512	09:52:34	10033	pm.simpleFrRight	pm.simpleFr	2	57	349	0	0	09:52:34	1790967	0	0	0	0	0	0	0	0	0	0	0	0	0	0	0	0	0
101512	09:52:34	10033	pm.simpleFrRight	blank.simpleFr	2	0	1500	1	0	09:52:34	1792487	0	0	0	0	0	0	0	0	0	0	0	0	0	0	0	0	0
101512	09:52:34	10033	pm.simpleFrRight	pm.simpleFr	2	57	392	0	0	09:52:34	1792900	0	0	0	0	0	0	0	0	0	0	0	0	0	0	0	0	0
101512	09:52:34	10033	Trial2BackFr	N	3	0	1000	1	1	09:52:34	1899518	0	0	0	0	0	0	0	0	0	0	0	0	0	0	0	0	0
101512	09:52:34	10033	Trial2BackFr	N	3	0	1000	1	2	09:52:34	1901056	0	0	0	0	0	0	0	0	0	0	0	0	0	0	0	0	0
101512	09:52:34	10033	Trial2BackFr	N	3	0	1000	1	3	09:52:34	1902562	0	0	0	0	0	0	0	0	0	0	0	0	0	0	0	0	0
101512	09:52:34	10033	Trial2BackFr	N	3	0	1000	1	4	09:52:34	1904082	0	0	0	0	0	0	0	0	0	0	0	0	0	0	0	0	0
101512	09:52:34	10033	Trial2BackFr	N	3	0	1000	1	5	09:52:34	1905588	0	0	0	0	0	0	0	0	0	0	0	0	0	0	0	0	0
101512	09:52:34	10033	Trial2BackFr	N	3	0	1000	1	6	09:52:34	1907094	0	0	0	0	0	0	0	0	0	0	0	0	0	0	0	0	0
101512	09:52:34	10033	Trial2BackFr	N	3	0	1000	1	7	09:52:34	1908600	0	0	0	0	0	0	0	0	0	0	0	0	0	0	0	0	0
101512	09:52:34	10033	Trial2BackFr	N	3	0	1000	1	8	09:52:34	1910106	0	0	0	0	0	0	0	0	0	0	0	0	0	0	0	0	0
101512	09:52:34	10033	Trial2BackFr	Y	3	57	615	1	9	09:52:34	1911250	0	0	0	0	0	0	0	0	0	0	0	0	0	0	0	0	0
101512	09:52:34	10033	Trial2BackFr	N	3	0	1000	1	10	09:52:34	1913118	0	0	0	0	0	0	0	0	0	0	0	0	0	0	0	0	0
101512	09:52:34	10033	Trial2BackFr	N	3	0	1000	1	11	09:52:34	1914624	0	0	0	0	0	0	0	0	0	0	0	0	0	0	0	0	0
101512	09:52:34	10033	Trial2BackFr	N	3	0	1000	1	12	09:52:34	1916130	0	0	0	0	0	0	0	0	0	0	0	0	0	0	0	0	0
101512	09:52:34	10033	Trial2BackFr	Y	3	57	542	1	13	09:52:34	1917183	0	0	0	0	0	0	0	0	0	0	0	0	0	0	0	0	0
101512	09:52:34	10033	Trial2BackFr	N	3	0	1000	1	14	09:52:34	1919142	0	0	0	0	0	0	0	0	0	0	0	0	0	0	0	0	0
101512	09:52:34	10033	Trial2BackFr	N	3	0	1000	1	15	09:52:34	1920662	0	0	0	0	0	0	0	0	0	0	0	0	0	0	0	0	0
101512	09:52:34	10033	Trial2BackFr	N	3	0	1000	1	16	09:52:34	1922181	0	0	0	0	0	0	0	0	0	0	0	0	0	0	0	0	0
101512	09:52:34	10033	Trial2BackFr	N	3	0	1000	1	17	09:52:34	1923687	0	0	0	0	0	0	0	0	0	0	0	0	0	0	0	0	0
101512	09:52:34	10033	Trial2BackFr	N	3	0	1000	1	18	09:52:34	1925193	0	0	0	0	0	0	0	0	0	0	0	0	0	0	0	0	0
101512	09:52:34	10033	Trial2BackFr	Y	3	0	1000	0	18	09:52:34	1926700	0	0	0	0	0	0	0	0	0	0	0	0	0	0	0	0	0
101512	09:52:34	10033	Trial2BackFr	N	3	0	1000	1	19	09:52:34	1928237	0	0	0	0	0	0	0	0	0	0	0	0	0	0	0	0	0
101512	09:52:34	10033	Trial2BackFr	N	3	0	1000	1	20	09:52:34	1929765	0	0	0	0	0	0	0	0	0	0	0	0	0	0	0	0	0
101512	09:52:34	10033	Trial2BackFr	N	3	0	1000	1	21	09:52:34	1931271	0	0	0	0	0	0	0	0	0	0	0	0	0	0	0	0	0
101512	09:52:34	10033	Trial2BackFr	N	3	0	1000	1	22	09:52:34	1932790	0	0	0	0	0	0	0	0	0	0	0	0	0	0	0	0	0
101512	09:52:34	10033	Trial2BackFr	Y	3	57	858	1	23	09:52:34	1934163	0	0	0	0	0	0	0	0	0	0	0	0	0	0	0	0	0
101512	09:52:34	10033	Trial2BackFr	N	3	0	1000	1	24	09:52:34	1935802	0	0	0	0	0	0	0	0	0	0	0	0	0	0	0	0	0
101512	09:52:34	10033	Trial2BackFr	N	3	0	1000	1	25	09:52:34	1937308	0	0	0	0	0	0	0	0	0	0	0	0	0	0	0	0	0
101512	09:52:34	10033	Trial2BackFr	N	3	0	1000	1	26	09:52:34	1938814	0	0	0	0	0	0	0	0	0	0	0	0	0	0	0	0	0
101512	09:52:34	10033	Trial2BackFr	N	3	0	1000	1	27	09:52:34	1940321	0	0	0	0	0	0	0	0	0	0	0	0	0	0	0	0	0
101512	09:52:34	10033	Trial2BackFr	N	3	0	1000	1	28	09:52:34	1941827	0	0	0	0	0	0	0	0	0	0	0	0	0	0	0	0	0
101512	09:52:34	10033	Trial2BackFr	N	3	0	1000	1	29	09:52:34	1943333	0	0	0	0	0	0	0	0	0	0	0	0	0	0	0	0	0
101512	09:52:34	10033	Trial2BackFr	Y	3	57	555	1	30	09:52:34	1944399	0	0	0	0	0	0	0	0	0	0	0	0	0	0	0	0	0
101512	09:52:34	10033	Trial2BackFr	N	3	0	1000	1	31	09:52:34	1946345	0	0	0	0	0	0	0	0	0	0	0	0	0	0	0	0	0
101512	09:52:34	10033	Trial2BackFr	N	3	0	1000	1	32	09:52:34	1947851	0	0	0	0	0	0	0	0	0	0	0	0	0	0	0	0	0
101512	09:52:34	10033	Trial2BackFr	N	3	0	1000	1	33	09:52:34	1949357	0	0	0	0	0	0	0	0	0	0	0	0	0	0	0	0	0
101512	09:52:34	10033	Trial2BackFr	Y	3	57	691	1	34	09:52:34	1950557	0	0	0	0	0	0	0	0	0	0	0	0	0	0	0	0	0
101512	09:52:34	10033	Trial2BackFr	N	3	0	1000	1	35	09:52:34	1952369	0	0	0	0	0	0	0	0	0	0	0	0	0	0	0	0	0
101512	09:52:34	10033	Trial2BackFr	N	3	0	1000	1	36	09:52:34	1953875	0	0	0	0	0	0	0	0	0	0	0	0	0	0	0	0	0
101512	09:52:34	10033	Trial2BackFr	N	3	0	1000	1	37	09:52:34	1955381	0	0	0	0	0	0	0	0	0	0	0	0	0	0	0	0	0
101512	09:52:34	10033	Trial2BackFr	N	3	0	1000	1	38	09:52:34	1956887	0	0	0	0	0	0	0	0	0	0	0	0	0	0	0	0	0
101512	09:52:34	10033	Trial2BackFr	N	3	0	1000	1	39	09:52:34	1958393	0	0	0	0	0	0	0	0	0	0	0	0	0	0	0	0	0
101512	09:52:34	10033	Trial2BackFr	N	3	0	1000	1	40	09:52:34	1959899	0	0	0	0	0	0	0	0	0	0	0	0	0	0	0	0	0
101512	09:52:34	10033	Trial2BackFr	Y	3	57	900	1	41	09:52:34	1961312	0	0	0	0	0	0	0	0	0	0	0	0	0	0	0	0	0
101512	09:52:34	10033	Trial2BackFr	N	3	0	1000	1	42	09:52:34	1962911	0	0	0	0	0	0	0	0	0	0	0	0	0	0	0	0	0
101512	09:52:34	10033	Trial2BackFr	N	3	0	1000	1	43	09:52:34	1964417	0	0	0	0	0	0	0	0	0	0	0	0	0	0	0	0	0
101512	09:52:34	10033	Trial2BackFr	N	3	0	1000	1	44	09:52:34	1965923	0	0	0	0	0	0	0	0	0	0	0	0	0	0	0	0	0
101512	09:52:34	10033	Trial2BackFr	N	3	0	1000	1	45	09:52:34	1967429	0	0	0	0	0	0	0	0	0	0	0	0	0	0	0	0	0
101512	09:52:34	10033	Trial2BackFr	Y	3	57	778	1	46	09:52:34	1968722	0	0	0	0	0	0	0	0	0	0	0	0	0	0	0	0	0
101512	09:52:34	10033	Trial2BackFr	N	3	0	1000	1	47	09:52:34	1970442	0	0	0	0	0	0	0	0	0	0	0	0	0	0	0	0	0
101512	09:52:34	10033	Trial2BackFr	N	3	0	1000	1	48	09:52:34	1971948	0	0	0	0	0	0	0	0	0	0	0	0	0	0	0	0	0
101512	09:52:34	10033	Trial2BackFr	N	3	0	1000	1	49	09:52:34	1973454	0	0	0	0	0	0	0	0	0	0	0	0	0	0	0	0	0
101512	09:52:34	10033	Trial2BackFr	N	3	0	1000	1	50	09:52:34	1974960	0	0	0	0	0	0	0	0	0	0	0	0	0	0	0	0	0
101512	09:52:34	10033	Trial2BackFr	N	3	0	1000	1	51	09:52:34	1976539	0	0	0	0	0	0	0	0	0	0	0	0	0	0	0	0	0
101512	09:52:34	10033	Trial2BackFr	Y	3	0	1000	0	51	09:52:34	1978054	0	0	0	0	0	0	0	0	0	0	0	0	0	0	0	0	0
101512	09:52:34	10033	Trial2BackFr	N	3	0	1000	1	52	09:52:34	1979571	0	0	0	0	0	0	0	0	0	0	0	0	0	0	0	0	0
101512	09:52:34	10033	Trial2BackFr	N	3	0	1000	1	53	09:52:34	1981077	0	0	0	0	0	0	0	0	0	0	0	0	0	0	0	0	0
101512	09:52:34	10033	Trial2BackFr	N	3	0	1000	1	54	09:52:34	1982583	0	0	0	0	0	0	0	0	0	0	0	0	0	0	0	0	0
101512	09:52:34	10033	Trial2BackFr	N	3	0	1000	1	55	09:52:34	1984089	0	0	0	0	0	0	0	0	0	0	0	0	0	0	0	0	0
101512	09:52:34	10033	Trial2BackFr	N	3	0	1000	1	56	09:52:34	1985609	0	0	0	0	0	0	0	0	0	0	0	0	0	0	0	0	0
101512	09:52:34	10033	Trial2BackFr	N	3	0	1000	1	57	09:52:34	1987128	0	0	0	0	0	0	0	0	0	0	0	0	0	0	0	0	0
101512	09:52:34	10033	Trial2BackFr	Y	3	57	615	1	58	09:52:34	1988261	0	0	0	0	0	0	0	0	0	0	0	0	0	0	0	0	0
101512	09:52:34	10033	Trial2BackFr	N	3	0	1000	1	59	09:52:34	1990140	0	0	0	0	0	0	0	0	0	0	0	0	0	0	0	0	0
101512	09:52:34	10033	Trial2BackFr	N	3	0	1000	1	60	09:52:34	1991646	0	0	0	0	0	0	0	0	0	0	0	0	0	0	0	0	0
101512	09:52:34	10033	Trial2BackFr	Y	3	0	1000	0	60	09:52:34	1993166	0	0	0	0	0	0	0	0	0	0	0	0	0	0	0	0	0
101512	09:52:34	10033	Trial2BackFr	N	3	0	1000	1	61	09:52:34	1994672	0	0	0	0	0	0	0	0	0	0	0	0	0	0	0	0	0
101512	09:52:34	10033	Trial2BackFr	N	3	0	1000	1	62	09:52:34	1996178	0	0	0	0	0	0	0	0	0	0	0	0	0	0	0	0	0
101512	09:52:34	10033	Trial2BackFr	N	3	0	1000	1	63	09:52:34	1997697	0	0	0	0	0	0	0	0	0	0	0	0	0	0	0	0	0
101512	09:52:34	10033	Trial2BackFr	N	3	0	1000	1	64	09:52:34	1999203	0	0	0	0	0	0	0	0	0	0	0	0	0	0	0	0	0
101512	09:52:34	10033	Trial2BackFr	N	3	0	1000	1	65	09:52:34	2000709	0	0	0	0	0	0	0	0	0	0	0	0	0	0	0	0	0
101512	09:52:34	10033	Trial2BackFr	N	3	0	1000	1	66	09:52:34	2002216	0	0	0	0	0	0	0	0	0	0	0	0	0	0	0	0	0
101512	09:52:34	10033	Trial2BackFr	N	3	0	1000	1	67	09:52:34	2003735	0	0	0	0	0	0	0	0	0	0	0	0	0	0	0	0	0
101512	09:52:34	10033	Trial2BackFr	N	3	0	1000	1	68	09:52:34	2005241	0	0	0	0	0	0	0	0	0	0	0	0	0	0	0	0	0
101512	09:52:34	10033	Trial2BackFr	N	3	0	1000	1	69	09:52:34	2006761	0	0	0	0	0	0	0	0	0	0	0	0	0	0	0	0	0
101512	09:52:34	10033	Trial2BackFr	N	3	0	1000	1	70	09:52:34	2008266	0	0	0	0	0	0	0	0	0	0	0	0	0	0	0	0	0
101512	09:52:34	10033	Trial2BackFr	Y	3	57	596	1	71	09:52:34	2009372	0	0	0	0	0	0	0	0	0	0	0	0	0	0	0	0	0
101512	09:52:34	10033	Trial2BackFr	N	3	0	1000	1	72	09:52:34	2011278	0	0	0	0	0	0	0	0	0	0	0	0	0	0	0	0	0
101512	09:52:34	10033	Trial2BackFr	N	3	0	1000	1	73	09:52:34	2012784	0	0	0	0	0	0	0	0	0	0	0	0	0	0	0	0	0
101512	09:52:34	10033	Trial2BackFr	N	3	0	1000	1	74	09:52:34	2014291	0	0	0	0	0	0	0	0	0	0	0	0	0	0	0	0	0
101512	09:52:34	10033	Trial2BackFr	Y	3	57	684	1	75	09:52:34	2015490	0	0	0	0	0	0	0	0	0	0	0	0	0	0	0	0	0
101512	09:52:34	10033	Trial2BackFr	N	3	0	1000	1	76	09:52:34	2017303	0	0	0	0	0	0	0	0	0	0	0	0	0	0	0	0	0
101512	09:52:34	10033	Trial2BackFr	N	3	0	1000	1	77	09:52:34	2018809	0	0	0	0	0	0	0	0	0	0	0	0	0	0	0	0	0
101512	09:52:34	10033	Trial2BackFr	N	3	0	1000	1	78	09:52:34	2020315	0	0	0	0	0	0	0	0	0	0	0	0	0	0	0	0	0
101512	09:52:34	10033	Trial2BackFr	N	3	0	1000	1	79	09:52:34	2021834	0	0	0	0	0	0	0	0	0	0	0	0	0	0	0	0	0
101512	09:52:34	10033	Trial2BackFr	N	3	0	1000	1	80	09:52:34	2023340	0	0	0	0	0	0	0	0	0	0	0	0	0	0	0	0	0
101512	09:52:34	10033	Trial2BackFr	Y	3	57	706	1	81	09:52:34	2024566	0	0	0	0	0	0	0	0	0	0	0	0	0	0	0	0	0
101512	09:52:34	10033	Trial2BackFr	N	3	0	1000	1	82	09:52:34	2026352	0	0	0	0	0	0	0	0	0	0	0	0	0	0	0	0	0
101512	09:52:34	10033	Trial2BackFr	N	3	0	1000	1	83	09:52:34	2027858	0	0	0	0	0	0	0	0	0	0	0	0	0	0	0	0	0
101512	09:52:34	10033	Trial2BackFr	N	3	0	1000	1	84	09:52:34	2029364	0	0	0	0	0	0	0	0	0	0	0	0	0	0	0	0	0
101512	09:52:34	10033	Trial2BackFr	N	3	0	1000	1	85	09:52:34	2030884	0	0	0	0	0	0	0	0	0	0	0	0	0	0	0	0	0
101512	09:52:34	10033	Trial2BackFr	N	3	0	1000	1	86	09:52:34	2032390	0	0	0	0	0	0	0	0	0	0	0	0	0	0	0	0	0
101512	09:52:34	10033	Trial2BackFr	N	3	0	1000	1	87	09:52:34	2033896	0	0	0	0	0	0	0	0	0	0	0	0	0	0	0	0	0
101512	09:52:34	10033	Trial2BackFr	N	3	0	1000	1	88	09:52:34	2035402	0	0	0	0	0	0	0	0	0	0	0	0	0	0	0	0	0
101512	09:52:34	10033	Trial2BackFr	N	3	0	1000	1	89	09:52:34	2036908	0	0	0	0	0	0	0	0	0	0	0	0	0	0	0	0	0
101512	09:52:34	10033	Trial2BackFr	N	3	57	658	0	89	09:52:34	2038113	0	0	0	0	0	0	0	0	0	0	0	0	0	0	0	0	0
101512	09:52:34	10033	Trial2BackFr	Y	3	57	927	1	90	09:52:34	2039853	0	0	0	0	0	0	0	0	0	0	0	0	0	0	0	0	0
101512	09:52:34	10033	Trial2BackFr	N	3	0	1000	1	91	09:52:34	2041426	0	0	0	0	0	0	0	0	0	0	0	0	0	0	0	0	0
101512	09:52:34	10033	Trial2BackFr	N	3	0	1000	1	92	09:52:34	2042946	0	0	0	0	0	0	0	0	0	0	0	0	0	0	0	0	0
101512	09:52:34	10033	Trial2BackFr	N	3	0	1000	1	93	09:52:34	2044452	0	0	0	0	0	0	0	0	0	0	0	0	0	0	0	0	0
101512	09:52:34	10033	Trial2BackFr	N	3	0	1000	1	94	09:52:34	2045958	0	0	0	0	0	0	0	0	0	0	0	0	0	0	0	0	0
101512	09:52:34	10033	Trial2BackFr	N	3	0	1000	1	95	09:52:34	2047464	0	0	0	0	0	0	0	0	0	0	0	0	0	0	0	0	0
101512	09:52:34	10033	Trial2BackFr	N	3	0	1000	1	96	09:52:34	2048983	0	0	0	0	0	0	0	0	0	0	0	0	0	0	0	0	0
101512	09:52:34	10033	Trial2BackFr	N	3	0	1000	1	97	09:52:34	2050502	0	0	0	0	0	0	0	0	0	0	0	0	0	0	0	0	0
101512	09:52:34	10033	Trial2BackFr	N	3	57	967	0	97	09:52:34	2051982	0	0	0	0	0	0	0	0	0	0	0	0	0	0	0	0	0
101512	09:52:34	10033	Trial2BackFr	Y	3	0	1000	0	97	09:52:34	2053515	0	0	0	0	0	0	0	0	0	0	0	0	0	0	0	0	0
101512	09:52:34	10033	Trial2BackFr	N	3	0	1000	1	98	09:52:34	2055021	0	0	0	0	0	0	0	0	0	0	0	0	0	0	0	0	0
101512	09:52:34	10033	Trial2BackFr	N	3	0	1000	1	99	09:52:34	2056527	0	0	0	0	0	0	0	0	0	0	0	0	0	0	0	0	0
101512	09:52:34	10033	Trial2BackFr	N	3	0	1000	1	100	09:52:34	2058033	0	0	0	0	0	0	0	0	0	0	0	0	0	0	0	0	0
101512	09:52:34	10033	Trial2BackFr	N	3	0	1000	1	101	09:52:34	2059539	0	0	0	0	0	0	0	0	0	0	0	0	0	0	0	0	0
101512	09:52:34	10033	Trial2BackFr	Y	3	57	778	1	102	09:52:34	2060831	0	0	0	0	0	0	0	0	0	0	0	0	0	0	0	0	0
101512	09:52:34	10033	Trial2BackFr	N	3	0	1000	1	103	09:52:34	2062551	0	0	0	0	0	0	0	0	0	0	0	0	0	0	0	0	0
101512	09:52:34	10033	Trial2BackFr	N	3	0	1000	1	104	09:52:34	2064057	0	0	0	0	0	0	0	0	0	0	0	0	0	0	0	0	0
101512	09:52:34	10033	Trial2BackFr	N	3	0	1000	1	105	09:52:34	2065563	0	0	0	0	0	0	0	0	0	0	0	0	0	0	0	0	0
101512	09:52:34	10033	Trial2BackFr	Y	3	57	882	1	106	09:52:34	2066962	0	0	0	0	0	0	0	0	0	0	0	0	0	0	0	0	0
101512	09:52:34	10033	Trial2BackFr	N	3	0	1000	1	107	09:52:34	2068575	0	0	0	0	0	0	0	0	0	0	0	0	0	0	0	0	0
101512	09:52:34	10033	Trial2BackFr	N	3	0	1000	1	108	09:52:34	2070095	0	0	0	0	0	0	0	0	0	0	0	0	0	0	0	0	0
101512	09:52:34	10033	Trial2BackFr	N	3	0	1000	1	109	09:52:34	2071601	0	0	0	0	0	0	0	0	0	0	0	0	0	0	0	0	0
101512	09:52:34	10033	Trial2BackFr	N	3	0	1000	1	110	09:52:34	2073133	0	0	0	0	0	0	0	0	0	0	0	0	0	0	0	0	0
101512	09:52:34	10033	Trial2BackFr	N	3	0	1000	1	111	09:52:34	2074639	0	0	0	0	0	0	0	0	0	0	0	0	0	0	0	0	0
101512	09:52:34	10033	Trial2BackFr	Y	3	57	765	1	112	09:52:34	2075919	0	0	0	0	0	0	0	0	0	0	0	0	0	0	0	0	0
101512	09:52:34	10033	Trial2BackFr	N	3	0	1000	1	113	09:52:34	2077652	0	0	0	0	0	0	0	0	0	0	0	0	0	0	0	0	0
101512	09:52:34	10033	Trial2BackFr	N	3	0	1000	1	114	09:52:34	2079158	0	0	0	0	0	0	0	0	0	0	0	0	0	0	0	0	0
101512	09:52:34	10033	Trial2BackFr	N	3	0	1000	1	115	09:52:34	2080663	0	0	0	0	0	0	0	0	0	0	0	0	0	0	0	0	0
101512	09:52:34	10033	Trial2BackFr	Y	3	0	1000	0	115	09:52:34	2082170	0	0	0	0	0	0	0	0	0	0	0	0	0	0	0	0	0
101512	09:52:34	10033	Memory1R3moFr	ScoreFr	5	M1	17092	0	115	09:52:34	2137590	0	0	0	0	0	0	0	0	0	0	0	0	0	0	0	0	0
101512	09:52:34	10033	Memory1R3moFr	ScoreFr	5	M6	2283	0	115	09:52:34	2139947	0	0	0	0	0	0	0	0	0	0	0	0	0	0	0	0	0
101512	09:52:34	10033	Memory1R3moFr	ScoreFr	5	M7	343	0	115	09:52:34	2140346	0	0	0	0	0	0	0	0	0	0	0	0	0	0	0	0	0
101512	09:52:34	10033	Memory1R3moFr	ScoreFr	5	M8	463	0	115	09:52:34	2140866	0	0	0	0	0	0	0	0	0	0	0	0	0	0	0	0	0
101512	09:52:34	10033	Memory1R3moFr	ScoreFr	5	Done	5135	0	115	09:52:34	2146051	0	0	0	0	0	0	0	0	0	0	0	0	0	0	0	0	0
101512	09:52:34	10033	Memory2R3moFr	ScoreFr2	5	11	16122	0	115	09:52:34	2202085	0	0	0	0	0	0	0	0	0	0	0	0	0	0	0	0	0
101512	09:52:34	10033	Memory2R3moFr	ScoreFr2	5	44	1689	0	115	09:52:34	2203841	0	0	0	0	0	0	0	0	0	0	0	0	0	0	0	0	0
101512	09:52:34	10033	Memory2R3moFr	ScoreFr2	5	55	184	0	115	09:52:34	2204081	0	0	0	0	0	0	0	0	0	0	0	0	0	0	0	0	0
101512	09:52:34	10033	Memory2R3moFr	ScoreFr2	5	77	1346	0	115	09:52:34	2205493	0	0	0	0	0	0	0	0	0	0	0	0	0	0	0	0	0
101512	09:52:34	10033	Memory2R3moFr	ScoreFr2	5	88	357	0	115	09:52:34	2205920	0	0	0	0	0	0	0	0	0	0	0	0	0	0	0	0	0
101512	09:52:34	10033	Memory2R3moFr	ScoreFr2	5	Done	808	0	115	09:52:34	2206773	0	0	0	0	0	0	0	0	0	0	0	0	0	0	0	0	0
101512	09:52:34	10033	Memory3R3moFr	ScoreFr3	5	111	15710	0	115	09:52:34	2240267	0	0	0	0	0	0	0	0	0	0	0	0	0	0	0	0	0
101512	09:52:34	10033	Memory3R3moFr	ScoreFr3	5	444	2648	0	115	09:52:34	2242972	0	0	0	0	0	0	0	0	0	0	0	0	0	0	0	0	0
101512	09:52:34	10033	Memory3R3moFr	ScoreFr3	5	555	206	0	115	09:52:34	2243238	0	0	0	0	0	0	0	0	0	0	0	0	0	0	0	0	0
101512	09:52:34	10033	Memory3R3moFr	ScoreFr3	5	666	809	0	115	09:52:34	2244091	0	0	0	0	0	0	0	0	0	0	0	0	0	0	0	0	0
101512	09:52:34	10033	Memory3R3moFr	ScoreFr3	5	777	207	0	115	09:52:34	2244358	0	0	0	0	0	0	0	0	0	0	0	0	0	0	0	0	0
101512	09:52:34	10033	Memory3R3moFr	ScoreFr3	5	888	188	0	115	09:52:34	2244611	0	0	0	0	0	0	0	0	0	0	0	0	0	0	0	0	0
101512	09:52:34	10033	Memory3R3moFr	ScoreFr3	5	Done	367	0	115	09:52:34	2245037	0	0	0	0	0	0	0	0	0	0	0	0	0	0	0	0	0
101512	09:52:34	10033	LoriaFrLH3	Stop	6	3	3397	0	115	09:52:34	2325142	0	0	0	0	0	0	0	0	0	0	0	0	0	0	0	0	0
101512	09:52:34	10033	FrTrail	Trails	7	1Trails	875	0	115	09:52:34	2347650	0	0	0	0	0	0	0	0	0	0	0	0	0	0	0	0	0
101512	09:52:34	10033	Serial7Fr3mo	Serial7Fr3mo	8	83	23634	0	115	09:52:34	2386107	1	0	0	0	0	0	0	0	0	0	0	0	0	0	0	0	0
101512	09:52:34	10033	Serial7Fr3mo	Serial7Fr3mo	8	76	3244	0	115	09:52:34	2389369	2	0	0	0	0	0	0	0	0	0	0	0	0	0	0	0	0
101512	09:52:34	10033	Serial7Fr3mo	Serial7Fr3mo	8	69	2208	0	115	09:52:34	2391595	3	0	0	0	0	0	0	0	0	0	0	0	0	0	0	0	0
101512	09:52:34	10033	Serial7Fr3mo	Serial7Fr3mo	8	62	3279	0	115	09:52:34	2394888	4	0	0	0	0	0	0	0	0	0	0	0	0	0	0	0	0
101512	09:52:34	10033	Serial7Fr3mo	Serial7Fr3mo	8	55	1986	0	115	09:52:34	2396900	5	0	0	0	0	0	0	0	0	0	0	0	0	0	0	0	0
101512	09:52:34	10033	corsiblockFrFwrd	recallseqFrFwrd	9	6	2474	0	115	09:52:34	2445248	5	0	0	0	0	0	0	0	0	0	0	0	0	0	0	0	0
101512	09:52:34	10033	corsiblockFrFwrd	recallseqFrFwrd	9	8	631	0	115	09:52:34	2445933	5	0	0	0	0	0	0	0	0	0	0	0	0	0	0	0	0
101512	09:52:34	10033	corsiblockFrFwrd	recallseqFrFwrd	9	doneCorsiFr	7377	0	115	09:52:34	2453357	5	0	0	0	0	0	0	0	0	0	0	0	0	0	0	2	0
101512	09:52:34	10033	corsiblockFrFwrd	recallseqFrFwrd	9	4	1899	0	115	09:52:34	2461460	5	0	0	0	0	0	0	0	0	0	0	0	0	0	0	2	0
101512	09:52:34	10033	corsiblockFrFwrd	recallseqFrFwrd	9	5	577	0	115	09:52:34	2462087	5	0	0	0	0	0	0	0	0	0	0	0	0	0	0	2	0
101512	09:52:34	10033	corsiblockFrFwrd	recallseqFrFwrd	9	9	767	0	115	09:52:34	2462900	5	0	0	0	0	0	0	0	0	0	0	0	0	0	0	2	0
101512	09:52:34	10033	corsiblockFrFwrd	recallseqFrFwrd	9	doneCorsiFr	1634	0	115	09:52:34	2464579	5	0	0	0	0	0	0	0	0	0	0	0	0	0	0	3	0
101512	09:52:34	10033	corsiblockFrFwrd	recallseqFrFwrd	9	7	1669	0	115	09:52:34	2473375	5	0	0	0	0	0	0	0	0	0	0	0	0	0	0	3	0
101512	09:52:34	10033	corsiblockFrFwrd	recallseqFrFwrd	9	3	694	0	115	09:52:34	2474122	5	0	0	0	0	0	0	0	0	0	0	0	0	0	0	3	0
101512	09:52:34	10033	corsiblockFrFwrd	recallseqFrFwrd	9	2	515	0	115	09:52:34	2474682	5	0	0	0	0	0	0	0	0	0	0	0	0	0	0	3	0
101512	09:52:34	10033	corsiblockFrFwrd	recallseqFrFwrd	9	1	740	0	115	09:52:34	2475468	5	0	0	0	0	0	0	0	0	0	0	0	0	0	0	3	0
101512	09:52:34	10033	corsiblockFrFwrd	recallseqFrFwrd	9	doneCorsiFr	1762	0	115	09:52:34	2477281	5	0	0	0	0	0	0	0	0	0	0	0	0	0	0	4	0
101512	09:52:34	10033	corsiblockFrFwrd	recallseqFrFwrd	9	2	1488	0	115	09:52:34	2486890	5	0	0	0	0	0	0	0	0	0	0	0	0	0	0	4	0
101512	09:52:34	10033	corsiblockFrFwrd	recallseqFrFwrd	9	4	627	0	115	09:52:34	2487570	5	0	0	0	0	0	0	0	0	0	0	0	0	0	0	4	0
101512	09:52:34	10033	corsiblockFrFwrd	recallseqFrFwrd	9	6	545	0	115	09:52:34	2488170	5	0	0	0	0	0	0	0	0	0	0	0	0	0	0	4	0
101512	09:52:34	10033	corsiblockFrFwrd	recallseqFrFwrd	9	3	532	0	115	09:52:34	2488756	5	0	0	0	0	0	0	0	0	0	0	0	0	0	0	4	0
101512	09:52:34	10033	corsiblockFrFwrd	recallseqFrFwrd	9	9	841	0	115	09:52:34	2489649	5	0	0	0	0	0	0	0	0	0	0	0	0	0	0	4	0
101512	09:52:34	10033	corsiblockFrFwrd	recallseqFrFwrd	9	doneCorsiFr	1068	0	115	09:52:34	2490769	5	0	0	0	0	0	0	0	0	0	0	0	0	0	0	5	0
101512	09:52:34	10033	corsiblockFrFwrd	recallseqFrFwrd	9	8	1480	0	115	09:52:34	2501378	5	0	0	0	0	0	0	0	0	0	0	0	0	0	0	5	0
101512	09:52:34	10033	corsiblockFrFwrd	recallseqFrFwrd	9	5	651	0	115	09:52:34	2502084	5	0	0	0	0	0	0	0	0	0	0	0	0	0	0	5	0
101512	09:52:34	10033	corsiblockFrFwrd	recallseqFrFwrd	9	1	865	0	115	09:52:34	2503004	5	0	0	0	0	0	0	0	0	0	0	0	0	0	0	5	0
101512	09:52:34	10033	corsiblockFrFwrd	recallseqFrFwrd	9	7	705	0	115	09:52:34	2503764	5	0	0	0	0	0	0	0	0	0	0	0	0	0	0	5	0
101512	09:52:34	10033	corsiblockFrFwrd	recallseqFrFwrd	9	4	817	0	115	09:52:34	2504630	5	0	0	0	0	0	0	0	0	0	0	0	0	0	0	5	0
101512	09:52:34	10033	corsiblockFrFwrd	recallseqFrFwrd	9	doneCorsiFr	687	0	115	09:52:34	2505363	5	0	0	0	0	0	0	0	0	0	0	0	0	0	0	5	0
101512	09:52:34	10033	corsiblockFrFwrd	recallseqFrFwrd	9	9	1440	0	115	09:52:34	2515905	5	0	0	0	0	0	0	0	0	0	0	0	0	0	0	5	0
101512	09:52:34	10033	corsiblockFrFwrd	recallseqFrFwrd	9	1	789	0	115	09:52:34	2516745	5	0	0	0	0	0	0	0	0	0	0	0	0	0	0	5	0
101512	09:52:34	10033	corsiblockFrFwrd	recallseqFrFwrd	9	2	707	0	115	09:52:34	2517504	5	0	0	0	0	0	0	0	0	0	0	0	0	0	0	5	0
101512	09:52:34	10033	corsiblockFrFwrd	recallseqFrFwrd	9	3	796	0	115	09:52:34	2518357	5	0	0	0	0	0	0	0	0	0	0	0	0	0	0	5	0
101512	09:52:34	10033	corsiblockFrFwrd	recallseqFrFwrd	9	4	551	0	115	09:52:34	2518957	5	0	0	0	0	0	0	0	0	0	0	0	0	0	0	5	0
101512	09:52:34	10033	corsiblockFrFwrd	recallseqFrFwrd	9	5	855	0	115	09:52:34	2519863	5	0	0	0	0	0	0	0	0	0	0	0	0	0	0	5	0
101512	09:52:34	10033	corsiblockFrFwrd	recallseqFrFwrd	9	doneCorsiFr	716	0	115	09:52:34	2520636	5	0	0	0	0	0	0	0	0	0	0	0	0	0	0	5	0
101512	09:52:34	10033	corsiblockFrRev	recallseqFrRev	10	2	1994	0	115	09:52:34	2535890	5	0	0	0	0	0	0	0	0	0	0	0	0	0	0	5	0
101512	09:52:34	10033	corsiblockFrRev	recallseqFrRev	10	9	755	0	115	09:52:34	2536697	5	0	0	0	0	0	0	0	0	0	0	0	0	0	0	5	0
101512	09:52:34	10033	corsiblockFrRev	recallseqFrRev	10	doneCorsiFr	3227	0	115	09:52:34	2539975	5	0	0	0	0	0	0	0	0	0	0	0	0	0	0	5	2
101512	09:52:34	10033	corsiblockFrRev	recallseqFrRev	10	3	836	0	115	09:52:34	2547052	5	0	0	0	0	0	0	0	0	0	0	0	0	0	0	5	2
101512	09:52:34	10033	corsiblockFrRev	recallseqFrRev	10	6	504	0	115	09:52:34	2547612	5	0	0	0	0	0	0	0	0	0	0	0	0	0	0	5	2
101512	09:52:34	10033	corsiblockFrRev	recallseqFrRev	10	5	616	0	115	09:52:34	2548278	5	0	0	0	0	0	0	0	0	0	0	0	0	0	0	5	2
101512	09:52:34	10033	corsiblockFrRev	recallseqFrRev	10	doneCorsiFr	637	0	115	09:52:34	2548972	5	0	0	0	0	0	0	0	0	0	0	0	0	0	0	5	3
101512	09:52:34	10033	corsiblockFrRev	recallseqFrRev	10	8	797	0	115	09:52:34	2556915	5	0	0	0	0	0	0	0	0	0	0	0	0	0	0	5	3
101512	09:52:34	10033	corsiblockFrRev	recallseqFrRev	10	4	640	0	115	09:52:34	2557608	5	0	0	0	0	0	0	0	0	0	0	0	0	0	0	5	3
101512	09:52:34	10033	corsiblockFrRev	recallseqFrRev	10	7	718	0	115	09:52:34	2558394	5	0	0	0	0	0	0	0	0	0	0	0	0	0	0	5	3
101512	09:52:34	10033	corsiblockFrRev	recallseqFrRev	10	1	825	0	115	09:52:34	2559274	5	0	0	0	0	0	0	0	0	0	0	0	0	0	0	5	3
101512	09:52:34	10033	corsiblockFrRev	recallseqFrRev	10	doneCorsiFr	785	0	115	09:52:34	2560114	5	0	0	0	0	0	0	0	0	0	0	0	0	0	0	5	4
101512	09:52:34	10033	corsiblockFrRev	recallseqFrRev	10	6	1135	0	115	09:52:34	2569390	5	0	0	0	0	0	0	0	0	0	0	0	0	0	0	5	4
101512	09:52:34	10033	corsiblockFrRev	recallseqFrRev	10	7	925	0	115	09:52:34	2570363	5	0	0	0	0	0	0	0	0	0	0	0	0	0	0	5	4
101512	09:52:34	10033	corsiblockFrRev	recallseqFrRev	10	2	688	0	115	09:52:34	2571096	5	0	0	0	0	0	0	0	0	0	0	0	0	0	0	5	4
101512	09:52:34	10033	corsiblockFrRev	recallseqFrRev	10	4	771	0	115	09:52:34	2571922	5	0	0	0	0	0	0	0	0	0	0	0	0	0	0	5	4
101512	09:52:34	10033	corsiblockFrRev	recallseqFrRev	10	9	825	0	115	09:52:34	2572802	5	0	0	0	0	0	0	0	0	0	0	0	0	0	0	5	4
101512	09:52:34	10033	corsiblockFrRev	recallseqFrRev	10	doneCorsiFr	1177	0	115	09:52:34	2574028	5	0	0	0	0	0	0	0	0	0	0	0	0	0	0	5	4
101512	09:52:34	10033	corsiblockFrRev	recallseqFrRev	10	6	1474	0	115	09:52:34	2583584	5	0	0	0	0	0	0	0	0	0	0	0	0	0	0	5	4
101512	09:52:34	10033	corsiblockFrRev	recallseqFrRev	10	5	363	0	115	09:52:34	2584038	5	0	0	0	0	0	0	0	0	0	0	0	0	0	0	5	4
101512	09:52:34	10033	corsiblockFrRev	recallseqFrRev	10	3	613	0	115	09:52:34	2584704	5	0	0	0	0	0	0	0	0	0	0	0	0	0	0	5	4
101512	09:52:34	10033	corsiblockFrRev	recallseqFrRev	10	1	867	0	115	09:52:34	2585623	5	0	0	0	0	0	0	0	0	0	0	0	0	0	0	5	4
101512	09:52:34	10033	corsiblockFrRev	recallseqFrRev	10	8	1027	0	115	09:52:34	2586703	5	0	0	0	0	0	0	0	0	0	0	0	0	0	0	5	4
101512	09:52:34	10033	corsiblockFrRev	recallseqFrRev	10	doneCorsiFr	860	0	115	09:52:34	2587609	5	0	0	0	0	0	0	0	0	0	0	0	0	0	0	5	4
101512	09:52:34	10033	testFr3mo	WordsFr3mo	11	6Fr3mo	211	0	115	09:52:34	2607137	5	0	0	0	0	0	3	0	0	0	0	0	0	0	0	5	4
101512	09:52:34	10033	testFr3mo	WordsFr3mo	11	DoneFr3mo	24534	0	115	09:52:34	2631739	5	0	0	0	0	0	3	0	0	0	0	0	0	0	0	5	4
101512	09:52:34	10033	testFr3mo	Cat1Fr3mo	11	0	1	0	115	09:52:34	2631837	5	0	0	0	0	0	3	0	0	0	0	0	0	0	0	5	4
101512	09:52:34	10033	testFr3mo	Ch1Fr3mo	11	RR1Fr3mo	11191	0	115	09:52:34	2643509	5	1	0	0	0	0	3	0	0	0	0	0	0	0	0	5	4
101512	09:52:34	10033	testFr3mo	Cat2Fr3mo	11	W2Fr3mo	6653	0	115	09:52:34	2650490	5	1	0	0	0	0	3	0	0	0	0	0	0	0	0	5	4
101512	09:52:34	10033	testFr3mo	Ch2Fr3mo	11	RR2Fr3mo	4177	0	115	09:52:34	2654769	5	1	1	0	0	0	3	0	0	0	0	0	0	0	0	5	4
101512	09:52:34	10033	testFr3mo	Cat3Fr3mo	11	0	1	0	115	09:52:34	2654776	5	1	1	0	0	0	3	0	0	0	0	0	0	0	0	5	4
101512	09:52:34	10033	testFr3mo	Ch3Fr3mo	11	WW3Fr3mo	17289	0	115	09:52:34	2672215	5	1	1	0	0	0	3	0	0	0	0	0	0	0	0	5	4
101512	09:52:34	10033	testFr3mo	Cat4Fr3mo	11	W4Fr3mo	14083	0	115	09:52:34	2686409	5	1	1	0	0	0	3	0	0	0	0	0	0	0	0	5	4
101512	09:52:34	10033	testFr3mo	Ch4Fr3mo	11	RR4Fr3mo	4150	0	115	09:52:34	2690674	5	1	1	0	1	0	3	0	0	0	0	0	0	0	0	5	4
101512	09:52:34	10033	testFr3mo	Cat5Fr3mo	11	R5Fr3mo	8450	0	115	09:52:34	2699204	5	1	1	0	1	2	3	0	0	0	0	0	0	0	0	5	4
101512	09:52:34	10033	testFr3mo	Cat7Fr3mo	11	W7Fr3mo	6245	0	115	09:52:34	2705582	5	1	1	0	1	2	3	0	0	0	0	0	0	0	0	5	4
101512	09:52:34	10033	testFr3mo	Ch7Fr3mo	11	RR7Fr3mo	7455	0	115	09:52:34	2713172	5	1	1	0	1	2	3	1	0	0	0	0	0	0	0	5	4
101512	09:52:34	10033	testFr3mo	Cat8Fr3mo	11	W8Fr3mo	6297	0	115	09:52:34	2719583	5	1	1	0	1	2	3	1	0	0	0	0	0	0	0	5	4
101512	09:52:34	10033	testFr3mo	Ch8Fr3mo	11	RR8Fr3mo	4198	0	115	09:52:34	2723888	5	1	1	0	1	2	3	1	1	0	0	0	0	0	0	5	4
101512	09:52:34	10033	DigitSpanFwrdFr3mo	Score1FwrdFr3mo	12	DS1	3369	0	115	09:52:34	2754379	5	1	1	0	1	2	3	1	1	0	0	0	0	0	0	5	4
101512	09:52:34	10033	DigitSpanFwrdFr3mo	Gate1FwrdFr3mo	12	0	1	0	115	09:52:34	2754428	5	1	1	0	1	2	3	1	1	3	0	0	0	0	0	5	4
101512	09:52:34	10033	DigitSpanFwrdFr3mo	Score2FwrdFr3mo	12	DS1	1874	0	115	09:52:34	2762014	5	1	1	0	1	2	3	1	1	3	0	0	0	0	0	5	4
101512	09:52:34	10033	DigitSpanFwrdFr3mo	Gate3FwrdFr3mo	12	0	1	0	115	09:52:34	2762057	5	1	1	0	1	2	3	1	1	4	0	0	0	0	0	5	4
101512	09:52:34	10033	DigitSpanFwrdFr3mo	Score3FwrdFr3mo	12	DS1	2320	0	115	09:52:34	2771680	5	1	1	0	1	2	3	1	1	4	0	0	0	0	0	5	4
101512	09:52:34	10033	DigitSpanFwrdFr3mo	Gate5FwrdFr3mo	12	0	1	0	115	09:52:34	2771715	5	1	1	0	1	2	3	1	1	5	0	0	0	0	0	5	4
101512	09:52:34	10033	DigitSpanFwrdFr3mo	Score4FwrdFr3mo	12	DS1	3230	0	115	09:52:34	2783522	5	1	1	0	1	2	3	1	1	5	0	0	0	0	0	5	4
101512	09:52:34	10033	DigitSpanFwrdFr3mo	Gate7FwrdFr3mo	12	0	1	0	115	09:52:34	2783573	5	1	1	0	1	2	3	1	1	6	0	0	0	0	0	5	4
101512	09:52:34	10033	DigitSpanFwrdFr3mo	Score5FwrdFr3mo	12	DS1	5957	0	115	09:52:34	2801654	5	1	1	0	1	2	3	1	1	6	0	0	0	0	0	5	4
101512	09:52:34	10033	DigitSpanFwrdFr3mo	Gate9FwrdFr3mo	12	0	1	0	115	09:52:34	2801700	5	1	1	0	1	2	3	1	1	7	0	0	0	0	0	5	4
101512	09:52:34	10033	DigitSpanFwrdFr3mo	Score6FwrdFr3mo	12	DS2	7227	0	115	09:52:34	2820829	5	1	1	0	1	2	3	1	1	7	0	0	0	0	0	5	4
101512	09:52:34	10033	DigitSpanFwrdFr3mo	Gate11FwrdFr3mo	12	0	1	0	115	09:52:34	2820867	5	1	1	0	1	2	3	1	1	7	0	0	0	0	0	5	4
101512	09:52:34	10033	DigitSpanFwrdFr3mo	Score66FwrdFr3mo	12	DS2	15416	0	115	09:52:34	2848011	5	1	1	0	1	2	3	1	1	7	0	0	0	0	0	5	4
101512	09:52:34	10033	DigitSpanFr3mo	Score1Fr3mo	13	DS1	3202	0	115	09:52:34	2890579	5	1	1	0	1	2	3	1	1	7	0	0	0	0	0	5	4
101512	09:52:34	10033	DigitSpanFr3mo	Gate1Fr3mo	13	0	1	0	115	09:52:34	2890584	5	1	1	0	1	2	3	1	1	7	2	0	0	0	0	5	4
101512	09:52:34	10033	DigitSpanFr3mo	Score2Fr3mo	13	DS1	3648	0	115	09:52:34	2898859	5	1	1	0	1	2	3	1	1	7	2	0	0	0	0	5	4
101512	09:52:34	10033	DigitSpanFr3mo	Gate3Fr3mo	13	0	1	0	115	09:52:34	2898864	5	1	1	0	1	2	3	1	1	7	3	0	0	0	0	5	4
101512	09:52:34	10033	DigitSpanFr3mo	Score3Fr3mo	13	DS2	7755	0	115	09:52:34	2912349	5	1	1	0	1	2	3	1	1	7	3	0	0	0	0	5	4
101512	09:52:34	10033	DigitSpanFr3mo	Gate5Fr3mo	13	0	1	0	115	09:52:34	2912359	5	1	1	0	1	2	3	1	1	7	3	0	0	0	0	5	4
101512	09:52:34	10033	DigitSpanFr3mo	Score33Fr3mo	13	DS1	5318	0	115	09:52:34	2923753	5	1	1	0	1	2	3	1	1	7	3	0	0	0	0	5	4
101512	09:52:34	10033	DigitSpanFr3mo	Gate6Fr3mo	13	0	1	0	115	09:52:34	2923778	5	1	1	0	1	2	3	1	1	7	4	0	0	0	0	5	4
101512	09:52:34	10033	DigitSpanFr3mo	Score4Fr3mo	13	DS2	18792	0	115	09:52:34	2949857	5	1	1	0	1	2	3	1	1	7	4	0	0	0	0	5	4
101512	09:52:34	10033	DigitSpanFr3mo	Gate7Fr3mo	13	0	1	0	115	09:52:34	2949861	5	1	1	0	1	2	3	1	1	7	4	0	0	0	0	5	4
101512	09:52:34	10033	DigitSpanFr3mo	Score44Fr3mo	13	DS1	11063	0	115	09:52:34	2968144	5	1	1	0	1	2	3	1	1	7	4	0	0	0	0	5	4
101512	09:52:34	10033	DigitSpanFr3mo	Gate8Fr3mo	13	0	1	0	115	09:52:34	2968158	5	1	1	0	1	2	3	1	1	7	5	0	0	0	0	5	4
101512	09:52:34	10033	DigitSpanFr3mo	Score5Fr3mo	13	DS2	22193	0	115	09:52:34	2998886	5	1	1	0	1	2	3	1	1	7	5	0	0	0	0	5	4
101512	09:52:34	10033	DigitSpanFr3mo	Gate9Fr3mo	13	0	1	0	115	09:52:34	2998891	5	1	1	0	1	2	3	1	1	7	5	0	0	0	0	5	4
101512	09:52:34	10033	DigitSpanFr3mo	Score55Fr3mo	13	DS2	11253	0	115	09:52:34	3018528	5	1	1	0	1	2	3	1	1	7	5	0	0	0	0	5	4
101512	09:52:34	10033	Trial	ResponseIL	14	0	175	0	115	09:52:34	3104174	5	1	1	0	1	2	3	1	1	7	5	0	0	0	0	5	4
101512	09:52:34	10033	Trial	IncongruentLeft	14	203	697	1	115	09:52:34	3104907	5	1	1	0	1	2	3	1	1	7	5	0	0	0	0	5	4
101512	09:52:34	10033	Trial	ResponseCR	14	0	175	0	115	09:52:34	3105893	5	1	1	0	1	2	3	1	1	7	5	0	0	0	0	5	4
101512	09:52:34	10033	Trial	CongruentRight	14	205	357	1	115	09:52:34	3106293	5	1	1	0	1	2	3	1	1	7	5	0	0	0	0	5	4
101512	09:52:34	10033	Trial	ResponseIR	14	0	175	0	115	09:52:34	3107626	5	1	1	0	1	2	3	1	1	7	5	0	0	0	0	5	4
101512	09:52:34	10033	Trial	IncongruentRight	14	205	522	1	115	09:52:34	3108172	5	1	1	0	1	2	3	1	1	7	5	0	0	0	0	5	4
101512	09:52:34	10033	Trial	ResponseCL	14	0	175	0	115	09:52:34	3109332	5	1	1	0	1	2	3	1	1	7	5	0	0	0	0	5	4
101512	09:52:34	10033	Trial	CongruentLeft	14	203	369	1	115	09:52:34	3109718	5	1	1	0	1	2	3	1	1	7	5	0	0	0	0	5	4
101512	09:52:34	10033	Trial	ResponseCR	14	0	175	0	115	09:52:34	3111038	5	1	1	0	1	2	3	1	1	7	5	0	0	0	0	5	4
101512	09:52:34	10033	Trial	CongruentRight	14	205	374	1	115	09:52:34	3111437	5	1	1	0	1	2	3	1	1	7	5	0	0	0	0	5	4
101512	09:52:34	10033	Trial	ResponseIR	14	0	175	0	115	09:52:34	3112744	5	1	1	0	1	2	3	1	1	7	5	0	0	0	0	5	4
101512	09:52:34	10033	Trial	IncongruentRight	14	205	461	1	115	09:52:34	3113223	5	1	1	0	1	2	3	1	1	7	5	0	0	0	0	5	4
101512	09:52:34	10033	Trial	ResponseCL	14	0	175	0	115	09:52:34	3114449	5	1	1	0	1	2	3	1	1	7	5	0	0	0	0	5	4
101512	09:52:34	10033	Trial	CongruentLeft	14	203	339	1	115	09:52:34	3114809	5	1	1	0	1	2	3	1	1	7	5	0	0	0	0	5	4
101512	09:52:34	10033	Trial	ResponseIL	14	0	175	0	115	09:52:34	3116155	5	1	1	0	1	2	3	1	1	7	5	0	0	0	0	5	4
101512	09:52:34	10033	Trial	IncongruentLeft	14	203	473	1	115	09:52:34	3116673	5	1	1	0	1	2	3	1	1	7	5	0	0	0	0	5	4
101512	09:52:34	10033	Trial	ResponseIL	14	0	175	0	115	09:52:34	3117861	5	1	1	0	1	2	3	1	1	7	5	0	0	0	0	5	4
101512	09:52:34	10033	Trial	IncongruentLeft	14	203	462	1	115	09:52:34	3118341	5	1	1	0	1	2	3	1	1	7	5	0	0	0	0	5	4
101512	09:52:34	10033	Trial	ResponseCR	14	0	175	0	115	09:52:34	3119567	5	1	1	0	1	2	3	1	1	7	5	0	0	0	0	5	4
101512	09:52:34	10033	Trial	CongruentRight	14	205	309	1	115	09:52:34	3119901	5	1	1	0	1	2	3	1	1	7	5	0	0	0	0	5	4
101512	09:52:34	10033	Trial	ResponseIR	14	0	175	0	115	09:52:34	3121273	5	1	1	0	1	2	3	1	1	7	5	0	0	0	0	5	4
101512	09:52:34	10033	Trial	IncongruentRight	14	205	395	1	115	09:52:34	3121686	5	1	1	0	1	2	3	1	1	7	5	0	0	0	0	5	4
101512	09:52:34	10033	Trial	ResponseCL	14	0	175	0	115	09:52:34	3122979	5	1	1	0	1	2	3	1	1	7	5	0	0	0	0	5	4
101512	09:52:34	10033	Trial	CongruentLeft	14	203	337	1	115	09:52:34	3123339	5	1	1	0	1	2	3	1	1	7	5	0	0	0	0	5	4
101512	09:52:34	10033	Trial	ResponseCR	14	0	175	0	115	09:52:34	3124685	5	1	1	0	1	2	3	1	1	7	5	0	0	0	0	5	4
101512	09:52:34	10033	Trial	CongruentRight	14	205	327	1	115	09:52:34	3125032	5	1	1	0	1	2	3	1	1	7	5	0	0	0	0	5	4
101512	09:52:34	10033	Trial	ResponseIL	14	0	175	0	115	09:52:34	3126391	5	1	1	0	1	2	3	1	1	7	5	0	0	0	0	5	4
101512	09:52:34	10033	Trial	IncongruentLeft	14	203	368	1	115	09:52:34	3126778	5	1	1	0	1	2	3	1	1	7	5	0	0	0	0	5	4
101512	09:52:34	10033	Trial	ResponseIR	14	0	175	0	115	09:52:34	3128097	5	1	1	0	1	2	3	1	1	7	5	0	0	0	0	5	4
101512	09:52:34	10033	Trial	IncongruentRight	14	205	258	1	115	09:52:34	3128377	5	1	1	0	1	2	3	1	1	7	5	0	0	0	0	5	4
101512	09:52:34	10033	Trial	ResponseCR	14	0	175	0	115	09:52:34	3129803	5	1	1	0	1	2	3	1	1	7	5	0	0	0	0	5	4
101512	09:52:34	10033	Trial	CongruentRight	14	205	488	1	115	09:52:34	3130310	5	1	1	0	1	2	3	1	1	7	5	0	0	0	0	5	4
101512	09:52:34	10033	Trial	ResponseCL	14	0	175	0	115	09:52:34	3131509	5	1	1	0	1	2	3	1	1	7	5	0	0	0	0	5	4
101512	09:52:34	10033	Trial	CongruentLeft	14	203	334	1	115	09:52:34	3131869	5	1	1	0	1	2	3	1	1	7	5	0	0	0	0	5	4
101512	09:52:34	10033	Trial	ResponseCR	14	0	175	0	115	09:52:34	3133215	5	1	1	0	1	2	3	1	1	7	5	0	0	0	0	5	4
101512	09:52:34	10033	Trial	CongruentRight	14	205	341	1	115	09:52:34	3133575	5	1	1	0	1	2	3	1	1	7	5	0	0	0	0	5	4
101512	09:52:34	10033	Trial	ResponseIR	14	0	175	0	115	09:52:34	3134921	5	1	1	0	1	2	3	1	1	7	5	0	0	0	0	5	4
101512	09:52:34	10033	Trial	IncongruentRight	14	205	394	1	115	09:52:34	3135334	5	1	1	0	1	2	3	1	1	7	5	0	0	0	0	5	4
101512	09:52:34	10033	Trial	ResponseIL	14	0	175	0	115	09:52:34	3136627	5	1	1	0	1	2	3	1	1	7	5	0	0	0	0	5	4
101512	09:52:34	10033	Trial	IncongruentLeft	14	203	433	1	115	09:52:34	3137080	5	1	1	0	1	2	3	1	1	7	5	0	0	0	0	5	4
101512	09:52:34	10033	Trial	ResponseIL	14	0	175	0	115	09:52:34	3138333	5	1	1	0	1	2	3	1	1	7	5	0	0	0	0	5	4
101512	09:52:34	10033	Trial	IncongruentLeft	14	203	422	1	115	09:52:34	3138773	5	1	1	0	1	2	3	1	1	7	5	0	0	0	0	5	4
101512	09:52:34	10033	Trial	ResponseCL	14	0	175	0	115	09:52:34	3140039	5	1	1	0	1	2	3	1	1	7	5	0	0	0	0	5	4
101512	09:52:34	10033	Trial	CongruentLeft	14	203	300	1	115	09:52:34	3140359	5	1	1	0	1	2	3	1	1	7	5	0	0	0	0	5	4
101512	09:52:34	10033	Trial	ResponseCR	14	0	175	0	115	09:52:34	3141745	5	1	1	0	1	2	3	1	1	7	5	0	0	0	0	5	4
101512	09:52:34	10033	Trial	CongruentRight	14	205	418	1	115	09:52:34	3142185	5	1	1	0	1	2	3	1	1	7	5	0	0	0	0	5	4
101512	09:52:34	10033	Trial	ResponseIL	14	0	175	0	115	09:52:34	3143451	5	1	1	0	1	2	3	1	1	7	5	0	0	0	0	5	4
101512	09:52:34	10033	Trial	IncongruentLeft	14	203	440	1	115	09:52:34	3143918	5	1	1	0	1	2	3	1	1	7	5	0	0	0	0	5	4
101512	09:52:34	10033	Trial	ResponseIR	14	0	175	0	115	09:52:34	3145157	5	1	1	0	1	2	3	1	1	7	5	0	0	0	0	5	4
101512	09:52:34	10033	Trial	IncongruentRight	14	205	302	1	115	09:52:34	3145477	5	1	1	0	1	2	3	1	1	7	5	0	0	0	0	5	4
101512	09:52:34	10033	Trial	ResponseCR	14	0	175	0	115	09:52:34	3146863	5	1	1	0	1	2	3	1	1	7	5	0	0	0	0	5	4
101512	09:52:34	10033	Trial	CongruentRight	14	205	212	1	115	09:52:34	3147103	5	1	1	0	1	2	3	1	1	7	5	0	0	0	0	5	4
101512	09:52:34	10033	Trial	ResponseCL	14	0	175	0	115	09:52:34	3148569	5	1	1	0	1	2	3	1	1	7	5	0	0	0	0	5	4
101512	09:52:34	10033	Trial	CongruentLeft	14	203	346	1	115	09:52:34	3148942	5	1	1	0	1	2	3	1	1	7	5	0	0	0	0	5	4
101512	09:52:34	10033	Trial	ResponseIR	14	0	175	0	115	09:52:34	3150275	5	1	1	0	1	2	3	1	1	7	5	0	0	0	0	5	4
101512	09:52:34	10033	Trial	IncongruentRight	14	205	257	1	115	09:52:34	3150555	5	1	1	0	1	2	3	1	1	7	5	0	0	0	0	5	4
101512	09:52:34	10033	Trial	ResponseIL	14	0	175	0	115	09:52:34	3151981	5	1	1	0	1	2	3	1	1	7	5	0	0	0	0	5	4
101512	09:52:34	10033	Trial	IncongruentLeft	14	205	150	0	115	09:52:34	3152171	5	1	1	0	1	2	3	1	1	7	5	0	0	0	0	5	4
101512	09:52:34	10033	Trial	ResponseIR	14	0	175	0	115	09:52:34	3153687	5	1	1	0	1	2	3	1	1	7	5	0	0	0	0	5	4
101512	09:52:34	10033	Trial	IncongruentRight	14	205	268	1	115	09:52:34	3153980	5	1	1	0	1	2	3	1	1	7	5	0	0	0	0	5	4
101512	09:52:34	10033	Trial	ResponseCR	14	0	175	0	115	09:52:34	3155393	5	1	1	0	1	2	3	1	1	7	5	0	0	0	0	5	4
101512	09:52:34	10033	Trial	CongruentRight	14	205	258	1	115	09:52:34	3155673	5	1	1	0	1	2	3	1	1	7	5	0	0	0	0	5	4
101512	09:52:34	10033	Trial	ResponseIL	14	0	175	0	115	09:52:34	3157099	5	1	1	0	1	2	3	1	1	7	5	0	0	0	0	5	4
101512	09:52:34	10033	Trial	IncongruentLeft	14	203	136	1	115	09:52:34	3157259	5	1	1	0	1	2	3	1	1	7	5	0	0	0	0	5	4
101512	09:52:34	10033	Trial	ResponseCL	14	0	175	0	115	09:52:34	3158805	5	1	1	0	1	2	3	1	1	7	5	0	0	0	0	5	4
101512	09:52:34	10033	Trial	CongruentLeft	14	203	429	1	115	09:52:34	3159258	5	1	1	0	1	2	3	1	1	7	5	0	0	0	0	5	4
101512	09:52:34	10033	Trial	ResponseCR	14	0	175	0	115	09:52:34	3160511	5	1	1	0	1	2	3	1	1	7	5	0	0	0	0	5	4
101512	09:52:34	10033	Trial	CongruentRight	14	205	275	1	115	09:52:34	3160804	5	1	1	0	1	2	3	1	1	7	5	0	0	0	0	5	4
101512	09:52:34	10033	Trial	ResponseIL	14	0	175	0	115	09:52:34	3162217	5	1	1	0	1	2	3	1	1	7	5	0	0	0	0	5	4
101512	09:52:34	10033	Trial	IncongruentLeft	14	203	375	1	115	09:52:34	3162617	5	1	1	0	1	2	3	1	1	7	5	0	0	0	0	5	4
101512	09:52:34	10033	Trial	ResponseIR	14	0	175	0	115	09:52:34	3163923	5	1	1	0	1	2	3	1	1	7	5	0	0	0	0	5	4
101512	09:52:34	10033	Trial	IncongruentRight	14	203	352	0	115	09:52:34	3164296	5	1	1	0	1	2	3	1	1	7	5	0	0	0	0	5	4
101512	09:52:34	10033	Trial	ResponseIR	14	0	175	0	115	09:52:34	3165629	5	1	1	0	1	2	3	1	1	7	5	0	0	0	0	5	4
101512	09:52:34	10033	Trial	IncongruentRight	14	205	438	1	115	09:52:34	3166096	5	1	1	0	1	2	3	1	1	7	5	0	0	0	0	5	4
101512	09:52:34	10033	Trial	ResponseCL	14	0	175	0	115	09:52:34	3167335	5	1	1	0	1	2	3	1	1	7	5	0	0	0	0	5	4
101512	09:52:34	10033	Trial	CongruentLeft	14	203	316	1	115	09:52:34	3167668	5	1	1	0	1	2	3	1	1	7	5	0	0	0	0	5	4
101512	09:52:34	10033	Trial	ResponseIL	14	0	175	0	115	09:52:34	3169041	5	1	1	0	1	2	3	1	1	7	5	0	0	0	0	5	4
101512	09:52:34	10033	Trial	IncongruentLeft	14	203	465	1	115	09:52:34	3169534	5	1	1	0	1	2	3	1	1	7	5	0	0	0	0	5	4
101512	09:52:34	10033	Trial	ResponseCR	14	0	175	0	115	09:52:34	3170747	5	1	1	0	1	2	3	1	1	7	5	0	0	0	0	5	4
101512	09:52:34	10033	Trial	CongruentRight	14	205	231	1	115	09:52:34	3171000	5	1	1	0	1	2	3	1	1	7	5	0	0	0	0	5	4
101512	09:52:34	10033	Trial	ResponseCL	14	0	175	0	115	09:52:34	3172453	5	1	1	0	1	2	3	1	1	7	5	0	0	0	0	5	4
101512	09:52:34	10033	Trial	CongruentLeft	14	203	269	1	115	09:52:34	3172746	5	1	1	0	1	2	3	1	1	7	5	0	0	0	0	5	4
101512	09:52:34	10033	Trial	ResponseIR	14	0	175	0	115	09:52:34	3174159	5	1	1	0	1	2	3	1	1	7	5	0	0	0	0	5	4
101512	09:52:34	10033	Trial	IncongruentRight	14	205	418	1	115	09:52:34	3174599	5	1	1	0	1	2	3	1	1	7	5	0	0	0	0	5	4
101512	09:52:34	10033	Trial	ResponseCR	14	0	175	0	115	09:52:34	3175865	5	1	1	0	1	2	3	1	1	7	5	0	0	0	0	5	4
101512	09:52:34	10033	Trial	CongruentRight	14	205	313	1	115	09:52:34	3176198	5	1	1	0	1	2	3	1	1	7	5	0	0	0	0	5	4
101512	09:52:34	10033	Trial	ResponseIL	14	0	175	0	115	09:52:34	3177571	5	1	1	0	1	2	3	1	1	7	5	0	0	0	0	5	4
101512	09:52:34	10033	Trial	IncongruentLeft	14	203	367	1	115	09:52:34	3177957	5	1	1	0	1	2	3	1	1	7	5	0	0	0	0	5	4
101512	09:52:34	10033	Trial	ResponseCL	14	0	175	0	115	09:52:34	3179277	5	1	1	0	1	2	3	1	1	7	5	0	0	0	0	5	4
101512	09:52:34	10033	Trial	CongruentLeft	14	203	325	1	115	09:52:34	3179623	5	1	1	0	1	2	3	1	1	7	5	0	0	0	0	5	4
101512	09:52:34	10033	Trial	ResponseIL	14	0	175	0	115	09:52:34	3180996	5	1	1	0	1	2	3	1	1	7	5	0	0	0	0	5	4
101512	09:52:34	10033	Trial	IncongruentLeft	14	203	398	1	115	09:52:34	3181423	5	1	1	0	1	2	3	1	1	7	5	0	0	0	0	5	4
101512	09:52:34	10033	Trial	ResponseIR	14	0	175	0	115	09:52:34	3182702	5	1	1	0	1	2	3	1	1	7	5	0	0	0	0	5	4
101512	09:52:34	10033	Trial	IncongruentRight	14	205	387	1	115	09:52:34	3183115	5	1	1	0	1	2	3	1	1	7	5	0	0	0	0	5	4
101512	09:52:34	10033	Trial	ResponseCR	14	0	175	0	115	09:52:34	3184408	5	1	1	0	1	2	3	1	1	7	5	0	0	0	0	5	4
101512	09:52:34	10033	Trial	CongruentRight	14	205	234	1	115	09:52:34	3184661	5	1	1	0	1	2	3	1	1	7	5	0	0	0	0	5	4
101512	09:52:34	10033	Trial	ResponseCL	14	0	175	0	115	09:52:34	3186114	5	1	1	0	1	2	3	1	1	7	5	0	0	0	0	5	4
101512	09:52:34	10033	Trial	CongruentLeft	14	203	353	1	115	09:52:34	3186487	5	1	1	0	1	2	3	1	1	7	5	0	0	0	0	5	4
101512	09:52:34	10033	Trial	ResponseCL	14	0	175	0	115	09:52:34	3187820	5	1	1	0	1	2	3	1	1	7	5	0	0	0	0	5	4
101512	09:52:34	10033	Trial	CongruentLeft	14	203	374	1	115	09:52:34	3188220	5	1	1	0	1	2	3	1	1	7	5	0	0	0	0	5	4
101512	09:52:34	10033	Trial	ResponseIR	14	0	175	0	115	09:52:34	3189526	5	1	1	0	1	2	3	1	1	7	5	0	0	0	0	5	4
101512	09:52:34	10033	Trial	IncongruentRight	14	205	380	1	115	09:52:34	3189926	5	1	1	0	1	2	3	1	1	7	5	0	0	0	0	5	4
101512	09:52:34	10033	Trial	ResponseIL	14	0	175	0	115	09:52:34	3191232	5	1	1	0	1	2	3	1	1	7	5	0	0	0	0	5	4
101512	09:52:34	10033	Trial	IncongruentLeft	14	203	370	1	115	09:52:34	3191632	5	1	1	0	1	2	3	1	1	7	5	0	0	0	0	5	4
101512	09:52:34	10033	Trial	ResponseIR	14	0	175	0	115	09:52:34	3192938	5	1	1	0	1	2	3	1	1	7	5	0	0	0	0	5	4
101512	09:52:34	10033	Trial	IncongruentRight	14	203	329	0	115	09:52:34	3193284	5	1	1	0	1	2	3	1	1	7	5	0	0	0	0	5	4
101512	09:52:34	10033	Trial	ResponseCR	14	0	175	0	115	09:52:34	3194657	5	1	1	0	1	2	3	1	1	7	5	0	0	0	0	5	4
101512	09:52:34	10033	Trial	CongruentRight	14	205	353	1	115	09:52:34	3195030	5	1	1	0	1	2	3	1	1	7	5	0	0	0	0	5	4
101512	09:52:34	10033	Trial	ResponseCR	14	0	175	0	115	09:52:34	3196363	5	1	1	0	1	2	3	1	1	7	5	0	0	0	0	5	4
101512	09:52:34	10033	Trial	CongruentRight	14	205	326	1	115	09:52:34	3196710	5	1	1	0	1	2	3	1	1	7	5	0	0	0	0	5	4
101512	09:52:34	10033	Trial	ResponseIL	14	0	175	0	115	09:52:34	3198069	5	1	1	0	1	2	3	1	1	7	5	0	0	0	0	5	4
101512	09:52:34	10033	Trial	IncongruentLeft	14	203	365	1	115	09:52:34	3198456	5	1	1	0	1	2	3	1	1	7	5	0	0	0	0	5	4
101512	09:52:34	10033	Trial	ResponseCL	14	0	175	0	115	09:52:34	3199775	5	1	1	0	1	2	3	1	1	7	5	0	0	0	0	5	4
101512	09:52:34	10033	Trial	CongruentLeft	14	203	306	1	115	09:52:34	3200108	5	1	1	0	1	2	3	1	1	7	5	0	0	0	0	5	4
101512	09:52:34	10033	Trial	ResponseCR	14	0	175	0	115	09:52:34	3201481	5	1	1	0	1	2	3	1	1	7	5	0	0	0	0	5	4
101512	09:52:34	10033	Trial	CongruentRight	14	205	232	1	115	09:52:34	3201734	5	1	1	0	1	2	3	1	1	7	5	0	0	0	0	5	4
101512	09:52:34	10033	Trial	ResponseCL	14	0	175	0	115	09:52:34	3203187	5	1	1	0	1	2	3	1	1	7	5	0	0	0	0	5	4
101512	09:52:34	10033	Trial	CongruentLeft	14	203	286	1	115	09:52:34	3203493	5	1	1	0	1	2	3	1	1	7	5	0	0	0	0	5	4
101512	09:52:34	10033	Trial	ResponseIR	14	0	175	0	115	09:52:34	3204893	5	1	1	0	1	2	3	1	1	7	5	0	0	0	0	5	4
101512	09:52:34	10033	Trial	IncongruentRight	14	205	261	1	115	09:52:34	3205173	5	1	1	0	1	2	3	1	1	7	5	0	0	0	0	5	4
101512	09:52:34	10033	Trial	ResponseCR	14	0	175	0	115	09:52:34	3206599	5	1	1	0	1	2	3	1	1	7	5	0	0	0	0	5	4
101512	09:52:34	10033	Trial	CongruentRight	14	205	235	1	115	09:52:34	3206852	5	1	1	0	1	2	3	1	1	7	5	0	0	0	0	5	4
101512	09:52:34	10033	Trial	ResponseCL	14	0	175	0	115	09:52:34	3208305	5	1	1	0	1	2	3	1	1	7	5	0	0	0	0	5	4
101512	09:52:34	10033	Trial	CongruentLeft	14	203	320	1	115	09:52:34	3208652	5	1	1	0	1	2	3	1	1	7	5	0	0	0	0	5	4
101512	09:52:34	10033	Trial	ResponseIL	14	0	175	0	115	09:52:34	3210024	5	1	1	0	1	2	3	1	1	7	5	0	0	0	0	5	4
101512	09:52:34	10033	Trial	IncongruentLeft	14	205	233	0	115	09:52:34	3210278	5	1	1	0	1	2	3	1	1	7	5	0	0	0	0	5	4
101512	09:52:34	10033	Trial	ResponseIL	14	0	175	0	115	09:52:34	3211730	5	1	1	0	1	2	3	1	1	7	5	0	0	0	0	5	4
101512	09:52:34	10033	Trial	IncongruentLeft	14	205	240	0	115	09:52:34	3211997	5	1	1	0	1	2	3	1	1	7	5	0	0	0	0	5	4
101512	09:52:34	10033	Trial	ResponseCR	14	0	175	0	115	09:52:34	3213436	5	1	1	0	1	2	3	1	1	7	5	0	0	0	0	5	4
101512	09:52:34	10033	Trial	CongruentRight	14	205	342	1	115	09:52:34	3213796	5	1	1	0	1	2	3	1	1	7	5	0	0	0	0	5	4
101512	09:52:34	10033	Trial	ResponseIR	14	0	175	0	115	09:52:34	3215142	5	1	1	0	1	2	3	1	1	7	5	0	0	0	0	5	4
101512	09:52:34	10033	Trial	IncongruentRight	14	205	396	1	115	09:52:34	3215555	5	1	1	0	1	2	3	1	1	7	5	0	0	0	0	5	4
101512	09:52:34	10033	Trial	ResponseCL	14	0	175	0	115	09:52:34	3216848	5	1	1	0	1	2	3	1	1	7	5	0	0	0	0	5	4
101512	09:52:34	10033	Trial	CongruentLeft	14	203	274	1	115	09:52:34	3217141	5	1	1	0	1	2	3	1	1	7	5	0	0	0	0	5	4
101512	09:52:34	10033	Trial	ResponseIR	14	0	175	0	115	09:52:34	3218554	5	1	1	0	1	2	3	1	1	7	5	0	0	0	0	5	4
101512	09:52:34	10033	Trial	IncongruentRight	14	205	312	1	115	09:52:34	3218887	5	1	1	0	1	2	3	1	1	7	5	0	0	0	0	5	4
101512	09:52:34	10033	Trial	ResponseCR	14	0	175	0	115	09:52:34	3220260	5	1	1	0	1	2	3	1	1	7	5	0	0	0	0	5	4
101512	09:52:34	10033	Trial	CongruentRight	14	205	349	1	115	09:52:34	3220633	5	1	1	0	1	2	3	1	1	7	5	0	0	0	0	5	4
101512	09:52:34	10033	Trial	ResponseIL	14	0	175	0	115	09:52:34	3221966	5	1	1	0	1	2	3	1	1	7	5	0	0	0	0	5	4
101512	09:52:34	10033	Trial	IncongruentLeft	14	203	388	1	115	09:52:34	3222379	5	1	1	0	1	2	3	1	1	7	5	0	0	0	0	5	4
101512	09:52:34	10033	Trial	ResponseCL	14	0	175	0	115	09:52:34	3223672	5	1	1	0	1	2	3	1	1	7	5	0	0	0	0	5	4
101512	09:52:34	10033	Trial	CongruentLeft	14	203	377	1	115	09:52:34	3224072	5	1	1	0	1	2	3	1	1	7	5	0	0	0	0	5	4
101512	09:52:34	10033	Trial	ResponseCR	14	0	175	0	115	09:52:34	3225378	5	1	1	0	1	2	3	1	1	7	5	0	0	0	0	5	4
101512	09:52:34	10033	Trial	CongruentRight	14	205	336	1	115	09:52:34	3225738	5	1	1	0	1	2	3	1	1	7	5	0	0	0	0	5	4
101512	09:52:34	10033	Trial	ResponseIL	14	0	175	0	115	09:52:34	3227084	5	1	1	0	1	2	3	1	1	7	5	0	0	0	0	5	4
101512	09:52:34	10033	Trial	IncongruentLeft	14	203	358	1	115	09:52:34	3227471	5	1	1	0	1	2	3	1	1	7	5	0	0	0	0	5	4
101512	09:52:34	10033	Trial	ResponseCR	14	0	175	0	115	09:52:34	3228790	5	1	1	0	1	2	3	1	1	7	5	0	0	0	0	5	4
101512	09:52:34	10033	Trial	CongruentRight	14	205	300	1	115	09:52:34	3229110	5	1	1	0	1	2	3	1	1	7	5	0	0	0	0	5	4
101512	09:52:34	10033	Trial	ResponseCR	14	0	175	0	115	09:52:34	3230496	5	1	1	0	1	2	3	1	1	7	5	0	0	0	0	5	4
101512	09:52:34	10033	Trial	CongruentRight	14	205	290	1	115	09:52:34	3230802	5	1	1	0	1	2	3	1	1	7	5	0	0	0	0	5	4
101512	09:52:34	10033	Trial	ResponseIR	14	0	175	0	115	09:52:34	3232202	5	1	1	0	1	2	3	1	1	7	5	0	0	0	0	5	4
101512	09:52:34	10033	Trial	IncongruentRight	14	203	422	0	115	09:52:34	3232642	5	1	1	0	1	2	3	1	1	7	5	0	0	0	0	5	4
101512	09:52:34	10033	Trial	ResponseCL	14	0	175	0	115	09:52:34	3233908	5	1	1	0	1	2	3	1	1	7	5	0	0	0	0	5	4
101512	09:52:34	10033	Trial	CongruentLeft	14	203	381	1	115	09:52:34	3234308	5	1	1	0	1	2	3	1	1	7	5	0	0	0	0	5	4
101512	09:52:34	10033	Trial	ResponseIL	14	0	175	0	115	09:52:34	3235614	5	1	1	0	1	2	3	1	1	7	5	0	0	0	0	5	4
101512	09:52:34	10033	Trial	IncongruentLeft	14	203	355	1	115	09:52:34	3235987	5	1	1	0	1	2	3	1	1	7	5	0	0	0	0	5	4
101512	09:52:34	10033	Trial	ResponseCL	14	0	175	0	115	09:52:34	3237320	5	1	1	0	1	2	3	1	1	7	5	0	0	0	0	5	4
101512	09:52:34	10033	Trial	CongruentLeft	14	203	282	1	115	09:52:34	3237627	5	1	1	0	1	2	3	1	1	7	5	0	0	0	0	5	4
101512	09:52:34	10033	Trial	ResponseIR	14	0	175	0	115	09:52:34	3239026	5	1	1	0	1	2	3	1	1	7	5	0	0	0	0	5	4
101512	09:52:34	10033	Trial	IncongruentRight	14	205	351	1	115	09:52:34	3239399	5	1	1	0	1	2	3	1	1	7	5	0	0	0	0	5	4
101512	09:52:34	10033	Trial	ResponseIL	14	0	175	0	115	09:52:34	3240732	5	1	1	0	1	2	3	1	1	7	5	0	0	0	0	5	4
101512	09:52:34	10033	Trial	IncongruentLeft	14	203	358	1	115	09:52:34	3241118	5	1	1	0	1	2	3	1	1	7	5	0	0	0	0	5	4
101512	09:52:34	10033	Trial	ResponseCR	14	0	175	0	115	09:52:34	3242438	5	1	1	0	1	2	3	1	1	7	5	0	0	0	0	5	4
101512	09:52:34	10033	Trial	CongruentRight	14	205	299	1	115	09:52:34	3242758	5	1	1	0	1	2	3	1	1	7	5	0	0	0	0	5	4
101512	09:52:34	10033	Trial	ResponseCL	14	0	175	0	115	09:52:34	3244144	5	1	1	0	1	2	3	1	1	7	5	0	0	0	0	5	4
101512	09:52:34	10033	Trial	CongruentLeft	14	203	305	1	115	09:52:34	3244477	5	1	1	0	1	2	3	1	1	7	5	0	0	0	0	5	4
101512	09:52:34	10033	Trial	ResponseIL	14	0	175	0	115	09:52:34	3245850	5	1	1	0	1	2	3	1	1	7	5	0	0	0	0	5	4
101512	09:52:34	10033	Trial	IncongruentLeft	14	203	390	1	115	09:52:34	3246263	5	1	1	0	1	2	3	1	1	7	5	0	0	0	0	5	4
101512	09:52:34	10033	Trial	ResponseCL	14	0	175	0	115	09:52:34	3247585	5	1	1	0	1	2	3	1	1	7	5	0	0	0	0	5	4
101512	09:52:34	10033	Trial	CongruentLeft	14	203	323	1	115	09:52:34	3247929	5	1	1	0	1	2	3	1	1	7	5	0	0	0	0	5	4
101512	09:52:34	10033	Trial	ResponseIR	14	0	175	0	115	09:52:34	3249288	5	1	1	0	1	2	3	1	1	7	5	0	0	0	0	5	4
101512	09:52:34	10033	Trial	IncongruentRight	14	205	393	1	115	09:52:34	3249701	5	1	1	0	1	2	3	1	1	7	5	0	0	0	0	5	4
101512	09:52:34	10033	Trial	ResponseCR	14	0	175	0	115	09:52:34	3250994	5	1	1	0	1	2	3	1	1	7	5	0	0	0	0	5	4
101512	09:52:34	10033	Trial	CongruentRight	14	205	303	1	115	09:52:34	3251314	5	1	1	0	1	2	3	1	1	7	5	0	0	0	0	5	4
101512	09:52:34	10033	Trial	ResponseIL	14	0	175	0	115	09:52:34	3252700	5	1	1	0	1	2	3	1	1	7	5	0	0	0	0	5	4
101512	09:52:34	10033	Trial	IncongruentLeft	14	203	276	1	115	09:52:34	3252993	5	1	1	0	1	2	3	1	1	7	5	0	0	0	0	5	4
101512	09:52:34	10033	Trial	ResponseCL	14	0	175	0	115	09:52:34	3254406	5	1	1	0	1	2	3	1	1	7	5	0	0	0	0	5	4
101512	09:52:34	10033	Trial	CongruentLeft	14	203	411	1	115	09:52:34	3254846	5	1	1	0	1	2	3	1	1	7	5	0	0	0	0	5	4
101512	09:52:34	10033	Trial	ResponseIR	14	0	175	0	115	09:52:34	3256112	5	1	1	0	1	2	3	1	1	7	5	0	0	0	0	5	4
101512	09:52:34	10033	Trial	IncongruentRight	14	205	384	1	115	09:52:34	3256525	5	1	1	0	1	2	3	1	1	7	5	0	0	0	0	5	4
101512	09:52:34	10033	Trial	ResponseIL	14	0	175	0	115	09:52:34	3257818	5	1	1	0	1	2	3	1	1	7	5	0	0	0	0	5	4
101512	09:52:34	10033	Trial	IncongruentLeft	14	203	357	1	115	09:52:34	3258205	5	1	1	0	1	2	3	1	1	7	5	0	0	0	0	5	4
101512	09:52:34	10033	Trial	ResponseCL	14	0	175	0	115	09:52:34	3259524	5	1	1	0	1	2	3	1	1	7	5	0	0	0	0	5	4
101512	09:52:34	10033	Trial	CongruentLeft	14	203	348	1	115	09:52:34	3259897	5	1	1	0	1	2	3	1	1	7	5	0	0	0	0	5	4
101512	09:52:34	10033	Trial	ResponseIL	14	0	175	0	115	09:52:34	3261230	5	1	1	0	1	2	3	1	1	7	5	0	0	0	0	5	4
101512	09:52:34	10033	Trial	IncongruentLeft	14	203	467	1	115	09:52:34	3261723	5	1	1	0	1	2	3	1	1	7	5	0	0	0	0	5	4
101512	09:52:34	10033	Trial	ResponseCR	14	0	175	0	115	09:52:34	3262937	5	1	1	0	1	2	3	1	1	7	5	0	0	0	0	5	4
101512	09:52:34	10033	Trial	CongruentRight	14	205	329	1	115	09:52:34	3263283	5	1	1	0	1	2	3	1	1	7	5	0	0	0	0	5	4
101512	09:52:34	10033	Trial	ResponseCL	14	0	175	0	115	09:52:34	3264643	5	1	1	0	1	2	3	1	1	7	5	0	0	0	0	5	4
101512	09:52:34	10033	Trial	CongruentLeft	14	203	366	1	115	09:52:34	3265029	5	1	1	0	1	2	3	1	1	7	5	0	0	0	0	5	4
101512	09:52:34	10033	Trial	ResponseIR	14	0	175	0	115	09:52:34	3266348	5	1	1	0	1	2	3	1	1	7	5	0	0	0	0	5	4
101512	09:52:34	10033	Trial	IncongruentRight	14	205	340	1	115	09:52:34	3266708	5	1	1	0	1	2	3	1	1	7	5	0	0	0	0	5	4
101512	09:52:34	10033	Trial	ResponseCL	14	0	175	0	115	09:52:34	3268054	5	1	1	0	1	2	3	1	1	7	5	0	0	0	0	5	4
101512	09:52:34	10033	Trial	CongruentLeft	14	203	458	1	115	09:52:34	3268534	5	1	1	0	1	2	3	1	1	7	5	0	0	0	0	5	4
101512	09:52:34	10033	Trial	ResponseCR	14	0	175	0	115	09:52:34	3269760	5	1	1	0	1	2	3	1	1	7	5	0	0	0	0	5	4
101512	09:52:34	10033	Trial	CongruentRight	14	205	432	1	115	09:52:34	3270213	5	1	1	0	1	2	3	1	1	7	5	0	0	0	0	5	4
101512	09:52:34	10033	Trial	ResponseIL	14	0	175	0	115	09:52:34	3271466	5	1	1	0	1	2	3	1	1	7	5	0	0	0	0	5	4
101512	09:52:34	10033	Trial	IncongruentLeft	14	203	357	1	115	09:52:34	3271852	5	1	1	0	1	2	3	1	1	7	5	0	0	0	0	5	4
101512	09:52:34	10033	WordsAbsFrThreemo	PAbsFrThreemo1	16	Abs1	11341	0	115	09:52:34	3290324	5	1	1	0	1	2	3	1	1	7	5	0	0	0	0	5	4
101512	09:52:34	10033	WordsAbsFrThreemo	AbsFrThreemo1	16	Abs1	43150	0	115	09:52:34	3333750	5	1	1	0	1	2	3	1	1	7	5	1	0	0	0	5	4
101512	09:52:34	10033	WordsAbsFrThreemo	AbsFrThreemo2	16	Abs1	21893	0	115	09:52:34	3355752	5	1	1	0	1	2	3	1	1	7	5	2	0	0	0	5	4
101512	09:52:34	10033	WordsAbsFrThreemo	AbsFrThreemo3	16	Abs2	38292	0	115	09:52:34	3394110	5	1	1	0	1	2	3	1	1	7	5	2	0	0	0	5	4
101512	09:52:34	10033	Trial2BackFrS	NS	17	0	1000	1	115	09:52:34	3470412	5	1	1	0	1	2	3	1	1	7	5	2	0	0	0	5	4
101512	09:52:34	10033	Trial2BackFrS	NS	17	0	1000	1	115	09:52:34	3471918	5	1	1	0	1	2	3	1	1	7	5	2	0	0	0	5	4
101512	09:52:34	10033	Trial2BackFrS	NS	17	0	1000	1	115	09:52:34	3473424	5	1	1	0	1	2	3	1	1	7	5	2	0	0	0	5	4
101512	09:52:34	10033	Trial2BackFrS	YS	17	57	672	1	115	09:52:34	3474610	5	1	1	0	1	2	3	1	1	7	5	2	0	0	0	5	4
101512	09:52:34	10033	Trial2BackFrS	NS	17	0	1000	1	115	09:52:34	3476436	5	1	1	0	1	2	3	1	1	7	5	2	0	0	0	5	4
101512	09:52:34	10033	Trial2BackFrS	NS	17	0	1000	1	115	09:52:34	3477943	5	1	1	0	1	2	3	1	1	7	5	2	0	0	0	5	4
101512	09:52:34	10033	Trial2BackFrS	NS	17	0	1000	1	115	09:52:34	3479449	5	1	1	0	1	2	3	1	1	7	5	2	0	0	0	5	4
101512	09:52:34	10033	Trial2BackFrS	NS	17	0	1000	1	115	09:52:34	3480954	5	1	1	0	1	2	3	1	1	7	5	2	0	0	0	5	4
101512	09:52:34	10033	Trial2BackFrS	YS	17	57	789	1	115	09:52:34	3482261	5	1	1	0	1	2	3	1	1	7	5	2	0	0	0	5	4
101512	09:52:34	10033	Trial2BackFrS	NS	17	0	1000	1	115	09:52:34	3483967	5	1	1	0	1	2	3	1	1	7	5	2	0	0	0	5	4
101512	09:52:34	10033	Trial2BackFrS	NS	17	0	1000	1	115	09:52:34	3485473	5	1	1	0	1	2	3	1	1	7	5	2	0	0	0	5	4
101512	09:52:34	10033	Trial2BackFrS	YS	17	0	1000	0	115	09:52:34	3486979	5	1	1	0	1	2	3	1	1	7	5	2	0	0	0	5	4
101512	09:52:34	10033	Trial2BackFrS	NS	17	0	1000	1	115	09:52:34	3488498	5	1	1	0	1	2	3	1	1	7	5	2	0	0	0	5	4
101512	09:52:34	10033	Trial2BackFrS	NS	17	0	1000	1	115	09:52:34	3490004	5	1	1	0	1	2	3	1	1	7	5	2	0	0	0	5	4
101512	09:52:34	10033	Trial2BackFrS	NS	17	0	1000	1	115	09:52:34	3491510	5	1	1	0	1	2	3	1	1	7	5	2	0	0	0	5	4
101512	09:52:34	10033	Trial2BackFrS	YS	17	57	649	1	115	09:52:34	3492670	5	1	1	0	1	2	3	1	1	7	5	2	0	0	0	5	4
101512	09:52:34	10033	Trial2BackFrS	NS	17	0	1000	1	115	09:52:34	3494522	5	1	1	0	1	2	3	1	1	7	5	2	0	0	0	5	4
101512	09:52:34	10033	Trial2BackFrS	NS	17	0	1000	1	115	09:52:34	3496029	5	1	1	0	1	2	3	1	1	7	5	2	0	0	0	5	4
101512	09:52:34	10033	Trial2BackFrS	NS	17	0	1000	1	115	09:52:34	3497548	5	1	1	0	1	2	3	1	1	7	5	2	0	0	0	5	4
101512	09:52:34	10033	Trial2BackFrS	NS	17	0	1000	1	115	09:52:34	3499067	5	1	1	0	1	2	3	1	1	7	5	2	0	0	0	5	4
101512	09:52:34	10033	Trial2BackFrS	YS	17	57	580	1	115	09:52:34	3500160	5	1	1	0	1	2	3	1	1	7	5	2	0	0	0	5	4
101512	09:52:34	10033	Trial2BackFrS	NS	17	0	1000	1	115	09:52:34	3502079	5	1	1	0	1	2	3	1	1	7	5	2	0	0	0	5	4
101512	09:52:34	10033	Trial2BackFrS	NS	17	0	1000	1	115	09:52:34	3503585	5	1	1	0	1	2	3	1	1	7	5	2	0	0	0	5	4
101512	09:52:34	10033	Trial2BackFrS	NS	17	0	1000	1	115	09:52:34	3505091	5	1	1	0	1	2	3	1	1	7	5	2	0	0	0	5	4
101512	09:52:34	10033	Trial2BackFrS	NS	17	57	828	0	115	09:52:34	3506438	5	1	1	0	1	2	3	1	1	7	5	2	0	0	0	5	4
101512	09:52:34	10033	Trial2BackFrS	NS	17	0	1000	1	115	09:52:34	3508104	5	1	1	0	1	2	3	1	1	7	5	2	0	0	0	5	4
101512	09:52:34	10033	Trial2BackFrS	NS	17	0	1000	1	115	09:52:34	3509610	5	1	1	0	1	2	3	1	1	7	5	2	0	0	0	5	4
101512	09:52:34	10033	Trial2BackFrS	NS	17	0	1000	1	115	09:52:34	3511116	5	1	1	0	1	2	3	1	1	7	5	2	0	0	0	5	4
101512	09:52:34	10033	Trial2BackFrS	NS	17	0	1000	1	115	09:52:34	3512622	5	1	1	0	1	2	3	1	1	7	5	2	0	0	0	5	4
101512	09:52:34	10033	Trial2BackFrS	NS	17	0	1000	1	115	09:52:34	3514128	5	1	1	0	1	2	3	1	1	7	5	2	0	0	0	5	4
101512	09:52:34	10033	Trial2BackFrS	NS	17	0	1000	1	115	09:52:34	3515634	5	1	1	0	1	2	3	1	1	7	5	2	0	0	0	5	4
101512	09:52:34	10033	Trial2BackFrS	YS	17	0	1000	0	115	09:52:34	3517153	5	1	1	0	1	2	3	1	1	7	5	2	0	0	0	5	4
101512	09:52:34	10033	Trial2BackFrS	NS	17	0	1000	1	115	09:52:34	3518659	5	1	1	0	1	2	3	1	1	7	5	2	0	0	0	5	4
101512	09:52:34	10033	Trial2BackFrS	NS	17	0	1000	1	115	09:52:34	3520165	5	1	1	0	1	2	3	1	1	7	5	2	0	0	0	5	4
101512	09:52:34	10033	Trial2BackFrS	NS	17	57	649	0	115	09:52:34	3521325	5	1	1	0	1	2	3	1	1	7	5	2	0	0	0	5	4
101512	09:52:34	10033	Trial2BackFrS	YS	17	0	1000	0	115	09:52:34	3523178	5	1	1	0	1	2	3	1	1	7	5	2	0	0	0	5	4
101512	09:52:34	10033	Trial2BackFrS	NS	17	0	1000	1	115	09:52:34	3524684	5	1	1	0	1	2	3	1	1	7	5	2	0	0	0	5	4
101512	09:52:34	10033	Trial2BackFrS	NS	17	0	1000	1	115	09:52:34	3526203	5	1	1	0	1	2	3	1	1	7	5	2	0	0	0	5	4
101512	09:52:34	10033	Trial2BackFrS	NS	17	0	1000	1	115	09:52:34	3527709	5	1	1	0	1	2	3	1	1	7	5	2	0	0	0	5	4
101512	09:52:34	10033	Trial2BackFrS	NS	17	0	1000	1	115	09:52:34	3529215	5	1	1	0	1	2	3	1	1	7	5	2	0	0	0	5	4
101512	09:52:34	10033	Trial2BackFrS	NS	17	0	1000	1	115	09:52:34	3530721	5	1	1	0	1	2	3	1	1	7	5	2	0	0	0	5	4
101512	09:52:34	10033	Trial2BackFrS	NS	17	0	1000	1	115	09:52:34	3532227	5	1	1	0	1	2	3	1	1	7	5	2	0	0	0	5	4
101512	09:52:34	10033	Trial2BackFrS	NS	17	0	1000	1	115	09:52:34	3533733	5	1	1	0	1	2	3	1	1	7	5	2	0	0	0	5	4
101512	09:52:34	10033	Trial2BackFrS	YS	17	57	825	1	115	09:52:34	3535079	5	1	1	0	1	2	3	1	1	7	5	2	0	0	0	5	4
101512	09:52:34	10033	Trial2BackFrS	NS	17	0	1000	1	115	09:52:34	3536745	5	1	1	0	1	2	3	1	1	7	5	2	0	0	0	5	4
101512	09:52:34	10033	Trial2BackFrS	NS	17	0	1000	1	115	09:52:34	3538251	5	1	1	0	1	2	3	1	1	7	5	2	0	0	0	5	4
101512	09:52:34	10033	Trial2BackFrS	NS	17	57	787	0	115	09:52:34	3539558	5	1	1	0	1	2	3	1	1	7	5	2	0	0	0	5	4
101512	09:52:34	10033	Trial2BackFrS	NS	17	0	1000	1	115	09:52:34	3541264	5	1	1	0	1	2	3	1	1	7	5	2	0	0	0	5	4
101512	09:52:34	10033	Trial2BackFrS	YS	17	0	1000	0	115	09:52:34	3542770	5	1	1	0	1	2	3	1	1	7	5	2	0	0	0	5	4
101512	09:52:34	10033	Trial2BackFrS	NS	17	0	1000	1	115	09:52:34	3544276	5	1	1	0	1	2	3	1	1	7	5	2	0	0	0	5	4
101512	09:52:34	10033	Trial2BackFrS	NS	17	0	1000	1	115	09:52:34	3545782	5	1	1	0	1	2	3	1	1	7	5	2	0	0	0	5	4
101512	09:52:34	10033	Trial2BackFrS	NS	17	0	1000	1	115	09:52:34	3547288	5	1	1	0	1	2	3	1	1	7	5	2	0	0	0	5	4
101512	09:52:34	10033	Trial2BackFrS	NS	17	0	1000	1	115	09:52:34	3548807	5	1	1	0	1	2	3	1	1	7	5	2	0	0	0	5	4
101512	09:52:34	10033	Trial2BackFrS	NS	17	0	1000	1	115	09:52:34	3550314	5	1	1	0	1	2	3	1	1	7	5	2	0	0	0	5	4
101512	09:52:34	10033	Trial2BackFrS	NS	17	0	1000	1	115	09:52:34	3551819	5	1	1	0	1	2	3	1	1	7	5	2	0	0	0	5	4
101512	09:52:34	10033	Trial2BackFrS	YS	17	57	691	1	115	09:52:34	3553019	5	1	1	0	1	2	3	1	1	7	5	2	0	0	0	5	4
101512	09:52:34	10033	Trial2BackFrS	NS	17	0	1000	1	115	09:52:34	3554831	5	1	1	0	1	2	3	1	1	7	5	2	0	0	0	5	4
101512	09:52:34	10033	Trial2BackFrS	NS	17	0	1000	1	115	09:52:34	3556337	5	1	1	0	1	2	3	1	1	7	5	2	0	0	0	5	4
101512	09:52:34	10033	Trial2BackFrS	NS	17	0	1000	1	115	09:52:34	3557844	5	1	1	0	1	2	3	1	1	7	5	2	0	0	0	5	4
101512	09:52:34	10033	Trial2BackFrS	NS	17	0	1000	1	115	09:52:34	3559350	5	1	1	0	1	2	3	1	1	7	5	2	0	0	0	5	4
101512	09:52:34	10033	Trial2BackFrS	NS	17	0	1000	1	115	09:52:34	3560856	5	1	1	0	1	2	3	1	1	7	5	2	0	0	0	5	4
101512	09:52:34	10033	Trial2BackFrS	NS	17	0	1000	1	115	09:52:34	3562362	5	1	1	0	1	2	3	1	1	7	5	2	0	0	0	5	4
101512	09:52:34	10033	Trial2BackFrS	NS	17	0	1000	1	115	09:52:34	3563868	5	1	1	0	1	2	3	1	1	7	5	2	0	0	0	5	4
101512	09:52:34	10033	Trial2BackFrS	YS	17	0	1000	0	115	09:52:34	3565374	5	1	1	0	1	2	3	1	1	7	5	2	0	0	0	5	4
101512	09:52:34	10033	Trial2BackFrS	NS	17	0	1000	1	115	09:52:34	3566880	5	1	1	0	1	2	3	1	1	7	5	2	0	0	0	5	4
101512	09:52:34	10033	Trial2BackFrS	NS	17	0	1000	1	115	09:52:34	3568386	5	1	1	0	1	2	3	1	1	7	5	2	0	0	0	5	4
101512	09:52:34	10033	Trial2BackFrS	NS	17	57	924	0	115	09:52:34	3569825	5	1	1	0	1	2	3	1	1	7	5	2	0	0	0	5	4
101512	09:52:34	10033	Trial2BackFrS	NS	17	0	1000	1	115	09:52:34	3571398	5	1	1	0	1	2	3	1	1	7	5	2	0	0	0	5	4
101512	09:52:34	10033	Trial2BackFrS	YS	17	0	1000	0	115	09:52:34	3572904	5	1	1	0	1	2	3	1	1	7	5	2	0	0	0	5	4
101512	09:52:34	10033	Trial2BackFrS	NS	17	0	1000	1	115	09:52:34	3574410	5	1	1	0	1	2	3	1	1	7	5	2	0	0	0	5	4
101512	09:52:34	10033	Trial2BackFrS	NS	17	57	948	0	115	09:52:34	3575876	5	1	1	0	1	2	3	1	1	7	5	2	0	0	0	5	4
101512	09:52:34	10033	Trial2BackFrS	YS	17	0	1000	0	115	09:52:34	3577422	5	1	1	0	1	2	3	1	1	7	5	2	0	0	0	5	4
101512	09:52:34	10033	Trial2BackFrS	NS	17	0	1000	1	115	09:52:34	3578928	5	1	1	0	1	2	3	1	1	7	5	2	0	0	0	5	4
101512	09:52:34	10033	Trial2BackFrS	NS	17	0	1000	1	115	09:52:34	3580448	5	1	1	0	1	2	3	1	1	7	5	2	0	0	0	5	4
101512	09:52:34	10033	Trial2BackFrS	NS	17	0	1000	1	115	09:52:34	3581967	5	1	1	0	1	2	3	1	1	7	5	2	0	0	0	5	4
101512	09:52:34	10033	Trial2BackFrS	NS	17	0	1000	1	115	09:52:34	3583473	5	1	1	0	1	2	3	1	1	7	5	2	0	0	0	5	4
101512	09:52:34	10033	Trial2BackFrS	NS	17	57	700	0	115	09:52:34	3584686	5	1	1	0	1	2	3	1	1	7	5	2	0	0	0	5	4
101512	09:52:34	10033	Trial2BackFrS	NS	17	0	1000	1	115	09:52:34	3586485	5	1	1	0	1	2	3	1	1	7	5	2	0	0	0	5	4
101512	09:52:34	10033	Trial2BackFrS	YS	17	57	728	1	115	09:52:34	3587725	5	1	1	0	1	2	3	1	1	7	5	2	0	0	0	5	4
101512	09:52:34	10033	Trial2BackFrS	NS	17	0	1000	1	115	09:52:34	3589497	5	1	1	0	1	2	3	1	1	7	5	2	0	0	0	5	4
101512	09:52:34	10033	Trial2BackFrS	NS	17	0	1000	1	115	09:52:34	3591003	5	1	1	0	1	2	3	1	1	7	5	2	0	0	0	5	4
101512	09:52:34	10033	Trial2BackFrS	NS	17	0	1000	1	115	09:52:34	3592509	5	1	1	0	1	2	3	1	1	7	5	2	0	0	0	5	4
101512	09:52:34	10033	Trial2BackFrS	NS	17	0	1000	1	115	09:52:34	3594015	5	1	1	0	1	2	3	1	1	7	5	2	0	0	0	5	4
101512	09:52:34	10033	Trial2BackFrS	YS	17	0	1000	0	115	09:52:34	3595522	5	1	1	0	1	2	3	1	1	7	5	2	0	0	0	5	4
101512	09:52:34	10033	Trial2BackFrS	NS	17	57	716	0	115	09:52:34	3596748	5	1	1	0	1	2	3	1	1	7	5	2	0	0	0	5	4
101512	09:52:34	10033	Trial2BackFrS	NS	17	0	1000	1	115	09:52:34	3598534	5	1	1	0	1	2	3	1	1	7	5	2	0	0	0	5	4
101512	09:52:34	10033	Trial2BackFrS	NS	17	0	1000	1	115	09:52:34	3600053	5	1	1	0	1	2	3	1	1	7	5	2	0	0	0	5	4
101512	09:52:34	10033	Trial2BackFrS	NS	17	57	808	0	115	09:52:34	3601373	5	1	1	0	1	2	3	1	1	7	5	2	0	0	0	5	4
101512	09:52:34	10033	Trial2BackFrS	YS	17	0	1000	0	115	09:52:34	3603065	5	1	1	0	1	2	3	1	1	7	5	2	0	0	0	5	4
101512	09:52:34	10033	Trial2BackFrS	NS	17	0	1000	1	115	09:52:34	3604571	5	1	1	0	1	2	3	1	1	7	5	2	0	0	0	5	4
101512	09:52:34	10033	Trial2BackFrS	NS	17	0	1000	1	115	09:52:34	3606077	5	1	1	0	1	2	3	1	1	7	5	2	0	0	0	5	4
101512	09:52:34	10033	Trial2BackFrS	YS	17	57	656	1	115	09:52:34	3607250	5	1	1	0	1	2	3	1	1	7	5	2	0	0	0	5	4
101512	09:52:34	10033	Trial2BackFrS	NS	17	0	1000	1	115	09:52:34	3609089	5	1	1	0	1	2	3	1	1	7	5	2	0	0	0	5	4
101512	09:52:34	10033	Trial2BackFrS	NS	17	0	1000	1	115	09:52:34	3610609	5	1	1	0	1	2	3	1	1	7	5	2	0	0	0	5	4
101512	09:52:34	10033	Trial2BackFrS	NS	17	0	1000	1	115	09:52:34	3612115	5	1	1	0	1	2	3	1	1	7	5	2	0	0	0	5	4
101512	09:52:34	10033	Trial2BackFrS	NS	17	0	1000	1	115	09:52:34	3613634	5	1	1	0	1	2	3	1	1	7	5	2	0	0	0	5	4
101512	09:52:34	10033	Trial2BackFrS	NS	17	0	1000	1	115	09:52:34	3615140	5	1	1	0	1	2	3	1	1	7	5	2	0	0	0	5	4
101512	09:52:34	10033	Trial2BackFrS	NS	17	0	1000	1	115	09:52:34	3616660	5	1	1	0	1	2	3	1	1	7	5	2	0	0	0	5	4
101512	09:52:34	10033	Trial2BackFrS	NS	17	0	1000	1	115	09:52:34	3618166	5	1	1	0	1	2	3	1	1	7	5	2	0	0	0	5	4
101512	09:52:34	10033	Trial2BackFrS	NS	17	0	1000	1	115	09:52:34	3619672	5	1	1	0	1	2	3	1	1	7	5	2	0	0	0	5	4
101512	09:52:34	10033	Trial2BackFrS	YS	17	57	947	1	115	09:52:34	3621138	5	1	1	0	1	2	3	1	1	7	5	2	0	0	0	5	4
101512	09:52:34	10033	Trial2BackFrS	NS	17	0	1000	1	115	09:52:34	3622684	5	1	1	0	1	2	3	1	1	7	5	2	0	0	0	5	4
101512	09:52:34	10033	Trial2BackFrS	NS	17	0	1000	1	115	09:52:34	3624190	5	1	1	0	1	2	3	1	1	7	5	2	0	0	0	5	4
101512	09:52:34	10033	Trial2BackFrS	NS	17	0	1000	1	115	09:52:34	3625696	5	1	1	0	1	2	3	1	1	7	5	2	0	0	0	5	4
101512	09:52:34	10033	Trial2BackFrS	NS	17	0	1000	1	115	09:52:34	3627202	5	1	1	0	1	2	3	1	1	7	5	2	0	0	0	5	4
101512	09:52:34	10033	Trial2BackFrS	NS	17	0	1000	1	115	09:52:34	3628726	5	1	1	0	1	2	3	1	1	7	5	2	0	0	0	5	4
101512	09:52:34	10033	Trial2BackFrS	NS	17	57	862	0	115	09:52:34	3630108	5	1	1	0	1	2	3	1	1	7	5	2	0	0	0	5	4
101512	09:52:34	10033	Trial2BackFrS	NS	17	0	1000	1	115	09:52:34	3631734	5	1	1	0	1	2	3	1	1	7	5	2	0	0	0	5	4
101512	09:52:34	10033	Trial2BackFrS	YS	17	57	791	1	115	09:52:34	3633040	5	1	1	0	1	2	3	1	1	7	5	2	0	0	0	5	4
101512	09:52:34	10033	Trial2BackFrS	NS	17	0	1000	1	115	09:52:34	3634746	5	1	1	0	1	2	3	1	1	7	5	2	0	0	0	5	4
101512	09:52:34	10033	Trial2BackFrS	NS	17	0	1000	1	115	09:52:34	3636252	5	1	1	0	1	2	3	1	1	7	5	2	0	0	0	5	4
101512	09:52:34	10033	Trial2BackFrS	NS	17	0	1000	1	115	09:52:34	3637766	5	1	1	0	1	2	3	1	1	7	5	2	0	0	0	5	4
101512	09:52:34	10033	Trial2BackFrS	NS	17	57	753	0	115	09:52:34	3639037	5	1	1	0	1	2	3	1	1	7	5	2	0	0	0	5	4
101512	09:52:34	10033	Trial2BackFrS	NS	17	0	1000	1	115	09:52:34	3640796	5	1	1	0	1	2	3	1	1	7	5	2	0	0	0	5	4
101512	09:52:34	10033	Trial2BackFrS	NS	17	0	1000	1	115	09:52:34	3642303	5	1	1	0	1	2	3	1	1	7	5	2	0	0	0	5	4
101512	09:52:34	10033	Trial2BackFrS	NS	17	0	1000	1	115	09:52:34	3643809	5	1	1	0	1	2	3	1	1	7	5	2	0	0	0	5	4
101512	09:52:34	10033	Trial2BackFrS	NS	17	0	1000	1	115	09:52:34	3645315	5	1	1	0	1	2	3	1	1	7	5	2	0	0	0	5	4
101512	09:52:34	10033	Trial2BackFrS	NS	17	0	1000	1	115	09:52:34	3646821	5	1	1	0	1	2	3	1	1	7	5	2	0	0	0	5	4
101512	09:52:34	10033	Trial2BackFrS	YS	17	57	727	1	115	09:52:34	3648060	5	1	1	0	1	2	3	1	1	7	5	2	0	0	0	5	4
101512	09:52:34	10033	Trial2BackFrS	NS	17	0	1000	1	115	09:52:34	3649833	5	1	1	0	1	2	3	1	1	7	5	2	0	0	0	5	4
101512	09:52:34	10033	ClockFr3mo	ClockFr3mo	19	Clock1	23830	0	115	09:52:34	3674220	5	1	1	0	1	2	3	1	1	7	5	2	1	0	0	5	4
101512	09:52:34	10033	ClockFr3mo	ClockFr3mo	19	Clock11	5663	0	115	09:52:34	3680008	5	1	1	0	1	2	3	1	1	7	5	2	1	1	0	5	4
101512	09:52:34	10033	ClockFr3mo	ClockFr3mo	19	Clock111	788	0	115	09:52:34	3680861	5	1	1	0	1	2	3	1	1	7	5	2	1	1	1	5	4
101512	09:52:34	10033	ClockFr3mo	ClockFr3mo	19	Clockdone	1565	0	115	09:52:34	3682473	5	1	1	0	1	2	3	1	1	7	5	2	1	1	1	5	4
101512	09:52:34	10033	FASFrVF3mo	StopFrVF3mo	20	9	6807	0	115	09:52:34	3811943	5	1	1	0	1	2	3	1	1	7	5	2	1	1	1	5	4
