date	time	subject	blockcode	trialcode	values.TaskNumber	response	latency	correct	values.Score	script.starttime	script.elapsedtime	values.ScoreS7	values.Word1	values.Word2	values.Word3	values.Word4	values.Word5	values.Word6	values.Word7	values.Word8	values.DigitSpanFwrd	values.DigitSpanBack	values.ScoreAbs	values.Contour	values.Numbers	values.Hands	values.corsiblockspanFwrd	values.corsiblockspanRev
112912	12:44:14	10041	Language	Language	0	English	3031	0	0	12:44:14	3148	0	0	0	0	0	0	0	0	0	0	0	0	0	0	0	0	0
112912	12:44:14	10041	Session	Session	0	3mo	353315	0	0	12:44:14	356522	0	0	0	0	0	0	0	0	0	0	0	0	0	0	0	0	0
112912	12:44:14	10041	HandEng	HandEng	0	Right	646760	0	0	12:44:14	1003346	0	0	0	0	0	0	0	0	0	0	0	0	0	0	0	0	0
112912	12:44:14	10041	CubeEng	CubeEng	1	1Cube	16266	0	0	12:44:14	1455878	0	0	0	0	0	0	0	0	0	0	0	0	0	0	0	0	0
112912	12:44:14	10041	pm.simpleEngRight	blank.simpleEng	2	0	2400	1	0	12:44:14	1508936	0	0	0	0	0	0	0	0	0	0	0	0	0	0	0	0	0
112912	12:44:14	10041	pm.simpleEngRight	pm.simpleEng	2	57	589	0	0	12:44:14	1509549	0	0	0	0	0	0	0	0	0	0	0	0	0	0	0	0	0
112912	12:44:14	10041	pm.simpleEngRight	blank.simpleEng	2	0	1700	1	0	12:44:14	1511268	0	0	0	0	0	0	0	0	0	0	0	0	0	0	0	0	0
112912	12:44:14	10041	pm.simpleEngRight	pm.simpleEng	2	57	336	0	0	12:44:14	1511628	0	0	0	0	0	0	0	0	0	0	0	0	0	0	0	0	0
112912	12:44:14	10041	pm.simpleEngRight	blank.simpleEng	2	0	2500	1	0	12:44:14	1514147	0	0	0	0	0	0	0	0	0	0	0	0	0	0	0	0	0
112912	12:44:14	10041	pm.simpleEngRight	pm.simpleEng	2	57	321	0	0	12:44:14	1514493	0	0	0	0	0	0	0	0	0	0	0	0	0	0	0	0	0
112912	12:44:14	10041	pm.simpleEngRight	blank.simpleEng	2	0	2000	1	0	12:44:14	1516519	0	0	0	0	0	0	0	0	0	0	0	0	0	0	0	0	0
112912	12:44:14	10041	pm.simpleEngRight	pm.simpleEng	2	57	365	0	0	12:44:14	1516906	0	0	0	0	0	0	0	0	0	0	0	0	0	0	0	0	0
112912	12:44:14	10041	pm.simpleEngRight	blank.simpleEng	2	0	1600	1	0	12:44:14	1518518	0	0	0	0	0	0	0	0	0	0	0	0	0	0	0	0	0
112912	12:44:14	10041	pm.simpleEngRight	pm.simpleEng	2	57	317	0	0	12:44:14	1518865	0	0	0	0	0	0	0	0	0	0	0	0	0	0	0	0	0
112912	12:44:14	10041	pm.simpleEngRight	blank.simpleEng	2	0	1800	1	0	12:44:14	1520677	0	0	0	0	0	0	0	0	0	0	0	0	0	0	0	0	0
112912	12:44:14	10041	pm.simpleEngRight	pm.simpleEng	2	57	286	0	0	12:44:14	1520984	0	0	0	0	0	0	0	0	0	0	0	0	0	0	0	0	0
112912	12:44:14	10041	pm.simpleEngRight	blank.simpleEng	2	0	1900	1	0	12:44:14	1522903	0	0	0	0	0	0	0	0	0	0	0	0	0	0	0	0	0
112912	12:44:14	10041	pm.simpleEngRight	pm.simpleEng	2	57	318	0	0	12:44:14	1523250	0	0	0	0	0	0	0	0	0	0	0	0	0	0	0	0	0
112912	12:44:14	10041	pm.simpleEngRight	blank.simpleEng	2	0	1500	1	0	12:44:14	1524769	0	0	0	0	0	0	0	0	0	0	0	0	0	0	0	0	0
112912	12:44:14	10041	pm.simpleEngRight	pm.simpleEng	2	57	338	0	0	12:44:14	1525129	0	0	0	0	0	0	0	0	0	0	0	0	0	0	0	0	0
112912	12:44:14	10041	pm.simpleEngRight	blank.simpleEng	2	0	2200	1	0	12:44:14	1527341	0	0	0	0	0	0	0	0	0	0	0	0	0	0	0	0	0
112912	12:44:14	10041	pm.simpleEngRight	pm.simpleEng	2	57	261	0	0	12:44:14	1527621	0	0	0	0	0	0	0	0	0	0	0	0	0	0	0	0	0
112912	12:44:14	10041	pm.simpleEngRight	blank.simpleEng	2	0	2100	1	0	12:44:14	1529740	0	0	0	0	0	0	0	0	0	0	0	0	0	0	0	0	0
112912	12:44:14	10041	pm.simpleEngRight	pm.simpleEng	2	57	327	0	0	12:44:14	1530087	0	0	0	0	0	0	0	0	0	0	0	0	0	0	0	0	0
112912	12:44:14	10041	pm.simpleEngRight	blank.simpleEng	2	0	2300	1	0	12:44:14	1532406	0	0	0	0	0	0	0	0	0	0	0	0	0	0	0	0	0
112912	12:44:14	10041	pm.simpleEngRight	pm.simpleEng	2	57	285	0	0	12:44:14	1532712	0	0	0	0	0	0	0	0	0	0	0	0	0	0	0	0	0
112912	12:44:14	10041	pm.simpleEngRight	blank.simpleEng	2	0	2200	1	0	12:44:14	1534925	0	0	0	0	0	0	0	0	0	0	0	0	0	0	0	0	0
112912	12:44:14	10041	pm.simpleEngRight	pm.simpleEng	2	57	310	0	0	12:44:14	1535258	0	0	0	0	0	0	0	0	0	0	0	0	0	0	0	0	0
112912	12:44:14	10041	pm.simpleEngRight	blank.simpleEng	2	0	2500	1	0	12:44:14	1537777	0	0	0	0	0	0	0	0	0	0	0	0	0	0	0	0	0
112912	12:44:14	10041	pm.simpleEngRight	pm.simpleEng	2	57	322	0	0	12:44:14	1538124	0	0	0	0	0	0	0	0	0	0	0	0	0	0	0	0	0
112912	12:44:14	10041	pm.simpleEngRight	blank.simpleEng	2	0	2100	1	0	12:44:14	1540243	0	0	0	0	0	0	0	0	0	0	0	0	0	0	0	0	0
112912	12:44:14	10041	pm.simpleEngRight	pm.simpleEng	2	57	320	0	0	12:44:14	1540589	0	0	0	0	0	0	0	0	0	0	0	0	0	0	0	0	0
112912	12:44:14	10041	pm.simpleEngRight	blank.simpleEng	2	0	2300	1	0	12:44:14	1542908	0	0	0	0	0	0	0	0	0	0	0	0	0	0	0	0	0
112912	12:44:14	10041	pm.simpleEngRight	pm.simpleEng	2	57	343	0	0	12:44:14	1543268	0	0	0	0	0	0	0	0	0	0	0	0	0	0	0	0	0
112912	12:44:14	10041	pm.simpleEngRight	blank.simpleEng	2	0	2400	1	0	12:44:14	1545680	0	0	0	0	0	0	0	0	0	0	0	0	0	0	0	0	0
112912	12:44:14	10041	pm.simpleEngRight	pm.simpleEng	2	57	322	0	0	12:44:14	1546027	0	0	0	0	0	0	0	0	0	0	0	0	0	0	0	0	0
112912	12:44:14	10041	pm.simpleEngRight	blank.simpleEng	2	0	1900	1	0	12:44:14	1547946	0	0	0	0	0	0	0	0	0	0	0	0	0	0	0	0	0
112912	12:44:14	10041	pm.simpleEngRight	pm.simpleEng	2	57	312	0	0	12:44:14	1548279	0	0	0	0	0	0	0	0	0	0	0	0	0	0	0	0	0
112912	12:44:14	10041	pm.simpleEngRight	blank.simpleEng	2	0	1800	1	0	12:44:14	1550092	0	0	0	0	0	0	0	0	0	0	0	0	0	0	0	0	0
112912	12:44:14	10041	pm.simpleEngRight	pm.simpleEng	2	57	391	0	0	12:44:14	1550505	0	0	0	0	0	0	0	0	0	0	0	0	0	0	0	0	0
112912	12:44:14	10041	pm.simpleEngRight	blank.simpleEng	2	0	2000	1	0	12:44:14	1552517	0	0	0	0	0	0	0	0	0	0	0	0	0	0	0	0	0
112912	12:44:14	10041	pm.simpleEngRight	pm.simpleEng	2	57	301	0	0	12:44:14	1552837	0	0	0	0	0	0	0	0	0	0	0	0	0	0	0	0	0
112912	12:44:14	10041	pm.simpleEngRight	blank.simpleEng	2	0	1500	1	0	12:44:14	1554357	0	0	0	0	0	0	0	0	0	0	0	0	0	0	0	0	0
112912	12:44:14	10041	pm.simpleEngRight	pm.simpleEng	2	57	318	0	0	12:44:14	1554703	0	0	0	0	0	0	0	0	0	0	0	0	0	0	0	0	0
112912	12:44:14	10041	pm.simpleEngRight	blank.simpleEng	2	0	1700	1	0	12:44:14	1556422	0	0	0	0	0	0	0	0	0	0	0	0	0	0	0	0	0
112912	12:44:14	10041	pm.simpleEngRight	pm.simpleEng	2	57	1788	0	0	12:44:14	1558235	0	0	0	0	0	0	0	0	0	0	0	0	0	0	0	0	0
112912	12:44:14	10041	pm.simpleEngRight	blank.simpleEng	2	0	1600	1	0	12:44:14	1559861	0	0	0	0	0	0	0	0	0	0	0	0	0	0	0	0	0
112912	12:44:14	10041	pm.simpleEngRight	pm.simpleEng	2	57	317	0	0	12:44:14	1560194	0	0	0	0	0	0	0	0	0	0	0	0	0	0	0	0	0
112912	12:44:14	10041	pm.simpleEngRight	blank.simpleEng	2	0	1700	1	0	12:44:14	1561914	0	0	0	0	0	0	0	0	0	0	0	0	0	0	0	0	0
112912	12:44:14	10041	pm.simpleEngRight	pm.simpleEng	2	57	313	0	0	12:44:14	1562247	0	0	0	0	0	0	0	0	0	0	0	0	0	0	0	0	0
112912	12:44:14	10041	pm.simpleEngRight	blank.simpleEng	2	0	1500	1	0	12:44:14	1563766	0	0	0	0	0	0	0	0	0	0	0	0	0	0	0	0	0
112912	12:44:14	10041	pm.simpleEngRight	pm.simpleEng	2	57	348	0	0	12:44:14	1564139	0	0	0	0	0	0	0	0	0	0	0	0	0	0	0	0	0
112912	12:44:14	10041	pm.simpleEngRight	blank.simpleEng	2	0	2400	1	0	12:44:14	1566552	0	0	0	0	0	0	0	0	0	0	0	0	0	0	0	0	0
112912	12:44:14	10041	pm.simpleEngRight	pm.simpleEng	2	57	810	0	0	12:44:14	1567391	0	0	0	0	0	0	0	0	0	0	0	0	0	0	0	0	0
112912	12:44:14	10041	pm.simpleEngRight	blank.simpleEng	2	0	1600	1	0	12:44:14	1569004	0	0	0	0	0	0	0	0	0	0	0	0	0	0	0	0	0
112912	12:44:14	10041	pm.simpleEngRight	pm.simpleEng	2	57	486	0	0	12:44:14	1569510	0	0	0	0	0	0	0	0	0	0	0	0	0	0	0	0	0
112912	12:44:14	10041	pm.simpleEngRight	blank.simpleEng	2	0	1900	1	0	12:44:14	1571430	0	0	0	0	0	0	0	0	0	0	0	0	0	0	0	0	0
112912	12:44:14	10041	pm.simpleEngRight	pm.simpleEng	2	57	460	0	0	12:44:14	1571909	0	0	0	0	0	0	0	0	0	0	0	0	0	0	0	0	0
112912	12:44:14	10041	pm.simpleEngRight	blank.simpleEng	2	0	1800	1	0	12:44:14	1573722	0	0	0	0	0	0	0	0	0	0	0	0	0	0	0	0	0
112912	12:44:14	10041	pm.simpleEngRight	pm.simpleEng	2	57	328	0	0	12:44:14	1574069	0	0	0	0	0	0	0	0	0	0	0	0	0	0	0	0	0
112912	12:44:14	10041	pm.simpleEngRight	blank.simpleEng	2	0	2000	1	0	12:44:14	1576081	0	0	0	0	0	0	0	0	0	0	0	0	0	0	0	0	0
112912	12:44:14	10041	pm.simpleEngRight	pm.simpleEng	2	57	353	0	0	12:44:14	1576454	0	0	0	0	0	0	0	0	0	0	0	0	0	0	0	0	0
112912	12:44:14	10041	pm.simpleEngRight	blank.simpleEng	2	0	2300	1	0	12:44:14	1578773	0	0	0	0	0	0	0	0	0	0	0	0	0	0	0	0	0
112912	12:44:14	10041	pm.simpleEngRight	pm.simpleEng	2	57	364	0	0	12:44:14	1579160	0	0	0	0	0	0	0	0	0	0	0	0	0	0	0	0	0
112912	12:44:14	10041	pm.simpleEngRight	blank.simpleEng	2	0	2100	1	0	12:44:14	1581279	0	0	0	0	0	0	0	0	0	0	0	0	0	0	0	0	0
112912	12:44:14	10041	pm.simpleEngRight	pm.simpleEng	2	57	290	0	0	12:44:14	1581599	0	0	0	0	0	0	0	0	0	0	0	0	0	0	0	0	0
112912	12:44:14	10041	pm.simpleEngRight	blank.simpleEng	2	0	2500	1	0	12:44:14	1584118	0	0	0	0	0	0	0	0	0	0	0	0	0	0	0	0	0
112912	12:44:14	10041	pm.simpleEngRight	pm.simpleEng	2	57	508	0	0	12:44:14	1584651	0	0	0	0	0	0	0	0	0	0	0	0	0	0	0	0	0
112912	12:44:14	10041	pm.simpleEngRight	blank.simpleEng	2	0	2200	1	0	12:44:14	1586877	0	0	0	0	0	0	0	0	0	0	0	0	0	0	0	0	0
112912	12:44:14	10041	pm.simpleEngRight	pm.simpleEng	2	57	437	0	0	12:44:14	1587330	0	0	0	0	0	0	0	0	0	0	0	0	0	0	0	0	0
112912	12:44:14	10041	pm.simpleEngRight	blank.simpleEng	2	0	1900	1	0	12:44:14	1589249	0	0	0	0	0	0	0	0	0	0	0	0	0	0	0	0	0
112912	12:44:14	10041	pm.simpleEngRight	pm.simpleEng	2	57	352	0	0	12:44:14	1589622	0	0	0	0	0	0	0	0	0	0	0	0	0	0	0	0	0
112912	12:44:14	10041	pm.simpleEngRight	blank.simpleEng	2	0	2100	1	0	12:44:14	1591741	0	0	0	0	0	0	0	0	0	0	0	0	0	0	0	0	0
112912	12:44:14	10041	pm.simpleEngRight	pm.simpleEng	2	57	356	0	0	12:44:14	1592114	0	0	0	0	0	0	0	0	0	0	0	0	0	0	0	0	0
112912	12:44:14	10041	pm.simpleEngRight	blank.simpleEng	2	0	1500	1	0	12:44:14	1593634	0	0	0	0	0	0	0	0	0	0	0	0	0	0	0	0	0
112912	12:44:14	10041	pm.simpleEngRight	pm.simpleEng	2	57	479	0	0	12:44:14	1594140	0	0	0	0	0	0	0	0	0	0	0	0	0	0	0	0	0
112912	12:44:14	10041	pm.simpleEngRight	blank.simpleEng	2	0	1600	1	0	12:44:14	1595753	0	0	0	0	0	0	0	0	0	0	0	0	0	0	0	0	0
112912	12:44:14	10041	pm.simpleEngRight	pm.simpleEng	2	57	344	0	0	12:44:14	1596126	0	0	0	0	0	0	0	0	0	0	0	0	0	0	0	0	0
112912	12:44:14	10041	pm.simpleEngRight	blank.simpleEng	2	0	1700	1	0	12:44:14	1597845	0	0	0	0	0	0	0	0	0	0	0	0	0	0	0	0	0
112912	12:44:14	10041	pm.simpleEngRight	pm.simpleEng	2	57	332	0	0	12:44:14	1598206	0	0	0	0	0	0	0	0	0	0	0	0	0	0	0	0	0
112912	12:44:14	10041	pm.simpleEngRight	blank.simpleEng	2	0	1800	1	0	12:44:14	1600018	0	0	0	0	0	0	0	0	0	0	0	0	0	0	0	0	0
112912	12:44:14	10041	pm.simpleEngRight	pm.simpleEng	2	57	335	0	0	12:44:14	1600378	0	0	0	0	0	0	0	0	0	0	0	0	0	0	0	0	0
112912	12:44:14	10041	pm.simpleEngRight	blank.simpleEng	2	0	2200	1	0	12:44:14	1602590	0	0	0	0	0	0	0	0	0	0	0	0	0	0	0	0	0
112912	12:44:14	10041	pm.simpleEngRight	pm.simpleEng	2	57	339	0	0	12:44:14	1602950	0	0	0	0	0	0	0	0	0	0	0	0	0	0	0	0	0
112912	12:44:14	10041	Trial2BackEng	N	3	0	1000	1	1	12:44:14	1791711	0	0	0	0	0	0	0	0	0	0	0	0	0	0	0	0	0
112912	12:44:14	10041	Trial2BackEng	N	3	0	1000	1	2	12:44:14	1793218	0	0	0	0	0	0	0	0	0	0	0	0	0	0	0	0	0
112912	12:44:14	10041	Trial2BackEng	N	3	0	1000	1	3	12:44:14	1794724	0	0	0	0	0	0	0	0	0	0	0	0	0	0	0	0	0
112912	12:44:14	10041	Trial2BackEng	N	3	0	1000	1	4	12:44:14	1796230	0	0	0	0	0	0	0	0	0	0	0	0	0	0	0	0	0
112912	12:44:14	10041	Trial2BackEng	N	3	0	1000	1	5	12:44:14	1797736	0	0	0	0	0	0	0	0	0	0	0	0	0	0	0	0	0
112912	12:44:14	10041	Trial2BackEng	N	3	0	1000	1	6	12:44:14	1799242	0	0	0	0	0	0	0	0	0	0	0	0	0	0	0	0	0
112912	12:44:14	10041	Trial2BackEng	N	3	0	1000	1	7	12:44:14	1800748	0	0	0	0	0	0	0	0	0	0	0	0	0	0	0	0	0
112912	12:44:14	10041	Trial2BackEng	N	3	0	1000	1	8	12:44:14	1802254	0	0	0	0	0	0	0	0	0	0	0	0	0	0	0	0	0
112912	12:44:14	10041	Trial2BackEng	Y	3	0	1000	0	8	12:44:14	1803760	0	0	0	0	0	0	0	0	0	0	0	0	0	0	0	0	0
112912	12:44:14	10041	Trial2BackEng	N	3	0	1000	1	9	12:44:14	1805266	0	0	0	0	0	0	0	0	0	0	0	0	0	0	0	0	0
112912	12:44:14	10041	Trial2BackEng	N	3	0	1000	1	10	12:44:14	1806772	0	0	0	0	0	0	0	0	0	0	0	0	0	0	0	0	0
112912	12:44:14	10041	Trial2BackEng	N	3	0	1000	1	11	12:44:14	1808278	0	0	0	0	0	0	0	0	0	0	0	0	0	0	0	0	0
112912	12:44:14	10041	Trial2BackEng	Y	3	0	1000	0	11	12:44:14	1809784	0	0	0	0	0	0	0	0	0	0	0	0	0	0	0	0	0
112912	12:44:14	10041	Trial2BackEng	N	3	0	1000	1	12	12:44:14	1811290	0	0	0	0	0	0	0	0	0	0	0	0	0	0	0	0	0
112912	12:44:14	10041	Trial2BackEng	N	3	0	1000	1	13	12:44:14	1812796	0	0	0	0	0	0	0	0	0	0	0	0	0	0	0	0	0
112912	12:44:14	10041	Trial2BackEng	N	3	0	1000	1	14	12:44:14	1814302	0	0	0	0	0	0	0	0	0	0	0	0	0	0	0	0	0
112912	12:44:14	10041	Trial2BackEng	N	3	0	1000	1	15	12:44:14	1815808	0	0	0	0	0	0	0	0	0	0	0	0	0	0	0	0	0
112912	12:44:14	10041	Trial2BackEng	N	3	57	894	0	15	12:44:14	1817221	0	0	0	0	0	0	0	0	0	0	0	0	0	0	0	0	0
112912	12:44:14	10041	Trial2BackEng	Y	3	57	924	1	16	12:44:14	1818754	0	0	0	0	0	0	0	0	0	0	0	0	0	0	0	0	0
112912	12:44:14	10041	Trial2BackEng	N	3	0	1000	1	17	12:44:14	1820326	0	0	0	0	0	0	0	0	0	0	0	0	0	0	0	0	0
112912	12:44:14	10041	Trial2BackEng	N	3	57	775	0	17	12:44:14	1821619	0	0	0	0	0	0	0	0	0	0	0	0	0	0	0	0	0
112912	12:44:14	10041	Trial2BackEng	N	3	0	1000	1	18	12:44:14	1823338	0	0	0	0	0	0	0	0	0	0	0	0	0	0	0	0	0
112912	12:44:14	10041	Trial2BackEng	N	3	0	1000	1	19	12:44:14	1824844	0	0	0	0	0	0	0	0	0	0	0	0	0	0	0	0	0
112912	12:44:14	10041	Trial2BackEng	Y	3	57	785	1	20	12:44:14	1826151	0	0	0	0	0	0	0	0	0	0	0	0	0	0	0	0	0
112912	12:44:14	10041	Trial2BackEng	N	3	0	1000	1	21	12:44:14	1827856	0	0	0	0	0	0	0	0	0	0	0	0	0	0	0	0	0
112912	12:44:14	10041	Trial2BackEng	N	3	0	1000	1	22	12:44:14	1829376	0	0	0	0	0	0	0	0	0	0	0	0	0	0	0	0	0
112912	12:44:14	10041	Trial2BackEng	N	3	0	1000	1	23	12:44:14	1830882	0	0	0	0	0	0	0	0	0	0	0	0	0	0	0	0	0
112912	12:44:14	10041	Trial2BackEng	N	3	0	1000	1	24	12:44:14	1832401	0	0	0	0	0	0	0	0	0	0	0	0	0	0	0	0	0
112912	12:44:14	10041	Trial2BackEng	N	3	0	1000	1	25	12:44:14	1833907	0	0	0	0	0	0	0	0	0	0	0	0	0	0	0	0	0
112912	12:44:14	10041	Trial2BackEng	N	3	0	1000	1	26	12:44:14	1835413	0	0	0	0	0	0	0	0	0	0	0	0	0	0	0	0	0
112912	12:44:14	10041	Trial2BackEng	Y	3	0	1000	0	26	12:44:14	1836919	0	0	0	0	0	0	0	0	0	0	0	0	0	0	0	0	0
112912	12:44:14	10041	Trial2BackEng	N	3	0	1000	1	27	12:44:14	1838439	0	0	0	0	0	0	0	0	0	0	0	0	0	0	0	0	0
112912	12:44:14	10041	Trial2BackEng	N	3	0	1000	1	28	12:44:14	1839945	0	0	0	0	0	0	0	0	0	0	0	0	0	0	0	0	0
112912	12:44:14	10041	Trial2BackEng	N	3	0	1000	1	29	12:44:14	1841451	0	0	0	0	0	0	0	0	0	0	0	0	0	0	0	0	0
112912	12:44:14	10041	Trial2BackEng	Y	3	57	706	1	30	12:44:14	1842677	0	0	0	0	0	0	0	0	0	0	0	0	0	0	0	0	0
112912	12:44:14	10041	Trial2BackEng	N	3	0	1000	1	31	12:44:14	1844463	0	0	0	0	0	0	0	0	0	0	0	0	0	0	0	0	0
112912	12:44:14	10041	Trial2BackEng	N	3	0	1000	1	32	12:44:14	1845969	0	0	0	0	0	0	0	0	0	0	0	0	0	0	0	0	0
112912	12:44:14	10041	Trial2BackEng	N	3	0	1000	1	33	12:44:14	1847475	0	0	0	0	0	0	0	0	0	0	0	0	0	0	0	0	0
112912	12:44:14	10041	Trial2BackEng	N	3	57	890	0	33	12:44:14	1848874	0	0	0	0	0	0	0	0	0	0	0	0	0	0	0	0	0
112912	12:44:14	10041	Trial2BackEng	N	3	0	1000	1	34	12:44:14	1850487	0	0	0	0	0	0	0	0	0	0	0	0	0	0	0	0	0
112912	12:44:14	10041	Trial2BackEng	N	3	57	677	0	34	12:44:14	1851673	0	0	0	0	0	0	0	0	0	0	0	0	0	0	0	0	0
112912	12:44:14	10041	Trial2BackEng	Y	3	0	1000	0	34	12:44:14	1853499	0	0	0	0	0	0	0	0	0	0	0	0	0	0	0	0	0
112912	12:44:14	10041	Trial2BackEng	N	3	0	1000	1	35	12:44:14	1855018	0	0	0	0	0	0	0	0	0	0	0	0	0	0	0	0	0
112912	12:44:14	10041	Trial2BackEng	N	3	0	1000	1	36	12:44:14	1856525	0	0	0	0	0	0	0	0	0	0	0	0	0	0	0	0	0
112912	12:44:14	10041	Trial2BackEng	N	3	0	1000	1	37	12:44:14	1858030	0	0	0	0	0	0	0	0	0	0	0	0	0	0	0	0	0
112912	12:44:14	10041	Trial2BackEng	N	3	0	1000	1	38	12:44:14	1859537	0	0	0	0	0	0	0	0	0	0	0	0	0	0	0	0	0
112912	12:44:14	10041	Trial2BackEng	Y	3	57	588	1	39	12:44:14	1860643	0	0	0	0	0	0	0	0	0	0	0	0	0	0	0	0	0
112912	12:44:14	10041	Trial2BackEng	N	3	0	1000	1	40	12:44:14	1862549	0	0	0	0	0	0	0	0	0	0	0	0	0	0	0	0	0
112912	12:44:14	10041	Trial2BackEng	N	3	0	1000	1	41	12:44:14	1864055	0	0	0	0	0	0	0	0	0	0	0	0	0	0	0	0	0
112912	12:44:14	10041	Trial2BackEng	N	3	57	758	0	41	12:44:14	1865321	0	0	0	0	0	0	0	0	0	0	0	0	0	0	0	0	0
112912	12:44:14	10041	Trial2BackEng	N	3	0	1000	1	42	12:44:14	1867067	0	0	0	0	0	0	0	0	0	0	0	0	0	0	0	0	0
112912	12:44:14	10041	Trial2BackEng	N	3	0	1000	1	43	12:44:14	1868573	0	0	0	0	0	0	0	0	0	0	0	0	0	0	0	0	0
112912	12:44:14	10041	Trial2BackEng	Y	3	57	607	1	44	12:44:14	1869692	0	0	0	0	0	0	0	0	0	0	0	0	0	0	0	0	0
112912	12:44:14	10041	Trial2BackEng	N	3	0	1000	1	45	12:44:14	1871585	0	0	0	0	0	0	0	0	0	0	0	0	0	0	0	0	0
112912	12:44:14	10041	Trial2BackEng	N	3	0	1000	1	46	12:44:14	1873091	0	0	0	0	0	0	0	0	0	0	0	0	0	0	0	0	0
112912	12:44:14	10041	Trial2BackEng	N	3	0	1000	1	47	12:44:14	1874597	0	0	0	0	0	0	0	0	0	0	0	0	0	0	0	0	0
112912	12:44:14	10041	Trial2BackEng	N	3	0	1000	1	48	12:44:14	1876103	0	0	0	0	0	0	0	0	0	0	0	0	0	0	0	0	0
112912	12:44:14	10041	Trial2BackEng	N	3	57	724	0	48	12:44:14	1877343	0	0	0	0	0	0	0	0	0	0	0	0	0	0	0	0	0
112912	12:44:14	10041	Trial2BackEng	N	3	0	1000	1	49	12:44:14	1879115	0	0	0	0	0	0	0	0	0	0	0	0	0	0	0	0	0
112912	12:44:14	10041	Trial2BackEng	Y	3	57	688	1	50	12:44:14	1880314	0	0	0	0	0	0	0	0	0	0	0	0	0	0	0	0	0
112912	12:44:14	10041	Trial2BackEng	N	3	57	878	0	50	12:44:14	1882021	0	0	0	0	0	0	0	0	0	0	0	0	0	0	0	0	0
112912	12:44:14	10041	Trial2BackEng	N	3	0	1000	1	51	12:44:14	1883633	0	0	0	0	0	0	0	0	0	0	0	0	0	0	0	0	0
112912	12:44:14	10041	Trial2BackEng	Y	3	57	682	1	52	12:44:14	1884833	0	0	0	0	0	0	0	0	0	0	0	0	0	0	0	0	0
112912	12:44:14	10041	Trial2BackEng	N	3	0	1000	1	53	12:44:14	1886646	0	0	0	0	0	0	0	0	0	0	0	0	0	0	0	0	0
112912	12:44:14	10041	Trial2BackEng	N	3	0	1000	1	54	12:44:14	1888151	0	0	0	0	0	0	0	0	0	0	0	0	0	0	0	0	0
112912	12:44:14	10041	Trial2BackEng	N	3	0	1000	1	55	12:44:14	1889657	0	0	0	0	0	0	0	0	0	0	0	0	0	0	0	0	0
112912	12:44:14	10041	Trial2BackEng	N	3	0	1000	1	56	12:44:14	1891163	0	0	0	0	0	0	0	0	0	0	0	0	0	0	0	0	0
112912	12:44:14	10041	Trial2BackEng	N	3	0	1000	1	57	12:44:14	1892670	0	0	0	0	0	0	0	0	0	0	0	0	0	0	0	0	0
112912	12:44:14	10041	Trial2BackEng	N	3	0	1000	1	58	12:44:14	1894176	0	0	0	0	0	0	0	0	0	0	0	0	0	0	0	0	0
112912	12:44:14	10041	Trial2BackEng	N	3	57	619	0	58	12:44:14	1895308	0	0	0	0	0	0	0	0	0	0	0	0	0	0	0	0	0
112912	12:44:14	10041	Trial2BackEng	N	3	0	1000	1	59	12:44:14	1897188	0	0	0	0	0	0	0	0	0	0	0	0	0	0	0	0	0
112912	12:44:14	10041	Trial2BackEng	N	3	0	1000	1	60	12:44:14	1898694	0	0	0	0	0	0	0	0	0	0	0	0	0	0	0	0	0
112912	12:44:14	10041	Trial2BackEng	N	3	0	1000	1	61	12:44:14	1900213	0	0	0	0	0	0	0	0	0	0	0	0	0	0	0	0	0
112912	12:44:14	10041	Trial2BackEng	Y	3	57	662	1	62	12:44:14	1901386	0	0	0	0	0	0	0	0	0	0	0	0	0	0	0	0	0
112912	12:44:14	10041	Trial2BackEng	N	3	0	1000	1	63	12:44:14	1903225	0	0	0	0	0	0	0	0	0	0	0	0	0	0	0	0	0
112912	12:44:14	10041	Trial2BackEng	N	3	0	1000	1	64	12:44:14	1904731	0	0	0	0	0	0	0	0	0	0	0	0	0	0	0	0	0
112912	12:44:14	10041	Trial2BackEng	N	3	0	1000	1	65	12:44:14	1906237	0	0	0	0	0	0	0	0	0	0	0	0	0	0	0	0	0
112912	12:44:14	10041	Trial2BackEng	Y	3	57	621	1	66	12:44:14	1907370	0	0	0	0	0	0	0	0	0	0	0	0	0	0	0	0	0
112912	12:44:14	10041	Trial2BackEng	N	3	0	1000	1	67	12:44:14	1909249	0	0	0	0	0	0	0	0	0	0	0	0	0	0	0	0	0
112912	12:44:14	10041	Trial2BackEng	N	3	0	1000	1	68	12:44:14	1910769	0	0	0	0	0	0	0	0	0	0	0	0	0	0	0	0	0
112912	12:44:14	10041	Trial2BackEng	N	3	0	1000	1	69	12:44:14	1912275	0	0	0	0	0	0	0	0	0	0	0	0	0	0	0	0	0
112912	12:44:14	10041	Trial2BackEng	N	3	0	1000	1	70	12:44:14	1913794	0	0	0	0	0	0	0	0	0	0	0	0	0	0	0	0	0
112912	12:44:14	10041	Trial2BackEng	N	3	0	1000	1	71	12:44:14	1915300	0	0	0	0	0	0	0	0	0	0	0	0	0	0	0	0	0
112912	12:44:14	10041	Trial2BackEng	Y	3	57	694	1	72	12:44:14	1916513	0	0	0	0	0	0	0	0	0	0	0	0	0	0	0	0	0
112912	12:44:14	10041	Trial2BackEng	N	3	57	612	0	72	12:44:14	1917939	0	0	0	0	0	0	0	0	0	0	0	0	0	0	0	0	0
112912	12:44:14	10041	Trial2BackEng	N	3	0	1000	1	73	12:44:14	1919818	0	0	0	0	0	0	0	0	0	0	0	0	0	0	0	0	0
112912	12:44:14	10041	Trial2BackEng	N	3	57	704	0	73	12:44:14	1921031	0	0	0	0	0	0	0	0	0	0	0	0	0	0	0	0	0
112912	12:44:14	10041	Trial2BackEng	N	3	0	1000	1	74	12:44:14	1922830	0	0	0	0	0	0	0	0	0	0	0	0	0	0	0	0	0
112912	12:44:14	10041	Trial2BackEng	N	3	0	1000	1	75	12:44:14	1924336	0	0	0	0	0	0	0	0	0	0	0	0	0	0	0	0	0
112912	12:44:14	10041	Trial2BackEng	N	3	0	1000	1	76	12:44:14	1925843	0	0	0	0	0	0	0	0	0	0	0	0	0	0	0	0	0
112912	12:44:14	10041	Trial2BackEng	N	3	0	1000	1	77	12:44:14	1927348	0	0	0	0	0	0	0	0	0	0	0	0	0	0	0	0	0
112912	12:44:14	10041	Trial2BackEng	N	3	0	1000	1	78	12:44:14	1928855	0	0	0	0	0	0	0	0	0	0	0	0	0	0	0	0	0
112912	12:44:14	10041	Trial2BackEng	N	3	0	1000	1	79	12:44:14	1930360	0	0	0	0	0	0	0	0	0	0	0	0	0	0	0	0	0
112912	12:44:14	10041	Trial2BackEng	Y	3	57	633	1	80	12:44:14	1931547	0	0	0	0	0	0	0	0	0	0	0	0	0	0	0	0	0
112912	12:44:14	10041	Trial2BackEng	N	3	0	1000	1	81	12:44:14	1933413	0	0	0	0	0	0	0	0	0	0	0	0	0	0	0	0	0
112912	12:44:14	10041	Trial2BackEng	N	3	0	1000	1	82	12:44:14	1934919	0	0	0	0	0	0	0	0	0	0	0	0	0	0	0	0	0
112912	12:44:14	10041	Trial2BackEng	N	3	57	627	0	82	12:44:14	1936065	0	0	0	0	0	0	0	0	0	0	0	0	0	0	0	0	0
112912	12:44:14	10041	Trial2BackEng	N	3	0	1000	1	83	12:44:14	1937931	0	0	0	0	0	0	0	0	0	0	0	0	0	0	0	0	0
112912	12:44:14	10041	Trial2BackEng	N	3	0	1000	1	84	12:44:14	1939437	0	0	0	0	0	0	0	0	0	0	0	0	0	0	0	0	0
112912	12:44:14	10041	Trial2BackEng	N	3	0	1000	1	85	12:44:14	1940943	0	0	0	0	0	0	0	0	0	0	0	0	0	0	0	0	0
112912	12:44:14	10041	Trial2BackEng	N	3	0	1000	1	86	12:44:14	1942449	0	0	0	0	0	0	0	0	0	0	0	0	0	0	0	0	0
112912	12:44:14	10041	Trial2BackEng	N	3	0	1000	1	87	12:44:14	1943955	0	0	0	0	0	0	0	0	0	0	0	0	0	0	0	0	0
112912	12:44:14	10041	Trial2BackEng	Y	3	57	519	1	88	12:44:14	1944994	0	0	0	0	0	0	0	0	0	0	0	0	0	0	0	0	0
112912	12:44:14	10041	Trial2BackEng	N	3	0	1000	1	89	12:44:14	1946967	0	0	0	0	0	0	0	0	0	0	0	0	0	0	0	0	0
112912	12:44:14	10041	Trial2BackEng	N	3	0	1000	1	90	12:44:14	1948473	0	0	0	0	0	0	0	0	0	0	0	0	0	0	0	0	0
112912	12:44:14	10041	Trial2BackEng	N	3	0	1000	1	91	12:44:14	1949979	0	0	0	0	0	0	0	0	0	0	0	0	0	0	0	0	0
112912	12:44:14	10041	Trial2BackEng	N	3	0	1000	1	92	12:44:14	1951485	0	0	0	0	0	0	0	0	0	0	0	0	0	0	0	0	0
112912	12:44:14	10041	Trial2BackEng	Y	3	57	556	1	93	12:44:14	1952552	0	0	0	0	0	0	0	0	0	0	0	0	0	0	0	0	0
112912	12:44:14	10041	Trial2BackEng	N	3	0	1000	1	94	12:44:14	1954497	0	0	0	0	0	0	0	0	0	0	0	0	0	0	0	0	0
112912	12:44:14	10041	Trial2BackEng	N	3	0	1000	1	95	12:44:14	1956003	0	0	0	0	0	0	0	0	0	0	0	0	0	0	0	0	0
112912	12:44:14	10041	Trial2BackEng	N	3	0	1000	1	96	12:44:14	1957509	0	0	0	0	0	0	0	0	0	0	0	0	0	0	0	0	0
112912	12:44:14	10041	Trial2BackEng	Y	3	57	500	1	97	12:44:14	1958522	0	0	0	0	0	0	0	0	0	0	0	0	0	0	0	0	0
112912	12:44:14	10041	Trial2BackEng	N	3	0	1000	1	98	12:44:14	1960521	0	0	0	0	0	0	0	0	0	0	0	0	0	0	0	0	0
112912	12:44:14	10041	Trial2BackEng	N	3	0	1000	1	99	12:44:14	1962027	0	0	0	0	0	0	0	0	0	0	0	0	0	0	0	0	0
112912	12:44:14	10041	Trial2BackEng	N	3	0	1000	1	100	12:44:14	1963533	0	0	0	0	0	0	0	0	0	0	0	0	0	0	0	0	0
112912	12:44:14	10041	Trial2BackEng	N	3	0	1000	1	101	12:44:14	1965039	0	0	0	0	0	0	0	0	0	0	0	0	0	0	0	0	0
112912	12:44:14	10041	Trial2BackEng	N	3	0	1000	1	102	12:44:14	1966546	0	0	0	0	0	0	0	0	0	0	0	0	0	0	0	0	0
112912	12:44:14	10041	Trial2BackEng	Y	3	57	343	1	103	12:44:14	1967398	0	0	0	0	0	0	0	0	0	0	0	0	0	0	0	0	0
112912	12:44:14	10041	Trial2BackEng	N	3	0	1000	1	104	12:44:14	1969557	0	0	0	0	0	0	0	0	0	0	0	0	0	0	0	0	0
112912	12:44:14	10041	Trial2BackEng	N	3	0	1000	1	105	12:44:14	1971064	0	0	0	0	0	0	0	0	0	0	0	0	0	0	0	0	0
112912	12:44:14	10041	Trial2BackEng	N	3	0	1000	1	106	12:44:14	1972570	0	0	0	0	0	0	0	0	0	0	0	0	0	0	0	0	0
112912	12:44:14	10041	Trial2BackEng	Y	3	57	431	1	107	12:44:14	1973516	0	0	0	0	0	0	0	0	0	0	0	0	0	0	0	0	0
112912	12:44:14	10041	Trial3BackEng	NN	4	0	1000	1	107	12:44:14	2009728	0	0	0	0	0	0	0	0	0	0	0	0	0	0	0	0	0
112912	12:44:14	10041	Trial3BackEng	NN	4	0	1000	1	107	12:44:14	2011234	0	0	0	0	0	0	0	0	0	0	0	0	0	0	0	0	0
112912	12:44:14	10041	Trial3BackEng	NN	4	0	1000	1	107	12:44:14	2012740	0	0	0	0	0	0	0	0	0	0	0	0	0	0	0	0	0
112912	12:44:14	10041	Trial3BackEng	YY	4	57	387	1	107	12:44:14	2013646	0	0	0	0	0	0	0	0	0	0	0	0	0	0	0	0	0
112912	12:44:14	10041	Trial3BackEng	NN	4	0	1000	1	107	12:44:14	2015752	0	0	0	0	0	0	0	0	0	0	0	0	0	0	0	0	0
112912	12:44:14	10041	Trial3BackEng	NN	4	0	1000	1	107	12:44:14	2017258	0	0	0	0	0	0	0	0	0	0	0	0	0	0	0	0	0
112912	12:44:14	10041	Trial3BackEng	NN	4	0	1000	1	107	12:44:14	2018764	0	0	0	0	0	0	0	0	0	0	0	0	0	0	0	0	0
112912	12:44:14	10041	Trial3BackEng	NN	4	0	1000	1	107	12:44:14	2020270	0	0	0	0	0	0	0	0	0	0	0	0	0	0	0	0	0
112912	12:44:14	10041	Trial3BackEng	YY	4	57	505	1	107	12:44:14	2021283	0	0	0	0	0	0	0	0	0	0	0	0	0	0	0	0	0
112912	12:44:14	10041	Trial3BackEng	NN	4	0	1000	1	107	12:44:14	2023282	0	0	0	0	0	0	0	0	0	0	0	0	0	0	0	0	0
112912	12:44:14	10041	Trial3BackEng	NN	4	0	1000	1	107	12:44:14	2024801	0	0	0	0	0	0	0	0	0	0	0	0	0	0	0	0	0
112912	12:44:14	10041	Trial3BackEng	NN	4	0	1000	1	107	12:44:14	2026321	0	0	0	0	0	0	0	0	0	0	0	0	0	0	0	0	0
112912	12:44:14	10041	Trial3BackEng	NN	4	57	630	0	107	12:44:14	2027467	0	0	0	0	0	0	0	0	0	0	0	0	0	0	0	0	0
112912	12:44:14	10041	Trial3BackEng	NN	4	0	1000	1	107	12:44:14	2029333	0	0	0	0	0	0	0	0	0	0	0	0	0	0	0	0	0
112912	12:44:14	10041	Trial3BackEng	NN	4	0	1000	1	107	12:44:14	2030839	0	0	0	0	0	0	0	0	0	0	0	0	0	0	0	0	0
112912	12:44:14	10041	Trial3BackEng	NN	4	0	1000	1	107	12:44:14	2032345	0	0	0	0	0	0	0	0	0	0	0	0	0	0	0	0	0
112912	12:44:14	10041	Trial3BackEng	YY	4	57	430	1	107	12:44:14	2033291	0	0	0	0	0	0	0	0	0	0	0	0	0	0	0	0	0
112912	12:44:14	10041	Trial3BackEng	NN	4	0	1000	1	107	12:44:14	2035357	0	0	0	0	0	0	0	0	0	0	0	0	0	0	0	0	0
112912	12:44:14	10041	Trial3BackEng	NN	4	0	1000	1	107	12:44:14	2036876	0	0	0	0	0	0	0	0	0	0	0	0	0	0	0	0	0
112912	12:44:14	10041	Trial3BackEng	NN	4	57	330	0	107	12:44:14	2037716	0	0	0	0	0	0	0	0	0	0	0	0	0	0	0	0	0
112912	12:44:14	10041	Trial3BackEng	NN	4	0	1000	1	107	12:44:14	2039888	0	0	0	0	0	0	0	0	0	0	0	0	0	0	0	0	0
112912	12:44:14	10041	Trial3BackEng	NN	4	57	854	0	107	12:44:14	2041261	0	0	0	0	0	0	0	0	0	0	0	0	0	0	0	0	0
112912	12:44:14	10041	Trial3BackEng	YY	4	57	836	1	107	12:44:14	2042740	0	0	0	0	0	0	0	0	0	0	0	0	0	0	0	0	0
112912	12:44:14	10041	Trial3BackEng	NN	4	0	1000	1	107	12:44:14	2044406	0	0	0	0	0	0	0	0	0	0	0	0	0	0	0	0	0
112912	12:44:14	10041	Trial3BackEng	NN	4	0	1000	1	107	12:44:14	2045913	0	0	0	0	0	0	0	0	0	0	0	0	0	0	0	0	0
112912	12:44:14	10041	Trial3BackEng	NN	4	0	1000	1	107	12:44:14	2047419	0	0	0	0	0	0	0	0	0	0	0	0	0	0	0	0	0
112912	12:44:14	10041	Trial3BackEng	YY	4	57	539	1	107	12:44:14	2048471	0	0	0	0	0	0	0	0	0	0	0	0	0	0	0	0	0
112912	12:44:14	10041	Trial3BackEng	NN	4	0	1000	1	107	12:44:14	2050431	0	0	0	0	0	0	0	0	0	0	0	0	0	0	0	0	0
112912	12:44:14	10041	Trial3BackEng	NN	4	0	1000	1	107	12:44:14	2051937	0	0	0	0	0	0	0	0	0	0	0	0	0	0	0	0	0
112912	12:44:14	10041	Trial3BackEng	NN	4	0	1000	1	107	12:44:14	2053456	0	0	0	0	0	0	0	0	0	0	0	0	0	0	0	0	0
112912	12:44:14	10041	Trial3BackEng	YY	4	57	502	1	107	12:44:14	2054469	0	0	0	0	0	0	0	0	0	0	0	0	0	0	0	0	0
112912	12:44:14	10041	Trial3BackEng	NN	4	0	1000	1	107	12:44:14	2056468	0	0	0	0	0	0	0	0	0	0	0	0	0	0	0	0	0
112912	12:44:14	10041	Trial3BackEng	NN	4	0	1000	1	107	12:44:14	2057974	0	0	0	0	0	0	0	0	0	0	0	0	0	0	0	0	0
112912	12:44:14	10041	Trial3BackEng	NN	4	0	1000	1	107	12:44:14	2059480	0	0	0	0	0	0	0	0	0	0	0	0	0	0	0	0	0
112912	12:44:14	10041	Trial3BackEng	NN	4	0	1000	1	107	12:44:14	2060986	0	0	0	0	0	0	0	0	0	0	0	0	0	0	0	0	0
112912	12:44:14	10041	Trial3BackEng	NN	4	57	427	0	107	12:44:14	2061933	0	0	0	0	0	0	0	0	0	0	0	0	0	0	0	0	0
112912	12:44:14	10041	Trial3BackEng	NN	4	0	1000	1	107	12:44:14	2063998	0	0	0	0	0	0	0	0	0	0	0	0	0	0	0	0	0
112912	12:44:14	10041	Trial3BackEng	NN	4	0	1000	1	107	12:44:14	2065504	0	0	0	0	0	0	0	0	0	0	0	0	0	0	0	0	0
112912	12:44:14	10041	Trial3BackEng	NN	4	0	1000	1	107	12:44:14	2067010	0	0	0	0	0	0	0	0	0	0	0	0	0	0	0	0	0
112912	12:44:14	10041	Trial3BackEng	NN	4	0	1000	1	107	12:44:14	2068516	0	0	0	0	0	0	0	0	0	0	0	0	0	0	0	0	0
112912	12:44:14	10041	Trial3BackEng	NN	4	57	849	0	107	12:44:14	2069876	0	0	0	0	0	0	0	0	0	0	0	0	0	0	0	0	0
112912	12:44:14	10041	Trial3BackEng	YY	4	57	559	1	107	12:44:14	2071102	0	0	0	0	0	0	0	0	0	0	0	0	0	0	0	0	0
112912	12:44:14	10041	Trial3BackEng	NN	4	0	1000	1	107	12:44:14	2073035	0	0	0	0	0	0	0	0	0	0	0	0	0	0	0	0	0
112912	12:44:14	10041	Trial3BackEng	NN	4	0	1000	1	107	12:44:14	2074541	0	0	0	0	0	0	0	0	0	0	0	0	0	0	0	0	0
112912	12:44:14	10041	Trial3BackEng	NN	4	0	1000	1	107	12:44:14	2076047	0	0	0	0	0	0	0	0	0	0	0	0	0	0	0	0	0
112912	12:44:14	10041	Trial3BackEng	NN	4	0	1000	1	107	12:44:14	2077553	0	0	0	0	0	0	0	0	0	0	0	0	0	0	0	0	0
112912	12:44:14	10041	Trial3BackEng	YY	4	0	1000	0	107	12:44:14	2079059	0	0	0	0	0	0	0	0	0	0	0	0	0	0	0	0	0
112912	12:44:14	10041	Trial3BackEng	NN	4	0	1000	1	107	12:44:14	2080565	0	0	0	0	0	0	0	0	0	0	0	0	0	0	0	0	0
112912	12:44:14	10041	Trial3BackEng	NN	4	0	1000	1	107	12:44:14	2082084	0	0	0	0	0	0	0	0	0	0	0	0	0	0	0	0	0
112912	12:44:14	10041	Trial3BackEng	NN	4	0	1000	1	107	12:44:14	2083590	0	0	0	0	0	0	0	0	0	0	0	0	0	0	0	0	0
112912	12:44:14	10041	Trial3BackEng	NN	4	57	782	0	107	12:44:14	2084883	0	0	0	0	0	0	0	0	0	0	0	0	0	0	0	0	0
112912	12:44:14	10041	Trial3BackEng	NN	4	0	1000	1	107	12:44:14	2086602	0	0	0	0	0	0	0	0	0	0	0	0	0	0	0	0	0
112912	12:44:14	10041	Trial3BackEng	YY	4	57	746	1	107	12:44:14	2087868	0	0	0	0	0	0	0	0	0	0	0	0	0	0	0	0	0
112912	12:44:14	10041	Trial3BackEng	NN	4	0	1000	1	107	12:44:14	2089614	0	0	0	0	0	0	0	0	0	0	0	0	0	0	0	0	0
112912	12:44:14	10041	Trial3BackEng	NN	4	0	1000	1	107	12:44:14	2091120	0	0	0	0	0	0	0	0	0	0	0	0	0	0	0	0	0
112912	12:44:14	10041	Trial3BackEng	NN	4	0	1000	1	107	12:44:14	2092626	0	0	0	0	0	0	0	0	0	0	0	0	0	0	0	0	0
112912	12:44:14	10041	Trial3BackEng	NN	4	57	514	0	107	12:44:14	2093652	0	0	0	0	0	0	0	0	0	0	0	0	0	0	0	0	0
112912	12:44:14	10041	Trial3BackEng	NN	4	0	1000	1	107	12:44:14	2095639	0	0	0	0	0	0	0	0	0	0	0	0	0	0	0	0	0
112912	12:44:14	10041	Trial3BackEng	NN	4	0	1000	1	107	12:44:14	2097145	0	0	0	0	0	0	0	0	0	0	0	0	0	0	0	0	0
112912	12:44:14	10041	Trial3BackEng	YY	4	57	364	1	107	12:44:14	2098024	0	0	0	0	0	0	0	0	0	0	0	0	0	0	0	0	0
112912	12:44:14	10041	Trial3BackEng	NN	4	0	1000	1	107	12:44:14	2100157	0	0	0	0	0	0	0	0	0	0	0	0	0	0	0	0	0
112912	12:44:14	10041	Trial3BackEng	NN	4	0	1000	1	107	12:44:14	2101663	0	0	0	0	0	0	0	0	0	0	0	0	0	0	0	0	0
112912	12:44:14	10041	Trial3BackEng	NN	4	0	1000	1	107	12:44:14	2103169	0	0	0	0	0	0	0	0	0	0	0	0	0	0	0	0	0
112912	12:44:14	10041	Trial3BackEng	YY	4	57	403	1	107	12:44:14	2104088	0	0	0	0	0	0	0	0	0	0	0	0	0	0	0	0	0
112912	12:44:14	10041	Trial3BackEng	NN	4	0	1000	1	107	12:44:14	2106181	0	0	0	0	0	0	0	0	0	0	0	0	0	0	0	0	0
112912	12:44:14	10041	Trial3BackEng	NN	4	0	1000	1	107	12:44:14	2107687	0	0	0	0	0	0	0	0	0	0	0	0	0	0	0	0	0
112912	12:44:14	10041	Trial3BackEng	NN	4	0	1000	1	107	12:44:14	2109206	0	0	0	0	0	0	0	0	0	0	0	0	0	0	0	0	0
112912	12:44:14	10041	Trial3BackEng	NN	4	0	1000	1	107	12:44:14	2110712	0	0	0	0	0	0	0	0	0	0	0	0	0	0	0	0	0
112912	12:44:14	10041	Trial3BackEng	NN	4	57	539	0	107	12:44:14	2111765	0	0	0	0	0	0	0	0	0	0	0	0	0	0	0	0	0
112912	12:44:14	10041	Trial3BackEng	NN	4	0	1000	1	107	12:44:14	2113724	0	0	0	0	0	0	0	0	0	0	0	0	0	0	0	0	0
112912	12:44:14	10041	Trial3BackEng	NN	4	0	1000	1	107	12:44:14	2115230	0	0	0	0	0	0	0	0	0	0	0	0	0	0	0	0	0
112912	12:44:14	10041	Trial3BackEng	NN	4	57	821	0	107	12:44:14	2116563	0	0	0	0	0	0	0	0	0	0	0	0	0	0	0	0	0
112912	12:44:14	10041	Trial3BackEng	NN	4	0	1000	1	107	12:44:14	2118242	0	0	0	0	0	0	0	0	0	0	0	0	0	0	0	0	0
112912	12:44:14	10041	Trial3BackEng	YY	4	57	801	1	107	12:44:14	2119562	0	0	0	0	0	0	0	0	0	0	0	0	0	0	0	0	0
112912	12:44:14	10041	Trial3BackEng	NN	4	0	1000	1	107	12:44:14	2121255	0	0	0	0	0	0	0	0	0	0	0	0	0	0	0	0	0
112912	12:44:14	10041	Trial3BackEng	NN	4	0	1000	1	107	12:44:14	2122761	0	0	0	0	0	0	0	0	0	0	0	0	0	0	0	0	0
112912	12:44:14	10041	Trial3BackEng	NN	4	0	1000	1	107	12:44:14	2124267	0	0	0	0	0	0	0	0	0	0	0	0	0	0	0	0	0
112912	12:44:14	10041	Trial3BackEng	YY	4	57	393	1	107	12:44:14	2125173	0	0	0	0	0	0	0	0	0	0	0	0	0	0	0	0	0
112912	12:44:14	10041	Trial3BackEng	NN	4	0	1000	1	107	12:44:14	2127279	0	0	0	0	0	0	0	0	0	0	0	0	0	0	0	0	0
112912	12:44:14	10041	Trial3BackEng	NN	4	0	1000	1	107	12:44:14	2128785	0	0	0	0	0	0	0	0	0	0	0	0	0	0	0	0	0
112912	12:44:14	10041	Trial3BackEng	NN	4	0	1000	1	107	12:44:14	2130291	0	0	0	0	0	0	0	0	0	0	0	0	0	0	0	0	0
112912	12:44:14	10041	Trial3BackEng	NN	4	0	1000	1	107	12:44:14	2131797	0	0	0	0	0	0	0	0	0	0	0	0	0	0	0	0	0
112912	12:44:14	10041	Trial3BackEng	NN	4	0	1000	1	107	12:44:14	2133316	0	0	0	0	0	0	0	0	0	0	0	0	0	0	0	0	0
112912	12:44:14	10041	Trial3BackEng	YY	4	57	895	1	107	12:44:14	2134729	0	0	0	0	0	0	0	0	0	0	0	0	0	0	0	0	0
112912	12:44:14	10041	Trial3BackEng	NN	4	0	1000	1	107	12:44:14	2136328	0	0	0	0	0	0	0	0	0	0	0	0	0	0	0	0	0
112912	12:44:14	10041	Trial3BackEng	NN	4	0	1000	1	107	12:44:14	2137834	0	0	0	0	0	0	0	0	0	0	0	0	0	0	0	0	0
112912	12:44:14	10041	Trial3BackEng	NN	4	0	1000	1	107	12:44:14	2139340	0	0	0	0	0	0	0	0	0	0	0	0	0	0	0	0	0
112912	12:44:14	10041	Trial3BackEng	NN	4	0	1000	1	107	12:44:14	2140846	0	0	0	0	0	0	0	0	0	0	0	0	0	0	0	0	0
112912	12:44:14	10041	Trial3BackEng	NN	4	0	1000	1	107	12:44:14	2142366	0	0	0	0	0	0	0	0	0	0	0	0	0	0	0	0	0
112912	12:44:14	10041	Trial3BackEng	NN	4	0	1000	1	107	12:44:14	2143872	0	0	0	0	0	0	0	0	0	0	0	0	0	0	0	0	0
112912	12:44:14	10041	Trial3BackEng	NN	4	57	451	0	107	12:44:14	2144832	0	0	0	0	0	0	0	0	0	0	0	0	0	0	0	0	0
112912	12:44:14	10041	Trial3BackEng	NN	4	0	1000	1	107	12:44:14	2146884	0	0	0	0	0	0	0	0	0	0	0	0	0	0	0	0	0
112912	12:44:14	10041	Trial3BackEng	NN	4	0	1000	1	107	12:44:14	2148390	0	0	0	0	0	0	0	0	0	0	0	0	0	0	0	0	0
112912	12:44:14	10041	Trial3BackEng	YY	4	0	1000	0	107	12:44:14	2149909	0	0	0	0	0	0	0	0	0	0	0	0	0	0	0	0	0
112912	12:44:14	10041	Trial3BackEng	NN	4	0	1000	1	107	12:44:14	2151415	0	0	0	0	0	0	0	0	0	0	0	0	0	0	0	0	0
112912	12:44:14	10041	Trial3BackEng	NN	4	0	1000	1	107	12:44:14	2152922	0	0	0	0	0	0	0	0	0	0	0	0	0	0	0	0	0
112912	12:44:14	10041	Trial3BackEng	NN	4	57	601	0	107	12:44:14	2154041	0	0	0	0	0	0	0	0	0	0	0	0	0	0	0	0	0
112912	12:44:14	10041	Trial3BackEng	NN	4	0	1000	1	107	12:44:14	2155933	0	0	0	0	0	0	0	0	0	0	0	0	0	0	0	0	0
112912	12:44:14	10041	Trial3BackEng	NN	4	0	1000	1	107	12:44:14	2157440	0	0	0	0	0	0	0	0	0	0	0	0	0	0	0	0	0
112912	12:44:14	10041	Trial3BackEng	NN	4	0	1000	1	107	12:44:14	2158946	0	0	0	0	0	0	0	0	0	0	0	0	0	0	0	0	0
112912	12:44:14	10041	Trial3BackEng	NN	4	0	1000	1	107	12:44:14	2160452	0	0	0	0	0	0	0	0	0	0	0	0	0	0	0	0	0
112912	12:44:14	10041	Trial3BackEng	NN	4	0	1000	1	107	12:44:14	2161958	0	0	0	0	0	0	0	0	0	0	0	0	0	0	0	0	0
112912	12:44:14	10041	Trial3BackEng	YY	4	0	1000	0	107	12:44:14	2163464	0	0	0	0	0	0	0	0	0	0	0	0	0	0	0	0	0
112912	12:44:14	10041	Trial3BackEng	NN	4	0	1000	1	107	12:44:14	2164970	0	0	0	0	0	0	0	0	0	0	0	0	0	0	0	0	0
112912	12:44:14	10041	Trial3BackEng	NN	4	57	344	0	107	12:44:14	2165823	0	0	0	0	0	0	0	0	0	0	0	0	0	0	0	0	0
112912	12:44:14	10041	Trial3BackEng	NN	4	0	1000	1	107	12:44:14	2167982	0	0	0	0	0	0	0	0	0	0	0	0	0	0	0	0	0
112912	12:44:14	10041	Trial3BackEng	NN	4	0	1000	1	107	12:44:14	2169488	0	0	0	0	0	0	0	0	0	0	0	0	0	0	0	0	0
112912	12:44:14	10041	Trial3BackEng	YY	4	57	626	1	107	12:44:14	2170634	0	0	0	0	0	0	0	0	0	0	0	0	0	0	0	0	0
112912	12:44:14	10041	Trial3BackEng	NN	4	0	1000	1	107	12:44:14	2172500	0	0	0	0	0	0	0	0	0	0	0	0	0	0	0	0	0
112912	12:44:14	10041	Trial3BackEng	NN	4	0	1000	1	107	12:44:14	2174006	0	0	0	0	0	0	0	0	0	0	0	0	0	0	0	0	0
112912	12:44:14	10041	Trial3BackEng	NN	4	0	1000	1	107	12:44:14	2175512	0	0	0	0	0	0	0	0	0	0	0	0	0	0	0	0	0
112912	12:44:14	10041	Trial3BackEng	YY	4	57	841	1	107	12:44:14	2176871	0	0	0	0	0	0	0	0	0	0	0	0	0	0	0	0	0
112912	12:44:14	10041	Trial3BackEng	NN	4	0	1000	1	107	12:44:14	2178524	0	0	0	0	0	0	0	0	0	0	0	0	0	0	0	0	0
112912	12:44:14	10041	Trial3BackEng	NN	4	0	1000	1	107	12:44:14	2180043	0	0	0	0	0	0	0	0	0	0	0	0	0	0	0	0	0
112912	12:44:14	10041	Trial3BackEng	NN	4	0	1000	1	107	12:44:14	2181550	0	0	0	0	0	0	0	0	0	0	0	0	0	0	0	0	0
112912	12:44:14	10041	Trial3BackEng	NN	4	57	692	0	107	12:44:14	2182762	0	0	0	0	0	0	0	0	0	0	0	0	0	0	0	0	0
112912	12:44:14	10041	Trial3BackEng	NN	4	0	1000	1	107	12:44:14	2184562	0	0	0	0	0	0	0	0	0	0	0	0	0	0	0	0	0
112912	12:44:14	10041	Trial3BackEng	YY	4	0	1000	0	107	12:44:14	2186068	0	0	0	0	0	0	0	0	0	0	0	0	0	0	0	0	0
112912	12:44:14	10041	Trial3BackEng	NN	4	0	1000	1	107	12:44:14	2187574	0	0	0	0	0	0	0	0	0	0	0	0	0	0	0	0	0
112912	12:44:14	10041	Trial3BackEng	NN	4	0	1000	1	107	12:44:14	2189080	0	0	0	0	0	0	0	0	0	0	0	0	0	0	0	0	0
112912	12:44:14	10041	Trial3BackEng	NN	4	0	1000	1	107	12:44:14	2190599	0	0	0	0	0	0	0	0	0	0	0	0	0	0	0	0	0
112912	12:44:14	10041	Trial3BackEng	YY	4	57	522	1	107	12:44:14	2191639	0	0	0	0	0	0	0	0	0	0	0	0	0	0	0	0	0
112912	12:44:14	10041	Memory1R3mo	Score	5	M1	18149	0	107	12:44:14	2248255	0	0	0	0	0	0	0	0	0	0	0	0	0	0	0	0	0
112912	12:44:14	10041	Memory1R3mo	Score	5	M2	196	0	107	12:44:14	2248495	0	0	0	0	0	0	0	0	0	0	0	0	0	0	0	0	0
112912	12:44:14	10041	Memory1R3mo	Score	5	M4	2300	0	107	12:44:14	2250841	0	0	0	0	0	0	0	0	0	0	0	0	0	0	0	0	0
112912	12:44:14	10041	Memory1R3mo	Score	5	M7	1922	0	107	12:44:14	2252813	0	0	0	0	0	0	0	0	0	0	0	0	0	0	0	0	0
112912	12:44:14	10041	Memory1R3mo	Score	5	M8	166	0	107	12:44:14	2253027	0	0	0	0	0	0	0	0	0	0	0	0	0	0	0	0	0
112912	12:44:14	10041	Memory1R3mo	Score	5	M5	22768	0	107	12:44:14	2275844	0	0	0	0	0	0	0	0	0	0	0	0	0	0	0	0	0
112912	12:44:14	10041	Memory1R3mo	Score	5	Done	569	0	107	12:44:14	2276470	0	0	0	0	0	0	0	0	0	0	0	0	0	0	0	0	0
112912	12:44:14	10041	Memory2R3mo	Score2	5	11	17944	0	107	12:44:14	2317667	0	0	0	0	0	0	0	0	0	0	0	0	0	0	0	0	0
112912	12:44:14	10041	Memory2R3mo	Score2	5	22	174	0	107	12:44:14	2317893	0	0	0	0	0	0	0	0	0	0	0	0	0	0	0	0	0
112912	12:44:14	10041	Memory2R3mo	Score2	5	33	180	0	107	12:44:14	2318120	0	0	0	0	0	0	0	0	0	0	0	0	0	0	0	0	0
112912	12:44:14	10041	Memory2R3mo	Score2	5	55	2434	0	107	12:44:14	2320599	0	0	0	0	0	0	0	0	0	0	0	0	0	0	0	0	0
112912	12:44:14	10041	Memory2R3mo	Score2	5	66	346	0	107	12:44:14	2320999	0	0	0	0	0	0	0	0	0	0	0	0	0	0	0	0	0
112912	12:44:14	10041	Memory2R3mo	Score2	5	77	2242	0	107	12:44:14	2323291	0	0	0	0	0	0	0	0	0	0	0	0	0	0	0	0	0
112912	12:44:14	10041	Memory2R3mo	Score2	5	88	31813	0	107	12:44:14	2355158	0	0	0	0	0	0	0	0	0	0	0	0	0	0	0	0	0
112912	12:44:14	10041	Memory2R3mo	Score2	5	Done	9490	0	107	12:44:14	2364700	0	0	0	0	0	0	0	0	0	0	0	0	0	0	0	0	0
112912	12:44:14	10041	Memory3R3mo	Score3	5	111	10976	0	107	12:44:14	2396301	0	0	0	0	0	0	0	0	0	0	0	0	0	0	0	0	0
112912	12:44:14	10041	Memory3R3mo	Score3	5	222	228	0	107	12:44:14	2396594	0	0	0	0	0	0	0	0	0	0	0	0	0	0	0	0	0
112912	12:44:14	10041	Memory3R3mo	Score3	5	333	245	0	107	12:44:14	2396887	0	0	0	0	0	0	0	0	0	0	0	0	0	0	0	0	0
112912	12:44:14	10041	Memory3R3mo	Score3	5	444	231	0	107	12:44:14	2397167	0	0	0	0	0	0	0	0	0	0	0	0	0	0	0	0	0
112912	12:44:14	10041	Memory3R3mo	Score3	5	555	250	0	107	12:44:14	2397487	0	0	0	0	0	0	0	0	0	0	0	0	0	0	0	0	0
112912	12:44:14	10041	Memory3R3mo	Score3	5	777	232	0	107	12:44:14	2397767	0	0	0	0	0	0	0	0	0	0	0	0	0	0	0	0	0
112912	12:44:14	10041	Memory3R3mo	Score3	5	666	296	0	107	12:44:14	2398113	0	0	0	0	0	0	0	0	0	0	0	0	0	0	0	0	0
112912	12:44:14	10041	Memory3R3mo	Score3	5	888	309	0	107	12:44:14	2398473	0	0	0	0	0	0	0	0	0	0	0	0	0	0	0	0	0
112912	12:44:14	10041	Memory3R3mo	Score3	5	Done	605	0	107	12:44:14	2399126	0	0	0	0	0	0	0	0	0	0	0	0	0	0	0	0	0
112912	12:44:14	10041	LoriaEngLH3	Stop	6	5	3597	0	107	12:44:14	2467046	0	0	0	0	0	0	0	0	0	0	0	0	0	0	0	0	0
112912	12:44:14	10041	EngTrail	Trails	7	1Trails	969	0	107	12:44:14	2490568	0	0	0	0	0	0	0	0	0	0	0	0	0	0	0	0	0
112912	12:44:14	10041	Serial7Eng3mo	Serial7Eng3mo	8	83	7462	0	107	12:44:14	2511454	1	0	0	0	0	0	0	0	0	0	0	0	0	0	0	0	0
112912	12:44:14	10041	Serial7Eng3mo	Serial7Eng3mo	8	76	4247	0	107	12:44:14	2515719	2	0	0	0	0	0	0	0	0	0	0	0	0	0	0	0	0
112912	12:44:14	10041	Serial7Eng3mo	Serial7Eng3mo	8	69	13023	0	107	12:44:14	2528769	3	0	0	0	0	0	0	0	0	0	0	0	0	0	0	0	0
112912	12:44:14	10041	Serial7Eng3mo	Serial7Eng3mo	8	62	2039	0	107	12:44:14	2530822	4	0	0	0	0	0	0	0	0	0	0	0	0	0	0	0	0
112912	12:44:14	10041	Serial7Eng3mo	Serial7Eng3mo	8	55	2825	0	107	12:44:14	2533661	5	0	0	0	0	0	0	0	0	0	0	0	0	0	0	0	0
112912	12:44:14	10041	corsiblockEngFwrd	recallseqEngFwrd	9	1	7708	0	107	12:44:14	2593156	5	0	0	0	0	0	0	0	0	0	0	0	0	0	0	0	0
112912	12:44:14	10041	corsiblockEngFwrd	recallseqEngFwrd	9	5	1743	0	107	12:44:14	2594955	5	0	0	0	0	0	0	0	0	0	0	0	0	0	0	0	0
112912	12:44:14	10041	corsiblockEngFwrd	recallseqEngFwrd	9	doneCorsiEng	3016	0	107	12:44:14	2598020	5	0	0	0	0	0	0	0	0	0	0	0	0	0	0	2	0
112912	12:44:14	10041	corsiblockEngFwrd	recallseqEngFwrd	9	4	1195	0	107	12:44:14	2605351	5	0	0	0	0	0	0	0	0	0	0	0	0	0	0	2	0
112912	12:44:14	10041	corsiblockEngFwrd	recallseqEngFwrd	9	7	1652	0	107	12:44:14	2607057	5	0	0	0	0	0	0	0	0	0	0	0	0	0	0	2	0
112912	12:44:14	10041	corsiblockEngFwrd	recallseqEngFwrd	9	9	1122	0	107	12:44:14	2608230	5	0	0	0	0	0	0	0	0	0	0	0	0	0	0	2	0
112912	12:44:14	10041	corsiblockEngFwrd	recallseqEngFwrd	9	doneCorsiEng	1509	0	107	12:44:14	2609789	5	0	0	0	0	0	0	0	0	0	0	0	0	0	0	3	0
112912	12:44:14	10041	corsiblockEngFwrd	recallseqEngFwrd	9	2	1216	0	107	12:44:14	2618132	5	0	0	0	0	0	0	0	0	0	0	0	0	0	0	3	0
112912	12:44:14	10041	corsiblockEngFwrd	recallseqEngFwrd	9	3	902	0	107	12:44:14	2619078	5	0	0	0	0	0	0	0	0	0	0	0	0	0	0	3	0
112912	12:44:14	10041	corsiblockEngFwrd	recallseqEngFwrd	9	8	1780	0	107	12:44:14	2620904	5	0	0	0	0	0	0	0	0	0	0	0	0	0	0	3	0
112912	12:44:14	10041	corsiblockEngFwrd	recallseqEngFwrd	9	6	1322	0	107	12:44:14	2622277	5	0	0	0	0	0	0	0	0	0	0	0	0	0	0	3	0
112912	12:44:14	10041	corsiblockEngFwrd	recallseqEngFwrd	9	doneCorsiEng	1525	0	107	12:44:14	2623850	5	0	0	0	0	0	0	0	0	0	0	0	0	0	0	4	0
112912	12:44:14	10041	corsiblockEngFwrd	recallseqEngFwrd	9	5	803	0	107	12:44:14	2632779	5	0	0	0	0	0	0	0	0	0	0	0	0	0	0	4	0
112912	12:44:14	10041	corsiblockEngFwrd	recallseqEngFwrd	9	6	1344	0	107	12:44:14	2634179	5	0	0	0	0	0	0	0	0	0	0	0	0	0	0	4	0
112912	12:44:14	10041	corsiblockEngFwrd	recallseqEngFwrd	9	1	1367	0	107	12:44:14	2635591	5	0	0	0	0	0	0	0	0	0	0	0	0	0	0	4	0
112912	12:44:14	10041	corsiblockEngFwrd	recallseqEngFwrd	9	3	1242	0	107	12:44:14	2636884	5	0	0	0	0	0	0	0	0	0	0	0	0	0	0	4	0
112912	12:44:14	10041	corsiblockEngFwrd	recallseqEngFwrd	9	4	942	0	107	12:44:14	2637870	5	0	0	0	0	0	0	0	0	0	0	0	0	0	0	4	0
112912	12:44:14	10041	corsiblockEngFwrd	recallseqEngFwrd	9	doneCorsiEng	1675	0	107	12:44:14	2639590	5	0	0	0	0	0	0	0	0	0	0	0	0	0	0	5	0
112912	12:44:14	10041	corsiblockEngFwrd	recallseqEngFwrd	9	8	2327	0	107	12:44:14	2651038	5	0	0	0	0	0	0	0	0	0	0	0	0	0	0	5	0
112912	12:44:14	10041	corsiblockEngFwrd	recallseqEngFwrd	9	7	1587	0	107	12:44:14	2652678	5	0	0	0	0	0	0	0	0	0	0	0	0	0	0	5	0
112912	12:44:14	10041	corsiblockEngFwrd	recallseqEngFwrd	9	9	1667	0	107	12:44:14	2654397	5	0	0	0	0	0	0	0	0	0	0	0	0	0	0	5	0
112912	12:44:14	10041	corsiblockEngFwrd	recallseqEngFwrd	9	2	1468	0	107	12:44:14	2655916	5	0	0	0	0	0	0	0	0	0	0	0	0	0	0	5	0
112912	12:44:14	10041	corsiblockEngFwrd	recallseqEngFwrd	9	6	3668	0	107	12:44:14	2659635	5	0	0	0	0	0	0	0	0	0	0	0	0	0	0	5	0
112912	12:44:14	10041	corsiblockEngFwrd	recallseqEngFwrd	9	doneCorsiEng	1406	0	107	12:44:14	2661088	5	0	0	0	0	0	0	0	0	0	0	0	0	0	0	5	0
112912	12:44:14	10041	corsiblockEngFwrd	recallseqEngFwrd	9	7	2428	0	107	12:44:14	2672603	5	0	0	0	0	0	0	0	0	0	0	0	0	0	0	5	0
112912	12:44:14	10041	corsiblockEngFwrd	recallseqEngFwrd	9	9	1237	0	107	12:44:14	2673896	5	0	0	0	0	0	0	0	0	0	0	0	0	0	0	5	0
112912	12:44:14	10041	corsiblockEngFwrd	recallseqEngFwrd	9	8	1419	0	107	12:44:14	2675362	5	0	0	0	0	0	0	0	0	0	0	0	0	0	0	5	0
112912	12:44:14	10041	corsiblockEngFwrd	recallseqEngFwrd	9	1	1198	0	107	12:44:14	2676614	5	0	0	0	0	0	0	0	0	0	0	0	0	0	0	5	0
112912	12:44:14	10041	corsiblockEngFwrd	recallseqEngFwrd	9	5	4618	0	107	12:44:14	2681279	5	0	0	0	0	0	0	0	0	0	0	0	0	0	0	5	0
112912	12:44:14	10041	corsiblockEngFwrd	recallseqEngFwrd	9	6	768	0	107	12:44:14	2682092	5	0	0	0	0	0	0	0	0	0	0	0	0	0	0	5	0
112912	12:44:14	10041	corsiblockEngFwrd	recallseqEngFwrd	9	doneCorsiEng	1715	0	107	12:44:14	2683865	5	0	0	0	0	0	0	0	0	0	0	0	0	0	0	5	0
112912	12:44:14	10041	corsiblockEngRev	recallseqEngRev	10	2	2343	0	107	12:44:14	2701950	5	0	0	0	0	0	0	0	0	0	0	0	0	0	0	5	0
112912	12:44:14	10041	corsiblockEngRev	recallseqEngRev	10	9	1216	0	107	12:44:14	2703217	5	0	0	0	0	0	0	0	0	0	0	0	0	0	0	5	0
112912	12:44:14	10041	corsiblockEngRev	recallseqEngRev	10	doneCorsiEng	1726	0	107	12:44:14	2704989	5	0	0	0	0	0	0	0	0	0	0	0	0	0	0	5	2
112912	12:44:14	10041	corsiblockEngRev	recallseqEngRev	10	6	1311	0	107	12:44:14	2712439	5	0	0	0	0	0	0	0	0	0	0	0	0	0	0	5	2
112912	12:44:14	10041	corsiblockEngRev	recallseqEngRev	10	8	1095	0	107	12:44:14	2713586	5	0	0	0	0	0	0	0	0	0	0	0	0	0	0	5	2
112912	12:44:14	10041	corsiblockEngRev	recallseqEngRev	10	1	1165	0	107	12:44:14	2714799	5	0	0	0	0	0	0	0	0	0	0	0	0	0	0	5	2
112912	12:44:14	10041	corsiblockEngRev	recallseqEngRev	10	doneCorsiEng	1567	0	107	12:44:14	2716412	5	0	0	0	0	0	0	0	0	0	0	0	0	0	0	5	3
112912	12:44:14	10041	corsiblockEngRev	recallseqEngRev	10	5	1142	0	107	12:44:14	2724674	5	0	0	0	0	0	0	0	0	0	0	0	0	0	0	5	3
112912	12:44:14	10041	corsiblockEngRev	recallseqEngRev	10	3	1364	0	107	12:44:14	2726087	5	0	0	0	0	0	0	0	0	0	0	0	0	0	0	5	3
112912	12:44:14	10041	corsiblockEngRev	recallseqEngRev	10	4	999	0	107	12:44:14	2727140	5	0	0	0	0	0	0	0	0	0	0	0	0	0	0	5	3
112912	12:44:14	10041	corsiblockEngRev	recallseqEngRev	10	7	1554	0	107	12:44:14	2728739	5	0	0	0	0	0	0	0	0	0	0	0	0	0	0	5	3
112912	12:44:14	10041	corsiblockEngRev	recallseqEngRev	10	doneCorsiEng	1811	0	107	12:44:14	2730605	5	0	0	0	0	0	0	0	0	0	0	0	0	0	0	5	3
112912	12:44:14	10041	corsiblockEngRev	recallseqEngRev	10	2	1636	0	107	12:44:14	2739335	5	0	0	0	0	0	0	0	0	0	0	0	0	0	0	5	3
112912	12:44:14	10041	corsiblockEngRev	recallseqEngRev	10	6	1471	0	107	12:44:14	2740855	5	0	0	0	0	0	0	0	0	0	0	0	0	0	0	5	3
112912	12:44:14	10041	corsiblockEngRev	recallseqEngRev	10	7	1240	0	107	12:44:14	2742147	5	0	0	0	0	0	0	0	0	0	0	0	0	0	0	5	3
112912	12:44:14	10041	corsiblockEngRev	recallseqEngRev	10	9	1555	0	107	12:44:14	2743746	5	0	0	0	0	0	0	0	0	0	0	0	0	0	0	5	3
112912	12:44:14	10041	corsiblockEngRev	recallseqEngRev	10	doneCorsiEng	1419	0	107	12:44:14	2745212	5	0	0	0	0	0	0	0	0	0	0	0	0	0	0	5	3
112912	12:44:14	10041	testEng3mo	WordsEng3mo	11	1Eng3mo	1039	0	107	12:44:14	2776546	5	3	0	0	0	0	0	0	0	0	0	0	0	0	0	5	3
112912	12:44:14	10041	testEng3mo	WordsEng3mo	11	2Eng3mo	171	0	107	12:44:14	2776773	5	3	3	0	0	0	0	0	0	0	0	0	0	0	0	5	3
112912	12:44:14	10041	testEng3mo	WordsEng3mo	11	3Eng3mo	160	0	107	12:44:14	2776986	5	3	3	3	0	0	0	0	0	0	0	0	0	0	0	5	3
112912	12:44:14	10041	testEng3mo	WordsEng3mo	11	4Eng3mo	163	0	107	12:44:14	2777199	5	3	3	3	3	0	0	0	0	0	0	0	0	0	0	5	3
112912	12:44:14	10041	testEng3mo	WordsEng3mo	11	5Eng3mo	166	0	107	12:44:14	2777413	5	3	3	3	3	3	0	0	0	0	0	0	0	0	0	5	3
112912	12:44:14	10041	testEng3mo	WordsEng3mo	11	6Eng3mo	193	0	107	12:44:14	2777653	5	3	3	3	3	3	3	0	0	0	0	0	0	0	0	5	3
112912	12:44:14	10041	testEng3mo	WordsEng3mo	11	8Eng3mo	368	0	107	12:44:14	2778066	5	3	3	3	3	3	3	0	3	0	0	0	0	0	0	5	3
112912	12:44:14	10041	testEng3mo	WordsEng3mo	11	7Eng3mo	307	0	107	12:44:14	2778426	5	3	3	3	3	3	3	3	3	0	0	0	0	0	0	5	3
112912	12:44:14	10041	testEng3mo	WordsEng3mo	11	DoneEng3mo	427	0	107	12:44:14	2778905	5	3	3	3	3	3	3	3	3	0	0	0	0	0	0	5	3
112912	12:44:14	10041	DigitSpanFwrdEng3mo	Score1FwrdEng3mo	12	DS1	2909	0	107	12:44:14	2803375	5	3	3	3	3	3	3	3	3	0	0	0	0	0	0	5	3
112912	12:44:14	10041	DigitSpanFwrdEng3mo	Gate1FwrdEng3mo	12	0	1	0	107	12:44:14	2803380	5	3	3	3	3	3	3	3	3	3	0	0	0	0	0	5	3
112912	12:44:14	10041	DigitSpanFwrdEng3mo	Score2FwrdEng3mo	12	DS1	2713	0	107	12:44:14	2812651	5	3	3	3	3	3	3	3	3	3	0	0	0	0	0	5	3
112912	12:44:14	10041	DigitSpanFwrdEng3mo	Gate3FwrdEng3mo	12	0	1	0	107	12:44:14	2812655	5	3	3	3	3	3	3	3	3	4	0	0	0	0	0	5	3
112912	12:44:14	10041	DigitSpanFwrdEng3mo	Score3FwrdEng3mo	12	DS2	6674	0	107	12:44:14	2827352	5	3	3	3	3	3	3	3	3	4	0	0	0	0	0	5	3
112912	12:44:14	10041	DigitSpanFwrdEng3mo	Gate5FwrdEng3mo	12	0	1	0	107	12:44:14	2827356	5	3	3	3	3	3	3	3	3	4	0	0	0	0	0	5	3
112912	12:44:14	10041	DigitSpanFwrdEng3mo	Score33FwrdEng3mo	12	DS1	5589	0	107	12:44:14	2841173	5	3	3	3	3	3	3	3	3	4	0	0	0	0	0	5	3
112912	12:44:14	10041	DigitSpanFwrdEng3mo	Gate6FwrdEng3mo	12	0	1	0	107	12:44:14	2841177	5	3	3	3	3	3	3	3	3	5	0	0	0	0	0	5	3
112912	12:44:14	10041	DigitSpanFwrdEng3mo	Score4FwrdEng3mo	12	DS2	16866	0	107	12:44:14	2867562	5	3	3	3	3	3	3	3	3	5	0	0	0	0	0	5	3
112912	12:44:14	10041	DigitSpanFwrdEng3mo	Gate7FwrdEng3mo	12	0	1	0	107	12:44:14	2867567	5	3	3	3	3	3	3	3	3	5	0	0	0	0	0	5	3
112912	12:44:14	10041	DigitSpanFwrdEng3mo	Score44FwrdEng3mo	12	DS1	7261	0	107	12:44:14	2884421	5	3	3	3	3	3	3	3	3	5	0	0	0	0	0	5	3
112912	12:44:14	10041	DigitSpanFwrdEng3mo	Gate8FwrdEng3mo	12	0	1	0	107	12:44:14	2884426	5	3	3	3	3	3	3	3	3	6	0	0	0	0	0	5	3
112912	12:44:14	10041	DigitSpanFwrdEng3mo	Score5FwrdEng3mo	12	DS1	6025	0	107	12:44:14	2901494	5	3	3	3	3	3	3	3	3	6	0	0	0	0	0	5	3
112912	12:44:14	10041	DigitSpanFwrdEng3mo	Gate9FwrdEng3mo	12	0	1	0	107	12:44:14	2901499	5	3	3	3	3	3	3	3	3	7	0	0	0	0	0	5	3
112912	12:44:14	10041	DigitSpanFwrdEng3mo	Score6FwrdEng3mo	12	DS2	15027	0	107	12:44:14	2929856	5	3	3	3	3	3	3	3	3	7	0	0	0	0	0	5	3
112912	12:44:14	10041	DigitSpanFwrdEng3mo	Gate11FwrdEng3mo	12	0	1	0	107	12:44:14	2929860	5	3	3	3	3	3	3	3	3	7	0	0	0	0	0	5	3
112912	12:44:14	10041	DigitSpanFwrdEng3mo	Score66FwrdEng3mo	12	DS2	14155	0	107	12:44:14	2957004	5	3	3	3	3	3	3	3	3	7	0	0	0	0	0	5	3
112912	12:44:14	10041	DigitSpanEng3mo	Score1Eng3mo	13	DS1	3057	0	107	12:44:14	2974544	5	3	3	3	3	3	3	3	3	7	0	0	0	0	0	5	3
112912	12:44:14	10041	DigitSpanEng3mo	Gate1Eng3mo	13	0	1	0	107	12:44:14	2974548	5	3	3	3	3	3	3	3	3	7	2	0	0	0	0	5	3
112912	12:44:14	10041	DigitSpanEng3mo	Score2Eng3mo	13	DS1	3404	0	107	12:44:14	2982887	5	3	3	3	3	3	3	3	3	7	2	0	0	0	0	5	3
112912	12:44:14	10041	DigitSpanEng3mo	Gate3Eng3mo	13	0	1	0	107	12:44:14	2982892	5	3	3	3	3	3	3	3	3	7	3	0	0	0	0	5	3
112912	12:44:14	10041	DigitSpanEng3mo	Score3Eng3mo	13	DS2	8058	0	107	12:44:14	2997508	5	3	3	3	3	3	3	3	3	7	3	0	0	0	0	5	3
112912	12:44:14	10041	DigitSpanEng3mo	Gate5Eng3mo	13	0	1	0	107	12:44:14	2997512	5	3	3	3	3	3	3	3	3	7	3	0	0	0	0	5	3
112912	12:44:14	10041	DigitSpanEng3mo	Score33Eng3mo	13	DS2	20697	0	107	12:44:14	3024523	5	3	3	3	3	3	3	3	3	7	3	0	0	0	0	5	3
112912	12:44:14	10041	Trial	ResponseIL	14	0	175	0	107	12:44:14	3078687	5	3	3	3	3	3	3	3	3	7	3	0	0	0	0	5	3
112912	12:44:14	10041	Trial	IncongruentLeft	14	203	403	1	107	12:44:14	3079114	5	3	3	3	3	3	3	3	3	7	3	0	0	0	0	5	3
112912	12:44:14	10041	Trial	ResponseCR	14	0	175	0	107	12:44:14	3080393	5	3	3	3	3	3	3	3	3	7	3	0	0	0	0	5	3
112912	12:44:14	10041	Trial	CongruentRight	14	205	201	1	107	12:44:14	3080620	5	3	3	3	3	3	3	3	3	7	3	0	0	0	0	5	3
112912	12:44:14	10041	Trial	ResponseIR	14	0	175	0	107	12:44:14	3082099	5	3	3	3	3	3	3	3	3	7	3	0	0	0	0	5	3
112912	12:44:14	10041	Trial	IncongruentRight	14	203	110	0	107	12:44:14	3082232	5	3	3	3	3	3	3	3	3	7	3	0	0	0	0	5	3
112912	12:44:14	10041	Trial	ResponseCL	14	0	175	0	107	12:44:14	3083805	5	3	3	3	3	3	3	3	3	7	3	0	0	0	0	5	3
112912	12:44:14	10041	Trial	CongruentLeft	14	203	308	1	107	12:44:14	3084138	5	3	3	3	3	3	3	3	3	7	3	0	0	0	0	5	3
112912	12:44:14	10041	Trial	ResponseCR	14	0	175	0	107	12:44:14	3085511	5	3	3	3	3	3	3	3	3	7	3	0	0	0	0	5	3
112912	12:44:14	10041	Trial	CongruentRight	14	205	122	1	107	12:44:14	3085658	5	3	3	3	3	3	3	3	3	7	3	0	0	0	0	5	3
112912	12:44:14	10041	Trial	ResponseIR	14	0	175	0	107	12:44:14	3087217	5	3	3	3	3	3	3	3	3	7	3	0	0	0	0	5	3
112912	12:44:14	10041	Trial	IncongruentRight	14	205	129	1	107	12:44:14	3087363	5	3	3	3	3	3	3	3	3	7	3	0	0	0	0	5	3
112912	12:44:14	10041	Trial	ResponseCL	14	0	175	0	107	12:44:14	3088923	5	3	3	3	3	3	3	3	3	7	3	0	0	0	0	5	3
112912	12:44:14	10041	Trial	CongruentLeft	14	203	150	1	107	12:44:14	3089096	5	3	3	3	3	3	3	3	3	7	3	0	0	0	0	5	3
112912	12:44:14	10041	Trial	ResponseIL	14	0	175	0	107	12:44:14	3090629	5	3	3	3	3	3	3	3	3	7	3	0	0	0	0	5	3
112912	12:44:14	10041	Trial	IncongruentLeft	14	205	124	0	107	12:44:14	3090775	5	3	3	3	3	3	3	3	3	7	3	0	0	0	0	5	3
112912	12:44:14	10041	Trial	ResponseIL	14	0	175	0	107	12:44:14	3092335	5	3	3	3	3	3	3	3	3	7	3	0	0	0	0	5	3
112912	12:44:14	10041	Trial	IncongruentLeft	14	203	257	1	107	12:44:14	3092614	5	3	3	3	3	3	3	3	3	7	3	0	0	0	0	5	3
112912	12:44:14	10041	Trial	ResponseCR	14	0	175	0	107	12:44:14	3094041	5	3	3	3	3	3	3	3	3	7	3	0	0	0	0	5	3
112912	12:44:14	10041	Trial	CongruentRight	14	205	248	1	107	12:44:14	3094307	5	3	3	3	3	3	3	3	3	7	3	0	0	0	0	5	3
112912	12:44:14	10041	Trial	ResponseIR	14	0	175	0	107	12:44:14	3095747	5	3	3	3	3	3	3	3	3	7	3	0	0	0	0	5	3
112912	12:44:14	10041	Trial	IncongruentRight	14	203	206	0	107	12:44:14	3095973	5	3	3	3	3	3	3	3	3	7	3	0	0	0	0	5	3
112912	12:44:14	10041	Trial	ResponseCL	14	0	175	0	107	12:44:14	3097453	5	3	3	3	3	3	3	3	3	7	3	0	0	0	0	5	3
112912	12:44:14	10041	Trial	CongruentLeft	14	203	181	1	107	12:44:14	3097653	5	3	3	3	3	3	3	3	3	7	3	0	0	0	0	5	3
112912	12:44:14	10041	Trial	ResponseCR	14	0	175	0	107	12:44:14	3099159	5	3	3	3	3	3	3	3	3	7	3	0	0	0	0	5	3
112912	12:44:14	10041	Trial	CongruentRight	14	205	139	1	107	12:44:14	3099318	5	3	3	3	3	3	3	3	3	7	3	0	0	0	0	5	3
112912	12:44:14	10041	Trial	ResponseIL	14	0	175	0	107	12:44:14	3100865	5	3	3	3	3	3	3	3	3	7	3	0	0	0	0	5	3
112912	12:44:14	10041	Trial	IncongruentLeft	14	205	144	0	107	12:44:14	3101038	5	3	3	3	3	3	3	3	3	7	3	0	0	0	0	5	3
112912	12:44:14	10041	Trial	ResponseIR	14	0	175	0	107	12:44:14	3102571	5	3	3	3	3	3	3	3	3	7	3	0	0	0	0	5	3
112912	12:44:14	10041	Trial	IncongruentRight	14	205	406	1	107	12:44:14	3102997	5	3	3	3	3	3	3	3	3	7	3	0	0	0	0	5	3
112912	12:44:14	10041	Trial	ResponseCR	14	0	175	0	107	12:44:14	3104277	5	3	3	3	3	3	3	3	3	7	3	0	0	0	0	5	3
112912	12:44:14	10041	Trial	CongruentRight	14	205	380	1	107	12:44:14	3104676	5	3	3	3	3	3	3	3	3	7	3	0	0	0	0	5	3
112912	12:44:14	10041	Trial	ResponseCL	14	0	175	0	107	12:44:14	3105983	5	3	3	3	3	3	3	3	3	7	3	0	0	0	0	5	3
112912	12:44:14	10041	Trial	CongruentLeft	14	203	162	1	107	12:44:14	3106169	5	3	3	3	3	3	3	3	3	7	3	0	0	0	0	5	3
112912	12:44:14	10041	Trial	ResponseCR	14	0	175	0	107	12:44:14	3107688	5	3	3	3	3	3	3	3	3	7	3	0	0	0	0	5	3
112912	12:44:14	10041	Trial	CongruentRight	14	205	313	1	107	12:44:14	3108021	5	3	3	3	3	3	3	3	3	7	3	0	0	0	0	5	3
112912	12:44:14	10041	Trial	ResponseIR	14	0	175	0	107	12:44:14	3109395	5	3	3	3	3	3	3	3	3	7	3	0	0	0	0	5	3
112912	12:44:14	10041	Trial	IncongruentRight	14	203	254	0	107	12:44:14	3109674	5	3	3	3	3	3	3	3	3	7	3	0	0	0	0	5	3
112912	12:44:14	10041	Trial	ResponseIL	14	0	175	0	107	12:44:14	3111100	5	3	3	3	3	3	3	3	3	7	3	0	0	0	0	5	3
112912	12:44:14	10041	Trial	IncongruentLeft	14	203	420	1	107	12:44:14	3111540	5	3	3	3	3	3	3	3	3	7	3	0	0	0	0	5	3
112912	12:44:14	10041	Trial	ResponseIL	14	0	175	0	107	12:44:14	3112806	5	3	3	3	3	3	3	3	3	7	3	0	0	0	0	5	3
112912	12:44:14	10041	Trial	IncongruentLeft	14	205	202	0	107	12:44:14	3113033	5	3	3	3	3	3	3	3	3	7	3	0	0	0	0	5	3
112912	12:44:14	10041	Trial	ResponseCL	14	0	175	0	107	12:44:14	3114513	5	3	3	3	3	3	3	3	3	7	3	0	0	0	0	5	3
112912	12:44:14	10041	Trial	CongruentLeft	14	203	400	1	107	12:44:14	3114939	5	3	3	3	3	3	3	3	3	7	3	0	0	0	0	5	3
112912	12:44:14	10041	Trial	ResponseCR	14	0	175	0	107	12:44:14	3116218	5	3	3	3	3	3	3	3	3	7	3	0	0	0	0	5	3
112912	12:44:14	10041	Trial	CongruentRight	14	205	150	1	107	12:44:14	3116392	5	3	3	3	3	3	3	3	3	7	3	0	0	0	0	5	3
112912	12:44:14	10041	Trial	ResponseIL	14	0	175	0	107	12:44:14	3117924	5	3	3	3	3	3	3	3	3	7	3	0	0	0	0	5	3
112912	12:44:14	10041	Trial	IncongruentLeft	14	205	172	0	107	12:44:14	3118124	5	3	3	3	3	3	3	3	3	7	3	0	0	0	0	5	3
112912	12:44:14	10041	Trial	ResponseIR	14	0	175	0	107	12:44:14	3119630	5	3	3	3	3	3	3	3	3	7	3	0	0	0	0	5	3
112912	12:44:14	10041	Trial	IncongruentRight	14	205	242	1	107	12:44:14	3119897	5	3	3	3	3	3	3	3	3	7	3	0	0	0	0	5	3
112912	12:44:14	10041	Trial	ResponseCR	14	0	175	0	107	12:44:14	3121336	5	3	3	3	3	3	3	3	3	7	3	0	0	0	0	5	3
112912	12:44:14	10041	Trial	CongruentRight	14	205	344	1	107	12:44:14	3121709	5	3	3	3	3	3	3	3	3	7	3	0	0	0	0	5	3
112912	12:44:14	10041	Trial	ResponseCL	14	0	175	0	107	12:44:14	3123042	5	3	3	3	3	3	3	3	3	7	3	0	0	0	0	5	3
112912	12:44:14	10041	Trial	CongruentLeft	14	203	158	1	107	12:44:14	3123229	5	3	3	3	3	3	3	3	3	7	3	0	0	0	0	5	3
112912	12:44:14	10041	Trial	ResponseIR	14	0	175	0	107	12:44:14	3124748	5	3	3	3	3	3	3	3	3	7	3	0	0	0	0	5	3
112912	12:44:14	10041	Trial	IncongruentRight	14	205	564	1	107	12:44:14	3125334	5	3	3	3	3	3	3	3	3	7	3	0	0	0	0	5	3
112912	12:44:14	10041	Trial	ResponseIL	14	0	175	0	107	12:44:14	3126454	5	3	3	3	3	3	3	3	3	7	3	0	0	0	0	5	3
112912	12:44:14	10041	Trial	IncongruentLeft	14	205	362	0	107	12:44:14	3126841	5	3	3	3	3	3	3	3	3	7	3	0	0	0	0	5	3
112912	12:44:14	10041	Trial	ResponseIR	14	0	175	0	107	12:44:14	3128160	5	3	3	3	3	3	3	3	3	7	3	0	0	0	0	5	3
112912	12:44:14	10041	Trial	IncongruentRight	14	205	336	1	107	12:44:14	3128520	5	3	3	3	3	3	3	3	3	7	3	0	0	0	0	5	3
112912	12:44:14	10041	Trial	ResponseCR	14	0	175	0	107	12:44:14	3129866	5	3	3	3	3	3	3	3	3	7	3	0	0	0	0	5	3
112912	12:44:14	10041	Trial	CongruentRight	14	205	486	1	107	12:44:14	3130372	5	3	3	3	3	3	3	3	3	7	3	0	0	0	0	5	3
112912	12:44:14	10041	Trial	ResponseIL	14	0	175	0	107	12:44:14	3131572	5	3	3	3	3	3	3	3	3	7	3	0	0	0	0	5	3
112912	12:44:14	10041	Trial	IncongruentLeft	14	203	284	1	107	12:44:14	3131878	5	3	3	3	3	3	3	3	3	7	3	0	0	0	0	5	3
112912	12:44:14	10041	Trial	ResponseCL	14	0	175	0	107	12:44:14	3133278	5	3	3	3	3	3	3	3	3	7	3	0	0	0	0	5	3
112912	12:44:14	10041	Trial	CongruentLeft	14	203	274	1	107	12:44:14	3133571	5	3	3	3	3	3	3	3	3	7	3	0	0	0	0	5	3
112912	12:44:14	10041	Trial	ResponseCR	14	0	175	0	107	12:44:14	3134984	5	3	3	3	3	3	3	3	3	7	3	0	0	0	0	5	3
112912	12:44:14	10041	Trial	CongruentRight	14	205	168	1	107	12:44:14	3135170	5	3	3	3	3	3	3	3	3	7	3	0	0	0	0	5	3
112912	12:44:14	10041	Trial	ResponseIL	14	0	175	0	107	12:44:14	3136690	5	3	3	3	3	3	3	3	3	7	3	0	0	0	0	5	3
112912	12:44:14	10041	Trial	IncongruentLeft	14	203	142	1	107	12:44:14	3136850	5	3	3	3	3	3	3	3	3	7	3	0	0	0	0	5	3
112912	12:44:14	10041	Trial	ResponseIR	14	0	175	0	107	12:44:14	3138396	5	3	3	3	3	3	3	3	3	7	3	0	0	0	0	5	3
112912	12:44:14	10041	Trial	IncongruentRight	14	205	212	1	107	12:44:14	3138636	5	3	3	3	3	3	3	3	3	7	3	0	0	0	0	5	3
112912	12:44:14	10041	Trial	ResponseIR	14	0	175	0	107	12:44:14	3140102	5	3	3	3	3	3	3	3	3	7	3	0	0	0	0	5	3
112912	12:44:14	10041	Trial	IncongruentRight	14	205	266	1	107	12:44:14	3140395	5	3	3	3	3	3	3	3	3	7	3	0	0	0	0	5	3
112912	12:44:14	10041	Trial	ResponseCL	14	0	175	0	107	12:44:14	3141808	5	3	3	3	3	3	3	3	3	7	3	0	0	0	0	5	3
112912	12:44:14	10041	Trial	CongruentLeft	14	203	144	1	107	12:44:14	3141981	5	3	3	3	3	3	3	3	3	7	3	0	0	0	0	5	3
112912	12:44:14	10041	Trial	ResponseIL	14	0	175	0	107	12:44:14	3143514	5	3	3	3	3	3	3	3	3	7	3	0	0	0	0	5	3
112912	12:44:14	10041	Trial	IncongruentLeft	14	205	150	0	107	12:44:14	3143687	5	3	3	3	3	3	3	3	3	7	3	0	0	0	0	5	3
112912	12:44:14	10041	Trial	ResponseCR	14	0	175	0	107	12:44:14	3145220	5	3	3	3	3	3	3	3	3	7	3	0	0	0	0	5	3
112912	12:44:14	10041	Trial	CongruentRight	14	205	92	1	107	12:44:14	3145340	5	3	3	3	3	3	3	3	3	7	3	0	0	0	0	5	3
112912	12:44:14	10041	Trial	ResponseCL	14	0	175	0	107	12:44:14	3146926	5	3	3	3	3	3	3	3	3	7	3	0	0	0	0	5	3
112912	12:44:14	10041	Trial	CongruentLeft	14	203	226	1	107	12:44:14	3147179	5	3	3	3	3	3	3	3	3	7	3	0	0	0	0	5	3
112912	12:44:14	10041	Trial	ResponseIR	14	0	175	0	107	12:44:14	3148632	5	3	3	3	3	3	3	3	3	7	3	0	0	0	0	5	3
112912	12:44:14	10041	Trial	IncongruentRight	14	205	136	1	107	12:44:14	3148792	5	3	3	3	3	3	3	3	3	7	3	0	0	0	0	5	3
112912	12:44:14	10041	Trial	ResponseCR	14	0	175	0	107	12:44:14	3150338	5	3	3	3	3	3	3	3	3	7	3	0	0	0	0	5	3
112912	12:44:14	10041	Trial	CongruentRight	14	205	318	1	107	12:44:14	3150684	5	3	3	3	3	3	3	3	3	7	3	0	0	0	0	5	3
112912	12:44:14	10041	Trial	ResponseIL	14	0	175	0	107	12:44:14	3152044	5	3	3	3	3	3	3	3	3	7	3	0	0	0	0	5	3
112912	12:44:14	10041	Trial	IncongruentLeft	14	203	243	1	107	12:44:14	3152310	5	3	3	3	3	3	3	3	3	7	3	0	0	0	0	5	3
112912	12:44:14	10041	Trial	ResponseCL	14	0	175	0	107	12:44:14	3153749	5	3	3	3	3	3	3	3	3	7	3	0	0	0	0	5	3
112912	12:44:14	10041	Trial	CongruentLeft	14	203	170	1	107	12:44:14	3153936	5	3	3	3	3	3	3	3	3	7	3	0	0	0	0	5	3
112912	12:44:14	10041	Trial	ResponseIL	14	0	175	0	107	12:44:14	3155455	5	3	3	3	3	3	3	3	3	7	3	0	0	0	0	5	3
112912	12:44:14	10041	Trial	IncongruentLeft	14	205	144	0	107	12:44:14	3155615	5	3	3	3	3	3	3	3	3	7	3	0	0	0	0	5	3
112912	12:44:14	10041	Trial	ResponseIR	14	0	175	0	107	12:44:14	3157161	5	3	3	3	3	3	3	3	3	7	3	0	0	0	0	5	3
112912	12:44:14	10041	Trial	IncongruentRight	14	205	246	1	107	12:44:14	3157428	5	3	3	3	3	3	3	3	3	7	3	0	0	0	0	5	3
112912	12:44:14	10041	Trial	ResponseCR	14	0	175	0	107	12:44:14	3158867	5	3	3	3	3	3	3	3	3	7	3	0	0	0	0	5	3
112912	12:44:14	10041	Trial	CongruentRight	14	205	300	1	107	12:44:14	3159187	5	3	3	3	3	3	3	3	3	7	3	0	0	0	0	5	3
112912	12:44:14	10041	Trial	ResponseCL	14	0	175	0	107	12:44:14	3160573	5	3	3	3	3	3	3	3	3	7	3	0	0	0	0	5	3
112912	12:44:14	10041	Trial	CongruentLeft	14	203	114	1	107	12:44:14	3160706	5	3	3	3	3	3	3	3	3	7	3	0	0	0	0	5	3
112912	12:44:14	10041	Trial	ResponseCL	14	0	175	0	107	12:44:14	3162279	5	3	3	3	3	3	3	3	3	7	3	0	0	0	0	5	3
112912	12:44:14	10041	Trial	CongruentLeft	14	203	184	1	107	12:44:14	3162492	5	3	3	3	3	3	3	3	3	7	3	0	0	0	0	5	3
112912	12:44:14	10041	Trial	ResponseIR	14	0	175	0	107	12:44:14	3163985	5	3	3	3	3	3	3	3	3	7	3	0	0	0	0	5	3
112912	12:44:14	10041	Trial	IncongruentRight	14	203	190	0	107	12:44:14	3164198	5	3	3	3	3	3	3	3	3	7	3	0	0	0	0	5	3
112912	12:44:14	10041	Trial	ResponseIL	14	0	175	0	107	12:44:14	3165691	5	3	3	3	3	3	3	3	3	7	3	0	0	0	0	5	3
112912	12:44:14	10041	Trial	IncongruentLeft	14	205	292	0	107	12:44:14	3166011	5	3	3	3	3	3	3	3	3	7	3	0	0	0	0	5	3
112912	12:44:14	10041	Trial	ResponseIR	14	0	175	0	107	12:44:14	3167397	5	3	3	3	3	3	3	3	3	7	3	0	0	0	0	5	3
112912	12:44:14	10041	Trial	IncongruentRight	14	205	298	1	107	12:44:14	3167717	5	3	3	3	3	3	3	3	3	7	3	0	0	0	0	5	3
112912	12:44:14	10041	Trial	ResponseCR	14	0	175	0	107	12:44:14	3169103	5	3	3	3	3	3	3	3	3	7	3	0	0	0	0	5	3
112912	12:44:14	10041	Trial	CongruentRight	14	203	80	0	107	12:44:14	3169210	5	3	3	3	3	3	3	3	3	7	3	0	0	0	0	5	3
112912	12:44:14	10041	Trial	ResponseCR	14	0	175	0	107	12:44:14	3170809	5	3	3	3	3	3	3	3	3	7	3	0	0	0	0	5	3
112912	12:44:14	10041	Trial	CongruentRight	14	205	309	1	107	12:44:14	3171142	5	3	3	3	3	3	3	3	3	7	3	0	0	0	0	5	3
112912	12:44:14	10041	Trial	ResponseIL	14	0	175	0	107	12:44:14	3172515	5	3	3	3	3	3	3	3	3	7	3	0	0	0	0	5	3
112912	12:44:14	10041	Trial	IncongruentLeft	14	205	235	0	107	12:44:14	3172768	5	3	3	3	3	3	3	3	3	7	3	0	0	0	0	5	3
112912	12:44:14	10041	Trial	ResponseCL	14	0	175	0	107	12:44:14	3174221	5	3	3	3	3	3	3	3	3	7	3	0	0	0	0	5	3
112912	12:44:14	10041	Trial	CongruentLeft	14	203	386	1	107	12:44:14	3174634	5	3	3	3	3	3	3	3	3	7	3	0	0	0	0	5	3
112912	12:44:14	10041	Trial	ResponseCR	14	0	175	0	107	12:44:14	3175927	5	3	3	3	3	3	3	3	3	7	3	0	0	0	0	5	3
112912	12:44:14	10041	Trial	CongruentRight	14	205	88	1	107	12:44:14	3176034	5	3	3	3	3	3	3	3	3	7	3	0	0	0	0	5	3
112912	12:44:14	10041	Trial	ResponseCL	14	0	175	0	107	12:44:14	3177633	5	3	3	3	3	3	3	3	3	7	3	0	0	0	0	5	3
112912	12:44:14	10041	Trial	CongruentLeft	14	203	93	1	107	12:44:14	3177753	5	3	3	3	3	3	3	3	3	7	3	0	0	0	0	5	3
112912	12:44:14	10041	Trial	ResponseIR	14	0	175	0	107	12:44:14	3179339	5	3	3	3	3	3	3	3	3	7	3	0	0	0	0	5	3
112912	12:44:14	10041	Trial	IncongruentRight	14	205	259	1	107	12:44:14	3179619	5	3	3	3	3	3	3	3	3	7	3	0	0	0	0	5	3
112912	12:44:14	10041	Trial	ResponseCR	14	0	175	0	107	12:44:14	3181045	5	3	3	3	3	3	3	3	3	7	3	0	0	0	0	5	3
112912	12:44:14	10041	Trial	CongruentRight	14	205	234	1	107	12:44:14	3181298	5	3	3	3	3	3	3	3	3	7	3	0	0	0	0	5	3
112912	12:44:14	10041	Trial	ResponseCL	14	0	175	0	107	12:44:14	3182751	5	3	3	3	3	3	3	3	3	7	3	0	0	0	0	5	3
112912	12:44:14	10041	Trial	CongruentLeft	14	205	144	0	107	12:44:14	3182911	5	3	3	3	3	3	3	3	3	7	3	0	0	0	0	5	3
112912	12:44:14	10041	Trial	ResponseIL	14	0	175	0	107	12:44:14	3184457	5	3	3	3	3	3	3	3	3	7	3	0	0	0	0	5	3
112912	12:44:14	10041	Trial	IncongruentLeft	14	203	377	1	107	12:44:14	3184870	5	3	3	3	3	3	3	3	3	7	3	0	0	0	0	5	3
112912	12:44:14	10041	Trial	ResponseIL	14	0	175	0	107	12:44:14	3186363	5	3	3	3	3	3	3	3	3	7	3	0	0	0	0	5	3
112912	12:44:14	10041	Trial	IncongruentLeft	14	205	115	0	107	12:44:14	3186496	5	3	3	3	3	3	3	3	3	7	3	0	0	0	0	5	3
112912	12:44:14	10041	Trial	ResponseCR	14	0	175	0	107	12:44:14	3188069	5	3	3	3	3	3	3	3	3	7	3	0	0	0	0	5	3
112912	12:44:14	10041	Trial	CongruentRight	14	205	120	1	107	12:44:14	3188216	5	3	3	3	3	3	3	3	3	7	3	0	0	0	0	5	3
112912	12:44:14	10041	Trial	ResponseIR	14	0	175	0	107	12:44:14	3189782	5	3	3	3	3	3	3	3	3	7	3	0	0	0	0	5	3
112912	12:44:14	10041	Trial	IncongruentRight	14	203	163	0	107	12:44:14	3189975	5	3	3	3	3	3	3	3	3	7	3	0	0	0	0	5	3
112912	12:44:14	10041	Trial	ResponseCL	14	0	175	0	107	12:44:14	3191481	5	3	3	3	3	3	3	3	3	7	3	0	0	0	0	5	3
112912	12:44:14	10041	Trial	CongruentLeft	14	203	389	1	107	12:44:14	3191894	5	3	3	3	3	3	3	3	3	7	3	0	0	0	0	5	3
112912	12:44:14	10041	Trial	ResponseIR	14	0	175	0	107	12:44:14	3193187	5	3	3	3	3	3	3	3	3	7	3	0	0	0	0	5	3
112912	12:44:14	10041	Trial	IncongruentRight	14	203	300	0	107	12:44:14	3193507	5	3	3	3	3	3	3	3	3	7	3	0	0	0	0	5	3
112912	12:44:14	10041	Trial	ResponseCR	14	0	175	0	107	12:44:14	3194892	5	3	3	3	3	3	3	3	3	7	3	0	0	0	0	5	3
112912	12:44:14	10041	Trial	CongruentRight	14	205	321	1	107	12:44:14	3195239	5	3	3	3	3	3	3	3	3	7	3	0	0	0	0	5	3
112912	12:44:14	10041	Trial	ResponseIL	14	0	175	0	107	12:44:14	3196599	5	3	3	3	3	3	3	3	3	7	3	0	0	0	0	5	3
112912	12:44:14	10041	Trial	IncongruentLeft	14	205	262	0	107	12:44:14	3196879	5	3	3	3	3	3	3	3	3	7	3	0	0	0	0	5	3
112912	12:44:14	10041	Trial	ResponseCL	14	0	175	0	107	12:44:14	3198305	5	3	3	3	3	3	3	3	3	7	3	0	0	0	0	5	3
112912	12:44:14	10041	Trial	CongruentLeft	14	203	396	1	107	12:44:14	3198745	5	3	3	3	3	3	3	3	3	7	3	0	0	0	0	5	3
112912	12:44:14	10041	Trial	ResponseCR	14	0	175	0	107	12:44:14	3200011	5	3	3	3	3	3	3	3	3	7	3	0	0	0	0	5	3
112912	12:44:14	10041	Trial	CongruentRight	14	205	195	1	107	12:44:14	3200224	5	3	3	3	3	3	3	3	3	7	3	0	0	0	0	5	3
112912	12:44:14	10041	Trial	ResponseIL	14	0	175	0	107	12:44:14	3201716	5	3	3	3	3	3	3	3	3	7	3	0	0	0	0	5	3
112912	12:44:14	10041	Trial	IncongruentLeft	14	203	282	1	107	12:44:14	3202023	5	3	3	3	3	3	3	3	3	7	3	0	0	0	0	5	3
112912	12:44:14	10041	Trial	ResponseCR	14	0	175	0	107	12:44:14	3203422	5	3	3	3	3	3	3	3	3	7	3	0	0	0	0	5	3
112912	12:44:14	10041	Trial	CongruentRight	14	205	191	1	107	12:44:14	3203635	5	3	3	3	3	3	3	3	3	7	3	0	0	0	0	5	3
112912	12:44:14	10041	Trial	ResponseCR	14	0	175	0	107	12:44:14	3205128	5	3	3	3	3	3	3	3	3	7	3	0	0	0	0	5	3
112912	12:44:14	10041	Trial	CongruentRight	14	203	101	0	107	12:44:14	3205248	5	3	3	3	3	3	3	3	3	7	3	0	0	0	0	5	3
112912	12:44:14	10041	Trial	ResponseIR	14	0	175	0	107	12:44:14	3206834	5	3	3	3	3	3	3	3	3	7	3	0	0	0	0	5	3
112912	12:44:14	10041	Trial	IncongruentRight	14	203	188	0	107	12:44:14	3207047	5	3	3	3	3	3	3	3	3	7	3	0	0	0	0	5	3
112912	12:44:14	10041	Trial	ResponseCL	14	0	175	0	107	12:44:14	3208540	5	3	3	3	3	3	3	3	3	7	3	0	0	0	0	5	3
112912	12:44:14	10041	Trial	CongruentLeft	14	203	497	1	107	12:44:14	3209060	5	3	3	3	3	3	3	3	3	7	3	0	0	0	0	5	3
112912	12:44:14	10041	Trial	ResponseIL	14	0	175	0	107	12:44:14	3210246	5	3	3	3	3	3	3	3	3	7	3	0	0	0	0	5	3
112912	12:44:14	10041	Trial	IncongruentLeft	14	205	472	0	107	12:44:14	3210739	5	3	3	3	3	3	3	3	3	7	3	0	0	0	0	5	3
112912	12:44:14	10041	Trial	ResponseCL	14	0	175	0	107	12:44:14	3211952	5	3	3	3	3	3	3	3	3	7	3	0	0	0	0	5	3
112912	12:44:14	10041	Trial	CongruentLeft	14	203	349	1	107	12:44:14	3212325	5	3	3	3	3	3	3	3	3	7	3	0	0	0	0	5	3
112912	12:44:14	10041	Trial	ResponseIR	14	0	175	0	107	12:44:14	3213658	5	3	3	3	3	3	3	3	3	7	3	0	0	0	0	5	3
112912	12:44:14	10041	Trial	IncongruentRight	14	205	147	1	107	12:44:14	3213832	5	3	3	3	3	3	3	3	3	7	3	0	0	0	0	5	3
112912	12:44:14	10041	Trial	ResponseIL	14	0	175	0	107	12:44:14	3215364	5	3	3	3	3	3	3	3	3	7	3	0	0	0	0	5	3
112912	12:44:14	10041	Trial	IncongruentLeft	14	203	170	1	107	12:44:14	3215551	5	3	3	3	3	3	3	3	3	7	3	0	0	0	0	5	3
112912	12:44:14	10041	Trial	ResponseCR	14	0	175	0	107	12:44:14	3217070	5	3	3	3	3	3	3	3	3	7	3	0	0	0	0	5	3
112912	12:44:14	10041	Trial	CongruentRight	14	205	207	1	107	12:44:14	3217297	5	3	3	3	3	3	3	3	3	7	3	0	0	0	0	5	3
112912	12:44:14	10041	Trial	ResponseCL	14	0	175	0	107	12:44:14	3218776	5	3	3	3	3	3	3	3	3	7	3	0	0	0	0	5	3
112912	12:44:14	10041	Trial	CongruentLeft	14	203	150	1	107	12:44:14	3218949	5	3	3	3	3	3	3	3	3	7	3	0	0	0	0	5	3
112912	12:44:14	10041	Trial	ResponseIL	14	0	175	0	107	12:44:14	3220482	5	3	3	3	3	3	3	3	3	7	3	0	0	0	0	5	3
112912	12:44:14	10041	Trial	IncongruentLeft	14	205	155	0	107	12:44:14	3220655	5	3	3	3	3	3	3	3	3	7	3	0	0	0	0	5	3
112912	12:44:14	10041	Trial	ResponseCL	14	0	175	0	107	12:44:14	3222188	5	3	3	3	3	3	3	3	3	7	3	0	0	0	0	5	3
112912	12:44:14	10041	Trial	CongruentLeft	14	203	321	1	107	12:44:14	3222534	5	3	3	3	3	3	3	3	3	7	3	0	0	0	0	5	3
112912	12:44:14	10041	Trial	ResponseIR	14	0	175	0	107	12:44:14	3223894	5	3	3	3	3	3	3	3	3	7	3	0	0	0	0	5	3
112912	12:44:14	10041	Trial	IncongruentRight	14	203	199	0	107	12:44:14	3224120	5	3	3	3	3	3	3	3	3	7	3	0	0	0	0	5	3
112912	12:44:14	10041	Trial	ResponseCR	14	0	175	0	107	12:44:14	3225600	5	3	3	3	3	3	3	3	3	7	3	0	0	0	0	5	3
112912	12:44:14	10041	Trial	CongruentRight	14	205	301	1	107	12:44:14	3225920	5	3	3	3	3	3	3	3	3	7	3	0	0	0	0	5	3
112912	12:44:14	10041	Trial	ResponseIL	14	0	175	0	107	12:44:14	3227306	5	3	3	3	3	3	3	3	3	7	3	0	0	0	0	5	3
112912	12:44:14	10041	Trial	IncongruentLeft	14	203	179	1	107	12:44:14	3227506	5	3	3	3	3	3	3	3	3	7	3	0	0	0	0	5	3
112912	12:44:14	10041	Trial	ResponseCL	14	0	175	0	107	12:44:14	3229012	5	3	3	3	3	3	3	3	3	7	3	0	0	0	0	5	3
112912	12:44:14	10041	Trial	CongruentLeft	14	203	233	1	107	12:44:14	3229265	5	3	3	3	3	3	3	3	3	7	3	0	0	0	0	5	3
112912	12:44:14	10041	Trial	ResponseIR	14	0	175	0	107	12:44:14	3230718	5	3	3	3	3	3	3	3	3	7	3	0	0	0	0	5	3
112912	12:44:14	10041	Trial	IncongruentRight	14	205	287	1	107	12:44:14	3231024	5	3	3	3	3	3	3	3	3	7	3	0	0	0	0	5	3
112912	12:44:14	10041	Trial	ResponseIL	14	0	175	0	107	12:44:14	3232424	5	3	3	3	3	3	3	3	3	7	3	0	0	0	0	5	3
112912	12:44:14	10041	Trial	IncongruentLeft	14	203	133	1	107	12:44:14	3232584	5	3	3	3	3	3	3	3	3	7	3	0	0	0	0	5	3
112912	12:44:14	10041	Trial	ResponseCL	14	0	175	0	107	12:44:14	3234130	5	3	3	3	3	3	3	3	3	7	3	0	0	0	0	5	3
112912	12:44:14	10041	Trial	CongruentLeft	14	205	123	0	107	12:44:14	3234276	5	3	3	3	3	3	3	3	3	7	3	0	0	0	0	5	3
112912	12:44:14	10041	Trial	ResponseIL	14	0	175	0	107	12:44:14	3235836	5	3	3	3	3	3	3	3	3	7	3	0	0	0	0	5	3
112912	12:44:14	10041	Trial	IncongruentLeft	14	203	433	1	107	12:44:14	3236289	5	3	3	3	3	3	3	3	3	7	3	0	0	0	0	5	3
112912	12:44:14	10041	Trial	ResponseCR	14	0	175	0	107	12:44:14	3237542	5	3	3	3	3	3	3	3	3	7	3	0	0	0	0	5	3
112912	12:44:14	10041	Trial	CongruentRight	14	205	151	1	107	12:44:14	3237715	5	3	3	3	3	3	3	3	3	7	3	0	0	0	0	5	3
112912	12:44:14	10041	Trial	ResponseCL	14	0	175	0	107	12:44:14	3239248	5	3	3	3	3	3	3	3	3	7	3	0	0	0	0	5	3
112912	12:44:14	10041	Trial	CongruentLeft	14	203	141	1	107	12:44:14	3239407	5	3	3	3	3	3	3	3	3	7	3	0	0	0	0	5	3
112912	12:44:14	10041	Trial	ResponseIR	14	0	175	0	107	12:44:14	3240954	5	3	3	3	3	3	3	3	3	7	3	0	0	0	0	5	3
112912	12:44:14	10041	Trial	IncongruentRight	14	205	195	1	107	12:44:14	3241167	5	3	3	3	3	3	3	3	3	7	3	0	0	0	0	5	3
112912	12:44:14	10041	Trial	ResponseCL	14	0	175	0	107	12:44:14	3242659	5	3	3	3	3	3	3	3	3	7	3	0	0	0	0	5	3
112912	12:44:14	10041	Trial	CongruentLeft	14	203	281	1	107	12:44:14	3242966	5	3	3	3	3	3	3	3	3	7	3	0	0	0	0	5	3
112912	12:44:14	10041	Trial	ResponseCR	14	0	175	0	107	12:44:14	3244365	5	3	3	3	3	3	3	3	3	7	3	0	0	0	0	5	3
112912	12:44:14	10041	Trial	CongruentRight	14	205	207	1	107	12:44:14	3244592	5	3	3	3	3	3	3	3	3	7	3	0	0	0	0	5	3
112912	12:44:14	10041	Trial	ResponseIL	14	0	175	0	107	12:44:14	3246071	5	3	3	3	3	3	3	3	3	7	3	0	0	0	0	5	3
112912	12:44:14	10041	Trial	IncongruentLeft	14	203	261	1	107	12:44:14	3246351	5	3	3	3	3	3	3	3	3	7	3	0	0	0	0	5	3
112912	12:44:14	10041	WordsAbsEngThreemo	PAbsEngThreemo1	16	Abs1	2863	0	107	12:44:14	3258533	5	3	3	3	3	3	3	3	3	7	3	0	0	0	0	5	3
112912	12:44:14	10041	WordsAbsEngThreemo	AbsEngThreemo1	16	Abs1	2934	0	107	12:44:14	3261505	5	3	3	3	3	3	3	3	3	7	3	1	0	0	0	5	3
112912	12:44:14	10041	WordsAbsEngThreemo	AbsEngThreemo2	16	Abs2	6937	0	107	12:44:14	3268475	5	3	3	3	3	3	3	3	3	7	3	1	0	0	0	5	3
112912	12:44:14	10041	WordsAbsEngThreemo	AbsEngThreemo3	16	Abs1	7471	0	107	12:44:14	3275979	5	3	3	3	3	3	3	3	3	7	3	2	0	0	0	5	3
112912	12:44:14	10041	Trial2BackEngS	NS	17	0	1000	1	107	12:44:14	3354600	5	3	3	3	3	3	3	3	3	7	3	2	0	0	0	5	3
112912	12:44:14	10041	Trial2BackEngS	NS	17	0	1000	1	107	12:44:14	3356106	5	3	3	3	3	3	3	3	3	7	3	2	0	0	0	5	3
112912	12:44:14	10041	Trial2BackEngS	NS	17	0	1000	1	107	12:44:14	3357612	5	3	3	3	3	3	3	3	3	7	3	2	0	0	0	5	3
112912	12:44:14	10041	Trial2BackEngS	YS	17	57	737	1	107	12:44:14	3358865	5	3	3	3	3	3	3	3	3	7	3	2	0	0	0	5	3
112912	12:44:14	10041	Trial2BackEngS	NS	17	0	1000	1	107	12:44:14	3360624	5	3	3	3	3	3	3	3	3	7	3	2	0	0	0	5	3
112912	12:44:14	10041	Trial2BackEngS	NS	17	0	1000	1	107	12:44:14	3362130	5	3	3	3	3	3	3	3	3	7	3	2	0	0	0	5	3
112912	12:44:14	10041	Trial2BackEngS	NS	17	0	1000	1	107	12:44:14	3363636	5	3	3	3	3	3	3	3	3	7	3	2	0	0	0	5	3
112912	12:44:14	10041	Trial2BackEngS	NS	17	0	1000	1	107	12:44:14	3365142	5	3	3	3	3	3	3	3	3	7	3	2	0	0	0	5	3
112912	12:44:14	10041	Trial2BackEngS	YS	17	57	487	1	107	12:44:14	3366142	5	3	3	3	3	3	3	3	3	7	3	2	0	0	0	5	3
112912	12:44:14	10041	Trial2BackEngS	NS	17	0	1000	1	107	12:44:14	3368154	5	3	3	3	3	3	3	3	3	7	3	2	0	0	0	5	3
112912	12:44:14	10041	Trial2BackEngS	NS	17	0	1000	1	107	12:44:14	3369660	5	3	3	3	3	3	3	3	3	7	3	2	0	0	0	5	3
112912	12:44:14	10041	Trial2BackEngS	YS	17	0	1000	0	107	12:44:14	3371166	5	3	3	3	3	3	3	3	3	7	3	2	0	0	0	5	3
112912	12:44:14	10041	Trial2BackEngS	NS	17	0	1000	1	107	12:44:14	3372672	5	3	3	3	3	3	3	3	3	7	3	2	0	0	0	5	3
112912	12:44:14	10041	Trial2BackEngS	NS	17	0	1000	1	107	12:44:14	3374178	5	3	3	3	3	3	3	3	3	7	3	2	0	0	0	5	3
112912	12:44:14	10041	Trial2BackEngS	NS	17	0	1000	1	107	12:44:14	3375684	5	3	3	3	3	3	3	3	3	7	3	2	0	0	0	5	3
112912	12:44:14	10041	Trial2BackEngS	YS	17	0	1000	0	107	12:44:14	3377190	5	3	3	3	3	3	3	3	3	7	3	2	0	0	0	5	3
112912	12:44:14	10041	Trial2BackEngS	NS	17	0	1000	1	107	12:44:14	3378696	5	3	3	3	3	3	3	3	3	7	3	2	0	0	0	5	3
112912	12:44:14	10041	Trial2BackEngS	NS	17	0	1000	1	107	12:44:14	3380202	5	3	3	3	3	3	3	3	3	7	3	2	0	0	0	5	3
112912	12:44:14	10041	Trial2BackEngS	NS	17	0	1000	1	107	12:44:14	3381708	5	3	3	3	3	3	3	3	3	7	3	2	0	0	0	5	3
112912	12:44:14	10041	Trial2BackEngS	NS	17	0	1000	1	107	12:44:14	3383215	5	3	3	3	3	3	3	3	3	7	3	2	0	0	0	5	3
112912	12:44:14	10041	Trial2BackEngS	YS	17	57	526	1	107	12:44:14	3384254	5	3	3	3	3	3	3	3	3	7	3	2	0	0	0	5	3
112912	12:44:14	10041	Trial2BackEngS	NS	17	0	1000	1	107	12:44:14	3386227	5	3	3	3	3	3	3	3	3	7	3	2	0	0	0	5	3
112912	12:44:14	10041	Trial2BackEngS	NS	17	0	1000	1	107	12:44:14	3387733	5	3	3	3	3	3	3	3	3	7	3	2	0	0	0	5	3
112912	12:44:14	10041	Trial2BackEngS	NS	17	0	1000	1	107	12:44:14	3389239	5	3	3	3	3	3	3	3	3	7	3	2	0	0	0	5	3
112912	12:44:14	10041	Trial2BackEngS	NS	17	0	1000	1	107	12:44:14	3390745	5	3	3	3	3	3	3	3	3	7	3	2	0	0	0	5	3
112912	12:44:14	10041	Trial2BackEngS	NS	17	57	499	0	107	12:44:14	3391758	5	3	3	3	3	3	3	3	3	7	3	2	0	0	0	5	3
112912	12:44:14	10041	Trial2BackEngS	NS	17	0	1000	1	107	12:44:14	3393757	5	3	3	3	3	3	3	3	3	7	3	2	0	0	0	5	3
112912	12:44:14	10041	Trial2BackEngS	NS	17	0	1000	1	107	12:44:14	3395263	5	3	3	3	3	3	3	3	3	7	3	2	0	0	0	5	3
112912	12:44:14	10041	Trial2BackEngS	NS	17	0	1000	1	107	12:44:14	3396769	5	3	3	3	3	3	3	3	3	7	3	2	0	0	0	5	3
112912	12:44:14	10041	Trial2BackEngS	NS	17	0	1000	1	107	12:44:14	3398275	5	3	3	3	3	3	3	3	3	7	3	2	0	0	0	5	3
112912	12:44:14	10041	Trial2BackEngS	NS	17	0	1000	1	107	12:44:14	3399781	5	3	3	3	3	3	3	3	3	7	3	2	0	0	0	5	3
112912	12:44:14	10041	Trial2BackEngS	YS	17	57	551	1	107	12:44:14	3400847	5	3	3	3	3	3	3	3	3	7	3	2	0	0	0	5	3
112912	12:44:14	10041	Trial2BackEngS	NS	17	0	1000	1	107	12:44:14	3402793	5	3	3	3	3	3	3	3	3	7	3	2	0	0	0	5	3
112912	12:44:14	10041	Trial2BackEngS	NS	17	0	1000	1	107	12:44:14	3404299	5	3	3	3	3	3	3	3	3	7	3	2	0	0	0	5	3
112912	12:44:14	10041	Trial2BackEngS	NS	17	0	1000	1	107	12:44:14	3405805	5	3	3	3	3	3	3	3	3	7	3	2	0	0	0	5	3
112912	12:44:14	10041	Trial2BackEngS	YS	17	0	1000	0	107	12:44:14	3407324	5	3	3	3	3	3	3	3	3	7	3	2	0	0	0	5	3
112912	12:44:14	10041	Trial2BackEngS	NS	17	0	1000	1	107	12:44:14	3408830	5	3	3	3	3	3	3	3	3	7	3	2	0	0	0	5	3
112912	12:44:14	10041	Trial2BackEngS	NS	17	0	1000	1	107	12:44:14	3410337	5	3	3	3	3	3	3	3	3	7	3	2	0	0	0	5	3
112912	12:44:14	10041	Trial2BackEngS	NS	17	57	603	0	107	12:44:14	3411456	5	3	3	3	3	3	3	3	3	7	3	2	0	0	0	5	3
112912	12:44:14	10041	Trial2BackEngS	NS	17	0	1000	1	107	12:44:14	3413349	5	3	3	3	3	3	3	3	3	7	3	2	0	0	0	5	3
112912	12:44:14	10041	Trial2BackEngS	NS	17	0	1000	1	107	12:44:14	3414855	5	3	3	3	3	3	3	3	3	7	3	2	0	0	0	5	3
112912	12:44:14	10041	Trial2BackEngS	NS	17	0	1000	1	107	12:44:14	3416374	5	3	3	3	3	3	3	3	3	7	3	2	0	0	0	5	3
112912	12:44:14	10041	Trial2BackEngS	NS	17	0	1000	1	107	12:44:14	3417880	5	3	3	3	3	3	3	3	3	7	3	2	0	0	0	5	3
112912	12:44:14	10041	Trial2BackEngS	YS	17	0	1000	0	107	12:44:14	3419386	5	3	3	3	3	3	3	3	3	7	3	2	0	0	0	5	3
112912	12:44:14	10041	Trial2BackEngS	NS	17	57	673	0	107	12:44:14	3420572	5	3	3	3	3	3	3	3	3	7	3	2	0	0	0	5	3
112912	12:44:14	10041	Trial2BackEngS	NS	17	0	1000	1	107	12:44:14	3422398	5	3	3	3	3	3	3	3	3	7	3	2	0	0	0	5	3
112912	12:44:14	10041	Trial2BackEngS	NS	17	0	1000	1	107	12:44:14	3423904	5	3	3	3	3	3	3	3	3	7	3	2	0	0	0	5	3
112912	12:44:14	10041	Trial2BackEngS	NS	17	0	1000	1	107	12:44:14	3425410	5	3	3	3	3	3	3	3	3	7	3	2	0	0	0	5	3
112912	12:44:14	10041	Trial2BackEngS	YS	17	57	504	1	107	12:44:14	3426423	5	3	3	3	3	3	3	3	3	7	3	2	0	0	0	5	3
112912	12:44:14	10041	Trial2BackEngS	NS	17	0	1000	1	107	12:44:14	3428422	5	3	3	3	3	3	3	3	3	7	3	2	0	0	0	5	3
112912	12:44:14	10041	Trial2BackEngS	NS	17	0	1000	1	107	12:44:14	3429928	5	3	3	3	3	3	3	3	3	7	3	2	0	0	0	5	3
112912	12:44:14	10041	Trial2BackEngS	NS	17	0	1000	1	107	12:44:14	3431434	5	3	3	3	3	3	3	3	3	7	3	2	0	0	0	5	3
112912	12:44:14	10041	Trial2BackEngS	NS	17	0	1000	1	107	12:44:14	3432954	5	3	3	3	3	3	3	3	3	7	3	2	0	0	0	5	3
112912	12:44:14	10041	Trial2BackEngS	NS	17	0	1000	1	107	12:44:14	3434460	5	3	3	3	3	3	3	3	3	7	3	2	0	0	0	5	3
112912	12:44:14	10041	Trial2BackEngS	NS	17	0	1000	1	107	12:44:14	3435966	5	3	3	3	3	3	3	3	3	7	3	2	0	0	0	5	3
112912	12:44:14	10041	Trial2BackEngS	YS	17	57	445	1	107	12:44:14	3436925	5	3	3	3	3	3	3	3	3	7	3	2	0	0	0	5	3
112912	12:44:14	10041	Trial2BackEngS	NS	17	0	1000	1	107	12:44:14	3438978	5	3	3	3	3	3	3	3	3	7	3	2	0	0	0	5	3
112912	12:44:14	10041	Trial2BackEngS	NS	17	0	1000	1	107	12:44:14	3440484	5	3	3	3	3	3	3	3	3	7	3	2	0	0	0	5	3
112912	12:44:14	10041	Trial2BackEngS	NS	17	0	1000	1	107	12:44:14	3441990	5	3	3	3	3	3	3	3	3	7	3	2	0	0	0	5	3
112912	12:44:14	10041	Trial2BackEngS	NS	17	57	868	0	107	12:44:14	3443376	5	3	3	3	3	3	3	3	3	7	3	2	0	0	0	5	3
112912	12:44:14	10041	Trial2BackEngS	NS	17	0	1000	1	107	12:44:14	3445002	5	3	3	3	3	3	3	3	3	7	3	2	0	0	0	5	3
112912	12:44:14	10041	Trial2BackEngS	NS	17	0	1000	1	107	12:44:14	3446508	5	3	3	3	3	3	3	3	3	7	3	2	0	0	0	5	3
112912	12:44:14	10041	Trial2BackEngS	NS	17	0	1000	1	107	12:44:14	3448014	5	3	3	3	3	3	3	3	3	7	3	2	0	0	0	5	3
112912	12:44:14	10041	Trial2BackEngS	YS	17	0	1000	0	107	12:44:14	3449520	5	3	3	3	3	3	3	3	3	7	3	2	0	0	0	5	3
112912	12:44:14	10041	Trial2BackEngS	NS	17	57	442	0	107	12:44:14	3450480	5	3	3	3	3	3	3	3	3	7	3	2	0	0	0	5	3
112912	12:44:14	10041	Trial2BackEngS	NS	17	0	1000	1	107	12:44:14	3452532	5	3	3	3	3	3	3	3	3	7	3	2	0	0	0	5	3
112912	12:44:14	10041	Trial2BackEngS	NS	17	0	1000	1	107	12:44:14	3454038	5	3	3	3	3	3	3	3	3	7	3	2	0	0	0	5	3
112912	12:44:14	10041	Trial2BackEngS	NS	17	0	1000	1	107	12:44:14	3455544	5	3	3	3	3	3	3	3	3	7	3	2	0	0	0	5	3
112912	12:44:14	10041	Trial2BackEngS	YS	17	57	625	1	107	12:44:14	3456691	5	3	3	3	3	3	3	3	3	7	3	2	0	0	0	5	3
112912	12:44:14	10041	Trial2BackEngS	NS	17	0	1000	1	107	12:44:14	3458557	5	3	3	3	3	3	3	3	3	7	3	2	0	0	0	5	3
112912	12:44:14	10041	Trial2BackEngS	NS	17	0	1000	1	107	12:44:14	3460063	5	3	3	3	3	3	3	3	3	7	3	2	0	0	0	5	3
112912	12:44:14	10041	Trial2BackEngS	YS	17	0	1000	0	107	12:44:14	3461569	5	3	3	3	3	3	3	3	3	7	3	2	0	0	0	5	3
112912	12:44:14	10041	Trial2BackEngS	NS	17	0	1000	1	107	12:44:14	3463088	5	3	3	3	3	3	3	3	3	7	3	2	0	0	0	5	3
112912	12:44:14	10041	Trial2BackEngS	NS	17	0	1000	1	107	12:44:14	3464594	5	3	3	3	3	3	3	3	3	7	3	2	0	0	0	5	3
112912	12:44:14	10041	Trial2BackEngS	NS	17	0	1000	1	107	12:44:14	3466100	5	3	3	3	3	3	3	3	3	7	3	2	0	0	0	5	3
112912	12:44:14	10041	Trial2BackEngS	NS	17	0	1000	1	107	12:44:14	3467619	5	3	3	3	3	3	3	3	3	7	3	2	0	0	0	5	3
112912	12:44:14	10041	Trial2BackEngS	NS	17	57	614	0	107	12:44:14	3468752	5	3	3	3	3	3	3	3	3	7	3	2	0	0	0	5	3
112912	12:44:14	10041	Trial2BackEngS	NS	17	0	1000	1	107	12:44:14	3470631	5	3	3	3	3	3	3	3	3	7	3	2	0	0	0	5	3
112912	12:44:14	10041	Trial2BackEngS	YS	17	57	690	1	107	12:44:14	3471831	5	3	3	3	3	3	3	3	3	7	3	2	0	0	0	5	3
112912	12:44:14	10041	Trial2BackEngS	NS	17	0	1000	1	107	12:44:14	3473644	5	3	3	3	3	3	3	3	3	7	3	2	0	0	0	5	3
112912	12:44:14	10041	Trial2BackEngS	NS	17	0	1000	1	107	12:44:14	3475150	5	3	3	3	3	3	3	3	3	7	3	2	0	0	0	5	3
112912	12:44:14	10041	Trial2BackEngS	NS	17	0	1000	1	107	12:44:14	3476656	5	3	3	3	3	3	3	3	3	7	3	2	0	0	0	5	3
112912	12:44:14	10041	Trial2BackEngS	NS	17	0	1000	1	107	12:44:14	3478162	5	3	3	3	3	3	3	3	3	7	3	2	0	0	0	5	3
112912	12:44:14	10041	Trial2BackEngS	YS	17	57	487	1	107	12:44:14	3479161	5	3	3	3	3	3	3	3	3	7	3	2	0	0	0	5	3
112912	12:44:14	10041	Trial2BackEngS	NS	17	0	1000	1	107	12:44:14	3481174	5	3	3	3	3	3	3	3	3	7	3	2	0	0	0	5	3
112912	12:44:14	10041	Trial2BackEngS	NS	17	0	1000	1	107	12:44:14	3482680	5	3	3	3	3	3	3	3	3	7	3	2	0	0	0	5	3
112912	12:44:14	10041	Trial2BackEngS	NS	17	0	1000	1	107	12:44:14	3484186	5	3	3	3	3	3	3	3	3	7	3	2	0	0	0	5	3
112912	12:44:14	10041	Trial2BackEngS	NS	17	57	655	0	107	12:44:14	3485359	5	3	3	3	3	3	3	3	3	7	3	2	0	0	0	5	3
112912	12:44:14	10041	Trial2BackEngS	YS	17	0	1000	0	107	12:44:14	3487198	5	3	3	3	3	3	3	3	3	7	3	2	0	0	0	5	3
112912	12:44:14	10041	Trial2BackEngS	NS	17	0	1000	1	107	12:44:14	3488717	5	3	3	3	3	3	3	3	3	7	3	2	0	0	0	5	3
112912	12:44:14	10041	Trial2BackEngS	NS	17	0	1000	1	107	12:44:14	3490223	5	3	3	3	3	3	3	3	3	7	3	2	0	0	0	5	3
112912	12:44:14	10041	Trial2BackEngS	YS	17	57	441	1	107	12:44:14	3491183	5	3	3	3	3	3	3	3	3	7	3	2	0	0	0	5	3
112912	12:44:14	10041	Trial2BackEngS	NS	17	0	1000	1	107	12:44:14	3493235	5	3	3	3	3	3	3	3	3	7	3	2	0	0	0	5	3
112912	12:44:14	10041	Trial2BackEngS	NS	17	0	1000	1	107	12:44:14	3494755	5	3	3	3	3	3	3	3	3	7	3	2	0	0	0	5	3
112912	12:44:14	10041	Trial2BackEngS	NS	17	0	1000	1	107	12:44:14	3496274	5	3	3	3	3	3	3	3	3	7	3	2	0	0	0	5	3
112912	12:44:14	10041	Trial2BackEngS	NS	17	57	582	0	107	12:44:14	3497367	5	3	3	3	3	3	3	3	3	7	3	2	0	0	0	5	3
112912	12:44:14	10041	Trial2BackEngS	NS	17	0	1000	1	107	12:44:14	3499287	5	3	3	3	3	3	3	3	3	7	3	2	0	0	0	5	3
112912	12:44:14	10041	Trial2BackEngS	NS	17	0	1000	1	107	12:44:14	3500792	5	3	3	3	3	3	3	3	3	7	3	2	0	0	0	5	3
112912	12:44:14	10041	Trial2BackEngS	NS	17	0	1000	1	107	12:44:14	3502312	5	3	3	3	3	3	3	3	3	7	3	2	0	0	0	5	3
112912	12:44:14	10041	Trial2BackEngS	NS	17	0	1000	1	107	12:44:14	3503818	5	3	3	3	3	3	3	3	3	7	3	2	0	0	0	5	3
112912	12:44:14	10041	Trial2BackEngS	YS	17	0	1000	0	107	12:44:14	3505324	5	3	3	3	3	3	3	3	3	7	3	2	0	0	0	5	3
112912	12:44:14	10041	Trial2BackEngS	NS	17	57	430	0	107	12:44:14	3506270	5	3	3	3	3	3	3	3	3	7	3	2	0	0	0	5	3
112912	12:44:14	10041	Trial2BackEngS	NS	17	57	618	0	107	12:44:14	3507962	5	3	3	3	3	3	3	3	3	7	3	2	0	0	0	5	3
112912	12:44:14	10041	Trial2BackEngS	NS	17	0	1000	1	107	12:44:14	3509842	5	3	3	3	3	3	3	3	3	7	3	2	0	0	0	5	3
112912	12:44:14	10041	Trial2BackEngS	NS	17	0	1000	1	107	12:44:14	3511348	5	3	3	3	3	3	3	3	3	7	3	2	0	0	0	5	3
112912	12:44:14	10041	Trial2BackEngS	NS	17	0	1000	1	107	12:44:14	3512854	5	3	3	3	3	3	3	3	3	7	3	2	0	0	0	5	3
112912	12:44:14	10041	Trial2BackEngS	NS	17	0	1000	1	107	12:44:14	3514360	5	3	3	3	3	3	3	3	3	7	3	2	0	0	0	5	3
112912	12:44:14	10041	Trial2BackEngS	NS	17	57	432	0	107	12:44:14	3515306	5	3	3	3	3	3	3	3	3	7	3	2	0	0	0	5	3
112912	12:44:14	10041	Trial2BackEngS	YS	17	0	1000	0	107	12:44:14	3517372	5	3	3	3	3	3	3	3	3	7	3	2	0	0	0	5	3
112912	12:44:14	10041	Trial2BackEngS	NS	17	0	1000	1	107	12:44:14	3518878	5	3	3	3	3	3	3	3	3	7	3	2	0	0	0	5	3
112912	12:44:14	10041	Trial2BackEngS	NS	17	0	1000	1	107	12:44:14	3520384	5	3	3	3	3	3	3	3	3	7	3	2	0	0	0	5	3
112912	12:44:14	10041	Trial2BackEngS	NS	17	0	1000	1	107	12:44:14	3521904	5	3	3	3	3	3	3	3	3	7	3	2	0	0	0	5	3
112912	12:44:14	10041	Trial2BackEngS	NS	17	57	392	0	107	12:44:14	3522810	5	3	3	3	3	3	3	3	3	7	3	2	0	0	0	5	3
112912	12:44:14	10041	Trial2BackEngS	NS	17	57	758	0	107	12:44:14	3524676	5	3	3	3	3	3	3	3	3	7	3	2	0	0	0	5	3
112912	12:44:14	10041	Trial2BackEngS	NS	17	0	1000	1	107	12:44:14	3526422	5	3	3	3	3	3	3	3	3	7	3	2	0	0	0	5	3
112912	12:44:14	10041	Trial2BackEngS	NS	17	0	1000	1	107	12:44:14	3527928	5	3	3	3	3	3	3	3	3	7	3	2	0	0	0	5	3
112912	12:44:14	10041	Trial2BackEngS	NS	17	0	1000	1	107	12:44:14	3529434	5	3	3	3	3	3	3	3	3	7	3	2	0	0	0	5	3
112912	12:44:14	10041	Trial2BackEngS	NS	17	0	1000	1	107	12:44:14	3530953	5	3	3	3	3	3	3	3	3	7	3	2	0	0	0	5	3
112912	12:44:14	10041	Trial2BackEngS	YS	17	57	574	1	107	12:44:14	3532046	5	3	3	3	3	3	3	3	3	7	3	2	0	0	0	5	3
112912	12:44:14	10041	Trial2BackEngS	NS	17	0	1000	1	107	12:44:14	3533965	5	3	3	3	3	3	3	3	3	7	3	2	0	0	0	5	3
112912	12:44:14	10041	ClockEng3mo	ClockEng3mo	19	Clock22	24533	0	107	12:44:14	3558635	5	3	3	3	3	3	3	3	3	7	3	2	0	0	0	5	3
112912	12:44:14	10041	ClockEng3mo	ClockEng3mo	19	Clock1	912	0	107	12:44:14	3559595	5	3	3	3	3	3	3	3	3	7	3	2	1	0	0	5	3
112912	12:44:14	10041	ClockEng3mo	ClockEng3mo	19	Clock111	616	0	107	12:44:14	3560261	5	3	3	3	3	3	3	3	3	7	3	2	1	0	1	5	3
112912	12:44:14	10041	ClockEng3mo	ClockEng3mo	19	Clockdone	7605	0	107	12:44:14	3567911	5	3	3	3	3	3	3	3	3	7	3	2	1	0	1	5	3
112912	12:44:14	10041	FASEngVF3mo	StopEngVF3mo	20	21	6671	0	107	12:44:14	3672349	5	3	3	3	3	3	3	3	3	7	3	2	1	0	1	5	3
