date	time	subject	blockcode	trialcode	values.TaskNumber	response	latency	correct	values.Score	script.starttime	script.elapsedtime	values.ScoreS7	values.Word1	values.Word2	values.Word3	values.Word4	values.Word5	values.Word6	values.Word7	values.Word8	values.DigitSpanFwrd	values.DigitSpanBack	values.ScoreAbs	values.Contour	values.Numbers	values.Hands	values.corsiblockspanFwrd	values.corsiblockspanRev
112012	13:24:33	10036	Language	Language	0	French	479262	0	0	13:24:33	479386	0	0	0	0	0	0	0	0	0	0	0	0	0	0	0	0	0
112012	13:24:33	10036	Session	Session	0	3mo	742	0	0	13:24:33	480186	0	0	0	0	0	0	0	0	0	0	0	0	0	0	0	0	0
112012	13:24:33	10036	HandFr	HandFr	0	RightFr	1174	0	0	13:24:33	481425	0	0	0	0	0	0	0	0	0	0	0	0	0	0	0	0	0
112012	13:24:33	10036	AudioCheckFr	WordsFr	0	0	0	0	0	13:24:33	2266048	0	0	0	0	0	0	0	0	0	0	0	0	0	0	0	0	0
112012	13:24:33	10036	CubeFr	CubeFr	1	1Cube	72488	0	0	13:24:33	2342383	0	0	0	0	0	0	0	0	0	0	0	0	0	0	0	0	0
112012	13:24:33	10036	pm.simpleFrRight	blank.simpleFr	2	0	2400	1	0	13:24:33	2385579	0	0	0	0	0	0	0	0	0	0	0	0	0	0	0	0	0
112012	13:24:33	10036	pm.simpleFrRight	pm.simpleFr	2	57	2846	0	0	13:24:33	2388444	0	0	0	0	0	0	0	0	0	0	0	0	0	0	0	0	0
112012	13:24:33	10036	pm.simpleFrRight	blank.simpleFr	2	0	1600	1	0	13:24:33	2390057	0	0	0	0	0	0	0	0	0	0	0	0	0	0	0	0	0
112012	13:24:33	10036	pm.simpleFrRight	pm.simpleFr	2	57	1088	0	0	13:24:33	2391163	0	0	0	0	0	0	0	0	0	0	0	0	0	0	0	0	0
112012	13:24:33	10036	pm.simpleFrRight	blank.simpleFr	2	0	1900	1	0	13:24:33	2393083	0	0	0	0	0	0	0	0	0	0	0	0	0	0	0	0	0
112012	13:24:33	10036	pm.simpleFrRight	pm.simpleFr	2	57	1054	0	0	13:24:33	2394162	0	0	0	0	0	0	0	0	0	0	0	0	0	0	0	0	0
112012	13:24:33	10036	pm.simpleFrRight	blank.simpleFr	2	0	2200	1	0	13:24:33	2396375	0	0	0	0	0	0	0	0	0	0	0	0	0	0	0	0	0
112012	13:24:33	10036	pm.simpleFrRight	pm.simpleFr	2	57	962	0	0	13:24:33	2397361	0	0	0	0	0	0	0	0	0	0	0	0	0	0	0	0	0
112012	13:24:33	10036	pm.simpleFrRight	blank.simpleFr	2	0	2000	1	0	13:24:33	2399374	0	0	0	0	0	0	0	0	0	0	0	0	0	0	0	0	0
112012	13:24:33	10036	pm.simpleFrRight	pm.simpleFr	2	57	1083	0	0	13:24:33	2400480	0	0	0	0	0	0	0	0	0	0	0	0	0	0	0	0	0
112012	13:24:33	10036	pm.simpleFrRight	blank.simpleFr	2	0	2100	1	0	13:24:33	2402599	0	0	0	0	0	0	0	0	0	0	0	0	0	0	0	0	0
112012	13:24:33	10036	pm.simpleFrRight	pm.simpleFr	2	57	1442	0	0	13:24:33	2404065	0	0	0	0	0	0	0	0	0	0	0	0	0	0	0	0	0
112012	13:24:33	10036	pm.simpleFrRight	blank.simpleFr	2	0	1500	1	0	13:24:33	2405584	0	0	0	0	0	0	0	0	0	0	0	0	0	0	0	0	0
112012	13:24:33	10036	pm.simpleFrRight	pm.simpleFr	2	57	777	0	0	13:24:33	2406384	0	0	0	0	0	0	0	0	0	0	0	0	0	0	0	0	0
112012	13:24:33	10036	pm.simpleFrRight	blank.simpleFr	2	0	2300	1	0	13:24:33	2408703	0	0	0	0	0	0	0	0	0	0	0	0	0	0	0	0	0
112012	13:24:33	10036	pm.simpleFrRight	pm.simpleFr	2	57	778	0	0	13:24:33	2409503	0	0	0	0	0	0	0	0	0	0	0	0	0	0	0	0	0
112012	13:24:33	10036	pm.simpleFrRight	blank.simpleFr	2	0	1700	1	0	13:24:33	2411222	0	0	0	0	0	0	0	0	0	0	0	0	0	0	0	0	0
112012	13:24:33	10036	pm.simpleFrRight	pm.simpleFr	2	57	963	0	0	13:24:33	2412208	0	0	0	0	0	0	0	0	0	0	0	0	0	0	0	0	0
112012	13:24:33	10036	pm.simpleFrRight	blank.simpleFr	2	0	2500	1	0	13:24:33	2414728	0	0	0	0	0	0	0	0	0	0	0	0	0	0	0	0	0
112012	13:24:33	10036	pm.simpleFrRight	pm.simpleFr	2	57	801	0	0	13:24:33	2415554	0	0	0	0	0	0	0	0	0	0	0	0	0	0	0	0	0
112012	13:24:33	10036	pm.simpleFrRight	blank.simpleFr	2	0	1800	1	0	13:24:33	2417366	0	0	0	0	0	0	0	0	0	0	0	0	0	0	0	0	0
112012	13:24:33	10036	pm.simpleFrRight	pm.simpleFr	2	57	1010	0	0	13:24:33	2418406	0	0	0	0	0	0	0	0	0	0	0	0	0	0	0	0	0
112012	13:24:33	10036	pm.simpleFrRight	blank.simpleFr	2	0	2100	1	0	13:24:33	2420525	0	0	0	0	0	0	0	0	0	0	0	0	0	0	0	0	0
112012	13:24:33	10036	pm.simpleFrRight	pm.simpleFr	2	57	3180	0	0	13:24:33	2423724	0	0	0	0	0	0	0	0	0	0	0	0	0	0	0	0	0
112012	13:24:33	10036	pm.simpleFrRight	blank.simpleFr	2	0	1600	1	0	13:24:33	2425337	0	0	0	0	0	0	0	0	0	0	0	0	0	0	0	0	0
112012	13:24:33	10036	pm.simpleFrRight	pm.simpleFr	2	57	1824	0	0	13:24:33	2427189	0	0	0	0	0	0	0	0	0	0	0	0	0	0	0	0	0
112012	13:24:33	10036	pm.simpleFrRight	blank.simpleFr	2	0	1700	1	0	13:24:33	2428909	0	0	0	0	0	0	0	0	0	0	0	0	0	0	0	0	0
112012	13:24:33	10036	pm.simpleFrRight	pm.simpleFr	2	57	556	0	0	13:24:33	2429482	0	0	0	0	0	0	0	0	0	0	0	0	0	0	0	0	0
112012	13:24:33	10036	pm.simpleFrRight	blank.simpleFr	2	0	2200	1	0	13:24:33	2431694	0	0	0	0	0	0	0	0	0	0	0	0	0	0	0	0	0
112012	13:24:33	10036	pm.simpleFrRight	pm.simpleFr	2	57	810	0	0	13:24:33	2432534	0	0	0	0	0	0	0	0	0	0	0	0	0	0	0	0	0
112012	13:24:33	10036	pm.simpleFrRight	blank.simpleFr	2	0	2000	1	0	13:24:33	2434546	0	0	0	0	0	0	0	0	0	0	0	0	0	0	0	0	0
112012	13:24:33	10036	pm.simpleFrRight	pm.simpleFr	2	57	742	0	0	13:24:33	2435306	0	0	0	0	0	0	0	0	0	0	0	0	0	0	0	0	0
112012	13:24:33	10036	pm.simpleFrRight	blank.simpleFr	2	0	1800	1	0	13:24:33	2437119	0	0	0	0	0	0	0	0	0	0	0	0	0	0	0	0	0
112012	13:24:33	10036	pm.simpleFrRight	pm.simpleFr	2	57	362	0	0	13:24:33	2437505	0	0	0	0	0	0	0	0	0	0	0	0	0	0	0	0	0
112012	13:24:33	10036	pm.simpleFrRight	blank.simpleFr	2	0	2400	1	0	13:24:33	2439931	0	0	0	0	0	0	0	0	0	0	0	0	0	0	0	0	0
112012	13:24:33	10036	pm.simpleFrRight	pm.simpleFr	2	57	462	0	0	13:24:33	2440411	0	0	0	0	0	0	0	0	0	0	0	0	0	0	0	0	0
112012	13:24:33	10036	pm.simpleFrRight	blank.simpleFr	2	0	2500	1	0	13:24:33	2442930	0	0	0	0	0	0	0	0	0	0	0	0	0	0	0	0	0
112012	13:24:33	10036	pm.simpleFrRight	pm.simpleFr	2	57	487	0	0	13:24:33	2443436	0	0	0	0	0	0	0	0	0	0	0	0	0	0	0	0	0
112012	13:24:33	10036	pm.simpleFrRight	blank.simpleFr	2	0	1900	1	0	13:24:33	2445355	0	0	0	0	0	0	0	0	0	0	0	0	0	0	0	0	0
112012	13:24:33	10036	pm.simpleFrRight	pm.simpleFr	2	57	477	0	0	13:24:33	2445862	0	0	0	0	0	0	0	0	0	0	0	0	0	0	0	0	0
112012	13:24:33	10036	pm.simpleFrRight	blank.simpleFr	2	0	2300	1	0	13:24:33	2448181	0	0	0	0	0	0	0	0	0	0	0	0	0	0	0	0	0
112012	13:24:33	10036	pm.simpleFrRight	pm.simpleFr	2	57	707	0	0	13:24:33	2448914	0	0	0	0	0	0	0	0	0	0	0	0	0	0	0	0	0
112012	13:24:33	10036	pm.simpleFrRight	blank.simpleFr	2	0	1500	1	0	13:24:33	2450433	0	0	0	0	0	0	0	0	0	0	0	0	0	0	0	0	0
112012	13:24:33	10036	pm.simpleFrRight	pm.simpleFr	2	57	1351	0	0	13:24:33	2451806	0	0	0	0	0	0	0	0	0	0	0	0	0	0	0	0	0
112012	13:24:33	10036	pm.simpleFrRight	blank.simpleFr	2	0	2300	1	0	13:24:33	2454125	0	0	0	0	0	0	0	0	0	0	0	0	0	0	0	0	0
112012	13:24:33	10036	pm.simpleFrRight	pm.simpleFr	2	57	475	0	0	13:24:33	2454618	0	0	0	0	0	0	0	0	0	0	0	0	0	0	0	0	0
112012	13:24:33	10036	pm.simpleFrRight	blank.simpleFr	2	0	1500	1	0	13:24:33	2456138	0	0	0	0	0	0	0	0	0	0	0	0	0	0	0	0	0
112012	13:24:33	10036	pm.simpleFrRight	pm.simpleFr	2	57	1598	0	0	13:24:33	2457764	0	0	0	0	0	0	0	0	0	0	0	0	0	0	0	0	0
112012	13:24:33	10036	pm.simpleFrRight	blank.simpleFr	2	0	2500	1	0	13:24:33	2460283	0	0	0	0	0	0	0	0	0	0	0	0	0	0	0	0	0
112012	13:24:33	10036	pm.simpleFrRight	pm.simpleFr	2	57	765	0	0	13:24:33	2461069	0	0	0	0	0	0	0	0	0	0	0	0	0	0	0	0	0
112012	13:24:33	10036	pm.simpleFrRight	blank.simpleFr	2	0	1700	1	0	13:24:33	2462789	0	0	0	0	0	0	0	0	0	0	0	0	0	0	0	0	0
112012	13:24:33	10036	pm.simpleFrRight	pm.simpleFr	2	57	1347	0	0	13:24:33	2464161	0	0	0	0	0	0	0	0	0	0	0	0	0	0	0	0	0
112012	13:24:33	10036	pm.simpleFrRight	blank.simpleFr	2	0	1800	1	0	13:24:33	2465974	0	0	0	0	0	0	0	0	0	0	0	0	0	0	0	0	0
112012	13:24:33	10036	pm.simpleFrRight	pm.simpleFr	2	57	802	0	0	13:24:33	2466800	0	0	0	0	0	0	0	0	0	0	0	0	0	0	0	0	0
112012	13:24:33	10036	pm.simpleFrRight	blank.simpleFr	2	0	1600	1	0	13:24:33	2468413	0	0	0	0	0	0	0	0	0	0	0	0	0	0	0	0	0
112012	13:24:33	10036	pm.simpleFrRight	pm.simpleFr	2	57	507	0	0	13:24:33	2468946	0	0	0	0	0	0	0	0	0	0	0	0	0	0	0	0	0
112012	13:24:33	10036	pm.simpleFrRight	blank.simpleFr	2	0	1900	1	0	13:24:33	2470865	0	0	0	0	0	0	0	0	0	0	0	0	0	0	0	0	0
112012	13:24:33	10036	pm.simpleFrRight	pm.simpleFr	2	57	663	0	0	13:24:33	2471545	0	0	0	0	0	0	0	0	0	0	0	0	0	0	0	0	0
112012	13:24:33	10036	pm.simpleFrRight	blank.simpleFr	2	0	2000	1	0	13:24:33	2473558	0	0	0	0	0	0	0	0	0	0	0	0	0	0	0	0	0
112012	13:24:33	10036	pm.simpleFrRight	pm.simpleFr	2	57	531	0	0	13:24:33	2474117	0	0	0	0	0	0	0	0	0	0	0	0	0	0	0	0	0
112012	13:24:33	10036	pm.simpleFrRight	blank.simpleFr	2	0	2400	1	0	13:24:33	2476530	0	0	0	0	0	0	0	0	0	0	0	0	0	0	0	0	0
112012	13:24:33	10036	pm.simpleFrRight	pm.simpleFr	2	57	518	0	0	13:24:33	2477076	0	0	0	0	0	0	0	0	0	0	0	0	0	0	0	0	0
112012	13:24:33	10036	pm.simpleFrRight	blank.simpleFr	2	0	2200	1	0	13:24:33	2479289	0	0	0	0	0	0	0	0	0	0	0	0	0	0	0	0	0
112012	13:24:33	10036	pm.simpleFrRight	pm.simpleFr	2	57	511	0	0	13:24:33	2479822	0	0	0	0	0	0	0	0	0	0	0	0	0	0	0	0	0
112012	13:24:33	10036	pm.simpleFrRight	blank.simpleFr	2	0	2100	1	0	13:24:33	2481941	0	0	0	0	0	0	0	0	0	0	0	0	0	0	0	0	0
112012	13:24:33	10036	pm.simpleFrRight	pm.simpleFr	2	57	707	0	0	13:24:33	2482674	0	0	0	0	0	0	0	0	0	0	0	0	0	0	0	0	0
112012	13:24:33	10036	pm.simpleFrRight	blank.simpleFr	2	0	2100	1	0	13:24:33	2484793	0	0	0	0	0	0	0	0	0	0	0	0	0	0	0	0	0
112012	13:24:33	10036	pm.simpleFrRight	pm.simpleFr	2	57	718	0	0	13:24:33	2485540	0	0	0	0	0	0	0	0	0	0	0	0	0	0	0	0	0
112012	13:24:33	10036	pm.simpleFrRight	blank.simpleFr	2	0	1800	1	0	13:24:33	2487352	0	0	0	0	0	0	0	0	0	0	0	0	0	0	0	0	0
112012	13:24:33	10036	pm.simpleFrRight	pm.simpleFr	2	57	720	0	0	13:24:33	2488099	0	0	0	0	0	0	0	0	0	0	0	0	0	0	0	0	0
112012	13:24:33	10036	pm.simpleFrRight	blank.simpleFr	2	0	1900	1	0	13:24:33	2490018	0	0	0	0	0	0	0	0	0	0	0	0	0	0	0	0	0
112012	13:24:33	10036	pm.simpleFrRight	pm.simpleFr	2	57	534	0	0	13:24:33	2490578	0	0	0	0	0	0	0	0	0	0	0	0	0	0	0	0	0
112012	13:24:33	10036	pm.simpleFrRight	blank.simpleFr	2	0	1600	1	0	13:24:33	2492190	0	0	0	0	0	0	0	0	0	0	0	0	0	0	0	0	0
112012	13:24:33	10036	pm.simpleFrRight	pm.simpleFr	2	57	710	0	0	13:24:33	2492923	0	0	0	0	0	0	0	0	0	0	0	0	0	0	0	0	0
112012	13:24:33	10036	pm.simpleFrRight	blank.simpleFr	2	0	2200	1	0	13:24:33	2495136	0	0	0	0	0	0	0	0	0	0	0	0	0	0	0	0	0
112012	13:24:33	10036	pm.simpleFrRight	pm.simpleFr	2	57	648	0	0	13:24:33	2495802	0	0	0	0	0	0	0	0	0	0	0	0	0	0	0	0	0
112012	13:24:33	10036	pm.simpleFrRight	blank.simpleFr	2	0	1700	1	0	13:24:33	2497522	0	0	0	0	0	0	0	0	0	0	0	0	0	0	0	0	0
112012	13:24:33	10036	pm.simpleFrRight	pm.simpleFr	2	57	758	0	0	13:24:33	2498308	0	0	0	0	0	0	0	0	0	0	0	0	0	0	0	0	0
112012	13:24:33	10036	pm.simpleFrRight	blank.simpleFr	2	0	2000	1	0	13:24:33	2500334	0	0	0	0	0	0	0	0	0	0	0	0	0	0	0	0	0
112012	13:24:33	10036	pm.simpleFrRight	pm.simpleFr	2	57	698	0	0	13:24:33	2501053	0	0	0	0	0	0	0	0	0	0	0	0	0	0	0	0	0
112012	13:24:33	10036	Trial2BackFr	N	3	0	1000	1	1	13:24:33	2572199	0	0	0	0	0	0	0	0	0	0	0	0	0	0	0	0	0
112012	13:24:33	10036	Trial2BackFr	N	3	0	1000	1	2	13:24:33	2573705	0	0	0	0	0	0	0	0	0	0	0	0	0	0	0	0	0
112012	13:24:33	10036	Trial2BackFr	N	3	0	1000	1	3	13:24:33	2575211	0	0	0	0	0	0	0	0	0	0	0	0	0	0	0	0	0
112012	13:24:33	10036	Trial2BackFr	N	3	0	1000	1	4	13:24:33	2576717	0	0	0	0	0	0	0	0	0	0	0	0	0	0	0	0	0
112012	13:24:33	10036	Trial2BackFr	N	3	0	1000	1	5	13:24:33	2578223	0	0	0	0	0	0	0	0	0	0	0	0	0	0	0	0	0
112012	13:24:33	10036	Trial2BackFr	N	3	0	1000	1	6	13:24:33	2579729	0	0	0	0	0	0	0	0	0	0	0	0	0	0	0	0	0
112012	13:24:33	10036	Trial2BackFr	N	3	0	1000	1	7	13:24:33	2581248	0	0	0	0	0	0	0	0	0	0	0	0	0	0	0	0	0
112012	13:24:33	10036	Trial2BackFr	N	3	0	1000	1	8	13:24:33	2582755	0	0	0	0	0	0	0	0	0	0	0	0	0	0	0	0	0
112012	13:24:33	10036	Trial2BackFr	Y	3	0	1000	0	8	13:24:33	2584261	0	0	0	0	0	0	0	0	0	0	0	0	0	0	0	0	0
112012	13:24:33	10036	Trial2BackFr	N	3	57	22	0	8	13:24:33	2584794	0	0	0	0	0	0	0	0	0	0	0	0	0	0	0	0	0
112012	13:24:33	10036	Trial2BackFr	N	3	0	1000	1	9	13:24:33	2587273	0	0	0	0	0	0	0	0	0	0	0	0	0	0	0	0	0
112012	13:24:33	10036	Trial2BackFr	N	3	0	1000	1	10	13:24:33	2588779	0	0	0	0	0	0	0	0	0	0	0	0	0	0	0	0	0
112012	13:24:33	10036	Trial2BackFr	Y	3	57	704	1	11	13:24:33	2589991	0	0	0	0	0	0	0	0	0	0	0	0	0	0	0	0	0
112012	13:24:33	10036	Trial2BackFr	N	3	0	1000	1	12	13:24:33	2591791	0	0	0	0	0	0	0	0	0	0	0	0	0	0	0	0	0
112012	13:24:33	10036	Trial2BackFr	N	3	0	1000	1	13	13:24:33	2593297	0	0	0	0	0	0	0	0	0	0	0	0	0	0	0	0	0
112012	13:24:33	10036	Trial2BackFr	N	3	0	1000	1	14	13:24:33	2594803	0	0	0	0	0	0	0	0	0	0	0	0	0	0	0	0	0
112012	13:24:33	10036	Trial2BackFr	N	3	0	1000	1	15	13:24:33	2596309	0	0	0	0	0	0	0	0	0	0	0	0	0	0	0	0	0
112012	13:24:33	10036	Trial2BackFr	N	3	0	1000	1	16	13:24:33	2597815	0	0	0	0	0	0	0	0	0	0	0	0	0	0	0	0	0
112012	13:24:33	10036	Trial2BackFr	Y	3	0	1000	0	16	13:24:33	2599321	0	0	0	0	0	0	0	0	0	0	0	0	0	0	0	0	0
112012	13:24:33	10036	Trial2BackFr	N	3	0	1000	1	17	13:24:33	2600827	0	0	0	0	0	0	0	0	0	0	0	0	0	0	0	0	0
112012	13:24:33	10036	Trial2BackFr	N	3	0	1000	1	18	13:24:33	2602347	0	0	0	0	0	0	0	0	0	0	0	0	0	0	0	0	0
112012	13:24:33	10036	Trial2BackFr	N	3	0	1000	1	19	13:24:33	2603853	0	0	0	0	0	0	0	0	0	0	0	0	0	0	0	0	0
112012	13:24:33	10036	Trial2BackFr	N	3	0	1000	1	20	13:24:33	2605359	0	0	0	0	0	0	0	0	0	0	0	0	0	0	0	0	0
112012	13:24:33	10036	Trial2BackFr	Y	3	57	892	1	21	13:24:33	2606772	0	0	0	0	0	0	0	0	0	0	0	0	0	0	0	0	0
112012	13:24:33	10036	Trial2BackFr	N	3	0	1000	1	22	13:24:33	2608371	0	0	0	0	0	0	0	0	0	0	0	0	0	0	0	0	0
112012	13:24:33	10036	Trial2BackFr	N	3	0	1000	1	23	13:24:33	2609877	0	0	0	0	0	0	0	0	0	0	0	0	0	0	0	0	0
112012	13:24:33	10036	Trial2BackFr	N	3	0	1000	1	24	13:24:33	2611383	0	0	0	0	0	0	0	0	0	0	0	0	0	0	0	0	0
112012	13:24:33	10036	Trial2BackFr	N	3	0	1000	1	25	13:24:33	2612902	0	0	0	0	0	0	0	0	0	0	0	0	0	0	0	0	0
112012	13:24:33	10036	Trial2BackFr	N	3	0	1000	1	26	13:24:33	2614409	0	0	0	0	0	0	0	0	0	0	0	0	0	0	0	0	0
112012	13:24:33	10036	Trial2BackFr	N	3	0	1000	1	27	13:24:33	2615915	0	0	0	0	0	0	0	0	0	0	0	0	0	0	0	0	0
112012	13:24:33	10036	Trial2BackFr	Y	3	57	880	1	28	13:24:33	2617314	0	0	0	0	0	0	0	0	0	0	0	0	0	0	0	0	0
112012	13:24:33	10036	Trial2BackFr	N	3	0	1000	1	29	13:24:33	2618927	0	0	0	0	0	0	0	0	0	0	0	0	0	0	0	0	0
112012	13:24:33	10036	Trial2BackFr	N	3	0	1000	1	30	13:24:33	2620433	0	0	0	0	0	0	0	0	0	0	0	0	0	0	0	0	0
112012	13:24:33	10036	Trial2BackFr	N	3	0	1000	1	31	13:24:33	2621939	0	0	0	0	0	0	0	0	0	0	0	0	0	0	0	0	0
112012	13:24:33	10036	Trial2BackFr	Y	3	57	840	1	32	13:24:33	2623298	0	0	0	0	0	0	0	0	0	0	0	0	0	0	0	0	0
112012	13:24:33	10036	Trial2BackFr	N	3	0	1000	1	33	13:24:33	2624951	0	0	0	0	0	0	0	0	0	0	0	0	0	0	0	0	0
112012	13:24:33	10036	Trial2BackFr	N	3	0	1000	1	34	13:24:33	2626457	0	0	0	0	0	0	0	0	0	0	0	0	0	0	0	0	0
112012	13:24:33	10036	Trial2BackFr	N	3	0	1000	1	35	13:24:33	2627963	0	0	0	0	0	0	0	0	0	0	0	0	0	0	0	0	0
112012	13:24:33	10036	Trial2BackFr	N	3	0	1000	1	36	13:24:33	2629483	0	0	0	0	0	0	0	0	0	0	0	0	0	0	0	0	0
112012	13:24:33	10036	Trial2BackFr	N	3	0	1000	1	37	13:24:33	2630989	0	0	0	0	0	0	0	0	0	0	0	0	0	0	0	0	0
112012	13:24:33	10036	Trial2BackFr	N	3	0	1000	1	38	13:24:33	2632495	0	0	0	0	0	0	0	0	0	0	0	0	0	0	0	0	0
112012	13:24:33	10036	Trial2BackFr	Y	3	0	1000	0	38	13:24:33	2634001	0	0	0	0	0	0	0	0	0	0	0	0	0	0	0	0	0
112012	13:24:33	10036	Trial2BackFr	N	3	0	1000	1	39	13:24:33	2635507	0	0	0	0	0	0	0	0	0	0	0	0	0	0	0	0	0
112012	13:24:33	10036	Trial2BackFr	N	3	0	1000	1	40	13:24:33	2637013	0	0	0	0	0	0	0	0	0	0	0	0	0	0	0	0	0
112012	13:24:33	10036	Trial2BackFr	N	3	0	1000	1	41	13:24:33	2638519	0	0	0	0	0	0	0	0	0	0	0	0	0	0	0	0	0
112012	13:24:33	10036	Trial2BackFr	N	3	0	1000	1	42	13:24:33	2640025	0	0	0	0	0	0	0	0	0	0	0	0	0	0	0	0	0
112012	13:24:33	10036	Trial2BackFr	Y	3	57	705	1	43	13:24:33	2641238	0	0	0	0	0	0	0	0	0	0	0	0	0	0	0	0	0
112012	13:24:33	10036	Trial2BackFr	N	3	0	1000	1	44	13:24:33	2643037	0	0	0	0	0	0	0	0	0	0	0	0	0	0	0	0	0
112012	13:24:33	10036	Trial2BackFr	N	3	0	1000	1	45	13:24:33	2644544	0	0	0	0	0	0	0	0	0	0	0	0	0	0	0	0	0
112012	13:24:33	10036	Trial2BackFr	N	3	0	1000	1	46	13:24:33	2646050	0	0	0	0	0	0	0	0	0	0	0	0	0	0	0	0	0
112012	13:24:33	10036	Trial2BackFr	N	3	0	1000	1	47	13:24:33	2647556	0	0	0	0	0	0	0	0	0	0	0	0	0	0	0	0	0
112012	13:24:33	10036	Trial2BackFr	N	3	0	1000	1	48	13:24:33	2649062	0	0	0	0	0	0	0	0	0	0	0	0	0	0	0	0	0
112012	13:24:33	10036	Trial2BackFr	Y	3	0	1000	0	48	13:24:33	2650568	0	0	0	0	0	0	0	0	0	0	0	0	0	0	0	0	0
112012	13:24:33	10036	Trial2BackFr	N	3	0	1000	1	49	13:24:33	2652074	0	0	0	0	0	0	0	0	0	0	0	0	0	0	0	0	0
112012	13:24:33	10036	Trial2BackFr	N	3	0	1000	1	50	13:24:33	2653580	0	0	0	0	0	0	0	0	0	0	0	0	0	0	0	0	0
112012	13:24:33	10036	Trial2BackFr	N	3	0	1000	1	51	13:24:33	2655099	0	0	0	0	0	0	0	0	0	0	0	0	0	0	0	0	0
112012	13:24:33	10036	Trial2BackFr	N	3	0	1000	1	52	13:24:33	2656619	0	0	0	0	0	0	0	0	0	0	0	0	0	0	0	0	0
112012	13:24:33	10036	Trial2BackFr	N	3	0	1000	1	53	13:24:33	2658125	0	0	0	0	0	0	0	0	0	0	0	0	0	0	0	0	0
112012	13:24:33	10036	Trial2BackFr	N	3	0	1000	1	54	13:24:33	2659631	0	0	0	0	0	0	0	0	0	0	0	0	0	0	0	0	0
112012	13:24:33	10036	Trial2BackFr	Y	3	57	734	1	55	13:24:33	2660897	0	0	0	0	0	0	0	0	0	0	0	0	0	0	0	0	0
112012	13:24:33	10036	Trial2BackFr	N	3	0	1000	1	56	13:24:33	2662656	0	0	0	0	0	0	0	0	0	0	0	0	0	0	0	0	0
112012	13:24:33	10036	Trial2BackFr	N	3	0	1000	1	57	13:24:33	2664162	0	0	0	0	0	0	0	0	0	0	0	0	0	0	0	0	0
112012	13:24:33	10036	Trial2BackFr	Y	3	57	936	1	58	13:24:33	2665615	0	0	0	0	0	0	0	0	0	0	0	0	0	0	0	0	0
112012	13:24:33	10036	Trial2BackFr	N	3	0	1000	1	59	13:24:33	2667175	0	0	0	0	0	0	0	0	0	0	0	0	0	0	0	0	0
112012	13:24:33	10036	Trial2BackFr	N	3	0	1000	1	60	13:24:33	2668681	0	0	0	0	0	0	0	0	0	0	0	0	0	0	0	0	0
112012	13:24:33	10036	Trial2BackFr	N	3	0	1000	1	61	13:24:33	2670187	0	0	0	0	0	0	0	0	0	0	0	0	0	0	0	0	0
112012	13:24:33	10036	Trial2BackFr	N	3	0	1000	1	62	13:24:33	2671693	0	0	0	0	0	0	0	0	0	0	0	0	0	0	0	0	0
112012	13:24:33	10036	Trial2BackFr	N	3	0	1000	1	63	13:24:33	2673199	0	0	0	0	0	0	0	0	0	0	0	0	0	0	0	0	0
112012	13:24:33	10036	Trial2BackFr	N	3	0	1000	1	64	13:24:33	2674718	0	0	0	0	0	0	0	0	0	0	0	0	0	0	0	0	0
112012	13:24:33	10036	Trial2BackFr	N	3	0	1000	1	65	13:24:33	2676224	0	0	0	0	0	0	0	0	0	0	0	0	0	0	0	0	0
112012	13:24:33	10036	Trial2BackFr	N	3	0	1000	1	66	13:24:33	2677730	0	0	0	0	0	0	0	0	0	0	0	0	0	0	0	0	0
112012	13:24:33	10036	Trial2BackFr	N	3	0	1000	1	67	13:24:33	2679236	0	0	0	0	0	0	0	0	0	0	0	0	0	0	0	0	0
112012	13:24:33	10036	Trial2BackFr	N	3	0	1000	1	68	13:24:33	2680743	0	0	0	0	0	0	0	0	0	0	0	0	0	0	0	0	0
112012	13:24:33	10036	Trial2BackFr	Y	3	0	1000	0	68	13:24:33	2682249	0	0	0	0	0	0	0	0	0	0	0	0	0	0	0	0	0
112012	13:24:33	10036	Trial2BackFr	N	3	0	1000	1	69	13:24:33	2683755	0	0	0	0	0	0	0	0	0	0	0	0	0	0	0	0	0
112012	13:24:33	10036	Trial2BackFr	N	3	0	1000	1	70	13:24:33	2685261	0	0	0	0	0	0	0	0	0	0	0	0	0	0	0	0	0
112012	13:24:33	10036	Trial2BackFr	N	3	0	1000	1	71	13:24:33	2686767	0	0	0	0	0	0	0	0	0	0	0	0	0	0	0	0	0
112012	13:24:33	10036	Trial2BackFr	Y	3	0	1000	0	71	13:24:33	2688273	0	0	0	0	0	0	0	0	0	0	0	0	0	0	0	0	0
112012	13:24:33	10036	Trial2BackFr	N	3	0	1000	1	72	13:24:33	2689779	0	0	0	0	0	0	0	0	0	0	0	0	0	0	0	0	0
112012	13:24:33	10036	Trial2BackFr	N	3	0	1000	1	73	13:24:33	2691285	0	0	0	0	0	0	0	0	0	0	0	0	0	0	0	0	0
112012	13:24:33	10036	Trial2BackFr	N	3	0	1000	1	74	13:24:33	2692791	0	0	0	0	0	0	0	0	0	0	0	0	0	0	0	0	0
112012	13:24:33	10036	Trial2BackFr	N	3	0	1000	1	75	13:24:33	2694297	0	0	0	0	0	0	0	0	0	0	0	0	0	0	0	0	0
112012	13:24:33	10036	Trial2BackFr	N	3	0	1000	1	76	13:24:33	2695803	0	0	0	0	0	0	0	0	0	0	0	0	0	0	0	0	0
112012	13:24:33	10036	Trial2BackFr	Y	3	57	910	1	77	13:24:33	2697229	0	0	0	0	0	0	0	0	0	0	0	0	0	0	0	0	0
112012	13:24:33	10036	Trial2BackFr	N	3	0	1000	1	78	13:24:33	2698815	0	0	0	0	0	0	0	0	0	0	0	0	0	0	0	0	0
112012	13:24:33	10036	Trial2BackFr	N	3	0	1000	1	79	13:24:33	2700321	0	0	0	0	0	0	0	0	0	0	0	0	0	0	0	0	0
112012	13:24:33	10036	Trial2BackFr	N	3	0	1000	1	80	13:24:33	2701827	0	0	0	0	0	0	0	0	0	0	0	0	0	0	0	0	0
112012	13:24:33	10036	Trial2BackFr	N	3	0	1000	1	81	13:24:33	2703334	0	0	0	0	0	0	0	0	0	0	0	0	0	0	0	0	0
112012	13:24:33	10036	Trial2BackFr	N	3	0	1000	1	82	13:24:33	2704840	0	0	0	0	0	0	0	0	0	0	0	0	0	0	0	0	0
112012	13:24:33	10036	Trial2BackFr	N	3	0	1000	1	83	13:24:33	2706346	0	0	0	0	0	0	0	0	0	0	0	0	0	0	0	0	0
112012	13:24:33	10036	Trial2BackFr	N	3	0	1000	1	84	13:24:33	2707852	0	0	0	0	0	0	0	0	0	0	0	0	0	0	0	0	0
112012	13:24:33	10036	Trial2BackFr	N	3	0	1000	1	85	13:24:33	2709358	0	0	0	0	0	0	0	0	0	0	0	0	0	0	0	0	0
112012	13:24:33	10036	Trial2BackFr	N	3	0	1000	1	86	13:24:33	2710864	0	0	0	0	0	0	0	0	0	0	0	0	0	0	0	0	0
112012	13:24:33	10036	Trial2BackFr	Y	3	0	1000	0	86	13:24:33	2712370	0	0	0	0	0	0	0	0	0	0	0	0	0	0	0	0	0
112012	13:24:33	10036	Trial2BackFr	N	3	0	1000	1	87	13:24:33	2713889	0	0	0	0	0	0	0	0	0	0	0	0	0	0	0	0	0
112012	13:24:33	10036	Trial2BackFr	N	3	0	1000	1	88	13:24:33	2715395	0	0	0	0	0	0	0	0	0	0	0	0	0	0	0	0	0
112012	13:24:33	10036	Trial2BackFr	N	3	0	1000	1	89	13:24:33	2716902	0	0	0	0	0	0	0	0	0	0	0	0	0	0	0	0	0
112012	13:24:33	10036	Trial2BackFr	N	3	0	1000	1	90	13:24:33	2718408	0	0	0	0	0	0	0	0	0	0	0	0	0	0	0	0	0
112012	13:24:33	10036	Trial2BackFr	N	3	0	1000	1	91	13:24:33	2719914	0	0	0	0	0	0	0	0	0	0	0	0	0	0	0	0	0
112012	13:24:33	10036	Trial2BackFr	N	3	0	1000	1	92	13:24:33	2721420	0	0	0	0	0	0	0	0	0	0	0	0	0	0	0	0	0
112012	13:24:33	10036	Trial2BackFr	N	3	0	1000	1	93	13:24:33	2722926	0	0	0	0	0	0	0	0	0	0	0	0	0	0	0	0	0
112012	13:24:33	10036	Trial2BackFr	N	3	0	1000	1	94	13:24:33	2724445	0	0	0	0	0	0	0	0	0	0	0	0	0	0	0	0	0
112012	13:24:33	10036	Trial2BackFr	Y	3	0	1000	0	94	13:24:33	2725951	0	0	0	0	0	0	0	0	0	0	0	0	0	0	0	0	0
112012	13:24:33	10036	Trial2BackFr	N	3	0	1000	1	95	13:24:33	2727457	0	0	0	0	0	0	0	0	0	0	0	0	0	0	0	0	0
112012	13:24:33	10036	Trial2BackFr	N	3	0	1000	1	96	13:24:33	2728963	0	0	0	0	0	0	0	0	0	0	0	0	0	0	0	0	0
112012	13:24:33	10036	Trial2BackFr	N	3	0	1000	1	97	13:24:33	2730470	0	0	0	0	0	0	0	0	0	0	0	0	0	0	0	0	0
112012	13:24:33	10036	Trial2BackFr	N	3	0	1000	1	98	13:24:33	2731976	0	0	0	0	0	0	0	0	0	0	0	0	0	0	0	0	0
112012	13:24:33	10036	Trial2BackFr	Y	3	57	977	1	99	13:24:33	2733468	0	0	0	0	0	0	0	0	0	0	0	0	0	0	0	0	0
112012	13:24:33	10036	Trial2BackFr	N	3	0	1000	1	100	13:24:33	2734988	0	0	0	0	0	0	0	0	0	0	0	0	0	0	0	0	0
112012	13:24:33	10036	Trial2BackFr	N	3	0	1000	1	101	13:24:33	2736494	0	0	0	0	0	0	0	0	0	0	0	0	0	0	0	0	0
112012	13:24:33	10036	Trial2BackFr	N	3	0	1000	1	102	13:24:33	2738000	0	0	0	0	0	0	0	0	0	0	0	0	0	0	0	0	0
112012	13:24:33	10036	Trial2BackFr	Y	3	0	1000	0	102	13:24:33	2739506	0	0	0	0	0	0	0	0	0	0	0	0	0	0	0	0	0
112012	13:24:33	10036	Trial2BackFr	N	3	0	1000	1	103	13:24:33	2741012	0	0	0	0	0	0	0	0	0	0	0	0	0	0	0	0	0
112012	13:24:33	10036	Trial2BackFr	N	3	0	1000	1	104	13:24:33	2742518	0	0	0	0	0	0	0	0	0	0	0	0	0	0	0	0	0
112012	13:24:33	10036	Trial2BackFr	N	3	0	1000	1	105	13:24:33	2744024	0	0	0	0	0	0	0	0	0	0	0	0	0	0	0	0	0
112012	13:24:33	10036	Trial2BackFr	N	3	0	1000	1	106	13:24:33	2745530	0	0	0	0	0	0	0	0	0	0	0	0	0	0	0	0	0
112012	13:24:33	10036	Trial2BackFr	N	3	0	1000	1	107	13:24:33	2747036	0	0	0	0	0	0	0	0	0	0	0	0	0	0	0	0	0
112012	13:24:33	10036	Trial2BackFr	Y	3	0	1000	0	107	13:24:33	2748543	0	0	0	0	0	0	0	0	0	0	0	0	0	0	0	0	0
112012	13:24:33	10036	Trial2BackFr	N	3	0	1000	1	108	13:24:33	2750049	0	0	0	0	0	0	0	0	0	0	0	0	0	0	0	0	0
112012	13:24:33	10036	Trial2BackFr	N	3	0	1000	1	109	13:24:33	2751554	0	0	0	0	0	0	0	0	0	0	0	0	0	0	0	0	0
112012	13:24:33	10036	Trial2BackFr	N	3	0	1000	1	110	13:24:33	2753061	0	0	0	0	0	0	0	0	0	0	0	0	0	0	0	0	0
112012	13:24:33	10036	Trial2BackFr	Y	3	57	628	1	111	13:24:33	2754207	0	0	0	0	0	0	0	0	0	0	0	0	0	0	0	0	0
112012	13:24:33	10036	Memory1R3moFr	ScoreFr	5	M6	22940	0	111	13:24:33	2809239	0	0	0	0	0	0	0	0	0	0	0	0	0	0	0	0	0
112012	13:24:33	10036	Memory1R3moFr	ScoreFr	5	M7	246	0	111	13:24:33	2809532	0	0	0	0	0	0	0	0	0	0	0	0	0	0	0	0	0
112012	13:24:33	10036	Memory1R3moFr	ScoreFr	5	M8	440	0	111	13:24:33	2810025	0	0	0	0	0	0	0	0	0	0	0	0	0	0	0	0	0
112012	13:24:33	10036	Memory1R3moFr	ScoreFr	5	Done	995	0	111	13:24:33	2811065	0	0	0	0	0	0	0	0	0	0	0	0	0	0	0	0	0
112012	13:24:33	10036	Memory2R3moFr	ScoreFr2	5	55	18154	0	111	13:24:33	2846544	0	0	0	0	0	0	0	0	0	0	0	0	0	0	0	0	0
112012	13:24:33	10036	Memory2R3moFr	ScoreFr2	5	66	700	0	111	13:24:33	2847290	0	0	0	0	0	0	0	0	0	0	0	0	0	0	0	0	0
112012	13:24:33	10036	Memory2R3moFr	ScoreFr2	5	77	777	0	111	13:24:33	2848117	0	0	0	0	0	0	0	0	0	0	0	0	0	0	0	0	0
112012	13:24:33	10036	Memory2R3moFr	ScoreFr2	5	88	271	0	111	13:24:33	2848437	0	0	0	0	0	0	0	0	0	0	0	0	0	0	0	0	0
112012	13:24:33	10036	Memory2R3moFr	ScoreFr2	5	11	1351	0	111	13:24:33	2849836	0	0	0	0	0	0	0	0	0	0	0	0	0	0	0	0	0
112012	13:24:33	10036	Memory2R3moFr	ScoreFr2	5	Done	27231	0	111	13:24:33	2877119	0	0	0	0	0	0	0	0	0	0	0	0	0	0	0	0	0
112012	13:24:33	10036	Memory3R3moFr	ScoreFr3	5	111	16800	0	111	13:24:33	2911265	0	0	0	0	0	0	0	0	0	0	0	0	0	0	0	0	0
112012	13:24:33	10036	Memory3R3moFr	ScoreFr3	5	222	282	0	111	13:24:33	2911599	0	0	0	0	0	0	0	0	0	0	0	0	0	0	0	0	0
112012	13:24:33	10036	Memory3R3moFr	ScoreFr3	5	444	3949	0	111	13:24:33	2915597	0	0	0	0	0	0	0	0	0	0	0	0	0	0	0	0	0
112012	13:24:33	10036	Memory3R3moFr	ScoreFr3	5	666	670	0	111	13:24:33	2916317	0	0	0	0	0	0	0	0	0	0	0	0	0	0	0	0	0
112012	13:24:33	10036	Memory3R3moFr	ScoreFr3	5	777	342	0	111	13:24:33	2916716	0	0	0	0	0	0	0	0	0	0	0	0	0	0	0	0	0
112012	13:24:33	10036	Memory3R3moFr	ScoreFr3	5	888	359	0	111	13:24:33	2917129	0	0	0	0	0	0	0	0	0	0	0	0	0	0	0	0	0
112012	13:24:33	10036	Memory3R3moFr	ScoreFr3	5	555	11457	0	111	13:24:33	2928631	0	0	0	0	0	0	0	0	0	0	0	0	0	0	0	0	0
112012	13:24:33	10036	Memory3R3moFr	ScoreFr3	5	Done	33451	0	111	13:24:33	2962138	0	0	0	0	0	0	0	0	0	0	0	0	0	0	0	0	0
112012	13:24:33	10036	LoriaFrLH3	Stop	6	4	3735	0	111	13:24:33	3057115	0	0	0	0	0	0	0	0	0	0	0	0	0	0	0	0	0
112012	13:24:33	10036	FrTrail	Trails	7	1Trails	462	0	111	13:24:33	3098245	0	0	0	0	0	0	0	0	0	0	0	0	0	0	0	0	0
112012	13:24:33	10036	Serial7Fr3mo	Serial7Fr3mo	8	93	1425	0	111	13:24:33	3155370	0	0	0	0	0	0	0	0	0	0	0	0	0	0	0	0	0
112012	13:24:33	10036	Serial7Fr3mo	Serial7Fr3mo	8	83	2105	0	111	13:24:33	3157489	0	0	0	0	0	0	0	0	0	0	0	0	0	0	0	0	0
112012	13:24:33	10036	Serial7Fr3mo	Serial7Fr3mo	8	79	1833	0	111	13:24:33	3159341	0	0	0	0	0	0	0	0	0	0	0	0	0	0	0	0	0
112012	13:24:33	10036	Serial7Fr3mo	Serial7Fr3mo	8	72	1821	0	111	13:24:33	3161181	1	0	0	0	0	0	0	0	0	0	0	0	0	0	0	0	0
112012	13:24:33	10036	Serial7Fr3mo	Serial7Fr3mo	8	65	1918	0	111	13:24:33	3163114	2	0	0	0	0	0	0	0	0	0	0	0	0	0	0	0	0
112012	13:24:33	10036	corsiblockFrFwrd	recallseqFrFwrd	9	resetCorsiFr	29382	0	111	13:24:33	3240789	2	0	0	0	0	0	0	0	0	0	0	0	0	0	0	0	0
112012	13:24:33	10036	corsiblockFrFwrd	recallseqFrFwrd	9	2	12426	0	111	13:24:33	3253264	2	0	0	0	0	0	0	0	0	0	0	0	0	0	0	0	0
112012	13:24:33	10036	corsiblockFrFwrd	recallseqFrFwrd	9	3	1398	0	111	13:24:33	3254717	2	0	0	0	0	0	0	0	0	0	0	0	0	0	0	0	0
112012	13:24:33	10036	corsiblockFrFwrd	recallseqFrFwrd	9	doneCorsiFr	4498	0	111	13:24:33	3259262	2	0	0	0	0	0	0	0	0	0	0	0	0	0	0	0	0
112012	13:24:33	10036	corsiblockFrFwrd	recallseqFrFwrd	9	2	1363	0	111	13:24:33	3265713	2	0	0	0	0	0	0	0	0	0	0	0	0	0	0	0	0
112012	13:24:33	10036	corsiblockFrFwrd	recallseqFrFwrd	9	6	1942	0	111	13:24:33	3267699	2	0	0	0	0	0	0	0	0	0	0	0	0	0	0	0	0
112012	13:24:33	10036	corsiblockFrFwrd	recallseqFrFwrd	9	doneCorsiFr	3732	0	111	13:24:33	3271484	2	0	0	0	0	0	0	0	0	0	0	0	0	0	0	2	0
112012	13:24:33	10036	corsiblockFrFwrd	recallseqFrFwrd	9	1	1234	0	111	13:24:33	3277828	2	0	0	0	0	0	0	0	0	0	0	0	0	0	0	2	0
112012	13:24:33	10036	corsiblockFrFwrd	recallseqFrFwrd	9	4	1371	0	111	13:24:33	3279254	2	0	0	0	0	0	0	0	0	0	0	0	0	0	0	2	0
112012	13:24:33	10036	corsiblockFrFwrd	recallseqFrFwrd	9	5	840	0	111	13:24:33	3280147	2	0	0	0	0	0	0	0	0	0	0	0	0	0	0	2	0
112012	13:24:33	10036	corsiblockFrFwrd	recallseqFrFwrd	9	doneCorsiFr	1539	0	111	13:24:33	3281733	2	0	0	0	0	0	0	0	0	0	0	0	0	0	0	2	0
112012	13:24:33	10036	corsiblockFrFwrd	recallseqFrFwrd	9	9	1427	0	111	13:24:33	3289250	2	0	0	0	0	0	0	0	0	0	0	0	0	0	0	2	0
112012	13:24:33	10036	corsiblockFrFwrd	recallseqFrFwrd	9	8	1028	0	111	13:24:33	3290330	2	0	0	0	0	0	0	0	0	0	0	0	0	0	0	2	0
112012	13:24:33	10036	corsiblockFrFwrd	recallseqFrFwrd	9	5	1413	0	111	13:24:33	3291796	2	0	0	0	0	0	0	0	0	0	0	0	0	0	0	2	0
112012	13:24:33	10036	corsiblockFrFwrd	recallseqFrFwrd	9	doneCorsiFr	1427	0	111	13:24:33	3293275	2	0	0	0	0	0	0	0	0	0	0	0	0	0	0	3	0
112012	13:24:33	10036	corsiblockFrFwrd	recallseqFrFwrd	9	2	2202	0	111	13:24:33	3301592	2	0	0	0	0	0	0	0	0	0	0	0	0	0	0	3	0
112012	13:24:33	10036	corsiblockFrFwrd	recallseqFrFwrd	9	4	782	0	111	13:24:33	3302418	2	0	0	0	0	0	0	0	0	0	0	0	0	0	0	3	0
112012	13:24:33	10036	corsiblockFrFwrd	recallseqFrFwrd	9	9	1068	0	111	13:24:33	3303538	2	0	0	0	0	0	0	0	0	0	0	0	0	0	0	3	0
112012	13:24:33	10036	corsiblockFrFwrd	recallseqFrFwrd	9	7	852	0	111	13:24:33	3304444	2	0	0	0	0	0	0	0	0	0	0	0	0	0	0	3	0
112012	13:24:33	10036	corsiblockFrFwrd	recallseqFrFwrd	9	doneCorsiFr	1554	0	111	13:24:33	3306044	2	0	0	0	0	0	0	0	0	0	0	0	0	0	0	4	0
112012	13:24:33	10036	corsiblockFrFwrd	recallseqFrFwrd	9	3	2397	0	111	13:24:33	3316573	2	0	0	0	0	0	0	0	0	0	0	0	0	0	0	4	0
112012	13:24:33	10036	corsiblockFrFwrd	recallseqFrFwrd	9	1	1345	0	111	13:24:33	3317972	2	0	0	0	0	0	0	0	0	0	0	0	0	0	0	4	0
112012	13:24:33	10036	corsiblockFrFwrd	recallseqFrFwrd	9	8	1274	0	111	13:24:33	3319292	2	0	0	0	0	0	0	0	0	0	0	0	0	0	0	4	0
112012	13:24:33	10036	corsiblockFrFwrd	recallseqFrFwrd	9	doneCorsiFr	2922	0	111	13:24:33	3322264	2	0	0	0	0	0	0	0	0	0	0	0	0	0	0	4	0
112012	13:24:33	10036	corsiblockFrFwrd	recallseqFrFwrd	9	8	1172	0	111	13:24:33	3331540	2	0	0	0	0	0	0	0	0	0	0	0	0	0	0	4	0
112012	13:24:33	10036	corsiblockFrFwrd	recallseqFrFwrd	9	6	1546	0	111	13:24:33	3333140	2	0	0	0	0	0	0	0	0	0	0	0	0	0	0	4	0
112012	13:24:33	10036	corsiblockFrFwrd	recallseqFrFwrd	9	9	1154	0	111	13:24:33	3334339	2	0	0	0	0	0	0	0	0	0	0	0	0	0	0	4	0
112012	13:24:33	10036	corsiblockFrFwrd	recallseqFrFwrd	9	4	1027	0	111	13:24:33	3335419	2	0	0	0	0	0	0	0	0	0	0	0	0	0	0	4	0
112012	13:24:33	10036	corsiblockFrFwrd	recallseqFrFwrd	9	2	907	0	111	13:24:33	3336378	2	0	0	0	0	0	0	0	0	0	0	0	0	0	0	4	0
112012	13:24:33	10036	corsiblockFrFwrd	recallseqFrFwrd	9	doneCorsiFr	1627	0	111	13:24:33	3338058	2	0	0	0	0	0	0	0	0	0	0	0	0	0	0	5	0
112012	13:24:33	10036	corsiblockFrFwrd	recallseqFrFwrd	9	7	1941	0	111	13:24:33	3348107	2	0	0	0	0	0	0	0	0	0	0	0	0	0	0	5	0
112012	13:24:33	10036	corsiblockFrFwrd	recallseqFrFwrd	9	3	1514	0	111	13:24:33	3349666	2	0	0	0	0	0	0	0	0	0	0	0	0	0	0	5	0
112012	13:24:33	10036	corsiblockFrFwrd	recallseqFrFwrd	9	8	1563	0	111	13:24:33	3351279	2	0	0	0	0	0	0	0	0	0	0	0	0	0	0	5	0
112012	13:24:33	10036	corsiblockFrFwrd	recallseqFrFwrd	9	4	1046	0	111	13:24:33	3352372	2	0	0	0	0	0	0	0	0	0	0	0	0	0	0	5	0
112012	13:24:33	10036	corsiblockFrFwrd	recallseqFrFwrd	9	2	1001	0	111	13:24:33	3353425	2	0	0	0	0	0	0	0	0	0	0	0	0	0	0	5	0
112012	13:24:33	10036	corsiblockFrFwrd	recallseqFrFwrd	9	doneCorsiFr	2925	0	111	13:24:33	3356397	2	0	0	0	0	0	0	0	0	0	0	0	0	0	0	5	0
112012	13:24:33	10036	corsiblockFrFwrd	recallseqFrFwrd	9	6	3308	0	111	13:24:33	3368792	2	0	0	0	0	0	0	0	0	0	0	0	0	0	0	5	0
112012	13:24:33	10036	corsiblockFrFwrd	recallseqFrFwrd	9	3	1829	0	111	13:24:33	3370671	2	0	0	0	0	0	0	0	0	0	0	0	0	0	0	5	0
112012	13:24:33	10036	corsiblockFrFwrd	recallseqFrFwrd	9	1	1358	0	111	13:24:33	3372084	2	0	0	0	0	0	0	0	0	0	0	0	0	0	0	5	0
112012	13:24:33	10036	corsiblockFrFwrd	recallseqFrFwrd	9	4	1305	0	111	13:24:33	3373444	2	0	0	0	0	0	0	0	0	0	0	0	0	0	0	5	0
112012	13:24:33	10036	corsiblockFrFwrd	recallseqFrFwrd	9	9	1162	0	111	13:24:33	3374657	2	0	0	0	0	0	0	0	0	0	0	0	0	0	0	5	0
112012	13:24:33	10036	corsiblockFrFwrd	recallseqFrFwrd	9	doneCorsiFr	8429	0	111	13:24:33	3383133	2	0	0	0	0	0	0	0	0	0	0	0	0	0	0	5	0
112012	13:24:33	10036	corsiblockFrRev	recallseqFrRev	10	3	3491	0	111	13:24:33	3401300	2	0	0	0	0	0	0	0	0	0	0	0	0	0	0	5	0
112012	13:24:33	10036	corsiblockFrRev	recallseqFrRev	10	5	714	0	111	13:24:33	3402059	2	0	0	0	0	0	0	0	0	0	0	0	0	0	0	5	0
112012	13:24:33	10036	corsiblockFrRev	recallseqFrRev	10	doneCorsiFr	2490	0	111	13:24:33	3404605	2	0	0	0	0	0	0	0	0	0	0	0	0	0	0	5	2
112012	13:24:33	10036	corsiblockFrRev	recallseqFrRev	10	7	1602	0	111	13:24:33	3412335	2	0	0	0	0	0	0	0	0	0	0	0	0	0	0	5	2
112012	13:24:33	10036	corsiblockFrRev	recallseqFrRev	10	1	1278	0	111	13:24:33	3413668	2	0	0	0	0	0	0	0	0	0	0	0	0	0	0	5	2
112012	13:24:33	10036	corsiblockFrRev	recallseqFrRev	10	4	1297	0	111	13:24:33	3415014	2	0	0	0	0	0	0	0	0	0	0	0	0	0	0	5	2
112012	13:24:33	10036	corsiblockFrRev	recallseqFrRev	10	doneCorsiFr	2535	0	111	13:24:33	3417599	2	0	0	0	0	0	0	0	0	0	0	0	0	0	0	5	3
112012	13:24:33	10036	corsiblockFrRev	recallseqFrRev	10	9	2010	0	111	13:24:33	3426756	2	0	0	0	0	0	0	0	0	0	0	0	0	0	0	5	3
112012	13:24:33	10036	corsiblockFrRev	recallseqFrRev	10	8	1825	0	111	13:24:33	3428635	2	0	0	0	0	0	0	0	0	0	0	0	0	0	0	5	3
112012	13:24:33	10036	corsiblockFrRev	recallseqFrRev	10	2	1081	0	111	13:24:33	3429768	2	0	0	0	0	0	0	0	0	0	0	0	0	0	0	5	3
112012	13:24:33	10036	corsiblockFrRev	recallseqFrRev	10	6	1228	0	111	13:24:33	3431048	2	0	0	0	0	0	0	0	0	0	0	0	0	0	0	5	3
112012	13:24:33	10036	corsiblockFrRev	recallseqFrRev	10	doneCorsiFr	1245	0	111	13:24:33	3432341	2	0	0	0	0	0	0	0	0	0	0	0	0	0	0	5	3
112012	13:24:33	10036	corsiblockFrRev	recallseqFrRev	10	7	1691	0	111	13:24:33	3441124	2	0	0	0	0	0	0	0	0	0	0	0	0	0	0	5	3
112012	13:24:33	10036	corsiblockFrRev	recallseqFrRev	10	4	881	0	111	13:24:33	3442057	2	0	0	0	0	0	0	0	0	0	0	0	0	0	0	5	3
112012	13:24:33	10036	corsiblockFrRev	recallseqFrRev	10	6	932	0	111	13:24:33	3443043	2	0	0	0	0	0	0	0	0	0	0	0	0	0	0	5	3
112012	13:24:33	10036	corsiblockFrRev	recallseqFrRev	10	3	1122	0	111	13:24:33	3444216	2	0	0	0	0	0	0	0	0	0	0	0	0	0	0	5	3
112012	13:24:33	10036	corsiblockFrRev	recallseqFrRev	10	doneCorsiFr	1565	0	111	13:24:33	3445828	2	0	0	0	0	0	0	0	0	0	0	0	0	0	0	5	3
112012	13:24:33	10036	testFr3mo	WordsFr3mo	11	1Fr3mo	698	0	111	13:24:33	3472525	2	3	0	0	0	0	0	0	0	0	0	0	0	0	0	5	3
112012	13:24:33	10036	testFr3mo	WordsFr3mo	11	2Fr3mo	264	0	111	13:24:33	3472845	2	3	3	0	0	0	0	0	0	0	0	0	0	0	0	5	3
112012	13:24:33	10036	testFr3mo	WordsFr3mo	11	4Fr3mo	2840	0	111	13:24:33	3475737	2	3	3	0	3	0	0	0	0	0	0	0	0	0	0	5	3
112012	13:24:33	10036	testFr3mo	WordsFr3mo	11	5Fr3mo	12507	0	111	13:24:33	3488292	2	3	3	0	3	3	0	0	0	0	0	0	0	0	0	5	3
112012	13:24:33	10036	testFr3mo	WordsFr3mo	11	8Fr3mo	512	0	111	13:24:33	3488852	2	3	3	0	3	3	0	0	3	0	0	0	0	0	0	5	3
112012	13:24:33	10036	testFr3mo	WordsFr3mo	11	7Fr3mo	1688	0	111	13:24:33	3490584	2	3	3	0	3	3	0	3	3	0	0	0	0	0	0	5	3
112012	13:24:33	10036	testFr3mo	WordsFr3mo	11	DoneFr3mo	13092	0	111	13:24:33	3503726	2	3	3	0	3	3	0	3	3	0	0	0	0	0	0	5	3
112012	13:24:33	10036	testFr3mo	Cat3Fr3mo	11	0	1	0	111	13:24:33	3503738	2	3	3	0	3	3	0	3	3	0	0	0	0	0	0	5	3
112012	13:24:33	10036	testFr3mo	Ch3Fr3mo	11	RR3Fr3mo	16407	0	111	13:24:33	3520186	2	3	3	1	3	3	0	3	3	0	0	0	0	0	0	5	3
112012	13:24:33	10036	testFr3mo	Cat6Fr3mo	11	R6Fr3mo	4272	0	111	13:24:33	3524491	2	3	3	1	3	3	2	3	3	0	0	0	0	0	0	5	3
112012	13:24:33	10036	DigitSpanFwrdFr3mo	Score1FwrdFr3mo	12	DS1	6112	0	111	13:24:33	3546762	2	3	3	1	3	3	2	3	3	0	0	0	0	0	0	5	3
112012	13:24:33	10036	DigitSpanFwrdFr3mo	Gate1FwrdFr3mo	12	0	1	0	111	13:24:33	3546766	2	3	3	1	3	3	2	3	3	3	0	0	0	0	0	5	3
112012	13:24:33	10036	DigitSpanFwrdFr3mo	Score2FwrdFr3mo	12	DS1	4381	0	111	13:24:33	3556825	2	3	3	1	3	3	2	3	3	3	0	0	0	0	0	5	3
112012	13:24:33	10036	DigitSpanFwrdFr3mo	Gate3FwrdFr3mo	12	0	1	0	111	13:24:33	3556829	2	3	3	1	3	3	2	3	3	4	0	0	0	0	0	5	3
112012	13:24:33	10036	DigitSpanFwrdFr3mo	Score3FwrdFr3mo	12	DS2	8372	0	111	13:24:33	3572431	2	3	3	1	3	3	2	3	3	4	0	0	0	0	0	5	3
112012	13:24:33	10036	DigitSpanFwrdFr3mo	Gate5FwrdFr3mo	12	0	1	0	111	13:24:33	3572436	2	3	3	1	3	3	2	3	3	4	0	0	0	0	0	5	3
112012	13:24:33	10036	DigitSpanFwrdFr3mo	Score33FwrdFr3mo	12	DS1	5559	0	111	13:24:33	3585200	2	3	3	1	3	3	2	3	3	4	0	0	0	0	0	5	3
112012	13:24:33	10036	DigitSpanFwrdFr3mo	Gate6FwrdFr3mo	12	0	1	0	111	13:24:33	3585204	2	3	3	1	3	3	2	3	3	5	0	0	0	0	0	5	3
112012	13:24:33	10036	DigitSpanFwrdFr3mo	Score4FwrdFr3mo	12	DS2	15620	0	111	13:24:33	3609337	2	3	3	1	3	3	2	3	3	5	0	0	0	0	0	5	3
112012	13:24:33	10036	DigitSpanFwrdFr3mo	Gate7FwrdFr3mo	12	0	1	0	111	13:24:33	3609341	2	3	3	1	3	3	2	3	3	5	0	0	0	0	0	5	3
112012	13:24:33	10036	DigitSpanFwrdFr3mo	Score44FwrdFr3mo	12	DS2	8736	0	111	13:24:33	3626370	2	3	3	1	3	3	2	3	3	5	0	0	0	0	0	5	3
112012	13:24:33	10036	DigitSpanFr3mo	Score1Fr3mo	13	DS1	3917	0	111	13:24:33	3641498	2	3	3	1	3	3	2	3	3	5	0	0	0	0	0	5	3
112012	13:24:33	10036	DigitSpanFr3mo	Gate1Fr3mo	13	0	1	0	111	13:24:33	3641502	2	3	3	1	3	3	2	3	3	5	2	0	0	0	0	5	3
112012	13:24:33	10036	DigitSpanFr3mo	Score2Fr3mo	13	DS1	8235	0	111	13:24:33	3654306	2	3	3	1	3	3	2	3	3	5	2	0	0	0	0	5	3
112012	13:24:33	10036	DigitSpanFr3mo	Gate3Fr3mo	13	0	1	0	111	13:24:33	3654311	2	3	3	1	3	3	2	3	3	5	3	0	0	0	0	5	3
112012	13:24:33	10036	DigitSpanFr3mo	Score3Fr3mo	13	DS1	5075	0	111	13:24:33	3665062	2	3	3	1	3	3	2	3	3	5	3	0	0	0	0	5	3
112012	13:24:33	10036	DigitSpanFr3mo	Gate5Fr3mo	13	0	1	0	111	13:24:33	3665066	2	3	3	1	3	3	2	3	3	5	4	0	0	0	0	5	3
112012	13:24:33	10036	DigitSpanFr3mo	Score4Fr3mo	13	DS2	8557	0	111	13:24:33	3680855	2	3	3	1	3	3	2	3	3	5	4	0	0	0	0	5	3
112012	13:24:33	10036	DigitSpanFr3mo	Gate7Fr3mo	13	0	1	0	111	13:24:33	3680861	2	3	3	1	3	3	2	3	3	5	4	0	0	0	0	5	3
112012	13:24:33	10036	DigitSpanFr3mo	Score44Fr3mo	13	DS1	7781	0	111	13:24:33	3695849	2	3	3	1	3	3	2	3	3	5	4	0	0	0	0	5	3
112012	13:24:33	10036	DigitSpanFr3mo	Gate8Fr3mo	13	0	1	0	111	13:24:33	3695854	2	3	3	1	3	3	2	3	3	5	5	0	0	0	0	5	3
112012	13:24:33	10036	DigitSpanFr3mo	Score5Fr3mo	13	DS2	9761	0	111	13:24:33	3714122	2	3	3	1	3	3	2	3	3	5	5	0	0	0	0	5	3
112012	13:24:33	10036	DigitSpanFr3mo	Gate9Fr3mo	13	0	1	0	111	13:24:33	3714126	2	3	3	1	3	3	2	3	3	5	5	0	0	0	0	5	3
112012	13:24:33	10036	DigitSpanFr3mo	Score55Fr3mo	13	DS2	13973	0	111	13:24:33	3736393	2	3	3	1	3	3	2	3	3	5	5	0	0	0	0	5	3
112012	13:24:33	10036	Trial	ResponseIL	14	0	175	0	111	13:24:33	3851601	2	3	3	1	3	3	2	3	3	5	5	0	0	0	0	5	3
112012	13:24:33	10036	Trial	IncongruentLeft	14	0	1000	0	111	13:24:33	3852614	2	3	3	1	3	3	2	3	3	5	5	0	0	0	0	5	3
112012	13:24:33	10036	Trial	ResponseCR	14	0	175	0	111	13:24:33	3853321	2	3	3	1	3	3	2	3	3	5	5	0	0	0	0	5	3
112012	13:24:33	10036	Trial	CongruentRight	14	205	894	1	111	13:24:33	3854240	2	3	3	1	3	3	2	3	3	5	5	0	0	0	0	5	3
112012	13:24:33	10036	Trial	ResponseIR	14	0	175	0	111	13:24:33	3855027	2	3	3	1	3	3	2	3	3	5	5	0	0	0	0	5	3
112012	13:24:33	10036	Trial	IncongruentRight	14	205	468	1	111	13:24:33	3855520	2	3	3	1	3	3	2	3	3	5	5	0	0	0	0	5	3
112012	13:24:33	10036	Trial	ResponseCL	14	0	175	0	111	13:24:33	3856733	2	3	3	1	3	3	2	3	3	5	5	0	0	0	0	5	3
112012	13:24:33	10036	Trial	CongruentLeft	14	203	378	1	111	13:24:33	3857132	2	3	3	1	3	3	2	3	3	5	5	0	0	0	0	5	3
112012	13:24:33	10036	Trial	ResponseCR	14	0	175	0	111	13:24:33	3858439	2	3	3	1	3	3	2	3	3	5	5	0	0	0	0	5	3
112012	13:24:33	10036	Trial	CongruentRight	14	205	448	1	111	13:24:33	3858905	2	3	3	1	3	3	2	3	3	5	5	0	0	0	0	5	3
112012	13:24:33	10036	Trial	ResponseIR	14	0	175	0	111	13:24:33	3860145	2	3	3	1	3	3	2	3	3	5	5	0	0	0	0	5	3
112012	13:24:33	10036	Trial	IncongruentRight	14	205	438	1	111	13:24:33	3860611	2	3	3	1	3	3	2	3	3	5	5	0	0	0	0	5	3
112012	13:24:33	10036	Trial	ResponseCL	14	0	175	0	111	13:24:33	3861851	2	3	3	1	3	3	2	3	3	5	5	0	0	0	0	5	3
112012	13:24:33	10036	Trial	CongruentLeft	14	203	460	1	111	13:24:33	3862330	2	3	3	1	3	3	2	3	3	5	5	0	0	0	0	5	3
112012	13:24:33	10036	Trial	ResponseIL	14	0	175	0	111	13:24:33	3863557	2	3	3	1	3	3	2	3	3	5	5	0	0	0	0	5	3
112012	13:24:33	10036	Trial	IncongruentLeft	14	203	466	1	111	13:24:33	3864050	2	3	3	1	3	3	2	3	3	5	5	0	0	0	0	5	3
112012	13:24:33	10036	Trial	ResponseIL	14	0	175	0	111	13:24:33	3865263	2	3	3	1	3	3	2	3	3	5	5	0	0	0	0	5	3
112012	13:24:33	10036	Trial	IncongruentLeft	14	203	488	1	111	13:24:33	3865769	2	3	3	1	3	3	2	3	3	5	5	0	0	0	0	5	3
112012	13:24:33	10036	Trial	ResponseCR	14	0	175	0	111	13:24:33	3866969	2	3	3	1	3	3	2	3	3	5	5	0	0	0	0	5	3
112012	13:24:33	10036	Trial	CongruentRight	14	205	286	1	111	13:24:33	3867275	2	3	3	1	3	3	2	3	3	5	5	0	0	0	0	5	3
112012	13:24:33	10036	Trial	ResponseIR	14	0	175	0	111	13:24:33	3868675	2	3	3	1	3	3	2	3	3	5	5	0	0	0	0	5	3
112012	13:24:33	10036	Trial	IncongruentRight	14	205	420	1	111	13:24:33	3869114	2	3	3	1	3	3	2	3	3	5	5	0	0	0	0	5	3
112012	13:24:33	10036	Trial	ResponseCL	14	0	175	0	111	13:24:33	3870381	2	3	3	1	3	3	2	3	3	5	5	0	0	0	0	5	3
112012	13:24:33	10036	Trial	CongruentLeft	14	203	410	1	111	13:24:33	3870807	2	3	3	1	3	3	2	3	3	5	5	0	0	0	0	5	3
112012	13:24:33	10036	Trial	ResponseCR	14	0	175	0	111	13:24:33	3872087	2	3	3	1	3	3	2	3	3	5	5	0	0	0	0	5	3
112012	13:24:33	10036	Trial	CongruentRight	14	205	304	1	111	13:24:33	3872407	2	3	3	1	3	3	2	3	3	5	5	0	0	0	0	5	3
112012	13:24:33	10036	Trial	ResponseIL	14	0	175	0	111	13:24:33	3873793	2	3	3	1	3	3	2	3	3	5	5	0	0	0	0	5	3
112012	13:24:33	10036	Trial	IncongruentLeft	14	203	390	1	111	13:24:33	3874206	2	3	3	1	3	3	2	3	3	5	5	0	0	0	0	5	3
112012	13:24:33	10036	Trial	ResponseIR	14	0	175	0	111	13:24:33	3875498	2	3	3	1	3	3	2	3	3	5	5	0	0	0	0	5	3
112012	13:24:33	10036	Trial	IncongruentRight	14	205	460	1	111	13:24:33	3875978	2	3	3	1	3	3	2	3	3	5	5	0	0	0	0	5	3
112012	13:24:33	10036	Trial	ResponseCR	14	0	175	0	111	13:24:33	3877205	2	3	3	1	3	3	2	3	3	5	5	0	0	0	0	5	3
112012	13:24:33	10036	Trial	CongruentRight	14	205	450	1	111	13:24:33	3877671	2	3	3	1	3	3	2	3	3	5	5	0	0	0	0	5	3
112012	13:24:33	10036	Trial	ResponseCL	14	0	175	0	111	13:24:33	3878911	2	3	3	1	3	3	2	3	3	5	5	0	0	0	0	5	3
112012	13:24:33	10036	Trial	CongruentLeft	14	203	295	1	111	13:24:33	3879230	2	3	3	1	3	3	2	3	3	5	5	0	0	0	0	5	3
112012	13:24:33	10036	Trial	ResponseCR	14	0	175	0	111	13:24:33	3880617	2	3	3	1	3	3	2	3	3	5	5	0	0	0	0	5	3
112012	13:24:33	10036	Trial	CongruentRight	14	205	349	1	111	13:24:33	3880990	2	3	3	1	3	3	2	3	3	5	5	0	0	0	0	5	3
112012	13:24:33	10036	Trial	ResponseIR	14	0	175	0	111	13:24:33	3882323	2	3	3	1	3	3	2	3	3	5	5	0	0	0	0	5	3
112012	13:24:33	10036	Trial	IncongruentRight	14	205	531	1	111	13:24:33	3882882	2	3	3	1	3	3	2	3	3	5	5	0	0	0	0	5	3
112012	13:24:33	10036	Trial	ResponseIL	14	0	175	0	111	13:24:33	3884029	2	3	3	1	3	3	2	3	3	5	5	0	0	0	0	5	3
112012	13:24:33	10036	Trial	IncongruentLeft	14	203	441	1	111	13:24:33	3884495	2	3	3	1	3	3	2	3	3	5	5	0	0	0	0	5	3
112012	13:24:33	10036	Trial	ResponseIL	14	0	175	0	111	13:24:33	3885735	2	3	3	1	3	3	2	3	3	5	5	0	0	0	0	5	3
112012	13:24:33	10036	Trial	IncongruentLeft	14	203	480	1	111	13:24:33	3886241	2	3	3	1	3	3	2	3	3	5	5	0	0	0	0	5	3
112012	13:24:33	10036	Trial	ResponseCL	14	0	175	0	111	13:24:33	3887441	2	3	3	1	3	3	2	3	3	5	5	0	0	0	0	5	3
112012	13:24:33	10036	Trial	CongruentLeft	14	203	437	1	111	13:24:33	3887907	2	3	3	1	3	3	2	3	3	5	5	0	0	0	0	5	3
112012	13:24:33	10036	Trial	ResponseCR	14	0	175	0	111	13:24:33	3889147	2	3	3	1	3	3	2	3	3	5	5	0	0	0	0	5	3
112012	13:24:33	10036	Trial	CongruentRight	14	205	555	1	111	13:24:33	3889720	2	3	3	1	3	3	2	3	3	5	5	0	0	0	0	5	3
112012	13:24:33	10036	Trial	ResponseIL	14	0	175	0	111	13:24:33	3890853	2	3	3	1	3	3	2	3	3	5	5	0	0	0	0	5	3
112012	13:24:33	10036	Trial	IncongruentLeft	14	203	417	1	111	13:24:33	3891292	2	3	3	1	3	3	2	3	3	5	5	0	0	0	0	5	3
112012	13:24:33	10036	Trial	ResponseIR	14	0	175	0	111	13:24:33	3892559	2	3	3	1	3	3	2	3	3	5	5	0	0	0	0	5	3
112012	13:24:33	10036	Trial	IncongruentRight	14	205	535	1	111	13:24:33	3893118	2	3	3	1	3	3	2	3	3	5	5	0	0	0	0	5	3
112012	13:24:33	10036	Trial	ResponseCR	14	0	175	0	111	13:24:33	3894265	2	3	3	1	3	3	2	3	3	5	5	0	0	0	0	5	3
112012	13:24:33	10036	Trial	CongruentRight	14	205	510	1	111	13:24:33	3894798	2	3	3	1	3	3	2	3	3	5	5	0	0	0	0	5	3
112012	13:24:33	10036	Trial	ResponseCL	14	0	175	0	111	13:24:33	3895971	2	3	3	1	3	3	2	3	3	5	5	0	0	0	0	5	3
112012	13:24:33	10036	Trial	CongruentLeft	14	203	531	1	111	13:24:33	3896530	2	3	3	1	3	3	2	3	3	5	5	0	0	0	0	5	3
112012	13:24:33	10036	Trial	ResponseIR	14	0	175	0	111	13:24:33	3897677	2	3	3	1	3	3	2	3	3	5	5	0	0	0	0	5	3
112012	13:24:33	10036	Trial	IncongruentRight	14	0	1000	0	111	13:24:33	3898689	2	3	3	1	3	3	2	3	3	5	5	0	0	0	0	5	3
112012	13:24:33	10036	Trial	ResponseIL	14	0	175	0	111	13:24:33	3899396	2	3	3	1	3	3	2	3	3	5	5	0	0	0	0	5	3
112012	13:24:33	10036	Trial	IncongruentLeft	14	203	370	1	111	13:24:33	3899782	2	3	3	1	3	3	2	3	3	5	5	0	0	0	0	5	3
112012	13:24:33	10036	Trial	ResponseIR	14	0	175	0	111	13:24:33	3901102	2	3	3	1	3	3	2	3	3	5	5	0	0	0	0	5	3
112012	13:24:33	10036	Trial	IncongruentRight	14	205	456	1	111	13:24:33	3901582	2	3	3	1	3	3	2	3	3	5	5	0	0	0	0	5	3
112012	13:24:33	10036	Trial	ResponseCR	14	0	175	0	111	13:24:33	3902808	2	3	3	1	3	3	2	3	3	5	5	0	0	0	0	5	3
112012	13:24:33	10036	Trial	CongruentRight	14	205	350	1	111	13:24:33	3903181	2	3	3	1	3	3	2	3	3	5	5	0	0	0	0	5	3
112012	13:24:33	10036	Trial	ResponseIL	14	0	175	0	111	13:24:33	3904514	2	3	3	1	3	3	2	3	3	5	5	0	0	0	0	5	3
112012	13:24:33	10036	Trial	IncongruentLeft	14	203	404	1	111	13:24:33	3904940	2	3	3	1	3	3	2	3	3	5	5	0	0	0	0	5	3
112012	13:24:33	10036	Trial	ResponseCL	14	0	175	0	111	13:24:33	3906220	2	3	3	1	3	3	2	3	3	5	5	0	0	0	0	5	3
112012	13:24:33	10036	Trial	CongruentLeft	14	203	330	1	111	13:24:33	3906567	2	3	3	1	3	3	2	3	3	5	5	0	0	0	0	5	3
112012	13:24:33	10036	Trial	ResponseCR	14	0	175	0	111	13:24:33	3907926	2	3	3	1	3	3	2	3	3	5	5	0	0	0	0	5	3
112012	13:24:33	10036	Trial	CongruentRight	14	205	416	1	111	13:24:33	3908366	2	3	3	1	3	3	2	3	3	5	5	0	0	0	0	5	3
112012	13:24:33	10036	Trial	ResponseIL	14	0	175	0	111	13:24:33	3909632	2	3	3	1	3	3	2	3	3	5	5	0	0	0	0	5	3
112012	13:24:33	10036	Trial	IncongruentLeft	14	203	390	1	111	13:24:33	3910045	2	3	3	1	3	3	2	3	3	5	5	0	0	0	0	5	3
112012	13:24:33	10036	Trial	ResponseIR	14	0	175	0	111	13:24:33	3911338	2	3	3	1	3	3	2	3	3	5	5	0	0	0	0	5	3
112012	13:24:33	10036	Trial	IncongruentRight	14	205	444	1	111	13:24:33	3911804	2	3	3	1	3	3	2	3	3	5	5	0	0	0	0	5	3
112012	13:24:33	10036	Trial	ResponseIR	14	0	175	0	111	13:24:33	3913044	2	3	3	1	3	3	2	3	3	5	5	0	0	0	0	5	3
112012	13:24:33	10036	Trial	IncongruentRight	14	205	466	1	111	13:24:33	3913537	2	3	3	1	3	3	2	3	3	5	5	0	0	0	0	5	3
112012	13:24:33	10036	Trial	ResponseCL	14	0	175	0	111	13:24:33	3914750	2	3	3	1	3	3	2	3	3	5	5	0	0	0	0	5	3
112012	13:24:33	10036	Trial	CongruentLeft	14	203	472	1	111	13:24:33	3915243	2	3	3	1	3	3	2	3	3	5	5	0	0	0	0	5	3
112012	13:24:33	10036	Trial	ResponseIL	14	0	175	0	111	13:24:33	3916456	2	3	3	1	3	3	2	3	3	5	5	0	0	0	0	5	3
112012	13:24:33	10036	Trial	IncongruentLeft	14	0	1000	0	111	13:24:33	3917469	2	3	3	1	3	3	2	3	3	5	5	0	0	0	0	5	3
112012	13:24:33	10036	Trial	ResponseCR	14	0	175	0	111	13:24:33	3918175	2	3	3	1	3	3	2	3	3	5	5	0	0	0	0	5	3
112012	13:24:33	10036	Trial	CongruentRight	14	205	246	1	111	13:24:33	3918442	2	3	3	1	3	3	2	3	3	5	5	0	0	0	0	5	3
112012	13:24:33	10036	Trial	ResponseCL	14	0	175	0	111	13:24:33	3919881	2	3	3	1	3	3	2	3	3	5	5	0	0	0	0	5	3
112012	13:24:33	10036	Trial	CongruentLeft	14	203	332	1	111	13:24:33	3920241	2	3	3	1	3	3	2	3	3	5	5	0	0	0	0	5	3
112012	13:24:33	10036	Trial	ResponseIR	14	0	175	0	111	13:24:33	3921587	2	3	3	1	3	3	2	3	3	5	5	0	0	0	0	5	3
112012	13:24:33	10036	Trial	IncongruentRight	14	205	243	1	111	13:24:33	3921854	2	3	3	1	3	3	2	3	3	5	5	0	0	0	0	5	3
112012	13:24:33	10036	Trial	ResponseCR	14	0	175	0	111	13:24:33	3923293	2	3	3	1	3	3	2	3	3	5	5	0	0	0	0	5	3
112012	13:24:33	10036	Trial	CongruentRight	14	205	472	1	111	13:24:33	3923786	2	3	3	1	3	3	2	3	3	5	5	0	0	0	0	5	3
112012	13:24:33	10036	Trial	ResponseIL	14	0	175	0	111	13:24:33	3924999	2	3	3	1	3	3	2	3	3	5	5	0	0	0	0	5	3
112012	13:24:33	10036	Trial	IncongruentLeft	14	203	462	1	111	13:24:33	3925479	2	3	3	1	3	3	2	3	3	5	5	0	0	0	0	5	3
112012	13:24:33	10036	Trial	ResponseCL	14	0	175	0	111	13:24:33	3926705	2	3	3	1	3	3	2	3	3	5	5	0	0	0	0	5	3
112012	13:24:33	10036	Trial	CongruentLeft	14	203	548	1	111	13:24:33	3927278	2	3	3	1	3	3	2	3	3	5	5	0	0	0	0	5	3
112012	13:24:33	10036	Trial	ResponseIL	14	0	175	0	111	13:24:33	3928411	2	3	3	1	3	3	2	3	3	5	5	0	0	0	0	5	3
112012	13:24:33	10036	Trial	IncongruentLeft	14	203	795	1	111	13:24:33	3929224	2	3	3	1	3	3	2	3	3	5	5	0	0	0	0	5	3
112012	13:24:33	10036	Trial	ResponseIR	14	0	175	0	111	13:24:33	3930117	2	3	3	1	3	3	2	3	3	5	5	0	0	0	0	5	3
112012	13:24:33	10036	Trial	IncongruentRight	14	205	624	1	111	13:24:33	3930770	2	3	3	1	3	3	2	3	3	5	5	0	0	0	0	5	3
112012	13:24:33	10036	Trial	ResponseCR	14	0	175	0	111	13:24:33	3931823	2	3	3	1	3	3	2	3	3	5	5	0	0	0	0	5	3
112012	13:24:33	10036	Trial	CongruentRight	14	205	534	1	111	13:24:33	3932383	2	3	3	1	3	3	2	3	3	5	5	0	0	0	0	5	3
112012	13:24:33	10036	Trial	ResponseCL	14	0	175	0	111	13:24:33	3933529	2	3	3	1	3	3	2	3	3	5	5	0	0	0	0	5	3
112012	13:24:33	10036	Trial	CongruentLeft	14	203	380	1	111	13:24:33	3933929	2	3	3	1	3	3	2	3	3	5	5	0	0	0	0	5	3
112012	13:24:33	10036	Trial	ResponseCL	14	0	175	0	111	13:24:33	3935235	2	3	3	1	3	3	2	3	3	5	5	0	0	0	0	5	3
112012	13:24:33	10036	Trial	CongruentLeft	14	203	642	1	111	13:24:33	3935901	2	3	3	1	3	3	2	3	3	5	5	0	0	0	0	5	3
112012	13:24:33	10036	Trial	ResponseIR	14	0	175	0	111	13:24:33	3936941	2	3	3	1	3	3	2	3	3	5	5	0	0	0	0	5	3
112012	13:24:33	10036	Trial	IncongruentRight	14	0	1000	0	111	13:24:33	3937954	2	3	3	1	3	3	2	3	3	5	5	0	0	0	0	5	3
112012	13:24:33	10036	Trial	ResponseIL	14	0	175	0	111	13:24:33	3938660	2	3	3	1	3	3	2	3	3	5	5	0	0	0	0	5	3
112012	13:24:33	10036	Trial	IncongruentLeft	14	203	257	1	111	13:24:33	3938940	2	3	3	1	3	3	2	3	3	5	5	0	0	0	0	5	3
112012	13:24:33	10036	Trial	ResponseIR	14	0	175	0	111	13:24:33	3940367	2	3	3	1	3	3	2	3	3	5	5	0	0	0	0	5	3
112012	13:24:33	10036	Trial	IncongruentRight	14	205	631	1	111	13:24:33	3941019	2	3	3	1	3	3	2	3	3	5	5	0	0	0	0	5	3
112012	13:24:33	10036	Trial	ResponseCR	14	0	175	0	111	13:24:33	3942073	2	3	3	1	3	3	2	3	3	5	5	0	0	0	0	5	3
112012	13:24:33	10036	Trial	CongruentRight	14	205	605	1	111	13:24:33	3942699	2	3	3	1	3	3	2	3	3	5	5	0	0	0	0	5	3
112012	13:24:33	10036	Trial	ResponseCR	14	0	175	0	111	13:24:33	3943778	2	3	3	1	3	3	2	3	3	5	5	0	0	0	0	5	3
112012	13:24:33	10036	Trial	CongruentRight	14	205	483	1	111	13:24:33	3944285	2	3	3	1	3	3	2	3	3	5	5	0	0	0	0	5	3
112012	13:24:33	10036	Trial	ResponseIL	14	0	175	0	111	13:24:33	3945484	2	3	3	1	3	3	2	3	3	5	5	0	0	0	0	5	3
112012	13:24:33	10036	Trial	IncongruentLeft	14	203	425	1	111	13:24:33	3945938	2	3	3	1	3	3	2	3	3	5	5	0	0	0	0	5	3
112012	13:24:33	10036	Trial	ResponseCL	14	0	175	0	111	13:24:33	3947190	2	3	3	1	3	3	2	3	3	5	5	0	0	0	0	5	3
112012	13:24:33	10036	Trial	CongruentLeft	14	203	415	1	111	13:24:33	3947630	2	3	3	1	3	3	2	3	3	5	5	0	0	0	0	5	3
112012	13:24:33	10036	Trial	ResponseCR	14	0	175	0	111	13:24:33	3948896	2	3	3	1	3	3	2	3	3	5	5	0	0	0	0	5	3
112012	13:24:33	10036	Trial	CongruentRight	14	205	373	1	111	13:24:33	3949296	2	3	3	1	3	3	2	3	3	5	5	0	0	0	0	5	3
112012	13:24:33	10036	Trial	ResponseCL	14	0	175	0	111	13:24:33	3950602	2	3	3	1	3	3	2	3	3	5	5	0	0	0	0	5	3
112012	13:24:33	10036	Trial	CongruentLeft	14	203	395	1	111	13:24:33	3951016	2	3	3	1	3	3	2	3	3	5	5	0	0	0	0	5	3
112012	13:24:33	10036	Trial	ResponseIR	14	0	175	0	111	13:24:33	3952308	2	3	3	1	3	3	2	3	3	5	5	0	0	0	0	5	3
112012	13:24:33	10036	Trial	IncongruentRight	14	205	433	1	111	13:24:33	3952761	2	3	3	1	3	3	2	3	3	5	5	0	0	0	0	5	3
112012	13:24:33	10036	Trial	ResponseCR	14	0	175	0	111	13:24:33	3954014	2	3	3	1	3	3	2	3	3	5	5	0	0	0	0	5	3
112012	13:24:33	10036	Trial	CongruentRight	14	205	407	1	111	13:24:33	3954441	2	3	3	1	3	3	2	3	3	5	5	0	0	0	0	5	3
112012	13:24:33	10036	Trial	ResponseCL	14	0	175	0	111	13:24:33	3955720	2	3	3	1	3	3	2	3	3	5	5	0	0	0	0	5	3
112012	13:24:33	10036	Trial	CongruentLeft	14	203	397	1	111	13:24:33	3956133	2	3	3	1	3	3	2	3	3	5	5	0	0	0	0	5	3
112012	13:24:33	10036	Trial	ResponseIL	14	0	175	0	111	13:24:33	3957427	2	3	3	1	3	3	2	3	3	5	5	0	0	0	0	5	3
112012	13:24:33	10036	Trial	IncongruentLeft	14	203	450	1	111	13:24:33	3957906	2	3	3	1	3	3	2	3	3	5	5	0	0	0	0	5	3
112012	13:24:33	10036	Trial	ResponseIL	14	0	175	0	111	13:24:33	3959132	2	3	3	1	3	3	2	3	3	5	5	0	0	0	0	5	3
112012	13:24:33	10036	Trial	IncongruentLeft	14	203	280	1	111	13:24:33	3959439	2	3	3	1	3	3	2	3	3	5	5	0	0	0	0	5	3
112012	13:24:33	10036	Trial	ResponseCR	14	0	175	0	111	13:24:33	3960838	2	3	3	1	3	3	2	3	3	5	5	0	0	0	0	5	3
112012	13:24:33	10036	Trial	CongruentRight	14	205	335	1	111	13:24:33	3961198	2	3	3	1	3	3	2	3	3	5	5	0	0	0	0	5	3
112012	13:24:33	10036	Trial	ResponseIR	14	0	175	0	111	13:24:33	3962544	2	3	3	1	3	3	2	3	3	5	5	0	0	0	0	5	3
112012	13:24:33	10036	Trial	IncongruentRight	14	205	389	1	111	13:24:33	3962958	2	3	3	1	3	3	2	3	3	5	5	0	0	0	0	5	3
112012	13:24:33	10036	Trial	ResponseCL	14	0	175	0	111	13:24:33	3964250	2	3	3	1	3	3	2	3	3	5	5	0	0	0	0	5	3
112012	13:24:33	10036	Trial	CongruentLeft	14	203	347	1	111	13:24:33	3964624	2	3	3	1	3	3	2	3	3	5	5	0	0	0	0	5	3
112012	13:24:33	10036	Trial	ResponseIR	14	0	175	0	111	13:24:33	3965956	2	3	3	1	3	3	2	3	3	5	5	0	0	0	0	5	3
112012	13:24:33	10036	Trial	IncongruentRight	14	205	497	1	111	13:24:33	3966476	2	3	3	1	3	3	2	3	3	5	5	0	0	0	0	5	3
112012	13:24:33	10036	Trial	ResponseCR	14	0	175	0	111	13:24:33	3967662	2	3	3	1	3	3	2	3	3	5	5	0	0	0	0	5	3
112012	13:24:33	10036	Trial	CongruentRight	14	205	343	1	111	13:24:33	3968022	2	3	3	1	3	3	2	3	3	5	5	0	0	0	0	5	3
112012	13:24:33	10036	Trial	ResponseIL	14	0	175	0	111	13:24:33	3969368	2	3	3	1	3	3	2	3	3	5	5	0	0	0	0	5	3
112012	13:24:33	10036	Trial	IncongruentLeft	14	203	413	1	111	13:24:33	3969808	2	3	3	1	3	3	2	3	3	5	5	0	0	0	0	5	3
112012	13:24:33	10036	Trial	ResponseCL	14	0	175	0	111	13:24:33	3971074	2	3	3	1	3	3	2	3	3	5	5	0	0	0	0	5	3
112012	13:24:33	10036	Trial	CongruentLeft	14	203	339	1	111	13:24:33	3971434	2	3	3	1	3	3	2	3	3	5	5	0	0	0	0	5	3
112012	13:24:33	10036	Trial	ResponseCR	14	0	175	0	111	13:24:33	3972780	2	3	3	1	3	3	2	3	3	5	5	0	0	0	0	5	3
112012	13:24:33	10036	Trial	CongruentRight	14	205	393	1	111	13:24:33	3973193	2	3	3	1	3	3	2	3	3	5	5	0	0	0	0	5	3
112012	13:24:33	10036	Trial	ResponseIL	14	0	175	0	111	13:24:33	3974487	2	3	3	1	3	3	2	3	3	5	5	0	0	0	0	5	3
112012	13:24:33	10036	Trial	IncongruentLeft	14	203	367	1	111	13:24:33	3974873	2	3	3	1	3	3	2	3	3	5	5	0	0	0	0	5	3
112012	13:24:33	10036	Trial	ResponseCR	14	0	175	0	111	13:24:33	3976192	2	3	3	1	3	3	2	3	3	5	5	0	0	0	0	5	3
112012	13:24:33	10036	Trial	CongruentRight	14	205	341	1	111	13:24:33	3976552	2	3	3	1	3	3	2	3	3	5	5	0	0	0	0	5	3
112012	13:24:33	10036	Trial	ResponseCR	14	0	175	0	111	13:24:33	3977898	2	3	3	1	3	3	2	3	3	5	5	0	0	0	0	5	3
112012	13:24:33	10036	Trial	CongruentRight	14	205	586	1	111	13:24:33	3978511	2	3	3	1	3	3	2	3	3	5	5	0	0	0	0	5	3
112012	13:24:33	10036	Trial	ResponseIR	14	0	175	0	111	13:24:33	3979604	2	3	3	1	3	3	2	3	3	5	5	0	0	0	0	5	3
112012	13:24:33	10036	Trial	IncongruentRight	14	205	480	1	111	13:24:33	3980111	2	3	3	1	3	3	2	3	3	5	5	0	0	0	0	5	3
112012	13:24:33	10036	Trial	ResponseCL	14	0	175	0	111	13:24:33	3981310	2	3	3	1	3	3	2	3	3	5	5	0	0	0	0	5	3
112012	13:24:33	10036	Trial	CongruentLeft	14	203	358	1	111	13:24:33	3981697	2	3	3	1	3	3	2	3	3	5	5	0	0	0	0	5	3
112012	13:24:33	10036	Trial	ResponseIL	14	0	175	0	111	13:24:33	3983016	2	3	3	1	3	3	2	3	3	5	5	0	0	0	0	5	3
112012	13:24:33	10036	Trial	IncongruentLeft	14	203	493	1	111	13:24:33	3983536	2	3	3	1	3	3	2	3	3	5	5	0	0	0	0	5	3
112012	13:24:33	10036	Trial	ResponseCL	14	0	175	0	111	13:24:33	3984722	2	3	3	1	3	3	2	3	3	5	5	0	0	0	0	5	3
112012	13:24:33	10036	Trial	CongruentLeft	14	203	450	1	111	13:24:33	3985202	2	3	3	1	3	3	2	3	3	5	5	0	0	0	0	5	3
112012	13:24:33	10036	Trial	ResponseIR	14	0	175	0	111	13:24:33	3986428	2	3	3	1	3	3	2	3	3	5	5	0	0	0	0	5	3
112012	13:24:33	10036	Trial	IncongruentRight	14	205	408	1	111	13:24:33	3986855	2	3	3	1	3	3	2	3	3	5	5	0	0	0	0	5	3
112012	13:24:33	10036	Trial	ResponseIL	14	0	175	0	111	13:24:33	3988134	2	3	3	1	3	3	2	3	3	5	5	0	0	0	0	5	3
112012	13:24:33	10036	Trial	IncongruentLeft	14	203	511	1	111	13:24:33	3988667	2	3	3	1	3	3	2	3	3	5	5	0	0	0	0	5	3
112012	13:24:33	10036	Trial	ResponseCR	14	0	175	0	111	13:24:33	3989840	2	3	3	1	3	3	2	3	3	5	5	0	0	0	0	5	3
112012	13:24:33	10036	Trial	CongruentRight	14	205	436	1	111	13:24:33	3990293	2	3	3	1	3	3	2	3	3	5	5	0	0	0	0	5	3
112012	13:24:33	10036	Trial	ResponseCL	14	0	175	0	111	13:24:33	3991547	2	3	3	1	3	3	2	3	3	5	5	0	0	0	0	5	3
112012	13:24:33	10036	Trial	CongruentLeft	14	203	458	1	111	13:24:33	3992026	2	3	3	1	3	3	2	3	3	5	5	0	0	0	0	5	3
112012	13:24:33	10036	Trial	ResponseIL	14	0	175	0	111	13:24:33	3993252	2	3	3	1	3	3	2	3	3	5	5	0	0	0	0	5	3
112012	13:24:33	10036	Trial	IncongruentLeft	14	203	768	1	111	13:24:33	3994038	2	3	3	1	3	3	2	3	3	5	5	0	0	0	0	5	3
112012	13:24:33	10036	Trial	ResponseCL	14	0	175	0	111	13:24:33	3994958	2	3	3	1	3	3	2	3	3	5	5	0	0	0	0	5	3
112012	13:24:33	10036	Trial	CongruentLeft	14	203	486	1	111	13:24:33	3995465	2	3	3	1	3	3	2	3	3	5	5	0	0	0	0	5	3
112012	13:24:33	10036	Trial	ResponseIR	14	0	175	0	111	13:24:33	3996664	2	3	3	1	3	3	2	3	3	5	5	0	0	0	0	5	3
112012	13:24:33	10036	Trial	IncongruentRight	14	203	220	0	111	13:24:33	3996904	2	3	3	1	3	3	2	3	3	5	5	0	0	0	0	5	3
112012	13:24:33	10036	Trial	ResponseCR	14	0	175	0	111	13:24:33	3998370	2	3	3	1	3	3	2	3	3	5	5	0	0	0	0	5	3
112012	13:24:33	10036	Trial	CongruentRight	14	205	290	1	111	13:24:33	3998677	2	3	3	1	3	3	2	3	3	5	5	0	0	0	0	5	3
112012	13:24:33	10036	Trial	ResponseIL	14	0	175	0	111	13:24:33	4000076	2	3	3	1	3	3	2	3	3	5	5	0	0	0	0	5	3
112012	13:24:33	10036	Trial	IncongruentLeft	14	203	456	1	111	13:24:33	4000556	2	3	3	1	3	3	2	3	3	5	5	0	0	0	0	5	3
112012	13:24:33	10036	Trial	ResponseCL	14	0	175	0	111	13:24:33	4001782	2	3	3	1	3	3	2	3	3	5	5	0	0	0	0	5	3
112012	13:24:33	10036	Trial	CongruentLeft	14	203	398	1	111	13:24:33	4002209	2	3	3	1	3	3	2	3	3	5	5	0	0	0	0	5	3
112012	13:24:33	10036	Trial	ResponseIR	14	0	175	0	111	13:24:33	4003488	2	3	3	1	3	3	2	3	3	5	5	0	0	0	0	5	3
112012	13:24:33	10036	Trial	IncongruentRight	14	205	404	1	111	13:24:33	4003915	2	3	3	1	3	3	2	3	3	5	5	0	0	0	0	5	3
112012	13:24:33	10036	Trial	ResponseIL	14	0	175	0	111	13:24:33	4005194	2	3	3	1	3	3	2	3	3	5	5	0	0	0	0	5	3
112012	13:24:33	10036	Trial	IncongruentLeft	14	0	1000	0	111	13:24:33	4006207	2	3	3	1	3	3	2	3	3	5	5	0	0	0	0	5	3
112012	13:24:33	10036	Trial	ResponseCL	14	0	175	0	111	13:24:33	4006914	2	3	3	1	3	3	2	3	3	5	5	0	0	0	0	5	3
112012	13:24:33	10036	Trial	CongruentLeft	14	203	499	1	111	13:24:33	4007433	2	3	3	1	3	3	2	3	3	5	5	0	0	0	0	5	3
112012	13:24:33	10036	Trial	ResponseIL	14	0	175	0	111	13:24:33	4008620	2	3	3	1	3	3	2	3	3	5	5	0	0	0	0	5	3
112012	13:24:33	10036	Trial	IncongruentLeft	14	203	249	1	111	13:24:33	4008886	2	3	3	1	3	3	2	3	3	5	5	0	0	0	0	5	3
112012	13:24:33	10036	Trial	ResponseCR	14	0	175	0	111	13:24:33	4010326	2	3	3	1	3	3	2	3	3	5	5	0	0	0	0	5	3
112012	13:24:33	10036	Trial	CongruentRight	14	205	207	1	111	13:24:33	4010552	2	3	3	1	3	3	2	3	3	5	5	0	0	0	0	5	3
112012	13:24:33	10036	Trial	ResponseCL	14	0	175	0	111	13:24:33	4012032	2	3	3	1	3	3	2	3	3	5	5	0	0	0	0	5	3
112012	13:24:33	10036	Trial	CongruentLeft	14	203	437	1	111	13:24:33	4012485	2	3	3	1	3	3	2	3	3	5	5	0	0	0	0	5	3
112012	13:24:33	10036	Trial	ResponseIR	14	0	175	0	111	13:24:33	4013738	2	3	3	1	3	3	2	3	3	5	5	0	0	0	0	5	3
112012	13:24:33	10036	Trial	IncongruentRight	14	205	219	1	111	13:24:33	4013978	2	3	3	1	3	3	2	3	3	5	5	0	0	0	0	5	3
112012	13:24:33	10036	Trial	ResponseCL	14	0	175	0	111	13:24:33	4015444	2	3	3	1	3	3	2	3	3	5	5	0	0	0	0	5	3
112012	13:24:33	10036	Trial	CongruentLeft	14	203	305	1	111	13:24:33	4015777	2	3	3	1	3	3	2	3	3	5	5	0	0	0	0	5	3
112012	13:24:33	10036	Trial	ResponseCR	14	0	175	0	111	13:24:33	4017150	2	3	3	1	3	3	2	3	3	5	5	0	0	0	0	5	3
112012	13:24:33	10036	Trial	CongruentRight	14	205	327	1	111	13:24:33	4017496	2	3	3	1	3	3	2	3	3	5	5	0	0	0	0	5	3
112012	13:24:33	10036	Trial	ResponseIL	14	0	175	0	111	13:24:33	4018856	2	3	3	1	3	3	2	3	3	5	5	0	0	0	0	5	3
112012	13:24:33	10036	Trial	IncongruentLeft	14	203	365	1	111	13:24:33	4019242	2	3	3	1	3	3	2	3	3	5	5	0	0	0	0	5	3
112012	13:24:33	10036	WordsAbsFrThreemo	PAbsFrThreemo1	16	Abs1	5970	0	111	13:24:33	4037515	2	3	3	1	3	3	2	3	3	5	5	0	0	0	0	5	3
112012	13:24:33	10036	WordsAbsFrThreemo	AbsFrThreemo1	16	Abs1	2656	0	111	13:24:33	4040207	2	3	3	1	3	3	2	3	3	5	5	1	0	0	0	5	3
112012	13:24:33	10036	WordsAbsFrThreemo	AbsFrThreemo2	16	Abs1	11491	0	111	13:24:33	4051736	2	3	3	1	3	3	2	3	3	5	5	2	0	0	0	5	3
112012	13:24:33	10036	WordsAbsFrThreemo	AbsFrThreemo3	16	Abs2	29154	0	111	13:24:33	4080925	2	3	3	1	3	3	2	3	3	5	5	2	0	0	0	5	3
112012	13:24:33	10036	Trial2BackFrS	NS	17	0	1000	1	111	13:24:33	4151337	2	3	3	1	3	3	2	3	3	5	5	2	0	0	0	5	3
112012	13:24:33	10036	Trial2BackFrS	NS	17	0	1000	1	111	13:24:33	4152843	2	3	3	1	3	3	2	3	3	5	5	2	0	0	0	5	3
112012	13:24:33	10036	Trial2BackFrS	NS	17	0	1000	1	111	13:24:33	4154362	2	3	3	1	3	3	2	3	3	5	5	2	0	0	0	5	3
112012	13:24:33	10036	Trial2BackFrS	YS	17	0	1000	0	111	13:24:33	4155868	2	3	3	1	3	3	2	3	3	5	5	2	0	0	0	5	3
112012	13:24:33	10036	Trial2BackFrS	NS	17	0	1000	1	111	13:24:33	4157374	2	3	3	1	3	3	2	3	3	5	5	2	0	0	0	5	3
112012	13:24:33	10036	Trial2BackFrS	NS	17	0	1000	1	111	13:24:33	4158894	2	3	3	1	3	3	2	3	3	5	5	2	0	0	0	5	3
112012	13:24:33	10036	Trial2BackFrS	NS	17	0	1000	1	111	13:24:33	4160400	2	3	3	1	3	3	2	3	3	5	5	2	0	0	0	5	3
112012	13:24:33	10036	Trial2BackFrS	NS	17	0	1000	1	111	13:24:33	4161906	2	3	3	1	3	3	2	3	3	5	5	2	0	0	0	5	3
112012	13:24:33	10036	Trial2BackFrS	YS	17	0	1000	0	111	13:24:33	4163425	2	3	3	1	3	3	2	3	3	5	5	2	0	0	0	5	3
112012	13:24:33	10036	Trial2BackFrS	NS	17	0	1000	1	111	13:24:33	4164931	2	3	3	1	3	3	2	3	3	5	5	2	0	0	0	5	3
112012	13:24:33	10036	Trial2BackFrS	NS	17	0	1000	1	111	13:24:33	4166437	2	3	3	1	3	3	2	3	3	5	5	2	0	0	0	5	3
112012	13:24:33	10036	Trial2BackFrS	YS	17	0	1000	0	111	13:24:33	4167943	2	3	3	1	3	3	2	3	3	5	5	2	0	0	0	5	3
112012	13:24:33	10036	Trial2BackFrS	NS	17	57	847	0	111	13:24:33	4169303	2	3	3	1	3	3	2	3	3	5	5	2	0	0	0	5	3
112012	13:24:33	10036	Trial2BackFrS	NS	17	0	1000	1	111	13:24:33	4170956	2	3	3	1	3	3	2	3	3	5	5	2	0	0	0	5	3
112012	13:24:33	10036	Trial2BackFrS	NS	17	0	1000	1	111	13:24:33	4172475	2	3	3	1	3	3	2	3	3	5	5	2	0	0	0	5	3
112012	13:24:33	10036	Trial2BackFrS	YS	17	0	1000	0	111	13:24:33	4173981	2	3	3	1	3	3	2	3	3	5	5	2	0	0	0	5	3
112012	13:24:33	10036	Trial2BackFrS	NS	17	0	1000	1	111	13:24:33	4175487	2	3	3	1	3	3	2	3	3	5	5	2	0	0	0	5	3
112012	13:24:33	10036	Trial2BackFrS	NS	17	0	1000	1	111	13:24:33	4176993	2	3	3	1	3	3	2	3	3	5	5	2	0	0	0	5	3
112012	13:24:33	10036	Trial2BackFrS	NS	17	57	902	0	111	13:24:33	4178406	2	3	3	1	3	3	2	3	3	5	5	2	0	0	0	5	3
112012	13:24:33	10036	Trial2BackFrS	NS	17	0	1000	1	111	13:24:33	4180005	2	3	3	1	3	3	2	3	3	5	5	2	0	0	0	5	3
112012	13:24:33	10036	Trial2BackFrS	YS	17	57	865	1	111	13:24:33	4181392	2	3	3	1	3	3	2	3	3	5	5	2	0	0	0	5	3
112012	13:24:33	10036	Trial2BackFrS	NS	17	0	1000	1	111	13:24:33	4183017	2	3	3	1	3	3	2	3	3	5	5	2	0	0	0	5	3
112012	13:24:33	10036	Trial2BackFrS	NS	17	0	1000	1	111	13:24:33	4184524	2	3	3	1	3	3	2	3	3	5	5	2	0	0	0	5	3
112012	13:24:33	10036	Trial2BackFrS	NS	17	0	1000	1	111	13:24:33	4186029	2	3	3	1	3	3	2	3	3	5	5	2	0	0	0	5	3
112012	13:24:33	10036	Trial2BackFrS	NS	17	0	1000	1	111	13:24:33	4187536	2	3	3	1	3	3	2	3	3	5	5	2	0	0	0	5	3
112012	13:24:33	10036	Trial2BackFrS	NS	17	0	1000	1	111	13:24:33	4189042	2	3	3	1	3	3	2	3	3	5	5	2	0	0	0	5	3
112012	13:24:33	10036	Trial2BackFrS	NS	17	57	901	0	111	13:24:33	4190454	2	3	3	1	3	3	2	3	3	5	5	2	0	0	0	5	3
112012	13:24:33	10036	Trial2BackFrS	NS	17	0	1000	1	111	13:24:33	4192054	2	3	3	1	3	3	2	3	3	5	5	2	0	0	0	5	3
112012	13:24:33	10036	Trial2BackFrS	NS	17	0	1000	1	111	13:24:33	4193573	2	3	3	1	3	3	2	3	3	5	5	2	0	0	0	5	3
112012	13:24:33	10036	Trial2BackFrS	NS	17	0	1000	1	111	13:24:33	4195079	2	3	3	1	3	3	2	3	3	5	5	2	0	0	0	5	3
112012	13:24:33	10036	Trial2BackFrS	NS	17	0	1000	1	111	13:24:33	4196585	2	3	3	1	3	3	2	3	3	5	5	2	0	0	0	5	3
112012	13:24:33	10036	Trial2BackFrS	YS	17	0	1000	0	111	13:24:33	4198091	2	3	3	1	3	3	2	3	3	5	5	2	0	0	0	5	3
112012	13:24:33	10036	Trial2BackFrS	NS	17	0	1000	1	111	13:24:33	4199598	2	3	3	1	3	3	2	3	3	5	5	2	0	0	0	5	3
112012	13:24:33	10036	Trial2BackFrS	NS	17	0	1000	1	111	13:24:33	4201117	2	3	3	1	3	3	2	3	3	5	5	2	0	0	0	5	3
112012	13:24:33	10036	Trial2BackFrS	NS	17	0	1000	1	111	13:24:33	4202623	2	3	3	1	3	3	2	3	3	5	5	2	0	0	0	5	3
112012	13:24:33	10036	Trial2BackFrS	YS	17	0	1000	0	111	13:24:33	4204142	2	3	3	1	3	3	2	3	3	5	5	2	0	0	0	5	3
112012	13:24:33	10036	Trial2BackFrS	NS	17	57	904	0	111	13:24:33	4205555	2	3	3	1	3	3	2	3	3	5	5	2	0	0	0	5	3
112012	13:24:33	10036	Trial2BackFrS	NS	17	0	1000	1	111	13:24:33	4207155	2	3	3	1	3	3	2	3	3	5	5	2	0	0	0	5	3
112012	13:24:33	10036	Trial2BackFrS	NS	17	0	1000	1	111	13:24:33	4208661	2	3	3	1	3	3	2	3	3	5	5	2	0	0	0	5	3
112012	13:24:33	10036	Trial2BackFrS	NS	17	0	1000	1	111	13:24:33	4210167	2	3	3	1	3	3	2	3	3	5	5	2	0	0	0	5	3
112012	13:24:33	10036	Trial2BackFrS	NS	17	0	1000	1	111	13:24:33	4211686	2	3	3	1	3	3	2	3	3	5	5	2	0	0	0	5	3
112012	13:24:33	10036	Trial2BackFrS	NS	17	0	1000	1	111	13:24:33	4213192	2	3	3	1	3	3	2	3	3	5	5	2	0	0	0	5	3
112012	13:24:33	10036	Trial2BackFrS	NS	17	0	1000	1	111	13:24:33	4214698	2	3	3	1	3	3	2	3	3	5	5	2	0	0	0	5	3
112012	13:24:33	10036	Trial2BackFrS	YS	17	0	1000	0	111	13:24:33	4216204	2	3	3	1	3	3	2	3	3	5	5	2	0	0	0	5	3
112012	13:24:33	10036	Trial2BackFrS	NS	17	0	1000	1	111	13:24:33	4217710	2	3	3	1	3	3	2	3	3	5	5	2	0	0	0	5	3
112012	13:24:33	10036	Trial2BackFrS	NS	17	0	1000	1	111	13:24:33	4219217	2	3	3	1	3	3	2	3	3	5	5	2	0	0	0	5	3
112012	13:24:33	10036	Trial2BackFrS	NS	17	0	1000	1	111	13:24:33	4220723	2	3	3	1	3	3	2	3	3	5	5	2	0	0	0	5	3
112012	13:24:33	10036	Trial2BackFrS	NS	17	0	1000	1	111	13:24:33	4222228	2	3	3	1	3	3	2	3	3	5	5	2	0	0	0	5	3
112012	13:24:33	10036	Trial2BackFrS	YS	17	0	1000	0	111	13:24:33	4223735	2	3	3	1	3	3	2	3	3	5	5	2	0	0	0	5	3
112012	13:24:33	10036	Trial2BackFrS	NS	17	57	991	0	111	13:24:33	4225241	2	3	3	1	3	3	2	3	3	5	5	2	0	0	0	5	3
112012	13:24:33	10036	Trial2BackFrS	NS	17	0	1000	1	111	13:24:33	4226747	2	3	3	1	3	3	2	3	3	5	5	2	0	0	0	5	3
112012	13:24:33	10036	Trial2BackFrS	NS	17	0	1000	1	111	13:24:33	4228253	2	3	3	1	3	3	2	3	3	5	5	2	0	0	0	5	3
112012	13:24:33	10036	Trial2BackFrS	NS	17	0	1000	1	111	13:24:33	4229759	2	3	3	1	3	3	2	3	3	5	5	2	0	0	0	5	3
112012	13:24:33	10036	Trial2BackFrS	NS	17	0	1000	1	111	13:24:33	4231265	2	3	3	1	3	3	2	3	3	5	5	2	0	0	0	5	3
112012	13:24:33	10036	Trial2BackFrS	NS	17	0	1000	1	111	13:24:33	4232784	2	3	3	1	3	3	2	3	3	5	5	2	0	0	0	5	3
112012	13:24:33	10036	Trial2BackFrS	YS	17	0	1000	0	111	13:24:33	4234291	2	3	3	1	3	3	2	3	3	5	5	2	0	0	0	5	3
112012	13:24:33	10036	Trial2BackFrS	NS	17	0	1000	1	111	13:24:33	4235797	2	3	3	1	3	3	2	3	3	5	5	2	0	0	0	5	3
112012	13:24:33	10036	Trial2BackFrS	NS	17	0	1000	1	111	13:24:33	4237303	2	3	3	1	3	3	2	3	3	5	5	2	0	0	0	5	3
112012	13:24:33	10036	Trial2BackFrS	NS	17	0	1000	1	111	13:24:33	4238809	2	3	3	1	3	3	2	3	3	5	5	2	0	0	0	5	3
112012	13:24:33	10036	Trial2BackFrS	NS	17	57	653	0	111	13:24:33	4239982	2	3	3	1	3	3	2	3	3	5	5	2	0	0	0	5	3
112012	13:24:33	10036	Trial2BackFrS	NS	17	0	1000	1	111	13:24:33	4241821	2	3	3	1	3	3	2	3	3	5	5	2	0	0	0	5	3
112012	13:24:33	10036	Trial2BackFrS	NS	17	0	1000	1	111	13:24:33	4243327	2	3	3	1	3	3	2	3	3	5	5	2	0	0	0	5	3
112012	13:24:33	10036	Trial2BackFrS	NS	17	0	1000	1	111	13:24:33	4244833	2	3	3	1	3	3	2	3	3	5	5	2	0	0	0	5	3
112012	13:24:33	10036	Trial2BackFrS	YS	17	0	1000	0	111	13:24:33	4246339	2	3	3	1	3	3	2	3	3	5	5	2	0	0	0	5	3
112012	13:24:33	10036	Trial2BackFrS	NS	17	0	1000	1	111	13:24:33	4247845	2	3	3	1	3	3	2	3	3	5	5	2	0	0	0	5	3
112012	13:24:33	10036	Trial2BackFrS	NS	17	0	1000	1	111	13:24:33	4249351	2	3	3	1	3	3	2	3	3	5	5	2	0	0	0	5	3
112012	13:24:33	10036	Trial2BackFrS	NS	17	0	1000	1	111	13:24:33	4250871	2	3	3	1	3	3	2	3	3	5	5	2	0	0	0	5	3
112012	13:24:33	10036	Trial2BackFrS	NS	17	0	1000	1	111	13:24:33	4252377	2	3	3	1	3	3	2	3	3	5	5	2	0	0	0	5	3
112012	13:24:33	10036	Trial2BackFrS	YS	17	0	1000	0	111	13:24:33	4253883	2	3	3	1	3	3	2	3	3	5	5	2	0	0	0	5	3
112012	13:24:33	10036	Trial2BackFrS	NS	17	0	1000	1	111	13:24:33	4255389	2	3	3	1	3	3	2	3	3	5	5	2	0	0	0	5	3
112012	13:24:33	10036	Trial2BackFrS	NS	17	0	1000	1	111	13:24:33	4256895	2	3	3	1	3	3	2	3	3	5	5	2	0	0	0	5	3
112012	13:24:33	10036	Trial2BackFrS	YS	17	0	1000	0	111	13:24:33	4258401	2	3	3	1	3	3	2	3	3	5	5	2	0	0	0	5	3
112012	13:24:33	10036	Trial2BackFrS	NS	17	0	1000	1	111	13:24:33	4259907	2	3	3	1	3	3	2	3	3	5	5	2	0	0	0	5	3
112012	13:24:33	10036	Trial2BackFrS	NS	17	0	1000	1	111	13:24:33	4261427	2	3	3	1	3	3	2	3	3	5	5	2	0	0	0	5	3
112012	13:24:33	10036	Trial2BackFrS	NS	17	0	1000	1	111	13:24:33	4262933	2	3	3	1	3	3	2	3	3	5	5	2	0	0	0	5	3
112012	13:24:33	10036	Trial2BackFrS	NS	17	57	705	0	111	13:24:33	4264145	2	3	3	1	3	3	2	3	3	5	5	2	0	0	0	5	3
112012	13:24:33	10036	Trial2BackFrS	NS	17	57	751	0	111	13:24:33	4265705	2	3	3	1	3	3	2	3	3	5	5	2	0	0	0	5	3
112012	13:24:33	10036	Trial2BackFrS	NS	17	57	650	0	111	13:24:33	4267091	2	3	3	1	3	3	2	3	3	5	5	2	0	0	0	5	3
112012	13:24:33	10036	Trial2BackFrS	YS	17	0	1000	0	111	13:24:33	4268944	2	3	3	1	3	3	2	3	3	5	5	2	0	0	0	5	3
112012	13:24:33	10036	Trial2BackFrS	NS	17	0	1000	1	111	13:24:33	4270463	2	3	3	1	3	3	2	3	3	5	5	2	0	0	0	5	3
112012	13:24:33	10036	Trial2BackFrS	NS	17	0	1000	1	111	13:24:33	4271969	2	3	3	1	3	3	2	3	3	5	5	2	0	0	0	5	3
112012	13:24:33	10036	Trial2BackFrS	NS	17	0	1000	1	111	13:24:33	4273475	2	3	3	1	3	3	2	3	3	5	5	2	0	0	0	5	3
112012	13:24:33	10036	Trial2BackFrS	NS	17	0	1000	1	111	13:24:33	4274981	2	3	3	1	3	3	2	3	3	5	5	2	0	0	0	5	3
112012	13:24:33	10036	Trial2BackFrS	YS	17	0	1000	0	111	13:24:33	4276487	2	3	3	1	3	3	2	3	3	5	5	2	0	0	0	5	3
112012	13:24:33	10036	Trial2BackFrS	NS	17	57	734	0	111	13:24:33	4277740	2	3	3	1	3	3	2	3	3	5	5	2	0	0	0	5	3
112012	13:24:33	10036	Trial2BackFrS	NS	17	0	1000	1	111	13:24:33	4279499	2	3	3	1	3	3	2	3	3	5	5	2	0	0	0	5	3
112012	13:24:33	10036	Trial2BackFrS	NS	17	0	1000	1	111	13:24:33	4281019	2	3	3	1	3	3	2	3	3	5	5	2	0	0	0	5	3
112012	13:24:33	10036	Trial2BackFrS	NS	17	57	794	0	111	13:24:33	4282325	2	3	3	1	3	3	2	3	3	5	5	2	0	0	0	5	3
112012	13:24:33	10036	Trial2BackFrS	YS	17	0	1000	0	111	13:24:33	4284031	2	3	3	1	3	3	2	3	3	5	5	2	0	0	0	5	3
112012	13:24:33	10036	Trial2BackFrS	NS	17	0	1000	1	111	13:24:33	4285550	2	3	3	1	3	3	2	3	3	5	5	2	0	0	0	5	3
112012	13:24:33	10036	Trial2BackFrS	NS	17	0	1000	1	111	13:24:33	4287056	2	3	3	1	3	3	2	3	3	5	5	2	0	0	0	5	3
112012	13:24:33	10036	Trial2BackFrS	YS	17	0	1000	0	111	13:24:33	4288576	2	3	3	1	3	3	2	3	3	5	5	2	0	0	0	5	3
112012	13:24:33	10036	Trial2BackFrS	NS	17	0	1000	1	111	13:24:33	4290082	2	3	3	1	3	3	2	3	3	5	5	2	0	0	0	5	3
112012	13:24:33	10036	Trial2BackFrS	NS	17	0	1000	1	111	13:24:33	4291588	2	3	3	1	3	3	2	3	3	5	5	2	0	0	0	5	3
112012	13:24:33	10036	Trial2BackFrS	NS	17	0	1000	1	111	13:24:33	4293094	2	3	3	1	3	3	2	3	3	5	5	2	0	0	0	5	3
112012	13:24:33	10036	Trial2BackFrS	NS	17	0	1000	1	111	13:24:33	4294600	2	3	3	1	3	3	2	3	3	5	5	2	0	0	0	5	3
112012	13:24:33	10036	Trial2BackFrS	NS	17	0	1000	1	111	13:24:33	4296106	2	3	3	1	3	3	2	3	3	5	5	2	0	0	0	5	3
112012	13:24:33	10036	Trial2BackFrS	NS	17	0	1000	1	111	13:24:33	4297612	2	3	3	1	3	3	2	3	3	5	5	2	0	0	0	5	3
112012	13:24:33	10036	Trial2BackFrS	NS	17	57	857	0	111	13:24:33	4298985	2	3	3	1	3	3	2	3	3	5	5	2	0	0	0	5	3
112012	13:24:33	10036	Trial2BackFrS	NS	17	0	1000	1	111	13:24:33	4300624	2	3	3	1	3	3	2	3	3	5	5	2	0	0	0	5	3
112012	13:24:33	10036	Trial2BackFrS	YS	17	57	820	1	111	13:24:33	4301957	2	3	3	1	3	3	2	3	3	5	5	2	0	0	0	5	3
112012	13:24:33	10036	Trial2BackFrS	NS	17	0	1000	1	111	13:24:33	4303637	2	3	3	1	3	3	2	3	3	5	5	2	0	0	0	5	3
112012	13:24:33	10036	Trial2BackFrS	NS	17	0	1000	1	111	13:24:33	4305143	2	3	3	1	3	3	2	3	3	5	5	2	0	0	0	5	3
112012	13:24:33	10036	Trial2BackFrS	NS	17	0	1000	1	111	13:24:33	4306649	2	3	3	1	3	3	2	3	3	5	5	2	0	0	0	5	3
112012	13:24:33	10036	Trial2BackFrS	NS	17	0	1000	1	111	13:24:33	4308155	2	3	3	1	3	3	2	3	3	5	5	2	0	0	0	5	3
112012	13:24:33	10036	Trial2BackFrS	NS	17	0	1000	1	111	13:24:33	4309674	2	3	3	1	3	3	2	3	3	5	5	2	0	0	0	5	3
112012	13:24:33	10036	Trial2BackFrS	NS	17	0	1000	1	111	13:24:33	4311180	2	3	3	1	3	3	2	3	3	5	5	2	0	0	0	5	3
112012	13:24:33	10036	Trial2BackFrS	NS	17	0	1000	1	111	13:24:33	4312686	2	3	3	1	3	3	2	3	3	5	5	2	0	0	0	5	3
112012	13:24:33	10036	Trial2BackFrS	YS	17	0	1000	0	111	13:24:33	4314192	2	3	3	1	3	3	2	3	3	5	5	2	0	0	0	5	3
112012	13:24:33	10036	Trial2BackFrS	NS	17	0	1000	1	111	13:24:33	4315698	2	3	3	1	3	3	2	3	3	5	5	2	0	0	0	5	3
112012	13:24:33	10036	Trial2BackFrS	NS	17	0	1000	1	111	13:24:33	4317204	2	3	3	1	3	3	2	3	3	5	5	2	0	0	0	5	3
112012	13:24:33	10036	Trial2BackFrS	NS	17	57	608	0	111	13:24:33	4318324	2	3	3	1	3	3	2	3	3	5	5	2	0	0	0	5	3
112012	13:24:33	10036	Trial2BackFrS	NS	17	0	1000	1	111	13:24:33	4320217	2	3	3	1	3	3	2	3	3	5	5	2	0	0	0	5	3
112012	13:24:33	10036	Trial2BackFrS	NS	17	57	124	0	111	13:24:33	4320856	2	3	3	1	3	3	2	3	3	5	5	2	0	0	0	5	3
112012	13:24:33	10036	Trial2BackFrS	NS	17	0	1000	1	111	13:24:33	4323229	2	3	3	1	3	3	2	3	3	5	5	2	0	0	0	5	3
112012	13:24:33	10036	Trial2BackFrS	NS	17	0	1000	1	111	13:24:33	4324735	2	3	3	1	3	3	2	3	3	5	5	2	0	0	0	5	3
112012	13:24:33	10036	Trial2BackFrS	NS	17	0	1000	1	111	13:24:33	4326241	2	3	3	1	3	3	2	3	3	5	5	2	0	0	0	5	3
112012	13:24:33	10036	Trial2BackFrS	NS	17	0	1000	1	111	13:24:33	4327747	2	3	3	1	3	3	2	3	3	5	5	2	0	0	0	5	3
112012	13:24:33	10036	Trial2BackFrS	YS	17	0	1000	0	111	13:24:33	4329253	2	3	3	1	3	3	2	3	3	5	5	2	0	0	0	5	3
112012	13:24:33	10036	Trial2BackFrS	NS	17	0	1000	1	111	13:24:33	4330759	2	3	3	1	3	3	2	3	3	5	5	2	0	0	0	5	3
112012	13:24:33	10036	ClockFr3mo	ClockFr3mo	19	Clock1	84040	0	111	13:24:33	4414926	2	3	3	1	3	3	2	3	3	5	5	2	1	0	0	5	3
112012	13:24:33	10036	ClockFr3mo	ClockFr3mo	19	Clock11	617	0	111	13:24:33	4415592	2	3	3	1	3	3	2	3	3	5	5	2	1	1	0	5	3
112012	13:24:33	10036	ClockFr3mo	ClockFr3mo	19	Clock111	24137	0	111	13:24:33	4439796	2	3	3	1	3	3	2	3	3	5	5	2	1	1	1	5	3
112012	13:24:33	10036	ClockFr3mo	ClockFr3mo	19	Clockdone	371	0	111	13:24:33	4440223	2	3	3	1	3	3	2	3	3	5	5	2	1	1	1	5	3
112012	13:24:33	10036	FASFrVF3mo	StopFrVF3mo	20	9	3881	0	111	13:24:33	4532708	2	3	3	1	3	3	2	3	3	5	5	2	1	1	1	5	3
