date	time	subject	blockcode	trialcode	values.TaskNumber	response	latency	correct	values.Score	script.starttime	script.elapsedtime	values.ScoreS7	values.Word1	values.Word2	values.Word3	values.Word4	values.Word5	values.Word6	values.Word7	values.Word8	values.DigitSpanFwrd	values.DigitSpanBack	values.ScoreAbs	values.Contour	values.Numbers	values.Hands	values.corsiblockspanFwrd	values.corsiblockspanRev
103012	08:03:20	10026	Language	Language	0	French	7815	0	0	08:03:20	7941	0	0	0	0	0	0	0	0	0	0	0	0	0	0	0	0	0
103012	08:03:20	10026	Session	Session	0	3mo	880	0	0	08:03:20	8887	0	0	0	0	0	0	0	0	0	0	0	0	0	0	0	0	0
103012	08:03:20	10026	HandFr	HandFr	0	RightFr	786060	0	0	08:03:20	795030	0	0	0	0	0	0	0	0	0	0	0	0	0	0	0	0	0
103012	08:03:20	10026	AudioCheckFr	WordsFr	0	0	0	0	0	08:03:20	2036871	0	0	0	0	0	0	0	0	0	0	0	0	0	0	0	0	0
103012	08:03:20	10026	CubeFr	CubeFr	1	1Cube	15870	0	0	08:03:20	2054545	0	0	0	0	0	0	0	0	0	0	0	0	0	0	0	0	0
103012	08:03:20	10026	pm.simpleFrRight	blank.simpleFr	2	57	1316	0	0	08:03:20	2092490	0	0	0	0	0	0	0	0	0	0	0	0	0	0	0	0	0
103012	08:03:20	10026	pm.simpleFrRight	blank.simpleFr	2	57	1159	0	0	08:03:20	2094676	0	0	0	0	0	0	0	0	0	0	0	0	0	0	0	0	0
103012	08:03:20	10026	pm.simpleFrRight	blank.simpleFr	2	57	1198	0	0	08:03:20	2096902	0	0	0	0	0	0	0	0	0	0	0	0	0	0	0	0	0
103012	08:03:20	10026	pm.simpleFrRight	blank.simpleFr	2	0	2400	1	0	08:03:20	2099314	0	0	0	0	0	0	0	0	0	0	0	0	0	0	0	0	0
103012	08:03:20	10026	pm.simpleFrRight	pm.simpleFr	2	57	671	0	0	08:03:20	2100007	0	0	0	0	0	0	0	0	0	0	0	0	0	0	0	0	0
103012	08:03:20	10026	pm.simpleFrRight	blank.simpleFr	2	0	1600	1	0	08:03:20	2101620	0	0	0	0	0	0	0	0	0	0	0	0	0	0	0	0	0
103012	08:03:20	10026	pm.simpleFrRight	pm.simpleFr	2	57	477	0	0	08:03:20	2102127	0	0	0	0	0	0	0	0	0	0	0	0	0	0	0	0	0
103012	08:03:20	10026	pm.simpleFrRight	blank.simpleFr	2	0	2100	1	0	08:03:20	2104246	0	0	0	0	0	0	0	0	0	0	0	0	0	0	0	0	0
103012	08:03:20	10026	pm.simpleFrRight	pm.simpleFr	2	57	252	0	0	08:03:20	2104525	0	0	0	0	0	0	0	0	0	0	0	0	0	0	0	0	0
103012	08:03:20	10026	pm.simpleFrRight	blank.simpleFr	2	0	2000	1	0	08:03:20	2106538	0	0	0	0	0	0	0	0	0	0	0	0	0	0	0	0	0
103012	08:03:20	10026	pm.simpleFrRight	pm.simpleFr	2	57	247	0	0	08:03:20	2106804	0	0	0	0	0	0	0	0	0	0	0	0	0	0	0	0	0
103012	08:03:20	10026	pm.simpleFrRight	blank.simpleFr	2	0	2500	1	0	08:03:20	2109324	0	0	0	0	0	0	0	0	0	0	0	0	0	0	0	0	0
103012	08:03:20	10026	pm.simpleFrRight	pm.simpleFr	2	57	262	0	0	08:03:20	2109603	0	0	0	0	0	0	0	0	0	0	0	0	0	0	0	0	0
103012	08:03:20	10026	pm.simpleFrRight	blank.simpleFr	2	0	2300	1	0	08:03:20	2111923	0	0	0	0	0	0	0	0	0	0	0	0	0	0	0	0	0
103012	08:03:20	10026	pm.simpleFrRight	pm.simpleFr	2	57	319	0	0	08:03:20	2112269	0	0	0	0	0	0	0	0	0	0	0	0	0	0	0	0	0
103012	08:03:20	10026	pm.simpleFrRight	blank.simpleFr	2	0	1900	1	0	08:03:20	2114188	0	0	0	0	0	0	0	0	0	0	0	0	0	0	0	0	0
103012	08:03:20	10026	pm.simpleFrRight	pm.simpleFr	2	57	261	0	0	08:03:20	2114468	0	0	0	0	0	0	0	0	0	0	0	0	0	0	0	0	0
103012	08:03:20	10026	pm.simpleFrRight	blank.simpleFr	2	0	2200	1	0	08:03:20	2116681	0	0	0	0	0	0	0	0	0	0	0	0	0	0	0	0	0
103012	08:03:20	10026	pm.simpleFrRight	pm.simpleFr	2	57	328	0	0	08:03:20	2117027	0	0	0	0	0	0	0	0	0	0	0	0	0	0	0	0	0
103012	08:03:20	10026	pm.simpleFrRight	blank.simpleFr	2	0	1700	1	0	08:03:20	2118747	0	0	0	0	0	0	0	0	0	0	0	0	0	0	0	0	0
103012	08:03:20	10026	pm.simpleFrRight	pm.simpleFr	2	57	230	0	0	08:03:20	2119000	0	0	0	0	0	0	0	0	0	0	0	0	0	0	0	0	0
103012	08:03:20	10026	pm.simpleFrRight	blank.simpleFr	2	0	2200	1	0	08:03:20	2121212	0	0	0	0	0	0	0	0	0	0	0	0	0	0	0	0	0
103012	08:03:20	10026	pm.simpleFrRight	pm.simpleFr	2	57	229	0	0	08:03:20	2121465	0	0	0	0	0	0	0	0	0	0	0	0	0	0	0	0	0
103012	08:03:20	10026	pm.simpleFrRight	blank.simpleFr	2	0	2300	1	0	08:03:20	2123785	0	0	0	0	0	0	0	0	0	0	0	0	0	0	0	0	0
103012	08:03:20	10026	pm.simpleFrRight	pm.simpleFr	2	57	233	0	0	08:03:20	2124038	0	0	0	0	0	0	0	0	0	0	0	0	0	0	0	0	0
103012	08:03:20	10026	pm.simpleFrRight	blank.simpleFr	2	0	2400	1	0	08:03:20	2126450	0	0	0	0	0	0	0	0	0	0	0	0	0	0	0	0	0
103012	08:03:20	10026	pm.simpleFrRight	pm.simpleFr	2	57	223	0	0	08:03:20	2126690	0	0	0	0	0	0	0	0	0	0	0	0	0	0	0	0	0
103012	08:03:20	10026	pm.simpleFrRight	blank.simpleFr	2	0	1800	1	0	08:03:20	2128503	0	0	0	0	0	0	0	0	0	0	0	0	0	0	0	0	0
103012	08:03:20	10026	pm.simpleFrRight	pm.simpleFr	2	57	298	0	0	08:03:20	2128823	0	0	0	0	0	0	0	0	0	0	0	0	0	0	0	0	0
103012	08:03:20	10026	pm.simpleFrRight	blank.simpleFr	2	0	1500	1	0	08:03:20	2130342	0	0	0	0	0	0	0	0	0	0	0	0	0	0	0	0	0
103012	08:03:20	10026	pm.simpleFrRight	pm.simpleFr	2	57	219	0	0	08:03:20	2130582	0	0	0	0	0	0	0	0	0	0	0	0	0	0	0	0	0
103012	08:03:20	10026	pm.simpleFrRight	blank.simpleFr	2	0	2500	1	0	08:03:20	2133101	0	0	0	0	0	0	0	0	0	0	0	0	0	0	0	0	0
103012	08:03:20	10026	pm.simpleFrRight	pm.simpleFr	2	57	228	0	0	08:03:20	2133354	0	0	0	0	0	0	0	0	0	0	0	0	0	0	0	0	0
103012	08:03:20	10026	pm.simpleFrRight	blank.simpleFr	2	0	1600	1	0	08:03:20	2134967	0	0	0	0	0	0	0	0	0	0	0	0	0	0	0	0	0
103012	08:03:20	10026	pm.simpleFrRight	pm.simpleFr	2	57	346	0	0	08:03:20	2135340	0	0	0	0	0	0	0	0	0	0	0	0	0	0	0	0	0
103012	08:03:20	10026	pm.simpleFrRight	blank.simpleFr	2	0	1900	1	0	08:03:20	2137259	0	0	0	0	0	0	0	0	0	0	0	0	0	0	0	0	0
103012	08:03:20	10026	pm.simpleFrRight	pm.simpleFr	2	57	261	0	0	08:03:20	2137539	0	0	0	0	0	0	0	0	0	0	0	0	0	0	0	0	0
103012	08:03:20	10026	pm.simpleFrRight	blank.simpleFr	2	0	2100	1	0	08:03:20	2139658	0	0	0	0	0	0	0	0	0	0	0	0	0	0	0	0	0
103012	08:03:20	10026	pm.simpleFrRight	pm.simpleFr	2	57	230	0	0	08:03:20	2139911	0	0	0	0	0	0	0	0	0	0	0	0	0	0	0	0	0
103012	08:03:20	10026	pm.simpleFrRight	blank.simpleFr	2	0	2000	1	0	08:03:20	2141924	0	0	0	0	0	0	0	0	0	0	0	0	0	0	0	0	0
103012	08:03:20	10026	pm.simpleFrRight	pm.simpleFr	2	57	237	0	0	08:03:20	2142177	0	0	0	0	0	0	0	0	0	0	0	0	0	0	0	0	0
103012	08:03:20	10026	pm.simpleFrRight	blank.simpleFr	2	0	1600	1	0	08:03:20	2143790	0	0	0	0	0	0	0	0	0	0	0	0	0	0	0	0	0
103012	08:03:20	10026	pm.simpleFrRight	pm.simpleFr	2	57	323	0	0	08:03:20	2144137	0	0	0	0	0	0	0	0	0	0	0	0	0	0	0	0	0
103012	08:03:20	10026	pm.simpleFrRight	blank.simpleFr	2	0	2300	1	0	08:03:20	2146456	0	0	0	0	0	0	0	0	0	0	0	0	0	0	0	0	0
103012	08:03:20	10026	pm.simpleFrRight	pm.simpleFr	2	57	201	0	0	08:03:20	2146682	0	0	0	0	0	0	0	0	0	0	0	0	0	0	0	0	0
103012	08:03:20	10026	pm.simpleFrRight	blank.simpleFr	2	0	2400	1	0	08:03:20	2149108	0	0	0	0	0	0	0	0	0	0	0	0	0	0	0	0	0
103012	08:03:20	10026	pm.simpleFrRight	pm.simpleFr	2	57	221	0	0	08:03:20	2149348	0	0	0	0	0	0	0	0	0	0	0	0	0	0	0	0	0
103012	08:03:20	10026	pm.simpleFrRight	blank.simpleFr	2	0	1800	1	0	08:03:20	2151161	0	0	0	0	0	0	0	0	0	0	0	0	0	0	0	0	0
103012	08:03:20	10026	pm.simpleFrRight	pm.simpleFr	2	57	328	0	0	08:03:20	2151507	0	0	0	0	0	0	0	0	0	0	0	0	0	0	0	0	0
103012	08:03:20	10026	pm.simpleFrRight	blank.simpleFr	2	0	2000	1	0	08:03:20	2153520	0	0	0	0	0	0	0	0	0	0	0	0	0	0	0	0	0
103012	08:03:20	10026	pm.simpleFrRight	pm.simpleFr	2	57	257	0	0	08:03:20	2153799	0	0	0	0	0	0	0	0	0	0	0	0	0	0	0	0	0
103012	08:03:20	10026	pm.simpleFrRight	blank.simpleFr	2	0	1900	1	0	08:03:20	2155719	0	0	0	0	0	0	0	0	0	0	0	0	0	0	0	0	0
103012	08:03:20	10026	pm.simpleFrRight	pm.simpleFr	2	57	330	0	0	08:03:20	2156065	0	0	0	0	0	0	0	0	0	0	0	0	0	0	0	0	0
103012	08:03:20	10026	pm.simpleFrRight	blank.simpleFr	2	0	2500	1	0	08:03:20	2158584	0	0	0	0	0	0	0	0	0	0	0	0	0	0	0	0	0
103012	08:03:20	10026	pm.simpleFrRight	pm.simpleFr	2	57	248	0	0	08:03:20	2158851	0	0	0	0	0	0	0	0	0	0	0	0	0	0	0	0	0
103012	08:03:20	10026	pm.simpleFrRight	blank.simpleFr	2	0	1500	1	0	08:03:20	2160370	0	0	0	0	0	0	0	0	0	0	0	0	0	0	0	0	0
103012	08:03:20	10026	pm.simpleFrRight	pm.simpleFr	2	57	334	0	0	08:03:20	2160730	0	0	0	0	0	0	0	0	0	0	0	0	0	0	0	0	0
103012	08:03:20	10026	pm.simpleFrRight	blank.simpleFr	2	0	2200	1	0	08:03:20	2162943	0	0	0	0	0	0	0	0	0	0	0	0	0	0	0	0	0
103012	08:03:20	10026	pm.simpleFrRight	pm.simpleFr	2	57	242	0	0	08:03:20	2163209	0	0	0	0	0	0	0	0	0	0	0	0	0	0	0	0	0
103012	08:03:20	10026	pm.simpleFrRight	blank.simpleFr	2	0	2100	1	0	08:03:20	2165328	0	0	0	0	0	0	0	0	0	0	0	0	0	0	0	0	0
103012	08:03:20	10026	pm.simpleFrRight	pm.simpleFr	2	57	256	0	0	08:03:20	2165608	0	0	0	0	0	0	0	0	0	0	0	0	0	0	0	0	0
103012	08:03:20	10026	pm.simpleFrRight	blank.simpleFr	2	0	1700	1	0	08:03:20	2167328	0	0	0	0	0	0	0	0	0	0	0	0	0	0	0	0	0
103012	08:03:20	10026	pm.simpleFrRight	pm.simpleFr	2	57	305	0	0	08:03:20	2167661	0	0	0	0	0	0	0	0	0	0	0	0	0	0	0	0	0
103012	08:03:20	10026	pm.simpleFrRight	blank.simpleFr	2	0	1600	1	0	08:03:20	2169273	0	0	0	0	0	0	0	0	0	0	0	0	0	0	0	0	0
103012	08:03:20	10026	pm.simpleFrRight	pm.simpleFr	2	57	247	0	0	08:03:20	2169540	0	0	0	0	0	0	0	0	0	0	0	0	0	0	0	0	0
103012	08:03:20	10026	pm.simpleFrRight	blank.simpleFr	2	0	2300	1	0	08:03:20	2171859	0	0	0	0	0	0	0	0	0	0	0	0	0	0	0	0	0
103012	08:03:20	10026	pm.simpleFrRight	pm.simpleFr	2	57	317	0	0	08:03:20	2172205	0	0	0	0	0	0	0	0	0	0	0	0	0	0	0	0	0
103012	08:03:20	10026	pm.simpleFrRight	blank.simpleFr	2	0	2000	1	0	08:03:20	2174218	0	0	0	0	0	0	0	0	0	0	0	0	0	0	0	0	0
103012	08:03:20	10026	pm.simpleFrRight	pm.simpleFr	2	57	326	0	0	08:03:20	2174565	0	0	0	0	0	0	0	0	0	0	0	0	0	0	0	0	0
103012	08:03:20	10026	pm.simpleFrRight	blank.simpleFr	2	0	1700	1	0	08:03:20	2176284	0	0	0	0	0	0	0	0	0	0	0	0	0	0	0	0	0
103012	08:03:20	10026	pm.simpleFrRight	pm.simpleFr	2	57	324	0	0	08:03:20	2176630	0	0	0	0	0	0	0	0	0	0	0	0	0	0	0	0	0
103012	08:03:20	10026	pm.simpleFrRight	blank.simpleFr	2	0	2500	1	0	08:03:20	2179149	0	0	0	0	0	0	0	0	0	0	0	0	0	0	0	0	0
103012	08:03:20	10026	pm.simpleFrRight	pm.simpleFr	2	57	291	0	0	08:03:20	2179469	0	0	0	0	0	0	0	0	0	0	0	0	0	0	0	0	0
103012	08:03:20	10026	pm.simpleFrRight	blank.simpleFr	2	0	2400	1	0	08:03:20	2181882	0	0	0	0	0	0	0	0	0	0	0	0	0	0	0	0	0
103012	08:03:20	10026	pm.simpleFrRight	pm.simpleFr	2	57	391	0	0	08:03:20	2182295	0	0	0	0	0	0	0	0	0	0	0	0	0	0	0	0	0
103012	08:03:20	10026	pm.simpleFrRight	blank.simpleFr	2	0	1500	1	0	08:03:20	2183814	0	0	0	0	0	0	0	0	0	0	0	0	0	0	0	0	0
103012	08:03:20	10026	pm.simpleFrRight	pm.simpleFr	2	57	378	0	0	08:03:20	2184214	0	0	0	0	0	0	0	0	0	0	0	0	0	0	0	0	0
103012	08:03:20	10026	pm.simpleFrRight	blank.simpleFr	2	0	2100	1	0	08:03:20	2186334	0	0	0	0	0	0	0	0	0	0	0	0	0	0	0	0	0
103012	08:03:20	10026	pm.simpleFrRight	pm.simpleFr	2	57	467	0	0	08:03:20	2186826	0	0	0	0	0	0	0	0	0	0	0	0	0	0	0	0	0
103012	08:03:20	10026	pm.simpleFrRight	blank.simpleFr	2	0	2200	1	0	08:03:20	2189039	0	0	0	0	0	0	0	0	0	0	0	0	0	0	0	0	0
103012	08:03:20	10026	pm.simpleFrRight	pm.simpleFr	2	57	257	0	0	08:03:20	2189319	0	0	0	0	0	0	0	0	0	0	0	0	0	0	0	0	0
103012	08:03:20	10026	pm.simpleFrRight	blank.simpleFr	2	0	1900	1	0	08:03:20	2191238	0	0	0	0	0	0	0	0	0	0	0	0	0	0	0	0	0
103012	08:03:20	10026	pm.simpleFrRight	pm.simpleFr	2	57	250	0	0	08:03:20	2191504	0	0	0	0	0	0	0	0	0	0	0	0	0	0	0	0	0
103012	08:03:20	10026	Trial2BackFr	N	3	0	1000	1	1	08:03:20	2236860	0	0	0	0	0	0	0	0	0	0	0	0	0	0	0	0	0
103012	08:03:20	10026	Trial2BackFr	N	3	0	1000	1	2	08:03:20	2238379	0	0	0	0	0	0	0	0	0	0	0	0	0	0	0	0	0
103012	08:03:20	10026	Trial2BackFr	N	3	0	1000	1	3	08:03:20	2239886	0	0	0	0	0	0	0	0	0	0	0	0	0	0	0	0	0
103012	08:03:20	10026	Trial2BackFr	N	3	0	1000	1	4	08:03:20	2241392	0	0	0	0	0	0	0	0	0	0	0	0	0	0	0	0	0
103012	08:03:20	10026	Trial2BackFr	N	3	0	1000	1	5	08:03:20	2242898	0	0	0	0	0	0	0	0	0	0	0	0	0	0	0	0	0
103012	08:03:20	10026	Trial2BackFr	N	3	0	1000	1	6	08:03:20	2244404	0	0	0	0	0	0	0	0	0	0	0	0	0	0	0	0	0
103012	08:03:20	10026	Trial2BackFr	N	3	0	1000	1	7	08:03:20	2245910	0	0	0	0	0	0	0	0	0	0	0	0	0	0	0	0	0
103012	08:03:20	10026	Trial2BackFr	N	3	0	1000	1	8	08:03:20	2247416	0	0	0	0	0	0	0	0	0	0	0	0	0	0	0	0	0
103012	08:03:20	10026	Trial2BackFr	Y	3	57	780	1	9	08:03:20	2248709	0	0	0	0	0	0	0	0	0	0	0	0	0	0	0	0	0
103012	08:03:20	10026	Trial2BackFr	N	3	57	858	0	9	08:03:20	2250295	0	0	0	0	0	0	0	0	0	0	0	0	0	0	0	0	0
103012	08:03:20	10026	Trial2BackFr	N	3	0	1000	1	10	08:03:20	2251934	0	0	0	0	0	0	0	0	0	0	0	0	0	0	0	0	0
103012	08:03:20	10026	Trial2BackFr	N	3	57	870	0	10	08:03:20	2253320	0	0	0	0	0	0	0	0	0	0	0	0	0	0	0	0	0
103012	08:03:20	10026	Trial2BackFr	Y	3	0	1000	0	10	08:03:20	2254946	0	0	0	0	0	0	0	0	0	0	0	0	0	0	0	0	0
103012	08:03:20	10026	Trial2BackFr	N	3	0	1000	1	11	08:03:20	2256452	0	0	0	0	0	0	0	0	0	0	0	0	0	0	0	0	0
103012	08:03:20	10026	Trial2BackFr	N	3	0	1000	1	12	08:03:20	2257958	0	0	0	0	0	0	0	0	0	0	0	0	0	0	0	0	0
103012	08:03:20	10026	Trial2BackFr	N	3	0	1000	1	13	08:03:20	2259464	0	0	0	0	0	0	0	0	0	0	0	0	0	0	0	0	0
103012	08:03:20	10026	Trial2BackFr	N	3	0	1000	1	14	08:03:20	2260971	0	0	0	0	0	0	0	0	0	0	0	0	0	0	0	0	0
103012	08:03:20	10026	Trial2BackFr	N	3	0	1000	1	15	08:03:20	2262477	0	0	0	0	0	0	0	0	0	0	0	0	0	0	0	0	0
103012	08:03:20	10026	Trial2BackFr	Y	3	57	647	1	16	08:03:20	2263636	0	0	0	0	0	0	0	0	0	0	0	0	0	0	0	0	0
103012	08:03:20	10026	Trial2BackFr	N	3	0	1000	1	17	08:03:20	2265489	0	0	0	0	0	0	0	0	0	0	0	0	0	0	0	0	0
103012	08:03:20	10026	Trial2BackFr	N	3	0	1000	1	18	08:03:20	2266995	0	0	0	0	0	0	0	0	0	0	0	0	0	0	0	0	0
103012	08:03:20	10026	Trial2BackFr	N	3	0	1000	1	19	08:03:20	2268501	0	0	0	0	0	0	0	0	0	0	0	0	0	0	0	0	0
103012	08:03:20	10026	Trial2BackFr	N	3	0	1000	1	20	08:03:20	2270007	0	0	0	0	0	0	0	0	0	0	0	0	0	0	0	0	0
103012	08:03:20	10026	Trial2BackFr	Y	3	57	557	1	21	08:03:20	2271073	0	0	0	0	0	0	0	0	0	0	0	0	0	0	0	0	0
103012	08:03:20	10026	Trial2BackFr	N	3	0	1000	1	22	08:03:20	2273019	0	0	0	0	0	0	0	0	0	0	0	0	0	0	0	0	0
103012	08:03:20	10026	Trial2BackFr	N	3	57	536	0	22	08:03:20	2274072	0	0	0	0	0	0	0	0	0	0	0	0	0	0	0	0	0
103012	08:03:20	10026	Trial2BackFr	N	3	0	1000	1	23	08:03:20	2276031	0	0	0	0	0	0	0	0	0	0	0	0	0	0	0	0	0
103012	08:03:20	10026	Trial2BackFr	N	3	0	1000	1	24	08:03:20	2277537	0	0	0	0	0	0	0	0	0	0	0	0	0	0	0	0	0
103012	08:03:20	10026	Trial2BackFr	N	3	0	1000	1	25	08:03:20	2279043	0	0	0	0	0	0	0	0	0	0	0	0	0	0	0	0	0
103012	08:03:20	10026	Trial2BackFr	N	3	0	1000	1	26	08:03:20	2280550	0	0	0	0	0	0	0	0	0	0	0	0	0	0	0	0	0
103012	08:03:20	10026	Trial2BackFr	Y	3	57	654	1	27	08:03:20	2281722	0	0	0	0	0	0	0	0	0	0	0	0	0	0	0	0	0
103012	08:03:20	10026	Trial2BackFr	N	3	0	1000	1	28	08:03:20	2283562	0	0	0	0	0	0	0	0	0	0	0	0	0	0	0	0	0
103012	08:03:20	10026	Trial2BackFr	N	3	0	1000	1	29	08:03:20	2285068	0	0	0	0	0	0	0	0	0	0	0	0	0	0	0	0	0
103012	08:03:20	10026	Trial2BackFr	N	3	0	1000	1	30	08:03:20	2286574	0	0	0	0	0	0	0	0	0	0	0	0	0	0	0	0	0
103012	08:03:20	10026	Trial2BackFr	Y	3	57	629	1	31	08:03:20	2287720	0	0	0	0	0	0	0	0	0	0	0	0	0	0	0	0	0
103012	08:03:20	10026	Trial2BackFr	N	3	0	1000	1	32	08:03:20	2289586	0	0	0	0	0	0	0	0	0	0	0	0	0	0	0	0	0
103012	08:03:20	10026	Trial2BackFr	N	3	0	1000	1	33	08:03:20	2291092	0	0	0	0	0	0	0	0	0	0	0	0	0	0	0	0	0
103012	08:03:20	10026	Trial2BackFr	N	3	0	1000	1	34	08:03:20	2292598	0	0	0	0	0	0	0	0	0	0	0	0	0	0	0	0	0
103012	08:03:20	10026	Trial2BackFr	N	3	0	1000	1	35	08:03:20	2294118	0	0	0	0	0	0	0	0	0	0	0	0	0	0	0	0	0
103012	08:03:20	10026	Trial2BackFr	N	3	0	1000	1	36	08:03:20	2295624	0	0	0	0	0	0	0	0	0	0	0	0	0	0	0	0	0
103012	08:03:20	10026	Trial2BackFr	N	3	0	1000	1	37	08:03:20	2297130	0	0	0	0	0	0	0	0	0	0	0	0	0	0	0	0	0
103012	08:03:20	10026	Trial2BackFr	Y	3	57	698	1	38	08:03:20	2298342	0	0	0	0	0	0	0	0	0	0	0	0	0	0	0	0	0
103012	08:03:20	10026	Trial2BackFr	N	3	0	1000	1	39	08:03:20	2300142	0	0	0	0	0	0	0	0	0	0	0	0	0	0	0	0	0
103012	08:03:20	10026	Trial2BackFr	N	3	0	1000	1	40	08:03:20	2301648	0	0	0	0	0	0	0	0	0	0	0	0	0	0	0	0	0
103012	08:03:20	10026	Trial2BackFr	N	3	0	1000	1	41	08:03:20	2303154	0	0	0	0	0	0	0	0	0	0	0	0	0	0	0	0	0
103012	08:03:20	10026	Trial2BackFr	N	3	0	1000	1	42	08:03:20	2304660	0	0	0	0	0	0	0	0	0	0	0	0	0	0	0	0	0
103012	08:03:20	10026	Trial2BackFr	Y	3	0	1000	0	42	08:03:20	2306166	0	0	0	0	0	0	0	0	0	0	0	0	0	0	0	0	0
103012	08:03:20	10026	Trial2BackFr	N	3	0	1000	1	43	08:03:20	2307672	0	0	0	0	0	0	0	0	0	0	0	0	0	0	0	0	0
103012	08:03:20	10026	Trial2BackFr	N	3	0	1000	1	44	08:03:20	2309179	0	0	0	0	0	0	0	0	0	0	0	0	0	0	0	0	0
103012	08:03:20	10026	Trial2BackFr	N	3	0	1000	1	45	08:03:20	2310698	0	0	0	0	0	0	0	0	0	0	0	0	0	0	0	0	0
103012	08:03:20	10026	Trial2BackFr	N	3	0	1000	1	46	08:03:20	2312204	0	0	0	0	0	0	0	0	0	0	0	0	0	0	0	0	0
103012	08:03:20	10026	Trial2BackFr	N	3	0	1000	1	47	08:03:20	2313723	0	0	0	0	0	0	0	0	0	0	0	0	0	0	0	0	0
103012	08:03:20	10026	Trial2BackFr	Y	3	0	1000	0	47	08:03:20	2315242	0	0	0	0	0	0	0	0	0	0	0	0	0	0	0	0	0
103012	08:03:20	10026	Trial2BackFr	N	3	0	1000	1	48	08:03:20	2316749	0	0	0	0	0	0	0	0	0	0	0	0	0	0	0	0	0
103012	08:03:20	10026	Trial2BackFr	N	3	0	1000	1	49	08:03:20	2318255	0	0	0	0	0	0	0	0	0	0	0	0	0	0	0	0	0
103012	08:03:20	10026	Trial2BackFr	N	3	0	1000	1	50	08:03:20	2319774	0	0	0	0	0	0	0	0	0	0	0	0	0	0	0	0	0
103012	08:03:20	10026	Trial2BackFr	N	3	0	1000	1	51	08:03:20	2321280	0	0	0	0	0	0	0	0	0	0	0	0	0	0	0	0	0
103012	08:03:20	10026	Trial2BackFr	N	3	0	1000	1	52	08:03:20	2322786	0	0	0	0	0	0	0	0	0	0	0	0	0	0	0	0	0
103012	08:03:20	10026	Trial2BackFr	N	3	0	1000	1	53	08:03:20	2324292	0	0	0	0	0	0	0	0	0	0	0	0	0	0	0	0	0
103012	08:03:20	10026	Trial2BackFr	Y	3	0	1000	0	53	08:03:20	2325798	0	0	0	0	0	0	0	0	0	0	0	0	0	0	0	0	0
103012	08:03:20	10026	Trial2BackFr	N	3	0	1000	1	54	08:03:20	2327304	0	0	0	0	0	0	0	0	0	0	0	0	0	0	0	0	0
103012	08:03:20	10026	Trial2BackFr	N	3	0	1000	1	55	08:03:20	2328810	0	0	0	0	0	0	0	0	0	0	0	0	0	0	0	0	0
103012	08:03:20	10026	Trial2BackFr	Y	3	57	600	1	56	08:03:20	2329930	0	0	0	0	0	0	0	0	0	0	0	0	0	0	0	0	0
103012	08:03:20	10026	Trial2BackFr	N	3	0	1000	1	57	08:03:20	2331823	0	0	0	0	0	0	0	0	0	0	0	0	0	0	0	0	0
103012	08:03:20	10026	Trial2BackFr	N	3	0	1000	1	58	08:03:20	2333329	0	0	0	0	0	0	0	0	0	0	0	0	0	0	0	0	0
103012	08:03:20	10026	Trial2BackFr	N	3	0	1000	1	59	08:03:20	2334835	0	0	0	0	0	0	0	0	0	0	0	0	0	0	0	0	0
103012	08:03:20	10026	Trial2BackFr	N	3	0	1000	1	60	08:03:20	2336341	0	0	0	0	0	0	0	0	0	0	0	0	0	0	0	0	0
103012	08:03:20	10026	Trial2BackFr	N	3	0	1000	1	61	08:03:20	2337847	0	0	0	0	0	0	0	0	0	0	0	0	0	0	0	0	0
103012	08:03:20	10026	Trial2BackFr	N	3	0	1000	1	62	08:03:20	2339353	0	0	0	0	0	0	0	0	0	0	0	0	0	0	0	0	0
103012	08:03:20	10026	Trial2BackFr	N	3	57	730	0	62	08:03:20	2340592	0	0	0	0	0	0	0	0	0	0	0	0	0	0	0	0	0
103012	08:03:20	10026	Trial2BackFr	N	3	0	1000	1	63	08:03:20	2342365	0	0	0	0	0	0	0	0	0	0	0	0	0	0	0	0	0
103012	08:03:20	10026	Trial2BackFr	N	3	0	1000	1	64	08:03:20	2343871	0	0	0	0	0	0	0	0	0	0	0	0	0	0	0	0	0
103012	08:03:20	10026	Trial2BackFr	N	3	0	1000	1	65	08:03:20	2345377	0	0	0	0	0	0	0	0	0	0	0	0	0	0	0	0	0
103012	08:03:20	10026	Trial2BackFr	Y	3	57	577	1	66	08:03:20	2346470	0	0	0	0	0	0	0	0	0	0	0	0	0	0	0	0	0
103012	08:03:20	10026	Trial2BackFr	N	3	0	1000	1	67	08:03:20	2348389	0	0	0	0	0	0	0	0	0	0	0	0	0	0	0	0	0
103012	08:03:20	10026	Trial2BackFr	N	3	0	1000	1	68	08:03:20	2349895	0	0	0	0	0	0	0	0	0	0	0	0	0	0	0	0	0
103012	08:03:20	10026	Trial2BackFr	N	3	0	1000	1	69	08:03:20	2351402	0	0	0	0	0	0	0	0	0	0	0	0	0	0	0	0	0
103012	08:03:20	10026	Trial2BackFr	Y	3	57	649	1	70	08:03:20	2352561	0	0	0	0	0	0	0	0	0	0	0	0	0	0	0	0	0
103012	08:03:20	10026	Trial2BackFr	N	3	57	935	0	70	08:03:20	2354360	0	0	0	0	0	0	0	0	0	0	0	0	0	0	0	0	0
103012	08:03:20	10026	Trial2BackFr	N	3	0	1000	1	71	08:03:20	2355920	0	0	0	0	0	0	0	0	0	0	0	0	0	0	0	0	0
103012	08:03:20	10026	Trial2BackFr	N	3	0	1000	1	72	08:03:20	2357426	0	0	0	0	0	0	0	0	0	0	0	0	0	0	0	0	0
103012	08:03:20	10026	Trial2BackFr	N	3	0	1000	1	73	08:03:20	2358932	0	0	0	0	0	0	0	0	0	0	0	0	0	0	0	0	0
103012	08:03:20	10026	Trial2BackFr	N	3	0	1000	1	74	08:03:20	2360438	0	0	0	0	0	0	0	0	0	0	0	0	0	0	0	0	0
103012	08:03:20	10026	Trial2BackFr	Y	3	57	620	1	75	08:03:20	2361571	0	0	0	0	0	0	0	0	0	0	0	0	0	0	0	0	0
103012	08:03:20	10026	Trial2BackFr	N	3	0	1000	1	76	08:03:20	2363450	0	0	0	0	0	0	0	0	0	0	0	0	0	0	0	0	0
103012	08:03:20	10026	Trial2BackFr	N	3	0	1000	1	77	08:03:20	2364956	0	0	0	0	0	0	0	0	0	0	0	0	0	0	0	0	0
103012	08:03:20	10026	Trial2BackFr	N	3	0	1000	1	78	08:03:20	2366462	0	0	0	0	0	0	0	0	0	0	0	0	0	0	0	0	0
103012	08:03:20	10026	Trial2BackFr	N	3	0	1000	1	79	08:03:20	2367968	0	0	0	0	0	0	0	0	0	0	0	0	0	0	0	0	0
103012	08:03:20	10026	Trial2BackFr	N	3	0	1000	1	80	08:03:20	2369474	0	0	0	0	0	0	0	0	0	0	0	0	0	0	0	0	0
103012	08:03:20	10026	Trial2BackFr	N	3	0	1000	1	81	08:03:20	2370980	0	0	0	0	0	0	0	0	0	0	0	0	0	0	0	0	0
103012	08:03:20	10026	Trial2BackFr	N	3	0	1000	1	82	08:03:20	2372487	0	0	0	0	0	0	0	0	0	0	0	0	0	0	0	0	0
103012	08:03:20	10026	Trial2BackFr	N	3	0	1000	1	83	08:03:20	2373993	0	0	0	0	0	0	0	0	0	0	0	0	0	0	0	0	0
103012	08:03:20	10026	Trial2BackFr	N	3	0	1000	1	84	08:03:20	2375512	0	0	0	0	0	0	0	0	0	0	0	0	0	0	0	0	0
103012	08:03:20	10026	Trial2BackFr	Y	3	57	778	1	85	08:03:20	2376805	0	0	0	0	0	0	0	0	0	0	0	0	0	0	0	0	0
103012	08:03:20	10026	Trial2BackFr	N	3	0	1000	1	86	08:03:20	2378524	0	0	0	0	0	0	0	0	0	0	0	0	0	0	0	0	0
103012	08:03:20	10026	Trial2BackFr	N	3	0	1000	1	87	08:03:20	2380030	0	0	0	0	0	0	0	0	0	0	0	0	0	0	0	0	0
103012	08:03:20	10026	Trial2BackFr	N	3	0	1000	1	88	08:03:20	2381536	0	0	0	0	0	0	0	0	0	0	0	0	0	0	0	0	0
103012	08:03:20	10026	Trial2BackFr	N	3	0	1000	1	89	08:03:20	2383042	0	0	0	0	0	0	0	0	0	0	0	0	0	0	0	0	0
103012	08:03:20	10026	Trial2BackFr	N	3	57	578	0	89	08:03:20	2384149	0	0	0	0	0	0	0	0	0	0	0	0	0	0	0	0	0
103012	08:03:20	10026	Trial2BackFr	N	3	0	1000	1	90	08:03:20	2386054	0	0	0	0	0	0	0	0	0	0	0	0	0	0	0	0	0
103012	08:03:20	10026	Trial2BackFr	N	3	0	1000	1	91	08:03:20	2387561	0	0	0	0	0	0	0	0	0	0	0	0	0	0	0	0	0
103012	08:03:20	10026	Trial2BackFr	N	3	0	1000	1	92	08:03:20	2389067	0	0	0	0	0	0	0	0	0	0	0	0	0	0	0	0	0
103012	08:03:20	10026	Trial2BackFr	Y	3	57	487	1	93	08:03:20	2390066	0	0	0	0	0	0	0	0	0	0	0	0	0	0	0	0	0
103012	08:03:20	10026	Trial2BackFr	N	3	0	1000	1	94	08:03:20	2392079	0	0	0	0	0	0	0	0	0	0	0	0	0	0	0	0	0
103012	08:03:20	10026	Trial2BackFr	N	3	0	1000	1	95	08:03:20	2393585	0	0	0	0	0	0	0	0	0	0	0	0	0	0	0	0	0
103012	08:03:20	10026	Trial2BackFr	N	3	0	1000	1	96	08:03:20	2395091	0	0	0	0	0	0	0	0	0	0	0	0	0	0	0	0	0
103012	08:03:20	10026	Trial2BackFr	N	3	0	1000	1	97	08:03:20	2396597	0	0	0	0	0	0	0	0	0	0	0	0	0	0	0	0	0
103012	08:03:20	10026	Trial2BackFr	Y	3	57	765	1	98	08:03:20	2397876	0	0	0	0	0	0	0	0	0	0	0	0	0	0	0	0	0
103012	08:03:20	10026	Trial2BackFr	N	3	0	1000	1	99	08:03:20	2399609	0	0	0	0	0	0	0	0	0	0	0	0	0	0	0	0	0
103012	08:03:20	10026	Trial2BackFr	N	3	0	1000	1	100	08:03:20	2401115	0	0	0	0	0	0	0	0	0	0	0	0	0	0	0	0	0
103012	08:03:20	10026	Trial2BackFr	N	3	0	1000	1	101	08:03:20	2402621	0	0	0	0	0	0	0	0	0	0	0	0	0	0	0	0	0
103012	08:03:20	10026	Trial2BackFr	Y	3	57	580	1	102	08:03:20	2403714	0	0	0	0	0	0	0	0	0	0	0	0	0	0	0	0	0
103012	08:03:20	10026	Trial2BackFr	N	3	0	1000	1	103	08:03:20	2405633	0	0	0	0	0	0	0	0	0	0	0	0	0	0	0	0	0
103012	08:03:20	10026	Trial2BackFr	N	3	0	1000	1	104	08:03:20	2407139	0	0	0	0	0	0	0	0	0	0	0	0	0	0	0	0	0
103012	08:03:20	10026	Trial2BackFr	N	3	0	1000	1	105	08:03:20	2408646	0	0	0	0	0	0	0	0	0	0	0	0	0	0	0	0	0
103012	08:03:20	10026	Trial2BackFr	N	3	0	1000	1	106	08:03:20	2410152	0	0	0	0	0	0	0	0	0	0	0	0	0	0	0	0	0
103012	08:03:20	10026	Trial2BackFr	N	3	0	1000	1	107	08:03:20	2411658	0	0	0	0	0	0	0	0	0	0	0	0	0	0	0	0	0
103012	08:03:20	10026	Trial2BackFr	Y	3	57	440	1	108	08:03:20	2412617	0	0	0	0	0	0	0	0	0	0	0	0	0	0	0	0	0
103012	08:03:20	10026	Trial2BackFr	N	3	0	1000	1	109	08:03:20	2414670	0	0	0	0	0	0	0	0	0	0	0	0	0	0	0	0	0
103012	08:03:20	10026	Trial2BackFr	N	3	0	1000	1	110	08:03:20	2416176	0	0	0	0	0	0	0	0	0	0	0	0	0	0	0	0	0
103012	08:03:20	10026	Trial2BackFr	N	3	0	1000	1	111	08:03:20	2417682	0	0	0	0	0	0	0	0	0	0	0	0	0	0	0	0	0
103012	08:03:20	10026	Trial2BackFr	Y	3	57	479	1	112	08:03:20	2418682	0	0	0	0	0	0	0	0	0	0	0	0	0	0	0	0	0
103012	08:03:20	10026	Trial3BackFr	NN	4	0	1000	1	112	08:03:20	2526492	0	0	0	0	0	0	0	0	0	0	0	0	0	0	0	0	0
103012	08:03:20	10026	Trial3BackFr	NN	4	0	1000	1	112	08:03:20	2528012	0	0	0	0	0	0	0	0	0	0	0	0	0	0	0	0	0
103012	08:03:20	10026	Trial3BackFr	NN	4	0	1000	1	112	08:03:20	2529518	0	0	0	0	0	0	0	0	0	0	0	0	0	0	0	0	0
103012	08:03:20	10026	Trial3BackFr	YY	4	57	498	1	112	08:03:20	2530531	0	0	0	0	0	0	0	0	0	0	0	0	0	0	0	0	0
103012	08:03:20	10026	Trial3BackFr	NN	4	0	1000	1	112	08:03:20	2532530	0	0	0	0	0	0	0	0	0	0	0	0	0	0	0	0	0
103012	08:03:20	10026	Trial3BackFr	NN	4	0	1000	1	112	08:03:20	2534036	0	0	0	0	0	0	0	0	0	0	0	0	0	0	0	0	0
103012	08:03:20	10026	Trial3BackFr	NN	4	0	1000	1	112	08:03:20	2535542	0	0	0	0	0	0	0	0	0	0	0	0	0	0	0	0	0
103012	08:03:20	10026	Trial3BackFr	NN	4	0	1000	1	112	08:03:20	2537048	0	0	0	0	0	0	0	0	0	0	0	0	0	0	0	0	0
103012	08:03:20	10026	Trial3BackFr	YY	4	0	1000	0	112	08:03:20	2538554	0	0	0	0	0	0	0	0	0	0	0	0	0	0	0	0	0
103012	08:03:20	10026	Trial3BackFr	NN	4	0	1000	1	112	08:03:20	2540060	0	0	0	0	0	0	0	0	0	0	0	0	0	0	0	0	0
103012	08:03:20	10026	Trial3BackFr	NN	4	0	1000	1	112	08:03:20	2541566	0	0	0	0	0	0	0	0	0	0	0	0	0	0	0	0	0
103012	08:03:20	10026	Trial3BackFr	NN	4	0	1000	1	112	08:03:20	2543072	0	0	0	0	0	0	0	0	0	0	0	0	0	0	0	0	0
103012	08:03:20	10026	Trial3BackFr	NN	4	57	943	0	112	08:03:20	2544525	0	0	0	0	0	0	0	0	0	0	0	0	0	0	0	0	0
103012	08:03:20	10026	Trial3BackFr	NN	4	0	1000	1	112	08:03:20	2546085	0	0	0	0	0	0	0	0	0	0	0	0	0	0	0	0	0
103012	08:03:20	10026	Trial3BackFr	NN	4	0	1000	1	112	08:03:20	2547591	0	0	0	0	0	0	0	0	0	0	0	0	0	0	0	0	0
103012	08:03:20	10026	Trial3BackFr	NN	4	0	1000	1	112	08:03:20	2549097	0	0	0	0	0	0	0	0	0	0	0	0	0	0	0	0	0
103012	08:03:20	10026	Trial3BackFr	YY	4	57	359	1	112	08:03:20	2549976	0	0	0	0	0	0	0	0	0	0	0	0	0	0	0	0	0
103012	08:03:20	10026	Trial3BackFr	NN	4	0	1000	1	112	08:03:20	2552109	0	0	0	0	0	0	0	0	0	0	0	0	0	0	0	0	0
103012	08:03:20	10026	Trial3BackFr	NN	4	0	1000	1	112	08:03:20	2553615	0	0	0	0	0	0	0	0	0	0	0	0	0	0	0	0	0
103012	08:03:20	10026	Trial3BackFr	NN	4	0	1000	1	112	08:03:20	2555121	0	0	0	0	0	0	0	0	0	0	0	0	0	0	0	0	0
103012	08:03:20	10026	Trial3BackFr	NN	4	0	1000	1	112	08:03:20	2556627	0	0	0	0	0	0	0	0	0	0	0	0	0	0	0	0	0
103012	08:03:20	10026	Trial3BackFr	NN	4	0	1000	1	112	08:03:20	2558133	0	0	0	0	0	0	0	0	0	0	0	0	0	0	0	0	0
103012	08:03:20	10026	Trial3BackFr	YY	4	57	698	1	112	08:03:20	2559346	0	0	0	0	0	0	0	0	0	0	0	0	0	0	0	0	0
103012	08:03:20	10026	Trial3BackFr	NN	4	0	1000	1	112	08:03:20	2561145	0	0	0	0	0	0	0	0	0	0	0	0	0	0	0	0	0
103012	08:03:20	10026	Trial3BackFr	NN	4	0	1000	1	112	08:03:20	2562651	0	0	0	0	0	0	0	0	0	0	0	0	0	0	0	0	0
103012	08:03:20	10026	Trial3BackFr	NN	4	0	1000	1	112	08:03:20	2564157	0	0	0	0	0	0	0	0	0	0	0	0	0	0	0	0	0
103012	08:03:20	10026	Trial3BackFr	YY	4	57	546	1	112	08:03:20	2565224	0	0	0	0	0	0	0	0	0	0	0	0	0	0	0	0	0
103012	08:03:20	10026	Trial3BackFr	NN	4	0	1000	1	112	08:03:20	2567170	0	0	0	0	0	0	0	0	0	0	0	0	0	0	0	0	0
103012	08:03:20	10026	Trial3BackFr	NN	4	0	1000	1	112	08:03:20	2568676	0	0	0	0	0	0	0	0	0	0	0	0	0	0	0	0	0
103012	08:03:20	10026	Trial3BackFr	NN	4	0	1000	1	112	08:03:20	2570182	0	0	0	0	0	0	0	0	0	0	0	0	0	0	0	0	0
103012	08:03:20	10026	Trial3BackFr	YY	4	57	650	1	112	08:03:20	2571341	0	0	0	0	0	0	0	0	0	0	0	0	0	0	0	0	0
103012	08:03:20	10026	Trial3BackFr	NN	4	0	1000	1	112	08:03:20	2573194	0	0	0	0	0	0	0	0	0	0	0	0	0	0	0	0	0
103012	08:03:20	10026	Trial3BackFr	NN	4	0	1000	1	112	08:03:20	2574700	0	0	0	0	0	0	0	0	0	0	0	0	0	0	0	0	0
103012	08:03:20	10026	Trial3BackFr	NN	4	0	1000	1	112	08:03:20	2576219	0	0	0	0	0	0	0	0	0	0	0	0	0	0	0	0	0
103012	08:03:20	10026	Trial3BackFr	NN	4	57	420	0	112	08:03:20	2577152	0	0	0	0	0	0	0	0	0	0	0	0	0	0	0	0	0
103012	08:03:20	10026	Trial3BackFr	NN	4	0	1000	1	112	08:03:20	2579231	0	0	0	0	0	0	0	0	0	0	0	0	0	0	0	0	0
103012	08:03:20	10026	Trial3BackFr	NN	4	0	1000	1	112	08:03:20	2580738	0	0	0	0	0	0	0	0	0	0	0	0	0	0	0	0	0
103012	08:03:20	10026	Trial3BackFr	NN	4	0	1000	1	112	08:03:20	2582244	0	0	0	0	0	0	0	0	0	0	0	0	0	0	0	0	0
103012	08:03:20	10026	Trial3BackFr	NN	4	0	1000	1	112	08:03:20	2583750	0	0	0	0	0	0	0	0	0	0	0	0	0	0	0	0	0
103012	08:03:20	10026	Trial3BackFr	NN	4	0	1000	1	112	08:03:20	2585256	0	0	0	0	0	0	0	0	0	0	0	0	0	0	0	0	0
103012	08:03:20	10026	Trial3BackFr	NN	4	0	1000	1	112	08:03:20	2586762	0	0	0	0	0	0	0	0	0	0	0	0	0	0	0	0	0
103012	08:03:20	10026	Trial3BackFr	YY	4	0	1000	0	112	08:03:20	2588268	0	0	0	0	0	0	0	0	0	0	0	0	0	0	0	0	0
103012	08:03:20	10026	Trial3BackFr	NN	4	0	1000	1	112	08:03:20	2589774	0	0	0	0	0	0	0	0	0	0	0	0	0	0	0	0	0
103012	08:03:20	10026	Trial3BackFr	NN	4	0	1000	1	112	08:03:20	2591280	0	0	0	0	0	0	0	0	0	0	0	0	0	0	0	0	0
103012	08:03:20	10026	Trial3BackFr	NN	4	0	1000	1	112	08:03:20	2592786	0	0	0	0	0	0	0	0	0	0	0	0	0	0	0	0	0
103012	08:03:20	10026	Trial3BackFr	NN	4	0	1000	1	112	08:03:20	2594292	0	0	0	0	0	0	0	0	0	0	0	0	0	0	0	0	0
103012	08:03:20	10026	Trial3BackFr	YY	4	57	651	1	112	08:03:20	2595452	0	0	0	0	0	0	0	0	0	0	0	0	0	0	0	0	0
103012	08:03:20	10026	Trial3BackFr	NN	4	0	1000	1	112	08:03:20	2597304	0	0	0	0	0	0	0	0	0	0	0	0	0	0	0	0	0
103012	08:03:20	10026	Trial3BackFr	NN	4	0	1000	1	112	08:03:20	2598810	0	0	0	0	0	0	0	0	0	0	0	0	0	0	0	0	0
103012	08:03:20	10026	Trial3BackFr	NN	4	0	1000	1	112	08:03:20	2600316	0	0	0	0	0	0	0	0	0	0	0	0	0	0	0	0	0
103012	08:03:20	10026	Trial3BackFr	NN	4	0	1000	1	112	08:03:20	2601823	0	0	0	0	0	0	0	0	0	0	0	0	0	0	0	0	0
103012	08:03:20	10026	Trial3BackFr	NN	4	0	1000	1	112	08:03:20	2603329	0	0	0	0	0	0	0	0	0	0	0	0	0	0	0	0	0
103012	08:03:20	10026	Trial3BackFr	YY	4	0	1000	0	112	08:03:20	2604835	0	0	0	0	0	0	0	0	0	0	0	0	0	0	0	0	0
103012	08:03:20	10026	Trial3BackFr	NN	4	0	1000	1	112	08:03:20	2606341	0	0	0	0	0	0	0	0	0	0	0	0	0	0	0	0	0
103012	08:03:20	10026	Trial3BackFr	NN	4	0	1000	1	112	08:03:20	2607847	0	0	0	0	0	0	0	0	0	0	0	0	0	0	0	0	0
103012	08:03:20	10026	Trial3BackFr	NN	4	0	1000	1	112	08:03:20	2609366	0	0	0	0	0	0	0	0	0	0	0	0	0	0	0	0	0
103012	08:03:20	10026	Trial3BackFr	NN	4	57	665	0	112	08:03:20	2610539	0	0	0	0	0	0	0	0	0	0	0	0	0	0	0	0	0
103012	08:03:20	10026	Trial3BackFr	NN	4	0	1000	1	112	08:03:20	2612378	0	0	0	0	0	0	0	0	0	0	0	0	0	0	0	0	0
103012	08:03:20	10026	Trial3BackFr	NN	4	0	1000	1	112	08:03:20	2613898	0	0	0	0	0	0	0	0	0	0	0	0	0	0	0	0	0
103012	08:03:20	10026	Trial3BackFr	YY	4	0	1000	0	112	08:03:20	2615404	0	0	0	0	0	0	0	0	0	0	0	0	0	0	0	0	0
103012	08:03:20	10026	Trial3BackFr	NN	4	0	1000	1	112	08:03:20	2616910	0	0	0	0	0	0	0	0	0	0	0	0	0	0	0	0	0
103012	08:03:20	10026	Trial3BackFr	NN	4	0	1000	1	112	08:03:20	2618416	0	0	0	0	0	0	0	0	0	0	0	0	0	0	0	0	0
103012	08:03:20	10026	Trial3BackFr	NN	4	0	1000	1	112	08:03:20	2619922	0	0	0	0	0	0	0	0	0	0	0	0	0	0	0	0	0
103012	08:03:20	10026	Trial3BackFr	YY	4	0	1000	0	112	08:03:20	2621428	0	0	0	0	0	0	0	0	0	0	0	0	0	0	0	0	0
103012	08:03:20	10026	Trial3BackFr	NN	4	0	1000	1	112	08:03:20	2622934	0	0	0	0	0	0	0	0	0	0	0	0	0	0	0	0	0
103012	08:03:20	10026	Trial3BackFr	NN	4	0	1000	1	112	08:03:20	2624440	0	0	0	0	0	0	0	0	0	0	0	0	0	0	0	0	0
103012	08:03:20	10026	Trial3BackFr	NN	4	0	1000	1	112	08:03:20	2625946	0	0	0	0	0	0	0	0	0	0	0	0	0	0	0	0	0
103012	08:03:20	10026	Trial3BackFr	NN	4	0	1000	1	112	08:03:20	2627452	0	0	0	0	0	0	0	0	0	0	0	0	0	0	0	0	0
103012	08:03:20	10026	Trial3BackFr	NN	4	0	1000	1	112	08:03:20	2628958	0	0	0	0	0	0	0	0	0	0	0	0	0	0	0	0	0
103012	08:03:20	10026	Trial3BackFr	NN	4	0	1000	1	112	08:03:20	2630465	0	0	0	0	0	0	0	0	0	0	0	0	0	0	0	0	0
103012	08:03:20	10026	Trial3BackFr	NN	4	0	1000	1	112	08:03:20	2631971	0	0	0	0	0	0	0	0	0	0	0	0	0	0	0	0	0
103012	08:03:20	10026	Trial3BackFr	NN	4	0	1000	1	112	08:03:20	2633477	0	0	0	0	0	0	0	0	0	0	0	0	0	0	0	0	0
103012	08:03:20	10026	Trial3BackFr	NN	4	0	1000	1	112	08:03:20	2634983	0	0	0	0	0	0	0	0	0	0	0	0	0	0	0	0	0
103012	08:03:20	10026	Trial3BackFr	YY	4	0	1000	0	112	08:03:20	2636489	0	0	0	0	0	0	0	0	0	0	0	0	0	0	0	0	0
103012	08:03:20	10026	Trial3BackFr	NN	4	0	1000	1	112	08:03:20	2637995	0	0	0	0	0	0	0	0	0	0	0	0	0	0	0	0	0
103012	08:03:20	10026	Trial3BackFr	NN	4	0	1000	1	112	08:03:20	2639501	0	0	0	0	0	0	0	0	0	0	0	0	0	0	0	0	0
103012	08:03:20	10026	Trial3BackFr	NN	4	57	610	0	112	08:03:20	2640620	0	0	0	0	0	0	0	0	0	0	0	0	0	0	0	0	0
103012	08:03:20	10026	Trial3BackFr	YY	4	0	1000	0	112	08:03:20	2642513	0	0	0	0	0	0	0	0	0	0	0	0	0	0	0	0	0
103012	08:03:20	10026	Trial3BackFr	NN	4	0	1000	1	112	08:03:20	2644019	0	0	0	0	0	0	0	0	0	0	0	0	0	0	0	0	0
103012	08:03:20	10026	Trial3BackFr	NN	4	0	1000	1	112	08:03:20	2645525	0	0	0	0	0	0	0	0	0	0	0	0	0	0	0	0	0
103012	08:03:20	10026	Trial3BackFr	NN	4	0	1000	1	112	08:03:20	2647031	0	0	0	0	0	0	0	0	0	0	0	0	0	0	0	0	0
103012	08:03:20	10026	Trial3BackFr	NN	4	0	1000	1	112	08:03:20	2648537	0	0	0	0	0	0	0	0	0	0	0	0	0	0	0	0	0
103012	08:03:20	10026	Trial3BackFr	NN	4	0	1000	1	112	08:03:20	2650043	0	0	0	0	0	0	0	0	0	0	0	0	0	0	0	0	0
103012	08:03:20	10026	Trial3BackFr	YY	4	57	611	1	112	08:03:20	2651163	0	0	0	0	0	0	0	0	0	0	0	0	0	0	0	0	0
103012	08:03:20	10026	Trial3BackFr	NN	4	0	1000	1	112	08:03:20	2653056	0	0	0	0	0	0	0	0	0	0	0	0	0	0	0	0	0
103012	08:03:20	10026	Trial3BackFr	NN	4	0	1000	1	112	08:03:20	2654562	0	0	0	0	0	0	0	0	0	0	0	0	0	0	0	0	0
103012	08:03:20	10026	Trial3BackFr	NN	4	0	1000	1	112	08:03:20	2656068	0	0	0	0	0	0	0	0	0	0	0	0	0	0	0	0	0
103012	08:03:20	10026	Trial3BackFr	NN	4	0	1000	1	112	08:03:20	2657574	0	0	0	0	0	0	0	0	0	0	0	0	0	0	0	0	0
103012	08:03:20	10026	Trial3BackFr	NN	4	0	1000	1	112	08:03:20	2659080	0	0	0	0	0	0	0	0	0	0	0	0	0	0	0	0	0
103012	08:03:20	10026	Trial3BackFr	NN	4	0	1000	1	112	08:03:20	2660586	0	0	0	0	0	0	0	0	0	0	0	0	0	0	0	0	0
103012	08:03:20	10026	Trial3BackFr	NN	4	0	1000	1	112	08:03:20	2662092	0	0	0	0	0	0	0	0	0	0	0	0	0	0	0	0	0
103012	08:03:20	10026	Trial3BackFr	NN	4	57	706	0	112	08:03:20	2663318	0	0	0	0	0	0	0	0	0	0	0	0	0	0	0	0	0
103012	08:03:20	10026	Trial3BackFr	NN	4	0	1000	1	112	08:03:20	2665104	0	0	0	0	0	0	0	0	0	0	0	0	0	0	0	0	0
103012	08:03:20	10026	Trial3BackFr	YY	4	0	1000	0	112	08:03:20	2666610	0	0	0	0	0	0	0	0	0	0	0	0	0	0	0	0	0
103012	08:03:20	10026	Trial3BackFr	NN	4	0	1000	1	112	08:03:20	2668116	0	0	0	0	0	0	0	0	0	0	0	0	0	0	0	0	0
103012	08:03:20	10026	Trial3BackFr	NN	4	57	490	0	112	08:03:20	2669116	0	0	0	0	0	0	0	0	0	0	0	0	0	0	0	0	0
103012	08:03:20	10026	Trial3BackFr	NN	4	0	1000	1	112	08:03:20	2671128	0	0	0	0	0	0	0	0	0	0	0	0	0	0	0	0	0
103012	08:03:20	10026	Trial3BackFr	NN	4	0	1000	1	112	08:03:20	2672635	0	0	0	0	0	0	0	0	0	0	0	0	0	0	0	0	0
103012	08:03:20	10026	Trial3BackFr	NN	4	0	1000	1	112	08:03:20	2674154	0	0	0	0	0	0	0	0	0	0	0	0	0	0	0	0	0
103012	08:03:20	10026	Trial3BackFr	NN	4	0	1000	1	112	08:03:20	2675660	0	0	0	0	0	0	0	0	0	0	0	0	0	0	0	0	0
103012	08:03:20	10026	Trial3BackFr	NN	4	0	1000	1	112	08:03:20	2677166	0	0	0	0	0	0	0	0	0	0	0	0	0	0	0	0	0
103012	08:03:20	10026	Trial3BackFr	NN	4	0	1000	1	112	08:03:20	2678672	0	0	0	0	0	0	0	0	0	0	0	0	0	0	0	0	0
103012	08:03:20	10026	Trial3BackFr	YY	4	0	1000	0	112	08:03:20	2680178	0	0	0	0	0	0	0	0	0	0	0	0	0	0	0	0	0
103012	08:03:20	10026	Trial3BackFr	NN	4	0	1000	1	112	08:03:20	2681684	0	0	0	0	0	0	0	0	0	0	0	0	0	0	0	0	0
103012	08:03:20	10026	Trial3BackFr	NN	4	0	1000	1	112	08:03:20	2683190	0	0	0	0	0	0	0	0	0	0	0	0	0	0	0	0	0
103012	08:03:20	10026	Trial3BackFr	NN	4	0	1000	1	112	08:03:20	2684696	0	0	0	0	0	0	0	0	0	0	0	0	0	0	0	0	0
103012	08:03:20	10026	Trial3BackFr	NN	4	0	1000	1	112	08:03:20	2686203	0	0	0	0	0	0	0	0	0	0	0	0	0	0	0	0	0
103012	08:03:20	10026	Trial3BackFr	YY	4	57	867	1	112	08:03:20	2687589	0	0	0	0	0	0	0	0	0	0	0	0	0	0	0	0	0
103012	08:03:20	10026	Trial3BackFr	NN	4	0	1000	1	112	08:03:20	2689215	0	0	0	0	0	0	0	0	0	0	0	0	0	0	0	0	0
103012	08:03:20	10026	Trial3BackFr	NN	4	0	1000	1	112	08:03:20	2690721	0	0	0	0	0	0	0	0	0	0	0	0	0	0	0	0	0
103012	08:03:20	10026	Trial3BackFr	NN	4	0	1000	1	112	08:03:20	2692240	0	0	0	0	0	0	0	0	0	0	0	0	0	0	0	0	0
103012	08:03:20	10026	Trial3BackFr	YY	4	57	397	1	112	08:03:20	2693146	0	0	0	0	0	0	0	0	0	0	0	0	0	0	0	0	0
103012	08:03:20	10026	Trial3BackFr	NN	4	0	1000	1	112	08:03:20	2695253	0	0	0	0	0	0	0	0	0	0	0	0	0	0	0	0	0
103012	08:03:20	10026	Trial3BackFr	NN	4	0	1000	1	112	08:03:20	2696758	0	0	0	0	0	0	0	0	0	0	0	0	0	0	0	0	0
103012	08:03:20	10026	Trial3BackFr	NN	4	0	1000	1	112	08:03:20	2698278	0	0	0	0	0	0	0	0	0	0	0	0	0	0	0	0	0
103012	08:03:20	10026	Trial3BackFr	NN	4	0	1000	1	112	08:03:20	2699784	0	0	0	0	0	0	0	0	0	0	0	0	0	0	0	0	0
103012	08:03:20	10026	Trial3BackFr	NN	4	0	1000	1	112	08:03:20	2701290	0	0	0	0	0	0	0	0	0	0	0	0	0	0	0	0	0
103012	08:03:20	10026	Trial3BackFr	YY	4	57	803	1	112	08:03:20	2702609	0	0	0	0	0	0	0	0	0	0	0	0	0	0	0	0	0
103012	08:03:20	10026	Trial3BackFr	NN	4	0	1000	1	112	08:03:20	2704302	0	0	0	0	0	0	0	0	0	0	0	0	0	0	0	0	0
103012	08:03:20	10026	Trial3BackFr	NN	4	0	1000	1	112	08:03:20	2705808	0	0	0	0	0	0	0	0	0	0	0	0	0	0	0	0	0
103012	08:03:20	10026	Trial3BackFr	NN	4	0	1000	1	112	08:03:20	2707314	0	0	0	0	0	0	0	0	0	0	0	0	0	0	0	0	0
103012	08:03:20	10026	Trial3BackFr	YY	4	57	379	1	112	08:03:20	2708207	0	0	0	0	0	0	0	0	0	0	0	0	0	0	0	0	0
103012	08:03:20	10026	Memory1R3moFr	ScoreFr	5	M2	8550	0	112	08:03:20	2743154	0	0	0	0	0	0	0	0	0	0	0	0	0	0	0	0	0
103012	08:03:20	10026	Memory1R3moFr	ScoreFr	5	M7	754	0	112	08:03:20	2743953	0	0	0	0	0	0	0	0	0	0	0	0	0	0	0	0	0
103012	08:03:20	10026	Memory1R3moFr	ScoreFr	5	M8	226	0	112	08:03:20	2744233	0	0	0	0	0	0	0	0	0	0	0	0	0	0	0	0	0
103012	08:03:20	10026	Memory1R3moFr	ScoreFr	5	M4	1442	0	112	08:03:20	2745726	0	0	0	0	0	0	0	0	0	0	0	0	0	0	0	0	0
103012	08:03:20	10026	Memory1R3moFr	ScoreFr	5	M1	5343	0	112	08:03:20	2751124	0	0	0	0	0	0	0	0	0	0	0	0	0	0	0	0	0
103012	08:03:20	10026	Memory1R3moFr	ScoreFr	5	Done	18631	0	112	08:03:20	2769810	0	0	0	0	0	0	0	0	0	0	0	0	0	0	0	0	0
103012	08:03:20	10026	Memory2R3moFr	ScoreFr2	5	11	17328	0	112	08:03:20	2806262	0	0	0	0	0	0	0	0	0	0	0	0	0	0	0	0	0
103012	08:03:20	10026	Memory2R3moFr	ScoreFr2	5	44	1332	0	112	08:03:20	2807648	0	0	0	0	0	0	0	0	0	0	0	0	0	0	0	0	0
103012	08:03:20	10026	Memory2R3moFr	ScoreFr2	5	55	930	0	112	08:03:20	2808634	0	0	0	0	0	0	0	0	0	0	0	0	0	0	0	0	0
103012	08:03:20	10026	Memory2R3moFr	ScoreFr2	5	66	216	0	112	08:03:20	2808901	0	0	0	0	0	0	0	0	0	0	0	0	0	0	0	0	0
103012	08:03:20	10026	Memory2R3moFr	ScoreFr2	5	77	910	0	112	08:03:20	2809861	0	0	0	0	0	0	0	0	0	0	0	0	0	0	0	0	0
103012	08:03:20	10026	Memory2R3moFr	ScoreFr2	5	88	238	0	112	08:03:20	2810154	0	0	0	0	0	0	0	0	0	0	0	0	0	0	0	0	0
103012	08:03:20	10026	Memory2R3moFr	ScoreFr2	5	Done	17641	0	112	08:03:20	2827840	0	0	0	0	0	0	0	0	0	0	0	0	0	0	0	0	0
103012	08:03:20	10026	Memory3R3moFr	ScoreFr3	5	111	11596	0	112	08:03:20	2859614	0	0	0	0	0	0	0	0	0	0	0	0	0	0	0	0	0
103012	08:03:20	10026	Memory3R3moFr	ScoreFr3	5	333	1707	0	112	08:03:20	2861374	0	0	0	0	0	0	0	0	0	0	0	0	0	0	0	0	0
103012	08:03:20	10026	Memory3R3moFr	ScoreFr3	5	444	932	0	112	08:03:20	2862360	0	0	0	0	0	0	0	0	0	0	0	0	0	0	0	0	0
103012	08:03:20	10026	Memory3R3moFr	ScoreFr3	5	777	1666	0	112	08:03:20	2864079	0	0	0	0	0	0	0	0	0	0	0	0	0	0	0	0	0
103012	08:03:20	10026	Memory3R3moFr	ScoreFr3	5	888	418	0	112	08:03:20	2864546	0	0	0	0	0	0	0	0	0	0	0	0	0	0	0	0	0
103012	08:03:20	10026	Memory3R3moFr	ScoreFr3	5	666	6072	0	112	08:03:20	2870663	0	0	0	0	0	0	0	0	0	0	0	0	0	0	0	0	0
103012	08:03:20	10026	Memory3R3moFr	ScoreFr3	5	Done	25362	0	112	08:03:20	2896080	0	0	0	0	0	0	0	0	0	0	0	0	0	0	0	0	0
103012	08:03:20	10026	LoriaFrLH3	Stop	6	4	3270	0	112	08:03:20	2978689	0	0	0	0	0	0	0	0	0	0	0	0	0	0	0	0	0
103012	08:03:20	10026	FrTrail	Trails	7	1Trails	1115	0	112	08:03:20	3012340	0	0	0	0	0	0	0	0	0	0	0	0	0	0	0	0	0
103012	08:03:20	10026	Serial7Fr3mo	Serial7Fr3mo	8	83	96515	0	112	08:03:20	3122295	1	0	0	0	0	0	0	0	0	0	0	0	0	0	0	0	0
103012	08:03:20	10026	Serial7Fr3mo	Serial7Fr3mo	8	75	1949	0	112	08:03:20	3124268	1	0	0	0	0	0	0	0	0	0	0	0	0	0	0	0	0
103012	08:03:20	10026	Serial7Fr3mo	Serial7Fr3mo	8	68	1880	0	112	08:03:20	3126174	2	0	0	0	0	0	0	0	0	0	0	0	0	0	0	0	0
103012	08:03:20	10026	Serial7Fr3mo	Serial7Fr3mo	8	61	2758	0	112	08:03:20	3128946	3	0	0	0	0	0	0	0	0	0	0	0	0	0	0	0	0
103012	08:03:20	10026	Serial7Fr3mo	Serial7Fr3mo	8	54	2226	0	112	08:03:20	3131187	4	0	0	0	0	0	0	0	0	0	0	0	0	0	0	0	0
103012	08:03:20	10026	corsiblockFrFwrd	recallseqFrFwrd	9	resetCorsiFr	3749	0	112	08:03:20	3197146	4	0	0	0	0	0	0	0	0	0	0	0	0	0	0	0	0
103012	08:03:20	10026	corsiblockFrFwrd	recallseqFrFwrd	9	6	2574	0	112	08:03:20	3199772	4	0	0	0	0	0	0	0	0	0	0	0	0	0	0	0	0
103012	08:03:20	10026	corsiblockFrFwrd	recallseqFrFwrd	9	9	1325	0	112	08:03:20	3201144	4	0	0	0	0	0	0	0	0	0	0	0	0	0	0	0	0
103012	08:03:20	10026	corsiblockFrFwrd	recallseqFrFwrd	9	2	1954	0	112	08:03:20	3203144	4	0	0	0	0	0	0	0	0	0	0	0	0	0	0	0	0
103012	08:03:20	10026	corsiblockFrFwrd	recallseqFrFwrd	9	doneCorsiFr	5721	0	112	08:03:20	3208915	4	0	0	0	0	0	0	0	0	0	0	0	0	0	0	0	0
103012	08:03:20	10026	corsiblockFrFwrd	recallseqFrFwrd	9	8	2296	0	112	08:03:20	3216298	4	0	0	0	0	0	0	0	0	0	0	0	0	0	0	0	0
103012	08:03:20	10026	corsiblockFrFwrd	recallseqFrFwrd	9	5	1262	0	112	08:03:20	3217605	4	0	0	0	0	0	0	0	0	0	0	0	0	0	0	0	0
103012	08:03:20	10026	corsiblockFrFwrd	recallseqFrFwrd	9	doneCorsiFr	2108	0	112	08:03:20	3219764	4	0	0	0	0	0	0	0	0	0	0	0	0	0	0	2	0
103012	08:03:20	10026	corsiblockFrFwrd	recallseqFrFwrd	9	1	940	0	112	08:03:20	3225815	4	0	0	0	0	0	0	0	0	0	0	0	0	0	0	2	0
103012	08:03:20	10026	corsiblockFrFwrd	recallseqFrFwrd	9	3	1249	0	112	08:03:20	3227121	4	0	0	0	0	0	0	0	0	0	0	0	0	0	0	2	0
103012	08:03:20	10026	corsiblockFrFwrd	recallseqFrFwrd	9	4	599	0	112	08:03:20	3227774	4	0	0	0	0	0	0	0	0	0	0	0	0	0	0	2	0
103012	08:03:20	10026	corsiblockFrFwrd	recallseqFrFwrd	9	doneCorsiFr	2914	0	112	08:03:20	3230733	4	0	0	0	0	0	0	0	0	0	0	0	0	0	0	3	0
103012	08:03:20	10026	corsiblockFrFwrd	recallseqFrFwrd	9	2	1230	0	112	08:03:20	3239089	4	0	0	0	0	0	0	0	0	0	0	0	0	0	0	3	0
103012	08:03:20	10026	corsiblockFrFwrd	recallseqFrFwrd	9	7	886	0	112	08:03:20	3240022	4	0	0	0	0	0	0	0	0	0	0	0	0	0	0	3	0
103012	08:03:20	10026	corsiblockFrFwrd	recallseqFrFwrd	9	2	865	0	112	08:03:20	3240942	4	0	0	0	0	0	0	0	0	0	0	0	0	0	0	3	0
103012	08:03:20	10026	corsiblockFrFwrd	recallseqFrFwrd	9	7	1346	0	112	08:03:20	3242341	4	0	0	0	0	0	0	0	0	0	0	0	0	0	0	3	0
103012	08:03:20	10026	corsiblockFrFwrd	recallseqFrFwrd	9	doneCorsiFr	1874	0	112	08:03:20	3244261	4	0	0	0	0	0	0	0	0	0	0	0	0	0	0	4	0
103012	08:03:20	10026	corsiblockFrFwrd	recallseqFrFwrd	9	6	1134	0	112	08:03:20	3253524	4	0	0	0	0	0	0	0	0	0	0	0	0	0	0	4	0
103012	08:03:20	10026	corsiblockFrFwrd	recallseqFrFwrd	9	8	1316	0	112	08:03:20	3254897	4	0	0	0	0	0	0	0	0	0	0	0	0	0	0	4	0
103012	08:03:20	10026	corsiblockFrFwrd	recallseqFrFwrd	9	1	991	0	112	08:03:20	3255936	4	0	0	0	0	0	0	0	0	0	0	0	0	0	0	4	0
103012	08:03:20	10026	corsiblockFrFwrd	recallseqFrFwrd	9	4	583	0	112	08:03:20	3256576	4	0	0	0	0	0	0	0	0	0	0	0	0	0	0	4	0
103012	08:03:20	10026	corsiblockFrFwrd	recallseqFrFwrd	9	5	560	0	112	08:03:20	3257189	4	0	0	0	0	0	0	0	0	0	0	0	0	0	0	4	0
103012	08:03:20	10026	corsiblockFrFwrd	recallseqFrFwrd	9	doneCorsiFr	1067	0	112	08:03:20	3258309	4	0	0	0	0	0	0	0	0	0	0	0	0	0	0	5	0
103012	08:03:20	10026	corsiblockFrFwrd	recallseqFrFwrd	9	3	2022	0	112	08:03:20	3269464	4	0	0	0	0	0	0	0	0	0	0	0	0	0	0	5	0
103012	08:03:20	10026	corsiblockFrFwrd	recallseqFrFwrd	9	resetCorsiFr	3936	0	112	08:03:20	3273449	4	0	0	0	0	0	0	0	0	0	0	0	0	0	0	5	0
103012	08:03:20	10026	corsiblockFrFwrd	recallseqFrFwrd	9	3	2630	0	112	08:03:20	3276128	4	0	0	0	0	0	0	0	0	0	0	0	0	0	0	5	0
103012	08:03:20	10026	corsiblockFrFwrd	recallseqFrFwrd	9	9	4207	0	112	08:03:20	3280380	4	0	0	0	0	0	0	0	0	0	0	0	0	0	0	5	0
103012	08:03:20	10026	corsiblockFrFwrd	recallseqFrFwrd	9	8	2507	0	112	08:03:20	3282939	4	0	0	0	0	0	0	0	0	0	0	0	0	0	0	5	0
103012	08:03:20	10026	corsiblockFrFwrd	recallseqFrFwrd	9	3	1532	0	112	08:03:20	3284525	4	0	0	0	0	0	0	0	0	0	0	0	0	0	0	5	0
103012	08:03:20	10026	corsiblockFrFwrd	recallseqFrFwrd	9	4	355	0	112	08:03:20	3284925	4	0	0	0	0	0	0	0	0	0	0	0	0	0	0	5	0
103012	08:03:20	10026	corsiblockFrFwrd	recallseqFrFwrd	9	doneCorsiFr	1506	0	112	08:03:20	3286484	4	0	0	0	0	0	0	0	0	0	0	0	0	0	0	5	0
103012	08:03:20	10026	corsiblockFrFwrd	recallseqFrFwrd	9	3	4343	0	112	08:03:20	3299919	4	0	0	0	0	0	0	0	0	0	0	0	0	0	0	5	0
103012	08:03:20	10026	corsiblockFrFwrd	recallseqFrFwrd	9	5	2024	0	112	08:03:20	3301998	4	0	0	0	0	0	0	0	0	0	0	0	0	0	0	5	0
103012	08:03:20	10026	corsiblockFrFwrd	recallseqFrFwrd	9	9	945	0	112	08:03:20	3302998	4	0	0	0	0	0	0	0	0	0	0	0	0	0	0	5	0
103012	08:03:20	10026	corsiblockFrFwrd	recallseqFrFwrd	9	1	969	0	112	08:03:20	3304024	4	0	0	0	0	0	0	0	0	0	0	0	0	0	0	5	0
103012	08:03:20	10026	corsiblockFrFwrd	recallseqFrFwrd	9	4	2191	0	112	08:03:20	3306263	4	0	0	0	0	0	0	0	0	0	0	0	0	0	0	5	0
103012	08:03:20	10026	corsiblockFrFwrd	recallseqFrFwrd	9	3	672	0	112	08:03:20	3306983	4	0	0	0	0	0	0	0	0	0	0	0	0	0	0	5	0
103012	08:03:20	10026	corsiblockFrFwrd	recallseqFrFwrd	9	doneCorsiFr	1208	0	112	08:03:20	3308235	4	0	0	0	0	0	0	0	0	0	0	0	0	0	0	5	0
103012	08:03:20	10026	corsiblockFrRev	recallseqFrRev	10	2	889	0	112	08:03:20	3323523	4	0	0	0	0	0	0	0	0	0	0	0	0	0	0	5	0
103012	08:03:20	10026	corsiblockFrRev	recallseqFrRev	10	4	540	0	112	08:03:20	3324109	4	0	0	0	0	0	0	0	0	0	0	0	0	0	0	5	0
103012	08:03:20	10026	corsiblockFrRev	recallseqFrRev	10	doneCorsiFr	1746	0	112	08:03:20	3325909	4	0	0	0	0	0	0	0	0	0	0	0	0	0	0	5	0
103012	08:03:20	10026	corsiblockFrRev	recallseqFrRev	10	3	1612	0	112	08:03:20	3332613	4	0	0	0	0	0	0	0	0	0	0	0	0	0	0	5	0
103012	08:03:20	10026	corsiblockFrRev	recallseqFrRev	10	8	930	0	112	08:03:20	3333599	4	0	0	0	0	0	0	0	0	0	0	0	0	0	0	5	0
103012	08:03:20	10026	corsiblockFrRev	recallseqFrRev	10	doneCorsiFr	1552	0	112	08:03:20	3335198	4	0	0	0	0	0	0	0	0	0	0	0	0	0	0	5	0
103012	08:03:20	10026	testFr3mo	WordsFr3mo	11	6Fr3mo	7160	0	112	08:03:20	3365320	4	0	0	0	0	0	3	0	0	0	0	0	0	0	0	5	0
103012	08:03:20	10026	testFr3mo	WordsFr3mo	11	7Fr3mo	231	0	112	08:03:20	3365599	4	0	0	0	0	0	3	3	0	0	0	0	0	0	0	5	0
103012	08:03:20	10026	testFr3mo	WordsFr3mo	11	8Fr3mo	231	0	112	08:03:20	3365880	4	0	0	0	0	0	3	3	3	0	0	0	0	0	0	5	0
103012	08:03:20	10026	testFr3mo	WordsFr3mo	11	4Fr3mo	3839	0	112	08:03:20	3369771	4	0	0	0	3	0	3	3	3	0	0	0	0	0	0	5	0
103012	08:03:20	10026	testFr3mo	WordsFr3mo	11	6Fr3mo	16323	0	112	08:03:20	3386138	4	0	0	0	3	0	3	3	3	0	0	0	0	0	0	5	0
103012	08:03:20	10026	testFr3mo	WordsFr3mo	11	5Fr3mo	460	0	112	08:03:20	3386645	4	0	0	0	3	3	3	3	3	0	0	0	0	0	0	5	0
103012	08:03:20	10026	testFr3mo	WordsFr3mo	11	6Fr3mo	186	0	112	08:03:20	3386885	4	0	0	0	3	3	3	3	3	0	0	0	0	0	0	5	0
103012	08:03:20	10026	testFr3mo	WordsFr3mo	11	DoneFr3mo	12762	0	112	08:03:20	3399693	4	0	0	0	3	3	3	3	3	0	0	0	0	0	0	5	0
103012	08:03:20	10026	testFr3mo	Cat1Fr3mo	11	0	1	0	112	08:03:20	3399702	4	0	0	0	3	3	3	3	3	0	0	0	0	0	0	5	0
103012	08:03:20	10026	testFr3mo	Ch1Fr3mo	11	RR1Fr3mo	5426	0	112	08:03:20	3405170	4	1	0	0	3	3	3	3	3	0	0	0	0	0	0	5	0
103012	08:03:20	10026	testFr3mo	Cat2Fr3mo	11	W2Fr3mo	9329	0	112	08:03:20	3414540	4	1	0	0	3	3	3	3	3	0	0	0	0	0	0	5	0
103012	08:03:20	10026	testFr3mo	Ch2Fr3mo	11	RR2Fr3mo	3360	0	112	08:03:20	3417939	4	1	1	0	3	3	3	3	3	0	0	0	0	0	0	5	0
103012	08:03:20	10026	testFr3mo	Cat3Fr3mo	11	0	1	0	112	08:03:20	3417945	4	1	1	0	3	3	3	3	3	0	0	0	0	0	0	5	0
103012	08:03:20	10026	testFr3mo	Ch3Fr3mo	11	WW3Fr3mo	7753	0	112	08:03:20	3425722	4	1	1	0	3	3	3	3	3	0	0	0	0	0	0	5	0
103012	08:03:20	10026	DigitSpanFwrdFr3mo	Score1FwrdFr3mo	12	DS1	3805	0	112	08:03:20	3445581	4	1	1	0	3	3	3	3	3	0	0	0	0	0	0	5	0
103012	08:03:20	10026	DigitSpanFwrdFr3mo	Gate1FwrdFr3mo	12	0	1	0	112	08:03:20	3445586	4	1	1	0	3	3	3	3	3	3	0	0	0	0	0	5	0
103012	08:03:20	10026	DigitSpanFwrdFr3mo	Score2FwrdFr3mo	12	DS1	2397	0	112	08:03:20	3453685	4	1	1	0	3	3	3	3	3	3	0	0	0	0	0	5	0
103012	08:03:20	10026	DigitSpanFwrdFr3mo	Gate3FwrdFr3mo	12	0	1	0	112	08:03:20	3453689	4	1	1	0	3	3	3	3	3	4	0	0	0	0	0	5	0
103012	08:03:20	10026	DigitSpanFwrdFr3mo	Score3FwrdFr3mo	12	DS1	4724	0	112	08:03:20	3465653	4	1	1	0	3	3	3	3	3	4	0	0	0	0	0	5	0
103012	08:03:20	10026	DigitSpanFwrdFr3mo	Gate5FwrdFr3mo	12	0	1	0	112	08:03:20	3465657	4	1	1	0	3	3	3	3	3	5	0	0	0	0	0	5	0
103012	08:03:20	10026	DigitSpanFwrdFr3mo	Score4FwrdFr3mo	12	DS1	3545	0	112	08:03:20	3477715	4	1	1	0	3	3	3	3	3	5	0	0	0	0	0	5	0
103012	08:03:20	10026	DigitSpanFwrdFr3mo	Gate7FwrdFr3mo	12	0	1	0	112	08:03:20	3477720	4	1	1	0	3	3	3	3	3	6	0	0	0	0	0	5	0
103012	08:03:20	10026	DigitSpanFwrdFr3mo	Score5FwrdFr3mo	12	DS2	3877	0	112	08:03:20	3493669	4	1	1	0	3	3	3	3	3	6	0	0	0	0	0	5	0
103012	08:03:20	10026	DigitSpanFwrdFr3mo	Gate9FwrdFr3mo	12	0	1	0	112	08:03:20	3493674	4	1	1	0	3	3	3	3	3	6	0	0	0	0	0	5	0
103012	08:03:20	10026	DigitSpanFwrdFr3mo	Score55FwrdFr3mo	12	DS2	16699	0	112	08:03:20	3523204	4	1	1	0	3	3	3	3	3	6	0	0	0	0	0	5	0
103012	08:03:20	10026	DigitSpanFr3mo	Score1Fr3mo	13	DS1	3943	0	112	08:03:20	3548621	4	1	1	0	3	3	3	3	3	6	0	0	0	0	0	5	0
103012	08:03:20	10026	DigitSpanFr3mo	Gate1Fr3mo	13	0	1	0	112	08:03:20	3548625	4	1	1	0	3	3	3	3	3	6	2	0	0	0	0	5	0
103012	08:03:20	10026	DigitSpanFr3mo	Score2Fr3mo	13	DS1	4192	0	112	08:03:20	3557363	4	1	1	0	3	3	3	3	3	6	2	0	0	0	0	5	0
103012	08:03:20	10026	DigitSpanFr3mo	Gate3Fr3mo	13	0	1	0	112	08:03:20	3557368	4	1	1	0	3	3	3	3	3	6	3	0	0	0	0	5	0
103012	08:03:20	10026	DigitSpanFr3mo	Score3Fr3mo	13	DS1	3718	0	112	08:03:20	3566787	4	1	1	0	3	3	3	3	3	6	3	0	0	0	0	5	0
103012	08:03:20	10026	DigitSpanFr3mo	Gate5Fr3mo	13	0	1	0	112	08:03:20	3566792	4	1	1	0	3	3	3	3	3	6	4	0	0	0	0	5	0
103012	08:03:20	10026	DigitSpanFr3mo	Score4Fr3mo	13	DS2	11884	0	112	08:03:20	3585912	4	1	1	0	3	3	3	3	3	6	4	0	0	0	0	5	0
103012	08:03:20	10026	DigitSpanFr3mo	Gate7Fr3mo	13	0	1	0	112	08:03:20	3585917	4	1	1	0	3	3	3	3	3	6	4	0	0	0	0	5	0
103012	08:03:20	10026	DigitSpanFr3mo	Score44Fr3mo	13	DS2	11388	0	112	08:03:20	3604491	4	1	1	0	3	3	3	3	3	6	4	0	0	0	0	5	0
103012	08:03:20	10026	Trial	ResponseIL	14	0	175	0	112	08:03:20	3689085	4	1	1	0	3	3	3	3	3	6	4	0	0	0	0	5	0
103012	08:03:20	10026	Trial	IncongruentLeft	14	205	425	0	112	08:03:20	3689538	4	1	1	0	3	3	3	3	3	6	4	0	0	0	0	5	0
103012	08:03:20	10026	Trial	ResponseCR	14	0	175	0	112	08:03:20	3690791	4	1	1	0	3	3	3	3	3	6	4	0	0	0	0	5	0
103012	08:03:20	10026	Trial	CongruentRight	14	0	1000	0	112	08:03:20	3691804	4	1	1	0	3	3	3	3	3	6	4	0	0	0	0	5	0
103012	08:03:20	10026	Trial	ResponseIR	14	0	175	0	112	08:03:20	3692510	4	1	1	0	3	3	3	3	3	6	4	0	0	0	0	5	0
103012	08:03:20	10026	Trial	IncongruentRight	14	0	1000	0	112	08:03:20	3693523	4	1	1	0	3	3	3	3	3	6	4	0	0	0	0	5	0
103012	08:03:20	10026	Trial	ResponseCL	14	0	175	0	112	08:03:20	3694230	4	1	1	0	3	3	3	3	3	6	4	0	0	0	0	5	0
103012	08:03:20	10026	Trial	CongruentLeft	14	203	434	1	112	08:03:20	3694683	4	1	1	0	3	3	3	3	3	6	4	0	0	0	0	5	0
103012	08:03:20	10026	Trial	ResponseCR	14	0	175	0	112	08:03:20	3695936	4	1	1	0	3	3	3	3	3	6	4	0	0	0	0	5	0
103012	08:03:20	10026	Trial	CongruentRight	14	205	247	1	112	08:03:20	3696202	4	1	1	0	3	3	3	3	3	6	4	0	0	0	0	5	0
103012	08:03:20	10026	Trial	ResponseIR	14	0	175	0	112	08:03:20	3697642	4	1	1	0	3	3	3	3	3	6	4	0	0	0	0	5	0
103012	08:03:20	10026	Trial	IncongruentRight	14	205	382	1	112	08:03:20	3698041	4	1	1	0	3	3	3	3	3	6	4	0	0	0	0	5	0
103012	08:03:20	10026	Trial	ResponseCL	14	0	175	0	112	08:03:20	3699348	4	1	1	0	3	3	3	3	3	6	4	0	0	0	0	5	0
103012	08:03:20	10026	Trial	CongruentLeft	14	203	276	1	112	08:03:20	3699641	4	1	1	0	3	3	3	3	3	6	4	0	0	0	0	5	0
103012	08:03:20	10026	Trial	ResponseIL	14	0	175	0	112	08:03:20	3701054	4	1	1	0	3	3	3	3	3	6	4	0	0	0	0	5	0
103012	08:03:20	10026	Trial	IncongruentLeft	14	203	330	1	112	08:03:20	3701400	4	1	1	0	3	3	3	3	3	6	4	0	0	0	0	5	0
103012	08:03:20	10026	Trial	ResponseIL	14	0	175	0	112	08:03:20	3702760	4	1	1	0	3	3	3	3	3	6	4	0	0	0	0	5	0
103012	08:03:20	10026	Trial	IncongruentLeft	14	203	367	1	112	08:03:20	3703146	4	1	1	0	3	3	3	3	3	6	4	0	0	0	0	5	0
103012	08:03:20	10026	Trial	ResponseCR	14	0	175	0	112	08:03:20	3704466	4	1	1	0	3	3	3	3	3	6	4	0	0	0	0	5	0
103012	08:03:20	10026	Trial	CongruentRight	14	205	230	1	112	08:03:20	3704719	4	1	1	0	3	3	3	3	3	6	4	0	0	0	0	5	0
103012	08:03:20	10026	Trial	ResponseIR	14	0	175	0	112	08:03:20	3706172	4	1	1	0	3	3	3	3	3	6	4	0	0	0	0	5	0
103012	08:03:20	10026	Trial	IncongruentRight	14	205	348	1	112	08:03:20	3706545	4	1	1	0	3	3	3	3	3	6	4	0	0	0	0	5	0
103012	08:03:20	10026	Trial	ResponseCL	14	0	175	0	112	08:03:20	3707878	4	1	1	0	3	3	3	3	3	6	4	0	0	0	0	5	0
103012	08:03:20	10026	Trial	CongruentLeft	14	203	177	1	112	08:03:20	3708078	4	1	1	0	3	3	3	3	3	6	4	0	0	0	0	5	0
103012	08:03:20	10026	Trial	ResponseCR	14	0	175	0	112	08:03:20	3709584	4	1	1	0	3	3	3	3	3	6	4	0	0	0	0	5	0
103012	08:03:20	10026	Trial	CongruentRight	14	205	167	1	112	08:03:20	3709770	4	1	1	0	3	3	3	3	3	6	4	0	0	0	0	5	0
103012	08:03:20	10026	Trial	ResponseIL	14	0	175	0	112	08:03:20	3711290	4	1	1	0	3	3	3	3	3	6	4	0	0	0	0	5	0
103012	08:03:20	10026	Trial	IncongruentLeft	14	203	285	1	112	08:03:20	3711596	4	1	1	0	3	3	3	3	3	6	4	0	0	0	0	5	0
103012	08:03:20	10026	Trial	ResponseIR	14	0	175	0	112	08:03:20	3712996	4	1	1	0	3	3	3	3	3	6	4	0	0	0	0	5	0
103012	08:03:20	10026	Trial	IncongruentRight	14	205	339	1	112	08:03:20	3713355	4	1	1	0	3	3	3	3	3	6	4	0	0	0	0	5	0
103012	08:03:20	10026	Trial	ResponseCR	14	0	175	0	112	08:03:20	3714702	4	1	1	0	3	3	3	3	3	6	4	0	0	0	0	5	0
103012	08:03:20	10026	Trial	CongruentRight	14	205	233	1	112	08:03:20	3714955	4	1	1	0	3	3	3	3	3	6	4	0	0	0	0	5	0
103012	08:03:20	10026	Trial	ResponseCL	14	0	175	0	112	08:03:20	3716408	4	1	1	0	3	3	3	3	3	6	4	0	0	0	0	5	0
103012	08:03:20	10026	Trial	CongruentLeft	14	203	127	1	112	08:03:20	3716554	4	1	1	0	3	3	3	3	3	6	4	0	0	0	0	5	0
103012	08:03:20	10026	Trial	ResponseCR	14	0	175	0	112	08:03:20	3718113	4	1	1	0	3	3	3	3	3	6	4	0	0	0	0	5	0
103012	08:03:20	10026	Trial	CongruentRight	14	205	149	1	112	08:03:20	3718287	4	1	1	0	3	3	3	3	3	6	4	0	0	0	0	5	0
103012	08:03:20	10026	Trial	ResponseIR	14	0	175	0	112	08:03:20	3719820	4	1	1	0	3	3	3	3	3	6	4	0	0	0	0	5	0
103012	08:03:20	10026	Trial	IncongruentRight	14	205	475	1	112	08:03:20	3720313	4	1	1	0	3	3	3	3	3	6	4	0	0	0	0	5	0
103012	08:03:20	10026	Trial	ResponseIL	14	0	175	0	112	08:03:20	3721525	4	1	1	0	3	3	3	3	3	6	4	0	0	0	0	5	0
103012	08:03:20	10026	Trial	IncongruentLeft	14	203	417	1	112	08:03:20	3721965	4	1	1	0	3	3	3	3	3	6	4	0	0	0	0	5	0
103012	08:03:20	10026	Trial	ResponseIL	14	0	175	0	112	08:03:20	3723232	4	1	1	0	3	3	3	3	3	6	4	0	0	0	0	5	0
103012	08:03:20	10026	Trial	IncongruentLeft	14	205	135	0	112	08:03:20	3723391	4	1	1	0	3	3	3	3	3	6	4	0	0	0	0	5	0
103012	08:03:20	10026	Trial	ResponseCL	14	0	175	0	112	08:03:20	3724937	4	1	1	0	3	3	3	3	3	6	4	0	0	0	0	5	0
103012	08:03:20	10026	Trial	CongruentLeft	14	203	157	1	112	08:03:20	3725124	4	1	1	0	3	3	3	3	3	6	4	0	0	0	0	5	0
103012	08:03:20	10026	Trial	ResponseCR	14	0	175	0	112	08:03:20	3726643	4	1	1	0	3	3	3	3	3	6	4	0	0	0	0	5	0
103012	08:03:20	10026	Trial	CongruentRight	14	205	291	1	112	08:03:20	3726963	4	1	1	0	3	3	3	3	3	6	4	0	0	0	0	5	0
103012	08:03:20	10026	Trial	ResponseIL	14	0	175	0	112	08:03:20	3728350	4	1	1	0	3	3	3	3	3	6	4	0	0	0	0	5	0
103012	08:03:20	10026	Trial	IncongruentLeft	14	203	297	1	112	08:03:20	3728669	4	1	1	0	3	3	3	3	3	6	4	0	0	0	0	5	0
103012	08:03:20	10026	Trial	ResponseIR	14	0	175	0	112	08:03:20	3730055	4	1	1	0	3	3	3	3	3	6	4	0	0	0	0	5	0
103012	08:03:20	10026	Trial	IncongruentRight	14	205	225	1	112	08:03:20	3730309	4	1	1	0	3	3	3	3	3	6	4	0	0	0	0	5	0
103012	08:03:20	10026	Trial	ResponseCR	14	0	175	0	112	08:03:20	3731761	4	1	1	0	3	3	3	3	3	6	4	0	0	0	0	5	0
103012	08:03:20	10026	Trial	CongruentRight	14	205	181	1	112	08:03:20	3731961	4	1	1	0	3	3	3	3	3	6	4	0	0	0	0	5	0
103012	08:03:20	10026	Trial	ResponseCL	14	0	175	0	112	08:03:20	3733467	4	1	1	0	3	3	3	3	3	6	4	0	0	0	0	5	0
103012	08:03:20	10026	Trial	CongruentLeft	14	203	235	1	112	08:03:20	3733721	4	1	1	0	3	3	3	3	3	6	4	0	0	0	0	5	0
103012	08:03:20	10026	Trial	ResponseIR	14	0	175	0	112	08:03:20	3735173	4	1	1	0	3	3	3	3	3	6	4	0	0	0	0	5	0
103012	08:03:20	10026	Trial	IncongruentRight	14	205	273	1	112	08:03:20	3735466	4	1	1	0	3	3	3	3	3	6	4	0	0	0	0	5	0
103012	08:03:20	10026	Trial	ResponseIL	14	0	175	0	112	08:03:20	3736880	4	1	1	0	3	3	3	3	3	6	4	0	0	0	0	5	0
103012	08:03:20	10026	Trial	IncongruentLeft	14	203	167	1	112	08:03:20	3737066	4	1	1	0	3	3	3	3	3	6	4	0	0	0	0	5	0
103012	08:03:20	10026	Trial	ResponseIR	14	0	175	0	112	08:03:20	3738585	4	1	1	0	3	3	3	3	3	6	4	0	0	0	0	5	0
103012	08:03:20	10026	Trial	IncongruentRight	14	205	317	1	112	08:03:20	3738932	4	1	1	0	3	3	3	3	3	6	4	0	0	0	0	5	0
103012	08:03:20	10026	Trial	ResponseCR	14	0	175	0	112	08:03:20	3740291	4	1	1	0	3	3	3	3	3	6	4	0	0	0	0	5	0
103012	08:03:20	10026	Trial	CongruentRight	14	205	195	1	112	08:03:20	3740505	4	1	1	0	3	3	3	3	3	6	4	0	0	0	0	5	0
103012	08:03:20	10026	Trial	ResponseIL	14	0	175	0	112	08:03:20	3741997	4	1	1	0	3	3	3	3	3	6	4	0	0	0	0	5	0
103012	08:03:20	10026	Trial	IncongruentLeft	14	203	393	1	112	08:03:20	3742411	4	1	1	0	3	3	3	3	3	6	4	0	0	0	0	5	0
103012	08:03:20	10026	Trial	ResponseCL	14	0	175	0	112	08:03:20	3743703	4	1	1	0	3	3	3	3	3	6	4	0	0	0	0	5	0
103012	08:03:20	10026	Trial	CongruentLeft	14	203	335	1	112	08:03:20	3744063	4	1	1	0	3	3	3	3	3	6	4	0	0	0	0	5	0
103012	08:03:20	10026	Trial	ResponseCR	14	0	175	0	112	08:03:20	3745409	4	1	1	0	3	3	3	3	3	6	4	0	0	0	0	5	0
103012	08:03:20	10026	Trial	CongruentRight	14	205	197	1	112	08:03:20	3745623	4	1	1	0	3	3	3	3	3	6	4	0	0	0	0	5	0
103012	08:03:20	10026	Trial	ResponseIL	14	0	175	0	112	08:03:20	3747115	4	1	1	0	3	3	3	3	3	6	4	0	0	0	0	5	0
103012	08:03:20	10026	Trial	IncongruentLeft	14	203	187	1	112	08:03:20	3747329	4	1	1	0	3	3	3	3	3	6	4	0	0	0	0	5	0
103012	08:03:20	10026	Trial	ResponseIR	14	0	175	0	112	08:03:20	3748821	4	1	1	0	3	3	3	3	3	6	4	0	0	0	0	5	0
103012	08:03:20	10026	Trial	IncongruentRight	14	205	311	1	112	08:03:20	3749155	4	1	1	0	3	3	3	3	3	6	4	0	0	0	0	5	0
103012	08:03:20	10026	Trial	ResponseIR	14	0	175	0	112	08:03:20	3750527	4	1	1	0	3	3	3	3	3	6	4	0	0	0	0	5	0
103012	08:03:20	10026	Trial	IncongruentRight	14	205	439	1	112	08:03:20	3750994	4	1	1	0	3	3	3	3	3	6	4	0	0	0	0	5	0
103012	08:03:20	10026	Trial	ResponseCL	14	0	175	0	112	08:03:20	3752233	4	1	1	0	3	3	3	3	3	6	4	0	0	0	0	5	0
103012	08:03:20	10026	Trial	CongruentLeft	14	203	172	1	112	08:03:20	3752433	4	1	1	0	3	3	3	3	3	6	4	0	0	0	0	5	0
103012	08:03:20	10026	Trial	ResponseIL	14	0	175	0	112	08:03:20	3753940	4	1	1	0	3	3	3	3	3	6	4	0	0	0	0	5	0
103012	08:03:20	10026	Trial	IncongruentLeft	14	203	243	1	112	08:03:20	3754206	4	1	1	0	3	3	3	3	3	6	4	0	0	0	0	5	0
103012	08:03:20	10026	Trial	ResponseCR	14	0	175	0	112	08:03:20	3755645	4	1	1	0	3	3	3	3	3	6	4	0	0	0	0	5	0
103012	08:03:20	10026	Trial	CongruentRight	14	205	217	1	112	08:03:20	3755885	4	1	1	0	3	3	3	3	3	6	4	0	0	0	0	5	0
103012	08:03:20	10026	Trial	ResponseCL	14	0	175	0	112	08:03:20	3757351	4	1	1	0	3	3	3	3	3	6	4	0	0	0	0	5	0
103012	08:03:20	10026	Trial	CongruentLeft	14	203	159	1	112	08:03:20	3757538	4	1	1	0	3	3	3	3	3	6	4	0	0	0	0	5	0
103012	08:03:20	10026	Trial	ResponseIR	14	0	175	0	112	08:03:20	3759057	4	1	1	0	3	3	3	3	3	6	4	0	0	0	0	5	0
103012	08:03:20	10026	Trial	IncongruentRight	14	205	213	1	112	08:03:20	3759297	4	1	1	0	3	3	3	3	3	6	4	0	0	0	0	5	0
103012	08:03:20	10026	Trial	ResponseCR	14	0	175	0	112	08:03:20	3760763	4	1	1	0	3	3	3	3	3	6	4	0	0	0	0	5	0
103012	08:03:20	10026	Trial	CongruentRight	14	205	443	1	112	08:03:20	3761230	4	1	1	0	3	3	3	3	3	6	4	0	0	0	0	5	0
103012	08:03:20	10026	Trial	ResponseIL	14	0	175	0	112	08:03:20	3762469	4	1	1	0	3	3	3	3	3	6	4	0	0	0	0	5	0
103012	08:03:20	10026	Trial	IncongruentLeft	14	203	337	1	112	08:03:20	3762829	4	1	1	0	3	3	3	3	3	6	4	0	0	0	0	5	0
103012	08:03:20	10026	Trial	ResponseCL	14	0	175	0	112	08:03:20	3764175	4	1	1	0	3	3	3	3	3	6	4	0	0	0	0	5	0
103012	08:03:20	10026	Trial	CongruentLeft	14	203	295	1	112	08:03:20	3764495	4	1	1	0	3	3	3	3	3	6	4	0	0	0	0	5	0
103012	08:03:20	10026	Trial	ResponseIL	14	0	175	0	112	08:03:20	3765881	4	1	1	0	3	3	3	3	3	6	4	0	0	0	0	5	0
103012	08:03:20	10026	Trial	IncongruentLeft	14	203	301	1	112	08:03:20	3766201	4	1	1	0	3	3	3	3	3	6	4	0	0	0	0	5	0
103012	08:03:20	10026	Trial	ResponseIR	14	0	175	0	112	08:03:20	3767587	4	1	1	0	3	3	3	3	3	6	4	0	0	0	0	5	0
103012	08:03:20	10026	Trial	IncongruentRight	14	205	339	1	112	08:03:20	3767947	4	1	1	0	3	3	3	3	3	6	4	0	0	0	0	5	0
103012	08:03:20	10026	Trial	ResponseCR	14	0	175	0	112	08:03:20	3769293	4	1	1	0	3	3	3	3	3	6	4	0	0	0	0	5	0
103012	08:03:20	10026	Trial	CongruentRight	14	205	265	1	112	08:03:20	3769587	4	1	1	0	3	3	3	3	3	6	4	0	0	0	0	5	0
103012	08:03:20	10026	Trial	ResponseCL	14	0	175	0	112	08:03:20	3771000	4	1	1	0	3	3	3	3	3	6	4	0	0	0	0	5	0
103012	08:03:20	10026	Trial	CongruentLeft	14	203	191	1	112	08:03:20	3771212	4	1	1	0	3	3	3	3	3	6	4	0	0	0	0	5	0
103012	08:03:20	10026	Trial	ResponseCL	14	0	175	0	112	08:03:20	3772705	4	1	1	0	3	3	3	3	3	6	4	0	0	0	0	5	0
103012	08:03:20	10026	Trial	CongruentLeft	14	203	277	1	112	08:03:20	3772998	4	1	1	0	3	3	3	3	3	6	4	0	0	0	0	5	0
103012	08:03:20	10026	Trial	ResponseIR	14	0	175	0	112	08:03:20	3774411	4	1	1	0	3	3	3	3	3	6	4	0	0	0	0	5	0
103012	08:03:20	10026	Trial	IncongruentRight	14	205	299	1	112	08:03:20	3774731	4	1	1	0	3	3	3	3	3	6	4	0	0	0	0	5	0
103012	08:03:20	10026	Trial	ResponseIL	14	0	175	0	112	08:03:20	3776117	4	1	1	0	3	3	3	3	3	6	4	0	0	0	0	5	0
103012	08:03:20	10026	Trial	IncongruentLeft	14	203	337	1	112	08:03:20	3776477	4	1	1	0	3	3	3	3	3	6	4	0	0	0	0	5	0
103012	08:03:20	10026	Trial	ResponseIR	14	0	175	0	112	08:03:20	3777823	4	1	1	0	3	3	3	3	3	6	4	0	0	0	0	5	0
103012	08:03:20	10026	Trial	IncongruentRight	14	205	263	1	112	08:03:20	3778103	4	1	1	0	3	3	3	3	3	6	4	0	0	0	0	5	0
103012	08:03:20	10026	Trial	ResponseCR	14	0	175	0	112	08:03:20	3779529	4	1	1	0	3	3	3	3	3	6	4	0	0	0	0	5	0
103012	08:03:20	10026	Trial	CongruentRight	14	205	253	1	112	08:03:20	3779809	4	1	1	0	3	3	3	3	3	6	4	0	0	0	0	5	0
103012	08:03:20	10026	Trial	ResponseCR	14	0	175	0	112	08:03:20	3781235	4	1	1	0	3	3	3	3	3	6	4	0	0	0	0	5	0
103012	08:03:20	10026	Trial	CongruentRight	14	205	259	1	112	08:03:20	3781515	4	1	1	0	3	3	3	3	3	6	4	0	0	0	0	5	0
103012	08:03:20	10026	Trial	ResponseIL	14	0	175	0	112	08:03:20	3782941	4	1	1	0	3	3	3	3	3	6	4	0	0	0	0	5	0
103012	08:03:20	10026	Trial	IncongruentLeft	14	203	297	1	112	08:03:20	3783261	4	1	1	0	3	3	3	3	3	6	4	0	0	0	0	5	0
103012	08:03:20	10026	Trial	ResponseCL	14	0	175	0	112	08:03:20	3784647	4	1	1	0	3	3	3	3	3	6	4	0	0	0	0	5	0
103012	08:03:20	10026	Trial	CongruentLeft	14	203	271	1	112	08:03:20	3784941	4	1	1	0	3	3	3	3	3	6	4	0	0	0	0	5	0
103012	08:03:20	10026	Trial	ResponseCR	14	0	175	0	112	08:03:20	3786353	4	1	1	0	3	3	3	3	3	6	4	0	0	0	0	5	0
103012	08:03:20	10026	Trial	CongruentRight	14	205	245	1	112	08:03:20	3786620	4	1	1	0	3	3	3	3	3	6	4	0	0	0	0	5	0
103012	08:03:20	10026	Trial	ResponseCL	14	0	175	0	112	08:03:20	3788060	4	1	1	0	3	3	3	3	3	6	4	0	0	0	0	5	0
103012	08:03:20	10026	Trial	CongruentLeft	14	203	187	1	112	08:03:20	3788273	4	1	1	0	3	3	3	3	3	6	4	0	0	0	0	5	0
103012	08:03:20	10026	Trial	ResponseIR	14	0	175	0	112	08:03:20	3789765	4	1	1	0	3	3	3	3	3	6	4	0	0	0	0	5	0
103012	08:03:20	10026	Trial	IncongruentRight	14	205	161	1	112	08:03:20	3789952	4	1	1	0	3	3	3	3	3	6	4	0	0	0	0	5	0
103012	08:03:20	10026	Trial	ResponseCR	14	0	175	0	112	08:03:20	3791471	4	1	1	0	3	3	3	3	3	6	4	0	0	0	0	5	0
103012	08:03:20	10026	Trial	CongruentRight	14	205	247	1	112	08:03:20	3791738	4	1	1	0	3	3	3	3	3	6	4	0	0	0	0	5	0
103012	08:03:20	10026	Trial	ResponseCL	14	0	175	0	112	08:03:20	3793177	4	1	1	0	3	3	3	3	3	6	4	0	0	0	0	5	0
103012	08:03:20	10026	Trial	CongruentLeft	14	203	236	1	112	08:03:20	3793431	4	1	1	0	3	3	3	3	3	6	4	0	0	0	0	5	0
103012	08:03:20	10026	Trial	ResponseIL	14	0	175	0	112	08:03:20	3794883	4	1	1	0	3	3	3	3	3	6	4	0	0	0	0	5	0
103012	08:03:20	10026	Trial	IncongruentLeft	14	203	451	1	112	08:03:20	3795363	4	1	1	0	3	3	3	3	3	6	4	0	0	0	0	5	0
103012	08:03:20	10026	Trial	ResponseIL	14	0	175	0	112	08:03:20	3796589	4	1	1	0	3	3	3	3	3	6	4	0	0	0	0	5	0
103012	08:03:20	10026	Trial	IncongruentLeft	14	203	376	1	112	08:03:20	3796989	4	1	1	0	3	3	3	3	3	6	4	0	0	0	0	5	0
103012	08:03:20	10026	Trial	ResponseCR	14	0	175	0	112	08:03:20	3798295	4	1	1	0	3	3	3	3	3	6	4	0	0	0	0	5	0
103012	08:03:20	10026	Trial	CongruentRight	14	205	255	1	112	08:03:20	3798575	4	1	1	0	3	3	3	3	3	6	4	0	0	0	0	5	0
103012	08:03:20	10026	Trial	ResponseIR	14	0	175	0	112	08:03:20	3800001	4	1	1	0	3	3	3	3	3	6	4	0	0	0	0	5	0
103012	08:03:20	10026	Trial	IncongruentRight	14	205	341	1	112	08:03:20	3800361	4	1	1	0	3	3	3	3	3	6	4	0	0	0	0	5	0
103012	08:03:20	10026	Trial	ResponseCL	14	0	175	0	112	08:03:20	3801707	4	1	1	0	3	3	3	3	3	6	4	0	0	0	0	5	0
103012	08:03:20	10026	Trial	CongruentLeft	14	203	218	1	112	08:03:20	3801947	4	1	1	0	3	3	3	3	3	6	4	0	0	0	0	5	0
103012	08:03:20	10026	Trial	ResponseIR	14	0	175	0	112	08:03:20	3803413	4	1	1	0	3	3	3	3	3	6	4	0	0	0	0	5	0
103012	08:03:20	10026	Trial	IncongruentRight	14	205	240	1	112	08:03:20	3803680	4	1	1	0	3	3	3	3	3	6	4	0	0	0	0	5	0
103012	08:03:20	10026	Trial	ResponseCR	14	0	175	0	112	08:03:20	3805120	4	1	1	0	3	3	3	3	3	6	4	0	0	0	0	5	0
103012	08:03:20	10026	Trial	CongruentRight	14	205	198	1	112	08:03:20	3805346	4	1	1	0	3	3	3	3	3	6	4	0	0	0	0	5	0
103012	08:03:20	10026	Trial	ResponseIL	14	0	175	0	112	08:03:20	3806825	4	1	1	0	3	3	3	3	3	6	4	0	0	0	0	5	0
103012	08:03:20	10026	Trial	IncongruentLeft	14	203	333	1	112	08:03:20	3807185	4	1	1	0	3	3	3	3	3	6	4	0	0	0	0	5	0
103012	08:03:20	10026	Trial	ResponseCL	14	0	175	0	112	08:03:20	3808531	4	1	1	0	3	3	3	3	3	6	4	0	0	0	0	5	0
103012	08:03:20	10026	Trial	CongruentLeft	14	203	193	1	112	08:03:20	3808745	4	1	1	0	3	3	3	3	3	6	4	0	0	0	0	5	0
103012	08:03:20	10026	Trial	ResponseCR	14	0	175	0	112	08:03:20	3810237	4	1	1	0	3	3	3	3	3	6	4	0	0	0	0	5	0
103012	08:03:20	10026	Trial	CongruentRight	14	205	249	1	112	08:03:20	3810504	4	1	1	0	3	3	3	3	3	6	4	0	0	0	0	5	0
103012	08:03:20	10026	Trial	ResponseIL	14	0	175	0	112	08:03:20	3811943	4	1	1	0	3	3	3	3	3	6	4	0	0	0	0	5	0
103012	08:03:20	10026	Trial	IncongruentLeft	14	203	334	1	112	08:03:20	3812303	4	1	1	0	3	3	3	3	3	6	4	0	0	0	0	5	0
103012	08:03:20	10026	Trial	ResponseCR	14	0	175	0	112	08:03:20	3813649	4	1	1	0	3	3	3	3	3	6	4	0	0	0	0	5	0
103012	08:03:20	10026	Trial	CongruentRight	14	205	293	1	112	08:03:20	3813969	4	1	1	0	3	3	3	3	3	6	4	0	0	0	0	5	0
103012	08:03:20	10026	Trial	ResponseCR	14	0	175	0	112	08:03:20	3815355	4	1	1	0	3	3	3	3	3	6	4	0	0	0	0	5	0
103012	08:03:20	10026	Trial	CongruentRight	14	205	411	1	112	08:03:20	3815795	4	1	1	0	3	3	3	3	3	6	4	0	0	0	0	5	0
103012	08:03:20	10026	Trial	ResponseIR	14	0	175	0	112	08:03:20	3817061	4	1	1	0	3	3	3	3	3	6	4	0	0	0	0	5	0
103012	08:03:20	10026	Trial	IncongruentRight	14	205	368	1	112	08:03:20	3817448	4	1	1	0	3	3	3	3	3	6	4	0	0	0	0	5	0
103012	08:03:20	10026	Trial	ResponseCL	14	0	175	0	112	08:03:20	3818767	4	1	1	0	3	3	3	3	3	6	4	0	0	0	0	5	0
103012	08:03:20	10026	Trial	CongruentLeft	14	203	327	1	112	08:03:20	3819114	4	1	1	0	3	3	3	3	3	6	4	0	0	0	0	5	0
103012	08:03:20	10026	Trial	ResponseIL	14	0	175	0	112	08:03:20	3820473	4	1	1	0	3	3	3	3	3	6	4	0	0	0	0	5	0
103012	08:03:20	10026	Trial	IncongruentLeft	14	203	332	1	112	08:03:20	3820833	4	1	1	0	3	3	3	3	3	6	4	0	0	0	0	5	0
103012	08:03:20	10026	Trial	ResponseCL	14	0	175	0	112	08:03:20	3822179	4	1	1	0	3	3	3	3	3	6	4	0	0	0	0	5	0
103012	08:03:20	10026	Trial	CongruentLeft	14	203	306	1	112	08:03:20	3822513	4	1	1	0	3	3	3	3	3	6	4	0	0	0	0	5	0
103012	08:03:20	10026	Trial	ResponseIR	14	0	175	0	112	08:03:20	3823885	4	1	1	0	3	3	3	3	3	6	4	0	0	0	0	5	0
103012	08:03:20	10026	Trial	IncongruentRight	14	205	296	1	112	08:03:20	3824205	4	1	1	0	3	3	3	3	3	6	4	0	0	0	0	5	0
103012	08:03:20	10026	Trial	ResponseIL	14	0	175	0	112	08:03:20	3825591	4	1	1	0	3	3	3	3	3	6	4	0	0	0	0	5	0
103012	08:03:20	10026	Trial	IncongruentLeft	14	203	270	1	112	08:03:20	3825885	4	1	1	0	3	3	3	3	3	6	4	0	0	0	0	5	0
103012	08:03:20	10026	Trial	ResponseCR	14	0	175	0	112	08:03:20	3827297	4	1	1	0	3	3	3	3	3	6	4	0	0	0	0	5	0
103012	08:03:20	10026	Trial	CongruentRight	14	205	212	1	112	08:03:20	3827537	4	1	1	0	3	3	3	3	3	6	4	0	0	0	0	5	0
103012	08:03:20	10026	Trial	ResponseCL	14	0	175	0	112	08:03:20	3829003	4	1	1	0	3	3	3	3	3	6	4	0	0	0	0	5	0
103012	08:03:20	10026	Trial	CongruentLeft	14	203	202	1	112	08:03:20	3829230	4	1	1	0	3	3	3	3	3	6	4	0	0	0	0	5	0
103012	08:03:20	10026	Trial	ResponseIL	14	0	175	0	112	08:03:20	3830709	4	1	1	0	3	3	3	3	3	6	4	0	0	0	0	5	0
103012	08:03:20	10026	Trial	IncongruentLeft	14	203	368	1	112	08:03:20	3831096	4	1	1	0	3	3	3	3	3	6	4	0	0	0	0	5	0
103012	08:03:20	10026	Trial	ResponseCL	14	0	175	0	112	08:03:20	3832415	4	1	1	0	3	3	3	3	3	6	4	0	0	0	0	5	0
103012	08:03:20	10026	Trial	CongruentLeft	14	203	262	1	112	08:03:20	3832695	4	1	1	0	3	3	3	3	3	6	4	0	0	0	0	5	0
103012	08:03:20	10026	Trial	ResponseIR	14	0	175	0	112	08:03:20	3834121	4	1	1	0	3	3	3	3	3	6	4	0	0	0	0	5	0
103012	08:03:20	10026	Trial	IncongruentRight	14	205	333	1	112	08:03:20	3834481	4	1	1	0	3	3	3	3	3	6	4	0	0	0	0	5	0
103012	08:03:20	10026	Trial	ResponseCR	14	0	175	0	112	08:03:20	3835827	4	1	1	0	3	3	3	3	3	6	4	0	0	0	0	5	0
103012	08:03:20	10026	Trial	CongruentRight	14	205	226	1	112	08:03:20	3836081	4	1	1	0	3	3	3	3	3	6	4	0	0	0	0	5	0
103012	08:03:20	10026	Trial	ResponseIL	14	0	175	0	112	08:03:20	3837533	4	1	1	0	3	3	3	3	3	6	4	0	0	0	0	5	0
103012	08:03:20	10026	Trial	IncongruentLeft	14	203	216	1	112	08:03:20	3837773	4	1	1	0	3	3	3	3	3	6	4	0	0	0	0	5	0
103012	08:03:20	10026	Trial	ResponseCL	14	0	175	0	112	08:03:20	3839239	4	1	1	0	3	3	3	3	3	6	4	0	0	0	0	5	0
103012	08:03:20	10026	Trial	CongruentLeft	14	203	270	1	112	08:03:20	3839532	4	1	1	0	3	3	3	3	3	6	4	0	0	0	0	5	0
103012	08:03:20	10026	Trial	ResponseIR	14	0	175	0	112	08:03:20	3840945	4	1	1	0	3	3	3	3	3	6	4	0	0	0	0	5	0
103012	08:03:20	10026	Trial	IncongruentRight	14	205	324	1	112	08:03:20	3841292	4	1	1	0	3	3	3	3	3	6	4	0	0	0	0	5	0
103012	08:03:20	10026	Trial	ResponseIL	14	0	175	0	112	08:03:20	3842651	4	1	1	0	3	3	3	3	3	6	4	0	0	0	0	5	0
103012	08:03:20	10026	Trial	IncongruentLeft	14	203	330	1	112	08:03:20	3842998	4	1	1	0	3	3	3	3	3	6	4	0	0	0	0	5	0
103012	08:03:20	10026	Trial	ResponseCL	14	0	175	0	112	08:03:20	3844357	4	1	1	0	3	3	3	3	3	6	4	0	0	0	0	5	0
103012	08:03:20	10026	Trial	CongruentLeft	14	203	208	1	112	08:03:20	3844584	4	1	1	0	3	3	3	3	3	6	4	0	0	0	0	5	0
103012	08:03:20	10026	Trial	ResponseIL	14	0	175	0	112	08:03:20	3846063	4	1	1	0	3	3	3	3	3	6	4	0	0	0	0	5	0
103012	08:03:20	10026	Trial	IncongruentLeft	14	203	278	1	112	08:03:20	3846370	4	1	1	0	3	3	3	3	3	6	4	0	0	0	0	5	0
103012	08:03:20	10026	Trial	ResponseCR	14	0	175	0	112	08:03:20	3847769	4	1	1	0	3	3	3	3	3	6	4	0	0	0	0	5	0
103012	08:03:20	10026	Trial	CongruentRight	14	205	332	1	112	08:03:20	3848129	4	1	1	0	3	3	3	3	3	6	4	0	0	0	0	5	0
103012	08:03:20	10026	Trial	ResponseCL	14	0	175	0	112	08:03:20	3849475	4	1	1	0	3	3	3	3	3	6	4	0	0	0	0	5	0
103012	08:03:20	10026	Trial	CongruentLeft	14	203	354	1	112	08:03:20	3849848	4	1	1	0	3	3	3	3	3	6	4	0	0	0	0	5	0
103012	08:03:20	10026	Trial	ResponseIR	14	0	175	0	112	08:03:20	3851181	4	1	1	0	3	3	3	3	3	6	4	0	0	0	0	5	0
103012	08:03:20	10026	Trial	IncongruentRight	14	205	248	1	112	08:03:20	3851448	4	1	1	0	3	3	3	3	3	6	4	0	0	0	0	5	0
103012	08:03:20	10026	Trial	ResponseCL	14	0	175	0	112	08:03:20	3852887	4	1	1	0	3	3	3	3	3	6	4	0	0	0	0	5	0
103012	08:03:20	10026	Trial	CongruentLeft	14	203	190	1	112	08:03:20	3853101	4	1	1	0	3	3	3	3	3	6	4	0	0	0	0	5	0
103012	08:03:20	10026	Trial	ResponseCR	14	0	175	0	112	08:03:20	3854593	4	1	1	0	3	3	3	3	3	6	4	0	0	0	0	5	0
103012	08:03:20	10026	Trial	CongruentRight	14	205	148	1	112	08:03:20	3854766	4	1	1	0	3	3	3	3	3	6	4	0	0	0	0	5	0
103012	08:03:20	10026	Trial	ResponseIL	14	0	175	0	112	08:03:20	3856299	4	1	1	0	3	3	3	3	3	6	4	0	0	0	0	5	0
103012	08:03:20	10026	Trial	IncongruentLeft	14	203	170	1	112	08:03:20	3856486	4	1	1	0	3	3	3	3	3	6	4	0	0	0	0	5	0
103012	08:03:20	10026	WordsAbsFrThreemo	PAbsFrThreemo1	16	Abs1	6997	0	112	08:03:20	3869974	4	1	1	0	3	3	3	3	3	6	4	0	0	0	0	5	0
103012	08:03:20	10026	WordsAbsFrThreemo	AbsFrThreemo1	16	Abs1	5832	0	112	08:03:20	3875838	4	1	1	0	3	3	3	3	3	6	4	1	0	0	0	5	0
103012	08:03:20	10026	WordsAbsFrThreemo	AbsFrThreemo2	16	Abs1	24943	0	112	08:03:20	3900815	4	1	1	0	3	3	3	3	3	6	4	2	0	0	0	5	0
103012	08:03:20	10026	WordsAbsFrThreemo	AbsFrThreemo3	16	Abs2	27350	0	112	08:03:20	3928204	4	1	1	0	3	3	3	3	3	6	4	2	0	0	0	5	0
103012	08:03:20	10026	Trial2BackFrS	NS	17	0	1000	1	112	08:03:20	4008239	4	1	1	0	3	3	3	3	3	6	4	2	0	0	0	5	0
103012	08:03:20	10026	Trial2BackFrS	NS	17	0	1000	1	112	08:03:20	4009745	4	1	1	0	3	3	3	3	3	6	4	2	0	0	0	5	0
103012	08:03:20	10026	Trial2BackFrS	NS	17	0	1000	1	112	08:03:20	4011252	4	1	1	0	3	3	3	3	3	6	4	2	0	0	0	5	0
103012	08:03:20	10026	Trial2BackFrS	YS	17	57	516	1	112	08:03:20	4012278	4	1	1	0	3	3	3	3	3	6	4	2	0	0	0	5	0
103012	08:03:20	10026	Trial2BackFrS	NS	17	0	1000	1	112	08:03:20	4014264	4	1	1	0	3	3	3	3	3	6	4	2	0	0	0	5	0
103012	08:03:20	10026	Trial2BackFrS	NS	17	0	1000	1	112	08:03:20	4015770	4	1	1	0	3	3	3	3	3	6	4	2	0	0	0	5	0
103012	08:03:20	10026	Trial2BackFrS	NS	17	0	1000	1	112	08:03:20	4017276	4	1	1	0	3	3	3	3	3	6	4	2	0	0	0	5	0
103012	08:03:20	10026	Trial2BackFrS	NS	17	0	1000	1	112	08:03:20	4018782	4	1	1	0	3	3	3	3	3	6	4	2	0	0	0	5	0
103012	08:03:20	10026	Trial2BackFrS	YS	17	0	1000	0	112	08:03:20	4020288	4	1	1	0	3	3	3	3	3	6	4	2	0	0	0	5	0
103012	08:03:20	10026	Trial2BackFrS	NS	17	0	1000	1	112	08:03:20	4021794	4	1	1	0	3	3	3	3	3	6	4	2	0	0	0	5	0
103012	08:03:20	10026	Trial2BackFrS	NS	17	0	1000	1	112	08:03:20	4023300	4	1	1	0	3	3	3	3	3	6	4	2	0	0	0	5	0
103012	08:03:20	10026	Trial2BackFrS	YS	17	0	1000	0	112	08:03:20	4024806	4	1	1	0	3	3	3	3	3	6	4	2	0	0	0	5	0
103012	08:03:20	10026	Trial2BackFrS	NS	17	0	1000	1	112	08:03:20	4026312	4	1	1	0	3	3	3	3	3	6	4	2	0	0	0	5	0
103012	08:03:20	10026	Trial2BackFrS	NS	17	0	1000	1	112	08:03:20	4027818	4	1	1	0	3	3	3	3	3	6	4	2	0	0	0	5	0
103012	08:03:20	10026	Trial2BackFrS	NS	17	0	1000	1	112	08:03:20	4029324	4	1	1	0	3	3	3	3	3	6	4	2	0	0	0	5	0
103012	08:03:20	10026	Trial2BackFrS	YS	17	0	1000	0	112	08:03:20	4030830	4	1	1	0	3	3	3	3	3	6	4	2	0	0	0	5	0
103012	08:03:20	10026	Trial2BackFrS	NS	17	0	1000	1	112	08:03:20	4032336	4	1	1	0	3	3	3	3	3	6	4	2	0	0	0	5	0
103012	08:03:20	10026	Trial2BackFrS	NS	17	0	1000	1	112	08:03:20	4033842	4	1	1	0	3	3	3	3	3	6	4	2	0	0	0	5	0
103012	08:03:20	10026	Trial2BackFrS	NS	17	0	1000	1	112	08:03:20	4035349	4	1	1	0	3	3	3	3	3	6	4	2	0	0	0	5	0
103012	08:03:20	10026	Trial2BackFrS	NS	17	0	1000	1	112	08:03:20	4036855	4	1	1	0	3	3	3	3	3	6	4	2	0	0	0	5	0
103012	08:03:20	10026	Trial2BackFrS	YS	17	57	369	1	112	08:03:20	4037734	4	1	1	0	3	3	3	3	3	6	4	2	0	0	0	5	0
103012	08:03:20	10026	Trial2BackFrS	NS	17	0	1000	1	112	08:03:20	4039867	4	1	1	0	3	3	3	3	3	6	4	2	0	0	0	5	0
103012	08:03:20	10026	Trial2BackFrS	NS	17	0	1000	1	112	08:03:20	4041373	4	1	1	0	3	3	3	3	3	6	4	2	0	0	0	5	0
103012	08:03:20	10026	Trial2BackFrS	NS	17	0	1000	1	112	08:03:20	4042879	4	1	1	0	3	3	3	3	3	6	4	2	0	0	0	5	0
103012	08:03:20	10026	Trial2BackFrS	NS	17	57	376	0	112	08:03:20	4043772	4	1	1	0	3	3	3	3	3	6	4	2	0	0	0	5	0
103012	08:03:20	10026	Trial2BackFrS	NS	17	0	1000	1	112	08:03:20	4045891	4	1	1	0	3	3	3	3	3	6	4	2	0	0	0	5	0
103012	08:03:20	10026	Trial2BackFrS	NS	17	0	1000	1	112	08:03:20	4047397	4	1	1	0	3	3	3	3	3	6	4	2	0	0	0	5	0
103012	08:03:20	10026	Trial2BackFrS	NS	17	0	1000	1	112	08:03:20	4048903	4	1	1	0	3	3	3	3	3	6	4	2	0	0	0	5	0
103012	08:03:20	10026	Trial2BackFrS	NS	17	0	1000	1	112	08:03:20	4050409	4	1	1	0	3	3	3	3	3	6	4	2	0	0	0	5	0
103012	08:03:20	10026	Trial2BackFrS	NS	17	0	1000	1	112	08:03:20	4051915	4	1	1	0	3	3	3	3	3	6	4	2	0	0	0	5	0
103012	08:03:20	10026	Trial2BackFrS	NS	17	0	1000	1	112	08:03:20	4053421	4	1	1	0	3	3	3	3	3	6	4	2	0	0	0	5	0
103012	08:03:20	10026	Trial2BackFrS	YS	17	57	810	1	112	08:03:20	4054741	4	1	1	0	3	3	3	3	3	6	4	2	0	0	0	5	0
103012	08:03:20	10026	Trial2BackFrS	NS	17	0	1000	1	112	08:03:20	4056434	4	1	1	0	3	3	3	3	3	6	4	2	0	0	0	5	0
103012	08:03:20	10026	Trial2BackFrS	NS	17	0	1000	1	112	08:03:20	4057940	4	1	1	0	3	3	3	3	3	6	4	2	0	0	0	5	0
103012	08:03:20	10026	Trial2BackFrS	NS	17	0	1000	1	112	08:03:20	4059446	4	1	1	0	3	3	3	3	3	6	4	2	0	0	0	5	0
103012	08:03:20	10026	Trial2BackFrS	YS	17	57	769	1	112	08:03:20	4060725	4	1	1	0	3	3	3	3	3	6	4	2	0	0	0	5	0
103012	08:03:20	10026	Trial2BackFrS	NS	17	0	1000	1	112	08:03:20	4062458	4	1	1	0	3	3	3	3	3	6	4	2	0	0	0	5	0
103012	08:03:20	10026	Trial2BackFrS	NS	17	0	1000	1	112	08:03:20	4063964	4	1	1	0	3	3	3	3	3	6	4	2	0	0	0	5	0
103012	08:03:20	10026	Trial2BackFrS	NS	17	0	1000	1	112	08:03:20	4065470	4	1	1	0	3	3	3	3	3	6	4	2	0	0	0	5	0
103012	08:03:20	10026	Trial2BackFrS	NS	17	0	1000	1	112	08:03:20	4066989	4	1	1	0	3	3	3	3	3	6	4	2	0	0	0	5	0
103012	08:03:20	10026	Trial2BackFrS	NS	17	0	1000	1	112	08:03:20	4068495	4	1	1	0	3	3	3	3	3	6	4	2	0	0	0	5	0
103012	08:03:20	10026	Trial2BackFrS	NS	17	0	1000	1	112	08:03:20	4070015	4	1	1	0	3	3	3	3	3	6	4	2	0	0	0	5	0
103012	08:03:20	10026	Trial2BackFrS	NS	17	0	1000	1	112	08:03:20	4071521	4	1	1	0	3	3	3	3	3	6	4	2	0	0	0	5	0
103012	08:03:20	10026	Trial2BackFrS	YS	17	57	438	1	112	08:03:20	4072467	4	1	1	0	3	3	3	3	3	6	4	2	0	0	0	5	0
103012	08:03:20	10026	Trial2BackFrS	NS	17	0	1000	1	112	08:03:20	4074533	4	1	1	0	3	3	3	3	3	6	4	2	0	0	0	5	0
103012	08:03:20	10026	Trial2BackFrS	NS	17	0	1000	1	112	08:03:20	4076039	4	1	1	0	3	3	3	3	3	6	4	2	0	0	0	5	0
103012	08:03:20	10026	Trial2BackFrS	NS	17	0	1000	1	112	08:03:20	4077559	4	1	1	0	3	3	3	3	3	6	4	2	0	0	0	5	0
103012	08:03:20	10026	Trial2BackFrS	NS	17	0	1000	1	112	08:03:20	4079078	4	1	1	0	3	3	3	3	3	6	4	2	0	0	0	5	0
103012	08:03:20	10026	Trial2BackFrS	YS	17	57	385	1	112	08:03:20	4079971	4	1	1	0	3	3	3	3	3	6	4	2	0	0	0	5	0
103012	08:03:20	10026	Trial2BackFrS	NS	17	0	1000	1	112	08:03:20	4082090	4	1	1	0	3	3	3	3	3	6	4	2	0	0	0	5	0
103012	08:03:20	10026	Trial2BackFrS	NS	17	0	1000	1	112	08:03:20	4083596	4	1	1	0	3	3	3	3	3	6	4	2	0	0	0	5	0
103012	08:03:20	10026	Trial2BackFrS	NS	17	0	1000	1	112	08:03:20	4085102	4	1	1	0	3	3	3	3	3	6	4	2	0	0	0	5	0
103012	08:03:20	10026	Trial2BackFrS	NS	17	0	1000	1	112	08:03:20	4086609	4	1	1	0	3	3	3	3	3	6	4	2	0	0	0	5	0
103012	08:03:20	10026	Trial2BackFrS	NS	17	0	1000	1	112	08:03:20	4088114	4	1	1	0	3	3	3	3	3	6	4	2	0	0	0	5	0
103012	08:03:20	10026	Trial2BackFrS	NS	17	0	1000	1	112	08:03:20	4089620	4	1	1	0	3	3	3	3	3	6	4	2	0	0	0	5	0
103012	08:03:20	10026	Trial2BackFrS	YS	17	57	706	1	112	08:03:20	4090847	4	1	1	0	3	3	3	3	3	6	4	2	0	0	0	5	0
103012	08:03:20	10026	Trial2BackFrS	NS	17	0	1000	1	112	08:03:20	4092633	4	1	1	0	3	3	3	3	3	6	4	2	0	0	0	5	0
103012	08:03:20	10026	Trial2BackFrS	NS	17	0	1000	1	112	08:03:20	4094139	4	1	1	0	3	3	3	3	3	6	4	2	0	0	0	5	0
103012	08:03:20	10026	Trial2BackFrS	NS	17	0	1000	1	112	08:03:20	4095645	4	1	1	0	3	3	3	3	3	6	4	2	0	0	0	5	0
103012	08:03:20	10026	Trial2BackFrS	NS	17	0	1000	1	112	08:03:20	4097151	4	1	1	0	3	3	3	3	3	6	4	2	0	0	0	5	0
103012	08:03:20	10026	Trial2BackFrS	NS	17	0	1000	1	112	08:03:20	4098657	4	1	1	0	3	3	3	3	3	6	4	2	0	0	0	5	0
103012	08:03:20	10026	Trial2BackFrS	NS	17	0	1000	1	112	08:03:20	4100163	4	1	1	0	3	3	3	3	3	6	4	2	0	0	0	5	0
103012	08:03:20	10026	Trial2BackFrS	NS	17	0	1000	1	112	08:03:20	4101669	4	1	1	0	3	3	3	3	3	6	4	2	0	0	0	5	0
103012	08:03:20	10026	Trial2BackFrS	YS	17	57	481	1	112	08:03:20	4102668	4	1	1	0	3	3	3	3	3	6	4	2	0	0	0	5	0
103012	08:03:20	10026	Trial2BackFrS	NS	17	0	1000	1	112	08:03:20	4104681	4	1	1	0	3	3	3	3	3	6	4	2	0	0	0	5	0
103012	08:03:20	10026	Trial2BackFrS	NS	17	0	1000	1	112	08:03:20	4106187	4	1	1	0	3	3	3	3	3	6	4	2	0	0	0	5	0
103012	08:03:20	10026	Trial2BackFrS	NS	17	0	1000	1	112	08:03:20	4107693	4	1	1	0	3	3	3	3	3	6	4	2	0	0	0	5	0
103012	08:03:20	10026	Trial2BackFrS	NS	17	0	1000	1	112	08:03:20	4109199	4	1	1	0	3	3	3	3	3	6	4	2	0	0	0	5	0
103012	08:03:20	10026	Trial2BackFrS	YS	17	0	1000	0	112	08:03:20	4110706	4	1	1	0	3	3	3	3	3	6	4	2	0	0	0	5	0
103012	08:03:20	10026	Trial2BackFrS	NS	17	0	1000	1	112	08:03:20	4112212	4	1	1	0	3	3	3	3	3	6	4	2	0	0	0	5	0
103012	08:03:20	10026	Trial2BackFrS	NS	17	0	1000	1	112	08:03:20	4113718	4	1	1	0	3	3	3	3	3	6	4	2	0	0	0	5	0
103012	08:03:20	10026	Trial2BackFrS	YS	17	57	529	1	112	08:03:20	4114757	4	1	1	0	3	3	3	3	3	6	4	2	0	0	0	5	0
103012	08:03:20	10026	Trial2BackFrS	NS	17	0	1000	1	112	08:03:20	4116730	4	1	1	0	3	3	3	3	3	6	4	2	0	0	0	5	0
103012	08:03:20	10026	Trial2BackFrS	NS	17	0	1000	1	112	08:03:20	4118236	4	1	1	0	3	3	3	3	3	6	4	2	0	0	0	5	0
103012	08:03:20	10026	Trial2BackFrS	NS	17	0	1000	1	112	08:03:20	4119755	4	1	1	0	3	3	3	3	3	6	4	2	0	0	0	5	0
103012	08:03:20	10026	Trial2BackFrS	NS	17	0	1000	1	112	08:03:20	4121261	4	1	1	0	3	3	3	3	3	6	4	2	0	0	0	5	0
103012	08:03:20	10026	Trial2BackFrS	NS	17	0	1000	1	112	08:03:20	4122767	4	1	1	0	3	3	3	3	3	6	4	2	0	0	0	5	0
103012	08:03:20	10026	Trial2BackFrS	NS	17	0	1000	1	112	08:03:20	4124273	4	1	1	0	3	3	3	3	3	6	4	2	0	0	0	5	0
103012	08:03:20	10026	Trial2BackFrS	YS	17	57	629	1	112	08:03:20	4125420	4	1	1	0	3	3	3	3	3	6	4	2	0	0	0	5	0
103012	08:03:20	10026	Trial2BackFrS	NS	17	0	1000	1	112	08:03:20	4127286	4	1	1	0	3	3	3	3	3	6	4	2	0	0	0	5	0
103012	08:03:20	10026	Trial2BackFrS	NS	17	0	1000	1	112	08:03:20	4128792	4	1	1	0	3	3	3	3	3	6	4	2	0	0	0	5	0
103012	08:03:20	10026	Trial2BackFrS	NS	17	0	1000	1	112	08:03:20	4130311	4	1	1	0	3	3	3	3	3	6	4	2	0	0	0	5	0
103012	08:03:20	10026	Trial2BackFrS	NS	17	0	1000	1	112	08:03:20	4131817	4	1	1	0	3	3	3	3	3	6	4	2	0	0	0	5	0
103012	08:03:20	10026	Trial2BackFrS	YS	17	57	397	1	112	08:03:20	4132723	4	1	1	0	3	3	3	3	3	6	4	2	0	0	0	5	0
103012	08:03:20	10026	Trial2BackFrS	NS	17	0	1000	1	112	08:03:20	4134829	4	1	1	0	3	3	3	3	3	6	4	2	0	0	0	5	0
103012	08:03:20	10026	Trial2BackFrS	NS	17	0	1000	1	112	08:03:20	4136335	4	1	1	0	3	3	3	3	3	6	4	2	0	0	0	5	0
103012	08:03:20	10026	Trial2BackFrS	NS	17	0	1000	1	112	08:03:20	4137841	4	1	1	0	3	3	3	3	3	6	4	2	0	0	0	5	0
103012	08:03:20	10026	Trial2BackFrS	NS	17	57	420	0	112	08:03:20	4138774	4	1	1	0	3	3	3	3	3	6	4	2	0	0	0	5	0
103012	08:03:20	10026	Trial2BackFrS	YS	17	0	1000	0	112	08:03:20	4140854	4	1	1	0	3	3	3	3	3	6	4	2	0	0	0	5	0
103012	08:03:20	10026	Trial2BackFrS	NS	17	0	1000	1	112	08:03:20	4142373	4	1	1	0	3	3	3	3	3	6	4	2	0	0	0	5	0
103012	08:03:20	10026	Trial2BackFrS	NS	17	0	1000	1	112	08:03:20	4143879	4	1	1	0	3	3	3	3	3	6	4	2	0	0	0	5	0
103012	08:03:20	10026	Trial2BackFrS	YS	17	57	383	1	112	08:03:20	4144772	4	1	1	0	3	3	3	3	3	6	4	2	0	0	0	5	0
103012	08:03:20	10026	Trial2BackFrS	NS	17	0	1000	1	112	08:03:20	4146891	4	1	1	0	3	3	3	3	3	6	4	2	0	0	0	5	0
103012	08:03:20	10026	Trial2BackFrS	NS	17	0	1000	1	112	08:03:20	4148397	4	1	1	0	3	3	3	3	3	6	4	2	0	0	0	5	0
103012	08:03:20	10026	Trial2BackFrS	NS	17	0	1000	1	112	08:03:20	4149903	4	1	1	0	3	3	3	3	3	6	4	2	0	0	0	5	0
103012	08:03:20	10026	Trial2BackFrS	NS	17	0	1000	1	112	08:03:20	4151409	4	1	1	0	3	3	3	3	3	6	4	2	0	0	0	5	0
103012	08:03:20	10026	Trial2BackFrS	NS	17	0	1000	1	112	08:03:20	4152929	4	1	1	0	3	3	3	3	3	6	4	2	0	0	0	5	0
103012	08:03:20	10026	Trial2BackFrS	NS	17	0	1000	1	112	08:03:20	4154435	4	1	1	0	3	3	3	3	3	6	4	2	0	0	0	5	0
103012	08:03:20	10026	Trial2BackFrS	NS	17	0	1000	1	112	08:03:20	4155941	4	1	1	0	3	3	3	3	3	6	4	2	0	0	0	5	0
103012	08:03:20	10026	Trial2BackFrS	NS	17	0	1000	1	112	08:03:20	4157447	4	1	1	0	3	3	3	3	3	6	4	2	0	0	0	5	0
103012	08:03:20	10026	Trial2BackFrS	YS	17	57	735	1	112	08:03:20	4158700	4	1	1	0	3	3	3	3	3	6	4	2	0	0	0	5	0
103012	08:03:20	10026	Trial2BackFrS	NS	17	0	1000	1	112	08:03:20	4160459	4	1	1	0	3	3	3	3	3	6	4	2	0	0	0	5	0
103012	08:03:20	10026	Trial2BackFrS	NS	17	0	1000	1	112	08:03:20	4161965	4	1	1	0	3	3	3	3	3	6	4	2	0	0	0	5	0
103012	08:03:20	10026	Trial2BackFrS	NS	17	0	1000	1	112	08:03:20	4163471	4	1	1	0	3	3	3	3	3	6	4	2	0	0	0	5	0
103012	08:03:20	10026	Trial2BackFrS	NS	17	0	1000	1	112	08:03:20	4164977	4	1	1	0	3	3	3	3	3	6	4	2	0	0	0	5	0
103012	08:03:20	10026	Trial2BackFrS	NS	17	0	1000	1	112	08:03:20	4166483	4	1	1	0	3	3	3	3	3	6	4	2	0	0	0	5	0
103012	08:03:20	10026	Trial2BackFrS	NS	17	0	1000	1	112	08:03:20	4167989	4	1	1	0	3	3	3	3	3	6	4	2	0	0	0	5	0
103012	08:03:20	10026	Trial2BackFrS	NS	17	0	1000	1	112	08:03:20	4169496	4	1	1	0	3	3	3	3	3	6	4	2	0	0	0	5	0
103012	08:03:20	10026	Trial2BackFrS	YS	17	57	510	1	112	08:03:20	4170522	4	1	1	0	3	3	3	3	3	6	4	2	0	0	0	5	0
103012	08:03:20	10026	Trial2BackFrS	NS	17	0	1000	1	112	08:03:20	4172508	4	1	1	0	3	3	3	3	3	6	4	2	0	0	0	5	0
103012	08:03:20	10026	Trial2BackFrS	NS	17	0	1000	1	112	08:03:20	4174027	4	1	1	0	3	3	3	3	3	6	4	2	0	0	0	5	0
103012	08:03:20	10026	Trial2BackFrS	NS	17	0	1000	1	112	08:03:20	4175533	4	1	1	0	3	3	3	3	3	6	4	2	0	0	0	5	0
103012	08:03:20	10026	Trial2BackFrS	NS	17	0	1000	1	112	08:03:20	4177039	4	1	1	0	3	3	3	3	3	6	4	2	0	0	0	5	0
103012	08:03:20	10026	Trial2BackFrS	NS	17	0	1000	1	112	08:03:20	4178545	4	1	1	0	3	3	3	3	3	6	4	2	0	0	0	5	0
103012	08:03:20	10026	Trial2BackFrS	NS	17	0	1000	1	112	08:03:20	4180051	4	1	1	0	3	3	3	3	3	6	4	2	0	0	0	5	0
103012	08:03:20	10026	Trial2BackFrS	NS	17	0	1000	1	112	08:03:20	4181557	4	1	1	0	3	3	3	3	3	6	4	2	0	0	0	5	0
103012	08:03:20	10026	Trial2BackFrS	NS	17	0	1000	1	112	08:03:20	4183064	4	1	1	0	3	3	3	3	3	6	4	2	0	0	0	5	0
103012	08:03:20	10026	Trial2BackFrS	NS	17	0	1000	1	112	08:03:20	4184570	4	1	1	0	3	3	3	3	3	6	4	2	0	0	0	5	0
103012	08:03:20	10026	Trial2BackFrS	YS	17	57	956	1	112	08:03:20	4186036	4	1	1	0	3	3	3	3	3	6	4	2	0	0	0	5	0
103012	08:03:20	10026	Trial2BackFrS	NS	17	0	1000	1	112	08:03:20	4187582	4	1	1	0	3	3	3	3	3	6	4	2	0	0	0	5	0
103012	08:03:20	10026	ClockFr3mo	ClockFr3mo	19	Clock1	21290	0	112	08:03:20	4208987	4	1	1	0	3	3	3	3	3	6	4	2	1	0	0	5	0
103012	08:03:20	10026	ClockFr3mo	ClockFr3mo	19	Clock11	10240	0	112	08:03:20	4219276	4	1	1	0	3	3	3	3	3	6	4	2	1	1	0	5	0
103012	08:03:20	10026	ClockFr3mo	ClockFr3mo	19	Clock111	655	0	112	08:03:20	4219982	4	1	1	0	3	3	3	3	3	6	4	2	1	1	1	5	0
103012	08:03:20	10026	ClockFr3mo	ClockFr3mo	19	Clockdone	357	0	112	08:03:20	4220396	4	1	1	0	3	3	3	3	3	6	4	2	1	1	1	5	0
103012	08:03:20	10026	FASFrVF3mo	StopFrVF3mo	20	9	3667	0	112	08:03:20	4316853	4	1	1	0	3	3	3	3	3	6	4	2	1	1	1	5	0
