date	time	subject	blockcode	trialcode	values.TaskNumber	response	latency	correct	values.Score	script.starttime	script.elapsedtime	values.ScoreS7	values.Word1	values.Word2	values.Word3	values.Word4	values.Word5	values.Word6	values.Word7	values.Word8	values.DigitSpanFwrd	values.DigitSpanBack	values.ScoreAbs	values.Contour	values.Numbers	values.Hands	values.corsiblockspanFwrd	values.corsiblockspanRev
101912	09:24:57	10029	Language	Language	0	English	578748	0	0	09:24:57	578879	0	0	0	0	0	0	0	0	0	0	0	0	0	0	0	0	0
101912	09:24:57	10029	Session	Session	0	3mo	1356	0	0	09:24:57	580304	0	0	0	0	0	0	0	0	0	0	0	0	0	0	0	0	0
101912	09:24:57	10029	HandEng	HandEng	0	Right	2170	0	0	09:24:57	582543	0	0	0	0	0	0	0	0	0	0	0	0	0	0	0	0	0
101912	09:24:57	10029	CubeEng	CubeEng	1	1Cube	52779	0	0	09:24:57	654713	0	0	0	0	0	0	0	0	0	0	0	0	0	0	0	0	0
101912	09:24:57	10029	pm.simpleEngRight	blank.simpleEng	2	0	2000	1	0	09:24:57	677292	0	0	0	0	0	0	0	0	0	0	0	0	0	0	0	0	0
101912	09:24:57	10029	pm.simpleEngRight	pm.simpleEng	2	57	330	0	0	09:24:57	677730	0	0	0	0	0	0	0	0	0	0	0	0	0	0	0	0	0
101912	09:24:57	10029	pm.simpleEngRight	blank.simpleEng	2	0	1700	1	0	09:24:57	679450	0	0	0	0	0	0	0	0	0	0	0	0	0	0	0	0	0
101912	09:24:57	10029	pm.simpleEngRight	pm.simpleEng	2	57	328	0	0	09:24:57	679796	0	0	0	0	0	0	0	0	0	0	0	0	0	0	0	0	0
101912	09:24:57	10029	pm.simpleEngRight	blank.simpleEng	2	0	2200	1	0	09:24:57	682047	0	0	0	0	0	0	0	0	0	0	0	0	0	0	0	0	0
101912	09:24:57	10029	pm.simpleEngRight	pm.simpleEng	2	57	295	0	0	09:24:57	682368	0	0	0	0	0	0	0	0	0	0	0	0	0	0	0	0	0
101912	09:24:57	10029	pm.simpleEngRight	blank.simpleEng	2	0	2500	1	0	09:24:57	684888	0	0	0	0	0	0	0	0	0	0	0	0	0	0	0	0	0
101912	09:24:57	10029	pm.simpleEngRight	pm.simpleEng	2	57	271	0	0	09:24:57	685181	0	0	0	0	0	0	0	0	0	0	0	0	0	0	0	0	0
101912	09:24:57	10029	pm.simpleEngRight	blank.simpleEng	2	0	2100	1	0	09:24:57	687300	0	0	0	0	0	0	0	0	0	0	0	0	0	0	0	0	0
101912	09:24:57	10029	pm.simpleEngRight	pm.simpleEng	2	57	307	0	0	09:24:57	687633	0	0	0	0	0	0	0	0	0	0	0	0	0	0	0	0	0
101912	09:24:57	10029	pm.simpleEngRight	blank.simpleEng	2	0	2400	1	0	09:24:57	690045	0	0	0	0	0	0	0	0	0	0	0	0	0	0	0	0	0
101912	09:24:57	10029	pm.simpleEngRight	pm.simpleEng	2	57	297	0	0	09:24:57	690365	0	0	0	0	0	0	0	0	0	0	0	0	0	0	0	0	0
101912	09:24:57	10029	pm.simpleEngRight	blank.simpleEng	2	0	1900	1	0	09:24:57	692284	0	0	0	0	0	0	0	0	0	0	0	0	0	0	0	0	0
101912	09:24:57	10029	pm.simpleEngRight	pm.simpleEng	2	57	298	0	0	09:24:57	692604	0	0	0	0	0	0	0	0	0	0	0	0	0	0	0	0	0
101912	09:24:57	10029	pm.simpleEngRight	blank.simpleEng	2	0	1600	1	0	09:24:57	694217	0	0	0	0	0	0	0	0	0	0	0	0	0	0	0	0	0
101912	09:24:57	10029	pm.simpleEngRight	pm.simpleEng	2	57	302	0	0	09:24:57	694537	0	0	0	0	0	0	0	0	0	0	0	0	0	0	0	0	0
101912	09:24:57	10029	pm.simpleEngRight	blank.simpleEng	2	0	1500	1	0	09:24:57	696056	0	0	0	0	0	0	0	0	0	0	0	0	0	0	0	0	0
101912	09:24:57	10029	pm.simpleEngRight	pm.simpleEng	2	57	286	0	0	09:24:57	696363	0	0	0	0	0	0	0	0	0	0	0	0	0	0	0	0	0
101912	09:24:57	10029	pm.simpleEngRight	blank.simpleEng	2	0	2300	1	0	09:24:57	698682	0	0	0	0	0	0	0	0	0	0	0	0	0	0	0	0	0
101912	09:24:57	10029	pm.simpleEngRight	pm.simpleEng	2	57	285	0	0	09:24:57	698988	0	0	0	0	0	0	0	0	0	0	0	0	0	0	0	0	0
101912	09:24:57	10029	pm.simpleEngRight	blank.simpleEng	2	0	1800	1	0	09:24:57	700801	0	0	0	0	0	0	0	0	0	0	0	0	0	0	0	0	0
101912	09:24:57	10029	pm.simpleEngRight	pm.simpleEng	2	57	293	0	0	09:24:57	701121	0	0	0	0	0	0	0	0	0	0	0	0	0	0	0	0	0
101912	09:24:57	10029	pm.simpleEngRight	blank.simpleEng	2	0	1800	1	0	09:24:57	702933	0	0	0	0	0	0	0	0	0	0	0	0	0	0	0	0	0
101912	09:24:57	10029	pm.simpleEngRight	pm.simpleEng	2	57	304	0	0	09:24:57	703267	0	0	0	0	0	0	0	0	0	0	0	0	0	0	0	0	0
101912	09:24:57	10029	pm.simpleEngRight	blank.simpleEng	2	0	2300	1	0	09:24:57	705586	0	0	0	0	0	0	0	0	0	0	0	0	0	0	0	0	0
101912	09:24:57	10029	pm.simpleEngRight	pm.simpleEng	2	57	275	0	0	09:24:57	705879	0	0	0	0	0	0	0	0	0	0	0	0	0	0	0	0	0
101912	09:24:57	10029	pm.simpleEngRight	blank.simpleEng	2	0	2000	1	0	09:24:57	707904	0	0	0	0	0	0	0	0	0	0	0	0	0	0	0	0	0
101912	09:24:57	10029	pm.simpleEngRight	pm.simpleEng	2	57	261	0	0	09:24:57	708185	0	0	0	0	0	0	0	0	0	0	0	0	0	0	0	0	0
101912	09:24:57	10029	pm.simpleEngRight	blank.simpleEng	2	0	2400	1	0	09:24:57	710610	0	0	0	0	0	0	0	0	0	0	0	0	0	0	0	0	0
101912	09:24:57	10029	pm.simpleEngRight	pm.simpleEng	2	57	260	0	0	09:24:57	710890	0	0	0	0	0	0	0	0	0	0	0	0	0	0	0	0	0
101912	09:24:57	10029	pm.simpleEngRight	blank.simpleEng	2	0	1700	1	0	09:24:57	712609	0	0	0	0	0	0	0	0	0	0	0	0	0	0	0	0	0
101912	09:24:57	10029	pm.simpleEngRight	pm.simpleEng	2	57	355	0	0	09:24:57	712982	0	0	0	0	0	0	0	0	0	0	0	0	0	0	0	0	0
101912	09:24:57	10029	pm.simpleEngRight	blank.simpleEng	2	0	1500	1	0	09:24:57	714502	0	0	0	0	0	0	0	0	0	0	0	0	0	0	0	0	0
101912	09:24:57	10029	pm.simpleEngRight	pm.simpleEng	2	57	320	0	0	09:24:57	714848	0	0	0	0	0	0	0	0	0	0	0	0	0	0	0	0	0
101912	09:24:57	10029	pm.simpleEngRight	blank.simpleEng	2	0	2500	1	0	09:24:57	717387	0	0	0	0	0	0	0	0	0	0	0	0	0	0	0	0	0
101912	09:24:57	10029	pm.simpleEngRight	pm.simpleEng	2	57	321	0	0	09:24:57	717727	0	0	0	0	0	0	0	0	0	0	0	0	0	0	0	0	0
101912	09:24:57	10029	pm.simpleEngRight	blank.simpleEng	2	0	2100	1	0	09:24:57	719847	0	0	0	0	0	0	0	0	0	0	0	0	0	0	0	0	0
101912	09:24:57	10029	pm.simpleEngRight	pm.simpleEng	2	57	287	0	0	09:24:57	720153	0	0	0	0	0	0	0	0	0	0	0	0	0	0	0	0	0
101912	09:24:57	10029	pm.simpleEngRight	blank.simpleEng	2	0	1900	1	0	09:24:57	722072	0	0	0	0	0	0	0	0	0	0	0	0	0	0	0	0	0
101912	09:24:57	10029	pm.simpleEngRight	pm.simpleEng	2	57	270	0	0	09:24:57	722365	0	0	0	0	0	0	0	0	0	0	0	0	0	0	0	0	0
101912	09:24:57	10029	pm.simpleEngRight	blank.simpleEng	2	0	1600	1	0	09:24:57	723978	0	0	0	0	0	0	0	0	0	0	0	0	0	0	0	0	0
101912	09:24:57	10029	pm.simpleEngRight	pm.simpleEng	2	57	282	0	0	09:24:57	724285	0	0	0	0	0	0	0	0	0	0	0	0	0	0	0	0	0
101912	09:24:57	10029	pm.simpleEngRight	blank.simpleEng	2	0	2200	1	0	09:24:57	726510	0	0	0	0	0	0	0	0	0	0	0	0	0	0	0	0	0
101912	09:24:57	10029	pm.simpleEngRight	pm.simpleEng	2	57	247	0	0	09:24:57	726777	0	0	0	0	0	0	0	0	0	0	0	0	0	0	0	0	0
101912	09:24:57	10029	pm.simpleEngRight	blank.simpleEng	2	0	1500	1	0	09:24:57	728296	0	0	0	0	0	0	0	0	0	0	0	0	0	0	0	0	0
101912	09:24:57	10029	pm.simpleEngRight	pm.simpleEng	2	57	333	0	0	09:24:57	728656	0	0	0	0	0	0	0	0	0	0	0	0	0	0	0	0	0
101912	09:24:57	10029	pm.simpleEngRight	blank.simpleEng	2	0	1600	1	0	09:24:57	730269	0	0	0	0	0	0	0	0	0	0	0	0	0	0	0	0	0
101912	09:24:57	10029	pm.simpleEngRight	pm.simpleEng	2	57	249	0	0	09:24:57	730535	0	0	0	0	0	0	0	0	0	0	0	0	0	0	0	0	0
101912	09:24:57	10029	pm.simpleEngRight	blank.simpleEng	2	0	2300	1	0	09:24:57	732854	0	0	0	0	0	0	0	0	0	0	0	0	0	0	0	0	0
101912	09:24:57	10029	pm.simpleEngRight	pm.simpleEng	2	57	218	0	0	09:24:57	733147	0	0	0	0	0	0	0	0	0	0	0	0	0	0	0	0	0
101912	09:24:57	10029	pm.simpleEngRight	blank.simpleEng	2	0	1900	1	0	09:24:57	735067	0	0	0	0	0	0	0	0	0	0	0	0	0	0	0	0	0
101912	09:24:57	10029	pm.simpleEngRight	pm.simpleEng	2	57	266	0	0	09:24:57	735360	0	0	0	0	0	0	0	0	0	0	0	0	0	0	0	0	0
101912	09:24:57	10029	pm.simpleEngRight	blank.simpleEng	2	0	1700	1	0	09:24:57	737079	0	0	0	0	0	0	0	0	0	0	0	0	0	0	0	0	0
101912	09:24:57	10029	pm.simpleEngRight	pm.simpleEng	2	57	366	0	0	09:24:57	737466	0	0	0	0	0	0	0	0	0	0	0	0	0	0	0	0	0
101912	09:24:57	10029	pm.simpleEngRight	blank.simpleEng	2	0	2500	1	0	09:24:57	739985	0	0	0	0	0	0	0	0	0	0	0	0	0	0	0	0	0
101912	09:24:57	10029	pm.simpleEngRight	pm.simpleEng	2	57	324	0	0	09:24:57	740331	0	0	0	0	0	0	0	0	0	0	0	0	0	0	0	0	0
101912	09:24:57	10029	pm.simpleEngRight	blank.simpleEng	2	0	2400	1	0	09:24:57	742757	0	0	0	0	0	0	0	0	0	0	0	0	0	0	0	0	0
101912	09:24:57	10029	pm.simpleEngRight	pm.simpleEng	2	57	240	0	0	09:24:57	743023	0	0	0	0	0	0	0	0	0	0	0	0	0	0	0	0	0
101912	09:24:57	10029	pm.simpleEngRight	blank.simpleEng	2	57	230	0	0	09:24:57	744276	0	0	0	0	0	0	0	0	0	0	0	0	0	0	0	0	0
101912	09:24:57	10029	pm.simpleEngRight	blank.simpleEng	2	0	1800	1	0	09:24:57	746942	0	0	0	0	0	0	0	0	0	0	0	0	0	0	0	0	0
101912	09:24:57	10029	pm.simpleEngRight	pm.simpleEng	2	57	295	0	0	09:24:57	747262	0	0	0	0	0	0	0	0	0	0	0	0	0	0	0	0	0
101912	09:24:57	10029	pm.simpleEngRight	blank.simpleEng	2	0	2000	1	0	09:24:57	749274	0	0	0	0	0	0	0	0	0	0	0	0	0	0	0	0	0
101912	09:24:57	10029	pm.simpleEngRight	pm.simpleEng	2	57	379	0	0	09:24:57	749674	0	0	0	0	0	0	0	0	0	0	0	0	0	0	0	0	0
101912	09:24:57	10029	pm.simpleEngRight	blank.simpleEng	2	0	2200	1	0	09:24:57	751926	0	0	0	0	0	0	0	0	0	0	0	0	0	0	0	0	0
101912	09:24:57	10029	pm.simpleEngRight	pm.simpleEng	2	57	533	0	0	09:24:57	752486	0	0	0	0	0	0	0	0	0	0	0	0	0	0	0	0	0
101912	09:24:57	10029	pm.simpleEngRight	blank.simpleEng	2	0	2000	1	0	09:24:57	754499	0	0	0	0	0	0	0	0	0	0	0	0	0	0	0	0	0
101912	09:24:57	10029	pm.simpleEngRight	pm.simpleEng	2	57	290	0	0	09:24:57	754805	0	0	0	0	0	0	0	0	0	0	0	0	0	0	0	0	0
101912	09:24:57	10029	pm.simpleEngRight	blank.simpleEng	2	0	2400	1	0	09:24:57	757218	0	0	0	0	0	0	0	0	0	0	0	0	0	0	0	0	0
101912	09:24:57	10029	pm.simpleEngRight	pm.simpleEng	2	57	275	0	0	09:24:57	757511	0	0	0	0	0	0	0	0	0	0	0	0	0	0	0	0	0
101912	09:24:57	10029	pm.simpleEngRight	blank.simpleEng	2	0	1500	1	0	09:24:57	759030	0	0	0	0	0	0	0	0	0	0	0	0	0	0	0	0	0
101912	09:24:57	10029	pm.simpleEngRight	pm.simpleEng	2	57	317	0	0	09:24:57	759377	0	0	0	0	0	0	0	0	0	0	0	0	0	0	0	0	0
101912	09:24:57	10029	pm.simpleEngRight	blank.simpleEng	2	0	1600	1	0	09:24:57	760989	0	0	0	0	0	0	0	0	0	0	0	0	0	0	0	0	0
101912	09:24:57	10029	pm.simpleEngRight	pm.simpleEng	2	57	295	0	0	09:24:57	761309	0	0	0	0	0	0	0	0	0	0	0	0	0	0	0	0	0
101912	09:24:57	10029	pm.simpleEngRight	blank.simpleEng	2	0	1700	1	0	09:24:57	763028	0	0	0	0	0	0	0	0	0	0	0	0	0	0	0	0	0
101912	09:24:57	10029	pm.simpleEngRight	pm.simpleEng	2	57	336	0	0	09:24:57	763388	0	0	0	0	0	0	0	0	0	0	0	0	0	0	0	0	0
101912	09:24:57	10029	pm.simpleEngRight	blank.simpleEng	2	0	2500	1	0	09:24:57	765907	0	0	0	0	0	0	0	0	0	0	0	0	0	0	0	0	0
101912	09:24:57	10029	pm.simpleEngRight	pm.simpleEng	2	57	305	0	0	09:24:57	766240	0	0	0	0	0	0	0	0	0	0	0	0	0	0	0	0	0
101912	09:24:57	10029	pm.simpleEngRight	blank.simpleEng	2	0	1800	1	0	09:24:57	768053	0	0	0	0	0	0	0	0	0	0	0	0	0	0	0	0	0
101912	09:24:57	10029	pm.simpleEngRight	pm.simpleEng	2	57	399	0	0	09:24:57	768480	0	0	0	0	0	0	0	0	0	0	0	0	0	0	0	0	0
101912	09:24:57	10029	pm.simpleEngRight	blank.simpleEng	2	0	2100	1	0	09:24:57	770599	0	0	0	0	0	0	0	0	0	0	0	0	0	0	0	0	0
101912	09:24:57	10029	pm.simpleEngRight	pm.simpleEng	2	57	285	0	0	09:24:57	770905	0	0	0	0	0	0	0	0	0	0	0	0	0	0	0	0	0
101912	09:24:57	10029	Trial2BackEng	N	3	0	1000	1	1	09:24:57	833226	0	0	0	0	0	0	0	0	0	0	0	0	0	0	0	0	0
101912	09:24:57	10029	Trial2BackEng	N	3	0	1000	1	2	09:24:57	834733	0	0	0	0	0	0	0	0	0	0	0	0	0	0	0	0	0
101912	09:24:57	10029	Trial2BackEng	N	3	0	1000	1	3	09:24:57	836239	0	0	0	0	0	0	0	0	0	0	0	0	0	0	0	0	0
101912	09:24:57	10029	Trial2BackEng	N	3	0	1000	1	4	09:24:57	837745	0	0	0	0	0	0	0	0	0	0	0	0	0	0	0	0	0
101912	09:24:57	10029	Trial2BackEng	N	3	0	1000	1	5	09:24:57	839251	0	0	0	0	0	0	0	0	0	0	0	0	0	0	0	0	0
101912	09:24:57	10029	Trial2BackEng	N	3	0	1000	1	6	09:24:57	840757	0	0	0	0	0	0	0	0	0	0	0	0	0	0	0	0	0
101912	09:24:57	10029	Trial2BackEng	N	3	0	1000	1	7	09:24:57	842263	0	0	0	0	0	0	0	0	0	0	0	0	0	0	0	0	0
101912	09:24:57	10029	Trial2BackEng	N	3	0	1000	1	8	09:24:57	843769	0	0	0	0	0	0	0	0	0	0	0	0	0	0	0	0	0
101912	09:24:57	10029	Trial2BackEng	Y	3	57	542	1	9	09:24:57	844835	0	0	0	0	0	0	0	0	0	0	0	0	0	0	0	0	0
101912	09:24:57	10029	Trial2BackEng	N	3	0	1000	1	10	09:24:57	846781	0	0	0	0	0	0	0	0	0	0	0	0	0	0	0	0	0
101912	09:24:57	10029	Trial2BackEng	N	3	0	1000	1	11	09:24:57	848287	0	0	0	0	0	0	0	0	0	0	0	0	0	0	0	0	0
101912	09:24:57	10029	Trial2BackEng	N	3	0	1000	1	12	09:24:57	849793	0	0	0	0	0	0	0	0	0	0	0	0	0	0	0	0	0
101912	09:24:57	10029	Trial2BackEng	Y	3	57	933	1	13	09:24:57	851246	0	0	0	0	0	0	0	0	0	0	0	0	0	0	0	0	0
101912	09:24:57	10029	Trial2BackEng	N	3	0	1000	1	14	09:24:57	852805	0	0	0	0	0	0	0	0	0	0	0	0	0	0	0	0	0
101912	09:24:57	10029	Trial2BackEng	N	3	0	1000	1	15	09:24:57	854311	0	0	0	0	0	0	0	0	0	0	0	0	0	0	0	0	0
101912	09:24:57	10029	Trial2BackEng	N	3	0	1000	1	16	09:24:57	855817	0	0	0	0	0	0	0	0	0	0	0	0	0	0	0	0	0
101912	09:24:57	10029	Trial2BackEng	N	3	0	1000	1	17	09:24:57	857323	0	0	0	0	0	0	0	0	0	0	0	0	0	0	0	0	0
101912	09:24:57	10029	Trial2BackEng	N	3	0	1000	1	18	09:24:57	858829	0	0	0	0	0	0	0	0	0	0	0	0	0	0	0	0	0
101912	09:24:57	10029	Trial2BackEng	Y	3	0	1000	0	18	09:24:57	860336	0	0	0	0	0	0	0	0	0	0	0	0	0	0	0	0	0
101912	09:24:57	10029	Trial2BackEng	N	3	0	1000	1	19	09:24:57	861841	0	0	0	0	0	0	0	0	0	0	0	0	0	0	0	0	0
101912	09:24:57	10029	Trial2BackEng	N	3	0	1000	1	20	09:24:57	863347	0	0	0	0	0	0	0	0	0	0	0	0	0	0	0	0	0
101912	09:24:57	10029	Trial2BackEng	N	3	0	1000	1	21	09:24:57	864853	0	0	0	0	0	0	0	0	0	0	0	0	0	0	0	0	0
101912	09:24:57	10029	Trial2BackEng	N	3	0	1000	1	22	09:24:57	866360	0	0	0	0	0	0	0	0	0	0	0	0	0	0	0	0	0
101912	09:24:57	10029	Trial2BackEng	Y	3	0	1000	0	22	09:24:57	867866	0	0	0	0	0	0	0	0	0	0	0	0	0	0	0	0	0
101912	09:24:57	10029	Trial2BackEng	N	3	0	1000	1	23	09:24:57	869372	0	0	0	0	0	0	0	0	0	0	0	0	0	0	0	0	0
101912	09:24:57	10029	Trial2BackEng	N	3	0	1000	1	24	09:24:57	870878	0	0	0	0	0	0	0	0	0	0	0	0	0	0	0	0	0
101912	09:24:57	10029	Trial2BackEng	N	3	0	1000	1	25	09:24:57	872384	0	0	0	0	0	0	0	0	0	0	0	0	0	0	0	0	0
101912	09:24:57	10029	Trial2BackEng	N	3	0	1000	1	26	09:24:57	873890	0	0	0	0	0	0	0	0	0	0	0	0	0	0	0	0	0
101912	09:24:57	10029	Trial2BackEng	N	3	0	1000	1	27	09:24:57	875396	0	0	0	0	0	0	0	0	0	0	0	0	0	0	0	0	0
101912	09:24:57	10029	Trial2BackEng	N	3	0	1000	1	28	09:24:57	876902	0	0	0	0	0	0	0	0	0	0	0	0	0	0	0	0	0
101912	09:24:57	10029	Trial2BackEng	Y	3	57	431	1	29	09:24:57	877848	0	0	0	0	0	0	0	0	0	0	0	0	0	0	0	0	0
101912	09:24:57	10029	Trial2BackEng	N	3	0	1000	1	30	09:24:57	879914	0	0	0	0	0	0	0	0	0	0	0	0	0	0	0	0	0
101912	09:24:57	10029	Trial2BackEng	N	3	0	1000	1	31	09:24:57	881433	0	0	0	0	0	0	0	0	0	0	0	0	0	0	0	0	0
101912	09:24:57	10029	Trial2BackEng	N	3	0	1000	1	32	09:24:57	882939	0	0	0	0	0	0	0	0	0	0	0	0	0	0	0	0	0
101912	09:24:57	10029	Trial2BackEng	Y	3	57	986	1	33	09:24:57	884445	0	0	0	0	0	0	0	0	0	0	0	0	0	0	0	0	0
101912	09:24:57	10029	Trial2BackEng	N	3	0	1000	1	34	09:24:57	885952	0	0	0	0	0	0	0	0	0	0	0	0	0	0	0	0	0
101912	09:24:57	10029	Trial2BackEng	N	3	0	1000	1	35	09:24:57	887458	0	0	0	0	0	0	0	0	0	0	0	0	0	0	0	0	0
101912	09:24:57	10029	Trial2BackEng	N	3	0	1000	1	36	09:24:57	888977	0	0	0	0	0	0	0	0	0	0	0	0	0	0	0	0	0
101912	09:24:57	10029	Trial2BackEng	N	3	0	1000	1	37	09:24:57	890483	0	0	0	0	0	0	0	0	0	0	0	0	0	0	0	0	0
101912	09:24:57	10029	Trial2BackEng	N	3	0	1000	1	38	09:24:57	892002	0	0	0	0	0	0	0	0	0	0	0	0	0	0	0	0	0
101912	09:24:57	10029	Trial2BackEng	N	3	0	1000	1	39	09:24:57	893508	0	0	0	0	0	0	0	0	0	0	0	0	0	0	0	0	0
101912	09:24:57	10029	Trial2BackEng	Y	3	57	433	1	40	09:24:57	894454	0	0	0	0	0	0	0	0	0	0	0	0	0	0	0	0	0
101912	09:24:57	10029	Trial2BackEng	N	3	0	1000	1	41	09:24:57	896520	0	0	0	0	0	0	0	0	0	0	0	0	0	0	0	0	0
101912	09:24:57	10029	Trial2BackEng	N	3	0	1000	1	42	09:24:57	898026	0	0	0	0	0	0	0	0	0	0	0	0	0	0	0	0	0
101912	09:24:57	10029	Trial2BackEng	N	3	0	1000	1	43	09:24:57	899532	0	0	0	0	0	0	0	0	0	0	0	0	0	0	0	0	0
101912	09:24:57	10029	Trial2BackEng	N	3	0	1000	1	44	09:24:57	901038	0	0	0	0	0	0	0	0	0	0	0	0	0	0	0	0	0
101912	09:24:57	10029	Trial2BackEng	Y	3	0	1000	0	44	09:24:57	902544	0	0	0	0	0	0	0	0	0	0	0	0	0	0	0	0	0
101912	09:24:57	10029	Trial2BackEng	N	3	0	1000	1	45	09:24:57	904051	0	0	0	0	0	0	0	0	0	0	0	0	0	0	0	0	0
101912	09:24:57	10029	Trial2BackEng	N	3	0	1000	1	46	09:24:57	905557	0	0	0	0	0	0	0	0	0	0	0	0	0	0	0	0	0
101912	09:24:57	10029	Trial2BackEng	N	3	0	1000	1	47	09:24:57	907063	0	0	0	0	0	0	0	0	0	0	0	0	0	0	0	0	0
101912	09:24:57	10029	Trial2BackEng	N	3	0	1000	1	48	09:24:57	908569	0	0	0	0	0	0	0	0	0	0	0	0	0	0	0	0	0
101912	09:24:57	10029	Trial2BackEng	N	3	0	1000	1	49	09:24:57	910075	0	0	0	0	0	0	0	0	0	0	0	0	0	0	0	0	0
101912	09:24:57	10029	Trial2BackEng	Y	3	0	1000	0	49	09:24:57	911581	0	0	0	0	0	0	0	0	0	0	0	0	0	0	0	0	0
101912	09:24:57	10029	Trial2BackEng	N	3	0	1000	1	50	09:24:57	913094	0	0	0	0	0	0	0	0	0	0	0	0	0	0	0	0	0
101912	09:24:57	10029	Trial2BackEng	N	3	0	1000	1	51	09:24:57	914673	0	0	0	0	0	0	0	0	0	0	0	0	0	0	0	0	0
101912	09:24:57	10029	Trial2BackEng	N	3	0	1000	1	52	09:24:57	916192	0	0	0	0	0	0	0	0	0	0	0	0	0	0	0	0	0
101912	09:24:57	10029	Trial2BackEng	N	3	0	1000	1	53	09:24:57	917698	0	0	0	0	0	0	0	0	0	0	0	0	0	0	0	0	0
101912	09:24:57	10029	Trial2BackEng	N	3	0	1000	1	54	09:24:57	919204	0	0	0	0	0	0	0	0	0	0	0	0	0	0	0	0	0
101912	09:24:57	10029	Trial2BackEng	N	3	0	1000	1	55	09:24:57	920724	0	0	0	0	0	0	0	0	0	0	0	0	0	0	0	0	0
101912	09:24:57	10029	Trial2BackEng	Y	3	57	417	1	56	09:24:57	921657	0	0	0	0	0	0	0	0	0	0	0	0	0	0	0	0	0
101912	09:24:57	10029	Trial2BackEng	N	3	0	1000	1	57	09:24:57	923736	0	0	0	0	0	0	0	0	0	0	0	0	0	0	0	0	0
101912	09:24:57	10029	Trial2BackEng	N	3	0	1000	1	58	09:24:57	925242	0	0	0	0	0	0	0	0	0	0	0	0	0	0	0	0	0
101912	09:24:57	10029	Trial2BackEng	Y	3	57	426	1	59	09:24:57	926188	0	0	0	0	0	0	0	0	0	0	0	0	0	0	0	0	0
101912	09:24:57	10029	Trial2BackEng	N	3	0	1000	1	60	09:24:57	928254	0	0	0	0	0	0	0	0	0	0	0	0	0	0	0	0	0
101912	09:24:57	10029	Trial2BackEng	N	3	0	1000	1	61	09:24:57	929760	0	0	0	0	0	0	0	0	0	0	0	0	0	0	0	0	0
101912	09:24:57	10029	Trial2BackEng	N	3	0	1000	1	62	09:24:57	931266	0	0	0	0	0	0	0	0	0	0	0	0	0	0	0	0	0
101912	09:24:57	10029	Trial2BackEng	N	3	0	1000	1	63	09:24:57	932772	0	0	0	0	0	0	0	0	0	0	0	0	0	0	0	0	0
101912	09:24:57	10029	Trial2BackEng	N	3	0	1000	1	64	09:24:57	934291	0	0	0	0	0	0	0	0	0	0	0	0	0	0	0	0	0
101912	09:24:57	10029	Trial2BackEng	N	3	57	528	0	64	09:24:57	935331	0	0	0	0	0	0	0	0	0	0	0	0	0	0	0	0	0
101912	09:24:57	10029	Trial2BackEng	N	3	0	1000	1	65	09:24:57	937313	0	0	0	0	0	0	0	0	0	0	0	0	0	0	0	0	0
101912	09:24:57	10029	Trial2BackEng	N	3	0	1000	1	66	09:24:57	938823	0	0	0	0	0	0	0	0	0	0	0	0	0	0	0	0	0
101912	09:24:57	10029	Trial2BackEng	N	3	0	1000	1	67	09:24:57	940342	0	0	0	0	0	0	0	0	0	0	0	0	0	0	0	0	0
101912	09:24:57	10029	Trial2BackEng	N	3	0	1000	1	68	09:24:57	941862	0	0	0	0	0	0	0	0	0	0	0	0	0	0	0	0	0
101912	09:24:57	10029	Trial2BackEng	Y	3	57	398	1	69	09:24:57	942768	0	0	0	0	0	0	0	0	0	0	0	0	0	0	0	0	0
101912	09:24:57	10029	Trial2BackEng	N	3	0	1000	1	70	09:24:57	944873	0	0	0	0	0	0	0	0	0	0	0	0	0	0	0	0	0
101912	09:24:57	10029	Trial2BackEng	N	3	0	1000	1	71	09:24:57	946380	0	0	0	0	0	0	0	0	0	0	0	0	0	0	0	0	0
101912	09:24:57	10029	Trial2BackEng	N	3	0	1000	1	72	09:24:57	947886	0	0	0	0	0	0	0	0	0	0	0	0	0	0	0	0	0
101912	09:24:57	10029	Trial2BackEng	Y	3	0	1000	0	72	09:24:57	949405	0	0	0	0	0	0	0	0	0	0	0	0	0	0	0	0	0
101912	09:24:57	10029	Trial2BackEng	N	3	0	1000	1	73	09:24:57	950911	0	0	0	0	0	0	0	0	0	0	0	0	0	0	0	0	0
101912	09:24:57	10029	Trial2BackEng	N	3	0	1000	1	74	09:24:57	952417	0	0	0	0	0	0	0	0	0	0	0	0	0	0	0	0	0
101912	09:24:57	10029	Trial2BackEng	N	3	0	1000	1	75	09:24:57	953936	0	0	0	0	0	0	0	0	0	0	0	0	0	0	0	0	0
101912	09:24:57	10029	Trial2BackEng	N	3	0	1000	1	76	09:24:57	955443	0	0	0	0	0	0	0	0	0	0	0	0	0	0	0	0	0
101912	09:24:57	10029	Trial2BackEng	N	3	0	1000	1	77	09:24:57	956962	0	0	0	0	0	0	0	0	0	0	0	0	0	0	0	0	0
101912	09:24:57	10029	Trial2BackEng	Y	3	0	1000	0	77	09:24:57	958468	0	0	0	0	0	0	0	0	0	0	0	0	0	0	0	0	0
101912	09:24:57	10029	Trial2BackEng	N	3	0	1000	1	78	09:24:57	959974	0	0	0	0	0	0	0	0	0	0	0	0	0	0	0	0	0
101912	09:24:57	10029	Trial2BackEng	N	3	0	1000	1	79	09:24:57	961480	0	0	0	0	0	0	0	0	0	0	0	0	0	0	0	0	0
101912	09:24:57	10029	Trial2BackEng	N	3	0	1000	1	80	09:24:57	962986	0	0	0	0	0	0	0	0	0	0	0	0	0	0	0	0	0
101912	09:24:57	10029	Trial2BackEng	N	3	0	1000	1	81	09:24:57	964492	0	0	0	0	0	0	0	0	0	0	0	0	0	0	0	0	0
101912	09:24:57	10029	Trial2BackEng	N	3	0	1000	1	82	09:24:57	965998	0	0	0	0	0	0	0	0	0	0	0	0	0	0	0	0	0
101912	09:24:57	10029	Trial2BackEng	N	3	0	1000	1	83	09:24:57	967504	0	0	0	0	0	0	0	0	0	0	0	0	0	0	0	0	0
101912	09:24:57	10029	Trial2BackEng	N	3	0	1000	1	84	09:24:57	969010	0	0	0	0	0	0	0	0	0	0	0	0	0	0	0	0	0
101912	09:24:57	10029	Trial2BackEng	N	3	0	1000	1	85	09:24:57	970516	0	0	0	0	0	0	0	0	0	0	0	0	0	0	0	0	0
101912	09:24:57	10029	Trial2BackEng	N	3	0	1000	1	86	09:24:57	972036	0	0	0	0	0	0	0	0	0	0	0	0	0	0	0	0	0
101912	09:24:57	10029	Trial2BackEng	Y	3	57	543	1	87	09:24:57	973089	0	0	0	0	0	0	0	0	0	0	0	0	0	0	0	0	0
101912	09:24:57	10029	Trial2BackEng	N	3	0	1000	1	88	09:24:57	975048	0	0	0	0	0	0	0	0	0	0	0	0	0	0	0	0	0
101912	09:24:57	10029	Trial2BackEng	N	3	0	1000	1	89	09:24:57	976554	0	0	0	0	0	0	0	0	0	0	0	0	0	0	0	0	0
101912	09:24:57	10029	Trial2BackEng	N	3	0	1000	1	90	09:24:57	978060	0	0	0	0	0	0	0	0	0	0	0	0	0	0	0	0	0
101912	09:24:57	10029	Trial2BackEng	N	3	0	1000	1	91	09:24:57	979566	0	0	0	0	0	0	0	0	0	0	0	0	0	0	0	0	0
101912	09:24:57	10029	Trial2BackEng	N	3	0	1000	1	92	09:24:57	981072	0	0	0	0	0	0	0	0	0	0	0	0	0	0	0	0	0
101912	09:24:57	10029	Trial2BackEng	N	3	0	1000	1	93	09:24:57	982578	0	0	0	0	0	0	0	0	0	0	0	0	0	0	0	0	0
101912	09:24:57	10029	Trial2BackEng	N	3	0	1000	1	94	09:24:57	984084	0	0	0	0	0	0	0	0	0	0	0	0	0	0	0	0	0
101912	09:24:57	10029	Trial2BackEng	N	3	0	1000	1	95	09:24:57	985590	0	0	0	0	0	0	0	0	0	0	0	0	0	0	0	0	0
101912	09:24:57	10029	Trial2BackEng	Y	3	0	1000	0	95	09:24:57	987096	0	0	0	0	0	0	0	0	0	0	0	0	0	0	0	0	0
101912	09:24:57	10029	Trial2BackEng	N	3	0	1000	1	96	09:24:57	988602	0	0	0	0	0	0	0	0	0	0	0	0	0	0	0	0	0
101912	09:24:57	10029	Trial2BackEng	N	3	0	1000	1	97	09:24:57	990108	0	0	0	0	0	0	0	0	0	0	0	0	0	0	0	0	0
101912	09:24:57	10029	Trial2BackEng	N	3	0	1000	1	98	09:24:57	991614	0	0	0	0	0	0	0	0	0	0	0	0	0	0	0	0	0
101912	09:24:57	10029	Trial2BackEng	N	3	0	1000	1	99	09:24:57	993120	0	0	0	0	0	0	0	0	0	0	0	0	0	0	0	0	0
101912	09:24:57	10029	Trial2BackEng	Y	3	0	1000	0	99	09:24:57	994626	0	0	0	0	0	0	0	0	0	0	0	0	0	0	0	0	0
101912	09:24:57	10029	Trial2BackEng	N	3	0	1000	1	100	09:24:57	996132	0	0	0	0	0	0	0	0	0	0	0	0	0	0	0	0	0
101912	09:24:57	10029	Trial2BackEng	N	3	0	1000	1	101	09:24:57	997638	0	0	0	0	0	0	0	0	0	0	0	0	0	0	0	0	0
101912	09:24:57	10029	Trial2BackEng	N	3	0	1000	1	102	09:24:57	999144	0	0	0	0	0	0	0	0	0	0	0	0	0	0	0	0	0
101912	09:24:57	10029	Trial2BackEng	Y	3	57	409	1	103	09:24:57	1000064	0	0	0	0	0	0	0	0	0	0	0	0	0	0	0	0	0
101912	09:24:57	10029	Trial2BackEng	N	3	0	1000	1	104	09:24:57	1002156	0	0	0	0	0	0	0	0	0	0	0	0	0	0	0	0	0
101912	09:24:57	10029	Trial2BackEng	N	3	0	1000	1	105	09:24:57	1003662	0	0	0	0	0	0	0	0	0	0	0	0	0	0	0	0	0
101912	09:24:57	10029	Trial2BackEng	N	3	0	1000	1	106	09:24:57	1005168	0	0	0	0	0	0	0	0	0	0	0	0	0	0	0	0	0
101912	09:24:57	10029	Trial2BackEng	N	3	0	1000	1	107	09:24:57	1006675	0	0	0	0	0	0	0	0	0	0	0	0	0	0	0	0	0
101912	09:24:57	10029	Trial2BackEng	N	3	0	1000	1	108	09:24:57	1008181	0	0	0	0	0	0	0	0	0	0	0	0	0	0	0	0	0
101912	09:24:57	10029	Trial2BackEng	Y	3	0	1000	0	108	09:24:57	1009687	0	0	0	0	0	0	0	0	0	0	0	0	0	0	0	0	0
101912	09:24:57	10029	Trial2BackEng	N	3	0	1000	1	109	09:24:57	1011193	0	0	0	0	0	0	0	0	0	0	0	0	0	0	0	0	0
101912	09:24:57	10029	Trial2BackEng	N	3	0	1000	1	110	09:24:57	1012699	0	0	0	0	0	0	0	0	0	0	0	0	0	0	0	0	0
101912	09:24:57	10029	Trial2BackEng	N	3	0	1000	1	111	09:24:57	1014205	0	0	0	0	0	0	0	0	0	0	0	0	0	0	0	0	0
101912	09:24:57	10029	Trial2BackEng	Y	3	57	388	1	112	09:24:57	1015200	0	0	0	0	0	0	0	0	0	0	0	0	0	0	0	0	0
101912	09:24:57	10029	Memory1R3mo	Score	5	M1	13196	0	112	09:24:57	1070715	0	0	0	0	0	0	0	0	0	0	0	0	0	0	0	0	0
101912	09:24:57	10029	Memory1R3mo	Score	5	M2	165	0	112	09:24:57	1070928	0	0	0	0	0	0	0	0	0	0	0	0	0	0	0	0	0
101912	09:24:57	10029	Memory1R3mo	Score	5	M4	2578	0	112	09:24:57	1073567	0	0	0	0	0	0	0	0	0	0	0	0	0	0	0	0	0
101912	09:24:57	10029	Memory1R3mo	Score	5	M6	1001	0	112	09:24:57	1074620	0	0	0	0	0	0	0	0	0	0	0	0	0	0	0	0	0
101912	09:24:57	10029	Memory1R3mo	Score	5	M7	188	0	112	09:24:57	1074860	0	0	0	0	0	0	0	0	0	0	0	0	0	0	0	0	0
101912	09:24:57	10029	Memory1R3mo	Score	5	M8	260	0	112	09:24:57	1075166	0	0	0	0	0	0	0	0	0	0	0	0	0	0	0	0	0
101912	09:24:57	10029	Memory1R3mo	Score	5	Done	714	0	112	09:24:57	1075926	0	0	0	0	0	0	0	0	0	0	0	0	0	0	0	0	0
101912	09:24:57	10029	Memory2R3mo	Score2	5	11	10740	0	112	09:24:57	1107060	0	0	0	0	0	0	0	0	0	0	0	0	0	0	0	0	0
101912	09:24:57	10029	Memory2R3mo	Score2	5	22	171	0	112	09:24:57	1107286	0	0	0	0	0	0	0	0	0	0	0	0	0	0	0	0	0
101912	09:24:57	10029	Memory2R3mo	Score2	5	44	512	0	112	09:24:57	1107846	0	0	0	0	0	0	0	0	0	0	0	0	0	0	0	0	0
101912	09:24:57	10029	Memory2R3mo	Score2	5	55	200	0	112	09:24:57	1108100	0	0	0	0	0	0	0	0	0	0	0	0	0	0	0	0	0
101912	09:24:57	10029	Memory2R3mo	Score2	5	66	259	0	112	09:24:57	1108406	0	0	0	0	0	0	0	0	0	0	0	0	0	0	0	0	0
101912	09:24:57	10029	Memory2R3mo	Score2	5	77	227	0	112	09:24:57	1108700	0	0	0	0	0	0	0	0	0	0	0	0	0	0	0	0	0
101912	09:24:57	10029	Memory2R3mo	Score2	5	88	243	0	112	09:24:57	1108992	0	0	0	0	0	0	0	0	0	0	0	0	0	0	0	0	0
101912	09:24:57	10029	Memory2R3mo	Score2	5	Done	633	0	112	09:24:57	1109685	0	0	0	0	0	0	0	0	0	0	0	0	0	0	0	0	0
101912	09:24:57	10029	Memory3R3mo	Score3	5	111	14949	0	112	09:24:57	1144568	0	0	0	0	0	0	0	0	0	0	0	0	0	0	0	0	0
101912	09:24:57	10029	Memory3R3mo	Score3	5	222	83	0	112	09:24:57	1144711	0	0	0	0	0	0	0	0	0	0	0	0	0	0	0	0	0
101912	09:24:57	10029	Memory3R3mo	Score3	5	333	191	0	112	09:24:57	1144951	0	0	0	0	0	0	0	0	0	0	0	0	0	0	0	0	0
101912	09:24:57	10029	Memory3R3mo	Score3	5	444	327	0	112	09:24:57	1145324	0	0	0	0	0	0	0	0	0	0	0	0	0	0	0	0	0
101912	09:24:57	10029	Memory3R3mo	Score3	5	555	244	0	112	09:24:57	1145631	0	0	0	0	0	0	0	0	0	0	0	0	0	0	0	0	0
101912	09:24:57	10029	Memory3R3mo	Score3	5	666	242	0	112	09:24:57	1145937	0	0	0	0	0	0	0	0	0	0	0	0	0	0	0	0	0
101912	09:24:57	10029	Memory3R3mo	Score3	5	777	254	0	112	09:24:57	1146257	0	0	0	0	0	0	0	0	0	0	0	0	0	0	0	0	0
101912	09:24:57	10029	Memory3R3mo	Score3	5	888	239	0	112	09:24:57	1146564	0	0	0	0	0	0	0	0	0	0	0	0	0	0	0	0	0
101912	09:24:57	10029	Memory3R3mo	Score3	5	Done	490	0	112	09:24:57	1147110	0	0	0	0	0	0	0	0	0	0	0	0	0	0	0	0	0
101912	09:24:57	10029	LoriaEngLH3	Stop	6	6	8231	0	112	09:24:57	1220603	0	0	0	0	0	0	0	0	0	0	0	0	0	0	0	0	0
101912	09:24:57	10029	EngTrail	Trails	7	1Trails	866	0	112	09:24:57	1247269	0	0	0	0	0	0	0	0	0	0	0	0	0	0	0	0	0
101912	09:24:57	10029	Serial7Eng3mo	Serial7Eng3mo	8	83	9450	0	112	09:24:57	1283215	1	0	0	0	0	0	0	0	0	0	0	0	0	0	0	0	0
101912	09:24:57	10029	Serial7Eng3mo	Serial7Eng3mo	8	76	3093	0	112	09:24:57	1286334	2	0	0	0	0	0	0	0	0	0	0	0	0	0	0	0	0
101912	09:24:57	10029	Serial7Eng3mo	Serial7Eng3mo	8	69	2135	0	112	09:24:57	1288493	3	0	0	0	0	0	0	0	0	0	0	0	0	0	0	0	0
101912	09:24:57	10029	Serial7Eng3mo	Serial7Eng3mo	8	62	1744	0	112	09:24:57	1290253	4	0	0	0	0	0	0	0	0	0	0	0	0	0	0	0	0
101912	09:24:57	10029	Serial7Eng3mo	Serial7Eng3mo	8	55	2166	0	112	09:24:57	1292438	5	0	0	0	0	0	0	0	0	0	0	0	0	0	0	0	0
101912	09:24:57	10029	corsiblockEngFwrd	recallseqEngFwrd	9	6	2445	0	112	09:24:57	1339111	5	0	0	0	0	0	0	0	0	0	0	0	0	0	0	0	0
101912	09:24:57	10029	corsiblockEngFwrd	recallseqEngFwrd	9	1	1800	0	112	09:24:57	1340965	5	0	0	0	0	0	0	0	0	0	0	0	0	0	0	0	0
101912	09:24:57	10029	corsiblockEngFwrd	recallseqEngFwrd	9	doneCorsiEng	1508	0	112	09:24:57	1342525	5	0	0	0	0	0	0	0	0	0	0	0	0	0	0	2	0
101912	09:24:57	10029	corsiblockEngFwrd	recallseqEngFwrd	9	3	1337	0	112	09:24:57	1350161	5	0	0	0	0	0	0	0	0	0	0	0	0	0	0	2	0
101912	09:24:57	10029	corsiblockEngFwrd	recallseqEngFwrd	9	2	927	0	112	09:24:57	1351134	5	0	0	0	0	0	0	0	0	0	0	0	0	0	0	2	0
101912	09:24:57	10029	corsiblockEngFwrd	recallseqEngFwrd	9	5	834	0	112	09:24:57	1352014	5	0	0	0	0	0	0	0	0	0	0	0	0	0	0	2	0
101912	09:24:57	10029	corsiblockEngFwrd	recallseqEngFwrd	9	doneCorsiEng	1186	0	112	09:24:57	1353253	5	0	0	0	0	0	0	0	0	0	0	0	0	0	0	3	0
101912	09:24:57	10029	corsiblockEngFwrd	recallseqEngFwrd	9	9	1056	0	112	09:24:57	1361450	5	0	0	0	0	0	0	0	0	0	0	0	0	0	0	3	0
101912	09:24:57	10029	corsiblockEngFwrd	recallseqEngFwrd	9	7	693	0	112	09:24:57	1362196	5	0	0	0	0	0	0	0	0	0	0	0	0	0	0	3	0
101912	09:24:57	10029	corsiblockEngFwrd	recallseqEngFwrd	9	4	1059	0	112	09:24:57	1363302	5	0	0	0	0	0	0	0	0	0	0	0	0	0	0	3	0
101912	09:24:57	10029	corsiblockEngFwrd	recallseqEngFwrd	9	8	537	0	112	09:24:57	1363889	5	0	0	0	0	0	0	0	0	0	0	0	0	0	0	3	0
101912	09:24:57	10029	corsiblockEngFwrd	recallseqEngFwrd	9	doneCorsiEng	862	0	112	09:24:57	1364808	5	0	0	0	0	0	0	0	0	0	0	0	0	0	0	3	0
101912	09:24:57	10029	corsiblockEngFwrd	recallseqEngFwrd	9	3	924	0	112	09:24:57	1372832	5	0	0	0	0	0	0	0	0	0	0	0	0	0	0	3	0
101912	09:24:57	10029	corsiblockEngFwrd	recallseqEngFwrd	9	8	864	0	112	09:24:57	1373751	5	0	0	0	0	0	0	0	0	0	0	0	0	0	0	3	0
101912	09:24:57	10029	corsiblockEngFwrd	recallseqEngFwrd	9	2	688	0	112	09:24:57	1374484	5	0	0	0	0	0	0	0	0	0	0	0	0	0	0	3	0
101912	09:24:57	10029	corsiblockEngFwrd	recallseqEngFwrd	9	4	667	0	112	09:24:57	1375204	5	0	0	0	0	0	0	0	0	0	0	0	0	0	0	3	0
101912	09:24:57	10029	corsiblockEngFwrd	recallseqEngFwrd	9	doneCorsiEng	931	0	112	09:24:57	1376190	5	0	0	0	0	0	0	0	0	0	0	0	0	0	0	4	0
101912	09:24:57	10029	corsiblockEngFwrd	recallseqEngFwrd	9	1	1118	0	112	09:24:57	1384453	5	0	0	0	0	0	0	0	0	0	0	0	0	0	0	4	0
101912	09:24:57	10029	corsiblockEngFwrd	recallseqEngFwrd	9	9	1065	0	112	09:24:57	1385573	5	0	0	0	0	0	0	0	0	0	0	0	0	0	0	4	0
101912	09:24:57	10029	corsiblockEngFwrd	recallseqEngFwrd	9	7	714	0	112	09:24:57	1386332	5	0	0	0	0	0	0	0	0	0	0	0	0	0	0	4	0
101912	09:24:57	10029	corsiblockEngFwrd	recallseqEngFwrd	9	6	781	0	112	09:24:57	1387172	5	0	0	0	0	0	0	0	0	0	0	0	0	0	0	4	0
101912	09:24:57	10029	corsiblockEngFwrd	recallseqEngFwrd	9	5	507	0	112	09:24:57	1387732	5	0	0	0	0	0	0	0	0	0	0	0	0	0	0	4	0
101912	09:24:57	10029	corsiblockEngFwrd	recallseqEngFwrd	9	doneCorsiEng	795	0	112	09:24:57	1388572	5	0	0	0	0	0	0	0	0	0	0	0	0	0	0	5	0
101912	09:24:57	10029	corsiblockEngFwrd	recallseqEngFwrd	9	2	3097	0	112	09:24:57	1400807	5	0	0	0	0	0	0	0	0	0	0	0	0	0	0	5	0
101912	09:24:57	10029	corsiblockEngFwrd	recallseqEngFwrd	9	9	976	0	112	09:24:57	1401833	5	0	0	0	0	0	0	0	0	0	0	0	0	0	0	5	0
101912	09:24:57	10029	corsiblockEngFwrd	recallseqEngFwrd	9	8	949	0	112	09:24:57	1402833	5	0	0	0	0	0	0	0	0	0	0	0	0	0	0	5	0
101912	09:24:57	10029	corsiblockEngFwrd	recallseqEngFwrd	9	5	502	0	112	09:24:57	1403379	5	0	0	0	0	0	0	0	0	0	0	0	0	0	0	5	0
101912	09:24:57	10029	corsiblockEngFwrd	recallseqEngFwrd	9	4	475	0	112	09:24:57	1403899	5	0	0	0	0	0	0	0	0	0	0	0	0	0	0	5	0
101912	09:24:57	10029	corsiblockEngFwrd	recallseqEngFwrd	9	doneCorsiEng	843	0	112	09:24:57	1404792	5	0	0	0	0	0	0	0	0	0	0	0	0	0	0	5	0
101912	09:24:57	10029	corsiblockEngFwrd	recallseqEngFwrd	9	6	1306	0	112	09:24:57	1415187	5	0	0	0	0	0	0	0	0	0	0	0	0	0	0	5	0
101912	09:24:57	10029	corsiblockEngFwrd	recallseqEngFwrd	9	1	779	0	112	09:24:57	1416014	5	0	0	0	0	0	0	0	0	0	0	0	0	0	0	5	0
101912	09:24:57	10029	corsiblockEngFwrd	recallseqEngFwrd	9	3	1352	0	112	09:24:57	1417413	5	0	0	0	0	0	0	0	0	0	0	0	0	0	0	5	0
101912	09:24:57	10029	corsiblockEngFwrd	recallseqEngFwrd	9	4	529	0	112	09:24:57	1417986	5	0	0	0	0	0	0	0	0	0	0	0	0	0	0	5	0
101912	09:24:57	10029	corsiblockEngFwrd	recallseqEngFwrd	9	9	972	0	112	09:24:57	1419012	5	0	0	0	0	0	0	0	0	0	0	0	0	0	0	5	0
101912	09:24:57	10029	corsiblockEngFwrd	recallseqEngFwrd	9	doneCorsiEng	929	0	112	09:24:57	1419999	5	0	0	0	0	0	0	0	0	0	0	0	0	0	0	5	0
101912	09:24:57	10029	corsiblockEngRev	recallseqEngRev	10	8	2371	0	112	09:24:57	1433836	5	0	0	0	0	0	0	0	0	0	0	0	0	0	0	5	0
101912	09:24:57	10029	corsiblockEngRev	recallseqEngRev	10	2	580	0	112	09:24:57	1434459	5	0	0	0	0	0	0	0	0	0	0	0	0	0	0	5	0
101912	09:24:57	10029	corsiblockEngRev	recallseqEngRev	10	doneCorsiEng	1138	0	112	09:24:57	1435646	5	0	0	0	0	0	0	0	0	0	0	0	0	0	0	5	2
101912	09:24:57	10029	corsiblockEngRev	recallseqEngRev	10	3	1157	0	112	09:24:57	1442949	5	0	0	0	0	0	0	0	0	0	0	0	0	0	0	5	2
101912	09:24:57	10029	corsiblockEngRev	recallseqEngRev	10	6	472	0	112	09:24:57	1443469	5	0	0	0	0	0	0	0	0	0	0	0	0	0	0	5	2
101912	09:24:57	10029	corsiblockEngRev	recallseqEngRev	10	7	640	0	112	09:24:57	1444162	5	0	0	0	0	0	0	0	0	0	0	0	0	0	0	5	2
101912	09:24:57	10029	corsiblockEngRev	recallseqEngRev	10	doneCorsiEng	1155	0	112	09:24:57	1445361	5	0	0	0	0	0	0	0	0	0	0	0	0	0	0	5	3
101912	09:24:57	10029	corsiblockEngRev	recallseqEngRev	10	1	706	0	112	09:24:57	1453225	5	0	0	0	0	0	0	0	0	0	0	0	0	0	0	5	3
101912	09:24:57	10029	corsiblockEngRev	recallseqEngRev	10	4	539	0	112	09:24:57	1453812	5	0	0	0	0	0	0	0	0	0	0	0	0	0	0	5	3
101912	09:24:57	10029	corsiblockEngRev	recallseqEngRev	10	5	451	0	112	09:24:57	1454332	5	0	0	0	0	0	0	0	0	0	0	0	0	0	0	5	3
101912	09:24:57	10029	corsiblockEngRev	recallseqEngRev	10	9	699	0	112	09:24:57	1455091	5	0	0	0	0	0	0	0	0	0	0	0	0	0	0	5	3
101912	09:24:57	10029	corsiblockEngRev	recallseqEngRev	10	doneCorsiEng	740	0	112	09:24:57	1455877	5	0	0	0	0	0	0	0	0	0	0	0	0	0	0	5	4
101912	09:24:57	10029	corsiblockEngRev	recallseqEngRev	10	7	1308	0	112	09:24:57	1465328	5	0	0	0	0	0	0	0	0	0	0	0	0	0	0	5	4
101912	09:24:57	10029	corsiblockEngRev	recallseqEngRev	10	1	789	0	112	09:24:57	1466193	5	0	0	0	0	0	0	0	0	0	0	0	0	0	0	5	4
101912	09:24:57	10029	corsiblockEngRev	recallseqEngRev	10	5	765	0	112	09:24:57	1467020	5	0	0	0	0	0	0	0	0	0	0	0	0	0	0	5	4
101912	09:24:57	10029	corsiblockEngRev	recallseqEngRev	10	4	410	0	112	09:24:57	1467499	5	0	0	0	0	0	0	0	0	0	0	0	0	0	0	5	4
101912	09:24:57	10029	corsiblockEngRev	recallseqEngRev	10	6	563	0	112	09:24:57	1468126	5	0	0	0	0	0	0	0	0	0	0	0	0	0	0	5	4
101912	09:24:57	10029	corsiblockEngRev	recallseqEngRev	10	doneCorsiEng	787	0	112	09:24:57	1468979	5	0	0	0	0	0	0	0	0	0	0	0	0	0	0	5	5
101912	09:24:57	10029	corsiblockEngRev	recallseqEngRev	10	6	1330	0	112	09:24:57	1479535	5	0	0	0	0	0	0	0	0	0	0	0	0	0	0	5	5
101912	09:24:57	10029	corsiblockEngRev	recallseqEngRev	10	1	647	0	112	09:24:57	1480241	5	0	0	0	0	0	0	0	0	0	0	0	0	0	0	5	5
101912	09:24:57	10029	corsiblockEngRev	recallseqEngRev	10	8	812	0	112	09:24:57	1481120	5	0	0	0	0	0	0	0	0	0	0	0	0	0	0	5	5
101912	09:24:57	10029	corsiblockEngRev	recallseqEngRev	10	3	599	0	112	09:24:57	1481814	5	0	0	0	0	0	0	0	0	0	0	0	0	0	0	5	5
101912	09:24:57	10029	corsiblockEngRev	recallseqEngRev	10	9	728	0	112	09:24:57	1482613	5	0	0	0	0	0	0	0	0	0	0	0	0	0	0	5	5
101912	09:24:57	10029	corsiblockEngRev	recallseqEngRev	10	7	472	0	112	09:24:57	1483146	5	0	0	0	0	0	0	0	0	0	0	0	0	0	0	5	5
101912	09:24:57	10029	corsiblockEngRev	recallseqEngRev	10	doneCorsiEng	731	0	112	09:24:57	1483946	5	0	0	0	0	0	0	0	0	0	0	0	0	0	0	5	5
101912	09:24:57	10029	corsiblockEngRev	recallseqEngRev	10	3	948	0	112	09:24:57	1494062	5	0	0	0	0	0	0	0	0	0	0	0	0	0	0	5	5
101912	09:24:57	10029	corsiblockEngRev	recallseqEngRev	10	9	623	0	112	09:24:57	1494755	5	0	0	0	0	0	0	0	0	0	0	0	0	0	0	5	5
101912	09:24:57	10029	corsiblockEngRev	recallseqEngRev	10	8	592	0	112	09:24:57	1495395	5	0	0	0	0	0	0	0	0	0	0	0	0	0	0	5	5
101912	09:24:57	10029	corsiblockEngRev	recallseqEngRev	10	4	467	0	112	09:24:57	1495928	5	0	0	0	0	0	0	0	0	0	0	0	0	0	0	5	5
101912	09:24:57	10029	corsiblockEngRev	recallseqEngRev	10	2	373	0	112	09:24:57	1496367	5	0	0	0	0	0	0	0	0	0	0	0	0	0	0	5	5
101912	09:24:57	10029	corsiblockEngRev	recallseqEngRev	10	5	532	0	112	09:24:57	1496954	5	0	0	0	0	0	0	0	0	0	0	0	0	0	0	5	5
101912	09:24:57	10029	corsiblockEngRev	recallseqEngRev	10	doneCorsiEng	777	0	112	09:24:57	1497780	5	0	0	0	0	0	0	0	0	0	0	0	0	0	0	5	5
101912	09:24:57	10029	testEng3mo	WordsEng3mo	11	1Eng3mo	134	0	112	09:24:57	1521975	5	3	0	0	0	0	0	0	0	0	0	0	0	0	0	5	5
101912	09:24:57	10029	testEng3mo	WordsEng3mo	11	2Eng3mo	622	0	112	09:24:57	1522800	5	3	3	0	0	0	0	0	0	0	0	0	0	0	0	5	5
101912	09:24:57	10029	testEng3mo	WordsEng3mo	11	4Eng3mo	401	0	112	09:24:57	1523273	5	3	3	0	3	0	0	0	0	0	0	0	0	0	0	5	5
101912	09:24:57	10029	testEng3mo	WordsEng3mo	11	5Eng3mo	383	0	112	09:24:57	1523704	5	3	3	0	3	3	0	0	0	0	0	0	0	0	0	5	5
101912	09:24:57	10029	testEng3mo	WordsEng3mo	11	6Eng3mo	268	0	112	09:24:57	1524022	5	3	3	0	3	3	3	0	0	0	0	0	0	0	0	5	5
101912	09:24:57	10029	testEng3mo	WordsEng3mo	11	7Eng3mo	278	0	112	09:24:57	1524369	5	3	3	0	3	3	3	3	0	0	0	0	0	0	0	5	5
101912	09:24:57	10029	testEng3mo	WordsEng3mo	11	8Eng3mo	266	0	112	09:24:57	1524723	5	3	3	0	3	3	3	3	3	0	0	0	0	0	0	5	5
101912	09:24:57	10029	testEng3mo	WordsEng3mo	11	3Eng3mo	7753	0	112	09:24:57	1532540	5	3	3	3	3	3	3	3	3	0	0	0	0	0	0	5	5
101912	09:24:57	10029	testEng3mo	WordsEng3mo	11	DoneEng3mo	4873	0	112	09:24:57	1537510	5	3	3	3	3	3	3	3	3	0	0	0	0	0	0	5	5
101912	09:24:57	10029	DigitSpanFwrdEng3mo	Score1FwrdEng3mo	12	DS1	4010	0	112	09:24:57	1554628	5	3	3	3	3	3	3	3	3	0	0	0	0	0	0	5	5
101912	09:24:57	10029	DigitSpanFwrdEng3mo	Gate1FwrdEng3mo	12	0	1	0	112	09:24:57	1554685	5	3	3	3	3	3	3	3	3	3	0	0	0	0	0	5	5
101912	09:24:57	10029	DigitSpanFwrdEng3mo	Score2FwrdEng3mo	12	DS1	2518	0	112	09:24:57	1563807	5	3	3	3	3	3	3	3	3	3	0	0	0	0	0	5	5
101912	09:24:57	10029	DigitSpanFwrdEng3mo	Gate3FwrdEng3mo	12	0	1	0	112	09:24:57	1563842	5	3	3	3	3	3	3	3	3	4	0	0	0	0	0	5	5
101912	09:24:57	10029	DigitSpanFwrdEng3mo	Score3FwrdEng3mo	12	DS1	3138	0	112	09:24:57	1575082	5	3	3	3	3	3	3	3	3	4	0	0	0	0	0	5	5
101912	09:24:57	10029	DigitSpanFwrdEng3mo	Gate5FwrdEng3mo	12	0	1	0	112	09:24:57	1575132	5	3	3	3	3	3	3	3	3	5	0	0	0	0	0	5	5
101912	09:24:57	10029	DigitSpanFwrdEng3mo	Score4FwrdEng3mo	12	DS2	3125	0	112	09:24:57	1587819	5	3	3	3	3	3	3	3	3	5	0	0	0	0	0	5	5
101912	09:24:57	10029	DigitSpanFwrdEng3mo	Gate7FwrdEng3mo	12	0	1	0	112	09:24:57	1587848	5	3	3	3	3	3	3	3	3	5	0	0	0	0	0	5	5
101912	09:24:57	10029	DigitSpanFwrdEng3mo	Score44FwrdEng3mo	12	DS2	4287	0	112	09:24:57	1601772	5	3	3	3	3	3	3	3	3	5	0	0	0	0	0	5	5
101912	09:24:57	10029	DigitSpanEng3mo	Score1Eng3mo	13	DS1	2578	0	112	09:24:57	1615290	5	3	3	3	3	3	3	3	3	5	0	0	0	0	0	5	5
101912	09:24:57	10029	DigitSpanEng3mo	Gate1Eng3mo	13	0	1	0	112	09:24:57	1615312	5	3	3	3	3	3	3	3	3	5	2	0	0	0	0	5	5
101912	09:24:57	10029	DigitSpanEng3mo	Score2Eng3mo	13	DS1	4016	0	112	09:24:57	1624291	5	3	3	3	3	3	3	3	3	5	2	0	0	0	0	5	5
101912	09:24:57	10029	DigitSpanEng3mo	Gate3Eng3mo	13	0	1	0	112	09:24:57	1624308	5	3	3	3	3	3	3	3	3	5	3	0	0	0	0	5	5
101912	09:24:57	10029	DigitSpanEng3mo	Score3Eng3mo	13	DS2	4937	0	112	09:24:57	1635816	5	3	3	3	3	3	3	3	3	5	3	0	0	0	0	5	5
101912	09:24:57	10029	DigitSpanEng3mo	Gate5Eng3mo	13	0	1	0	112	09:24:57	1635828	5	3	3	3	3	3	3	3	3	5	3	0	0	0	0	5	5
101912	09:24:57	10029	DigitSpanEng3mo	Score33Eng3mo	13	DS1	4493	0	112	09:24:57	1646677	5	3	3	3	3	3	3	3	3	5	3	0	0	0	0	5	5
101912	09:24:57	10029	DigitSpanEng3mo	Gate6Eng3mo	13	0	1	0	112	09:24:57	1646690	5	3	3	3	3	3	3	3	3	5	4	0	0	0	0	5	5
101912	09:24:57	10029	DigitSpanEng3mo	Score4Eng3mo	13	DS2	8379	0	112	09:24:57	1663108	5	3	3	3	3	3	3	3	3	5	4	0	0	0	0	5	5
101912	09:24:57	10029	DigitSpanEng3mo	Gate7Eng3mo	13	0	1	0	112	09:24:57	1663113	5	3	3	3	3	3	3	3	3	5	4	0	0	0	0	5	5
101912	09:24:57	10029	DigitSpanEng3mo	Score44Eng3mo	13	DS2	7547	0	112	09:24:57	1678922	5	3	3	3	3	3	3	3	3	5	4	0	0	0	0	5	5
101912	09:24:57	10029	Trial	ResponseIL	14	0	175	0	112	09:24:57	1760353	5	3	3	3	3	3	3	3	3	5	4	0	0	0	0	5	5
101912	09:24:57	10029	Trial	IncongruentLeft	14	203	599	1	112	09:24:57	1760978	5	3	3	3	3	3	3	3	3	5	4	0	0	0	0	5	5
101912	09:24:57	10029	Trial	ResponseCR	14	0	175	0	112	09:24:57	1762057	5	3	3	3	3	3	3	3	3	5	4	0	0	0	0	5	5
101912	09:24:57	10029	Trial	CongruentRight	14	205	189	1	112	09:24:57	1762270	5	3	3	3	3	3	3	3	3	5	4	0	0	0	0	5	5
101912	09:24:57	10029	Trial	ResponseIR	14	0	175	0	112	09:24:57	1763763	5	3	3	3	3	3	3	3	3	5	4	0	0	0	0	5	5
101912	09:24:57	10029	Trial	IncongruentRight	14	205	386	1	112	09:24:57	1764176	5	3	3	3	3	3	3	3	3	5	4	0	0	0	0	5	5
101912	09:24:57	10029	Trial	ResponseCL	14	0	175	0	112	09:24:57	1765482	5	3	3	3	3	3	3	3	3	5	4	0	0	0	0	5	5
101912	09:24:57	10029	Trial	CongruentLeft	14	203	491	1	112	09:24:57	1766002	5	3	3	3	3	3	3	3	3	5	4	0	0	0	0	5	5
101912	09:24:57	10029	Trial	ResponseCR	14	0	175	0	112	09:24:57	1767188	5	3	3	3	3	3	3	3	3	5	4	0	0	0	0	5	5
101912	09:24:57	10029	Trial	CongruentRight	14	205	209	1	112	09:24:57	1767415	5	3	3	3	3	3	3	3	3	5	4	0	0	0	0	5	5
101912	09:24:57	10029	Trial	ResponseIR	14	0	175	0	112	09:24:57	1768894	5	3	3	3	3	3	3	3	3	5	4	0	0	0	0	5	5
101912	09:24:57	10029	Trial	IncongruentRight	14	205	343	1	112	09:24:57	1769254	5	3	3	3	3	3	3	3	3	5	4	0	0	0	0	5	5
101912	09:24:57	10029	Trial	ResponseCL	14	0	175	0	112	09:24:57	1770600	5	3	3	3	3	3	3	3	3	5	4	0	0	0	0	5	5
101912	09:24:57	10029	Trial	CongruentLeft	14	203	269	1	112	09:24:57	1770893	5	3	3	3	3	3	3	3	3	5	4	0	0	0	0	5	5
101912	09:24:57	10029	Trial	ResponseIL	14	0	175	0	112	09:24:57	1772306	5	3	3	3	3	3	3	3	3	5	4	0	0	0	0	5	5
101912	09:24:57	10029	Trial	IncongruentLeft	14	203	375	1	112	09:24:57	1772706	5	3	3	3	3	3	3	3	3	5	4	0	0	0	0	5	5
101912	09:24:57	10029	Trial	ResponseIL	14	0	175	0	112	09:24:57	1774012	5	3	3	3	3	3	3	3	3	5	4	0	0	0	0	5	5
101912	09:24:57	10029	Trial	IncongruentLeft	14	203	425	1	112	09:24:57	1774465	5	3	3	3	3	3	3	3	3	5	4	0	0	0	0	5	5
101912	09:24:57	10029	Trial	ResponseCR	14	0	175	0	112	09:24:57	1775718	5	3	3	3	3	3	3	3	3	5	4	0	0	0	0	5	5
101912	09:24:57	10029	Trial	CongruentRight	14	205	239	1	112	09:24:57	1775985	5	3	3	3	3	3	3	3	3	5	4	0	0	0	0	5	5
101912	09:24:57	10029	Trial	ResponseIR	14	0	175	0	112	09:24:57	1777424	5	3	3	3	3	3	3	3	3	5	4	0	0	0	0	5	5
101912	09:24:57	10029	Trial	IncongruentRight	14	205	325	1	112	09:24:57	1777770	5	3	3	3	3	3	3	3	3	5	4	0	0	0	0	5	5
101912	09:24:57	10029	Trial	ResponseCL	14	0	175	0	112	09:24:57	1779130	5	3	3	3	3	3	3	3	3	5	4	0	0	0	0	5	5
101912	09:24:57	10029	Trial	CongruentLeft	14	203	283	1	112	09:24:57	1779436	5	3	3	3	3	3	3	3	3	5	4	0	0	0	0	5	5
101912	09:24:57	10029	Trial	ResponseCR	14	0	175	0	112	09:24:57	1780836	5	3	3	3	3	3	3	3	3	5	4	0	0	0	0	5	5
101912	09:24:57	10029	Trial	CongruentRight	14	205	113	1	112	09:24:57	1780969	5	3	3	3	3	3	3	3	3	5	4	0	0	0	0	5	5
101912	09:24:57	10029	Trial	ResponseIL	14	0	175	0	112	09:24:57	1782542	5	3	3	3	3	3	3	3	3	5	4	0	0	0	0	5	5
101912	09:24:57	10029	Trial	IncongruentLeft	14	203	391	1	112	09:24:57	1782955	5	3	3	3	3	3	3	3	3	5	4	0	0	0	0	5	5
101912	09:24:57	10029	Trial	ResponseIR	14	0	175	0	112	09:24:57	1784248	5	3	3	3	3	3	3	3	3	5	4	0	0	0	0	5	5
101912	09:24:57	10029	Trial	IncongruentRight	14	205	285	1	112	09:24:57	1784554	5	3	3	3	3	3	3	3	3	5	4	0	0	0	0	5	5
101912	09:24:57	10029	Trial	ResponseCR	14	0	175	0	112	09:24:57	1785954	5	3	3	3	3	3	3	3	3	5	4	0	0	0	0	5	5
101912	09:24:57	10029	Trial	CongruentRight	14	205	323	1	112	09:24:57	1786301	5	3	3	3	3	3	3	3	3	5	4	0	0	0	0	5	5
101912	09:24:57	10029	Trial	ResponseCL	14	0	175	0	112	09:24:57	1787660	5	3	3	3	3	3	3	3	3	5	4	0	0	0	0	5	5
101912	09:24:57	10029	Trial	CongruentLeft	14	203	249	1	112	09:24:57	1787926	5	3	3	3	3	3	3	3	3	5	4	0	0	0	0	5	5
101912	09:24:57	10029	Trial	ResponseCR	14	0	175	0	112	09:24:57	1789366	5	3	3	3	3	3	3	3	3	5	4	0	0	0	0	5	5
101912	09:24:57	10029	Trial	CongruentRight	14	205	143	1	112	09:24:57	1789526	5	3	3	3	3	3	3	3	3	5	4	0	0	0	0	5	5
101912	09:24:57	10029	Trial	ResponseIR	14	0	175	0	112	09:24:57	1791072	5	3	3	3	3	3	3	3	3	5	4	0	0	0	0	5	5
101912	09:24:57	10029	Trial	IncongruentRight	14	205	336	1	112	09:24:57	1791431	5	3	3	3	3	3	3	3	3	5	4	0	0	0	0	5	5
101912	09:24:57	10029	Trial	ResponseIL	14	0	175	0	112	09:24:57	1792778	5	3	3	3	3	3	3	3	3	5	4	0	0	0	0	5	5
101912	09:24:57	10029	Trial	IncongruentLeft	14	203	379	1	112	09:24:57	1793177	5	3	3	3	3	3	3	3	3	5	4	0	0	0	0	5	5
101912	09:24:57	10029	Trial	ResponseIL	14	0	175	0	112	09:24:57	1794483	5	3	3	3	3	3	3	3	3	5	4	0	0	0	0	5	5
101912	09:24:57	10029	Trial	IncongruentLeft	14	205	241	0	112	09:24:57	1794750	5	3	3	3	3	3	3	3	3	5	4	0	0	0	0	5	5
101912	09:24:57	10029	Trial	ResponseCL	14	0	175	0	112	09:24:57	1796189	5	3	3	3	3	3	3	3	3	5	4	0	0	0	0	5	5
101912	09:24:57	10029	Trial	CongruentLeft	14	203	263	1	112	09:24:57	1796469	5	3	3	3	3	3	3	3	3	5	4	0	0	0	0	5	5
101912	09:24:57	10029	Trial	ResponseCR	14	0	175	0	112	09:24:57	1797895	5	3	3	3	3	3	3	3	3	5	4	0	0	0	0	5	5
101912	09:24:57	10029	Trial	CongruentRight	14	205	237	1	112	09:24:57	1798149	5	3	3	3	3	3	3	3	3	5	4	0	0	0	0	5	5
101912	09:24:57	10029	Trial	ResponseIL	14	0	175	0	112	09:24:57	1799601	5	3	3	3	3	3	3	3	3	5	4	0	0	0	0	5	5
101912	09:24:57	10029	Trial	IncongruentLeft	14	203	339	1	112	09:24:57	1799961	5	3	3	3	3	3	3	3	3	5	4	0	0	0	0	5	5
101912	09:24:57	10029	Trial	ResponseIR	14	0	175	0	112	09:24:57	1801307	5	3	3	3	3	3	3	3	3	5	4	0	0	0	0	5	5
101912	09:24:57	10029	Trial	IncongruentRight	14	205	361	1	112	09:24:57	1801694	5	3	3	3	3	3	3	3	3	5	4	0	0	0	0	5	5
101912	09:24:57	10029	Trial	ResponseCR	14	0	175	0	112	09:24:57	1803014	5	3	3	3	3	3	3	3	3	5	4	0	0	0	0	5	5
101912	09:24:57	10029	Trial	CongruentRight	14	205	370	1	112	09:24:57	1803413	5	3	3	3	3	3	3	3	3	5	4	0	0	0	0	5	5
101912	09:24:57	10029	Trial	ResponseCL	14	0	175	0	112	09:24:57	1804733	5	3	3	3	3	3	3	3	3	5	4	0	0	0	0	5	5
101912	09:24:57	10029	Trial	CongruentLeft	14	203	487	1	112	09:24:57	1805239	5	3	3	3	3	3	3	3	3	5	4	0	0	0	0	5	5
101912	09:24:57	10029	Trial	ResponseIR	14	0	175	0	112	09:24:57	1806439	5	3	3	3	3	3	3	3	3	5	4	0	0	0	0	5	5
101912	09:24:57	10029	Trial	IncongruentRight	14	205	285	1	112	09:24:57	1806745	5	3	3	3	3	3	3	3	3	5	4	0	0	0	0	5	5
101912	09:24:57	10029	Trial	ResponseIL	14	0	175	0	112	09:24:57	1808145	5	3	3	3	3	3	3	3	3	5	4	0	0	0	0	5	5
101912	09:24:57	10029	Trial	IncongruentLeft	14	203	259	1	112	09:24:57	1808424	5	3	3	3	3	3	3	3	3	5	4	0	0	0	0	5	5
101912	09:24:57	10029	Trial	ResponseIR	14	0	175	0	112	09:24:57	1809851	5	3	3	3	3	3	3	3	3	5	4	0	0	0	0	5	5
101912	09:24:57	10029	Trial	IncongruentRight	14	205	298	1	112	09:24:57	1810170	5	3	3	3	3	3	3	3	3	5	4	0	0	0	0	5	5
101912	09:24:57	10029	Trial	ResponseCR	14	0	175	0	112	09:24:57	1811556	5	3	3	3	3	3	3	3	3	5	4	0	0	0	0	5	5
101912	09:24:57	10029	Trial	CongruentRight	14	205	192	1	112	09:24:57	1811770	5	3	3	3	3	3	3	3	3	5	4	0	0	0	0	5	5
101912	09:24:57	10029	Trial	ResponseIL	14	0	175	0	112	09:24:57	1813262	5	3	3	3	3	3	3	3	3	5	4	0	0	0	0	5	5
101912	09:24:57	10029	Trial	IncongruentLeft	14	203	374	1	112	09:24:57	1813662	5	3	3	3	3	3	3	3	3	5	4	0	0	0	0	5	5
101912	09:24:57	10029	Trial	ResponseCL	14	0	175	0	112	09:24:57	1815009	5	3	3	3	3	3	3	3	3	5	4	0	0	0	0	5	5
101912	09:24:57	10029	Trial	CongruentLeft	14	203	338	1	112	09:24:57	1815368	5	3	3	3	3	3	3	3	3	5	4	0	0	0	0	5	5
101912	09:24:57	10029	Trial	ResponseCR	14	0	175	0	112	09:24:57	1816714	5	3	3	3	3	3	3	3	3	5	4	0	0	0	0	5	5
101912	09:24:57	10029	Trial	CongruentRight	14	205	250	1	112	09:24:57	1816981	5	3	3	3	3	3	3	3	3	5	4	0	0	0	0	5	5
101912	09:24:57	10029	Trial	ResponseIL	14	0	175	0	112	09:24:57	1818420	5	3	3	3	3	3	3	3	3	5	4	0	0	0	0	5	5
101912	09:24:57	10029	Trial	IncongruentLeft	14	203	271	1	112	09:24:57	1818713	5	3	3	3	3	3	3	3	3	5	4	0	0	0	0	5	5
101912	09:24:57	10029	Trial	ResponseIR	14	0	175	0	112	09:24:57	1820126	5	3	3	3	3	3	3	3	3	5	4	0	0	0	0	5	5
101912	09:24:57	10029	Trial	IncongruentRight	14	205	197	1	112	09:24:57	1820353	5	3	3	3	3	3	3	3	3	5	4	0	0	0	0	5	5
101912	09:24:57	10029	Trial	ResponseIR	14	0	175	0	112	09:24:57	1821832	5	3	3	3	3	3	3	3	3	5	4	0	0	0	0	5	5
101912	09:24:57	10029	Trial	IncongruentRight	14	205	491	1	112	09:24:57	1822352	5	3	3	3	3	3	3	3	3	5	4	0	0	0	0	5	5
101912	09:24:57	10029	Trial	ResponseCL	14	0	175	0	112	09:24:57	1823539	5	3	3	3	3	3	3	3	3	5	4	0	0	0	0	5	5
101912	09:24:57	10029	Trial	CongruentLeft	14	203	450	1	112	09:24:57	1824004	5	3	3	3	3	3	3	3	3	5	4	0	0	0	0	5	5
101912	09:24:57	10029	Trial	ResponseIL	14	0	175	0	112	09:24:57	1825244	5	3	3	3	3	3	3	3	3	5	4	0	0	0	0	5	5
101912	09:24:57	10029	Trial	IncongruentLeft	14	205	215	0	112	09:24:57	1825484	5	3	3	3	3	3	3	3	3	5	4	0	0	0	0	5	5
101912	09:24:57	10029	Trial	ResponseCR	14	0	175	0	112	09:24:57	1826950	5	3	3	3	3	3	3	3	3	5	4	0	0	0	0	5	5
101912	09:24:57	10029	Trial	CongruentRight	14	205	237	1	112	09:24:57	1827217	5	3	3	3	3	3	3	3	3	5	4	0	0	0	0	5	5
101912	09:24:57	10029	Trial	ResponseCL	14	0	175	0	112	09:24:57	1828656	5	3	3	3	3	3	3	3	3	5	4	0	0	0	0	5	5
101912	09:24:57	10029	Trial	CongruentLeft	14	203	291	1	112	09:24:57	1828976	5	3	3	3	3	3	3	3	3	5	4	0	0	0	0	5	5
101912	09:24:57	10029	Trial	ResponseIR	14	0	175	0	112	09:24:57	1830362	5	3	3	3	3	3	3	3	3	5	4	0	0	0	0	5	5
101912	09:24:57	10029	Trial	IncongruentRight	14	205	249	1	112	09:24:57	1830650	5	3	3	3	3	3	3	3	3	5	4	0	0	0	0	5	5
101912	09:24:57	10029	Trial	ResponseCR	14	0	175	0	112	09:24:57	1832068	5	3	3	3	3	3	3	3	3	5	4	0	0	0	0	5	5
101912	09:24:57	10029	Trial	CongruentRight	14	205	351	1	112	09:24:57	1832441	5	3	3	3	3	3	3	3	3	5	4	0	0	0	0	5	5
101912	09:24:57	10029	Trial	ResponseIL	14	0	175	0	112	09:24:57	1833774	5	3	3	3	3	3	3	3	3	5	4	0	0	0	0	5	5
101912	09:24:57	10029	Trial	IncongruentLeft	14	203	598	1	112	09:24:57	1834400	5	3	3	3	3	3	3	3	3	5	4	0	0	0	0	5	5
101912	09:24:57	10029	Trial	ResponseCL	14	0	175	0	112	09:24:57	1835480	5	3	3	3	3	3	3	3	3	5	4	0	0	0	0	5	5
101912	09:24:57	10029	Trial	CongruentLeft	14	203	492	1	112	09:24:57	1836000	5	3	3	3	3	3	3	3	3	5	4	0	0	0	0	5	5
101912	09:24:57	10029	Trial	ResponseIL	14	0	175	0	112	09:24:57	1837186	5	3	3	3	3	3	3	3	3	5	4	0	0	0	0	5	5
101912	09:24:57	10029	Trial	IncongruentLeft	14	203	433	1	112	09:24:57	1837639	5	3	3	3	3	3	3	3	3	5	4	0	0	0	0	5	5
101912	09:24:57	10029	Trial	ResponseIR	14	0	175	0	112	09:24:57	1838892	5	3	3	3	3	3	3	3	3	5	4	0	0	0	0	5	5
101912	09:24:57	10029	Trial	IncongruentRight	14	205	343	1	112	09:24:57	1839252	5	3	3	3	3	3	3	3	3	5	4	0	0	0	0	5	5
101912	09:24:57	10029	Trial	ResponseCR	14	0	175	0	112	09:24:57	1840599	5	3	3	3	3	3	3	3	3	5	4	0	0	0	0	5	5
101912	09:24:57	10029	Trial	CongruentRight	14	205	323	1	112	09:24:57	1840971	5	3	3	3	3	3	3	3	3	5	4	0	0	0	0	5	5
101912	09:24:57	10029	Trial	ResponseCL	14	0	175	0	112	09:24:57	1842331	5	3	3	3	3	3	3	3	3	5	4	0	0	0	0	5	5
101912	09:24:57	10029	Trial	CongruentLeft	14	203	248	1	112	09:24:57	1842597	5	3	3	3	3	3	3	3	3	5	4	0	0	0	0	5	5
101912	09:24:57	10029	Trial	ResponseCL	14	0	175	0	112	09:24:57	1844036	5	3	3	3	3	3	3	3	3	5	4	0	0	0	0	5	5
101912	09:24:57	10029	Trial	CongruentLeft	14	203	351	1	112	09:24:57	1844409	5	3	3	3	3	3	3	3	3	5	4	0	0	0	0	5	5
101912	09:24:57	10029	Trial	ResponseIR	14	0	175	0	112	09:24:57	1845742	5	3	3	3	3	3	3	3	3	5	4	0	0	0	0	5	5
101912	09:24:57	10029	Trial	IncongruentRight	14	205	341	1	112	09:24:57	1846102	5	3	3	3	3	3	3	3	3	5	4	0	0	0	0	5	5
101912	09:24:57	10029	Trial	ResponseIL	14	0	175	0	112	09:24:57	1847448	5	3	3	3	3	3	3	3	3	5	4	0	0	0	0	5	5
101912	09:24:57	10029	Trial	IncongruentLeft	14	203	362	1	112	09:24:57	1847835	5	3	3	3	3	3	3	3	3	5	4	0	0	0	0	5	5
101912	09:24:57	10029	Trial	ResponseIR	14	0	175	0	112	09:24:57	1849154	5	3	3	3	3	3	3	3	3	5	4	0	0	0	0	5	5
101912	09:24:57	10029	Trial	IncongruentRight	14	205	208	1	112	09:24:57	1849381	5	3	3	3	3	3	3	3	3	5	4	0	0	0	0	5	5
101912	09:24:57	10029	Trial	ResponseCR	14	0	175	0	112	09:24:57	1850860	5	3	3	3	3	3	3	3	3	5	4	0	0	0	0	5	5
101912	09:24:57	10029	Trial	CongruentRight	14	205	374	1	112	09:24:57	1851260	5	3	3	3	3	3	3	3	3	5	4	0	0	0	0	5	5
101912	09:24:57	10029	Trial	ResponseCR	14	0	175	0	112	09:24:57	1852566	5	3	3	3	3	3	3	3	3	5	4	0	0	0	0	5	5
101912	09:24:57	10029	Trial	CongruentRight	14	205	348	1	112	09:24:57	1852939	5	3	3	3	3	3	3	3	3	5	4	0	0	0	0	5	5
101912	09:24:57	10029	Trial	ResponseIL	14	0	175	0	112	09:24:57	1854272	5	3	3	3	3	3	3	3	3	5	4	0	0	0	0	5	5
101912	09:24:57	10029	Trial	IncongruentLeft	14	203	425	1	112	09:24:57	1854725	5	3	3	3	3	3	3	3	3	5	4	0	0	0	0	5	5
101912	09:24:57	10029	Trial	ResponseCL	14	0	175	0	112	09:24:57	1855978	5	3	3	3	3	3	3	3	3	5	4	0	0	0	0	5	5
101912	09:24:57	10029	Trial	CongruentLeft	14	203	327	1	112	09:24:57	1856325	5	3	3	3	3	3	3	3	3	5	4	0	0	0	0	5	5
101912	09:24:57	10029	Trial	ResponseCR	14	0	175	0	112	09:24:57	1857684	5	3	3	3	3	3	3	3	3	5	4	0	0	0	0	5	5
101912	09:24:57	10029	Trial	CongruentRight	14	205	223	1	112	09:24:57	1857924	5	3	3	3	3	3	3	3	3	5	4	0	0	0	0	5	5
101912	09:24:57	10029	Trial	ResponseCL	14	0	175	0	112	09:24:57	1859390	5	3	3	3	3	3	3	3	3	5	4	0	0	0	0	5	5
101912	09:24:57	10029	Trial	CongruentLeft	14	203	293	1	112	09:24:57	1859710	5	3	3	3	3	3	3	3	3	5	4	0	0	0	0	5	5
101912	09:24:57	10029	Trial	ResponseIR	14	0	175	0	112	09:24:57	1861096	5	3	3	3	3	3	3	3	3	5	4	0	0	0	0	5	5
101912	09:24:57	10029	Trial	IncongruentRight	14	205	219	1	112	09:24:57	1861336	5	3	3	3	3	3	3	3	3	5	4	0	0	0	0	5	5
101912	09:24:57	10029	Trial	ResponseCR	14	0	175	0	112	09:24:57	1862802	5	3	3	3	3	3	3	3	3	5	4	0	0	0	0	5	5
101912	09:24:57	10029	Trial	CongruentRight	14	205	288	1	112	09:24:57	1863108	5	3	3	3	3	3	3	3	3	5	4	0	0	0	0	5	5
101912	09:24:57	10029	Trial	ResponseCL	14	0	175	0	112	09:24:57	1864508	5	3	3	3	3	3	3	3	3	5	4	0	0	0	0	5	5
101912	09:24:57	10029	Trial	CongruentLeft	14	203	246	1	112	09:24:57	1864775	5	3	3	3	3	3	3	3	3	5	4	0	0	0	0	5	5
101912	09:24:57	10029	Trial	ResponseIL	14	0	175	0	112	09:24:57	1866214	5	3	3	3	3	3	3	3	3	5	4	0	0	0	0	5	5
101912	09:24:57	10029	Trial	IncongruentLeft	14	205	173	0	112	09:24:57	1866414	5	3	3	3	3	3	3	3	3	5	4	0	0	0	0	5	5
101912	09:24:57	10029	Trial	ResponseIL	14	0	175	0	112	09:24:57	1867920	5	3	3	3	3	3	3	3	3	5	4	0	0	0	0	5	5
101912	09:24:57	10029	Trial	IncongruentLeft	14	205	195	0	112	09:24:57	1868133	5	3	3	3	3	3	3	3	3	5	4	0	0	0	0	5	5
101912	09:24:57	10029	Trial	ResponseCR	14	0	175	0	112	09:24:57	1869626	5	3	3	3	3	3	3	3	3	5	4	0	0	0	0	5	5
101912	09:24:57	10029	Trial	CongruentRight	14	205	232	1	112	09:24:57	1869879	5	3	3	3	3	3	3	3	3	5	4	0	0	0	0	5	5
101912	09:24:57	10029	Trial	ResponseIR	14	0	175	0	112	09:24:57	1871332	5	3	3	3	3	3	3	3	3	5	4	0	0	0	0	5	5
101912	09:24:57	10029	Trial	IncongruentRight	14	205	493	1	112	09:24:57	1871851	5	3	3	3	3	3	3	3	3	5	4	0	0	0	0	5	5
101912	09:24:57	10029	Trial	ResponseCL	14	0	175	0	112	09:24:57	1873038	5	3	3	3	3	3	3	3	3	5	4	0	0	0	0	5	5
101912	09:24:57	10029	Trial	CongruentLeft	14	203	291	1	112	09:24:57	1873358	5	3	3	3	3	3	3	3	3	5	4	0	0	0	0	5	5
101912	09:24:57	10029	Trial	ResponseIR	14	0	175	0	112	09:24:57	1874744	5	3	3	3	3	3	3	3	3	5	4	0	0	0	0	5	5
101912	09:24:57	10029	Trial	IncongruentRight	14	205	298	1	112	09:24:57	1875064	5	3	3	3	3	3	3	3	3	5	4	0	0	0	0	5	5
101912	09:24:57	10029	Trial	ResponseCR	14	0	175	0	112	09:24:57	1876450	5	3	3	3	3	3	3	3	3	5	4	0	0	0	0	5	5
101912	09:24:57	10029	Trial	CongruentRight	14	205	400	1	112	09:24:57	1876876	5	3	3	3	3	3	3	3	3	5	4	0	0	0	0	5	5
101912	09:24:57	10029	Trial	ResponseIL	14	0	175	0	112	09:24:57	1878156	5	3	3	3	3	3	3	3	3	5	4	0	0	0	0	5	5
101912	09:24:57	10029	Trial	IncongruentLeft	14	203	182	1	112	09:24:57	1878355	5	3	3	3	3	3	3	3	3	5	4	0	0	0	0	5	5
101912	09:24:57	10029	Trial	ResponseCL	14	0	175	0	112	09:24:57	1879862	5	3	3	3	3	3	3	3	3	5	4	0	0	0	0	5	5
101912	09:24:57	10029	Trial	CongruentLeft	14	203	348	1	112	09:24:57	1880235	5	3	3	3	3	3	3	3	3	5	4	0	0	0	0	5	5
101912	09:24:57	10029	Trial	ResponseCR	14	0	175	0	112	09:24:57	1881567	5	3	3	3	3	3	3	3	3	5	4	0	0	0	0	5	5
101912	09:24:57	10029	Trial	CongruentRight	14	205	227	1	112	09:24:57	1881821	5	3	3	3	3	3	3	3	3	5	4	0	0	0	0	5	5
101912	09:24:57	10029	Trial	ResponseIL	14	0	175	0	112	09:24:57	1883274	5	3	3	3	3	3	3	3	3	5	4	0	0	0	0	5	5
101912	09:24:57	10029	Trial	IncongruentLeft	14	203	344	1	112	09:24:57	1883647	5	3	3	3	3	3	3	3	3	5	4	0	0	0	0	5	5
101912	09:24:57	10029	Trial	ResponseCR	14	0	175	0	112	09:24:57	1884979	5	3	3	3	3	3	3	3	3	5	4	0	0	0	0	5	5
101912	09:24:57	10029	Trial	CongruentRight	14	205	174	1	112	09:24:57	1885179	5	3	3	3	3	3	3	3	3	5	4	0	0	0	0	5	5
101912	09:24:57	10029	Trial	ResponseCR	14	0	175	0	112	09:24:57	1886685	5	3	3	3	3	3	3	3	3	5	4	0	0	0	0	5	5
101912	09:24:57	10029	Trial	CongruentRight	14	205	453	1	112	09:24:57	1887165	5	3	3	3	3	3	3	3	3	5	4	0	0	0	0	5	5
101912	09:24:57	10029	Trial	ResponseIR	14	0	175	0	112	09:24:57	1888392	5	3	3	3	3	3	3	3	3	5	4	0	0	0	0	5	5
101912	09:24:57	10029	Trial	IncongruentRight	14	203	202	0	112	09:24:57	1888618	5	3	3	3	3	3	3	3	3	5	4	0	0	0	0	5	5
101912	09:24:57	10029	Trial	ResponseCL	14	0	175	0	112	09:24:57	1890097	5	3	3	3	3	3	3	3	3	5	4	0	0	0	0	5	5
101912	09:24:57	10029	Trial	CongruentLeft	14	203	240	1	112	09:24:57	1890364	5	3	3	3	3	3	3	3	3	5	4	0	0	0	0	5	5
101912	09:24:57	10029	Trial	ResponseIL	14	0	175	0	112	09:24:57	1891803	5	3	3	3	3	3	3	3	3	5	4	0	0	0	0	5	5
101912	09:24:57	10029	Trial	IncongruentLeft	14	203	486	1	112	09:24:57	1892310	5	3	3	3	3	3	3	3	3	5	4	0	0	0	0	5	5
101912	09:24:57	10029	Trial	ResponseCL	14	0	175	0	112	09:24:57	1893509	5	3	3	3	3	3	3	3	3	5	4	0	0	0	0	5	5
101912	09:24:57	10029	Trial	CongruentLeft	14	203	395	1	112	09:24:57	1893922	5	3	3	3	3	3	3	3	3	5	4	0	0	0	0	5	5
101912	09:24:57	10029	Trial	ResponseIR	14	0	175	0	112	09:24:57	1895216	5	3	3	3	3	3	3	3	3	5	4	0	0	0	0	5	5
101912	09:24:57	10029	Trial	IncongruentRight	14	205	304	1	112	09:24:57	1895548	5	3	3	3	3	3	3	3	3	5	4	0	0	0	0	5	5
101912	09:24:57	10029	Trial	ResponseIL	14	0	175	0	112	09:24:57	1896921	5	3	3	3	3	3	3	3	3	5	4	0	0	0	0	5	5
101912	09:24:57	10029	Trial	IncongruentLeft	14	203	696	1	112	09:24:57	1897641	5	3	3	3	3	3	3	3	3	5	4	0	0	0	0	5	5
101912	09:24:57	10029	Trial	ResponseCR	14	0	175	0	112	09:24:57	1898627	5	3	3	3	3	3	3	3	3	5	4	0	0	0	0	5	5
101912	09:24:57	10029	Trial	CongruentRight	14	205	461	1	112	09:24:57	1899107	5	3	3	3	3	3	3	3	3	5	4	0	0	0	0	5	5
101912	09:24:57	10029	Trial	ResponseCL	14	0	175	0	112	09:24:57	1900333	5	3	3	3	3	3	3	3	3	5	4	0	0	0	0	5	5
101912	09:24:57	10029	Trial	CongruentLeft	14	203	628	1	112	09:24:57	1900986	5	3	3	3	3	3	3	3	3	5	4	0	0	0	0	5	5
101912	09:24:57	10029	Trial	ResponseIL	14	0	175	0	112	09:24:57	1902039	5	3	3	3	3	3	3	3	3	5	4	0	0	0	0	5	5
101912	09:24:57	10029	Trial	IncongruentLeft	14	203	442	1	112	09:24:57	1902506	5	3	3	3	3	3	3	3	3	5	4	0	0	0	0	5	5
101912	09:24:57	10029	Trial	ResponseCL	14	0	175	0	112	09:24:57	1903745	5	3	3	3	3	3	3	3	3	5	4	0	0	0	0	5	5
101912	09:24:57	10029	Trial	CongruentLeft	14	203	336	1	112	09:24:57	1904105	5	3	3	3	3	3	3	3	3	5	4	0	0	0	0	5	5
101912	09:24:57	10029	Trial	ResponseIR	14	0	175	0	112	09:24:57	1905451	5	3	3	3	3	3	3	3	3	5	4	0	0	0	0	5	5
101912	09:24:57	10029	Trial	IncongruentRight	14	205	262	1	112	09:24:57	1905731	5	3	3	3	3	3	3	3	3	5	4	0	0	0	0	5	5
101912	09:24:57	10029	Trial	ResponseCR	14	0	175	0	112	09:24:57	1907157	5	3	3	3	3	3	3	3	3	5	4	0	0	0	0	5	5
101912	09:24:57	10029	Trial	CongruentRight	14	205	508	1	112	09:24:57	1907690	5	3	3	3	3	3	3	3	3	5	4	0	0	0	0	5	5
101912	09:24:57	10029	Trial	ResponseIL	14	0	175	0	112	09:24:57	1908863	5	3	3	3	3	3	3	3	3	5	4	0	0	0	0	5	5
101912	09:24:57	10029	Trial	IncongruentLeft	14	203	385	1	112	09:24:57	1909276	5	3	3	3	3	3	3	3	3	5	4	0	0	0	0	5	5
101912	09:24:57	10029	Trial	ResponseCL	14	0	175	0	112	09:24:57	1910569	5	3	3	3	3	3	3	3	3	5	4	0	0	0	0	5	5
101912	09:24:57	10029	Trial	CongruentLeft	14	203	328	1	112	09:24:57	1910915	5	3	3	3	3	3	3	3	3	5	4	0	0	0	0	5	5
101912	09:24:57	10029	Trial	ResponseIR	14	0	175	0	112	09:24:57	1912275	5	3	3	3	3	3	3	3	3	5	4	0	0	0	0	5	5
101912	09:24:57	10029	Trial	IncongruentRight	14	205	190	1	112	09:24:57	1912488	5	3	3	3	3	3	3	3	3	5	4	0	0	0	0	5	5
101912	09:24:57	10029	Trial	ResponseIL	14	0	175	0	112	09:24:57	1913981	5	3	3	3	3	3	3	3	3	5	4	0	0	0	0	5	5
101912	09:24:57	10029	Trial	IncongruentLeft	14	203	244	1	112	09:24:57	1914247	5	3	3	3	3	3	3	3	3	5	4	0	0	0	0	5	5
101912	09:24:57	10029	Trial	ResponseCL	14	0	175	0	112	09:24:57	1915687	5	3	3	3	3	3	3	3	3	5	4	0	0	0	0	5	5
101912	09:24:57	10029	Trial	CongruentLeft	14	205	202	0	112	09:24:57	1915913	5	3	3	3	3	3	3	3	3	5	4	0	0	0	0	5	5
101912	09:24:57	10029	Trial	ResponseIL	14	0	175	0	112	09:24:57	1917393	5	3	3	3	3	3	3	3	3	5	4	0	0	0	0	5	5
101912	09:24:57	10029	Trial	IncongruentLeft	14	203	431	1	112	09:24:57	1917846	5	3	3	3	3	3	3	3	3	5	4	0	0	0	0	5	5
101912	09:24:57	10029	Trial	ResponseCR	14	0	175	0	112	09:24:57	1919099	5	3	3	3	3	3	3	3	3	5	4	0	0	0	0	5	5
101912	09:24:57	10029	Trial	CongruentRight	14	205	341	1	112	09:24:57	1919458	5	3	3	3	3	3	3	3	3	5	4	0	0	0	0	5	5
101912	09:24:57	10029	Trial	ResponseCL	14	0	175	0	112	09:24:57	1920805	5	3	3	3	3	3	3	3	3	5	4	0	0	0	0	5	5
101912	09:24:57	10029	Trial	CongruentLeft	14	203	236	1	112	09:24:57	1921058	5	3	3	3	3	3	3	3	3	5	4	0	0	0	0	5	5
101912	09:24:57	10029	Trial	ResponseIR	14	0	175	0	112	09:24:57	1922511	5	3	3	3	3	3	3	3	3	5	4	0	0	0	0	5	5
101912	09:24:57	10029	Trial	IncongruentRight	14	205	289	1	112	09:24:57	1922817	5	3	3	3	3	3	3	3	3	5	4	0	0	0	0	5	5
101912	09:24:57	10029	Trial	ResponseCL	14	0	175	0	112	09:24:57	1924217	5	3	3	3	3	3	3	3	3	5	4	0	0	0	0	5	5
101912	09:24:57	10029	Trial	CongruentLeft	14	203	183	1	112	09:24:57	1924416	5	3	3	3	3	3	3	3	3	5	4	0	0	0	0	5	5
101912	09:24:57	10029	Trial	ResponseCR	14	0	175	0	112	09:24:57	1925922	5	3	3	3	3	3	3	3	3	5	4	0	0	0	0	5	5
101912	09:24:57	10029	Trial	CongruentRight	14	205	174	1	112	09:24:57	1926123	5	3	3	3	3	3	3	3	3	5	4	0	0	0	0	5	5
101912	09:24:57	10029	Trial	ResponseIL	14	0	175	0	112	09:24:57	1927628	5	3	3	3	3	3	3	3	3	5	4	0	0	0	0	5	5
101912	09:24:57	10029	Trial	IncongruentLeft	14	203	163	1	112	09:24:57	1927815	5	3	3	3	3	3	3	3	3	5	4	0	0	0	0	5	5
101912	09:24:57	10029	WordsAbsEngThreemo	PAbsEngThreemo1	16	Abs1	3914	0	112	09:24:57	1942564	5	3	3	3	3	3	3	3	3	5	4	0	0	0	0	5	5
101912	09:24:57	10029	WordsAbsEngThreemo	AbsEngThreemo1	16	Abs1	2044	0	112	09:24:57	1945180	5	3	3	3	3	3	3	3	3	5	4	1	0	0	0	5	5
101912	09:24:57	10029	WordsAbsEngThreemo	AbsEngThreemo2	16	Abs1	8754	0	112	09:24:57	1954058	5	3	3	3	3	3	3	3	3	5	4	2	0	0	0	5	5
101912	09:24:57	10029	WordsAbsEngThreemo	AbsEngThreemo3	16	Abs1	5920	0	112	09:24:57	1960069	5	3	3	3	3	3	3	3	3	5	4	3	0	0	0	5	5
101912	09:24:57	10029	Trial2BackEngS	NS	17	0	1000	1	112	09:24:57	2005287	5	3	3	3	3	3	3	3	3	5	4	3	0	0	0	5	5
101912	09:24:57	10029	Trial2BackEngS	NS	17	0	1000	1	112	09:24:57	2006796	5	3	3	3	3	3	3	3	3	5	4	3	0	0	0	5	5
101912	09:24:57	10029	Trial2BackEngS	NS	17	0	1000	1	112	09:24:57	2008302	5	3	3	3	3	3	3	3	3	5	4	3	0	0	0	5	5
101912	09:24:57	10029	Trial2BackEngS	YS	17	57	436	1	112	09:24:57	2009248	5	3	3	3	3	3	3	3	3	5	4	3	0	0	0	5	5
101912	09:24:57	10029	Trial2BackEngS	NS	17	0	1000	1	112	09:24:57	2011314	5	3	3	3	3	3	3	3	3	5	4	3	0	0	0	5	5
101912	09:24:57	10029	Trial2BackEngS	NS	17	0	1000	1	112	09:24:57	2012833	5	3	3	3	3	3	3	3	3	5	4	3	0	0	0	5	5
101912	09:24:57	10029	Trial2BackEngS	NS	17	0	1000	1	112	09:24:57	2014352	5	3	3	3	3	3	3	3	3	5	4	3	0	0	0	5	5
101912	09:24:57	10029	Trial2BackEngS	NS	17	0	1000	1	112	09:24:57	2015859	5	3	3	3	3	3	3	3	3	5	4	3	0	0	0	5	5
101912	09:24:57	10029	Trial2BackEngS	YS	17	57	543	1	112	09:24:57	2016911	5	3	3	3	3	3	3	3	3	5	4	3	0	0	0	5	5
101912	09:24:57	10029	Trial2BackEngS	NS	17	0	1000	1	112	09:24:57	2018871	5	3	3	3	3	3	3	3	3	5	4	3	0	0	0	5	5
101912	09:24:57	10029	Trial2BackEngS	NS	17	0	1000	1	112	09:24:57	2020377	5	3	3	3	3	3	3	3	3	5	4	3	0	0	0	5	5
101912	09:24:57	10029	Trial2BackEngS	YS	17	0	1000	0	112	09:24:57	2021883	5	3	3	3	3	3	3	3	3	5	4	3	0	0	0	5	5
101912	09:24:57	10029	Trial2BackEngS	NS	17	0	1000	1	112	09:24:57	2023389	5	3	3	3	3	3	3	3	3	5	4	3	0	0	0	5	5
101912	09:24:57	10029	Trial2BackEngS	NS	17	0	1000	1	112	09:24:57	2024895	5	3	3	3	3	3	3	3	3	5	4	3	0	0	0	5	5
101912	09:24:57	10029	Trial2BackEngS	NS	17	0	1000	1	112	09:24:57	2026401	5	3	3	3	3	3	3	3	3	5	4	3	0	0	0	5	5
101912	09:24:57	10029	Trial2BackEngS	YS	17	0	1000	0	112	09:24:57	2027920	5	3	3	3	3	3	3	3	3	5	4	3	0	0	0	5	5
101912	09:24:57	10029	Trial2BackEngS	NS	17	0	1000	1	112	09:24:57	2029440	5	3	3	3	3	3	3	3	3	5	4	3	0	0	0	5	5
101912	09:24:57	10029	Trial2BackEngS	NS	17	0	1000	1	112	09:24:57	2030946	5	3	3	3	3	3	3	3	3	5	4	3	0	0	0	5	5
101912	09:24:57	10029	Trial2BackEngS	NS	17	0	1000	1	112	09:24:57	2032452	5	3	3	3	3	3	3	3	3	5	4	3	0	0	0	5	5
101912	09:24:57	10029	Trial2BackEngS	NS	17	0	1000	1	112	09:24:57	2033958	5	3	3	3	3	3	3	3	3	5	4	3	0	0	0	5	5
101912	09:24:57	10029	Trial2BackEngS	YS	17	57	411	1	112	09:24:57	2034877	5	3	3	3	3	3	3	3	3	5	4	3	0	0	0	5	5
101912	09:24:57	10029	Trial2BackEngS	NS	17	0	1000	1	112	09:24:57	2036970	5	3	3	3	3	3	3	3	3	5	4	3	0	0	0	5	5
101912	09:24:57	10029	Trial2BackEngS	NS	17	0	1000	1	112	09:24:57	2038476	5	3	3	3	3	3	3	3	3	5	4	3	0	0	0	5	5
101912	09:24:57	10029	Trial2BackEngS	NS	17	0	1000	1	112	09:24:57	2039982	5	3	3	3	3	3	3	3	3	5	4	3	0	0	0	5	5
101912	09:24:57	10029	Trial2BackEngS	NS	17	0	1000	1	112	09:24:57	2041488	5	3	3	3	3	3	3	3	3	5	4	3	0	0	0	5	5
101912	09:24:57	10029	Trial2BackEngS	NS	17	0	1000	1	112	09:24:57	2042994	5	3	3	3	3	3	3	3	3	5	4	3	0	0	0	5	5
101912	09:24:57	10029	Trial2BackEngS	NS	17	0	1000	1	112	09:24:57	2044500	5	3	3	3	3	3	3	3	3	5	4	3	0	0	0	5	5
101912	09:24:57	10029	Trial2BackEngS	NS	17	0	1000	1	112	09:24:57	2046006	5	3	3	3	3	3	3	3	3	5	4	3	0	0	0	5	5
101912	09:24:57	10029	Trial2BackEngS	NS	17	0	1000	1	112	09:24:57	2047512	5	3	3	3	3	3	3	3	3	5	4	3	0	0	0	5	5
101912	09:24:57	10029	Trial2BackEngS	NS	17	0	1000	1	112	09:24:57	2049018	5	3	3	3	3	3	3	3	3	5	4	3	0	0	0	5	5
101912	09:24:57	10029	Trial2BackEngS	NS	17	0	1000	1	112	09:24:57	2050524	5	3	3	3	3	3	3	3	3	5	4	3	0	0	0	5	5
101912	09:24:57	10029	Trial2BackEngS	YS	17	0	1000	0	112	09:24:57	2052030	5	3	3	3	3	3	3	3	3	5	4	3	0	0	0	5	5
101912	09:24:57	10029	Trial2BackEngS	NS	17	0	1000	1	112	09:24:57	2053536	5	3	3	3	3	3	3	3	3	5	4	3	0	0	0	5	5
101912	09:24:57	10029	Trial2BackEngS	NS	17	0	1000	1	112	09:24:57	2055042	5	3	3	3	3	3	3	3	3	5	4	3	0	0	0	5	5
101912	09:24:57	10029	Trial2BackEngS	NS	17	0	1000	1	112	09:24:57	2056549	5	3	3	3	3	3	3	3	3	5	4	3	0	0	0	5	5
101912	09:24:57	10029	Trial2BackEngS	YS	17	0	1000	0	112	09:24:57	2058055	5	3	3	3	3	3	3	3	3	5	4	3	0	0	0	5	5
101912	09:24:57	10029	Trial2BackEngS	NS	17	0	1000	1	112	09:24:57	2059561	5	3	3	3	3	3	3	3	3	5	4	3	0	0	0	5	5
101912	09:24:57	10029	Trial2BackEngS	NS	17	0	1000	1	112	09:24:57	2061067	5	3	3	3	3	3	3	3	3	5	4	3	0	0	0	5	5
101912	09:24:57	10029	Trial2BackEngS	NS	17	0	1000	1	112	09:24:57	2062586	5	3	3	3	3	3	3	3	3	5	4	3	0	0	0	5	5
101912	09:24:57	10029	Trial2BackEngS	NS	17	0	1000	1	112	09:24:57	2064092	5	3	3	3	3	3	3	3	3	5	4	3	0	0	0	5	5
101912	09:24:57	10029	Trial2BackEngS	NS	17	0	1000	1	112	09:24:57	2065598	5	3	3	3	3	3	3	3	3	5	4	3	0	0	0	5	5
101912	09:24:57	10029	Trial2BackEngS	NS	17	0	1000	1	112	09:24:57	2067104	5	3	3	3	3	3	3	3	3	5	4	3	0	0	0	5	5
101912	09:24:57	10029	Trial2BackEngS	NS	17	0	1000	1	112	09:24:57	2068623	5	3	3	3	3	3	3	3	3	5	4	3	0	0	0	5	5
101912	09:24:57	10029	Trial2BackEngS	YS	17	0	1000	0	112	09:24:57	2070129	5	3	3	3	3	3	3	3	3	5	4	3	0	0	0	5	5
101912	09:24:57	10029	Trial2BackEngS	NS	17	0	1000	1	112	09:24:57	2071636	5	3	3	3	3	3	3	3	3	5	4	3	0	0	0	5	5
101912	09:24:57	10029	Trial2BackEngS	NS	17	0	1000	1	112	09:24:57	2073142	5	3	3	3	3	3	3	3	3	5	4	3	0	0	0	5	5
101912	09:24:57	10029	Trial2BackEngS	NS	17	0	1000	1	112	09:24:57	2074648	5	3	3	3	3	3	3	3	3	5	4	3	0	0	0	5	5
101912	09:24:57	10029	Trial2BackEngS	NS	17	0	1000	1	112	09:24:57	2076154	5	3	3	3	3	3	3	3	3	5	4	3	0	0	0	5	5
101912	09:24:57	10029	Trial2BackEngS	YS	17	57	534	1	112	09:24:57	2077207	5	3	3	3	3	3	3	3	3	5	4	3	0	0	0	5	5
101912	09:24:57	10029	Trial2BackEngS	NS	17	0	1000	1	112	09:24:57	2079166	5	3	3	3	3	3	3	3	3	5	4	3	0	0	0	5	5
101912	09:24:57	10029	Trial2BackEngS	NS	17	0	1000	1	112	09:24:57	2080672	5	3	3	3	3	3	3	3	3	5	4	3	0	0	0	5	5
101912	09:24:57	10029	Trial2BackEngS	NS	17	0	1000	1	112	09:24:57	2082191	5	3	3	3	3	3	3	3	3	5	4	3	0	0	0	5	5
101912	09:24:57	10029	Trial2BackEngS	NS	17	0	1000	1	112	09:24:57	2083697	5	3	3	3	3	3	3	3	3	5	4	3	0	0	0	5	5
101912	09:24:57	10029	Trial2BackEngS	NS	17	0	1000	1	112	09:24:57	2085203	5	3	3	3	3	3	3	3	3	5	4	3	0	0	0	5	5
101912	09:24:57	10029	Trial2BackEngS	NS	17	0	1000	1	112	09:24:57	2086709	5	3	3	3	3	3	3	3	3	5	4	3	0	0	0	5	5
101912	09:24:57	10029	Trial2BackEngS	YS	17	57	458	1	112	09:24:57	2087682	5	3	3	3	3	3	3	3	3	5	4	3	0	0	0	5	5
101912	09:24:57	10029	Trial2BackEngS	NS	17	0	1000	1	112	09:24:57	2089722	5	3	3	3	3	3	3	3	3	5	4	3	0	0	0	5	5
101912	09:24:57	10029	Trial2BackEngS	NS	17	0	1000	1	112	09:24:57	2091241	5	3	3	3	3	3	3	3	3	5	4	3	0	0	0	5	5
101912	09:24:57	10029	Trial2BackEngS	NS	17	0	1000	1	112	09:24:57	2092747	5	3	3	3	3	3	3	3	3	5	4	3	0	0	0	5	5
101912	09:24:57	10029	Trial2BackEngS	NS	17	0	1000	1	112	09:24:57	2094266	5	3	3	3	3	3	3	3	3	5	4	3	0	0	0	5	5
101912	09:24:57	10029	Trial2BackEngS	NS	17	0	1000	1	112	09:24:57	2095786	5	3	3	3	3	3	3	3	3	5	4	3	0	0	0	5	5
101912	09:24:57	10029	Trial2BackEngS	NS	17	0	1000	1	112	09:24:57	2097305	5	3	3	3	3	3	3	3	3	5	4	3	0	0	0	5	5
101912	09:24:57	10029	Trial2BackEngS	NS	17	0	1000	1	112	09:24:57	2098824	5	3	3	3	3	3	3	3	3	5	4	3	0	0	0	5	5
101912	09:24:57	10029	Trial2BackEngS	YS	17	0	1000	0	112	09:24:57	2100330	5	3	3	3	3	3	3	3	3	5	4	3	0	0	0	5	5
101912	09:24:57	10029	Trial2BackEngS	NS	17	0	1000	1	112	09:24:57	2101836	5	3	3	3	3	3	3	3	3	5	4	3	0	0	0	5	5
101912	09:24:57	10029	Trial2BackEngS	NS	17	0	1000	1	112	09:24:57	2103342	5	3	3	3	3	3	3	3	3	5	4	3	0	0	0	5	5
101912	09:24:57	10029	Trial2BackEngS	NS	17	0	1000	1	112	09:24:57	2104848	5	3	3	3	3	3	3	3	3	5	4	3	0	0	0	5	5
101912	09:24:57	10029	Trial2BackEngS	NS	17	0	1000	1	112	09:24:57	2106354	5	3	3	3	3	3	3	3	3	5	4	3	0	0	0	5	5
101912	09:24:57	10029	Trial2BackEngS	YS	17	0	1000	0	112	09:24:57	2107860	5	3	3	3	3	3	3	3	3	5	4	3	0	0	0	5	5
101912	09:24:57	10029	Trial2BackEngS	NS	17	0	1000	1	112	09:24:57	2109367	5	3	3	3	3	3	3	3	3	5	4	3	0	0	0	5	5
101912	09:24:57	10029	Trial2BackEngS	NS	17	0	1000	1	112	09:24:57	2110873	5	3	3	3	3	3	3	3	3	5	4	3	0	0	0	5	5
101912	09:24:57	10029	Trial2BackEngS	YS	17	57	438	1	112	09:24:57	2111819	5	3	3	3	3	3	3	3	3	5	4	3	0	0	0	5	5
101912	09:24:57	10029	Trial2BackEngS	NS	17	0	1000	1	112	09:24:57	2113885	5	3	3	3	3	3	3	3	3	5	4	3	0	0	0	5	5
101912	09:24:57	10029	Trial2BackEngS	NS	17	0	1000	1	112	09:24:57	2115404	5	3	3	3	3	3	3	3	3	5	4	3	0	0	0	5	5
101912	09:24:57	10029	Trial2BackEngS	NS	17	0	1000	1	112	09:24:57	2116910	5	3	3	3	3	3	3	3	3	5	4	3	0	0	0	5	5
101912	09:24:57	10029	Trial2BackEngS	NS	17	0	1000	1	112	09:24:57	2118429	5	3	3	3	3	3	3	3	3	5	4	3	0	0	0	5	5
101912	09:24:57	10029	Trial2BackEngS	NS	17	0	1000	1	112	09:24:57	2119935	5	3	3	3	3	3	3	3	3	5	4	3	0	0	0	5	5
101912	09:24:57	10029	Trial2BackEngS	NS	17	0	1000	1	112	09:24:57	2121442	5	3	3	3	3	3	3	3	3	5	4	3	0	0	0	5	5
101912	09:24:57	10029	Trial2BackEngS	YS	17	57	637	1	112	09:24:57	2122588	5	3	3	3	3	3	3	3	3	5	4	3	0	0	0	5	5
101912	09:24:57	10029	Trial2BackEngS	NS	17	0	1000	1	112	09:24:57	2124454	5	3	3	3	3	3	3	3	3	5	4	3	0	0	0	5	5
101912	09:24:57	10029	Trial2BackEngS	NS	17	0	1000	1	112	09:24:57	2125960	5	3	3	3	3	3	3	3	3	5	4	3	0	0	0	5	5
101912	09:24:57	10029	Trial2BackEngS	NS	17	0	1000	1	112	09:24:57	2127466	5	3	3	3	3	3	3	3	3	5	4	3	0	0	0	5	5
101912	09:24:57	10029	Trial2BackEngS	NS	17	0	1000	1	112	09:24:57	2128972	5	3	3	3	3	3	3	3	3	5	4	3	0	0	0	5	5
101912	09:24:57	10029	Trial2BackEngS	YS	17	0	1000	0	112	09:24:57	2130491	5	3	3	3	3	3	3	3	3	5	4	3	0	0	0	5	5
101912	09:24:57	10029	Trial2BackEngS	NS	17	0	1000	1	112	09:24:57	2131997	5	3	3	3	3	3	3	3	3	5	4	3	0	0	0	5	5
101912	09:24:57	10029	Trial2BackEngS	NS	17	0	1000	1	112	09:24:57	2133557	5	3	3	3	3	3	3	3	3	5	4	3	0	0	0	5	5
101912	09:24:57	10029	Trial2BackEngS	NS	17	0	1000	1	112	09:24:57	2135076	5	3	3	3	3	3	3	3	3	5	4	3	0	0	0	5	5
101912	09:24:57	10029	Trial2BackEngS	NS	17	0	1000	1	112	09:24:57	2136582	5	3	3	3	3	3	3	3	3	5	4	3	0	0	0	5	5
101912	09:24:57	10029	Trial2BackEngS	YS	17	0	1000	0	112	09:24:57	2138088	5	3	3	3	3	3	3	3	3	5	4	3	0	0	0	5	5
101912	09:24:57	10029	Trial2BackEngS	NS	17	0	1000	1	112	09:24:57	2139594	5	3	3	3	3	3	3	3	3	5	4	3	0	0	0	5	5
101912	09:24:57	10029	Trial2BackEngS	NS	17	0	1000	1	112	09:24:57	2141100	5	3	3	3	3	3	3	3	3	5	4	3	0	0	0	5	5
101912	09:24:57	10029	Trial2BackEngS	YS	17	0	1000	0	112	09:24:57	2142606	5	3	3	3	3	3	3	3	3	5	4	3	0	0	0	5	5
101912	09:24:57	10029	Trial2BackEngS	NS	17	0	1000	1	112	09:24:57	2144126	5	3	3	3	3	3	3	3	3	5	4	3	0	0	0	5	5
101912	09:24:57	10029	Trial2BackEngS	NS	17	0	1000	1	112	09:24:57	2145645	5	3	3	3	3	3	3	3	3	5	4	3	0	0	0	5	5
101912	09:24:57	10029	Trial2BackEngS	NS	17	0	1000	1	112	09:24:57	2147164	5	3	3	3	3	3	3	3	3	5	4	3	0	0	0	5	5
101912	09:24:57	10029	Trial2BackEngS	NS	17	0	1000	1	112	09:24:57	2148684	5	3	3	3	3	3	3	3	3	5	4	3	0	0	0	5	5
101912	09:24:57	10029	Trial2BackEngS	NS	17	0	1000	1	112	09:24:57	2150190	5	3	3	3	3	3	3	3	3	5	4	3	0	0	0	5	5
101912	09:24:57	10029	Trial2BackEngS	NS	17	0	1000	1	112	09:24:57	2151709	5	3	3	3	3	3	3	3	3	5	4	3	0	0	0	5	5
101912	09:24:57	10029	Trial2BackEngS	NS	17	0	1000	1	112	09:24:57	2153216	5	3	3	3	3	3	3	3	3	5	4	3	0	0	0	5	5
101912	09:24:57	10029	Trial2BackEngS	NS	17	0	1000	1	112	09:24:57	2154735	5	3	3	3	3	3	3	3	3	5	4	3	0	0	0	5	5
101912	09:24:57	10029	Trial2BackEngS	YS	17	0	1000	0	112	09:24:57	2156254	5	3	3	3	3	3	3	3	3	5	4	3	0	0	0	5	5
101912	09:24:57	10029	Trial2BackEngS	NS	17	0	1000	1	112	09:24:57	2157760	5	3	3	3	3	3	3	3	3	5	4	3	0	0	0	5	5
101912	09:24:57	10029	Trial2BackEngS	NS	17	0	1000	1	112	09:24:57	2159266	5	3	3	3	3	3	3	3	3	5	4	3	0	0	0	5	5
101912	09:24:57	10029	Trial2BackEngS	NS	17	0	1000	1	112	09:24:57	2160772	5	3	3	3	3	3	3	3	3	5	4	3	0	0	0	5	5
101912	09:24:57	10029	Trial2BackEngS	NS	17	0	1000	1	112	09:24:57	2162278	5	3	3	3	3	3	3	3	3	5	4	3	0	0	0	5	5
101912	09:24:57	10029	Trial2BackEngS	NS	17	0	1000	1	112	09:24:57	2163797	5	3	3	3	3	3	3	3	3	5	4	3	0	0	0	5	5
101912	09:24:57	10029	Trial2BackEngS	NS	17	0	1000	1	112	09:24:57	2165317	5	3	3	3	3	3	3	3	3	5	4	3	0	0	0	5	5
101912	09:24:57	10029	Trial2BackEngS	NS	17	0	1000	1	112	09:24:57	2166836	5	3	3	3	3	3	3	3	3	5	4	3	0	0	0	5	5
101912	09:24:57	10029	Trial2BackEngS	YS	17	0	1000	0	112	09:24:57	2168356	5	3	3	3	3	3	3	3	3	5	4	3	0	0	0	5	5
101912	09:24:57	10029	Trial2BackEngS	NS	17	57	505	0	112	09:24:57	2169369	5	3	3	3	3	3	3	3	3	5	4	3	0	0	0	5	5
101912	09:24:57	10029	Trial2BackEngS	NS	17	0	1000	1	112	09:24:57	2171368	5	3	3	3	3	3	3	3	3	5	4	3	0	0	0	5	5
101912	09:24:57	10029	Trial2BackEngS	NS	17	0	1000	1	112	09:24:57	2172874	5	3	3	3	3	3	3	3	3	5	4	3	0	0	0	5	5
101912	09:24:57	10029	Trial2BackEngS	NS	17	0	1000	1	112	09:24:57	2174393	5	3	3	3	3	3	3	3	3	5	4	3	0	0	0	5	5
101912	09:24:57	10029	Trial2BackEngS	NS	17	0	1000	1	112	09:24:57	2175912	5	3	3	3	3	3	3	3	3	5	4	3	0	0	0	5	5
101912	09:24:57	10029	Trial2BackEngS	NS	17	0	1000	1	112	09:24:57	2177419	5	3	3	3	3	3	3	3	3	5	4	3	0	0	0	5	5
101912	09:24:57	10029	Trial2BackEngS	NS	17	0	1000	1	112	09:24:57	2178938	5	3	3	3	3	3	3	3	3	5	4	3	0	0	0	5	5
101912	09:24:57	10029	Trial2BackEngS	NS	17	0	1000	1	112	09:24:57	2180444	5	3	3	3	3	3	3	3	3	5	4	3	0	0	0	5	5
101912	09:24:57	10029	Trial2BackEngS	NS	17	0	1000	1	112	09:24:57	2181963	5	3	3	3	3	3	3	3	3	5	4	3	0	0	0	5	5
101912	09:24:57	10029	Trial2BackEngS	YS	17	0	1000	0	112	09:24:57	2183469	5	3	3	3	3	3	3	3	3	5	4	3	0	0	0	5	5
101912	09:24:57	10029	Trial2BackEngS	NS	17	0	1000	1	112	09:24:57	2184976	5	3	3	3	3	3	3	3	3	5	4	3	0	0	0	5	5
101912	09:24:57	10029	ClockEng3mo	ClockEng3mo	19	Clock1	40957	0	112	09:24:57	2226625	5	3	3	3	3	3	3	3	3	5	4	3	1	0	0	5	5
101912	09:24:57	10029	ClockEng3mo	ClockEng3mo	19	Clock11	483	0	112	09:24:57	2227198	5	3	3	3	3	3	3	3	3	5	4	3	1	1	0	5	5
101912	09:24:57	10029	ClockEng3mo	ClockEng3mo	19	Clock111	693	0	112	09:24:57	2227984	5	3	3	3	3	3	3	3	3	5	4	3	1	1	1	5	5
101912	09:24:57	10029	ClockEng3mo	ClockEng3mo	19	Clockdone	524	0	112	09:24:57	2228557	5	3	3	3	3	3	3	3	3	5	4	3	1	1	1	5	5
101912	09:24:57	10029	FASEngVF3mo	StopEngVF3mo	20	11	16393	0	112	09:24:57	2350123	5	3	3	3	3	3	3	3	3	5	4	3	1	1	1	5	5
