date	time	subject	blockcode	trialcode	values.TaskNumber	response	latency	correct	values.Score	script.starttime	script.elapsedtime	values.ScoreS7	values.Word1	values.Word2	values.Word3	values.Word4	values.Word5	values.Word6	values.Word7	values.Word8	values.DigitSpanFwrd	values.DigitSpanBack	values.ScoreAbs	values.Contour	values.Numbers	values.Hands	values.corsiblockspanFwrd	values.corsiblockspanRev
110212	08:03:11	10032	Language	Language	0	French	721082	0	0	08:03:11	721321	0	0	0	0	0	0	0	0	0	0	0	0	0	0	0	0	0
110212	08:03:11	10032	Session	Session	0	3mo	876	0	0	08:03:11	722253	0	0	0	0	0	0	0	0	0	0	0	0	0	0	0	0	0
110212	08:03:11	10032	HandFr	HandFr	0	RightFr	1104	0	0	08:03:11	723426	0	0	0	0	0	0	0	0	0	0	0	0	0	0	0	0	0
110212	08:03:11	10032	AudioCheckFr	WordsFr	0	0	0	0	0	08:03:11	2052552	0	0	0	0	0	0	0	0	0	0	0	0	0	0	0	0	0
110212	08:03:11	10032	CubeFr	CubeFr	1	1Cube	26390	0	0	08:03:11	2081862	0	0	0	0	0	0	0	0	0	0	0	0	0	0	0	0	0
110212	08:03:11	10032	pm.simpleFrRight	blank.simpleFr	2	0	1800	1	0	08:03:11	2127897	0	0	0	0	0	0	0	0	0	0	0	0	0	0	0	0	0
110212	08:03:11	10032	pm.simpleFrRight	pm.simpleFr	2	57	658	0	0	08:03:11	2128576	0	0	0	0	0	0	0	0	0	0	0	0	0	0	0	0	0
110212	08:03:11	10032	pm.simpleFrRight	blank.simpleFr	2	0	2100	1	0	08:03:11	2130695	0	0	0	0	0	0	0	0	0	0	0	0	0	0	0	0	0
110212	08:03:11	10032	pm.simpleFrRight	pm.simpleFr	2	57	707	0	0	08:03:11	2131428	0	0	0	0	0	0	0	0	0	0	0	0	0	0	0	0	0
110212	08:03:11	10032	pm.simpleFrRight	blank.simpleFr	2	0	2300	1	0	08:03:11	2133748	0	0	0	0	0	0	0	0	0	0	0	0	0	0	0	0	0
110212	08:03:11	10032	pm.simpleFrRight	pm.simpleFr	2	57	472	0	0	08:03:11	2134241	0	0	0	0	0	0	0	0	0	0	0	0	0	0	0	0	0
110212	08:03:11	10032	pm.simpleFrRight	blank.simpleFr	2	0	1900	1	0	08:03:11	2136160	0	0	0	0	0	0	0	0	0	0	0	0	0	0	0	0	0
110212	08:03:11	10032	pm.simpleFrRight	pm.simpleFr	2	57	523	0	0	08:03:11	2136706	0	0	0	0	0	0	0	0	0	0	0	0	0	0	0	0	0
110212	08:03:11	10032	pm.simpleFrRight	blank.simpleFr	2	0	2400	1	0	08:03:11	2139119	0	0	0	0	0	0	0	0	0	0	0	0	0	0	0	0	0
110212	08:03:11	10032	pm.simpleFrRight	pm.simpleFr	2	57	508	0	0	08:03:11	2139652	0	0	0	0	0	0	0	0	0	0	0	0	0	0	0	0	0
110212	08:03:11	10032	pm.simpleFrRight	blank.simpleFr	2	0	1600	1	0	08:03:11	2141265	0	0	0	0	0	0	0	0	0	0	0	0	0	0	0	0	0
110212	08:03:11	10032	pm.simpleFrRight	pm.simpleFr	2	57	746	0	0	08:03:11	2142038	0	0	0	0	0	0	0	0	0	0	0	0	0	0	0	0	0
110212	08:03:11	10032	pm.simpleFrRight	blank.simpleFr	2	0	2500	1	0	08:03:11	2144557	0	0	0	0	0	0	0	0	0	0	0	0	0	0	0	0	0
110212	08:03:11	10032	pm.simpleFrRight	pm.simpleFr	2	57	494	0	0	08:03:11	2145076	0	0	0	0	0	0	0	0	0	0	0	0	0	0	0	0	0
110212	08:03:11	10032	pm.simpleFrRight	blank.simpleFr	2	0	1500	1	0	08:03:11	2146596	0	0	0	0	0	0	0	0	0	0	0	0	0	0	0	0	0
110212	08:03:11	10032	pm.simpleFrRight	pm.simpleFr	2	57	663	0	0	08:03:11	2147275	0	0	0	0	0	0	0	0	0	0	0	0	0	0	0	0	0
110212	08:03:11	10032	pm.simpleFrRight	blank.simpleFr	2	0	2000	1	0	08:03:11	2149288	0	0	0	0	0	0	0	0	0	0	0	0	0	0	0	0	0
110212	08:03:11	10032	pm.simpleFrRight	pm.simpleFr	2	57	549	0	0	08:03:11	2149861	0	0	0	0	0	0	0	0	0	0	0	0	0	0	0	0	0
110212	08:03:11	10032	pm.simpleFrRight	blank.simpleFr	2	0	1700	1	0	08:03:11	2151580	0	0	0	0	0	0	0	0	0	0	0	0	0	0	0	0	0
110212	08:03:11	10032	pm.simpleFrRight	pm.simpleFr	2	57	542	0	0	08:03:11	2152140	0	0	0	0	0	0	0	0	0	0	0	0	0	0	0	0	0
110212	08:03:11	10032	pm.simpleFrRight	blank.simpleFr	2	0	2200	1	0	08:03:11	2154352	0	0	0	0	0	0	0	0	0	0	0	0	0	0	0	0	0
110212	08:03:11	10032	pm.simpleFrRight	pm.simpleFr	2	57	554	0	0	08:03:11	2154925	0	0	0	0	0	0	0	0	0	0	0	0	0	0	0	0	0
110212	08:03:11	10032	pm.simpleFrRight	blank.simpleFr	2	0	1900	1	0	08:03:11	2156845	0	0	0	0	0	0	0	0	0	0	0	0	0	0	0	0	0
110212	08:03:11	10032	pm.simpleFrRight	pm.simpleFr	2	57	478	0	0	08:03:11	2157351	0	0	0	0	0	0	0	0	0	0	0	0	0	0	0	0	0
110212	08:03:11	10032	pm.simpleFrRight	blank.simpleFr	2	0	2000	1	0	08:03:11	2159364	0	0	0	0	0	0	0	0	0	0	0	0	0	0	0	0	0
110212	08:03:11	10032	pm.simpleFrRight	pm.simpleFr	2	57	438	0	0	08:03:11	2159830	0	0	0	0	0	0	0	0	0	0	0	0	0	0	0	0	0
110212	08:03:11	10032	pm.simpleFrRight	blank.simpleFr	2	0	2500	1	0	08:03:11	2162349	0	0	0	0	0	0	0	0	0	0	0	0	0	0	0	0	0
110212	08:03:11	10032	pm.simpleFrRight	pm.simpleFr	2	57	781	0	0	08:03:11	2163149	0	0	0	0	0	0	0	0	0	0	0	0	0	0	0	0	0
110212	08:03:11	10032	pm.simpleFrRight	blank.simpleFr	2	0	1800	1	0	08:03:11	2164962	0	0	0	0	0	0	0	0	0	0	0	0	0	0	0	0	0
110212	08:03:11	10032	pm.simpleFrRight	pm.simpleFr	2	57	697	0	0	08:03:11	2165681	0	0	0	0	0	0	0	0	0	0	0	0	0	0	0	0	0
110212	08:03:11	10032	pm.simpleFrRight	blank.simpleFr	2	0	1500	1	0	08:03:11	2167201	0	0	0	0	0	0	0	0	0	0	0	0	0	0	0	0	0
110212	08:03:11	10032	pm.simpleFrRight	pm.simpleFr	2	57	633	0	0	08:03:11	2167854	0	0	0	0	0	0	0	0	0	0	0	0	0	0	0	0	0
110212	08:03:11	10032	pm.simpleFrRight	blank.simpleFr	2	0	2400	1	0	08:03:11	2170279	0	0	0	0	0	0	0	0	0	0	0	0	0	0	0	0	0
110212	08:03:11	10032	pm.simpleFrRight	pm.simpleFr	2	57	451	0	0	08:03:11	2170759	0	0	0	0	0	0	0	0	0	0	0	0	0	0	0	0	0
110212	08:03:11	10032	pm.simpleFrRight	blank.simpleFr	2	0	1600	1	0	08:03:11	2172372	0	0	0	0	0	0	0	0	0	0	0	0	0	0	0	0	0
110212	08:03:11	10032	pm.simpleFrRight	pm.simpleFr	2	57	566	0	0	08:03:11	2172958	0	0	0	0	0	0	0	0	0	0	0	0	0	0	0	0	0
110212	08:03:11	10032	pm.simpleFrRight	blank.simpleFr	2	0	2200	1	0	08:03:11	2175197	0	0	0	0	0	0	0	0	0	0	0	0	0	0	0	0	0
110212	08:03:11	10032	pm.simpleFrRight	pm.simpleFr	2	57	428	0	0	08:03:11	2175651	0	0	0	0	0	0	0	0	0	0	0	0	0	0	0	0	0
110212	08:03:11	10032	pm.simpleFrRight	blank.simpleFr	2	0	2300	1	0	08:03:11	2177970	0	0	0	0	0	0	0	0	0	0	0	0	0	0	0	0	0
110212	08:03:11	10032	pm.simpleFrRight	pm.simpleFr	2	57	440	0	0	08:03:11	2178436	0	0	0	0	0	0	0	0	0	0	0	0	0	0	0	0	0
110212	08:03:11	10032	pm.simpleFrRight	blank.simpleFr	2	0	2100	1	0	08:03:11	2180555	0	0	0	0	0	0	0	0	0	0	0	0	0	0	0	0	0
110212	08:03:11	10032	pm.simpleFrRight	pm.simpleFr	2	57	590	0	0	08:03:11	2181168	0	0	0	0	0	0	0	0	0	0	0	0	0	0	0	0	0
110212	08:03:11	10032	pm.simpleFrRight	blank.simpleFr	2	0	1700	1	0	08:03:11	2182888	0	0	0	0	0	0	0	0	0	0	0	0	0	0	0	0	0
110212	08:03:11	10032	pm.simpleFrRight	pm.simpleFr	2	57	658	0	0	08:03:11	2183567	0	0	0	0	0	0	0	0	0	0	0	0	0	0	0	0	0
110212	08:03:11	10032	pm.simpleFrRight	blank.simpleFr	2	0	2300	1	0	08:03:11	2185887	0	0	0	0	0	0	0	0	0	0	0	0	0	0	0	0	0
110212	08:03:11	10032	pm.simpleFrRight	pm.simpleFr	2	57	540	0	0	08:03:11	2186446	0	0	0	0	0	0	0	0	0	0	0	0	0	0	0	0	0
110212	08:03:11	10032	pm.simpleFrRight	blank.simpleFr	2	0	2200	1	0	08:03:11	2188672	0	0	0	0	0	0	0	0	0	0	0	0	0	0	0	0	0
110212	08:03:11	10032	pm.simpleFrRight	pm.simpleFr	2	57	457	0	0	08:03:11	2189152	0	0	0	0	0	0	0	0	0	0	0	0	0	0	0	0	0
110212	08:03:11	10032	pm.simpleFrRight	blank.simpleFr	2	0	1600	1	0	08:03:11	2190764	0	0	0	0	0	0	0	0	0	0	0	0	0	0	0	0	0
110212	08:03:11	10032	pm.simpleFrRight	pm.simpleFr	2	57	557	0	0	08:03:11	2191351	0	0	0	0	0	0	0	0	0	0	0	0	0	0	0	0	0
110212	08:03:11	10032	pm.simpleFrRight	blank.simpleFr	2	0	2000	1	0	08:03:11	2193363	0	0	0	0	0	0	0	0	0	0	0	0	0	0	0	0	0
110212	08:03:11	10032	pm.simpleFrRight	pm.simpleFr	2	57	502	0	0	08:03:11	2193883	0	0	0	0	0	0	0	0	0	0	0	0	0	0	0	0	0
110212	08:03:11	10032	pm.simpleFrRight	blank.simpleFr	2	0	1800	1	0	08:03:11	2195696	0	0	0	0	0	0	0	0	0	0	0	0	0	0	0	0	0
110212	08:03:11	10032	pm.simpleFrRight	pm.simpleFr	2	57	569	0	0	08:03:11	2196282	0	0	0	0	0	0	0	0	0	0	0	0	0	0	0	0	0
110212	08:03:11	10032	pm.simpleFrRight	blank.simpleFr	2	0	1700	1	0	08:03:11	2198002	0	0	0	0	0	0	0	0	0	0	0	0	0	0	0	0	0
110212	08:03:11	10032	pm.simpleFrRight	pm.simpleFr	2	57	440	0	0	08:03:11	2198468	0	0	0	0	0	0	0	0	0	0	0	0	0	0	0	0	0
110212	08:03:11	10032	pm.simpleFrRight	blank.simpleFr	2	0	2400	1	0	08:03:11	2200880	0	0	0	0	0	0	0	0	0	0	0	0	0	0	0	0	0
110212	08:03:11	10032	pm.simpleFrRight	pm.simpleFr	2	57	489	0	0	08:03:11	2201387	0	0	0	0	0	0	0	0	0	0	0	0	0	0	0	0	0
110212	08:03:11	10032	pm.simpleFrRight	blank.simpleFr	2	0	2500	1	0	08:03:11	2203906	0	0	0	0	0	0	0	0	0	0	0	0	0	0	0	0	0
110212	08:03:11	10032	pm.simpleFrRight	pm.simpleFr	2	57	375	0	0	08:03:11	2204306	0	0	0	0	0	0	0	0	0	0	0	0	0	0	0	0	0
110212	08:03:11	10032	pm.simpleFrRight	blank.simpleFr	2	0	1900	1	0	08:03:11	2206225	0	0	0	0	0	0	0	0	0	0	0	0	0	0	0	0	0
110212	08:03:11	10032	pm.simpleFrRight	pm.simpleFr	2	57	696	0	0	08:03:11	2206944	0	0	0	0	0	0	0	0	0	0	0	0	0	0	0	0	0
110212	08:03:11	10032	pm.simpleFrRight	blank.simpleFr	2	0	2100	1	0	08:03:11	2209064	0	0	0	0	0	0	0	0	0	0	0	0	0	0	0	0	0
110212	08:03:11	10032	pm.simpleFrRight	pm.simpleFr	2	57	482	0	0	08:03:11	2209570	0	0	0	0	0	0	0	0	0	0	0	0	0	0	0	0	0
110212	08:03:11	10032	pm.simpleFrRight	blank.simpleFr	2	0	1500	1	0	08:03:11	2211090	0	0	0	0	0	0	0	0	0	0	0	0	0	0	0	0	0
110212	08:03:11	10032	pm.simpleFrRight	pm.simpleFr	2	57	568	0	0	08:03:11	2211676	0	0	0	0	0	0	0	0	0	0	0	0	0	0	0	0	0
110212	08:03:11	10032	pm.simpleFrRight	blank.simpleFr	2	0	1900	1	0	08:03:11	2213595	0	0	0	0	0	0	0	0	0	0	0	0	0	0	0	0	0
110212	08:03:11	10032	pm.simpleFrRight	pm.simpleFr	2	57	510	0	0	08:03:11	2214128	0	0	0	0	0	0	0	0	0	0	0	0	0	0	0	0	0
110212	08:03:11	10032	pm.simpleFrRight	blank.simpleFr	2	0	2000	1	0	08:03:11	2216141	0	0	0	0	0	0	0	0	0	0	0	0	0	0	0	0	0
110212	08:03:11	10032	pm.simpleFrRight	pm.simpleFr	2	57	588	0	0	08:03:11	2216754	0	0	0	0	0	0	0	0	0	0	0	0	0	0	0	0	0
110212	08:03:11	10032	pm.simpleFrRight	blank.simpleFr	2	0	2500	1	0	08:03:11	2219273	0	0	0	0	0	0	0	0	0	0	0	0	0	0	0	0	0
110212	08:03:11	10032	pm.simpleFrRight	pm.simpleFr	2	57	368	0	0	08:03:11	2219659	0	0	0	0	0	0	0	0	0	0	0	0	0	0	0	0	0
110212	08:03:11	10032	pm.simpleFrRight	blank.simpleFr	2	0	1800	1	0	08:03:11	2221472	0	0	0	0	0	0	0	0	0	0	0	0	0	0	0	0	0
110212	08:03:11	10032	pm.simpleFrRight	pm.simpleFr	2	57	312	0	0	08:03:11	2221805	0	0	0	0	0	0	0	0	0	0	0	0	0	0	0	0	0
110212	08:03:11	10032	pm.simpleFrRight	blank.simpleFr	2	0	1700	1	0	08:03:11	2223525	0	0	0	0	0	0	0	0	0	0	0	0	0	0	0	0	0
110212	08:03:11	10032	pm.simpleFrRight	pm.simpleFr	2	57	468	0	0	08:03:11	2224018	0	0	0	0	0	0	0	0	0	0	0	0	0	0	0	0	0
110212	08:03:11	10032	pm.simpleFrRight	blank.simpleFr	2	0	2300	1	0	08:03:11	2226337	0	0	0	0	0	0	0	0	0	0	0	0	0	0	0	0	0
110212	08:03:11	10032	pm.simpleFrRight	pm.simpleFr	2	57	536	0	0	08:03:11	2226897	0	0	0	0	0	0	0	0	0	0	0	0	0	0	0	0	0
110212	08:03:11	10032	pm.simpleFrRight	blank.simpleFr	2	0	1600	1	0	08:03:11	2228509	0	0	0	0	0	0	0	0	0	0	0	0	0	0	0	0	0
110212	08:03:11	10032	pm.simpleFrRight	pm.simpleFr	2	57	523	0	0	08:03:11	2229056	0	0	0	0	0	0	0	0	0	0	0	0	0	0	0	0	0
110212	08:03:11	10032	Trial2BackFr	N	3	0	1000	1	1	08:03:11	2296775	0	0	0	0	0	0	0	0	0	0	0	0	0	0	0	0	0
110212	08:03:11	10032	Trial2BackFr	N	3	0	1000	1	2	08:03:11	2298294	0	0	0	0	0	0	0	0	0	0	0	0	0	0	0	0	0
110212	08:03:11	10032	Trial2BackFr	N	3	0	1000	1	3	08:03:11	2299800	0	0	0	0	0	0	0	0	0	0	0	0	0	0	0	0	0
110212	08:03:11	10032	Trial2BackFr	N	3	0	1000	1	4	08:03:11	2301306	0	0	0	0	0	0	0	0	0	0	0	0	0	0	0	0	0
110212	08:03:11	10032	Trial2BackFr	N	3	0	1000	1	5	08:03:11	2302812	0	0	0	0	0	0	0	0	0	0	0	0	0	0	0	0	0
110212	08:03:11	10032	Trial2BackFr	N	3	0	1000	1	6	08:03:11	2304319	0	0	0	0	0	0	0	0	0	0	0	0	0	0	0	0	0
110212	08:03:11	10032	Trial2BackFr	N	3	0	1000	1	7	08:03:11	2305824	0	0	0	0	0	0	0	0	0	0	0	0	0	0	0	0	0
110212	08:03:11	10032	Trial2BackFr	N	3	0	1000	1	8	08:03:11	2307331	0	0	0	0	0	0	0	0	0	0	0	0	0	0	0	0	0
110212	08:03:11	10032	Trial2BackFr	Y	3	0	1000	0	8	08:03:11	2308850	0	0	0	0	0	0	0	0	0	0	0	0	0	0	0	0	0
110212	08:03:11	10032	Trial2BackFr	N	3	0	1000	1	9	08:03:11	2310356	0	0	0	0	0	0	0	0	0	0	0	0	0	0	0	0	0
110212	08:03:11	10032	Trial2BackFr	N	3	0	1000	1	10	08:03:11	2311862	0	0	0	0	0	0	0	0	0	0	0	0	0	0	0	0	0
110212	08:03:11	10032	Trial2BackFr	N	3	0	1000	1	11	08:03:11	2313368	0	0	0	0	0	0	0	0	0	0	0	0	0	0	0	0	0
110212	08:03:11	10032	Trial2BackFr	Y	3	0	1000	0	11	08:03:11	2314874	0	0	0	0	0	0	0	0	0	0	0	0	0	0	0	0	0
110212	08:03:11	10032	Trial2BackFr	N	3	0	1000	1	12	08:03:11	2316380	0	0	0	0	0	0	0	0	0	0	0	0	0	0	0	0	0
110212	08:03:11	10032	Trial2BackFr	N	3	0	1000	1	13	08:03:11	2317886	0	0	0	0	0	0	0	0	0	0	0	0	0	0	0	0	0
110212	08:03:11	10032	Trial2BackFr	N	3	0	1000	1	14	08:03:11	2319392	0	0	0	0	0	0	0	0	0	0	0	0	0	0	0	0	0
110212	08:03:11	10032	Trial2BackFr	N	3	0	1000	1	15	08:03:11	2320898	0	0	0	0	0	0	0	0	0	0	0	0	0	0	0	0	0
110212	08:03:11	10032	Trial2BackFr	N	3	0	1000	1	16	08:03:11	2322404	0	0	0	0	0	0	0	0	0	0	0	0	0	0	0	0	0
110212	08:03:11	10032	Trial2BackFr	Y	3	0	1000	0	16	08:03:11	2323911	0	0	0	0	0	0	0	0	0	0	0	0	0	0	0	0	0
110212	08:03:11	10032	Trial2BackFr	N	3	0	1000	1	17	08:03:11	2325417	0	0	0	0	0	0	0	0	0	0	0	0	0	0	0	0	0
110212	08:03:11	10032	Trial2BackFr	N	3	0	1000	1	18	08:03:11	2326936	0	0	0	0	0	0	0	0	0	0	0	0	0	0	0	0	0
110212	08:03:11	10032	Trial2BackFr	N	3	0	1000	1	19	08:03:11	2328442	0	0	0	0	0	0	0	0	0	0	0	0	0	0	0	0	0
110212	08:03:11	10032	Trial2BackFr	N	3	0	1000	1	20	08:03:11	2329961	0	0	0	0	0	0	0	0	0	0	0	0	0	0	0	0	0
110212	08:03:11	10032	Trial2BackFr	Y	3	0	1000	0	20	08:03:11	2331468	0	0	0	0	0	0	0	0	0	0	0	0	0	0	0	0	0
110212	08:03:11	10032	Trial2BackFr	N	3	0	1000	1	21	08:03:11	2332974	0	0	0	0	0	0	0	0	0	0	0	0	0	0	0	0	0
110212	08:03:11	10032	Trial2BackFr	N	3	0	1000	1	22	08:03:11	2334480	0	0	0	0	0	0	0	0	0	0	0	0	0	0	0	0	0
110212	08:03:11	10032	Trial2BackFr	N	3	0	1000	1	23	08:03:11	2335986	0	0	0	0	0	0	0	0	0	0	0	0	0	0	0	0	0
110212	08:03:11	10032	Trial2BackFr	N	3	0	1000	1	24	08:03:11	2337492	0	0	0	0	0	0	0	0	0	0	0	0	0	0	0	0	0
110212	08:03:11	10032	Trial2BackFr	N	3	0	1000	1	25	08:03:11	2338998	0	0	0	0	0	0	0	0	0	0	0	0	0	0	0	0	0
110212	08:03:11	10032	Trial2BackFr	N	3	0	1000	1	26	08:03:11	2340504	0	0	0	0	0	0	0	0	0	0	0	0	0	0	0	0	0
110212	08:03:11	10032	Trial2BackFr	Y	3	0	1000	0	26	08:03:11	2342010	0	0	0	0	0	0	0	0	0	0	0	0	0	0	0	0	0
110212	08:03:11	10032	Trial2BackFr	N	3	0	1000	1	27	08:03:11	2343516	0	0	0	0	0	0	0	0	0	0	0	0	0	0	0	0	0
110212	08:03:11	10032	Trial2BackFr	N	3	0	1000	1	28	08:03:11	2345022	0	0	0	0	0	0	0	0	0	0	0	0	0	0	0	0	0
110212	08:03:11	10032	Trial2BackFr	N	3	0	1000	1	29	08:03:11	2346528	0	0	0	0	0	0	0	0	0	0	0	0	0	0	0	0	0
110212	08:03:11	10032	Trial2BackFr	Y	3	0	1000	0	29	08:03:11	2348034	0	0	0	0	0	0	0	0	0	0	0	0	0	0	0	0	0
110212	08:03:11	10032	Trial2BackFr	N	3	0	1000	1	30	08:03:11	2349540	0	0	0	0	0	0	0	0	0	0	0	0	0	0	0	0	0
110212	08:03:11	10032	Trial2BackFr	N	3	0	1000	1	31	08:03:11	2351046	0	0	0	0	0	0	0	0	0	0	0	0	0	0	0	0	0
110212	08:03:11	10032	Trial2BackFr	N	3	0	1000	1	32	08:03:11	2352552	0	0	0	0	0	0	0	0	0	0	0	0	0	0	0	0	0
110212	08:03:11	10032	Trial2BackFr	N	3	0	1000	1	33	08:03:11	2354059	0	0	0	0	0	0	0	0	0	0	0	0	0	0	0	0	0
110212	08:03:11	10032	Trial2BackFr	N	3	0	1000	1	34	08:03:11	2355564	0	0	0	0	0	0	0	0	0	0	0	0	0	0	0	0	0
110212	08:03:11	10032	Trial2BackFr	N	3	0	1000	1	35	08:03:11	2357070	0	0	0	0	0	0	0	0	0	0	0	0	0	0	0	0	0
110212	08:03:11	10032	Trial2BackFr	Y	3	0	1000	0	35	08:03:11	2358577	0	0	0	0	0	0	0	0	0	0	0	0	0	0	0	0	0
110212	08:03:11	10032	Trial2BackFr	N	3	0	1000	1	36	08:03:11	2360083	0	0	0	0	0	0	0	0	0	0	0	0	0	0	0	0	0
110212	08:03:11	10032	Trial2BackFr	N	3	0	1000	1	37	08:03:11	2361589	0	0	0	0	0	0	0	0	0	0	0	0	0	0	0	0	0
110212	08:03:11	10032	Trial2BackFr	N	3	0	1000	1	38	08:03:11	2363095	0	0	0	0	0	0	0	0	0	0	0	0	0	0	0	0	0
110212	08:03:11	10032	Trial2BackFr	N	3	0	1000	1	39	08:03:11	2364601	0	0	0	0	0	0	0	0	0	0	0	0	0	0	0	0	0
110212	08:03:11	10032	Trial2BackFr	Y	3	0	1000	0	39	08:03:11	2366107	0	0	0	0	0	0	0	0	0	0	0	0	0	0	0	0	0
110212	08:03:11	10032	Trial2BackFr	N	3	0	1000	1	40	08:03:11	2367626	0	0	0	0	0	0	0	0	0	0	0	0	0	0	0	0	0
110212	08:03:11	10032	Trial2BackFr	N	3	0	1000	1	41	08:03:11	2369132	0	0	0	0	0	0	0	0	0	0	0	0	0	0	0	0	0
110212	08:03:11	10032	Trial2BackFr	N	3	0	1000	1	42	08:03:11	2370638	0	0	0	0	0	0	0	0	0	0	0	0	0	0	0	0	0
110212	08:03:11	10032	Trial2BackFr	N	3	0	1000	1	43	08:03:11	2372144	0	0	0	0	0	0	0	0	0	0	0	0	0	0	0	0	0
110212	08:03:11	10032	Trial2BackFr	N	3	0	1000	1	44	08:03:11	2373650	0	0	0	0	0	0	0	0	0	0	0	0	0	0	0	0	0
110212	08:03:11	10032	Trial2BackFr	Y	3	0	1000	0	44	08:03:11	2375156	0	0	0	0	0	0	0	0	0	0	0	0	0	0	0	0	0
110212	08:03:11	10032	Trial2BackFr	N	3	0	1000	1	45	08:03:11	2376663	0	0	0	0	0	0	0	0	0	0	0	0	0	0	0	0	0
110212	08:03:11	10032	Trial2BackFr	N	3	0	1000	1	46	08:03:11	2378169	0	0	0	0	0	0	0	0	0	0	0	0	0	0	0	0	0
110212	08:03:11	10032	Trial2BackFr	N	3	0	1000	1	47	08:03:11	2379675	0	0	0	0	0	0	0	0	0	0	0	0	0	0	0	0	0
110212	08:03:11	10032	Trial2BackFr	N	3	0	1000	1	48	08:03:11	2381181	0	0	0	0	0	0	0	0	0	0	0	0	0	0	0	0	0
110212	08:03:11	10032	Trial2BackFr	N	3	0	1000	1	49	08:03:11	2382687	0	0	0	0	0	0	0	0	0	0	0	0	0	0	0	0	0
110212	08:03:11	10032	Trial2BackFr	N	3	0	1000	1	50	08:03:11	2384193	0	0	0	0	0	0	0	0	0	0	0	0	0	0	0	0	0
110212	08:03:11	10032	Trial2BackFr	Y	3	0	1000	0	50	08:03:11	2385699	0	0	0	0	0	0	0	0	0	0	0	0	0	0	0	0	0
110212	08:03:11	10032	Trial2BackFr	N	3	0	1000	1	51	08:03:11	2387205	0	0	0	0	0	0	0	0	0	0	0	0	0	0	0	0	0
110212	08:03:11	10032	Trial2BackFr	N	3	0	1000	1	52	08:03:11	2388724	0	0	0	0	0	0	0	0	0	0	0	0	0	0	0	0	0
110212	08:03:11	10032	Trial2BackFr	Y	3	0	1000	0	52	08:03:11	2390230	0	0	0	0	0	0	0	0	0	0	0	0	0	0	0	0	0
110212	08:03:11	10032	Trial2BackFr	N	3	0	1000	1	53	08:03:11	2391736	0	0	0	0	0	0	0	0	0	0	0	0	0	0	0	0	0
110212	08:03:11	10032	Trial2BackFr	N	3	0	1000	1	54	08:03:11	2393242	0	0	0	0	0	0	0	0	0	0	0	0	0	0	0	0	0
110212	08:03:11	10032	Trial2BackFr	N	3	0	1000	1	55	08:03:11	2394749	0	0	0	0	0	0	0	0	0	0	0	0	0	0	0	0	0
110212	08:03:11	10032	Trial2BackFr	N	3	0	1000	1	56	08:03:11	2396255	0	0	0	0	0	0	0	0	0	0	0	0	0	0	0	0	0
110212	08:03:11	10032	Trial2BackFr	N	3	0	1000	1	57	08:03:11	2397760	0	0	0	0	0	0	0	0	0	0	0	0	0	0	0	0	0
110212	08:03:11	10032	Trial2BackFr	N	3	0	1000	1	58	08:03:11	2399267	0	0	0	0	0	0	0	0	0	0	0	0	0	0	0	0	0
110212	08:03:11	10032	Trial2BackFr	N	3	0	1000	1	59	08:03:11	2400773	0	0	0	0	0	0	0	0	0	0	0	0	0	0	0	0	0
110212	08:03:11	10032	Trial2BackFr	N	3	0	1000	1	60	08:03:11	2402279	0	0	0	0	0	0	0	0	0	0	0	0	0	0	0	0	0
110212	08:03:11	10032	Trial2BackFr	N	3	0	1000	1	61	08:03:11	2403785	0	0	0	0	0	0	0	0	0	0	0	0	0	0	0	0	0
110212	08:03:11	10032	Trial2BackFr	N	3	0	1000	1	62	08:03:11	2405291	0	0	0	0	0	0	0	0	0	0	0	0	0	0	0	0	0
110212	08:03:11	10032	Trial2BackFr	Y	3	0	1000	0	62	08:03:11	2406797	0	0	0	0	0	0	0	0	0	0	0	0	0	0	0	0	0
110212	08:03:11	10032	Trial2BackFr	N	3	0	1000	1	63	08:03:11	2408303	0	0	0	0	0	0	0	0	0	0	0	0	0	0	0	0	0
110212	08:03:11	10032	Trial2BackFr	N	3	0	1000	1	64	08:03:11	2409809	0	0	0	0	0	0	0	0	0	0	0	0	0	0	0	0	0
110212	08:03:11	10032	Trial2BackFr	N	3	0	1000	1	65	08:03:11	2411315	0	0	0	0	0	0	0	0	0	0	0	0	0	0	0	0	0
110212	08:03:11	10032	Trial2BackFr	Y	3	0	1000	0	65	08:03:11	2412821	0	0	0	0	0	0	0	0	0	0	0	0	0	0	0	0	0
110212	08:03:11	10032	Trial2BackFr	N	3	0	1000	1	66	08:03:11	2414327	0	0	0	0	0	0	0	0	0	0	0	0	0	0	0	0	0
110212	08:03:11	10032	Trial2BackFr	N	3	0	1000	1	67	08:03:11	2415834	0	0	0	0	0	0	0	0	0	0	0	0	0	0	0	0	0
110212	08:03:11	10032	Trial2BackFr	N	3	0	1000	1	68	08:03:11	2417339	0	0	0	0	0	0	0	0	0	0	0	0	0	0	0	0	0
110212	08:03:11	10032	Trial2BackFr	N	3	0	1000	1	69	08:03:11	2418845	0	0	0	0	0	0	0	0	0	0	0	0	0	0	0	0	0
110212	08:03:11	10032	Trial2BackFr	N	3	0	1000	1	70	08:03:11	2420351	0	0	0	0	0	0	0	0	0	0	0	0	0	0	0	0	0
110212	08:03:11	10032	Trial2BackFr	Y	3	0	1000	0	70	08:03:11	2421858	0	0	0	0	0	0	0	0	0	0	0	0	0	0	0	0	0
110212	08:03:11	10032	Trial2BackFr	N	3	0	1000	1	71	08:03:11	2423364	0	0	0	0	0	0	0	0	0	0	0	0	0	0	0	0	0
110212	08:03:11	10032	Trial2BackFr	N	3	0	1000	1	72	08:03:11	2424870	0	0	0	0	0	0	0	0	0	0	0	0	0	0	0	0	0
110212	08:03:11	10032	Trial2BackFr	N	3	0	1000	1	73	08:03:11	2426376	0	0	0	0	0	0	0	0	0	0	0	0	0	0	0	0	0
110212	08:03:11	10032	Trial2BackFr	N	3	0	1000	1	74	08:03:11	2427882	0	0	0	0	0	0	0	0	0	0	0	0	0	0	0	0	0
110212	08:03:11	10032	Trial2BackFr	N	3	0	1000	1	75	08:03:11	2429388	0	0	0	0	0	0	0	0	0	0	0	0	0	0	0	0	0
110212	08:03:11	10032	Trial2BackFr	N	3	0	1000	1	76	08:03:11	2430894	0	0	0	0	0	0	0	0	0	0	0	0	0	0	0	0	0
110212	08:03:11	10032	Trial2BackFr	N	3	0	1000	1	77	08:03:11	2432400	0	0	0	0	0	0	0	0	0	0	0	0	0	0	0	0	0
110212	08:03:11	10032	Trial2BackFr	N	3	0	1000	1	78	08:03:11	2433906	0	0	0	0	0	0	0	0	0	0	0	0	0	0	0	0	0
110212	08:03:11	10032	Trial2BackFr	N	3	0	1000	1	79	08:03:11	2435412	0	0	0	0	0	0	0	0	0	0	0	0	0	0	0	0	0
110212	08:03:11	10032	Trial2BackFr	Y	3	0	1000	0	79	08:03:11	2436918	0	0	0	0	0	0	0	0	0	0	0	0	0	0	0	0	0
110212	08:03:11	10032	Trial2BackFr	N	3	0	1000	1	80	08:03:11	2438424	0	0	0	0	0	0	0	0	0	0	0	0	0	0	0	0	0
110212	08:03:11	10032	Trial2BackFr	N	3	0	1000	1	81	08:03:11	2439930	0	0	0	0	0	0	0	0	0	0	0	0	0	0	0	0	0
110212	08:03:11	10032	Trial2BackFr	N	3	0	1000	1	82	08:03:11	2441436	0	0	0	0	0	0	0	0	0	0	0	0	0	0	0	0	0
110212	08:03:11	10032	Trial2BackFr	N	3	57	780	0	82	08:03:11	2442729	0	0	0	0	0	0	0	0	0	0	0	0	0	0	0	0	0
110212	08:03:11	10032	Trial2BackFr	N	3	0	1000	1	83	08:03:11	2444449	0	0	0	0	0	0	0	0	0	0	0	0	0	0	0	0	0
110212	08:03:11	10032	Trial2BackFr	N	3	0	1000	1	84	08:03:11	2445954	0	0	0	0	0	0	0	0	0	0	0	0	0	0	0	0	0
110212	08:03:11	10032	Trial2BackFr	N	3	0	1000	1	85	08:03:11	2447460	0	0	0	0	0	0	0	0	0	0	0	0	0	0	0	0	0
110212	08:03:11	10032	Trial2BackFr	N	3	0	1000	1	86	08:03:11	2448967	0	0	0	0	0	0	0	0	0	0	0	0	0	0	0	0	0
110212	08:03:11	10032	Trial2BackFr	Y	3	0	1000	0	86	08:03:11	2450473	0	0	0	0	0	0	0	0	0	0	0	0	0	0	0	0	0
110212	08:03:11	10032	Trial2BackFr	N	3	0	1000	1	87	08:03:11	2451979	0	0	0	0	0	0	0	0	0	0	0	0	0	0	0	0	0
110212	08:03:11	10032	Trial2BackFr	N	3	0	1000	1	88	08:03:11	2453485	0	0	0	0	0	0	0	0	0	0	0	0	0	0	0	0	0
110212	08:03:11	10032	Trial2BackFr	N	3	0	1000	1	89	08:03:11	2454991	0	0	0	0	0	0	0	0	0	0	0	0	0	0	0	0	0
110212	08:03:11	10032	Trial2BackFr	N	3	0	1000	1	90	08:03:11	2456497	0	0	0	0	0	0	0	0	0	0	0	0	0	0	0	0	0
110212	08:03:11	10032	Trial2BackFr	Y	3	0	1000	0	90	08:03:11	2458003	0	0	0	0	0	0	0	0	0	0	0	0	0	0	0	0	0
110212	08:03:11	10032	Trial2BackFr	N	3	0	1000	1	91	08:03:11	2459509	0	0	0	0	0	0	0	0	0	0	0	0	0	0	0	0	0
110212	08:03:11	10032	Trial2BackFr	N	3	0	1000	1	92	08:03:11	2461015	0	0	0	0	0	0	0	0	0	0	0	0	0	0	0	0	0
110212	08:03:11	10032	Trial2BackFr	N	3	0	1000	1	93	08:03:11	2462521	0	0	0	0	0	0	0	0	0	0	0	0	0	0	0	0	0
110212	08:03:11	10032	Trial2BackFr	Y	3	0	1000	0	93	08:03:11	2464027	0	0	0	0	0	0	0	0	0	0	0	0	0	0	0	0	0
110212	08:03:11	10032	Trial2BackFr	N	3	0	1000	1	94	08:03:11	2465533	0	0	0	0	0	0	0	0	0	0	0	0	0	0	0	0	0
110212	08:03:11	10032	Trial2BackFr	N	3	0	1000	1	95	08:03:11	2467039	0	0	0	0	0	0	0	0	0	0	0	0	0	0	0	0	0
110212	08:03:11	10032	Trial2BackFr	N	3	0	1000	1	96	08:03:11	2468545	0	0	0	0	0	0	0	0	0	0	0	0	0	0	0	0	0
110212	08:03:11	10032	Trial2BackFr	N	3	0	1000	1	97	08:03:11	2470051	0	0	0	0	0	0	0	0	0	0	0	0	0	0	0	0	0
110212	08:03:11	10032	Trial2BackFr	N	3	0	1000	1	98	08:03:11	2471557	0	0	0	0	0	0	0	0	0	0	0	0	0	0	0	0	0
110212	08:03:11	10032	Trial2BackFr	Y	3	0	1000	0	98	08:03:11	2473063	0	0	0	0	0	0	0	0	0	0	0	0	0	0	0	0	0
110212	08:03:11	10032	Trial2BackFr	N	3	0	1000	1	99	08:03:11	2474570	0	0	0	0	0	0	0	0	0	0	0	0	0	0	0	0	0
110212	08:03:11	10032	Trial2BackFr	N	3	0	1000	1	100	08:03:11	2476076	0	0	0	0	0	0	0	0	0	0	0	0	0	0	0	0	0
110212	08:03:11	10032	Trial2BackFr	N	3	0	1000	1	101	08:03:11	2477582	0	0	0	0	0	0	0	0	0	0	0	0	0	0	0	0	0
110212	08:03:11	10032	Trial2BackFr	Y	3	0	1000	0	101	08:03:11	2479088	0	0	0	0	0	0	0	0	0	0	0	0	0	0	0	0	0
110212	08:03:11	10032	Memory1R3moFr	ScoreFr	5	M7	8451	0	101	08:03:11	2519098	0	0	0	0	0	0	0	0	0	0	0	0	0	0	0	0	0
110212	08:03:11	10032	Memory1R3moFr	ScoreFr	5	M8	196	0	101	08:03:11	2519352	0	0	0	0	0	0	0	0	0	0	0	0	0	0	0	0	0
110212	08:03:11	10032	Memory1R3moFr	ScoreFr	5	M4	4167	0	101	08:03:11	2523563	0	0	0	0	0	0	0	0	0	0	0	0	0	0	0	0	0
110212	08:03:11	10032	Memory1R3moFr	ScoreFr	5	M5	4757	0	101	08:03:11	2528388	0	0	0	0	0	0	0	0	0	0	0	0	0	0	0	0	0
110212	08:03:11	10032	Memory1R3moFr	ScoreFr	5	M5	586	0	101	08:03:11	2529028	0	0	0	0	0	0	0	0	0	0	0	0	0	0	0	0	0
110212	08:03:11	10032	Memory1R3moFr	ScoreFr	5	M6	314	0	101	08:03:11	2529388	0	0	0	0	0	0	0	0	0	0	0	0	0	0	0	0	0
110212	08:03:11	10032	Memory1R3moFr	ScoreFr	5	M1	11138	0	101	08:03:11	2540570	0	0	0	0	0	0	0	0	0	0	0	0	0	0	0	0	0
110212	08:03:11	10032	Memory1R3moFr	ScoreFr	5	Done	11804	0	101	08:03:11	2552418	0	0	0	0	0	0	0	0	0	0	0	0	0	0	0	0	0
110212	08:03:11	10032	Memory2R3moFr	ScoreFr2	5	55	14620	0	101	08:03:11	2583939	0	0	0	0	0	0	0	0	0	0	0	0	0	0	0	0	0
110212	08:03:11	10032	Memory2R3moFr	ScoreFr2	5	77	426	0	101	08:03:11	2584419	0	0	0	0	0	0	0	0	0	0	0	0	0	0	0	0	0
110212	08:03:11	10032	Memory2R3moFr	ScoreFr2	5	88	186	0	101	08:03:11	2584658	0	0	0	0	0	0	0	0	0	0	0	0	0	0	0	0	0
110212	08:03:11	10032	Memory2R3moFr	ScoreFr2	5	22	4410	0	101	08:03:11	2589123	0	0	0	0	0	0	0	0	0	0	0	0	0	0	0	0	0
110212	08:03:11	10032	Memory2R3moFr	ScoreFr2	5	11	193	0	101	08:03:11	2589363	0	0	0	0	0	0	0	0	0	0	0	0	0	0	0	0	0
110212	08:03:11	10032	Memory2R3moFr	ScoreFr2	5	44	32257	0	101	08:03:11	2621670	0	0	0	0	0	0	0	0	0	0	0	0	0	0	0	0	0
110212	08:03:11	10032	Memory2R3moFr	ScoreFr2	5	55	238	0	101	08:03:11	2621963	0	0	0	0	0	0	0	0	0	0	0	0	0	0	0	0	0
110212	08:03:11	10032	Memory2R3moFr	ScoreFr2	5	66	5312	0	101	08:03:11	2627321	0	0	0	0	0	0	0	0	0	0	0	0	0	0	0	0	0
110212	08:03:11	10032	Memory2R3moFr	ScoreFr2	5	Done	963	0	101	08:03:11	2628334	0	0	0	0	0	0	0	0	0	0	0	0	0	0	0	0	0
110212	08:03:11	10032	Memory3R3moFr	ScoreFr3	5	111	24924	0	101	08:03:11	2671063	0	0	0	0	0	0	0	0	0	0	0	0	0	0	0	0	0
110212	08:03:11	10032	Memory3R3moFr	ScoreFr3	5	222	339	0	101	08:03:11	2671450	0	0	0	0	0	0	0	0	0	0	0	0	0	0	0	0	0
110212	08:03:11	10032	Memory3R3moFr	ScoreFr3	5	222	457	0	101	08:03:11	2671956	0	0	0	0	0	0	0	0	0	0	0	0	0	0	0	0	0
110212	08:03:11	10032	Memory3R3moFr	ScoreFr3	5	222	638	0	101	08:03:11	2672649	0	0	0	0	0	0	0	0	0	0	0	0	0	0	0	0	0
110212	08:03:11	10032	Memory3R3moFr	ScoreFr3	5	333	193	0	101	08:03:11	2672889	0	0	0	0	0	0	0	0	0	0	0	0	0	0	0	0	0
110212	08:03:11	10032	Memory3R3moFr	ScoreFr3	5	444	258	0	101	08:03:11	2673196	0	0	0	0	0	0	0	0	0	0	0	0	0	0	0	0	0
110212	08:03:11	10032	Memory3R3moFr	ScoreFr3	5	666	1879	0	101	08:03:11	2675129	0	0	0	0	0	0	0	0	0	0	0	0	0	0	0	0	0
110212	08:03:11	10032	Memory3R3moFr	ScoreFr3	5	777	506	0	101	08:03:11	2675688	0	0	0	0	0	0	0	0	0	0	0	0	0	0	0	0	0
110212	08:03:11	10032	Memory3R3moFr	ScoreFr3	5	777	194	0	101	08:03:11	2675928	0	0	0	0	0	0	0	0	0	0	0	0	0	0	0	0	0
110212	08:03:11	10032	Memory3R3moFr	ScoreFr3	5	888	402	0	101	08:03:11	2676381	0	0	0	0	0	0	0	0	0	0	0	0	0	0	0	0	0
110212	08:03:11	10032	Memory3R3moFr	ScoreFr3	5	777	189	0	101	08:03:11	2676621	0	0	0	0	0	0	0	0	0	0	0	0	0	0	0	0	0
110212	08:03:11	10032	Memory3R3moFr	ScoreFr3	5	Done	10653	0	101	08:03:11	2687324	0	0	0	0	0	0	0	0	0	0	0	0	0	0	0	0	0
110212	08:03:11	10032	LoriaFrLH3	Stop	6	4	13263	0	101	08:03:11	2787512	0	0	0	0	0	0	0	0	0	0	0	0	0	0	0	0	0
110212	08:03:11	10032	FrTrail	Trails	7	1Trails	2104	0	101	08:03:11	2825055	0	0	0	0	0	0	0	0	0	0	0	0	0	0	0	0	0
110212	08:03:11	10032	Serial7Fr3mo	Serial7Fr3mo	8	83	8931	0	101	08:03:11	2847996	1	0	0	0	0	0	0	0	0	0	0	0	0	0	0	0	0
110212	08:03:11	10032	Serial7Fr3mo	Serial7Fr3mo	8	74	8617	0	101	08:03:11	2856632	1	0	0	0	0	0	0	0	0	0	0	0	0	0	0	0	0
110212	08:03:11	10032	Serial7Fr3mo	Serial7Fr3mo	8	67	9739	0	101	08:03:11	2866388	2	0	0	0	0	0	0	0	0	0	0	0	0	0	0	0	0
110212	08:03:11	10032	Serial7Fr3mo	Serial7Fr3mo	8	60	7224	0	101	08:03:11	2873626	3	0	0	0	0	0	0	0	0	0	0	0	0	0	0	0	0
110212	08:03:11	10032	Serial7Fr3mo	Serial7Fr3mo	8	53	12675	0	101	08:03:11	2886316	4	0	0	0	0	0	0	0	0	0	0	0	0	0	0	0	0
110212	08:03:11	10032	corsiblockFrFwrd	recallseqFrFwrd	9	1	17594	0	101	08:03:11	2939454	4	0	0	0	0	0	0	0	0	0	0	0	0	0	0	0	0
110212	08:03:11	10032	corsiblockFrFwrd	recallseqFrFwrd	9	2	4452	0	101	08:03:11	2943959	4	0	0	0	0	0	0	0	0	0	0	0	0	0	0	0	0
110212	08:03:11	10032	corsiblockFrFwrd	recallseqFrFwrd	9	7	2747	0	101	08:03:11	2946758	4	0	0	0	0	0	0	0	0	0	0	0	0	0	0	0	0
110212	08:03:11	10032	corsiblockFrFwrd	recallseqFrFwrd	9	9	1644	0	101	08:03:11	2948451	4	0	0	0	0	0	0	0	0	0	0	0	0	0	0	0	0
110212	08:03:11	10032	corsiblockFrFwrd	recallseqFrFwrd	9	8	1631	0	101	08:03:11	2950130	4	0	0	0	0	0	0	0	0	0	0	0	0	0	0	0	0
110212	08:03:11	10032	corsiblockFrFwrd	recallseqFrFwrd	9	4	1648	0	101	08:03:11	2951822	4	0	0	0	0	0	0	0	0	0	0	0	0	0	0	0	0
110212	08:03:11	10032	corsiblockFrFwrd	recallseqFrFwrd	9	3	2075	0	101	08:03:11	2953942	4	0	0	0	0	0	0	0	0	0	0	0	0	0	0	0	0
110212	08:03:11	10032	corsiblockFrFwrd	recallseqFrFwrd	9	6	2444	0	101	08:03:11	2956434	4	0	0	0	0	0	0	0	0	0	0	0	0	0	0	0	0
110212	08:03:11	10032	corsiblockFrFwrd	recallseqFrFwrd	9	5	1304	0	101	08:03:11	2957793	4	0	0	0	0	0	0	0	0	0	0	0	0	0	0	0	0
110212	08:03:11	10032	corsiblockFrFwrd	recallseqFrFwrd	9	8	6520	0	101	08:03:11	2964364	4	0	0	0	0	0	0	0	0	0	0	0	0	0	0	0	0
110212	08:03:11	10032	corsiblockFrFwrd	recallseqFrFwrd	9	doneCorsiFr	6453	0	101	08:03:11	2970868	4	0	0	0	0	0	0	0	0	0	0	0	0	0	0	0	0
110212	08:03:11	10032	corsiblockFrFwrd	recallseqFrFwrd	9	6	4423	0	101	08:03:11	2980384	4	0	0	0	0	0	0	0	0	0	0	0	0	0	0	0	0
110212	08:03:11	10032	corsiblockFrFwrd	recallseqFrFwrd	9	3	1881	0	101	08:03:11	2982317	4	0	0	0	0	0	0	0	0	0	0	0	0	0	0	0	0
110212	08:03:11	10032	corsiblockFrFwrd	recallseqFrFwrd	9	doneCorsiFr	3652	0	101	08:03:11	2986022	4	0	0	0	0	0	0	0	0	0	0	0	0	0	0	2	0
110212	08:03:11	10032	corsiblockFrFwrd	recallseqFrFwrd	9	2	2501	0	101	08:03:11	2993645	4	0	0	0	0	0	0	0	0	0	0	0	0	0	0	2	0
110212	08:03:11	10032	corsiblockFrFwrd	recallseqFrFwrd	9	9	2435	0	101	08:03:11	2996124	4	0	0	0	0	0	0	0	0	0	0	0	0	0	0	2	0
110212	08:03:11	10032	corsiblockFrFwrd	recallseqFrFwrd	9	1	3340	0	101	08:03:11	2999510	4	0	0	0	0	0	0	0	0	0	0	0	0	0	0	2	0
110212	08:03:11	10032	corsiblockFrFwrd	recallseqFrFwrd	9	doneCorsiFr	3635	0	101	08:03:11	3003202	4	0	0	0	0	0	0	0	0	0	0	0	0	0	0	3	0
110212	08:03:11	10032	corsiblockFrFwrd	recallseqFrFwrd	9	8	2810	0	101	08:03:11	3013144	4	0	0	0	0	0	0	0	0	0	0	0	0	0	0	3	0
110212	08:03:11	10032	corsiblockFrFwrd	recallseqFrFwrd	9	7	1623	0	101	08:03:11	3014823	4	0	0	0	0	0	0	0	0	0	0	0	0	0	0	3	0
110212	08:03:11	10032	corsiblockFrFwrd	recallseqFrFwrd	9	6	1985	0	101	08:03:11	3016863	4	0	0	0	0	0	0	0	0	0	0	0	0	0	0	3	0
110212	08:03:11	10032	corsiblockFrFwrd	recallseqFrFwrd	9	7	4025	0	101	08:03:11	3020941	4	0	0	0	0	0	0	0	0	0	0	0	0	0	0	3	0
110212	08:03:11	10032	corsiblockFrFwrd	recallseqFrFwrd	9	doneCorsiFr	10003	0	101	08:03:11	3030990	4	0	0	0	0	0	0	0	0	0	0	0	0	0	0	4	0
110212	08:03:11	10032	corsiblockFrFwrd	recallseqFrFwrd	9	3	2356	0	101	08:03:11	3041480	4	0	0	0	0	0	0	0	0	0	0	0	0	0	0	4	0
110212	08:03:11	10032	corsiblockFrFwrd	recallseqFrFwrd	9	4	3392	0	101	08:03:11	3044918	4	0	0	0	0	0	0	0	0	0	0	0	0	0	0	4	0
110212	08:03:11	10032	corsiblockFrFwrd	recallseqFrFwrd	9	4	402	0	101	08:03:11	3045371	4	0	0	0	0	0	0	0	0	0	0	0	0	0	0	4	0
110212	08:03:11	10032	corsiblockFrFwrd	recallseqFrFwrd	9	5	1588	0	101	08:03:11	3047010	4	0	0	0	0	0	0	0	0	0	0	0	0	0	0	4	0
110212	08:03:11	10032	corsiblockFrFwrd	recallseqFrFwrd	9	7	2837	0	101	08:03:11	3049902	4	0	0	0	0	0	0	0	0	0	0	0	0	0	0	4	0
110212	08:03:11	10032	corsiblockFrFwrd	recallseqFrFwrd	9	doneCorsiFr	5032	0	101	08:03:11	3054981	4	0	0	0	0	0	0	0	0	0	0	0	0	0	0	4	0
110212	08:03:11	10032	corsiblockFrFwrd	recallseqFrFwrd	9	1	2709	0	101	08:03:11	3065776	4	0	0	0	0	0	0	0	0	0	0	0	0	0	0	4	0
110212	08:03:11	10032	corsiblockFrFwrd	recallseqFrFwrd	9	4	3439	0	101	08:03:11	3069268	4	0	0	0	0	0	0	0	0	0	0	0	0	0	0	4	0
110212	08:03:11	10032	corsiblockFrFwrd	recallseqFrFwrd	9	9	1875	0	101	08:03:11	3071187	4	0	0	0	0	0	0	0	0	0	0	0	0	0	0	4	0
110212	08:03:11	10032	corsiblockFrFwrd	recallseqFrFwrd	9	5	2963	0	101	08:03:11	3074199	4	0	0	0	0	0	0	0	0	0	0	0	0	0	0	4	0
110212	08:03:11	10032	corsiblockFrFwrd	recallseqFrFwrd	9	doneCorsiFr	5231	0	101	08:03:11	3079477	4	0	0	0	0	0	0	0	0	0	0	0	0	0	0	4	0
110212	08:03:11	10032	corsiblockFrRev	recallseqFrRev	10	4	2619	0	101	08:03:11	3102148	4	0	0	0	0	0	0	0	0	0	0	0	0	0	0	4	0
110212	08:03:11	10032	corsiblockFrRev	recallseqFrRev	10	2	2170	0	101	08:03:11	3104374	4	0	0	0	0	0	0	0	0	0	0	0	0	0	0	4	0
110212	08:03:11	10032	corsiblockFrRev	recallseqFrRev	10	doneCorsiFr	3056	0	101	08:03:11	3107479	4	0	0	0	0	0	0	0	0	0	0	0	0	0	0	4	0
110212	08:03:11	10032	corsiblockFrRev	recallseqFrRev	10	1	3035	0	101	08:03:11	3115623	4	0	0	0	0	0	0	0	0	0	0	0	0	0	0	4	0
110212	08:03:11	10032	corsiblockFrRev	recallseqFrRev	10	6	2031	0	101	08:03:11	3117702	4	0	0	0	0	0	0	0	0	0	0	0	0	0	0	4	0
110212	08:03:11	10032	corsiblockFrRev	recallseqFrRev	10	doneCorsiFr	4007	0	101	08:03:11	3121753	4	0	0	0	0	0	0	0	0	0	0	0	0	0	0	4	0
110212	08:03:11	10032	testFr3mo	WordsFr3mo	11	7Fr3mo	10621	0	101	08:03:11	3142292	4	0	0	0	0	0	0	3	0	0	0	0	0	0	0	4	0
110212	08:03:11	10032	testFr3mo	WordsFr3mo	11	8Fr3mo	4161	0	101	08:03:11	3146504	4	0	0	0	0	0	0	3	3	0	0	0	0	0	0	4	0
110212	08:03:11	10032	testFr3mo	WordsFr3mo	11	1Fr3mo	6600	0	101	08:03:11	3153168	4	3	0	0	0	0	0	3	3	0	0	0	0	0	0	4	0
110212	08:03:11	10032	testFr3mo	WordsFr3mo	11	2Fr3mo	4461	0	101	08:03:11	3157672	4	3	3	0	0	0	0	3	3	0	0	0	0	0	0	4	0
110212	08:03:11	10032	testFr3mo	WordsFr3mo	11	6Fr3mo	4044	0	101	08:03:11	3161764	4	3	3	0	0	0	3	3	3	0	0	0	0	0	0	4	0
110212	08:03:11	10032	testFr3mo	WordsFr3mo	11	4Fr3mo	1515	0	101	08:03:11	3163337	4	3	3	0	3	0	3	3	3	0	0	0	0	0	0	4	0
110212	08:03:11	10032	testFr3mo	WordsFr3mo	11	DoneFr3mo	11566	0	101	08:03:11	3174972	4	3	3	0	3	0	3	3	3	0	0	0	0	0	0	4	0
110212	08:03:11	10032	testFr3mo	Cat3Fr3mo	11	0	1	0	101	08:03:11	3174984	4	3	3	0	3	0	3	3	3	0	0	0	0	0	0	4	0
110212	08:03:11	10032	testFr3mo	Ch3Fr3mo	11	RR3Fr3mo	11326	0	101	08:03:11	3186380	4	3	3	1	3	0	3	3	3	0	0	0	0	0	0	4	0
110212	08:03:11	10032	testFr3mo	Cat5Fr3mo	11	W5Fr3mo	8941	0	101	08:03:11	3195364	4	3	3	1	3	0	3	3	3	0	0	0	0	0	0	4	0
110212	08:03:11	10032	testFr3mo	Ch5Fr3mo	11	WW5Fr3mo	8246	0	101	08:03:11	3203640	4	3	3	1	3	0	3	3	3	0	0	0	0	0	0	4	0
110212	08:03:11	10032	DigitSpanFwrdFr3mo	Score1FwrdFr3mo	12	DS1	3787	0	101	08:03:11	3224912	4	3	3	1	3	0	3	3	3	0	0	0	0	0	0	4	0
110212	08:03:11	10032	DigitSpanFwrdFr3mo	Gate1FwrdFr3mo	12	0	1	0	101	08:03:11	3224916	4	3	3	1	3	0	3	3	3	3	0	0	0	0	0	4	0
110212	08:03:11	10032	DigitSpanFwrdFr3mo	Score2FwrdFr3mo	12	DS1	4511	0	101	08:03:11	3235107	4	3	3	1	3	0	3	3	3	3	0	0	0	0	0	4	0
110212	08:03:11	10032	DigitSpanFwrdFr3mo	Gate3FwrdFr3mo	12	0	1	0	101	08:03:11	3235112	4	3	3	1	3	0	3	3	3	4	0	0	0	0	0	4	0
110212	08:03:11	10032	DigitSpanFwrdFr3mo	Score3FwrdFr3mo	12	DS1	10640	0	101	08:03:11	3252980	4	3	3	1	3	0	3	3	3	4	0	0	0	0	0	4	0
110212	08:03:11	10032	DigitSpanFwrdFr3mo	Gate5FwrdFr3mo	12	0	1	0	101	08:03:11	3252985	4	3	3	1	3	0	3	3	3	5	0	0	0	0	0	4	0
110212	08:03:11	10032	DigitSpanFwrdFr3mo	Score4FwrdFr3mo	12	DS2	12839	0	101	08:03:11	3274331	4	3	3	1	3	0	3	3	3	5	0	0	0	0	0	4	0
110212	08:03:11	10032	DigitSpanFwrdFr3mo	Gate7FwrdFr3mo	12	0	1	0	101	08:03:11	3274336	4	3	3	1	3	0	3	3	3	5	0	0	0	0	0	4	0
110212	08:03:11	10032	DigitSpanFwrdFr3mo	Score44FwrdFr3mo	12	DS2	14493	0	101	08:03:11	3297122	4	3	3	1	3	0	3	3	3	5	0	0	0	0	0	4	0
110212	08:03:11	10032	DigitSpanFr3mo	Score1Fr3mo	13	DS1	3475	0	101	08:03:11	3314182	4	3	3	1	3	0	3	3	3	5	0	0	0	0	0	4	0
110212	08:03:11	10032	DigitSpanFr3mo	Gate1Fr3mo	13	0	1	0	101	08:03:11	3314187	4	3	3	1	3	0	3	3	3	5	2	0	0	0	0	4	0
110212	08:03:11	10032	DigitSpanFr3mo	Score2Fr3mo	13	DS1	4350	0	101	08:03:11	3323098	4	3	3	1	3	0	3	3	3	5	2	0	0	0	0	4	0
110212	08:03:11	10032	DigitSpanFr3mo	Gate3Fr3mo	13	0	1	0	101	08:03:11	3323103	4	3	3	1	3	0	3	3	3	5	3	0	0	0	0	4	0
110212	08:03:11	10032	DigitSpanFr3mo	Score3Fr3mo	13	DS2	7889	0	101	08:03:11	3336680	4	3	3	1	3	0	3	3	3	5	3	0	0	0	0	4	0
110212	08:03:11	10032	DigitSpanFr3mo	Gate5Fr3mo	13	0	1	0	101	08:03:11	3336684	4	3	3	1	3	0	3	3	3	5	3	0	0	0	0	4	0
110212	08:03:11	10032	DigitSpanFr3mo	Score33Fr3mo	13	DS1	8540	0	101	08:03:11	3351260	4	3	3	1	3	0	3	3	3	5	3	0	0	0	0	4	0
110212	08:03:11	10032	DigitSpanFr3mo	Gate6Fr3mo	13	0	1	0	101	08:03:11	3351264	4	3	3	1	3	0	3	3	3	5	4	0	0	0	0	4	0
110212	08:03:11	10032	DigitSpanFr3mo	Score4Fr3mo	13	DS1	9565	0	101	08:03:11	3368054	4	3	3	1	3	0	3	3	3	5	4	0	0	0	0	4	0
110212	08:03:11	10032	DigitSpanFr3mo	Gate7Fr3mo	13	0	1	0	101	08:03:11	3368058	4	3	3	1	3	0	3	3	3	5	5	0	0	0	0	4	0
110212	08:03:11	10032	DigitSpanFr3mo	Score5Fr3mo	13	DS2	12979	0	101	08:03:11	3389551	4	3	3	1	3	0	3	3	3	5	5	0	0	0	0	4	0
110212	08:03:11	10032	DigitSpanFr3mo	Gate9Fr3mo	13	0	1	0	101	08:03:11	3389556	4	3	3	1	3	0	3	3	3	5	5	0	0	0	0	4	0
110212	08:03:11	10032	DigitSpanFr3mo	Score55Fr3mo	13	DS2	12934	0	101	08:03:11	3410783	4	3	3	1	3	0	3	3	3	5	5	0	0	0	0	4	0
110212	08:03:11	10032	Trial	ResponseIL	14	0	175	0	101	08:03:11	3513595	4	3	3	1	3	0	3	3	3	5	5	0	0	0	0	4	0
110212	08:03:11	10032	Trial	IncongruentLeft	14	203	341	1	101	08:03:11	3513954	4	3	3	1	3	0	3	3	3	5	5	0	0	0	0	4	0
110212	08:03:11	10032	Trial	ResponseCR	14	0	175	0	101	08:03:11	3515300	4	3	3	1	3	0	3	3	3	5	5	0	0	0	0	4	0
110212	08:03:11	10032	Trial	CongruentRight	14	205	363	1	101	08:03:11	3515687	4	3	3	1	3	0	3	3	3	5	5	0	0	0	0	4	0
110212	08:03:11	10032	Trial	ResponseIR	14	0	175	0	101	08:03:11	3517006	4	3	3	1	3	0	3	3	3	5	5	0	0	0	0	4	0
110212	08:03:11	10032	Trial	IncongruentRight	14	205	417	1	101	08:03:11	3517446	4	3	3	1	3	0	3	3	3	5	5	0	0	0	0	4	0
110212	08:03:11	10032	Trial	ResponseCL	14	0	175	0	101	08:03:11	3518712	4	3	3	1	3	0	3	3	3	5	5	0	0	0	0	4	0
110212	08:03:11	10032	Trial	CongruentLeft	14	203	281	1	101	08:03:11	3519019	4	3	3	1	3	0	3	3	3	5	5	0	0	0	0	4	0
110212	08:03:11	10032	Trial	ResponseCR	14	0	175	0	101	08:03:11	3520418	4	3	3	1	3	0	3	3	3	5	5	0	0	0	0	4	0
110212	08:03:11	10032	Trial	CongruentRight	14	205	269	1	101	08:03:11	3520711	4	3	3	1	3	0	3	3	3	5	5	0	0	0	0	4	0
110212	08:03:11	10032	Trial	ResponseIR	14	0	175	0	101	08:03:11	3522124	4	3	3	1	3	0	3	3	3	5	5	0	0	0	0	4	0
110212	08:03:11	10032	Trial	IncongruentRight	14	205	467	1	101	08:03:11	3522618	4	3	3	1	3	0	3	3	3	5	5	0	0	0	0	4	0
110212	08:03:11	10032	Trial	ResponseCL	14	0	175	0	101	08:03:11	3523831	4	3	3	1	3	0	3	3	3	5	5	0	0	0	0	4	0
110212	08:03:11	10032	Trial	CongruentLeft	14	203	361	1	101	08:03:11	3524217	4	3	3	1	3	0	3	3	3	5	5	0	0	0	0	4	0
110212	08:03:11	10032	Trial	ResponseIL	14	0	175	0	101	08:03:11	3525537	4	3	3	1	3	0	3	3	3	5	5	0	0	0	0	4	0
110212	08:03:11	10032	Trial	IncongruentLeft	14	203	399	1	101	08:03:11	3525963	4	3	3	1	3	0	3	3	3	5	5	0	0	0	0	4	0
110212	08:03:11	10032	Trial	ResponseIL	14	0	175	0	101	08:03:11	3527242	4	3	3	1	3	0	3	3	3	5	5	0	0	0	0	4	0
110212	08:03:11	10032	Trial	IncongruentLeft	14	203	485	1	101	08:03:11	3527749	4	3	3	1	3	0	3	3	3	5	5	0	0	0	0	4	0
110212	08:03:11	10032	Trial	ResponseCR	14	0	175	0	101	08:03:11	3528948	4	3	3	1	3	0	3	3	3	5	5	0	0	0	0	4	0
110212	08:03:11	10032	Trial	CongruentRight	14	205	331	1	101	08:03:11	3529308	4	3	3	1	3	0	3	3	3	5	5	0	0	0	0	4	0
110212	08:03:11	10032	Trial	ResponseIR	14	0	175	0	101	08:03:11	3530654	4	3	3	1	3	0	3	3	3	5	5	0	0	0	0	4	0
110212	08:03:11	10032	Trial	IncongruentRight	14	205	449	1	101	08:03:11	3531121	4	3	3	1	3	0	3	3	3	5	5	0	0	0	0	4	0
110212	08:03:11	10032	Trial	ResponseCL	14	0	175	0	101	08:03:11	3532360	4	3	3	1	3	0	3	3	3	5	5	0	0	0	0	4	0
110212	08:03:11	10032	Trial	CongruentLeft	14	203	439	1	101	08:03:11	3532827	4	3	3	1	3	0	3	3	3	5	5	0	0	0	0	4	0
110212	08:03:11	10032	Trial	ResponseCR	14	0	175	0	101	08:03:11	3534066	4	3	3	1	3	0	3	3	3	5	5	0	0	0	0	4	0
110212	08:03:11	10032	Trial	CongruentRight	14	0	1000	0	101	08:03:11	3535079	4	3	3	1	3	0	3	3	3	5	5	0	0	0	0	4	0
110212	08:03:11	10032	Trial	ResponseIL	14	0	175	0	101	08:03:11	3535786	4	3	3	1	3	0	3	3	3	5	5	0	0	0	0	4	0
110212	08:03:11	10032	Trial	IncongruentLeft	14	203	358	1	101	08:03:11	3536172	4	3	3	1	3	0	3	3	3	5	5	0	0	0	0	4	0
110212	08:03:11	10032	Trial	ResponseIR	14	0	175	0	101	08:03:11	3537492	4	3	3	1	3	0	3	3	3	5	5	0	0	0	0	4	0
110212	08:03:11	10032	Trial	IncongruentRight	14	205	459	1	101	08:03:11	3537971	4	3	3	1	3	0	3	3	3	5	5	0	0	0	0	4	0
110212	08:03:11	10032	Trial	ResponseCR	14	0	175	0	101	08:03:11	3539198	4	3	3	1	3	0	3	3	3	5	5	0	0	0	0	4	0
110212	08:03:11	10032	Trial	CongruentRight	14	205	466	1	101	08:03:11	3539691	4	3	3	1	3	0	3	3	3	5	5	0	0	0	0	4	0
110212	08:03:11	10032	Trial	ResponseCL	14	0	175	0	101	08:03:11	3540904	4	3	3	1	3	0	3	3	3	5	5	0	0	0	0	4	0
110212	08:03:11	10032	Trial	CongruentLeft	14	203	616	1	101	08:03:11	3541543	4	3	3	1	3	0	3	3	3	5	5	0	0	0	0	4	0
110212	08:03:11	10032	Trial	ResponseCR	14	0	175	0	101	08:03:11	3542610	4	3	3	1	3	0	3	3	3	5	5	0	0	0	0	4	0
110212	08:03:11	10032	Trial	CongruentRight	14	205	398	1	101	08:03:11	3543036	4	3	3	1	3	0	3	3	3	5	5	0	0	0	0	4	0
110212	08:03:11	10032	Trial	ResponseIR	14	0	175	0	101	08:03:11	3544315	4	3	3	1	3	0	3	3	3	5	5	0	0	0	0	4	0
110212	08:03:11	10032	Trial	IncongruentRight	14	205	548	1	101	08:03:11	3544889	4	3	3	1	3	0	3	3	3	5	5	0	0	0	0	4	0
110212	08:03:11	10032	Trial	ResponseIL	14	0	175	0	101	08:03:11	3546021	4	3	3	1	3	0	3	3	3	5	5	0	0	0	0	4	0
110212	08:03:11	10032	Trial	IncongruentLeft	14	203	426	1	101	08:03:11	3546475	4	3	3	1	3	0	3	3	3	5	5	0	0	0	0	4	0
110212	08:03:11	10032	Trial	ResponseIL	14	0	175	0	101	08:03:11	3547727	4	3	3	1	3	0	3	3	3	5	5	0	0	0	0	4	0
110212	08:03:11	10032	Trial	IncongruentLeft	14	203	432	1	101	08:03:11	3548181	4	3	3	1	3	0	3	3	3	5	5	0	0	0	0	4	0
110212	08:03:11	10032	Trial	ResponseCL	14	0	175	0	101	08:03:11	3549433	4	3	3	1	3	0	3	3	3	5	5	0	0	0	0	4	0
110212	08:03:11	10032	Trial	CongruentLeft	14	203	645	1	101	08:03:11	3550100	4	3	3	1	3	0	3	3	3	5	5	0	0	0	0	4	0
110212	08:03:11	10032	Trial	ResponseCR	14	0	175	0	101	08:03:11	3551139	4	3	3	1	3	0	3	3	3	5	5	0	0	0	0	4	0
110212	08:03:11	10032	Trial	CongruentRight	14	205	587	1	101	08:03:11	3551752	4	3	3	1	3	0	3	3	3	5	5	0	0	0	0	4	0
110212	08:03:11	10032	Trial	ResponseIL	14	0	175	0	101	08:03:11	3552845	4	3	3	1	3	0	3	3	3	5	5	0	0	0	0	4	0
110212	08:03:11	10032	Trial	IncongruentLeft	14	203	545	1	101	08:03:11	3553418	4	3	3	1	3	0	3	3	3	5	5	0	0	0	0	4	0
110212	08:03:11	10032	Trial	ResponseIR	14	0	175	0	101	08:03:11	3554551	4	3	3	1	3	0	3	3	3	5	5	0	0	0	0	4	0
110212	08:03:11	10032	Trial	IncongruentRight	14	205	408	1	101	08:03:11	3554978	4	3	3	1	3	0	3	3	3	5	5	0	0	0	0	4	0
110212	08:03:11	10032	Trial	ResponseCR	14	0	175	0	101	08:03:11	3556257	4	3	3	1	3	0	3	3	3	5	5	0	0	0	0	4	0
110212	08:03:11	10032	Trial	CongruentRight	14	205	301	1	101	08:03:11	3556577	4	3	3	1	3	0	3	3	3	5	5	0	0	0	0	4	0
110212	08:03:11	10032	Trial	ResponseCL	14	0	175	0	101	08:03:11	3557963	4	3	3	1	3	0	3	3	3	5	5	0	0	0	0	4	0
110212	08:03:11	10032	Trial	CongruentLeft	14	203	357	1	101	08:03:11	3558336	4	3	3	1	3	0	3	3	3	5	5	0	0	0	0	4	0
110212	08:03:11	10032	Trial	ResponseIR	14	0	175	0	101	08:03:11	3559669	4	3	3	1	3	0	3	3	3	5	5	0	0	0	0	4	0
110212	08:03:11	10032	Trial	IncongruentRight	14	205	489	1	101	08:03:11	3560176	4	3	3	1	3	0	3	3	3	5	5	0	0	0	0	4	0
110212	08:03:11	10032	Trial	ResponseIL	14	0	175	0	101	08:03:11	3561375	4	3	3	1	3	0	3	3	3	5	5	0	0	0	0	4	0
110212	08:03:11	10032	Trial	IncongruentLeft	14	0	1000	0	101	08:03:11	3562388	4	3	3	1	3	0	3	3	3	5	5	0	0	0	0	4	0
110212	08:03:11	10032	Trial	ResponseIR	14	0	175	0	101	08:03:11	3563095	4	3	3	1	3	0	3	3	3	5	5	0	0	0	0	4	0
110212	08:03:11	10032	Trial	IncongruentRight	14	205	360	1	101	08:03:11	3563481	4	3	3	1	3	0	3	3	3	5	5	0	0	0	0	4	0
110212	08:03:11	10032	Trial	ResponseCR	14	0	175	0	101	08:03:11	3564801	4	3	3	1	3	0	3	3	3	5	5	0	0	0	0	4	0
110212	08:03:11	10032	Trial	CongruentRight	14	203	238	0	101	08:03:11	3565067	4	3	3	1	3	0	3	3	3	5	5	0	0	0	0	4	0
110212	08:03:11	10032	Trial	ResponseIL	14	0	175	0	101	08:03:11	3566507	4	3	3	1	3	0	3	3	3	5	5	0	0	0	0	4	0
110212	08:03:11	10032	Trial	IncongruentLeft	14	203	500	1	101	08:03:11	3567026	4	3	3	1	3	0	3	3	3	5	5	0	0	0	0	4	0
110212	08:03:11	10032	Trial	ResponseCL	14	0	175	0	101	08:03:11	3568213	4	3	3	1	3	0	3	3	3	5	5	0	0	0	0	4	0
110212	08:03:11	10032	Trial	CongruentLeft	14	203	442	1	101	08:03:11	3568679	4	3	3	1	3	0	3	3	3	5	5	0	0	0	0	4	0
110212	08:03:11	10032	Trial	ResponseCR	14	0	175	0	101	08:03:11	3569918	4	3	3	1	3	0	3	3	3	5	5	0	0	0	0	4	0
110212	08:03:11	10032	Trial	CongruentRight	14	205	384	1	101	08:03:11	3570332	4	3	3	1	3	0	3	3	3	5	5	0	0	0	0	4	0
110212	08:03:11	10032	Trial	ResponseIL	14	0	175	0	101	08:03:11	3571624	4	3	3	1	3	0	3	3	3	5	5	0	0	0	0	4	0
110212	08:03:11	10032	Trial	IncongruentLeft	14	203	470	1	101	08:03:11	3572117	4	3	3	1	3	0	3	3	3	5	5	0	0	0	0	4	0
110212	08:03:11	10032	Trial	ResponseIR	14	0	175	0	101	08:03:11	3573330	4	3	3	1	3	0	3	3	3	5	5	0	0	0	0	4	0
110212	08:03:11	10032	Trial	IncongruentRight	14	205	381	1	101	08:03:11	3573730	4	3	3	1	3	0	3	3	3	5	5	0	0	0	0	4	0
110212	08:03:11	10032	Trial	ResponseIR	14	0	175	0	101	08:03:11	3575036	4	3	3	1	3	0	3	3	3	5	5	0	0	0	0	4	0
110212	08:03:11	10032	Trial	IncongruentRight	14	205	498	1	101	08:03:11	3575556	4	3	3	1	3	0	3	3	3	5	5	0	0	0	0	4	0
110212	08:03:11	10032	Trial	ResponseCL	14	0	175	0	101	08:03:11	3576743	4	3	3	1	3	0	3	3	3	5	5	0	0	0	0	4	0
110212	08:03:11	10032	Trial	CongruentLeft	14	203	392	1	101	08:03:11	3577155	4	3	3	1	3	0	3	3	3	5	5	0	0	0	0	4	0
110212	08:03:11	10032	Trial	ResponseIL	14	0	175	0	101	08:03:11	3578448	4	3	3	1	3	0	3	3	3	5	5	0	0	0	0	4	0
110212	08:03:11	10032	Trial	IncongruentLeft	14	203	398	1	101	08:03:11	3578875	4	3	3	1	3	0	3	3	3	5	5	0	0	0	0	4	0
110212	08:03:11	10032	Trial	ResponseCR	14	0	175	0	101	08:03:11	3580154	4	3	3	1	3	0	3	3	3	5	5	0	0	0	0	4	0
110212	08:03:11	10032	Trial	CongruentRight	14	205	500	1	101	08:03:11	3580674	4	3	3	1	3	0	3	3	3	5	5	0	0	0	0	4	0
110212	08:03:11	10032	Trial	ResponseCL	14	0	175	0	101	08:03:11	3581860	4	3	3	1	3	0	3	3	3	5	5	0	0	0	0	4	0
110212	08:03:11	10032	Trial	CongruentLeft	14	203	490	1	101	08:03:11	3582367	4	3	3	1	3	0	3	3	3	5	5	0	0	0	0	4	0
110212	08:03:11	10032	Trial	ResponseIR	14	0	175	0	101	08:03:11	3583566	4	3	3	1	3	0	3	3	3	5	5	0	0	0	0	4	0
110212	08:03:11	10032	Trial	IncongruentRight	14	0	1000	0	101	08:03:11	3584579	4	3	3	1	3	0	3	3	3	5	5	0	0	0	0	4	0
110212	08:03:11	10032	Trial	ResponseCR	14	0	175	0	101	08:03:11	3585286	4	3	3	1	3	0	3	3	3	5	5	0	0	0	0	4	0
110212	08:03:11	10032	Trial	CongruentRight	14	205	568	1	101	08:03:11	3585872	4	3	3	1	3	0	3	3	3	5	5	0	0	0	0	4	0
110212	08:03:11	10032	Trial	ResponseIL	14	0	175	0	101	08:03:11	3586992	4	3	3	1	3	0	3	3	3	5	5	0	0	0	0	4	0
110212	08:03:11	10032	Trial	IncongruentLeft	14	203	239	1	101	08:03:11	3587258	4	3	3	1	3	0	3	3	3	5	5	0	0	0	0	4	0
110212	08:03:11	10032	Trial	ResponseCL	14	0	175	0	101	08:03:11	3588698	4	3	3	1	3	0	3	3	3	5	5	0	0	0	0	4	0
110212	08:03:11	10032	Trial	CongruentLeft	14	203	309	1	101	08:03:11	3589031	4	3	3	1	3	0	3	3	3	5	5	0	0	0	0	4	0
110212	08:03:11	10032	Trial	ResponseIL	14	0	175	0	101	08:03:11	3590404	4	3	3	1	3	0	3	3	3	5	5	0	0	0	0	4	0
110212	08:03:11	10032	Trial	IncongruentLeft	14	205	282	0	101	08:03:11	3590710	4	3	3	1	3	0	3	3	3	5	5	0	0	0	0	4	0
110212	08:03:11	10032	Trial	ResponseIR	14	0	175	0	101	08:03:11	3592110	4	3	3	1	3	0	3	3	3	5	5	0	0	0	0	4	0
110212	08:03:11	10032	Trial	IncongruentRight	14	205	561	1	101	08:03:11	3592696	4	3	3	1	3	0	3	3	3	5	5	0	0	0	0	4	0
110212	08:03:11	10032	Trial	ResponseCR	14	0	175	0	101	08:03:11	3593816	4	3	3	1	3	0	3	3	3	5	5	0	0	0	0	4	0
110212	08:03:11	10032	Trial	CongruentRight	14	205	422	1	101	08:03:11	3594255	4	3	3	1	3	0	3	3	3	5	5	0	0	0	0	4	0
110212	08:03:11	10032	Trial	ResponseCL	14	0	175	0	101	08:03:11	3595522	4	3	3	1	3	0	3	3	3	5	5	0	0	0	0	4	0
110212	08:03:11	10032	Trial	CongruentLeft	14	203	428	1	101	08:03:11	3595975	4	3	3	1	3	0	3	3	3	5	5	0	0	0	0	4	0
110212	08:03:11	10032	Trial	ResponseCL	14	0	175	0	101	08:03:11	3597228	4	3	3	1	3	0	3	3	3	5	5	0	0	0	0	4	0
110212	08:03:11	10032	Trial	CongruentLeft	14	203	354	1	101	08:03:11	3597601	4	3	3	1	3	0	3	3	3	5	5	0	0	0	0	4	0
110212	08:03:11	10032	Trial	ResponseIR	14	0	175	0	101	08:03:11	3598933	4	3	3	1	3	0	3	3	3	5	5	0	0	0	0	4	0
110212	08:03:11	10032	Trial	IncongruentRight	14	205	393	1	101	08:03:11	3599347	4	3	3	1	3	0	3	3	3	5	5	0	0	0	0	4	0
110212	08:03:11	10032	Trial	ResponseIL	14	0	175	0	101	08:03:11	3600639	4	3	3	1	3	0	3	3	3	5	5	0	0	0	0	4	0
110212	08:03:11	10032	Trial	IncongruentLeft	14	203	414	1	101	08:03:11	3601079	4	3	3	1	3	0	3	3	3	5	5	0	0	0	0	4	0
110212	08:03:11	10032	Trial	ResponseIR	14	0	175	0	101	08:03:11	3602345	4	3	3	1	3	0	3	3	3	5	5	0	0	0	0	4	0
110212	08:03:11	10032	Trial	IncongruentRight	14	205	325	1	101	08:03:11	3602692	4	3	3	1	3	0	3	3	3	5	5	0	0	0	0	4	0
110212	08:03:11	10032	Trial	ResponseCR	14	0	175	0	101	08:03:11	3604051	4	3	3	1	3	0	3	3	3	5	5	0	0	0	0	4	0
110212	08:03:11	10032	Trial	CongruentRight	14	205	426	1	101	08:03:11	3604505	4	3	3	1	3	0	3	3	3	5	5	0	0	0	0	4	0
110212	08:03:11	10032	Trial	ResponseCR	14	0	175	0	101	08:03:11	3605757	4	3	3	1	3	0	3	3	3	5	5	0	0	0	0	4	0
110212	08:03:11	10032	Trial	CongruentRight	14	205	432	1	101	08:03:11	3606211	4	3	3	1	3	0	3	3	3	5	5	0	0	0	0	4	0
110212	08:03:11	10032	Trial	ResponseIL	14	0	175	0	101	08:03:11	3607463	4	3	3	1	3	0	3	3	3	5	5	0	0	0	0	4	0
110212	08:03:11	10032	Trial	IncongruentLeft	14	203	326	1	101	08:03:11	3607810	4	3	3	1	3	0	3	3	3	5	5	0	0	0	0	4	0
110212	08:03:11	10032	Trial	ResponseCL	14	0	175	0	101	08:03:11	3609169	4	3	3	1	3	0	3	3	3	5	5	0	0	0	0	4	0
110212	08:03:11	10032	Trial	CongruentLeft	14	203	316	1	101	08:03:11	3609503	4	3	3	1	3	0	3	3	3	5	5	0	0	0	0	4	0
110212	08:03:11	10032	Trial	ResponseCR	14	0	175	0	101	08:03:11	3610875	4	3	3	1	3	0	3	3	3	5	5	0	0	0	0	4	0
110212	08:03:11	10032	Trial	CongruentRight	14	205	242	1	101	08:03:11	3611142	4	3	3	1	3	0	3	3	3	5	5	0	0	0	0	4	0
110212	08:03:11	10032	Trial	ResponseCL	14	0	175	0	101	08:03:11	3612581	4	3	3	1	3	0	3	3	3	5	5	0	0	0	0	4	0
110212	08:03:11	10032	Trial	CongruentLeft	14	203	314	1	101	08:03:11	3612915	4	3	3	1	3	0	3	3	3	5	5	0	0	0	0	4	0
110212	08:03:11	10032	Trial	ResponseIR	14	0	175	0	101	08:03:11	3614287	4	3	3	1	3	0	3	3	3	5	5	0	0	0	0	4	0
110212	08:03:11	10032	Trial	IncongruentRight	14	205	638	1	101	08:03:11	3614954	4	3	3	1	3	0	3	3	3	5	5	0	0	0	0	4	0
110212	08:03:11	10032	Trial	ResponseCR	14	0	175	0	101	08:03:11	3615993	4	3	3	1	3	0	3	3	3	5	5	0	0	0	0	4	0
110212	08:03:11	10032	Trial	CongruentRight	14	0	1000	0	101	08:03:11	3617006	4	3	3	1	3	0	3	3	3	5	5	0	0	0	0	4	0
110212	08:03:11	10032	Trial	ResponseCL	14	0	175	0	101	08:03:11	3617713	4	3	3	1	3	0	3	3	3	5	5	0	0	0	0	4	0
110212	08:03:11	10032	Trial	CongruentLeft	14	203	205	1	101	08:03:11	3617939	4	3	3	1	3	0	3	3	3	5	5	0	0	0	0	4	0
110212	08:03:11	10032	Trial	ResponseIL	14	0	175	0	101	08:03:11	3619419	4	3	3	1	3	0	3	3	3	5	5	0	0	0	0	4	0
110212	08:03:11	10032	Trial	IncongruentLeft	14	203	531	1	101	08:03:11	3619978	4	3	3	1	3	0	3	3	3	5	5	0	0	0	0	4	0
110212	08:03:11	10032	Trial	ResponseIL	14	0	175	0	101	08:03:11	3621125	4	3	3	1	3	0	3	3	3	5	5	0	0	0	0	4	0
110212	08:03:11	10032	Trial	IncongruentLeft	14	203	425	1	101	08:03:11	3621578	4	3	3	1	3	0	3	3	3	5	5	0	0	0	0	4	0
110212	08:03:11	10032	Trial	ResponseCR	14	0	175	0	101	08:03:11	3622831	4	3	3	1	3	0	3	3	3	5	5	0	0	0	0	4	0
110212	08:03:11	10032	Trial	CongruentRight	14	205	351	1	101	08:03:11	3623203	4	3	3	1	3	0	3	3	3	5	5	0	0	0	0	4	0
110212	08:03:11	10032	Trial	ResponseIR	14	0	175	0	101	08:03:11	3624536	4	3	3	1	3	0	3	3	3	5	5	0	0	0	0	4	0
110212	08:03:11	10032	Trial	IncongruentRight	14	205	453	1	101	08:03:11	3625016	4	3	3	1	3	0	3	3	3	5	5	0	0	0	0	4	0
110212	08:03:11	10032	Trial	ResponseCL	14	0	175	0	101	08:03:11	3626242	4	3	3	1	3	0	3	3	3	5	5	0	0	0	0	4	0
110212	08:03:11	10032	Trial	CongruentLeft	14	0	1000	0	101	08:03:11	3627255	4	3	3	1	3	0	3	3	3	5	5	0	0	0	0	4	0
110212	08:03:11	10032	Trial	ResponseIR	14	0	175	0	101	08:03:11	3627962	4	3	3	1	3	0	3	3	3	5	5	0	0	0	0	4	0
110212	08:03:11	10032	Trial	IncongruentRight	14	205	499	1	101	08:03:11	3628481	4	3	3	1	3	0	3	3	3	5	5	0	0	0	0	4	0
110212	08:03:11	10032	Trial	ResponseCR	14	0	175	0	101	08:03:11	3629668	4	3	3	1	3	0	3	3	3	5	5	0	0	0	0	4	0
110212	08:03:11	10032	Trial	CongruentRight	14	203	281	0	101	08:03:11	3629974	4	3	3	1	3	0	3	3	3	5	5	0	0	0	0	4	0
110212	08:03:11	10032	Trial	ResponseIL	14	0	175	0	101	08:03:11	3631374	4	3	3	1	3	0	3	3	3	5	5	0	0	0	0	4	0
110212	08:03:11	10032	Trial	IncongruentLeft	14	203	463	1	101	08:03:11	3631854	4	3	3	1	3	0	3	3	3	5	5	0	0	0	0	4	0
110212	08:03:11	10032	Trial	ResponseCL	14	0	175	0	101	08:03:11	3633080	4	3	3	1	3	0	3	3	3	5	5	0	0	0	0	4	0
110212	08:03:11	10032	Trial	CongruentLeft	14	203	422	1	101	08:03:11	3633520	4	3	3	1	3	0	3	3	3	5	5	0	0	0	0	4	0
110212	08:03:11	10032	Trial	ResponseCR	14	0	175	0	101	08:03:11	3634786	4	3	3	1	3	0	3	3	3	5	5	0	0	0	0	4	0
110212	08:03:11	10032	Trial	CongruentRight	14	205	395	1	101	08:03:11	3635199	4	3	3	1	3	0	3	3	3	5	5	0	0	0	0	4	0
110212	08:03:11	10032	Trial	ResponseIL	14	0	175	0	101	08:03:11	3636492	4	3	3	1	3	0	3	3	3	5	5	0	0	0	0	4	0
110212	08:03:11	10032	Trial	IncongruentLeft	14	203	417	1	101	08:03:11	3636931	4	3	3	1	3	0	3	3	3	5	5	0	0	0	0	4	0
110212	08:03:11	10032	Trial	ResponseCR	14	0	175	0	101	08:03:11	3638198	4	3	3	1	3	0	3	3	3	5	5	0	0	0	0	4	0
110212	08:03:11	10032	Trial	CongruentRight	14	205	263	1	101	08:03:11	3638478	4	3	3	1	3	0	3	3	3	5	5	0	0	0	0	4	0
110212	08:03:11	10032	Trial	ResponseCR	14	0	175	0	101	08:03:11	3639904	4	3	3	1	3	0	3	3	3	5	5	0	0	0	0	4	0
110212	08:03:11	10032	Trial	CongruentRight	14	205	285	1	101	08:03:11	3640210	4	3	3	1	3	0	3	3	3	5	5	0	0	0	0	4	0
110212	08:03:11	10032	Trial	ResponseIR	14	0	175	0	101	08:03:11	3641610	4	3	3	1	3	0	3	3	3	5	5	0	0	0	0	4	0
110212	08:03:11	10032	Trial	IncongruentRight	14	205	451	1	101	08:03:11	3642089	4	3	3	1	3	0	3	3	3	5	5	0	0	0	0	4	0
110212	08:03:11	10032	Trial	ResponseCL	14	0	175	0	101	08:03:11	3643316	4	3	3	1	3	0	3	3	3	5	5	0	0	0	0	4	0
110212	08:03:11	10032	Trial	CongruentLeft	14	203	233	1	101	08:03:11	3643569	4	3	3	1	3	0	3	3	3	5	5	0	0	0	0	4	0
110212	08:03:11	10032	Trial	ResponseIL	14	0	175	0	101	08:03:11	3645022	4	3	3	1	3	0	3	3	3	5	5	0	0	0	0	4	0
110212	08:03:11	10032	Trial	IncongruentLeft	14	203	415	1	101	08:03:11	3645461	4	3	3	1	3	0	3	3	3	5	5	0	0	0	0	4	0
110212	08:03:11	10032	Trial	ResponseCL	14	0	175	0	101	08:03:11	3646728	4	3	3	1	3	0	3	3	3	5	5	0	0	0	0	4	0
110212	08:03:11	10032	Trial	CongruentLeft	14	203	325	1	101	08:03:11	3647074	4	3	3	1	3	0	3	3	3	5	5	0	0	0	0	4	0
110212	08:03:11	10032	Trial	ResponseIR	14	0	175	0	101	08:03:11	3648434	4	3	3	1	3	0	3	3	3	5	5	0	0	0	0	4	0
110212	08:03:11	10032	Trial	IncongruentRight	14	205	283	1	101	08:03:11	3648740	4	3	3	1	3	0	3	3	3	5	5	0	0	0	0	4	0
110212	08:03:11	10032	Trial	ResponseIL	14	0	175	0	101	08:03:11	3650139	4	3	3	1	3	0	3	3	3	5	5	0	0	0	0	4	0
110212	08:03:11	10032	Trial	IncongruentLeft	14	203	401	1	101	08:03:11	3650566	4	3	3	1	3	0	3	3	3	5	5	0	0	0	0	4	0
110212	08:03:11	10032	Trial	ResponseCR	14	0	175	0	101	08:03:11	3651845	4	3	3	1	3	0	3	3	3	5	5	0	0	0	0	4	0
110212	08:03:11	10032	Trial	CongruentRight	14	205	327	1	101	08:03:11	3652192	4	3	3	1	3	0	3	3	3	5	5	0	0	0	0	4	0
110212	08:03:11	10032	Trial	ResponseCL	14	0	175	0	101	08:03:11	3653551	4	3	3	1	3	0	3	3	3	5	5	0	0	0	0	4	0
110212	08:03:11	10032	Trial	CongruentLeft	14	203	253	1	101	08:03:11	3653831	4	3	3	1	3	0	3	3	3	5	5	0	0	0	0	4	0
110212	08:03:11	10032	Trial	ResponseIL	14	0	175	0	101	08:03:11	3655257	4	3	3	1	3	0	3	3	3	5	5	0	0	0	0	4	0
110212	08:03:11	10032	Trial	IncongruentLeft	14	203	323	1	101	08:03:11	3655604	4	3	3	1	3	0	3	3	3	5	5	0	0	0	0	4	0
110212	08:03:11	10032	Trial	ResponseCL	14	0	175	0	101	08:03:11	3656963	4	3	3	1	3	0	3	3	3	5	5	0	0	0	0	4	0
110212	08:03:11	10032	Trial	CongruentLeft	14	203	329	1	101	08:03:11	3657310	4	3	3	1	3	0	3	3	3	5	5	0	0	0	0	4	0
110212	08:03:11	10032	Trial	ResponseIR	14	0	175	0	101	08:03:11	3658669	4	3	3	1	3	0	3	3	3	5	5	0	0	0	0	4	0
110212	08:03:11	10032	Trial	IncongruentRight	14	205	335	1	101	08:03:11	3659029	4	3	3	1	3	0	3	3	3	5	5	0	0	0	0	4	0
110212	08:03:11	10032	Trial	ResponseCR	14	0	175	0	101	08:03:11	3660375	4	3	3	1	3	0	3	3	3	5	5	0	0	0	0	4	0
110212	08:03:11	10032	Trial	CongruentRight	14	205	341	1	101	08:03:11	3660735	4	3	3	1	3	0	3	3	3	5	5	0	0	0	0	4	0
110212	08:03:11	10032	Trial	ResponseIL	14	0	175	0	101	08:03:11	3662082	4	3	3	1	3	0	3	3	3	5	5	0	0	0	0	4	0
110212	08:03:11	10032	Trial	IncongruentLeft	14	203	347	1	101	08:03:11	3662455	4	3	3	1	3	0	3	3	3	5	5	0	0	0	0	4	0
110212	08:03:11	10032	Trial	ResponseCL	14	0	175	0	101	08:03:11	3663787	4	3	3	1	3	0	3	3	3	5	5	0	0	0	0	4	0
110212	08:03:11	10032	Trial	CongruentLeft	14	203	369	1	101	08:03:11	3664174	4	3	3	1	3	0	3	3	3	5	5	0	0	0	0	4	0
110212	08:03:11	10032	Trial	ResponseIR	14	0	175	0	101	08:03:11	3665493	4	3	3	1	3	0	3	3	3	5	5	0	0	0	0	4	0
110212	08:03:11	10032	Trial	IncongruentRight	14	205	343	1	101	08:03:11	3665853	4	3	3	1	3	0	3	3	3	5	5	0	0	0	0	4	0
110212	08:03:11	10032	Trial	ResponseIL	14	0	175	0	101	08:03:11	3667199	4	3	3	1	3	0	3	3	3	5	5	0	0	0	0	4	0
110212	08:03:11	10032	Trial	IncongruentLeft	14	203	365	1	101	08:03:11	3667586	4	3	3	1	3	0	3	3	3	5	5	0	0	0	0	4	0
110212	08:03:11	10032	Trial	ResponseCL	14	0	175	0	101	08:03:11	3668905	4	3	3	1	3	0	3	3	3	5	5	0	0	0	0	4	0
110212	08:03:11	10032	Trial	CongruentLeft	14	203	355	1	101	08:03:11	3669278	4	3	3	1	3	0	3	3	3	5	5	0	0	0	0	4	0
110212	08:03:11	10032	Trial	ResponseIL	14	0	175	0	101	08:03:11	3670611	4	3	3	1	3	0	3	3	3	5	5	0	0	0	0	4	0
110212	08:03:11	10032	Trial	IncongruentLeft	14	203	409	1	101	08:03:11	3671038	4	3	3	1	3	0	3	3	3	5	5	0	0	0	0	4	0
110212	08:03:11	10032	Trial	ResponseCR	14	0	175	0	101	08:03:11	3672317	4	3	3	1	3	0	3	3	3	5	5	0	0	0	0	4	0
110212	08:03:11	10032	Trial	CongruentRight	14	205	399	1	101	08:03:11	3672744	4	3	3	1	3	0	3	3	3	5	5	0	0	0	0	4	0
110212	08:03:11	10032	Trial	ResponseCL	14	0	175	0	101	08:03:11	3674023	4	3	3	1	3	0	3	3	3	5	5	0	0	0	0	4	0
110212	08:03:11	10032	Trial	CongruentLeft	14	203	389	1	101	08:03:11	3674436	4	3	3	1	3	0	3	3	3	5	5	0	0	0	0	4	0
110212	08:03:11	10032	Trial	ResponseIR	14	0	175	0	101	08:03:11	3675729	4	3	3	1	3	0	3	3	3	5	5	0	0	0	0	4	0
110212	08:03:11	10032	Trial	IncongruentRight	14	205	459	1	101	08:03:11	3676209	4	3	3	1	3	0	3	3	3	5	5	0	0	0	0	4	0
110212	08:03:11	10032	Trial	ResponseCL	14	0	175	0	101	08:03:11	3677435	4	3	3	1	3	0	3	3	3	5	5	0	0	0	0	4	0
110212	08:03:11	10032	Trial	CongruentLeft	14	203	385	1	101	08:03:11	3677848	4	3	3	1	3	0	3	3	3	5	5	0	0	0	0	4	0
110212	08:03:11	10032	Trial	ResponseCR	14	0	175	0	101	08:03:11	3679141	4	3	3	1	3	0	3	3	3	5	5	0	0	0	0	4	0
110212	08:03:11	10032	Trial	CongruentRight	14	205	311	1	101	08:03:11	3679474	4	3	3	1	3	0	3	3	3	5	5	0	0	0	0	4	0
110212	08:03:11	10032	Trial	ResponseIL	14	0	175	0	101	08:03:11	3680847	4	3	3	1	3	0	3	3	3	5	5	0	0	0	0	4	0
110212	08:03:11	10032	Trial	IncongruentLeft	14	203	205	1	101	08:03:11	3681074	4	3	3	1	3	0	3	3	3	5	5	0	0	0	0	4	0
110212	08:03:11	10032	WordsAbsFrThreemo	PAbsFrThreemo1	16	Abs1	4726	0	101	08:03:11	3696774	4	3	3	1	3	0	3	3	3	5	5	0	0	0	0	4	0
110212	08:03:11	10032	WordsAbsFrThreemo	AbsFrThreemo1	16	Abs1	6456	0	101	08:03:11	3703265	4	3	3	1	3	0	3	3	3	5	5	1	0	0	0	4	0
110212	08:03:11	10032	WordsAbsFrThreemo	AbsFrThreemo2	16	Abs1	15397	0	101	08:03:11	3718698	4	3	3	1	3	0	3	3	3	5	5	2	0	0	0	4	0
110212	08:03:11	10032	WordsAbsFrThreemo	AbsFrThreemo3	16	Abs2	15539	0	101	08:03:11	3734279	4	3	3	1	3	0	3	3	3	5	5	2	0	0	0	4	0
110212	08:03:11	10032	Trial2BackFrS	NS	17	0	1000	1	101	08:03:11	3815992	4	3	3	1	3	0	3	3	3	5	5	2	0	0	0	4	0
110212	08:03:11	10032	Trial2BackFrS	NS	17	0	1000	1	101	08:03:11	3817498	4	3	3	1	3	0	3	3	3	5	5	2	0	0	0	4	0
110212	08:03:11	10032	Trial2BackFrS	NS	17	0	1000	1	101	08:03:11	3819004	4	3	3	1	3	0	3	3	3	5	5	2	0	0	0	4	0
110212	08:03:11	10032	Trial2BackFrS	YS	17	0	1000	0	101	08:03:11	3820524	4	3	3	1	3	0	3	3	3	5	5	2	0	0	0	4	0
110212	08:03:11	10032	Trial2BackFrS	NS	17	0	1000	1	101	08:03:11	3822030	4	3	3	1	3	0	3	3	3	5	5	2	0	0	0	4	0
110212	08:03:11	10032	Trial2BackFrS	NS	17	0	1000	1	101	08:03:11	3823536	4	3	3	1	3	0	3	3	3	5	5	2	0	0	0	4	0
110212	08:03:11	10032	Trial2BackFrS	NS	17	0	1000	1	101	08:03:11	3825042	4	3	3	1	3	0	3	3	3	5	5	2	0	0	0	4	0
110212	08:03:11	10032	Trial2BackFrS	NS	17	57	843	0	101	08:03:11	3826401	4	3	3	1	3	0	3	3	3	5	5	2	0	0	0	4	0
110212	08:03:11	10032	Trial2BackFrS	YS	17	0	1000	0	101	08:03:11	3828054	4	3	3	1	3	0	3	3	3	5	5	2	0	0	0	4	0
110212	08:03:11	10032	Trial2BackFrS	NS	17	0	1000	1	101	08:03:11	3829574	4	3	3	1	3	0	3	3	3	5	5	2	0	0	0	4	0
110212	08:03:11	10032	Trial2BackFrS	NS	17	57	823	0	101	08:03:11	3830906	4	3	3	1	3	0	3	3	3	5	5	2	0	0	0	4	0
110212	08:03:11	10032	Trial2BackFrS	YS	17	0	1000	0	101	08:03:11	3832586	4	3	3	1	3	0	3	3	3	5	5	2	0	0	0	4	0
110212	08:03:11	10032	Trial2BackFrS	NS	17	0	1000	1	101	08:03:11	3834092	4	3	3	1	3	0	3	3	3	5	5	2	0	0	0	4	0
110212	08:03:11	10032	Trial2BackFrS	NS	17	0	1000	1	101	08:03:11	3835598	4	3	3	1	3	0	3	3	3	5	5	2	0	0	0	4	0
110212	08:03:11	10032	Trial2BackFrS	NS	17	0	1000	1	101	08:03:11	3837104	4	3	3	1	3	0	3	3	3	5	5	2	0	0	0	4	0
110212	08:03:11	10032	Trial2BackFrS	YS	17	0	1000	0	101	08:03:11	3838623	4	3	3	1	3	0	3	3	3	5	5	2	0	0	0	4	0
110212	08:03:11	10032	Trial2BackFrS	NS	17	57	942	0	101	08:03:11	3840076	4	3	3	1	3	0	3	3	3	5	5	2	0	0	0	4	0
110212	08:03:11	10032	Trial2BackFrS	NS	17	0	1000	1	101	08:03:11	3841635	4	3	3	1	3	0	3	3	3	5	5	2	0	0	0	4	0
110212	08:03:11	10032	Trial2BackFrS	NS	17	57	809	0	101	08:03:11	3842955	4	3	3	1	3	0	3	3	3	5	5	2	0	0	0	4	0
110212	08:03:11	10032	Trial2BackFrS	NS	17	0	1000	1	101	08:03:11	3844647	4	3	3	1	3	0	3	3	3	5	5	2	0	0	0	4	0
110212	08:03:11	10032	Trial2BackFrS	YS	17	57	725	1	101	08:03:11	3845887	4	3	3	1	3	0	3	3	3	5	5	2	0	0	0	4	0
110212	08:03:11	10032	Trial2BackFrS	NS	17	0	1000	1	101	08:03:11	3847660	4	3	3	1	3	0	3	3	3	5	5	2	0	0	0	4	0
110212	08:03:11	10032	Trial2BackFrS	NS	17	57	241	0	101	08:03:11	3848419	4	3	3	1	3	0	3	3	3	5	5	2	0	0	0	4	0
110212	08:03:11	10032	Trial2BackFrS	NS	17	0	1000	1	101	08:03:11	3850672	4	3	3	1	3	0	3	3	3	5	5	2	0	0	0	4	0
110212	08:03:11	10032	Trial2BackFrS	NS	17	0	1000	1	101	08:03:11	3852178	4	3	3	1	3	0	3	3	3	5	5	2	0	0	0	4	0
110212	08:03:11	10032	Trial2BackFrS	NS	17	0	1000	1	101	08:03:11	3853684	4	3	3	1	3	0	3	3	3	5	5	2	0	0	0	4	0
110212	08:03:11	10032	Trial2BackFrS	NS	17	0	1000	1	101	08:03:11	3855190	4	3	3	1	3	0	3	3	3	5	5	2	0	0	0	4	0
110212	08:03:11	10032	Trial2BackFrS	NS	17	0	1000	1	101	08:03:11	3856696	4	3	3	1	3	0	3	3	3	5	5	2	0	0	0	4	0
110212	08:03:11	10032	Trial2BackFrS	NS	17	57	852	0	101	08:03:11	3858069	4	3	3	1	3	0	3	3	3	5	5	2	0	0	0	4	0
110212	08:03:11	10032	Trial2BackFrS	NS	17	0	1000	1	101	08:03:11	3859708	4	3	3	1	3	0	3	3	3	5	5	2	0	0	0	4	0
110212	08:03:11	10032	Trial2BackFrS	NS	17	57	832	0	101	08:03:11	3861054	4	3	3	1	3	0	3	3	3	5	5	2	0	0	0	4	0
110212	08:03:11	10032	Trial2BackFrS	YS	17	0	1000	0	101	08:03:11	3862720	4	3	3	1	3	0	3	3	3	5	5	2	0	0	0	4	0
110212	08:03:11	10032	Trial2BackFrS	NS	17	57	748	0	101	08:03:11	3863986	4	3	3	1	3	0	3	3	3	5	5	2	0	0	0	4	0
110212	08:03:11	10032	Trial2BackFrS	NS	17	0	1000	1	101	08:03:11	3865732	4	3	3	1	3	0	3	3	3	5	5	2	0	0	0	4	0
110212	08:03:11	10032	Trial2BackFrS	NS	17	0	1000	1	101	08:03:11	3867238	4	3	3	1	3	0	3	3	3	5	5	2	0	0	0	4	0
110212	08:03:11	10032	Trial2BackFrS	YS	17	0	1000	0	101	08:03:11	3868745	4	3	3	1	3	0	3	3	3	5	5	2	0	0	0	4	0
110212	08:03:11	10032	Trial2BackFrS	NS	17	57	899	0	101	08:03:11	3870157	4	3	3	1	3	0	3	3	3	5	5	2	0	0	0	4	0
110212	08:03:11	10032	Trial2BackFrS	NS	17	0	1000	1	101	08:03:11	3871756	4	3	3	1	3	0	3	3	3	5	5	2	0	0	0	4	0
110212	08:03:11	10032	Trial2BackFrS	NS	17	57	687	0	101	08:03:11	3872956	4	3	3	1	3	0	3	3	3	5	5	2	0	0	0	4	0
110212	08:03:11	10032	Trial2BackFrS	NS	17	0	1000	1	101	08:03:11	3874769	4	3	3	1	3	0	3	3	3	5	5	2	0	0	0	4	0
110212	08:03:11	10032	Trial2BackFrS	NS	17	0	1000	1	101	08:03:11	3876275	4	3	3	1	3	0	3	3	3	5	5	2	0	0	0	4	0
110212	08:03:11	10032	Trial2BackFrS	NS	17	57	697	0	101	08:03:11	3877487	4	3	3	1	3	0	3	3	3	5	5	2	0	0	0	4	0
110212	08:03:11	10032	Trial2BackFrS	NS	17	0	1000	1	101	08:03:11	3879287	4	3	3	1	3	0	3	3	3	5	5	2	0	0	0	4	0
110212	08:03:11	10032	Trial2BackFrS	YS	17	57	549	1	101	08:03:11	3880353	4	3	3	1	3	0	3	3	3	5	5	2	0	0	0	4	0
110212	08:03:11	10032	Trial2BackFrS	NS	17	0	1000	1	101	08:03:11	3882299	4	3	3	1	3	0	3	3	3	5	5	2	0	0	0	4	0
110212	08:03:11	10032	Trial2BackFrS	NS	17	0	1000	1	101	08:03:11	3883805	4	3	3	1	3	0	3	3	3	5	5	2	0	0	0	4	0
110212	08:03:11	10032	Trial2BackFrS	NS	17	57	639	0	101	08:03:11	3884964	4	3	3	1	3	0	3	3	3	5	5	2	0	0	0	4	0
110212	08:03:11	10032	Trial2BackFrS	NS	17	57	909	0	101	08:03:11	3886737	4	3	3	1	3	0	3	3	3	5	5	2	0	0	0	4	0
110212	08:03:11	10032	Trial2BackFrS	YS	17	57	840	1	101	08:03:11	3888163	4	3	3	1	3	0	3	3	3	5	5	2	0	0	0	4	0
110212	08:03:11	10032	Trial2BackFrS	NS	17	0	1000	1	101	08:03:11	3889816	4	3	3	1	3	0	3	3	3	5	5	2	0	0	0	4	0
110212	08:03:11	10032	Trial2BackFrS	NS	17	0	1000	1	101	08:03:11	3891322	4	3	3	1	3	0	3	3	3	5	5	2	0	0	0	4	0
110212	08:03:11	10032	Trial2BackFrS	NS	17	57	738	0	101	08:03:11	3892575	4	3	3	1	3	0	3	3	3	5	5	2	0	0	0	4	0
110212	08:03:11	10032	Trial2BackFrS	NS	17	0	1000	1	101	08:03:11	3894334	4	3	3	1	3	0	3	3	3	5	5	2	0	0	0	4	0
110212	08:03:11	10032	Trial2BackFrS	NS	17	57	493	0	101	08:03:11	3895347	4	3	3	1	3	0	3	3	3	5	5	2	0	0	0	4	0
110212	08:03:11	10032	Trial2BackFrS	NS	17	0	1000	1	101	08:03:11	3897346	4	3	3	1	3	0	3	3	3	5	5	2	0	0	0	4	0
110212	08:03:11	10032	Trial2BackFrS	YS	17	0	1000	0	101	08:03:11	3898852	4	3	3	1	3	0	3	3	3	5	5	2	0	0	0	4	0
110212	08:03:11	10032	Trial2BackFrS	NS	17	57	615	0	101	08:03:11	3899985	4	3	3	1	3	0	3	3	3	5	5	2	0	0	0	4	0
110212	08:03:11	10032	Trial2BackFrS	NS	17	57	741	0	101	08:03:11	3901611	4	3	3	1	3	0	3	3	3	5	5	2	0	0	0	4	0
110212	08:03:11	10032	Trial2BackFrS	NS	17	57	976	0	101	08:03:11	3903344	4	3	3	1	3	0	3	3	3	5	5	2	0	0	0	4	0
110212	08:03:11	10032	Trial2BackFrS	NS	17	0	1000	1	101	08:03:11	3904863	4	3	3	1	3	0	3	3	3	5	5	2	0	0	0	4	0
110212	08:03:11	10032	Trial2BackFrS	NS	17	57	476	0	101	08:03:11	3905849	4	3	3	1	3	0	3	3	3	5	5	2	0	0	0	4	0
110212	08:03:11	10032	Trial2BackFrS	NS	17	0	1000	1	101	08:03:11	3907875	4	3	3	1	3	0	3	3	3	5	5	2	0	0	0	4	0
110212	08:03:11	10032	Trial2BackFrS	NS	17	0	1000	1	101	08:03:11	3909381	4	3	3	1	3	0	3	3	3	5	5	2	0	0	0	4	0
110212	08:03:11	10032	Trial2BackFrS	YS	17	0	1000	0	101	08:03:11	3910887	4	3	3	1	3	0	3	3	3	5	5	2	0	0	0	4	0
110212	08:03:11	10032	Trial2BackFrS	NS	17	0	1000	1	101	08:03:11	3912407	4	3	3	1	3	0	3	3	3	5	5	2	0	0	0	4	0
110212	08:03:11	10032	Trial2BackFrS	NS	17	57	260	0	101	08:03:11	3913180	4	3	3	1	3	0	3	3	3	5	5	2	0	0	0	4	0
110212	08:03:11	10032	Trial2BackFrS	NS	17	0	1000	1	101	08:03:11	3915419	4	3	3	1	3	0	3	3	3	5	5	2	0	0	0	4	0
110212	08:03:11	10032	Trial2BackFrS	NS	17	57	688	0	101	08:03:11	3916618	4	3	3	1	3	0	3	3	3	5	5	2	0	0	0	4	0
110212	08:03:11	10032	Trial2BackFrS	YS	17	57	974	1	101	08:03:11	3918418	4	3	3	1	3	0	3	3	3	5	5	2	0	0	0	4	0
110212	08:03:11	10032	Trial2BackFrS	NS	17	0	1000	1	101	08:03:11	3919937	4	3	3	1	3	0	3	3	3	5	5	2	0	0	0	4	0
110212	08:03:11	10032	Trial2BackFrS	NS	17	57	922	0	101	08:03:11	3921376	4	3	3	1	3	0	3	3	3	5	5	2	0	0	0	4	0
110212	08:03:11	10032	Trial2BackFrS	YS	17	0	1000	0	101	08:03:11	3922949	4	3	3	1	3	0	3	3	3	5	5	2	0	0	0	4	0
110212	08:03:11	10032	Trial2BackFrS	NS	17	57	294	0	101	08:03:11	3923762	4	3	3	1	3	0	3	3	3	5	5	2	0	0	0	4	0
110212	08:03:11	10032	Trial2BackFrS	NS	17	0	1000	1	101	08:03:11	3925961	4	3	3	1	3	0	3	3	3	5	5	2	0	0	0	4	0
110212	08:03:11	10032	Trial2BackFrS	NS	17	0	1000	1	101	08:03:11	3927467	4	3	3	1	3	0	3	3	3	5	5	2	0	0	0	4	0
110212	08:03:11	10032	Trial2BackFrS	NS	17	57	703	0	101	08:03:11	3928680	4	3	3	1	3	0	3	3	3	5	5	2	0	0	0	4	0
110212	08:03:11	10032	Trial2BackFrS	NS	17	0	1000	1	101	08:03:11	3930479	4	3	3	1	3	0	3	3	3	5	5	2	0	0	0	4	0
110212	08:03:11	10032	Trial2BackFrS	NS	17	0	1000	1	101	08:03:11	3931985	4	3	3	1	3	0	3	3	3	5	5	2	0	0	0	4	0
110212	08:03:11	10032	Trial2BackFrS	YS	17	57	857	1	101	08:03:11	3933358	4	3	3	1	3	0	3	3	3	5	5	2	0	0	0	4	0
110212	08:03:11	10032	Trial2BackFrS	NS	17	0	1000	1	101	08:03:11	3934998	4	3	3	1	3	0	3	3	3	5	5	2	0	0	0	4	0
110212	08:03:11	10032	Trial2BackFrS	NS	17	0	1000	1	101	08:03:11	3936504	4	3	3	1	3	0	3	3	3	5	5	2	0	0	0	4	0
110212	08:03:11	10032	Trial2BackFrS	NS	17	0	1000	1	101	08:03:11	3938009	4	3	3	1	3	0	3	3	3	5	5	2	0	0	0	4	0
110212	08:03:11	10032	Trial2BackFrS	NS	17	0	1000	1	101	08:03:11	3939516	4	3	3	1	3	0	3	3	3	5	5	2	0	0	0	4	0
110212	08:03:11	10032	Trial2BackFrS	YS	17	0	1000	0	101	08:03:11	3941035	4	3	3	1	3	0	3	3	3	5	5	2	0	0	0	4	0
110212	08:03:11	10032	Trial2BackFrS	NS	17	0	1000	1	101	08:03:11	3942541	4	3	3	1	3	0	3	3	3	5	5	2	0	0	0	4	0
110212	08:03:11	10032	Trial2BackFrS	NS	17	0	1000	1	101	08:03:11	3944047	4	3	3	1	3	0	3	3	3	5	5	2	0	0	0	4	0
110212	08:03:11	10032	Trial2BackFrS	NS	17	57	443	0	101	08:03:11	3945007	4	3	3	1	3	0	3	3	3	5	5	2	0	0	0	4	0
110212	08:03:11	10032	Trial2BackFrS	NS	17	0	1000	1	101	08:03:11	3947059	4	3	3	1	3	0	3	3	3	5	5	2	0	0	0	4	0
110212	08:03:11	10032	Trial2BackFrS	YS	17	57	343	1	101	08:03:11	3947912	4	3	3	1	3	0	3	3	3	5	5	2	0	0	0	4	0
110212	08:03:11	10032	Trial2BackFrS	NS	17	0	1000	1	101	08:03:11	3950072	4	3	3	1	3	0	3	3	3	5	5	2	0	0	0	4	0
110212	08:03:11	10032	Trial2BackFrS	NS	17	0	1000	1	101	08:03:11	3951577	4	3	3	1	3	0	3	3	3	5	5	2	0	0	0	4	0
110212	08:03:11	10032	Trial2BackFrS	YS	17	57	320	1	101	08:03:11	3952417	4	3	3	1	3	0	3	3	3	5	5	2	0	0	0	4	0
110212	08:03:11	10032	Trial2BackFrS	NS	17	0	1000	1	101	08:03:11	3954590	4	3	3	1	3	0	3	3	3	5	5	2	0	0	0	4	0
110212	08:03:11	10032	Trial2BackFrS	NS	17	0	1000	1	101	08:03:11	3956096	4	3	3	1	3	0	3	3	3	5	5	2	0	0	0	4	0
110212	08:03:11	10032	Trial2BackFrS	NS	17	0	1000	1	101	08:03:11	3957602	4	3	3	1	3	0	3	3	3	5	5	2	0	0	0	4	0
110212	08:03:11	10032	Trial2BackFrS	NS	17	0	1000	1	101	08:03:11	3959108	4	3	3	1	3	0	3	3	3	5	5	2	0	0	0	4	0
110212	08:03:11	10032	Trial2BackFrS	NS	17	0	1000	1	101	08:03:11	3960614	4	3	3	1	3	0	3	3	3	5	5	2	0	0	0	4	0
110212	08:03:11	10032	Trial2BackFrS	NS	17	57	340	0	101	08:03:11	3961467	4	3	3	1	3	0	3	3	3	5	5	2	0	0	0	4	0
110212	08:03:11	10032	Trial2BackFrS	NS	17	0	1000	1	101	08:03:11	3963626	4	3	3	1	3	0	3	3	3	5	5	2	0	0	0	4	0
110212	08:03:11	10032	Trial2BackFrS	NS	17	0	1000	1	101	08:03:11	3965132	4	3	3	1	3	0	3	3	3	5	5	2	0	0	0	4	0
110212	08:03:11	10032	Trial2BackFrS	YS	17	0	1000	0	101	08:03:11	3966638	4	3	3	1	3	0	3	3	3	5	5	2	0	0	0	4	0
110212	08:03:11	10032	Trial2BackFrS	NS	17	0	1000	1	101	08:03:11	3968144	4	3	3	1	3	0	3	3	3	5	5	2	0	0	0	4	0
110212	08:03:11	10032	Trial2BackFrS	NS	17	57	649	0	101	08:03:11	3969304	4	3	3	1	3	0	3	3	3	5	5	2	0	0	0	4	0
110212	08:03:11	10032	Trial2BackFrS	NS	17	0	1000	1	101	08:03:11	3971156	4	3	3	1	3	0	3	3	3	5	5	2	0	0	0	4	0
110212	08:03:11	10032	Trial2BackFrS	NS	17	0	1000	1	101	08:03:11	3972662	4	3	3	1	3	0	3	3	3	5	5	2	0	0	0	4	0
110212	08:03:11	10032	Trial2BackFrS	NS	17	0	1000	1	101	08:03:11	3974168	4	3	3	1	3	0	3	3	3	5	5	2	0	0	0	4	0
110212	08:03:11	10032	Trial2BackFrS	NS	17	57	289	0	101	08:03:11	3974968	4	3	3	1	3	0	3	3	3	5	5	2	0	0	0	4	0
110212	08:03:11	10032	Trial2BackFrS	NS	17	0	1000	1	101	08:03:11	3977180	4	3	3	1	3	0	3	3	3	5	5	2	0	0	0	4	0
110212	08:03:11	10032	Trial2BackFrS	YS	17	0	1000	0	101	08:03:11	3978700	4	3	3	1	3	0	3	3	3	5	5	2	0	0	0	4	0
110212	08:03:11	10032	Trial2BackFrS	NS	17	0	1000	1	101	08:03:11	3980206	4	3	3	1	3	0	3	3	3	5	5	2	0	0	0	4	0
110212	08:03:11	10032	Trial2BackFrS	NS	17	0	1000	1	101	08:03:11	3981712	4	3	3	1	3	0	3	3	3	5	5	2	0	0	0	4	0
110212	08:03:11	10032	Trial2BackFrS	NS	17	0	1000	1	101	08:03:11	3983218	4	3	3	1	3	0	3	3	3	5	5	2	0	0	0	4	0
110212	08:03:11	10032	Trial2BackFrS	NS	17	57	551	0	101	08:03:11	3984284	4	3	3	1	3	0	3	3	3	5	5	2	0	0	0	4	0
110212	08:03:11	10032	Trial2BackFrS	NS	17	0	1000	1	101	08:03:11	3986230	4	3	3	1	3	0	3	3	3	5	5	2	0	0	0	4	0
110212	08:03:11	10032	Trial2BackFrS	NS	17	0	1000	1	101	08:03:11	3987736	4	3	3	1	3	0	3	3	3	5	5	2	0	0	0	4	0
110212	08:03:11	10032	Trial2BackFrS	NS	17	0	1000	1	101	08:03:11	3989242	4	3	3	1	3	0	3	3	3	5	5	2	0	0	0	4	0
110212	08:03:11	10032	Trial2BackFrS	NS	17	0	1000	1	101	08:03:11	3990748	4	3	3	1	3	0	3	3	3	5	5	2	0	0	0	4	0
110212	08:03:11	10032	Trial2BackFrS	NS	17	0	1000	1	101	08:03:11	3992254	4	3	3	1	3	0	3	3	3	5	5	2	0	0	0	4	0
110212	08:03:11	10032	Trial2BackFrS	YS	17	57	619	1	101	08:03:11	3993387	4	3	3	1	3	0	3	3	3	5	5	2	0	0	0	4	0
110212	08:03:11	10032	Trial2BackFrS	NS	17	0	1000	1	101	08:03:11	3995266	4	3	3	1	3	0	3	3	3	5	5	2	0	0	0	4	0
110212	08:03:11	10032	ClockFr3mo	ClockFr3mo	19	Clock1	21395	0	101	08:03:11	4016778	4	3	3	1	3	0	3	3	3	5	5	2	1	0	0	4	0
110212	08:03:11	10032	ClockFr3mo	ClockFr3mo	19	Clock11	5790	0	101	08:03:11	4022615	4	3	3	1	3	0	3	3	3	5	5	2	1	1	0	4	0
110212	08:03:11	10032	ClockFr3mo	ClockFr3mo	19	Clock111	9473	0	101	08:03:11	4032145	4	3	3	1	3	0	3	3	3	5	5	2	1	1	1	4	0
110212	08:03:11	10032	ClockFr3mo	ClockFr3mo	19	Clockdone	575	0	101	08:03:11	4032771	4	3	3	1	3	0	3	3	3	5	5	2	1	1	1	4	0
110212	08:03:11	10032	FASFrVF3mo	StopFrVF3mo	20	4	475470	0	101	08:03:11	4595741	4	3	3	1	3	0	3	3	3	5	5	2	1	1	1	4	0
