date	time	subject	blockcode	trialcode	values.TaskNumber	response	latency	correct	values.Score	script.starttime	script.elapsedtime	values.ScoreS7	values.Word1	values.Word2	values.Word3	values.Word4	values.Word5	values.Word6	values.Word7	values.Word8	values.DigitSpanFwrd	values.DigitSpanBack	values.ScoreAbs	values.Contour	values.Numbers	values.Hands	values.corsiblockspanFwrd	values.corsiblockspanRev
112912	08:10:06	10038	Language	Language	0	English	9095	0	0	08:10:06	9214	0	0	0	0	0	0	0	0	0	0	0	0	0	0	0	0	0
112912	08:10:06	10038	Session	Session	0	3mo	711	0	0	08:10:06	9987	0	0	0	0	0	0	0	0	0	0	0	0	0	0	0	0	0
112912	08:10:06	10038	HandEng	HandEng	0	Right	1098	0	0	08:10:06	11147	0	0	0	0	0	0	0	0	0	0	0	0	0	0	0	0	0
112912	08:10:06	10038	CubeEng	CubeEng	1	1Cube	20341	0	0	08:10:06	969108	0	0	0	0	0	0	0	0	0	0	0	0	0	0	0	0	0
112912	08:10:06	10038	pm.simpleEngRight	blank.simpleEng	2	57	1707	0	0	08:10:06	1012490	0	0	0	0	0	0	0	0	0	0	0	0	0	0	0	0	0
112912	08:10:06	10038	pm.simpleEngRight	blank.simpleEng	2	0	1600	1	0	08:10:06	1014103	0	0	0	0	0	0	0	0	0	0	0	0	0	0	0	0	0
112912	08:10:06	10038	pm.simpleEngRight	pm.simpleEng	2	57	562	0	0	08:10:06	1014689	0	0	0	0	0	0	0	0	0	0	0	0	0	0	0	0	0
112912	08:10:06	10038	pm.simpleEngRight	blank.simpleEng	2	0	2100	1	0	08:10:06	1016808	0	0	0	0	0	0	0	0	0	0	0	0	0	0	0	0	0
112912	08:10:06	10038	pm.simpleEngRight	pm.simpleEng	2	57	272	0	0	08:10:06	1017101	0	0	0	0	0	0	0	0	0	0	0	0	0	0	0	0	0
112912	08:10:06	10038	pm.simpleEngRight	blank.simpleEng	2	57	1979	0	0	08:10:06	1020100	0	0	0	0	0	0	0	0	0	0	0	0	0	0	0	0	0
112912	08:10:06	10038	pm.simpleEngRight	blank.simpleEng	2	0	1900	1	0	08:10:06	1022020	0	0	0	0	0	0	0	0	0	0	0	0	0	0	0	0	0
112912	08:10:06	10038	pm.simpleEngRight	pm.simpleEng	2	57	261	0	0	08:10:06	1022299	0	0	0	0	0	0	0	0	0	0	0	0	0	0	0	0	0
112912	08:10:06	10038	pm.simpleEngRight	blank.simpleEng	2	0	2500	1	0	08:10:06	1024818	0	0	0	0	0	0	0	0	0	0	0	0	0	0	0	0	0
112912	08:10:06	10038	pm.simpleEngRight	pm.simpleEng	2	57	230	0	0	08:10:06	1025072	0	0	0	0	0	0	0	0	0	0	0	0	0	0	0	0	0
112912	08:10:06	10038	pm.simpleEngRight	blank.simpleEng	2	0	1700	1	0	08:10:06	1026791	0	0	0	0	0	0	0	0	0	0	0	0	0	0	0	0	0
112912	08:10:06	10038	pm.simpleEngRight	pm.simpleEng	2	57	337	0	0	08:10:06	1027151	0	0	0	0	0	0	0	0	0	0	0	0	0	0	0	0	0
112912	08:10:06	10038	pm.simpleEngRight	blank.simpleEng	2	0	2200	1	0	08:10:06	1029363	0	0	0	0	0	0	0	0	0	0	0	0	0	0	0	0	0
112912	08:10:06	10038	pm.simpleEngRight	pm.simpleEng	2	57	181	0	0	08:10:06	1029563	0	0	0	0	0	0	0	0	0	0	0	0	0	0	0	0	0
112912	08:10:06	10038	pm.simpleEngRight	blank.simpleEng	2	0	2300	1	0	08:10:06	1031882	0	0	0	0	0	0	0	0	0	0	0	0	0	0	0	0	0
112912	08:10:06	10038	pm.simpleEngRight	pm.simpleEng	2	57	254	0	0	08:10:06	1032162	0	0	0	0	0	0	0	0	0	0	0	0	0	0	0	0	0
112912	08:10:06	10038	pm.simpleEngRight	blank.simpleEng	2	0	2000	1	0	08:10:06	1034174	0	0	0	0	0	0	0	0	0	0	0	0	0	0	0	0	0
112912	08:10:06	10038	pm.simpleEngRight	pm.simpleEng	2	57	224	0	0	08:10:06	1034441	0	0	0	0	0	0	0	0	0	0	0	0	0	0	0	0	0
112912	08:10:06	10038	pm.simpleEngRight	blank.simpleEng	2	0	1500	1	0	08:10:06	1035960	0	0	0	0	0	0	0	0	0	0	0	0	0	0	0	0	0
112912	08:10:06	10038	pm.simpleEngRight	pm.simpleEng	2	57	320	0	0	08:10:06	1036307	0	0	0	0	0	0	0	0	0	0	0	0	0	0	0	0	0
112912	08:10:06	10038	pm.simpleEngRight	blank.simpleEng	2	0	1700	1	0	08:10:06	1038026	0	0	0	0	0	0	0	0	0	0	0	0	0	0	0	0	0
112912	08:10:06	10038	pm.simpleEngRight	pm.simpleEng	2	57	206	0	0	08:10:06	1038253	0	0	0	0	0	0	0	0	0	0	0	0	0	0	0	0	0
112912	08:10:06	10038	pm.simpleEngRight	blank.simpleEng	2	57	1771	0	0	08:10:06	1041052	0	0	0	0	0	0	0	0	0	0	0	0	0	0	0	0	0
112912	08:10:06	10038	pm.simpleEngRight	blank.simpleEng	2	0	1900	1	0	08:10:06	1042971	0	0	0	0	0	0	0	0	0	0	0	0	0	0	0	0	0
112912	08:10:06	10038	pm.simpleEngRight	pm.simpleEng	2	57	331	0	0	08:10:06	1043331	0	0	0	0	0	0	0	0	0	0	0	0	0	0	0	0	0
112912	08:10:06	10038	pm.simpleEngRight	blank.simpleEng	2	0	1500	1	0	08:10:06	1044850	0	0	0	0	0	0	0	0	0	0	0	0	0	0	0	0	0
112912	08:10:06	10038	pm.simpleEngRight	pm.simpleEng	2	57	358	0	0	08:10:06	1045237	0	0	0	0	0	0	0	0	0	0	0	0	0	0	0	0	0
112912	08:10:06	10038	pm.simpleEngRight	blank.simpleEng	2	0	2100	1	0	08:10:06	1047356	0	0	0	0	0	0	0	0	0	0	0	0	0	0	0	0	0
112912	08:10:06	10038	pm.simpleEngRight	pm.simpleEng	2	57	314	0	0	08:10:06	1047689	0	0	0	0	0	0	0	0	0	0	0	0	0	0	0	0	0
112912	08:10:06	10038	pm.simpleEngRight	blank.simpleEng	2	0	2000	1	0	08:10:06	1049701	0	0	0	0	0	0	0	0	0	0	0	0	0	0	0	0	0
112912	08:10:06	10038	pm.simpleEngRight	pm.simpleEng	2	57	290	0	0	08:10:06	1050008	0	0	0	0	0	0	0	0	0	0	0	0	0	0	0	0	0
112912	08:10:06	10038	pm.simpleEngRight	blank.simpleEng	2	0	2200	1	0	08:10:06	1052234	0	0	0	0	0	0	0	0	0	0	0	0	0	0	0	0	0
112912	08:10:06	10038	pm.simpleEngRight	pm.simpleEng	2	57	286	0	0	08:10:06	1052540	0	0	0	0	0	0	0	0	0	0	0	0	0	0	0	0	0
112912	08:10:06	10038	pm.simpleEngRight	blank.simpleEng	2	0	2400	1	0	08:10:06	1054952	0	0	0	0	0	0	0	0	0	0	0	0	0	0	0	0	0
112912	08:10:06	10038	pm.simpleEngRight	pm.simpleEng	2	57	270	0	0	08:10:06	1055246	0	0	0	0	0	0	0	0	0	0	0	0	0	0	0	0	0
112912	08:10:06	10038	pm.simpleEngRight	blank.simpleEng	2	0	2300	1	0	08:10:06	1057565	0	0	0	0	0	0	0	0	0	0	0	0	0	0	0	0	0
112912	08:10:06	10038	pm.simpleEngRight	pm.simpleEng	2	57	282	0	0	08:10:06	1057871	0	0	0	0	0	0	0	0	0	0	0	0	0	0	0	0	0
112912	08:10:06	10038	pm.simpleEngRight	blank.simpleEng	2	0	1600	1	0	08:10:06	1059484	0	0	0	0	0	0	0	0	0	0	0	0	0	0	0	0	0
112912	08:10:06	10038	pm.simpleEngRight	pm.simpleEng	2	57	315	0	0	08:10:06	1059817	0	0	0	0	0	0	0	0	0	0	0	0	0	0	0	0	0
112912	08:10:06	10038	pm.simpleEngRight	blank.simpleEng	2	0	2500	1	0	08:10:06	1062336	0	0	0	0	0	0	0	0	0	0	0	0	0	0	0	0	0
112912	08:10:06	10038	pm.simpleEngRight	pm.simpleEng	2	57	278	0	0	08:10:06	1062643	0	0	0	0	0	0	0	0	0	0	0	0	0	0	0	0	0
112912	08:10:06	10038	pm.simpleEngRight	blank.simpleEng	2	0	1700	1	0	08:10:06	1064362	0	0	0	0	0	0	0	0	0	0	0	0	0	0	0	0	0
112912	08:10:06	10038	pm.simpleEngRight	pm.simpleEng	2	57	364	0	0	08:10:06	1064748	0	0	0	0	0	0	0	0	0	0	0	0	0	0	0	0	0
112912	08:10:06	10038	pm.simpleEngRight	blank.simpleEng	2	0	2400	1	0	08:10:06	1067161	0	0	0	0	0	0	0	0	0	0	0	0	0	0	0	0	0
112912	08:10:06	10038	pm.simpleEngRight	pm.simpleEng	2	57	253	0	0	08:10:06	1067441	0	0	0	0	0	0	0	0	0	0	0	0	0	0	0	0	0
112912	08:10:06	10038	pm.simpleEngRight	blank.simpleEng	2	0	2000	1	0	08:10:06	1069453	0	0	0	0	0	0	0	0	0	0	0	0	0	0	0	0	0
112912	08:10:06	10038	pm.simpleEngRight	pm.simpleEng	2	57	362	0	0	08:10:06	1069840	0	0	0	0	0	0	0	0	0	0	0	0	0	0	0	0	0
112912	08:10:06	10038	pm.simpleEngRight	blank.simpleEng	2	0	1500	1	0	08:10:06	1071359	0	0	0	0	0	0	0	0	0	0	0	0	0	0	0	0	0
112912	08:10:06	10038	pm.simpleEngRight	pm.simpleEng	2	57	454	0	0	08:10:06	1071839	0	0	0	0	0	0	0	0	0	0	0	0	0	0	0	0	0
112912	08:10:06	10038	pm.simpleEngRight	blank.simpleEng	2	0	2200	1	0	08:10:06	1074065	0	0	0	0	0	0	0	0	0	0	0	0	0	0	0	0	0
112912	08:10:06	10038	pm.simpleEngRight	pm.simpleEng	2	57	374	0	0	08:10:06	1074464	0	0	0	0	0	0	0	0	0	0	0	0	0	0	0	0	0
112912	08:10:06	10038	pm.simpleEngRight	blank.simpleEng	2	0	2500	1	0	08:10:06	1076984	0	0	0	0	0	0	0	0	0	0	0	0	0	0	0	0	0
112912	08:10:06	10038	pm.simpleEngRight	pm.simpleEng	2	57	334	0	0	08:10:06	1077343	0	0	0	0	0	0	0	0	0	0	0	0	0	0	0	0	0
112912	08:10:06	10038	pm.simpleEngRight	blank.simpleEng	2	0	2100	1	0	08:10:06	1079462	0	0	0	0	0	0	0	0	0	0	0	0	0	0	0	0	0
112912	08:10:06	10038	pm.simpleEngRight	pm.simpleEng	2	57	432	0	0	08:10:06	1079916	0	0	0	0	0	0	0	0	0	0	0	0	0	0	0	0	0
112912	08:10:06	10038	pm.simpleEngRight	blank.simpleEng	2	0	2300	1	0	08:10:06	1082235	0	0	0	0	0	0	0	0	0	0	0	0	0	0	0	0	0
112912	08:10:06	10038	pm.simpleEngRight	pm.simpleEng	2	57	412	0	0	08:10:06	1082674	0	0	0	0	0	0	0	0	0	0	0	0	0	0	0	0	0
112912	08:10:06	10038	pm.simpleEngRight	blank.simpleEng	2	0	1800	1	0	08:10:06	1084487	0	0	0	0	0	0	0	0	0	0	0	0	0	0	0	0	0
112912	08:10:06	10038	pm.simpleEngRight	pm.simpleEng	2	57	334	0	0	08:10:06	1084847	0	0	0	0	0	0	0	0	0	0	0	0	0	0	0	0	0
112912	08:10:06	10038	pm.simpleEngRight	blank.simpleEng	2	0	1900	1	0	08:10:06	1086766	0	0	0	0	0	0	0	0	0	0	0	0	0	0	0	0	0
112912	08:10:06	10038	pm.simpleEngRight	pm.simpleEng	2	57	314	0	0	08:10:06	1087099	0	0	0	0	0	0	0	0	0	0	0	0	0	0	0	0	0
112912	08:10:06	10038	pm.simpleEngRight	blank.simpleEng	2	0	1600	1	0	08:10:06	1088712	0	0	0	0	0	0	0	0	0	0	0	0	0	0	0	0	0
112912	08:10:06	10038	pm.simpleEngRight	pm.simpleEng	2	57	381	0	0	08:10:06	1089112	0	0	0	0	0	0	0	0	0	0	0	0	0	0	0	0	0
112912	08:10:06	10038	pm.simpleEngRight	blank.simpleEng	2	0	1600	1	0	08:10:06	1090724	0	0	0	0	0	0	0	0	0	0	0	0	0	0	0	0	0
112912	08:10:06	10038	pm.simpleEngRight	pm.simpleEng	2	57	434	0	0	08:10:06	1091178	0	0	0	0	0	0	0	0	0	0	0	0	0	0	0	0	0
112912	08:10:06	10038	pm.simpleEngRight	blank.simpleEng	2	0	2400	1	0	08:10:06	1093603	0	0	0	0	0	0	0	0	0	0	0	0	0	0	0	0	0
112912	08:10:06	10038	pm.simpleEngRight	pm.simpleEng	2	57	340	0	0	08:10:06	1093963	0	0	0	0	0	0	0	0	0	0	0	0	0	0	0	0	0
112912	08:10:06	10038	pm.simpleEngRight	blank.simpleEng	2	0	1500	1	0	08:10:06	1095482	0	0	0	0	0	0	0	0	0	0	0	0	0	0	0	0	0
112912	08:10:06	10038	pm.simpleEngRight	pm.simpleEng	2	57	348	0	0	08:10:06	1095856	0	0	0	0	0	0	0	0	0	0	0	0	0	0	0	0	0
112912	08:10:06	10038	pm.simpleEngRight	blank.simpleEng	2	0	1700	1	0	08:10:06	1097575	0	0	0	0	0	0	0	0	0	0	0	0	0	0	0	0	0
112912	08:10:06	10038	pm.simpleEngRight	pm.simpleEng	2	57	383	0	0	08:10:06	1097975	0	0	0	0	0	0	0	0	0	0	0	0	0	0	0	0	0
112912	08:10:06	10038	pm.simpleEngRight	blank.simpleEng	2	0	1800	1	0	08:10:06	1099788	0	0	0	0	0	0	0	0	0	0	0	0	0	0	0	0	0
112912	08:10:06	10038	pm.simpleEngRight	pm.simpleEng	2	57	394	0	0	08:10:06	1100201	0	0	0	0	0	0	0	0	0	0	0	0	0	0	0	0	0
112912	08:10:06	10038	pm.simpleEngRight	blank.simpleEng	2	0	2300	1	0	08:10:06	1102520	0	0	0	0	0	0	0	0	0	0	0	0	0	0	0	0	0
112912	08:10:06	10038	pm.simpleEngRight	pm.simpleEng	2	57	398	0	0	08:10:06	1102946	0	0	0	0	0	0	0	0	0	0	0	0	0	0	0	0	0
112912	08:10:06	10038	pm.simpleEngRight	blank.simpleEng	2	0	2500	1	0	08:10:06	1105465	0	0	0	0	0	0	0	0	0	0	0	0	0	0	0	0	0
112912	08:10:06	10038	pm.simpleEngRight	pm.simpleEng	2	57	445	0	0	08:10:06	1105931	0	0	0	0	0	0	0	0	0	0	0	0	0	0	0	0	0
112912	08:10:06	10038	pm.simpleEngRight	blank.simpleEng	2	0	2200	1	0	08:10:06	1108144	0	0	0	0	0	0	0	0	0	0	0	0	0	0	0	0	0
112912	08:10:06	10038	pm.simpleEngRight	pm.simpleEng	2	57	277	0	0	08:10:06	1108450	0	0	0	0	0	0	0	0	0	0	0	0	0	0	0	0	0
112912	08:10:06	10038	pm.simpleEngRight	blank.simpleEng	2	0	1900	1	0	08:10:06	1110370	0	0	0	0	0	0	0	0	0	0	0	0	0	0	0	0	0
112912	08:10:06	10038	pm.simpleEngRight	pm.simpleEng	2	57	372	0	0	08:10:06	1110769	0	0	0	0	0	0	0	0	0	0	0	0	0	0	0	0	0
112912	08:10:06	10038	pm.simpleEngRight	blank.simpleEng	2	0	2100	1	0	08:10:06	1112889	0	0	0	0	0	0	0	0	0	0	0	0	0	0	0	0	0
112912	08:10:06	10038	pm.simpleEngRight	pm.simpleEng	2	57	301	0	0	08:10:06	1113208	0	0	0	0	0	0	0	0	0	0	0	0	0	0	0	0	0
112912	08:10:06	10038	Trial2BackEng	N	3	0	1000	1	1	08:10:06	1171584	0	0	0	0	0	0	0	0	0	0	0	0	0	0	0	0	0
112912	08:10:06	10038	Trial2BackEng	N	3	0	1000	1	2	08:10:06	1173090	0	0	0	0	0	0	0	0	0	0	0	0	0	0	0	0	0
112912	08:10:06	10038	Trial2BackEng	N	3	0	1000	1	3	08:10:06	1174596	0	0	0	0	0	0	0	0	0	0	0	0	0	0	0	0	0
112912	08:10:06	10038	Trial2BackEng	N	3	0	1000	1	4	08:10:06	1176102	0	0	0	0	0	0	0	0	0	0	0	0	0	0	0	0	0
112912	08:10:06	10038	Trial2BackEng	N	3	0	1000	1	5	08:10:06	1177622	0	0	0	0	0	0	0	0	0	0	0	0	0	0	0	0	0
112912	08:10:06	10038	Trial2BackEng	N	3	0	1000	1	6	08:10:06	1179128	0	0	0	0	0	0	0	0	0	0	0	0	0	0	0	0	0
112912	08:10:06	10038	Trial2BackEng	N	3	0	1000	1	7	08:10:06	1180647	0	0	0	0	0	0	0	0	0	0	0	0	0	0	0	0	0
112912	08:10:06	10038	Trial2BackEng	N	3	0	1000	1	8	08:10:06	1182153	0	0	0	0	0	0	0	0	0	0	0	0	0	0	0	0	0
112912	08:10:06	10038	Trial2BackEng	Y	3	0	1000	0	8	08:10:06	1183659	0	0	0	0	0	0	0	0	0	0	0	0	0	0	0	0	0
112912	08:10:06	10038	Trial2BackEng	N	3	0	1000	1	9	08:10:06	1185165	0	0	0	0	0	0	0	0	0	0	0	0	0	0	0	0	0
112912	08:10:06	10038	Trial2BackEng	N	3	0	1000	1	10	08:10:06	1186671	0	0	0	0	0	0	0	0	0	0	0	0	0	0	0	0	0
112912	08:10:06	10038	Trial2BackEng	N	3	0	1000	1	11	08:10:06	1188191	0	0	0	0	0	0	0	0	0	0	0	0	0	0	0	0	0
112912	08:10:06	10038	Trial2BackEng	Y	3	0	1000	0	11	08:10:06	1189697	0	0	0	0	0	0	0	0	0	0	0	0	0	0	0	0	0
112912	08:10:06	10038	Trial2BackEng	N	3	0	1000	1	12	08:10:06	1191203	0	0	0	0	0	0	0	0	0	0	0	0	0	0	0	0	0
112912	08:10:06	10038	Trial2BackEng	N	3	0	1000	1	13	08:10:06	1192709	0	0	0	0	0	0	0	0	0	0	0	0	0	0	0	0	0
112912	08:10:06	10038	Trial2BackEng	N	3	0	1000	1	14	08:10:06	1194215	0	0	0	0	0	0	0	0	0	0	0	0	0	0	0	0	0
112912	08:10:06	10038	Trial2BackEng	N	3	0	1000	1	15	08:10:06	1195734	0	0	0	0	0	0	0	0	0	0	0	0	0	0	0	0	0
112912	08:10:06	10038	Trial2BackEng	N	3	0	1000	1	16	08:10:06	1197240	0	0	0	0	0	0	0	0	0	0	0	0	0	0	0	0	0
112912	08:10:06	10038	Trial2BackEng	Y	3	0	1000	0	16	08:10:06	1198746	0	0	0	0	0	0	0	0	0	0	0	0	0	0	0	0	0
112912	08:10:06	10038	Trial2BackEng	N	3	0	1000	1	17	08:10:06	1200252	0	0	0	0	0	0	0	0	0	0	0	0	0	0	0	0	0
112912	08:10:06	10038	Trial2BackEng	N	3	0	1000	1	18	08:10:06	1201758	0	0	0	0	0	0	0	0	0	0	0	0	0	0	0	0	0
112912	08:10:06	10038	Trial2BackEng	N	3	0	1000	1	19	08:10:06	1203264	0	0	0	0	0	0	0	0	0	0	0	0	0	0	0	0	0
112912	08:10:06	10038	Trial2BackEng	N	3	0	1000	1	20	08:10:06	1204770	0	0	0	0	0	0	0	0	0	0	0	0	0	0	0	0	0
112912	08:10:06	10038	Trial2BackEng	Y	3	57	692	1	21	08:10:06	1205983	0	0	0	0	0	0	0	0	0	0	0	0	0	0	0	0	0
112912	08:10:06	10038	Trial2BackEng	N	3	0	1000	1	22	08:10:06	1207782	0	0	0	0	0	0	0	0	0	0	0	0	0	0	0	0	0
112912	08:10:06	10038	Trial2BackEng	N	3	0	1000	1	23	08:10:06	1209289	0	0	0	0	0	0	0	0	0	0	0	0	0	0	0	0	0
112912	08:10:06	10038	Trial2BackEng	N	3	0	1000	1	24	08:10:06	1210795	0	0	0	0	0	0	0	0	0	0	0	0	0	0	0	0	0
112912	08:10:06	10038	Trial2BackEng	N	3	0	1000	1	25	08:10:06	1212314	0	0	0	0	0	0	0	0	0	0	0	0	0	0	0	0	0
112912	08:10:06	10038	Trial2BackEng	N	3	0	1000	1	26	08:10:06	1213820	0	0	0	0	0	0	0	0	0	0	0	0	0	0	0	0	0
112912	08:10:06	10038	Trial2BackEng	N	3	0	1000	1	27	08:10:06	1215326	0	0	0	0	0	0	0	0	0	0	0	0	0	0	0	0	0
112912	08:10:06	10038	Trial2BackEng	Y	3	0	1000	0	27	08:10:06	1216832	0	0	0	0	0	0	0	0	0	0	0	0	0	0	0	0	0
112912	08:10:06	10038	Trial2BackEng	N	3	0	1000	1	28	08:10:06	1218338	0	0	0	0	0	0	0	0	0	0	0	0	0	0	0	0	0
112912	08:10:06	10038	Trial2BackEng	N	3	0	1000	1	29	08:10:06	1219844	0	0	0	0	0	0	0	0	0	0	0	0	0	0	0	0	0
112912	08:10:06	10038	Trial2BackEng	N	3	0	1000	1	30	08:10:06	1221350	0	0	0	0	0	0	0	0	0	0	0	0	0	0	0	0	0
112912	08:10:06	10038	Trial2BackEng	Y	3	57	592	1	31	08:10:06	1222456	0	0	0	0	0	0	0	0	0	0	0	0	0	0	0	0	0
112912	08:10:06	10038	Trial2BackEng	N	3	0	1000	1	32	08:10:06	1224362	0	0	0	0	0	0	0	0	0	0	0	0	0	0	0	0	0
112912	08:10:06	10038	Trial2BackEng	N	3	0	1000	1	33	08:10:06	1225868	0	0	0	0	0	0	0	0	0	0	0	0	0	0	0	0	0
112912	08:10:06	10038	Trial2BackEng	N	3	0	1000	1	34	08:10:06	1227374	0	0	0	0	0	0	0	0	0	0	0	0	0	0	0	0	0
112912	08:10:06	10038	Trial2BackEng	N	3	0	1000	1	35	08:10:06	1228880	0	0	0	0	0	0	0	0	0	0	0	0	0	0	0	0	0
112912	08:10:06	10038	Trial2BackEng	N	3	0	1000	1	36	08:10:06	1230386	0	0	0	0	0	0	0	0	0	0	0	0	0	0	0	0	0
112912	08:10:06	10038	Trial2BackEng	N	3	0	1000	1	37	08:10:06	1231893	0	0	0	0	0	0	0	0	0	0	0	0	0	0	0	0	0
112912	08:10:06	10038	Trial2BackEng	Y	3	0	1000	0	37	08:10:06	1233399	0	0	0	0	0	0	0	0	0	0	0	0	0	0	0	0	0
112912	08:10:06	10038	Trial2BackEng	N	3	0	1000	1	38	08:10:06	1234905	0	0	0	0	0	0	0	0	0	0	0	0	0	0	0	0	0
112912	08:10:06	10038	Trial2BackEng	N	3	0	1000	1	39	08:10:06	1236411	0	0	0	0	0	0	0	0	0	0	0	0	0	0	0	0	0
112912	08:10:06	10038	Trial2BackEng	N	3	57	715	0	39	08:10:06	1237637	0	0	0	0	0	0	0	0	0	0	0	0	0	0	0	0	0
112912	08:10:06	10038	Trial2BackEng	N	3	0	1000	1	40	08:10:06	1239423	0	0	0	0	0	0	0	0	0	0	0	0	0	0	0	0	0
112912	08:10:06	10038	Trial2BackEng	Y	3	0	1000	0	40	08:10:06	1240929	0	0	0	0	0	0	0	0	0	0	0	0	0	0	0	0	0
112912	08:10:06	10038	Trial2BackEng	N	3	0	1000	1	41	08:10:06	1242435	0	0	0	0	0	0	0	0	0	0	0	0	0	0	0	0	0
112912	08:10:06	10038	Trial2BackEng	N	3	0	1000	1	42	08:10:06	1243941	0	0	0	0	0	0	0	0	0	0	0	0	0	0	0	0	0
112912	08:10:06	10038	Trial2BackEng	N	3	0	1000	1	43	08:10:06	1245447	0	0	0	0	0	0	0	0	0	0	0	0	0	0	0	0	0
112912	08:10:06	10038	Trial2BackEng	N	3	0	1000	1	44	08:10:06	1246953	0	0	0	0	0	0	0	0	0	0	0	0	0	0	0	0	0
112912	08:10:06	10038	Trial2BackEng	N	3	0	1000	1	45	08:10:06	1248459	0	0	0	0	0	0	0	0	0	0	0	0	0	0	0	0	0
112912	08:10:06	10038	Trial2BackEng	Y	3	0	1000	0	45	08:10:06	1249965	0	0	0	0	0	0	0	0	0	0	0	0	0	0	0	0	0
112912	08:10:06	10038	Trial2BackEng	N	3	0	1000	1	46	08:10:06	1251485	0	0	0	0	0	0	0	0	0	0	0	0	0	0	0	0	0
112912	08:10:06	10038	Trial2BackEng	N	3	0	1000	1	47	08:10:06	1252990	0	0	0	0	0	0	0	0	0	0	0	0	0	0	0	0	0
112912	08:10:06	10038	Trial2BackEng	N	3	0	1000	1	48	08:10:06	1254496	0	0	0	0	0	0	0	0	0	0	0	0	0	0	0	0	0
112912	08:10:06	10038	Trial2BackEng	N	3	0	1000	1	49	08:10:06	1256002	0	0	0	0	0	0	0	0	0	0	0	0	0	0	0	0	0
112912	08:10:06	10038	Trial2BackEng	N	3	0	1000	1	50	08:10:06	1257509	0	0	0	0	0	0	0	0	0	0	0	0	0	0	0	0	0
112912	08:10:06	10038	Trial2BackEng	N	3	57	704	0	50	08:10:06	1258721	0	0	0	0	0	0	0	0	0	0	0	0	0	0	0	0	0
112912	08:10:06	10038	Trial2BackEng	Y	3	0	1000	0	50	08:10:06	1260521	0	0	0	0	0	0	0	0	0	0	0	0	0	0	0	0	0
112912	08:10:06	10038	Trial2BackEng	N	3	0	1000	1	51	08:10:06	1262027	0	0	0	0	0	0	0	0	0	0	0	0	0	0	0	0	0
112912	08:10:06	10038	Trial2BackEng	N	3	0	1000	1	52	08:10:06	1263533	0	0	0	0	0	0	0	0	0	0	0	0	0	0	0	0	0
112912	08:10:06	10038	Trial2BackEng	Y	3	0	1000	0	52	08:10:06	1265039	0	0	0	0	0	0	0	0	0	0	0	0	0	0	0	0	0
112912	08:10:06	10038	Trial2BackEng	N	3	0	1000	1	53	08:10:06	1266545	0	0	0	0	0	0	0	0	0	0	0	0	0	0	0	0	0
112912	08:10:06	10038	Trial2BackEng	N	3	0	1000	1	54	08:10:06	1268051	0	0	0	0	0	0	0	0	0	0	0	0	0	0	0	0	0
112912	08:10:06	10038	Trial2BackEng	N	3	0	1000	1	55	08:10:06	1269557	0	0	0	0	0	0	0	0	0	0	0	0	0	0	0	0	0
112912	08:10:06	10038	Trial2BackEng	N	3	0	1000	1	56	08:10:06	1271063	0	0	0	0	0	0	0	0	0	0	0	0	0	0	0	0	0
112912	08:10:06	10038	Trial2BackEng	N	3	0	1000	1	57	08:10:06	1272569	0	0	0	0	0	0	0	0	0	0	0	0	0	0	0	0	0
112912	08:10:06	10038	Trial2BackEng	N	3	0	1000	1	58	08:10:06	1274075	0	0	0	0	0	0	0	0	0	0	0	0	0	0	0	0	0
112912	08:10:06	10038	Trial2BackEng	N	3	0	1000	1	59	08:10:06	1275581	0	0	0	0	0	0	0	0	0	0	0	0	0	0	0	0	0
112912	08:10:06	10038	Trial2BackEng	N	3	0	1000	1	60	08:10:06	1277087	0	0	0	0	0	0	0	0	0	0	0	0	0	0	0	0	0
112912	08:10:06	10038	Trial2BackEng	N	3	0	1000	1	61	08:10:06	1278593	0	0	0	0	0	0	0	0	0	0	0	0	0	0	0	0	0
112912	08:10:06	10038	Trial2BackEng	N	3	0	1000	1	62	08:10:06	1280099	0	0	0	0	0	0	0	0	0	0	0	0	0	0	0	0	0
112912	08:10:06	10038	Trial2BackEng	Y	3	0	1000	0	62	08:10:06	1281605	0	0	0	0	0	0	0	0	0	0	0	0	0	0	0	0	0
112912	08:10:06	10038	Trial2BackEng	N	3	0	1000	1	63	08:10:06	1283111	0	0	0	0	0	0	0	0	0	0	0	0	0	0	0	0	0
112912	08:10:06	10038	Trial2BackEng	N	3	0	1000	1	64	08:10:06	1284617	0	0	0	0	0	0	0	0	0	0	0	0	0	0	0	0	0
112912	08:10:06	10038	Trial2BackEng	N	3	0	1000	1	65	08:10:06	1286123	0	0	0	0	0	0	0	0	0	0	0	0	0	0	0	0	0
112912	08:10:06	10038	Trial2BackEng	Y	3	57	921	1	66	08:10:06	1287563	0	0	0	0	0	0	0	0	0	0	0	0	0	0	0	0	0
112912	08:10:06	10038	Trial2BackEng	N	3	0	1000	1	67	08:10:06	1289135	0	0	0	0	0	0	0	0	0	0	0	0	0	0	0	0	0
112912	08:10:06	10038	Trial2BackEng	N	3	0	1000	1	68	08:10:06	1290641	0	0	0	0	0	0	0	0	0	0	0	0	0	0	0	0	0
112912	08:10:06	10038	Trial2BackEng	N	3	0	1000	1	69	08:10:06	1292147	0	0	0	0	0	0	0	0	0	0	0	0	0	0	0	0	0
112912	08:10:06	10038	Trial2BackEng	N	3	0	1000	1	70	08:10:06	1293653	0	0	0	0	0	0	0	0	0	0	0	0	0	0	0	0	0
112912	08:10:06	10038	Trial2BackEng	N	3	0	1000	1	71	08:10:06	1295173	0	0	0	0	0	0	0	0	0	0	0	0	0	0	0	0	0
112912	08:10:06	10038	Trial2BackEng	Y	3	57	911	1	72	08:10:06	1296599	0	0	0	0	0	0	0	0	0	0	0	0	0	0	0	0	0
112912	08:10:06	10038	Trial2BackEng	N	3	0	1000	1	73	08:10:06	1298185	0	0	0	0	0	0	0	0	0	0	0	0	0	0	0	0	0
112912	08:10:06	10038	Trial2BackEng	N	3	0	1000	1	74	08:10:06	1299691	0	0	0	0	0	0	0	0	0	0	0	0	0	0	0	0	0
112912	08:10:06	10038	Trial2BackEng	N	3	0	1000	1	75	08:10:06	1301210	0	0	0	0	0	0	0	0	0	0	0	0	0	0	0	0	0
112912	08:10:06	10038	Trial2BackEng	N	3	0	1000	1	76	08:10:06	1302716	0	0	0	0	0	0	0	0	0	0	0	0	0	0	0	0	0
112912	08:10:06	10038	Trial2BackEng	N	3	0	1000	1	77	08:10:06	1304222	0	0	0	0	0	0	0	0	0	0	0	0	0	0	0	0	0
112912	08:10:06	10038	Trial2BackEng	N	3	0	1000	1	78	08:10:06	1305728	0	0	0	0	0	0	0	0	0	0	0	0	0	0	0	0	0
112912	08:10:06	10038	Trial2BackEng	N	3	0	1000	1	79	08:10:06	1307234	0	0	0	0	0	0	0	0	0	0	0	0	0	0	0	0	0
112912	08:10:06	10038	Trial2BackEng	N	3	57	673	0	79	08:10:06	1308421	0	0	0	0	0	0	0	0	0	0	0	0	0	0	0	0	0
112912	08:10:06	10038	Trial2BackEng	N	3	0	1000	1	80	08:10:06	1310247	0	0	0	0	0	0	0	0	0	0	0	0	0	0	0	0	0
112912	08:10:06	10038	Trial2BackEng	Y	3	0	1000	0	80	08:10:06	1311753	0	0	0	0	0	0	0	0	0	0	0	0	0	0	0	0	0
112912	08:10:06	10038	Trial2BackEng	N	3	0	1000	1	81	08:10:06	1313272	0	0	0	0	0	0	0	0	0	0	0	0	0	0	0	0	0
112912	08:10:06	10038	Trial2BackEng	N	3	0	1000	1	82	08:10:06	1314778	0	0	0	0	0	0	0	0	0	0	0	0	0	0	0	0	0
112912	08:10:06	10038	Trial2BackEng	N	3	0	1000	1	83	08:10:06	1316284	0	0	0	0	0	0	0	0	0	0	0	0	0	0	0	0	0
112912	08:10:06	10038	Trial2BackEng	N	3	0	1000	1	84	08:10:06	1317790	0	0	0	0	0	0	0	0	0	0	0	0	0	0	0	0	0
112912	08:10:06	10038	Trial2BackEng	N	3	0	1000	1	85	08:10:06	1319296	0	0	0	0	0	0	0	0	0	0	0	0	0	0	0	0	0
112912	08:10:06	10038	Trial2BackEng	N	3	0	1000	1	86	08:10:06	1320815	0	0	0	0	0	0	0	0	0	0	0	0	0	0	0	0	0
112912	08:10:06	10038	Trial2BackEng	N	3	0	1000	1	87	08:10:06	1322322	0	0	0	0	0	0	0	0	0	0	0	0	0	0	0	0	0
112912	08:10:06	10038	Trial2BackEng	N	3	0	1000	1	88	08:10:06	1323828	0	0	0	0	0	0	0	0	0	0	0	0	0	0	0	0	0
112912	08:10:06	10038	Trial2BackEng	Y	3	0	1000	0	88	08:10:06	1325334	0	0	0	0	0	0	0	0	0	0	0	0	0	0	0	0	0
112912	08:10:06	10038	Trial2BackEng	N	3	0	1000	1	89	08:10:06	1326840	0	0	0	0	0	0	0	0	0	0	0	0	0	0	0	0	0
112912	08:10:06	10038	Trial2BackEng	N	3	0	1000	1	90	08:10:06	1328346	0	0	0	0	0	0	0	0	0	0	0	0	0	0	0	0	0
112912	08:10:06	10038	Trial2BackEng	N	3	0	1000	1	91	08:10:06	1329852	0	0	0	0	0	0	0	0	0	0	0	0	0	0	0	0	0
112912	08:10:06	10038	Trial2BackEng	N	3	0	1000	1	92	08:10:06	1331371	0	0	0	0	0	0	0	0	0	0	0	0	0	0	0	0	0
112912	08:10:06	10038	Trial2BackEng	Y	3	57	759	1	93	08:10:06	1332651	0	0	0	0	0	0	0	0	0	0	0	0	0	0	0	0	0
112912	08:10:06	10038	Trial2BackEng	N	3	0	1000	1	94	08:10:06	1334383	0	0	0	0	0	0	0	0	0	0	0	0	0	0	0	0	0
112912	08:10:06	10038	Trial2BackEng	N	3	0	1000	1	95	08:10:06	1335889	0	0	0	0	0	0	0	0	0	0	0	0	0	0	0	0	0
112912	08:10:06	10038	Trial2BackEng	N	3	0	1000	1	96	08:10:06	1337395	0	0	0	0	0	0	0	0	0	0	0	0	0	0	0	0	0
112912	08:10:06	10038	Trial2BackEng	Y	3	57	735	1	97	08:10:06	1338648	0	0	0	0	0	0	0	0	0	0	0	0	0	0	0	0	0
112912	08:10:06	10038	Trial2BackEng	N	3	0	1000	1	98	08:10:06	1340407	0	0	0	0	0	0	0	0	0	0	0	0	0	0	0	0	0
112912	08:10:06	10038	Trial2BackEng	N	3	0	1000	1	99	08:10:06	1341913	0	0	0	0	0	0	0	0	0	0	0	0	0	0	0	0	0
112912	08:10:06	10038	Trial2BackEng	N	3	0	1000	1	100	08:10:06	1343419	0	0	0	0	0	0	0	0	0	0	0	0	0	0	0	0	0
112912	08:10:06	10038	Trial2BackEng	N	3	0	1000	1	101	08:10:06	1344925	0	0	0	0	0	0	0	0	0	0	0	0	0	0	0	0	0
112912	08:10:06	10038	Trial2BackEng	N	3	57	644	0	101	08:10:06	1346085	0	0	0	0	0	0	0	0	0	0	0	0	0	0	0	0	0
112912	08:10:06	10038	Trial2BackEng	Y	3	0	1000	0	101	08:10:06	1347938	0	0	0	0	0	0	0	0	0	0	0	0	0	0	0	0	0
112912	08:10:06	10038	Trial2BackEng	N	3	0	1000	1	102	08:10:06	1349444	0	0	0	0	0	0	0	0	0	0	0	0	0	0	0	0	0
112912	08:10:06	10038	Trial2BackEng	N	3	0	1000	1	103	08:10:06	1350963	0	0	0	0	0	0	0	0	0	0	0	0	0	0	0	0	0
112912	08:10:06	10038	Trial2BackEng	N	3	0	1000	1	104	08:10:06	1352469	0	0	0	0	0	0	0	0	0	0	0	0	0	0	0	0	0
112912	08:10:06	10038	Trial2BackEng	Y	3	57	717	1	105	08:10:06	1353695	0	0	0	0	0	0	0	0	0	0	0	0	0	0	0	0	0
112912	08:10:06	10038	Memory1R3mo	Score	5	M1	17050	0	105	08:10:06	1406020	0	0	0	0	0	0	0	0	0	0	0	0	0	0	0	0	0
112912	08:10:06	10038	Memory1R3mo	Score	5	M3	1670	0	105	08:10:06	1407740	0	0	0	0	0	0	0	0	0	0	0	0	0	0	0	0	0
112912	08:10:06	10038	Memory1R3mo	Score	5	M4	175	0	105	08:10:06	1407967	0	0	0	0	0	0	0	0	0	0	0	0	0	0	0	0	0
112912	08:10:06	10038	Memory1R3mo	Score	5	M6	1959	0	105	08:10:06	1409992	0	0	0	0	0	0	0	0	0	0	0	0	0	0	0	0	0
112912	08:10:06	10038	Memory1R3mo	Score	5	M8	1362	0	105	08:10:06	1411405	0	0	0	0	0	0	0	0	0	0	0	0	0	0	0	0	0
112912	08:10:06	10038	Memory1R3mo	Score	5	Done	1910	0	105	08:10:06	1413364	0	0	0	0	0	0	0	0	0	0	0	0	0	0	0	0	0
112912	08:10:06	10038	Memory2R3mo	Score2	5	11	20687	0	105	08:10:06	1453267	0	0	0	0	0	0	0	0	0	0	0	0	0	0	0	0	0
112912	08:10:06	10038	Memory2R3mo	Score2	5	22	159	0	105	08:10:06	1453494	0	0	0	0	0	0	0	0	0	0	0	0	0	0	0	0	0
112912	08:10:06	10038	Memory2R3mo	Score2	5	33	243	0	105	08:10:06	1453787	0	0	0	0	0	0	0	0	0	0	0	0	0	0	0	0	0
112912	08:10:06	10038	Memory2R3mo	Score2	5	44	210	0	105	08:10:06	1454054	0	0	0	0	0	0	0	0	0	0	0	0	0	0	0	0	0
112912	08:10:06	10038	Memory2R3mo	Score2	5	55	182	0	105	08:10:06	1454293	0	0	0	0	0	0	0	0	0	0	0	0	0	0	0	0	0
112912	08:10:06	10038	Memory2R3mo	Score2	5	66	197	0	105	08:10:06	1454560	0	0	0	0	0	0	0	0	0	0	0	0	0	0	0	0	0
112912	08:10:06	10038	Memory2R3mo	Score2	5	77	192	0	105	08:10:06	1454800	0	0	0	0	0	0	0	0	0	0	0	0	0	0	0	0	0
112912	08:10:06	10038	Memory2R3mo	Score2	5	Done	729	0	105	08:10:06	1455573	0	0	0	0	0	0	0	0	0	0	0	0	0	0	0	0	0
112912	08:10:06	10038	Memory3R3mo	Score3	5	111	13027	0	105	08:10:06	1487400	0	0	0	0	0	0	0	0	0	0	0	0	0	0	0	0	0
112912	08:10:06	10038	Memory3R3mo	Score3	5	222	231	0	105	08:10:06	1487680	0	0	0	0	0	0	0	0	0	0	0	0	0	0	0	0	0
112912	08:10:06	10038	Memory3R3mo	Score3	5	333	226	0	105	08:10:06	1487973	0	0	0	0	0	0	0	0	0	0	0	0	0	0	0	0	0
112912	08:10:06	10038	Memory3R3mo	Score3	5	555	226	0	105	08:10:06	1488253	0	0	0	0	0	0	0	0	0	0	0	0	0	0	0	0	0
112912	08:10:06	10038	Memory3R3mo	Score3	5	444	331	0	105	08:10:06	1488639	0	0	0	0	0	0	0	0	0	0	0	0	0	0	0	0	0
112912	08:10:06	10038	Memory3R3mo	Score3	5	777	336	0	105	08:10:06	1489026	0	0	0	0	0	0	0	0	0	0	0	0	0	0	0	0	0
112912	08:10:06	10038	Memory3R3mo	Score3	5	666	318	0	105	08:10:06	1489399	0	0	0	0	0	0	0	0	0	0	0	0	0	0	0	0	0
112912	08:10:06	10038	Memory3R3mo	Score3	5	888	480	0	105	08:10:06	1489932	0	0	0	0	0	0	0	0	0	0	0	0	0	0	0	0	0
112912	08:10:06	10038	Memory3R3mo	Score3	5	Done	275	0	105	08:10:06	1490252	0	0	0	0	0	0	0	0	0	0	0	0	0	0	0	0	0
112912	08:10:06	10038	LoriaEngLH3	Stop	6	5	2796	0	105	08:10:06	1548096	0	0	0	0	0	0	0	0	0	0	0	0	0	0	0	0	0
112912	08:10:06	10038	EngTrail	Trails	7	1Trails	4206	0	105	08:10:06	1576803	0	0	0	0	0	0	0	0	0	0	0	0	0	0	0	0	0
112912	08:10:06	10038	Serial7Eng3mo	Serial7Eng3mo	8	83	4058	0	105	08:10:06	1602966	1	0	0	0	0	0	0	0	0	0	0	0	0	0	0	0	0
112912	08:10:06	10038	Serial7Eng3mo	Serial7Eng3mo	8	77	5296	0	105	08:10:06	1608285	1	0	0	0	0	0	0	0	0	0	0	0	0	0	0	0	0
112912	08:10:06	10038	Serial7Eng3mo	Serial7Eng3mo	8	71	3602	0	105	08:10:06	1611910	1	0	0	0	0	0	0	0	0	0	0	0	0	0	0	0	0
112912	08:10:06	10038	Serial7Eng3mo	Serial7Eng3mo	8	65	6427	0	105	08:10:06	1618361	1	0	0	0	0	0	0	0	0	0	0	0	0	0	0	0	0
112912	08:10:06	10038	Serial7Eng3mo	Serial7Eng3mo	8	58	11711	0	105	08:10:06	1630092	2	0	0	0	0	0	0	0	0	0	0	0	0	0	0	0	0
112912	08:10:06	10038	corsiblockEngFwrd	recallseqEngFwrd	9	doneCorsiEng	5271	0	105	08:10:06	1694771	2	0	0	0	0	0	0	0	0	0	0	0	0	0	0	0	0
112912	08:10:06	10038	corsiblockEngFwrd	recallseqEngFwrd	9	3	1323	0	105	08:10:06	1701181	2	0	0	0	0	0	0	0	0	0	0	0	0	0	0	0	0
112912	08:10:06	10038	corsiblockEngFwrd	recallseqEngFwrd	9	9	1014	0	105	08:10:06	1702248	2	0	0	0	0	0	0	0	0	0	0	0	0	0	0	0	0
112912	08:10:06	10038	corsiblockEngFwrd	recallseqEngFwrd	9	doneCorsiEng	2820	0	105	08:10:06	1705113	2	0	0	0	0	0	0	0	0	0	0	0	0	0	0	2	0
112912	08:10:06	10038	corsiblockEngFwrd	recallseqEngFwrd	9	8	804	0	105	08:10:06	1711044	2	0	0	0	0	0	0	0	0	0	0	0	0	0	0	2	0
112912	08:10:06	10038	corsiblockEngFwrd	recallseqEngFwrd	9	6	1127	0	105	08:10:06	1712217	2	0	0	0	0	0	0	0	0	0	0	0	0	0	0	2	0
112912	08:10:06	10038	corsiblockEngFwrd	recallseqEngFwrd	9	1	1042	0	105	08:10:06	1713310	2	0	0	0	0	0	0	0	0	0	0	0	0	0	0	2	0
112912	08:10:06	10038	corsiblockEngFwrd	recallseqEngFwrd	9	doneCorsiEng	1677	0	105	08:10:06	1715042	2	0	0	0	0	0	0	0	0	0	0	0	0	0	0	3	0
112912	08:10:06	10038	corsiblockEngFwrd	recallseqEngFwrd	9	5	603	0	105	08:10:06	1722773	2	0	0	0	0	0	0	0	0	0	0	0	0	0	0	3	0
112912	08:10:06	10038	corsiblockEngFwrd	recallseqEngFwrd	9	7	566	0	105	08:10:06	1723386	2	0	0	0	0	0	0	0	0	0	0	0	0	0	0	3	0
112912	08:10:06	10038	corsiblockEngFwrd	recallseqEngFwrd	9	2	513	0	105	08:10:06	1723945	2	0	0	0	0	0	0	0	0	0	0	0	0	0	0	3	0
112912	08:10:06	10038	corsiblockEngFwrd	recallseqEngFwrd	9	1	977	0	105	08:10:06	1724972	2	0	0	0	0	0	0	0	0	0	0	0	0	0	0	3	0
112912	08:10:06	10038	corsiblockEngFwrd	recallseqEngFwrd	9	doneCorsiEng	1191	0	105	08:10:06	1726211	2	0	0	0	0	0	0	0	0	0	0	0	0	0	0	3	0
112912	08:10:06	10038	corsiblockEngFwrd	recallseqEngFwrd	9	5	570	0	105	08:10:06	1733875	2	0	0	0	0	0	0	0	0	0	0	0	0	0	0	3	0
112912	08:10:06	10038	corsiblockEngFwrd	recallseqEngFwrd	9	9	992	0	105	08:10:06	1734914	2	0	0	0	0	0	0	0	0	0	0	0	0	0	0	3	0
112912	08:10:06	10038	corsiblockEngFwrd	recallseqEngFwrd	9	3	632	0	105	08:10:06	1735594	2	0	0	0	0	0	0	0	0	0	0	0	0	0	0	3	0
112912	08:10:06	10038	corsiblockEngFwrd	recallseqEngFwrd	9	6	657	0	105	08:10:06	1736300	2	0	0	0	0	0	0	0	0	0	0	0	0	0	0	3	0
112912	08:10:06	10038	corsiblockEngFwrd	recallseqEngFwrd	9	doneCorsiEng	886	0	105	08:10:06	1737233	2	0	0	0	0	0	0	0	0	0	0	0	0	0	0	4	0
112912	08:10:06	10038	corsiblockEngFwrd	recallseqEngFwrd	9	7	1353	0	105	08:10:06	1745710	2	0	0	0	0	0	0	0	0	0	0	0	0	0	0	4	0
112912	08:10:06	10038	corsiblockEngFwrd	recallseqEngFwrd	9	8	540	0	105	08:10:06	1746296	2	0	0	0	0	0	0	0	0	0	0	0	0	0	0	4	0
112912	08:10:06	10038	corsiblockEngFwrd	recallseqEngFwrd	9	4	1338	0	105	08:10:06	1747682	2	0	0	0	0	0	0	0	0	0	0	0	0	0	0	4	0
112912	08:10:06	10038	corsiblockEngFwrd	recallseqEngFwrd	9	9	1088	0	105	08:10:06	1748815	2	0	0	0	0	0	0	0	0	0	0	0	0	0	0	4	0
112912	08:10:06	10038	corsiblockEngFwrd	recallseqEngFwrd	9	8	1003	0	105	08:10:06	1749868	2	0	0	0	0	0	0	0	0	0	0	0	0	0	0	4	0
112912	08:10:06	10038	corsiblockEngFwrd	recallseqEngFwrd	9	doneCorsiEng	918	0	105	08:10:06	1750841	2	0	0	0	0	0	0	0	0	0	0	0	0	0	0	5	0
112912	08:10:06	10038	corsiblockEngFwrd	recallseqEngFwrd	9	2	1199	0	105	08:10:06	1761183	2	0	0	0	0	0	0	0	0	0	0	0	0	0	0	5	0
112912	08:10:06	10038	corsiblockEngFwrd	recallseqEngFwrd	9	7	546	0	105	08:10:06	1761783	2	0	0	0	0	0	0	0	0	0	0	0	0	0	0	5	0
112912	08:10:06	10038	corsiblockEngFwrd	recallseqEngFwrd	9	3	1051	0	105	08:10:06	1762889	2	0	0	0	0	0	0	0	0	0	0	0	0	0	0	5	0
112912	08:10:06	10038	corsiblockEngFwrd	recallseqEngFwrd	9	5	768	0	105	08:10:06	1763702	2	0	0	0	0	0	0	0	0	0	0	0	0	0	0	5	0
112912	08:10:06	10038	corsiblockEngFwrd	recallseqEngFwrd	9	6	516	0	105	08:10:06	1764262	2	0	0	0	0	0	0	0	0	0	0	0	0	0	0	5	0
112912	08:10:06	10038	corsiblockEngFwrd	recallseqEngFwrd	9	1	1316	0	105	08:10:06	1765621	2	0	0	0	0	0	0	0	0	0	0	0	0	0	0	5	0
112912	08:10:06	10038	corsiblockEngFwrd	recallseqEngFwrd	9	doneCorsiEng	1452	0	105	08:10:06	1767128	2	0	0	0	0	0	0	0	0	0	0	0	0	0	0	5	0
112912	08:10:06	10038	corsiblockEngFwrd	recallseqEngFwrd	9	4	613	0	105	08:10:06	1776830	2	0	0	0	0	0	0	0	0	0	0	0	0	0	0	5	0
112912	08:10:06	10038	corsiblockEngFwrd	recallseqEngFwrd	9	3	1019	0	105	08:10:06	1777896	2	0	0	0	0	0	0	0	0	0	0	0	0	0	0	5	0
112912	08:10:06	10038	corsiblockEngFwrd	recallseqEngFwrd	9	4	617	0	105	08:10:06	1778563	2	0	0	0	0	0	0	0	0	0	0	0	0	0	0	5	0
112912	08:10:06	10038	corsiblockEngFwrd	recallseqEngFwrd	9	9	894	0	105	08:10:06	1779509	2	0	0	0	0	0	0	0	0	0	0	0	0	0	0	5	0
112912	08:10:06	10038	corsiblockEngFwrd	recallseqEngFwrd	9	7	452	0	105	08:10:06	1780015	2	0	0	0	0	0	0	0	0	0	0	0	0	0	0	5	0
112912	08:10:06	10038	corsiblockEngFwrd	recallseqEngFwrd	9	1	986	0	105	08:10:06	1781055	2	0	0	0	0	0	0	0	0	0	0	0	0	0	0	5	0
112912	08:10:06	10038	corsiblockEngFwrd	recallseqEngFwrd	9	doneCorsiEng	1402	0	105	08:10:06	1782508	2	0	0	0	0	0	0	0	0	0	0	0	0	0	0	6	0
112912	08:10:06	10038	corsiblockEngFwrd	recallseqEngFwrd	9	8	1213	0	105	08:10:06	1792837	2	0	0	0	0	0	0	0	0	0	0	0	0	0	0	6	0
112912	08:10:06	10038	corsiblockEngFwrd	recallseqEngFwrd	9	2	620	0	105	08:10:06	1793503	2	0	0	0	0	0	0	0	0	0	0	0	0	0	0	6	0
112912	08:10:06	10038	corsiblockEngFwrd	recallseqEngFwrd	9	5	1001	0	105	08:10:06	1794556	2	0	0	0	0	0	0	0	0	0	0	0	0	0	0	6	0
112912	08:10:06	10038	corsiblockEngFwrd	recallseqEngFwrd	9	6	868	0	105	08:10:06	1795476	2	0	0	0	0	0	0	0	0	0	0	0	0	0	0	6	0
112912	08:10:06	10038	corsiblockEngFwrd	recallseqEngFwrd	9	5	549	0	105	08:10:06	1796076	2	0	0	0	0	0	0	0	0	0	0	0	0	0	0	6	0
112912	08:10:06	10038	corsiblockEngFwrd	recallseqEngFwrd	9	6	1541	0	105	08:10:06	1797662	2	0	0	0	0	0	0	0	0	0	0	0	0	0	0	6	0
112912	08:10:06	10038	corsiblockEngFwrd	recallseqEngFwrd	9	doneCorsiEng	843	0	105	08:10:06	1798555	2	0	0	0	0	0	0	0	0	0	0	0	0	0	0	6	0
112912	08:10:06	10038	corsiblockEngFwrd	recallseqEngFwrd	9	8	1218	0	105	08:10:06	1809857	2	0	0	0	0	0	0	0	0	0	0	0	0	0	0	6	0
112912	08:10:06	10038	corsiblockEngFwrd	recallseqEngFwrd	9	9	1016	0	105	08:10:06	1810923	2	0	0	0	0	0	0	0	0	0	0	0	0	0	0	6	0
112912	08:10:06	10038	corsiblockEngFwrd	recallseqEngFwrd	9	5	725	0	105	08:10:06	1811696	2	0	0	0	0	0	0	0	0	0	0	0	0	0	0	6	0
112912	08:10:06	10038	corsiblockEngFwrd	recallseqEngFwrd	9	4	656	0	105	08:10:06	1812402	2	0	0	0	0	0	0	0	0	0	0	0	0	0	0	6	0
112912	08:10:06	10038	corsiblockEngFwrd	recallseqEngFwrd	9	7	1822	0	105	08:10:06	1814268	2	0	0	0	0	0	0	0	0	0	0	0	0	0	0	6	0
112912	08:10:06	10038	corsiblockEngFwrd	recallseqEngFwrd	9	3	804	0	105	08:10:06	1815121	2	0	0	0	0	0	0	0	0	0	0	0	0	0	0	6	0
112912	08:10:06	10038	corsiblockEngFwrd	recallseqEngFwrd	9	2	711	0	105	08:10:06	1815881	2	0	0	0	0	0	0	0	0	0	0	0	0	0	0	6	0
112912	08:10:06	10038	corsiblockEngFwrd	recallseqEngFwrd	9	doneCorsiEng	1223	0	105	08:10:06	1817160	2	0	0	0	0	0	0	0	0	0	0	0	0	0	0	6	0
112912	08:10:06	10038	corsiblockEngRev	recallseqEngRev	10	2	1789	0	105	08:10:06	1831075	2	0	0	0	0	0	0	0	0	0	0	0	0	0	0	6	0
112912	08:10:06	10038	corsiblockEngRev	recallseqEngRev	10	8	1125	0	105	08:10:06	1832247	2	0	0	0	0	0	0	0	0	0	0	0	0	0	0	6	0
112912	08:10:06	10038	corsiblockEngRev	recallseqEngRev	10	doneCorsiEng	936	0	105	08:10:06	1833233	2	0	0	0	0	0	0	0	0	0	0	0	0	0	0	6	2
112912	08:10:06	10038	corsiblockEngRev	recallseqEngRev	10	7	2600	0	105	08:10:06	1841963	2	0	0	0	0	0	0	0	0	0	0	0	0	0	0	6	2
112912	08:10:06	10038	corsiblockEngRev	recallseqEngRev	10	6	772	0	105	08:10:06	1842789	2	0	0	0	0	0	0	0	0	0	0	0	0	0	0	6	2
112912	08:10:06	10038	corsiblockEngRev	recallseqEngRev	10	9	793	0	105	08:10:06	1843629	2	0	0	0	0	0	0	0	0	0	0	0	0	0	0	6	2
112912	08:10:06	10038	corsiblockEngRev	recallseqEngRev	10	doneCorsiEng	1002	0	105	08:10:06	1844682	2	0	0	0	0	0	0	0	0	0	0	0	0	0	0	6	3
112912	08:10:06	10038	corsiblockEngRev	recallseqEngRev	10	1	970	0	105	08:10:06	1852799	2	0	0	0	0	0	0	0	0	0	0	0	0	0	0	6	3
112912	08:10:06	10038	corsiblockEngRev	recallseqEngRev	10	5	936	0	105	08:10:06	1853785	2	0	0	0	0	0	0	0	0	0	0	0	0	0	0	6	3
112912	08:10:06	10038	corsiblockEngRev	recallseqEngRev	10	3	670	0	105	08:10:06	1854505	2	0	0	0	0	0	0	0	0	0	0	0	0	0	0	6	3
112912	08:10:06	10038	corsiblockEngRev	recallseqEngRev	10	4	526	0	105	08:10:06	1855077	2	0	0	0	0	0	0	0	0	0	0	0	0	0	0	6	3
112912	08:10:06	10038	corsiblockEngRev	recallseqEngRev	10	doneCorsiEng	985	0	105	08:10:06	1856117	2	0	0	0	0	0	0	0	0	0	0	0	0	0	0	6	4
112912	08:10:06	10038	corsiblockEngRev	recallseqEngRev	10	1	1047	0	105	08:10:06	1865300	2	0	0	0	0	0	0	0	0	0	0	0	0	0	0	6	4
112912	08:10:06	10038	corsiblockEngRev	recallseqEngRev	10	4	698	0	105	08:10:06	1866047	2	0	0	0	0	0	0	0	0	0	0	0	0	0	0	6	4
112912	08:10:06	10038	corsiblockEngRev	recallseqEngRev	10	6	527	0	105	08:10:06	1866620	2	0	0	0	0	0	0	0	0	0	0	0	0	0	0	6	4
112912	08:10:06	10038	corsiblockEngRev	recallseqEngRev	10	7	1267	0	105	08:10:06	1867939	2	0	0	0	0	0	0	0	0	0	0	0	0	0	0	6	4
112912	08:10:06	10038	corsiblockEngRev	recallseqEngRev	10	9	651	0	105	08:10:06	1868645	2	0	0	0	0	0	0	0	0	0	0	0	0	0	0	6	4
112912	08:10:06	10038	corsiblockEngRev	recallseqEngRev	10	doneCorsiEng	1361	0	105	08:10:06	1870058	2	0	0	0	0	0	0	0	0	0	0	0	0	0	0	6	5
112912	08:10:06	10038	corsiblockEngRev	recallseqEngRev	10	1	1167	0	105	08:10:06	1880347	2	0	0	0	0	0	0	0	0	0	0	0	0	0	0	6	5
112912	08:10:06	10038	corsiblockEngRev	recallseqEngRev	10	8	3426	0	105	08:10:06	1883826	2	0	0	0	0	0	0	0	0	0	0	0	0	0	0	6	5
112912	08:10:06	10038	corsiblockEngRev	recallseqEngRev	10	2	1100	0	105	08:10:06	1884972	2	0	0	0	0	0	0	0	0	0	0	0	0	0	0	6	5
112912	08:10:06	10038	corsiblockEngRev	recallseqEngRev	10	6	577	0	105	08:10:06	1885598	2	0	0	0	0	0	0	0	0	0	0	0	0	0	0	6	5
112912	08:10:06	10038	corsiblockEngRev	recallseqEngRev	10	3	456	0	105	08:10:06	1886105	2	0	0	0	0	0	0	0	0	0	0	0	0	0	0	6	5
112912	08:10:06	10038	corsiblockEngRev	recallseqEngRev	10	doneCorsiEng	1005	0	105	08:10:06	1887158	2	0	0	0	0	0	0	0	0	0	0	0	0	0	0	6	5
112912	08:10:06	10038	corsiblockEngRev	recallseqEngRev	10	9	2947	0	105	08:10:06	1899193	2	0	0	0	0	0	0	0	0	0	0	0	0	0	0	6	5
112912	08:10:06	10038	corsiblockEngRev	recallseqEngRev	10	3	780	0	105	08:10:06	1900019	2	0	0	0	0	0	0	0	0	0	0	0	0	0	0	6	5
112912	08:10:06	10038	corsiblockEngRev	recallseqEngRev	10	6	530	0	105	08:10:06	1900606	2	0	0	0	0	0	0	0	0	0	0	0	0	0	0	6	5
112912	08:10:06	10038	corsiblockEngRev	recallseqEngRev	10	5	536	0	105	08:10:06	1901192	2	0	0	0	0	0	0	0	0	0	0	0	0	0	0	6	5
112912	08:10:06	10038	corsiblockEngRev	recallseqEngRev	10	5	357	0	105	08:10:06	1901605	2	0	0	0	0	0	0	0	0	0	0	0	0	0	0	6	5
112912	08:10:06	10038	corsiblockEngRev	recallseqEngRev	10	7	488	0	105	08:10:06	1902138	2	0	0	0	0	0	0	0	0	0	0	0	0	0	0	6	5
112912	08:10:06	10038	corsiblockEngRev	recallseqEngRev	10	doneCorsiEng	1154	0	105	08:10:06	1903338	2	0	0	0	0	0	0	0	0	0	0	0	0	0	0	6	5
112912	08:10:06	10038	testEng3mo	WordsEng3mo	11	1Eng3mo	40365	0	105	08:10:06	1950025	2	3	0	0	0	0	0	0	0	0	0	0	0	0	0	6	5
112912	08:10:06	10038	testEng3mo	WordsEng3mo	11	3Eng3mo	179	0	105	08:10:06	1950252	2	3	0	3	0	0	0	0	0	0	0	0	0	0	0	6	5
112912	08:10:06	10038	testEng3mo	WordsEng3mo	11	2Eng3mo	320	0	105	08:10:06	1950625	2	3	3	3	0	0	0	0	0	0	0	0	0	0	0	6	5
112912	08:10:06	10038	testEng3mo	WordsEng3mo	11	4Eng3mo	603	0	105	08:10:06	1951278	2	3	3	3	3	0	0	0	0	0	0	0	0	0	0	6	5
112912	08:10:06	10038	testEng3mo	WordsEng3mo	11	5Eng3mo	166	0	105	08:10:06	1951491	2	3	3	3	3	3	0	0	0	0	0	0	0	0	0	6	5
112912	08:10:06	10038	testEng3mo	WordsEng3mo	11	7Eng3mo	568	0	105	08:10:06	1952104	2	3	3	3	3	3	0	3	0	0	0	0	0	0	0	6	5
112912	08:10:06	10038	testEng3mo	WordsEng3mo	11	8Eng3mo	148	0	105	08:10:06	1952304	2	3	3	3	3	3	0	3	3	0	0	0	0	0	0	6	5
112912	08:10:06	10038	testEng3mo	WordsEng3mo	11	DoneEng3mo	292	0	105	08:10:06	1952651	2	3	3	3	3	3	0	3	3	0	0	0	0	0	0	6	5
112912	08:10:06	10038	testEng3mo	Cat6Eng3mo	11	W6Eng3mo	8777	0	105	08:10:06	1961473	2	3	3	3	3	3	0	3	3	0	0	0	0	0	0	6	5
112912	08:10:06	10038	testEng3mo	Ch6Eng3mo	11	RR6Eng3mo	2984	0	105	08:10:06	1964499	2	3	3	3	3	3	1	3	3	0	0	0	0	0	0	6	5
112912	08:10:06	10038	DigitSpanFwrdEng3mo	Score1FwrdEng3mo	12	DS1	4480	0	105	08:10:06	1979719	2	3	3	3	3	3	1	3	3	0	0	0	0	0	0	6	5
112912	08:10:06	10038	DigitSpanFwrdEng3mo	Gate1FwrdEng3mo	12	0	1	0	105	08:10:06	1979724	2	3	3	3	3	3	1	3	3	3	0	0	0	0	0	6	5
112912	08:10:06	10038	DigitSpanFwrdEng3mo	Score2FwrdEng3mo	12	DS1	2856	0	105	08:10:06	1989142	2	3	3	3	3	3	1	3	3	3	0	0	0	0	0	6	5
112912	08:10:06	10038	DigitSpanFwrdEng3mo	Gate3FwrdEng3mo	12	0	1	0	105	08:10:06	1989146	2	3	3	3	3	3	1	3	3	4	0	0	0	0	0	6	5
112912	08:10:06	10038	DigitSpanFwrdEng3mo	Score3FwrdEng3mo	12	DS2	4077	0	105	08:10:06	2001257	2	3	3	3	3	3	1	3	3	4	0	0	0	0	0	6	5
112912	08:10:06	10038	DigitSpanFwrdEng3mo	Gate5FwrdEng3mo	12	0	1	0	105	08:10:06	2001261	2	3	3	3	3	3	1	3	3	4	0	0	0	0	0	6	5
112912	08:10:06	10038	DigitSpanFwrdEng3mo	Score33FwrdEng3mo	12	DS1	4213	0	105	08:10:06	2013718	2	3	3	3	3	3	1	3	3	4	0	0	0	0	0	6	5
112912	08:10:06	10038	DigitSpanFwrdEng3mo	Gate6FwrdEng3mo	12	0	1	0	105	08:10:06	2013723	2	3	3	3	3	3	1	3	3	5	0	0	0	0	0	6	5
112912	08:10:06	10038	DigitSpanFwrdEng3mo	Score4FwrdEng3mo	12	DS2	7655	0	105	08:10:06	2030898	2	3	3	3	3	3	1	3	3	5	0	0	0	0	0	6	5
112912	08:10:06	10038	DigitSpanFwrdEng3mo	Gate7FwrdEng3mo	12	0	1	0	105	08:10:06	2030903	2	3	3	3	3	3	1	3	3	5	0	0	0	0	0	6	5
112912	08:10:06	10038	DigitSpanFwrdEng3mo	Score44FwrdEng3mo	12	DS1	5107	0	105	08:10:06	2045612	2	3	3	3	3	3	1	3	3	5	0	0	0	0	0	6	5
112912	08:10:06	10038	DigitSpanFwrdEng3mo	Gate8FwrdEng3mo	12	0	1	0	105	08:10:06	2045616	2	3	3	3	3	3	1	3	3	6	0	0	0	0	0	6	5
112912	08:10:06	10038	DigitSpanFwrdEng3mo	Score5FwrdEng3mo	12	DS2	8033	0	105	08:10:06	2064684	2	3	3	3	3	3	1	3	3	6	0	0	0	0	0	6	5
112912	08:10:06	10038	DigitSpanFwrdEng3mo	Gate9FwrdEng3mo	12	0	1	0	105	08:10:06	2064688	2	3	3	3	3	3	1	3	3	6	0	0	0	0	0	6	5
112912	08:10:06	10038	DigitSpanFwrdEng3mo	Score55FwrdEng3mo	12	DS2	8425	0	105	08:10:06	2084516	2	3	3	3	3	3	1	3	3	6	0	0	0	0	0	6	5
112912	08:10:06	10038	DigitSpanEng3mo	Score1Eng3mo	13	DS1	3352	0	105	08:10:06	2097870	2	3	3	3	3	3	1	3	3	6	0	0	0	0	0	6	5
112912	08:10:06	10038	DigitSpanEng3mo	Gate1Eng3mo	13	0	1	0	105	08:10:06	2097874	2	3	3	3	3	3	1	3	3	6	2	0	0	0	0	6	5
112912	08:10:06	10038	DigitSpanEng3mo	Score2Eng3mo	13	DS1	3502	0	105	08:10:06	2106306	2	3	3	3	3	3	1	3	3	6	2	0	0	0	0	6	5
112912	08:10:06	10038	DigitSpanEng3mo	Gate3Eng3mo	13	0	1	0	105	08:10:06	2106311	2	3	3	3	3	3	1	3	3	6	3	0	0	0	0	6	5
112912	08:10:06	10038	DigitSpanEng3mo	Score3Eng3mo	13	DS2	6351	0	105	08:10:06	2119221	2	3	3	3	3	3	1	3	3	6	3	0	0	0	0	6	5
112912	08:10:06	10038	DigitSpanEng3mo	Gate5Eng3mo	13	0	1	0	105	08:10:06	2119226	2	3	3	3	3	3	1	3	3	6	3	0	0	0	0	6	5
112912	08:10:06	10038	DigitSpanEng3mo	Score33Eng3mo	13	DS1	4577	0	105	08:10:06	2130110	2	3	3	3	3	3	1	3	3	6	3	0	0	0	0	6	5
112912	08:10:06	10038	DigitSpanEng3mo	Gate6Eng3mo	13	0	1	0	105	08:10:06	2130114	2	3	3	3	3	3	1	3	3	6	4	0	0	0	0	6	5
112912	08:10:06	10038	DigitSpanEng3mo	Score4Eng3mo	13	DS1	5681	0	105	08:10:06	2143825	2	3	3	3	3	3	1	3	3	6	4	0	0	0	0	6	5
112912	08:10:06	10038	DigitSpanEng3mo	Gate7Eng3mo	13	0	1	0	105	08:10:06	2143829	2	3	3	3	3	3	1	3	3	6	5	0	0	0	0	6	5
112912	08:10:06	10038	DigitSpanEng3mo	Score5Eng3mo	13	DS2	4665	0	105	08:10:06	2158018	2	3	3	3	3	3	1	3	3	6	5	0	0	0	0	6	5
112912	08:10:06	10038	DigitSpanEng3mo	Gate9Eng3mo	13	0	1	0	105	08:10:06	2158023	2	3	3	3	3	3	1	3	3	6	5	0	0	0	0	6	5
112912	08:10:06	10038	DigitSpanEng3mo	Score55Eng3mo	13	DS2	4724	0	105	08:10:06	2172332	2	3	3	3	3	3	1	3	3	6	5	0	0	0	0	6	5
112912	08:10:06	10038	Trial	ResponseIL	14	0	175	0	105	08:10:06	2224697	2	3	3	3	3	3	1	3	3	6	5	0	0	0	0	6	5
112912	08:10:06	10038	Trial	IncongruentLeft	14	205	394	0	105	08:10:06	2225110	2	3	3	3	3	3	1	3	3	6	5	0	0	0	0	6	5
112912	08:10:06	10038	Trial	ResponseCR	14	0	175	0	105	08:10:06	2226403	2	3	3	3	3	3	1	3	3	6	5	0	0	0	0	6	5
112912	08:10:06	10038	Trial	CongruentRight	14	205	432	1	105	08:10:06	2226856	2	3	3	3	3	3	1	3	3	6	5	0	0	0	0	6	5
112912	08:10:06	10038	Trial	ResponseIR	14	0	175	0	105	08:10:06	2228109	2	3	3	3	3	3	1	3	3	6	5	0	0	0	0	6	5
112912	08:10:06	10038	Trial	IncongruentRight	14	203	182	0	105	08:10:06	2228309	2	3	3	3	3	3	1	3	3	6	5	0	0	0	0	6	5
112912	08:10:06	10038	Trial	ResponseCL	14	0	175	0	105	08:10:06	2229815	2	3	3	3	3	3	1	3	3	6	5	0	0	0	0	6	5
112912	08:10:06	10038	Trial	CongruentLeft	14	203	252	1	105	08:10:06	2230095	2	3	3	3	3	3	1	3	3	6	5	0	0	0	0	6	5
112912	08:10:06	10038	Trial	ResponseCR	14	0	175	0	105	08:10:06	2231521	2	3	3	3	3	3	1	3	3	6	5	0	0	0	0	6	5
112912	08:10:06	10038	Trial	CongruentRight	14	205	258	1	105	08:10:06	2231801	2	3	3	3	3	3	1	3	3	6	5	0	0	0	0	6	5
112912	08:10:06	10038	Trial	ResponseIR	14	0	175	0	105	08:10:06	2233227	2	3	3	3	3	3	1	3	3	6	5	0	0	0	0	6	5
112912	08:10:06	10038	Trial	IncongruentRight	14	205	344	1	105	08:10:06	2233600	2	3	3	3	3	3	1	3	3	6	5	0	0	0	0	6	5
112912	08:10:06	10038	Trial	ResponseCL	14	0	175	0	105	08:10:06	2234933	2	3	3	3	3	3	1	3	3	6	5	0	0	0	0	6	5
112912	08:10:06	10038	Trial	CongruentLeft	14	203	222	1	105	08:10:06	2235173	2	3	3	3	3	3	1	3	3	6	5	0	0	0	0	6	5
112912	08:10:06	10038	Trial	ResponseIL	14	0	175	0	105	08:10:06	2236639	2	3	3	3	3	3	1	3	3	6	5	0	0	0	0	6	5
112912	08:10:06	10038	Trial	IncongruentLeft	14	203	420	1	105	08:10:06	2237079	2	3	3	3	3	3	1	3	3	6	5	0	0	0	0	6	5
112912	08:10:06	10038	Trial	ResponseIL	14	0	175	0	105	08:10:06	2238345	2	3	3	3	3	3	1	3	3	6	5	0	0	0	0	6	5
112912	08:10:06	10038	Trial	IncongruentLeft	14	203	426	1	105	08:10:06	2238798	2	3	3	3	3	3	1	3	3	6	5	0	0	0	0	6	5
112912	08:10:06	10038	Trial	ResponseCR	14	0	175	0	105	08:10:06	2240051	2	3	3	3	3	3	1	3	3	6	5	0	0	0	0	6	5
112912	08:10:06	10038	Trial	CongruentRight	14	205	222	1	105	08:10:06	2240291	2	3	3	3	3	3	1	3	3	6	5	0	0	0	0	6	5
112912	08:10:06	10038	Trial	ResponseIR	14	0	175	0	105	08:10:06	2241757	2	3	3	3	3	3	1	3	3	6	5	0	0	0	0	6	5
112912	08:10:06	10038	Trial	IncongruentRight	14	205	374	1	105	08:10:06	2242157	2	3	3	3	3	3	1	3	3	6	5	0	0	0	0	6	5
112912	08:10:06	10038	Trial	ResponseCL	14	0	175	0	105	08:10:06	2243463	2	3	3	3	3	3	1	3	3	6	5	0	0	0	0	6	5
112912	08:10:06	10038	Trial	CongruentLeft	14	203	188	1	105	08:10:06	2243676	2	3	3	3	3	3	1	3	3	6	5	0	0	0	0	6	5
112912	08:10:06	10038	Trial	ResponseCR	14	0	175	0	105	08:10:06	2245169	2	3	3	3	3	3	1	3	3	6	5	0	0	0	0	6	5
112912	08:10:06	10038	Trial	CongruentRight	14	205	305	1	105	08:10:06	2245502	2	3	3	3	3	3	1	3	3	6	5	0	0	0	0	6	5
112912	08:10:06	10038	Trial	ResponseIL	14	0	175	0	105	08:10:06	2246875	2	3	3	3	3	3	1	3	3	6	5	0	0	0	0	6	5
112912	08:10:06	10038	Trial	IncongruentLeft	14	203	328	1	105	08:10:06	2247221	2	3	3	3	3	3	1	3	3	6	5	0	0	0	0	6	5
112912	08:10:06	10038	Trial	ResponseIR	14	0	175	0	105	08:10:06	2248581	2	3	3	3	3	3	1	3	3	6	5	0	0	0	0	6	5
112912	08:10:06	10038	Trial	IncongruentRight	14	205	334	1	105	08:10:06	2248941	2	3	3	3	3	3	1	3	3	6	5	0	0	0	0	6	5
112912	08:10:06	10038	Trial	ResponseCR	14	0	175	0	105	08:10:06	2250287	2	3	3	3	3	3	1	3	3	6	5	0	0	0	0	6	5
112912	08:10:06	10038	Trial	CongruentRight	14	205	196	1	105	08:10:06	2250500	2	3	3	3	3	3	1	3	3	6	5	0	0	0	0	6	5
112912	08:10:06	10038	Trial	ResponseCL	14	0	175	0	105	08:10:06	2251993	2	3	3	3	3	3	1	3	3	6	5	0	0	0	0	6	5
112912	08:10:06	10038	Trial	CongruentLeft	14	203	170	1	105	08:10:06	2252179	2	3	3	3	3	3	1	3	3	6	5	0	0	0	0	6	5
112912	08:10:06	10038	Trial	ResponseCR	14	0	175	0	105	08:10:06	2253699	2	3	3	3	3	3	1	3	3	6	5	0	0	0	0	6	5
112912	08:10:06	10038	Trial	CongruentRight	14	205	336	1	105	08:10:06	2254058	2	3	3	3	3	3	1	3	3	6	5	0	0	0	0	6	5
112912	08:10:06	10038	Trial	ResponseIR	14	0	175	0	105	08:10:06	2255405	2	3	3	3	3	3	1	3	3	6	5	0	0	0	0	6	5
112912	08:10:06	10038	Trial	IncongruentRight	14	205	406	1	105	08:10:06	2255831	2	3	3	3	3	3	1	3	3	6	5	0	0	0	0	6	5
112912	08:10:06	10038	Trial	ResponseIL	14	0	175	0	105	08:10:06	2257111	2	3	3	3	3	3	1	3	3	6	5	0	0	0	0	6	5
112912	08:10:06	10038	Trial	IncongruentLeft	14	203	380	1	105	08:10:06	2257510	2	3	3	3	3	3	1	3	3	6	5	0	0	0	0	6	5
112912	08:10:06	10038	Trial	ResponseIL	14	0	175	0	105	08:10:06	2258817	2	3	3	3	3	3	1	3	3	6	5	0	0	0	0	6	5
112912	08:10:06	10038	Trial	IncongruentLeft	14	203	322	1	105	08:10:06	2259163	2	3	3	3	3	3	1	3	3	6	5	0	0	0	0	6	5
112912	08:10:06	10038	Trial	ResponseCL	14	0	175	0	105	08:10:06	2260523	2	3	3	3	3	3	1	3	3	6	5	0	0	0	0	6	5
112912	08:10:06	10038	Trial	CongruentLeft	14	203	328	1	105	08:10:06	2260869	2	3	3	3	3	3	1	3	3	6	5	0	0	0	0	6	5
112912	08:10:06	10038	Trial	ResponseCR	14	0	175	0	105	08:10:06	2262228	2	3	3	3	3	3	1	3	3	6	5	0	0	0	0	6	5
112912	08:10:06	10038	Trial	CongruentRight	14	205	190	1	105	08:10:06	2262442	2	3	3	3	3	3	1	3	3	6	5	0	0	0	0	6	5
112912	08:10:06	10038	Trial	ResponseIL	14	0	175	0	105	08:10:06	2263934	2	3	3	3	3	3	1	3	3	6	5	0	0	0	0	6	5
112912	08:10:06	10038	Trial	IncongruentLeft	14	203	324	1	105	08:10:06	2264281	2	3	3	3	3	3	1	3	3	6	5	0	0	0	0	6	5
112912	08:10:06	10038	Trial	ResponseIR	14	0	175	0	105	08:10:06	2265640	2	3	3	3	3	3	1	3	3	6	5	0	0	0	0	6	5
112912	08:10:06	10038	Trial	IncongruentRight	14	205	362	1	105	08:10:06	2266027	2	3	3	3	3	3	1	3	3	6	5	0	0	0	0	6	5
112912	08:10:06	10038	Trial	ResponseCR	14	0	175	0	105	08:10:06	2267347	2	3	3	3	3	3	1	3	3	6	5	0	0	0	0	6	5
112912	08:10:06	10038	Trial	CongruentRight	14	205	320	1	105	08:10:06	2267693	2	3	3	3	3	3	1	3	3	6	5	0	0	0	0	6	5
112912	08:10:06	10038	Trial	ResponseCL	14	0	175	0	105	08:10:06	2269053	2	3	3	3	3	3	1	3	3	6	5	0	0	0	0	6	5
112912	08:10:06	10038	Trial	CongruentLeft	14	203	358	1	105	08:10:06	2269439	2	3	3	3	3	3	1	3	3	6	5	0	0	0	0	6	5
112912	08:10:06	10038	Trial	ResponseIR	14	0	175	0	105	08:10:06	2270758	2	3	3	3	3	3	1	3	3	6	5	0	0	0	0	6	5
112912	08:10:06	10038	Trial	IncongruentRight	14	205	539	1	105	08:10:06	2271318	2	3	3	3	3	3	1	3	3	6	5	0	0	0	0	6	5
112912	08:10:06	10038	Trial	ResponseIL	14	0	175	0	105	08:10:06	2272464	2	3	3	3	3	3	1	3	3	6	5	0	0	0	0	6	5
112912	08:10:06	10038	Trial	IncongruentLeft	14	203	257	1	105	08:10:06	2272744	2	3	3	3	3	3	1	3	3	6	5	0	0	0	0	6	5
112912	08:10:06	10038	Trial	ResponseIR	14	0	175	0	105	08:10:06	2274170	2	3	3	3	3	3	1	3	3	6	5	0	0	0	0	6	5
112912	08:10:06	10038	Trial	IncongruentRight	14	205	375	1	105	08:10:06	2274570	2	3	3	3	3	3	1	3	3	6	5	0	0	0	0	6	5
112912	08:10:06	10038	Trial	ResponseCR	14	0	175	0	105	08:10:06	2275876	2	3	3	3	3	3	1	3	3	6	5	0	0	0	0	6	5
112912	08:10:06	10038	Trial	CongruentRight	14	205	238	1	105	08:10:06	2276143	2	3	3	3	3	3	1	3	3	6	5	0	0	0	0	6	5
112912	08:10:06	10038	Trial	ResponseIL	14	0	175	0	105	08:10:06	2277582	2	3	3	3	3	3	1	3	3	6	5	0	0	0	0	6	5
112912	08:10:06	10038	Trial	IncongruentLeft	14	203	307	1	105	08:10:06	2277915	2	3	3	3	3	3	1	3	3	6	5	0	0	0	0	6	5
112912	08:10:06	10038	Trial	ResponseCL	14	0	175	0	105	08:10:06	2279288	2	3	3	3	3	3	1	3	3	6	5	0	0	0	0	6	5
112912	08:10:06	10038	Trial	CongruentLeft	14	203	266	1	105	08:10:06	2279581	2	3	3	3	3	3	1	3	3	6	5	0	0	0	0	6	5
112912	08:10:06	10038	Trial	ResponseCR	14	0	175	0	105	08:10:06	2280994	2	3	3	3	3	3	1	3	3	6	5	0	0	0	0	6	5
112912	08:10:06	10038	Trial	CongruentRight	14	205	287	1	105	08:10:06	2281301	2	3	3	3	3	3	1	3	3	6	5	0	0	0	0	6	5
112912	08:10:06	10038	Trial	ResponseIL	14	0	175	0	105	08:10:06	2282700	2	3	3	3	3	3	1	3	3	6	5	0	0	0	0	6	5
112912	08:10:06	10038	Trial	IncongruentLeft	14	203	325	1	105	08:10:06	2283047	2	3	3	3	3	3	1	3	3	6	5	0	0	0	0	6	5
112912	08:10:06	10038	Trial	ResponseIR	14	0	175	0	105	08:10:06	2284406	2	3	3	3	3	3	1	3	3	6	5	0	0	0	0	6	5
112912	08:10:06	10038	Trial	IncongruentRight	14	205	347	1	105	08:10:06	2284779	2	3	3	3	3	3	1	3	3	6	5	0	0	0	0	6	5
112912	08:10:06	10038	Trial	ResponseIR	14	0	175	0	105	08:10:06	2286112	2	3	3	3	3	3	1	3	3	6	5	0	0	0	0	6	5
112912	08:10:06	10038	Trial	IncongruentRight	14	205	353	1	105	08:10:06	2286485	2	3	3	3	3	3	1	3	3	6	5	0	0	0	0	6	5
112912	08:10:06	10038	Trial	ResponseCL	14	0	175	0	105	08:10:06	2287818	2	3	3	3	3	3	1	3	3	6	5	0	0	0	0	6	5
112912	08:10:06	10038	Trial	CongruentLeft	14	203	296	1	105	08:10:06	2288138	2	3	3	3	3	3	1	3	3	6	5	0	0	0	0	6	5
112912	08:10:06	10038	Trial	ResponseIL	14	0	175	0	105	08:10:06	2289524	2	3	3	3	3	3	1	3	3	6	5	0	0	0	0	6	5
112912	08:10:06	10038	Trial	IncongruentLeft	14	203	317	1	105	08:10:06	2289871	2	3	3	3	3	3	1	3	3	6	5	0	0	0	0	6	5
112912	08:10:06	10038	Trial	ResponseCR	14	0	175	0	105	08:10:06	2291230	2	3	3	3	3	3	1	3	3	6	5	0	0	0	0	6	5
112912	08:10:06	10038	Trial	CongruentRight	14	205	291	1	105	08:10:06	2291550	2	3	3	3	3	3	1	3	3	6	5	0	0	0	0	6	5
112912	08:10:06	10038	Trial	ResponseCL	14	0	175	0	105	08:10:06	2292936	2	3	3	3	3	3	1	3	3	6	5	0	0	0	0	6	5
112912	08:10:06	10038	Trial	CongruentLeft	14	203	265	1	105	08:10:06	2293229	2	3	3	3	3	3	1	3	3	6	5	0	0	0	0	6	5
112912	08:10:06	10038	Trial	ResponseIR	14	0	175	0	105	08:10:06	2294642	2	3	3	3	3	3	1	3	3	6	5	0	0	0	0	6	5
112912	08:10:06	10038	Trial	IncongruentRight	14	205	351	1	105	08:10:06	2295015	2	3	3	3	3	3	1	3	3	6	5	0	0	0	0	6	5
112912	08:10:06	10038	Trial	ResponseCR	14	0	175	0	105	08:10:06	2296348	2	3	3	3	3	3	1	3	3	6	5	0	0	0	0	6	5
112912	08:10:06	10038	Trial	CongruentRight	14	205	293	1	105	08:10:06	2296667	2	3	3	3	3	3	1	3	3	6	5	0	0	0	0	6	5
112912	08:10:06	10038	Trial	ResponseIL	14	0	175	0	105	08:10:06	2298054	2	3	3	3	3	3	1	3	3	6	5	0	0	0	0	6	5
112912	08:10:06	10038	Trial	IncongruentLeft	14	203	203	1	105	08:10:06	2298280	2	3	3	3	3	3	1	3	3	6	5	0	0	0	0	6	5
112912	08:10:06	10038	Trial	ResponseCL	14	0	175	0	105	08:10:06	2299760	2	3	3	3	3	3	1	3	3	6	5	0	0	0	0	6	5
112912	08:10:06	10038	Trial	CongruentLeft	14	203	225	1	105	08:10:06	2300013	2	3	3	3	3	3	1	3	3	6	5	0	0	0	0	6	5
112912	08:10:06	10038	Trial	ResponseIL	14	0	175	0	105	08:10:06	2301466	2	3	3	3	3	3	1	3	3	6	5	0	0	0	0	6	5
112912	08:10:06	10038	Trial	IncongruentLeft	14	203	295	1	105	08:10:06	2301785	2	3	3	3	3	3	1	3	3	6	5	0	0	0	0	6	5
112912	08:10:06	10038	Trial	ResponseIR	14	0	175	0	105	08:10:06	2303171	2	3	3	3	3	3	1	3	3	6	5	0	0	0	0	6	5
112912	08:10:06	10038	Trial	IncongruentRight	14	205	349	1	105	08:10:06	2303545	2	3	3	3	3	3	1	3	3	6	5	0	0	0	0	6	5
112912	08:10:06	10038	Trial	ResponseCR	14	0	175	0	105	08:10:06	2304878	2	3	3	3	3	3	1	3	3	6	5	0	0	0	0	6	5
112912	08:10:06	10038	Trial	CongruentRight	14	205	355	1	105	08:10:06	2305251	2	3	3	3	3	3	1	3	3	6	5	0	0	0	0	6	5
112912	08:10:06	10038	Trial	ResponseCL	14	0	175	0	105	08:10:06	2306584	2	3	3	3	3	3	1	3	3	6	5	0	0	0	0	6	5
112912	08:10:06	10038	Trial	CongruentLeft	14	203	185	1	105	08:10:06	2306797	2	3	3	3	3	3	1	3	3	6	5	0	0	0	0	6	5
112912	08:10:06	10038	Trial	ResponseCL	14	0	175	0	105	08:10:06	2308289	2	3	3	3	3	3	1	3	3	6	5	0	0	0	0	6	5
112912	08:10:06	10038	Trial	CongruentLeft	14	203	255	1	105	08:10:06	2308569	2	3	3	3	3	3	1	3	3	6	5	0	0	0	0	6	5
112912	08:10:06	10038	Trial	ResponseIR	14	0	175	0	105	08:10:06	2309995	2	3	3	3	3	3	1	3	3	6	5	0	0	0	0	6	5
112912	08:10:06	10038	Trial	IncongruentRight	14	205	437	1	105	08:10:06	2310462	2	3	3	3	3	3	1	3	3	6	5	0	0	0	0	6	5
112912	08:10:06	10038	Trial	ResponseIL	14	0	175	0	105	08:10:06	2311701	2	3	3	3	3	3	1	3	3	6	5	0	0	0	0	6	5
112912	08:10:06	10038	Trial	IncongruentLeft	14	203	427	1	105	08:10:06	2312155	2	3	3	3	3	3	1	3	3	6	5	0	0	0	0	6	5
112912	08:10:06	10038	Trial	ResponseIR	14	0	175	0	105	08:10:06	2313407	2	3	3	3	3	3	1	3	3	6	5	0	0	0	0	6	5
112912	08:10:06	10038	Trial	IncongruentRight	14	205	273	1	105	08:10:06	2313701	2	3	3	3	3	3	1	3	3	6	5	0	0	0	0	6	5
112912	08:10:06	10038	Trial	ResponseCR	14	0	175	0	105	08:10:06	2315113	2	3	3	3	3	3	1	3	3	6	5	0	0	0	0	6	5
112912	08:10:06	10038	Trial	CongruentRight	14	205	199	1	105	08:10:06	2315340	2	3	3	3	3	3	1	3	3	6	5	0	0	0	0	6	5
112912	08:10:06	10038	Trial	ResponseCR	14	0	175	0	105	08:10:06	2316819	2	3	3	3	3	3	1	3	3	6	5	0	0	0	0	6	5
112912	08:10:06	10038	Trial	CongruentRight	14	205	301	1	105	08:10:06	2317139	2	3	3	3	3	3	1	3	3	6	5	0	0	0	0	6	5
112912	08:10:06	10038	Trial	ResponseIL	14	0	175	0	105	08:10:06	2318525	2	3	3	3	3	3	1	3	3	6	5	0	0	0	0	6	5
112912	08:10:06	10038	Trial	IncongruentLeft	14	203	243	1	105	08:10:06	2318792	2	3	3	3	3	3	1	3	3	6	5	0	0	0	0	6	5
112912	08:10:06	10038	Trial	ResponseCL	14	0	175	0	105	08:10:06	2320231	2	3	3	3	3	3	1	3	3	6	5	0	0	0	0	6	5
112912	08:10:06	10038	Trial	CongruentLeft	14	203	329	1	105	08:10:06	2320578	2	3	3	3	3	3	1	3	3	6	5	0	0	0	0	6	5
112912	08:10:06	10038	Trial	ResponseCR	14	0	175	0	105	08:10:06	2321937	2	3	3	3	3	3	1	3	3	6	5	0	0	0	0	6	5
112912	08:10:06	10038	Trial	CongruentRight	14	205	271	1	105	08:10:06	2322230	2	3	3	3	3	3	1	3	3	6	5	0	0	0	0	6	5
112912	08:10:06	10038	Trial	ResponseCL	14	0	175	0	105	08:10:06	2323643	2	3	3	3	3	3	1	3	3	6	5	0	0	0	0	6	5
112912	08:10:06	10038	Trial	CongruentLeft	14	203	309	1	105	08:10:06	2323976	2	3	3	3	3	3	1	3	3	6	5	0	0	0	0	6	5
112912	08:10:06	10038	Trial	ResponseIR	14	0	175	0	105	08:10:06	2325349	2	3	3	3	3	3	1	3	3	6	5	0	0	0	0	6	5
112912	08:10:06	10038	Trial	IncongruentRight	14	205	251	1	105	08:10:06	2325629	2	3	3	3	3	3	1	3	3	6	5	0	0	0	0	6	5
112912	08:10:06	10038	Trial	ResponseCR	14	0	175	0	105	08:10:06	2327055	2	3	3	3	3	3	1	3	3	6	5	0	0	0	0	6	5
112912	08:10:06	10038	Trial	CongruentRight	14	205	321	1	105	08:10:06	2327402	2	3	3	3	3	3	1	3	3	6	5	0	0	0	0	6	5
112912	08:10:06	10038	Trial	ResponseCL	14	0	175	0	105	08:10:06	2328761	2	3	3	3	3	3	1	3	3	6	5	0	0	0	0	6	5
112912	08:10:06	10038	Trial	CongruentLeft	14	203	215	1	105	08:10:06	2329001	2	3	3	3	3	3	1	3	3	6	5	0	0	0	0	6	5
112912	08:10:06	10038	Trial	ResponseIL	14	0	175	0	105	08:10:06	2330467	2	3	3	3	3	3	1	3	3	6	5	0	0	0	0	6	5
112912	08:10:06	10038	Trial	IncongruentLeft	14	203	256	1	105	08:10:06	2330760	2	3	3	3	3	3	1	3	3	6	5	0	0	0	0	6	5
112912	08:10:06	10038	Trial	ResponseIL	14	0	175	0	105	08:10:06	2332173	2	3	3	3	3	3	1	3	3	6	5	0	0	0	0	6	5
112912	08:10:06	10038	Trial	IncongruentLeft	14	203	275	1	105	08:10:06	2332466	2	3	3	3	3	3	1	3	3	6	5	0	0	0	0	6	5
112912	08:10:06	10038	Trial	ResponseCR	14	0	175	0	105	08:10:06	2333879	2	3	3	3	3	3	1	3	3	6	5	0	0	0	0	6	5
112912	08:10:06	10038	Trial	CongruentRight	14	205	201	1	105	08:10:06	2334105	2	3	3	3	3	3	1	3	3	6	5	0	0	0	0	6	5
112912	08:10:06	10038	Trial	ResponseIR	14	0	175	0	105	08:10:06	2335585	2	3	3	3	3	3	1	3	3	6	5	0	0	0	0	6	5
112912	08:10:06	10038	Trial	IncongruentRight	14	205	366	1	105	08:10:06	2335971	2	3	3	3	3	3	1	3	3	6	5	0	0	0	0	6	5
112912	08:10:06	10038	Trial	ResponseCL	14	0	175	0	105	08:10:06	2337291	2	3	3	3	3	3	1	3	3	6	5	0	0	0	0	6	5
112912	08:10:06	10038	Trial	CongruentLeft	14	203	325	1	105	08:10:06	2337637	2	3	3	3	3	3	1	3	3	6	5	0	0	0	0	6	5
112912	08:10:06	10038	Trial	ResponseIR	14	0	175	0	105	08:10:06	2338997	2	3	3	3	3	3	1	3	3	6	5	0	0	0	0	6	5
112912	08:10:06	10038	Trial	IncongruentRight	14	205	219	1	105	08:10:06	2339237	2	3	3	3	3	3	1	3	3	6	5	0	0	0	0	6	5
112912	08:10:06	10038	Trial	ResponseCR	14	0	175	0	105	08:10:06	2340703	2	3	3	3	3	3	1	3	3	6	5	0	0	0	0	6	5
112912	08:10:06	10038	Trial	CongruentRight	14	205	289	1	105	08:10:06	2341009	2	3	3	3	3	3	1	3	3	6	5	0	0	0	0	6	5
112912	08:10:06	10038	Trial	ResponseIL	14	0	175	0	105	08:10:06	2342409	2	3	3	3	3	3	1	3	3	6	5	0	0	0	0	6	5
112912	08:10:06	10038	Trial	IncongruentLeft	14	203	247	1	105	08:10:06	2342675	2	3	3	3	3	3	1	3	3	6	5	0	0	0	0	6	5
112912	08:10:06	10038	Trial	ResponseCL	14	0	175	0	105	08:10:06	2344115	2	3	3	3	3	3	1	3	3	6	5	0	0	0	0	6	5
112912	08:10:06	10038	Trial	CongruentLeft	14	203	189	1	105	08:10:06	2344328	2	3	3	3	3	3	1	3	3	6	5	0	0	0	0	6	5
112912	08:10:06	10038	Trial	ResponseCR	14	0	175	0	105	08:10:06	2345821	2	3	3	3	3	3	1	3	3	6	5	0	0	0	0	6	5
112912	08:10:06	10038	Trial	CongruentRight	14	205	274	1	105	08:10:06	2346114	2	3	3	3	3	3	1	3	3	6	5	0	0	0	0	6	5
112912	08:10:06	10038	Trial	ResponseIL	14	0	175	0	105	08:10:06	2347527	2	3	3	3	3	3	1	3	3	6	5	0	0	0	0	6	5
112912	08:10:06	10038	Trial	IncongruentLeft	14	203	249	1	105	08:10:06	2347793	2	3	3	3	3	3	1	3	3	6	5	0	0	0	0	6	5
112912	08:10:06	10038	Trial	ResponseCR	14	0	175	0	105	08:10:06	2349233	2	3	3	3	3	3	1	3	3	6	5	0	0	0	0	6	5
112912	08:10:06	10038	Trial	CongruentRight	14	205	319	1	105	08:10:06	2349579	2	3	3	3	3	3	1	3	3	6	5	0	0	0	0	6	5
112912	08:10:06	10038	Trial	ResponseCR	14	0	175	0	105	08:10:06	2350939	2	3	3	3	3	3	1	3	3	6	5	0	0	0	0	6	5
112912	08:10:06	10038	Trial	CongruentRight	14	205	277	1	105	08:10:06	2351232	2	3	3	3	3	3	1	3	3	6	5	0	0	0	0	6	5
112912	08:10:06	10038	Trial	ResponseIR	14	0	175	0	105	08:10:06	2352645	2	3	3	3	3	3	1	3	3	6	5	0	0	0	0	6	5
112912	08:10:06	10038	Trial	IncongruentRight	14	205	235	1	105	08:10:06	2352898	2	3	3	3	3	3	1	3	3	6	5	0	0	0	0	6	5
112912	08:10:06	10038	Trial	ResponseCL	14	0	175	0	105	08:10:06	2354351	2	3	3	3	3	3	1	3	3	6	5	0	0	0	0	6	5
112912	08:10:06	10038	Trial	CongruentLeft	14	203	241	1	105	08:10:06	2354617	2	3	3	3	3	3	1	3	3	6	5	0	0	0	0	6	5
112912	08:10:06	10038	Trial	ResponseIL	14	0	175	0	105	08:10:06	2356056	2	3	3	3	3	3	1	3	3	6	5	0	0	0	0	6	5
112912	08:10:06	10038	Trial	IncongruentLeft	14	203	327	1	105	08:10:06	2356403	2	3	3	3	3	3	1	3	3	6	5	0	0	0	0	6	5
112912	08:10:06	10038	Trial	ResponseCL	14	0	175	0	105	08:10:06	2357763	2	3	3	3	3	3	1	3	3	6	5	0	0	0	0	6	5
112912	08:10:06	10038	Trial	CongruentLeft	14	203	237	1	105	08:10:06	2358016	2	3	3	3	3	3	1	3	3	6	5	0	0	0	0	6	5
112912	08:10:06	10038	Trial	ResponseIR	14	0	175	0	105	08:10:06	2359468	2	3	3	3	3	3	1	3	3	6	5	0	0	0	0	6	5
112912	08:10:06	10038	Trial	IncongruentRight	14	205	163	1	105	08:10:06	2359655	2	3	3	3	3	3	1	3	3	6	5	0	0	0	0	6	5
112912	08:10:06	10038	Trial	ResponseIL	14	0	175	0	105	08:10:06	2361174	2	3	3	3	3	3	1	3	3	6	5	0	0	0	0	6	5
112912	08:10:06	10038	Trial	IncongruentLeft	14	203	345	1	105	08:10:06	2361547	2	3	3	3	3	3	1	3	3	6	5	0	0	0	0	6	5
112912	08:10:06	10038	Trial	ResponseCR	14	0	175	0	105	08:10:06	2362880	2	3	3	3	3	3	1	3	3	6	5	0	0	0	0	6	5
112912	08:10:06	10038	Trial	CongruentRight	14	205	271	1	105	08:10:06	2363173	2	3	3	3	3	3	1	3	3	6	5	0	0	0	0	6	5
112912	08:10:06	10038	Trial	ResponseCL	14	0	175	0	105	08:10:06	2364586	2	3	3	3	3	3	1	3	3	6	5	0	0	0	0	6	5
112912	08:10:06	10038	Trial	CongruentLeft	14	203	197	1	105	08:10:06	2364799	2	3	3	3	3	3	1	3	3	6	5	0	0	0	0	6	5
112912	08:10:06	10038	Trial	ResponseIL	14	0	175	0	105	08:10:06	2366292	2	3	3	3	3	3	1	3	3	6	5	0	0	0	0	6	5
112912	08:10:06	10038	Trial	IncongruentLeft	14	205	187	0	105	08:10:06	2366505	2	3	3	3	3	3	1	3	3	6	5	0	0	0	0	6	5
112912	08:10:06	10038	Trial	ResponseCL	14	0	175	0	105	08:10:06	2367998	2	3	3	3	3	3	1	3	3	6	5	0	0	0	0	6	5
112912	08:10:06	10038	Trial	CongruentLeft	14	203	256	1	105	08:10:06	2368278	2	3	3	3	3	3	1	3	3	6	5	0	0	0	0	6	5
112912	08:10:06	10038	Trial	ResponseIR	14	0	175	0	105	08:10:06	2369704	2	3	3	3	3	3	1	3	3	6	5	0	0	0	0	6	5
112912	08:10:06	10038	Trial	IncongruentRight	14	205	374	1	105	08:10:06	2370104	2	3	3	3	3	3	1	3	3	6	5	0	0	0	0	6	5
112912	08:10:06	10038	Trial	ResponseCR	14	0	175	0	105	08:10:06	2371410	2	3	3	3	3	3	1	3	3	6	5	0	0	0	0	6	5
112912	08:10:06	10038	Trial	CongruentRight	14	205	476	1	105	08:10:06	2371903	2	3	3	3	3	3	1	3	3	6	5	0	0	0	0	6	5
112912	08:10:06	10038	Trial	ResponseIL	14	0	175	0	105	08:10:06	2373116	2	3	3	3	3	3	1	3	3	6	5	0	0	0	0	6	5
112912	08:10:06	10038	Trial	IncongruentLeft	14	203	179	1	105	08:10:06	2373316	2	3	3	3	3	3	1	3	3	6	5	0	0	0	0	6	5
112912	08:10:06	10038	Trial	ResponseCL	14	0	175	0	105	08:10:06	2374822	2	3	3	3	3	3	1	3	3	6	5	0	0	0	0	6	5
112912	08:10:06	10038	Trial	CongruentLeft	14	203	201	1	105	08:10:06	2375049	2	3	3	3	3	3	1	3	3	6	5	0	0	0	0	6	5
112912	08:10:06	10038	Trial	ResponseIR	14	0	175	0	105	08:10:06	2376528	2	3	3	3	3	3	1	3	3	6	5	0	0	0	0	6	5
112912	08:10:06	10038	Trial	IncongruentRight	14	205	190	1	105	08:10:06	2376741	2	3	3	3	3	3	1	3	3	6	5	0	0	0	0	6	5
112912	08:10:06	10038	Trial	ResponseIL	14	0	175	0	105	08:10:06	2378234	2	3	3	3	3	3	1	3	3	6	5	0	0	0	0	6	5
112912	08:10:06	10038	Trial	IncongruentLeft	14	203	404	1	105	08:10:06	2378660	2	3	3	3	3	3	1	3	3	6	5	0	0	0	0	6	5
112912	08:10:06	10038	Trial	ResponseCL	14	0	175	0	105	08:10:06	2379940	2	3	3	3	3	3	1	3	3	6	5	0	0	0	0	6	5
112912	08:10:06	10038	Trial	CongruentLeft	14	203	218	1	105	08:10:06	2380180	2	3	3	3	3	3	1	3	3	6	5	0	0	0	0	6	5
112912	08:10:06	10038	Trial	ResponseIL	14	0	175	0	105	08:10:06	2381646	2	3	3	3	3	3	1	3	3	6	5	0	0	0	0	6	5
112912	08:10:06	10038	Trial	IncongruentLeft	14	203	272	1	105	08:10:06	2381939	2	3	3	3	3	3	1	3	3	6	5	0	0	0	0	6	5
112912	08:10:06	10038	Trial	ResponseCR	14	0	175	0	105	08:10:06	2383352	2	3	3	3	3	3	1	3	3	6	5	0	0	0	0	6	5
112912	08:10:06	10038	Trial	CongruentRight	14	205	374	1	105	08:10:06	2383752	2	3	3	3	3	3	1	3	3	6	5	0	0	0	0	6	5
112912	08:10:06	10038	Trial	ResponseCL	14	0	175	0	105	08:10:06	2385058	2	3	3	3	3	3	1	3	3	6	5	0	0	0	0	6	5
112912	08:10:06	10038	Trial	CongruentLeft	14	203	477	1	105	08:10:06	2385551	2	3	3	3	3	3	1	3	3	6	5	0	0	0	0	6	5
112912	08:10:06	10038	Trial	ResponseIR	14	0	175	0	105	08:10:06	2386764	2	3	3	3	3	3	1	3	3	6	5	0	0	0	0	6	5
112912	08:10:06	10038	Trial	IncongruentRight	14	205	386	1	105	08:10:06	2387177	2	3	3	3	3	3	1	3	3	6	5	0	0	0	0	6	5
112912	08:10:06	10038	Trial	ResponseCL	14	0	175	0	105	08:10:06	2388470	2	3	3	3	3	3	1	3	3	6	5	0	0	0	0	6	5
112912	08:10:06	10038	Trial	CongruentLeft	14	203	215	1	105	08:10:06	2388710	2	3	3	3	3	3	1	3	3	6	5	0	0	0	0	6	5
112912	08:10:06	10038	Trial	ResponseCR	14	0	175	0	105	08:10:06	2390176	2	3	3	3	3	3	1	3	3	6	5	0	0	0	0	6	5
112912	08:10:06	10038	Trial	CongruentRight	14	205	302	1	105	08:10:06	2390496	2	3	3	3	3	3	1	3	3	6	5	0	0	0	0	6	5
112912	08:10:06	10038	Trial	ResponseIL	14	0	175	0	105	08:10:06	2391882	2	3	3	3	3	3	1	3	3	6	5	0	0	0	0	6	5
112912	08:10:06	10038	Trial	IncongruentLeft	14	203	244	1	105	08:10:06	2392148	2	3	3	3	3	3	1	3	3	6	5	0	0	0	0	6	5
112912	08:10:06	10038	WordsAbsEngThreemo	PAbsEngThreemo1	16	Abs2	6013	0	105	08:10:06	2410207	2	3	3	3	3	3	1	3	3	6	5	0	0	0	0	6	5
112912	08:10:06	10038	WordsAbsEngThreemo	PAbsEngThreemo2	16	Abs1	5467	0	105	08:10:06	2415712	2	3	3	3	3	3	1	3	3	6	5	0	0	0	0	6	5
112912	08:10:06	10038	WordsAbsEngThreemo	AbsEngThreemo1	16	Abs1	4274	0	105	08:10:06	2420017	2	3	3	3	3	3	1	3	3	6	5	1	0	0	0	6	5
112912	08:10:06	10038	WordsAbsEngThreemo	AbsEngThreemo2	16	Abs1	31024	0	105	08:10:06	2451070	2	3	3	3	3	3	1	3	3	6	5	2	0	0	0	6	5
112912	08:10:06	10038	WordsAbsEngThreemo	AbsEngThreemo3	16	Abs2	26729	0	105	08:10:06	2477832	2	3	3	3	3	3	1	3	3	6	5	2	0	0	0	6	5
112912	08:10:06	10038	Trial2BackEngS	NS	17	0	1000	1	105	08:10:06	2545938	2	3	3	3	3	3	1	3	3	6	5	2	0	0	0	6	5
112912	08:10:06	10038	Trial2BackEngS	NS	17	0	1000	1	105	08:10:06	2547457	2	3	3	3	3	3	1	3	3	6	5	2	0	0	0	6	5
112912	08:10:06	10038	Trial2BackEngS	NS	17	0	1000	1	105	08:10:06	2548963	2	3	3	3	3	3	1	3	3	6	5	2	0	0	0	6	5
112912	08:10:06	10038	Trial2BackEngS	YS	17	57	570	1	105	08:10:06	2550043	2	3	3	3	3	3	1	3	3	6	5	2	0	0	0	6	5
112912	08:10:06	10038	Trial2BackEngS	NS	17	0	1000	1	105	08:10:06	2551975	2	3	3	3	3	3	1	3	3	6	5	2	0	0	0	6	5
112912	08:10:06	10038	Trial2BackEngS	NS	17	57	806	0	105	08:10:06	2553295	2	3	3	3	3	3	1	3	3	6	5	2	0	0	0	6	5
112912	08:10:06	10038	Trial2BackEngS	NS	17	0	1000	1	105	08:10:06	2554987	2	3	3	3	3	3	1	3	3	6	5	2	0	0	0	6	5
112912	08:10:06	10038	Trial2BackEngS	NS	17	0	1000	1	105	08:10:06	2556493	2	3	3	3	3	3	1	3	3	6	5	2	0	0	0	6	5
112912	08:10:06	10038	Trial2BackEngS	YS	17	57	735	1	105	08:10:06	2557746	2	3	3	3	3	3	1	3	3	6	5	2	0	0	0	6	5
112912	08:10:06	10038	Trial2BackEngS	NS	17	0	1000	1	105	08:10:06	2559505	2	3	3	3	3	3	1	3	3	6	5	2	0	0	0	6	5
112912	08:10:06	10038	Trial2BackEngS	NS	17	0	1000	1	105	08:10:06	2561011	2	3	3	3	3	3	1	3	3	6	5	2	0	0	0	6	5
112912	08:10:06	10038	Trial2BackEngS	YS	17	0	1000	0	105	08:10:06	2562531	2	3	3	3	3	3	1	3	3	6	5	2	0	0	0	6	5
112912	08:10:06	10038	Trial2BackEngS	NS	17	0	1000	1	105	08:10:06	2564037	2	3	3	3	3	3	1	3	3	6	5	2	0	0	0	6	5
112912	08:10:06	10038	Trial2BackEngS	NS	17	0	1000	1	105	08:10:06	2565543	2	3	3	3	3	3	1	3	3	6	5	2	0	0	0	6	5
112912	08:10:06	10038	Trial2BackEngS	NS	17	0	1000	1	105	08:10:06	2567049	2	3	3	3	3	3	1	3	3	6	5	2	0	0	0	6	5
112912	08:10:06	10038	Trial2BackEngS	YS	17	57	452	1	105	08:10:06	2568008	2	3	3	3	3	3	1	3	3	6	5	2	0	0	0	6	5
112912	08:10:06	10038	Trial2BackEngS	NS	17	0	1000	1	105	08:10:06	2570061	2	3	3	3	3	3	1	3	3	6	5	2	0	0	0	6	5
112912	08:10:06	10038	Trial2BackEngS	NS	17	0	1000	1	105	08:10:06	2571567	2	3	3	3	3	3	1	3	3	6	5	2	0	0	0	6	5
112912	08:10:06	10038	Trial2BackEngS	NS	17	57	605	0	105	08:10:06	2572686	2	3	3	3	3	3	1	3	3	6	5	2	0	0	0	6	5
112912	08:10:06	10038	Trial2BackEngS	NS	17	0	1000	1	105	08:10:06	2574579	2	3	3	3	3	3	1	3	3	6	5	2	0	0	0	6	5
112912	08:10:06	10038	Trial2BackEngS	YS	17	57	873	1	105	08:10:06	2575965	2	3	3	3	3	3	1	3	3	6	5	2	0	0	0	6	5
112912	08:10:06	10038	Trial2BackEngS	NS	17	0	1000	1	105	08:10:06	2577591	2	3	3	3	3	3	1	3	3	6	5	2	0	0	0	6	5
112912	08:10:06	10038	Trial2BackEngS	NS	17	0	1000	1	105	08:10:06	2579097	2	3	3	3	3	3	1	3	3	6	5	2	0	0	0	6	5
112912	08:10:06	10038	Trial2BackEngS	NS	17	0	1000	1	105	08:10:06	2580603	2	3	3	3	3	3	1	3	3	6	5	2	0	0	0	6	5
112912	08:10:06	10038	Trial2BackEngS	NS	17	57	529	0	105	08:10:06	2581643	2	3	3	3	3	3	1	3	3	6	5	2	0	0	0	6	5
112912	08:10:06	10038	Trial2BackEngS	NS	17	0	1000	1	105	08:10:06	2583615	2	3	3	3	3	3	1	3	3	6	5	2	0	0	0	6	5
112912	08:10:06	10038	Trial2BackEngS	NS	17	0	1000	1	105	08:10:06	2585121	2	3	3	3	3	3	1	3	3	6	5	2	0	0	0	6	5
112912	08:10:06	10038	Trial2BackEngS	NS	17	57	651	0	105	08:10:06	2586281	2	3	3	3	3	3	1	3	3	6	5	2	0	0	0	6	5
112912	08:10:06	10038	Trial2BackEngS	NS	17	0	1000	1	105	08:10:06	2588133	2	3	3	3	3	3	1	3	3	6	5	2	0	0	0	6	5
112912	08:10:06	10038	Trial2BackEngS	NS	17	57	694	0	105	08:10:06	2589346	2	3	3	3	3	3	1	3	3	6	5	2	0	0	0	6	5
112912	08:10:06	10038	Trial2BackEngS	NS	17	0	1000	1	105	08:10:06	2591146	2	3	3	3	3	3	1	3	3	6	5	2	0	0	0	6	5
112912	08:10:06	10038	Trial2BackEngS	YS	17	0	1000	0	105	08:10:06	2592652	2	3	3	3	3	3	1	3	3	6	5	2	0	0	0	6	5
112912	08:10:06	10038	Trial2BackEngS	NS	17	0	1000	1	105	08:10:06	2594158	2	3	3	3	3	3	1	3	3	6	5	2	0	0	0	6	5
112912	08:10:06	10038	Trial2BackEngS	NS	17	0	1000	1	105	08:10:06	2595664	2	3	3	3	3	3	1	3	3	6	5	2	0	0	0	6	5
112912	08:10:06	10038	Trial2BackEngS	NS	17	57	412	0	105	08:10:06	2596583	2	3	3	3	3	3	1	3	3	6	5	2	0	0	0	6	5
112912	08:10:06	10038	Trial2BackEngS	YS	17	0	1000	0	105	08:10:06	2598676	2	3	3	3	3	3	1	3	3	6	5	2	0	0	0	6	5
112912	08:10:06	10038	Trial2BackEngS	NS	17	0	1000	1	105	08:10:06	2600182	2	3	3	3	3	3	1	3	3	6	5	2	0	0	0	6	5
112912	08:10:06	10038	Trial2BackEngS	NS	17	0	1000	1	105	08:10:06	2601688	2	3	3	3	3	3	1	3	3	6	5	2	0	0	0	6	5
112912	08:10:06	10038	Trial2BackEngS	NS	17	57	595	0	105	08:10:06	2602794	2	3	3	3	3	3	1	3	3	6	5	2	0	0	0	6	5
112912	08:10:06	10038	Trial2BackEngS	NS	17	0	1000	1	105	08:10:06	2604700	2	3	3	3	3	3	1	3	3	6	5	2	0	0	0	6	5
112912	08:10:06	10038	Trial2BackEngS	NS	17	0	1000	1	105	08:10:06	2606206	2	3	3	3	3	3	1	3	3	6	5	2	0	0	0	6	5
112912	08:10:06	10038	Trial2BackEngS	NS	17	0	1000	1	105	08:10:06	2607712	2	3	3	3	3	3	1	3	3	6	5	2	0	0	0	6	5
112912	08:10:06	10038	Trial2BackEngS	NS	17	57	571	0	105	08:10:06	2608792	2	3	3	3	3	3	1	3	3	6	5	2	0	0	0	6	5
112912	08:10:06	10038	Trial2BackEngS	YS	17	0	1000	0	105	08:10:06	2610724	2	3	3	3	3	3	1	3	3	6	5	2	0	0	0	6	5
112912	08:10:06	10038	Trial2BackEngS	NS	17	0	1000	1	105	08:10:06	2612230	2	3	3	3	3	3	1	3	3	6	5	2	0	0	0	6	5
112912	08:10:06	10038	Trial2BackEngS	NS	17	57	693	0	105	08:10:06	2613443	2	3	3	3	3	3	1	3	3	6	5	2	0	0	0	6	5
112912	08:10:06	10038	Trial2BackEngS	NS	17	0	1000	1	105	08:10:06	2615242	2	3	3	3	3	3	1	3	3	6	5	2	0	0	0	6	5
112912	08:10:06	10038	Trial2BackEngS	NS	17	0	1000	1	105	08:10:06	2616748	2	3	3	3	3	3	1	3	3	6	5	2	0	0	0	6	5
112912	08:10:06	10038	Trial2BackEngS	YS	17	57	543	1	105	08:10:06	2617801	2	3	3	3	3	3	1	3	3	6	5	2	0	0	0	6	5
112912	08:10:06	10038	Trial2BackEngS	NS	17	0	1000	1	105	08:10:06	2619760	2	3	3	3	3	3	1	3	3	6	5	2	0	0	0	6	5
112912	08:10:06	10038	Trial2BackEngS	NS	17	0	1000	1	105	08:10:06	2621266	2	3	3	3	3	3	1	3	3	6	5	2	0	0	0	6	5
112912	08:10:06	10038	Trial2BackEngS	NS	17	0	1000	1	105	08:10:06	2622772	2	3	3	3	3	3	1	3	3	6	5	2	0	0	0	6	5
112912	08:10:06	10038	Trial2BackEngS	NS	17	57	630	0	105	08:10:06	2623919	2	3	3	3	3	3	1	3	3	6	5	2	0	0	0	6	5
112912	08:10:06	10038	Trial2BackEngS	NS	17	0	1000	1	105	08:10:06	2625784	2	3	3	3	3	3	1	3	3	6	5	2	0	0	0	6	5
112912	08:10:06	10038	Trial2BackEngS	NS	17	0	1000	1	105	08:10:06	2627290	2	3	3	3	3	3	1	3	3	6	5	2	0	0	0	6	5
112912	08:10:06	10038	Trial2BackEngS	YS	17	57	656	1	105	08:10:06	2628463	2	3	3	3	3	3	1	3	3	6	5	2	0	0	0	6	5
112912	08:10:06	10038	Trial2BackEngS	NS	17	0	1000	1	105	08:10:06	2630303	2	3	3	3	3	3	1	3	3	6	5	2	0	0	0	6	5
112912	08:10:06	10038	Trial2BackEngS	NS	17	0	1000	1	105	08:10:06	2631822	2	3	3	3	3	3	1	3	3	6	5	2	0	0	0	6	5
112912	08:10:06	10038	Trial2BackEngS	NS	17	0	1000	1	105	08:10:06	2633328	2	3	3	3	3	3	1	3	3	6	5	2	0	0	0	6	5
112912	08:10:06	10038	Trial2BackEngS	NS	17	57	618	0	105	08:10:06	2634461	2	3	3	3	3	3	1	3	3	6	5	2	0	0	0	6	5
112912	08:10:06	10038	Trial2BackEngS	NS	17	0	1000	1	105	08:10:06	2636340	2	3	3	3	3	3	1	3	3	6	5	2	0	0	0	6	5
112912	08:10:06	10038	Trial2BackEngS	NS	17	0	1000	1	105	08:10:06	2637846	2	3	3	3	3	3	1	3	3	6	5	2	0	0	0	6	5
112912	08:10:06	10038	Trial2BackEngS	NS	17	0	1000	1	105	08:10:06	2639352	2	3	3	3	3	3	1	3	3	6	5	2	0	0	0	6	5
112912	08:10:06	10038	Trial2BackEngS	YS	17	0	1000	0	105	08:10:06	2640872	2	3	3	3	3	3	1	3	3	6	5	2	0	0	0	6	5
112912	08:10:06	10038	Trial2BackEngS	NS	17	57	658	0	105	08:10:06	2642044	2	3	3	3	3	3	1	3	3	6	5	2	0	0	0	6	5
112912	08:10:06	10038	Trial2BackEngS	NS	17	0	1000	1	105	08:10:06	2643884	2	3	3	3	3	3	1	3	3	6	5	2	0	0	0	6	5
112912	08:10:06	10038	Trial2BackEngS	NS	17	0	1000	1	105	08:10:06	2645390	2	3	3	3	3	3	1	3	3	6	5	2	0	0	0	6	5
112912	08:10:06	10038	Trial2BackEngS	NS	17	0	1000	1	105	08:10:06	2646896	2	3	3	3	3	3	1	3	3	6	5	2	0	0	0	6	5
112912	08:10:06	10038	Trial2BackEngS	YS	17	0	1000	0	105	08:10:06	2648402	2	3	3	3	3	3	1	3	3	6	5	2	0	0	0	6	5
112912	08:10:06	10038	Trial2BackEngS	NS	17	57	648	0	105	08:10:06	2649561	2	3	3	3	3	3	1	3	3	6	5	2	0	0	0	6	5
112912	08:10:06	10038	Trial2BackEngS	NS	17	0	1000	1	105	08:10:06	2651414	2	3	3	3	3	3	1	3	3	6	5	2	0	0	0	6	5
112912	08:10:06	10038	Trial2BackEngS	YS	17	0	1000	0	105	08:10:06	2652920	2	3	3	3	3	3	1	3	3	6	5	2	0	0	0	6	5
112912	08:10:06	10038	Trial2BackEngS	NS	17	0	1000	1	105	08:10:06	2654426	2	3	3	3	3	3	1	3	3	6	5	2	0	0	0	6	5
112912	08:10:06	10038	Trial2BackEngS	NS	17	57	383	0	105	08:10:06	2655319	2	3	3	3	3	3	1	3	3	6	5	2	0	0	0	6	5
112912	08:10:06	10038	Trial2BackEngS	NS	17	0	1000	1	105	08:10:06	2657438	2	3	3	3	3	3	1	3	3	6	5	2	0	0	0	6	5
112912	08:10:06	10038	Trial2BackEngS	NS	17	0	1000	1	105	08:10:06	2658944	2	3	3	3	3	3	1	3	3	6	5	2	0	0	0	6	5
112912	08:10:06	10038	Trial2BackEngS	NS	17	0	1000	1	105	08:10:06	2660450	2	3	3	3	3	3	1	3	3	6	5	2	0	0	0	6	5
112912	08:10:06	10038	Trial2BackEngS	NS	17	57	631	0	105	08:10:06	2661596	2	3	3	3	3	3	1	3	3	6	5	2	0	0	0	6	5
112912	08:10:06	10038	Trial2BackEngS	YS	17	0	1000	0	105	08:10:06	2663462	2	3	3	3	3	3	1	3	3	6	5	2	0	0	0	6	5
112912	08:10:06	10038	Trial2BackEngS	NS	17	0	1000	1	105	08:10:06	2664968	2	3	3	3	3	3	1	3	3	6	5	2	0	0	0	6	5
112912	08:10:06	10038	Trial2BackEngS	NS	17	57	529	0	105	08:10:06	2666008	2	3	3	3	3	3	1	3	3	6	5	2	0	0	0	6	5
112912	08:10:06	10038	Trial2BackEngS	NS	17	0	1000	1	105	08:10:06	2667980	2	3	3	3	3	3	1	3	3	6	5	2	0	0	0	6	5
112912	08:10:06	10038	Trial2BackEngS	NS	17	0	1000	1	105	08:10:06	2669486	2	3	3	3	3	3	1	3	3	6	5	2	0	0	0	6	5
112912	08:10:06	10038	Trial2BackEngS	YS	17	0	1000	0	105	08:10:06	2670992	2	3	3	3	3	3	1	3	3	6	5	2	0	0	0	6	5
112912	08:10:06	10038	Trial2BackEngS	NS	17	0	1000	1	105	08:10:06	2672498	2	3	3	3	3	3	1	3	3	6	5	2	0	0	0	6	5
112912	08:10:06	10038	Trial2BackEngS	NS	17	57	710	0	105	08:10:06	2673724	2	3	3	3	3	3	1	3	3	6	5	2	0	0	0	6	5
112912	08:10:06	10038	Trial2BackEngS	NS	17	0	1000	1	105	08:10:06	2675510	2	3	3	3	3	3	1	3	3	6	5	2	0	0	0	6	5
112912	08:10:06	10038	Trial2BackEngS	NS	17	0	1000	1	105	08:10:06	2677016	2	3	3	3	3	3	1	3	3	6	5	2	0	0	0	6	5
112912	08:10:06	10038	Trial2BackEngS	YS	17	57	800	1	105	08:10:06	2678336	2	3	3	3	3	3	1	3	3	6	5	2	0	0	0	6	5
112912	08:10:06	10038	Trial2BackEngS	NS	17	0	1000	1	105	08:10:06	2680029	2	3	3	3	3	3	1	3	3	6	5	2	0	0	0	6	5
112912	08:10:06	10038	Trial2BackEngS	NS	17	0	1000	1	105	08:10:06	2681535	2	3	3	3	3	3	1	3	3	6	5	2	0	0	0	6	5
112912	08:10:06	10038	Trial2BackEngS	YS	17	57	410	1	105	08:10:06	2682454	2	3	3	3	3	3	1	3	3	6	5	2	0	0	0	6	5
112912	08:10:06	10038	Trial2BackEngS	NS	17	0	1000	1	105	08:10:06	2684547	2	3	3	3	3	3	1	3	3	6	5	2	0	0	0	6	5
112912	08:10:06	10038	Trial2BackEngS	NS	17	0	1000	1	105	08:10:06	2686053	2	3	3	3	3	3	1	3	3	6	5	2	0	0	0	6	5
112912	08:10:06	10038	Trial2BackEngS	NS	17	0	1000	1	105	08:10:06	2687559	2	3	3	3	3	3	1	3	3	6	5	2	0	0	0	6	5
112912	08:10:06	10038	Trial2BackEngS	NS	17	0	1000	1	105	08:10:06	2689065	2	3	3	3	3	3	1	3	3	6	5	2	0	0	0	6	5
112912	08:10:06	10038	Trial2BackEngS	NS	17	0	1000	1	105	08:10:06	2690571	2	3	3	3	3	3	1	3	3	6	5	2	0	0	0	6	5
112912	08:10:06	10038	Trial2BackEngS	NS	17	0	1000	1	105	08:10:06	2692077	2	3	3	3	3	3	1	3	3	6	5	2	0	0	0	6	5
112912	08:10:06	10038	Trial2BackEngS	NS	17	0	1000	1	105	08:10:06	2693583	2	3	3	3	3	3	1	3	3	6	5	2	0	0	0	6	5
112912	08:10:06	10038	Trial2BackEngS	NS	17	57	601	0	105	08:10:06	2694702	2	3	3	3	3	3	1	3	3	6	5	2	0	0	0	6	5
112912	08:10:06	10038	Trial2BackEngS	YS	17	0	1000	0	105	08:10:06	2696595	2	3	3	3	3	3	1	3	3	6	5	2	0	0	0	6	5
112912	08:10:06	10038	Trial2BackEngS	NS	17	0	1000	1	105	08:10:06	2698114	2	3	3	3	3	3	1	3	3	6	5	2	0	0	0	6	5
112912	08:10:06	10038	Trial2BackEngS	NS	17	57	325	0	105	08:10:06	2698954	2	3	3	3	3	3	1	3	3	6	5	2	0	0	0	6	5
112912	08:10:06	10038	Trial2BackEngS	NS	17	0	1000	1	105	08:10:06	2701126	2	3	3	3	3	3	1	3	3	6	5	2	0	0	0	6	5
112912	08:10:06	10038	Trial2BackEngS	NS	17	57	737	0	105	08:10:06	2702379	2	3	3	3	3	3	1	3	3	6	5	2	0	0	0	6	5
112912	08:10:06	10038	Trial2BackEngS	NS	17	0	1000	1	105	08:10:06	2704139	2	3	3	3	3	3	1	3	3	6	5	2	0	0	0	6	5
112912	08:10:06	10038	Trial2BackEngS	NS	17	0	1000	1	105	08:10:06	2705658	2	3	3	3	3	3	1	3	3	6	5	2	0	0	0	6	5
112912	08:10:06	10038	Trial2BackEngS	NS	17	57	574	0	105	08:10:06	2706751	2	3	3	3	3	3	1	3	3	6	5	2	0	0	0	6	5
112912	08:10:06	10038	Trial2BackEngS	YS	17	0	1000	0	105	08:10:06	2708670	2	3	3	3	3	3	1	3	3	6	5	2	0	0	0	6	5
112912	08:10:06	10038	Trial2BackEngS	NS	17	0	1000	1	105	08:10:06	2710176	2	3	3	3	3	3	1	3	3	6	5	2	0	0	0	6	5
112912	08:10:06	10038	Trial2BackEngS	NS	17	0	1000	1	105	08:10:06	2711695	2	3	3	3	3	3	1	3	3	6	5	2	0	0	0	6	5
112912	08:10:06	10038	Trial2BackEngS	NS	17	0	1000	1	105	08:10:06	2713201	2	3	3	3	3	3	1	3	3	6	5	2	0	0	0	6	5
112912	08:10:06	10038	Trial2BackEngS	NS	17	0	1000	1	105	08:10:06	2714708	2	3	3	3	3	3	1	3	3	6	5	2	0	0	0	6	5
112912	08:10:06	10038	Trial2BackEngS	NS	17	57	359	0	105	08:10:06	2715587	2	3	3	3	3	3	1	3	3	6	5	2	0	0	0	6	5
112912	08:10:06	10038	Trial2BackEngS	NS	17	0	1000	1	105	08:10:06	2717720	2	3	3	3	3	3	1	3	3	6	5	2	0	0	0	6	5
112912	08:10:06	10038	Trial2BackEngS	NS	17	0	1000	1	105	08:10:06	2719226	2	3	3	3	3	3	1	3	3	6	5	2	0	0	0	6	5
112912	08:10:06	10038	Trial2BackEngS	NS	17	0	1000	1	105	08:10:06	2720732	2	3	3	3	3	3	1	3	3	6	5	2	0	0	0	6	5
112912	08:10:06	10038	Trial2BackEngS	NS	17	0	1000	1	105	08:10:06	2722238	2	3	3	3	3	3	1	3	3	6	5	2	0	0	0	6	5
112912	08:10:06	10038	Trial2BackEngS	YS	17	0	1000	0	105	08:10:06	2723744	2	3	3	3	3	3	1	3	3	6	5	2	0	0	0	6	5
112912	08:10:06	10038	Trial2BackEngS	NS	17	57	407	0	105	08:10:06	2724663	2	3	3	3	3	3	1	3	3	6	5	2	0	0	0	6	5
112912	08:10:06	10038	ClockEng3mo	ClockEng3mo	19	Clock1	62529	0	105	08:10:06	2787904	2	3	3	3	3	3	1	3	3	6	5	2	1	0	0	6	5
112912	08:10:06	10038	ClockEng3mo	ClockEng3mo	19	Clock11	456	0	105	08:10:06	2788410	2	3	3	3	3	3	1	3	3	6	5	2	1	1	0	6	5
112912	08:10:06	10038	ClockEng3mo	ClockEng3mo	19	Clock111	501	0	105	08:10:06	2788957	2	3	3	3	3	3	1	3	3	6	5	2	1	1	1	6	5
112912	08:10:06	10038	ClockEng3mo	ClockEng3mo	19	Clockdone	475	0	105	08:10:06	2789476	2	3	3	3	3	3	1	3	3	6	5	2	1	1	1	6	5
112912	08:10:06	10038	FASEngVF3mo	StopEngVF3mo	20	13	4374	0	105	08:10:06	2896474	2	3	3	3	3	3	1	3	3	6	5	2	1	1	1	6	5
