date	time	subject	blockcode	trialcode	values.TaskNumber	response	latency	correct	values.Score	script.starttime	script.elapsedtime	values.ScoreS7	values.Word1	values.Word2	values.Word3	values.Word4	values.Word5	values.Word6	values.Word7	values.Word8	values.DigitSpanFwrd	values.DigitSpanBack	values.ScoreAbs	values.Contour	values.Numbers	values.Hands	values.corsiblockspanFwrd	values.corsiblockspanRev
111912	12:25:24	10035	Language	Language	0	English	105716	0	0	12:25:24	105819	0	0	0	0	0	0	0	0	0	0	0	0	0	0	0	0	0
111912	12:25:24	10035	Session	Session	0	3mo	1318	0	0	12:25:24	107219	0	0	0	0	0	0	0	0	0	0	0	0	0	0	0	0	0
111912	12:25:24	10035	HandEng	HandEng	0	Right	1447	0	0	12:25:24	108738	0	0	0	0	0	0	0	0	0	0	0	0	0	0	0	0	0
111912	12:25:24	10035	CubeEng	CubeEng	1	1Cube	50275	0	0	12:25:24	1277809	0	0	0	0	0	0	0	0	0	0	0	0	0	0	0	0	0
111912	12:25:24	10035	pm.simpleEngRight	blank.simpleEng	2	0	2200	1	0	12:25:24	1301920	0	0	0	0	0	0	0	0	0	0	0	0	0	0	0	0	0
111912	12:25:24	10035	pm.simpleEngRight	pm.simpleEng	2	57	291	0	0	12:25:24	1302239	0	0	0	0	0	0	0	0	0	0	0	0	0	0	0	0	0
111912	12:25:24	10035	pm.simpleEngRight	blank.simpleEng	2	0	2400	1	0	12:25:24	1304652	0	0	0	0	0	0	0	0	0	0	0	0	0	0	0	0	0
111912	12:25:24	10035	pm.simpleEngRight	pm.simpleEng	2	57	358	0	0	12:25:24	1305038	0	0	0	0	0	0	0	0	0	0	0	0	0	0	0	0	0
111912	12:25:24	10035	pm.simpleEngRight	blank.simpleEng	2	0	1700	1	0	12:25:24	1306758	0	0	0	0	0	0	0	0	0	0	0	0	0	0	0	0	0
111912	12:25:24	10035	pm.simpleEngRight	pm.simpleEng	2	57	536	0	0	12:25:24	1307319	0	0	0	0	0	0	0	0	0	0	0	0	0	0	0	0	0
111912	12:25:24	10035	pm.simpleEngRight	blank.simpleEng	2	0	2100	1	0	12:25:24	1309437	0	0	0	0	0	0	0	0	0	0	0	0	0	0	0	0	0
111912	12:25:24	10035	pm.simpleEngRight	pm.simpleEng	2	57	342	0	0	12:25:24	1309796	0	0	0	0	0	0	0	0	0	0	0	0	0	0	0	0	0
111912	12:25:24	10035	pm.simpleEngRight	blank.simpleEng	2	0	2000	1	0	12:25:24	1311809	0	0	0	0	0	0	0	0	0	0	0	0	0	0	0	0	0
111912	12:25:24	10035	pm.simpleEngRight	pm.simpleEng	2	57	385	0	0	12:25:24	1312222	0	0	0	0	0	0	0	0	0	0	0	0	0	0	0	0	0
111912	12:25:24	10035	pm.simpleEngRight	blank.simpleEng	2	0	1800	1	0	12:25:24	1314034	0	0	0	0	0	0	0	0	0	0	0	0	0	0	0	0	0
111912	12:25:24	10035	pm.simpleEngRight	pm.simpleEng	2	57	416	0	0	12:25:24	1314474	0	0	0	0	0	0	0	0	0	0	0	0	0	0	0	0	0
111912	12:25:24	10035	pm.simpleEngRight	blank.simpleEng	2	0	2300	1	0	12:25:24	1316794	0	0	0	0	0	0	0	0	0	0	0	0	0	0	0	0	0
111912	12:25:24	10035	pm.simpleEngRight	pm.simpleEng	2	57	417	0	0	12:25:24	1317239	0	0	0	0	0	0	0	0	0	0	0	0	0	0	0	0	0
111912	12:25:24	10035	pm.simpleEngRight	blank.simpleEng	2	0	1600	1	0	12:25:24	1318873	0	0	0	0	0	0	0	0	0	0	0	0	0	0	0	0	0
111912	12:25:24	10035	pm.simpleEngRight	pm.simpleEng	2	57	393	0	0	12:25:24	1319286	0	0	0	0	0	0	0	0	0	0	0	0	0	0	0	0	0
111912	12:25:24	10035	pm.simpleEngRight	blank.simpleEng	2	0	2500	1	0	12:25:24	1321805	0	0	0	0	0	0	0	0	0	0	0	0	0	0	0	0	0
111912	12:25:24	10035	pm.simpleEngRight	pm.simpleEng	2	57	293	0	0	12:25:24	1322125	0	0	0	0	0	0	0	0	0	0	0	0	0	0	0	0	0
111912	12:25:24	10035	pm.simpleEngRight	blank.simpleEng	2	0	1500	1	0	12:25:24	1323644	0	0	0	0	0	0	0	0	0	0	0	0	0	0	0	0	0
111912	12:25:24	10035	pm.simpleEngRight	pm.simpleEng	2	57	374	0	0	12:25:24	1324044	0	0	0	0	0	0	0	0	0	0	0	0	0	0	0	0	0
111912	12:25:24	10035	pm.simpleEngRight	blank.simpleEng	2	0	1900	1	0	12:25:24	1325964	0	0	0	0	0	0	0	0	0	0	0	0	0	0	0	0	0
111912	12:25:24	10035	pm.simpleEngRight	pm.simpleEng	2	57	342	0	0	12:25:24	1326323	0	0	0	0	0	0	0	0	0	0	0	0	0	0	0	0	0
111912	12:25:24	10035	pm.simpleEngRight	blank.simpleEng	2	0	2300	1	0	12:25:24	1328642	0	0	0	0	0	0	0	0	0	0	0	0	0	0	0	0	0
111912	12:25:24	10035	pm.simpleEngRight	pm.simpleEng	2	57	319	0	0	12:25:24	1328989	0	0	0	0	0	0	0	0	0	0	0	0	0	0	0	0	0
111912	12:25:24	10035	pm.simpleEngRight	blank.simpleEng	2	0	1500	1	0	12:25:24	1330508	0	0	0	0	0	0	0	0	0	0	0	0	0	0	0	0	0
111912	12:25:24	10035	pm.simpleEngRight	pm.simpleEng	2	57	439	0	0	12:25:24	1330976	0	0	0	0	0	0	0	0	0	0	0	0	0	0	0	0	0
111912	12:25:24	10035	pm.simpleEngRight	blank.simpleEng	2	0	1700	1	0	12:25:24	1332694	0	0	0	0	0	0	0	0	0	0	0	0	0	0	0	0	0
111912	12:25:24	10035	pm.simpleEngRight	pm.simpleEng	2	57	441	0	0	12:25:24	1333160	0	0	0	0	0	0	0	0	0	0	0	0	0	0	0	0	0
111912	12:25:24	10035	pm.simpleEngRight	blank.simpleEng	2	0	2400	1	0	12:25:24	1335586	0	0	0	0	0	0	0	0	0	0	0	0	0	0	0	0	0
111912	12:25:24	10035	pm.simpleEngRight	pm.simpleEng	2	57	287	0	0	12:25:24	1335893	0	0	0	0	0	0	0	0	0	0	0	0	0	0	0	0	0
111912	12:25:24	10035	pm.simpleEngRight	blank.simpleEng	2	0	2500	1	0	12:25:24	1338412	0	0	0	0	0	0	0	0	0	0	0	0	0	0	0	0	0
111912	12:25:24	10035	pm.simpleEngRight	pm.simpleEng	2	57	310	0	0	12:25:24	1338745	0	0	0	0	0	0	0	0	0	0	0	0	0	0	0	0	0
111912	12:25:24	10035	pm.simpleEngRight	blank.simpleEng	2	0	2100	1	0	12:25:24	1340864	0	0	0	0	0	0	0	0	0	0	0	0	0	0	0	0	0
111912	12:25:24	10035	pm.simpleEngRight	pm.simpleEng	2	57	317	0	0	12:25:24	1341211	0	0	0	0	0	0	0	0	0	0	0	0	0	0	0	0	0
111912	12:25:24	10035	pm.simpleEngRight	blank.simpleEng	2	0	1800	1	0	12:25:24	1343037	0	0	0	0	0	0	0	0	0	0	0	0	0	0	0	0	0
111912	12:25:24	10035	pm.simpleEngRight	pm.simpleEng	2	57	357	0	0	12:25:24	1343425	0	0	0	0	0	0	0	0	0	0	0	0	0	0	0	0	0
111912	12:25:24	10035	pm.simpleEngRight	blank.simpleEng	2	0	1900	1	0	12:25:24	1345343	0	0	0	0	0	0	0	0	0	0	0	0	0	0	0	0	0
111912	12:25:24	10035	pm.simpleEngRight	pm.simpleEng	2	57	340	0	0	12:25:24	1345702	0	0	0	0	0	0	0	0	0	0	0	0	0	0	0	0	0
111912	12:25:24	10035	pm.simpleEngRight	blank.simpleEng	2	0	2200	1	0	12:25:24	1347915	0	0	0	0	0	0	0	0	0	0	0	0	0	0	0	0	0
111912	12:25:24	10035	pm.simpleEngRight	pm.simpleEng	2	57	360	0	0	12:25:24	1348301	0	0	0	0	0	0	0	0	0	0	0	0	0	0	0	0	0
111912	12:25:24	10035	pm.simpleEngRight	blank.simpleEng	2	0	2000	1	0	12:25:24	1350327	0	0	0	0	0	0	0	0	0	0	0	0	0	0	0	0	0
111912	12:25:24	10035	pm.simpleEngRight	pm.simpleEng	2	57	346	0	0	12:25:24	1350700	0	0	0	0	0	0	0	0	0	0	0	0	0	0	0	0	0
111912	12:25:24	10035	pm.simpleEngRight	blank.simpleEng	2	0	1600	1	0	12:25:24	1352313	0	0	0	0	0	0	0	0	0	0	0	0	0	0	0	0	0
111912	12:25:24	10035	pm.simpleEngRight	pm.simpleEng	2	57	376	0	0	12:25:24	1352713	0	0	0	0	0	0	0	0	0	0	0	0	0	0	0	0	0
111912	12:25:24	10035	pm.simpleEngRight	blank.simpleEng	2	0	1900	1	0	12:25:24	1354632	0	0	0	0	0	0	0	0	0	0	0	0	0	0	0	0	0
111912	12:25:24	10035	pm.simpleEngRight	pm.simpleEng	2	57	345	0	0	12:25:24	1355006	0	0	0	0	0	0	0	0	0	0	0	0	0	0	0	0	0
111912	12:25:24	10035	pm.simpleEngRight	blank.simpleEng	2	0	2300	1	0	12:25:24	1357324	0	0	0	0	0	0	0	0	0	0	0	0	0	0	0	0	0
111912	12:25:24	10035	pm.simpleEngRight	pm.simpleEng	2	57	341	0	0	12:25:24	1357684	0	0	0	0	0	0	0	0	0	0	0	0	0	0	0	0	0
111912	12:25:24	10035	pm.simpleEngRight	blank.simpleEng	2	0	1600	1	0	12:25:24	1359297	0	0	0	0	0	0	0	0	0	0	0	0	0	0	0	0	0
111912	12:25:24	10035	pm.simpleEngRight	pm.simpleEng	2	57	368	0	0	12:25:24	1359684	0	0	0	0	0	0	0	0	0	0	0	0	0	0	0	0	0
111912	12:25:24	10035	pm.simpleEngRight	blank.simpleEng	2	0	2400	1	0	12:25:24	1362109	0	0	0	0	0	0	0	0	0	0	0	0	0	0	0	0	0
111912	12:25:24	10035	pm.simpleEngRight	pm.simpleEng	2	57	292	0	0	12:25:24	1362429	0	0	0	0	0	0	0	0	0	0	0	0	0	0	0	0	0
111912	12:25:24	10035	pm.simpleEngRight	blank.simpleEng	2	0	1500	1	0	12:25:24	1363948	0	0	0	0	0	0	0	0	0	0	0	0	0	0	0	0	0
111912	12:25:24	10035	pm.simpleEngRight	pm.simpleEng	2	57	357	0	0	12:25:24	1364335	0	0	0	0	0	0	0	0	0	0	0	0	0	0	0	0	0
111912	12:25:24	10035	pm.simpleEngRight	blank.simpleEng	2	0	2100	1	0	12:25:24	1366454	0	0	0	0	0	0	0	0	0	0	0	0	0	0	0	0	0
111912	12:25:24	10035	pm.simpleEngRight	pm.simpleEng	2	57	283	0	0	12:25:24	1366760	0	0	0	0	0	0	0	0	0	0	0	0	0	0	0	0	0
111912	12:25:24	10035	pm.simpleEngRight	blank.simpleEng	2	0	1700	1	0	12:25:24	1368480	0	0	0	0	0	0	0	0	0	0	0	0	0	0	0	0	0
111912	12:25:24	10035	pm.simpleEngRight	pm.simpleEng	2	57	338	0	0	12:25:24	1368840	0	0	0	0	0	0	0	0	0	0	0	0	0	0	0	0	0
111912	12:25:24	10035	pm.simpleEngRight	blank.simpleEng	2	0	2500	1	0	12:25:24	1371359	0	0	0	0	0	0	0	0	0	0	0	0	0	0	0	0	0
111912	12:25:24	10035	pm.simpleEngRight	pm.simpleEng	2	57	274	0	0	12:25:24	1371652	0	0	0	0	0	0	0	0	0	0	0	0	0	0	0	0	0
111912	12:25:24	10035	pm.simpleEngRight	blank.simpleEng	2	0	1800	1	0	12:25:24	1373464	0	0	0	0	0	0	0	0	0	0	0	0	0	0	0	0	0
111912	12:25:24	10035	pm.simpleEngRight	pm.simpleEng	2	57	328	0	0	12:25:24	1373811	0	0	0	0	0	0	0	0	0	0	0	0	0	0	0	0	0
111912	12:25:24	10035	pm.simpleEngRight	blank.simpleEng	2	0	2000	1	0	12:25:24	1375824	0	0	0	0	0	0	0	0	0	0	0	0	0	0	0	0	0
111912	12:25:24	10035	pm.simpleEngRight	pm.simpleEng	2	57	345	0	0	12:25:24	1376197	0	0	0	0	0	0	0	0	0	0	0	0	0	0	0	0	0
111912	12:25:24	10035	pm.simpleEngRight	blank.simpleEng	2	0	2200	1	0	12:25:24	1378409	0	0	0	0	0	0	0	0	0	0	0	0	0	0	0	0	0
111912	12:25:24	10035	pm.simpleEngRight	pm.simpleEng	2	57	312	0	0	12:25:24	1378743	0	0	0	0	0	0	0	0	0	0	0	0	0	0	0	0	0
111912	12:25:24	10035	pm.simpleEngRight	blank.simpleEng	2	0	2300	1	0	12:25:24	1381062	0	0	0	0	0	0	0	0	0	0	0	0	0	0	0	0	0
111912	12:25:24	10035	pm.simpleEngRight	pm.simpleEng	2	57	299	0	0	12:25:24	1381381	0	0	0	0	0	0	0	0	0	0	0	0	0	0	0	0	0
111912	12:25:24	10035	pm.simpleEngRight	blank.simpleEng	2	0	1800	1	0	12:25:24	1383194	0	0	0	0	0	0	0	0	0	0	0	0	0	0	0	0	0
111912	12:25:24	10035	pm.simpleEngRight	pm.simpleEng	2	57	343	0	0	12:25:24	1383554	0	0	0	0	0	0	0	0	0	0	0	0	0	0	0	0	0
111912	12:25:24	10035	pm.simpleEngRight	blank.simpleEng	2	0	2200	1	0	12:25:24	1385780	0	0	0	0	0	0	0	0	0	0	0	0	0	0	0	0	0
111912	12:25:24	10035	pm.simpleEngRight	pm.simpleEng	2	57	253	0	0	12:25:24	1386059	0	0	0	0	0	0	0	0	0	0	0	0	0	0	0	0	0
111912	12:25:24	10035	pm.simpleEngRight	blank.simpleEng	2	0	2500	1	0	12:25:24	1388578	0	0	0	0	0	0	0	0	0	0	0	0	0	0	0	0	0
111912	12:25:24	10035	pm.simpleEngRight	pm.simpleEng	2	57	270	0	0	12:25:24	1388872	0	0	0	0	0	0	0	0	0	0	0	0	0	0	0	0	0
111912	12:25:24	10035	pm.simpleEngRight	blank.simpleEng	2	0	2100	1	0	12:25:24	1390991	0	0	0	0	0	0	0	0	0	0	0	0	0	0	0	0	0
111912	12:25:24	10035	pm.simpleEngRight	pm.simpleEng	2	57	306	0	0	12:25:24	1391324	0	0	0	0	0	0	0	0	0	0	0	0	0	0	0	0	0
111912	12:25:24	10035	pm.simpleEngRight	blank.simpleEng	2	0	1600	1	0	12:25:24	1392937	0	0	0	0	0	0	0	0	0	0	0	0	0	0	0	0	0
111912	12:25:24	10035	pm.simpleEngRight	pm.simpleEng	2	57	345	0	0	12:25:24	1393310	0	0	0	0	0	0	0	0	0	0	0	0	0	0	0	0	0
111912	12:25:24	10035	pm.simpleEngRight	blank.simpleEng	2	0	2400	1	0	12:25:24	1395722	0	0	0	0	0	0	0	0	0	0	0	0	0	0	0	0	0
111912	12:25:24	10035	pm.simpleEngRight	pm.simpleEng	2	57	294	0	0	12:25:24	1396042	0	0	0	0	0	0	0	0	0	0	0	0	0	0	0	0	0
111912	12:25:24	10035	Trial2BackEng	N	3	0	1000	1	1	12:25:24	1447477	0	0	0	0	0	0	0	0	0	0	0	0	0	0	0	0	0
111912	12:25:24	10035	Trial2BackEng	N	3	0	1000	1	2	12:25:24	1448995	0	0	0	0	0	0	0	0	0	0	0	0	0	0	0	0	0
111912	12:25:24	10035	Trial2BackEng	N	3	0	1000	1	3	12:25:24	1450501	0	0	0	0	0	0	0	0	0	0	0	0	0	0	0	0	0
111912	12:25:24	10035	Trial2BackEng	N	3	0	1000	1	4	12:25:24	1452007	0	0	0	0	0	0	0	0	0	0	0	0	0	0	0	0	0
111912	12:25:24	10035	Trial2BackEng	N	3	0	1000	1	5	12:25:24	1453513	0	0	0	0	0	0	0	0	0	0	0	0	0	0	0	0	0
111912	12:25:24	10035	Trial2BackEng	N	3	0	1000	1	6	12:25:24	1455019	0	0	0	0	0	0	0	0	0	0	0	0	0	0	0	0	0
111912	12:25:24	10035	Trial2BackEng	N	3	0	1000	1	7	12:25:24	1456525	0	0	0	0	0	0	0	0	0	0	0	0	0	0	0	0	0
111912	12:25:24	10035	Trial2BackEng	N	3	0	1000	1	8	12:25:24	1458031	0	0	0	0	0	0	0	0	0	0	0	0	0	0	0	0	0
111912	12:25:24	10035	Trial2BackEng	Y	3	57	870	1	9	12:25:24	1459417	0	0	0	0	0	0	0	0	0	0	0	0	0	0	0	0	0
111912	12:25:24	10035	Trial2BackEng	N	3	0	1000	1	10	12:25:24	1461043	0	0	0	0	0	0	0	0	0	0	0	0	0	0	0	0	0
111912	12:25:24	10035	Trial2BackEng	N	3	0	1000	1	11	12:25:24	1462549	0	0	0	0	0	0	0	0	0	0	0	0	0	0	0	0	0
111912	12:25:24	10035	Trial2BackEng	N	3	0	1000	1	12	12:25:24	1464056	0	0	0	0	0	0	0	0	0	0	0	0	0	0	0	0	0
111912	12:25:24	10035	Trial2BackEng	Y	3	57	509	1	13	12:25:24	1465082	0	0	0	0	0	0	0	0	0	0	0	0	0	0	0	0	0
111912	12:25:24	10035	Trial2BackEng	N	3	0	1000	1	14	12:25:24	1467068	0	0	0	0	0	0	0	0	0	0	0	0	0	0	0	0	0
111912	12:25:24	10035	Trial2BackEng	N	3	0	1000	1	15	12:25:24	1468574	0	0	0	0	0	0	0	0	0	0	0	0	0	0	0	0	0
111912	12:25:24	10035	Trial2BackEng	N	3	0	1000	1	16	12:25:24	1470080	0	0	0	0	0	0	0	0	0	0	0	0	0	0	0	0	0
111912	12:25:24	10035	Trial2BackEng	N	3	0	1000	1	17	12:25:24	1471613	0	0	0	0	0	0	0	0	0	0	0	0	0	0	0	0	0
111912	12:25:24	10035	Trial2BackEng	N	3	0	1000	1	18	12:25:24	1473119	0	0	0	0	0	0	0	0	0	0	0	0	0	0	0	0	0
111912	12:25:24	10035	Trial2BackEng	Y	3	57	805	1	19	12:25:24	1474438	0	0	0	0	0	0	0	0	0	0	0	0	0	0	0	0	0
111912	12:25:24	10035	Trial2BackEng	N	3	0	1000	1	20	12:25:24	1476131	0	0	0	0	0	0	0	0	0	0	0	0	0	0	0	0	0
111912	12:25:24	10035	Trial2BackEng	N	3	0	1000	1	21	12:25:24	1477637	0	0	0	0	0	0	0	0	0	0	0	0	0	0	0	0	0
111912	12:25:24	10035	Trial2BackEng	N	3	0	1000	1	22	12:25:24	1479143	0	0	0	0	0	0	0	0	0	0	0	0	0	0	0	0	0
111912	12:25:24	10035	Trial2BackEng	N	3	0	1000	1	23	12:25:24	1480649	0	0	0	0	0	0	0	0	0	0	0	0	0	0	0	0	0
111912	12:25:24	10035	Trial2BackEng	Y	3	57	764	1	24	12:25:24	1481928	0	0	0	0	0	0	0	0	0	0	0	0	0	0	0	0	0
111912	12:25:24	10035	Trial2BackEng	N	3	0	1000	1	25	12:25:24	1483661	0	0	0	0	0	0	0	0	0	0	0	0	0	0	0	0	0
111912	12:25:24	10035	Trial2BackEng	N	3	0	1000	1	26	12:25:24	1485167	0	0	0	0	0	0	0	0	0	0	0	0	0	0	0	0	0
111912	12:25:24	10035	Trial2BackEng	N	3	0	1000	1	27	12:25:24	1486673	0	0	0	0	0	0	0	0	0	0	0	0	0	0	0	0	0
111912	12:25:24	10035	Trial2BackEng	N	3	0	1000	1	28	12:25:24	1488193	0	0	0	0	0	0	0	0	0	0	0	0	0	0	0	0	0
111912	12:25:24	10035	Trial2BackEng	N	3	0	1000	1	29	12:25:24	1489699	0	0	0	0	0	0	0	0	0	0	0	0	0	0	0	0	0
111912	12:25:24	10035	Trial2BackEng	N	3	0	1000	1	30	12:25:24	1491218	0	0	0	0	0	0	0	0	0	0	0	0	0	0	0	0	0
111912	12:25:24	10035	Trial2BackEng	Y	3	57	514	1	31	12:25:24	1492244	0	0	0	0	0	0	0	0	0	0	0	0	0	0	0	0	0
111912	12:25:24	10035	Trial2BackEng	N	3	0	1000	1	32	12:25:24	1494230	0	0	0	0	0	0	0	0	0	0	0	0	0	0	0	0	0
111912	12:25:24	10035	Trial2BackEng	N	3	0	1000	1	33	12:25:24	1495736	0	0	0	0	0	0	0	0	0	0	0	0	0	0	0	0	0
111912	12:25:24	10035	Trial2BackEng	N	3	0	1000	1	34	12:25:24	1497242	0	0	0	0	0	0	0	0	0	0	0	0	0	0	0	0	0
111912	12:25:24	10035	Trial2BackEng	Y	3	57	650	1	35	12:25:24	1498402	0	0	0	0	0	0	0	0	0	0	0	0	0	0	0	0	0
111912	12:25:24	10035	Trial2BackEng	N	3	0	1000	1	36	12:25:24	1500255	0	0	0	0	0	0	0	0	0	0	0	0	0	0	0	0	0
111912	12:25:24	10035	Trial2BackEng	N	3	0	1000	1	37	12:25:24	1501761	0	0	0	0	0	0	0	0	0	0	0	0	0	0	0	0	0
111912	12:25:24	10035	Trial2BackEng	N	3	0	1000	1	38	12:25:24	1503267	0	0	0	0	0	0	0	0	0	0	0	0	0	0	0	0	0
111912	12:25:24	10035	Trial2BackEng	N	3	0	1000	1	39	12:25:24	1504773	0	0	0	0	0	0	0	0	0	0	0	0	0	0	0	0	0
111912	12:25:24	10035	Trial2BackEng	N	3	0	1000	1	40	12:25:24	1506279	0	0	0	0	0	0	0	0	0	0	0	0	0	0	0	0	0
111912	12:25:24	10035	Trial2BackEng	N	3	0	1000	1	41	12:25:24	1507785	0	0	0	0	0	0	0	0	0	0	0	0	0	0	0	0	0
111912	12:25:24	10035	Trial2BackEng	Y	3	57	634	1	42	12:25:24	1508931	0	0	0	0	0	0	0	0	0	0	0	0	0	0	0	0	0
111912	12:25:24	10035	Trial2BackEng	N	3	0	1000	1	43	12:25:24	1510797	0	0	0	0	0	0	0	0	0	0	0	0	0	0	0	0	0
111912	12:25:24	10035	Trial2BackEng	N	3	0	1000	1	44	12:25:24	1512303	0	0	0	0	0	0	0	0	0	0	0	0	0	0	0	0	0
111912	12:25:24	10035	Trial2BackEng	N	3	0	1000	1	45	12:25:24	1513809	0	0	0	0	0	0	0	0	0	0	0	0	0	0	0	0	0
111912	12:25:24	10035	Trial2BackEng	N	3	0	1000	1	46	12:25:24	1515315	0	0	0	0	0	0	0	0	0	0	0	0	0	0	0	0	0
111912	12:25:24	10035	Trial2BackEng	Y	3	57	657	1	47	12:25:24	1516488	0	0	0	0	0	0	0	0	0	0	0	0	0	0	0	0	0
111912	12:25:24	10035	Trial2BackEng	N	3	0	1000	1	48	12:25:24	1518327	0	0	0	0	0	0	0	0	0	0	0	0	0	0	0	0	0
111912	12:25:24	10035	Trial2BackEng	N	3	0	1000	1	49	12:25:24	1519833	0	0	0	0	0	0	0	0	0	0	0	0	0	0	0	0	0
111912	12:25:24	10035	Trial2BackEng	N	3	0	1000	1	50	12:25:24	1521340	0	0	0	0	0	0	0	0	0	0	0	0	0	0	0	0	0
111912	12:25:24	10035	Trial2BackEng	N	3	0	1000	1	51	12:25:24	1522846	0	0	0	0	0	0	0	0	0	0	0	0	0	0	0	0	0
111912	12:25:24	10035	Trial2BackEng	N	3	0	1000	1	52	12:25:24	1524352	0	0	0	0	0	0	0	0	0	0	0	0	0	0	0	0	0
111912	12:25:24	10035	Trial2BackEng	Y	3	57	580	1	53	12:25:24	1525445	0	0	0	0	0	0	0	0	0	0	0	0	0	0	0	0	0
111912	12:25:24	10035	Trial2BackEng	N	3	0	1000	1	54	12:25:24	1527364	0	0	0	0	0	0	0	0	0	0	0	0	0	0	0	0	0
111912	12:25:24	10035	Trial2BackEng	N	3	0	1000	1	55	12:25:24	1528870	0	0	0	0	0	0	0	0	0	0	0	0	0	0	0	0	0
111912	12:25:24	10035	Trial2BackEng	N	3	0	1000	1	56	12:25:24	1530376	0	0	0	0	0	0	0	0	0	0	0	0	0	0	0	0	0
111912	12:25:24	10035	Trial2BackEng	N	3	0	1000	1	57	12:25:24	1531882	0	0	0	0	0	0	0	0	0	0	0	0	0	0	0	0	0
111912	12:25:24	10035	Trial2BackEng	N	3	0	1000	1	58	12:25:24	1533402	0	0	0	0	0	0	0	0	0	0	0	0	0	0	0	0	0
111912	12:25:24	10035	Trial2BackEng	N	3	0	1000	1	59	12:25:24	1534908	0	0	0	0	0	0	0	0	0	0	0	0	0	0	0	0	0
111912	12:25:24	10035	Trial2BackEng	Y	3	57	537	1	60	12:25:24	1535960	0	0	0	0	0	0	0	0	0	0	0	0	0	0	0	0	0
111912	12:25:24	10035	Trial2BackEng	N	3	0	1000	1	61	12:25:24	1537920	0	0	0	0	0	0	0	0	0	0	0	0	0	0	0	0	0
111912	12:25:24	10035	Trial2BackEng	N	3	0	1000	1	62	12:25:24	1539439	0	0	0	0	0	0	0	0	0	0	0	0	0	0	0	0	0
111912	12:25:24	10035	Trial2BackEng	Y	3	57	452	1	63	12:25:24	1540412	0	0	0	0	0	0	0	0	0	0	0	0	0	0	0	0	0
111912	12:25:24	10035	Trial2BackEng	N	3	0	1000	1	64	12:25:24	1542451	0	0	0	0	0	0	0	0	0	0	0	0	0	0	0	0	0
111912	12:25:24	10035	Trial2BackEng	N	3	0	1000	1	65	12:25:24	1543957	0	0	0	0	0	0	0	0	0	0	0	0	0	0	0	0	0
111912	12:25:24	10035	Trial2BackEng	N	3	0	1000	1	66	12:25:24	1545463	0	0	0	0	0	0	0	0	0	0	0	0	0	0	0	0	0
111912	12:25:24	10035	Trial2BackEng	N	3	0	1000	1	67	12:25:24	1546983	0	0	0	0	0	0	0	0	0	0	0	0	0	0	0	0	0
111912	12:25:24	10035	Trial2BackEng	N	3	0	1000	1	68	12:25:24	1548489	0	0	0	0	0	0	0	0	0	0	0	0	0	0	0	0	0
111912	12:25:24	10035	Trial2BackEng	N	3	0	1000	1	69	12:25:24	1549995	0	0	0	0	0	0	0	0	0	0	0	0	0	0	0	0	0
111912	12:25:24	10035	Trial2BackEng	N	3	0	1000	1	70	12:25:24	1551501	0	0	0	0	0	0	0	0	0	0	0	0	0	0	0	0	0
111912	12:25:24	10035	Trial2BackEng	N	3	0	1000	1	71	12:25:24	1553007	0	0	0	0	0	0	0	0	0	0	0	0	0	0	0	0	0
111912	12:25:24	10035	Trial2BackEng	N	3	0	1000	1	72	12:25:24	1554526	0	0	0	0	0	0	0	0	0	0	0	0	0	0	0	0	0
111912	12:25:24	10035	Trial2BackEng	N	3	0	1000	1	73	12:25:24	1556033	0	0	0	0	0	0	0	0	0	0	0	0	0	0	0	0	0
111912	12:25:24	10035	Trial2BackEng	Y	3	57	563	1	74	12:25:24	1557112	0	0	0	0	0	0	0	0	0	0	0	0	0	0	0	0	0
111912	12:25:24	10035	Trial2BackEng	N	3	0	1000	1	75	12:25:24	1559045	0	0	0	0	0	0	0	0	0	0	0	0	0	0	0	0	0
111912	12:25:24	10035	Trial2BackEng	N	3	0	1000	1	76	12:25:24	1560551	0	0	0	0	0	0	0	0	0	0	0	0	0	0	0	0	0
111912	12:25:24	10035	Trial2BackEng	N	3	0	1000	1	77	12:25:24	1562057	0	0	0	0	0	0	0	0	0	0	0	0	0	0	0	0	0
111912	12:25:24	10035	Trial2BackEng	Y	3	57	681	1	78	12:25:24	1563256	0	0	0	0	0	0	0	0	0	0	0	0	0	0	0	0	0
111912	12:25:24	10035	Trial2BackEng	N	3	0	1000	1	79	12:25:24	1565069	0	0	0	0	0	0	0	0	0	0	0	0	0	0	0	0	0
111912	12:25:24	10035	Trial2BackEng	N	3	0	1000	1	80	12:25:24	1566575	0	0	0	0	0	0	0	0	0	0	0	0	0	0	0	0	0
111912	12:25:24	10035	Trial2BackEng	N	3	0	1000	1	81	12:25:24	1568081	0	0	0	0	0	0	0	0	0	0	0	0	0	0	0	0	0
111912	12:25:24	10035	Trial2BackEng	N	3	0	1000	1	82	12:25:24	1569587	0	0	0	0	0	0	0	0	0	0	0	0	0	0	0	0	0
111912	12:25:24	10035	Trial2BackEng	N	3	0	1000	1	83	12:25:24	1571093	0	0	0	0	0	0	0	0	0	0	0	0	0	0	0	0	0
111912	12:25:24	10035	Trial2BackEng	Y	3	57	670	1	84	12:25:24	1572279	0	0	0	0	0	0	0	0	0	0	0	0	0	0	0	0	0
111912	12:25:24	10035	Trial2BackEng	N	3	0	1000	1	85	12:25:24	1574105	0	0	0	0	0	0	0	0	0	0	0	0	0	0	0	0	0
111912	12:25:24	10035	Trial2BackEng	N	3	0	1000	1	86	12:25:24	1575611	0	0	0	0	0	0	0	0	0	0	0	0	0	0	0	0	0
111912	12:25:24	10035	Trial2BackEng	N	3	0	1000	1	87	12:25:24	1577118	0	0	0	0	0	0	0	0	0	0	0	0	0	0	0	0	0
111912	12:25:24	10035	Trial2BackEng	N	3	0	1000	1	88	12:25:24	1578624	0	0	0	0	0	0	0	0	0	0	0	0	0	0	0	0	0
111912	12:25:24	10035	Trial2BackEng	N	3	0	1000	1	89	12:25:24	1580143	0	0	0	0	0	0	0	0	0	0	0	0	0	0	0	0	0
111912	12:25:24	10035	Trial2BackEng	N	3	0	1000	1	90	12:25:24	1581649	0	0	0	0	0	0	0	0	0	0	0	0	0	0	0	0	0
111912	12:25:24	10035	Trial2BackEng	N	3	0	1000	1	91	12:25:24	1583169	0	0	0	0	0	0	0	0	0	0	0	0	0	0	0	0	0
111912	12:25:24	10035	Trial2BackEng	N	3	0	1000	1	92	12:25:24	1584675	0	0	0	0	0	0	0	0	0	0	0	0	0	0	0	0	0
111912	12:25:24	10035	Trial2BackEng	N	3	0	1000	1	93	12:25:24	1586181	0	0	0	0	0	0	0	0	0	0	0	0	0	0	0	0	0
111912	12:25:24	10035	Trial2BackEng	Y	3	57	639	1	94	12:25:24	1587327	0	0	0	0	0	0	0	0	0	0	0	0	0	0	0	0	0
111912	12:25:24	10035	Trial2BackEng	N	3	0	1000	1	95	12:25:24	1589193	0	0	0	0	0	0	0	0	0	0	0	0	0	0	0	0	0
111912	12:25:24	10035	Trial2BackEng	N	3	0	1000	1	96	12:25:24	1590699	0	0	0	0	0	0	0	0	0	0	0	0	0	0	0	0	0
111912	12:25:24	10035	Trial2BackEng	N	3	0	1000	1	97	12:25:24	1592205	0	0	0	0	0	0	0	0	0	0	0	0	0	0	0	0	0
111912	12:25:24	10035	Trial2BackEng	N	3	0	1000	1	98	12:25:24	1593711	0	0	0	0	0	0	0	0	0	0	0	0	0	0	0	0	0
111912	12:25:24	10035	Trial2BackEng	N	3	0	1000	1	99	12:25:24	1595217	0	0	0	0	0	0	0	0	0	0	0	0	0	0	0	0	0
111912	12:25:24	10035	Trial2BackEng	N	3	0	1000	1	100	12:25:24	1596723	0	0	0	0	0	0	0	0	0	0	0	0	0	0	0	0	0
111912	12:25:24	10035	Trial2BackEng	N	3	0	1000	1	101	12:25:24	1598229	0	0	0	0	0	0	0	0	0	0	0	0	0	0	0	0	0
111912	12:25:24	10035	Trial2BackEng	N	3	0	1000	1	102	12:25:24	1599735	0	0	0	0	0	0	0	0	0	0	0	0	0	0	0	0	0
111912	12:25:24	10035	Trial2BackEng	Y	3	57	650	1	103	12:25:24	1600895	0	0	0	0	0	0	0	0	0	0	0	0	0	0	0	0	0
111912	12:25:24	10035	Trial2BackEng	N	3	0	1000	1	104	12:25:24	1602747	0	0	0	0	0	0	0	0	0	0	0	0	0	0	0	0	0
111912	12:25:24	10035	Trial2BackEng	N	3	0	1000	1	105	12:25:24	1604253	0	0	0	0	0	0	0	0	0	0	0	0	0	0	0	0	0
111912	12:25:24	10035	Trial2BackEng	N	3	0	1000	1	106	12:25:24	1605760	0	0	0	0	0	0	0	0	0	0	0	0	0	0	0	0	0
111912	12:25:24	10035	Trial2BackEng	N	3	0	1000	1	107	12:25:24	1607266	0	0	0	0	0	0	0	0	0	0	0	0	0	0	0	0	0
111912	12:25:24	10035	Trial2BackEng	Y	3	57	705	1	108	12:25:24	1608492	0	0	0	0	0	0	0	0	0	0	0	0	0	0	0	0	0
111912	12:25:24	10035	Trial2BackEng	N	3	0	1000	1	109	12:25:24	1610278	0	0	0	0	0	0	0	0	0	0	0	0	0	0	0	0	0
111912	12:25:24	10035	Trial2BackEng	N	3	0	1000	1	110	12:25:24	1611784	0	0	0	0	0	0	0	0	0	0	0	0	0	0	0	0	0
111912	12:25:24	10035	Trial2BackEng	N	3	0	1000	1	111	12:25:24	1613290	0	0	0	0	0	0	0	0	0	0	0	0	0	0	0	0	0
111912	12:25:24	10035	Trial2BackEng	Y	3	57	519	1	112	12:25:24	1614329	0	0	0	0	0	0	0	0	0	0	0	0	0	0	0	0	0
111912	12:25:24	10035	Trial2BackEng	N	3	0	1000	1	113	12:25:24	1616302	0	0	0	0	0	0	0	0	0	0	0	0	0	0	0	0	0
111912	12:25:24	10035	Trial2BackEng	N	3	0	1000	1	114	12:25:24	1617808	0	0	0	0	0	0	0	0	0	0	0	0	0	0	0	0	0
111912	12:25:24	10035	Trial2BackEng	N	3	0	1000	1	115	12:25:24	1619314	0	0	0	0	0	0	0	0	0	0	0	0	0	0	0	0	0
111912	12:25:24	10035	Trial2BackEng	N	3	0	1000	1	116	12:25:24	1620820	0	0	0	0	0	0	0	0	0	0	0	0	0	0	0	0	0
111912	12:25:24	10035	Trial2BackEng	N	3	0	1000	1	117	12:25:24	1622366	0	0	0	0	0	0	0	0	0	0	0	0	0	0	0	0	0
111912	12:25:24	10035	Trial2BackEng	Y	3	57	659	1	118	12:25:24	1623539	0	0	0	0	0	0	0	0	0	0	0	0	0	0	0	0	0
111912	12:25:24	10035	Trial2BackEng	N	3	0	1000	1	119	12:25:24	1625378	0	0	0	0	0	0	0	0	0	0	0	0	0	0	0	0	0
111912	12:25:24	10035	Trial2BackEng	N	3	0	1000	1	120	12:25:24	1626885	0	0	0	0	0	0	0	0	0	0	0	0	0	0	0	0	0
111912	12:25:24	10035	Trial2BackEng	N	3	0	1000	1	121	12:25:24	1628404	0	0	0	0	0	0	0	0	0	0	0	0	0	0	0	0	0
111912	12:25:24	10035	Trial2BackEng	Y	3	57	605	1	122	12:25:24	1629523	0	0	0	0	0	0	0	0	0	0	0	0	0	0	0	0	0
111912	12:25:24	10035	Trial3BackEng	NN	4	0	1000	1	122	12:25:24	1644757	0	0	0	0	0	0	0	0	0	0	0	0	0	0	0	0	0
111912	12:25:24	10035	Trial3BackEng	NN	4	0	1000	1	122	12:25:24	1646264	0	0	0	0	0	0	0	0	0	0	0	0	0	0	0	0	0
111912	12:25:24	10035	Trial3BackEng	NN	4	0	1000	1	122	12:25:24	1647770	0	0	0	0	0	0	0	0	0	0	0	0	0	0	0	0	0
111912	12:25:24	10035	Trial3BackEng	YY	4	57	567	1	122	12:25:24	1648849	0	0	0	0	0	0	0	0	0	0	0	0	0	0	0	0	0
111912	12:25:24	10035	Trial3BackEng	NN	4	0	1000	1	122	12:25:24	1650782	0	0	0	0	0	0	0	0	0	0	0	0	0	0	0	0	0
111912	12:25:24	10035	Trial3BackEng	NN	4	0	1000	1	122	12:25:24	1652288	0	0	0	0	0	0	0	0	0	0	0	0	0	0	0	0	0
111912	12:25:24	10035	Trial3BackEng	NN	4	0	1000	1	122	12:25:24	1653794	0	0	0	0	0	0	0	0	0	0	0	0	0	0	0	0	0
111912	12:25:24	10035	Trial3BackEng	NN	4	0	1000	1	122	12:25:24	1655300	0	0	0	0	0	0	0	0	0	0	0	0	0	0	0	0	0
111912	12:25:24	10035	Trial3BackEng	YY	4	57	702	1	122	12:25:24	1656513	0	0	0	0	0	0	0	0	0	0	0	0	0	0	0	0	0
111912	12:25:24	10035	Trial3BackEng	NN	4	0	1000	1	122	12:25:24	1658312	0	0	0	0	0	0	0	0	0	0	0	0	0	0	0	0	0
111912	12:25:24	10035	Trial3BackEng	NN	4	0	1000	1	122	12:25:24	1659818	0	0	0	0	0	0	0	0	0	0	0	0	0	0	0	0	0
111912	12:25:24	10035	Trial3BackEng	NN	4	0	1000	1	122	12:25:24	1661324	0	0	0	0	0	0	0	0	0	0	0	0	0	0	0	0	0
111912	12:25:24	10035	Trial3BackEng	NN	4	0	1000	1	122	12:25:24	1662830	0	0	0	0	0	0	0	0	0	0	0	0	0	0	0	0	0
111912	12:25:24	10035	Trial3BackEng	NN	4	0	1000	1	122	12:25:24	1664336	0	0	0	0	0	0	0	0	0	0	0	0	0	0	0	0	0
111912	12:25:24	10035	Trial3BackEng	NN	4	0	1000	1	122	12:25:24	1665842	0	0	0	0	0	0	0	0	0	0	0	0	0	0	0	0	0
111912	12:25:24	10035	Trial3BackEng	NN	4	0	1000	1	122	12:25:24	1667349	0	0	0	0	0	0	0	0	0	0	0	0	0	0	0	0	0
111912	12:25:24	10035	Trial3BackEng	YY	4	57	845	1	122	12:25:24	1668708	0	0	0	0	0	0	0	0	0	0	0	0	0	0	0	0	0
111912	12:25:24	10035	Trial3BackEng	NN	4	0	1000	1	122	12:25:24	1670361	0	0	0	0	0	0	0	0	0	0	0	0	0	0	0	0	0
111912	12:25:24	10035	Trial3BackEng	NN	4	0	1000	1	122	12:25:24	1671867	0	0	0	0	0	0	0	0	0	0	0	0	0	0	0	0	0
111912	12:25:24	10035	Trial3BackEng	NN	4	0	1000	1	122	12:25:24	1673373	0	0	0	0	0	0	0	0	0	0	0	0	0	0	0	0	0
111912	12:25:24	10035	Trial3BackEng	NN	4	0	1000	1	122	12:25:24	1674879	0	0	0	0	0	0	0	0	0	0	0	0	0	0	0	0	0
111912	12:25:24	10035	Trial3BackEng	NN	4	0	1000	1	122	12:25:24	1676385	0	0	0	0	0	0	0	0	0	0	0	0	0	0	0	0	0
111912	12:25:24	10035	Trial3BackEng	YY	4	57	641	1	122	12:25:24	1677544	0	0	0	0	0	0	0	0	0	0	0	0	0	0	0	0	0
111912	12:25:24	10035	Trial3BackEng	NN	4	0	1000	1	122	12:25:24	1679397	0	0	0	0	0	0	0	0	0	0	0	0	0	0	0	0	0
111912	12:25:24	10035	Trial3BackEng	NN	4	0	1000	1	122	12:25:24	1680903	0	0	0	0	0	0	0	0	0	0	0	0	0	0	0	0	0
111912	12:25:24	10035	Trial3BackEng	NN	4	0	1000	1	122	12:25:24	1682409	0	0	0	0	0	0	0	0	0	0	0	0	0	0	0	0	0
111912	12:25:24	10035	Trial3BackEng	YY	4	57	775	1	122	12:25:24	1683702	0	0	0	0	0	0	0	0	0	0	0	0	0	0	0	0	0
111912	12:25:24	10035	Trial3BackEng	NN	4	0	1000	1	122	12:25:24	1685421	0	0	0	0	0	0	0	0	0	0	0	0	0	0	0	0	0
111912	12:25:24	10035	Trial3BackEng	NN	4	0	1000	1	122	12:25:24	1686927	0	0	0	0	0	0	0	0	0	0	0	0	0	0	0	0	0
111912	12:25:24	10035	Trial3BackEng	NN	4	0	1000	1	122	12:25:24	1688434	0	0	0	0	0	0	0	0	0	0	0	0	0	0	0	0	0
111912	12:25:24	10035	Trial3BackEng	YY	4	57	623	1	122	12:25:24	1689566	0	0	0	0	0	0	0	0	0	0	0	0	0	0	0	0	0
111912	12:25:24	10035	Trial3BackEng	NN	4	0	1000	1	122	12:25:24	1691446	0	0	0	0	0	0	0	0	0	0	0	0	0	0	0	0	0
111912	12:25:24	10035	Trial3BackEng	NN	4	0	1000	1	122	12:25:24	1692952	0	0	0	0	0	0	0	0	0	0	0	0	0	0	0	0	0
111912	12:25:24	10035	Trial3BackEng	NN	4	0	1000	1	122	12:25:24	1694458	0	0	0	0	0	0	0	0	0	0	0	0	0	0	0	0	0
111912	12:25:24	10035	Trial3BackEng	NN	4	0	1000	1	122	12:25:24	1695964	0	0	0	0	0	0	0	0	0	0	0	0	0	0	0	0	0
111912	12:25:24	10035	Trial3BackEng	NN	4	0	1000	1	122	12:25:24	1697470	0	0	0	0	0	0	0	0	0	0	0	0	0	0	0	0	0
111912	12:25:24	10035	Trial3BackEng	NN	4	0	1000	1	122	12:25:24	1698976	0	0	0	0	0	0	0	0	0	0	0	0	0	0	0	0	0
111912	12:25:24	10035	Trial3BackEng	NN	4	0	1000	1	122	12:25:24	1700482	0	0	0	0	0	0	0	0	0	0	0	0	0	0	0	0	0
111912	12:25:24	10035	Trial3BackEng	NN	4	0	1000	1	122	12:25:24	1701988	0	0	0	0	0	0	0	0	0	0	0	0	0	0	0	0	0
111912	12:25:24	10035	Trial3BackEng	NN	4	0	1000	1	122	12:25:24	1703494	0	0	0	0	0	0	0	0	0	0	0	0	0	0	0	0	0
111912	12:25:24	10035	Trial3BackEng	NN	4	0	1000	1	122	12:25:24	1705000	0	0	0	0	0	0	0	0	0	0	0	0	0	0	0	0	0
111912	12:25:24	10035	Trial3BackEng	YY	4	57	728	1	122	12:25:24	1706240	0	0	0	0	0	0	0	0	0	0	0	0	0	0	0	0	0
111912	12:25:24	10035	Trial3BackEng	NN	4	0	1000	1	122	12:25:24	1708012	0	0	0	0	0	0	0	0	0	0	0	0	0	0	0	0	0
111912	12:25:24	10035	Trial3BackEng	NN	4	0	1000	1	122	12:25:24	1709519	0	0	0	0	0	0	0	0	0	0	0	0	0	0	0	0	0
111912	12:25:24	10035	Trial3BackEng	NN	4	0	1000	1	122	12:25:24	1711025	0	0	0	0	0	0	0	0	0	0	0	0	0	0	0	0	0
111912	12:25:24	10035	Trial3BackEng	NN	4	0	1000	1	122	12:25:24	1712531	0	0	0	0	0	0	0	0	0	0	0	0	0	0	0	0	0
111912	12:25:24	10035	Trial3BackEng	YY	4	57	687	1	122	12:25:24	1713730	0	0	0	0	0	0	0	0	0	0	0	0	0	0	0	0	0
111912	12:25:24	10035	Trial3BackEng	NN	4	0	1000	1	122	12:25:24	1715543	0	0	0	0	0	0	0	0	0	0	0	0	0	0	0	0	0
111912	12:25:24	10035	Trial3BackEng	NN	4	0	1000	1	122	12:25:24	1717049	0	0	0	0	0	0	0	0	0	0	0	0	0	0	0	0	0
111912	12:25:24	10035	Trial3BackEng	NN	4	0	1000	1	122	12:25:24	1718555	0	0	0	0	0	0	0	0	0	0	0	0	0	0	0	0	0
111912	12:25:24	10035	Trial3BackEng	NN	4	0	1000	1	122	12:25:24	1720061	0	0	0	0	0	0	0	0	0	0	0	0	0	0	0	0	0
111912	12:25:24	10035	Trial3BackEng	NN	4	0	1000	1	122	12:25:24	1721567	0	0	0	0	0	0	0	0	0	0	0	0	0	0	0	0	0
111912	12:25:24	10035	Trial3BackEng	YY	4	57	594	1	122	12:25:24	1722673	0	0	0	0	0	0	0	0	0	0	0	0	0	0	0	0	0
111912	12:25:24	10035	Trial3BackEng	NN	4	0	1000	1	122	12:25:24	1724579	0	0	0	0	0	0	0	0	0	0	0	0	0	0	0	0	0
111912	12:25:24	10035	Trial3BackEng	NN	4	0	1000	1	122	12:25:24	1726085	0	0	0	0	0	0	0	0	0	0	0	0	0	0	0	0	0
111912	12:25:24	10035	Trial3BackEng	NN	4	0	1000	1	122	12:25:24	1727591	0	0	0	0	0	0	0	0	0	0	0	0	0	0	0	0	0
111912	12:25:24	10035	Trial3BackEng	NN	4	0	1000	1	122	12:25:24	1729111	0	0	0	0	0	0	0	0	0	0	0	0	0	0	0	0	0
111912	12:25:24	10035	Trial3BackEng	NN	4	0	1000	1	122	12:25:24	1730617	0	0	0	0	0	0	0	0	0	0	0	0	0	0	0	0	0
111912	12:25:24	10035	Trial3BackEng	NN	4	0	1000	1	122	12:25:24	1732136	0	0	0	0	0	0	0	0	0	0	0	0	0	0	0	0	0
111912	12:25:24	10035	Trial3BackEng	YY	4	0	1000	0	122	12:25:24	1733642	0	0	0	0	0	0	0	0	0	0	0	0	0	0	0	0	0
111912	12:25:24	10035	Trial3BackEng	NN	4	0	1000	1	122	12:25:24	1735148	0	0	0	0	0	0	0	0	0	0	0	0	0	0	0	0	0
111912	12:25:24	10035	Trial3BackEng	NN	4	0	1000	1	122	12:25:24	1736654	0	0	0	0	0	0	0	0	0	0	0	0	0	0	0	0	0
111912	12:25:24	10035	Trial3BackEng	NN	4	0	1000	1	122	12:25:24	1738161	0	0	0	0	0	0	0	0	0	0	0	0	0	0	0	0	0
111912	12:25:24	10035	Trial3BackEng	YY	4	57	591	1	122	12:25:24	1739267	0	0	0	0	0	0	0	0	0	0	0	0	0	0	0	0	0
111912	12:25:24	10035	Trial3BackEng	NN	4	0	1000	1	122	12:25:24	1741173	0	0	0	0	0	0	0	0	0	0	0	0	0	0	0	0	0
111912	12:25:24	10035	Trial3BackEng	NN	4	0	1000	1	122	12:25:24	1742679	0	0	0	0	0	0	0	0	0	0	0	0	0	0	0	0	0
111912	12:25:24	10035	Trial3BackEng	NN	4	0	1000	1	122	12:25:24	1744185	0	0	0	0	0	0	0	0	0	0	0	0	0	0	0	0	0
111912	12:25:24	10035	Trial3BackEng	NN	4	0	1000	1	122	12:25:24	1745691	0	0	0	0	0	0	0	0	0	0	0	0	0	0	0	0	0
111912	12:25:24	10035	Trial3BackEng	NN	4	0	1000	1	122	12:25:24	1747197	0	0	0	0	0	0	0	0	0	0	0	0	0	0	0	0	0
111912	12:25:24	10035	Trial3BackEng	NN	4	0	1000	1	122	12:25:24	1748703	0	0	0	0	0	0	0	0	0	0	0	0	0	0	0	0	0
111912	12:25:24	10035	Trial3BackEng	NN	4	0	1000	1	122	12:25:24	1750209	0	0	0	0	0	0	0	0	0	0	0	0	0	0	0	0	0
111912	12:25:24	10035	Trial3BackEng	NN	4	0	1000	1	122	12:25:24	1751715	0	0	0	0	0	0	0	0	0	0	0	0	0	0	0	0	0
111912	12:25:24	10035	Trial3BackEng	NN	4	0	1000	1	122	12:25:24	1753221	0	0	0	0	0	0	0	0	0	0	0	0	0	0	0	0	0
111912	12:25:24	10035	Trial3BackEng	YY	4	0	1000	0	122	12:25:24	1754727	0	0	0	0	0	0	0	0	0	0	0	0	0	0	0	0	0
111912	12:25:24	10035	Trial3BackEng	NN	4	0	1000	1	122	12:25:24	1756233	0	0	0	0	0	0	0	0	0	0	0	0	0	0	0	0	0
111912	12:25:24	10035	Trial3BackEng	NN	4	0	1000	1	122	12:25:24	1757739	0	0	0	0	0	0	0	0	0	0	0	0	0	0	0	0	0
111912	12:25:24	10035	Trial3BackEng	NN	4	0	1000	1	122	12:25:24	1759246	0	0	0	0	0	0	0	0	0	0	0	0	0	0	0	0	0
111912	12:25:24	10035	Trial3BackEng	YY	4	57	994	1	122	12:25:24	1760752	0	0	0	0	0	0	0	0	0	0	0	0	0	0	0	0	0
111912	12:25:24	10035	Trial3BackEng	NN	4	0	1000	1	122	12:25:24	1762258	0	0	0	0	0	0	0	0	0	0	0	0	0	0	0	0	0
111912	12:25:24	10035	Trial3BackEng	NN	4	0	1000	1	122	12:25:24	1763764	0	0	0	0	0	0	0	0	0	0	0	0	0	0	0	0	0
111912	12:25:24	10035	Trial3BackEng	NN	4	0	1000	1	122	12:25:24	1765270	0	0	0	0	0	0	0	0	0	0	0	0	0	0	0	0	0
111912	12:25:24	10035	Trial3BackEng	NN	4	0	1000	1	122	12:25:24	1766776	0	0	0	0	0	0	0	0	0	0	0	0	0	0	0	0	0
111912	12:25:24	10035	Trial3BackEng	NN	4	0	1000	1	122	12:25:24	1768282	0	0	0	0	0	0	0	0	0	0	0	0	0	0	0	0	0
111912	12:25:24	10035	Trial3BackEng	YY	4	57	726	1	122	12:25:24	1769521	0	0	0	0	0	0	0	0	0	0	0	0	0	0	0	0	0
111912	12:25:24	10035	Trial3BackEng	NN	4	0	1000	1	122	12:25:24	1771294	0	0	0	0	0	0	0	0	0	0	0	0	0	0	0	0	0
111912	12:25:24	10035	Trial3BackEng	NN	4	0	1000	1	122	12:25:24	1772800	0	0	0	0	0	0	0	0	0	0	0	0	0	0	0	0	0
111912	12:25:24	10035	Trial3BackEng	NN	4	0	1000	1	122	12:25:24	1774306	0	0	0	0	0	0	0	0	0	0	0	0	0	0	0	0	0
111912	12:25:24	10035	Trial3BackEng	NN	4	0	1000	1	122	12:25:24	1775812	0	0	0	0	0	0	0	0	0	0	0	0	0	0	0	0	0
111912	12:25:24	10035	Trial3BackEng	NN	4	0	1000	1	122	12:25:24	1777318	0	0	0	0	0	0	0	0	0	0	0	0	0	0	0	0	0
111912	12:25:24	10035	Trial3BackEng	NN	4	0	1000	1	122	12:25:24	1778825	0	0	0	0	0	0	0	0	0	0	0	0	0	0	0	0	0
111912	12:25:24	10035	Trial3BackEng	NN	4	0	1000	1	122	12:25:24	1780331	0	0	0	0	0	0	0	0	0	0	0	0	0	0	0	0	0
111912	12:25:24	10035	Trial3BackEng	NN	4	57	852	0	122	12:25:24	1781703	0	0	0	0	0	0	0	0	0	0	0	0	0	0	0	0	0
111912	12:25:24	10035	Trial3BackEng	NN	4	0	1000	1	122	12:25:24	1783343	0	0	0	0	0	0	0	0	0	0	0	0	0	0	0	0	0
111912	12:25:24	10035	Trial3BackEng	YY	4	0	1000	0	122	12:25:24	1784849	0	0	0	0	0	0	0	0	0	0	0	0	0	0	0	0	0
111912	12:25:24	10035	Trial3BackEng	NN	4	0	1000	1	122	12:25:24	1786355	0	0	0	0	0	0	0	0	0	0	0	0	0	0	0	0	0
111912	12:25:24	10035	Trial3BackEng	NN	4	0	1000	1	122	12:25:24	1787861	0	0	0	0	0	0	0	0	0	0	0	0	0	0	0	0	0
111912	12:25:24	10035	Trial3BackEng	NN	4	0	1000	1	122	12:25:24	1789367	0	0	0	0	0	0	0	0	0	0	0	0	0	0	0	0	0
111912	12:25:24	10035	Trial3BackEng	NN	4	0	1000	1	122	12:25:24	1790886	0	0	0	0	0	0	0	0	0	0	0	0	0	0	0	0	0
111912	12:25:24	10035	Trial3BackEng	NN	4	0	1000	1	122	12:25:24	1792406	0	0	0	0	0	0	0	0	0	0	0	0	0	0	0	0	0
111912	12:25:24	10035	Trial3BackEng	NN	4	0	1000	1	122	12:25:24	1793912	0	0	0	0	0	0	0	0	0	0	0	0	0	0	0	0	0
111912	12:25:24	10035	Trial3BackEng	NN	4	0	1000	1	122	12:25:24	1795431	0	0	0	0	0	0	0	0	0	0	0	0	0	0	0	0	0
111912	12:25:24	10035	Trial3BackEng	NN	4	0	1000	1	122	12:25:24	1796937	0	0	0	0	0	0	0	0	0	0	0	0	0	0	0	0	0
111912	12:25:24	10035	Trial3BackEng	YY	4	0	1000	0	122	12:25:24	1798444	0	0	0	0	0	0	0	0	0	0	0	0	0	0	0	0	0
111912	12:25:24	10035	Trial3BackEng	NN	4	0	1000	1	122	12:25:24	1799949	0	0	0	0	0	0	0	0	0	0	0	0	0	0	0	0	0
111912	12:25:24	10035	Trial3BackEng	NN	4	0	1000	1	122	12:25:24	1801456	0	0	0	0	0	0	0	0	0	0	0	0	0	0	0	0	0
111912	12:25:24	10035	Trial3BackEng	NN	4	0	1000	1	122	12:25:24	1802962	0	0	0	0	0	0	0	0	0	0	0	0	0	0	0	0	0
111912	12:25:24	10035	Trial3BackEng	NN	4	0	1000	1	122	12:25:24	1804468	0	0	0	0	0	0	0	0	0	0	0	0	0	0	0	0	0
111912	12:25:24	10035	Trial3BackEng	YY	4	0	1000	0	122	12:25:24	1805974	0	0	0	0	0	0	0	0	0	0	0	0	0	0	0	0	0
111912	12:25:24	10035	Trial3BackEng	NN	4	0	1000	1	122	12:25:24	1807493	0	0	0	0	0	0	0	0	0	0	0	0	0	0	0	0	0
111912	12:25:24	10035	Trial3BackEng	NN	4	0	1000	1	122	12:25:24	1808999	0	0	0	0	0	0	0	0	0	0	0	0	0	0	0	0	0
111912	12:25:24	10035	Trial3BackEng	NN	4	0	1000	1	122	12:25:24	1810505	0	0	0	0	0	0	0	0	0	0	0	0	0	0	0	0	0
111912	12:25:24	10035	Trial3BackEng	YY	4	57	581	1	122	12:25:24	1811598	0	0	0	0	0	0	0	0	0	0	0	0	0	0	0	0	0
111912	12:25:24	10035	Trial3BackEng	NN	4	0	1000	1	122	12:25:24	1813517	0	0	0	0	0	0	0	0	0	0	0	0	0	0	0	0	0
111912	12:25:24	10035	Trial3BackEng	NN	4	0	1000	1	122	12:25:24	1815023	0	0	0	0	0	0	0	0	0	0	0	0	0	0	0	0	0
111912	12:25:24	10035	Trial3BackEng	NN	4	0	1000	1	122	12:25:24	1816530	0	0	0	0	0	0	0	0	0	0	0	0	0	0	0	0	0
111912	12:25:24	10035	Trial3BackEng	NN	4	0	1000	1	122	12:25:24	1818036	0	0	0	0	0	0	0	0	0	0	0	0	0	0	0	0	0
111912	12:25:24	10035	Trial3BackEng	NN	4	0	1000	1	122	12:25:24	1819542	0	0	0	0	0	0	0	0	0	0	0	0	0	0	0	0	0
111912	12:25:24	10035	Trial3BackEng	YY	4	57	554	1	122	12:25:24	1820608	0	0	0	0	0	0	0	0	0	0	0	0	0	0	0	0	0
111912	12:25:24	10035	Trial3BackEng	NN	4	0	1000	1	122	12:25:24	1822554	0	0	0	0	0	0	0	0	0	0	0	0	0	0	0	0	0
111912	12:25:24	10035	Trial3BackEng	NN	4	0	1000	1	122	12:25:24	1824073	0	0	0	0	0	0	0	0	0	0	0	0	0	0	0	0	0
111912	12:25:24	10035	Trial3BackEng	NN	4	0	1000	1	122	12:25:24	1825579	0	0	0	0	0	0	0	0	0	0	0	0	0	0	0	0	0
111912	12:25:24	10035	Trial3BackEng	YY	4	57	419	1	122	12:25:24	1826512	0	0	0	0	0	0	0	0	0	0	0	0	0	0	0	0	0
111912	12:25:24	10035	Memory1R3mo	Score	5	M1	13452	0	122	12:25:24	1868749	0	0	0	0	0	0	0	0	0	0	0	0	0	0	0	0	0
111912	12:25:24	10035	Memory1R3mo	Score	5	M2	266	0	122	12:25:24	1869083	0	0	0	0	0	0	0	0	0	0	0	0	0	0	0	0	0
111912	12:25:24	10035	Memory1R3mo	Score	5	M4	2619	0	122	12:25:24	1871761	0	0	0	0	0	0	0	0	0	0	0	0	0	0	0	0	0
111912	12:25:24	10035	Memory1R3mo	Score	5	M5	1075	0	122	12:25:24	1872908	0	0	0	0	0	0	0	0	0	0	0	0	0	0	0	0	0
111912	12:25:24	10035	Memory1R3mo	Score	5	M6	1505	0	122	12:25:24	1874480	0	0	0	0	0	0	0	0	0	0	0	0	0	0	0	0	0
111912	12:25:24	10035	Memory1R3mo	Score	5	M8	860	0	122	12:25:24	1875400	0	0	0	0	0	0	0	0	0	0	0	0	0	0	0	0	0
111912	12:25:24	10035	Memory1R3mo	Score	5	Done	20492	0	122	12:25:24	1895952	0	0	0	0	0	0	0	0	0	0	0	0	0	0	0	0	0
111912	12:25:24	10035	Memory2R3mo	Score2	5	11	13262	0	122	12:25:24	1928393	0	0	0	0	0	0	0	0	0	0	0	0	0	0	0	0	0
111912	12:25:24	10035	Memory2R3mo	Score2	5	22	156	0	122	12:25:24	1928619	0	0	0	0	0	0	0	0	0	0	0	0	0	0	0	0	0
111912	12:25:24	10035	Memory2R3mo	Score2	5	33	165	0	122	12:25:24	1928872	0	0	0	0	0	0	0	0	0	0	0	0	0	0	0	0	0
111912	12:25:24	10035	Memory2R3mo	Score2	5	44	204	0	122	12:25:24	1929138	0	0	0	0	0	0	0	0	0	0	0	0	0	0	0	0	0
111912	12:25:24	10035	Memory2R3mo	Score2	5	55	177	0	122	12:25:24	1929379	0	0	0	0	0	0	0	0	0	0	0	0	0	0	0	0	0
111912	12:25:24	10035	Memory2R3mo	Score2	5	66	161	0	122	12:25:24	1929605	0	0	0	0	0	0	0	0	0	0	0	0	0	0	0	0	0
111912	12:25:24	10035	Memory2R3mo	Score2	5	77	182	0	122	12:25:24	1929858	0	0	0	0	0	0	0	0	0	0	0	0	0	0	0	0	0
111912	12:25:24	10035	Memory2R3mo	Score2	5	88	170	0	122	12:25:24	1930098	0	0	0	0	0	0	0	0	0	0	0	0	0	0	0	0	0
111912	12:25:24	10035	Memory2R3mo	Score2	5	Done	614	0	122	12:25:24	1930778	0	0	0	0	0	0	0	0	0	0	0	0	0	0	0	0	0
111912	12:25:24	10035	Memory3R3mo	Score3	5	111	9526	0	122	12:25:24	1960100	0	0	0	0	0	0	0	0	0	0	0	0	0	0	0	0	0
111912	12:25:24	10035	Memory3R3mo	Score3	5	222	211	0	122	12:25:24	1960366	0	0	0	0	0	0	0	0	0	0	0	0	0	0	0	0	0
111912	12:25:24	10035	Memory3R3mo	Score3	5	333	229	0	122	12:25:24	1960660	0	0	0	0	0	0	0	0	0	0	0	0	0	0	0	0	0
111912	12:25:24	10035	Memory3R3mo	Score3	5	444	503	0	122	12:25:24	1961233	0	0	0	0	0	0	0	0	0	0	0	0	0	0	0	0	0
111912	12:25:24	10035	Memory3R3mo	Score3	5	666	277	0	122	12:25:24	1961579	0	0	0	0	0	0	0	0	0	0	0	0	0	0	0	0	0
111912	12:25:24	10035	Memory3R3mo	Score3	5	555	472	0	122	12:25:24	1962113	0	0	0	0	0	0	0	0	0	0	0	0	0	0	0	0	0
111912	12:25:24	10035	Memory3R3mo	Score3	5	777	469	0	122	12:25:24	1962647	0	0	0	0	0	0	0	0	0	0	0	0	0	0	0	0	0
111912	12:25:24	10035	Memory3R3mo	Score3	5	888	191	0	122	12:25:24	1962900	0	0	0	0	0	0	0	0	0	0	0	0	0	0	0	0	0
111912	12:25:24	10035	Memory3R3mo	Score3	5	Done	425	0	122	12:25:24	1963394	0	0	0	0	0	0	0	0	0	0	0	0	0	0	0	0	0
111912	12:25:24	10035	LoriaEngLH3	Stop	6	6	3573	0	122	12:25:24	2025289	0	0	0	0	0	0	0	0	0	0	0	0	0	0	0	0	0
111912	12:25:24	10035	EngTrail	Trails	7	1Trails	899	0	122	12:25:24	2045911	0	0	0	0	0	0	0	0	0	0	0	0	0	0	0	0	0
111912	12:25:24	10035	Serial7Eng3mo	Serial7Eng3mo	8	83	4228	0	122	12:25:24	2082546	1	0	0	0	0	0	0	0	0	0	0	0	0	0	0	0	0
111912	12:25:24	10035	Serial7Eng3mo	Serial7Eng3mo	8	76	2650	0	122	12:25:24	2085212	2	0	0	0	0	0	0	0	0	0	0	0	0	0	0	0	0
111912	12:25:24	10035	Serial7Eng3mo	Serial7Eng3mo	8	69	4065	0	122	12:25:24	2089290	3	0	0	0	0	0	0	0	0	0	0	0	0	0	0	0	0
111912	12:25:24	10035	Serial7Eng3mo	Serial7Eng3mo	8	62	2514	0	122	12:25:24	2091823	4	0	0	0	0	0	0	0	0	0	0	0	0	0	0	0	0
111912	12:25:24	10035	Serial7Eng3mo	Serial7Eng3mo	8	56	2966	0	122	12:25:24	2094809	4	0	0	0	0	0	0	0	0	0	0	0	0	0	0	0	0
111912	12:25:24	10035	corsiblockEngFwrd	recallseqEngFwrd	9	7	1290	0	122	12:25:24	2129355	4	0	0	0	0	0	0	0	0	0	0	0	0	0	0	0	0
111912	12:25:24	10035	corsiblockEngFwrd	recallseqEngFwrd	9	4	577	0	122	12:25:24	2129983	4	0	0	0	0	0	0	0	0	0	0	0	0	0	0	0	0
111912	12:25:24	10035	corsiblockEngFwrd	recallseqEngFwrd	9	doneCorsiEng	991	0	122	12:25:24	2131034	4	0	0	0	0	0	0	0	0	0	0	0	0	0	0	2	0
111912	12:25:24	10035	corsiblockEngFwrd	recallseqEngFwrd	9	3	693	0	122	12:25:24	2137871	4	0	0	0	0	0	0	0	0	0	0	0	0	0	0	2	0
111912	12:25:24	10035	corsiblockEngFwrd	recallseqEngFwrd	9	8	702	0	122	12:25:24	2138645	4	0	0	0	0	0	0	0	0	0	0	0	0	0	0	2	0
111912	12:25:24	10035	corsiblockEngFwrd	recallseqEngFwrd	9	2	1280	0	122	12:25:24	2139977	4	0	0	0	0	0	0	0	0	0	0	0	0	0	0	2	0
111912	12:25:24	10035	corsiblockEngFwrd	recallseqEngFwrd	9	doneCorsiEng	906	0	122	12:25:24	2140937	4	0	0	0	0	0	0	0	0	0	0	0	0	0	0	3	0
111912	12:25:24	10035	corsiblockEngFwrd	recallseqEngFwrd	9	9	980	0	122	12:25:24	2149040	4	0	0	0	0	0	0	0	0	0	0	0	0	0	0	3	0
111912	12:25:24	10035	corsiblockEngFwrd	recallseqEngFwrd	9	1	779	0	122	12:25:24	2149880	4	0	0	0	0	0	0	0	0	0	0	0	0	0	0	3	0
111912	12:25:24	10035	corsiblockEngFwrd	recallseqEngFwrd	9	5	1038	0	122	12:25:24	2150986	4	0	0	0	0	0	0	0	0	0	0	0	0	0	0	3	0
111912	12:25:24	10035	corsiblockEngFwrd	recallseqEngFwrd	9	6	435	0	122	12:25:24	2151466	4	0	0	0	0	0	0	0	0	0	0	0	0	0	0	3	0
111912	12:25:24	10035	corsiblockEngFwrd	recallseqEngFwrd	9	doneCorsiEng	1303	0	122	12:25:24	2152826	4	0	0	0	0	0	0	0	0	0	0	0	0	0	0	4	0
111912	12:25:24	10035	corsiblockEngFwrd	recallseqEngFwrd	9	5	1107	0	122	12:25:24	2162062	4	0	0	0	0	0	0	0	0	0	0	0	0	0	0	4	0
111912	12:25:24	10035	corsiblockEngFwrd	recallseqEngFwrd	9	2	859	0	122	12:25:24	2162968	4	0	0	0	0	0	0	0	0	0	0	0	0	0	0	4	0
111912	12:25:24	10035	corsiblockEngFwrd	recallseqEngFwrd	9	4	539	0	122	12:25:24	2163555	4	0	0	0	0	0	0	0	0	0	0	0	0	0	0	4	0
111912	12:25:24	10035	corsiblockEngFwrd	recallseqEngFwrd	9	9	822	0	122	12:25:24	2164434	4	0	0	0	0	0	0	0	0	0	0	0	0	0	0	4	0
111912	12:25:24	10035	corsiblockEngFwrd	recallseqEngFwrd	9	1	701	0	122	12:25:24	2165194	4	0	0	0	0	0	0	0	0	0	0	0	0	0	0	4	0
111912	12:25:24	10035	corsiblockEngFwrd	recallseqEngFwrd	9	doneCorsiEng	757	0	122	12:25:24	2166009	4	0	0	0	0	0	0	0	0	0	0	0	0	0	0	5	0
111912	12:25:24	10035	corsiblockEngFwrd	recallseqEngFwrd	9	7	2438	0	122	12:25:24	2177576	4	0	0	0	0	0	0	0	0	0	0	0	0	0	0	5	0
111912	12:25:24	10035	corsiblockEngFwrd	recallseqEngFwrd	9	6	751	0	122	12:25:24	2178375	4	0	0	0	0	0	0	0	0	0	0	0	0	0	0	5	0
111912	12:25:24	10035	corsiblockEngFwrd	recallseqEngFwrd	9	8	674	0	122	12:25:24	2179096	4	0	0	0	0	0	0	0	0	0	0	0	0	0	0	5	0
111912	12:25:24	10035	corsiblockEngFwrd	recallseqEngFwrd	9	3	889	0	122	12:25:24	2180041	4	0	0	0	0	0	0	0	0	0	0	0	0	0	0	5	0
111912	12:25:24	10035	corsiblockEngFwrd	recallseqEngFwrd	9	5	2138	0	122	12:25:24	2182241	4	0	0	0	0	0	0	0	0	0	0	0	0	0	0	5	0
111912	12:25:24	10035	corsiblockEngFwrd	recallseqEngFwrd	9	1	1000	0	122	12:25:24	2183293	4	0	0	0	0	0	0	0	0	0	0	0	0	0	0	5	0
111912	12:25:24	10035	corsiblockEngFwrd	recallseqEngFwrd	9	doneCorsiEng	1027	0	122	12:25:24	2184373	4	0	0	0	0	0	0	0	0	0	0	0	0	0	0	6	0
111912	12:25:24	10035	corsiblockEngFwrd	recallseqEngFwrd	9	4	1843	0	122	12:25:24	2196355	4	0	0	0	0	0	0	0	0	0	0	0	0	0	0	6	0
111912	12:25:24	10035	corsiblockEngFwrd	recallseqEngFwrd	9	6	1013	0	122	12:25:24	2197421	4	0	0	0	0	0	0	0	0	0	0	0	0	0	0	6	0
111912	12:25:24	10035	corsiblockEngFwrd	recallseqEngFwrd	9	8	1001	0	122	12:25:24	2198474	4	0	0	0	0	0	0	0	0	0	0	0	0	0	0	6	0
111912	12:25:24	10035	corsiblockEngFwrd	recallseqEngFwrd	9	3	844	0	122	12:25:24	2199394	4	0	0	0	0	0	0	0	0	0	0	0	0	0	0	6	0
111912	12:25:24	10035	corsiblockEngFwrd	recallseqEngFwrd	9	9	5335	0	122	12:25:24	2204778	4	0	0	0	0	0	0	0	0	0	0	0	0	0	0	6	0
111912	12:25:24	10035	corsiblockEngFwrd	recallseqEngFwrd	9	2	619	0	122	12:25:24	2205445	4	0	0	0	0	0	0	0	0	0	0	0	0	0	0	6	0
111912	12:25:24	10035	corsiblockEngFwrd	recallseqEngFwrd	9	7	588	0	122	12:25:24	2206085	4	0	0	0	0	0	0	0	0	0	0	0	0	0	0	6	0
111912	12:25:24	10035	corsiblockEngFwrd	recallseqEngFwrd	9	doneCorsiEng	1037	0	122	12:25:24	2207177	4	0	0	0	0	0	0	0	0	0	0	0	0	0	0	7	0
111912	12:25:24	10035	corsiblockEngFwrd	recallseqEngFwrd	9	1	756	0	122	12:25:24	2219066	4	0	0	0	0	0	0	0	0	0	0	0	0	0	0	7	0
111912	12:25:24	10035	corsiblockEngFwrd	recallseqEngFwrd	9	4	752	0	122	12:25:24	2219879	4	0	0	0	0	0	0	0	0	0	0	0	0	0	0	7	0
111912	12:25:24	10035	corsiblockEngFwrd	recallseqEngFwrd	9	7	585	0	122	12:25:24	2220519	4	0	0	0	0	0	0	0	0	0	0	0	0	0	0	7	0
111912	12:25:24	10035	corsiblockEngFwrd	recallseqEngFwrd	9	2	698	0	122	12:25:24	2221265	4	0	0	0	0	0	0	0	0	0	0	0	0	0	0	7	0
111912	12:25:24	10035	corsiblockEngFwrd	recallseqEngFwrd	9	9	721	0	122	12:25:24	2222040	4	0	0	0	0	0	0	0	0	0	0	0	0	0	0	7	0
111912	12:25:24	10035	corsiblockEngFwrd	recallseqEngFwrd	9	8	588	0	122	12:25:24	2222678	4	0	0	0	0	0	0	0	0	0	0	0	0	0	0	7	0
111912	12:25:24	10035	corsiblockEngFwrd	recallseqEngFwrd	9	3	650	0	122	12:25:24	2223385	4	0	0	0	0	0	0	0	0	0	0	0	0	0	0	7	0
111912	12:25:24	10035	corsiblockEngFwrd	recallseqEngFwrd	9	6	450	0	122	12:25:24	2223904	4	0	0	0	0	0	0	0	0	0	0	0	0	0	0	7	0
111912	12:25:24	10035	corsiblockEngFwrd	recallseqEngFwrd	9	doneCorsiEng	650	0	122	12:25:24	2224614	4	0	0	0	0	0	0	0	0	0	0	0	0	0	0	8	0
111912	12:25:24	10035	corsiblockEngFwrd	recallseqEngFwrd	9	5	787	0	122	12:25:24	2237525	4	0	0	0	0	0	0	0	0	0	0	0	0	0	0	8	0
111912	12:25:24	10035	corsiblockEngFwrd	recallseqEngFwrd	9	6	620	0	122	12:25:24	2238194	4	0	0	0	0	0	0	0	0	0	0	0	0	0	0	8	0
111912	12:25:24	10035	corsiblockEngFwrd	recallseqEngFwrd	9	5	656	0	122	12:25:24	2238899	4	0	0	0	0	0	0	0	0	0	0	0	0	0	0	8	0
111912	12:25:24	10035	corsiblockEngFwrd	recallseqEngFwrd	9	9	723	0	122	12:25:24	2239671	4	0	0	0	0	0	0	0	0	0	0	0	0	0	0	8	0
111912	12:25:24	10035	corsiblockEngFwrd	recallseqEngFwrd	9	1	678	0	122	12:25:24	2240405	4	0	0	0	0	0	0	0	0	0	0	0	0	0	0	8	0
111912	12:25:24	10035	corsiblockEngFwrd	recallseqEngFwrd	9	8	803	0	122	12:25:24	2241275	4	0	0	0	0	0	0	0	0	0	0	0	0	0	0	8	0
111912	12:25:24	10035	corsiblockEngFwrd	recallseqEngFwrd	9	4	620	0	122	12:25:24	2241951	4	0	0	0	0	0	0	0	0	0	0	0	0	0	0	8	0
111912	12:25:24	10035	corsiblockEngFwrd	recallseqEngFwrd	9	7	689	0	122	12:25:24	2242684	4	0	0	0	0	0	0	0	0	0	0	0	0	0	0	8	0
111912	12:25:24	10035	corsiblockEngFwrd	recallseqEngFwrd	9	2	1587	0	122	12:25:24	2244323	4	0	0	0	0	0	0	0	0	0	0	0	0	0	0	8	0
111912	12:25:24	10035	corsiblockEngFwrd	recallseqEngFwrd	9	doneCorsiEng	1032	0	122	12:25:24	2245416	4	0	0	0	0	0	0	0	0	0	0	0	0	0	0	8	0
111912	12:25:24	10035	corsiblockEngFwrd	recallseqEngFwrd	9	3	1392	0	122	12:25:24	2258904	4	0	0	0	0	0	0	0	0	0	0	0	0	0	0	8	0
111912	12:25:24	10035	corsiblockEngFwrd	recallseqEngFwrd	9	6	1872	0	122	12:25:24	2260823	4	0	0	0	0	0	0	0	0	0	0	0	0	0	0	8	0
111912	12:25:24	10035	corsiblockEngFwrd	recallseqEngFwrd	9	4	777	0	122	12:25:24	2261649	4	0	0	0	0	0	0	0	0	0	0	0	0	0	0	8	0
111912	12:25:24	10035	corsiblockEngFwrd	recallseqEngFwrd	9	5	871	0	122	12:25:24	2262569	4	0	0	0	0	0	0	0	0	0	0	0	0	0	0	8	0
111912	12:25:24	10035	corsiblockEngFwrd	recallseqEngFwrd	9	resetCorsiEng	1031	0	122	12:25:24	2263662	4	0	0	0	0	0	0	0	0	0	0	0	0	0	0	8	0
111912	12:25:24	10035	corsiblockEngFwrd	recallseqEngFwrd	9	3	736	0	122	12:25:24	2264462	4	0	0	0	0	0	0	0	0	0	0	0	0	0	0	8	0
111912	12:25:24	10035	corsiblockEngFwrd	recallseqEngFwrd	9	5	753	0	122	12:25:24	2265261	4	0	0	0	0	0	0	0	0	0	0	0	0	0	0	8	0
111912	12:25:24	10035	corsiblockEngFwrd	recallseqEngFwrd	9	4	533	0	122	12:25:24	2265849	4	0	0	0	0	0	0	0	0	0	0	0	0	0	0	8	0
111912	12:25:24	10035	corsiblockEngFwrd	recallseqEngFwrd	9	6	586	0	122	12:25:24	2266488	4	0	0	0	0	0	0	0	0	0	0	0	0	0	0	8	0
111912	12:25:24	10035	corsiblockEngFwrd	recallseqEngFwrd	9	8	1051	0	122	12:25:24	2267594	4	0	0	0	0	0	0	0	0	0	0	0	0	0	0	8	0
111912	12:25:24	10035	corsiblockEngFwrd	recallseqEngFwrd	9	1	1022	0	122	12:25:24	2268673	4	0	0	0	0	0	0	0	0	0	0	0	0	0	0	8	0
111912	12:25:24	10035	corsiblockEngFwrd	recallseqEngFwrd	9	9	1694	0	122	12:25:24	2270419	4	0	0	0	0	0	0	0	0	0	0	0	0	0	0	8	0
111912	12:25:24	10035	corsiblockEngFwrd	recallseqEngFwrd	9	3	781	0	122	12:25:24	2271245	4	0	0	0	0	0	0	0	0	0	0	0	0	0	0	8	0
111912	12:25:24	10035	corsiblockEngFwrd	recallseqEngFwrd	9	2	640	0	122	12:25:24	2271939	4	0	0	0	0	0	0	0	0	0	0	0	0	0	0	8	0
111912	12:25:24	10035	corsiblockEngFwrd	recallseqEngFwrd	9	doneCorsiEng	1069	0	122	12:25:24	2273058	4	0	0	0	0	0	0	0	0	0	0	0	0	0	0	9	0
111912	12:25:24	10035	corsiblockEngRev	recallseqEngRev	10	4	869	0	122	12:25:24	2285786	4	0	0	0	0	0	0	0	0	0	0	0	0	0	0	9	0
111912	12:25:24	10035	corsiblockEngRev	recallseqEngRev	10	2	453	0	122	12:25:24	2286294	4	0	0	0	0	0	0	0	0	0	0	0	0	0	0	9	0
111912	12:25:24	10035	corsiblockEngRev	recallseqEngRev	10	doneCorsiEng	930	0	122	12:25:24	2287279	4	0	0	0	0	0	0	0	0	0	0	0	0	0	0	9	2
111912	12:25:24	10035	corsiblockEngRev	recallseqEngRev	10	9	1107	0	122	12:25:24	2294516	4	0	0	0	0	0	0	0	0	0	0	0	0	0	0	9	2
111912	12:25:24	10035	corsiblockEngRev	recallseqEngRev	10	6	710	0	122	12:25:24	2295290	4	0	0	0	0	0	0	0	0	0	0	0	0	0	0	9	2
111912	12:25:24	10035	corsiblockEngRev	recallseqEngRev	10	8	839	0	122	12:25:24	2296182	4	0	0	0	0	0	0	0	0	0	0	0	0	0	0	9	2
111912	12:25:24	10035	corsiblockEngRev	recallseqEngRev	10	doneCorsiEng	712	0	122	12:25:24	2296942	4	0	0	0	0	0	0	0	0	0	0	0	0	0	0	9	3
111912	12:25:24	10035	corsiblockEngRev	recallseqEngRev	10	7	540	0	122	12:25:24	2304606	4	0	0	0	0	0	0	0	0	0	0	0	0	0	0	9	3
111912	12:25:24	10035	corsiblockEngRev	recallseqEngRev	10	1	588	0	122	12:25:24	2305259	4	0	0	0	0	0	0	0	0	0	0	0	0	0	0	9	3
111912	12:25:24	10035	corsiblockEngRev	recallseqEngRev	10	3	789	0	122	12:25:24	2306098	4	0	0	0	0	0	0	0	0	0	0	0	0	0	0	9	3
111912	12:25:24	10035	corsiblockEngRev	recallseqEngRev	10	5	518	0	122	12:25:24	2306672	4	0	0	0	0	0	0	0	0	0	0	0	0	0	0	9	3
111912	12:25:24	10035	corsiblockEngRev	recallseqEngRev	10	doneCorsiEng	616	0	122	12:25:24	2307351	4	0	0	0	0	0	0	0	0	0	0	0	0	0	0	9	4
111912	12:25:24	10035	corsiblockEngRev	recallseqEngRev	10	3	1060	0	122	12:25:24	2316534	4	0	0	0	0	0	0	0	0	0	0	0	0	0	0	9	4
111912	12:25:24	10035	corsiblockEngRev	recallseqEngRev	10	5	660	0	122	12:25:24	2317260	4	0	0	0	0	0	0	0	0	0	0	0	0	0	0	9	4
111912	12:25:24	10035	corsiblockEngRev	recallseqEngRev	10	1	1455	0	122	12:25:24	2318787	4	0	0	0	0	0	0	0	0	0	0	0	0	0	0	9	4
111912	12:25:24	10035	corsiblockEngRev	recallseqEngRev	10	6	730	0	122	12:25:24	2319573	4	0	0	0	0	0	0	0	0	0	0	0	0	0	0	9	4
111912	12:25:24	10035	corsiblockEngRev	recallseqEngRev	10	2	618	0	122	12:25:24	2320240	4	0	0	0	0	0	0	0	0	0	0	0	0	0	0	9	4
111912	12:25:24	10035	corsiblockEngRev	recallseqEngRev	10	doneCorsiEng	807	0	122	12:25:24	2321092	4	0	0	0	0	0	0	0	0	0	0	0	0	0	0	9	5
111912	12:25:24	10035	corsiblockEngRev	recallseqEngRev	10	4	1536	0	122	12:25:24	2331756	4	0	0	0	0	0	0	0	0	0	0	0	0	0	0	9	5
111912	12:25:24	10035	corsiblockEngRev	recallseqEngRev	10	6	596	0	122	12:25:24	2332462	4	0	0	0	0	0	0	0	0	0	0	0	0	0	0	9	5
111912	12:25:24	10035	corsiblockEngRev	recallseqEngRev	10	8	760	0	122	12:25:24	2333288	4	0	0	0	0	0	0	0	0	0	0	0	0	0	0	9	5
111912	12:25:24	10035	corsiblockEngRev	recallseqEngRev	10	4	1903	0	122	12:25:24	2335247	4	0	0	0	0	0	0	0	0	0	0	0	0	0	0	9	5
111912	12:25:24	10035	corsiblockEngRev	recallseqEngRev	10	9	888	0	122	12:25:24	2336180	4	0	0	0	0	0	0	0	0	0	0	0	0	0	0	9	5
111912	12:25:24	10035	corsiblockEngRev	recallseqEngRev	10	7	586	0	122	12:25:24	2336823	4	0	0	0	0	0	0	0	0	0	0	0	0	0	0	9	5
111912	12:25:24	10035	corsiblockEngRev	recallseqEngRev	10	doneCorsiEng	867	0	122	12:25:24	2337753	4	0	0	0	0	0	0	0	0	0	0	0	0	0	0	9	6
111912	12:25:24	10035	corsiblockEngRev	recallseqEngRev	10	5	3717	0	122	12:25:24	2351614	4	0	0	0	0	0	0	0	0	0	0	0	0	0	0	9	6
111912	12:25:24	10035	corsiblockEngRev	recallseqEngRev	10	3	737	0	122	12:25:24	2352413	4	0	0	0	0	0	0	0	0	0	0	0	0	0	0	9	6
111912	12:25:24	10035	corsiblockEngRev	recallseqEngRev	10	2	2296	0	122	12:25:24	2354773	4	0	0	0	0	0	0	0	0	0	0	0	0	0	0	9	6
111912	12:25:24	10035	corsiblockEngRev	recallseqEngRev	10	8	1314	0	122	12:25:24	2356132	4	0	0	0	0	0	0	0	0	0	0	0	0	0	0	9	6
111912	12:25:24	10035	corsiblockEngRev	recallseqEngRev	10	9	2034	0	122	12:25:24	2358211	4	0	0	0	0	0	0	0	0	0	0	0	0	0	0	9	6
111912	12:25:24	10035	corsiblockEngRev	recallseqEngRev	10	4	756	0	122	12:25:24	2359024	4	0	0	0	0	0	0	0	0	0	0	0	0	0	0	9	6
111912	12:25:24	10035	corsiblockEngRev	recallseqEngRev	10	1	432	0	122	12:25:24	2359504	4	0	0	0	0	0	0	0	0	0	0	0	0	0	0	9	6
111912	12:25:24	10035	corsiblockEngRev	recallseqEngRev	10	doneCorsiEng	1078	0	122	12:25:24	2360637	4	0	0	0	0	0	0	0	0	0	0	0	0	0	0	9	6
111912	12:25:24	10035	corsiblockEngRev	recallseqEngRev	10	7	902	0	122	12:25:24	2371619	4	0	0	0	0	0	0	0	0	0	0	0	0	0	0	9	6
111912	12:25:24	10035	corsiblockEngRev	recallseqEngRev	10	8	619	0	122	12:25:24	2372286	4	0	0	0	0	0	0	0	0	0	0	0	0	0	0	9	6
111912	12:25:24	10035	corsiblockEngRev	recallseqEngRev	10	4	473	0	122	12:25:24	2372806	4	0	0	0	0	0	0	0	0	0	0	0	0	0	0	9	6
111912	12:25:24	10035	corsiblockEngRev	recallseqEngRev	10	5	553	0	122	12:25:24	2373412	4	0	0	0	0	0	0	0	0	0	0	0	0	0	0	9	6
111912	12:25:24	10035	corsiblockEngRev	recallseqEngRev	10	2	1708	0	122	12:25:24	2375178	4	0	0	0	0	0	0	0	0	0	0	0	0	0	0	9	6
111912	12:25:24	10035	corsiblockEngRev	recallseqEngRev	10	6	1557	0	122	12:25:24	2376790	4	0	0	0	0	0	0	0	0	0	0	0	0	0	0	9	6
111912	12:25:24	10035	corsiblockEngRev	recallseqEngRev	10	3	526	0	122	12:25:24	2377391	4	0	0	0	0	0	0	0	0	0	0	0	0	0	0	9	6
111912	12:25:24	10035	corsiblockEngRev	recallseqEngRev	10	doneCorsiEng	1031	0	122	12:25:24	2378470	4	0	0	0	0	0	0	0	0	0	0	0	0	0	0	9	6
111912	12:25:24	10035	testEng3mo	WordsEng3mo	11	2Eng3mo	14026	0	122	12:25:24	2402007	4	0	3	0	0	0	0	0	0	0	0	0	0	0	0	9	6
111912	12:25:24	10035	testEng3mo	WordsEng3mo	11	3Eng3mo	249	0	122	12:25:24	2402327	4	0	3	3	0	0	0	0	0	0	0	0	0	0	0	9	6
111912	12:25:24	10035	testEng3mo	WordsEng3mo	11	5Eng3mo	2238	0	122	12:25:24	2404646	4	0	3	3	0	3	0	0	0	0	0	0	0	0	0	9	6
111912	12:25:24	10035	testEng3mo	WordsEng3mo	11	6Eng3mo	160	0	122	12:25:24	2404873	4	0	3	3	0	3	3	0	0	0	0	0	0	0	0	9	6
111912	12:25:24	10035	testEng3mo	WordsEng3mo	11	7Eng3mo	1376	0	122	12:25:24	2406312	4	0	3	3	0	3	3	3	0	0	0	0	0	0	0	9	6
111912	12:25:24	10035	testEng3mo	WordsEng3mo	11	8Eng3mo	217	0	122	12:25:24	2406592	4	0	3	3	0	3	3	3	3	0	0	0	0	0	0	9	6
111912	12:25:24	10035	testEng3mo	WordsEng3mo	11	DoneEng3mo	16713	0	122	12:25:24	2423372	4	0	3	3	0	3	3	3	3	0	0	0	0	0	0	9	6
111912	12:25:24	10035	testEng3mo	Cat1Eng3mo	11	0	1	0	122	12:25:24	2423385	4	0	3	3	0	3	3	3	3	0	0	0	0	0	0	9	6
111912	12:25:24	10035	testEng3mo	Ch1Eng3mo	11	RR1Eng3mo	8283	0	122	12:25:24	2431742	4	1	3	3	0	3	3	3	3	0	0	0	0	0	0	9	6
111912	12:25:24	10035	testEng3mo	Cat4Eng3mo	11	W4Eng3mo	23405	0	122	12:25:24	2455186	4	1	3	3	0	3	3	3	3	0	0	0	0	0	0	9	6
111912	12:25:24	10035	testEng3mo	Ch4Eng3mo	11	RR4Eng3mo	4290	0	122	12:25:24	2459531	4	1	3	3	1	3	3	3	3	0	0	0	0	0	0	9	6
111912	12:25:24	10035	DigitSpanFwrdEng3mo	Score1FwrdEng3mo	12	DS1	4515	0	122	12:25:24	2475538	4	1	3	3	1	3	3	3	3	0	0	0	0	0	0	9	6
111912	12:25:24	10035	DigitSpanFwrdEng3mo	Gate1FwrdEng3mo	12	0	1	0	122	12:25:24	2475544	4	1	3	3	1	3	3	3	3	3	0	0	0	0	0	9	6
111912	12:25:24	10035	DigitSpanFwrdEng3mo	Score2FwrdEng3mo	12	DS1	3952	0	122	12:25:24	2486054	4	1	3	3	1	3	3	3	3	3	0	0	0	0	0	9	6
111912	12:25:24	10035	DigitSpanFwrdEng3mo	Gate3FwrdEng3mo	12	0	1	0	122	12:25:24	2486059	4	1	3	3	1	3	3	3	3	4	0	0	0	0	0	9	6
111912	12:25:24	10035	DigitSpanFwrdEng3mo	Score3FwrdEng3mo	12	DS1	3953	0	122	12:25:24	2498036	4	1	3	3	1	3	3	3	3	4	0	0	0	0	0	9	6
111912	12:25:24	10035	DigitSpanFwrdEng3mo	Gate5FwrdEng3mo	12	0	1	0	122	12:25:24	2498042	4	1	3	3	1	3	3	3	3	5	0	0	0	0	0	9	6
111912	12:25:24	10035	DigitSpanFwrdEng3mo	Score4FwrdEng3mo	12	DS1	2566	0	122	12:25:24	2510124	4	1	3	3	1	3	3	3	3	5	0	0	0	0	0	9	6
111912	12:25:24	10035	DigitSpanFwrdEng3mo	Gate7FwrdEng3mo	12	0	1	0	122	12:25:24	2510129	4	1	3	3	1	3	3	3	3	6	0	0	0	0	0	9	6
111912	12:25:24	10035	DigitSpanFwrdEng3mo	Score5FwrdEng3mo	12	DS1	4662	0	122	12:25:24	2525825	4	1	3	3	1	3	3	3	3	6	0	0	0	0	0	9	6
111912	12:25:24	10035	DigitSpanFwrdEng3mo	Gate9FwrdEng3mo	12	0	1	0	122	12:25:24	2525830	4	1	3	3	1	3	3	3	3	7	0	0	0	0	0	9	6
111912	12:25:24	10035	DigitSpanFwrdEng3mo	Score6FwrdEng3mo	12	DS1	3733	0	122	12:25:24	2542898	4	1	3	3	1	3	3	3	3	8	0	0	0	0	0	9	6
111912	12:25:24	10035	DigitSpanEng3mo	Score1Eng3mo	13	DS1	3170	0	122	12:25:24	2556932	4	1	3	3	1	3	3	3	3	8	0	0	0	0	0	9	6
111912	12:25:24	10035	DigitSpanEng3mo	Gate1Eng3mo	13	0	1	0	122	12:25:24	2556938	4	1	3	3	1	3	3	3	3	8	2	0	0	0	0	9	6
111912	12:25:24	10035	DigitSpanEng3mo	Score2Eng3mo	13	DS1	3520	0	122	12:25:24	2565409	4	1	3	3	1	3	3	3	3	8	2	0	0	0	0	9	6
111912	12:25:24	10035	DigitSpanEng3mo	Gate3Eng3mo	13	0	1	0	122	12:25:24	2565415	4	1	3	3	1	3	3	3	3	8	3	0	0	0	0	9	6
111912	12:25:24	10035	DigitSpanEng3mo	Score3Eng3mo	13	DS1	9613	0	122	12:25:24	2581616	4	1	3	3	1	3	3	3	3	8	3	0	0	0	0	9	6
111912	12:25:24	10035	DigitSpanEng3mo	Gate5Eng3mo	13	0	1	0	122	12:25:24	2581621	4	1	3	3	1	3	3	3	3	8	4	0	0	0	0	9	6
111912	12:25:24	10035	DigitSpanEng3mo	Score4Eng3mo	13	DS1	6797	0	122	12:25:24	2596450	4	1	3	3	1	3	3	3	3	8	4	0	0	0	0	9	6
111912	12:25:24	10035	DigitSpanEng3mo	Gate7Eng3mo	13	0	1	0	122	12:25:24	2596456	4	1	3	3	1	3	3	3	3	8	5	0	0	0	0	9	6
111912	12:25:24	10035	DigitSpanEng3mo	Score5Eng3mo	13	DS2	15564	0	122	12:25:24	2621520	4	1	3	3	1	3	3	3	3	8	5	0	0	0	0	9	6
111912	12:25:24	10035	DigitSpanEng3mo	Gate9Eng3mo	13	0	1	0	122	12:25:24	2621530	4	1	3	3	1	3	3	3	3	8	5	0	0	0	0	9	6
111912	12:25:24	10035	DigitSpanEng3mo	Score55Eng3mo	13	DS1	8821	0	122	12:25:24	2639980	4	1	3	3	1	3	3	3	3	8	5	0	0	0	0	9	6
111912	12:25:24	10035	DigitSpanEng3mo	Gate10Eng3mo	13	0	1	0	122	12:25:24	2639985	4	1	3	3	1	3	3	3	3	8	6	0	0	0	0	9	6
111912	12:25:24	10035	DigitSpanEng3mo	Score6Eng3mo	13	DS1	8200	0	122	12:25:24	2660118	4	1	3	3	1	3	3	3	3	8	7	0	0	0	0	9	6
111912	12:25:24	10035	Trial	ResponseIL	14	0	175	0	122	12:25:24	2702248	4	1	3	3	1	3	3	3	3	8	7	0	0	0	0	9	6
111912	12:25:24	10035	Trial	IncongruentLeft	14	203	327	1	122	12:25:24	2702595	4	1	3	3	1	3	3	3	3	8	7	0	0	0	0	9	6
111912	12:25:24	10035	Trial	ResponseCR	14	0	175	0	122	12:25:24	2703954	4	1	3	3	1	3	3	3	3	8	7	0	0	0	0	9	6
111912	12:25:24	10035	Trial	CongruentRight	14	205	284	1	122	12:25:24	2704261	4	1	3	3	1	3	3	3	3	8	7	0	0	0	0	9	6
111912	12:25:24	10035	Trial	ResponseIR	14	0	175	0	122	12:25:24	2705660	4	1	3	3	1	3	3	3	3	8	7	0	0	0	0	9	6
111912	12:25:24	10035	Trial	IncongruentRight	14	205	487	1	122	12:25:24	2706172	4	1	3	3	1	3	3	3	3	8	7	0	0	0	0	9	6
111912	12:25:24	10035	Trial	ResponseCL	14	0	175	0	122	12:25:24	2707366	4	1	3	3	1	3	3	3	3	8	7	0	0	0	0	9	6
111912	12:25:24	10035	Trial	CongruentLeft	14	203	234	1	122	12:25:24	2707619	4	1	3	3	1	3	3	3	3	8	7	0	0	0	0	9	6
111912	12:25:24	10035	Trial	ResponseCR	14	0	175	0	122	12:25:24	2709072	4	1	3	3	1	3	3	3	3	8	7	0	0	0	0	9	6
111912	12:25:24	10035	Trial	CongruentRight	14	205	256	1	122	12:25:24	2709352	4	1	3	3	1	3	3	3	3	8	7	0	0	0	0	9	6
111912	12:25:24	10035	Trial	ResponseIR	14	0	175	0	122	12:25:24	2710778	4	1	3	3	1	3	3	3	3	8	7	0	0	0	0	9	6
111912	12:25:24	10035	Trial	IncongruentRight	14	205	326	1	122	12:25:24	2711125	4	1	3	3	1	3	3	3	3	8	7	0	0	0	0	9	6
111912	12:25:24	10035	Trial	ResponseCL	14	0	175	0	122	12:25:24	2712484	4	1	3	3	1	3	3	3	3	8	7	0	0	0	0	9	6
111912	12:25:24	10035	Trial	CongruentLeft	14	203	235	1	122	12:25:24	2712738	4	1	3	3	1	3	3	3	3	8	7	0	0	0	0	9	6
111912	12:25:24	10035	Trial	ResponseIL	14	0	175	0	122	12:25:24	2714190	4	1	3	3	1	3	3	3	3	8	7	0	0	0	0	9	6
111912	12:25:24	10035	Trial	IncongruentLeft	14	203	512	1	122	12:25:24	2714724	4	1	3	3	1	3	3	3	3	8	7	0	0	0	0	9	6
111912	12:25:24	10035	Trial	ResponseIL	14	0	175	0	122	12:25:24	2715896	4	1	3	3	1	3	3	3	3	8	7	0	0	0	0	9	6
111912	12:25:24	10035	Trial	IncongruentLeft	14	203	360	1	122	12:25:24	2716283	4	1	3	3	1	3	3	3	3	8	7	0	0	0	0	9	6
111912	12:25:24	10035	Trial	ResponseCR	14	0	175	0	122	12:25:24	2717602	4	1	3	3	1	3	3	3	3	8	7	0	0	0	0	9	6
111912	12:25:24	10035	Trial	CongruentRight	14	205	366	1	122	12:25:24	2717989	4	1	3	3	1	3	3	3	3	8	7	0	0	0	0	9	6
111912	12:25:24	10035	Trial	ResponseIR	14	0	175	0	122	12:25:24	2719308	4	1	3	3	1	3	3	3	3	8	7	0	0	0	0	9	6
111912	12:25:24	10035	Trial	IncongruentRight	14	205	502	1	122	12:25:24	2719828	4	1	3	3	1	3	3	3	3	8	7	0	0	0	0	9	6
111912	12:25:24	10035	Trial	ResponseCL	14	0	175	0	122	12:25:24	2721014	4	1	3	3	1	3	3	3	3	8	7	0	0	0	0	9	6
111912	12:25:24	10035	Trial	CongruentLeft	14	203	329	1	122	12:25:24	2721374	4	1	3	3	1	3	3	3	3	8	7	0	0	0	0	9	6
111912	12:25:24	10035	Trial	ResponseCR	14	0	175	0	122	12:25:24	2722720	4	1	3	3	1	3	3	3	3	8	7	0	0	0	0	9	6
111912	12:25:24	10035	Trial	CongruentRight	14	205	224	1	122	12:25:24	2722973	4	1	3	3	1	3	3	3	3	8	7	0	0	0	0	9	6
111912	12:25:24	10035	Trial	ResponseIL	14	0	175	0	122	12:25:24	2724426	4	1	3	3	1	3	3	3	3	8	7	0	0	0	0	9	6
111912	12:25:24	10035	Trial	IncongruentLeft	14	203	342	1	122	12:25:24	2724786	4	1	3	3	1	3	3	3	3	8	7	0	0	0	0	9	6
111912	12:25:24	10035	Trial	ResponseIR	14	0	175	0	122	12:25:24	2726132	4	1	3	3	1	3	3	3	3	8	7	0	0	0	0	9	6
111912	12:25:24	10035	Trial	IncongruentRight	14	205	299	1	122	12:25:24	2726452	4	1	3	3	1	3	3	3	3	8	7	0	0	0	0	9	6
111912	12:25:24	10035	Trial	ResponseCR	14	0	175	0	122	12:25:24	2727838	4	1	3	3	1	3	3	3	3	8	7	0	0	0	0	9	6
111912	12:25:24	10035	Trial	CongruentRight	14	205	225	1	122	12:25:24	2728091	4	1	3	3	1	3	3	3	3	8	7	0	0	0	0	9	6
111912	12:25:24	10035	Trial	ResponseCL	14	0	175	0	122	12:25:24	2729544	4	1	3	3	1	3	3	3	3	8	7	0	0	0	0	9	6
111912	12:25:24	10035	Trial	CongruentLeft	14	203	200	1	122	12:25:24	2729771	4	1	3	3	1	3	3	3	3	8	7	0	0	0	0	9	6
111912	12:25:24	10035	Trial	ResponseCR	14	0	175	0	122	12:25:24	2731304	4	1	3	3	1	3	3	3	3	8	7	0	0	0	0	9	6
111912	12:25:24	10035	Trial	CongruentRight	14	205	344	1	122	12:25:24	2731677	4	1	3	3	1	3	3	3	3	8	7	0	0	0	0	9	6
111912	12:25:24	10035	Trial	ResponseIR	14	0	175	0	122	12:25:24	2733010	4	1	3	3	1	3	3	3	3	8	7	0	0	0	0	9	6
111912	12:25:24	10035	Trial	IncongruentRight	14	205	366	1	122	12:25:24	2733396	4	1	3	3	1	3	3	3	3	8	7	0	0	0	0	9	6
111912	12:25:24	10035	Trial	ResponseIL	14	0	175	0	122	12:25:24	2734716	4	1	3	3	1	3	3	3	3	8	7	0	0	0	0	9	6
111912	12:25:24	10035	Trial	IncongruentLeft	14	203	373	1	122	12:25:24	2735115	4	1	3	3	1	3	3	3	3	8	7	0	0	0	0	9	6
111912	12:25:24	10035	Trial	ResponseIL	14	0	175	0	122	12:25:24	2736422	4	1	3	3	1	3	3	3	3	8	7	0	0	0	0	9	6
111912	12:25:24	10035	Trial	IncongruentLeft	14	203	426	1	122	12:25:24	2736875	4	1	3	3	1	3	3	3	3	8	7	0	0	0	0	9	6
111912	12:25:24	10035	Trial	ResponseCL	14	0	175	0	122	12:25:24	2738128	4	1	3	3	1	3	3	3	3	8	7	0	0	0	0	9	6
111912	12:25:24	10035	Trial	CongruentLeft	14	203	257	1	122	12:25:24	2738407	4	1	3	3	1	3	3	3	3	8	7	0	0	0	0	9	6
111912	12:25:24	10035	Trial	ResponseCR	14	0	175	0	122	12:25:24	2739834	4	1	3	3	1	3	3	3	3	8	7	0	0	0	0	9	6
111912	12:25:24	10035	Trial	CongruentRight	14	205	263	1	122	12:25:24	2740113	4	1	3	3	1	3	3	3	3	8	7	0	0	0	0	9	6
111912	12:25:24	10035	Trial	ResponseIL	14	0	175	0	122	12:25:24	2741540	4	1	3	3	1	3	3	3	3	8	7	0	0	0	0	9	6
111912	12:25:24	10035	Trial	IncongruentLeft	14	203	269	1	122	12:25:24	2741833	4	1	3	3	1	3	3	3	3	8	7	0	0	0	0	9	6
111912	12:25:24	10035	Trial	ResponseIR	14	0	175	0	122	12:25:24	2743259	4	1	3	3	1	3	3	3	3	8	7	0	0	0	0	9	6
111912	12:25:24	10035	Trial	IncongruentRight	14	205	212	1	122	12:25:24	2743499	4	1	3	3	1	3	3	3	3	8	7	0	0	0	0	9	6
111912	12:25:24	10035	Trial	ResponseCR	14	0	175	0	122	12:25:24	2744965	4	1	3	3	1	3	3	3	3	8	7	0	0	0	0	9	6
111912	12:25:24	10035	Trial	CongruentRight	14	205	219	1	122	12:25:24	2745205	4	1	3	3	1	3	3	3	3	8	7	0	0	0	0	9	6
111912	12:25:24	10035	Trial	ResponseCL	14	0	175	0	122	12:25:24	2746671	4	1	3	3	1	3	3	3	3	8	7	0	0	0	0	9	6
111912	12:25:24	10035	Trial	CongruentLeft	14	203	177	1	122	12:25:24	2746871	4	1	3	3	1	3	3	3	3	8	7	0	0	0	0	9	6
111912	12:25:24	10035	Trial	ResponseIR	14	0	175	0	122	12:25:24	2748377	4	1	3	3	1	3	3	3	3	8	7	0	0	0	0	9	6
111912	12:25:24	10035	Trial	IncongruentRight	14	205	359	1	122	12:25:24	2748763	4	1	3	3	1	3	3	3	3	8	7	0	0	0	0	9	6
111912	12:25:24	10035	Trial	ResponseIL	14	0	175	0	122	12:25:24	2750083	4	1	3	3	1	3	3	3	3	8	7	0	0	0	0	9	6
111912	12:25:24	10035	Trial	IncongruentLeft	14	203	284	1	122	12:25:24	2750389	4	1	3	3	1	3	3	3	3	8	7	0	0	0	0	9	6
111912	12:25:24	10035	Trial	ResponseIR	14	0	175	0	122	12:25:24	2751789	4	1	3	3	1	3	3	3	3	8	7	0	0	0	0	9	6
111912	12:25:24	10035	Trial	IncongruentRight	14	205	162	1	122	12:25:24	2751975	4	1	3	3	1	3	3	3	3	8	7	0	0	0	0	9	6
111912	12:25:24	10035	Trial	ResponseCR	14	0	175	0	122	12:25:24	2753495	4	1	3	3	1	3	3	3	3	8	7	0	0	0	0	9	6
111912	12:25:24	10035	Trial	CongruentRight	14	205	360	1	122	12:25:24	2753881	4	1	3	3	1	3	3	3	3	8	7	0	0	0	0	9	6
111912	12:25:24	10035	Trial	ResponseIL	14	0	175	0	122	12:25:24	2755201	4	1	3	3	1	3	3	3	3	8	7	0	0	0	0	9	6
111912	12:25:24	10035	Trial	IncongruentLeft	14	203	366	1	122	12:25:24	2755587	4	1	3	3	1	3	3	3	3	8	7	0	0	0	0	9	6
111912	12:25:24	10035	Trial	ResponseCL	14	0	175	0	122	12:25:24	2756907	4	1	3	3	1	3	3	3	3	8	7	0	0	0	0	9	6
111912	12:25:24	10035	Trial	CongruentLeft	14	203	357	1	122	12:25:24	2757293	4	1	3	3	1	3	3	3	3	8	7	0	0	0	0	9	6
111912	12:25:24	10035	Trial	ResponseCR	14	0	175	0	122	12:25:24	2758613	4	1	3	3	1	3	3	3	3	8	7	0	0	0	0	9	6
111912	12:25:24	10035	Trial	CongruentRight	14	205	413	1	122	12:25:24	2759053	4	1	3	3	1	3	3	3	3	8	7	0	0	0	0	9	6
111912	12:25:24	10035	Trial	ResponseIL	14	0	175	0	122	12:25:24	2760319	4	1	3	3	1	3	3	3	3	8	7	0	0	0	0	9	6
111912	12:25:24	10035	Trial	IncongruentLeft	14	203	319	1	122	12:25:24	2760665	4	1	3	3	1	3	3	3	3	8	7	0	0	0	0	9	6
111912	12:25:24	10035	Trial	ResponseIR	14	0	175	0	122	12:25:24	2762025	4	1	3	3	1	3	3	3	3	8	7	0	0	0	0	9	6
111912	12:25:24	10035	Trial	IncongruentRight	14	205	414	1	122	12:25:24	2762466	4	1	3	3	1	3	3	3	3	8	7	0	0	0	0	9	6
111912	12:25:24	10035	Trial	ResponseIR	14	0	175	0	122	12:25:24	2763731	4	1	3	3	1	3	3	3	3	8	7	0	0	0	0	9	6
111912	12:25:24	10035	Trial	IncongruentRight	14	205	301	1	122	12:25:24	2764051	4	1	3	3	1	3	3	3	3	8	7	0	0	0	0	9	6
111912	12:25:24	10035	Trial	ResponseCL	14	0	175	0	122	12:25:24	2765477	4	1	3	3	1	3	3	3	3	8	7	0	0	0	0	9	6
111912	12:25:24	10035	Trial	CongruentLeft	14	203	281	1	122	12:25:24	2765783	4	1	3	3	1	3	3	3	3	8	7	0	0	0	0	9	6
111912	12:25:24	10035	Trial	ResponseIL	14	0	175	0	122	12:25:24	2767183	4	1	3	3	1	3	3	3	3	8	7	0	0	0	0	9	6
111912	12:25:24	10035	Trial	IncongruentLeft	14	203	385	1	122	12:25:24	2767598	4	1	3	3	1	3	3	3	3	8	7	0	0	0	0	9	6
111912	12:25:24	10035	Trial	ResponseCR	14	0	175	0	122	12:25:24	2768889	4	1	3	3	1	3	3	3	3	8	7	0	0	0	0	9	6
111912	12:25:24	10035	Trial	CongruentRight	14	205	213	1	122	12:25:24	2769129	4	1	3	3	1	3	3	3	3	8	7	0	0	0	0	9	6
111912	12:25:24	10035	Trial	ResponseCL	14	0	175	0	122	12:25:24	2770595	4	1	3	3	1	3	3	3	3	8	7	0	0	0	0	9	6
111912	12:25:24	10035	Trial	CongruentLeft	14	203	332	1	122	12:25:24	2770955	4	1	3	3	1	3	3	3	3	8	7	0	0	0	0	9	6
111912	12:25:24	10035	Trial	ResponseIR	14	0	175	0	122	12:25:24	2772301	4	1	3	3	1	3	3	3	3	8	7	0	0	0	0	9	6
111912	12:25:24	10035	Trial	IncongruentRight	14	205	323	1	122	12:25:24	2772647	4	1	3	3	1	3	3	3	3	8	7	0	0	0	0	9	6
111912	12:25:24	10035	Trial	ResponseCR	14	0	175	0	122	12:25:24	2774007	4	1	3	3	1	3	3	3	3	8	7	0	0	0	0	9	6
111912	12:25:24	10035	Trial	CongruentRight	14	205	281	1	122	12:25:24	2774313	4	1	3	3	1	3	3	3	3	8	7	0	0	0	0	9	6
111912	12:25:24	10035	Trial	ResponseIL	14	0	175	0	122	12:25:24	2775713	4	1	3	3	1	3	3	3	3	8	7	0	0	0	0	9	6
111912	12:25:24	10035	Trial	IncongruentLeft	14	203	205	1	122	12:25:24	2775939	4	1	3	3	1	3	3	3	3	8	7	0	0	0	0	9	6
111912	12:25:24	10035	Trial	ResponseCL	14	0	175	0	122	12:25:24	2777419	4	1	3	3	1	3	3	3	3	8	7	0	0	0	0	9	6
111912	12:25:24	10035	Trial	CongruentLeft	14	203	259	1	122	12:25:24	2777699	4	1	3	3	1	3	3	3	3	8	7	0	0	0	0	9	6
111912	12:25:24	10035	Trial	ResponseIL	14	0	175	0	122	12:25:24	2779125	4	1	3	3	1	3	3	3	3	8	7	0	0	0	0	9	6
111912	12:25:24	10035	Trial	IncongruentLeft	14	203	362	1	122	12:25:24	2779511	4	1	3	3	1	3	3	3	3	8	7	0	0	0	0	9	6
111912	12:25:24	10035	Trial	ResponseIR	14	0	175	0	122	12:25:24	2780831	4	1	3	3	1	3	3	3	3	8	7	0	0	0	0	9	6
111912	12:25:24	10035	Trial	IncongruentRight	14	205	272	1	122	12:25:24	2781124	4	1	3	3	1	3	3	3	3	8	7	0	0	0	0	9	6
111912	12:25:24	10035	Trial	ResponseCR	14	0	175	0	122	12:25:24	2782537	4	1	3	3	1	3	3	3	3	8	7	0	0	0	0	9	6
111912	12:25:24	10035	Trial	CongruentRight	14	205	166	1	122	12:25:24	2782723	4	1	3	3	1	3	3	3	3	8	7	0	0	0	0	9	6
111912	12:25:24	10035	Trial	ResponseCL	14	0	175	0	122	12:25:24	2784243	4	1	3	3	1	3	3	3	3	8	7	0	0	0	0	9	6
111912	12:25:24	10035	Trial	CongruentLeft	14	203	268	1	122	12:25:24	2784536	4	1	3	3	1	3	3	3	3	8	7	0	0	0	0	9	6
111912	12:25:24	10035	Trial	ResponseCL	14	0	175	0	122	12:25:24	2785949	4	1	3	3	1	3	3	3	3	8	7	0	0	0	0	9	6
111912	12:25:24	10035	Trial	CongruentLeft	14	203	162	1	122	12:25:24	2786135	4	1	3	3	1	3	3	3	3	8	7	0	0	0	0	9	6
111912	12:25:24	10035	Trial	ResponseIR	14	0	175	0	122	12:25:24	2787655	4	1	3	3	1	3	3	3	3	8	7	0	0	0	0	9	6
111912	12:25:24	10035	Trial	IncongruentRight	14	205	415	1	122	12:25:24	2788096	4	1	3	3	1	3	3	3	3	8	7	0	0	0	0	9	6
111912	12:25:24	10035	Trial	ResponseIL	14	0	175	0	122	12:25:24	2789361	4	1	3	3	1	3	3	3	3	8	7	0	0	0	0	9	6
111912	12:25:24	10035	Trial	IncongruentLeft	14	203	334	1	122	12:25:24	2789721	4	1	3	3	1	3	3	3	3	8	7	0	0	0	0	9	6
111912	12:25:24	10035	Trial	ResponseIR	14	0	175	0	122	12:25:24	2791067	4	1	3	3	1	3	3	3	3	8	7	0	0	0	0	9	6
111912	12:25:24	10035	Trial	IncongruentRight	14	205	373	1	122	12:25:24	2791467	4	1	3	3	1	3	3	3	3	8	7	0	0	0	0	9	6
111912	12:25:24	10035	Trial	ResponseCR	14	0	175	0	122	12:25:24	2792773	4	1	3	3	1	3	3	3	3	8	7	0	0	0	0	9	6
111912	12:25:24	10035	Trial	CongruentRight	14	203	186	0	122	12:25:24	2792986	4	1	3	3	1	3	3	3	3	8	7	0	0	0	0	9	6
111912	12:25:24	10035	Trial	ResponseCR	14	0	175	0	122	12:25:24	2794479	4	1	3	3	1	3	3	3	3	8	7	0	0	0	0	9	6
111912	12:25:24	10035	Trial	CongruentRight	14	205	193	1	122	12:25:24	2794692	4	1	3	3	1	3	3	3	3	8	7	0	0	0	0	9	6
111912	12:25:24	10035	Trial	ResponseIL	14	0	175	0	122	12:25:24	2796185	4	1	3	3	1	3	3	3	3	8	7	0	0	0	0	9	6
111912	12:25:24	10035	Trial	IncongruentLeft	14	203	358	1	122	12:25:24	2796571	4	1	3	3	1	3	3	3	3	8	7	0	0	0	0	9	6
111912	12:25:24	10035	Trial	ResponseCL	14	0	175	0	122	12:25:24	2797891	4	1	3	3	1	3	3	3	3	8	7	0	0	0	0	9	6
111912	12:25:24	10035	Trial	CongruentLeft	14	203	236	1	122	12:25:24	2798144	4	1	3	3	1	3	3	3	3	8	7	0	0	0	0	9	6
111912	12:25:24	10035	Trial	ResponseCR	14	0	175	0	122	12:25:24	2799597	4	1	3	3	1	3	3	3	3	8	7	0	0	0	0	9	6
111912	12:25:24	10035	Trial	CongruentRight	14	205	195	1	122	12:25:24	2799810	4	1	3	3	1	3	3	3	3	8	7	0	0	0	0	9	6
111912	12:25:24	10035	Trial	ResponseCL	14	0	175	0	122	12:25:24	2801303	4	1	3	3	1	3	3	3	3	8	7	0	0	0	0	9	6
111912	12:25:24	10035	Trial	CongruentLeft	14	203	201	1	122	12:25:24	2801529	4	1	3	3	1	3	3	3	3	8	7	0	0	0	0	9	6
111912	12:25:24	10035	Trial	ResponseIR	14	0	175	0	122	12:25:24	2803009	4	1	3	3	1	3	3	3	3	8	7	0	0	0	0	9	6
111912	12:25:24	10035	Trial	IncongruentRight	14	205	366	1	122	12:25:24	2803395	4	1	3	3	1	3	3	3	3	8	7	0	0	0	0	9	6
111912	12:25:24	10035	Trial	ResponseCR	14	0	175	0	122	12:25:24	2804715	4	1	3	3	1	3	3	3	3	8	7	0	0	0	0	9	6
111912	12:25:24	10035	Trial	CongruentRight	14	205	420	1	122	12:25:24	2805155	4	1	3	3	1	3	3	3	3	8	7	0	0	0	0	9	6
111912	12:25:24	10035	Trial	ResponseCL	14	0	175	0	122	12:25:24	2806421	4	1	3	3	1	3	3	3	3	8	7	0	0	0	0	9	6
111912	12:25:24	10035	Trial	CongruentLeft	14	203	412	1	122	12:25:24	2806861	4	1	3	3	1	3	3	3	3	8	7	0	0	0	0	9	6
111912	12:25:24	10035	Trial	ResponseIL	14	0	175	0	122	12:25:24	2808127	4	1	3	3	1	3	3	3	3	8	7	0	0	0	0	9	6
111912	12:25:24	10035	Trial	IncongruentLeft	14	203	225	1	122	12:25:24	2808380	4	1	3	3	1	3	3	3	3	8	7	0	0	0	0	9	6
111912	12:25:24	10035	Trial	ResponseIL	14	0	175	0	122	12:25:24	2809833	4	1	3	3	1	3	3	3	3	8	7	0	0	0	0	9	6
111912	12:25:24	10035	Trial	IncongruentLeft	14	203	414	1	122	12:25:24	2810274	4	1	3	3	1	3	3	3	3	8	7	0	0	0	0	9	6
111912	12:25:24	10035	Trial	ResponseCR	14	0	175	0	122	12:25:24	2811539	4	1	3	3	1	3	3	3	3	8	7	0	0	0	0	9	6
111912	12:25:24	10035	Trial	CongruentRight	14	205	252	1	122	12:25:24	2811819	4	1	3	3	1	3	3	3	3	8	7	0	0	0	0	9	6
111912	12:25:24	10035	Trial	ResponseIR	14	0	175	0	122	12:25:24	2813245	4	1	3	3	1	3	3	3	3	8	7	0	0	0	0	9	6
111912	12:25:24	10035	Trial	IncongruentRight	14	205	353	1	122	12:25:24	2813618	4	1	3	3	1	3	3	3	3	8	7	0	0	0	0	9	6
111912	12:25:24	10035	Trial	ResponseCL	14	0	175	0	122	12:25:24	2814951	4	1	3	3	1	3	3	3	3	8	7	0	0	0	0	9	6
111912	12:25:24	10035	Trial	CongruentLeft	14	203	232	1	122	12:25:24	2815204	4	1	3	3	1	3	3	3	3	8	7	0	0	0	0	9	6
111912	12:25:24	10035	Trial	ResponseIR	14	0	175	0	122	12:25:24	2816657	4	1	3	3	1	3	3	3	3	8	7	0	0	0	0	9	6
111912	12:25:24	10035	Trial	IncongruentRight	14	205	417	1	122	12:25:24	2817103	4	1	3	3	1	3	3	3	3	8	7	0	0	0	0	9	6
111912	12:25:24	10035	Trial	ResponseCR	14	0	175	0	122	12:25:24	2818363	4	1	3	3	1	3	3	3	3	8	7	0	0	0	0	9	6
111912	12:25:24	10035	Trial	CongruentRight	14	205	228	1	122	12:25:24	2818616	4	1	3	3	1	3	3	3	3	8	7	0	0	0	0	9	6
111912	12:25:24	10035	Trial	ResponseIL	14	0	175	0	122	12:25:24	2820069	4	1	3	3	1	3	3	3	3	8	7	0	0	0	0	9	6
111912	12:25:24	10035	Trial	IncongruentLeft	14	203	299	1	122	12:25:24	2820388	4	1	3	3	1	3	3	3	3	8	7	0	0	0	0	9	6
111912	12:25:24	10035	Trial	ResponseCL	14	0	175	0	122	12:25:24	2821775	4	1	3	3	1	3	3	3	3	8	7	0	0	0	0	9	6
111912	12:25:24	10035	Trial	CongruentLeft	14	203	208	1	122	12:25:24	2822001	4	1	3	3	1	3	3	3	3	8	7	0	0	0	0	9	6
111912	12:25:24	10035	Trial	ResponseCR	14	0	175	0	122	12:25:24	2823481	4	1	3	3	1	3	3	3	3	8	7	0	0	0	0	9	6
111912	12:25:24	10035	Trial	CongruentRight	14	205	294	1	122	12:25:24	2823801	4	1	3	3	1	3	3	3	3	8	7	0	0	0	0	9	6
111912	12:25:24	10035	Trial	ResponseIL	14	0	175	0	122	12:25:24	2825200	4	1	3	3	1	3	3	3	3	8	7	0	0	0	0	9	6
111912	12:25:24	10035	Trial	IncongruentLeft	14	203	271	1	122	12:25:24	2825493	4	1	3	3	1	3	3	3	3	8	7	0	0	0	0	9	6
111912	12:25:24	10035	Trial	ResponseCR	14	0	175	0	122	12:25:24	2826907	4	1	3	3	1	3	3	3	3	8	7	0	0	0	0	9	6
111912	12:25:24	10035	Trial	CongruentRight	14	205	260	1	122	12:25:24	2827186	4	1	3	3	1	3	3	3	3	8	7	0	0	0	0	9	6
111912	12:25:24	10035	Trial	ResponseCR	14	0	175	0	122	12:25:24	2828612	4	1	3	3	1	3	3	3	3	8	7	0	0	0	0	9	6
111912	12:25:24	10035	Trial	CongruentRight	14	205	203	1	122	12:25:24	2828839	4	1	3	3	1	3	3	3	3	8	7	0	0	0	0	9	6
111912	12:25:24	10035	Trial	ResponseIR	14	0	175	0	122	12:25:24	2830318	4	1	3	3	1	3	3	3	3	8	7	0	0	0	0	9	6
111912	12:25:24	10035	Trial	IncongruentRight	14	205	353	1	122	12:25:24	2830691	4	1	3	3	1	3	3	3	3	8	7	0	0	0	0	9	6
111912	12:25:24	10035	Trial	ResponseCL	14	0	175	0	122	12:25:24	2832024	4	1	3	3	1	3	3	3	3	8	7	0	0	0	0	9	6
111912	12:25:24	10035	Trial	CongruentLeft	14	203	229	1	122	12:25:24	2832277	4	1	3	3	1	3	3	3	3	8	7	0	0	0	0	9	6
111912	12:25:24	10035	Trial	ResponseIL	14	0	175	0	122	12:25:24	2833730	4	1	3	3	1	3	3	3	3	8	7	0	0	0	0	9	6
111912	12:25:24	10035	Trial	IncongruentLeft	14	203	205	1	122	12:25:24	2833956	4	1	3	3	1	3	3	3	3	8	7	0	0	0	0	9	6
111912	12:25:24	10035	Trial	ResponseCL	14	0	175	0	122	12:25:24	2835436	4	1	3	3	1	3	3	3	3	8	7	0	0	0	0	9	6
111912	12:25:24	10035	Trial	CongruentLeft	14	203	163	1	122	12:25:24	2835623	4	1	3	3	1	3	3	3	3	8	7	0	0	0	0	9	6
111912	12:25:24	10035	Trial	ResponseIR	14	0	175	0	122	12:25:24	2837142	4	1	3	3	1	3	3	3	3	8	7	0	0	0	0	9	6
111912	12:25:24	10035	Trial	IncongruentRight	14	205	393	1	122	12:25:24	2837563	4	1	3	3	1	3	3	3	3	8	7	0	0	0	0	9	6
111912	12:25:24	10035	Trial	ResponseIL	14	0	175	0	122	12:25:24	2838848	4	1	3	3	1	3	3	3	3	8	7	0	0	0	0	9	6
111912	12:25:24	10035	Trial	IncongruentLeft	14	203	351	1	122	12:25:24	2839221	4	1	3	3	1	3	3	3	3	8	7	0	0	0	0	9	6
111912	12:25:24	10035	Trial	ResponseCR	14	0	175	0	122	12:25:24	2840554	4	1	3	3	1	3	3	3	3	8	7	0	0	0	0	9	6
111912	12:25:24	10035	Trial	CongruentRight	14	205	227	1	122	12:25:24	2840807	4	1	3	3	1	3	3	3	3	8	7	0	0	0	0	9	6
111912	12:25:24	10035	Trial	ResponseCL	14	0	175	0	122	12:25:24	2842260	4	1	3	3	1	3	3	3	3	8	7	0	0	0	0	9	6
111912	12:25:24	10035	Trial	CongruentLeft	14	203	219	1	122	12:25:24	2842500	4	1	3	3	1	3	3	3	3	8	7	0	0	0	0	9	6
111912	12:25:24	10035	Trial	ResponseIL	14	0	175	0	122	12:25:24	2843966	4	1	3	3	1	3	3	3	3	8	7	0	0	0	0	9	6
111912	12:25:24	10035	Trial	IncongruentLeft	14	203	353	1	122	12:25:24	2844339	4	1	3	3	1	3	3	3	3	8	7	0	0	0	0	9	6
111912	12:25:24	10035	Trial	ResponseCL	14	0	175	0	122	12:25:24	2845672	4	1	3	3	1	3	3	3	3	8	7	0	0	0	0	9	6
111912	12:25:24	10035	Trial	CongruentLeft	14	203	312	1	122	12:25:24	2846005	4	1	3	3	1	3	3	3	3	8	7	0	0	0	0	9	6
111912	12:25:24	10035	Trial	ResponseIR	14	0	175	0	122	12:25:24	2847378	4	1	3	3	1	3	3	3	3	8	7	0	0	0	0	9	6
111912	12:25:24	10035	Trial	IncongruentRight	14	205	419	1	122	12:25:24	2847821	4	1	3	3	1	3	3	3	3	8	7	0	0	0	0	9	6
111912	12:25:24	10035	Trial	ResponseCR	14	0	175	0	122	12:25:24	2849084	4	1	3	3	1	3	3	3	3	8	7	0	0	0	0	9	6
111912	12:25:24	10035	Trial	CongruentRight	14	205	291	1	122	12:25:24	2849404	4	1	3	3	1	3	3	3	3	8	7	0	0	0	0	9	6
111912	12:25:24	10035	Trial	ResponseIL	14	0	175	0	122	12:25:24	2850790	4	1	3	3	1	3	3	3	3	8	7	0	0	0	0	9	6
111912	12:25:24	10035	Trial	IncongruentLeft	14	203	313	1	122	12:25:24	2851123	4	1	3	3	1	3	3	3	3	8	7	0	0	0	0	9	6
111912	12:25:24	10035	Trial	ResponseCL	14	0	175	0	122	12:25:24	2852496	4	1	3	3	1	3	3	3	3	8	7	0	0	0	0	9	6
111912	12:25:24	10035	Trial	CongruentLeft	14	203	207	1	122	12:25:24	2852722	4	1	3	3	1	3	3	3	3	8	7	0	0	0	0	9	6
111912	12:25:24	10035	Trial	ResponseIR	14	0	175	0	122	12:25:24	2854202	4	1	3	3	1	3	3	3	3	8	7	0	0	0	0	9	6
111912	12:25:24	10035	Trial	IncongruentRight	14	205	420	1	122	12:25:24	2854646	4	1	3	3	1	3	3	3	3	8	7	0	0	0	0	9	6
111912	12:25:24	10035	Trial	ResponseIL	14	0	175	0	122	12:25:24	2855908	4	1	3	3	1	3	3	3	3	8	7	0	0	0	0	9	6
111912	12:25:24	10035	Trial	IncongruentLeft	14	203	283	1	122	12:25:24	2856214	4	1	3	3	1	3	3	3	3	8	7	0	0	0	0	9	6
111912	12:25:24	10035	Trial	ResponseCL	14	0	175	0	122	12:25:24	2857614	4	1	3	3	1	3	3	3	3	8	7	0	0	0	0	9	6
111912	12:25:24	10035	Trial	CongruentLeft	14	203	208	1	122	12:25:24	2857840	4	1	3	3	1	3	3	3	3	8	7	0	0	0	0	9	6
111912	12:25:24	10035	Trial	ResponseIL	14	0	175	0	122	12:25:24	2859320	4	1	3	3	1	3	3	3	3	8	7	0	0	0	0	9	6
111912	12:25:24	10035	Trial	IncongruentLeft	14	203	327	1	122	12:25:24	2859666	4	1	3	3	1	3	3	3	3	8	7	0	0	0	0	9	6
111912	12:25:24	10035	Trial	ResponseCR	14	0	175	0	122	12:25:24	2861026	4	1	3	3	1	3	3	3	3	8	7	0	0	0	0	9	6
111912	12:25:24	10035	Trial	CongruentRight	14	205	220	1	122	12:25:24	2861266	4	1	3	3	1	3	3	3	3	8	7	0	0	0	0	9	6
111912	12:25:24	10035	Trial	ResponseCL	14	0	175	0	122	12:25:24	2862732	4	1	3	3	1	3	3	3	3	8	7	0	0	0	0	9	6
111912	12:25:24	10035	Trial	CongruentLeft	14	203	179	1	122	12:25:24	2862932	4	1	3	3	1	3	3	3	3	8	7	0	0	0	0	9	6
111912	12:25:24	10035	Trial	ResponseIR	14	0	175	0	122	12:25:24	2864438	4	1	3	3	1	3	3	3	3	8	7	0	0	0	0	9	6
111912	12:25:24	10035	Trial	IncongruentRight	14	205	316	1	122	12:25:24	2864784	4	1	3	3	1	3	3	3	3	8	7	0	0	0	0	9	6
111912	12:25:24	10035	Trial	ResponseCL	14	0	175	0	122	12:25:24	2866144	4	1	3	3	1	3	3	3	3	8	7	0	0	0	0	9	6
111912	12:25:24	10035	Trial	CongruentLeft	14	203	382	1	122	12:25:24	2866544	4	1	3	3	1	3	3	3	3	8	7	0	0	0	0	9	6
111912	12:25:24	10035	Trial	ResponseCR	14	0	175	0	122	12:25:24	2867850	4	1	3	3	1	3	3	3	3	8	7	0	0	0	0	9	6
111912	12:25:24	10035	Trial	CongruentRight	14	205	173	1	122	12:25:24	2868049	4	1	3	3	1	3	3	3	3	8	7	0	0	0	0	9	6
111912	12:25:24	10035	Trial	ResponseIL	14	0	175	0	122	12:25:24	2869556	4	1	3	3	1	3	3	3	3	8	7	0	0	0	0	9	6
111912	12:25:24	10035	Trial	IncongruentLeft	14	203	155	1	122	12:25:24	2869729	4	1	3	3	1	3	3	3	3	8	7	0	0	0	0	9	6
111912	12:25:24	10035	WordsAbsEngThreemo	PAbsEngThreemo1	16	Abs1	12673	0	122	12:25:24	2894519	4	1	3	3	1	3	3	3	3	8	7	0	0	0	0	9	6
111912	12:25:24	10035	WordsAbsEngThreemo	AbsEngThreemo1	16	Abs1	3423	0	122	12:25:24	2897985	4	1	3	3	1	3	3	3	3	8	7	1	0	0	0	9	6
111912	12:25:24	10035	WordsAbsEngThreemo	AbsEngThreemo2	16	Abs1	9829	0	122	12:25:24	2907847	4	1	3	3	1	3	3	3	3	8	7	2	0	0	0	9	6
111912	12:25:24	10035	WordsAbsEngThreemo	AbsEngThreemo3	16	Abs1	13808	0	122	12:25:24	2921695	4	1	3	3	1	3	3	3	3	8	7	3	0	0	0	9	6
111912	12:25:24	10035	Trial2BackEngS	NS	17	0	1000	1	122	12:25:24	2965038	4	1	3	3	1	3	3	3	3	8	7	3	0	0	0	9	6
111912	12:25:24	10035	Trial2BackEngS	NS	17	0	1000	1	122	12:25:24	2966544	4	1	3	3	1	3	3	3	3	8	7	3	0	0	0	9	6
111912	12:25:24	10035	Trial2BackEngS	NS	17	0	1000	1	122	12:25:24	2968050	4	1	3	3	1	3	3	3	3	8	7	3	0	0	0	9	6
111912	12:25:24	10035	Trial2BackEngS	YS	17	57	382	1	122	12:25:24	2968943	4	1	3	3	1	3	3	3	3	8	7	3	0	0	0	9	6
111912	12:25:24	10035	Trial2BackEngS	NS	17	0	1000	1	122	12:25:24	2971062	4	1	3	3	1	3	3	3	3	8	7	3	0	0	0	9	6
111912	12:25:24	10035	Trial2BackEngS	NS	17	0	1000	1	122	12:25:24	2972568	4	1	3	3	1	3	3	3	3	8	7	3	0	0	0	9	6
111912	12:25:24	10035	Trial2BackEngS	NS	17	0	1000	1	122	12:25:24	2974075	4	1	3	3	1	3	3	3	3	8	7	3	0	0	0	9	6
111912	12:25:24	10035	Trial2BackEngS	NS	17	0	1000	1	122	12:25:24	2975581	4	1	3	3	1	3	3	3	3	8	7	3	0	0	0	9	6
111912	12:25:24	10035	Trial2BackEngS	YS	17	57	692	1	122	12:25:24	2976793	4	1	3	3	1	3	3	3	3	8	7	3	0	0	0	9	6
111912	12:25:24	10035	Trial2BackEngS	NS	17	0	1000	1	122	12:25:24	2978593	4	1	3	3	1	3	3	3	3	8	7	3	0	0	0	9	6
111912	12:25:24	10035	Trial2BackEngS	NS	17	0	1000	1	122	12:25:24	2980099	4	1	3	3	1	3	3	3	3	8	7	3	0	0	0	9	6
111912	12:25:24	10035	Trial2BackEngS	YS	17	0	1000	0	122	12:25:24	2981618	4	1	3	3	1	3	3	3	3	8	7	3	0	0	0	9	6
111912	12:25:24	10035	Trial2BackEngS	NS	17	0	1000	1	122	12:25:24	2983124	4	1	3	3	1	3	3	3	3	8	7	3	0	0	0	9	6
111912	12:25:24	10035	Trial2BackEngS	NS	17	0	1000	1	122	12:25:24	2984630	4	1	3	3	1	3	3	3	3	8	7	3	0	0	0	9	6
111912	12:25:24	10035	Trial2BackEngS	NS	17	0	1000	1	122	12:25:24	2986136	4	1	3	3	1	3	3	3	3	8	7	3	0	0	0	9	6
111912	12:25:24	10035	Trial2BackEngS	YS	17	57	420	1	122	12:25:24	2987083	4	1	3	3	1	3	3	3	3	8	7	3	0	0	0	9	6
111912	12:25:24	10035	Trial2BackEngS	NS	17	0	1000	1	122	12:25:24	2989149	4	1	3	3	1	3	3	3	3	8	7	3	0	0	0	9	6
111912	12:25:24	10035	Trial2BackEngS	NS	17	0	1000	1	122	12:25:24	2990655	4	1	3	3	1	3	3	3	3	8	7	3	0	0	0	9	6
111912	12:25:24	10035	Trial2BackEngS	NS	17	0	1000	1	122	12:25:24	2992161	4	1	3	3	1	3	3	3	3	8	7	3	0	0	0	9	6
111912	12:25:24	10035	Trial2BackEngS	NS	17	0	1000	1	122	12:25:24	2993667	4	1	3	3	1	3	3	3	3	8	7	3	0	0	0	9	6
111912	12:25:24	10035	Trial2BackEngS	YS	17	57	524	1	122	12:25:24	2994706	4	1	3	3	1	3	3	3	3	8	7	3	0	0	0	9	6
111912	12:25:24	10035	Trial2BackEngS	NS	17	0	1000	1	122	12:25:24	2996679	4	1	3	3	1	3	3	3	3	8	7	3	0	0	0	9	6
111912	12:25:24	10035	Trial2BackEngS	NS	17	0	1000	1	122	12:25:24	2998185	4	1	3	3	1	3	3	3	3	8	7	3	0	0	0	9	6
111912	12:25:24	10035	Trial2BackEngS	NS	17	0	1000	1	122	12:25:24	2999705	4	1	3	3	1	3	3	3	3	8	7	3	0	0	0	9	6
111912	12:25:24	10035	Trial2BackEngS	NS	17	57	615	0	122	12:25:24	3000837	4	1	3	3	1	3	3	3	3	8	7	3	0	0	0	9	6
111912	12:25:24	10035	Trial2BackEngS	NS	17	0	1000	1	122	12:25:24	3002717	4	1	3	3	1	3	3	3	3	8	7	3	0	0	0	9	6
111912	12:25:24	10035	Trial2BackEngS	NS	17	0	1000	1	122	12:25:24	3004223	4	1	3	3	1	3	3	3	3	8	7	3	0	0	0	9	6
111912	12:25:24	10035	Trial2BackEngS	NS	17	0	1000	1	122	12:25:24	3005729	4	1	3	3	1	3	3	3	3	8	7	3	0	0	0	9	6
111912	12:25:24	10035	Trial2BackEngS	NS	17	0	1000	1	122	12:25:24	3007235	4	1	3	3	1	3	3	3	3	8	7	3	0	0	0	9	6
111912	12:25:24	10035	Trial2BackEngS	NS	17	0	1000	1	122	12:25:24	3008741	4	1	3	3	1	3	3	3	3	8	7	3	0	0	0	9	6
111912	12:25:24	10035	Trial2BackEngS	NS	17	0	1000	1	122	12:25:24	3010260	4	1	3	3	1	3	3	3	3	8	7	3	0	0	0	9	6
111912	12:25:24	10035	Trial2BackEngS	YS	17	57	587	1	122	12:25:24	3011367	4	1	3	3	1	3	3	3	3	8	7	3	0	0	0	9	6
111912	12:25:24	10035	Trial2BackEngS	NS	17	0	1000	1	122	12:25:24	3013272	4	1	3	3	1	3	3	3	3	8	7	3	0	0	0	9	6
111912	12:25:24	10035	Trial2BackEngS	NS	17	0	1000	1	122	12:25:24	3014792	4	1	3	3	1	3	3	3	3	8	7	3	0	0	0	9	6
111912	12:25:24	10035	Trial2BackEngS	NS	17	0	1000	1	122	12:25:24	3016298	4	1	3	3	1	3	3	3	3	8	7	3	0	0	0	9	6
111912	12:25:24	10035	Trial2BackEngS	YS	17	57	613	1	122	12:25:24	3017431	4	1	3	3	1	3	3	3	3	8	7	3	0	0	0	9	6
111912	12:25:24	10035	Trial2BackEngS	NS	17	0	1000	1	122	12:25:24	3019310	4	1	3	3	1	3	3	3	3	8	7	3	0	0	0	9	6
111912	12:25:24	10035	Trial2BackEngS	NS	17	0	1000	1	122	12:25:24	3020816	4	1	3	3	1	3	3	3	3	8	7	3	0	0	0	9	6
111912	12:25:24	10035	Trial2BackEngS	NS	17	0	1000	1	122	12:25:24	3022322	4	1	3	3	1	3	3	3	3	8	7	3	0	0	0	9	6
111912	12:25:24	10035	Trial2BackEngS	NS	17	0	1000	1	122	12:25:24	3023828	4	1	3	3	1	3	3	3	3	8	7	3	0	0	0	9	6
111912	12:25:24	10035	Trial2BackEngS	NS	17	0	1000	1	122	12:25:24	3025334	4	1	3	3	1	3	3	3	3	8	7	3	0	0	0	9	6
111912	12:25:24	10035	Trial2BackEngS	NS	17	0	1000	1	122	12:25:24	3026840	4	1	3	3	1	3	3	3	3	8	7	3	0	0	0	9	6
111912	12:25:24	10035	Trial2BackEngS	NS	17	0	1000	1	122	12:25:24	3028360	4	1	3	3	1	3	3	3	3	8	7	3	0	0	0	9	6
111912	12:25:24	10035	Trial2BackEngS	YS	17	57	634	1	122	12:25:24	3029506	4	1	3	3	1	3	3	3	3	8	7	3	0	0	0	9	6
111912	12:25:24	10035	Trial2BackEngS	NS	17	0	1000	1	122	12:25:24	3031372	4	1	3	3	1	3	3	3	3	8	7	3	0	0	0	9	6
111912	12:25:24	10035	Trial2BackEngS	NS	17	0	1000	1	122	12:25:24	3032891	4	1	3	3	1	3	3	3	3	8	7	3	0	0	0	9	6
111912	12:25:24	10035	Trial2BackEngS	NS	17	0	1000	1	122	12:25:24	3034411	4	1	3	3	1	3	3	3	3	8	7	3	0	0	0	9	6
111912	12:25:24	10035	Trial2BackEngS	NS	17	0	1000	1	122	12:25:24	3035917	4	1	3	3	1	3	3	3	3	8	7	3	0	0	0	9	6
111912	12:25:24	10035	Trial2BackEngS	YS	17	57	692	1	122	12:25:24	3037130	4	1	3	3	1	3	3	3	3	8	7	3	0	0	0	9	6
111912	12:25:24	10035	Trial2BackEngS	NS	17	0	1000	1	122	12:25:24	3038929	4	1	3	3	1	3	3	3	3	8	7	3	0	0	0	9	6
111912	12:25:24	10035	Trial2BackEngS	NS	17	0	1000	1	122	12:25:24	3040448	4	1	3	3	1	3	3	3	3	8	7	3	0	0	0	9	6
111912	12:25:24	10035	Trial2BackEngS	NS	17	0	1000	1	122	12:25:24	3041954	4	1	3	3	1	3	3	3	3	8	7	3	0	0	0	9	6
111912	12:25:24	10035	Trial2BackEngS	NS	17	0	1000	1	122	12:25:24	3043460	4	1	3	3	1	3	3	3	3	8	7	3	0	0	0	9	6
111912	12:25:24	10035	Trial2BackEngS	NS	17	0	1000	1	122	12:25:24	3044980	4	1	3	3	1	3	3	3	3	8	7	3	0	0	0	9	6
111912	12:25:24	10035	Trial2BackEngS	NS	17	0	1000	1	122	12:25:24	3046499	4	1	3	3	1	3	3	3	3	8	7	3	0	0	0	9	6
111912	12:25:24	10035	Trial2BackEngS	YS	17	57	573	1	122	12:25:24	3047592	4	1	3	3	1	3	3	3	3	8	7	3	0	0	0	9	6
111912	12:25:24	10035	Trial2BackEngS	NS	17	0	1000	1	122	12:25:24	3049511	4	1	3	3	1	3	3	3	3	8	7	3	0	0	0	9	6
111912	12:25:24	10035	Trial2BackEngS	NS	17	0	1000	1	122	12:25:24	3051031	4	1	3	3	1	3	3	3	3	8	7	3	0	0	0	9	6
111912	12:25:24	10035	Trial2BackEngS	NS	17	0	1000	1	122	12:25:24	3052537	4	1	3	3	1	3	3	3	3	8	7	3	0	0	0	9	6
111912	12:25:24	10035	Trial2BackEngS	NS	17	0	1000	1	122	12:25:24	3054043	4	1	3	3	1	3	3	3	3	8	7	3	0	0	0	9	6
111912	12:25:24	10035	Trial2BackEngS	NS	17	0	1000	1	122	12:25:24	3055549	4	1	3	3	1	3	3	3	3	8	7	3	0	0	0	9	6
111912	12:25:24	10035	Trial2BackEngS	NS	17	0	1000	1	122	12:25:24	3057055	4	1	3	3	1	3	3	3	3	8	7	3	0	0	0	9	6
111912	12:25:24	10035	Trial2BackEngS	NS	17	0	1000	1	122	12:25:24	3058561	4	1	3	3	1	3	3	3	3	8	7	3	0	0	0	9	6
111912	12:25:24	10035	Trial2BackEngS	YS	17	57	608	1	122	12:25:24	3059680	4	1	3	3	1	3	3	3	3	8	7	3	0	0	0	9	6
111912	12:25:24	10035	Trial2BackEngS	NS	17	0	1000	1	122	12:25:24	3061573	4	1	3	3	1	3	3	3	3	8	7	3	0	0	0	9	6
111912	12:25:24	10035	Trial2BackEngS	NS	17	0	1000	1	122	12:25:24	3063079	4	1	3	3	1	3	3	3	3	8	7	3	0	0	0	9	6
111912	12:25:24	10035	Trial2BackEngS	NS	17	0	1000	1	122	12:25:24	3064586	4	1	3	3	1	3	3	3	3	8	7	3	0	0	0	9	6
111912	12:25:24	10035	Trial2BackEngS	NS	17	0	1000	1	122	12:25:24	3066091	4	1	3	3	1	3	3	3	3	8	7	3	0	0	0	9	6
111912	12:25:24	10035	Trial2BackEngS	YS	17	0	1000	0	122	12:25:24	3067598	4	1	3	3	1	3	3	3	3	8	7	3	0	0	0	9	6
111912	12:25:24	10035	Trial2BackEngS	NS	17	0	1000	1	122	12:25:24	3069104	4	1	3	3	1	3	3	3	3	8	7	3	0	0	0	9	6
111912	12:25:24	10035	Trial2BackEngS	NS	17	0	1000	1	122	12:25:24	3070610	4	1	3	3	1	3	3	3	3	8	7	3	0	0	0	9	6
111912	12:25:24	10035	Trial2BackEngS	YS	17	0	1000	0	122	12:25:24	3072116	4	1	3	3	1	3	3	3	3	8	7	3	0	0	0	9	6
111912	12:25:24	10035	Trial2BackEngS	NS	17	0	1000	1	122	12:25:24	3073622	4	1	3	3	1	3	3	3	3	8	7	3	0	0	0	9	6
111912	12:25:24	10035	Trial2BackEngS	NS	17	0	1000	1	122	12:25:24	3075128	4	1	3	3	1	3	3	3	3	8	7	3	0	0	0	9	6
111912	12:25:24	10035	Trial2BackEngS	NS	17	0	1000	1	122	12:25:24	3076634	4	1	3	3	1	3	3	3	3	8	7	3	0	0	0	9	6
111912	12:25:24	10035	Trial2BackEngS	NS	17	0	1000	1	122	12:25:24	3078153	4	1	3	3	1	3	3	3	3	8	7	3	0	0	0	9	6
111912	12:25:24	10035	Trial2BackEngS	NS	17	0	1000	1	122	12:25:24	3079660	4	1	3	3	1	3	3	3	3	8	7	3	0	0	0	9	6
111912	12:25:24	10035	Trial2BackEngS	NS	17	0	1000	1	122	12:25:24	3081166	4	1	3	3	1	3	3	3	3	8	7	3	0	0	0	9	6
111912	12:25:24	10035	Trial2BackEngS	YS	17	57	659	1	122	12:25:24	3082338	4	1	3	3	1	3	3	3	3	8	7	3	0	0	0	9	6
111912	12:25:24	10035	Trial2BackEngS	NS	17	0	1000	1	122	12:25:24	3084178	4	1	3	3	1	3	3	3	3	8	7	3	0	0	0	9	6
111912	12:25:24	10035	Trial2BackEngS	NS	17	0	1000	1	122	12:25:24	3085697	4	1	3	3	1	3	3	3	3	8	7	3	0	0	0	9	6
111912	12:25:24	10035	Trial2BackEngS	NS	17	0	1000	1	122	12:25:24	3087203	4	1	3	3	1	3	3	3	3	8	7	3	0	0	0	9	6
111912	12:25:24	10035	Trial2BackEngS	NS	17	0	1000	1	122	12:25:24	3088709	4	1	3	3	1	3	3	3	3	8	7	3	0	0	0	9	6
111912	12:25:24	10035	Trial2BackEngS	YS	17	57	779	1	122	12:25:24	3090002	4	1	3	3	1	3	3	3	3	8	7	3	0	0	0	9	6
111912	12:25:24	10035	Trial2BackEngS	NS	17	0	1000	1	122	12:25:24	3091721	4	1	3	3	1	3	3	3	3	8	7	3	0	0	0	9	6
111912	12:25:24	10035	Trial2BackEngS	NS	17	0	1000	1	122	12:25:24	3093227	4	1	3	3	1	3	3	3	3	8	7	3	0	0	0	9	6
111912	12:25:24	10035	Trial2BackEngS	NS	17	0	1000	1	122	12:25:24	3094734	4	1	3	3	1	3	3	3	3	8	7	3	0	0	0	9	6
111912	12:25:24	10035	Trial2BackEngS	NS	17	0	1000	1	122	12:25:24	3096240	4	1	3	3	1	3	3	3	3	8	7	3	0	0	0	9	6
111912	12:25:24	10035	Trial2BackEngS	YS	17	0	1000	0	122	12:25:24	3097746	4	1	3	3	1	3	3	3	3	8	7	3	0	0	0	9	6
111912	12:25:24	10035	Trial2BackEngS	NS	17	0	1000	1	122	12:25:24	3099265	4	1	3	3	1	3	3	3	3	8	7	3	0	0	0	9	6
111912	12:25:24	10035	Trial2BackEngS	NS	17	0	1000	1	122	12:25:24	3100771	4	1	3	3	1	3	3	3	3	8	7	3	0	0	0	9	6
111912	12:25:24	10035	Trial2BackEngS	YS	17	57	700	1	122	12:25:24	3101984	4	1	3	3	1	3	3	3	3	8	7	3	0	0	0	9	6
111912	12:25:24	10035	Trial2BackEngS	NS	17	0	1000	1	122	12:25:24	3103783	4	1	3	3	1	3	3	3	3	8	7	3	0	0	0	9	6
111912	12:25:24	10035	Trial2BackEngS	NS	17	0	1000	1	122	12:25:24	3105289	4	1	3	3	1	3	3	3	3	8	7	3	0	0	0	9	6
111912	12:25:24	10035	Trial2BackEngS	NS	17	0	1000	1	122	12:25:24	3106795	4	1	3	3	1	3	3	3	3	8	7	3	0	0	0	9	6
111912	12:25:24	10035	Trial2BackEngS	NS	17	0	1000	1	122	12:25:24	3108315	4	1	3	3	1	3	3	3	3	8	7	3	0	0	0	9	6
111912	12:25:24	10035	Trial2BackEngS	NS	17	0	1000	1	122	12:25:24	3109834	4	1	3	3	1	3	3	3	3	8	7	3	0	0	0	9	6
111912	12:25:24	10035	Trial2BackEngS	NS	17	0	1000	1	122	12:25:24	3111341	4	1	3	3	1	3	3	3	3	8	7	3	0	0	0	9	6
111912	12:25:24	10035	Trial2BackEngS	NS	17	0	1000	1	122	12:25:24	3112846	4	1	3	3	1	3	3	3	3	8	7	3	0	0	0	9	6
111912	12:25:24	10035	Trial2BackEngS	NS	17	0	1000	1	122	12:25:24	3114352	4	1	3	3	1	3	3	3	3	8	7	3	0	0	0	9	6
111912	12:25:24	10035	Trial2BackEngS	YS	17	57	720	1	122	12:25:24	3115592	4	1	3	3	1	3	3	3	3	8	7	3	0	0	0	9	6
111912	12:25:24	10035	Trial2BackEngS	NS	17	0	1000	1	122	12:25:24	3117365	4	1	3	3	1	3	3	3	3	8	7	3	0	0	0	9	6
111912	12:25:24	10035	Trial2BackEngS	NS	17	0	1000	1	122	12:25:24	3118871	4	1	3	3	1	3	3	3	3	8	7	3	0	0	0	9	6
111912	12:25:24	10035	Trial2BackEngS	NS	17	0	1000	1	122	12:25:24	3120377	4	1	3	3	1	3	3	3	3	8	7	3	0	0	0	9	6
111912	12:25:24	10035	Trial2BackEngS	NS	17	0	1000	1	122	12:25:24	3121883	4	1	3	3	1	3	3	3	3	8	7	3	0	0	0	9	6
111912	12:25:24	10035	Trial2BackEngS	NS	17	0	1000	1	122	12:25:24	3123389	4	1	3	3	1	3	3	3	3	8	7	3	0	0	0	9	6
111912	12:25:24	10035	Trial2BackEngS	NS	17	0	1000	1	122	12:25:24	3124895	4	1	3	3	1	3	3	3	3	8	7	3	0	0	0	9	6
111912	12:25:24	10035	Trial2BackEngS	NS	17	0	1000	1	122	12:25:24	3126401	4	1	3	3	1	3	3	3	3	8	7	3	0	0	0	9	6
111912	12:25:24	10035	Trial2BackEngS	YS	17	0	1000	0	122	12:25:24	3127907	4	1	3	3	1	3	3	3	3	8	7	3	0	0	0	9	6
111912	12:25:24	10035	Trial2BackEngS	NS	17	0	1000	1	122	12:25:24	3129413	4	1	3	3	1	3	3	3	3	8	7	3	0	0	0	9	6
111912	12:25:24	10035	Trial2BackEngS	NS	17	0	1000	1	122	12:25:24	3130919	4	1	3	3	1	3	3	3	3	8	7	3	0	0	0	9	6
111912	12:25:24	10035	Trial2BackEngS	NS	17	0	1000	1	122	12:25:24	3132439	4	1	3	3	1	3	3	3	3	8	7	3	0	0	0	9	6
111912	12:25:24	10035	Trial2BackEngS	NS	17	0	1000	1	122	12:25:24	3133945	4	1	3	3	1	3	3	3	3	8	7	3	0	0	0	9	6
111912	12:25:24	10035	Trial2BackEngS	NS	17	0	1000	1	122	12:25:24	3135451	4	1	3	3	1	3	3	3	3	8	7	3	0	0	0	9	6
111912	12:25:24	10035	Trial2BackEngS	NS	17	0	1000	1	122	12:25:24	3136957	4	1	3	3	1	3	3	3	3	8	7	3	0	0	0	9	6
111912	12:25:24	10035	Trial2BackEngS	NS	17	0	1000	1	122	12:25:24	3138463	4	1	3	3	1	3	3	3	3	8	7	3	0	0	0	9	6
111912	12:25:24	10035	Trial2BackEngS	NS	17	0	1000	1	122	12:25:24	3139969	4	1	3	3	1	3	3	3	3	8	7	3	0	0	0	9	6
111912	12:25:24	10035	Trial2BackEngS	NS	17	0	1000	1	122	12:25:24	3141489	4	1	3	3	1	3	3	3	3	8	7	3	0	0	0	9	6
111912	12:25:24	10035	Trial2BackEngS	YS	17	0	1000	0	122	12:25:24	3142995	4	1	3	3	1	3	3	3	3	8	7	3	0	0	0	9	6
111912	12:25:24	10035	Trial2BackEngS	NS	17	0	1000	1	122	12:25:24	3144500	4	1	3	3	1	3	3	3	3	8	7	3	0	0	0	9	6
111912	12:25:24	10035	ClockEng3mo	ClockEng3mo	19	Clock1	31630	0	122	12:25:24	3176262	4	1	3	3	1	3	3	3	3	8	7	3	1	0	0	9	6
111912	12:25:24	10035	ClockEng3mo	ClockEng3mo	19	Clock11	720	0	122	12:25:24	3177052	4	1	3	3	1	3	3	3	3	8	7	3	1	1	0	9	6
111912	12:25:24	10035	ClockEng3mo	ClockEng3mo	19	Clock111	9521	0	122	12:25:24	3186644	4	1	3	3	1	3	3	3	3	8	7	3	1	1	1	9	6
111912	12:25:24	10035	ClockEng3mo	ClockEng3mo	19	Clockdone	6401	0	122	12:25:24	3193108	4	1	3	3	1	3	3	3	3	8	7	3	1	1	1	9	6
111912	12:25:24	10035	FASEngVF3mo	StopEngVF3mo	20	14	9908	0	122	12:25:24	3309957	4	1	3	3	1	3	3	3	3	8	7	3	1	1	1	9	6
