date	time	subject	blockcode	trialcode	values.TaskNumber	response	latency	correct	values.Score	script.starttime	script.elapsedtime	values.ScoreS7	values.Word1	values.Word2	values.Word3	values.Word4	values.Word5	values.Word6	values.Word7	values.Word8	values.DigitSpanFwrd	values.DigitSpanBack	values.ScoreAbs	values.Contour	values.Numbers	values.Hands	values.corsiblockspanFwrd	values.corsiblockspanRev
102312	12:37:04	10031	Language	Language	0	English	1412	0	0	12:37:04	1534	0	0	0	0	0	0	0	0	0	0	0	0	0	0	0	0	0
102312	12:37:04	10031	Session	Session	0	3mo	2687	0	0	12:37:04	4280	0	0	0	0	0	0	0	0	0	0	0	0	0	0	0	0	0
102312	12:37:04	10031	HandEng	HandEng	0	Right	571159	0	0	12:37:04	575502	0	0	0	0	0	0	0	0	0	0	0	0	0	0	0	0	0
102312	12:37:04	10031	CubeEng	CubeEng	1	1Cube	55591	0	0	12:37:04	1333008	0	0	0	0	0	0	0	0	0	0	0	0	0	0	0	0	0
102312	12:37:04	10031	pm.simpleEngRight	blank.simpleEng	2	0	2200	1	0	12:37:04	1359277	0	0	0	0	0	0	0	0	0	0	0	0	0	0	0	0	0
102312	12:37:04	10031	pm.simpleEngRight	pm.simpleEng	2	57	424	0	0	12:37:04	1359730	0	0	0	0	0	0	0	0	0	0	0	0	0	0	0	0	0
102312	12:37:04	10031	pm.simpleEngRight	blank.simpleEng	2	0	2300	1	0	12:37:04	1362049	0	0	0	0	0	0	0	0	0	0	0	0	0	0	0	0	0
102312	12:37:04	10031	pm.simpleEngRight	pm.simpleEng	2	57	292	0	0	12:37:04	1362369	0	0	0	0	0	0	0	0	0	0	0	0	0	0	0	0	0
102312	12:37:04	10031	pm.simpleEngRight	blank.simpleEng	2	0	2400	1	0	12:37:04	1364795	0	0	0	0	0	0	0	0	0	0	0	0	0	0	0	0	0
102312	12:37:04	10031	pm.simpleEngRight	pm.simpleEng	2	57	298	0	0	12:37:04	1365115	0	0	0	0	0	0	0	0	0	0	0	0	0	0	0	0	0
102312	12:37:04	10031	pm.simpleEngRight	blank.simpleEng	2	0	2000	1	0	12:37:04	1367127	0	0	0	0	0	0	0	0	0	0	0	0	0	0	0	0	0
102312	12:37:04	10031	pm.simpleEngRight	pm.simpleEng	2	57	238	0	0	12:37:04	1367394	0	0	0	0	0	0	0	0	0	0	0	0	0	0	0	0	0
102312	12:37:04	10031	pm.simpleEngRight	blank.simpleEng	2	0	2100	1	0	12:37:04	1369513	0	0	0	0	0	0	0	0	0	0	0	0	0	0	0	0	0
102312	12:37:04	10031	pm.simpleEngRight	pm.simpleEng	2	57	272	0	0	12:37:04	1369819	0	0	0	0	0	0	0	0	0	0	0	0	0	0	0	0	0
102312	12:37:04	10031	pm.simpleEngRight	blank.simpleEng	2	0	1700	1	0	12:37:04	1371539	0	0	0	0	0	0	0	0	0	0	0	0	0	0	0	0	0
102312	12:37:04	10031	pm.simpleEngRight	pm.simpleEng	2	57	354	0	0	12:37:04	1371912	0	0	0	0	0	0	0	0	0	0	0	0	0	0	0	0	0
102312	12:37:04	10031	pm.simpleEngRight	blank.simpleEng	2	0	1500	1	0	12:37:04	1373431	0	0	0	0	0	0	0	0	0	0	0	0	0	0	0	0	0
102312	12:37:04	10031	pm.simpleEngRight	pm.simpleEng	2	57	270	0	0	12:37:04	1373724	0	0	0	0	0	0	0	0	0	0	0	0	0	0	0	0	0
102312	12:37:04	10031	pm.simpleEngRight	blank.simpleEng	2	0	1900	1	0	12:37:04	1375644	0	0	0	0	0	0	0	0	0	0	0	0	0	0	0	0	0
102312	12:37:04	10031	pm.simpleEngRight	pm.simpleEng	2	57	233	0	0	12:37:04	1375897	0	0	0	0	0	0	0	0	0	0	0	0	0	0	0	0	0
102312	12:37:04	10031	pm.simpleEngRight	blank.simpleEng	2	0	1800	1	0	12:37:04	1377710	0	0	0	0	0	0	0	0	0	0	0	0	0	0	0	0	0
102312	12:37:04	10031	pm.simpleEngRight	pm.simpleEng	2	57	234	0	0	12:37:04	1377976	0	0	0	0	0	0	0	0	0	0	0	0	0	0	0	0	0
102312	12:37:04	10031	pm.simpleEngRight	blank.simpleEng	2	0	2500	1	0	12:37:04	1380495	0	0	0	0	0	0	0	0	0	0	0	0	0	0	0	0	0
102312	12:37:04	10031	pm.simpleEngRight	pm.simpleEng	2	57	262	0	0	12:37:04	1380775	0	0	0	0	0	0	0	0	0	0	0	0	0	0	0	0	0
102312	12:37:04	10031	pm.simpleEngRight	blank.simpleEng	2	0	1600	1	0	12:37:04	1382388	0	0	0	0	0	0	0	0	0	0	0	0	0	0	0	0	0
102312	12:37:04	10031	pm.simpleEngRight	pm.simpleEng	2	57	289	0	0	12:37:04	1382694	0	0	0	0	0	0	0	0	0	0	0	0	0	0	0	0	0
102312	12:37:04	10031	pm.simpleEngRight	blank.simpleEng	2	0	2500	1	0	12:37:04	1385213	0	0	0	0	0	0	0	0	0	0	0	0	0	0	0	0	0
102312	12:37:04	10031	pm.simpleEngRight	pm.simpleEng	2	57	263	0	0	12:37:04	1385493	0	0	0	0	0	0	0	0	0	0	0	0	0	0	0	0	0
102312	12:37:04	10031	pm.simpleEngRight	blank.simpleEng	2	0	1800	1	0	12:37:04	1387306	0	0	0	0	0	0	0	0	0	0	0	0	0	0	0	0	0
102312	12:37:04	10031	pm.simpleEngRight	pm.simpleEng	2	57	283	0	0	12:37:04	1387612	0	0	0	0	0	0	0	0	0	0	0	0	0	0	0	0	0
102312	12:37:04	10031	pm.simpleEngRight	blank.simpleEng	2	0	2000	1	0	12:37:04	1389625	0	0	0	0	0	0	0	0	0	0	0	0	0	0	0	0	0
102312	12:37:04	10031	pm.simpleEngRight	pm.simpleEng	2	57	223	0	0	12:37:04	1389878	0	0	0	0	0	0	0	0	0	0	0	0	0	0	0	0	0
102312	12:37:04	10031	pm.simpleEngRight	blank.simpleEng	2	0	1900	1	0	12:37:04	1391797	0	0	0	0	0	0	0	0	0	0	0	0	0	0	0	0	0
102312	12:37:04	10031	pm.simpleEngRight	pm.simpleEng	2	57	239	0	0	12:37:04	1392064	0	0	0	0	0	0	0	0	0	0	0	0	0	0	0	0	0
102312	12:37:04	10031	pm.simpleEngRight	blank.simpleEng	2	0	1600	1	0	12:37:04	1393676	0	0	0	0	0	0	0	0	0	0	0	0	0	0	0	0	0
102312	12:37:04	10031	pm.simpleEngRight	pm.simpleEng	2	57	232	0	0	12:37:04	1393929	0	0	0	0	0	0	0	0	0	0	0	0	0	0	0	0	0
102312	12:37:04	10031	pm.simpleEngRight	blank.simpleEng	2	0	2400	1	0	12:37:04	1396342	0	0	0	0	0	0	0	0	0	0	0	0	0	0	0	0	0
102312	12:37:04	10031	pm.simpleEngRight	pm.simpleEng	2	57	222	0	0	12:37:04	1396582	0	0	0	0	0	0	0	0	0	0	0	0	0	0	0	0	0
102312	12:37:04	10031	pm.simpleEngRight	blank.simpleEng	2	0	1700	1	0	12:37:04	1398301	0	0	0	0	0	0	0	0	0	0	0	0	0	0	0	0	0
102312	12:37:04	10031	pm.simpleEngRight	pm.simpleEng	2	57	279	0	0	12:37:04	1398608	0	0	0	0	0	0	0	0	0	0	0	0	0	0	0	0	0
102312	12:37:04	10031	pm.simpleEngRight	blank.simpleEng	2	0	2100	1	0	12:37:04	1400727	0	0	0	0	0	0	0	0	0	0	0	0	0	0	0	0	0
102312	12:37:04	10031	pm.simpleEngRight	pm.simpleEng	2	57	241	0	0	12:37:04	1401007	0	0	0	0	0	0	0	0	0	0	0	0	0	0	0	0	0
102312	12:37:04	10031	pm.simpleEngRight	blank.simpleEng	2	0	1500	1	0	12:37:04	1402526	0	0	0	0	0	0	0	0	0	0	0	0	0	0	0	0	0
102312	12:37:04	10031	pm.simpleEngRight	pm.simpleEng	2	57	246	0	0	12:37:04	1402793	0	0	0	0	0	0	0	0	0	0	0	0	0	0	0	0	0
102312	12:37:04	10031	pm.simpleEngRight	blank.simpleEng	2	0	2200	1	0	12:37:04	1405005	0	0	0	0	0	0	0	0	0	0	0	0	0	0	0	0	0
102312	12:37:04	10031	pm.simpleEngRight	pm.simpleEng	2	57	231	0	0	12:37:04	1405258	0	0	0	0	0	0	0	0	0	0	0	0	0	0	0	0	0
102312	12:37:04	10031	pm.simpleEngRight	blank.simpleEng	2	0	2300	1	0	12:37:04	1407577	0	0	0	0	0	0	0	0	0	0	0	0	0	0	0	0	0
102312	12:37:04	10031	pm.simpleEngRight	pm.simpleEng	2	57	219	0	0	12:37:04	1407817	0	0	0	0	0	0	0	0	0	0	0	0	0	0	0	0	0
102312	12:37:04	10031	pm.simpleEngRight	blank.simpleEng	2	0	1800	1	0	12:37:04	1409630	0	0	0	0	0	0	0	0	0	0	0	0	0	0	0	0	0
102312	12:37:04	10031	pm.simpleEngRight	pm.simpleEng	2	57	246	0	0	12:37:04	1409897	0	0	0	0	0	0	0	0	0	0	0	0	0	0	0	0	0
102312	12:37:04	10031	pm.simpleEngRight	blank.simpleEng	2	0	1700	1	0	12:37:04	1411616	0	0	0	0	0	0	0	0	0	0	0	0	0	0	0	0	0
102312	12:37:04	10031	pm.simpleEngRight	pm.simpleEng	2	57	228	0	0	12:37:04	1411869	0	0	0	0	0	0	0	0	0	0	0	0	0	0	0	0	0
102312	12:37:04	10031	pm.simpleEngRight	blank.simpleEng	2	0	2200	1	0	12:37:04	1414081	0	0	0	0	0	0	0	0	0	0	0	0	0	0	0	0	0
102312	12:37:04	10031	pm.simpleEngRight	pm.simpleEng	2	57	211	0	0	12:37:04	1414321	0	0	0	0	0	0	0	0	0	0	0	0	0	0	0	0	0
102312	12:37:04	10031	pm.simpleEngRight	blank.simpleEng	2	0	2500	1	0	12:37:04	1416840	0	0	0	0	0	0	0	0	0	0	0	0	0	0	0	0	0
102312	12:37:04	10031	pm.simpleEngRight	pm.simpleEng	2	57	236	0	0	12:37:04	1417094	0	0	0	0	0	0	0	0	0	0	0	0	0	0	0	0	0
102312	12:37:04	10031	pm.simpleEngRight	blank.simpleEng	2	0	2300	1	0	12:37:04	1419413	0	0	0	0	0	0	0	0	0	0	0	0	0	0	0	0	0
102312	12:37:04	10031	pm.simpleEngRight	pm.simpleEng	2	57	239	0	0	12:37:04	1419679	0	0	0	0	0	0	0	0	0	0	0	0	0	0	0	0	0
102312	12:37:04	10031	pm.simpleEngRight	blank.simpleEng	2	0	1900	1	0	12:37:04	1421599	0	0	0	0	0	0	0	0	0	0	0	0	0	0	0	0	0
102312	12:37:04	10031	pm.simpleEngRight	pm.simpleEng	2	57	229	0	0	12:37:04	1421852	0	0	0	0	0	0	0	0	0	0	0	0	0	0	0	0	0
102312	12:37:04	10031	pm.simpleEngRight	blank.simpleEng	2	0	1500	1	0	12:37:04	1423371	0	0	0	0	0	0	0	0	0	0	0	0	0	0	0	0	0
102312	12:37:04	10031	pm.simpleEngRight	pm.simpleEng	2	57	281	0	0	12:37:04	1423678	0	0	0	0	0	0	0	0	0	0	0	0	0	0	0	0	0
102312	12:37:04	10031	pm.simpleEngRight	blank.simpleEng	2	0	2400	1	0	12:37:04	1426090	0	0	0	0	0	0	0	0	0	0	0	0	0	0	0	0	0
102312	12:37:04	10031	pm.simpleEngRight	pm.simpleEng	2	57	218	0	0	12:37:04	1426330	0	0	0	0	0	0	0	0	0	0	0	0	0	0	0	0	0
102312	12:37:04	10031	pm.simpleEngRight	blank.simpleEng	2	0	2000	1	0	12:37:04	1428342	0	0	0	0	0	0	0	0	0	0	0	0	0	0	0	0	0
102312	12:37:04	10031	pm.simpleEngRight	pm.simpleEng	2	57	253	0	0	12:37:04	1428622	0	0	0	0	0	0	0	0	0	0	0	0	0	0	0	0	0
102312	12:37:04	10031	pm.simpleEngRight	blank.simpleEng	2	0	1600	1	0	12:37:04	1430235	0	0	0	0	0	0	0	0	0	0	0	0	0	0	0	0	0
102312	12:37:04	10031	pm.simpleEngRight	pm.simpleEng	2	57	252	0	0	12:37:04	1430528	0	0	0	0	0	0	0	0	0	0	0	0	0	0	0	0	0
102312	12:37:04	10031	pm.simpleEngRight	blank.simpleEng	2	0	2100	1	0	12:37:04	1432647	0	0	0	0	0	0	0	0	0	0	0	0	0	0	0	0	0
102312	12:37:04	10031	pm.simpleEngRight	pm.simpleEng	2	57	220	0	0	12:37:04	1432887	0	0	0	0	0	0	0	0	0	0	0	0	0	0	0	0	0
102312	12:37:04	10031	pm.simpleEngRight	blank.simpleEng	2	0	1600	1	0	12:37:04	1434500	0	0	0	0	0	0	0	0	0	0	0	0	0	0	0	0	0
102312	12:37:04	10031	pm.simpleEngRight	pm.simpleEng	2	57	240	0	0	12:37:04	1434766	0	0	0	0	0	0	0	0	0	0	0	0	0	0	0	0	0
102312	12:37:04	10031	pm.simpleEngRight	blank.simpleEng	2	0	1900	1	0	12:37:04	1436686	0	0	0	0	0	0	0	0	0	0	0	0	0	0	0	0	0
102312	12:37:04	10031	pm.simpleEngRight	pm.simpleEng	2	57	230	0	0	12:37:04	1436939	0	0	0	0	0	0	0	0	0	0	0	0	0	0	0	0	0
102312	12:37:04	10031	pm.simpleEngRight	blank.simpleEng	2	0	2200	1	0	12:37:04	1439151	0	0	0	0	0	0	0	0	0	0	0	0	0	0	0	0	0
102312	12:37:04	10031	pm.simpleEngRight	pm.simpleEng	2	57	228	0	0	12:37:04	1439404	0	0	0	0	0	0	0	0	0	0	0	0	0	0	0	0	0
102312	12:37:04	10031	pm.simpleEngRight	blank.simpleEng	2	0	2500	1	0	12:37:04	1441924	0	0	0	0	0	0	0	0	0	0	0	0	0	0	0	0	0
102312	12:37:04	10031	pm.simpleEngRight	pm.simpleEng	2	57	240	0	0	12:37:04	1442190	0	0	0	0	0	0	0	0	0	0	0	0	0	0	0	0	0
102312	12:37:04	10031	pm.simpleEngRight	blank.simpleEng	2	0	1700	1	0	12:37:04	1443909	0	0	0	0	0	0	0	0	0	0	0	0	0	0	0	0	0
102312	12:37:04	10031	pm.simpleEngRight	pm.simpleEng	2	57	222	0	0	12:37:04	1444149	0	0	0	0	0	0	0	0	0	0	0	0	0	0	0	0	0
102312	12:37:04	10031	pm.simpleEngRight	blank.simpleEng	2	0	1500	1	0	12:37:04	1445669	0	0	0	0	0	0	0	0	0	0	0	0	0	0	0	0	0
102312	12:37:04	10031	pm.simpleEngRight	pm.simpleEng	2	57	239	0	0	12:37:04	1445935	0	0	0	0	0	0	0	0	0	0	0	0	0	0	0	0	0
102312	12:37:04	10031	pm.simpleEngRight	blank.simpleEng	2	0	2000	1	0	12:37:04	1447948	0	0	0	0	0	0	0	0	0	0	0	0	0	0	0	0	0
102312	12:37:04	10031	pm.simpleEngRight	pm.simpleEng	2	57	215	0	0	12:37:04	1448188	0	0	0	0	0	0	0	0	0	0	0	0	0	0	0	0	0
102312	12:37:04	10031	Trial2BackEng	N	3	0	1000	1	1	12:37:04	1494222	0	0	0	0	0	0	0	0	0	0	0	0	0	0	0	0	0
102312	12:37:04	10031	Trial2BackEng	N	3	0	1000	1	2	12:37:04	1495728	0	0	0	0	0	0	0	0	0	0	0	0	0	0	0	0	0
102312	12:37:04	10031	Trial2BackEng	N	3	0	1000	1	3	12:37:04	1497234	0	0	0	0	0	0	0	0	0	0	0	0	0	0	0	0	0
102312	12:37:04	10031	Trial2BackEng	N	3	0	1000	1	4	12:37:04	1498741	0	0	0	0	0	0	0	0	0	0	0	0	0	0	0	0	0
102312	12:37:04	10031	Trial2BackEng	N	3	0	1000	1	5	12:37:04	1500247	0	0	0	0	0	0	0	0	0	0	0	0	0	0	0	0	0
102312	12:37:04	10031	Trial2BackEng	N	3	0	1000	1	6	12:37:04	1501766	0	0	0	0	0	0	0	0	0	0	0	0	0	0	0	0	0
102312	12:37:04	10031	Trial2BackEng	N	3	0	1000	1	7	12:37:04	1503272	0	0	0	0	0	0	0	0	0	0	0	0	0	0	0	0	0
102312	12:37:04	10031	Trial2BackEng	N	3	0	1000	1	8	12:37:04	1504778	0	0	0	0	0	0	0	0	0	0	0	0	0	0	0	0	0
102312	12:37:04	10031	Trial2BackEng	Y	3	57	604	1	9	12:37:04	1505898	0	0	0	0	0	0	0	0	0	0	0	0	0	0	0	0	0
102312	12:37:04	10031	Trial2BackEng	N	3	0	1000	1	10	12:37:04	1507790	0	0	0	0	0	0	0	0	0	0	0	0	0	0	0	0	0
102312	12:37:04	10031	Trial2BackEng	N	3	0	1000	1	11	12:37:04	1509296	0	0	0	0	0	0	0	0	0	0	0	0	0	0	0	0	0
102312	12:37:04	10031	Trial2BackEng	N	3	0	1000	1	12	12:37:04	1510816	0	0	0	0	0	0	0	0	0	0	0	0	0	0	0	0	0
102312	12:37:04	10031	Trial2BackEng	Y	3	57	694	1	13	12:37:04	1512028	0	0	0	0	0	0	0	0	0	0	0	0	0	0	0	0	0
102312	12:37:04	10031	Trial2BackEng	N	3	0	1000	1	14	12:37:04	1513828	0	0	0	0	0	0	0	0	0	0	0	0	0	0	0	0	0
102312	12:37:04	10031	Trial2BackEng	N	3	0	1000	1	15	12:37:04	1515334	0	0	0	0	0	0	0	0	0	0	0	0	0	0	0	0	0
102312	12:37:04	10031	Trial2BackEng	N	3	0	1000	1	16	12:37:04	1516840	0	0	0	0	0	0	0	0	0	0	0	0	0	0	0	0	0
102312	12:37:04	10031	Trial2BackEng	N	3	0	1000	1	17	12:37:04	1518346	0	0	0	0	0	0	0	0	0	0	0	0	0	0	0	0	0
102312	12:37:04	10031	Trial2BackEng	N	3	0	1000	1	18	12:37:04	1519852	0	0	0	0	0	0	0	0	0	0	0	0	0	0	0	0	0
102312	12:37:04	10031	Trial2BackEng	Y	3	57	714	1	19	12:37:04	1521078	0	0	0	0	0	0	0	0	0	0	0	0	0	0	0	0	0
102312	12:37:04	10031	Trial2BackEng	N	3	0	1000	1	20	12:37:04	1522864	0	0	0	0	0	0	0	0	0	0	0	0	0	0	0	0	0
102312	12:37:04	10031	Trial2BackEng	N	3	0	1000	1	21	12:37:04	1524370	0	0	0	0	0	0	0	0	0	0	0	0	0	0	0	0	0
102312	12:37:04	10031	Trial2BackEng	N	3	0	1000	1	22	12:37:04	1525876	0	0	0	0	0	0	0	0	0	0	0	0	0	0	0	0	0
102312	12:37:04	10031	Trial2BackEng	N	3	0	1000	1	23	12:37:04	1527382	0	0	0	0	0	0	0	0	0	0	0	0	0	0	0	0	0
102312	12:37:04	10031	Trial2BackEng	Y	3	57	751	1	24	12:37:04	1528648	0	0	0	0	0	0	0	0	0	0	0	0	0	0	0	0	0
102312	12:37:04	10031	Trial2BackEng	N	3	0	1000	1	25	12:37:04	1530394	0	0	0	0	0	0	0	0	0	0	0	0	0	0	0	0	0
102312	12:37:04	10031	Trial2BackEng	N	3	0	1000	1	26	12:37:04	1531900	0	0	0	0	0	0	0	0	0	0	0	0	0	0	0	0	0
102312	12:37:04	10031	Trial2BackEng	N	3	0	1000	1	27	12:37:04	1533407	0	0	0	0	0	0	0	0	0	0	0	0	0	0	0	0	0
102312	12:37:04	10031	Trial2BackEng	N	3	0	1000	1	28	12:37:04	1534913	0	0	0	0	0	0	0	0	0	0	0	0	0	0	0	0	0
102312	12:37:04	10031	Trial2BackEng	N	3	0	1000	1	29	12:37:04	1536419	0	0	0	0	0	0	0	0	0	0	0	0	0	0	0	0	0
102312	12:37:04	10031	Trial2BackEng	N	3	0	1000	1	30	12:37:04	1537925	0	0	0	0	0	0	0	0	0	0	0	0	0	0	0	0	0
102312	12:37:04	10031	Trial2BackEng	Y	3	57	721	1	31	12:37:04	1539164	0	0	0	0	0	0	0	0	0	0	0	0	0	0	0	0	0
102312	12:37:04	10031	Trial2BackEng	N	3	0	1000	1	32	12:37:04	1540937	0	0	0	0	0	0	0	0	0	0	0	0	0	0	0	0	0
102312	12:37:04	10031	Trial2BackEng	N	3	0	1000	1	33	12:37:04	1542443	0	0	0	0	0	0	0	0	0	0	0	0	0	0	0	0	0
102312	12:37:04	10031	Trial2BackEng	N	3	0	1000	1	34	12:37:04	1543962	0	0	0	0	0	0	0	0	0	0	0	0	0	0	0	0	0
102312	12:37:04	10031	Trial2BackEng	Y	3	57	587	1	35	12:37:04	1545068	0	0	0	0	0	0	0	0	0	0	0	0	0	0	0	0	0
102312	12:37:04	10031	Trial2BackEng	N	3	0	1000	1	36	12:37:04	1546974	0	0	0	0	0	0	0	0	0	0	0	0	0	0	0	0	0
102312	12:37:04	10031	Trial2BackEng	N	3	0	1000	1	37	12:37:04	1548480	0	0	0	0	0	0	0	0	0	0	0	0	0	0	0	0	0
102312	12:37:04	10031	Trial2BackEng	N	3	0	1000	1	38	12:37:04	1550000	0	0	0	0	0	0	0	0	0	0	0	0	0	0	0	0	0
102312	12:37:04	10031	Trial2BackEng	N	3	0	1000	1	39	12:37:04	1551506	0	0	0	0	0	0	0	0	0	0	0	0	0	0	0	0	0
102312	12:37:04	10031	Trial2BackEng	N	3	0	1000	1	40	12:37:04	1553025	0	0	0	0	0	0	0	0	0	0	0	0	0	0	0	0	0
102312	12:37:04	10031	Trial2BackEng	N	3	0	1000	1	41	12:37:04	1554531	0	0	0	0	0	0	0	0	0	0	0	0	0	0	0	0	0
102312	12:37:04	10031	Trial2BackEng	Y	3	57	578	1	42	12:37:04	1555624	0	0	0	0	0	0	0	0	0	0	0	0	0	0	0	0	0
102312	12:37:04	10031	Trial2BackEng	N	3	0	1000	1	43	12:37:04	1557543	0	0	0	0	0	0	0	0	0	0	0	0	0	0	0	0	0
102312	12:37:04	10031	Trial2BackEng	N	3	0	1000	1	44	12:37:04	1559049	0	0	0	0	0	0	0	0	0	0	0	0	0	0	0	0	0
102312	12:37:04	10031	Trial2BackEng	N	3	0	1000	1	45	12:37:04	1560556	0	0	0	0	0	0	0	0	0	0	0	0	0	0	0	0	0
102312	12:37:04	10031	Trial2BackEng	N	3	0	1000	1	46	12:37:04	1562062	0	0	0	0	0	0	0	0	0	0	0	0	0	0	0	0	0
102312	12:37:04	10031	Trial2BackEng	Y	3	0	1000	0	46	12:37:04	1563581	0	0	0	0	0	0	0	0	0	0	0	0	0	0	0	0	0
102312	12:37:04	10031	Trial2BackEng	N	3	0	1000	1	47	12:37:04	1565087	0	0	0	0	0	0	0	0	0	0	0	0	0	0	0	0	0
102312	12:37:04	10031	Trial2BackEng	N	3	0	1000	1	48	12:37:04	1566593	0	0	0	0	0	0	0	0	0	0	0	0	0	0	0	0	0
102312	12:37:04	10031	Trial2BackEng	N	3	0	1000	1	49	12:37:04	1568099	0	0	0	0	0	0	0	0	0	0	0	0	0	0	0	0	0
102312	12:37:04	10031	Trial2BackEng	N	3	0	1000	1	50	12:37:04	1569605	0	0	0	0	0	0	0	0	0	0	0	0	0	0	0	0	0
102312	12:37:04	10031	Trial2BackEng	N	3	0	1000	1	51	12:37:04	1571111	0	0	0	0	0	0	0	0	0	0	0	0	0	0	0	0	0
102312	12:37:04	10031	Trial2BackEng	Y	3	57	653	1	52	12:37:04	1572284	0	0	0	0	0	0	0	0	0	0	0	0	0	0	0	0	0
102312	12:37:04	10031	Trial2BackEng	N	3	0	1000	1	53	12:37:04	1574123	0	0	0	0	0	0	0	0	0	0	0	0	0	0	0	0	0
102312	12:37:04	10031	Trial2BackEng	N	3	0	1000	1	54	12:37:04	1575629	0	0	0	0	0	0	0	0	0	0	0	0	0	0	0	0	0
102312	12:37:04	10031	Trial2BackEng	N	3	0	1000	1	55	12:37:04	1577135	0	0	0	0	0	0	0	0	0	0	0	0	0	0	0	0	0
102312	12:37:04	10031	Trial2BackEng	N	3	0	1000	1	56	12:37:04	1578642	0	0	0	0	0	0	0	0	0	0	0	0	0	0	0	0	0
102312	12:37:04	10031	Trial2BackEng	N	3	0	1000	1	57	12:37:04	1580148	0	0	0	0	0	0	0	0	0	0	0	0	0	0	0	0	0
102312	12:37:04	10031	Trial2BackEng	N	3	0	1000	1	58	12:37:04	1581654	0	0	0	0	0	0	0	0	0	0	0	0	0	0	0	0	0
102312	12:37:04	10031	Trial2BackEng	Y	3	57	447	1	59	12:37:04	1582613	0	0	0	0	0	0	0	0	0	0	0	0	0	0	0	0	0
102312	12:37:04	10031	Trial2BackEng	N	3	0	1000	1	60	12:37:04	1584666	0	0	0	0	0	0	0	0	0	0	0	0	0	0	0	0	0
102312	12:37:04	10031	Trial2BackEng	N	3	0	1000	1	61	12:37:04	1586172	0	0	0	0	0	0	0	0	0	0	0	0	0	0	0	0	0
102312	12:37:04	10031	Trial2BackEng	Y	3	57	952	1	62	12:37:04	1587638	0	0	0	0	0	0	0	0	0	0	0	0	0	0	0	0	0
102312	12:37:04	10031	Trial2BackEng	N	3	0	1000	1	63	12:37:04	1589184	0	0	0	0	0	0	0	0	0	0	0	0	0	0	0	0	0
102312	12:37:04	10031	Trial2BackEng	N	3	0	1000	1	64	12:37:04	1590690	0	0	0	0	0	0	0	0	0	0	0	0	0	0	0	0	0
102312	12:37:04	10031	Trial2BackEng	N	3	0	1000	1	65	12:37:04	1592209	0	0	0	0	0	0	0	0	0	0	0	0	0	0	0	0	0
102312	12:37:04	10031	Trial2BackEng	N	3	0	1000	1	66	12:37:04	1593715	0	0	0	0	0	0	0	0	0	0	0	0	0	0	0	0	0
102312	12:37:04	10031	Trial2BackEng	N	3	0	1000	1	67	12:37:04	1595221	0	0	0	0	0	0	0	0	0	0	0	0	0	0	0	0	0
102312	12:37:04	10031	Trial2BackEng	N	3	0	1000	1	68	12:37:04	1596728	0	0	0	0	0	0	0	0	0	0	0	0	0	0	0	0	0
102312	12:37:04	10031	Trial2BackEng	N	3	0	1000	1	69	12:37:04	1598234	0	0	0	0	0	0	0	0	0	0	0	0	0	0	0	0	0
102312	12:37:04	10031	Trial2BackEng	N	3	0	1000	1	70	12:37:04	1599740	0	0	0	0	0	0	0	0	0	0	0	0	0	0	0	0	0
102312	12:37:04	10031	Trial2BackEng	N	3	0	1000	1	71	12:37:04	1601246	0	0	0	0	0	0	0	0	0	0	0	0	0	0	0	0	0
102312	12:37:04	10031	Trial2BackEng	N	3	0	1000	1	72	12:37:04	1602752	0	0	0	0	0	0	0	0	0	0	0	0	0	0	0	0	0
102312	12:37:04	10031	Trial2BackEng	Y	3	57	564	1	73	12:37:04	1603831	0	0	0	0	0	0	0	0	0	0	0	0	0	0	0	0	0
102312	12:37:04	10031	Trial2BackEng	N	3	0	1000	1	74	12:37:04	1605764	0	0	0	0	0	0	0	0	0	0	0	0	0	0	0	0	0
102312	12:37:04	10031	Trial2BackEng	N	3	0	1000	1	75	12:37:04	1607270	0	0	0	0	0	0	0	0	0	0	0	0	0	0	0	0	0
102312	12:37:04	10031	Trial2BackEng	N	3	0	1000	1	76	12:37:04	1608776	0	0	0	0	0	0	0	0	0	0	0	0	0	0	0	0	0
102312	12:37:04	10031	Trial2BackEng	Y	3	0	1000	0	76	12:37:04	1610282	0	0	0	0	0	0	0	0	0	0	0	0	0	0	0	0	0
102312	12:37:04	10031	Trial2BackEng	N	3	0	1000	1	77	12:37:04	1611788	0	0	0	0	0	0	0	0	0	0	0	0	0	0	0	0	0
102312	12:37:04	10031	Trial2BackEng	N	3	0	1000	1	78	12:37:04	1613294	0	0	0	0	0	0	0	0	0	0	0	0	0	0	0	0	0
102312	12:37:04	10031	Trial2BackEng	N	3	0	1000	1	79	12:37:04	1614800	0	0	0	0	0	0	0	0	0	0	0	0	0	0	0	0	0
102312	12:37:04	10031	Trial2BackEng	N	3	0	1000	1	80	12:37:04	1616306	0	0	0	0	0	0	0	0	0	0	0	0	0	0	0	0	0
102312	12:37:04	10031	Trial2BackEng	N	3	0	1000	1	81	12:37:04	1617812	0	0	0	0	0	0	0	0	0	0	0	0	0	0	0	0	0
102312	12:37:04	10031	Trial2BackEng	Y	3	0	1000	0	81	12:37:04	1619318	0	0	0	0	0	0	0	0	0	0	0	0	0	0	0	0	0
102312	12:37:04	10031	Trial2BackEng	N	3	0	1000	1	82	12:37:04	1620824	0	0	0	0	0	0	0	0	0	0	0	0	0	0	0	0	0
102312	12:37:04	10031	Trial2BackEng	N	3	0	1000	1	83	12:37:04	1622330	0	0	0	0	0	0	0	0	0	0	0	0	0	0	0	0	0
102312	12:37:04	10031	Trial2BackEng	N	3	0	1000	1	84	12:37:04	1623837	0	0	0	0	0	0	0	0	0	0	0	0	0	0	0	0	0
102312	12:37:04	10031	Trial2BackEng	N	3	0	1000	1	85	12:37:04	1625343	0	0	0	0	0	0	0	0	0	0	0	0	0	0	0	0	0
102312	12:37:04	10031	Trial2BackEng	N	3	0	1000	1	86	12:37:04	1626849	0	0	0	0	0	0	0	0	0	0	0	0	0	0	0	0	0
102312	12:37:04	10031	Trial2BackEng	N	3	0	1000	1	87	12:37:04	1628355	0	0	0	0	0	0	0	0	0	0	0	0	0	0	0	0	0
102312	12:37:04	10031	Trial2BackEng	N	3	0	1000	1	88	12:37:04	1629874	0	0	0	0	0	0	0	0	0	0	0	0	0	0	0	0	0
102312	12:37:04	10031	Trial2BackEng	N	3	0	1000	1	89	12:37:04	1631380	0	0	0	0	0	0	0	0	0	0	0	0	0	0	0	0	0
102312	12:37:04	10031	Trial2BackEng	N	3	0	1000	1	90	12:37:04	1632886	0	0	0	0	0	0	0	0	0	0	0	0	0	0	0	0	0
102312	12:37:04	10031	Trial2BackEng	Y	3	57	685	1	91	12:37:04	1634086	0	0	0	0	0	0	0	0	0	0	0	0	0	0	0	0	0
102312	12:37:04	10031	Trial2BackEng	N	3	0	1000	1	92	12:37:04	1635898	0	0	0	0	0	0	0	0	0	0	0	0	0	0	0	0	0
102312	12:37:04	10031	Trial2BackEng	N	3	0	1000	1	93	12:37:04	1637404	0	0	0	0	0	0	0	0	0	0	0	0	0	0	0	0	0
102312	12:37:04	10031	Trial2BackEng	N	3	0	1000	1	94	12:37:04	1638911	0	0	0	0	0	0	0	0	0	0	0	0	0	0	0	0	0
102312	12:37:04	10031	Trial2BackEng	N	3	0	1000	1	95	12:37:04	1640443	0	0	0	0	0	0	0	0	0	0	0	0	0	0	0	0	0
102312	12:37:04	10031	Trial2BackEng	N	3	0	1000	1	96	12:37:04	1641962	0	0	0	0	0	0	0	0	0	0	0	0	0	0	0	0	0
102312	12:37:04	10031	Trial2BackEng	N	3	0	1000	1	97	12:37:04	1643469	0	0	0	0	0	0	0	0	0	0	0	0	0	0	0	0	0
102312	12:37:04	10031	Trial2BackEng	N	3	0	1000	1	98	12:37:04	1644975	0	0	0	0	0	0	0	0	0	0	0	0	0	0	0	0	0
102312	12:37:04	10031	Trial2BackEng	N	3	0	1000	1	99	12:37:04	1646481	0	0	0	0	0	0	0	0	0	0	0	0	0	0	0	0	0
102312	12:37:04	10031	Trial2BackEng	Y	3	57	546	1	100	12:37:04	1647547	0	0	0	0	0	0	0	0	0	0	0	0	0	0	0	0	0
102312	12:37:04	10031	Trial2BackEng	N	3	0	1000	1	101	12:37:04	1649493	0	0	0	0	0	0	0	0	0	0	0	0	0	0	0	0	0
102312	12:37:04	10031	Trial2BackEng	N	3	0	1000	1	102	12:37:04	1650999	0	0	0	0	0	0	0	0	0	0	0	0	0	0	0	0	0
102312	12:37:04	10031	Trial2BackEng	N	3	0	1000	1	103	12:37:04	1652505	0	0	0	0	0	0	0	0	0	0	0	0	0	0	0	0	0
102312	12:37:04	10031	Trial2BackEng	N	3	0	1000	1	104	12:37:04	1654011	0	0	0	0	0	0	0	0	0	0	0	0	0	0	0	0	0
102312	12:37:04	10031	Trial2BackEng	Y	3	57	840	1	105	12:37:04	1655370	0	0	0	0	0	0	0	0	0	0	0	0	0	0	0	0	0
102312	12:37:04	10031	Trial2BackEng	N	3	0	1000	1	106	12:37:04	1657023	0	0	0	0	0	0	0	0	0	0	0	0	0	0	0	0	0
102312	12:37:04	10031	Trial2BackEng	N	3	0	1000	1	107	12:37:04	1658529	0	0	0	0	0	0	0	0	0	0	0	0	0	0	0	0	0
102312	12:37:04	10031	Trial2BackEng	N	3	0	1000	1	108	12:37:04	1660035	0	0	0	0	0	0	0	0	0	0	0	0	0	0	0	0	0
102312	12:37:04	10031	Trial2BackEng	Y	3	57	944	1	109	12:37:04	1661488	0	0	0	0	0	0	0	0	0	0	0	0	0	0	0	0	0
102312	12:37:04	10031	Trial2BackEng	N	3	0	1000	1	110	12:37:04	1663047	0	0	0	0	0	0	0	0	0	0	0	0	0	0	0	0	0
102312	12:37:04	10031	Trial2BackEng	N	3	0	1000	1	111	12:37:04	1664553	0	0	0	0	0	0	0	0	0	0	0	0	0	0	0	0	0
102312	12:37:04	10031	Trial2BackEng	N	3	0	1000	1	112	12:37:04	1666059	0	0	0	0	0	0	0	0	0	0	0	0	0	0	0	0	0
102312	12:37:04	10031	Trial2BackEng	N	3	0	1000	1	113	12:37:04	1667566	0	0	0	0	0	0	0	0	0	0	0	0	0	0	0	0	0
102312	12:37:04	10031	Trial2BackEng	N	3	0	1000	1	114	12:37:04	1669072	0	0	0	0	0	0	0	0	0	0	0	0	0	0	0	0	0
102312	12:37:04	10031	Trial2BackEng	Y	3	57	643	1	115	12:37:04	1670231	0	0	0	0	0	0	0	0	0	0	0	0	0	0	0	0	0
102312	12:37:04	10031	Trial2BackEng	N	3	0	1000	1	116	12:37:04	1672084	0	0	0	0	0	0	0	0	0	0	0	0	0	0	0	0	0
102312	12:37:04	10031	Trial2BackEng	N	3	0	1000	1	117	12:37:04	1673590	0	0	0	0	0	0	0	0	0	0	0	0	0	0	0	0	0
102312	12:37:04	10031	Trial2BackEng	N	3	0	1000	1	118	12:37:04	1675096	0	0	0	0	0	0	0	0	0	0	0	0	0	0	0	0	0
102312	12:37:04	10031	Trial2BackEng	Y	3	57	554	1	119	12:37:04	1676162	0	0	0	0	0	0	0	0	0	0	0	0	0	0	0	0	0
102312	12:37:04	10031	Trial3BackEng	NN	4	0	1000	1	119	12:37:04	1693595	0	0	0	0	0	0	0	0	0	0	0	0	0	0	0	0	0
102312	12:37:04	10031	Trial3BackEng	NN	4	0	1000	1	119	12:37:04	1695101	0	0	0	0	0	0	0	0	0	0	0	0	0	0	0	0	0
102312	12:37:04	10031	Trial3BackEng	NN	4	0	1000	1	119	12:37:04	1696607	0	0	0	0	0	0	0	0	0	0	0	0	0	0	0	0	0
102312	12:37:04	10031	Trial3BackEng	YY	4	57	914	1	119	12:37:04	1698033	0	0	0	0	0	0	0	0	0	0	0	0	0	0	0	0	0
102312	12:37:04	10031	Trial3BackEng	NN	4	0	1000	1	119	12:37:04	1699619	0	0	0	0	0	0	0	0	0	0	0	0	0	0	0	0	0
102312	12:37:04	10031	Trial3BackEng	NN	4	0	1000	1	119	12:37:04	1701125	0	0	0	0	0	0	0	0	0	0	0	0	0	0	0	0	0
102312	12:37:04	10031	Trial3BackEng	NN	4	0	1000	1	119	12:37:04	1702631	0	0	0	0	0	0	0	0	0	0	0	0	0	0	0	0	0
102312	12:37:04	10031	Trial3BackEng	NN	4	0	1000	1	119	12:37:04	1704151	0	0	0	0	0	0	0	0	0	0	0	0	0	0	0	0	0
102312	12:37:04	10031	Trial3BackEng	YY	4	0	1000	0	119	12:37:04	1705657	0	0	0	0	0	0	0	0	0	0	0	0	0	0	0	0	0
102312	12:37:04	10031	Trial3BackEng	NN	4	0	1000	1	119	12:37:04	1707163	0	0	0	0	0	0	0	0	0	0	0	0	0	0	0	0	0
102312	12:37:04	10031	Trial3BackEng	NN	4	0	1000	1	119	12:37:04	1708669	0	0	0	0	0	0	0	0	0	0	0	0	0	0	0	0	0
102312	12:37:04	10031	Trial3BackEng	NN	4	0	1000	1	119	12:37:04	1710175	0	0	0	0	0	0	0	0	0	0	0	0	0	0	0	0	0
102312	12:37:04	10031	Trial3BackEng	NN	4	0	1000	1	119	12:37:04	1711681	0	0	0	0	0	0	0	0	0	0	0	0	0	0	0	0	0
102312	12:37:04	10031	Trial3BackEng	NN	4	0	1000	1	119	12:37:04	1713187	0	0	0	0	0	0	0	0	0	0	0	0	0	0	0	0	0
102312	12:37:04	10031	Trial3BackEng	NN	4	0	1000	1	119	12:37:04	1714693	0	0	0	0	0	0	0	0	0	0	0	0	0	0	0	0	0
102312	12:37:04	10031	Trial3BackEng	NN	4	0	1000	1	119	12:37:04	1716199	0	0	0	0	0	0	0	0	0	0	0	0	0	0	0	0	0
102312	12:37:04	10031	Trial3BackEng	YY	4	57	954	1	119	12:37:04	1717665	0	0	0	0	0	0	0	0	0	0	0	0	0	0	0	0	0
102312	12:37:04	10031	Trial3BackEng	NN	4	0	1000	1	119	12:37:04	1719211	0	0	0	0	0	0	0	0	0	0	0	0	0	0	0	0	0
102312	12:37:04	10031	Trial3BackEng	NN	4	0	1000	1	119	12:37:04	1720717	0	0	0	0	0	0	0	0	0	0	0	0	0	0	0	0	0
102312	12:37:04	10031	Trial3BackEng	NN	4	0	1000	1	119	12:37:04	1722223	0	0	0	0	0	0	0	0	0	0	0	0	0	0	0	0	0
102312	12:37:04	10031	Trial3BackEng	NN	4	0	1000	1	119	12:37:04	1723729	0	0	0	0	0	0	0	0	0	0	0	0	0	0	0	0	0
102312	12:37:04	10031	Trial3BackEng	NN	4	0	1000	1	119	12:37:04	1725235	0	0	0	0	0	0	0	0	0	0	0	0	0	0	0	0	0
102312	12:37:04	10031	Trial3BackEng	YY	4	0	1000	0	119	12:37:04	1726755	0	0	0	0	0	0	0	0	0	0	0	0	0	0	0	0	0
102312	12:37:04	10031	Trial3BackEng	NN	4	0	1000	1	119	12:37:04	1728261	0	0	0	0	0	0	0	0	0	0	0	0	0	0	0	0	0
102312	12:37:04	10031	Trial3BackEng	NN	4	0	1000	1	119	12:37:04	1729767	0	0	0	0	0	0	0	0	0	0	0	0	0	0	0	0	0
102312	12:37:04	10031	Trial3BackEng	NN	4	0	1000	1	119	12:37:04	1731286	0	0	0	0	0	0	0	0	0	0	0	0	0	0	0	0	0
102312	12:37:04	10031	Trial3BackEng	YY	4	0	1000	0	119	12:37:04	1732792	0	0	0	0	0	0	0	0	0	0	0	0	0	0	0	0	0
102312	12:37:04	10031	Trial3BackEng	NN	4	0	1000	1	119	12:37:04	1734312	0	0	0	0	0	0	0	0	0	0	0	0	0	0	0	0	0
102312	12:37:04	10031	Trial3BackEng	NN	4	0	1000	1	119	12:37:04	1735818	0	0	0	0	0	0	0	0	0	0	0	0	0	0	0	0	0
102312	12:37:04	10031	Trial3BackEng	NN	4	0	1000	1	119	12:37:04	1737324	0	0	0	0	0	0	0	0	0	0	0	0	0	0	0	0	0
102312	12:37:04	10031	Trial3BackEng	YY	4	0	1000	0	119	12:37:04	1738830	0	0	0	0	0	0	0	0	0	0	0	0	0	0	0	0	0
102312	12:37:04	10031	Trial3BackEng	NN	4	0	1000	1	119	12:37:04	1740336	0	0	0	0	0	0	0	0	0	0	0	0	0	0	0	0	0
102312	12:37:04	10031	Trial3BackEng	NN	4	0	1000	1	119	12:37:04	1741842	0	0	0	0	0	0	0	0	0	0	0	0	0	0	0	0	0
102312	12:37:04	10031	Trial3BackEng	NN	4	0	1000	1	119	12:37:04	1743348	0	0	0	0	0	0	0	0	0	0	0	0	0	0	0	0	0
102312	12:37:04	10031	Trial3BackEng	NN	4	0	1000	1	119	12:37:04	1744854	0	0	0	0	0	0	0	0	0	0	0	0	0	0	0	0	0
102312	12:37:04	10031	Trial3BackEng	NN	4	0	1000	1	119	12:37:04	1746360	0	0	0	0	0	0	0	0	0	0	0	0	0	0	0	0	0
102312	12:37:04	10031	Trial3BackEng	NN	4	0	1000	1	119	12:37:04	1747866	0	0	0	0	0	0	0	0	0	0	0	0	0	0	0	0	0
102312	12:37:04	10031	Trial3BackEng	NN	4	0	1000	1	119	12:37:04	1749372	0	0	0	0	0	0	0	0	0	0	0	0	0	0	0	0	0
102312	12:37:04	10031	Trial3BackEng	NN	4	0	1000	1	119	12:37:04	1750878	0	0	0	0	0	0	0	0	0	0	0	0	0	0	0	0	0
102312	12:37:04	10031	Trial3BackEng	NN	4	0	1000	1	119	12:37:04	1752384	0	0	0	0	0	0	0	0	0	0	0	0	0	0	0	0	0
102312	12:37:04	10031	Trial3BackEng	NN	4	0	1000	1	119	12:37:04	1753890	0	0	0	0	0	0	0	0	0	0	0	0	0	0	0	0	0
102312	12:37:04	10031	Trial3BackEng	YY	4	0	1000	0	119	12:37:04	1755397	0	0	0	0	0	0	0	0	0	0	0	0	0	0	0	0	0
102312	12:37:04	10031	Trial3BackEng	NN	4	0	1000	1	119	12:37:04	1756903	0	0	0	0	0	0	0	0	0	0	0	0	0	0	0	0	0
102312	12:37:04	10031	Trial3BackEng	NN	4	0	1000	1	119	12:37:04	1758409	0	0	0	0	0	0	0	0	0	0	0	0	0	0	0	0	0
102312	12:37:04	10031	Trial3BackEng	NN	4	0	1000	1	119	12:37:04	1759915	0	0	0	0	0	0	0	0	0	0	0	0	0	0	0	0	0
102312	12:37:04	10031	Trial3BackEng	NN	4	0	1000	1	119	12:37:04	1761421	0	0	0	0	0	0	0	0	0	0	0	0	0	0	0	0	0
102312	12:37:04	10031	Trial3BackEng	YY	4	57	723	1	119	12:37:04	1762660	0	0	0	0	0	0	0	0	0	0	0	0	0	0	0	0	0
102312	12:37:04	10031	Trial3BackEng	NN	4	0	1000	1	119	12:37:04	1764433	0	0	0	0	0	0	0	0	0	0	0	0	0	0	0	0	0
102312	12:37:04	10031	Trial3BackEng	NN	4	0	1000	1	119	12:37:04	1765939	0	0	0	0	0	0	0	0	0	0	0	0	0	0	0	0	0
102312	12:37:04	10031	Trial3BackEng	NN	4	0	1000	1	119	12:37:04	1767445	0	0	0	0	0	0	0	0	0	0	0	0	0	0	0	0	0
102312	12:37:04	10031	Trial3BackEng	NN	4	0	1000	1	119	12:37:04	1768951	0	0	0	0	0	0	0	0	0	0	0	0	0	0	0	0	0
102312	12:37:04	10031	Trial3BackEng	NN	4	0	1000	1	119	12:37:04	1770457	0	0	0	0	0	0	0	0	0	0	0	0	0	0	0	0	0
102312	12:37:04	10031	Trial3BackEng	YY	4	57	711	1	119	12:37:04	1771683	0	0	0	0	0	0	0	0	0	0	0	0	0	0	0	0	0
102312	12:37:04	10031	Trial3BackEng	NN	4	0	1000	1	119	12:37:04	1773469	0	0	0	0	0	0	0	0	0	0	0	0	0	0	0	0	0
102312	12:37:04	10031	Trial3BackEng	NN	4	0	1000	1	119	12:37:04	1774975	0	0	0	0	0	0	0	0	0	0	0	0	0	0	0	0	0
102312	12:37:04	10031	Trial3BackEng	NN	4	0	1000	1	119	12:37:04	1776481	0	0	0	0	0	0	0	0	0	0	0	0	0	0	0	0	0
102312	12:37:04	10031	Trial3BackEng	NN	4	0	1000	1	119	12:37:04	1777987	0	0	0	0	0	0	0	0	0	0	0	0	0	0	0	0	0
102312	12:37:04	10031	Trial3BackEng	NN	4	0	1000	1	119	12:37:04	1779493	0	0	0	0	0	0	0	0	0	0	0	0	0	0	0	0	0
102312	12:37:04	10031	Trial3BackEng	NN	4	0	1000	1	119	12:37:04	1781000	0	0	0	0	0	0	0	0	0	0	0	0	0	0	0	0	0
102312	12:37:04	10031	Trial3BackEng	YY	4	0	1000	0	119	12:37:04	1782506	0	0	0	0	0	0	0	0	0	0	0	0	0	0	0	0	0
102312	12:37:04	10031	Trial3BackEng	NN	4	0	1000	1	119	12:37:04	1784012	0	0	0	0	0	0	0	0	0	0	0	0	0	0	0	0	0
102312	12:37:04	10031	Trial3BackEng	NN	4	0	1000	1	119	12:37:04	1785531	0	0	0	0	0	0	0	0	0	0	0	0	0	0	0	0	0
102312	12:37:04	10031	Trial3BackEng	NN	4	0	1000	1	119	12:37:04	1787037	0	0	0	0	0	0	0	0	0	0	0	0	0	0	0	0	0
102312	12:37:04	10031	Trial3BackEng	YY	4	0	1000	0	119	12:37:04	1788543	0	0	0	0	0	0	0	0	0	0	0	0	0	0	0	0	0
102312	12:37:04	10031	Trial3BackEng	NN	4	0	1000	1	119	12:37:04	1790063	0	0	0	0	0	0	0	0	0	0	0	0	0	0	0	0	0
102312	12:37:04	10031	Trial3BackEng	NN	4	0	1000	1	119	12:37:04	1791569	0	0	0	0	0	0	0	0	0	0	0	0	0	0	0	0	0
102312	12:37:04	10031	Trial3BackEng	NN	4	0	1000	1	119	12:37:04	1793075	0	0	0	0	0	0	0	0	0	0	0	0	0	0	0	0	0
102312	12:37:04	10031	Trial3BackEng	NN	4	0	1000	1	119	12:37:04	1794581	0	0	0	0	0	0	0	0	0	0	0	0	0	0	0	0	0
102312	12:37:04	10031	Trial3BackEng	NN	4	0	1000	1	119	12:37:04	1796087	0	0	0	0	0	0	0	0	0	0	0	0	0	0	0	0	0
102312	12:37:04	10031	Trial3BackEng	NN	4	0	1000	1	119	12:37:04	1797593	0	0	0	0	0	0	0	0	0	0	0	0	0	0	0	0	0
102312	12:37:04	10031	Trial3BackEng	NN	4	0	1000	1	119	12:37:04	1799099	0	0	0	0	0	0	0	0	0	0	0	0	0	0	0	0	0
102312	12:37:04	10031	Trial3BackEng	NN	4	0	1000	1	119	12:37:04	1800605	0	0	0	0	0	0	0	0	0	0	0	0	0	0	0	0	0
102312	12:37:04	10031	Trial3BackEng	NN	4	0	1000	1	119	12:37:04	1802111	0	0	0	0	0	0	0	0	0	0	0	0	0	0	0	0	0
102312	12:37:04	10031	Trial3BackEng	YY	4	57	960	1	119	12:37:04	1803590	0	0	0	0	0	0	0	0	0	0	0	0	0	0	0	0	0
102312	12:37:04	10031	Trial3BackEng	NN	4	0	1000	1	119	12:37:04	1805123	0	0	0	0	0	0	0	0	0	0	0	0	0	0	0	0	0
102312	12:37:04	10031	Trial3BackEng	NN	4	0	1000	1	119	12:37:04	1806629	0	0	0	0	0	0	0	0	0	0	0	0	0	0	0	0	0
102312	12:37:04	10031	Trial3BackEng	NN	4	0	1000	1	119	12:37:04	1808135	0	0	0	0	0	0	0	0	0	0	0	0	0	0	0	0	0
102312	12:37:04	10031	Trial3BackEng	YY	4	0	1000	0	119	12:37:04	1809641	0	0	0	0	0	0	0	0	0	0	0	0	0	0	0	0	0
102312	12:37:04	10031	Trial3BackEng	NN	4	0	1000	1	119	12:37:04	1811147	0	0	0	0	0	0	0	0	0	0	0	0	0	0	0	0	0
102312	12:37:04	10031	Trial3BackEng	NN	4	0	1000	1	119	12:37:04	1812653	0	0	0	0	0	0	0	0	0	0	0	0	0	0	0	0	0
102312	12:37:04	10031	Trial3BackEng	NN	4	0	1000	1	119	12:37:04	1814159	0	0	0	0	0	0	0	0	0	0	0	0	0	0	0	0	0
102312	12:37:04	10031	Trial3BackEng	NN	4	0	1000	1	119	12:37:04	1815665	0	0	0	0	0	0	0	0	0	0	0	0	0	0	0	0	0
102312	12:37:04	10031	Trial3BackEng	NN	4	0	1000	1	119	12:37:04	1817172	0	0	0	0	0	0	0	0	0	0	0	0	0	0	0	0	0
102312	12:37:04	10031	Trial3BackEng	YY	4	0	1000	0	119	12:37:04	1818677	0	0	0	0	0	0	0	0	0	0	0	0	0	0	0	0	0
102312	12:37:04	10031	Trial3BackEng	NN	4	57	916	0	119	12:37:04	1820157	0	0	0	0	0	0	0	0	0	0	0	0	0	0	0	0	0
102312	12:37:04	10031	Trial3BackEng	NN	4	0	1000	1	119	12:37:04	1821730	0	0	0	0	0	0	0	0	0	0	0	0	0	0	0	0	0
102312	12:37:04	10031	Trial3BackEng	NN	4	0	1000	1	119	12:37:04	1823236	0	0	0	0	0	0	0	0	0	0	0	0	0	0	0	0	0
102312	12:37:04	10031	Trial3BackEng	NN	4	0	1000	1	119	12:37:04	1824742	0	0	0	0	0	0	0	0	0	0	0	0	0	0	0	0	0
102312	12:37:04	10031	Trial3BackEng	NN	4	0	1000	1	119	12:37:04	1826248	0	0	0	0	0	0	0	0	0	0	0	0	0	0	0	0	0
102312	12:37:04	10031	Trial3BackEng	NN	4	0	1000	1	119	12:37:04	1827754	0	0	0	0	0	0	0	0	0	0	0	0	0	0	0	0	0
102312	12:37:04	10031	Trial3BackEng	NN	4	0	1000	1	119	12:37:04	1829260	0	0	0	0	0	0	0	0	0	0	0	0	0	0	0	0	0
102312	12:37:04	10031	Trial3BackEng	NN	4	0	1000	1	119	12:37:04	1830779	0	0	0	0	0	0	0	0	0	0	0	0	0	0	0	0	0
102312	12:37:04	10031	Trial3BackEng	NN	4	0	1000	1	119	12:37:04	1832286	0	0	0	0	0	0	0	0	0	0	0	0	0	0	0	0	0
102312	12:37:04	10031	Trial3BackEng	YY	4	0	1000	0	119	12:37:04	1833805	0	0	0	0	0	0	0	0	0	0	0	0	0	0	0	0	0
102312	12:37:04	10031	Trial3BackEng	NN	4	0	1000	1	119	12:37:04	1835311	0	0	0	0	0	0	0	0	0	0	0	0	0	0	0	0	0
102312	12:37:04	10031	Trial3BackEng	NN	4	0	1000	1	119	12:37:04	1836817	0	0	0	0	0	0	0	0	0	0	0	0	0	0	0	0	0
102312	12:37:04	10031	Trial3BackEng	NN	4	0	1000	1	119	12:37:04	1838323	0	0	0	0	0	0	0	0	0	0	0	0	0	0	0	0	0
102312	12:37:04	10031	Trial3BackEng	NN	4	0	1000	1	119	12:37:04	1839829	0	0	0	0	0	0	0	0	0	0	0	0	0	0	0	0	0
102312	12:37:04	10031	Trial3BackEng	NN	4	0	1000	1	119	12:37:04	1841335	0	0	0	0	0	0	0	0	0	0	0	0	0	0	0	0	0
102312	12:37:04	10031	Trial3BackEng	NN	4	0	1000	1	119	12:37:04	1842841	0	0	0	0	0	0	0	0	0	0	0	0	0	0	0	0	0
102312	12:37:04	10031	Trial3BackEng	NN	4	0	1000	1	119	12:37:04	1844347	0	0	0	0	0	0	0	0	0	0	0	0	0	0	0	0	0
102312	12:37:04	10031	Trial3BackEng	NN	4	0	1000	1	119	12:37:04	1845853	0	0	0	0	0	0	0	0	0	0	0	0	0	0	0	0	0
102312	12:37:04	10031	Trial3BackEng	YY	4	57	593	1	119	12:37:04	1846959	0	0	0	0	0	0	0	0	0	0	0	0	0	0	0	0	0
102312	12:37:04	10031	Trial3BackEng	NN	4	0	1000	1	119	12:37:04	1848865	0	0	0	0	0	0	0	0	0	0	0	0	0	0	0	0	0
102312	12:37:04	10031	Trial3BackEng	NN	4	0	1000	1	119	12:37:04	1850371	0	0	0	0	0	0	0	0	0	0	0	0	0	0	0	0	0
102312	12:37:04	10031	Trial3BackEng	NN	4	0	1000	1	119	12:37:04	1851877	0	0	0	0	0	0	0	0	0	0	0	0	0	0	0	0	0
102312	12:37:04	10031	Trial3BackEng	NN	4	0	1000	1	119	12:37:04	1853383	0	0	0	0	0	0	0	0	0	0	0	0	0	0	0	0	0
102312	12:37:04	10031	Trial3BackEng	YY	4	0	1000	0	119	12:37:04	1854890	0	0	0	0	0	0	0	0	0	0	0	0	0	0	0	0	0
102312	12:37:04	10031	Trial3BackEng	NN	4	0	1000	1	119	12:37:04	1856396	0	0	0	0	0	0	0	0	0	0	0	0	0	0	0	0	0
102312	12:37:04	10031	Trial3BackEng	NN	4	0	1000	1	119	12:37:04	1857902	0	0	0	0	0	0	0	0	0	0	0	0	0	0	0	0	0
102312	12:37:04	10031	Trial3BackEng	NN	4	0	1000	1	119	12:37:04	1859408	0	0	0	0	0	0	0	0	0	0	0	0	0	0	0	0	0
102312	12:37:04	10031	Trial3BackEng	YY	4	0	1000	0	119	12:37:04	1860914	0	0	0	0	0	0	0	0	0	0	0	0	0	0	0	0	0
102312	12:37:04	10031	Trial3BackEng	NN	4	0	1000	1	119	12:37:04	1862420	0	0	0	0	0	0	0	0	0	0	0	0	0	0	0	0	0
102312	12:37:04	10031	Trial3BackEng	NN	4	0	1000	1	119	12:37:04	1863926	0	0	0	0	0	0	0	0	0	0	0	0	0	0	0	0	0
102312	12:37:04	10031	Trial3BackEng	NN	4	0	1000	1	119	12:37:04	1865432	0	0	0	0	0	0	0	0	0	0	0	0	0	0	0	0	0
102312	12:37:04	10031	Trial3BackEng	NN	4	0	1000	1	119	12:37:04	1866938	0	0	0	0	0	0	0	0	0	0	0	0	0	0	0	0	0
102312	12:37:04	10031	Trial3BackEng	NN	4	0	1000	1	119	12:37:04	1868444	0	0	0	0	0	0	0	0	0	0	0	0	0	0	0	0	0
102312	12:37:04	10031	Trial3BackEng	YY	4	0	1000	0	119	12:37:04	1869950	0	0	0	0	0	0	0	0	0	0	0	0	0	0	0	0	0
102312	12:37:04	10031	Trial3BackEng	NN	4	0	1000	1	119	12:37:04	1871456	0	0	0	0	0	0	0	0	0	0	0	0	0	0	0	0	0
102312	12:37:04	10031	Trial3BackEng	NN	4	0	1000	1	119	12:37:04	1872962	0	0	0	0	0	0	0	0	0	0	0	0	0	0	0	0	0
102312	12:37:04	10031	Trial3BackEng	NN	4	0	1000	1	119	12:37:04	1874468	0	0	0	0	0	0	0	0	0	0	0	0	0	0	0	0	0
102312	12:37:04	10031	Trial3BackEng	YY	4	57	793	1	119	12:37:04	1875774	0	0	0	0	0	0	0	0	0	0	0	0	0	0	0	0	0
102312	12:37:04	10031	Memory1R3mo	Score	5	M1	13608	0	119	12:37:04	1918784	0	0	0	0	0	0	0	0	0	0	0	0	0	0	0	0	0
102312	12:37:04	10031	Memory1R3mo	Score	5	M1	188	0	119	12:37:04	1919024	0	0	0	0	0	0	0	0	0	0	0	0	0	0	0	0	0
102312	12:37:04	10031	Memory1R3mo	Score	5	M1	1140	0	119	12:37:04	1920210	0	0	0	0	0	0	0	0	0	0	0	0	0	0	0	0	0
102312	12:37:04	10031	Memory1R3mo	Score	5	M2	218	0	119	12:37:04	1920477	0	0	0	0	0	0	0	0	0	0	0	0	0	0	0	0	0
102312	12:37:04	10031	Memory1R3mo	Score	5	M5	1962	0	119	12:37:04	1922502	0	0	0	0	0	0	0	0	0	0	0	0	0	0	0	0	0
102312	12:37:04	10031	Memory1R3mo	Score	5	M7	614	0	119	12:37:04	1923169	0	0	0	0	0	0	0	0	0	0	0	0	0	0	0	0	0
102312	12:37:04	10031	Memory1R3mo	Score	5	M7	219	0	119	12:37:04	1923435	0	0	0	0	0	0	0	0	0	0	0	0	0	0	0	0	0
102312	12:37:04	10031	Memory1R3mo	Score	5	M7	568	0	119	12:37:04	1924048	0	0	0	0	0	0	0	0	0	0	0	0	0	0	0	0	0
102312	12:37:04	10031	Memory1R3mo	Score	5	M8	259	0	119	12:37:04	1924355	0	0	0	0	0	0	0	0	0	0	0	0	0	0	0	0	0
102312	12:37:04	10031	Memory1R3mo	Score	5	Done	529	0	119	12:37:04	1924928	0	0	0	0	0	0	0	0	0	0	0	0	0	0	0	0	0
102312	12:37:04	10031	Memory2R3mo	Score2	5	11	12487	0	119	12:37:04	1960194	0	0	0	0	0	0	0	0	0	0	0	0	0	0	0	0	0
102312	12:37:04	10031	Memory2R3mo	Score2	5	22	369	0	119	12:37:04	1960607	0	0	0	0	0	0	0	0	0	0	0	0	0	0	0	0	0
102312	12:37:04	10031	Memory2R3mo	Score2	5	33	284	0	119	12:37:04	1960940	0	0	0	0	0	0	0	0	0	0	0	0	0	0	0	0	0
102312	12:37:04	10031	Memory2R3mo	Score2	5	44	279	0	119	12:37:04	1961273	0	0	0	0	0	0	0	0	0	0	0	0	0	0	0	0	0
102312	12:37:04	10031	Memory2R3mo	Score2	5	55	274	0	119	12:37:04	1961593	0	0	0	0	0	0	0	0	0	0	0	0	0	0	0	0	0
102312	12:37:04	10031	Memory2R3mo	Score2	5	77	537	0	119	12:37:04	1962180	0	0	0	0	0	0	0	0	0	0	0	0	0	0	0	0	0
102312	12:37:04	10031	Memory2R3mo	Score2	5	88	199	0	119	12:37:04	1962433	0	0	0	0	0	0	0	0	0	0	0	0	0	0	0	0	0
102312	12:37:04	10031	Memory2R3mo	Score2	5	Done	9868	0	119	12:37:04	1972362	0	0	0	0	0	0	0	0	0	0	0	0	0	0	0	0	0
102312	12:37:04	10031	Memory3R3mo	Score3	5	111	13933	0	119	12:37:04	2007561	0	0	0	0	0	0	0	0	0	0	0	0	0	0	0	0	0
102312	12:37:04	10031	Memory3R3mo	Score3	5	222	304	0	119	12:37:04	2007921	0	0	0	0	0	0	0	0	0	0	0	0	0	0	0	0	0
102312	12:37:04	10031	Memory3R3mo	Score3	5	333	265	0	119	12:37:04	2008241	0	0	0	0	0	0	0	0	0	0	0	0	0	0	0	0	0
102312	12:37:04	10031	Memory3R3mo	Score3	5	444	305	0	119	12:37:04	2008601	0	0	0	0	0	0	0	0	0	0	0	0	0	0	0	0	0
102312	12:37:04	10031	Memory3R3mo	Score3	5	666	473	0	119	12:37:04	2009120	0	0	0	0	0	0	0	0	0	0	0	0	0	0	0	0	0
102312	12:37:04	10031	Memory3R3mo	Score3	5	777	249	0	119	12:37:04	2009414	0	0	0	0	0	0	0	0	0	0	0	0	0	0	0	0	0
102312	12:37:04	10031	Memory3R3mo	Score3	5	888	284	0	119	12:37:04	2009747	0	0	0	0	0	0	0	0	0	0	0	0	0	0	0	0	0
102312	12:37:04	10031	Memory3R3mo	Score3	5	Done	6918	0	119	12:37:04	2016718	0	0	0	0	0	0	0	0	0	0	0	0	0	0	0	0	0
102312	12:37:04	10031	LoriaEngLH3	Stop	6	9	5594	0	119	12:37:04	2091875	0	0	0	0	0	0	0	0	0	0	0	0	0	0	0	0	0
102312	12:37:04	10031	EngTrail	Trails	7	1Trails	959	0	119	12:37:04	2122621	0	0	0	0	0	0	0	0	0	0	0	0	0	0	0	0	0
102312	12:37:04	10031	Serial7Eng3mo	Serial7Eng3mo	8	83	47308	0	119	12:37:04	2180723	1	0	0	0	0	0	0	0	0	0	0	0	0	0	0	0	0
102312	12:37:04	10031	Serial7Eng3mo	Serial7Eng3mo	8	76	2290	0	119	12:37:04	2183030	2	0	0	0	0	0	0	0	0	0	0	0	0	0	0	0	0
102312	12:37:04	10031	Serial7Eng3mo	Serial7Eng3mo	8	69	3135	0	119	12:37:04	2186189	3	0	0	0	0	0	0	0	0	0	0	0	0	0	0	0	0
102312	12:37:04	10031	Serial7Eng3mo	Serial7Eng3mo	8	62	2672	0	119	12:37:04	2188881	4	0	0	0	0	0	0	0	0	0	0	0	0	0	0	0	0
102312	12:37:04	10031	Serial7Eng3mo	Serial7Eng3mo	8	56	2837	0	119	12:37:04	2191733	4	0	0	0	0	0	0	0	0	0	0	0	0	0	0	0	0
102312	12:37:04	10031	corsiblockEngFwrd	recallseqEngFwrd	9	resetCorsiEng	7137	0	119	12:37:04	2228785	4	0	0	0	0	0	0	0	0	0	0	0	0	0	0	0	0
102312	12:37:04	10031	corsiblockEngFwrd	recallseqEngFwrd	9	resetCorsiEng	1330	0	119	12:37:04	2230171	4	0	0	0	0	0	0	0	0	0	0	0	0	0	0	0	0
102312	12:37:04	10031	corsiblockEngFwrd	recallseqEngFwrd	9	resetCorsiEng	1216	0	119	12:37:04	2231437	4	0	0	0	0	0	0	0	0	0	0	0	0	0	0	0	0
102312	12:37:04	10031	corsiblockEngFwrd	recallseqEngFwrd	9	resetCorsiEng	373	0	119	12:37:04	2231864	4	0	0	0	0	0	0	0	0	0	0	0	0	0	0	0	0
102312	12:37:04	10031	corsiblockEngFwrd	recallseqEngFwrd	9	resetCorsiEng	603	0	119	12:37:04	2232517	4	0	0	0	0	0	0	0	0	0	0	0	0	0	0	0	0
102312	12:37:04	10031	corsiblockEngFwrd	recallseqEngFwrd	9	resetCorsiEng	502	0	119	12:37:04	2233063	4	0	0	0	0	0	0	0	0	0	0	0	0	0	0	0	0
102312	12:37:04	10031	corsiblockEngFwrd	recallseqEngFwrd	9	resetCorsiEng	555	0	119	12:37:04	2233663	4	0	0	0	0	0	0	0	0	0	0	0	0	0	0	0	0
102312	12:37:04	10031	corsiblockEngFwrd	recallseqEngFwrd	9	5	1019	0	119	12:37:04	2234729	4	0	0	0	0	0	0	0	0	0	0	0	0	0	0	0	0
102312	12:37:04	10031	corsiblockEngFwrd	recallseqEngFwrd	9	8	1657	0	119	12:37:04	2236435	4	0	0	0	0	0	0	0	0	0	0	0	0	0	0	0	0
102312	12:37:04	10031	corsiblockEngFwrd	recallseqEngFwrd	9	doneCorsiEng	1375	0	119	12:37:04	2237861	4	0	0	0	0	0	0	0	0	0	0	0	0	0	0	2	0
102312	12:37:04	10031	corsiblockEngFwrd	recallseqEngFwrd	9	9	1525	0	119	12:37:04	2245498	4	0	0	0	0	0	0	0	0	0	0	0	0	0	0	2	0
102312	12:37:04	10031	corsiblockEngFwrd	recallseqEngFwrd	9	6	1224	0	119	12:37:04	2246778	4	0	0	0	0	0	0	0	0	0	0	0	0	0	0	2	0
102312	12:37:04	10031	corsiblockEngFwrd	recallseqEngFwrd	9	3	1104	0	119	12:37:04	2247937	4	0	0	0	0	0	0	0	0	0	0	0	0	0	0	2	0
102312	12:37:04	10031	corsiblockEngFwrd	recallseqEngFwrd	9	doneCorsiEng	1401	0	119	12:37:04	2249390	4	0	0	0	0	0	0	0	0	0	0	0	0	0	0	3	0
102312	12:37:04	10031	corsiblockEngFwrd	recallseqEngFwrd	9	1	1025	0	119	12:37:04	2257560	4	0	0	0	0	0	0	0	0	0	0	0	0	0	0	3	0
102312	12:37:04	10031	corsiblockEngFwrd	recallseqEngFwrd	9	2	626	0	119	12:37:04	2258240	4	0	0	0	0	0	0	0	0	0	0	0	0	0	0	3	0
102312	12:37:04	10031	corsiblockEngFwrd	recallseqEngFwrd	9	4	626	0	119	12:37:04	2258919	4	0	0	0	0	0	0	0	0	0	0	0	0	0	0	3	0
102312	12:37:04	10031	corsiblockEngFwrd	recallseqEngFwrd	9	7	858	0	119	12:37:04	2259826	4	0	0	0	0	0	0	0	0	0	0	0	0	0	0	3	0
102312	12:37:04	10031	corsiblockEngFwrd	recallseqEngFwrd	9	doneCorsiEng	1392	0	119	12:37:04	2261265	4	0	0	0	0	0	0	0	0	0	0	0	0	0	0	4	0
102312	12:37:04	10031	corsiblockEngFwrd	recallseqEngFwrd	9	9	902	0	119	12:37:04	2270301	4	0	0	0	0	0	0	0	0	0	0	0	0	0	0	4	0
102312	12:37:04	10031	corsiblockEngFwrd	recallseqEngFwrd	9	2	732	0	119	12:37:04	2271088	4	0	0	0	0	0	0	0	0	0	0	0	0	0	0	4	0
102312	12:37:04	10031	corsiblockEngFwrd	recallseqEngFwrd	9	3	642	0	119	12:37:04	2271781	4	0	0	0	0	0	0	0	0	0	0	0	0	0	0	4	0
102312	12:37:04	10031	corsiblockEngFwrd	recallseqEngFwrd	9	7	925	0	119	12:37:04	2272754	4	0	0	0	0	0	0	0	0	0	0	0	0	0	0	4	0
102312	12:37:04	10031	corsiblockEngFwrd	recallseqEngFwrd	9	4	632	0	119	12:37:04	2273433	4	0	0	0	0	0	0	0	0	0	0	0	0	0	0	4	0
102312	12:37:04	10031	corsiblockEngFwrd	recallseqEngFwrd	9	doneCorsiEng	1304	0	119	12:37:04	2274793	4	0	0	0	0	0	0	0	0	0	0	0	0	0	0	4	0
102312	12:37:04	10031	corsiblockEngFwrd	recallseqEngFwrd	9	8	779	0	119	12:37:04	2283656	4	0	0	0	0	0	0	0	0	0	0	0	0	0	0	4	0
102312	12:37:04	10031	corsiblockEngFwrd	recallseqEngFwrd	9	1	1233	0	119	12:37:04	2284935	4	0	0	0	0	0	0	0	0	0	0	0	0	0	0	4	0
102312	12:37:04	10031	corsiblockEngFwrd	recallseqEngFwrd	9	5	1082	0	119	12:37:04	2286068	4	0	0	0	0	0	0	0	0	0	0	0	0	0	0	4	0
102312	12:37:04	10031	corsiblockEngFwrd	recallseqEngFwrd	9	6	589	0	119	12:37:04	2286708	4	0	0	0	0	0	0	0	0	0	0	0	0	0	0	4	0
102312	12:37:04	10031	corsiblockEngFwrd	recallseqEngFwrd	9	4	605	0	119	12:37:04	2287361	4	0	0	0	0	0	0	0	0	0	0	0	0	0	0	4	0
102312	12:37:04	10031	corsiblockEngFwrd	recallseqEngFwrd	9	doneCorsiEng	808	0	119	12:37:04	2288214	4	0	0	0	0	0	0	0	0	0	0	0	0	0	0	4	0
102312	12:37:04	10031	corsiblockEngRev	recallseqEngRev	10	2	1703	0	119	12:37:04	2301969	4	0	0	0	0	0	0	0	0	0	0	0	0	0	0	4	0
102312	12:37:04	10031	corsiblockEngRev	recallseqEngRev	10	6	792	0	119	12:37:04	2302808	4	0	0	0	0	0	0	0	0	0	0	0	0	0	0	4	0
102312	12:37:04	10031	corsiblockEngRev	recallseqEngRev	10	doneCorsiEng	960	0	119	12:37:04	2303821	4	0	0	0	0	0	0	0	0	0	0	0	0	0	0	4	2
102312	12:37:04	10031	corsiblockEngRev	recallseqEngRev	10	9	829	0	119	12:37:04	2310778	4	0	0	0	0	0	0	0	0	0	0	0	0	0	0	4	2
102312	12:37:04	10031	corsiblockEngRev	recallseqEngRev	10	3	902	0	119	12:37:04	2311725	4	0	0	0	0	0	0	0	0	0	0	0	0	0	0	4	2
102312	12:37:04	10031	corsiblockEngRev	recallseqEngRev	10	4	524	0	119	12:37:04	2312298	4	0	0	0	0	0	0	0	0	0	0	0	0	0	0	4	2
102312	12:37:04	10031	corsiblockEngRev	recallseqEngRev	10	doneCorsiEng	863	0	119	12:37:04	2313217	4	0	0	0	0	0	0	0	0	0	0	0	0	0	0	4	3
102312	12:37:04	10031	corsiblockEngRev	recallseqEngRev	10	7	762	0	119	12:37:04	2321108	4	0	0	0	0	0	0	0	0	0	0	0	0	0	0	4	3
102312	12:37:04	10031	corsiblockEngRev	recallseqEngRev	10	1	749	0	119	12:37:04	2321907	4	0	0	0	0	0	0	0	0	0	0	0	0	0	0	4	3
102312	12:37:04	10031	corsiblockEngRev	recallseqEngRev	10	5	781	0	119	12:37:04	2322733	4	0	0	0	0	0	0	0	0	0	0	0	0	0	0	4	3
102312	12:37:04	10031	corsiblockEngRev	recallseqEngRev	10	8	786	0	119	12:37:04	2323573	4	0	0	0	0	0	0	0	0	0	0	0	0	0	0	4	3
102312	12:37:04	10031	corsiblockEngRev	recallseqEngRev	10	doneCorsiEng	667	0	119	12:37:04	2324293	4	0	0	0	0	0	0	0	0	0	0	0	0	0	0	4	4
102312	12:37:04	10031	corsiblockEngRev	recallseqEngRev	10	6	1022	0	119	12:37:04	2333449	4	0	0	0	0	0	0	0	0	0	0	0	0	0	0	4	4
102312	12:37:04	10031	corsiblockEngRev	recallseqEngRev	10	3	623	0	119	12:37:04	2334129	4	0	0	0	0	0	0	0	0	0	0	0	0	0	0	4	4
102312	12:37:04	10031	corsiblockEngRev	recallseqEngRev	10	8	727	0	119	12:37:04	2334902	4	0	0	0	0	0	0	0	0	0	0	0	0	0	0	4	4
102312	12:37:04	10031	corsiblockEngRev	recallseqEngRev	10	2	810	0	119	12:37:04	2335768	4	0	0	0	0	0	0	0	0	0	0	0	0	0	0	4	4
102312	12:37:04	10031	corsiblockEngRev	recallseqEngRev	10	5	744	0	119	12:37:04	2336568	4	0	0	0	0	0	0	0	0	0	0	0	0	0	0	4	4
102312	12:37:04	10031	corsiblockEngRev	recallseqEngRev	10	doneCorsiEng	744	0	119	12:37:04	2337368	4	0	0	0	0	0	0	0	0	0	0	0	0	0	0	4	4
102312	12:37:04	10031	corsiblockEngRev	recallseqEngRev	10	6	1211	0	119	12:37:04	2346671	4	0	0	0	0	0	0	0	0	0	0	0	0	0	0	4	4
102312	12:37:04	10031	corsiblockEngRev	recallseqEngRev	10	9	937	0	119	12:37:04	2347657	4	0	0	0	0	0	0	0	0	0	0	0	0	0	0	4	4
102312	12:37:04	10031	corsiblockEngRev	recallseqEngRev	10	7	503	0	119	12:37:04	2348217	4	0	0	0	0	0	0	0	0	0	0	0	0	0	0	4	4
102312	12:37:04	10031	corsiblockEngRev	recallseqEngRev	10	4	1535	0	119	12:37:04	2349802	4	0	0	0	0	0	0	0	0	0	0	0	0	0	0	4	4
102312	12:37:04	10031	corsiblockEngRev	recallseqEngRev	10	1	757	0	119	12:37:04	2350616	4	0	0	0	0	0	0	0	0	0	0	0	0	0	0	4	4
102312	12:37:04	10031	corsiblockEngRev	recallseqEngRev	10	doneCorsiEng	1304	0	119	12:37:04	2351975	4	0	0	0	0	0	0	0	0	0	0	0	0	0	0	4	4
102312	12:37:04	10031	testEng3mo	WordsEng3mo	11	1Eng3mo	2285	0	119	12:37:04	2379151	4	3	0	0	0	0	0	0	0	0	0	0	0	0	0	4	4
102312	12:37:04	10031	testEng3mo	WordsEng3mo	11	2Eng3mo	585	0	119	12:37:04	2379791	4	3	3	0	0	0	0	0	0	0	0	0	0	0	0	4	4
102312	12:37:04	10031	testEng3mo	WordsEng3mo	11	3Eng3mo	1537	0	119	12:37:04	2381376	4	3	3	3	0	0	0	0	0	0	0	0	0	0	0	4	4
102312	12:37:04	10031	testEng3mo	WordsEng3mo	11	4Eng3mo	183	0	119	12:37:04	2381603	4	3	3	3	3	0	0	0	0	0	0	0	0	0	0	4	4
102312	12:37:04	10031	testEng3mo	WordsEng3mo	11	6Eng3mo	2532	0	119	12:37:04	2384189	4	3	3	3	3	0	3	0	0	0	0	0	0	0	0	4	4
102312	12:37:04	10031	testEng3mo	WordsEng3mo	11	7Eng3mo	275	0	119	12:37:04	2384509	4	3	3	3	3	0	3	3	0	0	0	0	0	0	0	4	4
102312	12:37:04	10031	testEng3mo	WordsEng3mo	11	DoneEng3mo	563	0	119	12:37:04	2385122	4	3	3	3	3	0	3	3	0	0	0	0	0	0	0	4	4
102312	12:37:04	10031	testEng3mo	Cat5Eng3mo	11	R5Eng3mo	3694	0	119	12:37:04	2388866	4	3	3	3	3	2	3	3	0	0	0	0	0	0	0	4	4
102312	12:37:04	10031	testEng3mo	Cat8Eng3mo	11	W8Eng3mo	9850	0	119	12:37:04	2398756	4	3	3	3	3	2	3	3	0	0	0	0	0	0	0	4	4
102312	12:37:04	10031	testEng3mo	Ch8Eng3mo	11	RR8Eng3mo	12600	0	119	12:37:04	2411391	4	3	3	3	3	2	3	3	1	0	0	0	0	0	0	4	4
102312	12:37:04	10031	DigitSpanFwrdEng3mo	Score1FwrdEng3mo	12	DS1	2916	0	119	12:37:04	2428810	4	3	3	3	3	2	3	3	1	0	0	0	0	0	0	4	4
102312	12:37:04	10031	DigitSpanFwrdEng3mo	Gate1FwrdEng3mo	12	0	1	0	119	12:37:04	2428815	4	3	3	3	3	2	3	3	1	3	0	0	0	0	0	4	4
102312	12:37:04	10031	DigitSpanFwrdEng3mo	Score2FwrdEng3mo	12	DS1	3855	0	119	12:37:04	2439233	4	3	3	3	3	2	3	3	1	3	0	0	0	0	0	4	4
102312	12:37:04	10031	DigitSpanFwrdEng3mo	Gate3FwrdEng3mo	12	0	1	0	119	12:37:04	2439238	4	3	3	3	3	2	3	3	1	4	0	0	0	0	0	4	4
102312	12:37:04	10031	DigitSpanFwrdEng3mo	Score3FwrdEng3mo	12	DS1	4750	0	119	12:37:04	2452014	4	3	3	3	3	2	3	3	1	4	0	0	0	0	0	4	4
102312	12:37:04	10031	DigitSpanFwrdEng3mo	Gate5FwrdEng3mo	12	0	1	0	119	12:37:04	2452019	4	3	3	3	3	2	3	3	1	5	0	0	0	0	0	4	4
102312	12:37:04	10031	DigitSpanFwrdEng3mo	Score4FwrdEng3mo	12	DS2	5724	0	119	12:37:04	2467261	4	3	3	3	3	2	3	3	1	5	0	0	0	0	0	4	4
102312	12:37:04	10031	DigitSpanFwrdEng3mo	Gate7FwrdEng3mo	12	0	1	0	119	12:37:04	2467266	4	3	3	3	3	2	3	3	1	5	0	0	0	0	0	4	4
102312	12:37:04	10031	DigitSpanFwrdEng3mo	Score44FwrdEng3mo	12	DS2	8132	0	119	12:37:04	2485001	4	3	3	3	3	2	3	3	1	5	0	0	0	0	0	4	4
102312	12:37:04	10031	DigitSpanEng3mo	Score1Eng3mo	13	DS1	2916	0	119	12:37:04	2500608	4	3	3	3	3	2	3	3	1	5	0	0	0	0	0	4	4
102312	12:37:04	10031	DigitSpanEng3mo	Gate1Eng3mo	13	0	1	0	119	12:37:04	2500613	4	3	3	3	3	2	3	3	1	5	2	0	0	0	0	4	4
102312	12:37:04	10031	DigitSpanEng3mo	Score2Eng3mo	13	DS1	3850	0	119	12:37:04	2509404	4	3	3	3	3	2	3	3	1	5	2	0	0	0	0	4	4
102312	12:37:04	10031	DigitSpanEng3mo	Gate3Eng3mo	13	0	1	0	119	12:37:04	2509409	4	3	3	3	3	2	3	3	1	5	3	0	0	0	0	4	4
102312	12:37:04	10031	DigitSpanEng3mo	Score3Eng3mo	13	DS1	6904	0	119	12:37:04	2522906	4	3	3	3	3	2	3	3	1	5	3	0	0	0	0	4	4
102312	12:37:04	10031	DigitSpanEng3mo	Gate5Eng3mo	13	0	1	0	119	12:37:04	2522910	4	3	3	3	3	2	3	3	1	5	4	0	0	0	0	4	4
102312	12:37:04	10031	DigitSpanEng3mo	Score4Eng3mo	13	DS1	7483	0	119	12:37:04	2538419	4	3	3	3	3	2	3	3	1	5	4	0	0	0	0	4	4
102312	12:37:04	10031	DigitSpanEng3mo	Gate7Eng3mo	13	0	1	0	119	12:37:04	2538424	4	3	3	3	3	2	3	3	1	5	5	0	0	0	0	4	4
102312	12:37:04	10031	DigitSpanEng3mo	Score5Eng3mo	13	DS2	15028	0	119	12:37:04	2562969	4	3	3	3	3	2	3	3	1	5	5	0	0	0	0	4	4
102312	12:37:04	10031	DigitSpanEng3mo	Gate9Eng3mo	13	0	1	0	119	12:37:04	2562974	4	3	3	3	3	2	3	3	1	5	5	0	0	0	0	4	4
102312	12:37:04	10031	DigitSpanEng3mo	Score55Eng3mo	13	DS2	6414	0	119	12:37:04	2578990	4	3	3	3	3	2	3	3	1	5	5	0	0	0	0	4	4
102312	12:37:04	10031	Trial	ResponseIL	14	0	175	0	119	12:37:04	2631262	4	3	3	3	3	2	3	3	1	5	5	0	0	0	0	4	4
102312	12:37:04	10031	Trial	IncongruentLeft	14	205	243	0	119	12:37:04	2631541	4	3	3	3	3	2	3	3	1	5	5	0	0	0	0	4	4
102312	12:37:04	10031	Trial	ResponseCR	14	0	175	0	119	12:37:04	2632968	4	3	3	3	3	2	3	3	1	5	5	0	0	0	0	4	4
102312	12:37:04	10031	Trial	CongruentRight	14	205	246	1	119	12:37:04	2633234	4	3	3	3	3	2	3	3	1	5	5	0	0	0	0	4	4
102312	12:37:04	10031	Trial	ResponseIR	14	0	175	0	119	12:37:04	2634674	4	3	3	3	3	2	3	3	1	5	5	0	0	0	0	4	4
102312	12:37:04	10031	Trial	IncongruentRight	14	203	156	0	119	12:37:04	2634847	4	3	3	3	3	2	3	3	1	5	5	0	0	0	0	4	4
102312	12:37:04	10031	Trial	ResponseCL	14	0	175	0	119	12:37:04	2636380	4	3	3	3	3	2	3	3	1	5	5	0	0	0	0	4	4
102312	12:37:04	10031	Trial	CongruentLeft	14	203	226	1	119	12:37:04	2636633	4	3	3	3	3	2	3	3	1	5	5	0	0	0	0	4	4
102312	12:37:04	10031	Trial	ResponseCR	14	0	175	0	119	12:37:04	2638086	4	3	3	3	3	2	3	3	1	5	5	0	0	0	0	4	4
102312	12:37:04	10031	Trial	CongruentRight	14	205	280	1	119	12:37:04	2638392	4	3	3	3	3	2	3	3	1	5	5	0	0	0	0	4	4
102312	12:37:04	10031	Trial	ResponseIR	14	0	175	0	119	12:37:04	2639792	4	3	3	3	3	2	3	3	1	5	5	0	0	0	0	4	4
102312	12:37:04	10031	Trial	IncongruentRight	14	203	189	0	119	12:37:04	2640005	4	3	3	3	3	2	3	3	1	5	5	0	0	0	0	4	4
102312	12:37:04	10031	Trial	ResponseCL	14	0	175	0	119	12:37:04	2641497	4	3	3	3	3	2	3	3	1	5	5	0	0	0	0	4	4
102312	12:37:04	10031	Trial	CongruentLeft	14	203	196	1	119	12:37:04	2641711	4	3	3	3	3	2	3	3	1	5	5	0	0	0	0	4	4
102312	12:37:04	10031	Trial	ResponseIL	14	0	175	0	119	12:37:04	2643203	4	3	3	3	3	2	3	3	1	5	5	0	0	0	0	4	4
102312	12:37:04	10031	Trial	IncongruentLeft	14	203	346	1	119	12:37:04	2643577	4	3	3	3	3	2	3	3	1	5	5	0	0	0	0	4	4
102312	12:37:04	10031	Trial	ResponseIL	14	0	175	0	119	12:37:04	2644909	4	3	3	3	3	2	3	3	1	5	5	0	0	0	0	4	4
102312	12:37:04	10031	Trial	IncongruentLeft	14	203	351	1	119	12:37:04	2645283	4	3	3	3	3	2	3	3	1	5	5	0	0	0	0	4	4
102312	12:37:04	10031	Trial	ResponseCR	14	0	175	0	119	12:37:04	2646615	4	3	3	3	3	2	3	3	1	5	5	0	0	0	0	4	4
102312	12:37:04	10031	Trial	CongruentRight	14	205	246	1	119	12:37:04	2646882	4	3	3	3	3	2	3	3	1	5	5	0	0	0	0	4	4
102312	12:37:04	10031	Trial	ResponseIR	14	0	175	0	119	12:37:04	2648321	4	3	3	3	3	2	3	3	1	5	5	0	0	0	0	4	4
102312	12:37:04	10031	Trial	IncongruentRight	14	203	204	0	119	12:37:04	2648548	4	3	3	3	3	2	3	3	1	5	5	0	0	0	0	4	4
102312	12:37:04	10031	Trial	ResponseCL	14	0	175	0	119	12:37:04	2650028	4	3	3	3	3	2	3	3	1	5	5	0	0	0	0	4	4
102312	12:37:04	10031	Trial	CongruentLeft	14	203	225	1	119	12:37:04	2650281	4	3	3	3	3	2	3	3	1	5	5	0	0	0	0	4	4
102312	12:37:04	10031	Trial	ResponseCR	14	0	175	0	119	12:37:04	2651733	4	3	3	3	3	2	3	3	1	5	5	0	0	0	0	4	4
102312	12:37:04	10031	Trial	CongruentRight	14	205	215	1	119	12:37:04	2651973	4	3	3	3	3	2	3	3	1	5	5	0	0	0	0	4	4
102312	12:37:04	10031	Trial	ResponseIL	14	0	175	0	119	12:37:04	2653439	4	3	3	3	3	2	3	3	1	5	5	0	0	0	0	4	4
102312	12:37:04	10031	Trial	IncongruentLeft	14	203	222	1	119	12:37:04	2653679	4	3	3	3	3	2	3	3	1	5	5	0	0	0	0	4	4
102312	12:37:04	10031	Trial	ResponseIR	14	0	175	0	119	12:37:04	2655145	4	3	3	3	3	2	3	3	1	5	5	0	0	0	0	4	4
102312	12:37:04	10031	Trial	IncongruentRight	14	203	195	0	119	12:37:04	2655358	4	3	3	3	3	2	3	3	1	5	5	0	0	0	0	4	4
102312	12:37:04	10031	Trial	ResponseCR	14	0	175	0	119	12:37:04	2656851	4	3	3	3	3	2	3	3	1	5	5	0	0	0	0	4	4
102312	12:37:04	10031	Trial	CongruentRight	14	205	169	1	119	12:37:04	2657038	4	3	3	3	3	2	3	3	1	5	5	0	0	0	0	4	4
102312	12:37:04	10031	Trial	ResponseCL	14	0	175	0	119	12:37:04	2658557	4	3	3	3	3	2	3	3	1	5	5	0	0	0	0	4	4
102312	12:37:04	10031	Trial	CongruentLeft	14	203	224	1	119	12:37:04	2658797	4	3	3	3	3	2	3	3	1	5	5	0	0	0	0	4	4
102312	12:37:04	10031	Trial	ResponseCR	14	0	175	0	119	12:37:04	2660264	4	3	3	3	3	2	3	3	1	5	5	0	0	0	0	4	4
102312	12:37:04	10031	Trial	CongruentRight	14	205	181	1	119	12:37:04	2660463	4	3	3	3	3	2	3	3	1	5	5	0	0	0	0	4	4
102312	12:37:04	10031	Trial	ResponseIR	14	0	175	0	119	12:37:04	2661969	4	3	3	3	3	2	3	3	1	5	5	0	0	0	0	4	4
102312	12:37:04	10031	Trial	IncongruentRight	14	203	155	0	119	12:37:04	2662142	4	3	3	3	3	2	3	3	1	5	5	0	0	0	0	4	4
102312	12:37:04	10031	Trial	ResponseIL	14	0	175	0	119	12:37:04	2663675	4	3	3	3	3	2	3	3	1	5	5	0	0	0	0	4	4
102312	12:37:04	10031	Trial	IncongruentLeft	14	203	257	1	119	12:37:04	2663955	4	3	3	3	3	2	3	3	1	5	5	0	0	0	0	4	4
102312	12:37:04	10031	Trial	ResponseIL	14	0	175	0	119	12:37:04	2665381	4	3	3	3	3	2	3	3	1	5	5	0	0	0	0	4	4
102312	12:37:04	10031	Trial	IncongruentLeft	14	205	183	0	119	12:37:04	2665581	4	3	3	3	3	2	3	3	1	5	5	0	0	0	0	4	4
102312	12:37:04	10031	Trial	ResponseCL	14	0	175	0	119	12:37:04	2667087	4	3	3	3	3	2	3	3	1	5	5	0	0	0	0	4	4
102312	12:37:04	10031	Trial	CongruentLeft	14	203	189	1	119	12:37:04	2667300	4	3	3	3	3	2	3	3	1	5	5	0	0	0	0	4	4
102312	12:37:04	10031	Trial	ResponseCR	14	0	175	0	119	12:37:04	2668793	4	3	3	3	3	2	3	3	1	5	5	0	0	0	0	4	4
102312	12:37:04	10031	Trial	CongruentRight	14	205	308	1	119	12:37:04	2669126	4	3	3	3	3	2	3	3	1	5	5	0	0	0	0	4	4
102312	12:37:04	10031	Trial	ResponseIL	14	0	175	0	119	12:37:04	2670499	4	3	3	3	3	2	3	3	1	5	5	0	0	0	0	4	4
102312	12:37:04	10031	Trial	IncongruentLeft	14	203	345	1	119	12:37:04	2670872	4	3	3	3	3	2	3	3	1	5	5	0	0	0	0	4	4
102312	12:37:04	10031	Trial	ResponseIR	14	0	175	0	119	12:37:04	2672205	4	3	3	3	3	2	3	3	1	5	5	0	0	0	0	4	4
102312	12:37:04	10031	Trial	IncongruentRight	14	205	256	1	119	12:37:04	2672485	4	3	3	3	3	2	3	3	1	5	5	0	0	0	0	4	4
102312	12:37:04	10031	Trial	ResponseCR	14	0	175	0	119	12:37:04	2673911	4	3	3	3	3	2	3	3	1	5	5	0	0	0	0	4	4
102312	12:37:04	10031	Trial	CongruentRight	14	205	245	1	119	12:37:04	2674177	4	3	3	3	3	2	3	3	1	5	5	0	0	0	0	4	4
102312	12:37:04	10031	Trial	ResponseCL	14	0	175	0	119	12:37:04	2675617	4	3	3	3	3	2	3	3	1	5	5	0	0	0	0	4	4
102312	12:37:04	10031	Trial	CongruentLeft	14	203	203	1	119	12:37:04	2675844	4	3	3	3	3	2	3	3	1	5	5	0	0	0	0	4	4
102312	12:37:04	10031	Trial	ResponseIR	14	0	175	0	119	12:37:04	2677323	4	3	3	3	3	2	3	3	1	5	5	0	0	0	0	4	4
102312	12:37:04	10031	Trial	IncongruentRight	14	203	210	0	119	12:37:04	2677549	4	3	3	3	3	2	3	3	1	5	5	0	0	0	0	4	4
102312	12:37:04	10031	Trial	ResponseIL	14	0	175	0	119	12:37:04	2679029	4	3	3	3	3	2	3	3	1	5	5	0	0	0	0	4	4
102312	12:37:04	10031	Trial	IncongruentLeft	14	205	183	0	119	12:37:04	2679229	4	3	3	3	3	2	3	3	1	5	5	0	0	0	0	4	4
102312	12:37:04	10031	Trial	ResponseIR	14	0	175	0	119	12:37:04	2680735	4	3	3	3	3	2	3	3	1	5	5	0	0	0	0	4	4
102312	12:37:04	10031	Trial	IncongruentRight	14	205	317	1	119	12:37:04	2681082	4	3	3	3	3	2	3	3	1	5	5	0	0	0	0	4	4
102312	12:37:04	10031	Trial	ResponseCR	14	0	175	0	119	12:37:04	2682441	4	3	3	3	3	2	3	3	1	5	5	0	0	0	0	4	4
102312	12:37:04	10031	Trial	CongruentRight	14	205	211	1	119	12:37:04	2682681	4	3	3	3	3	2	3	3	1	5	5	0	0	0	0	4	4
102312	12:37:04	10031	Trial	ResponseIL	14	0	175	0	119	12:37:04	2684147	4	3	3	3	3	2	3	3	1	5	5	0	0	0	0	4	4
102312	12:37:04	10031	Trial	IncongruentLeft	14	203	265	1	119	12:37:04	2684440	4	3	3	3	3	2	3	3	1	5	5	0	0	0	0	4	4
102312	12:37:04	10031	Trial	ResponseCL	14	0	175	0	119	12:37:04	2685853	4	3	3	3	3	2	3	3	1	5	5	0	0	0	0	4	4
102312	12:37:04	10031	Trial	CongruentLeft	14	203	239	1	119	12:37:04	2686119	4	3	3	3	3	2	3	3	1	5	5	0	0	0	0	4	4
102312	12:37:04	10031	Trial	ResponseCR	14	0	175	0	119	12:37:04	2687559	4	3	3	3	3	2	3	3	1	5	5	0	0	0	0	4	4
102312	12:37:04	10031	Trial	CongruentRight	14	205	197	1	119	12:37:04	2687785	4	3	3	3	3	2	3	3	1	5	5	0	0	0	0	4	4
102312	12:37:04	10031	Trial	ResponseIL	14	0	175	0	119	12:37:04	2689265	4	3	3	3	3	2	3	3	1	5	5	0	0	0	0	4	4
102312	12:37:04	10031	Trial	IncongruentLeft	14	203	235	1	119	12:37:04	2689518	4	3	3	3	3	2	3	3	1	5	5	0	0	0	0	4	4
102312	12:37:04	10031	Trial	ResponseIR	14	0	175	0	119	12:37:04	2690971	4	3	3	3	3	2	3	3	1	5	5	0	0	0	0	4	4
102312	12:37:04	10031	Trial	IncongruentRight	14	203	113	0	119	12:37:04	2691104	4	3	3	3	3	2	3	3	1	5	5	0	0	0	0	4	4
102312	12:37:04	10031	Trial	ResponseIR	14	0	175	0	119	12:37:04	2692677	4	3	3	3	3	2	3	3	1	5	5	0	0	0	0	4	4
102312	12:37:04	10031	Trial	IncongruentRight	14	203	202	0	119	12:37:04	2692917	4	3	3	3	3	2	3	3	1	5	5	0	0	0	0	4	4
102312	12:37:04	10031	Trial	ResponseCL	14	0	175	0	119	12:37:04	2694383	4	3	3	3	3	2	3	3	1	5	5	0	0	0	0	4	4
102312	12:37:04	10031	Trial	CongruentLeft	14	203	221	1	119	12:37:04	2694623	4	3	3	3	3	2	3	3	1	5	5	0	0	0	0	4	4
102312	12:37:04	10031	Trial	ResponseIL	14	0	175	0	119	12:37:04	2696089	4	3	3	3	3	2	3	3	1	5	5	0	0	0	0	4	4
102312	12:37:04	10031	Trial	IncongruentLeft	14	205	180	0	119	12:37:04	2696289	4	3	3	3	3	2	3	3	1	5	5	0	0	0	0	4	4
102312	12:37:04	10031	Trial	ResponseCR	14	0	175	0	119	12:37:04	2697795	4	3	3	3	3	2	3	3	1	5	5	0	0	0	0	4	4
102312	12:37:04	10031	Trial	CongruentRight	14	205	313	1	119	12:37:04	2698128	4	3	3	3	3	2	3	3	1	5	5	0	0	0	0	4	4
102312	12:37:04	10031	Trial	ResponseCL	14	0	175	0	119	12:37:04	2699501	4	3	3	3	3	2	3	3	1	5	5	0	0	0	0	4	4
102312	12:37:04	10031	Trial	CongruentLeft	14	203	223	1	119	12:37:04	2699740	4	3	3	3	3	2	3	3	1	5	5	0	0	0	0	4	4
102312	12:37:04	10031	Trial	ResponseIR	14	0	175	0	119	12:37:04	2701207	4	3	3	3	3	2	3	3	1	5	5	0	0	0	0	4	4
102312	12:37:04	10031	Trial	IncongruentRight	14	205	312	1	119	12:37:04	2701553	4	3	3	3	3	2	3	3	1	5	5	0	0	0	0	4	4
102312	12:37:04	10031	Trial	ResponseCR	14	0	175	0	119	12:37:04	2702926	4	3	3	3	3	2	3	3	1	5	5	0	0	0	0	4	4
102312	12:37:04	10031	Trial	CongruentRight	14	205	366	1	119	12:37:04	2703313	4	3	3	3	3	2	3	3	1	5	5	0	0	0	0	4	4
102312	12:37:04	10031	Trial	ResponseIL	14	0	175	0	119	12:37:04	2704632	4	3	3	3	3	2	3	3	1	5	5	0	0	0	0	4	4
102312	12:37:04	10031	Trial	IncongruentLeft	14	203	196	1	119	12:37:04	2704845	4	3	3	3	3	2	3	3	1	5	5	0	0	0	0	4	4
102312	12:37:04	10031	Trial	ResponseCL	14	0	175	0	119	12:37:04	2706338	4	3	3	3	3	2	3	3	1	5	5	0	0	0	0	4	4
102312	12:37:04	10031	Trial	CongruentLeft	14	203	186	1	119	12:37:04	2706551	4	3	3	3	3	2	3	3	1	5	5	0	0	0	0	4	4
102312	12:37:04	10031	Trial	ResponseIL	14	0	175	0	119	12:37:04	2708044	4	3	3	3	3	2	3	3	1	5	5	0	0	0	0	4	4
102312	12:37:04	10031	Trial	IncongruentLeft	14	203	352	1	119	12:37:04	2708417	4	3	3	3	3	2	3	3	1	5	5	0	0	0	0	4	4
102312	12:37:04	10031	Trial	ResponseIR	14	0	175	0	119	12:37:04	2709750	4	3	3	3	3	2	3	3	1	5	5	0	0	0	0	4	4
102312	12:37:04	10031	Trial	IncongruentRight	14	205	345	1	119	12:37:04	2710136	4	3	3	3	3	2	3	3	1	5	5	0	0	0	0	4	4
102312	12:37:04	10031	Trial	ResponseCR	14	0	175	0	119	12:37:04	2711469	4	3	3	3	3	2	3	3	1	5	5	0	0	0	0	4	4
102312	12:37:04	10031	Trial	CongruentRight	14	205	222	1	119	12:37:04	2711709	4	3	3	3	3	2	3	3	1	5	5	0	0	0	0	4	4
102312	12:37:04	10031	Trial	ResponseCL	14	0	175	0	119	12:37:04	2713175	4	3	3	3	3	2	3	3	1	5	5	0	0	0	0	4	4
102312	12:37:04	10031	Trial	CongruentLeft	14	203	212	1	119	12:37:04	2713415	4	3	3	3	3	2	3	3	1	5	5	0	0	0	0	4	4
102312	12:37:04	10031	Trial	ResponseCL	14	0	175	0	119	12:37:04	2714881	4	3	3	3	3	2	3	3	1	5	5	0	0	0	0	4	4
102312	12:37:04	10031	Trial	CongruentLeft	14	203	170	1	119	12:37:04	2715068	4	3	3	3	3	2	3	3	1	5	5	0	0	0	0	4	4
102312	12:37:04	10031	Trial	ResponseIR	14	0	175	0	119	12:37:04	2716587	4	3	3	3	3	2	3	3	1	5	5	0	0	0	0	4	4
102312	12:37:04	10031	Trial	IncongruentRight	14	205	304	1	119	12:37:04	2716920	4	3	3	3	3	2	3	3	1	5	5	0	0	0	0	4	4
102312	12:37:04	10031	Trial	ResponseIL	14	0	175	0	119	12:37:04	2718294	4	3	3	3	3	2	3	3	1	5	5	0	0	0	0	4	4
102312	12:37:04	10031	Trial	IncongruentLeft	14	203	231	1	119	12:37:04	2718546	4	3	3	3	3	2	3	3	1	5	5	0	0	0	0	4	4
102312	12:37:04	10031	Trial	ResponseIR	14	0	175	0	119	12:37:04	2719999	4	3	3	3	3	2	3	3	1	5	5	0	0	0	0	4	4
102312	12:37:04	10031	Trial	IncongruentRight	14	205	253	1	119	12:37:04	2720279	4	3	3	3	3	2	3	3	1	5	5	0	0	0	0	4	4
102312	12:37:04	10031	Trial	ResponseCR	14	0	175	0	119	12:37:04	2721705	4	3	3	3	3	2	3	3	1	5	5	0	0	0	0	4	4
102312	12:37:04	10031	Trial	CongruentRight	14	205	226	1	119	12:37:04	2721958	4	3	3	3	3	2	3	3	1	5	5	0	0	0	0	4	4
102312	12:37:04	10031	Trial	ResponseCR	14	0	175	0	119	12:37:04	2723411	4	3	3	3	3	2	3	3	1	5	5	0	0	0	0	4	4
102312	12:37:04	10031	Trial	CongruentRight	14	205	280	1	119	12:37:04	2723718	4	3	3	3	3	2	3	3	1	5	5	0	0	0	0	4	4
102312	12:37:04	10031	Trial	ResponseIL	14	0	175	0	119	12:37:04	2725117	4	3	3	3	3	2	3	3	1	5	5	0	0	0	0	4	4
102312	12:37:04	10031	Trial	IncongruentLeft	14	203	270	1	119	12:37:04	2725410	4	3	3	3	3	2	3	3	1	5	5	0	0	0	0	4	4
102312	12:37:04	10031	Trial	ResponseCL	14	0	175	0	119	12:37:04	2726823	4	3	3	3	3	2	3	3	1	5	5	0	0	0	0	4	4
102312	12:37:04	10031	Trial	CongruentLeft	14	203	196	1	119	12:37:04	2727036	4	3	3	3	3	2	3	3	1	5	5	0	0	0	0	4	4
102312	12:37:04	10031	Trial	ResponseCR	14	0	175	0	119	12:37:04	2728529	4	3	3	3	3	2	3	3	1	5	5	0	0	0	0	4	4
102312	12:37:04	10031	Trial	CongruentRight	14	205	202	1	119	12:37:04	2728756	4	3	3	3	3	2	3	3	1	5	5	0	0	0	0	4	4
102312	12:37:04	10031	Trial	ResponseCL	14	0	175	0	119	12:37:04	2730235	4	3	3	3	3	2	3	3	1	5	5	0	0	0	0	4	4
102312	12:37:04	10031	Trial	CongruentLeft	14	203	208	1	119	12:37:04	2730461	4	3	3	3	3	2	3	3	1	5	5	0	0	0	0	4	4
102312	12:37:04	10031	Trial	ResponseIR	14	0	175	0	119	12:37:04	2731941	4	3	3	3	3	2	3	3	1	5	5	0	0	0	0	4	4
102312	12:37:04	10031	Trial	IncongruentRight	14	203	253	0	119	12:37:04	2732221	4	3	3	3	3	2	3	3	1	5	5	0	0	0	0	4	4
102312	12:37:04	10031	Trial	ResponseCR	14	0	175	0	119	12:37:04	2733647	4	3	3	3	3	2	3	3	1	5	5	0	0	0	0	4	4
102312	12:37:04	10031	Trial	CongruentRight	14	205	348	1	119	12:37:04	2734020	4	3	3	3	3	2	3	3	1	5	5	0	0	0	0	4	4
102312	12:37:04	10031	Trial	ResponseCL	14	0	175	0	119	12:37:04	2735353	4	3	3	3	3	2	3	3	1	5	5	0	0	0	0	4	4
102312	12:37:04	10031	Trial	CongruentLeft	14	203	258	1	119	12:37:04	2735633	4	3	3	3	3	2	3	3	1	5	5	0	0	0	0	4	4
102312	12:37:04	10031	Trial	ResponseIL	14	0	175	0	119	12:37:04	2737059	4	3	3	3	3	2	3	3	1	5	5	0	0	0	0	4	4
102312	12:37:04	10031	Trial	IncongruentLeft	14	203	312	1	119	12:37:04	2737392	4	3	3	3	3	2	3	3	1	5	5	0	0	0	0	4	4
102312	12:37:04	10031	Trial	ResponseIL	14	0	175	0	119	12:37:04	2738765	4	3	3	3	3	2	3	3	1	5	5	0	0	0	0	4	4
102312	12:37:04	10031	Trial	IncongruentLeft	14	205	222	0	119	12:37:04	2739005	4	3	3	3	3	2	3	3	1	5	5	0	0	0	0	4	4
102312	12:37:04	10031	Trial	ResponseCR	14	0	175	0	119	12:37:04	2740471	4	3	3	3	3	2	3	3	1	5	5	0	0	0	0	4	4
102312	12:37:04	10031	Trial	CongruentRight	14	205	260	1	119	12:37:04	2740751	4	3	3	3	3	2	3	3	1	5	5	0	0	0	0	4	4
102312	12:37:04	10031	Trial	ResponseIR	14	0	175	0	119	12:37:04	2742177	4	3	3	3	3	2	3	3	1	5	5	0	0	0	0	4	4
102312	12:37:04	10031	Trial	IncongruentRight	14	203	202	0	119	12:37:04	2742404	4	3	3	3	3	2	3	3	1	5	5	0	0	0	0	4	4
102312	12:37:04	10031	Trial	ResponseCL	14	0	175	0	119	12:37:04	2743883	4	3	3	3	3	2	3	3	1	5	5	0	0	0	0	4	4
102312	12:37:04	10031	Trial	CongruentLeft	14	203	176	1	119	12:37:04	2744083	4	3	3	3	3	2	3	3	1	5	5	0	0	0	0	4	4
102312	12:37:04	10031	Trial	ResponseIR	14	0	175	0	119	12:37:04	2745589	4	3	3	3	3	2	3	3	1	5	5	0	0	0	0	4	4
102312	12:37:04	10031	Trial	IncongruentRight	14	205	326	1	119	12:37:04	2745935	4	3	3	3	3	2	3	3	1	5	5	0	0	0	0	4	4
102312	12:37:04	10031	Trial	ResponseCR	14	0	175	0	119	12:37:04	2747295	4	3	3	3	3	2	3	3	1	5	5	0	0	0	0	4	4
102312	12:37:04	10031	Trial	CongruentRight	14	205	236	1	119	12:37:04	2747548	4	3	3	3	3	2	3	3	1	5	5	0	0	0	0	4	4
102312	12:37:04	10031	Trial	ResponseIL	14	0	175	0	119	12:37:04	2749001	4	3	3	3	3	2	3	3	1	5	5	0	0	0	0	4	4
102312	12:37:04	10031	Trial	IncongruentLeft	14	203	322	1	119	12:37:04	2749347	4	3	3	3	3	2	3	3	1	5	5	0	0	0	0	4	4
102312	12:37:04	10031	Trial	ResponseCL	14	0	175	0	119	12:37:04	2750707	4	3	3	3	3	2	3	3	1	5	5	0	0	0	0	4	4
102312	12:37:04	10031	Trial	CongruentLeft	14	203	280	1	119	12:37:04	2751013	4	3	3	3	3	2	3	3	1	5	5	0	0	0	0	4	4
102312	12:37:04	10031	Trial	ResponseCR	14	0	175	0	119	12:37:04	2752413	4	3	3	3	3	2	3	3	1	5	5	0	0	0	0	4	4
102312	12:37:04	10031	Trial	CongruentRight	14	205	206	1	119	12:37:04	2752639	4	3	3	3	3	2	3	3	1	5	5	0	0	0	0	4	4
102312	12:37:04	10031	Trial	ResponseIL	14	0	175	0	119	12:37:04	2754119	4	3	3	3	3	2	3	3	1	5	5	0	0	0	0	4	4
102312	12:37:04	10031	Trial	IncongruentLeft	14	203	244	1	119	12:37:04	2754385	4	3	3	3	3	2	3	3	1	5	5	0	0	0	0	4	4
102312	12:37:04	10031	Trial	ResponseCR	14	0	175	0	119	12:37:04	2755825	4	3	3	3	3	2	3	3	1	5	5	0	0	0	0	4	4
102312	12:37:04	10031	Trial	CongruentRight	14	203	362	0	119	12:37:04	2756211	4	3	3	3	3	2	3	3	1	5	5	0	0	0	0	4	4
102312	12:37:04	10031	Trial	ResponseCR	14	0	175	0	119	12:37:04	2757531	4	3	3	3	3	2	3	3	1	5	5	0	0	0	0	4	4
102312	12:37:04	10031	Trial	CongruentRight	14	205	224	1	119	12:37:04	2757784	4	3	3	3	3	2	3	3	1	5	5	0	0	0	0	4	4
102312	12:37:04	10031	Trial	ResponseIR	14	0	175	0	119	12:37:04	2759237	4	3	3	3	3	2	3	3	1	5	5	0	0	0	0	4	4
102312	12:37:04	10031	Trial	IncongruentRight	14	203	262	0	119	12:37:04	2759517	4	3	3	3	3	2	3	3	1	5	5	0	0	0	0	4	4
102312	12:37:04	10031	Trial	ResponseCL	14	0	175	0	119	12:37:04	2760943	4	3	3	3	3	2	3	3	1	5	5	0	0	0	0	4	4
102312	12:37:04	10031	Trial	CongruentLeft	14	203	236	1	119	12:37:04	2761196	4	3	3	3	3	2	3	3	1	5	5	0	0	0	0	4	4
102312	12:37:04	10031	Trial	ResponseIL	14	0	175	0	119	12:37:04	2762649	4	3	3	3	3	2	3	3	1	5	5	0	0	0	0	4	4
102312	12:37:04	10031	Trial	IncongruentLeft	14	203	242	1	119	12:37:04	2762915	4	3	3	3	3	2	3	3	1	5	5	0	0	0	0	4	4
102312	12:37:04	10031	Trial	ResponseCL	14	0	175	0	119	12:37:04	2764355	4	3	3	3	3	2	3	3	1	5	5	0	0	0	0	4	4
102312	12:37:04	10031	Trial	CongruentLeft	14	203	123	1	119	12:37:04	2764515	4	3	3	3	3	2	3	3	1	5	5	0	0	0	0	4	4
102312	12:37:04	10031	Trial	ResponseIR	14	0	175	0	119	12:37:04	2766074	4	3	3	3	3	2	3	3	1	5	5	0	0	0	0	4	4
102312	12:37:04	10031	Trial	IncongruentRight	14	205	304	1	119	12:37:04	2766407	4	3	3	3	3	2	3	3	1	5	5	0	0	0	0	4	4
102312	12:37:04	10031	Trial	ResponseIL	14	0	175	0	119	12:37:04	2767780	4	3	3	3	3	2	3	3	1	5	5	0	0	0	0	4	4
102312	12:37:04	10031	Trial	IncongruentLeft	14	203	263	1	119	12:37:04	2768060	4	3	3	3	3	2	3	3	1	5	5	0	0	0	0	4	4
102312	12:37:04	10031	Trial	ResponseCR	14	0	175	0	119	12:37:04	2769486	4	3	3	3	3	2	3	3	1	5	5	0	0	0	0	4	4
102312	12:37:04	10031	Trial	CongruentRight	14	205	220	1	119	12:37:04	2769726	4	3	3	3	3	2	3	3	1	5	5	0	0	0	0	4	4
102312	12:37:04	10031	Trial	ResponseCL	14	0	175	0	119	12:37:04	2771192	4	3	3	3	3	2	3	3	1	5	5	0	0	0	0	4	4
102312	12:37:04	10031	Trial	CongruentLeft	14	203	211	1	119	12:37:04	2771418	4	3	3	3	3	2	3	3	1	5	5	0	0	0	0	4	4
102312	12:37:04	10031	Trial	ResponseIL	14	0	175	0	119	12:37:04	2772898	4	3	3	3	3	2	3	3	1	5	5	0	0	0	0	4	4
102312	12:37:04	10031	Trial	IncongruentLeft	14	203	251	1	119	12:37:04	2773191	4	3	3	3	3	2	3	3	1	5	5	0	0	0	0	4	4
102312	12:37:04	10031	Trial	ResponseCL	14	0	175	0	119	12:37:04	2774604	4	3	3	3	3	2	3	3	1	5	5	0	0	0	0	4	4
102312	12:37:04	10031	Trial	CongruentLeft	14	203	174	1	119	12:37:04	2774804	4	3	3	3	3	2	3	3	1	5	5	0	0	0	0	4	4
102312	12:37:04	10031	Trial	ResponseIR	14	0	175	0	119	12:37:04	2776310	4	3	3	3	3	2	3	3	1	5	5	0	0	0	0	4	4
102312	12:37:04	10031	Trial	IncongruentRight	14	203	149	0	119	12:37:04	2776483	4	3	3	3	3	2	3	3	1	5	5	0	0	0	0	4	4
102312	12:37:04	10031	Trial	ResponseCR	14	0	175	0	119	12:37:04	2778016	4	3	3	3	3	2	3	3	1	5	5	0	0	0	0	4	4
102312	12:37:04	10031	Trial	CongruentRight	14	205	218	1	119	12:37:04	2778256	4	3	3	3	3	2	3	3	1	5	5	0	0	0	0	4	4
102312	12:37:04	10031	Trial	ResponseIL	14	0	175	0	119	12:37:04	2779722	4	3	3	3	3	2	3	3	1	5	5	0	0	0	0	4	4
102312	12:37:04	10031	Trial	IncongruentLeft	14	203	240	1	119	12:37:04	2779988	4	3	3	3	3	2	3	3	1	5	5	0	0	0	0	4	4
102312	12:37:04	10031	Trial	ResponseCL	14	0	175	0	119	12:37:04	2781428	4	3	3	3	3	2	3	3	1	5	5	0	0	0	0	4	4
102312	12:37:04	10031	Trial	CongruentLeft	14	203	214	1	119	12:37:04	2781668	4	3	3	3	3	2	3	3	1	5	5	0	0	0	0	4	4
102312	12:37:04	10031	Trial	ResponseIR	14	0	175	0	119	12:37:04	2783134	4	3	3	3	3	2	3	3	1	5	5	0	0	0	0	4	4
102312	12:37:04	10031	Trial	IncongruentRight	14	205	300	1	119	12:37:04	2783453	4	3	3	3	3	2	3	3	1	5	5	0	0	0	0	4	4
102312	12:37:04	10031	Trial	ResponseIL	14	0	175	0	119	12:37:04	2784840	4	3	3	3	3	2	3	3	1	5	5	0	0	0	0	4	4
102312	12:37:04	10031	Trial	IncongruentLeft	14	203	290	1	119	12:37:04	2785160	4	3	3	3	3	2	3	3	1	5	5	0	0	0	0	4	4
102312	12:37:04	10031	Trial	ResponseCL	14	0	175	0	119	12:37:04	2786546	4	3	3	3	3	2	3	3	1	5	5	0	0	0	0	4	4
102312	12:37:04	10031	Trial	CongruentLeft	14	203	280	1	119	12:37:04	2786852	4	3	3	3	3	2	3	3	1	5	5	0	0	0	0	4	4
102312	12:37:04	10031	Trial	ResponseIL	14	0	175	0	119	12:37:04	2788252	4	3	3	3	3	2	3	3	1	5	5	0	0	0	0	4	4
102312	12:37:04	10031	Trial	IncongruentLeft	14	203	254	1	119	12:37:04	2788532	4	3	3	3	3	2	3	3	1	5	5	0	0	0	0	4	4
102312	12:37:04	10031	Trial	ResponseCR	14	0	175	0	119	12:37:04	2789958	4	3	3	3	3	2	3	3	1	5	5	0	0	0	0	4	4
102312	12:37:04	10031	Trial	CongruentRight	14	205	164	1	119	12:37:04	2790144	4	3	3	3	3	2	3	3	1	5	5	0	0	0	0	4	4
102312	12:37:04	10031	Trial	ResponseCL	14	0	175	0	119	12:37:04	2791664	4	3	3	3	3	2	3	3	1	5	5	0	0	0	0	4	4
102312	12:37:04	10031	Trial	CongruentLeft	14	203	138	1	119	12:37:04	2791824	4	3	3	3	3	2	3	3	1	5	5	0	0	0	0	4	4
102312	12:37:04	10031	Trial	ResponseIR	14	0	175	0	119	12:37:04	2793370	4	3	3	3	3	2	3	3	1	5	5	0	0	0	0	4	4
102312	12:37:04	10031	Trial	IncongruentRight	14	203	224	0	119	12:37:04	2793623	4	3	3	3	3	2	3	3	1	5	5	0	0	0	0	4	4
102312	12:37:04	10031	Trial	ResponseCL	14	0	175	0	119	12:37:04	2795076	4	3	3	3	3	2	3	3	1	5	5	0	0	0	0	4	4
102312	12:37:04	10031	Trial	CongruentLeft	14	203	118	1	119	12:37:04	2795222	4	3	3	3	3	2	3	3	1	5	5	0	0	0	0	4	4
102312	12:37:04	10031	Trial	ResponseCR	14	0	175	0	119	12:37:04	2796782	4	3	3	3	3	2	3	3	1	5	5	0	0	0	0	4	4
102312	12:37:04	10031	Trial	CongruentRight	14	205	236	1	119	12:37:04	2797035	4	3	3	3	3	2	3	3	1	5	5	0	0	0	0	4	4
102312	12:37:04	10031	Trial	ResponseIL	14	0	175	0	119	12:37:04	2798488	4	3	3	3	3	2	3	3	1	5	5	0	0	0	0	4	4
102312	12:37:04	10031	Trial	IncongruentLeft	14	203	306	1	119	12:37:04	2798821	4	3	3	3	3	2	3	3	1	5	5	0	0	0	0	4	4
102312	12:37:04	10031	WordsAbsEngThreemo	PAbsEngThreemo1	16	Abs1	6236	0	119	12:37:04	2815787	4	3	3	3	3	2	3	3	1	5	5	0	0	0	0	4	4
102312	12:37:04	10031	WordsAbsEngThreemo	AbsEngThreemo1	16	Abs1	5056	0	119	12:37:04	2820879	4	3	3	3	3	2	3	3	1	5	5	1	0	0	0	4	4
102312	12:37:04	10031	WordsAbsEngThreemo	AbsEngThreemo2	16	Abs1	5076	0	119	12:37:04	2825996	4	3	3	3	3	2	3	3	1	5	5	2	0	0	0	4	4
102312	12:37:04	10031	WordsAbsEngThreemo	AbsEngThreemo3	16	Abs2	45853	0	119	12:37:04	2871885	4	3	3	3	3	2	3	3	1	5	5	2	0	0	0	4	4
102312	12:37:04	10031	Trial2BackEngS	NS	17	0	1000	1	119	12:37:04	2915120	4	3	3	3	3	2	3	3	1	5	5	2	0	0	0	4	4
102312	12:37:04	10031	Trial2BackEngS	NS	17	0	1000	1	119	12:37:04	2916640	4	3	3	3	3	2	3	3	1	5	5	2	0	0	0	4	4
102312	12:37:04	10031	Trial2BackEngS	NS	17	0	1000	1	119	12:37:04	2918146	4	3	3	3	3	2	3	3	1	5	5	2	0	0	0	4	4
102312	12:37:04	10031	Trial2BackEngS	YS	17	0	1000	0	119	12:37:04	2919652	4	3	3	3	3	2	3	3	1	5	5	2	0	0	0	4	4
102312	12:37:04	10031	Trial2BackEngS	NS	17	0	1000	1	119	12:37:04	2921171	4	3	3	3	3	2	3	3	1	5	5	2	0	0	0	4	4
102312	12:37:04	10031	Trial2BackEngS	NS	17	0	1000	1	119	12:37:04	2922677	4	3	3	3	3	2	3	3	1	5	5	2	0	0	0	4	4
102312	12:37:04	10031	Trial2BackEngS	NS	17	0	1000	1	119	12:37:04	2924183	4	3	3	3	3	2	3	3	1	5	5	2	0	0	0	4	4
102312	12:37:04	10031	Trial2BackEngS	NS	17	0	1000	1	119	12:37:04	2925689	4	3	3	3	3	2	3	3	1	5	5	2	0	0	0	4	4
102312	12:37:04	10031	Trial2BackEngS	YS	17	57	610	1	119	12:37:04	2926809	4	3	3	3	3	2	3	3	1	5	5	2	0	0	0	4	4
102312	12:37:04	10031	Trial2BackEngS	NS	17	0	1000	1	119	12:37:04	2928701	4	3	3	3	3	2	3	3	1	5	5	2	0	0	0	4	4
102312	12:37:04	10031	Trial2BackEngS	NS	17	0	1000	1	119	12:37:04	2930208	4	3	3	3	3	2	3	3	1	5	5	2	0	0	0	4	4
102312	12:37:04	10031	Trial2BackEngS	YS	17	0	1000	0	119	12:37:04	2931740	4	3	3	3	3	2	3	3	1	5	5	2	0	0	0	4	4
102312	12:37:04	10031	Trial2BackEngS	NS	17	0	1000	1	119	12:37:04	2933246	4	3	3	3	3	2	3	3	1	5	5	2	0	0	0	4	4
102312	12:37:04	10031	Trial2BackEngS	NS	17	0	1000	1	119	12:37:04	2934752	4	3	3	3	3	2	3	3	1	5	5	2	0	0	0	4	4
102312	12:37:04	10031	Trial2BackEngS	NS	17	0	1000	1	119	12:37:04	2936258	4	3	3	3	3	2	3	3	1	5	5	2	0	0	0	4	4
102312	12:37:04	10031	Trial2BackEngS	YS	17	0	1000	0	119	12:37:04	2937764	4	3	3	3	3	2	3	3	1	5	5	2	0	0	0	4	4
102312	12:37:04	10031	Trial2BackEngS	NS	17	0	1000	1	119	12:37:04	2939270	4	3	3	3	3	2	3	3	1	5	5	2	0	0	0	4	4
102312	12:37:04	10031	Trial2BackEngS	NS	17	0	1000	1	119	12:37:04	2940776	4	3	3	3	3	2	3	3	1	5	5	2	0	0	0	4	4
102312	12:37:04	10031	Trial2BackEngS	NS	17	0	1000	1	119	12:37:04	2942283	4	3	3	3	3	2	3	3	1	5	5	2	0	0	0	4	4
102312	12:37:04	10031	Trial2BackEngS	NS	17	0	1000	1	119	12:37:04	2943789	4	3	3	3	3	2	3	3	1	5	5	2	0	0	0	4	4
102312	12:37:04	10031	Trial2BackEngS	YS	17	57	718	1	119	12:37:04	2945015	4	3	3	3	3	2	3	3	1	5	5	2	0	0	0	4	4
102312	12:37:04	10031	Trial2BackEngS	NS	17	0	1000	1	119	12:37:04	2946801	4	3	3	3	3	2	3	3	1	5	5	2	0	0	0	4	4
102312	12:37:04	10031	Trial2BackEngS	NS	17	0	1000	1	119	12:37:04	2948307	4	3	3	3	3	2	3	3	1	5	5	2	0	0	0	4	4
102312	12:37:04	10031	Trial2BackEngS	NS	17	0	1000	1	119	12:37:04	2949813	4	3	3	3	3	2	3	3	1	5	5	2	0	0	0	4	4
102312	12:37:04	10031	Trial2BackEngS	NS	17	0	1000	1	119	12:37:04	2951319	4	3	3	3	3	2	3	3	1	5	5	2	0	0	0	4	4
102312	12:37:04	10031	Trial2BackEngS	NS	17	0	1000	1	119	12:37:04	2952825	4	3	3	3	3	2	3	3	1	5	5	2	0	0	0	4	4
102312	12:37:04	10031	Trial2BackEngS	NS	17	0	1000	1	119	12:37:04	2954331	4	3	3	3	3	2	3	3	1	5	5	2	0	0	0	4	4
102312	12:37:04	10031	Trial2BackEngS	NS	17	0	1000	1	119	12:37:04	2955837	4	3	3	3	3	2	3	3	1	5	5	2	0	0	0	4	4
102312	12:37:04	10031	Trial2BackEngS	NS	17	0	1000	1	119	12:37:04	2957356	4	3	3	3	3	2	3	3	1	5	5	2	0	0	0	4	4
102312	12:37:04	10031	Trial2BackEngS	NS	17	0	1000	1	119	12:37:04	2958863	4	3	3	3	3	2	3	3	1	5	5	2	0	0	0	4	4
102312	12:37:04	10031	Trial2BackEngS	NS	17	0	1000	1	119	12:37:04	2960369	4	3	3	3	3	2	3	3	1	5	5	2	0	0	0	4	4
102312	12:37:04	10031	Trial2BackEngS	YS	17	0	1000	0	119	12:37:04	2961875	4	3	3	3	3	2	3	3	1	5	5	2	0	0	0	4	4
102312	12:37:04	10031	Trial2BackEngS	NS	17	0	1000	1	119	12:37:04	2963381	4	3	3	3	3	2	3	3	1	5	5	2	0	0	0	4	4
102312	12:37:04	10031	Trial2BackEngS	NS	17	0	1000	1	119	12:37:04	2964887	4	3	3	3	3	2	3	3	1	5	5	2	0	0	0	4	4
102312	12:37:04	10031	Trial2BackEngS	NS	17	0	1000	1	119	12:37:04	2966393	4	3	3	3	3	2	3	3	1	5	5	2	0	0	0	4	4
102312	12:37:04	10031	Trial2BackEngS	YS	17	0	1000	0	119	12:37:04	2967899	4	3	3	3	3	2	3	3	1	5	5	2	0	0	0	4	4
102312	12:37:04	10031	Trial2BackEngS	NS	17	0	1000	1	119	12:37:04	2969405	4	3	3	3	3	2	3	3	1	5	5	2	0	0	0	4	4
102312	12:37:04	10031	Trial2BackEngS	NS	17	0	1000	1	119	12:37:04	2970924	4	3	3	3	3	2	3	3	1	5	5	2	0	0	0	4	4
102312	12:37:04	10031	Trial2BackEngS	NS	17	0	1000	1	119	12:37:04	2972430	4	3	3	3	3	2	3	3	1	5	5	2	0	0	0	4	4
102312	12:37:04	10031	Trial2BackEngS	NS	17	0	1000	1	119	12:37:04	2973936	4	3	3	3	3	2	3	3	1	5	5	2	0	0	0	4	4
102312	12:37:04	10031	Trial2BackEngS	NS	17	0	1000	1	119	12:37:04	2975456	4	3	3	3	3	2	3	3	1	5	5	2	0	0	0	4	4
102312	12:37:04	10031	Trial2BackEngS	NS	17	0	1000	1	119	12:37:04	2976962	4	3	3	3	3	2	3	3	1	5	5	2	0	0	0	4	4
102312	12:37:04	10031	Trial2BackEngS	NS	17	0	1000	1	119	12:37:04	2978468	4	3	3	3	3	2	3	3	1	5	5	2	0	0	0	4	4
102312	12:37:04	10031	Trial2BackEngS	YS	17	0	1000	0	119	12:37:04	2979974	4	3	3	3	3	2	3	3	1	5	5	2	0	0	0	4	4
102312	12:37:04	10031	Trial2BackEngS	NS	17	0	1000	1	119	12:37:04	2981480	4	3	3	3	3	2	3	3	1	5	5	2	0	0	0	4	4
102312	12:37:04	10031	Trial2BackEngS	NS	17	0	1000	1	119	12:37:04	2982986	4	3	3	3	3	2	3	3	1	5	5	2	0	0	0	4	4
102312	12:37:04	10031	Trial2BackEngS	NS	17	0	1000	1	119	12:37:04	2984492	4	3	3	3	3	2	3	3	1	5	5	2	0	0	0	4	4
102312	12:37:04	10031	Trial2BackEngS	NS	17	0	1000	1	119	12:37:04	2985998	4	3	3	3	3	2	3	3	1	5	5	2	0	0	0	4	4
102312	12:37:04	10031	Trial2BackEngS	YS	17	57	875	1	119	12:37:04	2987384	4	3	3	3	3	2	3	3	1	5	5	2	0	0	0	4	4
102312	12:37:04	10031	Trial2BackEngS	NS	17	0	1000	1	119	12:37:04	2989010	4	3	3	3	3	2	3	3	1	5	5	2	0	0	0	4	4
102312	12:37:04	10031	Trial2BackEngS	NS	17	0	1000	1	119	12:37:04	2990516	4	3	3	3	3	2	3	3	1	5	5	2	0	0	0	4	4
102312	12:37:04	10031	Trial2BackEngS	NS	17	0	1000	1	119	12:37:04	2992022	4	3	3	3	3	2	3	3	1	5	5	2	0	0	0	4	4
102312	12:37:04	10031	Trial2BackEngS	NS	17	0	1000	1	119	12:37:04	2993529	4	3	3	3	3	2	3	3	1	5	5	2	0	0	0	4	4
102312	12:37:04	10031	Trial2BackEngS	NS	17	0	1000	1	119	12:37:04	2995035	4	3	3	3	3	2	3	3	1	5	5	2	0	0	0	4	4
102312	12:37:04	10031	Trial2BackEngS	NS	17	0	1000	1	119	12:37:04	2996541	4	3	3	3	3	2	3	3	1	5	5	2	0	0	0	4	4
102312	12:37:04	10031	Trial2BackEngS	YS	17	57	829	1	119	12:37:04	2997887	4	3	3	3	3	2	3	3	1	5	5	2	0	0	0	4	4
102312	12:37:04	10031	Trial2BackEngS	NS	17	0	1000	1	119	12:37:04	2999553	4	3	3	3	3	2	3	3	1	5	5	2	0	0	0	4	4
102312	12:37:04	10031	Trial2BackEngS	NS	17	0	1000	1	119	12:37:04	3001059	4	3	3	3	3	2	3	3	1	5	5	2	0	0	0	4	4
102312	12:37:04	10031	Trial2BackEngS	NS	17	0	1000	1	119	12:37:04	3002565	4	3	3	3	3	2	3	3	1	5	5	2	0	0	0	4	4
102312	12:37:04	10031	Trial2BackEngS	NS	17	0	1000	1	119	12:37:04	3004071	4	3	3	3	3	2	3	3	1	5	5	2	0	0	0	4	4
102312	12:37:04	10031	Trial2BackEngS	NS	17	0	1000	1	119	12:37:04	3005577	4	3	3	3	3	2	3	3	1	5	5	2	0	0	0	4	4
102312	12:37:04	10031	Trial2BackEngS	NS	17	0	1000	1	119	12:37:04	3007083	4	3	3	3	3	2	3	3	1	5	5	2	0	0	0	4	4
102312	12:37:04	10031	Trial2BackEngS	NS	17	0	1000	1	119	12:37:04	3008589	4	3	3	3	3	2	3	3	1	5	5	2	0	0	0	4	4
102312	12:37:04	10031	Trial2BackEngS	YS	17	57	812	1	119	12:37:04	3009922	4	3	3	3	3	2	3	3	1	5	5	2	0	0	0	4	4
102312	12:37:04	10031	Trial2BackEngS	NS	17	0	1000	1	119	12:37:04	3011601	4	3	3	3	3	2	3	3	1	5	5	2	0	0	0	4	4
102312	12:37:04	10031	Trial2BackEngS	NS	17	0	1000	1	119	12:37:04	3013107	4	3	3	3	3	2	3	3	1	5	5	2	0	0	0	4	4
102312	12:37:04	10031	Trial2BackEngS	NS	17	0	1000	1	119	12:37:04	3014613	4	3	3	3	3	2	3	3	1	5	5	2	0	0	0	4	4
102312	12:37:04	10031	Trial2BackEngS	NS	17	0	1000	1	119	12:37:04	3016119	4	3	3	3	3	2	3	3	1	5	5	2	0	0	0	4	4
102312	12:37:04	10031	Trial2BackEngS	YS	17	0	1000	0	119	12:37:04	3017625	4	3	3	3	3	2	3	3	1	5	5	2	0	0	0	4	4
102312	12:37:04	10031	Trial2BackEngS	NS	17	0	1000	1	119	12:37:04	3019132	4	3	3	3	3	2	3	3	1	5	5	2	0	0	0	4	4
102312	12:37:04	10031	Trial2BackEngS	NS	17	0	1000	1	119	12:37:04	3020638	4	3	3	3	3	2	3	3	1	5	5	2	0	0	0	4	4
102312	12:37:04	10031	Trial2BackEngS	YS	17	57	555	1	119	12:37:04	3021704	4	3	3	3	3	2	3	3	1	5	5	2	0	0	0	4	4
102312	12:37:04	10031	Trial2BackEngS	NS	17	0	1000	1	119	12:37:04	3023650	4	3	3	3	3	2	3	3	1	5	5	2	0	0	0	4	4
102312	12:37:04	10031	Trial2BackEngS	NS	17	0	1000	1	119	12:37:04	3025156	4	3	3	3	3	2	3	3	1	5	5	2	0	0	0	4	4
102312	12:37:04	10031	Trial2BackEngS	NS	17	0	1000	1	119	12:37:04	3026662	4	3	3	3	3	2	3	3	1	5	5	2	0	0	0	4	4
102312	12:37:04	10031	Trial2BackEngS	NS	17	0	1000	1	119	12:37:04	3028168	4	3	3	3	3	2	3	3	1	5	5	2	0	0	0	4	4
102312	12:37:04	10031	Trial2BackEngS	NS	17	0	1000	1	119	12:37:04	3029701	4	3	3	3	3	2	3	3	1	5	5	2	0	0	0	4	4
102312	12:37:04	10031	Trial2BackEngS	NS	17	0	1000	1	119	12:37:04	3031207	4	3	3	3	3	2	3	3	1	5	5	2	0	0	0	4	4
102312	12:37:04	10031	Trial2BackEngS	YS	17	0	1000	0	119	12:37:04	3032713	4	3	3	3	3	2	3	3	1	5	5	2	0	0	0	4	4
102312	12:37:04	10031	Trial2BackEngS	NS	17	0	1000	1	119	12:37:04	3034219	4	3	3	3	3	2	3	3	1	5	5	2	0	0	0	4	4
102312	12:37:04	10031	Trial2BackEngS	NS	17	0	1000	1	119	12:37:04	3035738	4	3	3	3	3	2	3	3	1	5	5	2	0	0	0	4	4
102312	12:37:04	10031	Trial2BackEngS	NS	17	0	1000	1	119	12:37:04	3037244	4	3	3	3	3	2	3	3	1	5	5	2	0	0	0	4	4
102312	12:37:04	10031	Trial2BackEngS	NS	17	0	1000	1	119	12:37:04	3038750	4	3	3	3	3	2	3	3	1	5	5	2	0	0	0	4	4
102312	12:37:04	10031	Trial2BackEngS	YS	17	0	1000	0	119	12:37:04	3040256	4	3	3	3	3	2	3	3	1	5	5	2	0	0	0	4	4
102312	12:37:04	10031	Trial2BackEngS	NS	17	0	1000	1	119	12:37:04	3041776	4	3	3	3	3	2	3	3	1	5	5	2	0	0	0	4	4
102312	12:37:04	10031	Trial2BackEngS	NS	17	0	1000	1	119	12:37:04	3043282	4	3	3	3	3	2	3	3	1	5	5	2	0	0	0	4	4
102312	12:37:04	10031	Trial2BackEngS	NS	17	0	1000	1	119	12:37:04	3044788	4	3	3	3	3	2	3	3	1	5	5	2	0	0	0	4	4
102312	12:37:04	10031	Trial2BackEngS	NS	17	0	1000	1	119	12:37:04	3046294	4	3	3	3	3	2	3	3	1	5	5	2	0	0	0	4	4
102312	12:37:04	10031	Trial2BackEngS	YS	17	0	1000	0	119	12:37:04	3047800	4	3	3	3	3	2	3	3	1	5	5	2	0	0	0	4	4
102312	12:37:04	10031	Trial2BackEngS	NS	17	0	1000	1	119	12:37:04	3049306	4	3	3	3	3	2	3	3	1	5	5	2	0	0	0	4	4
102312	12:37:04	10031	Trial2BackEngS	NS	17	0	1000	1	119	12:37:04	3050812	4	3	3	3	3	2	3	3	1	5	5	2	0	0	0	4	4
102312	12:37:04	10031	Trial2BackEngS	YS	17	0	1000	0	119	12:37:04	3052318	4	3	3	3	3	2	3	3	1	5	5	2	0	0	0	4	4
102312	12:37:04	10031	Trial2BackEngS	NS	17	0	1000	1	119	12:37:04	3053837	4	3	3	3	3	2	3	3	1	5	5	2	0	0	0	4	4
102312	12:37:04	10031	Trial2BackEngS	NS	17	0	1000	1	119	12:37:04	3055344	4	3	3	3	3	2	3	3	1	5	5	2	0	0	0	4	4
102312	12:37:04	10031	Trial2BackEngS	NS	17	0	1000	1	119	12:37:04	3056850	4	3	3	3	3	2	3	3	1	5	5	2	0	0	0	4	4
102312	12:37:04	10031	Trial2BackEngS	NS	17	0	1000	1	119	12:37:04	3058356	4	3	3	3	3	2	3	3	1	5	5	2	0	0	0	4	4
102312	12:37:04	10031	Trial2BackEngS	NS	17	0	1000	1	119	12:37:04	3059862	4	3	3	3	3	2	3	3	1	5	5	2	0	0	0	4	4
102312	12:37:04	10031	Trial2BackEngS	NS	17	0	1000	1	119	12:37:04	3061368	4	3	3	3	3	2	3	3	1	5	5	2	0	0	0	4	4
102312	12:37:04	10031	Trial2BackEngS	NS	17	0	1000	1	119	12:37:04	3062874	4	3	3	3	3	2	3	3	1	5	5	2	0	0	0	4	4
102312	12:37:04	10031	Trial2BackEngS	NS	17	0	1000	1	119	12:37:04	3064380	4	3	3	3	3	2	3	3	1	5	5	2	0	0	0	4	4
102312	12:37:04	10031	Trial2BackEngS	YS	17	0	1000	0	119	12:37:04	3065886	4	3	3	3	3	2	3	3	1	5	5	2	0	0	0	4	4
102312	12:37:04	10031	Trial2BackEngS	NS	17	0	1000	1	119	12:37:04	3067392	4	3	3	3	3	2	3	3	1	5	5	2	0	0	0	4	4
102312	12:37:04	10031	Trial2BackEngS	NS	17	0	1000	1	119	12:37:04	3068911	4	3	3	3	3	2	3	3	1	5	5	2	0	0	0	4	4
102312	12:37:04	10031	Trial2BackEngS	NS	17	0	1000	1	119	12:37:04	3070417	4	3	3	3	3	2	3	3	1	5	5	2	0	0	0	4	4
102312	12:37:04	10031	Trial2BackEngS	NS	17	0	1000	1	119	12:37:04	3071923	4	3	3	3	3	2	3	3	1	5	5	2	0	0	0	4	4
102312	12:37:04	10031	Trial2BackEngS	NS	17	0	1000	1	119	12:37:04	3073430	4	3	3	3	3	2	3	3	1	5	5	2	0	0	0	4	4
102312	12:37:04	10031	Trial2BackEngS	NS	17	0	1000	1	119	12:37:04	3074949	4	3	3	3	3	2	3	3	1	5	5	2	0	0	0	4	4
102312	12:37:04	10031	Trial2BackEngS	NS	17	0	1000	1	119	12:37:04	3076455	4	3	3	3	3	2	3	3	1	5	5	2	0	0	0	4	4
102312	12:37:04	10031	Trial2BackEngS	YS	17	0	1000	0	119	12:37:04	3077961	4	3	3	3	3	2	3	3	1	5	5	2	0	0	0	4	4
102312	12:37:04	10031	Trial2BackEngS	NS	17	0	1000	1	119	12:37:04	3079467	4	3	3	3	3	2	3	3	1	5	5	2	0	0	0	4	4
102312	12:37:04	10031	Trial2BackEngS	NS	17	0	1000	1	119	12:37:04	3080973	4	3	3	3	3	2	3	3	1	5	5	2	0	0	0	4	4
102312	12:37:04	10031	Trial2BackEngS	NS	17	0	1000	1	119	12:37:04	3082492	4	3	3	3	3	2	3	3	1	5	5	2	0	0	0	4	4
102312	12:37:04	10031	Trial2BackEngS	NS	17	0	1000	1	119	12:37:04	3083999	4	3	3	3	3	2	3	3	1	5	5	2	0	0	0	4	4
102312	12:37:04	10031	Trial2BackEngS	NS	17	0	1000	1	119	12:37:04	3085505	4	3	3	3	3	2	3	3	1	5	5	2	0	0	0	4	4
102312	12:37:04	10031	Trial2BackEngS	NS	17	0	1000	1	119	12:37:04	3087011	4	3	3	3	3	2	3	3	1	5	5	2	0	0	0	4	4
102312	12:37:04	10031	Trial2BackEngS	NS	17	0	1000	1	119	12:37:04	3088517	4	3	3	3	3	2	3	3	1	5	5	2	0	0	0	4	4
102312	12:37:04	10031	Trial2BackEngS	NS	17	0	1000	1	119	12:37:04	3090036	4	3	3	3	3	2	3	3	1	5	5	2	0	0	0	4	4
102312	12:37:04	10031	Trial2BackEngS	NS	17	0	1000	1	119	12:37:04	3091542	4	3	3	3	3	2	3	3	1	5	5	2	0	0	0	4	4
102312	12:37:04	10031	Trial2BackEngS	YS	17	57	705	1	119	12:37:04	3092755	4	3	3	3	3	2	3	3	1	5	5	2	0	0	0	4	4
102312	12:37:04	10031	Trial2BackEngS	NS	17	0	1000	1	119	12:37:04	3094555	4	3	3	3	3	2	3	3	1	5	5	2	0	0	0	4	4
102312	12:37:04	10031	ClockEng3mo	ClockEng3mo	19	Clock1	35184	0	119	12:37:04	3129860	4	3	3	3	3	2	3	3	1	5	5	2	1	0	0	4	4
102312	12:37:04	10031	ClockEng3mo	ClockEng3mo	19	Clock11	601	0	119	12:37:04	3130513	4	3	3	3	3	2	3	3	1	5	5	2	1	1	0	4	4
102312	12:37:04	10031	ClockEng3mo	ClockEng3mo	19	Clock111	5036	0	119	12:37:04	3135604	4	3	3	3	3	2	3	3	1	5	5	2	1	1	1	4	4
102312	12:37:04	10031	ClockEng3mo	ClockEng3mo	19	Clockdone	1521	0	119	12:37:04	3137177	4	3	3	3	3	2	3	3	1	5	5	2	1	1	1	4	4
102312	12:37:04	10031	FASEngVF3mo	StopEngVF3mo	20	9	14583	0	119	12:37:04	3245642	4	3	3	3	3	2	3	3	1	5	5	2	1	1	1	4	4
