date	time	subject	blockcode	trialcode	values.TaskNumber	response	latency	correct	values.Score	script.starttime	script.elapsedtime	values.ScoreS7	values.Word1	values.Word2	values.Word3	values.Word4	values.Word5	values.Word6	values.Word7	values.Word8	values.DigitSpanFwrd	values.DigitSpanBack	values.ScoreAbs	values.Contour	values.Numbers	values.Hands	values.corsiblockspanFwrd	values.corsiblockspanRev
092712	13:58:40	10018	Language	Language	0	French	5001	0	0	13:58:40	5090	0	0	0	0	0	0	0	0	0	0	0	0	0	0	0	0	0
092712	13:58:40	10018	Session	Session	0	3mo	872	0	0	13:58:40	6036	0	0	0	0	0	0	0	0	0	0	0	0	0	0	0	0	0
092712	13:58:40	10018	HandFr	HandFr	0	RightFr	655491	0	0	13:58:40	661611	0	0	0	0	0	0	0	0	0	0	0	0	0	0	0	0	0
092712	13:58:40	10018	AudioCheckFr	WordsFr	0	0	0	0	0	13:58:40	754286	0	0	0	0	0	0	0	0	0	0	0	0	0	0	0	0	0
092712	13:58:40	10018	CubeFr	CubeFr	1	1Cube	61974	0	0	13:58:40	817853	0	0	0	0	0	0	0	0	0	0	0	0	0	0	0	0	0
092712	13:58:40	10018	pm.simpleFrRight	blank.simpleFr	2	0	1587	1	0	13:58:40	830995	0	0	0	0	0	0	0	0	0	0	0	0	0	0	0	0	0
092712	13:58:40	10018	pm.simpleFrRight	pm.simpleFr	2	57	459	0	0	13:58:40	831487	0	0	0	0	0	0	0	0	0	0	0	0	0	0	0	0	0
092712	13:58:40	10018	pm.simpleFrRight	blank.simpleFr	2	0	1787	1	0	13:58:40	833300	0	0	0	0	0	0	0	0	0	0	0	0	0	0	0	0	0
092712	13:58:40	10018	pm.simpleFrRight	pm.simpleFr	2	57	409	0	0	13:58:40	833740	0	0	0	0	0	0	0	0	0	0	0	0	0	0	0	0	0
092712	13:58:40	10018	pm.simpleFrRight	blank.simpleFr	2	0	1687	1	0	13:58:40	835459	0	0	0	0	0	0	0	0	0	0	0	0	0	0	0	0	0
092712	13:58:40	10018	pm.simpleFrRight	pm.simpleFr	2	57	330	0	0	13:58:40	835819	0	0	0	0	0	0	0	0	0	0	0	0	0	0	0	0	0
092712	13:58:40	10018	pm.simpleFrRight	blank.simpleFr	2	0	2387	1	0	13:58:40	838231	0	0	0	0	0	0	0	0	0	0	0	0	0	0	0	0	0
092712	13:58:40	10018	pm.simpleFrRight	pm.simpleFr	2	57	326	0	0	13:58:40	838591	0	0	0	0	0	0	0	0	0	0	0	0	0	0	0	0	0
092712	13:58:40	10018	pm.simpleFrRight	blank.simpleFr	2	0	1487	1	0	13:58:40	840111	0	0	0	0	0	0	0	0	0	0	0	0	0	0	0	0	0
092712	13:58:40	10018	pm.simpleFrRight	pm.simpleFr	2	57	302	0	0	13:58:40	840444	0	0	0	0	0	0	0	0	0	0	0	0	0	0	0	0	0
092712	13:58:40	10018	pm.simpleFrRight	blank.simpleFr	2	0	1987	1	0	13:58:40	842457	0	0	0	0	0	0	0	0	0	0	0	0	0	0	0	0	0
092712	13:58:40	10018	pm.simpleFrRight	pm.simpleFr	2	57	261	0	0	13:58:40	842750	0	0	0	0	0	0	0	0	0	0	0	0	0	0	0	0	0
092712	13:58:40	10018	pm.simpleFrRight	blank.simpleFr	2	0	2087	1	0	13:58:40	844869	0	0	0	0	0	0	0	0	0	0	0	0	0	0	0	0	0
092712	13:58:40	10018	pm.simpleFrRight	pm.simpleFr	2	57	296	0	0	13:58:40	845202	0	0	0	0	0	0	0	0	0	0	0	0	0	0	0	0	0
092712	13:58:40	10018	pm.simpleFrRight	blank.simpleFr	2	0	2287	1	0	13:58:40	847521	0	0	0	0	0	0	0	0	0	0	0	0	0	0	0	0	0
092712	13:58:40	10018	pm.simpleFrRight	pm.simpleFr	2	57	284	0	0	13:58:40	847841	0	0	0	0	0	0	0	0	0	0	0	0	0	0	0	0	0
092712	13:58:40	10018	pm.simpleFrRight	blank.simpleFr	2	0	2187	1	0	13:58:40	850053	0	0	0	0	0	0	0	0	0	0	0	0	0	0	0	0	0
092712	13:58:40	10018	pm.simpleFrRight	pm.simpleFr	2	57	296	0	0	13:58:40	850386	0	0	0	0	0	0	0	0	0	0	0	0	0	0	0	0	0
092712	13:58:40	10018	pm.simpleFrRight	blank.simpleFr	2	0	1887	1	0	13:58:40	852306	0	0	0	0	0	0	0	0	0	0	0	0	0	0	0	0	0
092712	13:58:40	10018	pm.simpleFrRight	pm.simpleFr	2	57	283	0	0	13:58:40	852626	0	0	0	0	0	0	0	0	0	0	0	0	0	0	0	0	0
092712	13:58:40	10018	pm.simpleFrRight	blank.simpleFr	2	0	2487	1	0	13:58:40	855145	0	0	0	0	0	0	0	0	0	0	0	0	0	0	0	0	0
092712	13:58:40	10018	pm.simpleFrRight	pm.simpleFr	2	57	276	0	0	13:58:40	855451	0	0	0	0	0	0	0	0	0	0	0	0	0	0	0	0	0
092712	13:58:40	10018	pm.simpleFrRight	blank.simpleFr	2	0	2287	1	0	13:58:40	857770	0	0	0	0	0	0	0	0	0	0	0	0	0	0	0	0	0
092712	13:58:40	10018	pm.simpleFrRight	pm.simpleFr	2	57	306	0	0	13:58:40	858117	0	0	0	0	0	0	0	0	0	0	0	0	0	0	0	0	0
092712	13:58:40	10018	pm.simpleFrRight	blank.simpleFr	2	0	2187	1	0	13:58:40	860329	0	0	0	0	0	0	0	0	0	0	0	0	0	0	0	0	0
092712	13:58:40	10018	pm.simpleFrRight	pm.simpleFr	2	57	291	0	0	13:58:40	860662	0	0	0	0	0	0	0	0	0	0	0	0	0	0	0	0	0
092712	13:58:40	10018	pm.simpleFrRight	blank.simpleFr	2	0	1487	1	0	13:58:40	862182	0	0	0	0	0	0	0	0	0	0	0	0	0	0	0	0	0
092712	13:58:40	10018	pm.simpleFrRight	pm.simpleFr	2	57	295	0	0	13:58:40	862515	0	0	0	0	0	0	0	0	0	0	0	0	0	0	0	0	0
092712	13:58:40	10018	pm.simpleFrRight	blank.simpleFr	2	0	1587	1	0	13:58:40	864128	0	0	0	0	0	0	0	0	0	0	0	0	0	0	0	0	0
092712	13:58:40	10018	pm.simpleFrRight	pm.simpleFr	2	57	221	0	0	13:58:40	864381	0	0	0	0	0	0	0	0	0	0	0	0	0	0	0	0	0
092712	13:58:40	10018	pm.simpleFrRight	blank.simpleFr	2	0	1887	1	0	13:58:40	866300	0	0	0	0	0	0	0	0	0	0	0	0	0	0	0	0	0
092712	13:58:40	10018	pm.simpleFrRight	pm.simpleFr	2	57	272	0	0	13:58:40	866607	0	0	0	0	0	0	0	0	0	0	0	0	0	0	0	0	0
092712	13:58:40	10018	pm.simpleFrRight	blank.simpleFr	2	0	2087	1	0	13:58:40	868726	0	0	0	0	0	0	0	0	0	0	0	0	0	0	0	0	0
092712	13:58:40	10018	pm.simpleFrRight	pm.simpleFr	2	57	359	0	0	13:58:40	869126	0	0	0	0	0	0	0	0	0	0	0	0	0	0	0	0	0
092712	13:58:40	10018	pm.simpleFrRight	blank.simpleFr	2	0	1987	1	0	13:58:40	871138	0	0	0	0	0	0	0	0	0	0	0	0	0	0	0	0	0
092712	13:58:40	10018	pm.simpleFrRight	pm.simpleFr	2	57	249	0	0	13:58:40	871418	0	0	0	0	0	0	0	0	0	0	0	0	0	0	0	0	0
092712	13:58:40	10018	pm.simpleFrRight	blank.simpleFr	2	0	1787	1	0	13:58:40	873230	0	0	0	0	0	0	0	0	0	0	0	0	0	0	0	0	0
092712	13:58:40	10018	pm.simpleFrRight	pm.simpleFr	2	57	254	0	0	13:58:40	873524	0	0	0	0	0	0	0	0	0	0	0	0	0	0	0	0	0
092712	13:58:40	10018	pm.simpleFrRight	blank.simpleFr	2	0	2387	1	0	13:58:40	875936	0	0	0	0	0	0	0	0	0	0	0	0	0	0	0	0	0
092712	13:58:40	10018	pm.simpleFrRight	pm.simpleFr	2	57	236	0	0	13:58:40	876203	0	0	0	0	0	0	0	0	0	0	0	0	0	0	0	0	0
092712	13:58:40	10018	pm.simpleFrRight	blank.simpleFr	2	0	1687	1	0	13:58:40	877922	0	0	0	0	0	0	0	0	0	0	0	0	0	0	0	0	0
092712	13:58:40	10018	pm.simpleFrRight	pm.simpleFr	2	57	250	0	0	13:58:40	878202	0	0	0	0	0	0	0	0	0	0	0	0	0	0	0	0	0
092712	13:58:40	10018	pm.simpleFrRight	blank.simpleFr	2	0	2487	1	0	13:58:40	880721	0	0	0	0	0	0	0	0	0	0	0	0	0	0	0	0	0
092712	13:58:40	10018	pm.simpleFrRight	pm.simpleFr	2	57	315	0	0	13:58:40	881067	0	0	0	0	0	0	0	0	0	0	0	0	0	0	0	0	0
092712	13:58:40	10018	pm.simpleFrRight	blank.simpleFr	2	0	1787	1	0	13:58:40	882880	0	0	0	0	0	0	0	0	0	0	0	0	0	0	0	0	0
092712	13:58:40	10018	pm.simpleFrRight	pm.simpleFr	2	57	252	0	0	13:58:40	883173	0	0	0	0	0	0	0	0	0	0	0	0	0	0	0	0	0
092712	13:58:40	10018	pm.simpleFrRight	blank.simpleFr	2	0	1587	1	0	13:58:40	884826	0	0	0	0	0	0	0	0	0	0	0	0	0	0	0	0	0
092712	13:58:40	10018	pm.simpleFrRight	pm.simpleFr	2	57	306	0	0	13:58:40	885173	0	0	0	0	0	0	0	0	0	0	0	0	0	0	0	0	0
092712	13:58:40	10018	pm.simpleFrRight	blank.simpleFr	2	0	1987	1	0	13:58:40	887185	0	0	0	0	0	0	0	0	0	0	0	0	0	0	0	0	0
092712	13:58:40	10018	pm.simpleFrRight	pm.simpleFr	2	57	267	0	0	13:58:40	887492	0	0	0	0	0	0	0	0	0	0	0	0	0	0	0	0	0
092712	13:58:40	10018	pm.simpleFrRight	blank.simpleFr	2	0	2387	1	0	13:58:40	889904	0	0	0	0	0	0	0	0	0	0	0	0	0	0	0	0	0
092712	13:58:40	10018	pm.simpleFrRight	pm.simpleFr	2	57	268	0	0	13:58:40	890210	0	0	0	0	0	0	0	0	0	0	0	0	0	0	0	0	0
092712	13:58:40	10018	pm.simpleFrRight	blank.simpleFr	2	0	1687	1	0	13:58:40	891930	0	0	0	0	0	0	0	0	0	0	0	0	0	0	0	0	0
092712	13:58:40	10018	pm.simpleFrRight	pm.simpleFr	2	57	274	0	0	13:58:40	892236	0	0	0	0	0	0	0	0	0	0	0	0	0	0	0	0	0
092712	13:58:40	10018	pm.simpleFrRight	blank.simpleFr	2	0	2287	1	0	13:58:40	894556	0	0	0	0	0	0	0	0	0	0	0	0	0	0	0	0	0
092712	13:58:40	10018	pm.simpleFrRight	pm.simpleFr	2	57	240	0	0	13:58:40	894835	0	0	0	0	0	0	0	0	0	0	0	0	0	0	0	0	0
092712	13:58:40	10018	pm.simpleFrRight	blank.simpleFr	2	0	1887	1	0	13:58:40	896754	0	0	0	0	0	0	0	0	0	0	0	0	0	0	0	0	0
092712	13:58:40	10018	pm.simpleFrRight	pm.simpleFr	2	57	249	0	0	13:58:40	897034	0	0	0	0	0	0	0	0	0	0	0	0	0	0	0	0	0
092712	13:58:40	10018	pm.simpleFrRight	blank.simpleFr	2	0	2187	1	0	13:58:40	899247	0	0	0	0	0	0	0	0	0	0	0	0	0	0	0	0	0
092712	13:58:40	10018	pm.simpleFrRight	pm.simpleFr	2	57	269	0	0	13:58:40	899553	0	0	0	0	0	0	0	0	0	0	0	0	0	0	0	0	0
092712	13:58:40	10018	pm.simpleFrRight	blank.simpleFr	2	0	1487	1	0	13:58:40	901073	0	0	0	0	0	0	0	0	0	0	0	0	0	0	0	0	0
092712	13:58:40	10018	pm.simpleFrRight	pm.simpleFr	2	57	331	0	0	13:58:40	901446	0	0	0	0	0	0	0	0	0	0	0	0	0	0	0	0	0
092712	13:58:40	10018	pm.simpleFrRight	blank.simpleFr	2	0	2087	1	0	13:58:40	903552	0	0	0	0	0	0	0	0	0	0	0	0	0	0	0	0	0
092712	13:58:40	10018	pm.simpleFrRight	pm.simpleFr	2	57	252	0	0	13:58:40	903845	0	0	0	0	0	0	0	0	0	0	0	0	0	0	0	0	0
092712	13:58:40	10018	pm.simpleFrRight	blank.simpleFr	2	0	2487	1	0	13:58:40	906364	0	0	0	0	0	0	0	0	0	0	0	0	0	0	0	0	0
092712	13:58:40	10018	pm.simpleFrRight	pm.simpleFr	2	57	240	0	0	13:58:40	906644	0	0	0	0	0	0	0	0	0	0	0	0	0	0	0	0	0
092712	13:58:40	10018	pm.simpleFrRight	blank.simpleFr	2	0	2287	1	0	13:58:40	908963	0	0	0	0	0	0	0	0	0	0	0	0	0	0	0	0	0
092712	13:58:40	10018	pm.simpleFrRight	pm.simpleFr	2	57	264	0	0	13:58:40	909269	0	0	0	0	0	0	0	0	0	0	0	0	0	0	0	0	0
092712	13:58:40	10018	pm.simpleFrRight	blank.simpleFr	2	0	1987	1	0	13:58:40	911282	0	0	0	0	0	0	0	0	0	0	0	0	0	0	0	0	0
092712	13:58:40	10018	pm.simpleFrRight	pm.simpleFr	2	57	234	0	0	13:58:40	911548	0	0	0	0	0	0	0	0	0	0	0	0	0	0	0	0	0
092712	13:58:40	10018	pm.simpleFrRight	blank.simpleFr	2	0	2387	1	0	13:58:40	913961	0	0	0	0	0	0	0	0	0	0	0	0	0	0	0	0	0
092712	13:58:40	10018	pm.simpleFrRight	pm.simpleFr	2	57	242	0	0	13:58:40	914241	0	0	0	0	0	0	0	0	0	0	0	0	0	0	0	0	0
092712	13:58:40	10018	pm.simpleFrRight	blank.simpleFr	2	0	1587	1	0	13:58:40	915853	0	0	0	0	0	0	0	0	0	0	0	0	0	0	0	0	0
092712	13:58:40	10018	pm.simpleFrRight	pm.simpleFr	2	57	382	0	0	13:58:40	916267	0	0	0	0	0	0	0	0	0	0	0	0	0	0	0	0	0
092712	13:58:40	10018	pm.simpleFrRight	blank.simpleFr	2	0	1687	1	0	13:58:40	917986	0	0	0	0	0	0	0	0	0	0	0	0	0	0	0	0	0
092712	13:58:40	10018	pm.simpleFrRight	pm.simpleFr	2	57	313	0	0	13:58:40	918332	0	0	0	0	0	0	0	0	0	0	0	0	0	0	0	0	0
092712	13:58:40	10018	pm.simpleFrRight	blank.simpleFr	2	0	1787	1	0	13:58:40	920145	0	0	0	0	0	0	0	0	0	0	0	0	0	0	0	0	0
092712	13:58:40	10018	pm.simpleFrRight	pm.simpleFr	2	57	250	0	0	13:58:40	920425	0	0	0	0	0	0	0	0	0	0	0	0	0	0	0	0	0
092712	13:58:40	10018	pm.simpleFrRight	blank.simpleFr	2	0	1887	1	0	13:58:40	922331	0	0	0	0	0	0	0	0	0	0	0	0	0	0	0	0	0
092712	13:58:40	10018	pm.simpleFrRight	pm.simpleFr	2	57	17	0	0	13:58:40	922384	0	0	0	0	0	0	0	0	0	0	0	0	0	0	0	0	0
092712	13:58:40	10018	Trial2BackFr	N	3	0	1000	1	1	13:58:40	1008096	0	0	0	0	0	0	0	0	0	0	0	0	0	0	0	0	0
092712	13:58:40	10018	Trial2BackFr	N	3	0	1000	1	2	13:58:40	1009615	0	0	0	0	0	0	0	0	0	0	0	0	0	0	0	0	0
092712	13:58:40	10018	Trial2BackFr	N	3	0	1000	1	3	13:58:40	1011135	0	0	0	0	0	0	0	0	0	0	0	0	0	0	0	0	0
092712	13:58:40	10018	Trial2BackFr	N	3	0	1000	1	4	13:58:40	1012654	0	0	0	0	0	0	0	0	0	0	0	0	0	0	0	0	0
092712	13:58:40	10018	Trial2BackFr	N	3	0	1000	1	5	13:58:40	1014174	0	0	0	0	0	0	0	0	0	0	0	0	0	0	0	0	0
092712	13:58:40	10018	Trial2BackFr	N	3	0	1000	1	6	13:58:40	1015693	0	0	0	0	0	0	0	0	0	0	0	0	0	0	0	0	0
092712	13:58:40	10018	Trial2BackFr	N	3	0	1000	1	7	13:58:40	1017212	0	0	0	0	0	0	0	0	0	0	0	0	0	0	0	0	0
092712	13:58:40	10018	Trial2BackFr	N	3	0	1000	1	8	13:58:40	1018732	0	0	0	0	0	0	0	0	0	0	0	0	0	0	0	0	0
092712	13:58:40	10018	Trial2BackFr	Y	3	57	370	1	9	13:58:40	1019625	0	0	0	0	0	0	0	0	0	0	0	0	0	0	0	0	0
092712	13:58:40	10018	Trial2BackFr	N	3	0	1000	1	10	13:58:40	1021757	0	0	0	0	0	0	0	0	0	0	0	0	0	0	0	0	0
092712	13:58:40	10018	Trial2BackFr	N	3	0	1000	1	11	13:58:40	1023277	0	0	0	0	0	0	0	0	0	0	0	0	0	0	0	0	0
092712	13:58:40	10018	Trial2BackFr	N	3	0	1000	1	12	13:58:40	1024796	0	0	0	0	0	0	0	0	0	0	0	0	0	0	0	0	0
092712	13:58:40	10018	Trial2BackFr	Y	3	57	401	1	13	13:58:40	1025729	0	0	0	0	0	0	0	0	0	0	0	0	0	0	0	0	0
092712	13:58:40	10018	Trial2BackFr	N	3	0	1000	1	14	13:58:40	1027821	0	0	0	0	0	0	0	0	0	0	0	0	0	0	0	0	0
092712	13:58:40	10018	Trial2BackFr	N	3	0	1000	1	15	13:58:40	1029341	0	0	0	0	0	0	0	0	0	0	0	0	0	0	0	0	0
092712	13:58:40	10018	Trial2BackFr	N	3	0	1000	1	16	13:58:40	1030860	0	0	0	0	0	0	0	0	0	0	0	0	0	0	0	0	0
092712	13:58:40	10018	Trial2BackFr	N	3	0	1000	1	17	13:58:40	1032380	0	0	0	0	0	0	0	0	0	0	0	0	0	0	0	0	0
092712	13:58:40	10018	Trial2BackFr	N	3	0	1000	1	18	13:58:40	1033899	0	0	0	0	0	0	0	0	0	0	0	0	0	0	0	0	0
092712	13:58:40	10018	Trial2BackFr	Y	3	57	466	1	19	13:58:40	1034899	0	0	0	0	0	0	0	0	0	0	0	0	0	0	0	0	0
092712	13:58:40	10018	Trial2BackFr	N	3	0	1000	1	20	13:58:40	1036924	0	0	0	0	0	0	0	0	0	0	0	0	0	0	0	0	0
092712	13:58:40	10018	Trial2BackFr	N	3	0	1000	1	21	13:58:40	1038444	0	0	0	0	0	0	0	0	0	0	0	0	0	0	0	0	0
092712	13:58:40	10018	Trial2BackFr	N	3	0	1000	1	22	13:58:40	1039963	0	0	0	0	0	0	0	0	0	0	0	0	0	0	0	0	0
092712	13:58:40	10018	Trial2BackFr	N	3	0	1000	1	23	13:58:40	1041483	0	0	0	0	0	0	0	0	0	0	0	0	0	0	0	0	0
092712	13:58:40	10018	Trial2BackFr	Y	3	57	562	1	24	13:58:40	1042576	0	0	0	0	0	0	0	0	0	0	0	0	0	0	0	0	0
092712	13:58:40	10018	Trial2BackFr	N	3	0	1000	1	25	13:58:40	1044508	0	0	0	0	0	0	0	0	0	0	0	0	0	0	0	0	0
092712	13:58:40	10018	Trial2BackFr	N	3	0	1000	1	26	13:58:40	1046027	0	0	0	0	0	0	0	0	0	0	0	0	0	0	0	0	0
092712	13:58:40	10018	Trial2BackFr	N	3	0	1000	1	27	13:58:40	1047547	0	0	0	0	0	0	0	0	0	0	0	0	0	0	0	0	0
092712	13:58:40	10018	Trial2BackFr	N	3	0	1000	1	28	13:58:40	1049066	0	0	0	0	0	0	0	0	0	0	0	0	0	0	0	0	0
092712	13:58:40	10018	Trial2BackFr	N	3	0	1000	1	29	13:58:40	1050586	0	0	0	0	0	0	0	0	0	0	0	0	0	0	0	0	0
092712	13:58:40	10018	Trial2BackFr	N	3	0	1000	1	30	13:58:40	1052105	0	0	0	0	0	0	0	0	0	0	0	0	0	0	0	0	0
092712	13:58:40	10018	Trial2BackFr	Y	3	57	356	1	31	13:58:40	1052984	0	0	0	0	0	0	0	0	0	0	0	0	0	0	0	0	0
092712	13:58:40	10018	Trial2BackFr	N	3	0	1000	1	32	13:58:40	1055130	0	0	0	0	0	0	0	0	0	0	0	0	0	0	0	0	0
092712	13:58:40	10018	Trial2BackFr	N	3	0	1000	1	33	13:58:40	1056650	0	0	0	0	0	0	0	0	0	0	0	0	0	0	0	0	0
092712	13:58:40	10018	Trial2BackFr	N	3	0	1000	1	34	13:58:40	1058169	0	0	0	0	0	0	0	0	0	0	0	0	0	0	0	0	0
092712	13:58:40	10018	Trial2BackFr	Y	3	57	387	1	35	13:58:40	1059089	0	0	0	0	0	0	0	0	0	0	0	0	0	0	0	0	0
092712	13:58:40	10018	Trial2BackFr	N	3	0	1000	1	36	13:58:40	1061195	0	0	0	0	0	0	0	0	0	0	0	0	0	0	0	0	0
092712	13:58:40	10018	Trial2BackFr	N	3	0	1000	1	37	13:58:40	1062714	0	0	0	0	0	0	0	0	0	0	0	0	0	0	0	0	0
092712	13:58:40	10018	Trial2BackFr	N	3	0	1000	1	38	13:58:40	1064233	0	0	0	0	0	0	0	0	0	0	0	0	0	0	0	0	0
092712	13:58:40	10018	Trial2BackFr	N	3	0	1000	1	39	13:58:40	1065753	0	0	0	0	0	0	0	0	0	0	0	0	0	0	0	0	0
092712	13:58:40	10018	Trial2BackFr	N	3	0	1000	1	40	13:58:40	1067272	0	0	0	0	0	0	0	0	0	0	0	0	0	0	0	0	0
092712	13:58:40	10018	Trial2BackFr	N	3	0	1000	1	41	13:58:40	1068792	0	0	0	0	0	0	0	0	0	0	0	0	0	0	0	0	0
092712	13:58:40	10018	Trial2BackFr	Y	3	57	725	1	42	13:58:40	1070044	0	0	0	0	0	0	0	0	0	0	0	0	0	0	0	0	0
092712	13:58:40	10018	Trial2BackFr	N	3	0	1000	1	43	13:58:40	1071817	0	0	0	0	0	0	0	0	0	0	0	0	0	0	0	0	0
092712	13:58:40	10018	Trial2BackFr	N	3	0	1000	1	44	13:58:40	1073336	0	0	0	0	0	0	0	0	0	0	0	0	0	0	0	0	0
092712	13:58:40	10018	Trial2BackFr	N	3	0	1000	1	45	13:58:40	1074856	0	0	0	0	0	0	0	0	0	0	0	0	0	0	0	0	0
092712	13:58:40	10018	Trial2BackFr	N	3	0	1000	1	46	13:58:40	1076375	0	0	0	0	0	0	0	0	0	0	0	0	0	0	0	0	0
092712	13:58:40	10018	Trial2BackFr	Y	3	57	421	1	47	13:58:40	1077321	0	0	0	0	0	0	0	0	0	0	0	0	0	0	0	0	0
092712	13:58:40	10018	Trial2BackFr	N	3	0	1000	1	48	13:58:40	1079401	0	0	0	0	0	0	0	0	0	0	0	0	0	0	0	0	0
092712	13:58:40	10018	Trial2BackFr	N	3	0	1000	1	49	13:58:40	1080920	0	0	0	0	0	0	0	0	0	0	0	0	0	0	0	0	0
092712	13:58:40	10018	Trial2BackFr	N	3	0	1000	1	50	13:58:40	1082439	0	0	0	0	0	0	0	0	0	0	0	0	0	0	0	0	0
092712	13:58:40	10018	Trial2BackFr	N	3	0	1000	1	51	13:58:40	1083959	0	0	0	0	0	0	0	0	0	0	0	0	0	0	0	0	0
092712	13:58:40	10018	Trial2BackFr	N	3	0	1000	1	52	13:58:40	1085478	0	0	0	0	0	0	0	0	0	0	0	0	0	0	0	0	0
092712	13:58:40	10018	Trial2BackFr	Y	3	57	662	1	53	13:58:40	1086664	0	0	0	0	0	0	0	0	0	0	0	0	0	0	0	0	0
092712	13:58:40	10018	Trial2BackFr	N	3	0	1000	1	54	13:58:40	1088504	0	0	0	0	0	0	0	0	0	0	0	0	0	0	0	0	0
092712	13:58:40	10018	Trial2BackFr	N	3	0	1000	1	55	13:58:40	1090023	0	0	0	0	0	0	0	0	0	0	0	0	0	0	0	0	0
092712	13:58:40	10018	Trial2BackFr	N	3	0	1000	1	56	13:58:40	1091542	0	0	0	0	0	0	0	0	0	0	0	0	0	0	0	0	0
092712	13:58:40	10018	Trial2BackFr	N	3	0	1000	1	57	13:58:40	1093062	0	0	0	0	0	0	0	0	0	0	0	0	0	0	0	0	0
092712	13:58:40	10018	Trial2BackFr	N	3	0	1000	1	58	13:58:40	1094581	0	0	0	0	0	0	0	0	0	0	0	0	0	0	0	0	0
092712	13:58:40	10018	Trial2BackFr	N	3	0	1000	1	59	13:58:40	1096101	0	0	0	0	0	0	0	0	0	0	0	0	0	0	0	0	0
092712	13:58:40	10018	Trial2BackFr	Y	3	57	855	1	60	13:58:40	1097487	0	0	0	0	0	0	0	0	0	0	0	0	0	0	0	0	0
092712	13:58:40	10018	Trial2BackFr	N	3	0	1000	1	61	13:58:40	1099126	0	0	0	0	0	0	0	0	0	0	0	0	0	0	0	0	0
092712	13:58:40	10018	Trial2BackFr	N	3	0	1000	1	62	13:58:40	1100645	0	0	0	0	0	0	0	0	0	0	0	0	0	0	0	0	0
092712	13:58:40	10018	Trial2BackFr	Y	3	57	502	1	63	13:58:40	1101671	0	0	0	0	0	0	0	0	0	0	0	0	0	0	0	0	0
092712	13:58:40	10018	Trial2BackFr	N	3	0	1000	1	64	13:58:40	1103671	0	0	0	0	0	0	0	0	0	0	0	0	0	0	0	0	0
092712	13:58:40	10018	Trial2BackFr	N	3	0	1000	1	65	13:58:40	1105190	0	0	0	0	0	0	0	0	0	0	0	0	0	0	0	0	0
092712	13:58:40	10018	Trial2BackFr	N	3	0	1000	1	66	13:58:40	1106710	0	0	0	0	0	0	0	0	0	0	0	0	0	0	0	0	0
092712	13:58:40	10018	Trial2BackFr	N	3	0	1000	1	67	13:58:40	1108229	0	0	0	0	0	0	0	0	0	0	0	0	0	0	0	0	0
092712	13:58:40	10018	Trial2BackFr	N	3	0	1000	1	68	13:58:40	1109748	0	0	0	0	0	0	0	0	0	0	0	0	0	0	0	0	0
092712	13:58:40	10018	Trial2BackFr	N	3	0	1000	1	69	13:58:40	1111268	0	0	0	0	0	0	0	0	0	0	0	0	0	0	0	0	0
092712	13:58:40	10018	Trial2BackFr	N	3	0	1000	1	70	13:58:40	1112787	0	0	0	0	0	0	0	0	0	0	0	0	0	0	0	0	0
092712	13:58:40	10018	Trial2BackFr	N	3	0	1000	1	71	13:58:40	1114306	0	0	0	0	0	0	0	0	0	0	0	0	0	0	0	0	0
092712	13:58:40	10018	Trial2BackFr	N	3	0	1000	1	72	13:58:40	1115826	0	0	0	0	0	0	0	0	0	0	0	0	0	0	0	0	0
092712	13:58:40	10018	Trial2BackFr	N	3	0	1000	1	73	13:58:40	1117346	0	0	0	0	0	0	0	0	0	0	0	0	0	0	0	0	0
092712	13:58:40	10018	Trial2BackFr	Y	3	57	554	1	74	13:58:40	1118425	0	0	0	0	0	0	0	0	0	0	0	0	0	0	0	0	0
092712	13:58:40	10018	Trial2BackFr	N	3	0	1000	1	75	13:58:40	1120371	0	0	0	0	0	0	0	0	0	0	0	0	0	0	0	0	0
092712	13:58:40	10018	Trial2BackFr	N	3	0	1000	1	76	13:58:40	1121890	0	0	0	0	0	0	0	0	0	0	0	0	0	0	0	0	0
092712	13:58:40	10018	Trial2BackFr	N	3	0	1000	1	77	13:58:40	1123409	0	0	0	0	0	0	0	0	0	0	0	0	0	0	0	0	0
092712	13:58:40	10018	Trial2BackFr	Y	3	57	586	1	78	13:58:40	1124529	0	0	0	0	0	0	0	0	0	0	0	0	0	0	0	0	0
092712	13:58:40	10018	Trial2BackFr	N	3	0	1000	1	79	13:58:40	1126435	0	0	0	0	0	0	0	0	0	0	0	0	0	0	0	0	0
092712	13:58:40	10018	Trial2BackFr	N	3	0	1000	1	80	13:58:40	1127954	0	0	0	0	0	0	0	0	0	0	0	0	0	0	0	0	0
092712	13:58:40	10018	Trial2BackFr	N	3	0	1000	1	81	13:58:40	1129474	0	0	0	0	0	0	0	0	0	0	0	0	0	0	0	0	0
092712	13:58:40	10018	Trial2BackFr	N	3	0	1000	1	82	13:58:40	1130993	0	0	0	0	0	0	0	0	0	0	0	0	0	0	0	0	0
092712	13:58:40	10018	Trial2BackFr	N	3	0	1000	1	83	13:58:40	1132512	0	0	0	0	0	0	0	0	0	0	0	0	0	0	0	0	0
092712	13:58:40	10018	Trial2BackFr	Y	3	57	586	1	84	13:58:40	1133632	0	0	0	0	0	0	0	0	0	0	0	0	0	0	0	0	0
092712	13:58:40	10018	Trial2BackFr	N	3	0	1000	1	85	13:58:40	1135538	0	0	0	0	0	0	0	0	0	0	0	0	0	0	0	0	0
092712	13:58:40	10018	Trial2BackFr	N	3	0	1000	1	86	13:58:40	1137057	0	0	0	0	0	0	0	0	0	0	0	0	0	0	0	0	0
092712	13:58:40	10018	Trial2BackFr	N	3	0	1000	1	87	13:58:40	1138577	0	0	0	0	0	0	0	0	0	0	0	0	0	0	0	0	0
092712	13:58:40	10018	Trial2BackFr	N	3	0	1000	1	88	13:58:40	1140096	0	0	0	0	0	0	0	0	0	0	0	0	0	0	0	0	0
092712	13:58:40	10018	Trial2BackFr	N	3	0	1000	1	89	13:58:40	1141615	0	0	0	0	0	0	0	0	0	0	0	0	0	0	0	0	0
092712	13:58:40	10018	Trial2BackFr	N	3	0	1000	1	90	13:58:40	1143135	0	0	0	0	0	0	0	0	0	0	0	0	0	0	0	0	0
092712	13:58:40	10018	Trial2BackFr	N	3	0	1000	1	91	13:58:40	1144654	0	0	0	0	0	0	0	0	0	0	0	0	0	0	0	0	0
092712	13:58:40	10018	Trial2BackFr	N	3	0	1000	1	92	13:58:40	1146173	0	0	0	0	0	0	0	0	0	0	0	0	0	0	0	0	0
092712	13:58:40	10018	Trial2BackFr	N	3	0	1000	1	93	13:58:40	1147693	0	0	0	0	0	0	0	0	0	0	0	0	0	0	0	0	0
092712	13:58:40	10018	Trial2BackFr	Y	3	57	445	1	94	13:58:40	1148666	0	0	0	0	0	0	0	0	0	0	0	0	0	0	0	0	0
092712	13:58:40	10018	Trial2BackFr	N	3	0	1000	1	95	13:58:40	1150718	0	0	0	0	0	0	0	0	0	0	0	0	0	0	0	0	0
092712	13:58:40	10018	Trial2BackFr	N	3	0	1000	1	96	13:58:40	1152238	0	0	0	0	0	0	0	0	0	0	0	0	0	0	0	0	0
092712	13:58:40	10018	Trial2BackFr	N	3	0	1000	1	97	13:58:40	1153757	0	0	0	0	0	0	0	0	0	0	0	0	0	0	0	0	0
092712	13:58:40	10018	Trial2BackFr	N	3	0	1000	1	98	13:58:40	1155277	0	0	0	0	0	0	0	0	0	0	0	0	0	0	0	0	0
092712	13:58:40	10018	Trial2BackFr	N	3	0	1000	1	99	13:58:40	1156796	0	0	0	0	0	0	0	0	0	0	0	0	0	0	0	0	0
092712	13:58:40	10018	Trial2BackFr	N	3	0	1000	1	100	13:58:40	1158315	0	0	0	0	0	0	0	0	0	0	0	0	0	0	0	0	0
092712	13:58:40	10018	Trial2BackFr	N	3	0	1000	1	101	13:58:40	1159835	0	0	0	0	0	0	0	0	0	0	0	0	0	0	0	0	0
092712	13:58:40	10018	Trial2BackFr	N	3	0	1000	1	102	13:58:40	1161354	0	0	0	0	0	0	0	0	0	0	0	0	0	0	0	0	0
092712	13:58:40	10018	Trial2BackFr	Y	3	57	576	1	103	13:58:40	1162460	0	0	0	0	0	0	0	0	0	0	0	0	0	0	0	0	0
092712	13:58:40	10018	Trial2BackFr	N	3	0	1000	1	104	13:58:40	1164380	0	0	0	0	0	0	0	0	0	0	0	0	0	0	0	0	0
092712	13:58:40	10018	Trial2BackFr	N	3	0	1000	1	105	13:58:40	1165899	0	0	0	0	0	0	0	0	0	0	0	0	0	0	0	0	0
092712	13:58:40	10018	Trial2BackFr	N	3	0	1000	1	106	13:58:40	1167418	0	0	0	0	0	0	0	0	0	0	0	0	0	0	0	0	0
092712	13:58:40	10018	Trial2BackFr	N	3	0	1000	1	107	13:58:40	1168938	0	0	0	0	0	0	0	0	0	0	0	0	0	0	0	0	0
092712	13:58:40	10018	Trial2BackFr	Y	3	57	448	1	108	13:58:40	1169911	0	0	0	0	0	0	0	0	0	0	0	0	0	0	0	0	0
092712	13:58:40	10018	Trial2BackFr	N	3	0	1000	1	109	13:58:40	1171963	0	0	0	0	0	0	0	0	0	0	0	0	0	0	0	0	0
092712	13:58:40	10018	Trial2BackFr	N	3	0	1000	1	110	13:58:40	1173483	0	0	0	0	0	0	0	0	0	0	0	0	0	0	0	0	0
092712	13:58:40	10018	Trial2BackFr	N	3	0	1000	1	111	13:58:40	1175002	0	0	0	0	0	0	0	0	0	0	0	0	0	0	0	0	0
092712	13:58:40	10018	Trial2BackFr	Y	3	57	656	1	112	13:58:40	1176188	0	0	0	0	0	0	0	0	0	0	0	0	0	0	0	0	0
092712	13:58:40	10018	Trial2BackFr	N	3	0	1000	1	113	13:58:40	1178027	0	0	0	0	0	0	0	0	0	0	0	0	0	0	0	0	0
092712	13:58:40	10018	Trial2BackFr	N	3	0	1000	1	114	13:58:40	1179547	0	0	0	0	0	0	0	0	0	0	0	0	0	0	0	0	0
092712	13:58:40	10018	Trial2BackFr	N	3	0	1000	1	115	13:58:40	1181066	0	0	0	0	0	0	0	0	0	0	0	0	0	0	0	0	0
092712	13:58:40	10018	Trial2BackFr	N	3	0	1000	1	116	13:58:40	1182586	0	0	0	0	0	0	0	0	0	0	0	0	0	0	0	0	0
092712	13:58:40	10018	Trial2BackFr	N	3	0	1000	1	117	13:58:40	1184105	0	0	0	0	0	0	0	0	0	0	0	0	0	0	0	0	0
092712	13:58:40	10018	Trial2BackFr	Y	3	57	673	1	118	13:58:40	1185304	0	0	0	0	0	0	0	0	0	0	0	0	0	0	0	0	0
092712	13:58:40	10018	Trial2BackFr	N	3	0	1000	1	119	13:58:40	1187130	0	0	0	0	0	0	0	0	0	0	0	0	0	0	0	0	0
092712	13:58:40	10018	Trial2BackFr	N	3	0	1000	1	120	13:58:40	1188650	0	0	0	0	0	0	0	0	0	0	0	0	0	0	0	0	0
092712	13:58:40	10018	Trial2BackFr	N	3	0	1000	1	121	13:58:40	1190169	0	0	0	0	0	0	0	0	0	0	0	0	0	0	0	0	0
092712	13:58:40	10018	Trial2BackFr	Y	3	57	576	1	122	13:58:40	1191275	0	0	0	0	0	0	0	0	0	0	0	0	0	0	0	0	0
092712	13:58:40	10018	Trial3BackFr	NN	4	0	1000	1	122	13:58:40	1229753	0	0	0	0	0	0	0	0	0	0	0	0	0	0	0	0	0
092712	13:58:40	10018	Trial3BackFr	NN	4	0	1000	1	122	13:58:40	1231272	0	0	0	0	0	0	0	0	0	0	0	0	0	0	0	0	0
092712	13:58:40	10018	Trial3BackFr	NN	4	0	1000	1	122	13:58:40	1232792	0	0	0	0	0	0	0	0	0	0	0	0	0	0	0	0	0
092712	13:58:40	10018	Trial3BackFr	YY	4	0	1000	0	122	13:58:40	1234311	0	0	0	0	0	0	0	0	0	0	0	0	0	0	0	0	0
092712	13:58:40	10018	Trial3BackFr	NN	4	0	1000	1	122	13:58:40	1235831	0	0	0	0	0	0	0	0	0	0	0	0	0	0	0	0	0
092712	13:58:40	10018	Trial3BackFr	NN	4	0	1000	1	122	13:58:40	1237350	0	0	0	0	0	0	0	0	0	0	0	0	0	0	0	0	0
092712	13:58:40	10018	Trial3BackFr	NN	4	0	1000	1	122	13:58:40	1238869	0	0	0	0	0	0	0	0	0	0	0	0	0	0	0	0	0
092712	13:58:40	10018	Trial3BackFr	NN	4	0	1000	1	122	13:58:40	1240389	0	0	0	0	0	0	0	0	0	0	0	0	0	0	0	0	0
092712	13:58:40	10018	Trial3BackFr	YY	4	0	1000	0	122	13:58:40	1241908	0	0	0	0	0	0	0	0	0	0	0	0	0	0	0	0	0
092712	13:58:40	10018	Trial3BackFr	NN	4	0	1000	1	122	13:58:40	1243428	0	0	0	0	0	0	0	0	0	0	0	0	0	0	0	0	0
092712	13:58:40	10018	Trial3BackFr	NN	4	0	1000	1	122	13:58:40	1244947	0	0	0	0	0	0	0	0	0	0	0	0	0	0	0	0	0
092712	13:58:40	10018	Trial3BackFr	NN	4	0	1000	1	122	13:58:40	1246466	0	0	0	0	0	0	0	0	0	0	0	0	0	0	0	0	0
092712	13:58:40	10018	Trial3BackFr	NN	4	0	1000	1	122	13:58:40	1247986	0	0	0	0	0	0	0	0	0	0	0	0	0	0	0	0	0
092712	13:58:40	10018	Trial3BackFr	NN	4	0	1000	1	122	13:58:40	1249505	0	0	0	0	0	0	0	0	0	0	0	0	0	0	0	0	0
092712	13:58:40	10018	Trial3BackFr	NN	4	0	1000	1	122	13:58:40	1251024	0	0	0	0	0	0	0	0	0	0	0	0	0	0	0	0	0
092712	13:58:40	10018	Trial3BackFr	NN	4	0	1000	1	122	13:58:40	1252544	0	0	0	0	0	0	0	0	0	0	0	0	0	0	0	0	0
092712	13:58:40	10018	Trial3BackFr	YY	4	57	568	1	122	13:58:40	1253637	0	0	0	0	0	0	0	0	0	0	0	0	0	0	0	0	0
092712	13:58:40	10018	Trial3BackFr	NN	4	0	1000	1	122	13:58:40	1255569	0	0	0	0	0	0	0	0	0	0	0	0	0	0	0	0	0
092712	13:58:40	10018	Trial3BackFr	NN	4	0	1000	1	122	13:58:40	1257089	0	0	0	0	0	0	0	0	0	0	0	0	0	0	0	0	0
092712	13:58:40	10018	Trial3BackFr	NN	4	0	1000	1	122	13:58:40	1258608	0	0	0	0	0	0	0	0	0	0	0	0	0	0	0	0	0
092712	13:58:40	10018	Trial3BackFr	NN	4	0	1000	1	122	13:58:40	1260127	0	0	0	0	0	0	0	0	0	0	0	0	0	0	0	0	0
092712	13:58:40	10018	Trial3BackFr	NN	4	0	1000	1	122	13:58:40	1261647	0	0	0	0	0	0	0	0	0	0	0	0	0	0	0	0	0
092712	13:58:40	10018	Trial3BackFr	YY	4	57	681	1	122	13:58:40	1262860	0	0	0	0	0	0	0	0	0	0	0	0	0	0	0	0	0
092712	13:58:40	10018	Trial3BackFr	NN	4	0	1000	1	122	13:58:40	1264672	0	0	0	0	0	0	0	0	0	0	0	0	0	0	0	0	0
092712	13:58:40	10018	Trial3BackFr	NN	4	0	1000	1	122	13:58:40	1266192	0	0	0	0	0	0	0	0	0	0	0	0	0	0	0	0	0
092712	13:58:40	10018	Trial3BackFr	NN	4	0	1000	1	122	13:58:40	1267711	0	0	0	0	0	0	0	0	0	0	0	0	0	0	0	0	0
092712	13:58:40	10018	Trial3BackFr	YY	4	57	889	1	122	13:58:40	1269124	0	0	0	0	0	0	0	0	0	0	0	0	0	0	0	0	0
092712	13:58:40	10018	Trial3BackFr	NN	4	0	1000	1	122	13:58:40	1270737	0	0	0	0	0	0	0	0	0	0	0	0	0	0	0	0	0
092712	13:58:40	10018	Trial3BackFr	NN	4	0	1000	1	122	13:58:40	1272256	0	0	0	0	0	0	0	0	0	0	0	0	0	0	0	0	0
092712	13:58:40	10018	Trial3BackFr	NN	4	0	1000	1	122	13:58:40	1273775	0	0	0	0	0	0	0	0	0	0	0	0	0	0	0	0	0
092712	13:58:40	10018	Trial3BackFr	YY	4	57	440	1	122	13:58:40	1274748	0	0	0	0	0	0	0	0	0	0	0	0	0	0	0	0	0
092712	13:58:40	10018	Trial3BackFr	NN	4	0	1000	1	122	13:58:40	1276801	0	0	0	0	0	0	0	0	0	0	0	0	0	0	0	0	0
092712	13:58:40	10018	Trial3BackFr	NN	4	0	1000	1	122	13:58:40	1278320	0	0	0	0	0	0	0	0	0	0	0	0	0	0	0	0	0
092712	13:58:40	10018	Trial3BackFr	NN	4	0	1000	1	122	13:58:40	1279840	0	0	0	0	0	0	0	0	0	0	0	0	0	0	0	0	0
092712	13:58:40	10018	Trial3BackFr	NN	4	0	1000	1	122	13:58:40	1281359	0	0	0	0	0	0	0	0	0	0	0	0	0	0	0	0	0
092712	13:58:40	10018	Trial3BackFr	NN	4	0	1000	1	122	13:58:40	1282878	0	0	0	0	0	0	0	0	0	0	0	0	0	0	0	0	0
092712	13:58:40	10018	Trial3BackFr	NN	4	0	1000	1	122	13:58:40	1284398	0	0	0	0	0	0	0	0	0	0	0	0	0	0	0	0	0
092712	13:58:40	10018	Trial3BackFr	NN	4	0	1000	1	122	13:58:40	1285917	0	0	0	0	0	0	0	0	0	0	0	0	0	0	0	0	0
092712	13:58:40	10018	Trial3BackFr	NN	4	0	1000	1	122	13:58:40	1287436	0	0	0	0	0	0	0	0	0	0	0	0	0	0	0	0	0
092712	13:58:40	10018	Trial3BackFr	NN	4	0	1000	1	122	13:58:40	1288956	0	0	0	0	0	0	0	0	0	0	0	0	0	0	0	0	0
092712	13:58:40	10018	Trial3BackFr	NN	4	0	1000	1	122	13:58:40	1290475	0	0	0	0	0	0	0	0	0	0	0	0	0	0	0	0	0
092712	13:58:40	10018	Trial3BackFr	YY	4	57	812	1	122	13:58:40	1291821	0	0	0	0	0	0	0	0	0	0	0	0	0	0	0	0	0
092712	13:58:40	10018	Trial3BackFr	NN	4	0	1000	1	122	13:58:40	1293500	0	0	0	0	0	0	0	0	0	0	0	0	0	0	0	0	0
092712	13:58:40	10018	Trial3BackFr	NN	4	0	1000	1	122	13:58:40	1295020	0	0	0	0	0	0	0	0	0	0	0	0	0	0	0	0	0
092712	13:58:40	10018	Trial3BackFr	NN	4	0	1000	1	122	13:58:40	1296539	0	0	0	0	0	0	0	0	0	0	0	0	0	0	0	0	0
092712	13:58:40	10018	Trial3BackFr	NN	4	0	1000	1	122	13:58:40	1298059	0	0	0	0	0	0	0	0	0	0	0	0	0	0	0	0	0
092712	13:58:40	10018	Trial3BackFr	YY	4	57	684	1	122	13:58:40	1299272	0	0	0	0	0	0	0	0	0	0	0	0	0	0	0	0	0
092712	13:58:40	10018	Trial3BackFr	NN	4	0	1000	1	122	13:58:40	1301084	0	0	0	0	0	0	0	0	0	0	0	0	0	0	0	0	0
092712	13:58:40	10018	Trial3BackFr	NN	4	0	1000	1	122	13:58:40	1302603	0	0	0	0	0	0	0	0	0	0	0	0	0	0	0	0	0
092712	13:58:40	10018	Trial3BackFr	NN	4	0	1000	1	122	13:58:40	1304123	0	0	0	0	0	0	0	0	0	0	0	0	0	0	0	0	0
092712	13:58:40	10018	Trial3BackFr	NN	4	0	1000	1	122	13:58:40	1305642	0	0	0	0	0	0	0	0	0	0	0	0	0	0	0	0	0
092712	13:58:40	10018	Trial3BackFr	NN	4	0	1000	1	122	13:58:40	1307162	0	0	0	0	0	0	0	0	0	0	0	0	0	0	0	0	0
092712	13:58:40	10018	Trial3BackFr	YY	4	57	509	1	122	13:58:40	1308201	0	0	0	0	0	0	0	0	0	0	0	0	0	0	0	0	0
092712	13:58:40	10018	Trial3BackFr	NN	4	0	1000	1	122	13:58:40	1310187	0	0	0	0	0	0	0	0	0	0	0	0	0	0	0	0	0
092712	13:58:40	10018	Trial3BackFr	NN	4	0	1000	1	122	13:58:40	1311707	0	0	0	0	0	0	0	0	0	0	0	0	0	0	0	0	0
092712	13:58:40	10018	Trial3BackFr	NN	4	0	1000	1	122	13:58:40	1313226	0	0	0	0	0	0	0	0	0	0	0	0	0	0	0	0	0
092712	13:58:40	10018	Trial3BackFr	NN	4	0	1000	1	122	13:58:40	1314745	0	0	0	0	0	0	0	0	0	0	0	0	0	0	0	0	0
092712	13:58:40	10018	Trial3BackFr	NN	4	0	1000	1	122	13:58:40	1316265	0	0	0	0	0	0	0	0	0	0	0	0	0	0	0	0	0
092712	13:58:40	10018	Trial3BackFr	NN	4	0	1000	1	122	13:58:40	1317784	0	0	0	0	0	0	0	0	0	0	0	0	0	0	0	0	0
092712	13:58:40	10018	Trial3BackFr	YY	4	0	1000	0	122	13:58:40	1319304	0	0	0	0	0	0	0	0	0	0	0	0	0	0	0	0	0
092712	13:58:40	10018	Trial3BackFr	NN	4	0	1000	1	122	13:58:40	1320823	0	0	0	0	0	0	0	0	0	0	0	0	0	0	0	0	0
092712	13:58:40	10018	Trial3BackFr	NN	4	0	1000	1	122	13:58:40	1322342	0	0	0	0	0	0	0	0	0	0	0	0	0	0	0	0	0
092712	13:58:40	10018	Trial3BackFr	NN	4	0	1000	1	122	13:58:40	1323862	0	0	0	0	0	0	0	0	0	0	0	0	0	0	0	0	0
092712	13:58:40	10018	Trial3BackFr	YY	4	0	1000	0	122	13:58:40	1325381	0	0	0	0	0	0	0	0	0	0	0	0	0	0	0	0	0
092712	13:58:40	10018	Trial3BackFr	NN	4	0	1000	1	122	13:58:40	1326900	0	0	0	0	0	0	0	0	0	0	0	0	0	0	0	0	0
092712	13:58:40	10018	Trial3BackFr	NN	4	0	1000	1	122	13:58:40	1328420	0	0	0	0	0	0	0	0	0	0	0	0	0	0	0	0	0
092712	13:58:40	10018	Trial3BackFr	NN	4	0	1000	1	122	13:58:40	1329939	0	0	0	0	0	0	0	0	0	0	0	0	0	0	0	0	0
092712	13:58:40	10018	Trial3BackFr	NN	4	0	1000	1	122	13:58:40	1331459	0	0	0	0	0	0	0	0	0	0	0	0	0	0	0	0	0
092712	13:58:40	10018	Trial3BackFr	NN	4	0	1000	1	122	13:58:40	1332978	0	0	0	0	0	0	0	0	0	0	0	0	0	0	0	0	0
092712	13:58:40	10018	Trial3BackFr	NN	4	0	1000	1	122	13:58:40	1334497	0	0	0	0	0	0	0	0	0	0	0	0	0	0	0	0	0
092712	13:58:40	10018	Trial3BackFr	NN	4	0	1000	1	122	13:58:40	1336017	0	0	0	0	0	0	0	0	0	0	0	0	0	0	0	0	0
092712	13:58:40	10018	Trial3BackFr	NN	4	0	1000	1	122	13:58:40	1337536	0	0	0	0	0	0	0	0	0	0	0	0	0	0	0	0	0
092712	13:58:40	10018	Trial3BackFr	NN	4	0	1000	1	122	13:58:40	1339056	0	0	0	0	0	0	0	0	0	0	0	0	0	0	0	0	0
092712	13:58:40	10018	Trial3BackFr	YY	4	0	1000	0	122	13:58:40	1340575	0	0	0	0	0	0	0	0	0	0	0	0	0	0	0	0	0
092712	13:58:40	10018	Trial3BackFr	NN	4	0	1000	1	122	13:58:40	1342094	0	0	0	0	0	0	0	0	0	0	0	0	0	0	0	0	0
092712	13:58:40	10018	Trial3BackFr	NN	4	0	1000	1	122	13:58:40	1343614	0	0	0	0	0	0	0	0	0	0	0	0	0	0	0	0	0
092712	13:58:40	10018	Trial3BackFr	NN	4	0	1000	1	122	13:58:40	1345133	0	0	0	0	0	0	0	0	0	0	0	0	0	0	0	0	0
092712	13:58:40	10018	Trial3BackFr	YY	4	57	345	1	122	13:58:40	1346013	0	0	0	0	0	0	0	0	0	0	0	0	0	0	0	0	0
092712	13:58:40	10018	Trial3BackFr	NN	4	0	1000	1	122	13:58:40	1348159	0	0	0	0	0	0	0	0	0	0	0	0	0	0	0	0	0
092712	13:58:40	10018	Trial3BackFr	NN	4	0	1000	1	122	13:58:40	1349678	0	0	0	0	0	0	0	0	0	0	0	0	0	0	0	0	0
092712	13:58:40	10018	Trial3BackFr	NN	4	0	1000	1	122	13:58:40	1351197	0	0	0	0	0	0	0	0	0	0	0	0	0	0	0	0	0
092712	13:58:40	10018	Trial3BackFr	NN	4	0	1000	1	122	13:58:40	1352717	0	0	0	0	0	0	0	0	0	0	0	0	0	0	0	0	0
092712	13:58:40	10018	Trial3BackFr	NN	4	0	1000	1	122	13:58:40	1354236	0	0	0	0	0	0	0	0	0	0	0	0	0	0	0	0	0
092712	13:58:40	10018	Trial3BackFr	YY	4	57	617	1	122	13:58:40	1355382	0	0	0	0	0	0	0	0	0	0	0	0	0	0	0	0	0
092712	13:58:40	10018	Trial3BackFr	NN	4	0	1000	1	122	13:58:40	1357262	0	0	0	0	0	0	0	0	0	0	0	0	0	0	0	0	0
092712	13:58:40	10018	Trial3BackFr	NN	4	0	1000	1	122	13:58:40	1358781	0	0	0	0	0	0	0	0	0	0	0	0	0	0	0	0	0
092712	13:58:40	10018	Trial3BackFr	NN	4	0	1000	1	122	13:58:40	1360300	0	0	0	0	0	0	0	0	0	0	0	0	0	0	0	0	0
092712	13:58:40	10018	Trial3BackFr	NN	4	0	1000	1	122	13:58:40	1361820	0	0	0	0	0	0	0	0	0	0	0	0	0	0	0	0	0
092712	13:58:40	10018	Trial3BackFr	NN	4	0	1000	1	122	13:58:40	1363339	0	0	0	0	0	0	0	0	0	0	0	0	0	0	0	0	0
092712	13:58:40	10018	Trial3BackFr	NN	4	0	1000	1	122	13:58:40	1364859	0	0	0	0	0	0	0	0	0	0	0	0	0	0	0	0	0
092712	13:58:40	10018	Trial3BackFr	NN	4	0	1000	1	122	13:58:40	1366391	0	0	0	0	0	0	0	0	0	0	0	0	0	0	0	0	0
092712	13:58:40	10018	Trial3BackFr	NN	4	0	1000	1	122	13:58:40	1367911	0	0	0	0	0	0	0	0	0	0	0	0	0	0	0	0	0
092712	13:58:40	10018	Trial3BackFr	NN	4	0	1000	1	122	13:58:40	1369430	0	0	0	0	0	0	0	0	0	0	0	0	0	0	0	0	0
092712	13:58:40	10018	Trial3BackFr	YY	4	57	735	1	122	13:58:40	1370696	0	0	0	0	0	0	0	0	0	0	0	0	0	0	0	0	0
092712	13:58:40	10018	Trial3BackFr	NN	4	0	1000	1	122	13:58:40	1372455	0	0	0	0	0	0	0	0	0	0	0	0	0	0	0	0	0
092712	13:58:40	10018	Trial3BackFr	NN	4	0	1000	1	122	13:58:40	1373975	0	0	0	0	0	0	0	0	0	0	0	0	0	0	0	0	0
092712	13:58:40	10018	Trial3BackFr	NN	4	0	1000	1	122	13:58:40	1375494	0	0	0	0	0	0	0	0	0	0	0	0	0	0	0	0	0
092712	13:58:40	10018	Trial3BackFr	NN	4	0	1000	1	122	13:58:40	1377014	0	0	0	0	0	0	0	0	0	0	0	0	0	0	0	0	0
092712	13:58:40	10018	Trial3BackFr	NN	4	0	1000	1	122	13:58:40	1378533	0	0	0	0	0	0	0	0	0	0	0	0	0	0	0	0	0
092712	13:58:40	10018	Trial3BackFr	NN	4	0	1000	1	122	13:58:40	1380052	0	0	0	0	0	0	0	0	0	0	0	0	0	0	0	0	0
092712	13:58:40	10018	Trial3BackFr	NN	4	0	1000	1	122	13:58:40	1381572	0	0	0	0	0	0	0	0	0	0	0	0	0	0	0	0	0
092712	13:58:40	10018	Trial3BackFr	NN	4	0	1000	1	122	13:58:40	1383091	0	0	0	0	0	0	0	0	0	0	0	0	0	0	0	0	0
092712	13:58:40	10018	Trial3BackFr	YY	4	57	738	1	122	13:58:40	1384357	0	0	0	0	0	0	0	0	0	0	0	0	0	0	0	0	0
092712	13:58:40	10018	Trial3BackFr	NN	4	0	1000	1	122	13:58:40	1386117	0	0	0	0	0	0	0	0	0	0	0	0	0	0	0	0	0
092712	13:58:40	10018	Trial3BackFr	NN	4	0	1000	1	122	13:58:40	1387636	0	0	0	0	0	0	0	0	0	0	0	0	0	0	0	0	0
092712	13:58:40	10018	Trial3BackFr	NN	4	0	1000	1	122	13:58:40	1389155	0	0	0	0	0	0	0	0	0	0	0	0	0	0	0	0	0
092712	13:58:40	10018	Trial3BackFr	NN	4	0	1000	1	122	13:58:40	1390675	0	0	0	0	0	0	0	0	0	0	0	0	0	0	0	0	0
092712	13:58:40	10018	Trial3BackFr	YY	4	57	498	1	122	13:58:40	1391701	0	0	0	0	0	0	0	0	0	0	0	0	0	0	0	0	0
092712	13:58:40	10018	Trial3BackFr	NN	4	0	1000	1	122	13:58:40	1393700	0	0	0	0	0	0	0	0	0	0	0	0	0	0	0	0	0
092712	13:58:40	10018	Trial3BackFr	NN	4	0	1000	1	122	13:58:40	1395220	0	0	0	0	0	0	0	0	0	0	0	0	0	0	0	0	0
092712	13:58:40	10018	Trial3BackFr	NN	4	0	1000	1	122	13:58:40	1396739	0	0	0	0	0	0	0	0	0	0	0	0	0	0	0	0	0
092712	13:58:40	10018	Trial3BackFr	YY	4	57	514	1	122	13:58:40	1397779	0	0	0	0	0	0	0	0	0	0	0	0	0	0	0	0	0
092712	13:58:40	10018	Trial3BackFr	NN	4	0	1000	1	122	13:58:40	1399764	0	0	0	0	0	0	0	0	0	0	0	0	0	0	0	0	0
092712	13:58:40	10018	Trial3BackFr	NN	4	0	1000	1	122	13:58:40	1401284	0	0	0	0	0	0	0	0	0	0	0	0	0	0	0	0	0
092712	13:58:40	10018	Trial3BackFr	NN	4	0	1000	1	122	13:58:40	1402803	0	0	0	0	0	0	0	0	0	0	0	0	0	0	0	0	0
092712	13:58:40	10018	Trial3BackFr	NN	4	0	1000	1	122	13:58:40	1404323	0	0	0	0	0	0	0	0	0	0	0	0	0	0	0	0	0
092712	13:58:40	10018	Trial3BackFr	NN	4	0	1000	1	122	13:58:40	1405842	0	0	0	0	0	0	0	0	0	0	0	0	0	0	0	0	0
092712	13:58:40	10018	Trial3BackFr	YY	4	57	595	1	122	13:58:40	1406961	0	0	0	0	0	0	0	0	0	0	0	0	0	0	0	0	0
092712	13:58:40	10018	Trial3BackFr	NN	4	0	1000	1	122	13:58:40	1408867	0	0	0	0	0	0	0	0	0	0	0	0	0	0	0	0	0
092712	13:58:40	10018	Trial3BackFr	NN	4	0	1000	1	122	13:58:40	1410387	0	0	0	0	0	0	0	0	0	0	0	0	0	0	0	0	0
092712	13:58:40	10018	Trial3BackFr	NN	4	0	1000	1	122	13:58:40	1411906	0	0	0	0	0	0	0	0	0	0	0	0	0	0	0	0	0
092712	13:58:40	10018	Trial3BackFr	YY	4	57	498	1	122	13:58:40	1412932	0	0	0	0	0	0	0	0	0	0	0	0	0	0	0	0	0
092712	13:58:40	10018	Memory1R3moFr	ScoreFr	5	M1	18980	0	122	13:58:40	1466524	0	0	0	0	0	0	0	0	0	0	0	0	0	0	0	0	0
092712	13:58:40	10018	Memory1R3moFr	ScoreFr	5	M2	226	0	122	13:58:40	1466791	0	0	0	0	0	0	0	0	0	0	0	0	0	0	0	0	0
092712	13:58:40	10018	Memory1R3moFr	ScoreFr	5	M6	1655	0	122	13:58:40	1468483	0	0	0	0	0	0	0	0	0	0	0	0	0	0	0	0	0
092712	13:58:40	10018	Memory1R3moFr	ScoreFr	5	M7	770	0	122	13:58:40	1469296	0	0	0	0	0	0	0	0	0	0	0	0	0	0	0	0	0
092712	13:58:40	10018	Memory1R3moFr	ScoreFr	5	M8	254	0	122	13:58:40	1469590	0	0	0	0	0	0	0	0	0	0	0	0	0	0	0	0	0
092712	13:58:40	10018	Memory1R3moFr	ScoreFr	5	Done	21016	0	122	13:58:40	1490648	0	0	0	0	0	0	0	0	0	0	0	0	0	0	0	0	0
092712	13:58:40	10018	Memory2R3moFr	ScoreFr2	5	11	20500	0	122	13:58:40	1528739	0	0	0	0	0	0	0	0	0	0	0	0	0	0	0	0	0
092712	13:58:40	10018	Memory2R3moFr	ScoreFr2	5	22	601	0	122	13:58:40	1529379	0	0	0	0	0	0	0	0	0	0	0	0	0	0	0	0	0
092712	13:58:40	10018	Memory2R3moFr	ScoreFr2	5	33	282	0	122	13:58:40	1529699	0	0	0	0	0	0	0	0	0	0	0	0	0	0	0	0	0
092712	13:58:40	10018	Memory2R3moFr	ScoreFr2	5	44	274	0	122	13:58:40	1530019	0	0	0	0	0	0	0	0	0	0	0	0	0	0	0	0	0
092712	13:58:40	10018	Memory2R3moFr	ScoreFr2	5	55	298	0	122	13:58:40	1530352	0	0	0	0	0	0	0	0	0	0	0	0	0	0	0	0	0
092712	13:58:40	10018	Memory2R3moFr	ScoreFr2	5	66	293	0	122	13:58:40	1530685	0	0	0	0	0	0	0	0	0	0	0	0	0	0	0	0	0
092712	13:58:40	10018	Memory2R3moFr	ScoreFr2	5	77	535	0	122	13:58:40	1531258	0	0	0	0	0	0	0	0	0	0	0	0	0	0	0	0	0
092712	13:58:40	10018	Memory2R3moFr	ScoreFr2	5	88	275	0	122	13:58:40	1531578	0	0	0	0	0	0	0	0	0	0	0	0	0	0	0	0	0
092712	13:58:40	10018	Memory2R3moFr	ScoreFr2	5	Done	307	0	122	13:58:40	1531924	0	0	0	0	0	0	0	0	0	0	0	0	0	0	0	0	0
092712	13:58:40	10018	Memory3R3moFr	ScoreFr3	5	111	13847	0	122	13:58:40	1564684	0	0	0	0	0	0	0	0	0	0	0	0	0	0	0	0	0
092712	13:58:40	10018	Memory3R3moFr	ScoreFr3	5	222	599	0	122	13:58:40	1565324	0	0	0	0	0	0	0	0	0	0	0	0	0	0	0	0	0
092712	13:58:40	10018	Memory3R3moFr	ScoreFr3	5	444	1871	0	122	13:58:40	1567230	0	0	0	0	0	0	0	0	0	0	0	0	0	0	0	0	0
092712	13:58:40	10018	Memory3R3moFr	ScoreFr3	5	666	213	0	122	13:58:40	1567483	0	0	0	0	0	0	0	0	0	0	0	0	0	0	0	0	0
092712	13:58:40	10018	Memory3R3moFr	ScoreFr3	5	555	344	0	122	13:58:40	1567870	0	0	0	0	0	0	0	0	0	0	0	0	0	0	0	0	0
092712	13:58:40	10018	Memory3R3moFr	ScoreFr3	5	888	2070	0	122	13:58:40	1569976	0	0	0	0	0	0	0	0	0	0	0	0	0	0	0	0	0
092712	13:58:40	10018	Memory3R3moFr	ScoreFr3	5	333	8004	0	122	13:58:40	1578026	0	0	0	0	0	0	0	0	0	0	0	0	0	0	0	0	0
092712	13:58:40	10018	Memory3R3moFr	ScoreFr3	5	777	10649	0	122	13:58:40	1588715	0	0	0	0	0	0	0	0	0	0	0	0	0	0	0	0	0
092712	13:58:40	10018	Memory3R3moFr	ScoreFr3	5	Done	592	0	122	13:58:40	1589341	0	0	0	0	0	0	0	0	0	0	0	0	0	0	0	0	0
092712	13:58:40	10018	LoriaFrLH3	Stop	6	7	6681	0	122	13:58:40	1675188	0	0	0	0	0	0	0	0	0	0	0	0	0	0	0	0	0
092712	13:58:40	10018	FrTrail	Trails	7	1Trails	913	0	122	13:58:40	1738361	0	0	0	0	0	0	0	0	0	0	0	0	0	0	0	0	0
092712	13:58:40	10018	Serial7Fr3mo	Serial7Fr3mo	8	83	13029	0	122	13:58:40	1781612	1	0	0	0	0	0	0	0	0	0	0	0	0	0	0	0	0
092712	13:58:40	10018	Serial7Fr3mo	Serial7Fr3mo	8	76	4177	0	122	13:58:40	1785811	2	0	0	0	0	0	0	0	0	0	0	0	0	0	0	0	0
092712	13:58:40	10018	Serial7Fr3mo	Serial7Fr3mo	8	69	2225	0	122	13:58:40	1788064	3	0	0	0	0	0	0	0	0	0	0	0	0	0	0	0	0
092712	13:58:40	10018	Serial7Fr3mo	Serial7Fr3mo	8	62	2509	0	122	13:58:40	1790597	4	0	0	0	0	0	0	0	0	0	0	0	0	0	0	0	0
092712	13:58:40	10018	Serial7Fr3mo	Serial7Fr3mo	8	55	2440	0	122	13:58:40	1793062	5	0	0	0	0	0	0	0	0	0	0	0	0	0	0	0	0
092712	13:58:40	10018	corsiblockFrFwrd	recallseqFrFwrd	9	9	1316	0	122	13:58:40	1824476	5	0	0	0	0	0	0	0	0	0	0	0	0	0	0	0	0
092712	13:58:40	10018	corsiblockFrFwrd	recallseqFrFwrd	9	7	837	0	122	13:58:40	1825356	5	0	0	0	0	0	0	0	0	0	0	0	0	0	0	0	0
092712	13:58:40	10018	corsiblockFrFwrd	recallseqFrFwrd	9	doneCorsiFr	2389	0	122	13:58:40	1827781	5	0	0	0	0	0	0	0	0	0	0	0	0	0	0	2	0
092712	13:58:40	10018	corsiblockFrFwrd	recallseqFrFwrd	9	6	871	0	122	13:58:40	1834738	5	0	0	0	0	0	0	0	0	0	0	0	0	0	0	2	0
092712	13:58:40	10018	corsiblockFrFwrd	recallseqFrFwrd	9	1	901	0	122	13:58:40	1835685	5	0	0	0	0	0	0	0	0	0	0	0	0	0	0	2	0
092712	13:58:40	10018	corsiblockFrFwrd	recallseqFrFwrd	9	5	1068	0	122	13:58:40	1836791	5	0	0	0	0	0	0	0	0	0	0	0	0	0	0	2	0
092712	13:58:40	10018	corsiblockFrFwrd	recallseqFrFwrd	9	doneCorsiFr	4729	0	122	13:58:40	1841562	5	0	0	0	0	0	0	0	0	0	0	0	0	0	0	3	0
092712	13:58:40	10018	corsiblockFrFwrd	recallseqFrFwrd	9	4	963	0	122	13:58:40	1849612	5	0	0	0	0	0	0	0	0	0	0	0	0	0	0	3	0
092712	13:58:40	10018	corsiblockFrFwrd	recallseqFrFwrd	9	2	636	0	122	13:58:40	1850292	5	0	0	0	0	0	0	0	0	0	0	0	0	0	0	3	0
092712	13:58:40	10018	corsiblockFrFwrd	recallseqFrFwrd	9	8	684	0	122	13:58:40	1851012	5	0	0	0	0	0	0	0	0	0	0	0	0	0	0	3	0
092712	13:58:40	10018	corsiblockFrFwrd	recallseqFrFwrd	9	3	828	0	122	13:58:40	1851878	5	0	0	0	0	0	0	0	0	0	0	0	0	0	0	3	0
092712	13:58:40	10018	corsiblockFrFwrd	recallseqFrFwrd	9	doneCorsiFr	1384	0	122	13:58:40	1853304	5	0	0	0	0	0	0	0	0	0	0	0	0	0	0	4	0
092712	13:58:40	10018	corsiblockFrFwrd	recallseqFrFwrd	9	4	597	0	122	13:58:40	1861994	5	0	0	0	0	0	0	0	0	0	0	0	0	0	0	4	0
092712	13:58:40	10018	corsiblockFrFwrd	recallseqFrFwrd	9	2	877	0	122	13:58:40	1862914	5	0	0	0	0	0	0	0	0	0	0	0	0	0	0	4	0
092712	13:58:40	10018	corsiblockFrFwrd	recallseqFrFwrd	9	1	718	0	122	13:58:40	1863673	5	0	0	0	0	0	0	0	0	0	0	0	0	0	0	4	0
092712	13:58:40	10018	corsiblockFrFwrd	recallseqFrFwrd	9	3	759	0	122	13:58:40	1864473	5	0	0	0	0	0	0	0	0	0	0	0	0	0	0	4	0
092712	13:58:40	10018	corsiblockFrFwrd	recallseqFrFwrd	9	8	678	0	122	13:58:40	1865193	5	0	0	0	0	0	0	0	0	0	0	0	0	0	0	4	0
092712	13:58:40	10018	corsiblockFrFwrd	recallseqFrFwrd	9	doneCorsiFr	1239	0	122	13:58:40	1866472	5	0	0	0	0	0	0	0	0	0	0	0	0	0	0	5	0
092712	13:58:40	10018	corsiblockFrFwrd	recallseqFrFwrd	9	7	1056	0	122	13:58:40	1876628	5	0	0	0	0	0	0	0	0	0	0	0	0	0	0	5	0
092712	13:58:40	10018	corsiblockFrFwrd	recallseqFrFwrd	9	6	1755	0	122	13:58:40	1878427	5	0	0	0	0	0	0	0	0	0	0	0	0	0	0	5	0
092712	13:58:40	10018	corsiblockFrFwrd	recallseqFrFwrd	9	9	3652	0	122	13:58:40	1882119	5	0	0	0	0	0	0	0	0	0	0	0	0	0	0	5	0
092712	13:58:40	10018	corsiblockFrFwrd	recallseqFrFwrd	9	4	2256	0	122	13:58:40	1884412	5	0	0	0	0	0	0	0	0	0	0	0	0	0	0	5	0
092712	13:58:40	10018	corsiblockFrFwrd	recallseqFrFwrd	9	5	875	0	122	13:58:40	1885331	5	0	0	0	0	0	0	0	0	0	0	0	0	0	0	5	0
092712	13:58:40	10018	corsiblockFrFwrd	recallseqFrFwrd	9	1	868	0	122	13:58:40	1886238	5	0	0	0	0	0	0	0	0	0	0	0	0	0	0	5	0
092712	13:58:40	10018	corsiblockFrFwrd	recallseqFrFwrd	9	doneCorsiFr	1289	0	122	13:58:40	1887570	5	0	0	0	0	0	0	0	0	0	0	0	0	0	0	5	0
092712	13:58:40	10018	corsiblockFrFwrd	recallseqFrFwrd	9	4	667	0	122	13:58:40	1897286	5	0	0	0	0	0	0	0	0	0	0	0	0	0	0	5	0
092712	13:58:40	10018	corsiblockFrFwrd	recallseqFrFwrd	9	5	616	0	122	13:58:40	1897940	5	0	0	0	0	0	0	0	0	0	0	0	0	0	0	5	0
092712	13:58:40	10018	corsiblockFrFwrd	recallseqFrFwrd	9	2	771	0	122	13:58:40	1898753	5	0	0	0	0	0	0	0	0	0	0	0	0	0	0	5	0
092712	13:58:40	10018	corsiblockFrFwrd	recallseqFrFwrd	9	4	750	0	122	13:58:40	1899539	5	0	0	0	0	0	0	0	0	0	0	0	0	0	0	5	0
092712	13:58:40	10018	corsiblockFrFwrd	recallseqFrFwrd	9	7	956	0	122	13:58:40	1900538	5	0	0	0	0	0	0	0	0	0	0	0	0	0	0	5	0
092712	13:58:40	10018	corsiblockFrFwrd	recallseqFrFwrd	9	6	1068	0	122	13:58:40	1901645	5	0	0	0	0	0	0	0	0	0	0	0	0	0	0	5	0
092712	13:58:40	10018	corsiblockFrFwrd	recallseqFrFwrd	9	doneCorsiFr	1114	0	122	13:58:40	1902804	5	0	0	0	0	0	0	0	0	0	0	0	0	0	0	5	0
092712	13:58:40	10018	corsiblockFrRev	recallseqFrRev	10	1	1601	0	122	13:58:40	1915932	5	0	0	0	0	0	0	0	0	0	0	0	0	0	0	5	0
092712	13:58:40	10018	corsiblockFrRev	recallseqFrRev	10	4	858	0	122	13:58:40	1916825	5	0	0	0	0	0	0	0	0	0	0	0	0	0	0	5	0
092712	13:58:40	10018	corsiblockFrRev	recallseqFrRev	10	doneCorsiFr	1133	0	122	13:58:40	1917998	5	0	0	0	0	0	0	0	0	0	0	0	0	0	0	5	2
092712	13:58:40	10018	corsiblockFrRev	recallseqFrRev	10	2	781	0	122	13:58:40	1924876	5	0	0	0	0	0	0	0	0	0	0	0	0	0	0	5	2
092712	13:58:40	10018	corsiblockFrRev	recallseqFrRev	10	8	651	0	122	13:58:40	1925569	5	0	0	0	0	0	0	0	0	0	0	0	0	0	0	5	2
092712	13:58:40	10018	corsiblockFrRev	recallseqFrRev	10	3	726	0	122	13:58:40	1926328	5	0	0	0	0	0	0	0	0	0	0	0	0	0	0	5	2
092712	13:58:40	10018	corsiblockFrRev	recallseqFrRev	10	doneCorsiFr	990	0	122	13:58:40	1927354	5	0	0	0	0	0	0	0	0	0	0	0	0	0	0	5	3
092712	13:58:40	10018	corsiblockFrRev	recallseqFrRev	10	5	1089	0	122	13:58:40	1935538	5	0	0	0	0	0	0	0	0	0	0	0	0	0	0	5	3
092712	13:58:40	10018	corsiblockFrRev	recallseqFrRev	10	9	1036	0	122	13:58:40	1936617	5	0	0	0	0	0	0	0	0	0	0	0	0	0	0	5	3
092712	13:58:40	10018	corsiblockFrRev	recallseqFrRev	10	7	613	0	122	13:58:40	1937270	5	0	0	0	0	0	0	0	0	0	0	0	0	0	0	5	3
092712	13:58:40	10018	corsiblockFrRev	recallseqFrRev	10	6	807	0	122	13:58:40	1938123	5	0	0	0	0	0	0	0	0	0	0	0	0	0	0	5	3
092712	13:58:40	10018	corsiblockFrRev	recallseqFrRev	10	doneCorsiFr	1058	0	122	13:58:40	1939216	5	0	0	0	0	0	0	0	0	0	0	0	0	0	0	5	4
092712	13:58:40	10018	corsiblockFrRev	recallseqFrRev	10	3	1259	0	122	13:58:40	1948559	5	0	0	0	0	0	0	0	0	0	0	0	0	0	0	5	4
092712	13:58:40	10018	corsiblockFrRev	recallseqFrRev	10	2	678	0	122	13:58:40	1949279	5	0	0	0	0	0	0	0	0	0	0	0	0	0	0	5	4
092712	13:58:40	10018	corsiblockFrRev	recallseqFrRev	10	8	791	0	122	13:58:40	1950105	5	0	0	0	0	0	0	0	0	0	0	0	0	0	0	5	4
092712	13:58:40	10018	corsiblockFrRev	recallseqFrRev	10	9	660	0	122	13:58:40	1950798	5	0	0	0	0	0	0	0	0	0	0	0	0	0	0	5	4
092712	13:58:40	10018	corsiblockFrRev	recallseqFrRev	10	1	856	0	122	13:58:40	1951691	5	0	0	0	0	0	0	0	0	0	0	0	0	0	0	5	4
092712	13:58:40	10018	corsiblockFrRev	recallseqFrRev	10	doneCorsiFr	1107	0	122	13:58:40	1952837	5	0	0	0	0	0	0	0	0	0	0	0	0	0	0	5	4
092712	13:58:40	10018	corsiblockFrRev	recallseqFrRev	10	6	1406	0	122	13:58:40	1962287	5	0	0	0	0	0	0	0	0	0	0	0	0	0	0	5	4
092712	13:58:40	10018	corsiblockFrRev	recallseqFrRev	10	5	1254	0	122	13:58:40	1963580	5	0	0	0	0	0	0	0	0	0	0	0	0	0	0	5	4
092712	13:58:40	10018	corsiblockFrRev	recallseqFrRev	10	4	610	0	122	13:58:40	1964233	5	0	0	0	0	0	0	0	0	0	0	0	0	0	0	5	4
092712	13:58:40	10018	corsiblockFrRev	recallseqFrRev	10	2	533	0	122	13:58:40	1964806	5	0	0	0	0	0	0	0	0	0	0	0	0	0	0	5	4
092712	13:58:40	10018	corsiblockFrRev	recallseqFrRev	10	7	744	0	122	13:58:40	1965592	5	0	0	0	0	0	0	0	0	0	0	0	0	0	0	5	4
092712	13:58:40	10018	corsiblockFrRev	recallseqFrRev	10	doneCorsiFr	1628	0	122	13:58:40	1967258	5	0	0	0	0	0	0	0	0	0	0	0	0	0	0	5	4
092712	13:58:40	10018	testFr3mo	WordsFr3mo	11	1Fr3mo	49463	0	122	13:58:40	2032152	5	1	0	0	0	0	0	0	0	0	0	0	0	0	0	5	4
092712	13:58:40	10018	testFr3mo	WordsFr3mo	11	2Fr3mo	388	0	122	13:58:40	2032579	5	1	1	0	0	0	0	0	0	0	0	0	0	0	0	5	4
092712	13:58:40	10018	testFr3mo	WordsFr3mo	11	3Fr3mo	234	0	122	13:58:40	2032859	5	1	1	1	0	0	0	0	0	0	0	0	0	0	0	5	4
092712	13:58:40	10018	testFr3mo	WordsFr3mo	11	4Fr3mo	618	0	122	13:58:40	2033512	5	1	1	1	1	0	0	0	0	0	0	0	0	0	0	5	4
092712	13:58:40	10018	testFr3mo	WordsFr3mo	11	5Fr3mo	229	0	122	13:58:40	2033778	5	1	1	1	1	1	0	0	0	0	0	0	0	0	0	5	4
092712	13:58:40	10018	testFr3mo	WordsFr3mo	11	6Fr3mo	922	0	122	13:58:40	2034738	5	1	1	1	1	1	1	0	0	0	0	0	0	0	0	5	4
092712	13:58:40	10018	testFr3mo	WordsFr3mo	11	7Fr3mo	442	0	122	13:58:40	2035218	5	1	1	1	1	1	1	1	0	0	0	0	0	0	0	5	4
092712	13:58:40	10018	testFr3mo	WordsFr3mo	11	8Fr3mo	691	0	122	13:58:40	2035951	5	1	1	1	1	1	1	1	1	0	0	0	0	0	0	5	4
092712	13:58:40	10018	testFr3mo	WordsFr3mo	11	DoneFr3mo	325	0	122	13:58:40	2036310	5	1	1	1	1	1	1	1	1	0	0	0	0	0	0	5	4
092712	13:58:40	10018	DigitSpanFwrdFr3mo	Score1FwrdFr3mo	12	DS1	3485	0	122	13:58:40	2056502	5	1	1	1	1	1	1	1	1	0	0	0	0	0	0	5	4
092712	13:58:40	10018	DigitSpanFwrdFr3mo	Gate1FwrdFr3mo	12	0	1	0	122	13:58:40	2056517	5	1	1	1	1	1	1	1	1	3	0	0	0	0	0	5	4
092712	13:58:40	10018	DigitSpanFwrdFr3mo	Score2FwrdFr3mo	12	DS1	4077	0	122	13:58:40	2066325	5	1	1	1	1	1	1	1	1	3	0	0	0	0	0	5	4
092712	13:58:40	10018	DigitSpanFwrdFr3mo	Gate3FwrdFr3mo	12	0	1	0	122	13:58:40	2066340	5	1	1	1	1	1	1	1	1	4	0	0	0	0	0	5	4
092712	13:58:40	10018	DigitSpanFwrdFr3mo	Score3FwrdFr3mo	12	DS1	3682	0	122	13:58:40	2077280	5	1	1	1	1	1	1	1	1	4	0	0	0	0	0	5	4
092712	13:58:40	10018	DigitSpanFwrdFr3mo	Gate5FwrdFr3mo	12	0	1	0	122	13:58:40	2077296	5	1	1	1	1	1	1	1	1	5	0	0	0	0	0	5	4
092712	13:58:40	10018	DigitSpanFwrdFr3mo	Score4FwrdFr3mo	12	DS2	5647	0	122	13:58:40	2091474	5	1	1	1	1	1	1	1	1	5	0	0	0	0	0	5	4
092712	13:58:40	10018	DigitSpanFwrdFr3mo	Gate7FwrdFr3mo	12	0	1	0	122	13:58:40	2091489	5	1	1	1	1	1	1	1	1	5	0	0	0	0	0	5	4
092712	13:58:40	10018	DigitSpanFwrdFr3mo	Score44FwrdFr3mo	12	DS1	4097	0	122	13:58:40	2103909	5	1	1	1	1	1	1	1	1	5	0	0	0	0	0	5	4
092712	13:58:40	10018	DigitSpanFwrdFr3mo	Gate8FwrdFr3mo	12	0	1	0	122	13:58:40	2103925	5	1	1	1	1	1	1	1	1	6	0	0	0	0	0	5	4
092712	13:58:40	10018	DigitSpanFwrdFr3mo	Score5FwrdFr3mo	12	DS1	3298	0	122	13:58:40	2119316	5	1	1	1	1	1	1	1	1	6	0	0	0	0	0	5	4
092712	13:58:40	10018	DigitSpanFwrdFr3mo	Gate9FwrdFr3mo	12	0	1	0	122	13:58:40	2119332	5	1	1	1	1	1	1	1	1	7	0	0	0	0	0	5	4
092712	13:58:40	10018	DigitSpanFwrdFr3mo	Score6FwrdFr3mo	12	DS2	11511	0	122	13:58:40	2142734	5	1	1	1	1	1	1	1	1	7	0	0	0	0	0	5	4
092712	13:58:40	10018	DigitSpanFwrdFr3mo	Gate11FwrdFr3mo	12	0	1	0	122	13:58:40	2142749	5	1	1	1	1	1	1	1	1	7	0	0	0	0	0	5	4
092712	13:58:40	10018	DigitSpanFwrdFr3mo	Score66FwrdFr3mo	12	DS2	8862	0	122	13:58:40	2163379	5	1	1	1	1	1	1	1	1	7	0	0	0	0	0	5	4
092712	13:58:40	10018	DigitSpanFr3mo	Score1Fr3mo	13	DS1	4180	0	122	13:58:40	2273854	5	1	1	1	1	1	1	1	1	7	0	0	0	0	0	5	4
092712	13:58:40	10018	DigitSpanFr3mo	Gate1Fr3mo	13	0	1	0	122	13:58:40	2273869	5	1	1	1	1	1	1	1	1	7	2	0	0	0	0	5	4
092712	13:58:40	10018	DigitSpanFr3mo	Score2Fr3mo	13	DS1	2389	0	122	13:58:40	2280851	5	1	1	1	1	1	1	1	1	7	2	0	0	0	0	5	4
092712	13:58:40	10018	DigitSpanFr3mo	Gate3Fr3mo	13	0	1	0	122	13:58:40	2280866	5	1	1	1	1	1	1	1	1	7	3	0	0	0	0	5	4
092712	13:58:40	10018	DigitSpanFr3mo	Score3Fr3mo	13	DS1	4907	0	122	13:58:40	2291500	5	1	1	1	1	1	1	1	1	7	3	0	0	0	0	5	4
092712	13:58:40	10018	DigitSpanFr3mo	Gate5Fr3mo	13	0	1	0	122	13:58:40	2291515	5	1	1	1	1	1	1	1	1	7	4	0	0	0	0	5	4
092712	13:58:40	10018	DigitSpanFr3mo	Score4Fr3mo	13	DS1	3898	0	122	13:58:40	2302655	5	1	1	1	1	1	1	1	1	7	4	0	0	0	0	5	4
092712	13:58:40	10018	DigitSpanFr3mo	Gate7Fr3mo	13	0	1	0	122	13:58:40	2302671	5	1	1	1	1	1	1	1	1	7	5	0	0	0	0	5	4
092712	13:58:40	10018	DigitSpanFr3mo	Score5Fr3mo	13	DS2	10218	0	122	13:58:40	2321421	5	1	1	1	1	1	1	1	1	7	5	0	0	0	0	5	4
092712	13:58:40	10018	DigitSpanFr3mo	Gate9Fr3mo	13	0	1	0	122	13:58:40	2321437	5	1	1	1	1	1	1	1	1	7	5	0	0	0	0	5	4
092712	13:58:40	10018	DigitSpanFr3mo	Score55Fr3mo	13	DS1	11976	0	122	13:58:40	2341733	5	1	1	1	1	1	1	1	1	7	5	0	0	0	0	5	4
092712	13:58:40	10018	DigitSpanFr3mo	Gate10Fr3mo	13	0	1	0	122	13:58:40	2341748	5	1	1	1	1	1	1	1	1	7	6	0	0	0	0	5	4
092712	13:58:40	10018	DigitSpanFr3mo	Score6Fr3mo	13	DS1	12908	0	122	13:58:40	2364430	5	1	1	1	1	1	1	1	1	7	7	0	0	0	0	5	4
092712	13:58:40	10018	Trial	ResponseIL	14	0	162	0	122	13:58:40	2457699	5	1	1	1	1	1	1	1	1	7	7	0	0	0	0	5	4
092712	13:58:40	10018	Trial	IncongruentLeft	14	203	392	1	122	13:58:40	2458118	5	1	1	1	1	1	1	1	1	7	7	0	0	0	0	5	4
092712	13:58:40	10018	Trial	ResponseCR	14	0	162	0	122	13:58:40	2459392	5	1	1	1	1	1	1	1	1	7	7	0	0	0	0	5	4
092712	13:58:40	10018	Trial	CongruentRight	14	205	236	1	122	13:58:40	2459654	5	1	1	1	1	1	1	1	1	7	7	0	0	0	0	5	4
092712	13:58:40	10018	Trial	ResponseIR	14	0	162	0	122	13:58:40	2461085	5	1	1	1	1	1	1	1	1	7	7	0	0	0	0	5	4
092712	13:58:40	10018	Trial	IncongruentRight	14	205	319	1	122	13:58:40	2461430	5	1	1	1	1	1	1	1	1	7	7	0	0	0	0	5	4
092712	13:58:40	10018	Trial	ResponseCL	14	0	162	0	122	13:58:40	2462777	5	1	1	1	1	1	1	1	1	7	7	0	0	0	0	5	4
092712	13:58:40	10018	Trial	CongruentLeft	14	203	194	1	122	13:58:40	2462998	5	1	1	1	1	1	1	1	1	7	7	0	0	0	0	5	4
092712	13:58:40	10018	Trial	ResponseCR	14	0	162	0	122	13:58:40	2464470	5	1	1	1	1	1	1	1	1	7	7	0	0	0	0	5	4
092712	13:58:40	10018	Trial	CongruentRight	14	205	198	1	122	13:58:40	2464694	5	1	1	1	1	1	1	1	1	7	7	0	0	0	0	5	4
092712	13:58:40	10018	Trial	ResponseIR	14	0	162	0	122	13:58:40	2466163	5	1	1	1	1	1	1	1	1	7	7	0	0	0	0	5	4
092712	13:58:40	10018	Trial	IncongruentRight	14	205	361	1	122	13:58:40	2466550	5	1	1	1	1	1	1	1	1	7	7	0	0	0	0	5	4
092712	13:58:40	10018	Trial	ResponseCL	14	0	162	0	122	13:58:40	2467855	5	1	1	1	1	1	1	1	1	7	7	0	0	0	0	5	4
092712	13:58:40	10018	Trial	CongruentLeft	14	203	172	1	122	13:58:40	2468054	5	1	1	1	1	1	1	1	1	7	7	0	0	0	0	5	4
092712	13:58:40	10018	Trial	ResponseIL	14	0	162	0	122	13:58:40	2469548	5	1	1	1	1	1	1	1	1	7	7	0	0	0	0	5	4
092712	13:58:40	10018	Trial	IncongruentLeft	14	203	448	1	122	13:58:40	2470022	5	1	1	1	1	1	1	1	1	7	7	0	0	0	0	5	4
092712	13:58:40	10018	Trial	ResponseIL	14	0	162	0	122	13:58:40	2471240	5	1	1	1	1	1	1	1	1	7	7	0	0	0	0	5	4
092712	13:58:40	10018	Trial	IncongruentLeft	14	205	243	0	122	13:58:40	2471510	5	1	1	1	1	1	1	1	1	7	7	0	0	0	0	5	4
092712	13:58:40	10018	Trial	ResponseCR	14	0	162	0	122	13:58:40	2472933	5	1	1	1	1	1	1	1	1	7	7	0	0	0	0	5	4
092712	13:58:40	10018	Trial	CongruentRight	14	205	214	1	122	13:58:40	2473174	5	1	1	1	1	1	1	1	1	7	7	0	0	0	0	5	4
092712	13:58:40	10018	Trial	ResponseIR	14	0	162	0	122	13:58:40	2474626	5	1	1	1	1	1	1	1	1	7	7	0	0	0	0	5	4
092712	13:58:40	10018	Trial	IncongruentRight	14	205	265	1	122	13:58:40	2474918	5	1	1	1	1	1	1	1	1	7	7	0	0	0	0	5	4
092712	13:58:40	10018	Trial	ResponseCL	14	0	162	0	122	13:58:40	2476318	5	1	1	1	1	1	1	1	1	7	7	0	0	0	0	5	4
092712	13:58:40	10018	Trial	CongruentLeft	14	203	173	1	122	13:58:40	2476518	5	1	1	1	1	1	1	1	1	7	7	0	0	0	0	5	4
092712	13:58:40	10018	Trial	ResponseCR	14	0	162	0	122	13:58:40	2478011	5	1	1	1	1	1	1	1	1	7	7	0	0	0	0	5	4
092712	13:58:40	10018	Trial	CongruentRight	14	205	368	1	122	13:58:40	2478406	5	1	1	1	1	1	1	1	1	7	7	0	0	0	0	5	4
092712	13:58:40	10018	Trial	ResponseIL	14	0	162	0	122	13:58:40	2479717	5	1	1	1	1	1	1	1	1	7	7	0	0	0	0	5	4
092712	13:58:40	10018	Trial	IncongruentLeft	14	203	198	1	122	13:58:40	2479942	5	1	1	1	1	1	1	1	1	7	7	0	0	0	0	5	4
092712	13:58:40	10018	Trial	ResponseIR	14	0	162	0	122	13:58:40	2481410	5	1	1	1	1	1	1	1	1	7	7	0	0	0	0	5	4
092712	13:58:40	10018	Trial	IncongruentRight	14	205	330	1	122	13:58:40	2481766	5	1	1	1	1	1	1	1	1	7	7	0	0	0	0	5	4
092712	13:58:40	10018	Trial	ResponseCR	14	0	162	0	122	13:58:40	2483102	5	1	1	1	1	1	1	1	1	7	7	0	0	0	0	5	4
092712	13:58:40	10018	Trial	CongruentRight	14	205	173	1	122	13:58:40	2483302	5	1	1	1	1	1	1	1	1	7	7	0	0	0	0	5	4
092712	13:58:40	10018	Trial	ResponseCL	14	0	162	0	122	13:58:40	2484795	5	1	1	1	1	1	1	1	1	7	7	0	0	0	0	5	4
092712	13:58:40	10018	Trial	CongruentLeft	14	203	160	1	122	13:58:40	2484982	5	1	1	1	1	1	1	1	1	7	7	0	0	0	0	5	4
092712	13:58:40	10018	Trial	ResponseCR	14	0	162	0	122	13:58:40	2486488	5	1	1	1	1	1	1	1	1	7	7	0	0	0	0	5	4
092712	13:58:40	10018	Trial	CongruentRight	14	205	243	1	122	13:58:40	2486758	5	1	1	1	1	1	1	1	1	7	7	0	0	0	0	5	4
092712	13:58:40	10018	Trial	ResponseIR	14	0	162	0	122	13:58:40	2488180	5	1	1	1	1	1	1	1	1	7	7	0	0	0	0	5	4
092712	13:58:40	10018	Trial	IncongruentRight	14	205	375	1	122	13:58:40	2488582	5	1	1	1	1	1	1	1	1	7	7	0	0	0	0	5	4
092712	13:58:40	10018	Trial	ResponseIL	14	0	162	0	122	13:58:40	2489873	5	1	1	1	1	1	1	1	1	7	7	0	0	0	0	5	4
092712	13:58:40	10018	Trial	IncongruentLeft	14	203	266	1	122	13:58:40	2490166	5	1	1	1	1	1	1	1	1	7	7	0	0	0	0	5	4
092712	13:58:40	10018	Trial	ResponseIL	14	0	162	0	122	13:58:40	2491566	5	1	1	1	1	1	1	1	1	7	7	0	0	0	0	5	4
092712	13:58:40	10018	Trial	IncongruentLeft	14	203	397	1	122	13:58:40	2491990	5	1	1	1	1	1	1	1	1	7	7	0	0	0	0	5	4
092712	13:58:40	10018	Trial	ResponseCL	14	0	162	0	122	13:58:40	2493258	5	1	1	1	1	1	1	1	1	7	7	0	0	0	0	5	4
092712	13:58:40	10018	Trial	CongruentLeft	14	203	273	1	122	13:58:40	2493558	5	1	1	1	1	1	1	1	1	7	7	0	0	0	0	5	4
092712	13:58:40	10018	Trial	ResponseCR	14	0	162	0	122	13:58:40	2494951	5	1	1	1	1	1	1	1	1	7	7	0	0	0	0	5	4
092712	13:58:40	10018	Trial	CongruentRight	14	205	292	1	122	13:58:40	2495270	5	1	1	1	1	1	1	1	1	7	7	0	0	0	0	5	4
092712	13:58:40	10018	Trial	ResponseIL	14	0	162	0	122	13:58:40	2496644	5	1	1	1	1	1	1	1	1	7	7	0	0	0	0	5	4
092712	13:58:40	10018	Trial	IncongruentLeft	14	203	199	1	122	13:58:40	2496869	5	1	1	1	1	1	1	1	1	7	7	0	0	0	0	5	4
092712	13:58:40	10018	Trial	ResponseIR	14	0	162	0	122	13:58:40	2498336	5	1	1	1	1	1	1	1	1	7	7	0	0	0	0	5	4
092712	13:58:40	10018	Trial	IncongruentRight	14	205	331	1	122	13:58:40	2498693	5	1	1	1	1	1	1	1	1	7	7	0	0	0	0	5	4
092712	13:58:40	10018	Trial	ResponseCR	14	0	162	0	122	13:58:40	2500029	5	1	1	1	1	1	1	1	1	7	7	0	0	0	0	5	4
092712	13:58:40	10018	Trial	CongruentRight	14	205	238	1	122	13:58:40	2500293	5	1	1	1	1	1	1	1	1	7	7	0	0	0	0	5	4
092712	13:58:40	10018	Trial	ResponseCL	14	0	162	0	122	13:58:40	2501722	5	1	1	1	1	1	1	1	1	7	7	0	0	0	0	5	4
092712	13:58:40	10018	Trial	CongruentLeft	14	203	273	1	122	13:58:40	2502022	5	1	1	1	1	1	1	1	1	7	7	0	0	0	0	5	4
092712	13:58:40	10018	Trial	ResponseIR	14	0	162	0	122	13:58:40	2503414	5	1	1	1	1	1	1	1	1	7	7	0	0	0	0	5	4
092712	13:58:40	10018	Trial	IncongruentRight	14	205	228	1	122	13:58:40	2503669	5	1	1	1	1	1	1	1	1	7	7	0	0	0	0	5	4
092712	13:58:40	10018	Trial	ResponseIL	14	0	162	0	122	13:58:40	2505107	5	1	1	1	1	1	1	1	1	7	7	0	0	0	0	5	4
092712	13:58:40	10018	Trial	IncongruentLeft	14	203	231	1	122	13:58:40	2505365	5	1	1	1	1	1	1	1	1	7	7	0	0	0	0	5	4
092712	13:58:40	10018	Trial	ResponseIR	14	0	162	0	122	13:58:40	2506813	5	1	1	1	1	1	1	1	1	7	7	0	0	0	0	5	4
092712	13:58:40	10018	Trial	IncongruentRight	14	205	254	1	122	13:58:40	2507093	5	1	1	1	1	1	1	1	1	7	7	0	0	0	0	5	4
092712	13:58:40	10018	Trial	ResponseCR	14	0	162	0	122	13:58:40	2508505	5	1	1	1	1	1	1	1	1	7	7	0	0	0	0	5	4
092712	13:58:40	10018	Trial	CongruentRight	14	205	241	1	122	13:58:40	2508774	5	1	1	1	1	1	1	1	1	7	7	0	0	0	0	5	4
092712	13:58:40	10018	Trial	ResponseIL	14	0	162	0	122	13:58:40	2510198	5	1	1	1	1	1	1	1	1	7	7	0	0	0	0	5	4
092712	13:58:40	10018	Trial	IncongruentLeft	14	203	341	1	122	13:58:40	2510565	5	1	1	1	1	1	1	1	1	7	7	0	0	0	0	5	4
092712	13:58:40	10018	Trial	ResponseCL	14	0	162	0	122	13:58:40	2511918	5	1	1	1	1	1	1	1	1	7	7	0	0	0	0	5	4
092712	13:58:40	10018	Trial	CongruentLeft	14	203	221	1	122	13:58:40	2512165	5	1	1	1	1	1	1	1	1	7	7	0	0	0	0	5	4
092712	13:58:40	10018	Trial	ResponseCR	14	0	162	0	122	13:58:40	2513623	5	1	1	1	1	1	1	1	1	7	7	0	0	0	0	5	4
092712	13:58:40	10018	Trial	CongruentRight	14	205	227	1	122	13:58:40	2513877	5	1	1	1	1	1	1	1	1	7	7	0	0	0	0	5	4
092712	13:58:40	10018	Trial	ResponseIL	14	0	162	0	122	13:58:40	2515316	5	1	1	1	1	1	1	1	1	7	7	0	0	0	0	5	4
092712	13:58:40	10018	Trial	IncongruentLeft	14	203	295	1	122	13:58:40	2515637	5	1	1	1	1	1	1	1	1	7	7	0	0	0	0	5	4
092712	13:58:40	10018	Trial	ResponseIR	14	0	162	0	122	13:58:40	2517009	5	1	1	1	1	1	1	1	1	7	7	0	0	0	0	5	4
092712	13:58:40	10018	Trial	IncongruentRight	14	205	282	1	122	13:58:40	2517317	5	1	1	1	1	1	1	1	1	7	7	0	0	0	0	5	4
092712	13:58:40	10018	Trial	ResponseIR	14	0	162	0	122	13:58:40	2518701	5	1	1	1	1	1	1	1	1	7	7	0	0	0	0	5	4
092712	13:58:40	10018	Trial	IncongruentRight	14	205	205	1	122	13:58:40	2518933	5	1	1	1	1	1	1	1	1	7	7	0	0	0	0	5	4
092712	13:58:40	10018	Trial	ResponseCL	14	0	162	0	122	13:58:40	2520394	5	1	1	1	1	1	1	1	1	7	7	0	0	0	0	5	4
092712	13:58:40	10018	Trial	CongruentLeft	14	203	176	1	122	13:58:40	2520597	5	1	1	1	1	1	1	1	1	7	7	0	0	0	0	5	4
092712	13:58:40	10018	Trial	ResponseIL	14	0	162	0	122	13:58:40	2522087	5	1	1	1	1	1	1	1	1	7	7	0	0	0	0	5	4
092712	13:58:40	10018	Trial	IncongruentLeft	14	203	372	1	122	13:58:40	2522485	5	1	1	1	1	1	1	1	1	7	7	0	0	0	0	5	4
092712	13:58:40	10018	Trial	ResponseCR	14	0	162	0	122	13:58:40	2523779	5	1	1	1	1	1	1	1	1	7	7	0	0	0	0	5	4
092712	13:58:40	10018	Trial	CongruentRight	14	205	247	1	122	13:58:40	2524053	5	1	1	1	1	1	1	1	1	7	7	0	0	0	0	5	4
092712	13:58:40	10018	Trial	ResponseCL	14	0	162	0	122	13:58:40	2525472	5	1	1	1	1	1	1	1	1	7	7	0	0	0	0	5	4
092712	13:58:40	10018	Trial	CongruentLeft	14	203	250	1	122	13:58:40	2525749	5	1	1	1	1	1	1	1	1	7	7	0	0	0	0	5	4
092712	13:58:40	10018	Trial	ResponseIR	14	0	162	0	122	13:58:40	2527165	5	1	1	1	1	1	1	1	1	7	7	0	0	0	0	5	4
092712	13:58:40	10018	Trial	IncongruentRight	14	205	286	1	122	13:58:40	2527477	5	1	1	1	1	1	1	1	1	7	7	0	0	0	0	5	4
092712	13:58:40	10018	Trial	ResponseCR	14	0	162	0	122	13:58:40	2528857	5	1	1	1	1	1	1	1	1	7	7	0	0	0	0	5	4
092712	13:58:40	10018	Trial	CongruentRight	14	205	353	1	122	13:58:40	2529237	5	1	1	1	1	1	1	1	1	7	7	0	0	0	0	5	4
092712	13:58:40	10018	Trial	ResponseIL	14	0	162	0	122	13:58:40	2530550	5	1	1	1	1	1	1	1	1	7	7	0	0	0	0	5	4
092712	13:58:40	10018	Trial	IncongruentLeft	14	203	228	1	122	13:58:40	2530805	5	1	1	1	1	1	1	1	1	7	7	0	0	0	0	5	4
092712	13:58:40	10018	Trial	ResponseCL	14	0	162	0	122	13:58:40	2532243	5	1	1	1	1	1	1	1	1	7	7	0	0	0	0	5	4
092712	13:58:40	10018	Trial	CongruentLeft	14	203	200	1	122	13:58:40	2532469	5	1	1	1	1	1	1	1	1	7	7	0	0	0	0	5	4
092712	13:58:40	10018	Trial	ResponseIL	14	0	162	0	122	13:58:40	2533949	5	1	1	1	1	1	1	1	1	7	7	0	0	0	0	5	4
092712	13:58:40	10018	Trial	IncongruentLeft	14	205	317	0	122	13:58:40	2534293	5	1	1	1	1	1	1	1	1	7	7	0	0	0	0	5	4
092712	13:58:40	10018	Trial	ResponseIR	14	0	162	0	122	13:58:40	2535655	5	1	1	1	1	1	1	1	1	7	7	0	0	0	0	5	4
092712	13:58:40	10018	Trial	IncongruentRight	14	205	339	1	122	13:58:40	2536021	5	1	1	1	1	1	1	1	1	7	7	0	0	0	0	5	4
092712	13:58:40	10018	Trial	ResponseCR	14	0	162	0	122	13:58:40	2537347	5	1	1	1	1	1	1	1	1	7	7	0	0	0	0	5	4
092712	13:58:40	10018	Trial	CongruentRight	14	205	375	1	122	13:58:40	2537749	5	1	1	1	1	1	1	1	1	7	7	0	0	0	0	5	4
092712	13:58:40	10018	Trial	ResponseCL	14	0	162	0	122	13:58:40	2539040	5	1	1	1	1	1	1	1	1	7	7	0	0	0	0	5	4
092712	13:58:40	10018	Trial	CongruentLeft	14	203	202	1	122	13:58:40	2539269	5	1	1	1	1	1	1	1	1	7	7	0	0	0	0	5	4
092712	13:58:40	10018	Trial	ResponseCL	14	0	162	0	122	13:58:40	2540733	5	1	1	1	1	1	1	1	1	7	7	0	0	0	0	5	4
092712	13:58:40	10018	Trial	CongruentLeft	14	203	206	1	122	13:58:40	2540965	5	1	1	1	1	1	1	1	1	7	7	0	0	0	0	5	4
092712	13:58:40	10018	Trial	ResponseIR	14	0	162	0	122	13:58:40	2542425	5	1	1	1	1	1	1	1	1	7	7	0	0	0	0	5	4
092712	13:58:40	10018	Trial	IncongruentRight	14	205	353	1	122	13:58:40	2542805	5	1	1	1	1	1	1	1	1	7	7	0	0	0	0	5	4
092712	13:58:40	10018	Trial	ResponseIL	14	0	162	0	122	13:58:40	2544118	5	1	1	1	1	1	1	1	1	7	7	0	0	0	0	5	4
092712	13:58:40	10018	Trial	IncongruentLeft	14	203	356	1	122	13:58:40	2544501	5	1	1	1	1	1	1	1	1	7	7	0	0	0	0	5	4
092712	13:58:40	10018	Trial	ResponseIR	14	0	162	0	122	13:58:40	2545811	5	1	1	1	1	1	1	1	1	7	7	0	0	0	0	5	4
092712	13:58:40	10018	Trial	IncongruentRight	14	205	343	1	122	13:58:40	2546181	5	1	1	1	1	1	1	1	1	7	7	0	0	0	0	5	4
092712	13:58:40	10018	Trial	ResponseCR	14	0	162	0	122	13:58:40	2547503	5	1	1	1	1	1	1	1	1	7	7	0	0	0	0	5	4
092712	13:58:40	10018	Trial	CongruentRight	14	205	331	1	122	13:58:40	2547861	5	1	1	1	1	1	1	1	1	7	7	0	0	0	0	5	4
092712	13:58:40	10018	Trial	ResponseCR	14	0	162	0	122	13:58:40	2549196	5	1	1	1	1	1	1	1	1	7	7	0	0	0	0	5	4
092712	13:58:40	10018	Trial	CongruentRight	14	205	270	1	122	13:58:40	2549492	5	1	1	1	1	1	1	1	1	7	7	0	0	0	0	5	4
092712	13:58:40	10018	Trial	ResponseIL	14	0	162	0	122	13:58:40	2550889	5	1	1	1	1	1	1	1	1	7	7	0	0	0	0	5	4
092712	13:58:40	10018	Trial	IncongruentLeft	14	203	225	1	122	13:58:40	2551140	5	1	1	1	1	1	1	1	1	7	7	0	0	0	0	5	4
092712	13:58:40	10018	Trial	ResponseCL	14	0	162	0	122	13:58:40	2552595	5	1	1	1	1	1	1	1	1	7	7	0	0	0	0	5	4
092712	13:58:40	10018	Trial	CongruentLeft	14	203	247	1	122	13:58:40	2552868	5	1	1	1	1	1	1	1	1	7	7	0	0	0	0	5	4
092712	13:58:40	10018	Trial	ResponseCR	14	0	162	0	122	13:58:40	2554287	5	1	1	1	1	1	1	1	1	7	7	0	0	0	0	5	4
092712	13:58:40	10018	Trial	CongruentRight	14	205	299	1	122	13:58:40	2554612	5	1	1	1	1	1	1	1	1	7	7	0	0	0	0	5	4
092712	13:58:40	10018	Trial	ResponseCL	14	0	162	0	122	13:58:40	2555980	5	1	1	1	1	1	1	1	1	7	7	0	0	0	0	5	4
092712	13:58:40	10018	Trial	CongruentLeft	14	203	254	1	122	13:58:40	2556260	5	1	1	1	1	1	1	1	1	7	7	0	0	0	0	5	4
092712	13:58:40	10018	Trial	ResponseIR	14	0	162	0	122	13:58:40	2557672	5	1	1	1	1	1	1	1	1	7	7	0	0	0	0	5	4
092712	13:58:40	10018	Trial	IncongruentRight	14	205	321	1	122	13:58:40	2558020	5	1	1	1	1	1	1	1	1	7	7	0	0	0	0	5	4
092712	13:58:40	10018	Trial	ResponseCR	14	0	162	0	122	13:58:40	2559365	5	1	1	1	1	1	1	1	1	7	7	0	0	0	0	5	4
092712	13:58:40	10018	Trial	CongruentRight	14	205	310	1	122	13:58:40	2559702	5	1	1	1	1	1	1	1	1	7	7	0	0	0	0	5	4
092712	13:58:40	10018	Trial	ResponseCL	14	0	162	0	122	13:58:40	2561058	5	1	1	1	1	1	1	1	1	7	7	0	0	0	0	5	4
092712	13:58:40	10018	Trial	CongruentLeft	14	203	248	1	122	13:58:40	2561332	5	1	1	1	1	1	1	1	1	7	7	0	0	0	0	5	4
092712	13:58:40	10018	Trial	ResponseIL	14	0	162	0	122	13:58:40	2562750	5	1	1	1	1	1	1	1	1	7	7	0	0	0	0	5	4
092712	13:58:40	10018	Trial	IncongruentLeft	14	203	506	1	122	13:58:40	2563284	5	1	1	1	1	1	1	1	1	7	7	0	0	0	0	5	4
092712	13:58:40	10018	Trial	ResponseIL	14	0	162	0	122	13:58:40	2564443	5	1	1	1	1	1	1	1	1	7	7	0	0	0	0	5	4
092712	13:58:40	10018	Trial	IncongruentLeft	14	203	303	1	122	13:58:40	2564772	5	1	1	1	1	1	1	1	1	7	7	0	0	0	0	5	4
092712	13:58:40	10018	Trial	ResponseCR	14	0	162	0	122	13:58:40	2566149	5	1	1	1	1	1	1	1	1	7	7	0	0	0	0	5	4
092712	13:58:40	10018	Trial	CongruentRight	14	205	180	1	122	13:58:40	2566356	5	1	1	1	1	1	1	1	1	7	7	0	0	0	0	5	4
092712	13:58:40	10018	Trial	ResponseIR	14	0	162	0	122	13:58:40	2567842	5	1	1	1	1	1	1	1	1	7	7	0	0	0	0	5	4
092712	13:58:40	10018	Trial	IncongruentRight	14	205	280	1	122	13:58:40	2568148	5	1	1	1	1	1	1	1	1	7	7	0	0	0	0	5	4
092712	13:58:40	10018	Trial	ResponseCL	14	0	162	0	122	13:58:40	2569534	5	1	1	1	1	1	1	1	1	7	7	0	0	0	0	5	4
092712	13:58:40	10018	Trial	CongruentLeft	14	203	235	1	122	13:58:40	2569796	5	1	1	1	1	1	1	1	1	7	7	0	0	0	0	5	4
092712	13:58:40	10018	Trial	ResponseIR	14	0	162	0	122	13:58:40	2571227	5	1	1	1	1	1	1	1	1	7	7	0	0	0	0	5	4
092712	13:58:40	10018	Trial	IncongruentRight	14	205	302	1	122	13:58:40	2571556	5	1	1	1	1	1	1	1	1	7	7	0	0	0	0	5	4
092712	13:58:40	10018	Trial	ResponseCR	14	0	162	0	122	13:58:40	2572920	5	1	1	1	1	1	1	1	1	7	7	0	0	0	0	5	4
092712	13:58:40	10018	Trial	CongruentRight	14	205	226	1	122	13:58:40	2573172	5	1	1	1	1	1	1	1	1	7	7	0	0	0	0	5	4
092712	13:58:40	10018	Trial	ResponseIL	14	0	162	0	122	13:58:40	2574612	5	1	1	1	1	1	1	1	1	7	7	0	0	0	0	5	4
092712	13:58:40	10018	Trial	IncongruentLeft	14	203	341	1	122	13:58:40	2574980	5	1	1	1	1	1	1	1	1	7	7	0	0	0	0	5	4
092712	13:58:40	10018	Trial	ResponseCL	14	0	162	0	122	13:58:40	2576305	5	1	1	1	1	1	1	1	1	7	7	0	0	0	0	5	4
092712	13:58:40	10018	Trial	CongruentLeft	14	203	264	1	122	13:58:40	2576596	5	1	1	1	1	1	1	1	1	7	7	0	0	0	0	5	4
092712	13:58:40	10018	Trial	ResponseCR	14	0	162	0	122	13:58:40	2577998	5	1	1	1	1	1	1	1	1	7	7	0	0	0	0	5	4
092712	13:58:40	10018	Trial	CongruentRight	14	205	252	1	122	13:58:40	2578276	5	1	1	1	1	1	1	1	1	7	7	0	0	0	0	5	4
092712	13:58:40	10018	Trial	ResponseIL	14	0	162	0	122	13:58:40	2579690	5	1	1	1	1	1	1	1	1	7	7	0	0	0	0	5	4
092712	13:58:40	10018	Trial	IncongruentLeft	14	203	367	1	122	13:58:40	2580084	5	1	1	1	1	1	1	1	1	7	7	0	0	0	0	5	4
092712	13:58:40	10018	Trial	ResponseCR	14	0	162	0	122	13:58:40	2581383	5	1	1	1	1	1	1	1	1	7	7	0	0	0	0	5	4
092712	13:58:40	10018	Trial	CongruentRight	14	205	258	1	122	13:58:40	2581668	5	1	1	1	1	1	1	1	1	7	7	0	0	0	0	5	4
092712	13:58:40	10018	Trial	ResponseCR	14	0	162	0	122	13:58:40	2583076	5	1	1	1	1	1	1	1	1	7	7	0	0	0	0	5	4
092712	13:58:40	10018	Trial	CongruentRight	14	205	309	1	122	13:58:40	2583412	5	1	1	1	1	1	1	1	1	7	7	0	0	0	0	5	4
092712	13:58:40	10018	Trial	ResponseIR	14	0	162	0	122	13:58:40	2584768	5	1	1	1	1	1	1	1	1	7	7	0	0	0	0	5	4
092712	13:58:40	10018	Trial	IncongruentRight	14	205	313	1	122	13:58:40	2585108	5	1	1	1	1	1	1	1	1	7	7	0	0	0	0	5	4
092712	13:58:40	10018	Trial	ResponseCL	14	0	162	0	122	13:58:40	2586461	5	1	1	1	1	1	1	1	1	7	7	0	0	0	0	5	4
092712	13:58:40	10018	Trial	CongruentLeft	14	203	220	1	122	13:58:40	2586708	5	1	1	1	1	1	1	1	1	7	7	0	0	0	0	5	4
092712	13:58:40	10018	Trial	ResponseIL	14	0	162	0	122	13:58:40	2588154	5	1	1	1	1	1	1	1	1	7	7	0	0	0	0	5	4
092712	13:58:40	10018	Trial	IncongruentLeft	14	203	352	1	122	13:58:40	2588532	5	1	1	1	1	1	1	1	1	7	7	0	0	0	0	5	4
092712	13:58:40	10018	Trial	ResponseCL	14	0	162	0	122	13:58:40	2589846	5	1	1	1	1	1	1	1	1	7	7	0	0	0	0	5	4
092712	13:58:40	10018	Trial	CongruentLeft	14	203	291	1	122	13:58:40	2590164	5	1	1	1	1	1	1	1	1	7	7	0	0	0	0	5	4
092712	13:58:40	10018	Trial	ResponseIR	14	0	162	0	122	13:58:40	2591539	5	1	1	1	1	1	1	1	1	7	7	0	0	0	0	5	4
092712	13:58:40	10018	Trial	IncongruentRight	14	205	358	1	122	13:58:40	2591923	5	1	1	1	1	1	1	1	1	7	7	0	0	0	0	5	4
092712	13:58:40	10018	Trial	ResponseIL	14	0	162	0	122	13:58:40	2593232	5	1	1	1	1	1	1	1	1	7	7	0	0	0	0	5	4
092712	13:58:40	10018	Trial	IncongruentLeft	14	203	281	1	122	13:58:40	2593540	5	1	1	1	1	1	1	1	1	7	7	0	0	0	0	5	4
092712	13:58:40	10018	Trial	ResponseCR	14	0	162	0	122	13:58:40	2594924	5	1	1	1	1	1	1	1	1	7	7	0	0	0	0	5	4
092712	13:58:40	10018	Trial	CongruentRight	14	205	237	1	122	13:58:40	2595188	5	1	1	1	1	1	1	1	1	7	7	0	0	0	0	5	4
092712	13:58:40	10018	Trial	ResponseCL	14	0	162	0	122	13:58:40	2596617	5	1	1	1	1	1	1	1	1	7	7	0	0	0	0	5	4
092712	13:58:40	10018	Trial	CongruentLeft	14	203	224	1	122	13:58:40	2596868	5	1	1	1	1	1	1	1	1	7	7	0	0	0	0	5	4
092712	13:58:40	10018	Trial	ResponseIL	14	0	162	0	122	13:58:40	2598310	5	1	1	1	1	1	1	1	1	7	7	0	0	0	0	5	4
092712	13:58:40	10018	Trial	IncongruentLeft	14	203	323	1	122	13:58:40	2598660	5	1	1	1	1	1	1	1	1	7	7	0	0	0	0	5	4
092712	13:58:40	10018	Trial	ResponseCL	14	0	162	0	122	13:58:40	2600002	5	1	1	1	1	1	1	1	1	7	7	0	0	0	0	5	4
092712	13:58:40	10018	Trial	CongruentLeft	14	203	215	1	122	13:58:40	2600243	5	1	1	1	1	1	1	1	1	7	7	0	0	0	0	5	4
092712	13:58:40	10018	Trial	ResponseIR	14	0	162	0	122	13:58:40	2601695	5	1	1	1	1	1	1	1	1	7	7	0	0	0	0	5	4
092712	13:58:40	10018	Trial	IncongruentRight	14	205	362	1	122	13:58:40	2602084	5	1	1	1	1	1	1	1	1	7	7	0	0	0	0	5	4
092712	13:58:40	10018	Trial	ResponseCR	14	0	162	0	122	13:58:40	2603387	5	1	1	1	1	1	1	1	1	7	7	0	0	0	0	5	4
092712	13:58:40	10018	Trial	CongruentRight	14	205	237	1	122	13:58:40	2603651	5	1	1	1	1	1	1	1	1	7	7	0	0	0	0	5	4
092712	13:58:40	10018	Trial	ResponseIL	14	0	162	0	122	13:58:40	2605080	5	1	1	1	1	1	1	1	1	7	7	0	0	0	0	5	4
092712	13:58:40	10018	Trial	IncongruentLeft	14	203	209	1	122	13:58:40	2605316	5	1	1	1	1	1	1	1	1	7	7	0	0	0	0	5	4
092712	13:58:40	10018	Trial	ResponseCL	14	0	162	0	122	13:58:40	2606773	5	1	1	1	1	1	1	1	1	7	7	0	0	0	0	5	4
092712	13:58:40	10018	Trial	CongruentLeft	14	203	196	1	122	13:58:40	2606995	5	1	1	1	1	1	1	1	1	7	7	0	0	0	0	5	4
092712	13:58:40	10018	Trial	ResponseIR	14	0	162	0	122	13:58:40	2608465	5	1	1	1	1	1	1	1	1	7	7	0	0	0	0	5	4
092712	13:58:40	10018	Trial	IncongruentRight	14	205	311	1	122	13:58:40	2608803	5	1	1	1	1	1	1	1	1	7	7	0	0	0	0	5	4
092712	13:58:40	10018	Trial	ResponseIL	14	0	162	0	122	13:58:40	2610158	5	1	1	1	1	1	1	1	1	7	7	0	0	0	0	5	4
092712	13:58:40	10018	Trial	IncongruentLeft	14	203	315	1	122	13:58:40	2610499	5	1	1	1	1	1	1	1	1	7	7	0	0	0	0	5	4
092712	13:58:40	10018	Trial	ResponseCL	14	0	162	0	122	13:58:40	2611864	5	1	1	1	1	1	1	1	1	7	7	0	0	0	0	5	4
092712	13:58:40	10018	Trial	CongruentLeft	14	203	208	1	122	13:58:40	2612099	5	1	1	1	1	1	1	1	1	7	7	0	0	0	0	5	4
092712	13:58:40	10018	Trial	ResponseIL	14	0	162	0	122	13:58:40	2613557	5	1	1	1	1	1	1	1	1	7	7	0	0	0	0	5	4
092712	13:58:40	10018	Trial	IncongruentLeft	14	205	244	0	122	13:58:40	2613827	5	1	1	1	1	1	1	1	1	7	7	0	0	0	0	5	4
092712	13:58:40	10018	Trial	ResponseCR	14	0	162	0	122	13:58:40	2615249	5	1	1	1	1	1	1	1	1	7	7	0	0	0	0	5	4
092712	13:58:40	10018	Trial	CongruentRight	14	205	311	1	122	13:58:40	2615587	5	1	1	1	1	1	1	1	1	7	7	0	0	0	0	5	4
092712	13:58:40	10018	Trial	ResponseCL	14	0	162	0	122	13:58:40	2616942	5	1	1	1	1	1	1	1	1	7	7	0	0	0	0	5	4
092712	13:58:40	10018	Trial	CongruentLeft	14	203	203	1	122	13:58:40	2617171	5	1	1	1	1	1	1	1	1	7	7	0	0	0	0	5	4
092712	13:58:40	10018	Trial	ResponseIR	14	0	162	0	122	13:58:40	2618635	5	1	1	1	1	1	1	1	1	7	7	0	0	0	0	5	4
092712	13:58:40	10018	Trial	IncongruentRight	14	205	446	1	122	13:58:40	2619107	5	1	1	1	1	1	1	1	1	7	7	0	0	0	0	5	4
092712	13:58:40	10018	Trial	ResponseCL	14	0	162	0	122	13:58:40	2620327	5	1	1	1	1	1	1	1	1	7	7	0	0	0	0	5	4
092712	13:58:40	10018	Trial	CongruentLeft	14	203	257	1	122	13:58:40	2620611	5	1	1	1	1	1	1	1	1	7	7	0	0	0	0	5	4
092712	13:58:40	10018	Trial	ResponseCR	14	0	162	0	122	13:58:40	2622020	5	1	1	1	1	1	1	1	1	7	7	0	0	0	0	5	4
092712	13:58:40	10018	Trial	CongruentRight	14	205	292	1	122	13:58:40	2622339	5	1	1	1	1	1	1	1	1	7	7	0	0	0	0	5	4
092712	13:58:40	10018	Trial	ResponseIL	14	0	162	0	122	13:58:40	2623713	5	1	1	1	1	1	1	1	1	7	7	0	0	0	0	5	4
092712	13:58:40	10018	Trial	IncongruentLeft	14	203	280	1	122	13:58:40	2624019	5	1	1	1	1	1	1	1	1	7	7	0	0	0	0	5	4
092712	13:58:40	10018	WordsAbsFr3mo	PAbsFr3mo1	16	Abs1	4829	0	122	13:58:40	2641745	5	1	1	1	1	1	1	1	1	7	7	0	0	0	0	5	4
092712	13:58:40	10018	WordsAbsFr3mo	AbsFr3mo1	16	Abs1	4197	0	122	13:58:40	2645984	5	1	1	1	1	1	1	1	1	7	7	1	0	0	0	5	4
092712	13:58:40	10018	WordsAbsFr3mo	AbsFr3mo2	16	Abs1	8710	0	122	13:58:40	2654727	5	1	1	1	1	1	1	1	1	7	7	2	0	0	0	5	4
092712	13:58:40	10018	WordsAbsFr3mo	AbsFr3mo3	16	Abs2	56078	0	122	13:58:40	2710837	5	1	1	1	1	1	1	1	1	7	7	2	0	0	0	5	4
092712	13:58:40	10018	Trial2BackFrS	NS	17	0	1000	1	122	13:58:40	2794070	5	1	1	1	1	1	1	1	1	7	7	2	0	0	0	5	4
092712	13:58:40	10018	Trial2BackFrS	NS	17	0	1000	1	122	13:58:40	2795590	5	1	1	1	1	1	1	1	1	7	7	2	0	0	0	5	4
092712	13:58:40	10018	Trial2BackFrS	NS	17	0	1000	1	122	13:58:40	2797109	5	1	1	1	1	1	1	1	1	7	7	2	0	0	0	5	4
092712	13:58:40	10018	Trial2BackFrS	YS	17	57	370	1	122	13:58:40	2798002	5	1	1	1	1	1	1	1	1	7	7	2	0	0	0	5	4
092712	13:58:40	10018	Trial2BackFrS	NS	17	0	1000	1	122	13:58:40	2800134	5	1	1	1	1	1	1	1	1	7	7	2	0	0	0	5	4
092712	13:58:40	10018	Trial2BackFrS	NS	17	0	1000	1	122	13:58:40	2801654	5	1	1	1	1	1	1	1	1	7	7	2	0	0	0	5	4
092712	13:58:40	10018	Trial2BackFrS	NS	17	0	1000	1	122	13:58:40	2803173	5	1	1	1	1	1	1	1	1	7	7	2	0	0	0	5	4
092712	13:58:40	10018	Trial2BackFrS	NS	17	0	1000	1	122	13:58:40	2804693	5	1	1	1	1	1	1	1	1	7	7	2	0	0	0	5	4
092712	13:58:40	10018	Trial2BackFrS	YS	17	57	338	1	122	13:58:40	2805559	5	1	1	1	1	1	1	1	1	7	7	2	0	0	0	5	4
092712	13:58:40	10018	Trial2BackFrS	NS	17	0	1000	1	122	13:58:40	2807718	5	1	1	1	1	1	1	1	1	7	7	2	0	0	0	5	4
092712	13:58:40	10018	Trial2BackFrS	NS	17	0	1000	1	122	13:58:40	2809237	5	1	1	1	1	1	1	1	1	7	7	2	0	0	0	5	4
092712	13:58:40	10018	Trial2BackFrS	YS	17	0	1000	0	122	13:58:40	2810757	5	1	1	1	1	1	1	1	1	7	7	2	0	0	0	5	4
092712	13:58:40	10018	Trial2BackFrS	NS	17	0	1000	1	122	13:58:40	2812276	5	1	1	1	1	1	1	1	1	7	7	2	0	0	0	5	4
092712	13:58:40	10018	Trial2BackFrS	NS	17	0	1000	1	122	13:58:40	2813796	5	1	1	1	1	1	1	1	1	7	7	2	0	0	0	5	4
092712	13:58:40	10018	Trial2BackFrS	NS	17	0	1000	1	122	13:58:40	2815315	5	1	1	1	1	1	1	1	1	7	7	2	0	0	0	5	4
092712	13:58:40	10018	Trial2BackFrS	YS	17	57	372	1	122	13:58:40	2816208	5	1	1	1	1	1	1	1	1	7	7	2	0	0	0	5	4
092712	13:58:40	10018	Trial2BackFrS	NS	17	0	1000	1	122	13:58:40	2818341	5	1	1	1	1	1	1	1	1	7	7	2	0	0	0	5	4
092712	13:58:40	10018	Trial2BackFrS	NS	17	0	1000	1	122	13:58:40	2819860	5	1	1	1	1	1	1	1	1	7	7	2	0	0	0	5	4
092712	13:58:40	10018	Trial2BackFrS	NS	17	0	1000	1	122	13:58:40	2821379	5	1	1	1	1	1	1	1	1	7	7	2	0	0	0	5	4
092712	13:58:40	10018	Trial2BackFrS	NS	17	0	1000	1	122	13:58:40	2822899	5	1	1	1	1	1	1	1	1	7	7	2	0	0	0	5	4
092712	13:58:40	10018	Trial2BackFrS	YS	17	57	340	1	122	13:58:40	2823765	5	1	1	1	1	1	1	1	1	7	7	2	0	0	0	5	4
092712	13:58:40	10018	Trial2BackFrS	NS	17	0	1000	1	122	13:58:40	2825924	5	1	1	1	1	1	1	1	1	7	7	2	0	0	0	5	4
092712	13:58:40	10018	Trial2BackFrS	NS	17	0	1000	1	122	13:58:40	2827443	5	1	1	1	1	1	1	1	1	7	7	2	0	0	0	5	4
092712	13:58:40	10018	Trial2BackFrS	NS	17	0	1000	1	122	13:58:40	2828963	5	1	1	1	1	1	1	1	1	7	7	2	0	0	0	5	4
092712	13:58:40	10018	Trial2BackFrS	NS	17	0	1000	1	122	13:58:40	2830482	5	1	1	1	1	1	1	1	1	7	7	2	0	0	0	5	4
092712	13:58:40	10018	Trial2BackFrS	NS	17	0	1000	1	122	13:58:40	2832002	5	1	1	1	1	1	1	1	1	7	7	2	0	0	0	5	4
092712	13:58:40	10018	Trial2BackFrS	NS	17	0	1000	1	122	13:58:40	2833521	5	1	1	1	1	1	1	1	1	7	7	2	0	0	0	5	4
092712	13:58:40	10018	Trial2BackFrS	NS	17	0	1000	1	122	13:58:40	2835041	5	1	1	1	1	1	1	1	1	7	7	2	0	0	0	5	4
092712	13:58:40	10018	Trial2BackFrS	NS	17	0	1000	1	122	13:58:40	2836560	5	1	1	1	1	1	1	1	1	7	7	2	0	0	0	5	4
092712	13:58:40	10018	Trial2BackFrS	NS	17	0	1000	1	122	13:58:40	2838079	5	1	1	1	1	1	1	1	1	7	7	2	0	0	0	5	4
092712	13:58:40	10018	Trial2BackFrS	NS	17	0	1000	1	122	13:58:40	2839598	5	1	1	1	1	1	1	1	1	7	7	2	0	0	0	5	4
092712	13:58:40	10018	Trial2BackFrS	YS	17	57	408	1	122	13:58:40	2840531	5	1	1	1	1	1	1	1	1	7	7	2	0	0	0	5	4
092712	13:58:40	10018	Trial2BackFrS	NS	17	0	1000	1	122	13:58:40	2842624	5	1	1	1	1	1	1	1	1	7	7	2	0	0	0	5	4
092712	13:58:40	10018	Trial2BackFrS	NS	17	0	1000	1	122	13:58:40	2844143	5	1	1	1	1	1	1	1	1	7	7	2	0	0	0	5	4
092712	13:58:40	10018	Trial2BackFrS	NS	17	0	1000	1	122	13:58:40	2845663	5	1	1	1	1	1	1	1	1	7	7	2	0	0	0	5	4
092712	13:58:40	10018	Trial2BackFrS	YS	17	57	343	1	122	13:58:40	2846529	5	1	1	1	1	1	1	1	1	7	7	2	0	0	0	5	4
092712	13:58:40	10018	Trial2BackFrS	NS	17	0	1000	1	122	13:58:40	2848688	5	1	1	1	1	1	1	1	1	7	7	2	0	0	0	5	4
092712	13:58:40	10018	Trial2BackFrS	NS	17	0	1000	1	122	13:58:40	2850208	5	1	1	1	1	1	1	1	1	7	7	2	0	0	0	5	4
092712	13:58:40	10018	Trial2BackFrS	NS	17	0	1000	1	122	13:58:40	2851727	5	1	1	1	1	1	1	1	1	7	7	2	0	0	0	5	4
092712	13:58:40	10018	Trial2BackFrS	NS	17	0	1000	1	122	13:58:40	2853246	5	1	1	1	1	1	1	1	1	7	7	2	0	0	0	5	4
092712	13:58:40	10018	Trial2BackFrS	NS	17	0	1000	1	122	13:58:40	2854766	5	1	1	1	1	1	1	1	1	7	7	2	0	0	0	5	4
092712	13:58:40	10018	Trial2BackFrS	NS	17	0	1000	1	122	13:58:40	2856285	5	1	1	1	1	1	1	1	1	7	7	2	0	0	0	5	4
092712	13:58:40	10018	Trial2BackFrS	NS	17	0	1000	1	122	13:58:40	2857804	5	1	1	1	1	1	1	1	1	7	7	2	0	0	0	5	4
092712	13:58:40	10018	Trial2BackFrS	YS	17	57	569	1	122	13:58:40	2858897	5	1	1	1	1	1	1	1	1	7	7	2	0	0	0	5	4
092712	13:58:40	10018	Trial2BackFrS	NS	17	0	1000	1	122	13:58:40	2860830	5	1	1	1	1	1	1	1	1	7	7	2	0	0	0	5	4
092712	13:58:40	10018	Trial2BackFrS	NS	17	0	1000	1	122	13:58:40	2862349	5	1	1	1	1	1	1	1	1	7	7	2	0	0	0	5	4
092712	13:58:40	10018	Trial2BackFrS	NS	17	0	1000	1	122	13:58:40	2863869	5	1	1	1	1	1	1	1	1	7	7	2	0	0	0	5	4
092712	13:58:40	10018	Trial2BackFrS	NS	17	0	1000	1	122	13:58:40	2865388	5	1	1	1	1	1	1	1	1	7	7	2	0	0	0	5	4
092712	13:58:40	10018	Trial2BackFrS	YS	17	57	361	1	122	13:58:40	2866281	5	1	1	1	1	1	1	1	1	7	7	2	0	0	0	5	4
092712	13:58:40	10018	Trial2BackFrS	NS	17	0	1000	1	122	13:58:40	2868414	5	1	1	1	1	1	1	1	1	7	7	2	0	0	0	5	4
092712	13:58:40	10018	Trial2BackFrS	NS	17	0	1000	1	122	13:58:40	2869933	5	1	1	1	1	1	1	1	1	7	7	2	0	0	0	5	4
092712	13:58:40	10018	Trial2BackFrS	NS	17	0	1000	1	122	13:58:40	2871452	5	1	1	1	1	1	1	1	1	7	7	2	0	0	0	5	4
092712	13:58:40	10018	Trial2BackFrS	NS	17	0	1000	1	122	13:58:40	2872972	5	1	1	1	1	1	1	1	1	7	7	2	0	0	0	5	4
092712	13:58:40	10018	Trial2BackFrS	NS	17	0	1000	1	122	13:58:40	2874491	5	1	1	1	1	1	1	1	1	7	7	2	0	0	0	5	4
092712	13:58:40	10018	Trial2BackFrS	NS	17	0	1000	1	122	13:58:40	2876010	5	1	1	1	1	1	1	1	1	7	7	2	0	0	0	5	4
092712	13:58:40	10018	Trial2BackFrS	YS	17	57	379	1	122	13:58:40	2876917	5	1	1	1	1	1	1	1	1	7	7	2	0	0	0	5	4
092712	13:58:40	10018	Trial2BackFrS	NS	17	0	1000	1	122	13:58:40	2879036	5	1	1	1	1	1	1	1	1	7	7	2	0	0	0	5	4
092712	13:58:40	10018	Trial2BackFrS	NS	17	0	1000	1	122	13:58:40	2880555	5	1	1	1	1	1	1	1	1	7	7	2	0	0	0	5	4
092712	13:58:40	10018	Trial2BackFrS	NS	17	0	1000	1	122	13:58:40	2882075	5	1	1	1	1	1	1	1	1	7	7	2	0	0	0	5	4
092712	13:58:40	10018	Trial2BackFrS	NS	17	0	1000	1	122	13:58:40	2883594	5	1	1	1	1	1	1	1	1	7	7	2	0	0	0	5	4
092712	13:58:40	10018	Trial2BackFrS	NS	17	0	1000	1	122	13:58:40	2885113	5	1	1	1	1	1	1	1	1	7	7	2	0	0	0	5	4
092712	13:58:40	10018	Trial2BackFrS	NS	17	0	1000	1	122	13:58:40	2886633	5	1	1	1	1	1	1	1	1	7	7	2	0	0	0	5	4
092712	13:58:40	10018	Trial2BackFrS	NS	17	0	1000	1	122	13:58:40	2888152	5	1	1	1	1	1	1	1	1	7	7	2	0	0	0	5	4
092712	13:58:40	10018	Trial2BackFrS	YS	17	57	429	1	122	13:58:40	2889112	5	1	1	1	1	1	1	1	1	7	7	2	0	0	0	5	4
092712	13:58:40	10018	Trial2BackFrS	NS	17	0	1000	1	122	13:58:40	2891178	5	1	1	1	1	1	1	1	1	7	7	2	0	0	0	5	4
092712	13:58:40	10018	Trial2BackFrS	NS	17	0	1000	1	122	13:58:40	2892697	5	1	1	1	1	1	1	1	1	7	7	2	0	0	0	5	4
092712	13:58:40	10018	Trial2BackFrS	NS	17	0	1000	1	122	13:58:40	2894216	5	1	1	1	1	1	1	1	1	7	7	2	0	0	0	5	4
092712	13:58:40	10018	Trial2BackFrS	NS	17	0	1000	1	122	13:58:40	2895736	5	1	1	1	1	1	1	1	1	7	7	2	0	0	0	5	4
092712	13:58:40	10018	Trial2BackFrS	YS	17	0	1000	0	122	13:58:40	2897255	5	1	1	1	1	1	1	1	1	7	7	2	0	0	0	5	4
092712	13:58:40	10018	Trial2BackFrS	NS	17	0	1000	1	122	13:58:40	2898775	5	1	1	1	1	1	1	1	1	7	7	2	0	0	0	5	4
092712	13:58:40	10018	Trial2BackFrS	NS	17	0	1000	1	122	13:58:40	2900294	5	1	1	1	1	1	1	1	1	7	7	2	0	0	0	5	4
092712	13:58:40	10018	Trial2BackFrS	YS	17	57	832	1	122	13:58:40	2901653	5	1	1	1	1	1	1	1	1	7	7	2	0	0	0	5	4
092712	13:58:40	10018	Trial2BackFrS	NS	17	0	1000	1	122	13:58:40	2903319	5	1	1	1	1	1	1	1	1	7	7	2	0	0	0	5	4
092712	13:58:40	10018	Trial2BackFrS	NS	17	0	1000	1	122	13:58:40	2904839	5	1	1	1	1	1	1	1	1	7	7	2	0	0	0	5	4
092712	13:58:40	10018	Trial2BackFrS	NS	17	0	1000	1	122	13:58:40	2906358	5	1	1	1	1	1	1	1	1	7	7	2	0	0	0	5	4
092712	13:58:40	10018	Trial2BackFrS	NS	17	0	1000	1	122	13:58:40	2907878	5	1	1	1	1	1	1	1	1	7	7	2	0	0	0	5	4
092712	13:58:40	10018	Trial2BackFrS	NS	17	0	1000	1	122	13:58:40	2909397	5	1	1	1	1	1	1	1	1	7	7	2	0	0	0	5	4
092712	13:58:40	10018	Trial2BackFrS	NS	17	57	463	0	122	13:58:40	2910383	5	1	1	1	1	1	1	1	1	7	7	2	0	0	0	5	4
092712	13:58:40	10018	Trial2BackFrS	YS	17	57	846	1	122	13:58:40	2912276	5	1	1	1	1	1	1	1	1	7	7	2	0	0	0	5	4
092712	13:58:40	10018	Trial2BackFrS	NS	17	0	1000	1	122	13:58:40	2913915	5	1	1	1	1	1	1	1	1	7	7	2	0	0	0	5	4
092712	13:58:40	10018	Trial2BackFrS	NS	17	57	441	0	122	13:58:40	2914888	5	1	1	1	1	1	1	1	1	7	7	2	0	0	0	5	4
092712	13:58:40	10018	Trial2BackFrS	NS	17	0	1000	1	122	13:58:40	2916941	5	1	1	1	1	1	1	1	1	7	7	2	0	0	0	5	4
092712	13:58:40	10018	Trial2BackFrS	NS	17	0	1000	1	122	13:58:40	2918460	5	1	1	1	1	1	1	1	1	7	7	2	0	0	0	5	4
092712	13:58:40	10018	Trial2BackFrS	YS	17	0	1000	0	122	13:58:40	2919979	5	1	1	1	1	1	1	1	1	7	7	2	0	0	0	5	4
092712	13:58:40	10018	Trial2BackFrS	NS	17	0	1000	1	122	13:58:40	2921499	5	1	1	1	1	1	1	1	1	7	7	2	0	0	0	5	4
092712	13:58:40	10018	Trial2BackFrS	NS	17	0	1000	1	122	13:58:40	2923018	5	1	1	1	1	1	1	1	1	7	7	2	0	0	0	5	4
092712	13:58:40	10018	Trial2BackFrS	NS	17	0	1000	1	122	13:58:40	2924538	5	1	1	1	1	1	1	1	1	7	7	2	0	0	0	5	4
092712	13:58:40	10018	Trial2BackFrS	NS	17	57	523	0	122	13:58:40	2925591	5	1	1	1	1	1	1	1	1	7	7	2	0	0	0	5	4
092712	13:58:40	10018	Trial2BackFrS	YS	17	0	1000	0	122	13:58:40	2927563	5	1	1	1	1	1	1	1	1	7	7	2	0	0	0	5	4
092712	13:58:40	10018	Trial2BackFrS	NS	17	0	1000	1	122	13:58:40	2929082	5	1	1	1	1	1	1	1	1	7	7	2	0	0	0	5	4
092712	13:58:40	10018	Trial2BackFrS	NS	17	0	1000	1	122	13:58:40	2930602	5	1	1	1	1	1	1	1	1	7	7	2	0	0	0	5	4
092712	13:58:40	10018	Trial2BackFrS	YS	17	0	1000	0	122	13:58:40	2932121	5	1	1	1	1	1	1	1	1	7	7	2	0	0	0	5	4
092712	13:58:40	10018	Trial2BackFrS	NS	17	0	1000	1	122	13:58:40	2933641	5	1	1	1	1	1	1	1	1	7	7	2	0	0	0	5	4
092712	13:58:40	10018	Trial2BackFrS	NS	17	0	1000	1	122	13:58:40	2935160	5	1	1	1	1	1	1	1	1	7	7	2	0	0	0	5	4
092712	13:58:40	10018	Trial2BackFrS	NS	17	0	1000	1	122	13:58:40	2936679	5	1	1	1	1	1	1	1	1	7	7	2	0	0	0	5	4
092712	13:58:40	10018	Trial2BackFrS	NS	17	0	1000	1	122	13:58:40	2938199	5	1	1	1	1	1	1	1	1	7	7	2	0	0	0	5	4
092712	13:58:40	10018	Trial2BackFrS	NS	17	0	1000	1	122	13:58:40	2939718	5	1	1	1	1	1	1	1	1	7	7	2	0	0	0	5	4
092712	13:58:40	10018	Trial2BackFrS	NS	17	0	1000	1	122	13:58:40	2941237	5	1	1	1	1	1	1	1	1	7	7	2	0	0	0	5	4
092712	13:58:40	10018	Trial2BackFrS	NS	17	0	1000	1	122	13:58:40	2942757	5	1	1	1	1	1	1	1	1	7	7	2	0	0	0	5	4
092712	13:58:40	10018	Trial2BackFrS	NS	17	0	1000	1	122	13:58:40	2944276	5	1	1	1	1	1	1	1	1	7	7	2	0	0	0	5	4
092712	13:58:40	10018	Trial2BackFrS	YS	17	57	416	1	122	13:58:40	2945223	5	1	1	1	1	1	1	1	1	7	7	2	0	0	0	5	4
092712	13:58:40	10018	Trial2BackFrS	NS	17	0	1000	1	122	13:58:40	2947302	5	1	1	1	1	1	1	1	1	7	7	2	0	0	0	5	4
092712	13:58:40	10018	Trial2BackFrS	NS	17	0	1000	1	122	13:58:40	2948821	5	1	1	1	1	1	1	1	1	7	7	2	0	0	0	5	4
092712	13:58:40	10018	Trial2BackFrS	NS	17	0	1000	1	122	13:58:40	2950340	5	1	1	1	1	1	1	1	1	7	7	2	0	0	0	5	4
092712	13:58:40	10018	Trial2BackFrS	NS	17	0	1000	1	122	13:58:40	2951860	5	1	1	1	1	1	1	1	1	7	7	2	0	0	0	5	4
092712	13:58:40	10018	Trial2BackFrS	NS	17	0	1000	1	122	13:58:40	2953379	5	1	1	1	1	1	1	1	1	7	7	2	0	0	0	5	4
092712	13:58:40	10018	Trial2BackFrS	NS	17	0	1000	1	122	13:58:40	2954899	5	1	1	1	1	1	1	1	1	7	7	2	0	0	0	5	4
092712	13:58:40	10018	Trial2BackFrS	NS	17	0	1000	1	122	13:58:40	2956418	5	1	1	1	1	1	1	1	1	7	7	2	0	0	0	5	4
092712	13:58:40	10018	Trial2BackFrS	YS	17	57	418	1	122	13:58:40	2957364	5	1	1	1	1	1	1	1	1	7	7	2	0	0	0	5	4
092712	13:58:40	10018	Trial2BackFrS	NS	17	0	1000	1	122	13:58:40	2959443	5	1	1	1	1	1	1	1	1	7	7	2	0	0	0	5	4
092712	13:58:40	10018	Trial2BackFrS	NS	17	0	1000	1	122	13:58:40	2960963	5	1	1	1	1	1	1	1	1	7	7	2	0	0	0	5	4
092712	13:58:40	10018	Trial2BackFrS	NS	17	0	1000	1	122	13:58:40	2962482	5	1	1	1	1	1	1	1	1	7	7	2	0	0	0	5	4
092712	13:58:40	10018	Trial2BackFrS	NS	17	0	1000	1	122	13:58:40	2964002	5	1	1	1	1	1	1	1	1	7	7	2	0	0	0	5	4
092712	13:58:40	10018	Trial2BackFrS	NS	17	0	1000	1	122	13:58:40	2965521	5	1	1	1	1	1	1	1	1	7	7	2	0	0	0	5	4
092712	13:58:40	10018	Trial2BackFrS	NS	17	0	1000	1	122	13:58:40	2967040	5	1	1	1	1	1	1	1	1	7	7	2	0	0	0	5	4
092712	13:58:40	10018	Trial2BackFrS	NS	17	0	1000	1	122	13:58:40	2968560	5	1	1	1	1	1	1	1	1	7	7	2	0	0	0	5	4
092712	13:58:40	10018	Trial2BackFrS	NS	17	0	1000	1	122	13:58:40	2970079	5	1	1	1	1	1	1	1	1	7	7	2	0	0	0	5	4
092712	13:58:40	10018	Trial2BackFrS	NS	17	0	1000	1	122	13:58:40	2971598	5	1	1	1	1	1	1	1	1	7	7	2	0	0	0	5	4
092712	13:58:40	10018	Trial2BackFrS	YS	17	57	373	1	122	13:58:40	2972505	5	1	1	1	1	1	1	1	1	7	7	2	0	0	0	5	4
092712	13:58:40	10018	Trial2BackFrS	NS	17	0	1000	1	122	13:58:40	2974624	5	1	1	1	1	1	1	1	1	7	7	2	0	0	0	5	4
092712	13:58:40	10018	ClockFr3mo	ClockFr3mo	19	Clock1	85919	0	122	13:58:40	3060656	5	1	1	1	1	1	1	1	1	7	7	2	1	0	0	5	4
092712	13:58:40	10018	ClockFr3mo	ClockFr3mo	19	Clock11	660	0	122	13:58:40	3061362	5	1	1	1	1	1	1	1	1	7	7	2	1	1	0	5	4
092712	13:58:40	10018	ClockFr3mo	ClockFr3mo	19	Clock111	505	0	122	13:58:40	3061909	5	1	1	1	1	1	1	1	1	7	7	2	1	1	1	5	4
092712	13:58:40	10018	ClockFr3mo	ClockFr3mo	19	Clockdone	567	0	122	13:58:40	3062522	5	1	1	1	1	1	1	1	1	7	7	2	1	1	1	5	4
092712	13:58:40	10018	FASFrVF3mo	StopFrVF3mo	20	10	7283	0	122	13:58:40	3192098	5	1	1	1	1	1	1	1	1	7	7	2	1	1	1	5	4
