date	time	subject	blockcode	trialcode	values.TaskNumber	response	latency	correct	values.Score	script.starttime	script.elapsedtime	values.ScoreS7	values.Word1	values.Word2	values.Word3	values.Word4	values.Word5	values.Word6	values.Word7	values.Word8	values.DigitSpanFwrd	values.DigitSpanBack	values.ScoreAbs	values.Contour	values.Numbers	values.Hands	values.corsiblockspanFwrd	values.corsiblockspanRev
092712	12:18:54	10019	Language	Language	0	French	70900	0	0	12:18:54	71149	0	0	0	0	0	0	0	0	0	0	0	0	0	0	0	0	0
092712	12:18:54	10019	Session	Session	0	3mo	762	0	0	12:18:54	71987	0	0	0	0	0	0	0	0	0	0	0	0	0	0	0	0	0
092712	12:18:54	10019	HandFr	HandFr	0	LeftFr	295665	0	0	12:18:54	367734	0	0	0	0	0	0	0	0	0	0	0	0	0	0	0	0	0
092712	12:18:54	10019	AudioCheckFr	WordsFr	0	0	0	0	0	12:18:54	416587	0	0	0	0	0	0	0	0	0	0	0	0	0	0	0	0	0
092712	12:18:54	10019	CubeFr	CubeFr	1	1Cube	44247	0	0	12:18:54	461590	0	0	0	0	0	0	0	0	0	0	0	0	0	0	0	0	0
092712	12:18:54	10019	pm.simpleFrLeft	blank.simpleFr	2	0	1887	1	0	12:18:54	489818	0	0	0	0	0	0	0	0	0	0	0	0	0	0	0	0	0
092712	12:18:54	10019	pm.simpleFrLeft	pm.simpleFr	2	57	278	0	0	12:18:54	490138	0	0	0	0	0	0	0	0	0	0	0	0	0	0	0	0	0
092712	12:18:54	10019	pm.simpleFrLeft	blank.simpleFr	2	0	1487	1	0	12:18:54	491644	0	0	0	0	0	0	0	0	0	0	0	0	0	0	0	0	0
092712	12:18:54	10019	pm.simpleFrLeft	pm.simpleFr	2	57	261	0	0	12:18:54	491937	0	0	0	0	0	0	0	0	0	0	0	0	0	0	0	0	0
092712	12:18:54	10019	pm.simpleFrLeft	blank.simpleFr	2	0	2487	1	0	12:18:54	494456	0	0	0	0	0	0	0	0	0	0	0	0	0	0	0	0	0
092712	12:18:54	10019	pm.simpleFrLeft	pm.simpleFr	2	57	264	0	0	12:18:54	494763	0	0	0	0	0	0	0	0	0	0	0	0	0	0	0	0	0
092712	12:18:54	10019	pm.simpleFrLeft	blank.simpleFr	2	0	2287	1	0	12:18:54	497068	0	0	0	0	0	0	0	0	0	0	0	0	0	0	0	0	0
092712	12:18:54	10019	pm.simpleFrLeft	pm.simpleFr	2	57	260	0	0	12:18:54	497362	0	0	0	0	0	0	0	0	0	0	0	0	0	0	0	0	0
092712	12:18:54	10019	pm.simpleFrLeft	blank.simpleFr	2	0	2387	1	0	12:18:54	499774	0	0	0	0	0	0	0	0	0	0	0	0	0	0	0	0	0
092712	12:18:54	10019	pm.simpleFrLeft	pm.simpleFr	2	57	242	0	0	12:18:54	500054	0	0	0	0	0	0	0	0	0	0	0	0	0	0	0	0	0
092712	12:18:54	10019	pm.simpleFrLeft	blank.simpleFr	2	0	2087	1	0	12:18:54	502173	0	0	0	0	0	0	0	0	0	0	0	0	0	0	0	0	0
092712	12:18:54	10019	pm.simpleFrLeft	pm.simpleFr	2	57	275	0	0	12:18:54	502480	0	0	0	0	0	0	0	0	0	0	0	0	0	0	0	0	0
092712	12:18:54	10019	pm.simpleFrLeft	blank.simpleFr	2	0	1987	1	0	12:18:54	504492	0	0	0	0	0	0	0	0	0	0	0	0	0	0	0	0	0
092712	12:18:54	10019	pm.simpleFrLeft	pm.simpleFr	2	57	261	0	0	12:18:54	504785	0	0	0	0	0	0	0	0	0	0	0	0	0	0	0	0	0
092712	12:18:54	10019	pm.simpleFrLeft	blank.simpleFr	2	0	1787	1	0	12:18:54	506598	0	0	0	0	0	0	0	0	0	0	0	0	0	0	0	0	0
092712	12:18:54	10019	pm.simpleFrLeft	pm.simpleFr	2	57	234	0	0	12:18:54	506864	0	0	0	0	0	0	0	0	0	0	0	0	0	0	0	0	0
092712	12:18:54	10019	pm.simpleFrLeft	blank.simpleFr	2	0	1587	1	0	12:18:54	508477	0	0	0	0	0	0	0	0	0	0	0	0	0	0	0	0	0
092712	12:18:54	10019	pm.simpleFrLeft	pm.simpleFr	2	57	275	0	0	12:18:54	508784	0	0	0	0	0	0	0	0	0	0	0	0	0	0	0	0	0
092712	12:18:54	10019	pm.simpleFrLeft	blank.simpleFr	2	0	2187	1	0	12:18:54	510996	0	0	0	0	0	0	0	0	0	0	0	0	0	0	0	0	0
092712	12:18:54	10019	pm.simpleFrLeft	pm.simpleFr	2	57	252	0	0	12:18:54	511289	0	0	0	0	0	0	0	0	0	0	0	0	0	0	0	0	0
092712	12:18:54	10019	pm.simpleFrLeft	blank.simpleFr	2	0	1687	1	0	12:18:54	512995	0	0	0	0	0	0	0	0	0	0	0	0	0	0	0	0	0
092712	12:18:54	10019	pm.simpleFrLeft	pm.simpleFr	2	57	252	0	0	12:18:54	513288	0	0	0	0	0	0	0	0	0	0	0	0	0	0	0	0	0
092712	12:18:54	10019	pm.simpleFrLeft	blank.simpleFr	2	0	1987	1	0	12:18:54	515301	0	0	0	0	0	0	0	0	0	0	0	0	0	0	0	0	0
092712	12:18:54	10019	pm.simpleFrLeft	pm.simpleFr	2	57	1275	0	0	12:18:54	516607	0	0	0	0	0	0	0	0	0	0	0	0	0	0	0	0	0
092712	12:18:54	10019	pm.simpleFrLeft	blank.simpleFr	2	0	2087	1	0	12:18:54	518726	0	0	0	0	0	0	0	0	0	0	0	0	0	0	0	0	0
092712	12:18:54	10019	pm.simpleFrLeft	pm.simpleFr	2	57	345	0	0	12:18:54	519113	0	0	0	0	0	0	0	0	0	0	0	0	0	0	0	0	0
092712	12:18:54	10019	pm.simpleFrLeft	blank.simpleFr	2	0	1587	1	0	12:18:54	520726	0	0	0	0	0	0	0	0	0	0	0	0	0	0	0	0	0
092712	12:18:54	10019	pm.simpleFrLeft	pm.simpleFr	2	57	410	0	0	12:18:54	521179	0	0	0	0	0	0	0	0	0	0	0	0	0	0	0	0	0
092712	12:18:54	10019	pm.simpleFrLeft	blank.simpleFr	2	0	2487	1	0	12:18:54	523698	0	0	0	0	0	0	0	0	0	0	0	0	0	0	0	0	0
092712	12:18:54	10019	pm.simpleFrLeft	pm.simpleFr	2	57	254	0	0	12:18:54	523991	0	0	0	0	0	0	0	0	0	0	0	0	0	0	0	0	0
092712	12:18:54	10019	pm.simpleFrLeft	blank.simpleFr	2	0	2187	1	0	12:18:54	526203	0	0	0	0	0	0	0	0	0	0	0	0	0	0	0	0	0
092712	12:18:54	10019	pm.simpleFrLeft	pm.simpleFr	2	57	293	0	0	12:18:54	526537	0	0	0	0	0	0	0	0	0	0	0	0	0	0	0	0	0
092712	12:18:54	10019	pm.simpleFrLeft	blank.simpleFr	2	0	1787	1	0	12:18:54	528349	0	0	0	0	0	0	0	0	0	0	0	0	0	0	0	0	0
092712	12:18:54	10019	pm.simpleFrLeft	pm.simpleFr	2	57	307	0	0	12:18:54	528696	0	0	0	0	0	0	0	0	0	0	0	0	0	0	0	0	0
092712	12:18:54	10019	pm.simpleFrLeft	blank.simpleFr	2	0	2287	1	0	12:18:54	531015	0	0	0	0	0	0	0	0	0	0	0	0	0	0	0	0	0
092712	12:18:54	10019	pm.simpleFrLeft	pm.simpleFr	2	57	329	0	0	12:18:54	531375	0	0	0	0	0	0	0	0	0	0	0	0	0	0	0	0	0
092712	12:18:54	10019	pm.simpleFrLeft	blank.simpleFr	2	0	1887	1	0	12:18:54	533294	0	0	0	0	0	0	0	0	0	0	0	0	0	0	0	0	0
092712	12:18:54	10019	pm.simpleFrLeft	pm.simpleFr	2	57	338	0	0	12:18:54	533667	0	0	0	0	0	0	0	0	0	0	0	0	0	0	0	0	0
092712	12:18:54	10019	pm.simpleFrLeft	blank.simpleFr	2	0	1687	1	0	12:18:54	535386	0	0	0	0	0	0	0	0	0	0	0	0	0	0	0	0	0
092712	12:18:54	10019	pm.simpleFrLeft	pm.simpleFr	2	57	277	0	0	12:18:54	535706	0	0	0	0	0	0	0	0	0	0	0	0	0	0	0	0	0
092712	12:18:54	10019	pm.simpleFrLeft	blank.simpleFr	2	0	1487	1	0	12:18:54	537226	0	0	0	0	0	0	0	0	0	0	0	0	0	0	0	0	0
092712	12:18:54	10019	pm.simpleFrLeft	pm.simpleFr	2	57	278	0	0	12:18:54	537546	0	0	0	0	0	0	0	0	0	0	0	0	0	0	0	0	0
092712	12:18:54	10019	pm.simpleFrLeft	blank.simpleFr	2	0	2387	1	0	12:18:54	539958	0	0	0	0	0	0	0	0	0	0	0	0	0	0	0	0	0
092712	12:18:54	10019	pm.simpleFrLeft	pm.simpleFr	2	57	330	0	0	12:18:54	540317	0	0	0	0	0	0	0	0	0	0	0	0	0	0	0	0	0
092712	12:18:54	10019	pm.simpleFrLeft	blank.simpleFr	2	0	1687	1	0	12:18:54	542037	0	0	0	0	0	0	0	0	0	0	0	0	0	0	0	0	0
092712	12:18:54	10019	pm.simpleFrLeft	pm.simpleFr	2	57	234	0	0	12:18:54	542303	0	0	0	0	0	0	0	0	0	0	0	0	0	0	0	0	0
092712	12:18:54	10019	pm.simpleFrLeft	blank.simpleFr	2	0	1987	1	0	12:18:54	544316	0	0	0	0	0	0	0	0	0	0	0	0	0	0	0	0	0
092712	12:18:54	10019	pm.simpleFrLeft	pm.simpleFr	2	57	244	0	0	12:18:54	544596	0	0	0	0	0	0	0	0	0	0	0	0	0	0	0	0	0
092712	12:18:54	10019	pm.simpleFrLeft	blank.simpleFr	2	0	1887	1	0	12:18:54	546515	0	0	0	0	0	0	0	0	0	0	0	0	0	0	0	0	0
092712	12:18:54	10019	pm.simpleFrLeft	pm.simpleFr	2	57	237	0	0	12:18:54	546782	0	0	0	0	0	0	0	0	0	0	0	0	0	0	0	0	0
092712	12:18:54	10019	pm.simpleFrLeft	blank.simpleFr	2	0	2387	1	0	12:18:54	549194	0	0	0	0	0	0	0	0	0	0	0	0	0	0	0	0	0
092712	12:18:54	10019	pm.simpleFrLeft	pm.simpleFr	2	57	261	0	0	12:18:54	549487	0	0	0	0	0	0	0	0	0	0	0	0	0	0	0	0	0
092712	12:18:54	10019	pm.simpleFrLeft	blank.simpleFr	2	0	1587	1	0	12:18:54	551100	0	0	0	0	0	0	0	0	0	0	0	0	0	0	0	0	0
092712	12:18:54	10019	pm.simpleFrLeft	pm.simpleFr	2	57	275	0	0	12:18:54	551406	0	0	0	0	0	0	0	0	0	0	0	0	0	0	0	0	0
092712	12:18:54	10019	pm.simpleFrLeft	blank.simpleFr	2	0	1487	1	0	12:18:54	552926	0	0	0	0	0	0	0	0	0	0	0	0	0	0	0	0	0
092712	12:18:54	10019	pm.simpleFrLeft	pm.simpleFr	2	57	321	0	0	12:18:54	553286	0	0	0	0	0	0	0	0	0	0	0	0	0	0	0	0	0
092712	12:18:54	10019	pm.simpleFrLeft	blank.simpleFr	2	57	1833	0	0	12:18:54	556151	0	0	0	0	0	0	0	0	0	0	0	0	0	0	0	0	0
092712	12:18:54	10019	pm.simpleFrLeft	blank.simpleFr	2	0	1787	1	0	12:18:54	557964	0	0	0	0	0	0	0	0	0	0	0	0	0	0	0	0	0
092712	12:18:54	10019	pm.simpleFrLeft	pm.simpleFr	2	57	275	0	0	12:18:54	558270	0	0	0	0	0	0	0	0	0	0	0	0	0	0	0	0	0
092712	12:18:54	10019	pm.simpleFrLeft	blank.simpleFr	2	0	2487	1	0	12:18:54	560789	0	0	0	0	0	0	0	0	0	0	0	0	0	0	0	0	0
092712	12:18:54	10019	pm.simpleFrLeft	pm.simpleFr	2	57	298	0	0	12:18:54	561123	0	0	0	0	0	0	0	0	0	0	0	0	0	0	0	0	0
092712	12:18:54	10019	pm.simpleFrLeft	blank.simpleFr	2	0	2287	1	0	12:18:54	563442	0	0	0	0	0	0	0	0	0	0	0	0	0	0	0	0	0
092712	12:18:54	10019	pm.simpleFrLeft	pm.simpleFr	2	57	269	0	0	12:18:54	563748	0	0	0	0	0	0	0	0	0	0	0	0	0	0	0	0	0
092712	12:18:54	10019	pm.simpleFrLeft	blank.simpleFr	2	0	2087	1	0	12:18:54	565868	0	0	0	0	0	0	0	0	0	0	0	0	0	0	0	0	0
092712	12:18:54	10019	pm.simpleFrLeft	pm.simpleFr	2	57	307	0	0	12:18:54	566214	0	0	0	0	0	0	0	0	0	0	0	0	0	0	0	0	0
092712	12:18:54	10019	pm.simpleFrLeft	blank.simpleFr	2	0	2187	1	0	12:18:54	568426	0	0	0	0	0	0	0	0	0	0	0	0	0	0	0	0	0
092712	12:18:54	10019	pm.simpleFrLeft	pm.simpleFr	2	57	341	0	0	12:18:54	568799	0	0	0	0	0	0	0	0	0	0	0	0	0	0	0	0	0
092712	12:18:54	10019	pm.simpleFrLeft	blank.simpleFr	2	0	1887	1	0	12:18:54	570719	0	0	0	0	0	0	0	0	0	0	0	0	0	0	0	0	0
092712	12:18:54	10019	pm.simpleFrLeft	pm.simpleFr	2	57	288	0	0	12:18:54	571039	0	0	0	0	0	0	0	0	0	0	0	0	0	0	0	0	0
092712	12:18:54	10019	pm.simpleFrLeft	blank.simpleFr	2	0	2487	1	0	12:18:54	573558	0	0	0	0	0	0	0	0	0	0	0	0	0	0	0	0	0
092712	12:18:54	10019	pm.simpleFrLeft	pm.simpleFr	2	57	312	0	0	12:18:54	573904	0	0	0	0	0	0	0	0	0	0	0	0	0	0	0	0	0
092712	12:18:54	10019	pm.simpleFrLeft	blank.simpleFr	2	0	1487	1	0	12:18:54	575410	0	0	0	0	0	0	0	0	0	0	0	0	0	0	0	0	0
092712	12:18:54	10019	pm.simpleFrLeft	pm.simpleFr	2	57	333	0	0	12:18:54	575783	0	0	0	0	0	0	0	0	0	0	0	0	0	0	0	0	0
092712	12:18:54	10019	pm.simpleFrLeft	blank.simpleFr	2	0	1787	1	0	12:18:54	577596	0	0	0	0	0	0	0	0	0	0	0	0	0	0	0	0	0
092712	12:18:54	10019	pm.simpleFrLeft	pm.simpleFr	2	57	275	0	0	12:18:54	577903	0	0	0	0	0	0	0	0	0	0	0	0	0	0	0	0	0
092712	12:18:54	10019	pm.simpleFrLeft	blank.simpleFr	2	0	1587	1	0	12:18:54	579515	0	0	0	0	0	0	0	0	0	0	0	0	0	0	0	0	0
092712	12:18:54	10019	pm.simpleFrLeft	pm.simpleFr	2	57	291	0	0	12:18:54	579848	0	0	0	0	0	0	0	0	0	0	0	0	0	0	0	0	0
092712	12:18:54	10019	pm.simpleFrLeft	blank.simpleFr	2	0	2387	1	0	12:18:54	582261	0	0	0	0	0	0	0	0	0	0	0	0	0	0	0	0	0
092712	12:18:54	10019	pm.simpleFrLeft	pm.simpleFr	2	57	298	0	0	12:18:54	582594	0	0	0	0	0	0	0	0	0	0	0	0	0	0	0	0	0
092712	12:18:54	10019	pm.simpleFrLeft	blank.simpleFr	2	0	1687	1	0	12:18:54	584313	0	0	0	0	0	0	0	0	0	0	0	0	0	0	0	0	0
092712	12:18:54	10019	pm.simpleFrLeft	pm.simpleFr	2	57	310	0	0	12:18:54	584660	0	0	0	0	0	0	0	0	0	0	0	0	0	0	0	0	0
092712	12:18:54	10019	Trial2BackFr	N	3	0	1000	1	1	12:18:54	628642	0	0	0	0	0	0	0	0	0	0	0	0	0	0	0	0	0
092712	12:18:54	10019	Trial2BackFr	N	3	0	1000	1	2	12:18:54	630161	0	0	0	0	0	0	0	0	0	0	0	0	0	0	0	0	0
092712	12:18:54	10019	Trial2BackFr	N	3	0	1000	1	3	12:18:54	631681	0	0	0	0	0	0	0	0	0	0	0	0	0	0	0	0	0
092712	12:18:54	10019	Trial2BackFr	N	3	0	1000	1	4	12:18:54	633200	0	0	0	0	0	0	0	0	0	0	0	0	0	0	0	0	0
092712	12:18:54	10019	Trial2BackFr	N	3	0	1000	1	5	12:18:54	634719	0	0	0	0	0	0	0	0	0	0	0	0	0	0	0	0	0
092712	12:18:54	10019	Trial2BackFr	N	3	0	1000	1	6	12:18:54	636239	0	0	0	0	0	0	0	0	0	0	0	0	0	0	0	0	0
092712	12:18:54	10019	Trial2BackFr	N	3	0	1000	1	7	12:18:54	637758	0	0	0	0	0	0	0	0	0	0	0	0	0	0	0	0	0
092712	12:18:54	10019	Trial2BackFr	N	3	0	1000	1	8	12:18:54	639278	0	0	0	0	0	0	0	0	0	0	0	0	0	0	0	0	0
092712	12:18:54	10019	Trial2BackFr	Y	3	0	1000	0	8	12:18:54	640797	0	0	0	0	0	0	0	0	0	0	0	0	0	0	0	0	0
092712	12:18:54	10019	Trial2BackFr	N	3	0	1000	1	9	12:18:54	642316	0	0	0	0	0	0	0	0	0	0	0	0	0	0	0	0	0
092712	12:18:54	10019	Trial2BackFr	N	3	0	1000	1	10	12:18:54	643836	0	0	0	0	0	0	0	0	0	0	0	0	0	0	0	0	0
092712	12:18:54	10019	Trial2BackFr	N	3	0	1000	1	11	12:18:54	645355	0	0	0	0	0	0	0	0	0	0	0	0	0	0	0	0	0
092712	12:18:54	10019	Trial2BackFr	Y	3	57	710	1	12	12:18:54	646595	0	0	0	0	0	0	0	0	0	0	0	0	0	0	0	0	0
092712	12:18:54	10019	Trial2BackFr	N	3	0	1000	1	13	12:18:54	648381	0	0	0	0	0	0	0	0	0	0	0	0	0	0	0	0	0
092712	12:18:54	10019	Trial2BackFr	N	3	0	1000	1	14	12:18:54	649900	0	0	0	0	0	0	0	0	0	0	0	0	0	0	0	0	0
092712	12:18:54	10019	Trial2BackFr	N	3	0	1000	1	15	12:18:54	651419	0	0	0	0	0	0	0	0	0	0	0	0	0	0	0	0	0
092712	12:18:54	10019	Trial2BackFr	N	3	0	1000	1	16	12:18:54	652939	0	0	0	0	0	0	0	0	0	0	0	0	0	0	0	0	0
092712	12:18:54	10019	Trial2BackFr	N	3	0	1000	1	17	12:18:54	654458	0	0	0	0	0	0	0	0	0	0	0	0	0	0	0	0	0
092712	12:18:54	10019	Trial2BackFr	Y	3	57	462	1	18	12:18:54	655445	0	0	0	0	0	0	0	0	0	0	0	0	0	0	0	0	0
092712	12:18:54	10019	Trial2BackFr	N	3	0	1000	1	19	12:18:54	657484	0	0	0	0	0	0	0	0	0	0	0	0	0	0	0	0	0
092712	12:18:54	10019	Trial2BackFr	N	3	0	1000	1	20	12:18:54	659003	0	0	0	0	0	0	0	0	0	0	0	0	0	0	0	0	0
092712	12:18:54	10019	Trial2BackFr	N	3	0	1000	1	21	12:18:54	660523	0	0	0	0	0	0	0	0	0	0	0	0	0	0	0	0	0
092712	12:18:54	10019	Trial2BackFr	N	3	0	1000	1	22	12:18:54	662042	0	0	0	0	0	0	0	0	0	0	0	0	0	0	0	0	0
092712	12:18:54	10019	Trial2BackFr	Y	3	57	711	1	23	12:18:54	663281	0	0	0	0	0	0	0	0	0	0	0	0	0	0	0	0	0
092712	12:18:54	10019	Trial2BackFr	N	3	0	1000	1	24	12:18:54	665067	0	0	0	0	0	0	0	0	0	0	0	0	0	0	0	0	0
092712	12:18:54	10019	Trial2BackFr	N	3	0	1000	1	25	12:18:54	666587	0	0	0	0	0	0	0	0	0	0	0	0	0	0	0	0	0
092712	12:18:54	10019	Trial2BackFr	N	3	0	1000	1	26	12:18:54	668106	0	0	0	0	0	0	0	0	0	0	0	0	0	0	0	0	0
092712	12:18:54	10019	Trial2BackFr	N	3	0	1000	1	27	12:18:54	669625	0	0	0	0	0	0	0	0	0	0	0	0	0	0	0	0	0
092712	12:18:54	10019	Trial2BackFr	N	3	0	1000	1	28	12:18:54	671145	0	0	0	0	0	0	0	0	0	0	0	0	0	0	0	0	0
092712	12:18:54	10019	Trial2BackFr	N	3	0	1000	1	29	12:18:54	672664	0	0	0	0	0	0	0	0	0	0	0	0	0	0	0	0	0
092712	12:18:54	10019	Trial2BackFr	Y	3	57	841	1	30	12:18:54	674037	0	0	0	0	0	0	0	0	0	0	0	0	0	0	0	0	0
092712	12:18:54	10019	Trial2BackFr	N	3	0	1000	1	31	12:18:54	675690	0	0	0	0	0	0	0	0	0	0	0	0	0	0	0	0	0
092712	12:18:54	10019	Trial2BackFr	N	3	0	1000	1	32	12:18:54	677209	0	0	0	0	0	0	0	0	0	0	0	0	0	0	0	0	0
092712	12:18:54	10019	Trial2BackFr	N	3	0	1000	1	33	12:18:54	678728	0	0	0	0	0	0	0	0	0	0	0	0	0	0	0	0	0
092712	12:18:54	10019	Trial2BackFr	Y	3	57	760	1	34	12:18:54	680021	0	0	0	0	0	0	0	0	0	0	0	0	0	0	0	0	0
092712	12:18:54	10019	Trial2BackFr	N	3	0	1000	1	35	12:18:54	681754	0	0	0	0	0	0	0	0	0	0	0	0	0	0	0	0	0
092712	12:18:54	10019	Trial2BackFr	N	3	0	1000	1	36	12:18:54	683273	0	0	0	0	0	0	0	0	0	0	0	0	0	0	0	0	0
092712	12:18:54	10019	Trial2BackFr	N	3	0	1000	1	37	12:18:54	684793	0	0	0	0	0	0	0	0	0	0	0	0	0	0	0	0	0
092712	12:18:54	10019	Trial2BackFr	N	3	0	1000	1	38	12:18:54	686312	0	0	0	0	0	0	0	0	0	0	0	0	0	0	0	0	0
092712	12:18:54	10019	Trial2BackFr	N	3	0	1000	1	39	12:18:54	687831	0	0	0	0	0	0	0	0	0	0	0	0	0	0	0	0	0
092712	12:18:54	10019	Trial2BackFr	N	3	0	1000	1	40	12:18:54	689351	0	0	0	0	0	0	0	0	0	0	0	0	0	0	0	0	0
092712	12:18:54	10019	Trial2BackFr	Y	3	57	586	1	41	12:18:54	690470	0	0	0	0	0	0	0	0	0	0	0	0	0	0	0	0	0
092712	12:18:54	10019	Trial2BackFr	N	3	0	1000	1	42	12:18:54	692376	0	0	0	0	0	0	0	0	0	0	0	0	0	0	0	0	0
092712	12:18:54	10019	Trial2BackFr	N	3	0	1000	1	43	12:18:54	693896	0	0	0	0	0	0	0	0	0	0	0	0	0	0	0	0	0
092712	12:18:54	10019	Trial2BackFr	N	3	0	1000	1	44	12:18:54	695415	0	0	0	0	0	0	0	0	0	0	0	0	0	0	0	0	0
092712	12:18:54	10019	Trial2BackFr	N	3	0	1000	1	45	12:18:54	696934	0	0	0	0	0	0	0	0	0	0	0	0	0	0	0	0	0
092712	12:18:54	10019	Trial2BackFr	Y	3	57	618	1	46	12:18:54	698080	0	0	0	0	0	0	0	0	0	0	0	0	0	0	0	0	0
092712	12:18:54	10019	Trial2BackFr	N	3	0	1000	1	47	12:18:54	699960	0	0	0	0	0	0	0	0	0	0	0	0	0	0	0	0	0
092712	12:18:54	10019	Trial2BackFr	N	3	0	1000	1	48	12:18:54	701479	0	0	0	0	0	0	0	0	0	0	0	0	0	0	0	0	0
092712	12:18:54	10019	Trial2BackFr	N	3	0	1000	1	49	12:18:54	702999	0	0	0	0	0	0	0	0	0	0	0	0	0	0	0	0	0
092712	12:18:54	10019	Trial2BackFr	N	3	0	1000	1	50	12:18:54	704518	0	0	0	0	0	0	0	0	0	0	0	0	0	0	0	0	0
092712	12:18:54	10019	Trial2BackFr	N	3	0	1000	1	51	12:18:54	706037	0	0	0	0	0	0	0	0	0	0	0	0	0	0	0	0	0
092712	12:18:54	10019	Trial2BackFr	Y	3	57	555	1	52	12:18:54	707117	0	0	0	0	0	0	0	0	0	0	0	0	0	0	0	0	0
092712	12:18:54	10019	Trial2BackFr	N	3	0	1000	1	53	12:18:54	709063	0	0	0	0	0	0	0	0	0	0	0	0	0	0	0	0	0
092712	12:18:54	10019	Trial2BackFr	N	3	0	1000	1	54	12:18:54	710582	0	0	0	0	0	0	0	0	0	0	0	0	0	0	0	0	0
092712	12:18:54	10019	Trial2BackFr	N	3	0	1000	1	55	12:18:54	712102	0	0	0	0	0	0	0	0	0	0	0	0	0	0	0	0	0
092712	12:18:54	10019	Trial2BackFr	N	3	0	1000	1	56	12:18:54	713621	0	0	0	0	0	0	0	0	0	0	0	0	0	0	0	0	0
092712	12:18:54	10019	Trial2BackFr	N	3	0	1000	1	57	12:18:54	715140	0	0	0	0	0	0	0	0	0	0	0	0	0	0	0	0	0
092712	12:18:54	10019	Trial2BackFr	N	3	0	1000	1	58	12:18:54	716660	0	0	0	0	0	0	0	0	0	0	0	0	0	0	0	0	0
092712	12:18:54	10019	Trial2BackFr	Y	3	57	444	1	59	12:18:54	717633	0	0	0	0	0	0	0	0	0	0	0	0	0	0	0	0	0
092712	12:18:54	10019	Trial2BackFr	N	3	0	1000	1	60	12:18:54	719685	0	0	0	0	0	0	0	0	0	0	0	0	0	0	0	0	0
092712	12:18:54	10019	Trial2BackFr	N	3	0	1000	1	61	12:18:54	721204	0	0	0	0	0	0	0	0	0	0	0	0	0	0	0	0	0
092712	12:18:54	10019	Trial2BackFr	Y	3	0	1000	0	61	12:18:54	722724	0	0	0	0	0	0	0	0	0	0	0	0	0	0	0	0	0
092712	12:18:54	10019	Trial2BackFr	N	3	0	1000	1	62	12:18:54	724243	0	0	0	0	0	0	0	0	0	0	0	0	0	0	0	0	0
092712	12:18:54	10019	Trial2BackFr	N	3	0	1000	1	63	12:18:54	725763	0	0	0	0	0	0	0	0	0	0	0	0	0	0	0	0	0
092712	12:18:54	10019	Trial2BackFr	N	3	0	1000	1	64	12:18:54	727282	0	0	0	0	0	0	0	0	0	0	0	0	0	0	0	0	0
092712	12:18:54	10019	Trial2BackFr	N	3	0	1000	1	65	12:18:54	728802	0	0	0	0	0	0	0	0	0	0	0	0	0	0	0	0	0
092712	12:18:54	10019	Trial2BackFr	N	3	0	1000	1	66	12:18:54	730321	0	0	0	0	0	0	0	0	0	0	0	0	0	0	0	0	0
092712	12:18:54	10019	Trial2BackFr	N	3	0	1000	1	67	12:18:54	731840	0	0	0	0	0	0	0	0	0	0	0	0	0	0	0	0	0
092712	12:18:54	10019	Trial2BackFr	N	3	0	1000	1	68	12:18:54	733360	0	0	0	0	0	0	0	0	0	0	0	0	0	0	0	0	0
092712	12:18:54	10019	Trial2BackFr	N	3	0	1000	1	69	12:18:54	734879	0	0	0	0	0	0	0	0	0	0	0	0	0	0	0	0	0
092712	12:18:54	10019	Trial2BackFr	N	3	0	1000	1	70	12:18:54	736399	0	0	0	0	0	0	0	0	0	0	0	0	0	0	0	0	0
092712	12:18:54	10019	Trial2BackFr	N	3	0	1000	1	71	12:18:54	737918	0	0	0	0	0	0	0	0	0	0	0	0	0	0	0	0	0
092712	12:18:54	10019	Trial2BackFr	Y	3	57	594	1	72	12:18:54	739037	0	0	0	0	0	0	0	0	0	0	0	0	0	0	0	0	0
092712	12:18:54	10019	Trial2BackFr	N	3	0	1000	1	73	12:18:54	740943	0	0	0	0	0	0	0	0	0	0	0	0	0	0	0	0	0
092712	12:18:54	10019	Trial2BackFr	N	3	0	1000	1	74	12:18:54	742463	0	0	0	0	0	0	0	0	0	0	0	0	0	0	0	0	0
092712	12:18:54	10019	Trial2BackFr	N	3	0	1000	1	75	12:18:54	743982	0	0	0	0	0	0	0	0	0	0	0	0	0	0	0	0	0
092712	12:18:54	10019	Trial2BackFr	Y	3	57	721	1	76	12:18:54	745235	0	0	0	0	0	0	0	0	0	0	0	0	0	0	0	0	0
092712	12:18:54	10019	Trial2BackFr	N	3	0	1000	1	77	12:18:54	747008	0	0	0	0	0	0	0	0	0	0	0	0	0	0	0	0	0
092712	12:18:54	10019	Trial2BackFr	N	3	0	1000	1	78	12:18:54	748527	0	0	0	0	0	0	0	0	0	0	0	0	0	0	0	0	0
092712	12:18:54	10019	Trial2BackFr	N	3	0	1000	1	79	12:18:54	750046	0	0	0	0	0	0	0	0	0	0	0	0	0	0	0	0	0
092712	12:18:54	10019	Trial2BackFr	N	3	0	1000	1	80	12:18:54	751566	0	0	0	0	0	0	0	0	0	0	0	0	0	0	0	0	0
092712	12:18:54	10019	Trial2BackFr	N	3	0	1000	1	81	12:18:54	753085	0	0	0	0	0	0	0	0	0	0	0	0	0	0	0	0	0
092712	12:18:54	10019	Trial2BackFr	Y	3	57	706	1	82	12:18:54	754325	0	0	0	0	0	0	0	0	0	0	0	0	0	0	0	0	0
092712	12:18:54	10019	Trial2BackFr	N	3	0	1000	1	83	12:18:54	756110	0	0	0	0	0	0	0	0	0	0	0	0	0	0	0	0	0
092712	12:18:54	10019	Trial2BackFr	N	3	0	1000	1	84	12:18:54	757630	0	0	0	0	0	0	0	0	0	0	0	0	0	0	0	0	0
092712	12:18:54	10019	Trial2BackFr	N	3	0	1000	1	85	12:18:54	759149	0	0	0	0	0	0	0	0	0	0	0	0	0	0	0	0	0
092712	12:18:54	10019	Trial2BackFr	N	3	0	1000	1	86	12:18:54	760669	0	0	0	0	0	0	0	0	0	0	0	0	0	0	0	0	0
092712	12:18:54	10019	Trial2BackFr	N	3	0	1000	1	87	12:18:54	762188	0	0	0	0	0	0	0	0	0	0	0	0	0	0	0	0	0
092712	12:18:54	10019	Trial2BackFr	N	3	0	1000	1	88	12:18:54	763707	0	0	0	0	0	0	0	0	0	0	0	0	0	0	0	0	0
092712	12:18:54	10019	Trial2BackFr	N	3	0	1000	1	89	12:18:54	765227	0	0	0	0	0	0	0	0	0	0	0	0	0	0	0	0	0
092712	12:18:54	10019	Trial2BackFr	N	3	0	1000	1	90	12:18:54	766747	0	0	0	0	0	0	0	0	0	0	0	0	0	0	0	0	0
092712	12:18:54	10019	Trial2BackFr	N	3	0	1000	1	91	12:18:54	768266	0	0	0	0	0	0	0	0	0	0	0	0	0	0	0	0	0
092712	12:18:54	10019	Trial2BackFr	Y	3	57	709	1	92	12:18:54	769505	0	0	0	0	0	0	0	0	0	0	0	0	0	0	0	0	0
092712	12:18:54	10019	Trial2BackFr	N	3	0	1000	1	93	12:18:54	771291	0	0	0	0	0	0	0	0	0	0	0	0	0	0	0	0	0
092712	12:18:54	10019	Trial2BackFr	N	3	0	1000	1	94	12:18:54	772810	0	0	0	0	0	0	0	0	0	0	0	0	0	0	0	0	0
092712	12:18:54	10019	Trial2BackFr	N	3	0	1000	1	95	12:18:54	774330	0	0	0	0	0	0	0	0	0	0	0	0	0	0	0	0	0
092712	12:18:54	10019	Trial2BackFr	N	3	0	1000	1	96	12:18:54	775849	0	0	0	0	0	0	0	0	0	0	0	0	0	0	0	0	0
092712	12:18:54	10019	Trial2BackFr	N	3	0	1000	1	97	12:18:54	777369	0	0	0	0	0	0	0	0	0	0	0	0	0	0	0	0	0
092712	12:18:54	10019	Trial2BackFr	N	3	0	1000	1	98	12:18:54	778888	0	0	0	0	0	0	0	0	0	0	0	0	0	0	0	0	0
092712	12:18:54	10019	Trial2BackFr	N	3	0	1000	1	99	12:18:54	780407	0	0	0	0	0	0	0	0	0	0	0	0	0	0	0	0	0
092712	12:18:54	10019	Trial2BackFr	N	3	0	1000	1	100	12:18:54	781927	0	0	0	0	0	0	0	0	0	0	0	0	0	0	0	0	0
092712	12:18:54	10019	Trial2BackFr	Y	3	0	1000	0	100	12:18:54	783446	0	0	0	0	0	0	0	0	0	0	0	0	0	0	0	0	0
092712	12:18:54	10019	Trial2BackFr	N	3	0	1000	1	101	12:18:54	784965	0	0	0	0	0	0	0	0	0	0	0	0	0	0	0	0	0
092712	12:18:54	10019	Trial2BackFr	N	3	0	1000	1	102	12:18:54	786485	0	0	0	0	0	0	0	0	0	0	0	0	0	0	0	0	0
092712	12:18:54	10019	Trial2BackFr	N	3	0	1000	1	103	12:18:54	788004	0	0	0	0	0	0	0	0	0	0	0	0	0	0	0	0	0
092712	12:18:54	10019	Trial2BackFr	N	3	0	1000	1	104	12:18:54	789524	0	0	0	0	0	0	0	0	0	0	0	0	0	0	0	0	0
092712	12:18:54	10019	Trial2BackFr	Y	3	57	555	1	105	12:18:54	790603	0	0	0	0	0	0	0	0	0	0	0	0	0	0	0	0	0
092712	12:18:54	10019	Trial2BackFr	N	3	0	1000	1	106	12:18:54	792549	0	0	0	0	0	0	0	0	0	0	0	0	0	0	0	0	0
092712	12:18:54	10019	Trial2BackFr	N	3	0	1000	1	107	12:18:54	794069	0	0	0	0	0	0	0	0	0	0	0	0	0	0	0	0	0
092712	12:18:54	10019	Trial2BackFr	N	3	0	1000	1	108	12:18:54	795588	0	0	0	0	0	0	0	0	0	0	0	0	0	0	0	0	0
092712	12:18:54	10019	Trial2BackFr	Y	3	57	522	1	109	12:18:54	796641	0	0	0	0	0	0	0	0	0	0	0	0	0	0	0	0	0
092712	12:18:54	10019	Trial2BackFr	N	3	0	1000	1	110	12:18:54	798613	0	0	0	0	0	0	0	0	0	0	0	0	0	0	0	0	0
092712	12:18:54	10019	Trial2BackFr	N	3	0	1000	1	111	12:18:54	800133	0	0	0	0	0	0	0	0	0	0	0	0	0	0	0	0	0
092712	12:18:54	10019	Trial2BackFr	N	3	0	1000	1	112	12:18:54	801652	0	0	0	0	0	0	0	0	0	0	0	0	0	0	0	0	0
092712	12:18:54	10019	Trial2BackFr	N	3	0	1000	1	113	12:18:54	803171	0	0	0	0	0	0	0	0	0	0	0	0	0	0	0	0	0
092712	12:18:54	10019	Trial2BackFr	N	3	0	1000	1	114	12:18:54	804691	0	0	0	0	0	0	0	0	0	0	0	0	0	0	0	0	0
092712	12:18:54	10019	Trial2BackFr	Y	3	57	491	1	115	12:18:54	805704	0	0	0	0	0	0	0	0	0	0	0	0	0	0	0	0	0
092712	12:18:54	10019	Trial2BackFr	N	3	0	1000	1	116	12:18:54	807717	0	0	0	0	0	0	0	0	0	0	0	0	0	0	0	0	0
092712	12:18:54	10019	Trial2BackFr	N	3	0	1000	1	117	12:18:54	809236	0	0	0	0	0	0	0	0	0	0	0	0	0	0	0	0	0
092712	12:18:54	10019	Trial2BackFr	N	3	0	1000	1	118	12:18:54	810755	0	0	0	0	0	0	0	0	0	0	0	0	0	0	0	0	0
092712	12:18:54	10019	Trial2BackFr	Y	3	0	1000	0	118	12:18:54	812274	0	0	0	0	0	0	0	0	0	0	0	0	0	0	0	0	0
092712	12:18:54	10019	Trial3BackFr	NN	4	0	1000	1	118	12:18:54	834292	0	0	0	0	0	0	0	0	0	0	0	0	0	0	0	0	0
092712	12:18:54	10019	Trial3BackFr	NN	4	0	1000	1	118	12:18:54	835812	0	0	0	0	0	0	0	0	0	0	0	0	0	0	0	0	0
092712	12:18:54	10019	Trial3BackFr	NN	4	0	1000	1	118	12:18:54	837331	0	0	0	0	0	0	0	0	0	0	0	0	0	0	0	0	0
092712	12:18:54	10019	Trial3BackFr	YY	4	57	586	1	118	12:18:54	838450	0	0	0	0	0	0	0	0	0	0	0	0	0	0	0	0	0
092712	12:18:54	10019	Trial3BackFr	NN	4	0	1000	1	118	12:18:54	840356	0	0	0	0	0	0	0	0	0	0	0	0	0	0	0	0	0
092712	12:18:54	10019	Trial3BackFr	NN	4	0	1000	1	118	12:18:54	841876	0	0	0	0	0	0	0	0	0	0	0	0	0	0	0	0	0
092712	12:18:54	10019	Trial3BackFr	NN	4	0	1000	1	118	12:18:54	843395	0	0	0	0	0	0	0	0	0	0	0	0	0	0	0	0	0
092712	12:18:54	10019	Trial3BackFr	NN	4	0	1000	1	118	12:18:54	844915	0	0	0	0	0	0	0	0	0	0	0	0	0	0	0	0	0
092712	12:18:54	10019	Trial3BackFr	YY	4	0	1000	0	118	12:18:54	846434	0	0	0	0	0	0	0	0	0	0	0	0	0	0	0	0	0
092712	12:18:54	10019	Trial3BackFr	NN	4	0	1000	1	118	12:18:54	847953	0	0	0	0	0	0	0	0	0	0	0	0	0	0	0	0	0
092712	12:18:54	10019	Trial3BackFr	NN	4	0	1000	1	118	12:18:54	849473	0	0	0	0	0	0	0	0	0	0	0	0	0	0	0	0	0
092712	12:18:54	10019	Trial3BackFr	NN	4	0	1000	1	118	12:18:54	850992	0	0	0	0	0	0	0	0	0	0	0	0	0	0	0	0	0
092712	12:18:54	10019	Trial3BackFr	NN	4	0	1000	1	118	12:18:54	852511	0	0	0	0	0	0	0	0	0	0	0	0	0	0	0	0	0
092712	12:18:54	10019	Trial3BackFr	NN	4	57	685	0	118	12:18:54	853724	0	0	0	0	0	0	0	0	0	0	0	0	0	0	0	0	0
092712	12:18:54	10019	Trial3BackFr	NN	4	0	1000	1	118	12:18:54	855537	0	0	0	0	0	0	0	0	0	0	0	0	0	0	0	0	0
092712	12:18:54	10019	Trial3BackFr	NN	4	0	1000	1	118	12:18:54	857056	0	0	0	0	0	0	0	0	0	0	0	0	0	0	0	0	0
092712	12:18:54	10019	Trial3BackFr	YY	4	0	1000	0	118	12:18:54	858576	0	0	0	0	0	0	0	0	0	0	0	0	0	0	0	0	0
092712	12:18:54	10019	Trial3BackFr	NN	4	0	1000	1	118	12:18:54	860095	0	0	0	0	0	0	0	0	0	0	0	0	0	0	0	0	0
092712	12:18:54	10019	Trial3BackFr	NN	4	0	1000	1	118	12:18:54	861614	0	0	0	0	0	0	0	0	0	0	0	0	0	0	0	0	0
092712	12:18:54	10019	Trial3BackFr	NN	4	0	1000	1	118	12:18:54	863134	0	0	0	0	0	0	0	0	0	0	0	0	0	0	0	0	0
092712	12:18:54	10019	Trial3BackFr	NN	4	0	1000	1	118	12:18:54	864653	0	0	0	0	0	0	0	0	0	0	0	0	0	0	0	0	0
092712	12:18:54	10019	Trial3BackFr	NN	4	0	1000	1	118	12:18:54	866173	0	0	0	0	0	0	0	0	0	0	0	0	0	0	0	0	0
092712	12:18:54	10019	Trial3BackFr	YY	4	0	1000	0	118	12:18:54	867692	0	0	0	0	0	0	0	0	0	0	0	0	0	0	0	0	0
092712	12:18:54	10019	Trial3BackFr	NN	4	0	1000	1	118	12:18:54	869211	0	0	0	0	0	0	0	0	0	0	0	0	0	0	0	0	0
092712	12:18:54	10019	Trial3BackFr	NN	4	0	1000	1	118	12:18:54	870731	0	0	0	0	0	0	0	0	0	0	0	0	0	0	0	0	0
092712	12:18:54	10019	Trial3BackFr	NN	4	0	1000	1	118	12:18:54	872250	0	0	0	0	0	0	0	0	0	0	0	0	0	0	0	0	0
092712	12:18:54	10019	Trial3BackFr	YY	4	57	818	1	118	12:18:54	873596	0	0	0	0	0	0	0	0	0	0	0	0	0	0	0	0	0
092712	12:18:54	10019	Trial3BackFr	NN	4	0	1000	1	118	12:18:54	875276	0	0	0	0	0	0	0	0	0	0	0	0	0	0	0	0	0
092712	12:18:54	10019	Trial3BackFr	NN	4	0	1000	1	118	12:18:54	876795	0	0	0	0	0	0	0	0	0	0	0	0	0	0	0	0	0
092712	12:18:54	10019	Trial3BackFr	NN	4	0	1000	1	118	12:18:54	878314	0	0	0	0	0	0	0	0	0	0	0	0	0	0	0	0	0
092712	12:18:54	10019	Trial3BackFr	YY	4	0	1000	0	118	12:18:54	879834	0	0	0	0	0	0	0	0	0	0	0	0	0	0	0	0	0
092712	12:18:54	10019	Trial3BackFr	NN	4	0	1000	1	118	12:18:54	881353	0	0	0	0	0	0	0	0	0	0	0	0	0	0	0	0	0
092712	12:18:54	10019	Trial3BackFr	NN	4	0	1000	1	118	12:18:54	882872	0	0	0	0	0	0	0	0	0	0	0	0	0	0	0	0	0
092712	12:18:54	10019	Trial3BackFr	NN	4	0	1000	1	118	12:18:54	884392	0	0	0	0	0	0	0	0	0	0	0	0	0	0	0	0	0
092712	12:18:54	10019	Trial3BackFr	NN	4	57	644	0	118	12:18:54	885565	0	0	0	0	0	0	0	0	0	0	0	0	0	0	0	0	0
092712	12:18:54	10019	Trial3BackFr	NN	4	0	1000	1	118	12:18:54	887417	0	0	0	0	0	0	0	0	0	0	0	0	0	0	0	0	0
092712	12:18:54	10019	Trial3BackFr	NN	4	0	1000	1	118	12:18:54	888937	0	0	0	0	0	0	0	0	0	0	0	0	0	0	0	0	0
092712	12:18:54	10019	Trial3BackFr	NN	4	0	1000	1	118	12:18:54	890456	0	0	0	0	0	0	0	0	0	0	0	0	0	0	0	0	0
092712	12:18:54	10019	Trial3BackFr	NN	4	0	1000	1	118	12:18:54	891975	0	0	0	0	0	0	0	0	0	0	0	0	0	0	0	0	0
092712	12:18:54	10019	Trial3BackFr	NN	4	0	1000	1	118	12:18:54	893495	0	0	0	0	0	0	0	0	0	0	0	0	0	0	0	0	0
092712	12:18:54	10019	Trial3BackFr	NN	4	0	1000	1	118	12:18:54	895014	0	0	0	0	0	0	0	0	0	0	0	0	0	0	0	0	0
092712	12:18:54	10019	Trial3BackFr	YY	4	57	469	1	118	12:18:54	896014	0	0	0	0	0	0	0	0	0	0	0	0	0	0	0	0	0
092712	12:18:54	10019	Trial3BackFr	NN	4	0	1000	1	118	12:18:54	898040	0	0	0	0	0	0	0	0	0	0	0	0	0	0	0	0	0
092712	12:18:54	10019	Trial3BackFr	NN	4	0	1000	1	118	12:18:54	899559	0	0	0	0	0	0	0	0	0	0	0	0	0	0	0	0	0
092712	12:18:54	10019	Trial3BackFr	NN	4	0	1000	1	118	12:18:54	901078	0	0	0	0	0	0	0	0	0	0	0	0	0	0	0	0	0
092712	12:18:54	10019	Trial3BackFr	NN	4	0	1000	1	118	12:18:54	902598	0	0	0	0	0	0	0	0	0	0	0	0	0	0	0	0	0
092712	12:18:54	10019	Trial3BackFr	YY	4	0	1000	0	118	12:18:54	904117	0	0	0	0	0	0	0	0	0	0	0	0	0	0	0	0	0
092712	12:18:54	10019	Trial3BackFr	NN	4	0	1000	1	118	12:18:54	905637	0	0	0	0	0	0	0	0	0	0	0	0	0	0	0	0	0
092712	12:18:54	10019	Trial3BackFr	NN	4	0	1000	1	118	12:18:54	907156	0	0	0	0	0	0	0	0	0	0	0	0	0	0	0	0	0
092712	12:18:54	10019	Trial3BackFr	NN	4	0	1000	1	118	12:18:54	908675	0	0	0	0	0	0	0	0	0	0	0	0	0	0	0	0	0
092712	12:18:54	10019	Trial3BackFr	NN	4	0	1000	1	118	12:18:54	910195	0	0	0	0	0	0	0	0	0	0	0	0	0	0	0	0	0
092712	12:18:54	10019	Trial3BackFr	NN	4	0	1000	1	118	12:18:54	911714	0	0	0	0	0	0	0	0	0	0	0	0	0	0	0	0	0
092712	12:18:54	10019	Trial3BackFr	YY	4	57	441	1	118	12:18:54	912687	0	0	0	0	0	0	0	0	0	0	0	0	0	0	0	0	0
092712	12:18:54	10019	Trial3BackFr	NN	4	0	1000	1	118	12:18:54	914740	0	0	0	0	0	0	0	0	0	0	0	0	0	0	0	0	0
092712	12:18:54	10019	Trial3BackFr	NN	4	0	1000	1	118	12:18:54	916259	0	0	0	0	0	0	0	0	0	0	0	0	0	0	0	0	0
092712	12:18:54	10019	Trial3BackFr	NN	4	0	1000	1	118	12:18:54	917778	0	0	0	0	0	0	0	0	0	0	0	0	0	0	0	0	0
092712	12:18:54	10019	Trial3BackFr	NN	4	0	1000	1	118	12:18:54	919298	0	0	0	0	0	0	0	0	0	0	0	0	0	0	0	0	0
092712	12:18:54	10019	Trial3BackFr	NN	4	0	1000	1	118	12:18:54	920817	0	0	0	0	0	0	0	0	0	0	0	0	0	0	0	0	0
092712	12:18:54	10019	Trial3BackFr	NN	4	0	1000	1	118	12:18:54	922337	0	0	0	0	0	0	0	0	0	0	0	0	0	0	0	0	0
092712	12:18:54	10019	Trial3BackFr	YY	4	0	1000	0	118	12:18:54	923856	0	0	0	0	0	0	0	0	0	0	0	0	0	0	0	0	0
092712	12:18:54	10019	Trial3BackFr	NN	4	57	603	0	118	12:18:54	924989	0	0	0	0	0	0	0	0	0	0	0	0	0	0	0	0	0
092712	12:18:54	10019	Trial3BackFr	NN	4	0	1000	1	118	12:18:54	926881	0	0	0	0	0	0	0	0	0	0	0	0	0	0	0	0	0
092712	12:18:54	10019	Trial3BackFr	NN	4	0	1000	1	118	12:18:54	928401	0	0	0	0	0	0	0	0	0	0	0	0	0	0	0	0	0
092712	12:18:54	10019	Trial3BackFr	YY	4	0	1000	0	118	12:18:54	929920	0	0	0	0	0	0	0	0	0	0	0	0	0	0	0	0	0
092712	12:18:54	10019	Trial3BackFr	NN	4	0	1000	1	118	12:18:54	931440	0	0	0	0	0	0	0	0	0	0	0	0	0	0	0	0	0
092712	12:18:54	10019	Trial3BackFr	NN	4	0	1000	1	118	12:18:54	932959	0	0	0	0	0	0	0	0	0	0	0	0	0	0	0	0	0
092712	12:18:54	10019	Trial3BackFr	NN	4	0	1000	1	118	12:18:54	934478	0	0	0	0	0	0	0	0	0	0	0	0	0	0	0	0	0
092712	12:18:54	10019	Trial3BackFr	NN	4	0	1000	1	118	12:18:54	935998	0	0	0	0	0	0	0	0	0	0	0	0	0	0	0	0	0
092712	12:18:54	10019	Trial3BackFr	NN	4	0	1000	1	118	12:18:54	937517	0	0	0	0	0	0	0	0	0	0	0	0	0	0	0	0	0
092712	12:18:54	10019	Trial3BackFr	NN	4	0	1000	1	118	12:18:54	939036	0	0	0	0	0	0	0	0	0	0	0	0	0	0	0	0	0
092712	12:18:54	10019	Trial3BackFr	NN	4	0	1000	1	118	12:18:54	940556	0	0	0	0	0	0	0	0	0	0	0	0	0	0	0	0	0
092712	12:18:54	10019	Trial3BackFr	NN	4	0	1000	1	118	12:18:54	942075	0	0	0	0	0	0	0	0	0	0	0	0	0	0	0	0	0
092712	12:18:54	10019	Trial3BackFr	NN	4	0	1000	1	118	12:18:54	943595	0	0	0	0	0	0	0	0	0	0	0	0	0	0	0	0	0
092712	12:18:54	10019	Trial3BackFr	YY	4	57	816	1	118	12:18:54	944941	0	0	0	0	0	0	0	0	0	0	0	0	0	0	0	0	0
092712	12:18:54	10019	Trial3BackFr	NN	4	0	1000	1	118	12:18:54	946620	0	0	0	0	0	0	0	0	0	0	0	0	0	0	0	0	0
092712	12:18:54	10019	Trial3BackFr	NN	4	0	1000	1	118	12:18:54	948140	0	0	0	0	0	0	0	0	0	0	0	0	0	0	0	0	0
092712	12:18:54	10019	Trial3BackFr	NN	4	0	1000	1	118	12:18:54	949659	0	0	0	0	0	0	0	0	0	0	0	0	0	0	0	0	0
092712	12:18:54	10019	Trial3BackFr	YY	4	57	656	1	118	12:18:54	950845	0	0	0	0	0	0	0	0	0	0	0	0	0	0	0	0	0
092712	12:18:54	10019	Trial3BackFr	NN	4	0	1000	1	118	12:18:54	952684	0	0	0	0	0	0	0	0	0	0	0	0	0	0	0	0	0
092712	12:18:54	10019	Trial3BackFr	NN	4	0	1000	1	118	12:18:54	954204	0	0	0	0	0	0	0	0	0	0	0	0	0	0	0	0	0
092712	12:18:54	10019	Trial3BackFr	NN	4	0	1000	1	118	12:18:54	955723	0	0	0	0	0	0	0	0	0	0	0	0	0	0	0	0	0
092712	12:18:54	10019	Trial3BackFr	NN	4	0	1000	1	118	12:18:54	957242	0	0	0	0	0	0	0	0	0	0	0	0	0	0	0	0	0
092712	12:18:54	10019	Trial3BackFr	NN	4	0	1000	1	118	12:18:54	958762	0	0	0	0	0	0	0	0	0	0	0	0	0	0	0	0	0
092712	12:18:54	10019	Trial3BackFr	YY	4	57	464	1	118	12:18:54	959748	0	0	0	0	0	0	0	0	0	0	0	0	0	0	0	0	0
092712	12:18:54	10019	Trial3BackFr	NN	4	0	1000	1	118	12:18:54	961787	0	0	0	0	0	0	0	0	0	0	0	0	0	0	0	0	0
092712	12:18:54	10019	Trial3BackFr	NN	4	0	1000	1	118	12:18:54	963307	0	0	0	0	0	0	0	0	0	0	0	0	0	0	0	0	0
092712	12:18:54	10019	Trial3BackFr	NN	4	0	1000	1	118	12:18:54	964826	0	0	0	0	0	0	0	0	0	0	0	0	0	0	0	0	0
092712	12:18:54	10019	Trial3BackFr	NN	4	0	1000	1	118	12:18:54	966345	0	0	0	0	0	0	0	0	0	0	0	0	0	0	0	0	0
092712	12:18:54	10019	Trial3BackFr	NN	4	0	1000	1	118	12:18:54	967865	0	0	0	0	0	0	0	0	0	0	0	0	0	0	0	0	0
092712	12:18:54	10019	Trial3BackFr	NN	4	0	1000	1	118	12:18:54	969384	0	0	0	0	0	0	0	0	0	0	0	0	0	0	0	0	0
092712	12:18:54	10019	Trial3BackFr	NN	4	0	1000	1	118	12:18:54	970904	0	0	0	0	0	0	0	0	0	0	0	0	0	0	0	0	0
092712	12:18:54	10019	Trial3BackFr	NN	4	0	1000	1	118	12:18:54	972423	0	0	0	0	0	0	0	0	0	0	0	0	0	0	0	0	0
092712	12:18:54	10019	Trial3BackFr	NN	4	0	1000	1	118	12:18:54	973942	0	0	0	0	0	0	0	0	0	0	0	0	0	0	0	0	0
092712	12:18:54	10019	Trial3BackFr	YY	4	0	1000	0	118	12:18:54	975462	0	0	0	0	0	0	0	0	0	0	0	0	0	0	0	0	0
092712	12:18:54	10019	Trial3BackFr	NN	4	0	1000	1	118	12:18:54	976981	0	0	0	0	0	0	0	0	0	0	0	0	0	0	0	0	0
092712	12:18:54	10019	Trial3BackFr	NN	4	0	1000	1	118	12:18:54	978501	0	0	0	0	0	0	0	0	0	0	0	0	0	0	0	0	0
092712	12:18:54	10019	Trial3BackFr	NN	4	0	1000	1	118	12:18:54	980020	0	0	0	0	0	0	0	0	0	0	0	0	0	0	0	0	0
092712	12:18:54	10019	Trial3BackFr	NN	4	0	1000	1	118	12:18:54	981540	0	0	0	0	0	0	0	0	0	0	0	0	0	0	0	0	0
092712	12:18:54	10019	Trial3BackFr	NN	4	0	1000	1	118	12:18:54	983059	0	0	0	0	0	0	0	0	0	0	0	0	0	0	0	0	0
092712	12:18:54	10019	Trial3BackFr	NN	4	0	1000	1	118	12:18:54	984578	0	0	0	0	0	0	0	0	0	0	0	0	0	0	0	0	0
092712	12:18:54	10019	Trial3BackFr	NN	4	0	1000	1	118	12:18:54	986097	0	0	0	0	0	0	0	0	0	0	0	0	0	0	0	0	0
092712	12:18:54	10019	Trial3BackFr	NN	4	0	1000	1	118	12:18:54	987617	0	0	0	0	0	0	0	0	0	0	0	0	0	0	0	0	0
092712	12:18:54	10019	Trial3BackFr	YY	4	57	729	1	118	12:18:54	988869	0	0	0	0	0	0	0	0	0	0	0	0	0	0	0	0	0
092712	12:18:54	10019	Trial3BackFr	NN	4	0	1000	1	118	12:18:54	990642	0	0	0	0	0	0	0	0	0	0	0	0	0	0	0	0	0
092712	12:18:54	10019	Trial3BackFr	NN	4	0	1000	1	118	12:18:54	992162	0	0	0	0	0	0	0	0	0	0	0	0	0	0	0	0	0
092712	12:18:54	10019	Trial3BackFr	NN	4	0	1000	1	118	12:18:54	993681	0	0	0	0	0	0	0	0	0	0	0	0	0	0	0	0	0
092712	12:18:54	10019	Trial3BackFr	NN	4	0	1000	1	118	12:18:54	995200	0	0	0	0	0	0	0	0	0	0	0	0	0	0	0	0	0
092712	12:18:54	10019	Trial3BackFr	YY	4	57	457	1	118	12:18:54	996187	0	0	0	0	0	0	0	0	0	0	0	0	0	0	0	0	0
092712	12:18:54	10019	Trial3BackFr	NN	4	0	1000	1	118	12:18:54	998226	0	0	0	0	0	0	0	0	0	0	0	0	0	0	0	0	0
092712	12:18:54	10019	Trial3BackFr	NN	4	0	1000	1	118	12:18:54	999745	0	0	0	0	0	0	0	0	0	0	0	0	0	0	0	0	0
092712	12:18:54	10019	Trial3BackFr	NN	4	0	1000	1	118	12:18:54	1001265	0	0	0	0	0	0	0	0	0	0	0	0	0	0	0	0	0
092712	12:18:54	10019	Trial3BackFr	YY	4	57	473	1	118	12:18:54	1002264	0	0	0	0	0	0	0	0	0	0	0	0	0	0	0	0	0
092712	12:18:54	10019	Trial3BackFr	NN	4	0	1000	1	118	12:18:54	1004290	0	0	0	0	0	0	0	0	0	0	0	0	0	0	0	0	0
092712	12:18:54	10019	Trial3BackFr	NN	4	0	1000	1	118	12:18:54	1005809	0	0	0	0	0	0	0	0	0	0	0	0	0	0	0	0	0
092712	12:18:54	10019	Trial3BackFr	NN	4	0	1000	1	118	12:18:54	1007329	0	0	0	0	0	0	0	0	0	0	0	0	0	0	0	0	0
092712	12:18:54	10019	Trial3BackFr	NN	4	57	808	0	118	12:18:54	1008661	0	0	0	0	0	0	0	0	0	0	0	0	0	0	0	0	0
092712	12:18:54	10019	Trial3BackFr	NN	4	0	1000	1	118	12:18:54	1010354	0	0	0	0	0	0	0	0	0	0	0	0	0	0	0	0	0
092712	12:18:54	10019	Trial3BackFr	YY	4	0	1000	0	118	12:18:54	1011874	0	0	0	0	0	0	0	0	0	0	0	0	0	0	0	0	0
092712	12:18:54	10019	Trial3BackFr	NN	4	0	1000	1	118	12:18:54	1013393	0	0	0	0	0	0	0	0	0	0	0	0	0	0	0	0	0
092712	12:18:54	10019	Trial3BackFr	NN	4	0	1000	1	118	12:18:54	1014912	0	0	0	0	0	0	0	0	0	0	0	0	0	0	0	0	0
092712	12:18:54	10019	Trial3BackFr	NN	4	0	1000	1	118	12:18:54	1016432	0	0	0	0	0	0	0	0	0	0	0	0	0	0	0	0	0
092712	12:18:54	10019	Trial3BackFr	YY	4	57	729	1	118	12:18:54	1017685	0	0	0	0	0	0	0	0	0	0	0	0	0	0	0	0	0
092712	12:18:54	10019	Memory1R3moFr	ScoreFr	5	M1	17052	0	118	12:18:54	1067705	0	0	0	0	0	0	0	0	0	0	0	0	0	0	0	0	0
092712	12:18:54	10019	Memory1R3moFr	ScoreFr	5	M2	326	0	118	12:18:54	1068064	0	0	0	0	0	0	0	0	0	0	0	0	0	0	0	0	0
092712	12:18:54	10019	Memory1R3moFr	ScoreFr	5	M3	350	0	118	12:18:54	1068451	0	0	0	0	0	0	0	0	0	0	0	0	0	0	0	0	0
092712	12:18:54	10019	Memory1R3moFr	ScoreFr	5	M5	1771	0	118	12:18:54	1070264	0	0	0	0	0	0	0	0	0	0	0	0	0	0	0	0	0
092712	12:18:54	10019	Memory1R3moFr	ScoreFr	5	M8	1479	0	118	12:18:54	1071783	0	0	0	0	0	0	0	0	0	0	0	0	0	0	0	0	0
092712	12:18:54	10019	Memory1R3moFr	ScoreFr	5	Done	479	0	118	12:18:54	1072303	0	0	0	0	0	0	0	0	0	0	0	0	0	0	0	0	0
092712	12:18:54	10019	Memory2R3moFr	ScoreFr2	5	11	15654	0	118	12:18:54	1105196	0	0	0	0	0	0	0	0	0	0	0	0	0	0	0	0	0
092712	12:18:54	10019	Memory2R3moFr	ScoreFr2	5	22	329	0	118	12:18:54	1105569	0	0	0	0	0	0	0	0	0	0	0	0	0	0	0	0	0
092712	12:18:54	10019	Memory2R3moFr	ScoreFr2	5	33	292	0	118	12:18:54	1105903	0	0	0	0	0	0	0	0	0	0	0	0	0	0	0	0	0
092712	12:18:54	10019	Memory2R3moFr	ScoreFr2	5	44	5343	0	118	12:18:54	1111287	0	0	0	0	0	0	0	0	0	0	0	0	0	0	0	0	0
092712	12:18:54	10019	Memory2R3moFr	ScoreFr2	5	55	247	0	118	12:18:54	1111580	0	0	0	0	0	0	0	0	0	0	0	0	0	0	0	0	0
092712	12:18:54	10019	Memory2R3moFr	ScoreFr2	5	77	321	0	118	12:18:54	1111940	0	0	0	0	0	0	0	0	0	0	0	0	0	0	0	0	0
092712	12:18:54	10019	Memory2R3moFr	ScoreFr2	5	66	481	0	118	12:18:54	1112460	0	0	0	0	0	0	0	0	0	0	0	0	0	0	0	0	0
092712	12:18:54	10019	Memory2R3moFr	ScoreFr2	5	88	497	0	118	12:18:54	1112993	0	0	0	0	0	0	0	0	0	0	0	0	0	0	0	0	0
092712	12:18:54	10019	Memory2R3moFr	ScoreFr2	5	Done	436	0	118	12:18:54	1113473	0	0	0	0	0	0	0	0	0	0	0	0	0	0	0	0	0
092712	12:18:54	10019	Memory3R3moFr	ScoreFr3	5	111	18522	0	118	12:18:54	1150311	0	0	0	0	0	0	0	0	0	0	0	0	0	0	0	0	0
092712	12:18:54	10019	Memory3R3moFr	ScoreFr3	5	222	244	0	118	12:18:54	1150591	0	0	0	0	0	0	0	0	0	0	0	0	0	0	0	0	0
092712	12:18:54	10019	Memory3R3moFr	ScoreFr3	5	333	326	0	118	12:18:54	1150951	0	0	0	0	0	0	0	0	0	0	0	0	0	0	0	0	0
092712	12:18:54	10019	Memory3R3moFr	ScoreFr3	5	444	1766	0	118	12:18:54	1152750	0	0	0	0	0	0	0	0	0	0	0	0	0	0	0	0	0
092712	12:18:54	10019	Memory3R3moFr	ScoreFr3	5	666	750	0	118	12:18:54	1153536	0	0	0	0	0	0	0	0	0	0	0	0	0	0	0	0	0
092712	12:18:54	10019	Memory3R3moFr	ScoreFr3	5	777	228	0	118	12:18:54	1153803	0	0	0	0	0	0	0	0	0	0	0	0	0	0	0	0	0
092712	12:18:54	10019	Memory3R3moFr	ScoreFr3	5	888	473	0	118	12:18:54	1154323	0	0	0	0	0	0	0	0	0	0	0	0	0	0	0	0	0
092712	12:18:54	10019	Memory3R3moFr	ScoreFr3	5	555	9113	0	118	12:18:54	1163479	0	0	0	0	0	0	0	0	0	0	0	0	0	0	0	0	0
092712	12:18:54	10019	Memory3R3moFr	ScoreFr3	5	Done	1237	0	118	12:18:54	1164758	0	0	0	0	0	0	0	0	0	0	0	0	0	0	0	0	0
092712	12:18:54	10019	LoriaFrRH3	Stop	6	4	6500	0	118	12:18:54	1252272	0	0	0	0	0	0	0	0	0	0	0	0	0	0	0	0	0
092712	12:18:54	10019	FrTrail	Trails	7	1Trails	3495	0	118	12:18:54	1286550	0	0	0	0	0	0	0	0	0	0	0	0	0	0	0	0	0
092712	12:18:54	10019	Serial7Fr3mo	Serial7Fr3mo	8	83	7836	0	118	12:18:54	1314713	1	0	0	0	0	0	0	0	0	0	0	0	0	0	0	0	0
092712	12:18:54	10019	Serial7Fr3mo	Serial7Fr3mo	8	76	2973	0	118	12:18:54	1317712	2	0	0	0	0	0	0	0	0	0	0	0	0	0	0	0	0
092712	12:18:54	10019	Serial7Fr3mo	Serial7Fr3mo	8	69	2606	0	118	12:18:54	1320338	3	0	0	0	0	0	0	0	0	0	0	0	0	0	0	0	0
092712	12:18:54	10019	Serial7Fr3mo	Serial7Fr3mo	8	62	1924	0	118	12:18:54	1322284	4	0	0	0	0	0	0	0	0	0	0	0	0	0	0	0	0
092712	12:18:54	10019	Serial7Fr3mo	Serial7Fr3mo	8	55	2177	0	118	12:18:54	1324483	5	0	0	0	0	0	0	0	0	0	0	0	0	0	0	0	0
092712	12:18:54	10019	corsiblockFrFwrd	recallseqFrFwrd	9	5	2100	0	118	12:18:54	1370358	5	0	0	0	0	0	0	0	0	0	0	0	0	0	0	0	0
092712	12:18:54	10019	corsiblockFrFwrd	recallseqFrFwrd	9	7	1235	0	118	12:18:54	1371637	5	0	0	0	0	0	0	0	0	0	0	0	0	0	0	0	0
092712	12:18:54	10019	corsiblockFrFwrd	recallseqFrFwrd	9	doneCorsiFr	2060	0	118	12:18:54	1373730	5	0	0	0	0	0	0	0	0	0	0	0	0	0	0	2	0
092712	12:18:54	10019	corsiblockFrFwrd	recallseqFrFwrd	9	4	1308	0	118	12:18:54	1381127	5	0	0	0	0	0	0	0	0	0	0	0	0	0	0	2	0
092712	12:18:54	10019	corsiblockFrFwrd	recallseqFrFwrd	9	6	490	0	118	12:18:54	1381660	5	0	0	0	0	0	0	0	0	0	0	0	0	0	0	2	0
092712	12:18:54	10019	corsiblockFrFwrd	recallseqFrFwrd	9	9	1021	0	118	12:18:54	1382726	5	0	0	0	0	0	0	0	0	0	0	0	0	0	0	2	0
092712	12:18:54	10019	corsiblockFrFwrd	recallseqFrFwrd	9	doneCorsiFr	955	0	118	12:18:54	1383726	5	0	0	0	0	0	0	0	0	0	0	0	0	0	0	3	0
092712	12:18:54	10019	corsiblockFrFwrd	recallseqFrFwrd	9	8	1288	0	118	12:18:54	1392109	5	0	0	0	0	0	0	0	0	0	0	0	0	0	0	3	0
092712	12:18:54	10019	corsiblockFrFwrd	recallseqFrFwrd	9	1	1036	0	118	12:18:54	1393189	5	0	0	0	0	0	0	0	0	0	0	0	0	0	0	3	0
092712	12:18:54	10019	corsiblockFrFwrd	recallseqFrFwrd	9	3	476	0	118	12:18:54	1393708	5	0	0	0	0	0	0	0	0	0	0	0	0	0	0	3	0
092712	12:18:54	10019	corsiblockFrFwrd	recallseqFrFwrd	9	2	509	0	118	12:18:54	1394255	5	0	0	0	0	0	0	0	0	0	0	0	0	0	0	3	0
092712	12:18:54	10019	corsiblockFrFwrd	recallseqFrFwrd	9	doneCorsiFr	962	0	118	12:18:54	1395254	5	0	0	0	0	0	0	0	0	0	0	0	0	0	0	4	0
092712	12:18:54	10019	corsiblockFrFwrd	recallseqFrFwrd	9	6	1111	0	118	12:18:54	1404451	5	0	0	0	0	0	0	0	0	0	0	0	0	0	0	4	0
092712	12:18:54	10019	corsiblockFrFwrd	recallseqFrFwrd	9	9	742	0	118	12:18:54	1405237	5	0	0	0	0	0	0	0	0	0	0	0	0	0	0	4	0
092712	12:18:54	10019	corsiblockFrFwrd	recallseqFrFwrd	9	7	659	0	118	12:18:54	1405930	5	0	0	0	0	0	0	0	0	0	0	0	0	0	0	4	0
092712	12:18:54	10019	corsiblockFrFwrd	recallseqFrFwrd	9	4	718	0	118	12:18:54	1406690	5	0	0	0	0	0	0	0	0	0	0	0	0	0	0	4	0
092712	12:18:54	10019	corsiblockFrFwrd	recallseqFrFwrd	9	2	566	0	118	12:18:54	1407290	5	0	0	0	0	0	0	0	0	0	0	0	0	0	0	4	0
092712	12:18:54	10019	corsiblockFrFwrd	recallseqFrFwrd	9	doneCorsiFr	839	0	118	12:18:54	1408169	5	0	0	0	0	0	0	0	0	0	0	0	0	0	0	5	0
092712	12:18:54	10019	corsiblockFrFwrd	recallseqFrFwrd	9	3	1309	0	118	12:18:54	1418565	5	0	0	0	0	0	0	0	0	0	0	0	0	0	0	5	0
092712	12:18:54	10019	corsiblockFrFwrd	recallseqFrFwrd	9	5	827	0	118	12:18:54	1419431	5	0	0	0	0	0	0	0	0	0	0	0	0	0	0	5	0
092712	12:18:54	10019	corsiblockFrFwrd	recallseqFrFwrd	9	8	600	0	118	12:18:54	1420071	5	0	0	0	0	0	0	0	0	0	0	0	0	0	0	5	0
092712	12:18:54	10019	corsiblockFrFwrd	recallseqFrFwrd	9	1	721	0	118	12:18:54	1420831	5	0	0	0	0	0	0	0	0	0	0	0	0	0	0	5	0
092712	12:18:54	10019	corsiblockFrFwrd	recallseqFrFwrd	9	3	545	0	118	12:18:54	1421417	5	0	0	0	0	0	0	0	0	0	0	0	0	0	0	5	0
092712	12:18:54	10019	corsiblockFrFwrd	recallseqFrFwrd	9	2	518	0	118	12:18:54	1421977	5	0	0	0	0	0	0	0	0	0	0	0	0	0	0	5	0
092712	12:18:54	10019	corsiblockFrFwrd	recallseqFrFwrd	9	doneCorsiFr	1480	0	118	12:18:54	1423496	5	0	0	0	0	0	0	0	0	0	0	0	0	0	0	6	0
092712	12:18:54	10019	corsiblockFrFwrd	recallseqFrFwrd	9	6	1790	0	118	12:18:54	1435372	5	0	0	0	0	0	0	0	0	0	0	0	0	0	0	6	0
092712	12:18:54	10019	corsiblockFrFwrd	recallseqFrFwrd	9	1	2252	0	118	12:18:54	1437664	5	0	0	0	0	0	0	0	0	0	0	0	0	0	0	6	0
092712	12:18:54	10019	corsiblockFrFwrd	recallseqFrFwrd	9	4	952	0	118	12:18:54	1438650	5	0	0	0	0	0	0	0	0	0	0	0	0	0	0	6	0
092712	12:18:54	10019	corsiblockFrFwrd	recallseqFrFwrd	9	7	1661	0	118	12:18:54	1440356	5	0	0	0	0	0	0	0	0	0	0	0	0	0	0	6	0
092712	12:18:54	10019	corsiblockFrFwrd	recallseqFrFwrd	9	9	803	0	118	12:18:54	1441196	5	0	0	0	0	0	0	0	0	0	0	0	0	0	0	6	0
092712	12:18:54	10019	corsiblockFrFwrd	recallseqFrFwrd	9	8	588	0	118	12:18:54	1441822	5	0	0	0	0	0	0	0	0	0	0	0	0	0	0	6	0
092712	12:18:54	10019	corsiblockFrFwrd	recallseqFrFwrd	9	doneCorsiFr	905	0	118	12:18:54	1442769	5	0	0	0	0	0	0	0	0	0	0	0	0	0	0	6	0
092712	12:18:54	10019	corsiblockFrFwrd	recallseqFrFwrd	9	7	797	0	118	12:18:54	1453618	5	0	0	0	0	0	0	0	0	0	0	0	0	0	0	6	0
092712	12:18:54	10019	corsiblockFrFwrd	recallseqFrFwrd	9	6	806	0	118	12:18:54	1454457	5	0	0	0	0	0	0	0	0	0	0	0	0	0	0	6	0
092712	12:18:54	10019	corsiblockFrFwrd	recallseqFrFwrd	9	2	734	0	118	12:18:54	1455230	5	0	0	0	0	0	0	0	0	0	0	0	0	0	0	6	0
092712	12:18:54	10019	corsiblockFrFwrd	recallseqFrFwrd	9	1	817	0	118	12:18:54	1456083	5	0	0	0	0	0	0	0	0	0	0	0	0	0	0	6	0
092712	12:18:54	10019	corsiblockFrFwrd	recallseqFrFwrd	9	9	956	0	118	12:18:54	1457083	5	0	0	0	0	0	0	0	0	0	0	0	0	0	0	6	0
092712	12:18:54	10019	corsiblockFrFwrd	recallseqFrFwrd	9	8	636	0	118	12:18:54	1457763	5	0	0	0	0	0	0	0	0	0	0	0	0	0	0	6	0
092712	12:18:54	10019	corsiblockFrFwrd	recallseqFrFwrd	9	5	2732	0	118	12:18:54	1460535	5	0	0	0	0	0	0	0	0	0	0	0	0	0	0	6	0
092712	12:18:54	10019	corsiblockFrFwrd	recallseqFrFwrd	9	doneCorsiFr	1201	0	118	12:18:54	1461775	5	0	0	0	0	0	0	0	0	0	0	0	0	0	0	6	0
092712	12:18:54	10019	corsiblockFrRev	recallseqFrRev	10	9	2908	0	118	12:18:54	1480860	5	0	0	0	0	0	0	0	0	0	0	0	0	0	0	6	0
092712	12:18:54	10019	corsiblockFrRev	recallseqFrRev	10	5	851	0	118	12:18:54	1481753	5	0	0	0	0	0	0	0	0	0	0	0	0	0	0	6	0
092712	12:18:54	10019	corsiblockFrRev	recallseqFrRev	10	doneCorsiFr	941	0	118	12:18:54	1482739	5	0	0	0	0	0	0	0	0	0	0	0	0	0	0	6	2
092712	12:18:54	10019	corsiblockFrRev	recallseqFrRev	10	2	927	0	118	12:18:54	1489763	5	0	0	0	0	0	0	0	0	0	0	0	0	0	0	6	2
092712	12:18:54	10019	corsiblockFrRev	recallseqFrRev	10	6	699	0	118	12:18:54	1490496	5	0	0	0	0	0	0	0	0	0	0	0	0	0	0	6	2
092712	12:18:54	10019	corsiblockFrRev	recallseqFrRev	10	1	759	0	118	12:18:54	1491296	5	0	0	0	0	0	0	0	0	0	0	0	0	0	0	6	2
092712	12:18:54	10019	corsiblockFrRev	recallseqFrRev	10	doneCorsiFr	791	0	118	12:18:54	1492122	5	0	0	0	0	0	0	0	0	0	0	0	0	0	0	6	3
092712	12:18:54	10019	corsiblockFrRev	recallseqFrRev	10	3	1137	0	118	12:18:54	1500345	5	0	0	0	0	0	0	0	0	0	0	0	0	0	0	6	3
092712	12:18:54	10019	corsiblockFrRev	recallseqFrRev	10	8	893	0	118	12:18:54	1501278	5	0	0	0	0	0	0	0	0	0	0	0	0	0	0	6	3
092712	12:18:54	10019	corsiblockFrRev	recallseqFrRev	10	7	584	0	118	12:18:54	1501905	5	0	0	0	0	0	0	0	0	0	0	0	0	0	0	6	3
092712	12:18:54	10019	corsiblockFrRev	recallseqFrRev	10	4	533	0	118	12:18:54	1502478	5	0	0	0	0	0	0	0	0	0	0	0	0	0	0	6	3
092712	12:18:54	10019	corsiblockFrRev	recallseqFrRev	10	doneCorsiFr	960	0	118	12:18:54	1503477	5	0	0	0	0	0	0	0	0	0	0	0	0	0	0	6	4
092712	12:18:54	10019	corsiblockFrRev	recallseqFrRev	10	7	1006	0	118	12:18:54	1512567	5	0	0	0	0	0	0	0	0	0	0	0	0	0	0	6	4
092712	12:18:54	10019	corsiblockFrRev	recallseqFrRev	10	9	607	0	118	12:18:54	1513207	5	0	0	0	0	0	0	0	0	0	0	0	0	0	0	6	4
092712	12:18:54	10019	corsiblockFrRev	recallseqFrRev	10	5	695	0	118	12:18:54	1513940	5	0	0	0	0	0	0	0	0	0	0	0	0	0	0	6	4
092712	12:18:54	10019	corsiblockFrRev	recallseqFrRev	10	3	754	0	118	12:18:54	1514740	5	0	0	0	0	0	0	0	0	0	0	0	0	0	0	6	4
092712	12:18:54	10019	corsiblockFrRev	recallseqFrRev	10	2	721	0	118	12:18:54	1515499	5	0	0	0	0	0	0	0	0	0	0	0	0	0	0	6	4
092712	12:18:54	10019	corsiblockFrRev	recallseqFrRev	10	doneCorsiFr	659	0	118	12:18:54	1516192	5	0	0	0	0	0	0	0	0	0	0	0	0	0	0	6	5
092712	12:18:54	10019	corsiblockFrRev	recallseqFrRev	10	4	3387	0	118	12:18:54	1528667	5	0	0	0	0	0	0	0	0	0	0	0	0	0	0	6	5
092712	12:18:54	10019	corsiblockFrRev	recallseqFrRev	10	3	1745	0	118	12:18:54	1530453	5	0	0	0	0	0	0	0	0	0	0	0	0	0	0	6	5
092712	12:18:54	10019	corsiblockFrRev	recallseqFrRev	10	6	744	0	118	12:18:54	1531240	5	0	0	0	0	0	0	0	0	0	0	0	0	0	0	6	5
092712	12:18:54	10019	corsiblockFrRev	recallseqFrRev	10	1	934	0	118	12:18:54	1532213	5	0	0	0	0	0	0	0	0	0	0	0	0	0	0	6	5
092712	12:18:54	10019	corsiblockFrRev	recallseqFrRev	10	4	1649	0	118	12:18:54	1533905	5	0	0	0	0	0	0	0	0	0	0	0	0	0	0	6	5
092712	12:18:54	10019	corsiblockFrRev	recallseqFrRev	10	8	739	0	118	12:18:54	1534678	5	0	0	0	0	0	0	0	0	0	0	0	0	0	0	6	5
092712	12:18:54	10019	corsiblockFrRev	recallseqFrRev	10	doneCorsiFr	919	0	118	12:18:54	1535638	5	0	0	0	0	0	0	0	0	0	0	0	0	0	0	6	6
092712	12:18:54	10019	corsiblockFrRev	recallseqFrRev	10	5	1214	0	118	12:18:54	1546940	5	0	0	0	0	0	0	0	0	0	0	0	0	0	0	6	6
092712	12:18:54	10019	corsiblockFrRev	recallseqFrRev	10	9	1257	0	118	12:18:54	1548233	5	0	0	0	0	0	0	0	0	0	0	0	0	0	0	6	6
092712	12:18:54	10019	corsiblockFrRev	recallseqFrRev	10	8	804	0	118	12:18:54	1549072	5	0	0	0	0	0	0	0	0	0	0	0	0	0	0	6	6
092712	12:18:54	10019	corsiblockFrRev	recallseqFrRev	10	1	709	0	118	12:18:54	1549819	5	0	0	0	0	0	0	0	0	0	0	0	0	0	0	6	6
092712	12:18:54	10019	corsiblockFrRev	recallseqFrRev	10	3	746	0	118	12:18:54	1550605	5	0	0	0	0	0	0	0	0	0	0	0	0	0	0	6	6
092712	12:18:54	10019	corsiblockFrRev	recallseqFrRev	10	7	1240	0	118	12:18:54	1551885	5	0	0	0	0	0	0	0	0	0	0	0	0	0	0	6	6
092712	12:18:54	10019	corsiblockFrRev	recallseqFrRev	10	2	1824	0	118	12:18:54	1553751	5	0	0	0	0	0	0	0	0	0	0	0	0	0	0	6	6
092712	12:18:54	10019	corsiblockFrRev	recallseqFrRev	10	doneCorsiFr	1126	0	118	12:18:54	1554910	5	0	0	0	0	0	0	0	0	0	0	0	0	0	0	6	6
092712	12:18:54	10019	corsiblockFrRev	recallseqFrRev	10	5	845	0	118	12:18:54	1565799	5	0	0	0	0	0	0	0	0	0	0	0	0	0	0	6	6
092712	12:18:54	10019	corsiblockFrRev	recallseqFrRev	10	4	646	0	118	12:18:54	1566479	5	0	0	0	0	0	0	0	0	0	0	0	0	0	0	6	6
092712	12:18:54	10019	corsiblockFrRev	recallseqFrRev	10	3	750	0	118	12:18:54	1567265	5	0	0	0	0	0	0	0	0	0	0	0	0	0	0	6	6
092712	12:18:54	10019	corsiblockFrRev	recallseqFrRev	10	7	596	0	118	12:18:54	1567905	5	0	0	0	0	0	0	0	0	0	0	0	0	0	0	6	6
092712	12:18:54	10019	corsiblockFrRev	recallseqFrRev	10	2	428	0	118	12:18:54	1568371	5	0	0	0	0	0	0	0	0	0	0	0	0	0	0	6	6
092712	12:18:54	10019	corsiblockFrRev	recallseqFrRev	10	1	561	0	118	12:18:54	1568971	5	0	0	0	0	0	0	0	0	0	0	0	0	0	0	6	6
092712	12:18:54	10019	corsiblockFrRev	recallseqFrRev	10	9	689	0	118	12:18:54	1569704	5	0	0	0	0	0	0	0	0	0	0	0	0	0	0	6	6
092712	12:18:54	10019	corsiblockFrRev	recallseqFrRev	10	doneCorsiFr	1164	0	118	12:18:54	1570904	5	0	0	0	0	0	0	0	0	0	0	0	0	0	0	6	6
092712	12:18:54	10019	testFr3mo	WordsFr3mo	11	1Fr3mo	663	0	118	12:18:54	1599679	5	1	0	0	0	0	0	0	0	0	0	0	0	0	0	6	6
092712	12:18:54	10019	testFr3mo	WordsFr3mo	11	2Fr3mo	270	0	118	12:18:54	1599985	5	1	1	0	0	0	0	0	0	0	0	0	0	0	0	6	6
092712	12:18:54	10019	testFr3mo	WordsFr3mo	11	3Fr3mo	299	0	118	12:18:54	1600319	5	1	1	1	0	0	0	0	0	0	0	0	0	0	0	6	6
092712	12:18:54	10019	testFr3mo	WordsFr3mo	11	4Fr3mo	262	0	118	12:18:54	1600625	5	1	1	1	1	0	0	0	0	0	0	0	0	0	0	6	6
092712	12:18:54	10019	testFr3mo	WordsFr3mo	11	5Fr3mo	259	0	118	12:18:54	1600918	5	1	1	1	1	1	0	0	0	0	0	0	0	0	0	6	6
092712	12:18:54	10019	testFr3mo	WordsFr3mo	11	7Fr3mo	782	0	118	12:18:54	1601745	5	1	1	1	1	1	0	1	0	0	0	0	0	0	0	6	6
092712	12:18:54	10019	testFr3mo	WordsFr3mo	11	6Fr3mo	180	0	118	12:18:54	1601971	5	1	1	1	1	1	1	1	0	0	0	0	0	0	0	6	6
092712	12:18:54	10019	testFr3mo	WordsFr3mo	11	DoneFr3mo	25312	0	118	12:18:54	1627321	5	1	1	1	1	1	1	1	0	0	0	0	0	0	0	6	6
092712	12:18:54	10019	testFr3mo	Cat8Fr3mo	11	R8Fr3mo	5432	0	118	12:18:54	1632811	5	1	1	1	1	1	1	1	2	0	0	0	0	0	0	6	6
092712	12:18:54	10019	DigitSpanFwrdFr3mo	Score1FwrdFr3mo	12	DS1	3701	0	118	12:18:54	1656175	5	1	1	1	1	1	1	1	2	0	0	0	0	0	0	6	6
092712	12:18:54	10019	DigitSpanFwrdFr3mo	Gate1FwrdFr3mo	12	0	1	0	118	12:18:54	1656191	5	1	1	1	1	1	1	1	2	3	0	0	0	0	0	6	6
092712	12:18:54	10019	DigitSpanFwrdFr3mo	Score2FwrdFr3mo	12	DS1	3569	0	118	12:18:54	1665478	5	1	1	1	1	1	1	1	2	3	0	0	0	0	0	6	6
092712	12:18:54	10019	DigitSpanFwrdFr3mo	Gate3FwrdFr3mo	12	0	1	0	118	12:18:54	1665494	5	1	1	1	1	1	1	1	2	4	0	0	0	0	0	6	6
092712	12:18:54	10019	DigitSpanFwrdFr3mo	Score3FwrdFr3mo	12	DS1	3136	0	118	12:18:54	1675888	5	1	1	1	1	1	1	1	2	4	0	0	0	0	0	6	6
092712	12:18:54	10019	DigitSpanFwrdFr3mo	Gate5FwrdFr3mo	12	0	1	0	118	12:18:54	1675903	5	1	1	1	1	1	1	1	2	5	0	0	0	0	0	6	6
092712	12:18:54	10019	DigitSpanFwrdFr3mo	Score4FwrdFr3mo	12	DS2	11612	0	118	12:18:54	1696039	5	1	1	1	1	1	1	1	2	5	0	0	0	0	0	6	6
092712	12:18:54	10019	DigitSpanFwrdFr3mo	Gate7FwrdFr3mo	12	0	1	0	118	12:18:54	1696055	5	1	1	1	1	1	1	1	2	5	0	0	0	0	0	6	6
092712	12:18:54	10019	DigitSpanFwrdFr3mo	Score44FwrdFr3mo	12	DS1	6166	0	118	12:18:54	1710553	5	1	1	1	1	1	1	1	2	5	0	0	0	0	0	6	6
092712	12:18:54	10019	DigitSpanFwrdFr3mo	Gate8FwrdFr3mo	12	0	1	0	118	12:18:54	1710569	5	1	1	1	1	1	1	1	2	6	0	0	0	0	0	6	6
092712	12:18:54	10019	DigitSpanFwrdFr3mo	Score5FwrdFr3mo	12	DS2	9156	0	118	12:18:54	1731825	5	1	1	1	1	1	1	1	2	6	0	0	0	0	0	6	6
092712	12:18:54	10019	DigitSpanFwrdFr3mo	Gate9FwrdFr3mo	12	0	1	0	118	12:18:54	1731841	5	1	1	1	1	1	1	1	2	6	0	0	0	0	0	6	6
092712	12:18:54	10019	DigitSpanFwrdFr3mo	Score55FwrdFr3mo	12	DS2	8806	0	118	12:18:54	1753509	5	1	1	1	1	1	1	1	2	6	0	0	0	0	0	6	6
092712	12:18:54	10019	DigitSpanFr3mo	Score1Fr3mo	13	DS1	3143	0	118	12:18:54	1772475	5	1	1	1	1	1	1	1	2	6	0	0	0	0	0	6	6
092712	12:18:54	10019	DigitSpanFr3mo	Gate1Fr3mo	13	0	1	0	118	12:18:54	1772490	5	1	1	1	1	1	1	1	2	6	2	0	0	0	0	6	6
092712	12:18:54	10019	DigitSpanFr3mo	Score2Fr3mo	13	DS1	4452	0	118	12:18:54	1781511	5	1	1	1	1	1	1	1	2	6	2	0	0	0	0	6	6
092712	12:18:54	10019	DigitSpanFr3mo	Gate3Fr3mo	13	0	1	0	118	12:18:54	1781527	5	1	1	1	1	1	1	1	2	6	3	0	0	0	0	6	6
092712	12:18:54	10019	DigitSpanFr3mo	Score3Fr3mo	13	DS2	7293	0	118	12:18:54	1794533	5	1	1	1	1	1	1	1	2	6	3	0	0	0	0	6	6
092712	12:18:54	10019	DigitSpanFr3mo	Gate5Fr3mo	13	0	1	0	118	12:18:54	1794548	5	1	1	1	1	1	1	1	2	6	3	0	0	0	0	6	6
092712	12:18:54	10019	DigitSpanFr3mo	Score33Fr3mo	13	DS1	4219	0	118	12:18:54	1804849	5	1	1	1	1	1	1	1	2	6	3	0	0	0	0	6	6
092712	12:18:54	10019	DigitSpanFr3mo	Gate6Fr3mo	13	0	1	0	118	12:18:54	1804864	5	1	1	1	1	1	1	1	2	6	4	0	0	0	0	6	6
092712	12:18:54	10019	DigitSpanFr3mo	Score4Fr3mo	13	DS2	10516	0	118	12:18:54	1822655	5	1	1	1	1	1	1	1	2	6	4	0	0	0	0	6	6
092712	12:18:54	10019	DigitSpanFr3mo	Gate7Fr3mo	13	0	1	0	118	12:18:54	1822670	5	1	1	1	1	1	1	1	2	6	4	0	0	0	0	6	6
092712	12:18:54	10019	DigitSpanFr3mo	Score44Fr3mo	13	DS1	14739	0	118	12:18:54	1844632	5	1	1	1	1	1	1	1	2	6	4	0	0	0	0	6	6
092712	12:18:54	10019	DigitSpanFr3mo	Gate8Fr3mo	13	0	1	0	118	12:18:54	1844648	5	1	1	1	1	1	1	1	2	6	5	0	0	0	0	6	6
092712	12:18:54	10019	DigitSpanFr3mo	Score5Fr3mo	13	DS2	11993	0	118	12:18:54	1865184	5	1	1	1	1	1	1	1	2	6	5	0	0	0	0	6	6
092712	12:18:54	10019	DigitSpanFr3mo	Gate9Fr3mo	13	0	1	0	118	12:18:54	1865200	5	1	1	1	1	1	1	1	2	6	5	0	0	0	0	6	6
092712	12:18:54	10019	DigitSpanFr3mo	Score55Fr3mo	13	DS2	19177	0	118	12:18:54	1892720	5	1	1	1	1	1	1	1	2	6	5	0	0	0	0	6	6
092712	12:18:54	10019	Trial	ResponseIL	14	0	162	0	118	12:18:54	1943286	5	1	1	1	1	1	1	1	2	6	5	0	0	0	0	6	6
092712	12:18:54	10019	Trial	IncongruentLeft	14	203	477	1	118	12:18:54	1943789	5	1	1	1	1	1	1	1	2	6	5	0	0	0	0	6	6
092712	12:18:54	10019	Trial	ResponseCR	14	0	162	0	118	12:18:54	1944978	5	1	1	1	1	1	1	1	2	6	5	0	0	0	0	6	6
092712	12:18:54	10019	Trial	CongruentRight	14	205	320	1	118	12:18:54	1945325	5	1	1	1	1	1	1	1	2	6	5	0	0	0	0	6	6
092712	12:18:54	10019	Trial	ResponseIR	14	0	162	0	118	12:18:54	1946671	5	1	1	1	1	1	1	1	2	6	5	0	0	0	0	6	6
092712	12:18:54	10019	Trial	IncongruentRight	14	205	483	1	118	12:18:54	1947181	5	1	1	1	1	1	1	1	2	6	5	0	0	0	0	6	6
092712	12:18:54	10019	Trial	ResponseCL	14	0	162	0	118	12:18:54	1948364	5	1	1	1	1	1	1	1	2	6	5	0	0	0	0	6	6
092712	12:18:54	10019	Trial	CongruentLeft	14	203	359	1	118	12:18:54	1948749	5	1	1	1	1	1	1	1	2	6	5	0	0	0	0	6	6
092712	12:18:54	10019	Trial	ResponseCR	14	0	162	0	118	12:18:54	1950056	5	1	1	1	1	1	1	1	2	6	5	0	0	0	0	6	6
092712	12:18:54	10019	Trial	CongruentRight	14	205	250	1	118	12:18:54	1950333	5	1	1	1	1	1	1	1	2	6	5	0	0	0	0	6	6
092712	12:18:54	10019	Trial	ResponseIR	14	0	162	0	118	12:18:54	1951749	5	1	1	1	1	1	1	1	2	6	5	0	0	0	0	6	6
092712	12:18:54	10019	Trial	IncongruentRight	14	205	397	1	118	12:18:54	1952173	5	1	1	1	1	1	1	1	2	6	5	0	0	0	0	6	6
092712	12:18:54	10019	Trial	ResponseCL	14	0	162	0	118	12:18:54	1953442	5	1	1	1	1	1	1	1	2	6	5	0	0	0	0	6	6
092712	12:18:54	10019	Trial	CongruentLeft	14	203	305	1	118	12:18:54	1953773	5	1	1	1	1	1	1	1	2	6	5	0	0	0	0	6	6
092712	12:18:54	10019	Trial	ResponseIL	14	0	162	0	118	12:18:54	1955134	5	1	1	1	1	1	1	1	2	6	5	0	0	0	0	6	6
092712	12:18:54	10019	Trial	IncongruentLeft	14	203	436	1	118	12:18:54	1955597	5	1	1	1	1	1	1	1	2	6	5	0	0	0	0	6	6
092712	12:18:54	10019	Trial	ResponseIL	14	0	162	0	118	12:18:54	1956827	5	1	1	1	1	1	1	1	2	6	5	0	0	0	0	6	6
092712	12:18:54	10019	Trial	IncongruentLeft	14	203	359	1	118	12:18:54	1957213	5	1	1	1	1	1	1	1	2	6	5	0	0	0	0	6	6
092712	12:18:54	10019	Trial	ResponseCR	14	0	162	0	118	12:18:54	1958520	5	1	1	1	1	1	1	1	2	6	5	0	0	0	0	6	6
092712	12:18:54	10019	Trial	CongruentRight	14	205	251	1	118	12:18:54	1958797	5	1	1	1	1	1	1	1	2	6	5	0	0	0	0	6	6
092712	12:18:54	10019	Trial	ResponseIR	14	0	162	0	118	12:18:54	1960212	5	1	1	1	1	1	1	1	2	6	5	0	0	0	0	6	6
092712	12:18:54	10019	Trial	IncongruentRight	14	205	398	1	118	12:18:54	1960637	5	1	1	1	1	1	1	1	2	6	5	0	0	0	0	6	6
092712	12:18:54	10019	Trial	ResponseCL	14	0	162	0	118	12:18:54	1961905	5	1	1	1	1	1	1	1	2	6	5	0	0	0	0	6	6
092712	12:18:54	10019	Trial	CongruentLeft	14	203	289	1	118	12:18:54	1962221	5	1	1	1	1	1	1	1	2	6	5	0	0	0	0	6	6
092712	12:18:54	10019	Trial	ResponseCR	14	0	162	0	118	12:18:54	1963611	5	1	1	1	1	1	1	1	2	6	5	0	0	0	0	6	6
092712	12:18:54	10019	Trial	CongruentRight	14	205	311	1	118	12:18:54	1963949	5	1	1	1	1	1	1	1	2	6	5	0	0	0	0	6	6
092712	12:18:54	10019	Trial	ResponseIL	14	0	162	0	118	12:18:54	1965317	5	1	1	1	1	1	1	1	2	6	5	0	0	0	0	6	6
092712	12:18:54	10019	Trial	IncongruentLeft	14	205	317	0	118	12:18:54	1965661	5	1	1	1	1	1	1	1	2	6	5	0	0	0	0	6	6
092712	12:18:54	10019	Trial	ResponseIR	14	0	162	0	118	12:18:54	1967010	5	1	1	1	1	1	1	1	2	6	5	0	0	0	0	6	6
092712	12:18:54	10019	Trial	IncongruentRight	14	205	544	1	118	12:18:54	1967581	5	1	1	1	1	1	1	1	2	6	5	0	0	0	0	6	6
092712	12:18:54	10019	Trial	ResponseCR	14	0	162	0	118	12:18:54	1968702	5	1	1	1	1	1	1	1	2	6	5	0	0	0	0	6	6
092712	12:18:54	10019	Trial	CongruentRight	14	205	452	1	118	12:18:54	1969181	5	1	1	1	1	1	1	1	2	6	5	0	0	0	0	6	6
092712	12:18:54	10019	Trial	ResponseCL	14	0	162	0	118	12:18:54	1970395	5	1	1	1	1	1	1	1	2	6	5	0	0	0	0	6	6
092712	12:18:54	10019	Trial	CongruentLeft	14	203	279	1	118	12:18:54	1970701	5	1	1	1	1	1	1	1	2	6	5	0	0	0	0	6	6
092712	12:18:54	10019	Trial	ResponseCR	14	0	162	0	118	12:18:54	1972088	5	1	1	1	1	1	1	1	2	6	5	0	0	0	0	6	6
092712	12:18:54	10019	Trial	CongruentRight	14	205	410	1	118	12:18:54	1972525	5	1	1	1	1	1	1	1	2	6	5	0	0	0	0	6	6
092712	12:18:54	10019	Trial	ResponseIR	14	0	162	0	118	12:18:54	1973780	5	1	1	1	1	1	1	1	2	6	5	0	0	0	0	6	6
092712	12:18:54	10019	Trial	IncongruentRight	14	205	542	1	118	12:18:54	1974349	5	1	1	1	1	1	1	1	2	6	5	0	0	0	0	6	6
092712	12:18:54	10019	Trial	ResponseIL	14	0	162	0	118	12:18:54	1975473	5	1	1	1	1	1	1	1	2	6	5	0	0	0	0	6	6
092712	12:18:54	10019	Trial	IncongruentLeft	14	203	497	1	118	12:18:54	1975997	5	1	1	1	1	1	1	1	2	6	5	0	0	0	0	6	6
092712	12:18:54	10019	Trial	ResponseIL	14	0	162	0	118	12:18:54	1977166	5	1	1	1	1	1	1	1	2	6	5	0	0	0	0	6	6
092712	12:18:54	10019	Trial	IncongruentLeft	14	203	372	1	118	12:18:54	1977565	5	1	1	1	1	1	1	1	2	6	5	0	0	0	0	6	6
092712	12:18:54	10019	Trial	ResponseCL	14	0	162	0	118	12:18:54	1978872	5	1	1	1	1	1	1	1	2	6	5	0	0	0	0	6	6
092712	12:18:54	10019	Trial	CongruentLeft	14	203	250	1	118	12:18:54	1979148	5	1	1	1	1	1	1	1	2	6	5	0	0	0	0	6	6
092712	12:18:54	10019	Trial	ResponseCR	14	0	162	0	118	12:18:54	1980564	5	1	1	1	1	1	1	1	2	6	5	0	0	0	0	6	6
092712	12:18:54	10019	Trial	CongruentRight	14	205	318	1	118	12:18:54	1980908	5	1	1	1	1	1	1	1	2	6	5	0	0	0	0	6	6
092712	12:18:54	10019	Trial	ResponseIL	14	0	162	0	118	12:18:54	1982257	5	1	1	1	1	1	1	1	2	6	5	0	0	0	0	6	6
092712	12:18:54	10019	Trial	IncongruentLeft	14	203	257	1	118	12:18:54	1982540	5	1	1	1	1	1	1	1	2	6	5	0	0	0	0	6	6
092712	12:18:54	10019	Trial	ResponseIR	14	0	162	0	118	12:18:54	1983949	5	1	1	1	1	1	1	1	2	6	5	0	0	0	0	6	6
092712	12:18:54	10019	Trial	IncongruentRight	14	205	468	1	118	12:18:54	1984444	5	1	1	1	1	1	1	1	2	6	5	0	0	0	0	6	6
092712	12:18:54	10019	Trial	ResponseCR	14	0	162	0	118	12:18:54	1985642	5	1	1	1	1	1	1	1	2	6	5	0	0	0	0	6	6
092712	12:18:54	10019	Trial	CongruentRight	14	205	328	1	118	12:18:54	1985996	5	1	1	1	1	1	1	1	2	6	5	0	0	0	0	6	6
092712	12:18:54	10019	Trial	ResponseCL	14	0	162	0	118	12:18:54	1987335	5	1	1	1	1	1	1	1	2	6	5	0	0	0	0	6	6
092712	12:18:54	10019	Trial	CongruentLeft	14	203	411	1	118	12:18:54	1987772	5	1	1	1	1	1	1	1	2	6	5	0	0	0	0	6	6
092712	12:18:54	10019	Trial	ResponseIR	14	0	162	0	118	12:18:54	1989027	5	1	1	1	1	1	1	1	2	6	5	0	0	0	0	6	6
092712	12:18:54	10019	Trial	IncongruentRight	14	205	414	1	118	12:18:54	1989468	5	1	1	1	1	1	1	1	2	6	5	0	0	0	0	6	6
092712	12:18:54	10019	Trial	ResponseIL	14	0	162	0	118	12:18:54	1990734	5	1	1	1	1	1	1	1	2	6	5	0	0	0	0	6	6
092712	12:18:54	10019	Trial	IncongruentLeft	14	205	324	0	118	12:18:54	1991084	5	1	1	1	1	1	1	1	2	6	5	0	0	0	0	6	6
092712	12:18:54	10019	Trial	ResponseIR	14	0	162	0	118	12:18:54	1992426	5	1	1	1	1	1	1	1	2	6	5	0	0	0	0	6	6
092712	12:18:54	10019	Trial	IncongruentRight	14	205	328	1	118	12:18:54	1992780	5	1	1	1	1	1	1	1	2	6	5	0	0	0	0	6	6
092712	12:18:54	10019	Trial	ResponseCR	14	0	162	0	118	12:18:54	1994119	5	1	1	1	1	1	1	1	2	6	5	0	0	0	0	6	6
092712	12:18:54	10019	Trial	CongruentRight	14	205	315	1	118	12:18:54	1994460	5	1	1	1	1	1	1	1	2	6	5	0	0	0	0	6	6
092712	12:18:54	10019	Trial	ResponseIL	14	0	162	0	118	12:18:54	1995811	5	1	1	1	1	1	1	1	2	6	5	0	0	0	0	6	6
092712	12:18:54	10019	Trial	IncongruentLeft	14	203	302	1	118	12:18:54	1996140	5	1	1	1	1	1	1	1	2	6	5	0	0	0	0	6	6
092712	12:18:54	10019	Trial	ResponseCL	14	0	162	0	118	12:18:54	1997504	5	1	1	1	1	1	1	1	2	6	5	0	0	0	0	6	6
092712	12:18:54	10019	Trial	CongruentLeft	14	203	289	1	118	12:18:54	1997820	5	1	1	1	1	1	1	1	2	6	5	0	0	0	0	6	6
092712	12:18:54	10019	Trial	ResponseCR	14	0	162	0	118	12:18:54	1999197	5	1	1	1	1	1	1	1	2	6	5	0	0	0	0	6	6
092712	12:18:54	10019	Trial	CongruentRight	14	205	293	1	118	12:18:54	1999516	5	1	1	1	1	1	1	1	2	6	5	0	0	0	0	6	6
092712	12:18:54	10019	Trial	ResponseIL	14	0	162	0	118	12:18:54	2000889	5	1	1	1	1	1	1	1	2	6	5	0	0	0	0	6	6
092712	12:18:54	10019	Trial	IncongruentLeft	14	203	488	1	118	12:18:54	2001404	5	1	1	1	1	1	1	1	2	6	5	0	0	0	0	6	6
092712	12:18:54	10019	Trial	ResponseIR	14	0	162	0	118	12:18:54	2002582	5	1	1	1	1	1	1	1	2	6	5	0	0	0	0	6	6
092712	12:18:54	10019	Trial	IncongruentRight	14	205	395	1	118	12:18:54	2003004	5	1	1	1	1	1	1	1	2	6	5	0	0	0	0	6	6
092712	12:18:54	10019	Trial	ResponseIR	14	0	162	0	118	12:18:54	2004275	5	1	1	1	1	1	1	1	2	6	5	0	0	0	0	6	6
092712	12:18:54	10019	Trial	IncongruentRight	14	205	479	1	118	12:18:54	2004780	5	1	1	1	1	1	1	1	2	6	5	0	0	0	0	6	6
092712	12:18:54	10019	Trial	ResponseCL	14	0	162	0	118	12:18:54	2005967	5	1	1	1	1	1	1	1	2	6	5	0	0	0	0	6	6
092712	12:18:54	10019	Trial	CongruentLeft	14	203	306	1	118	12:18:54	2006300	5	1	1	1	1	1	1	1	2	6	5	0	0	0	0	6	6
092712	12:18:54	10019	Trial	ResponseIL	14	0	162	0	118	12:18:54	2007673	5	1	1	1	1	1	1	1	2	6	5	0	0	0	0	6	6
092712	12:18:54	10019	Trial	IncongruentLeft	14	203	312	1	118	12:18:54	2008012	5	1	1	1	1	1	1	1	2	6	5	0	0	0	0	6	6
092712	12:18:54	10019	Trial	ResponseCR	14	0	162	0	118	12:18:54	2009366	5	1	1	1	1	1	1	1	2	6	5	0	0	0	0	6	6
092712	12:18:54	10019	Trial	CongruentRight	14	205	283	1	118	12:18:54	2009676	5	1	1	1	1	1	1	1	2	6	5	0	0	0	0	6	6
092712	12:18:54	10019	Trial	ResponseCL	14	0	162	0	118	12:18:54	2011059	5	1	1	1	1	1	1	1	2	6	5	0	0	0	0	6	6
092712	12:18:54	10019	Trial	CongruentLeft	14	203	287	1	118	12:18:54	2011372	5	1	1	1	1	1	1	1	2	6	5	0	0	0	0	6	6
092712	12:18:54	10019	Trial	ResponseIR	14	0	162	0	118	12:18:54	2012751	5	1	1	1	1	1	1	1	2	6	5	0	0	0	0	6	6
092712	12:18:54	10019	Trial	IncongruentRight	14	205	466	1	118	12:18:54	2013244	5	1	1	1	1	1	1	1	2	6	5	0	0	0	0	6	6
092712	12:18:54	10019	Trial	ResponseCR	14	0	162	0	118	12:18:54	2014444	5	1	1	1	1	1	1	1	2	6	5	0	0	0	0	6	6
092712	12:18:54	10019	Trial	CongruentRight	14	205	325	1	118	12:18:54	2014796	5	1	1	1	1	1	1	1	2	6	5	0	0	0	0	6	6
092712	12:18:54	10019	Trial	ResponseIL	14	0	162	0	118	12:18:54	2016150	5	1	1	1	1	1	1	1	2	6	5	0	0	0	0	6	6
092712	12:18:54	10019	Trial	IncongruentLeft	14	203	331	1	118	12:18:54	2016508	5	1	1	1	1	1	1	1	2	6	5	0	0	0	0	6	6
092712	12:18:54	10019	Trial	ResponseCL	14	0	162	0	118	12:18:54	2017843	5	1	1	1	1	1	1	1	2	6	5	0	0	0	0	6	6
092712	12:18:54	10019	Trial	CongruentLeft	14	203	254	1	118	12:18:54	2018124	5	1	1	1	1	1	1	1	2	6	5	0	0	0	0	6	6
092712	12:18:54	10019	Trial	ResponseIL	14	0	162	0	118	12:18:54	2019535	5	1	1	1	1	1	1	1	2	6	5	0	0	0	0	6	6
092712	12:18:54	10019	Trial	IncongruentLeft	14	203	402	1	118	12:18:54	2019964	5	1	1	1	1	1	1	1	2	6	5	0	0	0	0	6	6
092712	12:18:54	10019	Trial	ResponseIR	14	0	162	0	118	12:18:54	2021228	5	1	1	1	1	1	1	1	2	6	5	0	0	0	0	6	6
092712	12:18:54	10019	Trial	IncongruentRight	14	205	501	1	118	12:18:54	2021756	5	1	1	1	1	1	1	1	2	6	5	0	0	0	0	6	6
092712	12:18:54	10019	Trial	ResponseCR	14	0	162	0	118	12:18:54	2022920	5	1	1	1	1	1	1	1	2	6	5	0	0	0	0	6	6
092712	12:18:54	10019	Trial	CongruentRight	14	205	392	1	118	12:18:54	2023340	5	1	1	1	1	1	1	1	2	6	5	0	0	0	0	6	6
092712	12:18:54	10019	Trial	ResponseCL	14	0	162	0	118	12:18:54	2024613	5	1	1	1	1	1	1	1	2	6	5	0	0	0	0	6	6
092712	12:18:54	10019	Trial	CongruentLeft	14	203	284	1	118	12:18:54	2024924	5	1	1	1	1	1	1	1	2	6	5	0	0	0	0	6	6
092712	12:18:54	10019	Trial	ResponseCL	14	0	162	0	118	12:18:54	2026306	5	1	1	1	1	1	1	1	2	6	5	0	0	0	0	6	6
092712	12:18:54	10019	Trial	CongruentLeft	14	203	270	1	118	12:18:54	2026603	5	1	1	1	1	1	1	1	2	6	5	0	0	0	0	6	6
092712	12:18:54	10019	Trial	ResponseIR	14	0	162	0	118	12:18:54	2028012	5	1	1	1	1	1	1	1	2	6	5	0	0	0	0	6	6
092712	12:18:54	10019	Trial	IncongruentRight	14	205	336	1	118	12:18:54	2028427	5	1	1	1	1	1	1	1	2	6	5	0	0	0	0	6	6
092712	12:18:54	10019	Trial	ResponseIL	14	0	162	0	118	12:18:54	2029758	5	1	1	1	1	1	1	1	2	6	5	0	0	0	0	6	6
092712	12:18:54	10019	Trial	IncongruentLeft	14	203	339	1	118	12:18:54	2030123	5	1	1	1	1	1	1	1	2	6	5	0	0	0	0	6	6
092712	12:18:54	10019	Trial	ResponseIR	14	0	162	0	118	12:18:54	2031451	5	1	1	1	1	1	1	1	2	6	5	0	0	0	0	6	6
092712	12:18:54	10019	Trial	IncongruentRight	14	205	358	1	118	12:18:54	2031836	5	1	1	1	1	1	1	1	2	6	5	0	0	0	0	6	6
092712	12:18:54	10019	Trial	ResponseCR	14	0	162	0	118	12:18:54	2033143	5	1	1	1	1	1	1	1	2	6	5	0	0	0	0	6	6
092712	12:18:54	10019	Trial	CongruentRight	14	205	282	1	118	12:18:54	2033451	5	1	1	1	1	1	1	1	2	6	5	0	0	0	0	6	6
092712	12:18:54	10019	Trial	ResponseCR	14	0	162	0	118	12:18:54	2034836	5	1	1	1	1	1	1	1	2	6	5	0	0	0	0	6	6
092712	12:18:54	10019	Trial	CongruentRight	14	205	221	1	118	12:18:54	2035083	5	1	1	1	1	1	1	1	2	6	5	0	0	0	0	6	6
092712	12:18:54	10019	Trial	ResponseIL	14	0	162	0	118	12:18:54	2036528	5	1	1	1	1	1	1	1	2	6	5	0	0	0	0	6	6
092712	12:18:54	10019	Trial	IncongruentLeft	14	203	352	1	118	12:18:54	2036907	5	1	1	1	1	1	1	1	2	6	5	0	0	0	0	6	6
092712	12:18:54	10019	Trial	ResponseCL	14	0	162	0	118	12:18:54	2038221	5	1	1	1	1	1	1	1	2	6	5	0	0	0	0	6	6
092712	12:18:54	10019	Trial	CongruentLeft	14	203	244	1	118	12:18:54	2038491	5	1	1	1	1	1	1	1	2	6	5	0	0	0	0	6	6
092712	12:18:54	10019	Trial	ResponseCR	14	0	162	0	118	12:18:54	2039914	5	1	1	1	1	1	1	1	2	6	5	0	0	0	0	6	6
092712	12:18:54	10019	Trial	CongruentRight	14	205	278	1	118	12:18:54	2040219	5	1	1	1	1	1	1	1	2	6	5	0	0	0	0	6	6
092712	12:18:54	10019	Trial	ResponseCL	14	0	162	0	118	12:18:54	2041620	5	1	1	1	1	1	1	1	2	6	5	0	0	0	0	6	6
092712	12:18:54	10019	Trial	CongruentLeft	14	203	253	1	118	12:18:54	2041899	5	1	1	1	1	1	1	1	2	6	5	0	0	0	0	6	6
092712	12:18:54	10019	Trial	ResponseIR	14	0	162	0	118	12:18:54	2043312	5	1	1	1	1	1	1	1	2	6	5	0	0	0	0	6	6
092712	12:18:54	10019	Trial	IncongruentRight	14	205	384	1	118	12:18:54	2043723	5	1	1	1	1	1	1	1	2	6	5	0	0	0	0	6	6
092712	12:18:54	10019	Trial	ResponseCR	14	0	162	0	118	12:18:54	2045005	5	1	1	1	1	1	1	1	2	6	5	0	0	0	0	6	6
092712	12:18:54	10019	Trial	CongruentRight	14	205	294	1	118	12:18:54	2045325	5	1	1	1	1	1	1	1	2	6	5	0	0	0	0	6	6
092712	12:18:54	10019	Trial	ResponseCL	14	0	162	0	118	12:18:54	2046698	5	1	1	1	1	1	1	1	2	6	5	0	0	0	0	6	6
092712	12:18:54	10019	Trial	CongruentLeft	14	203	311	1	118	12:18:54	2047035	5	1	1	1	1	1	1	1	2	6	5	0	0	0	0	6	6
092712	12:18:54	10019	Trial	ResponseIL	14	0	162	0	118	12:18:54	2048390	5	1	1	1	1	1	1	1	2	6	5	0	0	0	0	6	6
092712	12:18:54	10019	Trial	IncongruentLeft	14	203	330	1	118	12:18:54	2048747	5	1	1	1	1	1	1	1	2	6	5	0	0	0	0	6	6
092712	12:18:54	10019	Trial	ResponseIL	14	0	162	0	118	12:18:54	2050083	5	1	1	1	1	1	1	1	2	6	5	0	0	0	0	6	6
092712	12:18:54	10019	Trial	IncongruentLeft	14	203	398	1	118	12:18:54	2050507	5	1	1	1	1	1	1	1	2	6	5	0	0	0	0	6	6
092712	12:18:54	10019	Trial	ResponseCR	14	0	162	0	118	12:18:54	2051776	5	1	1	1	1	1	1	1	2	6	5	0	0	0	0	6	6
092712	12:18:54	10019	Trial	CongruentRight	14	205	225	1	118	12:18:54	2052027	5	1	1	1	1	1	1	1	2	6	5	0	0	0	0	6	6
092712	12:18:54	10019	Trial	ResponseIR	14	0	162	0	118	12:18:54	2053468	5	1	1	1	1	1	1	1	2	6	5	0	0	0	0	6	6
092712	12:18:54	10019	Trial	IncongruentRight	14	205	468	1	118	12:18:54	2053963	5	1	1	1	1	1	1	1	2	6	5	0	0	0	0	6	6
092712	12:18:54	10019	Trial	ResponseCL	14	0	162	0	118	12:18:54	2055161	5	1	1	1	1	1	1	1	2	6	5	0	0	0	0	6	6
092712	12:18:54	10019	Trial	CongruentLeft	14	203	343	1	118	12:18:54	2055531	5	1	1	1	1	1	1	1	2	6	5	0	0	0	0	6	6
092712	12:18:54	10019	Trial	ResponseIR	14	0	162	0	118	12:18:54	2056854	5	1	1	1	1	1	1	1	2	6	5	0	0	0	0	6	6
092712	12:18:54	10019	Trial	IncongruentRight	14	205	443	1	118	12:18:54	2057323	5	1	1	1	1	1	1	1	2	6	5	0	0	0	0	6	6
092712	12:18:54	10019	Trial	ResponseCR	14	0	162	0	118	12:18:54	2058546	5	1	1	1	1	1	1	1	2	6	5	0	0	0	0	6	6
092712	12:18:54	10019	Trial	CongruentRight	14	205	398	1	118	12:18:54	2058971	5	1	1	1	1	1	1	1	2	6	5	0	0	0	0	6	6
092712	12:18:54	10019	Trial	ResponseIL	14	0	162	0	118	12:18:54	2060239	5	1	1	1	1	1	1	1	2	6	5	0	0	0	0	6	6
092712	12:18:54	10019	Trial	IncongruentLeft	14	205	177	0	118	12:18:54	2060443	5	1	1	1	1	1	1	1	2	6	5	0	0	0	0	6	6
092712	12:18:54	10019	Trial	ResponseCL	14	0	162	0	118	12:18:54	2061932	5	1	1	1	1	1	1	1	2	6	5	0	0	0	0	6	6
092712	12:18:54	10019	Trial	CongruentLeft	14	203	309	1	118	12:18:54	2062267	5	1	1	1	1	1	1	1	2	6	5	0	0	0	0	6	6
092712	12:18:54	10019	Trial	ResponseCR	14	0	162	0	118	12:18:54	2063624	5	1	1	1	1	1	1	1	2	6	5	0	0	0	0	6	6
092712	12:18:54	10019	Trial	CongruentRight	14	205	280	1	118	12:18:54	2063931	5	1	1	1	1	1	1	1	2	6	5	0	0	0	0	6	6
092712	12:18:54	10019	Trial	ResponseIL	14	0	162	0	118	12:18:54	2065317	5	1	1	1	1	1	1	1	2	6	5	0	0	0	0	6	6
092712	12:18:54	10019	Trial	IncongruentLeft	14	203	411	1	118	12:18:54	2065755	5	1	1	1	1	1	1	1	2	6	5	0	0	0	0	6	6
092712	12:18:54	10019	Trial	ResponseCR	14	0	162	0	118	12:18:54	2067009	5	1	1	1	1	1	1	1	2	6	5	0	0	0	0	6	6
092712	12:18:54	10019	Trial	CongruentRight	14	205	351	1	118	12:18:54	2067387	5	1	1	1	1	1	1	1	2	6	5	0	0	0	0	6	6
092712	12:18:54	10019	Trial	ResponseCR	14	0	162	0	118	12:18:54	2068702	5	1	1	1	1	1	1	1	2	6	5	0	0	0	0	6	6
092712	12:18:54	10019	Trial	CongruentRight	14	205	278	1	118	12:18:54	2069007	5	1	1	1	1	1	1	1	2	6	5	0	0	0	0	6	6
092712	12:18:54	10019	Trial	ResponseIR	14	0	162	0	118	12:18:54	2070395	5	1	1	1	1	1	1	1	2	6	5	0	0	0	0	6	6
092712	12:18:54	10019	Trial	IncongruentRight	14	205	325	1	118	12:18:54	2070747	5	1	1	1	1	1	1	1	2	6	5	0	0	0	0	6	6
092712	12:18:54	10019	Trial	ResponseCL	14	0	162	0	118	12:18:54	2072088	5	1	1	1	1	1	1	1	2	6	5	0	0	0	0	6	6
092712	12:18:54	10019	Trial	CongruentLeft	14	203	312	1	118	12:18:54	2072426	5	1	1	1	1	1	1	1	2	6	5	0	0	0	0	6	6
092712	12:18:54	10019	Trial	ResponseIL	14	0	162	0	118	12:18:54	2073780	5	1	1	1	1	1	1	1	2	6	5	0	0	0	0	6	6
092712	12:18:54	10019	Trial	IncongruentLeft	14	203	252	1	118	12:18:54	2074058	5	1	1	1	1	1	1	1	2	6	5	0	0	0	0	6	6
092712	12:18:54	10019	Trial	ResponseCL	14	0	162	0	118	12:18:54	2075473	5	1	1	1	1	1	1	1	2	6	5	0	0	0	0	6	6
092712	12:18:54	10019	Trial	CongruentLeft	14	203	239	1	118	12:18:54	2075739	5	1	1	1	1	1	1	1	2	6	5	0	0	0	0	6	6
092712	12:18:54	10019	Trial	ResponseIR	14	0	162	0	118	12:18:54	2077165	5	1	1	1	1	1	1	1	2	6	5	0	0	0	0	6	6
092712	12:18:54	10019	Trial	IncongruentRight	14	205	370	1	118	12:18:54	2077562	5	1	1	1	1	1	1	1	2	6	5	0	0	0	0	6	6
092712	12:18:54	10019	Trial	ResponseIL	14	0	162	0	118	12:18:54	2078858	5	1	1	1	1	1	1	1	2	6	5	0	0	0	0	6	6
092712	12:18:54	10019	Trial	IncongruentLeft	14	203	310	1	118	12:18:54	2079195	5	1	1	1	1	1	1	1	2	6	5	0	0	0	0	6	6
092712	12:18:54	10019	Trial	ResponseCR	14	0	162	0	118	12:18:54	2080551	5	1	1	1	1	1	1	1	2	6	5	0	0	0	0	6	6
092712	12:18:54	10019	Trial	CongruentRight	14	205	265	1	118	12:18:54	2080842	5	1	1	1	1	1	1	1	2	6	5	0	0	0	0	6	6
092712	12:18:54	10019	Trial	ResponseCL	14	0	162	0	118	12:18:54	2082243	5	1	1	1	1	1	1	1	2	6	5	0	0	0	0	6	6
092712	12:18:54	10019	Trial	CongruentLeft	14	203	204	1	118	12:18:54	2082474	5	1	1	1	1	1	1	1	2	6	5	0	0	0	0	6	6
092712	12:18:54	10019	Trial	ResponseIL	14	0	162	0	118	12:18:54	2083936	5	1	1	1	1	1	1	1	2	6	5	0	0	0	0	6	6
092712	12:18:54	10019	Trial	IncongruentLeft	14	203	400	1	118	12:18:54	2084362	5	1	1	1	1	1	1	1	2	6	5	0	0	0	0	6	6
092712	12:18:54	10019	Trial	ResponseCL	14	0	162	0	118	12:18:54	2085629	5	1	1	1	1	1	1	1	2	6	5	0	0	0	0	6	6
092712	12:18:54	10019	Trial	CongruentLeft	14	203	211	1	118	12:18:54	2085866	5	1	1	1	1	1	1	1	2	6	5	0	0	0	0	6	6
092712	12:18:54	10019	Trial	ResponseIR	14	0	162	0	118	12:18:54	2087321	5	1	1	1	1	1	1	1	2	6	5	0	0	0	0	6	6
092712	12:18:54	10019	Trial	IncongruentRight	14	205	342	1	118	12:18:54	2087690	5	1	1	1	1	1	1	1	2	6	5	0	0	0	0	6	6
092712	12:18:54	10019	Trial	ResponseCR	14	0	162	0	118	12:18:54	2089014	5	1	1	1	1	1	1	1	2	6	5	0	0	0	0	6	6
092712	12:18:54	10019	Trial	CongruentRight	14	205	314	1	118	12:18:54	2089354	5	1	1	1	1	1	1	1	2	6	5	0	0	0	0	6	6
092712	12:18:54	10019	Trial	ResponseIL	14	0	162	0	118	12:18:54	2090707	5	1	1	1	1	1	1	1	2	6	5	0	0	0	0	6	6
092712	12:18:54	10019	Trial	IncongruentLeft	14	203	301	1	118	12:18:54	2091034	5	1	1	1	1	1	1	1	2	6	5	0	0	0	0	6	6
092712	12:18:54	10019	Trial	ResponseCL	14	0	162	0	118	12:18:54	2092399	5	1	1	1	1	1	1	1	2	6	5	0	0	0	0	6	6
092712	12:18:54	10019	Trial	CongruentLeft	14	203	240	1	118	12:18:54	2092666	5	1	1	1	1	1	1	1	2	6	5	0	0	0	0	6	6
092712	12:18:54	10019	Trial	ResponseIR	14	0	162	0	118	12:18:54	2094092	5	1	1	1	1	1	1	1	2	6	5	0	0	0	0	6	6
092712	12:18:54	10019	Trial	IncongruentRight	14	205	387	1	118	12:18:54	2094506	5	1	1	1	1	1	1	1	2	6	5	0	0	0	0	6	6
092712	12:18:54	10019	Trial	ResponseIL	14	0	162	0	118	12:18:54	2095785	5	1	1	1	1	1	1	1	2	6	5	0	0	0	0	6	6
092712	12:18:54	10019	Trial	IncongruentLeft	14	203	263	1	118	12:18:54	2096074	5	1	1	1	1	1	1	1	2	6	5	0	0	0	0	6	6
092712	12:18:54	10019	Trial	ResponseCL	14	0	162	0	118	12:18:54	2097477	5	1	1	1	1	1	1	1	2	6	5	0	0	0	0	6	6
092712	12:18:54	10019	Trial	CongruentLeft	14	203	282	1	118	12:18:54	2097786	5	1	1	1	1	1	1	1	2	6	5	0	0	0	0	6	6
092712	12:18:54	10019	Trial	ResponseIL	14	0	162	0	118	12:18:54	2099170	5	1	1	1	1	1	1	1	2	6	5	0	0	0	0	6	6
092712	12:18:54	10019	Trial	IncongruentLeft	14	203	302	1	118	12:18:54	2099498	5	1	1	1	1	1	1	1	2	6	5	0	0	0	0	6	6
092712	12:18:54	10019	Trial	ResponseCR	14	0	162	0	118	12:18:54	2100863	5	1	1	1	1	1	1	1	2	6	5	0	0	0	0	6	6
092712	12:18:54	10019	Trial	CongruentRight	14	205	337	1	118	12:18:54	2101226	5	1	1	1	1	1	1	1	2	6	5	0	0	0	0	6	6
092712	12:18:54	10019	Trial	ResponseCL	14	0	162	0	118	12:18:54	2102555	5	1	1	1	1	1	1	1	2	6	5	0	0	0	0	6	6
092712	12:18:54	10019	Trial	CongruentLeft	14	203	228	1	118	12:18:54	2102810	5	1	1	1	1	1	1	1	2	6	5	0	0	0	0	6	6
092712	12:18:54	10019	Trial	ResponseIR	14	0	162	0	118	12:18:54	2104248	5	1	1	1	1	1	1	1	2	6	5	0	0	0	0	6	6
092712	12:18:54	10019	Trial	IncongruentRight	14	205	312	1	118	12:18:54	2104586	5	1	1	1	1	1	1	1	2	6	5	0	0	0	0	6	6
092712	12:18:54	10019	Trial	ResponseCL	14	0	162	0	118	12:18:54	2105940	5	1	1	1	1	1	1	1	2	6	5	0	0	0	0	6	6
092712	12:18:54	10019	Trial	CongruentLeft	14	203	251	1	118	12:18:54	2106218	5	1	1	1	1	1	1	1	2	6	5	0	0	0	0	6	6
092712	12:18:54	10019	Trial	ResponseCR	14	0	162	0	118	12:18:54	2107646	5	1	1	1	1	1	1	1	2	6	5	0	0	0	0	6	6
092712	12:18:54	10019	Trial	CongruentRight	14	205	177	1	118	12:18:54	2107850	5	1	1	1	1	1	1	1	2	6	5	0	0	0	0	6	6
092712	12:18:54	10019	Trial	ResponseIL	14	0	162	0	118	12:18:54	2109339	5	1	1	1	1	1	1	1	2	6	5	0	0	0	0	6	6
092712	12:18:54	10019	Trial	IncongruentLeft	14	203	132	1	118	12:18:54	2109498	5	1	1	1	1	1	1	1	2	6	5	0	0	0	0	6	6
092712	12:18:54	10019	WordsAbsFr3mo	PAbsFr3mo1	16	Abs1	3789	0	118	12:18:54	2126172	5	1	1	1	1	1	1	1	2	6	5	0	0	0	0	6	6
092712	12:18:54	10019	WordsAbsFr3mo	AbsFr3mo1	16	Abs1	2891	0	118	12:18:54	2129105	5	1	1	1	1	1	1	1	2	6	5	1	0	0	0	6	6
092712	12:18:54	10019	WordsAbsFr3mo	AbsFr3mo2	16	Abs1	10759	0	118	12:18:54	2139900	5	1	1	1	1	1	1	1	2	6	5	2	0	0	0	6	6
092712	12:18:54	10019	WordsAbsFr3mo	AbsFr3mo3	16	Abs1	11988	0	118	12:18:54	2151922	5	1	1	1	1	1	1	1	2	6	5	3	0	0	0	6	6
092712	12:18:54	10019	Trial2BackFrS	NS	17	0	1000	1	118	12:18:54	2196757	5	1	1	1	1	1	1	1	2	6	5	3	0	0	0	6	6
092712	12:18:54	10019	Trial2BackFrS	NS	17	0	1000	1	118	12:18:54	2198276	5	1	1	1	1	1	1	1	2	6	5	3	0	0	0	6	6
092712	12:18:54	10019	Trial2BackFrS	NS	17	0	1000	1	118	12:18:54	2199796	5	1	1	1	1	1	1	1	2	6	5	3	0	0	0	6	6
092712	12:18:54	10019	Trial2BackFrS	YS	17	57	396	1	118	12:18:54	2200716	5	1	1	1	1	1	1	1	2	6	5	3	0	0	0	6	6
092712	12:18:54	10019	Trial2BackFrS	NS	17	0	1000	1	118	12:18:54	2202821	5	1	1	1	1	1	1	1	2	6	5	3	0	0	0	6	6
092712	12:18:54	10019	Trial2BackFrS	NS	17	0	1000	1	118	12:18:54	2204341	5	1	1	1	1	1	1	1	2	6	5	3	0	0	0	6	6
092712	12:18:54	10019	Trial2BackFrS	NS	17	0	1000	1	118	12:18:54	2205860	5	1	1	1	1	1	1	1	2	6	5	3	0	0	0	6	6
092712	12:18:54	10019	Trial2BackFrS	NS	17	0	1000	1	118	12:18:54	2207379	5	1	1	1	1	1	1	1	2	6	5	3	0	0	0	6	6
092712	12:18:54	10019	Trial2BackFrS	YS	17	0	1000	0	118	12:18:54	2208899	5	1	1	1	1	1	1	1	2	6	5	3	0	0	0	6	6
092712	12:18:54	10019	Trial2BackFrS	NS	17	0	1000	1	118	12:18:54	2210418	5	1	1	1	1	1	1	1	2	6	5	3	0	0	0	6	6
092712	12:18:54	10019	Trial2BackFrS	NS	17	0	1000	1	118	12:18:54	2211938	5	1	1	1	1	1	1	1	2	6	5	3	0	0	0	6	6
092712	12:18:54	10019	Trial2BackFrS	YS	17	0	1000	0	118	12:18:54	2213457	5	1	1	1	1	1	1	1	2	6	5	3	0	0	0	6	6
092712	12:18:54	10019	Trial2BackFrS	NS	17	0	1000	1	118	12:18:54	2214976	5	1	1	1	1	1	1	1	2	6	5	3	0	0	0	6	6
092712	12:18:54	10019	Trial2BackFrS	NS	17	0	1000	1	118	12:18:54	2216496	5	1	1	1	1	1	1	1	2	6	5	3	0	0	0	6	6
092712	12:18:54	10019	Trial2BackFrS	NS	17	0	1000	1	118	12:18:54	2218015	5	1	1	1	1	1	1	1	2	6	5	3	0	0	0	6	6
092712	12:18:54	10019	Trial2BackFrS	YS	17	57	736	1	118	12:18:54	2219281	5	1	1	1	1	1	1	1	2	6	5	3	0	0	0	6	6
092712	12:18:54	10019	Trial2BackFrS	NS	17	0	1000	1	118	12:18:54	2221040	5	1	1	1	1	1	1	1	2	6	5	3	0	0	0	6	6
092712	12:18:54	10019	Trial2BackFrS	NS	17	0	1000	1	118	12:18:54	2222560	5	1	1	1	1	1	1	1	2	6	5	3	0	0	0	6	6
092712	12:18:54	10019	Trial2BackFrS	NS	17	0	1000	1	118	12:18:54	2224079	5	1	1	1	1	1	1	1	2	6	5	3	0	0	0	6	6
092712	12:18:54	10019	Trial2BackFrS	NS	17	0	1000	1	118	12:18:54	2225599	5	1	1	1	1	1	1	1	2	6	5	3	0	0	0	6	6
092712	12:18:54	10019	Trial2BackFrS	YS	17	57	449	1	118	12:18:54	2226572	5	1	1	1	1	1	1	1	2	6	5	3	0	0	0	6	6
092712	12:18:54	10019	Trial2BackFrS	NS	17	0	1000	1	118	12:18:54	2228624	5	1	1	1	1	1	1	1	2	6	5	3	0	0	0	6	6
092712	12:18:54	10019	Trial2BackFrS	NS	17	0	1000	1	118	12:18:54	2230144	5	1	1	1	1	1	1	1	2	6	5	3	0	0	0	6	6
092712	12:18:54	10019	Trial2BackFrS	NS	17	0	1000	1	118	12:18:54	2231663	5	1	1	1	1	1	1	1	2	6	5	3	0	0	0	6	6
092712	12:18:54	10019	Trial2BackFrS	NS	17	0	1000	1	118	12:18:54	2233183	5	1	1	1	1	1	1	1	2	6	5	3	0	0	0	6	6
092712	12:18:54	10019	Trial2BackFrS	NS	17	0	1000	1	118	12:18:54	2234702	5	1	1	1	1	1	1	1	2	6	5	3	0	0	0	6	6
092712	12:18:54	10019	Trial2BackFrS	NS	17	57	802	0	118	12:18:54	2236034	5	1	1	1	1	1	1	1	2	6	5	3	0	0	0	6	6
092712	12:18:54	10019	Trial2BackFrS	NS	17	0	1000	1	118	12:18:54	2237727	5	1	1	1	1	1	1	1	2	6	5	3	0	0	0	6	6
092712	12:18:54	10019	Trial2BackFrS	NS	17	0	1000	1	118	12:18:54	2239247	5	1	1	1	1	1	1	1	2	6	5	3	0	0	0	6	6
092712	12:18:54	10019	Trial2BackFrS	NS	17	0	1000	1	118	12:18:54	2240766	5	1	1	1	1	1	1	1	2	6	5	3	0	0	0	6	6
092712	12:18:54	10019	Trial2BackFrS	NS	17	0	1000	1	118	12:18:54	2242285	5	1	1	1	1	1	1	1	2	6	5	3	0	0	0	6	6
092712	12:18:54	10019	Trial2BackFrS	YS	17	0	1000	0	118	12:18:54	2243805	5	1	1	1	1	1	1	1	2	6	5	3	0	0	0	6	6
092712	12:18:54	10019	Trial2BackFrS	NS	17	0	1000	1	118	12:18:54	2245324	5	1	1	1	1	1	1	1	2	6	5	3	0	0	0	6	6
092712	12:18:54	10019	Trial2BackFrS	NS	17	0	1000	1	118	12:18:54	2246843	5	1	1	1	1	1	1	1	2	6	5	3	0	0	0	6	6
092712	12:18:54	10019	Trial2BackFrS	NS	17	0	1000	1	118	12:18:54	2248363	5	1	1	1	1	1	1	1	2	6	5	3	0	0	0	6	6
092712	12:18:54	10019	Trial2BackFrS	YS	17	57	820	1	118	12:18:54	2249709	5	1	1	1	1	1	1	1	2	6	5	3	0	0	0	6	6
092712	12:18:54	10019	Trial2BackFrS	NS	17	0	1000	1	118	12:18:54	2251388	5	1	1	1	1	1	1	1	2	6	5	3	0	0	0	6	6
092712	12:18:54	10019	Trial2BackFrS	NS	17	0	1000	1	118	12:18:54	2252908	5	1	1	1	1	1	1	1	2	6	5	3	0	0	0	6	6
092712	12:18:54	10019	Trial2BackFrS	NS	17	0	1000	1	118	12:18:54	2254427	5	1	1	1	1	1	1	1	2	6	5	3	0	0	0	6	6
092712	12:18:54	10019	Trial2BackFrS	NS	17	0	1000	1	118	12:18:54	2255947	5	1	1	1	1	1	1	1	2	6	5	3	0	0	0	6	6
092712	12:18:54	10019	Trial2BackFrS	NS	17	0	1000	1	118	12:18:54	2257466	5	1	1	1	1	1	1	1	2	6	5	3	0	0	0	6	6
092712	12:18:54	10019	Trial2BackFrS	NS	17	0	1000	1	118	12:18:54	2258985	5	1	1	1	1	1	1	1	2	6	5	3	0	0	0	6	6
092712	12:18:54	10019	Trial2BackFrS	NS	17	0	1000	1	118	12:18:54	2260505	5	1	1	1	1	1	1	1	2	6	5	3	0	0	0	6	6
092712	12:18:54	10019	Trial2BackFrS	YS	17	57	646	1	118	12:18:54	2261677	5	1	1	1	1	1	1	1	2	6	5	3	0	0	0	6	6
092712	12:18:54	10019	Trial2BackFrS	NS	17	0	1000	1	118	12:18:54	2263530	5	1	1	1	1	1	1	1	2	6	5	3	0	0	0	6	6
092712	12:18:54	10019	Trial2BackFrS	NS	17	0	1000	1	118	12:18:54	2265049	5	1	1	1	1	1	1	1	2	6	5	3	0	0	0	6	6
092712	12:18:54	10019	Trial2BackFrS	NS	17	0	1000	1	118	12:18:54	2266569	5	1	1	1	1	1	1	1	2	6	5	3	0	0	0	6	6
092712	12:18:54	10019	Trial2BackFrS	NS	17	0	1000	1	118	12:18:54	2268088	5	1	1	1	1	1	1	1	2	6	5	3	0	0	0	6	6
092712	12:18:54	10019	Trial2BackFrS	YS	17	57	774	1	118	12:18:54	2269394	5	1	1	1	1	1	1	1	2	6	5	3	0	0	0	6	6
092712	12:18:54	10019	Trial2BackFrS	NS	17	0	1000	1	118	12:18:54	2271114	5	1	1	1	1	1	1	1	2	6	5	3	0	0	0	6	6
092712	12:18:54	10019	Trial2BackFrS	NS	17	0	1000	1	118	12:18:54	2272633	5	1	1	1	1	1	1	1	2	6	5	3	0	0	0	6	6
092712	12:18:54	10019	Trial2BackFrS	NS	17	0	1000	1	118	12:18:54	2274152	5	1	1	1	1	1	1	1	2	6	5	3	0	0	0	6	6
092712	12:18:54	10019	Trial2BackFrS	NS	17	0	1000	1	118	12:18:54	2275672	5	1	1	1	1	1	1	1	2	6	5	3	0	0	0	6	6
092712	12:18:54	10019	Trial2BackFrS	NS	17	0	1000	1	118	12:18:54	2277191	5	1	1	1	1	1	1	1	2	6	5	3	0	0	0	6	6
092712	12:18:54	10019	Trial2BackFrS	NS	17	0	1000	1	118	12:18:54	2278711	5	1	1	1	1	1	1	1	2	6	5	3	0	0	0	6	6
092712	12:18:54	10019	Trial2BackFrS	YS	17	57	808	1	118	12:18:54	2280043	5	1	1	1	1	1	1	1	2	6	5	3	0	0	0	6	6
092712	12:18:54	10019	Trial2BackFrS	NS	17	0	1000	1	118	12:18:54	2281736	5	1	1	1	1	1	1	1	2	6	5	3	0	0	0	6	6
092712	12:18:54	10019	Trial2BackFrS	NS	17	0	1000	1	118	12:18:54	2283255	5	1	1	1	1	1	1	1	2	6	5	3	0	0	0	6	6
092712	12:18:54	10019	Trial2BackFrS	NS	17	0	1000	1	118	12:18:54	2284775	5	1	1	1	1	1	1	1	2	6	5	3	0	0	0	6	6
092712	12:18:54	10019	Trial2BackFrS	NS	17	0	1000	1	118	12:18:54	2286294	5	1	1	1	1	1	1	1	2	6	5	3	0	0	0	6	6
092712	12:18:54	10019	Trial2BackFrS	NS	17	0	1000	1	118	12:18:54	2287814	5	1	1	1	1	1	1	1	2	6	5	3	0	0	0	6	6
092712	12:18:54	10019	Trial2BackFrS	NS	17	0	1000	1	118	12:18:54	2289333	5	1	1	1	1	1	1	1	2	6	5	3	0	0	0	6	6
092712	12:18:54	10019	Trial2BackFrS	NS	17	0	1000	1	118	12:18:54	2290852	5	1	1	1	1	1	1	1	2	6	5	3	0	0	0	6	6
092712	12:18:54	10019	Trial2BackFrS	YS	17	57	489	1	118	12:18:54	2291865	5	1	1	1	1	1	1	1	2	6	5	3	0	0	0	6	6
092712	12:18:54	10019	Trial2BackFrS	NS	17	0	1000	1	118	12:18:54	2293878	5	1	1	1	1	1	1	1	2	6	5	3	0	0	0	6	6
092712	12:18:54	10019	Trial2BackFrS	NS	17	0	1000	1	118	12:18:54	2295397	5	1	1	1	1	1	1	1	2	6	5	3	0	0	0	6	6
092712	12:18:54	10019	Trial2BackFrS	NS	17	0	1000	1	118	12:18:54	2296917	5	1	1	1	1	1	1	1	2	6	5	3	0	0	0	6	6
092712	12:18:54	10019	Trial2BackFrS	NS	17	0	1000	1	118	12:18:54	2298436	5	1	1	1	1	1	1	1	2	6	5	3	0	0	0	6	6
092712	12:18:54	10019	Trial2BackFrS	YS	17	0	1000	0	118	12:18:54	2299955	5	1	1	1	1	1	1	1	2	6	5	3	0	0	0	6	6
092712	12:18:54	10019	Trial2BackFrS	NS	17	0	1000	1	118	12:18:54	2301475	5	1	1	1	1	1	1	1	2	6	5	3	0	0	0	6	6
092712	12:18:54	10019	Trial2BackFrS	NS	17	0	1000	1	118	12:18:54	2302994	5	1	1	1	1	1	1	1	2	6	5	3	0	0	0	6	6
092712	12:18:54	10019	Trial2BackFrS	YS	17	57	763	1	118	12:18:54	2304287	5	1	1	1	1	1	1	1	2	6	5	3	0	0	0	6	6
092712	12:18:54	10019	Trial2BackFrS	NS	17	0	1000	1	118	12:18:54	2306019	5	1	1	1	1	1	1	1	2	6	5	3	0	0	0	6	6
092712	12:18:54	10019	Trial2BackFrS	NS	17	0	1000	1	118	12:18:54	2307539	5	1	1	1	1	1	1	1	2	6	5	3	0	0	0	6	6
092712	12:18:54	10019	Trial2BackFrS	NS	17	0	1000	1	118	12:18:54	2309058	5	1	1	1	1	1	1	1	2	6	5	3	0	0	0	6	6
092712	12:18:54	10019	Trial2BackFrS	NS	17	0	1000	1	118	12:18:54	2310578	5	1	1	1	1	1	1	1	2	6	5	3	0	0	0	6	6
092712	12:18:54	10019	Trial2BackFrS	NS	17	0	1000	1	118	12:18:54	2312097	5	1	1	1	1	1	1	1	2	6	5	3	0	0	0	6	6
092712	12:18:54	10019	Trial2BackFrS	NS	17	0	1000	1	118	12:18:54	2313616	5	1	1	1	1	1	1	1	2	6	5	3	0	0	0	6	6
092712	12:18:54	10019	Trial2BackFrS	YS	17	57	509	1	118	12:18:54	2314656	5	1	1	1	1	1	1	1	2	6	5	3	0	0	0	6	6
092712	12:18:54	10019	Trial2BackFrS	NS	17	0	1000	1	118	12:18:54	2316642	5	1	1	1	1	1	1	1	2	6	5	3	0	0	0	6	6
092712	12:18:54	10019	Trial2BackFrS	NS	17	0	1000	1	118	12:18:54	2318161	5	1	1	1	1	1	1	1	2	6	5	3	0	0	0	6	6
092712	12:18:54	10019	Trial2BackFrS	NS	17	0	1000	1	118	12:18:54	2319681	5	1	1	1	1	1	1	1	2	6	5	3	0	0	0	6	6
092712	12:18:54	10019	Trial2BackFrS	NS	17	0	1000	1	118	12:18:54	2321200	5	1	1	1	1	1	1	1	2	6	5	3	0	0	0	6	6
092712	12:18:54	10019	Trial2BackFrS	YS	17	0	1000	0	118	12:18:54	2322719	5	1	1	1	1	1	1	1	2	6	5	3	0	0	0	6	6
092712	12:18:54	10019	Trial2BackFrS	NS	17	0	1000	1	118	12:18:54	2324239	5	1	1	1	1	1	1	1	2	6	5	3	0	0	0	6	6
092712	12:18:54	10019	Trial2BackFrS	NS	17	57	782	0	118	12:18:54	2325545	5	1	1	1	1	1	1	1	2	6	5	3	0	0	0	6	6
092712	12:18:54	10019	Trial2BackFrS	NS	17	0	1000	1	118	12:18:54	2327264	5	1	1	1	1	1	1	1	2	6	5	3	0	0	0	6	6
092712	12:18:54	10019	Trial2BackFrS	NS	17	0	1000	1	118	12:18:54	2328784	5	1	1	1	1	1	1	1	2	6	5	3	0	0	0	6	6
092712	12:18:54	10019	Trial2BackFrS	YS	17	0	1000	0	118	12:18:54	2330303	5	1	1	1	1	1	1	1	2	6	5	3	0	0	0	6	6
092712	12:18:54	10019	Trial2BackFrS	NS	17	0	1000	1	118	12:18:54	2331822	5	1	1	1	1	1	1	1	2	6	5	3	0	0	0	6	6
092712	12:18:54	10019	Trial2BackFrS	NS	17	0	1000	1	118	12:18:54	2333342	5	1	1	1	1	1	1	1	2	6	5	3	0	0	0	6	6
092712	12:18:54	10019	Trial2BackFrS	YS	17	57	367	1	118	12:18:54	2334235	5	1	1	1	1	1	1	1	2	6	5	3	0	0	0	6	6
092712	12:18:54	10019	Trial2BackFrS	NS	17	0	1000	1	118	12:18:54	2336367	5	1	1	1	1	1	1	1	2	6	5	3	0	0	0	6	6
092712	12:18:54	10019	Trial2BackFrS	NS	17	0	1000	1	118	12:18:54	2337887	5	1	1	1	1	1	1	1	2	6	5	3	0	0	0	6	6
092712	12:18:54	10019	Trial2BackFrS	NS	17	0	1000	1	118	12:18:54	2339406	5	1	1	1	1	1	1	1	2	6	5	3	0	0	0	6	6
092712	12:18:54	10019	Trial2BackFrS	NS	17	0	1000	1	118	12:18:54	2340925	5	1	1	1	1	1	1	1	2	6	5	3	0	0	0	6	6
092712	12:18:54	10019	Trial2BackFrS	NS	17	0	1000	1	118	12:18:54	2342445	5	1	1	1	1	1	1	1	2	6	5	3	0	0	0	6	6
092712	12:18:54	10019	Trial2BackFrS	NS	17	0	1000	1	118	12:18:54	2343964	5	1	1	1	1	1	1	1	2	6	5	3	0	0	0	6	6
092712	12:18:54	10019	Trial2BackFrS	NS	17	0	1000	1	118	12:18:54	2345484	5	1	1	1	1	1	1	1	2	6	5	3	0	0	0	6	6
092712	12:18:54	10019	Trial2BackFrS	NS	17	0	1000	1	118	12:18:54	2347003	5	1	1	1	1	1	1	1	2	6	5	3	0	0	0	6	6
092712	12:18:54	10019	Trial2BackFrS	YS	17	57	690	1	118	12:18:54	2348216	5	1	1	1	1	1	1	1	2	6	5	3	0	0	0	6	6
092712	12:18:54	10019	Trial2BackFrS	NS	17	0	1000	1	118	12:18:54	2350028	5	1	1	1	1	1	1	1	2	6	5	3	0	0	0	6	6
092712	12:18:54	10019	Trial2BackFrS	NS	17	0	1000	1	118	12:18:54	2351548	5	1	1	1	1	1	1	1	2	6	5	3	0	0	0	6	6
092712	12:18:54	10019	Trial2BackFrS	NS	17	0	1000	1	118	12:18:54	2353067	5	1	1	1	1	1	1	1	2	6	5	3	0	0	0	6	6
092712	12:18:54	10019	Trial2BackFrS	NS	17	0	1000	1	118	12:18:54	2354587	5	1	1	1	1	1	1	1	2	6	5	3	0	0	0	6	6
092712	12:18:54	10019	Trial2BackFrS	NS	17	0	1000	1	118	12:18:54	2356106	5	1	1	1	1	1	1	1	2	6	5	3	0	0	0	6	6
092712	12:18:54	10019	Trial2BackFrS	NS	17	0	1000	1	118	12:18:54	2357625	5	1	1	1	1	1	1	1	2	6	5	3	0	0	0	6	6
092712	12:18:54	10019	Trial2BackFrS	NS	17	0	1000	1	118	12:18:54	2359145	5	1	1	1	1	1	1	1	2	6	5	3	0	0	0	6	6
092712	12:18:54	10019	Trial2BackFrS	YS	17	0	1000	0	118	12:18:54	2360664	5	1	1	1	1	1	1	1	2	6	5	3	0	0	0	6	6
092712	12:18:54	10019	Trial2BackFrS	NS	17	0	1000	1	118	12:18:54	2362184	5	1	1	1	1	1	1	1	2	6	5	3	0	0	0	6	6
092712	12:18:54	10019	Trial2BackFrS	NS	17	0	1000	1	118	12:18:54	2363703	5	1	1	1	1	1	1	1	2	6	5	3	0	0	0	6	6
092712	12:18:54	10019	Trial2BackFrS	NS	17	0	1000	1	118	12:18:54	2365222	5	1	1	1	1	1	1	1	2	6	5	3	0	0	0	6	6
092712	12:18:54	10019	Trial2BackFrS	NS	17	0	1000	1	118	12:18:54	2366742	5	1	1	1	1	1	1	1	2	6	5	3	0	0	0	6	6
092712	12:18:54	10019	Trial2BackFrS	NS	17	0	1000	1	118	12:18:54	2368261	5	1	1	1	1	1	1	1	2	6	5	3	0	0	0	6	6
092712	12:18:54	10019	Trial2BackFrS	NS	17	0	1000	1	118	12:18:54	2369780	5	1	1	1	1	1	1	1	2	6	5	3	0	0	0	6	6
092712	12:18:54	10019	Trial2BackFrS	NS	17	0	1000	1	118	12:18:54	2371300	5	1	1	1	1	1	1	1	2	6	5	3	0	0	0	6	6
092712	12:18:54	10019	Trial2BackFrS	NS	17	0	1000	1	118	12:18:54	2372819	5	1	1	1	1	1	1	1	2	6	5	3	0	0	0	6	6
092712	12:18:54	10019	Trial2BackFrS	NS	17	0	1000	1	118	12:18:54	2374339	5	1	1	1	1	1	1	1	2	6	5	3	0	0	0	6	6
092712	12:18:54	10019	Trial2BackFrS	YS	17	0	1000	0	118	12:18:54	2375858	5	1	1	1	1	1	1	1	2	6	5	3	0	0	0	6	6
092712	12:18:54	10019	Trial2BackFrS	NS	17	0	1000	1	118	12:18:54	2377377	5	1	1	1	1	1	1	1	2	6	5	3	0	0	0	6	6
092712	12:18:54	10019	ClockFr3mo	ClockFr3mo	19	Clock1	86362	0	118	12:18:54	2463849	5	1	1	1	1	1	1	1	2	6	5	3	1	0	0	6	6
092712	12:18:54	10019	ClockFr3mo	ClockFr3mo	19	Clock11	695	0	118	12:18:54	2464582	5	1	1	1	1	1	1	1	2	6	5	3	1	1	0	6	6
092712	12:18:54	10019	ClockFr3mo	ClockFr3mo	19	Clock111	585	0	118	12:18:54	2465209	5	1	1	1	1	1	1	1	2	6	5	3	1	1	1	6	6
092712	12:18:54	10019	ClockFr3mo	ClockFr3mo	19	Clockdone	695	0	118	12:18:54	2465941	5	1	1	1	1	1	1	1	2	6	5	3	1	1	1	6	6
092712	12:18:54	10019	FASFrVF3mo	StopFrVF3mo	20	15	15919	0	118	12:18:54	2590840	5	1	1	1	1	1	1	1	2	6	5	3	1	1	1	6	6
