date	time	subject	blockcode	trialcode	values.TaskNumber	response	latency	correct	values.Score	script.starttime	script.elapsedtime	values.ScoreS7	values.Word1	values.Word2	values.Word3	values.Word4	values.Word5	values.Word6	values.Word7	values.Word8	values.DigitSpanFwrd	values.DigitSpanBack	values.ScoreAbs	values.Contour	values.Numbers	values.Hands	values.corsiblockspanFwrd	values.corsiblockspanRev
102512	07:54:25	10028	Language	Language	0	French	670909	0	0	07:54:25	671043	0	0	0	0	0	0	0	0	0	0	0	0	0	0	0	0	0
102512	07:54:25	10028	Session	Session	0	3mo	1459	0	0	07:54:25	672562	0	0	0	0	0	0	0	0	0	0	0	0	0	0	0	0	0
102512	07:54:25	10028	HandFr	HandFr	0	RightFr	2124	0	0	07:54:25	674747	0	0	0	0	0	0	0	0	0	0	0	0	0	0	0	0	0
102512	07:54:25	10028	AudioCheckFr	WordsFr	0	0	0	0	0	07:54:25	1799637	0	0	0	0	0	0	0	0	0	0	0	0	0	0	0	0	0
102512	07:54:25	10028	CubeFr	CubeFr	1	1Cube	28316	0	0	07:54:25	1829464	0	0	0	0	0	0	0	0	0	0	0	0	0	0	0	0	0
102512	07:54:25	10028	pm.simpleFrRight	blank.simpleFr	2	0	2200	1	0	07:54:25	1853588	0	0	0	0	0	0	0	0	0	0	0	0	0	0	0	0	0
102512	07:54:25	10028	pm.simpleFrRight	pm.simpleFr	2	57	427	0	0	07:54:25	1854041	0	0	0	0	0	0	0	0	0	0	0	0	0	0	0	0	0
102512	07:54:25	10028	pm.simpleFrRight	blank.simpleFr	2	0	2500	1	0	07:54:25	1856560	0	0	0	0	0	0	0	0	0	0	0	0	0	0	0	0	0
102512	07:54:25	10028	pm.simpleFrRight	pm.simpleFr	2	57	383	0	0	07:54:25	1856960	0	0	0	0	0	0	0	0	0	0	0	0	0	0	0	0	0
102512	07:54:25	10028	pm.simpleFrRight	blank.simpleFr	2	0	1700	1	0	07:54:25	1858679	0	0	0	0	0	0	0	0	0	0	0	0	0	0	0	0	0
102512	07:54:25	10028	pm.simpleFrRight	pm.simpleFr	2	57	407	0	0	07:54:25	1859106	0	0	0	0	0	0	0	0	0	0	0	0	0	0	0	0	0
102512	07:54:25	10028	pm.simpleFrRight	blank.simpleFr	2	0	2100	1	0	07:54:25	1861225	0	0	0	0	0	0	0	0	0	0	0	0	0	0	0	0	0
102512	07:54:25	10028	pm.simpleFrRight	pm.simpleFr	2	57	309	0	0	07:54:25	1861558	0	0	0	0	0	0	0	0	0	0	0	0	0	0	0	0	0
102512	07:54:25	10028	pm.simpleFrRight	blank.simpleFr	2	0	1800	1	0	07:54:25	1863371	0	0	0	0	0	0	0	0	0	0	0	0	0	0	0	0	0
102512	07:54:25	10028	pm.simpleFrRight	pm.simpleFr	2	57	292	0	0	07:54:25	1863691	0	0	0	0	0	0	0	0	0	0	0	0	0	0	0	0	0
102512	07:54:25	10028	pm.simpleFrRight	blank.simpleFr	2	0	1900	1	0	07:54:25	1865610	0	0	0	0	0	0	0	0	0	0	0	0	0	0	0	0	0
102512	07:54:25	10028	pm.simpleFrRight	pm.simpleFr	2	57	277	0	0	07:54:25	1865903	0	0	0	0	0	0	0	0	0	0	0	0	0	0	0	0	0
102512	07:54:25	10028	pm.simpleFrRight	blank.simpleFr	2	0	2300	1	0	07:54:25	1868222	0	0	0	0	0	0	0	0	0	0	0	0	0	0	0	0	0
102512	07:54:25	10028	pm.simpleFrRight	pm.simpleFr	2	57	256	0	0	07:54:25	1868502	0	0	0	0	0	0	0	0	0	0	0	0	0	0	0	0	0
102512	07:54:25	10028	pm.simpleFrRight	blank.simpleFr	2	0	1600	1	0	07:54:25	1870115	0	0	0	0	0	0	0	0	0	0	0	0	0	0	0	0	0
102512	07:54:25	10028	pm.simpleFrRight	pm.simpleFr	2	57	380	0	0	07:54:25	1870515	0	0	0	0	0	0	0	0	0	0	0	0	0	0	0	0	0
102512	07:54:25	10028	pm.simpleFrRight	blank.simpleFr	2	0	2400	1	0	07:54:25	1872927	0	0	0	0	0	0	0	0	0	0	0	0	0	0	0	0	0
102512	07:54:25	10028	pm.simpleFrRight	pm.simpleFr	2	57	255	0	0	07:54:25	1873207	0	0	0	0	0	0	0	0	0	0	0	0	0	0	0	0	0
102512	07:54:25	10028	pm.simpleFrRight	blank.simpleFr	2	0	2000	1	0	07:54:25	1875220	0	0	0	0	0	0	0	0	0	0	0	0	0	0	0	0	0
102512	07:54:25	10028	pm.simpleFrRight	pm.simpleFr	2	57	267	0	0	07:54:25	1875513	0	0	0	0	0	0	0	0	0	0	0	0	0	0	0	0	0
102512	07:54:25	10028	pm.simpleFrRight	blank.simpleFr	2	0	1500	1	0	07:54:25	1877032	0	0	0	0	0	0	0	0	0	0	0	0	0	0	0	0	0
102512	07:54:25	10028	pm.simpleFrRight	pm.simpleFr	2	57	326	0	0	07:54:25	1877379	0	0	0	0	0	0	0	0	0	0	0	0	0	0	0	0	0
102512	07:54:25	10028	pm.simpleFrRight	blank.simpleFr	2	0	1500	1	0	07:54:25	1878898	0	0	0	0	0	0	0	0	0	0	0	0	0	0	0	0	0
102512	07:54:25	10028	pm.simpleFrRight	pm.simpleFr	2	57	285	0	0	07:54:25	1879205	0	0	0	0	0	0	0	0	0	0	0	0	0	0	0	0	0
102512	07:54:25	10028	pm.simpleFrRight	blank.simpleFr	2	0	1700	1	0	07:54:25	1880924	0	0	0	0	0	0	0	0	0	0	0	0	0	0	0	0	0
102512	07:54:25	10028	pm.simpleFrRight	pm.simpleFr	2	57	259	0	0	07:54:25	1881204	0	0	0	0	0	0	0	0	0	0	0	0	0	0	0	0	0
102512	07:54:25	10028	pm.simpleFrRight	blank.simpleFr	2	0	2400	1	0	07:54:25	1883616	0	0	0	0	0	0	0	0	0	0	0	0	0	0	0	0	0
102512	07:54:25	10028	pm.simpleFrRight	pm.simpleFr	2	57	270	0	0	07:54:25	1883909	0	0	0	0	0	0	0	0	0	0	0	0	0	0	0	0	0
102512	07:54:25	10028	pm.simpleFrRight	blank.simpleFr	2	0	2000	1	0	07:54:25	1885922	0	0	0	0	0	0	0	0	0	0	0	0	0	0	0	0	0
102512	07:54:25	10028	pm.simpleFrRight	pm.simpleFr	2	57	284	0	0	07:54:25	1886228	0	0	0	0	0	0	0	0	0	0	0	0	0	0	0	0	0
102512	07:54:25	10028	pm.simpleFrRight	blank.simpleFr	2	0	2500	1	0	07:54:25	1888747	0	0	0	0	0	0	0	0	0	0	0	0	0	0	0	0	0
102512	07:54:25	10028	pm.simpleFrRight	pm.simpleFr	2	57	291	0	0	07:54:25	1889067	0	0	0	0	0	0	0	0	0	0	0	0	0	0	0	0	0
102512	07:54:25	10028	pm.simpleFrRight	blank.simpleFr	2	0	2300	1	0	07:54:25	1891386	0	0	0	0	0	0	0	0	0	0	0	0	0	0	0	0	0
102512	07:54:25	10028	pm.simpleFrRight	pm.simpleFr	2	57	308	0	0	07:54:25	1891720	0	0	0	0	0	0	0	0	0	0	0	0	0	0	0	0	0
102512	07:54:25	10028	pm.simpleFrRight	blank.simpleFr	2	0	1900	1	0	07:54:25	1893639	0	0	0	0	0	0	0	0	0	0	0	0	0	0	0	0	0
102512	07:54:25	10028	pm.simpleFrRight	pm.simpleFr	2	57	279	0	0	07:54:25	1893945	0	0	0	0	0	0	0	0	0	0	0	0	0	0	0	0	0
102512	07:54:25	10028	pm.simpleFrRight	blank.simpleFr	2	0	2200	1	0	07:54:25	1896158	0	0	0	0	0	0	0	0	0	0	0	0	0	0	0	0	0
102512	07:54:25	10028	pm.simpleFrRight	pm.simpleFr	2	57	272	0	0	07:54:25	1896451	0	0	0	0	0	0	0	0	0	0	0	0	0	0	0	0	0
102512	07:54:25	10028	pm.simpleFrRight	blank.simpleFr	2	0	1600	1	0	07:54:25	1898064	0	0	0	0	0	0	0	0	0	0	0	0	0	0	0	0	0
102512	07:54:25	10028	pm.simpleFrRight	pm.simpleFr	2	57	462	0	0	07:54:25	1898544	0	0	0	0	0	0	0	0	0	0	0	0	0	0	0	0	0
102512	07:54:25	10028	pm.simpleFrRight	blank.simpleFr	2	0	2100	1	0	07:54:25	1900663	0	0	0	0	0	0	0	0	0	0	0	0	0	0	0	0	0
102512	07:54:25	10028	pm.simpleFrRight	pm.simpleFr	2	57	279	0	0	07:54:25	1900969	0	0	0	0	0	0	0	0	0	0	0	0	0	0	0	0	0
102512	07:54:25	10028	pm.simpleFrRight	blank.simpleFr	2	0	1800	1	0	07:54:25	1902782	0	0	0	0	0	0	0	0	0	0	0	0	0	0	0	0	0
102512	07:54:25	10028	pm.simpleFrRight	pm.simpleFr	2	57	289	0	0	07:54:25	1903088	0	0	0	0	0	0	0	0	0	0	0	0	0	0	0	0	0
102512	07:54:25	10028	pm.simpleFrRight	blank.simpleFr	2	0	2200	1	0	07:54:25	1905301	0	0	0	0	0	0	0	0	0	0	0	0	0	0	0	0	0
102512	07:54:25	10028	pm.simpleFrRight	pm.simpleFr	2	57	249	0	0	07:54:25	1905568	0	0	0	0	0	0	0	0	0	0	0	0	0	0	0	0	0
102512	07:54:25	10028	pm.simpleFrRight	blank.simpleFr	2	0	1800	1	0	07:54:25	1907380	0	0	0	0	0	0	0	0	0	0	0	0	0	0	0	0	0
102512	07:54:25	10028	pm.simpleFrRight	pm.simpleFr	2	57	618	0	0	07:54:25	1908020	0	0	0	0	0	0	0	0	0	0	0	0	0	0	0	0	0
102512	07:54:25	10028	pm.simpleFrRight	blank.simpleFr	2	0	2400	1	0	07:54:25	1910432	0	0	0	0	0	0	0	0	0	0	0	0	0	0	0	0	0
102512	07:54:25	10028	pm.simpleFrRight	pm.simpleFr	2	57	238	0	0	07:54:25	1910699	0	0	0	0	0	0	0	0	0	0	0	0	0	0	0	0	0
102512	07:54:25	10028	pm.simpleFrRight	blank.simpleFr	2	0	2500	1	0	07:54:25	1913218	0	0	0	0	0	0	0	0	0	0	0	0	0	0	0	0	0
102512	07:54:25	10028	pm.simpleFrRight	pm.simpleFr	2	57	268	0	0	07:54:25	1913511	0	0	0	0	0	0	0	0	0	0	0	0	0	0	0	0	0
102512	07:54:25	10028	pm.simpleFrRight	blank.simpleFr	2	0	1700	1	0	07:54:25	1915230	0	0	0	0	0	0	0	0	0	0	0	0	0	0	0	0	0
102512	07:54:25	10028	pm.simpleFrRight	pm.simpleFr	2	57	240	0	0	07:54:25	1915497	0	0	0	0	0	0	0	0	0	0	0	0	0	0	0	0	0
102512	07:54:25	10028	pm.simpleFrRight	blank.simpleFr	2	0	1600	1	0	07:54:25	1917110	0	0	0	0	0	0	0	0	0	0	0	0	0	0	0	0	0
102512	07:54:25	10028	pm.simpleFrRight	pm.simpleFr	2	57	279	0	0	07:54:25	1917416	0	0	0	0	0	0	0	0	0	0	0	0	0	0	0	0	0
102512	07:54:25	10028	pm.simpleFrRight	blank.simpleFr	2	0	1500	1	0	07:54:25	1918936	0	0	0	0	0	0	0	0	0	0	0	0	0	0	0	0	0
102512	07:54:25	10028	pm.simpleFrRight	pm.simpleFr	2	57	294	0	0	07:54:25	1919255	0	0	0	0	0	0	0	0	0	0	0	0	0	0	0	0	0
102512	07:54:25	10028	pm.simpleFrRight	blank.simpleFr	2	0	1900	1	0	07:54:25	1921175	0	0	0	0	0	0	0	0	0	0	0	0	0	0	0	0	0
102512	07:54:25	10028	pm.simpleFrRight	pm.simpleFr	2	57	263	0	0	07:54:25	1921455	0	0	0	0	0	0	0	0	0	0	0	0	0	0	0	0	0
102512	07:54:25	10028	pm.simpleFrRight	blank.simpleFr	2	0	2100	1	0	07:54:25	1923574	0	0	0	0	0	0	0	0	0	0	0	0	0	0	0	0	0
102512	07:54:25	10028	pm.simpleFrRight	pm.simpleFr	2	57	248	0	0	07:54:25	1923840	0	0	0	0	0	0	0	0	0	0	0	0	0	0	0	0	0
102512	07:54:25	10028	pm.simpleFrRight	blank.simpleFr	2	0	2300	1	0	07:54:25	1926159	0	0	0	0	0	0	0	0	0	0	0	0	0	0	0	0	0
102512	07:54:25	10028	pm.simpleFrRight	pm.simpleFr	2	57	254	0	0	07:54:25	1926439	0	0	0	0	0	0	0	0	0	0	0	0	0	0	0	0	0
102512	07:54:25	10028	pm.simpleFrRight	blank.simpleFr	2	0	2000	1	0	07:54:25	1928452	0	0	0	0	0	0	0	0	0	0	0	0	0	0	0	0	0
102512	07:54:25	10028	pm.simpleFrRight	pm.simpleFr	2	57	250	0	0	07:54:25	1928718	0	0	0	0	0	0	0	0	0	0	0	0	0	0	0	0	0
102512	07:54:25	10028	pm.simpleFrRight	blank.simpleFr	2	0	1900	1	0	07:54:25	1930638	0	0	0	0	0	0	0	0	0	0	0	0	0	0	0	0	0
102512	07:54:25	10028	pm.simpleFrRight	pm.simpleFr	2	57	244	0	0	07:54:25	1930917	0	0	0	0	0	0	0	0	0	0	0	0	0	0	0	0	0
102512	07:54:25	10028	pm.simpleFrRight	blank.simpleFr	2	0	1800	1	0	07:54:25	1932744	0	0	0	0	0	0	0	0	0	0	0	0	0	0	0	0	0
102512	07:54:25	10028	pm.simpleFrRight	pm.simpleFr	2	57	262	0	0	07:54:25	1933023	0	0	0	0	0	0	0	0	0	0	0	0	0	0	0	0	0
102512	07:54:25	10028	pm.simpleFrRight	blank.simpleFr	2	0	2500	1	0	07:54:25	1935542	0	0	0	0	0	0	0	0	0	0	0	0	0	0	0	0	0
102512	07:54:25	10028	pm.simpleFrRight	pm.simpleFr	2	57	263	0	0	07:54:25	1935822	0	0	0	0	0	0	0	0	0	0	0	0	0	0	0	0	0
102512	07:54:25	10028	pm.simpleFrRight	blank.simpleFr	2	0	1700	1	0	07:54:25	1937542	0	0	0	0	0	0	0	0	0	0	0	0	0	0	0	0	0
102512	07:54:25	10028	pm.simpleFrRight	pm.simpleFr	2	57	312	0	0	07:54:25	1937875	0	0	0	0	0	0	0	0	0	0	0	0	0	0	0	0	0
102512	07:54:25	10028	pm.simpleFrRight	blank.simpleFr	2	0	1500	1	0	07:54:25	1939394	0	0	0	0	0	0	0	0	0	0	0	0	0	0	0	0	0
102512	07:54:25	10028	pm.simpleFrRight	pm.simpleFr	2	57	299	0	0	07:54:25	1939714	0	0	0	0	0	0	0	0	0	0	0	0	0	0	0	0	0
102512	07:54:25	10028	pm.simpleFrRight	blank.simpleFr	2	0	2300	1	0	07:54:25	1942033	0	0	0	0	0	0	0	0	0	0	0	0	0	0	0	0	0
102512	07:54:25	10028	pm.simpleFrRight	pm.simpleFr	2	57	268	0	0	07:54:25	1942326	0	0	0	0	0	0	0	0	0	0	0	0	0	0	0	0	0
102512	07:54:25	10028	pm.simpleFrRight	blank.simpleFr	2	0	2400	1	0	07:54:25	1944739	0	0	0	0	0	0	0	0	0	0	0	0	0	0	0	0	0
102512	07:54:25	10028	pm.simpleFrRight	pm.simpleFr	2	57	251	0	0	07:54:25	1945019	0	0	0	0	0	0	0	0	0	0	0	0	0	0	0	0	0
102512	07:54:25	10028	Trial2BackFr	N	3	0	1000	1	1	07:54:25	2033277	0	0	0	0	0	0	0	0	0	0	0	0	0	0	0	0	0
102512	07:54:25	10028	Trial2BackFr	N	3	0	1000	1	2	07:54:25	2034783	0	0	0	0	0	0	0	0	0	0	0	0	0	0	0	0	0
102512	07:54:25	10028	Trial2BackFr	N	3	0	1000	1	3	07:54:25	2036289	0	0	0	0	0	0	0	0	0	0	0	0	0	0	0	0	0
102512	07:54:25	10028	Trial2BackFr	N	3	0	1000	1	4	07:54:25	2037822	0	0	0	0	0	0	0	0	0	0	0	0	0	0	0	0	0
102512	07:54:25	10028	Trial2BackFr	N	3	0	1000	1	5	07:54:25	2039328	0	0	0	0	0	0	0	0	0	0	0	0	0	0	0	0	0
102512	07:54:25	10028	Trial2BackFr	N	3	0	1000	1	6	07:54:25	2040834	0	0	0	0	0	0	0	0	0	0	0	0	0	0	0	0	0
102512	07:54:25	10028	Trial2BackFr	N	3	0	1000	1	7	07:54:25	2042340	0	0	0	0	0	0	0	0	0	0	0	0	0	0	0	0	0
102512	07:54:25	10028	Trial2BackFr	N	3	0	1000	1	8	07:54:25	2043846	0	0	0	0	0	0	0	0	0	0	0	0	0	0	0	0	0
102512	07:54:25	10028	Trial2BackFr	Y	3	57	634	1	9	07:54:25	2044992	0	0	0	0	0	0	0	0	0	0	0	0	0	0	0	0	0
102512	07:54:25	10028	Trial2BackFr	N	3	0	1000	1	10	07:54:25	2046858	0	0	0	0	0	0	0	0	0	0	0	0	0	0	0	0	0
102512	07:54:25	10028	Trial2BackFr	N	3	0	1000	1	11	07:54:25	2048365	0	0	0	0	0	0	0	0	0	0	0	0	0	0	0	0	0
102512	07:54:25	10028	Trial2BackFr	N	3	0	1000	1	12	07:54:25	2049870	0	0	0	0	0	0	0	0	0	0	0	0	0	0	0	0	0
102512	07:54:25	10028	Trial2BackFr	Y	3	57	562	1	13	07:54:25	2050950	0	0	0	0	0	0	0	0	0	0	0	0	0	0	0	0	0
102512	07:54:25	10028	Trial2BackFr	N	3	0	1000	1	14	07:54:25	2052883	0	0	0	0	0	0	0	0	0	0	0	0	0	0	0	0	0
102512	07:54:25	10028	Trial2BackFr	N	3	0	1000	1	15	07:54:25	2054402	0	0	0	0	0	0	0	0	0	0	0	0	0	0	0	0	0
102512	07:54:25	10028	Trial2BackFr	N	3	0	1000	1	16	07:54:25	2055908	0	0	0	0	0	0	0	0	0	0	0	0	0	0	0	0	0
102512	07:54:25	10028	Trial2BackFr	N	3	0	1000	1	17	07:54:25	2057428	0	0	0	0	0	0	0	0	0	0	0	0	0	0	0	0	0
102512	07:54:25	10028	Trial2BackFr	N	3	0	1000	1	18	07:54:25	2058934	0	0	0	0	0	0	0	0	0	0	0	0	0	0	0	0	0
102512	07:54:25	10028	Trial2BackFr	Y	3	57	395	1	19	07:54:25	2059840	0	0	0	0	0	0	0	0	0	0	0	0	0	0	0	0	0
102512	07:54:25	10028	Trial2BackFr	N	3	0	1000	1	20	07:54:25	2061946	0	0	0	0	0	0	0	0	0	0	0	0	0	0	0	0	0
102512	07:54:25	10028	Trial2BackFr	N	3	0	1000	1	21	07:54:25	2063465	0	0	0	0	0	0	0	0	0	0	0	0	0	0	0	0	0
102512	07:54:25	10028	Trial2BackFr	N	3	0	1000	1	22	07:54:25	2064971	0	0	0	0	0	0	0	0	0	0	0	0	0	0	0	0	0
102512	07:54:25	10028	Trial2BackFr	N	3	0	1000	1	23	07:54:25	2066478	0	0	0	0	0	0	0	0	0	0	0	0	0	0	0	0	0
102512	07:54:25	10028	Trial2BackFr	Y	3	57	611	1	24	07:54:25	2067597	0	0	0	0	0	0	0	0	0	0	0	0	0	0	0	0	0
102512	07:54:25	10028	Trial2BackFr	N	3	0	1000	1	25	07:54:25	2069490	0	0	0	0	0	0	0	0	0	0	0	0	0	0	0	0	0
102512	07:54:25	10028	Trial2BackFr	N	3	0	1000	1	26	07:54:25	2070996	0	0	0	0	0	0	0	0	0	0	0	0	0	0	0	0	0
102512	07:54:25	10028	Trial2BackFr	N	3	0	1000	1	27	07:54:25	2072502	0	0	0	0	0	0	0	0	0	0	0	0	0	0	0	0	0
102512	07:54:25	10028	Trial2BackFr	N	3	0	1000	1	28	07:54:25	2074048	0	0	0	0	0	0	0	0	0	0	0	0	0	0	0	0	0
102512	07:54:25	10028	Trial2BackFr	N	3	0	1000	1	29	07:54:25	2075554	0	0	0	0	0	0	0	0	0	0	0	0	0	0	0	0	0
102512	07:54:25	10028	Trial2BackFr	N	3	0	1000	1	30	07:54:25	2077060	0	0	0	0	0	0	0	0	0	0	0	0	0	0	0	0	0
102512	07:54:25	10028	Trial2BackFr	Y	3	57	396	1	31	07:54:25	2077966	0	0	0	0	0	0	0	0	0	0	0	0	0	0	0	0	0
102512	07:54:25	10028	Trial2BackFr	N	3	0	1000	1	32	07:54:25	2080072	0	0	0	0	0	0	0	0	0	0	0	0	0	0	0	0	0
102512	07:54:25	10028	Trial2BackFr	N	3	0	1000	1	33	07:54:25	2081591	0	0	0	0	0	0	0	0	0	0	0	0	0	0	0	0	0
102512	07:54:25	10028	Trial2BackFr	N	3	0	1000	1	34	07:54:25	2083098	0	0	0	0	0	0	0	0	0	0	0	0	0	0	0	0	0
102512	07:54:25	10028	Trial2BackFr	Y	3	57	439	1	35	07:54:25	2084044	0	0	0	0	0	0	0	0	0	0	0	0	0	0	0	0	0
102512	07:54:25	10028	Trial2BackFr	N	3	0	1000	1	36	07:54:25	2086110	0	0	0	0	0	0	0	0	0	0	0	0	0	0	0	0	0
102512	07:54:25	10028	Trial2BackFr	N	3	0	1000	1	37	07:54:25	2087629	0	0	0	0	0	0	0	0	0	0	0	0	0	0	0	0	0
102512	07:54:25	10028	Trial2BackFr	N	3	0	1000	1	38	07:54:25	2089135	0	0	0	0	0	0	0	0	0	0	0	0	0	0	0	0	0
102512	07:54:25	10028	Trial2BackFr	N	3	0	1000	1	39	07:54:25	2090641	0	0	0	0	0	0	0	0	0	0	0	0	0	0	0	0	0
102512	07:54:25	10028	Trial2BackFr	N	3	0	1000	1	40	07:54:25	2092147	0	0	0	0	0	0	0	0	0	0	0	0	0	0	0	0	0
102512	07:54:25	10028	Trial2BackFr	N	3	0	1000	1	41	07:54:25	2093653	0	0	0	0	0	0	0	0	0	0	0	0	0	0	0	0	0
102512	07:54:25	10028	Trial2BackFr	Y	3	0	1000	0	41	07:54:25	2095159	0	0	0	0	0	0	0	0	0	0	0	0	0	0	0	0	0
102512	07:54:25	10028	Trial2BackFr	N	3	0	1000	1	42	07:54:25	2096665	0	0	0	0	0	0	0	0	0	0	0	0	0	0	0	0	0
102512	07:54:25	10028	Trial2BackFr	N	3	57	815	0	42	07:54:25	2098038	0	0	0	0	0	0	0	0	0	0	0	0	0	0	0	0	0
102512	07:54:25	10028	Trial2BackFr	N	3	0	1000	1	43	07:54:25	2099691	0	0	0	0	0	0	0	0	0	0	0	0	0	0	0	0	0
102512	07:54:25	10028	Trial2BackFr	N	3	0	1000	1	44	07:54:25	2101197	0	0	0	0	0	0	0	0	0	0	0	0	0	0	0	0	0
102512	07:54:25	10028	Trial2BackFr	Y	3	57	678	1	45	07:54:25	2102396	0	0	0	0	0	0	0	0	0	0	0	0	0	0	0	0	0
102512	07:54:25	10028	Trial2BackFr	N	3	0	1000	1	46	07:54:25	2104222	0	0	0	0	0	0	0	0	0	0	0	0	0	0	0	0	0
102512	07:54:25	10028	Trial2BackFr	N	3	0	1000	1	47	07:54:25	2105728	0	0	0	0	0	0	0	0	0	0	0	0	0	0	0	0	0
102512	07:54:25	10028	Trial2BackFr	N	3	0	1000	1	48	07:54:25	2107235	0	0	0	0	0	0	0	0	0	0	0	0	0	0	0	0	0
102512	07:54:25	10028	Trial2BackFr	N	3	0	1000	1	49	07:54:25	2108741	0	0	0	0	0	0	0	0	0	0	0	0	0	0	0	0	0
102512	07:54:25	10028	Trial2BackFr	N	3	0	1000	1	50	07:54:25	2110247	0	0	0	0	0	0	0	0	0	0	0	0	0	0	0	0	0
102512	07:54:25	10028	Trial2BackFr	Y	3	57	380	1	51	07:54:25	2111153	0	0	0	0	0	0	0	0	0	0	0	0	0	0	0	0	0
102512	07:54:25	10028	Trial2BackFr	N	3	0	1000	1	52	07:54:25	2113272	0	0	0	0	0	0	0	0	0	0	0	0	0	0	0	0	0
102512	07:54:25	10028	Trial2BackFr	N	3	0	1000	1	53	07:54:25	2114778	0	0	0	0	0	0	0	0	0	0	0	0	0	0	0	0	0
102512	07:54:25	10028	Trial2BackFr	N	3	0	1000	1	54	07:54:25	2116311	0	0	0	0	0	0	0	0	0	0	0	0	0	0	0	0	0
102512	07:54:25	10028	Trial2BackFr	N	3	0	1000	1	55	07:54:25	2117817	0	0	0	0	0	0	0	0	0	0	0	0	0	0	0	0	0
102512	07:54:25	10028	Trial2BackFr	N	3	0	1000	1	56	07:54:25	2119323	0	0	0	0	0	0	0	0	0	0	0	0	0	0	0	0	0
102512	07:54:25	10028	Trial2BackFr	N	3	0	1000	1	57	07:54:25	2120829	0	0	0	0	0	0	0	0	0	0	0	0	0	0	0	0	0
102512	07:54:25	10028	Trial2BackFr	Y	3	57	440	1	58	07:54:25	2121816	0	0	0	0	0	0	0	0	0	0	0	0	0	0	0	0	0
102512	07:54:25	10028	Trial2BackFr	N	3	0	1000	1	59	07:54:25	2123868	0	0	0	0	0	0	0	0	0	0	0	0	0	0	0	0	0
102512	07:54:25	10028	Trial2BackFr	N	3	0	1000	1	60	07:54:25	2125374	0	0	0	0	0	0	0	0	0	0	0	0	0	0	0	0	0
102512	07:54:25	10028	Trial2BackFr	Y	3	57	706	1	61	07:54:25	2126600	0	0	0	0	0	0	0	0	0	0	0	0	0	0	0	0	0
102512	07:54:25	10028	Trial2BackFr	N	3	0	1000	1	62	07:54:25	2128386	0	0	0	0	0	0	0	0	0	0	0	0	0	0	0	0	0
102512	07:54:25	10028	Trial2BackFr	N	3	0	1000	1	63	07:54:25	2129892	0	0	0	0	0	0	0	0	0	0	0	0	0	0	0	0	0
102512	07:54:25	10028	Trial2BackFr	N	3	0	1000	1	64	07:54:25	2131398	0	0	0	0	0	0	0	0	0	0	0	0	0	0	0	0	0
102512	07:54:25	10028	Trial2BackFr	N	3	0	1000	1	65	07:54:25	2132904	0	0	0	0	0	0	0	0	0	0	0	0	0	0	0	0	0
102512	07:54:25	10028	Trial2BackFr	N	3	0	1000	1	66	07:54:25	2134410	0	0	0	0	0	0	0	0	0	0	0	0	0	0	0	0	0
102512	07:54:25	10028	Trial2BackFr	N	3	0	1000	1	67	07:54:25	2135917	0	0	0	0	0	0	0	0	0	0	0	0	0	0	0	0	0
102512	07:54:25	10028	Trial2BackFr	N	3	0	1000	1	68	07:54:25	2137423	0	0	0	0	0	0	0	0	0	0	0	0	0	0	0	0	0
102512	07:54:25	10028	Trial2BackFr	N	3	0	1000	1	69	07:54:25	2138929	0	0	0	0	0	0	0	0	0	0	0	0	0	0	0	0	0
102512	07:54:25	10028	Trial2BackFr	N	3	0	1000	1	70	07:54:25	2140448	0	0	0	0	0	0	0	0	0	0	0	0	0	0	0	0	0
102512	07:54:25	10028	Trial2BackFr	N	3	0	1000	1	71	07:54:25	2141954	0	0	0	0	0	0	0	0	0	0	0	0	0	0	0	0	0
102512	07:54:25	10028	Trial2BackFr	Y	3	57	621	1	72	07:54:25	2143087	0	0	0	0	0	0	0	0	0	0	0	0	0	0	0	0	0
102512	07:54:25	10028	Trial2BackFr	N	3	0	1000	1	73	07:54:25	2144966	0	0	0	0	0	0	0	0	0	0	0	0	0	0	0	0	0
102512	07:54:25	10028	Trial2BackFr	N	3	0	1000	1	74	07:54:25	2146472	0	0	0	0	0	0	0	0	0	0	0	0	0	0	0	0	0
102512	07:54:25	10028	Trial2BackFr	N	3	0	1000	1	75	07:54:25	2147979	0	0	0	0	0	0	0	0	0	0	0	0	0	0	0	0	0
102512	07:54:25	10028	Trial2BackFr	Y	3	57	437	1	76	07:54:25	2148925	0	0	0	0	0	0	0	0	0	0	0	0	0	0	0	0	0
102512	07:54:25	10028	Trial2BackFr	N	3	0	1000	1	77	07:54:25	2150991	0	0	0	0	0	0	0	0	0	0	0	0	0	0	0	0	0
102512	07:54:25	10028	Trial2BackFr	N	3	0	1000	1	78	07:54:25	2152497	0	0	0	0	0	0	0	0	0	0	0	0	0	0	0	0	0
102512	07:54:25	10028	Trial2BackFr	N	3	0	1000	1	79	07:54:25	2154003	0	0	0	0	0	0	0	0	0	0	0	0	0	0	0	0	0
102512	07:54:25	10028	Trial2BackFr	N	3	0	1000	1	80	07:54:25	2155522	0	0	0	0	0	0	0	0	0	0	0	0	0	0	0	0	0
102512	07:54:25	10028	Trial2BackFr	N	3	0	1000	1	81	07:54:25	2157028	0	0	0	0	0	0	0	0	0	0	0	0	0	0	0	0	0
102512	07:54:25	10028	Trial2BackFr	Y	3	57	491	1	82	07:54:25	2158028	0	0	0	0	0	0	0	0	0	0	0	0	0	0	0	0	0
102512	07:54:25	10028	Trial2BackFr	N	3	0	1000	1	83	07:54:25	2160040	0	0	0	0	0	0	0	0	0	0	0	0	0	0	0	0	0
102512	07:54:25	10028	Trial2BackFr	N	3	0	1000	1	84	07:54:25	2161547	0	0	0	0	0	0	0	0	0	0	0	0	0	0	0	0	0
102512	07:54:25	10028	Trial2BackFr	N	3	0	1000	1	85	07:54:25	2163053	0	0	0	0	0	0	0	0	0	0	0	0	0	0	0	0	0
102512	07:54:25	10028	Trial2BackFr	N	3	0	1000	1	86	07:54:25	2164559	0	0	0	0	0	0	0	0	0	0	0	0	0	0	0	0	0
102512	07:54:25	10028	Trial2BackFr	N	3	0	1000	1	87	07:54:25	2166065	0	0	0	0	0	0	0	0	0	0	0	0	0	0	0	0	0
102512	07:54:25	10028	Trial2BackFr	N	3	0	1000	1	88	07:54:25	2167571	0	0	0	0	0	0	0	0	0	0	0	0	0	0	0	0	0
102512	07:54:25	10028	Trial2BackFr	N	3	0	1000	1	89	07:54:25	2169077	0	0	0	0	0	0	0	0	0	0	0	0	0	0	0	0	0
102512	07:54:25	10028	Trial2BackFr	N	3	0	1000	1	90	07:54:25	2170583	0	0	0	0	0	0	0	0	0	0	0	0	0	0	0	0	0
102512	07:54:25	10028	Trial2BackFr	N	3	0	1000	1	91	07:54:25	2172089	0	0	0	0	0	0	0	0	0	0	0	0	0	0	0	0	0
102512	07:54:25	10028	Trial2BackFr	Y	3	57	438	1	92	07:54:25	2173035	0	0	0	0	0	0	0	0	0	0	0	0	0	0	0	0	0
102512	07:54:25	10028	Trial2BackFr	N	3	0	1000	1	93	07:54:25	2175101	0	0	0	0	0	0	0	0	0	0	0	0	0	0	0	0	0
102512	07:54:25	10028	Trial2BackFr	N	3	0	1000	1	94	07:54:25	2176607	0	0	0	0	0	0	0	0	0	0	0	0	0	0	0	0	0
102512	07:54:25	10028	Trial2BackFr	N	3	0	1000	1	95	07:54:25	2178113	0	0	0	0	0	0	0	0	0	0	0	0	0	0	0	0	0
102512	07:54:25	10028	Trial2BackFr	N	3	0	1000	1	96	07:54:25	2179619	0	0	0	0	0	0	0	0	0	0	0	0	0	0	0	0	0
102512	07:54:25	10028	Trial2BackFr	N	3	0	1000	1	97	07:54:25	2181126	0	0	0	0	0	0	0	0	0	0	0	0	0	0	0	0	0
102512	07:54:25	10028	Trial2BackFr	N	3	0	1000	1	98	07:54:25	2182632	0	0	0	0	0	0	0	0	0	0	0	0	0	0	0	0	0
102512	07:54:25	10028	Trial2BackFr	N	3	0	1000	1	99	07:54:25	2184138	0	0	0	0	0	0	0	0	0	0	0	0	0	0	0	0	0
102512	07:54:25	10028	Trial2BackFr	N	3	0	1000	1	100	07:54:25	2185644	0	0	0	0	0	0	0	0	0	0	0	0	0	0	0	0	0
102512	07:54:25	10028	Trial2BackFr	Y	3	57	611	1	101	07:54:25	2186763	0	0	0	0	0	0	0	0	0	0	0	0	0	0	0	0	0
102512	07:54:25	10028	Trial2BackFr	N	3	0	1000	1	102	07:54:25	2188656	0	0	0	0	0	0	0	0	0	0	0	0	0	0	0	0	0
102512	07:54:25	10028	Trial2BackFr	N	3	0	1000	1	103	07:54:25	2190162	0	0	0	0	0	0	0	0	0	0	0	0	0	0	0	0	0
102512	07:54:25	10028	Trial2BackFr	N	3	0	1000	1	104	07:54:25	2191668	0	0	0	0	0	0	0	0	0	0	0	0	0	0	0	0	0
102512	07:54:25	10028	Trial2BackFr	N	3	0	1000	1	105	07:54:25	2193187	0	0	0	0	0	0	0	0	0	0	0	0	0	0	0	0	0
102512	07:54:25	10028	Trial2BackFr	Y	3	57	443	1	106	07:54:25	2194147	0	0	0	0	0	0	0	0	0	0	0	0	0	0	0	0	0
102512	07:54:25	10028	Trial2BackFr	N	3	0	1000	1	107	07:54:25	2196200	0	0	0	0	0	0	0	0	0	0	0	0	0	0	0	0	0
102512	07:54:25	10028	Trial2BackFr	N	3	0	1000	1	108	07:54:25	2197706	0	0	0	0	0	0	0	0	0	0	0	0	0	0	0	0	0
102512	07:54:25	10028	Trial2BackFr	N	3	0	1000	1	109	07:54:25	2199212	0	0	0	0	0	0	0	0	0	0	0	0	0	0	0	0	0
102512	07:54:25	10028	Trial2BackFr	Y	3	57	403	1	110	07:54:25	2200131	0	0	0	0	0	0	0	0	0	0	0	0	0	0	0	0	0
102512	07:54:25	10028	Trial2BackFr	N	3	0	1000	1	111	07:54:25	2202224	0	0	0	0	0	0	0	0	0	0	0	0	0	0	0	0	0
102512	07:54:25	10028	Trial2BackFr	N	3	0	1000	1	112	07:54:25	2203743	0	0	0	0	0	0	0	0	0	0	0	0	0	0	0	0	0
102512	07:54:25	10028	Trial2BackFr	N	3	0	1000	1	113	07:54:25	2205249	0	0	0	0	0	0	0	0	0	0	0	0	0	0	0	0	0
102512	07:54:25	10028	Trial2BackFr	N	3	0	1000	1	114	07:54:25	2206755	0	0	0	0	0	0	0	0	0	0	0	0	0	0	0	0	0
102512	07:54:25	10028	Trial2BackFr	N	3	0	1000	1	115	07:54:25	2208261	0	0	0	0	0	0	0	0	0	0	0	0	0	0	0	0	0
102512	07:54:25	10028	Trial2BackFr	Y	3	57	377	1	116	07:54:25	2209154	0	0	0	0	0	0	0	0	0	0	0	0	0	0	0	0	0
102512	07:54:25	10028	Trial2BackFr	N	3	0	1000	1	117	07:54:25	2211274	0	0	0	0	0	0	0	0	0	0	0	0	0	0	0	0	0
102512	07:54:25	10028	Trial2BackFr	N	3	0	1000	1	118	07:54:25	2212780	0	0	0	0	0	0	0	0	0	0	0	0	0	0	0	0	0
102512	07:54:25	10028	Trial2BackFr	N	3	0	1000	1	119	07:54:25	2214286	0	0	0	0	0	0	0	0	0	0	0	0	0	0	0	0	0
102512	07:54:25	10028	Trial2BackFr	Y	3	57	385	1	120	07:54:25	2215179	0	0	0	0	0	0	0	0	0	0	0	0	0	0	0	0	0
102512	07:54:25	10028	Trial3BackFr	NN	4	0	1000	1	120	07:54:25	2243461	0	0	0	0	0	0	0	0	0	0	0	0	0	0	0	0	0
102512	07:54:25	10028	Trial3BackFr	NN	4	0	1000	1	120	07:54:25	2244967	0	0	0	0	0	0	0	0	0	0	0	0	0	0	0	0	0
102512	07:54:25	10028	Trial3BackFr	NN	4	0	1000	1	120	07:54:25	2246486	0	0	0	0	0	0	0	0	0	0	0	0	0	0	0	0	0
102512	07:54:25	10028	Trial3BackFr	YY	4	57	375	1	120	07:54:25	2247379	0	0	0	0	0	0	0	0	0	0	0	0	0	0	0	0	0
102512	07:54:25	10028	Trial3BackFr	NN	4	0	1000	1	120	07:54:25	2249498	0	0	0	0	0	0	0	0	0	0	0	0	0	0	0	0	0
102512	07:54:25	10028	Trial3BackFr	NN	4	0	1000	1	120	07:54:25	2251004	0	0	0	0	0	0	0	0	0	0	0	0	0	0	0	0	0
102512	07:54:25	10028	Trial3BackFr	NN	4	0	1000	1	120	07:54:25	2252511	0	0	0	0	0	0	0	0	0	0	0	0	0	0	0	0	0
102512	07:54:25	10028	Trial3BackFr	NN	4	0	1000	1	120	07:54:25	2254017	0	0	0	0	0	0	0	0	0	0	0	0	0	0	0	0	0
102512	07:54:25	10028	Trial3BackFr	YY	4	57	781	1	120	07:54:25	2255309	0	0	0	0	0	0	0	0	0	0	0	0	0	0	0	0	0
102512	07:54:25	10028	Trial3BackFr	NN	4	0	1000	1	120	07:54:25	2257029	0	0	0	0	0	0	0	0	0	0	0	0	0	0	0	0	0
102512	07:54:25	10028	Trial3BackFr	NN	4	0	1000	1	120	07:54:25	2258535	0	0	0	0	0	0	0	0	0	0	0	0	0	0	0	0	0
102512	07:54:25	10028	Trial3BackFr	NN	4	0	1000	1	120	07:54:25	2260041	0	0	0	0	0	0	0	0	0	0	0	0	0	0	0	0	0
102512	07:54:25	10028	Trial3BackFr	NN	4	0	1000	1	120	07:54:25	2261547	0	0	0	0	0	0	0	0	0	0	0	0	0	0	0	0	0
102512	07:54:25	10028	Trial3BackFr	NN	4	57	883	0	120	07:54:25	2262946	0	0	0	0	0	0	0	0	0	0	0	0	0	0	0	0	0
102512	07:54:25	10028	Trial3BackFr	NN	4	0	1000	1	120	07:54:25	2264559	0	0	0	0	0	0	0	0	0	0	0	0	0	0	0	0	0
102512	07:54:25	10028	Trial3BackFr	NN	4	0	1000	1	120	07:54:25	2266065	0	0	0	0	0	0	0	0	0	0	0	0	0	0	0	0	0
102512	07:54:25	10028	Trial3BackFr	YY	4	0	1000	0	120	07:54:25	2267571	0	0	0	0	0	0	0	0	0	0	0	0	0	0	0	0	0
102512	07:54:25	10028	Trial3BackFr	NN	4	0	1000	1	120	07:54:25	2269077	0	0	0	0	0	0	0	0	0	0	0	0	0	0	0	0	0
102512	07:54:25	10028	Trial3BackFr	NN	4	0	1000	1	120	07:54:25	2270597	0	0	0	0	0	0	0	0	0	0	0	0	0	0	0	0	0
102512	07:54:25	10028	Trial3BackFr	NN	4	0	1000	1	120	07:54:25	2272103	0	0	0	0	0	0	0	0	0	0	0	0	0	0	0	0	0
102512	07:54:25	10028	Trial3BackFr	NN	4	0	1000	1	120	07:54:25	2273609	0	0	0	0	0	0	0	0	0	0	0	0	0	0	0	0	0
102512	07:54:25	10028	Trial3BackFr	NN	4	0	1000	1	120	07:54:25	2275115	0	0	0	0	0	0	0	0	0	0	0	0	0	0	0	0	0
102512	07:54:25	10028	Trial3BackFr	YY	4	57	627	1	120	07:54:25	2276261	0	0	0	0	0	0	0	0	0	0	0	0	0	0	0	0	0
102512	07:54:25	10028	Trial3BackFr	NN	4	0	1000	1	120	07:54:25	2278127	0	0	0	0	0	0	0	0	0	0	0	0	0	0	0	0	0
102512	07:54:25	10028	Trial3BackFr	NN	4	0	1000	1	120	07:54:25	2279633	0	0	0	0	0	0	0	0	0	0	0	0	0	0	0	0	0
102512	07:54:25	10028	Trial3BackFr	NN	4	0	1000	1	120	07:54:25	2281139	0	0	0	0	0	0	0	0	0	0	0	0	0	0	0	0	0
102512	07:54:25	10028	Trial3BackFr	YY	4	57	474	1	120	07:54:25	2282125	0	0	0	0	0	0	0	0	0	0	0	0	0	0	0	0	0
102512	07:54:25	10028	Trial3BackFr	NN	4	0	1000	1	120	07:54:25	2284151	0	0	0	0	0	0	0	0	0	0	0	0	0	0	0	0	0
102512	07:54:25	10028	Trial3BackFr	NN	4	0	1000	1	120	07:54:25	2285657	0	0	0	0	0	0	0	0	0	0	0	0	0	0	0	0	0
102512	07:54:25	10028	Trial3BackFr	NN	4	0	1000	1	120	07:54:25	2287164	0	0	0	0	0	0	0	0	0	0	0	0	0	0	0	0	0
102512	07:54:25	10028	Trial3BackFr	YY	4	57	642	1	120	07:54:25	2288323	0	0	0	0	0	0	0	0	0	0	0	0	0	0	0	0	0
102512	07:54:25	10028	Trial3BackFr	NN	4	0	1000	1	120	07:54:25	2290176	0	0	0	0	0	0	0	0	0	0	0	0	0	0	0	0	0
102512	07:54:25	10028	Trial3BackFr	NN	4	0	1000	1	120	07:54:25	2291682	0	0	0	0	0	0	0	0	0	0	0	0	0	0	0	0	0
102512	07:54:25	10028	Trial3BackFr	NN	4	0	1000	1	120	07:54:25	2293188	0	0	0	0	0	0	0	0	0	0	0	0	0	0	0	0	0
102512	07:54:25	10028	Trial3BackFr	NN	4	57	732	0	120	07:54:25	2294454	0	0	0	0	0	0	0	0	0	0	0	0	0	0	0	0	0
102512	07:54:25	10028	Trial3BackFr	NN	4	0	1000	1	120	07:54:25	2296213	0	0	0	0	0	0	0	0	0	0	0	0	0	0	0	0	0
102512	07:54:25	10028	Trial3BackFr	NN	4	0	1000	1	120	07:54:25	2297719	0	0	0	0	0	0	0	0	0	0	0	0	0	0	0	0	0
102512	07:54:25	10028	Trial3BackFr	NN	4	0	1000	1	120	07:54:25	2299226	0	0	0	0	0	0	0	0	0	0	0	0	0	0	0	0	0
102512	07:54:25	10028	Trial3BackFr	NN	4	0	1000	1	120	07:54:25	2300732	0	0	0	0	0	0	0	0	0	0	0	0	0	0	0	0	0
102512	07:54:25	10028	Trial3BackFr	NN	4	0	1000	1	120	07:54:25	2302238	0	0	0	0	0	0	0	0	0	0	0	0	0	0	0	0	0
102512	07:54:25	10028	Trial3BackFr	NN	4	0	1000	1	120	07:54:25	2303744	0	0	0	0	0	0	0	0	0	0	0	0	0	0	0	0	0
102512	07:54:25	10028	Trial3BackFr	YY	4	57	541	1	120	07:54:25	2304796	0	0	0	0	0	0	0	0	0	0	0	0	0	0	0	0	0
102512	07:54:25	10028	Trial3BackFr	NN	4	0	1000	1	120	07:54:25	2306756	0	0	0	0	0	0	0	0	0	0	0	0	0	0	0	0	0
102512	07:54:25	10028	Trial3BackFr	NN	4	0	1000	1	120	07:54:25	2308262	0	0	0	0	0	0	0	0	0	0	0	0	0	0	0	0	0
102512	07:54:25	10028	Trial3BackFr	NN	4	0	1000	1	120	07:54:25	2309768	0	0	0	0	0	0	0	0	0	0	0	0	0	0	0	0	0
102512	07:54:25	10028	Trial3BackFr	NN	4	0	1000	1	120	07:54:25	2311274	0	0	0	0	0	0	0	0	0	0	0	0	0	0	0	0	0
102512	07:54:25	10028	Trial3BackFr	YY	4	57	515	1	120	07:54:25	2312300	0	0	0	0	0	0	0	0	0	0	0	0	0	0	0	0	0
102512	07:54:25	10028	Trial3BackFr	NN	4	0	1000	1	120	07:54:25	2314286	0	0	0	0	0	0	0	0	0	0	0	0	0	0	0	0	0
102512	07:54:25	10028	Trial3BackFr	NN	4	0	1000	1	120	07:54:25	2315792	0	0	0	0	0	0	0	0	0	0	0	0	0	0	0	0	0
102512	07:54:25	10028	Trial3BackFr	NN	4	0	1000	1	120	07:54:25	2317298	0	0	0	0	0	0	0	0	0	0	0	0	0	0	0	0	0
102512	07:54:25	10028	Trial3BackFr	NN	4	0	1000	1	120	07:54:25	2318804	0	0	0	0	0	0	0	0	0	0	0	0	0	0	0	0	0
102512	07:54:25	10028	Trial3BackFr	NN	4	0	1000	1	120	07:54:25	2320311	0	0	0	0	0	0	0	0	0	0	0	0	0	0	0	0	0
102512	07:54:25	10028	Trial3BackFr	YY	4	0	1000	0	120	07:54:25	2321817	0	0	0	0	0	0	0	0	0	0	0	0	0	0	0	0	0
102512	07:54:25	10028	Trial3BackFr	NN	4	0	1000	1	120	07:54:25	2323336	0	0	0	0	0	0	0	0	0	0	0	0	0	0	0	0	0
102512	07:54:25	10028	Trial3BackFr	NN	4	0	1000	1	120	07:54:25	2324842	0	0	0	0	0	0	0	0	0	0	0	0	0	0	0	0	0
102512	07:54:25	10028	Trial3BackFr	NN	4	0	1000	1	120	07:54:25	2326348	0	0	0	0	0	0	0	0	0	0	0	0	0	0	0	0	0
102512	07:54:25	10028	Trial3BackFr	NN	4	0	1000	1	120	07:54:25	2327854	0	0	0	0	0	0	0	0	0	0	0	0	0	0	0	0	0
102512	07:54:25	10028	Trial3BackFr	NN	4	57	607	0	120	07:54:25	2328974	0	0	0	0	0	0	0	0	0	0	0	0	0	0	0	0	0
102512	07:54:25	10028	Trial3BackFr	NN	4	0	1000	1	120	07:54:25	2330866	0	0	0	0	0	0	0	0	0	0	0	0	0	0	0	0	0
102512	07:54:25	10028	Trial3BackFr	YY	4	0	1000	0	120	07:54:25	2332386	0	0	0	0	0	0	0	0	0	0	0	0	0	0	0	0	0
102512	07:54:25	10028	Trial3BackFr	NN	4	0	1000	1	120	07:54:25	2333892	0	0	0	0	0	0	0	0	0	0	0	0	0	0	0	0	0
102512	07:54:25	10028	Trial3BackFr	NN	4	0	1000	1	120	07:54:25	2335398	0	0	0	0	0	0	0	0	0	0	0	0	0	0	0	0	0
102512	07:54:25	10028	Trial3BackFr	NN	4	0	1000	1	120	07:54:25	2336904	0	0	0	0	0	0	0	0	0	0	0	0	0	0	0	0	0
102512	07:54:25	10028	Trial3BackFr	YY	4	57	597	1	120	07:54:25	2338010	0	0	0	0	0	0	0	0	0	0	0	0	0	0	0	0	0
102512	07:54:25	10028	Trial3BackFr	NN	4	0	1000	1	120	07:54:25	2339916	0	0	0	0	0	0	0	0	0	0	0	0	0	0	0	0	0
102512	07:54:25	10028	Trial3BackFr	NN	4	0	1000	1	120	07:54:25	2341422	0	0	0	0	0	0	0	0	0	0	0	0	0	0	0	0	0
102512	07:54:25	10028	Trial3BackFr	NN	4	0	1000	1	120	07:54:25	2342928	0	0	0	0	0	0	0	0	0	0	0	0	0	0	0	0	0
102512	07:54:25	10028	Trial3BackFr	NN	4	0	1000	1	120	07:54:25	2344434	0	0	0	0	0	0	0	0	0	0	0	0	0	0	0	0	0
102512	07:54:25	10028	Trial3BackFr	NN	4	0	1000	1	120	07:54:25	2345940	0	0	0	0	0	0	0	0	0	0	0	0	0	0	0	0	0
102512	07:54:25	10028	Trial3BackFr	NN	4	0	1000	1	120	07:54:25	2347446	0	0	0	0	0	0	0	0	0	0	0	0	0	0	0	0	0
102512	07:54:25	10028	Trial3BackFr	NN	4	0	1000	1	120	07:54:25	2348952	0	0	0	0	0	0	0	0	0	0	0	0	0	0	0	0	0
102512	07:54:25	10028	Trial3BackFr	NN	4	0	1000	1	120	07:54:25	2350459	0	0	0	0	0	0	0	0	0	0	0	0	0	0	0	0	0
102512	07:54:25	10028	Trial3BackFr	NN	4	0	1000	1	120	07:54:25	2351978	0	0	0	0	0	0	0	0	0	0	0	0	0	0	0	0	0
102512	07:54:25	10028	Trial3BackFr	YY	4	57	706	1	120	07:54:25	2353204	0	0	0	0	0	0	0	0	0	0	0	0	0	0	0	0	0
102512	07:54:25	10028	Trial3BackFr	NN	4	0	1000	1	120	07:54:25	2354990	0	0	0	0	0	0	0	0	0	0	0	0	0	0	0	0	0
102512	07:54:25	10028	Trial3BackFr	NN	4	0	1000	1	120	07:54:25	2356496	0	0	0	0	0	0	0	0	0	0	0	0	0	0	0	0	0
102512	07:54:25	10028	Trial3BackFr	NN	4	0	1000	1	120	07:54:25	2358002	0	0	0	0	0	0	0	0	0	0	0	0	0	0	0	0	0
102512	07:54:25	10028	Trial3BackFr	YY	4	57	538	1	120	07:54:25	2359055	0	0	0	0	0	0	0	0	0	0	0	0	0	0	0	0	0
102512	07:54:25	10028	Trial3BackFr	NN	4	0	1000	1	120	07:54:25	2361014	0	0	0	0	0	0	0	0	0	0	0	0	0	0	0	0	0
102512	07:54:25	10028	Trial3BackFr	NN	4	0	1000	1	120	07:54:25	2362520	0	0	0	0	0	0	0	0	0	0	0	0	0	0	0	0	0
102512	07:54:25	10028	Trial3BackFr	NN	4	0	1000	1	120	07:54:25	2364027	0	0	0	0	0	0	0	0	0	0	0	0	0	0	0	0	0
102512	07:54:25	10028	Trial3BackFr	NN	4	0	1000	1	120	07:54:25	2365533	0	0	0	0	0	0	0	0	0	0	0	0	0	0	0	0	0
102512	07:54:25	10028	Trial3BackFr	NN	4	0	1000	1	120	07:54:25	2367039	0	0	0	0	0	0	0	0	0	0	0	0	0	0	0	0	0
102512	07:54:25	10028	Trial3BackFr	YY	4	57	494	1	120	07:54:25	2368052	0	0	0	0	0	0	0	0	0	0	0	0	0	0	0	0	0
102512	07:54:25	10028	Trial3BackFr	NN	4	0	1000	1	120	07:54:25	2370051	0	0	0	0	0	0	0	0	0	0	0	0	0	0	0	0	0
102512	07:54:25	10028	Trial3BackFr	NN	4	0	1000	1	120	07:54:25	2371557	0	0	0	0	0	0	0	0	0	0	0	0	0	0	0	0	0
102512	07:54:25	10028	Trial3BackFr	NN	4	0	1000	1	120	07:54:25	2373063	0	0	0	0	0	0	0	0	0	0	0	0	0	0	0	0	0
102512	07:54:25	10028	Trial3BackFr	NN	4	0	1000	1	120	07:54:25	2374569	0	0	0	0	0	0	0	0	0	0	0	0	0	0	0	0	0
102512	07:54:25	10028	Trial3BackFr	NN	4	0	1000	1	120	07:54:25	2376075	0	0	0	0	0	0	0	0	0	0	0	0	0	0	0	0	0
102512	07:54:25	10028	Trial3BackFr	NN	4	0	1000	1	120	07:54:25	2377581	0	0	0	0	0	0	0	0	0	0	0	0	0	0	0	0	0
102512	07:54:25	10028	Trial3BackFr	NN	4	0	1000	1	120	07:54:25	2379087	0	0	0	0	0	0	0	0	0	0	0	0	0	0	0	0	0
102512	07:54:25	10028	Trial3BackFr	NN	4	0	1000	1	120	07:54:25	2380593	0	0	0	0	0	0	0	0	0	0	0	0	0	0	0	0	0
102512	07:54:25	10028	Trial3BackFr	NN	4	0	1000	1	120	07:54:25	2382100	0	0	0	0	0	0	0	0	0	0	0	0	0	0	0	0	0
102512	07:54:25	10028	Trial3BackFr	YY	4	0	1000	0	120	07:54:25	2383605	0	0	0	0	0	0	0	0	0	0	0	0	0	0	0	0	0
102512	07:54:25	10028	Trial3BackFr	NN	4	0	1000	1	120	07:54:25	2385112	0	0	0	0	0	0	0	0	0	0	0	0	0	0	0	0	0
102512	07:54:25	10028	Trial3BackFr	NN	4	0	1000	1	120	07:54:25	2386618	0	0	0	0	0	0	0	0	0	0	0	0	0	0	0	0	0
102512	07:54:25	10028	Trial3BackFr	NN	4	0	1000	1	120	07:54:25	2388124	0	0	0	0	0	0	0	0	0	0	0	0	0	0	0	0	0
102512	07:54:25	10028	Trial3BackFr	NN	4	0	1000	1	120	07:54:25	2389630	0	0	0	0	0	0	0	0	0	0	0	0	0	0	0	0	0
102512	07:54:25	10028	Trial3BackFr	NN	4	0	1000	1	120	07:54:25	2391136	0	0	0	0	0	0	0	0	0	0	0	0	0	0	0	0	0
102512	07:54:25	10028	Trial3BackFr	NN	4	0	1000	1	120	07:54:25	2392642	0	0	0	0	0	0	0	0	0	0	0	0	0	0	0	0	0
102512	07:54:25	10028	Trial3BackFr	NN	4	0	1000	1	120	07:54:25	2394148	0	0	0	0	0	0	0	0	0	0	0	0	0	0	0	0	0
102512	07:54:25	10028	Trial3BackFr	NN	4	0	1000	1	120	07:54:25	2395654	0	0	0	0	0	0	0	0	0	0	0	0	0	0	0	0	0
102512	07:54:25	10028	Trial3BackFr	YY	4	57	806	1	120	07:54:25	2396973	0	0	0	0	0	0	0	0	0	0	0	0	0	0	0	0	0
102512	07:54:25	10028	Trial3BackFr	NN	4	0	1000	1	120	07:54:25	2398666	0	0	0	0	0	0	0	0	0	0	0	0	0	0	0	0	0
102512	07:54:25	10028	Trial3BackFr	NN	4	0	1000	1	120	07:54:25	2400172	0	0	0	0	0	0	0	0	0	0	0	0	0	0	0	0	0
102512	07:54:25	10028	Trial3BackFr	NN	4	0	1000	1	120	07:54:25	2401678	0	0	0	0	0	0	0	0	0	0	0	0	0	0	0	0	0
102512	07:54:25	10028	Trial3BackFr	NN	4	0	1000	1	120	07:54:25	2403184	0	0	0	0	0	0	0	0	0	0	0	0	0	0	0	0	0
102512	07:54:25	10028	Trial3BackFr	YY	4	57	571	1	120	07:54:25	2404264	0	0	0	0	0	0	0	0	0	0	0	0	0	0	0	0	0
102512	07:54:25	10028	Trial3BackFr	NN	4	0	1000	1	120	07:54:25	2406197	0	0	0	0	0	0	0	0	0	0	0	0	0	0	0	0	0
102512	07:54:25	10028	Trial3BackFr	NN	4	0	1000	1	120	07:54:25	2407703	0	0	0	0	0	0	0	0	0	0	0	0	0	0	0	0	0
102512	07:54:25	10028	Trial3BackFr	NN	4	0	1000	1	120	07:54:25	2409209	0	0	0	0	0	0	0	0	0	0	0	0	0	0	0	0	0
102512	07:54:25	10028	Trial3BackFr	YY	4	0	1000	0	120	07:54:25	2410715	0	0	0	0	0	0	0	0	0	0	0	0	0	0	0	0	0
102512	07:54:25	10028	Trial3BackFr	NN	4	57	753	0	120	07:54:25	2411981	0	0	0	0	0	0	0	0	0	0	0	0	0	0	0	0	0
102512	07:54:25	10028	Trial3BackFr	NN	4	0	1000	1	120	07:54:25	2413727	0	0	0	0	0	0	0	0	0	0	0	0	0	0	0	0	0
102512	07:54:25	10028	Trial3BackFr	NN	4	0	1000	1	120	07:54:25	2415233	0	0	0	0	0	0	0	0	0	0	0	0	0	0	0	0	0
102512	07:54:25	10028	Trial3BackFr	NN	4	0	1000	1	120	07:54:25	2416739	0	0	0	0	0	0	0	0	0	0	0	0	0	0	0	0	0
102512	07:54:25	10028	Trial3BackFr	NN	4	0	1000	1	120	07:54:25	2418245	0	0	0	0	0	0	0	0	0	0	0	0	0	0	0	0	0
102512	07:54:25	10028	Trial3BackFr	YY	4	0	1000	0	120	07:54:25	2419751	0	0	0	0	0	0	0	0	0	0	0	0	0	0	0	0	0
102512	07:54:25	10028	Trial3BackFr	NN	4	0	1000	1	120	07:54:25	2421257	0	0	0	0	0	0	0	0	0	0	0	0	0	0	0	0	0
102512	07:54:25	10028	Trial3BackFr	NN	4	0	1000	1	120	07:54:25	2422763	0	0	0	0	0	0	0	0	0	0	0	0	0	0	0	0	0
102512	07:54:25	10028	Trial3BackFr	NN	4	0	1000	1	120	07:54:25	2424269	0	0	0	0	0	0	0	0	0	0	0	0	0	0	0	0	0
102512	07:54:25	10028	Trial3BackFr	YY	4	57	574	1	120	07:54:25	2425362	0	0	0	0	0	0	0	0	0	0	0	0	0	0	0	0	0
102512	07:54:25	10028	Memory1R3moFr	ScoreFr	5	M1	17383	0	120	07:54:25	2539451	0	0	0	0	0	0	0	0	0	0	0	0	0	0	0	0	0
102512	07:54:25	10028	Memory1R3moFr	ScoreFr	5	M2	262	0	120	07:54:25	2539757	0	0	0	0	0	0	0	0	0	0	0	0	0	0	0	0	0
102512	07:54:25	10028	Memory1R3moFr	ScoreFr	5	M5	1811	0	120	07:54:25	2541623	0	0	0	0	0	0	0	0	0	0	0	0	0	0	0	0	0
102512	07:54:25	10028	Memory1R3moFr	ScoreFr	5	M8	665	0	120	07:54:25	2542343	0	0	0	0	0	0	0	0	0	0	0	0	0	0	0	0	0
102512	07:54:25	10028	Memory1R3moFr	ScoreFr	5	M7	7409	0	120	07:54:25	2549807	0	0	0	0	0	0	0	0	0	0	0	0	0	0	0	0	0
102512	07:54:25	10028	Memory1R3moFr	ScoreFr	5	M6	8209	0	120	07:54:25	2558070	0	0	0	0	0	0	0	0	0	0	0	0	0	0	0	0	0
102512	07:54:25	10028	Memory1R3moFr	ScoreFr	5	Done	18930	0	120	07:54:25	2577049	0	0	0	0	0	0	0	0	0	0	0	0	0	0	0	0	0
102512	07:54:25	10028	Memory2R3moFr	ScoreFr2	5	11	8426	0	120	07:54:25	2603426	0	0	0	0	0	0	0	0	0	0	0	0	0	0	0	0	0
102512	07:54:25	10028	Memory2R3moFr	ScoreFr2	5	22	190	0	120	07:54:25	2603665	0	0	0	0	0	0	0	0	0	0	0	0	0	0	0	0	0
102512	07:54:25	10028	Memory2R3moFr	ScoreFr2	5	33	214	0	120	07:54:25	2603932	0	0	0	0	0	0	0	0	0	0	0	0	0	0	0	0	0
102512	07:54:25	10028	Memory2R3moFr	ScoreFr2	5	33	203	0	120	07:54:25	2604185	0	0	0	0	0	0	0	0	0	0	0	0	0	0	0	0	0
102512	07:54:25	10028	Memory2R3moFr	ScoreFr2	5	33	438	0	120	07:54:25	2604678	0	0	0	0	0	0	0	0	0	0	0	0	0	0	0	0	0
102512	07:54:25	10028	Memory2R3moFr	ScoreFr2	5	44	220	0	120	07:54:25	2604958	0	0	0	0	0	0	0	0	0	0	0	0	0	0	0	0	0
102512	07:54:25	10028	Memory2R3moFr	ScoreFr2	5	55	193	0	120	07:54:25	2605198	0	0	0	0	0	0	0	0	0	0	0	0	0	0	0	0	0
102512	07:54:25	10028	Memory2R3moFr	ScoreFr2	5	66	209	0	120	07:54:25	2605451	0	0	0	0	0	0	0	0	0	0	0	0	0	0	0	0	0
102512	07:54:25	10028	Memory2R3moFr	ScoreFr2	5	77	420	0	120	07:54:25	2605918	0	0	0	0	0	0	0	0	0	0	0	0	0	0	0	0	0
102512	07:54:25	10028	Memory2R3moFr	ScoreFr2	5	88	282	0	120	07:54:25	2606251	0	0	0	0	0	0	0	0	0	0	0	0	0	0	0	0	0
102512	07:54:25	10028	Memory2R3moFr	ScoreFr2	5	Done	796	0	120	07:54:25	2607104	0	0	0	0	0	0	0	0	0	0	0	0	0	0	0	0	0
102512	07:54:25	10028	Memory3R3moFr	ScoreFr3	5	111	7430	0	120	07:54:25	2632614	0	0	0	0	0	0	0	0	0	0	0	0	0	0	0	0	0
102512	07:54:25	10028	Memory3R3moFr	ScoreFr3	5	222	217	0	120	07:54:25	2632881	0	0	0	0	0	0	0	0	0	0	0	0	0	0	0	0	0
102512	07:54:25	10028	Memory3R3moFr	ScoreFr3	5	333	263	0	120	07:54:25	2633187	0	0	0	0	0	0	0	0	0	0	0	0	0	0	0	0	0
102512	07:54:25	10028	Memory3R3moFr	ScoreFr3	5	444	246	0	120	07:54:25	2633494	0	0	0	0	0	0	0	0	0	0	0	0	0	0	0	0	0
102512	07:54:25	10028	Memory3R3moFr	ScoreFr3	5	555	289	0	120	07:54:25	2633827	0	0	0	0	0	0	0	0	0	0	0	0	0	0	0	0	0
102512	07:54:25	10028	Memory3R3moFr	ScoreFr3	5	666	300	0	120	07:54:25	2634174	0	0	0	0	0	0	0	0	0	0	0	0	0	0	0	0	0
102512	07:54:25	10028	Memory3R3moFr	ScoreFr3	5	777	300	0	120	07:54:25	2634533	0	0	0	0	0	0	0	0	0	0	0	0	0	0	0	0	0
102512	07:54:25	10028	Memory3R3moFr	ScoreFr3	5	888	474	0	120	07:54:25	2635053	0	0	0	0	0	0	0	0	0	0	0	0	0	0	0	0	0
102512	07:54:25	10028	Memory3R3moFr	ScoreFr3	5	Done	898	0	120	07:54:25	2636000	0	0	0	0	0	0	0	0	0	0	0	0	0	0	0	0	0
102512	07:54:25	10028	LoriaFrLH3	Stop	6	11	3829	0	120	07:54:25	2711345	0	0	0	0	0	0	0	0	0	0	0	0	0	0	0	0	0
102512	07:54:25	10028	FrTrail	Trails	7	1Trails	1537	0	120	07:54:25	2729856	0	0	0	0	0	0	0	0	0	0	0	0	0	0	0	0	0
102512	07:54:25	10028	Serial7Fr3mo	Serial7Fr3mo	8	83	6128	0	120	07:54:25	2754460	1	0	0	0	0	0	0	0	0	0	0	0	0	0	0	0	0
102512	07:54:25	10028	Serial7Fr3mo	Serial7Fr3mo	8	76	2700	0	120	07:54:25	2757182	2	0	0	0	0	0	0	0	0	0	0	0	0	0	0	0	0
102512	07:54:25	10028	Serial7Fr3mo	Serial7Fr3mo	8	69	2355	0	120	07:54:25	2759552	3	0	0	0	0	0	0	0	0	0	0	0	0	0	0	0	0
102512	07:54:25	10028	Serial7Fr3mo	Serial7Fr3mo	8	62	2057	0	120	07:54:25	2761632	4	0	0	0	0	0	0	0	0	0	0	0	0	0	0	0	0
102512	07:54:25	10028	Serial7Fr3mo	Serial7Fr3mo	8	55	2280	0	120	07:54:25	2763938	5	0	0	0	0	0	0	0	0	0	0	0	0	0	0	0	0
102512	07:54:25	10028	corsiblockFrFwrd	recallseqFrFwrd	9	5	4877	0	120	07:54:25	2811132	5	0	0	0	0	0	0	0	0	0	0	0	0	0	0	0	0
102512	07:54:25	10028	corsiblockFrFwrd	recallseqFrFwrd	9	8	474	0	120	07:54:25	2811652	5	0	0	0	0	0	0	0	0	0	0	0	0	0	0	0	0
102512	07:54:25	10028	corsiblockFrFwrd	recallseqFrFwrd	9	doneCorsiFr	1434	0	120	07:54:25	2813131	5	0	0	0	0	0	0	0	0	0	0	0	0	0	0	2	0
102512	07:54:25	10028	corsiblockFrFwrd	recallseqFrFwrd	9	7	834	0	120	07:54:25	2820075	5	0	0	0	0	0	0	0	0	0	0	0	0	0	0	2	0
102512	07:54:25	10028	corsiblockFrFwrd	recallseqFrFwrd	9	4	819	0	120	07:54:25	2820942	5	0	0	0	0	0	0	0	0	0	0	0	0	0	0	2	0
102512	07:54:25	10028	corsiblockFrFwrd	recallseqFrFwrd	9	9	1072	0	120	07:54:25	2822061	5	0	0	0	0	0	0	0	0	0	0	0	0	0	0	2	0
102512	07:54:25	10028	corsiblockFrFwrd	recallseqFrFwrd	9	doneCorsiFr	1369	0	120	07:54:25	2823487	5	0	0	0	0	0	0	0	0	0	0	0	0	0	0	3	0
102512	07:54:25	10028	corsiblockFrFwrd	recallseqFrFwrd	9	2	665	0	120	07:54:25	2831284	5	0	0	0	0	0	0	0	0	0	0	0	0	0	0	3	0
102512	07:54:25	10028	corsiblockFrFwrd	recallseqFrFwrd	9	6	738	0	120	07:54:25	2832071	5	0	0	0	0	0	0	0	0	0	0	0	0	0	0	3	0
102512	07:54:25	10028	corsiblockFrFwrd	recallseqFrFwrd	9	3	663	0	120	07:54:25	2832790	5	0	0	0	0	0	0	0	0	0	0	0	0	0	0	3	0
102512	07:54:25	10028	corsiblockFrFwrd	recallseqFrFwrd	9	1	456	0	120	07:54:25	2833297	5	0	0	0	0	0	0	0	0	0	0	0	0	0	0	3	0
102512	07:54:25	10028	corsiblockFrFwrd	recallseqFrFwrd	9	doneCorsiFr	1021	0	120	07:54:25	2834363	5	0	0	0	0	0	0	0	0	0	0	0	0	0	0	4	0
102512	07:54:25	10028	corsiblockFrFwrd	recallseqFrFwrd	9	9	701	0	120	07:54:25	2843186	5	0	0	0	0	0	0	0	0	0	0	0	0	0	0	4	0
102512	07:54:25	10028	corsiblockFrFwrd	recallseqFrFwrd	9	3	790	0	120	07:54:25	2844039	5	0	0	0	0	0	0	0	0	0	0	0	0	0	0	4	0
102512	07:54:25	10028	corsiblockFrFwrd	recallseqFrFwrd	9	1	734	0	120	07:54:25	2844826	5	0	0	0	0	0	0	0	0	0	0	0	0	0	0	4	0
102512	07:54:25	10028	corsiblockFrFwrd	recallseqFrFwrd	9	8	764	0	120	07:54:25	2845639	5	0	0	0	0	0	0	0	0	0	0	0	0	0	0	4	0
102512	07:54:25	10028	corsiblockFrFwrd	recallseqFrFwrd	9	5	479	0	120	07:54:25	2846172	5	0	0	0	0	0	0	0	0	0	0	0	0	0	0	4	0
102512	07:54:25	10028	corsiblockFrFwrd	recallseqFrFwrd	9	doneCorsiFr	818	0	120	07:54:25	2847038	5	0	0	0	0	0	0	0	0	0	0	0	0	0	0	4	0
102512	07:54:25	10028	corsiblockFrFwrd	recallseqFrFwrd	9	4	955	0	120	07:54:25	2856074	5	0	0	0	0	0	0	0	0	0	0	0	0	0	0	4	0
102512	07:54:25	10028	corsiblockFrFwrd	recallseqFrFwrd	9	7	537	0	120	07:54:25	2856661	5	0	0	0	0	0	0	0	0	0	0	0	0	0	0	4	0
102512	07:54:25	10028	corsiblockFrFwrd	recallseqFrFwrd	9	2	705	0	120	07:54:25	2857421	5	0	0	0	0	0	0	0	0	0	0	0	0	0	0	4	0
102512	07:54:25	10028	corsiblockFrFwrd	recallseqFrFwrd	9	6	705	0	120	07:54:25	2858180	5	0	0	0	0	0	0	0	0	0	0	0	0	0	0	4	0
102512	07:54:25	10028	corsiblockFrFwrd	recallseqFrFwrd	9	3	641	0	120	07:54:25	2858873	5	0	0	0	0	0	0	0	0	0	0	0	0	0	0	4	0
102512	07:54:25	10028	corsiblockFrFwrd	recallseqFrFwrd	9	doneCorsiFr	900	0	120	07:54:25	2859820	5	0	0	0	0	0	0	0	0	0	0	0	0	0	0	5	0
102512	07:54:25	10028	corsiblockFrFwrd	recallseqFrFwrd	9	6	1786	0	120	07:54:25	2869722	5	0	0	0	0	0	0	0	0	0	0	0	0	0	0	5	0
102512	07:54:25	10028	corsiblockFrFwrd	recallseqFrFwrd	9	9	1147	0	120	07:54:25	2870922	5	0	0	0	0	0	0	0	0	0	0	0	0	0	0	5	0
102512	07:54:25	10028	corsiblockFrFwrd	recallseqFrFwrd	9	2	804	0	120	07:54:25	2871775	5	0	0	0	0	0	0	0	0	0	0	0	0	0	0	5	0
102512	07:54:25	10028	corsiblockFrFwrd	recallseqFrFwrd	9	8	655	0	120	07:54:25	2872481	5	0	0	0	0	0	0	0	0	0	0	0	0	0	0	5	0
102512	07:54:25	10028	corsiblockFrFwrd	recallseqFrFwrd	9	7	676	0	120	07:54:25	2873214	5	0	0	0	0	0	0	0	0	0	0	0	0	0	0	5	0
102512	07:54:25	10028	corsiblockFrFwrd	recallseqFrFwrd	9	4	663	0	120	07:54:25	2873934	5	0	0	0	0	0	0	0	0	0	0	0	0	0	0	5	0
102512	07:54:25	10028	corsiblockFrFwrd	recallseqFrFwrd	9	doneCorsiFr	975	0	120	07:54:25	2874961	5	0	0	0	0	0	0	0	0	0	0	0	0	0	0	5	0
102512	07:54:25	10028	corsiblockFrFwrd	recallseqFrFwrd	9	resetCorsiFr	952	0	120	07:54:25	2884996	5	0	0	0	0	0	0	0	0	0	0	0	0	0	0	5	0
102512	07:54:25	10028	corsiblockFrFwrd	recallseqFrFwrd	9	resetCorsiFr	1769	0	120	07:54:25	2886822	5	0	0	0	0	0	0	0	0	0	0	0	0	0	0	5	0
102512	07:54:25	10028	corsiblockFrFwrd	recallseqFrFwrd	9	resetCorsiFr	2815	0	120	07:54:25	2889688	5	0	0	0	0	0	0	0	0	0	0	0	0	0	0	5	0
102512	07:54:25	10028	corsiblockFrFwrd	recallseqFrFwrd	9	4	2901	0	120	07:54:25	2892633	5	0	0	0	0	0	0	0	0	0	0	0	0	0	0	5	0
102512	07:54:25	10028	corsiblockFrFwrd	recallseqFrFwrd	9	5	692	0	120	07:54:25	2893380	5	0	0	0	0	0	0	0	0	0	0	0	0	0	0	5	0
102512	07:54:25	10028	corsiblockFrFwrd	recallseqFrFwrd	9	8	1186	0	120	07:54:25	2894619	5	0	0	0	0	0	0	0	0	0	0	0	0	0	0	5	0
102512	07:54:25	10028	corsiblockFrFwrd	recallseqFrFwrd	9	2	665	0	120	07:54:25	2895339	5	0	0	0	0	0	0	0	0	0	0	0	0	0	0	5	0
102512	07:54:25	10028	corsiblockFrFwrd	recallseqFrFwrd	9	1	578	0	120	07:54:25	2895965	5	0	0	0	0	0	0	0	0	0	0	0	0	0	0	5	0
102512	07:54:25	10028	corsiblockFrFwrd	recallseqFrFwrd	9	6	594	0	120	07:54:25	2896619	5	0	0	0	0	0	0	0	0	0	0	0	0	0	0	5	0
102512	07:54:25	10028	corsiblockFrFwrd	recallseqFrFwrd	9	doneCorsiFr	1195	0	120	07:54:25	2897858	5	0	0	0	0	0	0	0	0	0	0	0	0	0	0	5	0
102512	07:54:25	10028	corsiblockFrRev	recallseqFrRev	10	4	956	0	120	07:54:25	2915638	5	0	0	0	0	0	0	0	0	0	0	0	0	0	0	5	0
102512	07:54:25	10028	corsiblockFrRev	recallseqFrRev	10	5	519	0	120	07:54:25	2916211	5	0	0	0	0	0	0	0	0	0	0	0	0	0	0	5	0
102512	07:54:25	10028	corsiblockFrRev	recallseqFrRev	10	doneCorsiFr	930	0	120	07:54:25	2917197	5	0	0	0	0	0	0	0	0	0	0	0	0	0	0	5	2
102512	07:54:25	10028	corsiblockFrRev	recallseqFrRev	10	8	1189	0	120	07:54:25	2924528	5	0	0	0	0	0	0	0	0	0	0	0	0	0	0	5	2
102512	07:54:25	10028	corsiblockFrRev	recallseqFrRev	10	2	517	0	120	07:54:25	2925101	5	0	0	0	0	0	0	0	0	0	0	0	0	0	0	5	2
102512	07:54:25	10028	corsiblockFrRev	recallseqFrRev	10	7	576	0	120	07:54:25	2925727	5	0	0	0	0	0	0	0	0	0	0	0	0	0	0	5	2
102512	07:54:25	10028	corsiblockFrRev	recallseqFrRev	10	doneCorsiFr	942	0	120	07:54:25	2926713	5	0	0	0	0	0	0	0	0	0	0	0	0	0	0	5	3
102512	07:54:25	10028	corsiblockFrRev	recallseqFrRev	10	3	689	0	120	07:54:25	2934577	5	0	0	0	0	0	0	0	0	0	0	0	0	0	0	5	3
102512	07:54:25	10028	corsiblockFrRev	recallseqFrRev	10	9	595	0	120	07:54:25	2935217	5	0	0	0	0	0	0	0	0	0	0	0	0	0	0	5	3
102512	07:54:25	10028	corsiblockFrRev	recallseqFrRev	10	1	716	0	120	07:54:25	2935990	5	0	0	0	0	0	0	0	0	0	0	0	0	0	0	5	3
102512	07:54:25	10028	corsiblockFrRev	recallseqFrRev	10	6	575	0	120	07:54:25	2936616	5	0	0	0	0	0	0	0	0	0	0	0	0	0	0	5	3
102512	07:54:25	10028	corsiblockFrRev	recallseqFrRev	10	doneCorsiFr	684	0	120	07:54:25	2937349	5	0	0	0	0	0	0	0	0	0	0	0	0	0	0	5	4
102512	07:54:25	10028	corsiblockFrRev	recallseqFrRev	10	9	1683	0	120	07:54:25	2947199	5	0	0	0	0	0	0	0	0	0	0	0	0	0	0	5	4
102512	07:54:25	10028	corsiblockFrRev	recallseqFrRev	10	6	886	0	120	07:54:25	2948132	5	0	0	0	0	0	0	0	0	0	0	0	0	0	0	5	4
102512	07:54:25	10028	corsiblockFrRev	recallseqFrRev	10	2	1368	0	120	07:54:25	2949544	5	0	0	0	0	0	0	0	0	0	0	0	0	0	0	5	4
102512	07:54:25	10028	corsiblockFrRev	recallseqFrRev	10	1	740	0	120	07:54:25	2950331	5	0	0	0	0	0	0	0	0	0	0	0	0	0	0	5	4
102512	07:54:25	10028	corsiblockFrRev	recallseqFrRev	10	4	690	0	120	07:54:25	2951077	5	0	0	0	0	0	0	0	0	0	0	0	0	0	0	5	4
102512	07:54:25	10028	corsiblockFrRev	recallseqFrRev	10	doneCorsiFr	719	0	120	07:54:25	2951850	5	0	0	0	0	0	0	0	0	0	0	0	0	0	0	5	5
102512	07:54:25	10028	corsiblockFrRev	recallseqFrRev	10	2	950	0	120	07:54:25	2961966	5	0	0	0	0	0	0	0	0	0	0	0	0	0	0	5	5
102512	07:54:25	10028	corsiblockFrRev	recallseqFrRev	10	6	686	0	120	07:54:25	2962699	5	0	0	0	0	0	0	0	0	0	0	0	0	0	0	5	5
102512	07:54:25	10028	corsiblockFrRev	recallseqFrRev	10	8	849	0	120	07:54:25	2963592	5	0	0	0	0	0	0	0	0	0	0	0	0	0	0	5	5
102512	07:54:25	10028	corsiblockFrRev	recallseqFrRev	10	7	708	0	120	07:54:25	2964352	5	0	0	0	0	0	0	0	0	0	0	0	0	0	0	5	5
102512	07:54:25	10028	corsiblockFrRev	recallseqFrRev	10	5	648	0	120	07:54:25	2965058	5	0	0	0	0	0	0	0	0	0	0	0	0	0	0	5	5
102512	07:54:25	10028	corsiblockFrRev	recallseqFrRev	10	3	537	0	120	07:54:25	2965645	5	0	0	0	0	0	0	0	0	0	0	0	0	0	0	5	5
102512	07:54:25	10028	corsiblockFrRev	recallseqFrRev	10	doneCorsiFr	624	0	120	07:54:25	2966324	5	0	0	0	0	0	0	0	0	0	0	0	0	0	0	5	5
102512	07:54:25	10028	corsiblockFrRev	recallseqFrRev	10	4	1657	0	120	07:54:25	2977094	5	0	0	0	0	0	0	0	0	0	0	0	0	0	0	5	5
102512	07:54:25	10028	corsiblockFrRev	recallseqFrRev	10	7	1271	0	120	07:54:25	2978413	5	0	0	0	0	0	0	0	0	0	0	0	0	0	0	5	5
102512	07:54:25	10028	corsiblockFrRev	recallseqFrRev	10	1	991	0	120	07:54:25	2979453	5	0	0	0	0	0	0	0	0	0	0	0	0	0	0	5	5
102512	07:54:25	10028	corsiblockFrRev	recallseqFrRev	10	8	784	0	120	07:54:25	2980292	5	0	0	0	0	0	0	0	0	0	0	0	0	0	0	5	5
102512	07:54:25	10028	corsiblockFrRev	recallseqFrRev	10	5	472	0	120	07:54:25	2980812	5	0	0	0	0	0	0	0	0	0	0	0	0	0	0	5	5
102512	07:54:25	10028	corsiblockFrRev	recallseqFrRev	10	3	576	0	120	07:54:25	2981438	5	0	0	0	0	0	0	0	0	0	0	0	0	0	0	5	5
102512	07:54:25	10028	corsiblockFrRev	recallseqFrRev	10	doneCorsiFr	1100	0	120	07:54:25	2982611	5	0	0	0	0	0	0	0	0	0	0	0	0	0	0	5	6
102512	07:54:25	10028	corsiblockFrRev	recallseqFrRev	10	6	1033	0	120	07:54:25	2992794	5	0	0	0	0	0	0	0	0	0	0	0	0	0	0	5	6
102512	07:54:25	10028	corsiblockFrRev	recallseqFrRev	10	8	713	0	120	07:54:25	2993554	5	0	0	0	0	0	0	0	0	0	0	0	0	0	0	5	6
102512	07:54:25	10028	corsiblockFrRev	recallseqFrRev	10	5	1242	0	120	07:54:25	2994847	5	0	0	0	0	0	0	0	0	0	0	0	0	0	0	5	6
102512	07:54:25	10028	corsiblockFrRev	recallseqFrRev	10	3	917	0	120	07:54:25	2995819	5	0	0	0	0	0	0	0	0	0	0	0	0	0	0	5	6
102512	07:54:25	10028	corsiblockFrRev	recallseqFrRev	10	7	1472	0	120	07:54:25	2997339	5	0	0	0	0	0	0	0	0	0	0	0	0	0	0	5	6
102512	07:54:25	10028	corsiblockFrRev	recallseqFrRev	10	9	626	0	120	07:54:25	2998019	5	0	0	0	0	0	0	0	0	0	0	0	0	0	0	5	6
102512	07:54:25	10028	corsiblockFrRev	recallseqFrRev	10	1	672	0	120	07:54:25	2998765	5	0	0	0	0	0	0	0	0	0	0	0	0	0	0	5	6
102512	07:54:25	10028	corsiblockFrRev	recallseqFrRev	10	doneCorsiFr	1063	0	120	07:54:25	2999885	5	0	0	0	0	0	0	0	0	0	0	0	0	0	0	5	6
102512	07:54:25	10028	corsiblockFrRev	recallseqFrRev	10	5	807	0	120	07:54:25	3010800	5	0	0	0	0	0	0	0	0	0	0	0	0	0	0	5	6
102512	07:54:25	10028	corsiblockFrRev	recallseqFrRev	10	3	606	0	120	07:54:25	3011480	5	0	0	0	0	0	0	0	0	0	0	0	0	0	0	5	6
102512	07:54:25	10028	corsiblockFrRev	recallseqFrRev	10	4	1676	0	120	07:54:25	3013213	5	0	0	0	0	0	0	0	0	0	0	0	0	0	0	5	6
102512	07:54:25	10028	corsiblockFrRev	recallseqFrRev	10	2	567	0	120	07:54:25	3013826	5	0	0	0	0	0	0	0	0	0	0	0	0	0	0	5	6
102512	07:54:25	10028	corsiblockFrRev	recallseqFrRev	10	9	1289	0	120	07:54:25	3015172	5	0	0	0	0	0	0	0	0	0	0	0	0	0	0	5	6
102512	07:54:25	10028	corsiblockFrRev	recallseqFrRev	10	4	736	0	120	07:54:25	3015958	5	0	0	0	0	0	0	0	0	0	0	0	0	0	0	5	6
102512	07:54:25	10028	corsiblockFrRev	recallseqFrRev	10	2	349	0	120	07:54:25	3016358	5	0	0	0	0	0	0	0	0	0	0	0	0	0	0	5	6
102512	07:54:25	10028	corsiblockFrRev	recallseqFrRev	10	doneCorsiFr	1070	0	120	07:54:25	3017478	5	0	0	0	0	0	0	0	0	0	0	0	0	0	0	5	7
102512	07:54:25	10028	corsiblockFrRev	recallseqFrRev	10	5	903	0	120	07:54:25	3028527	5	0	0	0	0	0	0	0	0	0	0	0	0	0	0	5	7
102512	07:54:25	10028	corsiblockFrRev	recallseqFrRev	10	4	429	0	120	07:54:25	3029006	5	0	0	0	0	0	0	0	0	0	0	0	0	0	0	5	7
102512	07:54:25	10028	corsiblockFrRev	recallseqFrRev	10	9	2069	0	120	07:54:25	3031126	5	0	0	0	0	0	0	0	0	0	0	0	0	0	0	5	7
102512	07:54:25	10028	corsiblockFrRev	recallseqFrRev	10	7	389	0	120	07:54:25	3031565	5	0	0	0	0	0	0	0	0	0	0	0	0	0	0	5	7
102512	07:54:25	10028	corsiblockFrRev	recallseqFrRev	10	1	1534	0	120	07:54:25	3033151	5	0	0	0	0	0	0	0	0	0	0	0	0	0	0	5	7
102512	07:54:25	10028	corsiblockFrRev	recallseqFrRev	10	6	619	0	120	07:54:25	3033818	5	0	0	0	0	0	0	0	0	0	0	0	0	0	0	5	7
102512	07:54:25	10028	corsiblockFrRev	recallseqFrRev	10	8	690	0	120	07:54:25	3034564	5	0	0	0	0	0	0	0	0	0	0	0	0	0	0	5	7
102512	07:54:25	10028	corsiblockFrRev	recallseqFrRev	10	doneCorsiFr	815	0	120	07:54:25	3035431	5	0	0	0	0	0	0	0	0	0	0	0	0	0	0	5	7
102512	07:54:25	10028	corsiblockFrRev	recallseqFrRev	10	4	980	0	120	07:54:25	3047506	5	0	0	0	0	0	0	0	0	0	0	0	0	0	0	5	7
102512	07:54:25	10028	corsiblockFrRev	recallseqFrRev	10	7	777	0	120	07:54:25	3048332	5	0	0	0	0	0	0	0	0	0	0	0	0	0	0	5	7
102512	07:54:25	10028	corsiblockFrRev	recallseqFrRev	10	8	614	0	120	07:54:25	3048999	5	0	0	0	0	0	0	0	0	0	0	0	0	0	0	5	7
102512	07:54:25	10028	corsiblockFrRev	recallseqFrRev	10	7	372	0	120	07:54:25	3049425	5	0	0	0	0	0	0	0	0	0	0	0	0	0	0	5	7
102512	07:54:25	10028	corsiblockFrRev	recallseqFrRev	10	6	778	0	120	07:54:25	3050251	5	0	0	0	0	0	0	0	0	0	0	0	0	0	0	5	7
102512	07:54:25	10028	corsiblockFrRev	recallseqFrRev	10	3	1272	0	120	07:54:25	3051571	5	0	0	0	0	0	0	0	0	0	0	0	0	0	0	5	7
102512	07:54:25	10028	corsiblockFrRev	recallseqFrRev	10	1	1416	0	120	07:54:25	3053037	5	0	0	0	0	0	0	0	0	0	0	0	0	0	0	5	7
102512	07:54:25	10028	corsiblockFrRev	recallseqFrRev	10	doneCorsiFr	1062	0	120	07:54:25	3054143	5	0	0	0	0	0	0	0	0	0	0	0	0	0	0	5	7
102512	07:54:25	10028	testFr3mo	WordsFr3mo	11	1Fr3mo	1015	0	120	07:54:25	3079573	5	3	0	0	0	0	0	0	0	0	0	0	0	0	0	5	7
102512	07:54:25	10028	testFr3mo	WordsFr3mo	11	2Fr3mo	302	0	120	07:54:25	3079920	5	3	3	0	0	0	0	0	0	0	0	0	0	0	0	5	7
102512	07:54:25	10028	testFr3mo	WordsFr3mo	11	3Fr3mo	323	0	120	07:54:25	3080293	5	3	3	3	0	0	0	0	0	0	0	0	0	0	0	5	7
102512	07:54:25	10028	testFr3mo	WordsFr3mo	11	4Fr3mo	311	0	120	07:54:25	3080653	5	3	3	3	3	0	0	0	0	0	0	0	0	0	0	5	7
102512	07:54:25	10028	testFr3mo	WordsFr3mo	11	5Fr3mo	621	0	120	07:54:25	3081319	5	3	3	3	3	3	0	0	0	0	0	0	0	0	0	5	7
102512	07:54:25	10028	testFr3mo	WordsFr3mo	11	6Fr3mo	163	0	120	07:54:25	3081533	5	3	3	3	3	3	3	0	0	0	0	0	0	0	0	5	7
102512	07:54:25	10028	testFr3mo	WordsFr3mo	11	7Fr3mo	214	0	120	07:54:25	3081799	5	3	3	3	3	3	3	3	0	0	0	0	0	0	0	5	7
102512	07:54:25	10028	testFr3mo	WordsFr3mo	11	8Fr3mo	239	0	120	07:54:25	3082106	5	3	3	3	3	3	3	3	3	0	0	0	0	0	0	5	7
102512	07:54:25	10028	testFr3mo	WordsFr3mo	11	DoneFr3mo	673	0	120	07:54:25	3082825	5	3	3	3	3	3	3	3	3	0	0	0	0	0	0	5	7
102512	07:54:25	10028	DigitSpanFwrdFr3mo	Score1FwrdFr3mo	12	DS1	3025	0	120	07:54:25	3101738	5	3	3	3	3	3	3	3	3	0	0	0	0	0	0	5	7
102512	07:54:25	10028	DigitSpanFwrdFr3mo	Gate1FwrdFr3mo	12	0	1	0	120	07:54:25	3101756	5	3	3	3	3	3	3	3	3	3	0	0	0	0	0	5	7
102512	07:54:25	10028	DigitSpanFwrdFr3mo	Score2FwrdFr3mo	12	DS1	3295	0	120	07:54:25	3110734	5	3	3	3	3	3	3	3	3	3	0	0	0	0	0	5	7
102512	07:54:25	10028	DigitSpanFwrdFr3mo	Gate3FwrdFr3mo	12	0	1	0	120	07:54:25	3110739	5	3	3	3	3	3	3	3	3	4	0	0	0	0	0	5	7
102512	07:54:25	10028	DigitSpanFwrdFr3mo	Score3FwrdFr3mo	12	DS1	4174	0	120	07:54:25	3122143	5	3	3	3	3	3	3	3	3	4	0	0	0	0	0	5	7
102512	07:54:25	10028	DigitSpanFwrdFr3mo	Gate5FwrdFr3mo	12	0	1	0	120	07:54:25	3122147	5	3	3	3	3	3	3	3	3	5	0	0	0	0	0	5	7
102512	07:54:25	10028	DigitSpanFwrdFr3mo	Score4FwrdFr3mo	12	DS1	2656	0	120	07:54:25	3133325	5	3	3	3	3	3	3	3	3	5	0	0	0	0	0	5	7
102512	07:54:25	10028	DigitSpanFwrdFr3mo	Gate7FwrdFr3mo	12	0	1	0	120	07:54:25	3133330	5	3	3	3	3	3	3	3	3	6	0	0	0	0	0	5	7
102512	07:54:25	10028	DigitSpanFwrdFr3mo	Score5FwrdFr3mo	12	DS1	9288	0	120	07:54:25	3154690	5	3	3	3	3	3	3	3	3	6	0	0	0	0	0	5	7
102512	07:54:25	10028	DigitSpanFwrdFr3mo	Gate9FwrdFr3mo	12	0	1	0	120	07:54:25	3154695	5	3	3	3	3	3	3	3	3	7	0	0	0	0	0	5	7
102512	07:54:25	10028	DigitSpanFwrdFr3mo	Score6FwrdFr3mo	12	DS1	3808	0	120	07:54:25	3170350	5	3	3	3	3	3	3	3	3	8	0	0	0	0	0	5	7
102512	07:54:25	10028	DigitSpanFr3mo	Score1Fr3mo	13	DS1	4461	0	120	07:54:25	3191542	5	3	3	3	3	3	3	3	3	8	0	0	0	0	0	5	7
102512	07:54:25	10028	DigitSpanFr3mo	Gate1Fr3mo	13	0	1	0	120	07:54:25	3191546	5	3	3	3	3	3	3	3	3	8	2	0	0	0	0	5	7
102512	07:54:25	10028	DigitSpanFr3mo	Score2Fr3mo	13	DS1	2683	0	120	07:54:25	3198779	5	3	3	3	3	3	3	3	3	8	2	0	0	0	0	5	7
102512	07:54:25	10028	DigitSpanFr3mo	Gate3Fr3mo	13	0	1	0	120	07:54:25	3198784	5	3	3	3	3	3	3	3	3	8	3	0	0	0	0	5	7
102512	07:54:25	10028	DigitSpanFr3mo	Score3Fr3mo	13	DS1	2609	0	120	07:54:25	3207069	5	3	3	3	3	3	3	3	3	8	3	0	0	0	0	5	7
102512	07:54:25	10028	DigitSpanFr3mo	Gate5Fr3mo	13	0	1	0	120	07:54:25	3207074	5	3	3	3	3	3	3	3	3	8	4	0	0	0	0	5	7
102512	07:54:25	10028	DigitSpanFr3mo	Score4Fr3mo	13	DS1	4599	0	120	07:54:25	3218918	5	3	3	3	3	3	3	3	3	8	4	0	0	0	0	5	7
102512	07:54:25	10028	DigitSpanFr3mo	Gate7Fr3mo	13	0	1	0	120	07:54:25	3218922	5	3	3	3	3	3	3	3	3	8	5	0	0	0	0	5	7
102512	07:54:25	10028	DigitSpanFr3mo	Score5Fr3mo	13	DS1	7485	0	120	07:54:25	3234912	5	3	3	3	3	3	3	3	3	8	5	0	0	0	0	5	7
102512	07:54:25	10028	DigitSpanFr3mo	Gate9Fr3mo	13	0	1	0	120	07:54:25	3234916	5	3	3	3	3	3	3	3	3	8	6	0	0	0	0	5	7
102512	07:54:25	10028	DigitSpanFr3mo	Score6Fr3mo	13	DS1	25875	0	120	07:54:25	3270537	5	3	3	3	3	3	3	3	3	8	7	0	0	0	0	5	7
102512	07:54:25	10028	Trial	ResponseIL	14	0	175	0	120	07:54:25	3331060	5	3	3	3	3	3	3	3	3	8	7	0	0	0	0	5	7
102512	07:54:25	10028	Trial	IncongruentLeft	14	203	332	1	120	07:54:25	3331433	5	3	3	3	3	3	3	3	3	8	7	0	0	0	0	5	7
102512	07:54:25	10028	Trial	ResponseCR	14	0	175	0	120	07:54:25	3332780	5	3	3	3	3	3	3	3	3	8	7	0	0	0	0	5	7
102512	07:54:25	10028	Trial	CongruentRight	14	205	177	1	120	07:54:25	3332979	5	3	3	3	3	3	3	3	3	8	7	0	0	0	0	5	7
102512	07:54:25	10028	Trial	ResponseIR	14	0	175	0	120	07:54:25	3334486	5	3	3	3	3	3	3	3	3	8	7	0	0	0	0	5	7
102512	07:54:25	10028	Trial	IncongruentRight	14	205	375	1	120	07:54:25	3334885	5	3	3	3	3	3	3	3	3	8	7	0	0	0	0	5	7
102512	07:54:25	10028	Trial	ResponseCL	14	0	175	0	120	07:54:25	3336191	5	3	3	3	3	3	3	3	3	8	7	0	0	0	0	5	7
102512	07:54:25	10028	Trial	CongruentLeft	14	203	221	1	120	07:54:25	3336431	5	3	3	3	3	3	3	3	3	8	7	0	0	0	0	5	7
102512	07:54:25	10028	Trial	ResponseCR	14	0	175	0	120	07:54:25	3337898	5	3	3	3	3	3	3	3	3	8	7	0	0	0	0	5	7
102512	07:54:25	10028	Trial	CongruentRight	14	205	278	1	120	07:54:25	3338217	5	3	3	3	3	3	3	3	3	8	7	0	0	0	0	5	7
102512	07:54:25	10028	Trial	ResponseIR	14	0	175	0	120	07:54:25	3339617	5	3	3	3	3	3	3	3	3	8	7	0	0	0	0	5	7
102512	07:54:25	10028	Trial	IncongruentRight	14	205	348	1	120	07:54:25	3339990	5	3	3	3	3	3	3	3	3	8	7	0	0	0	0	5	7
102512	07:54:25	10028	Trial	ResponseCL	14	0	175	0	120	07:54:25	3341323	5	3	3	3	3	3	3	3	3	8	7	0	0	0	0	5	7
102512	07:54:25	10028	Trial	CongruentLeft	14	203	261	1	120	07:54:25	3341616	5	3	3	3	3	3	3	3	3	8	7	0	0	0	0	5	7
102512	07:54:25	10028	Trial	ResponseIL	14	0	175	0	120	07:54:25	3343029	5	3	3	3	3	3	3	3	3	8	7	0	0	0	0	5	7
102512	07:54:25	10028	Trial	IncongruentLeft	14	203	424	1	120	07:54:25	3343482	5	3	3	3	3	3	3	3	3	8	7	0	0	0	0	5	7
102512	07:54:25	10028	Trial	ResponseIL	14	0	175	0	120	07:54:25	3344735	5	3	3	3	3	3	3	3	3	8	7	0	0	0	0	5	7
102512	07:54:25	10028	Trial	IncongruentLeft	14	203	366	1	120	07:54:25	3345121	5	3	3	3	3	3	3	3	3	8	7	0	0	0	0	5	7
102512	07:54:25	10028	Trial	ResponseCR	14	0	175	0	120	07:54:25	3346441	5	3	3	3	3	3	3	3	3	8	7	0	0	0	0	5	7
102512	07:54:25	10028	Trial	CongruentRight	14	205	276	1	120	07:54:25	3346734	5	3	3	3	3	3	3	3	3	8	7	0	0	0	0	5	7
102512	07:54:25	10028	Trial	ResponseIR	14	0	175	0	120	07:54:25	3348147	5	3	3	3	3	3	3	3	3	8	7	0	0	0	0	5	7
102512	07:54:25	10028	Trial	IncongruentRight	14	205	410	1	120	07:54:25	3348573	5	3	3	3	3	3	3	3	3	8	7	0	0	0	0	5	7
102512	07:54:25	10028	Trial	ResponseCL	14	0	175	0	120	07:54:25	3349853	5	3	3	3	3	3	3	3	3	8	7	0	0	0	0	5	7
102512	07:54:25	10028	Trial	CongruentLeft	14	203	176	1	120	07:54:25	3350053	5	3	3	3	3	3	3	3	3	8	7	0	0	0	0	5	7
102512	07:54:25	10028	Trial	ResponseCR	14	0	175	0	120	07:54:25	3351559	5	3	3	3	3	3	3	3	3	8	7	0	0	0	0	5	7
102512	07:54:25	10028	Trial	CongruentRight	14	205	150	1	120	07:54:25	3351732	5	3	3	3	3	3	3	3	3	8	7	0	0	0	0	5	7
102512	07:54:25	10028	Trial	ResponseIL	14	0	175	0	120	07:54:25	3353265	5	3	3	3	3	3	3	3	3	8	7	0	0	0	0	5	7
102512	07:54:25	10028	Trial	IncongruentLeft	14	203	300	1	120	07:54:25	3353585	5	3	3	3	3	3	3	3	3	8	7	0	0	0	0	5	7
102512	07:54:25	10028	Trial	ResponseIR	14	0	175	0	120	07:54:25	3354971	5	3	3	3	3	3	3	3	3	8	7	0	0	0	0	5	7
102512	07:54:25	10028	Trial	IncongruentRight	14	205	113	1	120	07:54:25	3355104	5	3	3	3	3	3	3	3	3	8	7	0	0	0	0	5	7
102512	07:54:25	10028	Trial	ResponseCR	14	0	175	0	120	07:54:25	3356677	5	3	3	3	3	3	3	3	3	8	7	0	0	0	0	5	7
102512	07:54:25	10028	Trial	CongruentRight	14	205	280	1	120	07:54:25	3356983	5	3	3	3	3	3	3	3	3	8	7	0	0	0	0	5	7
102512	07:54:25	10028	Trial	ResponseCL	14	0	175	0	120	07:54:25	3358383	5	3	3	3	3	3	3	3	3	8	7	0	0	0	0	5	7
102512	07:54:25	10028	Trial	CongruentLeft	14	203	174	1	120	07:54:25	3358583	5	3	3	3	3	3	3	3	3	8	7	0	0	0	0	5	7
102512	07:54:25	10028	Trial	ResponseCR	14	0	175	0	120	07:54:25	3360089	5	3	3	3	3	3	3	3	3	8	7	0	0	0	0	5	7
102512	07:54:25	10028	Trial	CongruentRight	14	205	196	1	120	07:54:25	3360302	5	3	3	3	3	3	3	3	3	8	7	0	0	0	0	5	7
102512	07:54:25	10028	Trial	ResponseIR	14	0	175	0	120	07:54:25	3361795	5	3	3	3	3	3	3	3	3	8	7	0	0	0	0	5	7
102512	07:54:25	10028	Trial	IncongruentRight	14	205	522	1	120	07:54:25	3362341	5	3	3	3	3	3	3	3	3	8	7	0	0	0	0	5	7
102512	07:54:25	10028	Trial	ResponseIL	14	0	175	0	120	07:54:25	3363501	5	3	3	3	3	3	3	3	3	8	7	0	0	0	0	5	7
102512	07:54:25	10028	Trial	IncongruentLeft	14	203	176	1	120	07:54:25	3363701	5	3	3	3	3	3	3	3	3	8	7	0	0	0	0	5	7
102512	07:54:25	10028	Trial	ResponseIL	14	0	175	0	120	07:54:25	3365207	5	3	3	3	3	3	3	3	3	8	7	0	0	0	0	5	7
102512	07:54:25	10028	Trial	IncongruentLeft	14	205	118	0	120	07:54:25	3365354	5	3	3	3	3	3	3	3	3	8	7	0	0	0	0	5	7
102512	07:54:25	10028	Trial	ResponseCL	14	0	175	0	120	07:54:25	3366913	5	3	3	3	3	3	3	3	3	8	7	0	0	0	0	5	7
102512	07:54:25	10028	Trial	CongruentLeft	14	203	187	1	120	07:54:25	3367126	5	3	3	3	3	3	3	3	3	8	7	0	0	0	0	5	7
102512	07:54:25	10028	Trial	ResponseCR	14	0	175	0	120	07:54:25	3368619	5	3	3	3	3	3	3	3	3	8	7	0	0	0	0	5	7
102512	07:54:25	10028	Trial	CongruentRight	14	205	241	1	120	07:54:25	3368885	5	3	3	3	3	3	3	3	3	8	7	0	0	0	0	5	7
102512	07:54:25	10028	Trial	ResponseIL	14	0	175	0	120	07:54:25	3370325	5	3	3	3	3	3	3	3	3	8	7	0	0	0	0	5	7
102512	07:54:25	10028	Trial	IncongruentLeft	14	203	279	1	120	07:54:25	3370631	5	3	3	3	3	3	3	3	3	8	7	0	0	0	0	5	7
102512	07:54:25	10028	Trial	ResponseIR	14	0	175	0	120	07:54:25	3372031	5	3	3	3	3	3	3	3	3	8	7	0	0	0	0	5	7
102512	07:54:25	10028	Trial	IncongruentRight	14	205	253	1	120	07:54:25	3372311	5	3	3	3	3	3	3	3	3	8	7	0	0	0	0	5	7
102512	07:54:25	10028	Trial	ResponseCR	14	0	175	0	120	07:54:25	3373737	5	3	3	3	3	3	3	3	3	8	7	0	0	0	0	5	7
102512	07:54:25	10028	Trial	CongruentRight	14	205	260	1	120	07:54:25	3374017	5	3	3	3	3	3	3	3	3	8	7	0	0	0	0	5	7
102512	07:54:25	10028	Trial	ResponseCL	14	0	175	0	120	07:54:25	3375443	5	3	3	3	3	3	3	3	3	8	7	0	0	0	0	5	7
102512	07:54:25	10028	Trial	CongruentLeft	14	203	281	1	120	07:54:25	3375749	5	3	3	3	3	3	3	3	3	8	7	0	0	0	0	5	7
102512	07:54:25	10028	Trial	ResponseIR	14	0	175	0	120	07:54:25	3377149	5	3	3	3	3	3	3	3	3	8	7	0	0	0	0	5	7
102512	07:54:25	10028	Trial	IncongruentRight	14	205	179	1	120	07:54:25	3377362	5	3	3	3	3	3	3	3	3	8	7	0	0	0	0	5	7
102512	07:54:25	10028	Trial	ResponseIL	14	0	175	0	120	07:54:25	3378868	5	3	3	3	3	3	3	3	3	8	7	0	0	0	0	5	7
102512	07:54:25	10028	Trial	IncongruentLeft	14	203	376	1	120	07:54:25	3379268	5	3	3	3	3	3	3	3	3	8	7	0	0	0	0	5	7
102512	07:54:25	10028	Trial	ResponseIR	14	0	175	0	120	07:54:25	3380574	5	3	3	3	3	3	3	3	3	8	7	0	0	0	0	5	7
102512	07:54:25	10028	Trial	IncongruentRight	14	205	302	1	120	07:54:25	3380894	5	3	3	3	3	3	3	3	3	8	7	0	0	0	0	5	7
102512	07:54:25	10028	Trial	ResponseCR	14	0	175	0	120	07:54:25	3382280	5	3	3	3	3	3	3	3	3	8	7	0	0	0	0	5	7
102512	07:54:25	10028	Trial	CongruentRight	14	205	308	1	120	07:54:25	3382613	5	3	3	3	3	3	3	3	3	8	7	0	0	0	0	5	7
102512	07:54:25	10028	Trial	ResponseIL	14	0	175	0	120	07:54:25	3383986	5	3	3	3	3	3	3	3	3	8	7	0	0	0	0	5	7
102512	07:54:25	10028	Trial	IncongruentLeft	14	203	298	1	120	07:54:25	3384306	5	3	3	3	3	3	3	3	3	8	7	0	0	0	0	5	7
102512	07:54:25	10028	Trial	ResponseCL	14	0	175	0	120	07:54:25	3385692	5	3	3	3	3	3	3	3	3	8	7	0	0	0	0	5	7
102512	07:54:25	10028	Trial	CongruentLeft	14	203	256	1	120	07:54:25	3385972	5	3	3	3	3	3	3	3	3	8	7	0	0	0	0	5	7
102512	07:54:25	10028	Trial	ResponseCR	14	0	175	0	120	07:54:25	3387398	5	3	3	3	3	3	3	3	3	8	7	0	0	0	0	5	7
102512	07:54:25	10028	Trial	CongruentRight	14	205	198	1	120	07:54:25	3387625	5	3	3	3	3	3	3	3	3	8	7	0	0	0	0	5	7
102512	07:54:25	10028	Trial	ResponseIL	14	0	175	0	120	07:54:25	3389104	5	3	3	3	3	3	3	3	3	8	7	0	0	0	0	5	7
102512	07:54:25	10028	Trial	IncongruentLeft	14	203	332	1	120	07:54:25	3389464	5	3	3	3	3	3	3	3	3	8	7	0	0	0	0	5	7
102512	07:54:25	10028	Trial	ResponseIR	14	0	175	0	120	07:54:25	3390810	5	3	3	3	3	3	3	3	3	8	7	0	0	0	0	5	7
102512	07:54:25	10028	Trial	IncongruentRight	14	205	210	1	120	07:54:25	3391037	5	3	3	3	3	3	3	3	3	8	7	0	0	0	0	5	7
102512	07:54:25	10028	Trial	ResponseIR	14	0	175	0	120	07:54:25	3392516	5	3	3	3	3	3	3	3	3	8	7	0	0	0	0	5	7
102512	07:54:25	10028	Trial	IncongruentRight	14	205	296	1	120	07:54:25	3392836	5	3	3	3	3	3	3	3	3	8	7	0	0	0	0	5	7
102512	07:54:25	10028	Trial	ResponseCL	14	0	175	0	120	07:54:25	3394222	5	3	3	3	3	3	3	3	3	8	7	0	0	0	0	5	7
102512	07:54:25	10028	Trial	CongruentLeft	14	203	302	1	120	07:54:25	3394542	5	3	3	3	3	3	3	3	3	8	7	0	0	0	0	5	7
102512	07:54:25	10028	Trial	ResponseIL	14	0	175	0	120	07:54:25	3395928	5	3	3	3	3	3	3	3	3	8	7	0	0	0	0	5	7
102512	07:54:25	10028	Trial	IncongruentLeft	14	203	340	1	120	07:54:25	3396288	5	3	3	3	3	3	3	3	3	8	7	0	0	0	0	5	7
102512	07:54:25	10028	Trial	ResponseCR	14	0	175	0	120	07:54:25	3397634	5	3	3	3	3	3	3	3	3	8	7	0	0	0	0	5	7
102512	07:54:25	10028	Trial	CongruentRight	14	205	266	1	120	07:54:25	3397927	5	3	3	3	3	3	3	3	3	8	7	0	0	0	0	5	7
102512	07:54:25	10028	Trial	ResponseCL	14	0	175	0	120	07:54:25	3399340	5	3	3	3	3	3	3	3	3	8	7	0	0	0	0	5	7
102512	07:54:25	10028	Trial	CongruentLeft	14	203	208	1	120	07:54:25	3399567	5	3	3	3	3	3	3	3	3	8	7	0	0	0	0	5	7
102512	07:54:25	10028	Trial	ResponseIR	14	0	175	0	120	07:54:25	3401046	5	3	3	3	3	3	3	3	3	8	7	0	0	0	0	5	7
102512	07:54:25	10028	Trial	IncongruentRight	14	205	246	1	120	07:54:25	3401313	5	3	3	3	3	3	3	3	3	8	7	0	0	0	0	5	7
102512	07:54:25	10028	Trial	ResponseCR	14	0	175	0	120	07:54:25	3402752	5	3	3	3	3	3	3	3	3	8	7	0	0	0	0	5	7
102512	07:54:25	10028	Trial	CongruentRight	14	205	220	1	120	07:54:25	3402992	5	3	3	3	3	3	3	3	3	8	7	0	0	0	0	5	7
102512	07:54:25	10028	Trial	ResponseIL	14	0	175	0	120	07:54:25	3404458	5	3	3	3	3	3	3	3	3	8	7	0	0	0	0	5	7
102512	07:54:25	10028	Trial	IncongruentLeft	14	203	178	1	120	07:54:25	3404658	5	3	3	3	3	3	3	3	3	8	7	0	0	0	0	5	7
102512	07:54:25	10028	Trial	ResponseCL	14	0	175	0	120	07:54:25	3406164	5	3	3	3	3	3	3	3	3	8	7	0	0	0	0	5	7
102512	07:54:25	10028	Trial	CongruentLeft	14	203	264	1	120	07:54:25	3406457	5	3	3	3	3	3	3	3	3	8	7	0	0	0	0	5	7
102512	07:54:25	10028	Trial	ResponseIL	14	0	175	0	120	07:54:25	3407870	5	3	3	3	3	3	3	3	3	8	7	0	0	0	0	5	7
102512	07:54:25	10028	Trial	IncongruentLeft	14	203	318	1	120	07:54:25	3408217	5	3	3	3	3	3	3	3	3	8	7	0	0	0	0	5	7
102512	07:54:25	10028	Trial	ResponseIR	14	0	175	0	120	07:54:25	3409576	5	3	3	3	3	3	3	3	3	8	7	0	0	0	0	5	7
102512	07:54:25	10028	Trial	IncongruentRight	14	205	211	1	120	07:54:25	3409816	5	3	3	3	3	3	3	3	3	8	7	0	0	0	0	5	7
102512	07:54:25	10028	Trial	ResponseCR	14	0	175	0	120	07:54:25	3411282	5	3	3	3	3	3	3	3	3	8	7	0	0	0	0	5	7
102512	07:54:25	10028	Trial	CongruentRight	14	205	218	1	120	07:54:25	3411522	5	3	3	3	3	3	3	3	3	8	7	0	0	0	0	5	7
102512	07:54:25	10028	Trial	ResponseCL	14	0	175	0	120	07:54:25	3412988	5	3	3	3	3	3	3	3	3	8	7	0	0	0	0	5	7
102512	07:54:25	10028	Trial	CongruentLeft	14	203	208	1	120	07:54:25	3413215	5	3	3	3	3	3	3	3	3	8	7	0	0	0	0	5	7
102512	07:54:25	10028	Trial	ResponseCL	14	0	175	0	120	07:54:25	3414694	5	3	3	3	3	3	3	3	3	8	7	0	0	0	0	5	7
102512	07:54:25	10028	Trial	CongruentLeft	14	203	230	1	120	07:54:25	3414947	5	3	3	3	3	3	3	3	3	8	7	0	0	0	0	5	7
102512	07:54:25	10028	Trial	ResponseIR	14	0	175	0	120	07:54:25	3416400	5	3	3	3	3	3	3	3	3	8	7	0	0	0	0	5	7
102512	07:54:25	10028	Trial	IncongruentRight	14	205	252	1	120	07:54:25	3416680	5	3	3	3	3	3	3	3	3	8	7	0	0	0	0	5	7
102512	07:54:25	10028	Trial	ResponseIL	14	0	175	0	120	07:54:25	3418106	5	3	3	3	3	3	3	3	3	8	7	0	0	0	0	5	7
102512	07:54:25	10028	Trial	IncongruentLeft	14	203	290	1	120	07:54:25	3418413	5	3	3	3	3	3	3	3	3	8	7	0	0	0	0	5	7
102512	07:54:25	10028	Trial	ResponseIR	14	0	175	0	120	07:54:25	3419812	5	3	3	3	3	3	3	3	3	8	7	0	0	0	0	5	7
102512	07:54:25	10028	Trial	IncongruentRight	14	205	264	1	120	07:54:25	3420092	5	3	3	3	3	3	3	3	3	8	7	0	0	0	0	5	7
102512	07:54:25	10028	Trial	ResponseCR	14	0	175	0	120	07:54:25	3421518	5	3	3	3	3	3	3	3	3	8	7	0	0	0	0	5	7
102512	07:54:25	10028	Trial	CongruentRight	14	205	222	1	120	07:54:25	3421758	5	3	3	3	3	3	3	3	3	8	7	0	0	0	0	5	7
102512	07:54:25	10028	Trial	ResponseCR	14	0	175	0	120	07:54:25	3423224	5	3	3	3	3	3	3	3	3	8	7	0	0	0	0	5	7
102512	07:54:25	10028	Trial	CongruentRight	14	205	324	1	120	07:54:25	3423571	5	3	3	3	3	3	3	3	3	8	7	0	0	0	0	5	7
102512	07:54:25	10028	Trial	ResponseIL	14	0	175	0	120	07:54:25	3424930	5	3	3	3	3	3	3	3	3	8	7	0	0	0	0	5	7
102512	07:54:25	10028	Trial	IncongruentLeft	14	203	346	1	120	07:54:25	3425303	5	3	3	3	3	3	3	3	3	8	7	0	0	0	0	5	7
102512	07:54:25	10028	Trial	ResponseCL	14	0	175	0	120	07:54:25	3426636	5	3	3	3	3	3	3	3	3	8	7	0	0	0	0	5	7
102512	07:54:25	10028	Trial	CongruentLeft	14	203	240	1	120	07:54:25	3426903	5	3	3	3	3	3	3	3	3	8	7	0	0	0	0	5	7
102512	07:54:25	10028	Trial	ResponseCR	14	0	175	0	120	07:54:25	3428342	5	3	3	3	3	3	3	3	3	8	7	0	0	0	0	5	7
102512	07:54:25	10028	Trial	CongruentRight	14	205	166	1	120	07:54:25	3428529	5	3	3	3	3	3	3	3	3	8	7	0	0	0	0	5	7
102512	07:54:25	10028	Trial	ResponseCL	14	0	175	0	120	07:54:25	3430048	5	3	3	3	3	3	3	3	3	8	7	0	0	0	0	5	7
102512	07:54:25	10028	Trial	CongruentLeft	14	203	220	1	120	07:54:25	3430288	5	3	3	3	3	3	3	3	3	8	7	0	0	0	0	5	7
102512	07:54:25	10028	Trial	ResponseIR	14	0	175	0	120	07:54:25	3431754	5	3	3	3	3	3	3	3	3	8	7	0	0	0	0	5	7
102512	07:54:25	10028	Trial	IncongruentRight	14	205	178	1	120	07:54:25	3431954	5	3	3	3	3	3	3	3	3	8	7	0	0	0	0	5	7
102512	07:54:25	10028	Trial	ResponseCR	14	0	175	0	120	07:54:25	3433460	5	3	3	3	3	3	3	3	3	8	7	0	0	0	0	5	7
102512	07:54:25	10028	Trial	CongruentRight	14	205	343	1	120	07:54:25	3433820	5	3	3	3	3	3	3	3	3	8	7	0	0	0	0	5	7
102512	07:54:25	10028	Trial	ResponseCL	14	0	175	0	120	07:54:25	3435166	5	3	3	3	3	3	3	3	3	8	7	0	0	0	0	5	7
102512	07:54:25	10028	Trial	CongruentLeft	14	203	254	1	120	07:54:25	3435446	5	3	3	3	3	3	3	3	3	8	7	0	0	0	0	5	7
102512	07:54:25	10028	Trial	ResponseIL	14	0	175	0	120	07:54:25	3436872	5	3	3	3	3	3	3	3	3	8	7	0	0	0	0	5	7
102512	07:54:25	10028	Trial	IncongruentLeft	14	205	132	0	120	07:54:25	3437032	5	3	3	3	3	3	3	3	3	8	7	0	0	0	0	5	7
102512	07:54:25	10028	Trial	ResponseIL	14	0	175	0	120	07:54:25	3438578	5	3	3	3	3	3	3	3	3	8	7	0	0	0	0	5	7
102512	07:54:25	10028	Trial	IncongruentLeft	14	203	329	1	120	07:54:25	3438925	5	3	3	3	3	3	3	3	3	8	7	0	0	0	0	5	7
102512	07:54:25	10028	Trial	ResponseCR	14	0	175	0	120	07:54:25	3440284	5	3	3	3	3	3	3	3	3	8	7	0	0	0	0	5	7
102512	07:54:25	10028	Trial	CongruentRight	14	205	168	1	120	07:54:25	3440511	5	3	3	3	3	3	3	3	3	8	7	0	0	0	0	5	7
102512	07:54:25	10028	Trial	ResponseIR	14	0	175	0	120	07:54:25	3442030	5	3	3	3	3	3	3	3	3	8	7	0	0	0	0	5	7
102512	07:54:25	10028	Trial	IncongruentRight	14	205	285	1	120	07:54:25	3442337	5	3	3	3	3	3	3	3	3	8	7	0	0	0	0	5	7
102512	07:54:25	10028	Trial	ResponseCL	14	0	175	0	120	07:54:25	3443736	5	3	3	3	3	3	3	3	3	8	7	0	0	0	0	5	7
102512	07:54:25	10028	Trial	CongruentLeft	14	203	212	1	120	07:54:25	3443976	5	3	3	3	3	3	3	3	3	8	7	0	0	0	0	5	7
102512	07:54:25	10028	Trial	ResponseIR	14	0	175	0	120	07:54:25	3445442	5	3	3	3	3	3	3	3	3	8	7	0	0	0	0	5	7
102512	07:54:25	10028	Trial	IncongruentRight	14	205	233	1	120	07:54:25	3445695	5	3	3	3	3	3	3	3	3	8	7	0	0	0	0	5	7
102512	07:54:25	10028	Trial	ResponseCR	14	0	175	0	120	07:54:25	3447148	5	3	3	3	3	3	3	3	3	8	7	0	0	0	0	5	7
102512	07:54:25	10028	Trial	CongruentRight	14	205	287	1	120	07:54:25	3447455	5	3	3	3	3	3	3	3	3	8	7	0	0	0	0	5	7
102512	07:54:25	10028	Trial	ResponseIL	14	0	175	0	120	07:54:25	3448854	5	3	3	3	3	3	3	3	3	8	7	0	0	0	0	5	7
102512	07:54:25	10028	Trial	IncongruentLeft	14	203	229	1	120	07:54:25	3449107	5	3	3	3	3	3	3	3	3	8	7	0	0	0	0	5	7
102512	07:54:25	10028	Trial	ResponseCL	14	0	175	0	120	07:54:25	3450560	5	3	3	3	3	3	3	3	3	8	7	0	0	0	0	5	7
102512	07:54:25	10028	Trial	CongruentLeft	14	203	207	1	120	07:54:25	3450800	5	3	3	3	3	3	3	3	3	8	7	0	0	0	0	5	7
102512	07:54:25	10028	Trial	ResponseCR	14	0	175	0	120	07:54:25	3452279	5	3	3	3	3	3	3	3	3	8	7	0	0	0	0	5	7
102512	07:54:25	10028	Trial	CongruentRight	14	205	196	1	120	07:54:25	3452493	5	3	3	3	3	3	3	3	3	8	7	0	0	0	0	5	7
102512	07:54:25	10028	Trial	ResponseIL	14	0	175	0	120	07:54:25	3453985	5	3	3	3	3	3	3	3	3	8	7	0	0	0	0	5	7
102512	07:54:25	10028	Trial	IncongruentLeft	14	203	250	1	120	07:54:25	3454252	5	3	3	3	3	3	3	3	3	8	7	0	0	0	0	5	7
102512	07:54:25	10028	Trial	ResponseCR	14	0	175	0	120	07:54:25	3455691	5	3	3	3	3	3	3	3	3	8	7	0	0	0	0	5	7
102512	07:54:25	10028	Trial	CongruentRight	14	205	288	1	120	07:54:25	3455998	5	3	3	3	3	3	3	3	3	8	7	0	0	0	0	5	7
102512	07:54:25	10028	Trial	ResponseCR	14	0	175	0	120	07:54:25	3457397	5	3	3	3	3	3	3	3	3	8	7	0	0	0	0	5	7
102512	07:54:25	10028	Trial	CongruentRight	14	205	281	1	120	07:54:25	3457717	5	3	3	3	3	3	3	3	3	8	7	0	0	0	0	5	7
102512	07:54:25	10028	Trial	ResponseIR	14	0	175	0	120	07:54:25	3459103	5	3	3	3	3	3	3	3	3	8	7	0	0	0	0	5	7
102512	07:54:25	10028	Trial	IncongruentRight	14	205	252	1	120	07:54:25	3459383	5	3	3	3	3	3	3	3	3	8	7	0	0	0	0	5	7
102512	07:54:25	10028	Trial	ResponseCL	14	0	175	0	120	07:54:25	3460809	5	3	3	3	3	3	3	3	3	8	7	0	0	0	0	5	7
102512	07:54:25	10028	Trial	CongruentLeft	14	203	162	1	120	07:54:25	3460996	5	3	3	3	3	3	3	3	3	8	7	0	0	0	0	5	7
102512	07:54:25	10028	Trial	ResponseIL	14	0	175	0	120	07:54:25	3462515	5	3	3	3	3	3	3	3	3	8	7	0	0	0	0	5	7
102512	07:54:25	10028	Trial	IncongruentLeft	14	203	360	1	120	07:54:25	3462902	5	3	3	3	3	3	3	3	3	8	7	0	0	0	0	5	7
102512	07:54:25	10028	Trial	ResponseCL	14	0	175	0	120	07:54:25	3464222	5	3	3	3	3	3	3	3	3	8	7	0	0	0	0	5	7
102512	07:54:25	10028	Trial	CongruentLeft	14	203	190	1	120	07:54:25	3464434	5	3	3	3	3	3	3	3	3	8	7	0	0	0	0	5	7
102512	07:54:25	10028	Trial	ResponseIR	14	0	175	0	120	07:54:25	3465927	5	3	3	3	3	3	3	3	3	8	7	0	0	0	0	5	7
102512	07:54:25	10028	Trial	IncongruentRight	14	205	340	1	120	07:54:25	3466287	5	3	3	3	3	3	3	3	3	8	7	0	0	0	0	5	7
102512	07:54:25	10028	Trial	ResponseIL	14	0	175	0	120	07:54:25	3467633	5	3	3	3	3	3	3	3	3	8	7	0	0	0	0	5	7
102512	07:54:25	10028	Trial	IncongruentLeft	14	203	362	1	120	07:54:25	3468020	5	3	3	3	3	3	3	3	3	8	7	0	0	0	0	5	7
102512	07:54:25	10028	Trial	ResponseCR	14	0	175	0	120	07:54:25	3469339	5	3	3	3	3	3	3	3	3	8	7	0	0	0	0	5	7
102512	07:54:25	10028	Trial	CongruentRight	14	205	352	1	120	07:54:25	3469712	5	3	3	3	3	3	3	3	3	8	7	0	0	0	0	5	7
102512	07:54:25	10028	Trial	ResponseCL	14	0	175	0	120	07:54:25	3471045	5	3	3	3	3	3	3	3	3	8	7	0	0	0	0	5	7
102512	07:54:25	10028	Trial	CongruentLeft	14	203	214	1	120	07:54:25	3471285	5	3	3	3	3	3	3	3	3	8	7	0	0	0	0	5	7
102512	07:54:25	10028	Trial	ResponseIL	14	0	175	0	120	07:54:25	3472751	5	3	3	3	3	3	3	3	3	8	7	0	0	0	0	5	7
102512	07:54:25	10028	Trial	IncongruentLeft	14	203	220	1	120	07:54:25	3472991	5	3	3	3	3	3	3	3	3	8	7	0	0	0	0	5	7
102512	07:54:25	10028	Trial	ResponseCL	14	0	175	0	120	07:54:25	3474457	5	3	3	3	3	3	3	3	3	8	7	0	0	0	0	5	7
102512	07:54:25	10028	Trial	CongruentLeft	14	203	178	1	120	07:54:25	3474657	5	3	3	3	3	3	3	3	3	8	7	0	0	0	0	5	7
102512	07:54:25	10028	Trial	ResponseIR	14	0	175	0	120	07:54:25	3476163	5	3	3	3	3	3	3	3	3	8	7	0	0	0	0	5	7
102512	07:54:25	10028	Trial	IncongruentRight	14	205	216	1	120	07:54:25	3476403	5	3	3	3	3	3	3	3	3	8	7	0	0	0	0	5	7
102512	07:54:25	10028	Trial	ResponseCR	14	0	175	0	120	07:54:25	3477869	5	3	3	3	3	3	3	3	3	8	7	0	0	0	0	5	7
102512	07:54:25	10028	Trial	CongruentRight	14	205	241	1	120	07:54:25	3478149	5	3	3	3	3	3	3	3	3	8	7	0	0	0	0	5	7
102512	07:54:25	10028	Trial	ResponseIL	14	0	175	0	120	07:54:25	3479589	5	3	3	3	3	3	3	3	3	8	7	0	0	0	0	5	7
102512	07:54:25	10028	Trial	IncongruentLeft	14	203	231	1	120	07:54:25	3479842	5	3	3	3	3	3	3	3	3	8	7	0	0	0	0	5	7
102512	07:54:25	10028	Trial	ResponseCL	14	0	175	0	120	07:54:25	3481295	5	3	3	3	3	3	3	3	3	8	7	0	0	0	0	5	7
102512	07:54:25	10028	Trial	CongruentLeft	14	203	252	1	120	07:54:25	3481575	5	3	3	3	3	3	3	3	3	8	7	0	0	0	0	5	7
102512	07:54:25	10028	Trial	ResponseIR	14	0	175	0	120	07:54:25	3483001	5	3	3	3	3	3	3	3	3	8	7	0	0	0	0	5	7
102512	07:54:25	10028	Trial	IncongruentRight	14	205	306	1	120	07:54:25	3483334	5	3	3	3	3	3	3	3	3	8	7	0	0	0	0	5	7
102512	07:54:25	10028	Trial	ResponseIL	14	0	175	0	120	07:54:25	3484707	5	3	3	3	3	3	3	3	3	8	7	0	0	0	0	5	7
102512	07:54:25	10028	Trial	IncongruentLeft	14	203	200	1	120	07:54:25	3484933	5	3	3	3	3	3	3	3	3	8	7	0	0	0	0	5	7
102512	07:54:25	10028	Trial	ResponseCL	14	0	175	0	120	07:54:25	3486413	5	3	3	3	3	3	3	3	3	8	7	0	0	0	0	5	7
102512	07:54:25	10028	Trial	CongruentLeft	14	203	238	1	120	07:54:25	3486679	5	3	3	3	3	3	3	3	3	8	7	0	0	0	0	5	7
102512	07:54:25	10028	Trial	ResponseIL	14	0	175	0	120	07:54:25	3488119	5	3	3	3	3	3	3	3	3	8	7	0	0	0	0	5	7
102512	07:54:25	10028	Trial	IncongruentLeft	14	203	372	1	120	07:54:25	3488518	5	3	3	3	3	3	3	3	3	8	7	0	0	0	0	5	7
102512	07:54:25	10028	Trial	ResponseCR	14	0	175	0	120	07:54:25	3489825	5	3	3	3	3	3	3	3	3	8	7	0	0	0	0	5	7
102512	07:54:25	10028	Trial	CongruentRight	14	205	202	1	120	07:54:25	3490051	5	3	3	3	3	3	3	3	3	8	7	0	0	0	0	5	7
102512	07:54:25	10028	Trial	ResponseCL	14	0	175	0	120	07:54:25	3491531	5	3	3	3	3	3	3	3	3	8	7	0	0	0	0	5	7
102512	07:54:25	10028	Trial	CongruentLeft	14	203	144	1	120	07:54:25	3491704	5	3	3	3	3	3	3	3	3	8	7	0	0	0	0	5	7
102512	07:54:25	10028	Trial	ResponseIR	14	0	175	0	120	07:54:25	3493237	5	3	3	3	3	3	3	3	3	8	7	0	0	0	0	5	7
102512	07:54:25	10028	Trial	IncongruentRight	14	205	118	1	120	07:54:25	3493383	5	3	3	3	3	3	3	3	3	8	7	0	0	0	0	5	7
102512	07:54:25	10028	Trial	ResponseCL	14	0	175	0	120	07:54:25	3494942	5	3	3	3	3	3	3	3	3	8	7	0	0	0	0	5	7
102512	07:54:25	10028	Trial	CongruentLeft	14	203	141	1	120	07:54:25	3495103	5	3	3	3	3	3	3	3	3	8	7	0	0	0	0	5	7
102512	07:54:25	10028	Trial	ResponseCR	14	0	175	0	120	07:54:25	3496648	5	3	3	3	3	3	3	3	3	8	7	0	0	0	0	5	7
102512	07:54:25	10028	Trial	CongruentRight	14	205	178	1	120	07:54:25	3496848	5	3	3	3	3	3	3	3	3	8	7	0	0	0	0	5	7
102512	07:54:25	10028	Trial	ResponseIL	14	0	175	0	120	07:54:25	3498355	5	3	3	3	3	3	3	3	3	8	7	0	0	0	0	5	7
102512	07:54:25	10028	Trial	IncongruentLeft	14	203	136	1	120	07:54:25	3498514	5	3	3	3	3	3	3	3	3	8	7	0	0	0	0	5	7
102512	07:54:25	10028	WordsAbsFrThreemo	PAbsFrThreemo1	16	Abs1	5177	0	120	07:54:25	3534340	5	3	3	3	3	3	3	3	3	8	7	0	0	0	0	5	7
102512	07:54:25	10028	WordsAbsFrThreemo	AbsFrThreemo1	16	Abs1	1991	0	120	07:54:25	3536366	5	3	3	3	3	3	3	3	3	8	7	1	0	0	0	5	7
102512	07:54:25	10028	WordsAbsFrThreemo	AbsFrThreemo2	16	Abs1	21133	0	120	07:54:25	3557531	5	3	3	3	3	3	3	3	3	8	7	2	0	0	0	5	7
102512	07:54:25	10028	WordsAbsFrThreemo	AbsFrThreemo3	16	Abs2	33895	0	120	07:54:25	3591465	5	3	3	3	3	3	3	3	3	8	7	2	0	0	0	5	7
102512	07:54:25	10028	Trial2BackFrS	NS	17	0	1000	1	120	07:54:25	3792785	5	3	3	3	3	3	3	3	3	8	7	2	0	0	0	5	7
102512	07:54:25	10028	Trial2BackFrS	NS	17	0	1000	1	120	07:54:25	3794291	5	3	3	3	3	3	3	3	3	8	7	2	0	0	0	5	7
102512	07:54:25	10028	Trial2BackFrS	NS	17	0	1000	1	120	07:54:25	3795824	5	3	3	3	3	3	3	3	3	8	7	2	0	0	0	5	7
102512	07:54:25	10028	Trial2BackFrS	YS	17	57	443	1	120	07:54:25	3796783	5	3	3	3	3	3	3	3	3	8	7	2	0	0	0	5	7
102512	07:54:25	10028	Trial2BackFrS	NS	17	0	1000	1	120	07:54:25	3798836	5	3	3	3	3	3	3	3	3	8	7	2	0	0	0	5	7
102512	07:54:25	10028	Trial2BackFrS	NS	17	0	1000	1	120	07:54:25	3800342	5	3	3	3	3	3	3	3	3	8	7	2	0	0	0	5	7
102512	07:54:25	10028	Trial2BackFrS	NS	17	0	1000	1	120	07:54:25	3801848	5	3	3	3	3	3	3	3	3	8	7	2	0	0	0	5	7
102512	07:54:25	10028	Trial2BackFrS	NS	17	0	1000	1	120	07:54:25	3803354	5	3	3	3	3	3	3	3	3	8	7	2	0	0	0	5	7
102512	07:54:25	10028	Trial2BackFrS	YS	17	57	497	1	120	07:54:25	3804367	5	3	3	3	3	3	3	3	3	8	7	2	0	0	0	5	7
102512	07:54:25	10028	Trial2BackFrS	NS	17	0	1000	1	120	07:54:25	3806366	5	3	3	3	3	3	3	3	3	8	7	2	0	0	0	5	7
102512	07:54:25	10028	Trial2BackFrS	NS	17	0	1000	1	120	07:54:25	3807872	5	3	3	3	3	3	3	3	3	8	7	2	0	0	0	5	7
102512	07:54:25	10028	Trial2BackFrS	YS	17	0	1000	0	120	07:54:25	3809378	5	3	3	3	3	3	3	3	3	8	7	2	0	0	0	5	7
102512	07:54:25	10028	Trial2BackFrS	NS	17	0	1000	1	120	07:54:25	3810885	5	3	3	3	3	3	3	3	3	8	7	2	0	0	0	5	7
102512	07:54:25	10028	Trial2BackFrS	NS	17	0	1000	1	120	07:54:25	3812390	5	3	3	3	3	3	3	3	3	8	7	2	0	0	0	5	7
102512	07:54:25	10028	Trial2BackFrS	NS	17	0	1000	1	120	07:54:25	3813897	5	3	3	3	3	3	3	3	3	8	7	2	0	0	0	5	7
102512	07:54:25	10028	Trial2BackFrS	YS	17	57	594	1	120	07:54:25	3815003	5	3	3	3	3	3	3	3	3	8	7	2	0	0	0	5	7
102512	07:54:25	10028	Trial2BackFrS	NS	17	0	1000	1	120	07:54:25	3816909	5	3	3	3	3	3	3	3	3	8	7	2	0	0	0	5	7
102512	07:54:25	10028	Trial2BackFrS	NS	17	0	1000	1	120	07:54:25	3818415	5	3	3	3	3	3	3	3	3	8	7	2	0	0	0	5	7
102512	07:54:25	10028	Trial2BackFrS	NS	17	0	1000	1	120	07:54:25	3819921	5	3	3	3	3	3	3	3	3	8	7	2	0	0	0	5	7
102512	07:54:25	10028	Trial2BackFrS	NS	17	0	1000	1	120	07:54:25	3821440	5	3	3	3	3	3	3	3	3	8	7	2	0	0	0	5	7
102512	07:54:25	10028	Trial2BackFrS	YS	17	57	571	1	120	07:54:25	3822520	5	3	3	3	3	3	3	3	3	8	7	2	0	0	0	5	7
102512	07:54:25	10028	Trial2BackFrS	NS	17	0	1000	1	120	07:54:25	3824452	5	3	3	3	3	3	3	3	3	8	7	2	0	0	0	5	7
102512	07:54:25	10028	Trial2BackFrS	NS	17	0	1000	1	120	07:54:25	3825959	5	3	3	3	3	3	3	3	3	8	7	2	0	0	0	5	7
102512	07:54:25	10028	Trial2BackFrS	NS	17	0	1000	1	120	07:54:25	3827465	5	3	3	3	3	3	3	3	3	8	7	2	0	0	0	5	7
102512	07:54:25	10028	Trial2BackFrS	NS	17	57	978	0	120	07:54:25	3828957	5	3	3	3	3	3	3	3	3	8	7	2	0	0	0	5	7
102512	07:54:25	10028	Trial2BackFrS	NS	17	0	1000	1	120	07:54:25	3830477	5	3	3	3	3	3	3	3	3	8	7	2	0	0	0	5	7
102512	07:54:25	10028	Trial2BackFrS	NS	17	0	1000	1	120	07:54:25	3831983	5	3	3	3	3	3	3	3	3	8	7	2	0	0	0	5	7
102512	07:54:25	10028	Trial2BackFrS	NS	17	0	1000	1	120	07:54:25	3833489	5	3	3	3	3	3	3	3	3	8	7	2	0	0	0	5	7
102512	07:54:25	10028	Trial2BackFrS	NS	17	0	1000	1	120	07:54:25	3834995	5	3	3	3	3	3	3	3	3	8	7	2	0	0	0	5	7
102512	07:54:25	10028	Trial2BackFrS	NS	17	0	1000	1	120	07:54:25	3836501	5	3	3	3	3	3	3	3	3	8	7	2	0	0	0	5	7
102512	07:54:25	10028	Trial2BackFrS	NS	17	0	1000	1	120	07:54:25	3838007	5	3	3	3	3	3	3	3	3	8	7	2	0	0	0	5	7
102512	07:54:25	10028	Trial2BackFrS	YS	17	57	643	1	120	07:54:25	3839167	5	3	3	3	3	3	3	3	3	8	7	2	0	0	0	5	7
102512	07:54:25	10028	Trial2BackFrS	NS	17	0	1000	1	120	07:54:25	3841019	5	3	3	3	3	3	3	3	3	8	7	2	0	0	0	5	7
102512	07:54:25	10028	Trial2BackFrS	NS	17	0	1000	1	120	07:54:25	3842525	5	3	3	3	3	3	3	3	3	8	7	2	0	0	0	5	7
102512	07:54:25	10028	Trial2BackFrS	NS	17	0	1000	1	120	07:54:25	3844031	5	3	3	3	3	3	3	3	3	8	7	2	0	0	0	5	7
102512	07:54:25	10028	Trial2BackFrS	YS	17	57	467	1	120	07:54:25	3845018	5	3	3	3	3	3	3	3	3	8	7	2	0	0	0	5	7
102512	07:54:25	10028	Trial2BackFrS	NS	17	0	1000	1	120	07:54:25	3847043	5	3	3	3	3	3	3	3	3	8	7	2	0	0	0	5	7
102512	07:54:25	10028	Trial2BackFrS	NS	17	0	1000	1	120	07:54:25	3848550	5	3	3	3	3	3	3	3	3	8	7	2	0	0	0	5	7
102512	07:54:25	10028	Trial2BackFrS	NS	17	0	1000	1	120	07:54:25	3850056	5	3	3	3	3	3	3	3	3	8	7	2	0	0	0	5	7
102512	07:54:25	10028	Trial2BackFrS	NS	17	57	691	0	120	07:54:25	3851255	5	3	3	3	3	3	3	3	3	8	7	2	0	0	0	5	7
102512	07:54:25	10028	Trial2BackFrS	NS	17	0	1000	1	120	07:54:25	3853068	5	3	3	3	3	3	3	3	3	8	7	2	0	0	0	5	7
102512	07:54:25	10028	Trial2BackFrS	NS	17	0	1000	1	120	07:54:25	3854574	5	3	3	3	3	3	3	3	3	8	7	2	0	0	0	5	7
102512	07:54:25	10028	Trial2BackFrS	NS	17	0	1000	1	120	07:54:25	3856080	5	3	3	3	3	3	3	3	3	8	7	2	0	0	0	5	7
102512	07:54:25	10028	Trial2BackFrS	YS	17	0	1000	0	120	07:54:25	3857586	5	3	3	3	3	3	3	3	3	8	7	2	0	0	0	5	7
102512	07:54:25	10028	Trial2BackFrS	NS	17	0	1000	1	120	07:54:25	3859092	5	3	3	3	3	3	3	3	3	8	7	2	0	0	0	5	7
102512	07:54:25	10028	Trial2BackFrS	NS	17	0	1000	1	120	07:54:25	3860598	5	3	3	3	3	3	3	3	3	8	7	2	0	0	0	5	7
102512	07:54:25	10028	Trial2BackFrS	NS	17	0	1000	1	120	07:54:25	3862104	5	3	3	3	3	3	3	3	3	8	7	2	0	0	0	5	7
102512	07:54:25	10028	Trial2BackFrS	NS	17	0	1000	1	120	07:54:25	3863610	5	3	3	3	3	3	3	3	3	8	7	2	0	0	0	5	7
102512	07:54:25	10028	Trial2BackFrS	YS	17	57	451	1	120	07:54:25	3864583	5	3	3	3	3	3	3	3	3	8	7	2	0	0	0	5	7
102512	07:54:25	10028	Trial2BackFrS	NS	17	0	1000	1	120	07:54:25	3866622	5	3	3	3	3	3	3	3	3	8	7	2	0	0	0	5	7
102512	07:54:25	10028	Trial2BackFrS	NS	17	0	1000	1	120	07:54:25	3868128	5	3	3	3	3	3	3	3	3	8	7	2	0	0	0	5	7
102512	07:54:25	10028	Trial2BackFrS	NS	17	0	1000	1	120	07:54:25	3869635	5	3	3	3	3	3	3	3	3	8	7	2	0	0	0	5	7
102512	07:54:25	10028	Trial2BackFrS	NS	17	0	1000	1	120	07:54:25	3871141	5	3	3	3	3	3	3	3	3	8	7	2	0	0	0	5	7
102512	07:54:25	10028	Trial2BackFrS	NS	17	0	1000	1	120	07:54:25	3872647	5	3	3	3	3	3	3	3	3	8	7	2	0	0	0	5	7
102512	07:54:25	10028	Trial2BackFrS	NS	17	0	1000	1	120	07:54:25	3874153	5	3	3	3	3	3	3	3	3	8	7	2	0	0	0	5	7
102512	07:54:25	10028	Trial2BackFrS	YS	17	57	513	1	120	07:54:25	3875179	5	3	3	3	3	3	3	3	3	8	7	2	0	0	0	5	7
102512	07:54:25	10028	Trial2BackFrS	NS	17	0	1000	1	120	07:54:25	3877165	5	3	3	3	3	3	3	3	3	8	7	2	0	0	0	5	7
102512	07:54:25	10028	Trial2BackFrS	NS	17	0	1000	1	120	07:54:25	3878671	5	3	3	3	3	3	3	3	3	8	7	2	0	0	0	5	7
102512	07:54:25	10028	Trial2BackFrS	NS	17	0	1000	1	120	07:54:25	3880177	5	3	3	3	3	3	3	3	3	8	7	2	0	0	0	5	7
102512	07:54:25	10028	Trial2BackFrS	NS	17	0	1000	1	120	07:54:25	3881683	5	3	3	3	3	3	3	3	3	8	7	2	0	0	0	5	7
102512	07:54:25	10028	Trial2BackFrS	NS	17	0	1000	1	120	07:54:25	3883202	5	3	3	3	3	3	3	3	3	8	7	2	0	0	0	5	7
102512	07:54:25	10028	Trial2BackFrS	NS	17	0	1000	1	120	07:54:25	3884709	5	3	3	3	3	3	3	3	3	8	7	2	0	0	0	5	7
102512	07:54:25	10028	Trial2BackFrS	NS	17	0	1000	1	120	07:54:25	3886215	5	3	3	3	3	3	3	3	3	8	7	2	0	0	0	5	7
102512	07:54:25	10028	Trial2BackFrS	YS	17	57	484	1	120	07:54:25	3887214	5	3	3	3	3	3	3	3	3	8	7	2	0	0	0	5	7
102512	07:54:25	10028	Trial2BackFrS	NS	17	0	1000	1	120	07:54:25	3889227	5	3	3	3	3	3	3	3	3	8	7	2	0	0	0	5	7
102512	07:54:25	10028	Trial2BackFrS	NS	17	0	1000	1	120	07:54:25	3890733	5	3	3	3	3	3	3	3	3	8	7	2	0	0	0	5	7
102512	07:54:25	10028	Trial2BackFrS	NS	17	0	1000	1	120	07:54:25	3892239	5	3	3	3	3	3	3	3	3	8	7	2	0	0	0	5	7
102512	07:54:25	10028	Trial2BackFrS	NS	17	0	1000	1	120	07:54:25	3893745	5	3	3	3	3	3	3	3	3	8	7	2	0	0	0	5	7
102512	07:54:25	10028	Trial2BackFrS	YS	17	57	713	1	120	07:54:25	3894971	5	3	3	3	3	3	3	3	3	8	7	2	0	0	0	5	7
102512	07:54:25	10028	Trial2BackFrS	NS	17	0	1000	1	120	07:54:25	3896757	5	3	3	3	3	3	3	3	3	8	7	2	0	0	0	5	7
102512	07:54:25	10028	Trial2BackFrS	NS	17	0	1000	1	120	07:54:25	3898263	5	3	3	3	3	3	3	3	3	8	7	2	0	0	0	5	7
102512	07:54:25	10028	Trial2BackFrS	YS	17	57	578	1	120	07:54:25	3899356	5	3	3	3	3	3	3	3	3	8	7	2	0	0	0	5	7
102512	07:54:25	10028	Trial2BackFrS	NS	17	0	1000	1	120	07:54:25	3901276	5	3	3	3	3	3	3	3	3	8	7	2	0	0	0	5	7
102512	07:54:25	10028	Trial2BackFrS	NS	17	0	1000	1	120	07:54:25	3902781	5	3	3	3	3	3	3	3	3	8	7	2	0	0	0	5	7
102512	07:54:25	10028	Trial2BackFrS	NS	17	0	1000	1	120	07:54:25	3904288	5	3	3	3	3	3	3	3	3	8	7	2	0	0	0	5	7
102512	07:54:25	10028	Trial2BackFrS	NS	17	0	1000	1	120	07:54:25	3905794	5	3	3	3	3	3	3	3	3	8	7	2	0	0	0	5	7
102512	07:54:25	10028	Trial2BackFrS	NS	17	0	1000	1	120	07:54:25	3907300	5	3	3	3	3	3	3	3	3	8	7	2	0	0	0	5	7
102512	07:54:25	10028	Trial2BackFrS	NS	17	0	1000	1	120	07:54:25	3908806	5	3	3	3	3	3	3	3	3	8	7	2	0	0	0	5	7
102512	07:54:25	10028	Trial2BackFrS	YS	17	57	628	1	120	07:54:25	3909952	5	3	3	3	3	3	3	3	3	8	7	2	0	0	0	5	7
102512	07:54:25	10028	Trial2BackFrS	NS	17	0	1000	1	120	07:54:25	3911818	5	3	3	3	3	3	3	3	3	8	7	2	0	0	0	5	7
102512	07:54:25	10028	Trial2BackFrS	NS	17	0	1000	1	120	07:54:25	3913324	5	3	3	3	3	3	3	3	3	8	7	2	0	0	0	5	7
102512	07:54:25	10028	Trial2BackFrS	NS	17	0	1000	1	120	07:54:25	3914843	5	3	3	3	3	3	3	3	3	8	7	2	0	0	0	5	7
102512	07:54:25	10028	Trial2BackFrS	NS	17	0	1000	1	120	07:54:25	3916350	5	3	3	3	3	3	3	3	3	8	7	2	0	0	0	5	7
102512	07:54:25	10028	Trial2BackFrS	YS	17	57	460	1	120	07:54:25	3917322	5	3	3	3	3	3	3	3	3	8	7	2	0	0	0	5	7
102512	07:54:25	10028	Trial2BackFrS	NS	17	0	1000	1	120	07:54:25	3919362	5	3	3	3	3	3	3	3	3	8	7	2	0	0	0	5	7
102512	07:54:25	10028	Trial2BackFrS	NS	17	0	1000	1	120	07:54:25	3920868	5	3	3	3	3	3	3	3	3	8	7	2	0	0	0	5	7
102512	07:54:25	10028	Trial2BackFrS	NS	17	0	1000	1	120	07:54:25	3922374	5	3	3	3	3	3	3	3	3	8	7	2	0	0	0	5	7
102512	07:54:25	10028	Trial2BackFrS	NS	17	0	1000	1	120	07:54:25	3923880	5	3	3	3	3	3	3	3	3	8	7	2	0	0	0	5	7
102512	07:54:25	10028	Trial2BackFrS	YS	17	0	1000	0	120	07:54:25	3925386	5	3	3	3	3	3	3	3	3	8	7	2	0	0	0	5	7
102512	07:54:25	10028	Trial2BackFrS	NS	17	0	1000	1	120	07:54:25	3926892	5	3	3	3	3	3	3	3	3	8	7	2	0	0	0	5	7
102512	07:54:25	10028	Trial2BackFrS	NS	17	0	1000	1	120	07:54:25	3928398	5	3	3	3	3	3	3	3	3	8	7	2	0	0	0	5	7
102512	07:54:25	10028	Trial2BackFrS	YS	17	57	363	1	120	07:54:25	3929278	5	3	3	3	3	3	3	3	3	8	7	2	0	0	0	5	7
102512	07:54:25	10028	Trial2BackFrS	NS	17	0	1000	1	120	07:54:25	3931410	5	3	3	3	3	3	3	3	3	8	7	2	0	0	0	5	7
102512	07:54:25	10028	Trial2BackFrS	NS	17	0	1000	1	120	07:54:25	3932916	5	3	3	3	3	3	3	3	3	8	7	2	0	0	0	5	7
102512	07:54:25	10028	Trial2BackFrS	NS	17	0	1000	1	120	07:54:25	3934422	5	3	3	3	3	3	3	3	3	8	7	2	0	0	0	5	7
102512	07:54:25	10028	Trial2BackFrS	NS	17	0	1000	1	120	07:54:25	3935928	5	3	3	3	3	3	3	3	3	8	7	2	0	0	0	5	7
102512	07:54:25	10028	Trial2BackFrS	NS	17	0	1000	1	120	07:54:25	3937461	5	3	3	3	3	3	3	3	3	8	7	2	0	0	0	5	7
102512	07:54:25	10028	Trial2BackFrS	NS	17	0	1000	1	120	07:54:25	3938967	5	3	3	3	3	3	3	3	3	8	7	2	0	0	0	5	7
102512	07:54:25	10028	Trial2BackFrS	NS	17	0	1000	1	120	07:54:25	3940473	5	3	3	3	3	3	3	3	3	8	7	2	0	0	0	5	7
102512	07:54:25	10028	Trial2BackFrS	NS	17	0	1000	1	120	07:54:25	3941979	5	3	3	3	3	3	3	3	3	8	7	2	0	0	0	5	7
102512	07:54:25	10028	Trial2BackFrS	YS	17	57	990	1	120	07:54:25	3943485	5	3	3	3	3	3	3	3	3	8	7	2	0	0	0	5	7
102512	07:54:25	10028	Trial2BackFrS	NS	17	0	1000	1	120	07:54:25	3944991	5	3	3	3	3	3	3	3	3	8	7	2	0	0	0	5	7
102512	07:54:25	10028	Trial2BackFrS	NS	17	0	1000	1	120	07:54:25	3946498	5	3	3	3	3	3	3	3	3	8	7	2	0	0	0	5	7
102512	07:54:25	10028	Trial2BackFrS	NS	17	0	1000	1	120	07:54:25	3948004	5	3	3	3	3	3	3	3	3	8	7	2	0	0	0	5	7
102512	07:54:25	10028	Trial2BackFrS	NS	17	0	1000	1	120	07:54:25	3949510	5	3	3	3	3	3	3	3	3	8	7	2	0	0	0	5	7
102512	07:54:25	10028	Trial2BackFrS	NS	17	0	1000	1	120	07:54:25	3951016	5	3	3	3	3	3	3	3	3	8	7	2	0	0	0	5	7
102512	07:54:25	10028	Trial2BackFrS	NS	17	0	1000	1	120	07:54:25	3952522	5	3	3	3	3	3	3	3	3	8	7	2	0	0	0	5	7
102512	07:54:25	10028	Trial2BackFrS	NS	17	0	1000	1	120	07:54:25	3954028	5	3	3	3	3	3	3	3	3	8	7	2	0	0	0	5	7
102512	07:54:25	10028	Trial2BackFrS	YS	17	0	1000	0	120	07:54:25	3955534	5	3	3	3	3	3	3	3	3	8	7	2	0	0	0	5	7
102512	07:54:25	10028	Trial2BackFrS	NS	17	0	1000	1	120	07:54:25	3957040	5	3	3	3	3	3	3	3	3	8	7	2	0	0	0	5	7
102512	07:54:25	10028	Trial2BackFrS	NS	17	0	1000	1	120	07:54:25	3958559	5	3	3	3	3	3	3	3	3	8	7	2	0	0	0	5	7
102512	07:54:25	10028	Trial2BackFrS	NS	17	0	1000	1	120	07:54:25	3960066	5	3	3	3	3	3	3	3	3	8	7	2	0	0	0	5	7
102512	07:54:25	10028	Trial2BackFrS	NS	17	0	1000	1	120	07:54:25	3961572	5	3	3	3	3	3	3	3	3	8	7	2	0	0	0	5	7
102512	07:54:25	10028	Trial2BackFrS	NS	17	0	1000	1	120	07:54:25	3963078	5	3	3	3	3	3	3	3	3	8	7	2	0	0	0	5	7
102512	07:54:25	10028	Trial2BackFrS	NS	17	0	1000	1	120	07:54:25	3964584	5	3	3	3	3	3	3	3	3	8	7	2	0	0	0	5	7
102512	07:54:25	10028	Trial2BackFrS	NS	17	0	1000	1	120	07:54:25	3966090	5	3	3	3	3	3	3	3	3	8	7	2	0	0	0	5	7
102512	07:54:25	10028	Trial2BackFrS	NS	17	0	1000	1	120	07:54:25	3967596	5	3	3	3	3	3	3	3	3	8	7	2	0	0	0	5	7
102512	07:54:25	10028	Trial2BackFrS	NS	17	0	1000	1	120	07:54:25	3969102	5	3	3	3	3	3	3	3	3	8	7	2	0	0	0	5	7
102512	07:54:25	10028	Trial2BackFrS	YS	17	57	683	1	120	07:54:25	3970302	5	3	3	3	3	3	3	3	3	8	7	2	0	0	0	5	7
102512	07:54:25	10028	Trial2BackFrS	NS	17	0	1000	1	120	07:54:25	3972114	5	3	3	3	3	3	3	3	3	8	7	2	0	0	0	5	7
102512	07:54:25	10028	Trial3BackFrS	NNS	18	0	1000	1	120	07:54:25	4022801	5	3	3	3	3	3	3	3	3	8	7	2	0	0	0	5	7
102512	07:54:25	10028	Trial3BackFrS	NNS	18	0	1000	1	120	07:54:25	4024307	5	3	3	3	3	3	3	3	3	8	7	2	0	0	0	5	7
102512	07:54:25	10028	Trial3BackFrS	NNS	18	0	1000	1	120	07:54:25	4025813	5	3	3	3	3	3	3	3	3	8	7	2	0	0	0	5	7
102512	07:54:25	10028	Trial3BackFrS	YYS	18	57	355	1	120	07:54:25	4026679	5	3	3	3	3	3	3	3	3	8	7	2	0	0	0	5	7
102512	07:54:25	10028	Trial3BackFrS	NNS	18	0	1000	1	120	07:54:25	4028825	5	3	3	3	3	3	3	3	3	8	7	2	0	0	0	5	7
102512	07:54:25	10028	Trial3BackFrS	NNS	18	0	1000	1	120	07:54:25	4030345	5	3	3	3	3	3	3	3	3	8	7	2	0	0	0	5	7
102512	07:54:25	10028	Trial3BackFrS	NNS	18	0	1000	1	120	07:54:25	4031851	5	3	3	3	3	3	3	3	3	8	7	2	0	0	0	5	7
102512	07:54:25	10028	Trial3BackFrS	NNS	18	0	1000	1	120	07:54:25	4033357	5	3	3	3	3	3	3	3	3	8	7	2	0	0	0	5	7
102512	07:54:25	10028	Trial3BackFrS	YYS	18	57	411	1	120	07:54:25	4034276	5	3	3	3	3	3	3	3	3	8	7	2	0	0	0	5	7
102512	07:54:25	10028	Trial3BackFrS	NNS	18	0	1000	1	120	07:54:25	4036369	5	3	3	3	3	3	3	3	3	8	7	2	0	0	0	5	7
102512	07:54:25	10028	Trial3BackFrS	NNS	18	0	1000	1	120	07:54:25	4037875	5	3	3	3	3	3	3	3	3	8	7	2	0	0	0	5	7
102512	07:54:25	10028	Trial3BackFrS	NNS	18	0	1000	1	120	07:54:25	4039381	5	3	3	3	3	3	3	3	3	8	7	2	0	0	0	5	7
102512	07:54:25	10028	Trial3BackFrS	NNS	18	0	1000	1	120	07:54:25	4040887	5	3	3	3	3	3	3	3	3	8	7	2	0	0	0	5	7
102512	07:54:25	10028	Trial3BackFrS	NNS	18	57	785	0	120	07:54:25	4042180	5	3	3	3	3	3	3	3	3	8	7	2	0	0	0	5	7
102512	07:54:25	10028	Trial3BackFrS	NNS	18	0	1000	1	120	07:54:25	4043899	5	3	3	3	3	3	3	3	3	8	7	2	0	0	0	5	7
102512	07:54:25	10028	Trial3BackFrS	NNS	18	0	1000	1	120	07:54:25	4045418	5	3	3	3	3	3	3	3	3	8	7	2	0	0	0	5	7
102512	07:54:25	10028	Trial3BackFrS	YYS	18	0	1000	0	120	07:54:25	4046925	5	3	3	3	3	3	3	3	3	8	7	2	0	0	0	5	7
102512	07:54:25	10028	Trial3BackFrS	NNS	18	0	1000	1	120	07:54:25	4048431	5	3	3	3	3	3	3	3	3	8	7	2	0	0	0	5	7
102512	07:54:25	10028	Trial3BackFrS	NNS	18	0	1000	1	120	07:54:25	4049937	5	3	3	3	3	3	3	3	3	8	7	2	0	0	0	5	7
102512	07:54:25	10028	Trial3BackFrS	NNS	18	0	1000	1	120	07:54:25	4051443	5	3	3	3	3	3	3	3	3	8	7	2	0	0	0	5	7
102512	07:54:25	10028	Trial3BackFrS	NNS	18	57	949	0	120	07:54:25	4052909	5	3	3	3	3	3	3	3	3	8	7	2	0	0	0	5	7
102512	07:54:25	10028	Trial3BackFrS	NNS	18	0	1000	1	120	07:54:25	4054455	5	3	3	3	3	3	3	3	3	8	7	2	0	0	0	5	7
102512	07:54:25	10028	Trial3BackFrS	YYS	18	57	721	1	120	07:54:25	4055694	5	3	3	3	3	3	3	3	3	8	7	2	0	0	0	5	7
102512	07:54:25	10028	Trial3BackFrS	NNS	18	0	1000	1	120	07:54:25	4057467	5	3	3	3	3	3	3	3	3	8	7	2	0	0	0	5	7
102512	07:54:25	10028	Trial3BackFrS	NNS	18	0	1000	1	120	07:54:25	4058973	5	3	3	3	3	3	3	3	3	8	7	2	0	0	0	5	7
102512	07:54:25	10028	Trial3BackFrS	NNS	18	0	1000	1	120	07:54:25	4060493	5	3	3	3	3	3	3	3	3	8	7	2	0	0	0	5	7
102512	07:54:25	10028	Trial3BackFrS	YYS	18	57	379	1	120	07:54:25	4061385	5	3	3	3	3	3	3	3	3	8	7	2	0	0	0	5	7
102512	07:54:25	10028	Trial3BackFrS	NNS	18	0	1000	1	120	07:54:25	4063505	5	3	3	3	3	3	3	3	3	8	7	2	0	0	0	5	7
102512	07:54:25	10028	Trial3BackFrS	NNS	18	0	1000	1	120	07:54:25	4065011	5	3	3	3	3	3	3	3	3	8	7	2	0	0	0	5	7
102512	07:54:25	10028	Trial3BackFrS	NNS	18	0	1000	1	120	07:54:25	4066517	5	3	3	3	3	3	3	3	3	8	7	2	0	0	0	5	7
102512	07:54:25	10028	Trial3BackFrS	YYS	18	57	387	1	120	07:54:25	4067423	5	3	3	3	3	3	3	3	3	8	7	2	0	0	0	5	7
102512	07:54:25	10028	Trial3BackFrS	NNS	18	0	1000	1	120	07:54:25	4069529	5	3	3	3	3	3	3	3	3	8	7	2	0	0	0	5	7
102512	07:54:25	10028	Trial3BackFrS	NNS	18	0	1000	1	120	07:54:25	4071035	5	3	3	3	3	3	3	3	3	8	7	2	0	0	0	5	7
102512	07:54:25	10028	Trial3BackFrS	NNS	18	0	1000	1	120	07:54:25	4072541	5	3	3	3	3	3	3	3	3	8	7	2	0	0	0	5	7
102512	07:54:25	10028	Trial3BackFrS	NNS	18	0	1000	1	120	07:54:25	4074047	5	3	3	3	3	3	3	3	3	8	7	2	0	0	0	5	7
102512	07:54:25	10028	Trial3BackFrS	NNS	18	0	1000	1	120	07:54:25	4075553	5	3	3	3	3	3	3	3	3	8	7	2	0	0	0	5	7
102512	07:54:25	10028	Trial3BackFrS	NNS	18	0	1000	1	120	07:54:25	4077059	5	3	3	3	3	3	3	3	3	8	7	2	0	0	0	5	7
102512	07:54:25	10028	Trial3BackFrS	NNS	18	0	1000	1	120	07:54:25	4078565	5	3	3	3	3	3	3	3	3	8	7	2	0	0	0	5	7
102512	07:54:25	10028	Trial3BackFrS	NNS	18	0	1000	1	120	07:54:25	4080072	5	3	3	3	3	3	3	3	3	8	7	2	0	0	0	5	7
102512	07:54:25	10028	Trial3BackFrS	NNS	18	57	672	0	120	07:54:25	4081257	5	3	3	3	3	3	3	3	3	8	7	2	0	0	0	5	7
102512	07:54:25	10028	Trial3BackFrS	NNS	18	0	1000	1	120	07:54:25	4083084	5	3	3	3	3	3	3	3	3	8	7	2	0	0	0	5	7
102512	07:54:25	10028	Trial3BackFrS	YYS	18	0	1000	0	120	07:54:25	4084590	5	3	3	3	3	3	3	3	3	8	7	2	0	0	0	5	7
102512	07:54:25	10028	Trial3BackFrS	NNS	18	0	1000	1	120	07:54:25	4086096	5	3	3	3	3	3	3	3	3	8	7	2	0	0	0	5	7
102512	07:54:25	10028	Trial3BackFrS	NNS	18	0	1000	1	120	07:54:25	4087602	5	3	3	3	3	3	3	3	3	8	7	2	0	0	0	5	7
102512	07:54:25	10028	Trial3BackFrS	NNS	18	0	1000	1	120	07:54:25	4089108	5	3	3	3	3	3	3	3	3	8	7	2	0	0	0	5	7
102512	07:54:25	10028	Trial3BackFrS	NNS	18	57	579	0	120	07:54:25	4090201	5	3	3	3	3	3	3	3	3	8	7	2	0	0	0	5	7
102512	07:54:25	10028	Trial3BackFrS	YYS	18	57	625	1	120	07:54:25	4091747	5	3	3	3	3	3	3	3	3	8	7	2	0	0	0	5	7
102512	07:54:25	10028	Trial3BackFrS	NNS	18	0	1000	1	120	07:54:25	4093626	5	3	3	3	3	3	3	3	3	8	7	2	0	0	0	5	7
102512	07:54:25	10028	Trial3BackFrS	NNS	18	0	1000	1	120	07:54:25	4095132	5	3	3	3	3	3	3	3	3	8	7	2	0	0	0	5	7
102512	07:54:25	10028	Trial3BackFrS	NNS	18	57	667	0	120	07:54:25	4096318	5	3	3	3	3	3	3	3	3	8	7	2	0	0	0	5	7
102512	07:54:25	10028	Trial3BackFrS	NNS	18	0	1000	1	120	07:54:25	4098144	5	3	3	3	3	3	3	3	3	8	7	2	0	0	0	5	7
102512	07:54:25	10028	Trial3BackFrS	NNS	18	0	1000	1	120	07:54:25	4099650	5	3	3	3	3	3	3	3	3	8	7	2	0	0	0	5	7
102512	07:54:25	10028	Trial3BackFrS	YYS	18	57	602	1	120	07:54:25	4100797	5	3	3	3	3	3	3	3	3	8	7	2	0	0	0	5	7
102512	07:54:25	10028	Trial3BackFrS	NNS	18	0	1000	1	120	07:54:25	4102689	5	3	3	3	3	3	3	3	3	8	7	2	0	0	0	5	7
102512	07:54:25	10028	Trial3BackFrS	NNS	18	0	1000	1	120	07:54:25	4104195	5	3	3	3	3	3	3	3	3	8	7	2	0	0	0	5	7
102512	07:54:25	10028	Trial3BackFrS	NNS	18	0	1000	1	120	07:54:25	4105701	5	3	3	3	3	3	3	3	3	8	7	2	0	0	0	5	7
102512	07:54:25	10028	Trial3BackFrS	NNS	18	0	1000	1	120	07:54:25	4107207	5	3	3	3	3	3	3	3	3	8	7	2	0	0	0	5	7
102512	07:54:25	10028	Trial3BackFrS	NNS	18	0	1000	1	120	07:54:25	4108713	5	3	3	3	3	3	3	3	3	8	7	2	0	0	0	5	7
102512	07:54:25	10028	Trial3BackFrS	NNS	18	0	1000	1	120	07:54:25	4110220	5	3	3	3	3	3	3	3	3	8	7	2	0	0	0	5	7
102512	07:54:25	10028	Trial3BackFrS	YYS	18	0	1000	0	120	07:54:25	4111739	5	3	3	3	3	3	3	3	3	8	7	2	0	0	0	5	7
102512	07:54:25	10028	Trial3BackFrS	NNS	18	0	1000	1	120	07:54:25	4113245	5	3	3	3	3	3	3	3	3	8	7	2	0	0	0	5	7
102512	07:54:25	10028	Trial3BackFrS	NNS	18	57	634	0	120	07:54:25	4114391	5	3	3	3	3	3	3	3	3	8	7	2	0	0	0	5	7
102512	07:54:25	10028	Trial3BackFrS	NNS	18	0	1000	1	120	07:54:25	4116257	5	3	3	3	3	3	3	3	3	8	7	2	0	0	0	5	7
102512	07:54:25	10028	Trial3BackFrS	YYS	18	57	581	1	120	07:54:25	4117350	5	3	3	3	3	3	3	3	3	8	7	2	0	0	0	5	7
102512	07:54:25	10028	Trial3BackFrS	NNS	18	0	1000	1	120	07:54:25	4119269	5	3	3	3	3	3	3	3	3	8	7	2	0	0	0	5	7
102512	07:54:25	10028	Trial3BackFrS	NNS	18	0	1000	1	120	07:54:25	4120775	5	3	3	3	3	3	3	3	3	8	7	2	0	0	0	5	7
102512	07:54:25	10028	Trial3BackFrS	NNS	18	0	1000	1	120	07:54:25	4122281	5	3	3	3	3	3	3	3	3	8	7	2	0	0	0	5	7
102512	07:54:25	10028	Trial3BackFrS	NNS	18	0	1000	1	120	07:54:25	4123788	5	3	3	3	3	3	3	3	3	8	7	2	0	0	0	5	7
102512	07:54:25	10028	Trial3BackFrS	NNS	18	0	1000	1	120	07:54:25	4125294	5	3	3	3	3	3	3	3	3	8	7	2	0	0	0	5	7
102512	07:54:25	10028	Trial3BackFrS	NNS	18	0	1000	1	120	07:54:25	4126800	5	3	3	3	3	3	3	3	3	8	7	2	0	0	0	5	7
102512	07:54:25	10028	Trial3BackFrS	NNS	18	0	1000	1	120	07:54:25	4128306	5	3	3	3	3	3	3	3	3	8	7	2	0	0	0	5	7
102512	07:54:25	10028	Trial3BackFrS	NNS	18	0	1000	1	120	07:54:25	4129812	5	3	3	3	3	3	3	3	3	8	7	2	0	0	0	5	7
102512	07:54:25	10028	Trial3BackFrS	NNS	18	0	1000	1	120	07:54:25	4131318	5	3	3	3	3	3	3	3	3	8	7	2	0	0	0	5	7
102512	07:54:25	10028	Trial3BackFrS	YYS	18	57	737	1	120	07:54:25	4132571	5	3	3	3	3	3	3	3	3	8	7	2	0	0	0	5	7
102512	07:54:25	10028	Trial3BackFrS	NNS	18	0	1000	1	120	07:54:25	4134330	5	3	3	3	3	3	3	3	3	8	7	2	0	0	0	5	7
102512	07:54:25	10028	Trial3BackFrS	NNS	18	0	1000	1	120	07:54:25	4135836	5	3	3	3	3	3	3	3	3	8	7	2	0	0	0	5	7
102512	07:54:25	10028	Trial3BackFrS	NNS	18	0	1000	1	120	07:54:25	4137342	5	3	3	3	3	3	3	3	3	8	7	2	0	0	0	5	7
102512	07:54:25	10028	Trial3BackFrS	YYS	18	57	520	1	120	07:54:25	4138382	5	3	3	3	3	3	3	3	3	8	7	2	0	0	0	5	7
102512	07:54:25	10028	Trial3BackFrS	NNS	18	0	1000	1	120	07:54:25	4140355	5	3	3	3	3	3	3	3	3	8	7	2	0	0	0	5	7
102512	07:54:25	10028	Trial3BackFrS	NNS	18	0	1000	1	120	07:54:25	4141874	5	3	3	3	3	3	3	3	3	8	7	2	0	0	0	5	7
102512	07:54:25	10028	Trial3BackFrS	NNS	18	0	1000	1	120	07:54:25	4143380	5	3	3	3	3	3	3	3	3	8	7	2	0	0	0	5	7
102512	07:54:25	10028	Trial3BackFrS	NNS	18	57	963	0	120	07:54:25	4144859	5	3	3	3	3	3	3	3	3	8	7	2	0	0	0	5	7
102512	07:54:25	10028	Trial3BackFrS	NNS	18	0	1000	1	120	07:54:25	4146392	5	3	3	3	3	3	3	3	3	8	7	2	0	0	0	5	7
102512	07:54:25	10028	Trial3BackFrS	YYS	18	0	1000	0	120	07:54:25	4147898	5	3	3	3	3	3	3	3	3	8	7	2	0	0	0	5	7
102512	07:54:25	10028	Trial3BackFrS	NNS	18	0	1000	1	120	07:54:25	4149404	5	3	3	3	3	3	3	3	3	8	7	2	0	0	0	5	7
102512	07:54:25	10028	Trial3BackFrS	NNS	18	0	1000	1	120	07:54:25	4150910	5	3	3	3	3	3	3	3	3	8	7	2	0	0	0	5	7
102512	07:54:25	10028	Trial3BackFrS	NNS	18	0	1000	1	120	07:54:25	4152416	5	3	3	3	3	3	3	3	3	8	7	2	0	0	0	5	7
102512	07:54:25	10028	Trial3BackFrS	NNS	18	0	1000	1	120	07:54:25	4153922	5	3	3	3	3	3	3	3	3	8	7	2	0	0	0	5	7
102512	07:54:25	10028	Trial3BackFrS	NNS	18	0	1000	1	120	07:54:25	4155429	5	3	3	3	3	3	3	3	3	8	7	2	0	0	0	5	7
102512	07:54:25	10028	Trial3BackFrS	NNS	18	57	802	0	120	07:54:25	4156748	5	3	3	3	3	3	3	3	3	8	7	2	0	0	0	5	7
