date	time	subject	blockcode	trialcode	values.TaskNumber	response	latency	correct	values.Score	script.starttime	script.elapsedtime	values.ScoreS7	values.Word1	values.Word2	values.Word3	values.Word4	values.Word5	values.Word6	values.Word7	values.Word8	values.DigitSpanFwrd	values.DigitSpanBack	values.ScoreAbs	values.Contour	values.Numbers	values.Hands	values.corsiblockspanFwrd	values.corsiblockspanRev
112912	14:52:47	10039	Language	Language	0	French	1473	0	0	14:52:47	1590	0	0	0	0	0	0	0	0	0	0	0	0	0	0	0	0	0
112912	14:52:47	10039	Session	Session	0	3mo	2233	0	0	14:52:47	3882	0	0	0	0	0	0	0	0	0	0	0	0	0	0	0	0	0
112912	14:52:47	10039	HandFr	HandFr	0	RightFr	686029	0	0	14:52:47	689971	0	0	0	0	0	0	0	0	0	0	0	0	0	0	0	0	0
112912	14:52:47	10039	AudioCheckFr	WordsFr	0	0	0	0	0	14:52:47	2372723	0	0	0	0	0	0	0	0	0	0	0	0	0	0	0	0	0
112912	14:52:47	10039	CubeFr	CubeFr	1	1Cube	16246	0	0	14:52:47	2390503	0	0	0	0	0	0	0	0	0	0	0	0	0	0	0	0	0
112912	14:52:47	10039	pm.simpleFrRight	blank.simpleFr	2	0	2500	1	0	14:52:47	2447013	0	0	0	0	0	0	0	0	0	0	0	0	0	0	0	0	0
112912	14:52:47	10039	pm.simpleFrRight	pm.simpleFr	2	57	465	0	0	14:52:47	2447506	0	0	0	0	0	0	0	0	0	0	0	0	0	0	0	0	0
112912	14:52:47	10039	pm.simpleFrRight	blank.simpleFr	2	0	2200	1	0	14:52:47	2449719	0	0	0	0	0	0	0	0	0	0	0	0	0	0	0	0	0
112912	14:52:47	10039	pm.simpleFrRight	pm.simpleFr	2	57	495	0	0	14:52:47	2450238	0	0	0	0	0	0	0	0	0	0	0	0	0	0	0	0	0
112912	14:52:47	10039	pm.simpleFrRight	blank.simpleFr	2	0	2000	1	0	14:52:47	2452251	0	0	0	0	0	0	0	0	0	0	0	0	0	0	0	0	0
112912	14:52:47	10039	pm.simpleFrRight	pm.simpleFr	2	57	555	0	0	14:52:47	2452824	0	0	0	0	0	0	0	0	0	0	0	0	0	0	0	0	0
112912	14:52:47	10039	pm.simpleFrRight	blank.simpleFr	2	0	1900	1	0	14:52:47	2454743	0	0	0	0	0	0	0	0	0	0	0	0	0	0	0	0	0
112912	14:52:47	10039	pm.simpleFrRight	pm.simpleFr	2	57	447	0	0	14:52:47	2455210	0	0	0	0	0	0	0	0	0	0	0	0	0	0	0	0	0
112912	14:52:47	10039	pm.simpleFrRight	blank.simpleFr	2	0	2100	1	0	14:52:47	2457329	0	0	0	0	0	0	0	0	0	0	0	0	0	0	0	0	0
112912	14:52:47	10039	pm.simpleFrRight	pm.simpleFr	2	57	389	0	0	14:52:47	2457742	0	0	0	0	0	0	0	0	0	0	0	0	0	0	0	0	0
112912	14:52:47	10039	pm.simpleFrRight	blank.simpleFr	2	0	2400	1	0	14:52:47	2460154	0	0	0	0	0	0	0	0	0	0	0	0	0	0	0	0	0
112912	14:52:47	10039	pm.simpleFrRight	pm.simpleFr	2	57	459	0	0	14:52:47	2460634	0	0	0	0	0	0	0	0	0	0	0	0	0	0	0	0	0
112912	14:52:47	10039	pm.simpleFrRight	blank.simpleFr	2	0	1700	1	0	14:52:47	2462353	0	0	0	0	0	0	0	0	0	0	0	0	0	0	0	0	0
112912	14:52:47	10039	pm.simpleFrRight	pm.simpleFr	2	57	501	0	0	14:52:47	2462873	0	0	0	0	0	0	0	0	0	0	0	0	0	0	0	0	0
112912	14:52:47	10039	pm.simpleFrRight	blank.simpleFr	2	0	1500	1	0	14:52:47	2464392	0	0	0	0	0	0	0	0	0	0	0	0	0	0	0	0	0
112912	14:52:47	10039	pm.simpleFrRight	pm.simpleFr	2	57	445	0	0	14:52:47	2464859	0	0	0	0	0	0	0	0	0	0	0	0	0	0	0	0	0
112912	14:52:47	10039	pm.simpleFrRight	blank.simpleFr	2	0	2300	1	0	14:52:47	2467178	0	0	0	0	0	0	0	0	0	0	0	0	0	0	0	0	0
112912	14:52:47	10039	pm.simpleFrRight	pm.simpleFr	2	57	332	0	0	14:52:47	2467538	0	0	0	0	0	0	0	0	0	0	0	0	0	0	0	0	0
112912	14:52:47	10039	pm.simpleFrRight	blank.simpleFr	2	0	1600	1	0	14:52:47	2469150	0	0	0	0	0	0	0	0	0	0	0	0	0	0	0	0	0
112912	14:52:47	10039	pm.simpleFrRight	pm.simpleFr	2	57	311	0	0	14:52:47	2469484	0	0	0	0	0	0	0	0	0	0	0	0	0	0	0	0	0
112912	14:52:47	10039	pm.simpleFrRight	blank.simpleFr	2	0	1800	1	0	14:52:47	2471296	0	0	0	0	0	0	0	0	0	0	0	0	0	0	0	0	0
112912	14:52:47	10039	pm.simpleFrRight	pm.simpleFr	2	57	293	0	0	14:52:47	2471616	0	0	0	0	0	0	0	0	0	0	0	0	0	0	0	0	0
112912	14:52:47	10039	pm.simpleFrRight	blank.simpleFr	2	0	1800	1	0	14:52:47	2473442	0	0	0	0	0	0	0	0	0	0	0	0	0	0	0	0	0
112912	14:52:47	10039	pm.simpleFrRight	pm.simpleFr	2	57	291	0	0	14:52:47	2473762	0	0	0	0	0	0	0	0	0	0	0	0	0	0	0	0	0
112912	14:52:47	10039	pm.simpleFrRight	blank.simpleFr	2	0	2200	1	0	14:52:47	2475974	0	0	0	0	0	0	0	0	0	0	0	0	0	0	0	0	0
112912	14:52:47	10039	pm.simpleFrRight	pm.simpleFr	2	57	287	0	0	14:52:47	2476281	0	0	0	0	0	0	0	0	0	0	0	0	0	0	0	0	0
112912	14:52:47	10039	pm.simpleFrRight	blank.simpleFr	2	0	1900	1	0	14:52:47	2478200	0	0	0	0	0	0	0	0	0	0	0	0	0	0	0	0	0
112912	14:52:47	10039	pm.simpleFrRight	pm.simpleFr	2	57	349	0	0	14:52:47	2478573	0	0	0	0	0	0	0	0	0	0	0	0	0	0	0	0	0
112912	14:52:47	10039	pm.simpleFrRight	blank.simpleFr	2	0	2500	1	0	14:52:47	2481092	0	0	0	0	0	0	0	0	0	0	0	0	0	0	0	0	0
112912	14:52:47	10039	pm.simpleFrRight	pm.simpleFr	2	57	321	0	0	14:52:47	2481438	0	0	0	0	0	0	0	0	0	0	0	0	0	0	0	0	0
112912	14:52:47	10039	pm.simpleFrRight	blank.simpleFr	2	0	2100	1	0	14:52:47	2483558	0	0	0	0	0	0	0	0	0	0	0	0	0	0	0	0	0
112912	14:52:47	10039	pm.simpleFrRight	pm.simpleFr	2	57	319	0	0	14:52:47	2483904	0	0	0	0	0	0	0	0	0	0	0	0	0	0	0	0	0
112912	14:52:47	10039	pm.simpleFrRight	blank.simpleFr	2	0	2000	1	0	14:52:47	2485917	0	0	0	0	0	0	0	0	0	0	0	0	0	0	0	0	0
112912	14:52:47	10039	pm.simpleFrRight	pm.simpleFr	2	57	344	0	0	14:52:47	2486290	0	0	0	0	0	0	0	0	0	0	0	0	0	0	0	0	0
112912	14:52:47	10039	pm.simpleFrRight	blank.simpleFr	2	0	2300	1	0	14:52:47	2488609	0	0	0	0	0	0	0	0	0	0	0	0	0	0	0	0	0
112912	14:52:47	10039	pm.simpleFrRight	pm.simpleFr	2	57	276	0	0	14:52:47	2488902	0	0	0	0	0	0	0	0	0	0	0	0	0	0	0	0	0
112912	14:52:47	10039	pm.simpleFrRight	blank.simpleFr	2	0	1700	1	0	14:52:47	2490622	0	0	0	0	0	0	0	0	0	0	0	0	0	0	0	0	0
112912	14:52:47	10039	pm.simpleFrRight	pm.simpleFr	2	57	327	0	0	14:52:47	2490968	0	0	0	0	0	0	0	0	0	0	0	0	0	0	0	0	0
112912	14:52:47	10039	pm.simpleFrRight	blank.simpleFr	2	0	2400	1	0	14:52:47	2493380	0	0	0	0	0	0	0	0	0	0	0	0	0	0	0	0	0
112912	14:52:47	10039	pm.simpleFrRight	pm.simpleFr	2	57	272	0	0	14:52:47	2493674	0	0	0	0	0	0	0	0	0	0	0	0	0	0	0	0	0
112912	14:52:47	10039	pm.simpleFrRight	blank.simpleFr	2	0	1600	1	0	14:52:47	2495286	0	0	0	0	0	0	0	0	0	0	0	0	0	0	0	0	0
112912	14:52:47	10039	pm.simpleFrRight	pm.simpleFr	2	57	382	0	0	14:52:47	2495686	0	0	0	0	0	0	0	0	0	0	0	0	0	0	0	0	0
112912	14:52:47	10039	pm.simpleFrRight	blank.simpleFr	2	0	1500	1	0	14:52:47	2497205	0	0	0	0	0	0	0	0	0	0	0	0	0	0	0	0	0
112912	14:52:47	10039	pm.simpleFrRight	pm.simpleFr	2	57	335	0	0	14:52:47	2497565	0	0	0	0	0	0	0	0	0	0	0	0	0	0	0	0	0
112912	14:52:47	10039	pm.simpleFrRight	blank.simpleFr	2	0	2400	1	0	14:52:47	2499978	0	0	0	0	0	0	0	0	0	0	0	0	0	0	0	0	0
112912	14:52:47	10039	pm.simpleFrRight	pm.simpleFr	2	57	267	0	0	14:52:47	2500271	0	0	0	0	0	0	0	0	0	0	0	0	0	0	0	0	0
112912	14:52:47	10039	pm.simpleFrRight	blank.simpleFr	2	0	2500	1	0	14:52:47	2502790	0	0	0	0	0	0	0	0	0	0	0	0	0	0	0	0	0
112912	14:52:47	10039	pm.simpleFrRight	pm.simpleFr	2	57	318	0	0	14:52:47	2503136	0	0	0	0	0	0	0	0	0	0	0	0	0	0	0	0	0
112912	14:52:47	10039	pm.simpleFrRight	blank.simpleFr	2	0	1600	1	0	14:52:47	2504749	0	0	0	0	0	0	0	0	0	0	0	0	0	0	0	0	0
112912	14:52:47	10039	pm.simpleFrRight	pm.simpleFr	2	57	279	0	0	14:52:47	2505056	0	0	0	0	0	0	0	0	0	0	0	0	0	0	0	0	0
112912	14:52:47	10039	pm.simpleFrRight	blank.simpleFr	2	0	2200	1	0	14:52:47	2507268	0	0	0	0	0	0	0	0	0	0	0	0	0	0	0	0	0
112912	14:52:47	10039	pm.simpleFrRight	pm.simpleFr	2	57	288	0	0	14:52:47	2507574	0	0	0	0	0	0	0	0	0	0	0	0	0	0	0	0	0
112912	14:52:47	10039	pm.simpleFrRight	blank.simpleFr	2	0	2300	1	0	14:52:47	2509894	0	0	0	0	0	0	0	0	0	0	0	0	0	0	0	0	0
112912	14:52:47	10039	pm.simpleFrRight	pm.simpleFr	2	57	383	0	0	14:52:47	2510293	0	0	0	0	0	0	0	0	0	0	0	0	0	0	0	0	0
112912	14:52:47	10039	pm.simpleFrRight	blank.simpleFr	2	0	1800	1	0	14:52:47	2512119	0	0	0	0	0	0	0	0	0	0	0	0	0	0	0	0	0
112912	14:52:47	10039	pm.simpleFrRight	pm.simpleFr	2	57	285	0	0	14:52:47	2512426	0	0	0	0	0	0	0	0	0	0	0	0	0	0	0	0	0
112912	14:52:47	10039	pm.simpleFrRight	blank.simpleFr	2	0	2100	1	0	14:52:47	2514545	0	0	0	0	0	0	0	0	0	0	0	0	0	0	0	0	0
112912	14:52:47	10039	pm.simpleFrRight	pm.simpleFr	2	57	274	0	0	14:52:47	2514838	0	0	0	0	0	0	0	0	0	0	0	0	0	0	0	0	0
112912	14:52:47	10039	pm.simpleFrRight	blank.simpleFr	2	0	1900	1	0	14:52:47	2516757	0	0	0	0	0	0	0	0	0	0	0	0	0	0	0	0	0
112912	14:52:47	10039	pm.simpleFrRight	pm.simpleFr	2	57	254	0	0	14:52:47	2517037	0	0	0	0	0	0	0	0	0	0	0	0	0	0	0	0	0
112912	14:52:47	10039	pm.simpleFrRight	blank.simpleFr	2	0	1700	1	0	14:52:47	2518757	0	0	0	0	0	0	0	0	0	0	0	0	0	0	0	0	0
112912	14:52:47	10039	pm.simpleFrRight	pm.simpleFr	2	57	287	0	0	14:52:47	2519063	0	0	0	0	0	0	0	0	0	0	0	0	0	0	0	0	0
112912	14:52:47	10039	pm.simpleFrRight	blank.simpleFr	2	0	2000	1	0	14:52:47	2521089	0	0	0	0	0	0	0	0	0	0	0	0	0	0	0	0	0
112912	14:52:47	10039	pm.simpleFrRight	pm.simpleFr	2	57	243	0	0	14:52:47	2521355	0	0	0	0	0	0	0	0	0	0	0	0	0	0	0	0	0
112912	14:52:47	10039	pm.simpleFrRight	blank.simpleFr	2	0	1500	1	0	14:52:47	2522875	0	0	0	0	0	0	0	0	0	0	0	0	0	0	0	0	0
112912	14:52:47	10039	pm.simpleFrRight	pm.simpleFr	2	57	409	0	0	14:52:47	2523301	0	0	0	0	0	0	0	0	0	0	0	0	0	0	0	0	0
112912	14:52:47	10039	pm.simpleFrRight	blank.simpleFr	2	0	2200	1	0	14:52:47	2525514	0	0	0	0	0	0	0	0	0	0	0	0	0	0	0	0	0
112912	14:52:47	10039	pm.simpleFrRight	pm.simpleFr	2	57	266	0	0	14:52:47	2525807	0	0	0	0	0	0	0	0	0	0	0	0	0	0	0	0	0
112912	14:52:47	10039	pm.simpleFrRight	blank.simpleFr	2	0	2400	1	0	14:52:47	2528219	0	0	0	0	0	0	0	0	0	0	0	0	0	0	0	0	0
112912	14:52:47	10039	pm.simpleFrRight	pm.simpleFr	2	57	265	0	0	14:52:47	2528513	0	0	0	0	0	0	0	0	0	0	0	0	0	0	0	0	0
112912	14:52:47	10039	pm.simpleFrRight	blank.simpleFr	2	0	2000	1	0	14:52:47	2530525	0	0	0	0	0	0	0	0	0	0	0	0	0	0	0	0	0
112912	14:52:47	10039	pm.simpleFrRight	pm.simpleFr	2	57	406	0	0	14:52:47	2530951	0	0	0	0	0	0	0	0	0	0	0	0	0	0	0	0	0
112912	14:52:47	10039	pm.simpleFrRight	blank.simpleFr	2	0	2300	1	0	14:52:47	2533271	0	0	0	0	0	0	0	0	0	0	0	0	0	0	0	0	0
112912	14:52:47	10039	pm.simpleFrRight	pm.simpleFr	2	57	301	0	0	14:52:47	2533590	0	0	0	0	0	0	0	0	0	0	0	0	0	0	0	0	0
112912	14:52:47	10039	pm.simpleFrRight	blank.simpleFr	2	0	1700	1	0	14:52:47	2535310	0	0	0	0	0	0	0	0	0	0	0	0	0	0	0	0	0
112912	14:52:47	10039	pm.simpleFrRight	pm.simpleFr	2	57	277	0	0	14:52:47	2535616	0	0	0	0	0	0	0	0	0	0	0	0	0	0	0	0	0
112912	14:52:47	10039	pm.simpleFrRight	blank.simpleFr	2	0	1900	1	0	14:52:47	2537535	0	0	0	0	0	0	0	0	0	0	0	0	0	0	0	0	0
112912	14:52:47	10039	pm.simpleFrRight	pm.simpleFr	2	57	276	0	0	14:52:47	2537828	0	0	0	0	0	0	0	0	0	0	0	0	0	0	0	0	0
112912	14:52:47	10039	pm.simpleFrRight	blank.simpleFr	2	0	1800	1	0	14:52:47	2539641	0	0	0	0	0	0	0	0	0	0	0	0	0	0	0	0	0
112912	14:52:47	10039	pm.simpleFrRight	pm.simpleFr	2	57	346	0	0	14:52:47	2540014	0	0	0	0	0	0	0	0	0	0	0	0	0	0	0	0	0
112912	14:52:47	10039	Trial2BackFr	N	3	0	1000	1	1	14:52:47	2655100	0	0	0	0	0	0	0	0	0	0	0	0	0	0	0	0	0
112912	14:52:47	10039	Trial2BackFr	N	3	0	1000	1	2	14:52:47	2656606	0	0	0	0	0	0	0	0	0	0	0	0	0	0	0	0	0
112912	14:52:47	10039	Trial2BackFr	N	3	0	1000	1	3	14:52:47	2658112	0	0	0	0	0	0	0	0	0	0	0	0	0	0	0	0	0
112912	14:52:47	10039	Trial2BackFr	N	3	0	1000	1	4	14:52:47	2659618	0	0	0	0	0	0	0	0	0	0	0	0	0	0	0	0	0
112912	14:52:47	10039	Trial2BackFr	N	3	0	1000	1	5	14:52:47	2661124	0	0	0	0	0	0	0	0	0	0	0	0	0	0	0	0	0
112912	14:52:47	10039	Trial2BackFr	N	3	0	1000	1	6	14:52:47	2662630	0	0	0	0	0	0	0	0	0	0	0	0	0	0	0	0	0
112912	14:52:47	10039	Trial2BackFr	N	3	0	1000	1	7	14:52:47	2664136	0	0	0	0	0	0	0	0	0	0	0	0	0	0	0	0	0
112912	14:52:47	10039	Trial2BackFr	N	3	0	1000	1	8	14:52:47	2665642	0	0	0	0	0	0	0	0	0	0	0	0	0	0	0	0	0
112912	14:52:47	10039	Trial2BackFr	Y	3	57	665	1	9	14:52:47	2666828	0	0	0	0	0	0	0	0	0	0	0	0	0	0	0	0	0
112912	14:52:47	10039	Trial2BackFr	N	3	0	1000	1	10	14:52:47	2668654	0	0	0	0	0	0	0	0	0	0	0	0	0	0	0	0	0
112912	14:52:47	10039	Trial2BackFr	N	3	0	1000	1	11	14:52:47	2670160	0	0	0	0	0	0	0	0	0	0	0	0	0	0	0	0	0
112912	14:52:47	10039	Trial2BackFr	N	3	0	1000	1	12	14:52:47	2671680	0	0	0	0	0	0	0	0	0	0	0	0	0	0	0	0	0
112912	14:52:47	10039	Trial2BackFr	Y	3	57	611	1	13	14:52:47	2672799	0	0	0	0	0	0	0	0	0	0	0	0	0	0	0	0	0
112912	14:52:47	10039	Trial2BackFr	N	3	0	1000	1	14	14:52:47	2674692	0	0	0	0	0	0	0	0	0	0	0	0	0	0	0	0	0
112912	14:52:47	10039	Trial2BackFr	N	3	0	1000	1	15	14:52:47	2676198	0	0	0	0	0	0	0	0	0	0	0	0	0	0	0	0	0
112912	14:52:47	10039	Trial2BackFr	N	3	0	1000	1	16	14:52:47	2677704	0	0	0	0	0	0	0	0	0	0	0	0	0	0	0	0	0
112912	14:52:47	10039	Trial2BackFr	N	3	0	1000	1	17	14:52:47	2679210	0	0	0	0	0	0	0	0	0	0	0	0	0	0	0	0	0
112912	14:52:47	10039	Trial2BackFr	N	3	0	1000	1	18	14:52:47	2680716	0	0	0	0	0	0	0	0	0	0	0	0	0	0	0	0	0
112912	14:52:47	10039	Trial2BackFr	Y	3	0	1000	0	18	14:52:47	2682222	0	0	0	0	0	0	0	0	0	0	0	0	0	0	0	0	0
112912	14:52:47	10039	Trial2BackFr	N	3	0	1000	1	19	14:52:47	2683728	0	0	0	0	0	0	0	0	0	0	0	0	0	0	0	0	0
112912	14:52:47	10039	Trial2BackFr	N	3	57	963	0	19	14:52:47	2685207	0	0	0	0	0	0	0	0	0	0	0	0	0	0	0	0	0
112912	14:52:47	10039	Trial2BackFr	N	3	0	1000	1	20	14:52:47	2686740	0	0	0	0	0	0	0	0	0	0	0	0	0	0	0	0	0
112912	14:52:47	10039	Trial2BackFr	N	3	0	1000	1	21	14:52:47	2688246	0	0	0	0	0	0	0	0	0	0	0	0	0	0	0	0	0
112912	14:52:47	10039	Trial2BackFr	Y	3	57	844	1	22	14:52:47	2689606	0	0	0	0	0	0	0	0	0	0	0	0	0	0	0	0	0
112912	14:52:47	10039	Trial2BackFr	N	3	57	906	0	22	14:52:47	2691178	0	0	0	0	0	0	0	0	0	0	0	0	0	0	0	0	0
112912	14:52:47	10039	Trial2BackFr	N	3	0	1000	1	23	14:52:47	2692764	0	0	0	0	0	0	0	0	0	0	0	0	0	0	0	0	0
112912	14:52:47	10039	Trial2BackFr	N	3	0	1000	1	24	14:52:47	2694270	0	0	0	0	0	0	0	0	0	0	0	0	0	0	0	0	0
112912	14:52:47	10039	Trial2BackFr	N	3	0	1000	1	25	14:52:47	2695777	0	0	0	0	0	0	0	0	0	0	0	0	0	0	0	0	0
112912	14:52:47	10039	Trial2BackFr	N	3	0	1000	1	26	14:52:47	2697282	0	0	0	0	0	0	0	0	0	0	0	0	0	0	0	0	0
112912	14:52:47	10039	Trial2BackFr	N	3	0	1000	1	27	14:52:47	2698788	0	0	0	0	0	0	0	0	0	0	0	0	0	0	0	0	0
112912	14:52:47	10039	Trial2BackFr	Y	3	0	1000	0	27	14:52:47	2700294	0	0	0	0	0	0	0	0	0	0	0	0	0	0	0	0	0
112912	14:52:47	10039	Trial2BackFr	N	3	0	1000	1	28	14:52:47	2701800	0	0	0	0	0	0	0	0	0	0	0	0	0	0	0	0	0
112912	14:52:47	10039	Trial2BackFr	N	3	0	1000	1	29	14:52:47	2703306	0	0	0	0	0	0	0	0	0	0	0	0	0	0	0	0	0
112912	14:52:47	10039	Trial2BackFr	N	3	0	1000	1	30	14:52:47	2704813	0	0	0	0	0	0	0	0	0	0	0	0	0	0	0	0	0
112912	14:52:47	10039	Trial2BackFr	Y	3	57	693	1	31	14:52:47	2706025	0	0	0	0	0	0	0	0	0	0	0	0	0	0	0	0	0
112912	14:52:47	10039	Trial2BackFr	N	3	57	931	0	31	14:52:47	2707758	0	0	0	0	0	0	0	0	0	0	0	0	0	0	0	0	0
112912	14:52:47	10039	Trial2BackFr	N	3	57	830	0	31	14:52:47	2709158	0	0	0	0	0	0	0	0	0	0	0	0	0	0	0	0	0
112912	14:52:47	10039	Trial2BackFr	N	3	0	1000	1	32	14:52:47	2710824	0	0	0	0	0	0	0	0	0	0	0	0	0	0	0	0	0
112912	14:52:47	10039	Trial2BackFr	N	3	0	1000	1	33	14:52:47	2712343	0	0	0	0	0	0	0	0	0	0	0	0	0	0	0	0	0
112912	14:52:47	10039	Trial2BackFr	N	3	0	1000	1	34	14:52:47	2713849	0	0	0	0	0	0	0	0	0	0	0	0	0	0	0	0	0
112912	14:52:47	10039	Trial2BackFr	N	3	0	1000	1	35	14:52:47	2715355	0	0	0	0	0	0	0	0	0	0	0	0	0	0	0	0	0
112912	14:52:47	10039	Trial2BackFr	Y	3	0	1000	0	35	14:52:47	2716861	0	0	0	0	0	0	0	0	0	0	0	0	0	0	0	0	0
112912	14:52:47	10039	Trial2BackFr	N	3	0	1000	1	36	14:52:47	2718367	0	0	0	0	0	0	0	0	0	0	0	0	0	0	0	0	0
112912	14:52:47	10039	Trial2BackFr	N	3	0	1000	1	37	14:52:47	2719873	0	0	0	0	0	0	0	0	0	0	0	0	0	0	0	0	0
112912	14:52:47	10039	Trial2BackFr	N	3	0	1000	1	38	14:52:47	2721392	0	0	0	0	0	0	0	0	0	0	0	0	0	0	0	0	0
112912	14:52:47	10039	Trial2BackFr	N	3	0	1000	1	39	14:52:47	2722899	0	0	0	0	0	0	0	0	0	0	0	0	0	0	0	0	0
112912	14:52:47	10039	Trial2BackFr	Y	3	57	735	1	40	14:52:47	2724151	0	0	0	0	0	0	0	0	0	0	0	0	0	0	0	0	0
112912	14:52:47	10039	Trial2BackFr	N	3	0	1000	1	41	14:52:47	2725911	0	0	0	0	0	0	0	0	0	0	0	0	0	0	0	0	0
112912	14:52:47	10039	Trial2BackFr	N	3	0	1000	1	42	14:52:47	2727430	0	0	0	0	0	0	0	0	0	0	0	0	0	0	0	0	0
112912	14:52:47	10039	Trial2BackFr	N	3	0	1000	1	43	14:52:47	2728949	0	0	0	0	0	0	0	0	0	0	0	0	0	0	0	0	0
112912	14:52:47	10039	Trial2BackFr	N	3	0	1000	1	44	14:52:47	2730468	0	0	0	0	0	0	0	0	0	0	0	0	0	0	0	0	0
112912	14:52:47	10039	Trial2BackFr	N	3	0	1000	1	45	14:52:47	2731975	0	0	0	0	0	0	0	0	0	0	0	0	0	0	0	0	0
112912	14:52:47	10039	Trial2BackFr	Y	3	0	1000	0	45	14:52:47	2733481	0	0	0	0	0	0	0	0	0	0	0	0	0	0	0	0	0
112912	14:52:47	10039	Trial2BackFr	N	3	0	1000	1	46	14:52:47	2734987	0	0	0	0	0	0	0	0	0	0	0	0	0	0	0	0	0
112912	14:52:47	10039	Trial2BackFr	N	3	0	1000	1	47	14:52:47	2736506	0	0	0	0	0	0	0	0	0	0	0	0	0	0	0	0	0
112912	14:52:47	10039	Trial2BackFr	N	3	0	1000	1	48	14:52:47	2738012	0	0	0	0	0	0	0	0	0	0	0	0	0	0	0	0	0
112912	14:52:47	10039	Trial2BackFr	N	3	0	1000	1	49	14:52:47	2739531	0	0	0	0	0	0	0	0	0	0	0	0	0	0	0	0	0
112912	14:52:47	10039	Trial2BackFr	N	3	0	1000	1	50	14:52:47	2741038	0	0	0	0	0	0	0	0	0	0	0	0	0	0	0	0	0
112912	14:52:47	10039	Trial2BackFr	N	3	0	1000	1	51	14:52:47	2742543	0	0	0	0	0	0	0	0	0	0	0	0	0	0	0	0	0
112912	14:52:47	10039	Trial2BackFr	Y	3	57	534	1	52	14:52:47	2743703	0	0	0	0	0	0	0	0	0	0	0	0	0	0	0	0	0
112912	14:52:47	10039	Trial2BackFr	N	3	0	1000	1	53	14:52:47	2745662	0	0	0	0	0	0	0	0	0	0	0	0	0	0	0	0	0
112912	14:52:47	10039	Trial2BackFr	N	3	0	1000	1	54	14:52:47	2747168	0	0	0	0	0	0	0	0	0	0	0	0	0	0	0	0	0
112912	14:52:47	10039	Trial2BackFr	Y	3	57	912	1	55	14:52:47	2748594	0	0	0	0	0	0	0	0	0	0	0	0	0	0	0	0	0
112912	14:52:47	10039	Trial2BackFr	N	3	0	1000	1	56	14:52:47	2750180	0	0	0	0	0	0	0	0	0	0	0	0	0	0	0	0	0
112912	14:52:47	10039	Trial2BackFr	N	3	0	1000	1	57	14:52:47	2751687	0	0	0	0	0	0	0	0	0	0	0	0	0	0	0	0	0
112912	14:52:47	10039	Trial2BackFr	N	3	0	1000	1	58	14:52:47	2753192	0	0	0	0	0	0	0	0	0	0	0	0	0	0	0	0	0
112912	14:52:47	10039	Trial2BackFr	N	3	0	1000	1	59	14:52:47	2754698	0	0	0	0	0	0	0	0	0	0	0	0	0	0	0	0	0
112912	14:52:47	10039	Trial2BackFr	N	3	57	582	0	59	14:52:47	2755791	0	0	0	0	0	0	0	0	0	0	0	0	0	0	0	0	0
112912	14:52:47	10039	Trial2BackFr	N	3	0	1000	1	60	14:52:47	2757711	0	0	0	0	0	0	0	0	0	0	0	0	0	0	0	0	0
112912	14:52:47	10039	Trial2BackFr	N	3	0	1000	1	61	14:52:47	2759217	0	0	0	0	0	0	0	0	0	0	0	0	0	0	0	0	0
112912	14:52:47	10039	Trial2BackFr	N	3	0	1000	1	62	14:52:47	2760736	0	0	0	0	0	0	0	0	0	0	0	0	0	0	0	0	0
112912	14:52:47	10039	Trial2BackFr	N	3	0	1000	1	63	14:52:47	2762242	0	0	0	0	0	0	0	0	0	0	0	0	0	0	0	0	0
112912	14:52:47	10039	Trial2BackFr	N	3	0	1000	1	64	14:52:47	2763748	0	0	0	0	0	0	0	0	0	0	0	0	0	0	0	0	0
112912	14:52:47	10039	Trial2BackFr	Y	3	0	1000	0	64	14:52:47	2765254	0	0	0	0	0	0	0	0	0	0	0	0	0	0	0	0	0
112912	14:52:47	10039	Trial2BackFr	N	3	0	1000	1	65	14:52:47	2766774	0	0	0	0	0	0	0	0	0	0	0	0	0	0	0	0	0
112912	14:52:47	10039	Trial2BackFr	N	3	0	1000	1	66	14:52:47	2768279	0	0	0	0	0	0	0	0	0	0	0	0	0	0	0	0	0
112912	14:52:47	10039	Trial2BackFr	N	3	0	1000	1	67	14:52:47	2769786	0	0	0	0	0	0	0	0	0	0	0	0	0	0	0	0	0
112912	14:52:47	10039	Trial2BackFr	Y	3	57	582	1	68	14:52:47	2770878	0	0	0	0	0	0	0	0	0	0	0	0	0	0	0	0	0
112912	14:52:47	10039	Trial2BackFr	N	3	0	1000	1	69	14:52:47	2772798	0	0	0	0	0	0	0	0	0	0	0	0	0	0	0	0	0
112912	14:52:47	10039	Trial2BackFr	N	3	0	1000	1	70	14:52:47	2774304	0	0	0	0	0	0	0	0	0	0	0	0	0	0	0	0	0
112912	14:52:47	10039	Trial2BackFr	N	3	0	1000	1	71	14:52:47	2775810	0	0	0	0	0	0	0	0	0	0	0	0	0	0	0	0	0
112912	14:52:47	10039	Trial2BackFr	N	3	0	1000	1	72	14:52:47	2777316	0	0	0	0	0	0	0	0	0	0	0	0	0	0	0	0	0
112912	14:52:47	10039	Trial2BackFr	N	3	0	1000	1	73	14:52:47	2778822	0	0	0	0	0	0	0	0	0	0	0	0	0	0	0	0	0
112912	14:52:47	10039	Trial2BackFr	Y	3	0	1000	0	73	14:52:47	2780328	0	0	0	0	0	0	0	0	0	0	0	0	0	0	0	0	0
112912	14:52:47	10039	Trial2BackFr	N	3	0	1000	1	74	14:52:47	2781834	0	0	0	0	0	0	0	0	0	0	0	0	0	0	0	0	0
112912	14:52:47	10039	Trial2BackFr	N	3	0	1000	1	75	14:52:47	2783340	0	0	0	0	0	0	0	0	0	0	0	0	0	0	0	0	0
112912	14:52:47	10039	Trial2BackFr	N	3	0	1000	1	76	14:52:47	2784846	0	0	0	0	0	0	0	0	0	0	0	0	0	0	0	0	0
112912	14:52:47	10039	Trial2BackFr	N	3	0	1000	1	77	14:52:47	2786352	0	0	0	0	0	0	0	0	0	0	0	0	0	0	0	0	0
112912	14:52:47	10039	Trial2BackFr	N	3	0	1000	1	78	14:52:47	2787858	0	0	0	0	0	0	0	0	0	0	0	0	0	0	0	0	0
112912	14:52:47	10039	Trial2BackFr	N	3	0	1000	1	79	14:52:47	2789364	0	0	0	0	0	0	0	0	0	0	0	0	0	0	0	0	0
112912	14:52:47	10039	Trial2BackFr	N	3	0	1000	1	80	14:52:47	2790870	0	0	0	0	0	0	0	0	0	0	0	0	0	0	0	0	0
112912	14:52:47	10039	Trial2BackFr	N	3	0	1000	1	81	14:52:47	2792376	0	0	0	0	0	0	0	0	0	0	0	0	0	0	0	0	0
112912	14:52:47	10039	Trial2BackFr	N	3	0	1000	1	82	14:52:47	2793882	0	0	0	0	0	0	0	0	0	0	0	0	0	0	0	0	0
112912	14:52:47	10039	Trial2BackFr	Y	3	57	661	1	83	14:52:47	2795055	0	0	0	0	0	0	0	0	0	0	0	0	0	0	0	0	0
112912	14:52:47	10039	Trial2BackFr	N	3	0	1000	1	84	14:52:47	2796894	0	0	0	0	0	0	0	0	0	0	0	0	0	0	0	0	0
112912	14:52:47	10039	Trial2BackFr	N	3	0	1000	1	85	14:52:47	2798400	0	0	0	0	0	0	0	0	0	0	0	0	0	0	0	0	0
112912	14:52:47	10039	Trial2BackFr	N	3	0	1000	1	86	14:52:47	2799906	0	0	0	0	0	0	0	0	0	0	0	0	0	0	0	0	0
112912	14:52:47	10039	Trial2BackFr	N	3	0	1000	1	87	14:52:47	2801412	0	0	0	0	0	0	0	0	0	0	0	0	0	0	0	0	0
112912	14:52:47	10039	Trial2BackFr	N	3	0	1000	1	88	14:52:47	2802919	0	0	0	0	0	0	0	0	0	0	0	0	0	0	0	0	0
112912	14:52:47	10039	Trial2BackFr	N	3	0	1000	1	89	14:52:47	2804425	0	0	0	0	0	0	0	0	0	0	0	0	0	0	0	0	0
112912	14:52:47	10039	Trial2BackFr	N	3	0	1000	1	90	14:52:47	2805931	0	0	0	0	0	0	0	0	0	0	0	0	0	0	0	0	0
112912	14:52:47	10039	Trial2BackFr	N	3	0	1000	1	91	14:52:47	2807437	0	0	0	0	0	0	0	0	0	0	0	0	0	0	0	0	0
112912	14:52:47	10039	Trial2BackFr	Y	3	57	850	1	92	14:52:47	2808796	0	0	0	0	0	0	0	0	0	0	0	0	0	0	0	0	0
112912	14:52:47	10039	Trial2BackFr	N	3	0	1000	1	93	14:52:47	2810449	0	0	0	0	0	0	0	0	0	0	0	0	0	0	0	0	0
112912	14:52:47	10039	Trial2BackFr	N	3	0	1000	1	94	14:52:47	2811955	0	0	0	0	0	0	0	0	0	0	0	0	0	0	0	0	0
112912	14:52:47	10039	Trial2BackFr	N	3	0	1000	1	95	14:52:47	2813474	0	0	0	0	0	0	0	0	0	0	0	0	0	0	0	0	0
112912	14:52:47	10039	Trial2BackFr	N	3	0	1000	1	96	14:52:47	2814980	0	0	0	0	0	0	0	0	0	0	0	0	0	0	0	0	0
112912	14:52:47	10039	Trial2BackFr	Y	3	57	634	1	97	14:52:47	2816126	0	0	0	0	0	0	0	0	0	0	0	0	0	0	0	0	0
112912	14:52:47	10039	Trial2BackFr	N	3	0	1000	1	98	14:52:47	2817992	0	0	0	0	0	0	0	0	0	0	0	0	0	0	0	0	0
112912	14:52:47	10039	Trial2BackFr	N	3	0	1000	1	99	14:52:47	2819498	0	0	0	0	0	0	0	0	0	0	0	0	0	0	0	0	0
112912	14:52:47	10039	Trial2BackFr	N	3	0	1000	1	100	14:52:47	2821004	0	0	0	0	0	0	0	0	0	0	0	0	0	0	0	0	0
112912	14:52:47	10039	Trial2BackFr	Y	3	57	530	1	101	14:52:47	2822044	0	0	0	0	0	0	0	0	0	0	0	0	0	0	0	0	0
112912	14:52:47	10039	Trial2BackFr	N	3	0	1000	1	102	14:52:47	2824016	0	0	0	0	0	0	0	0	0	0	0	0	0	0	0	0	0
112912	14:52:47	10039	Trial2BackFr	N	3	0	1000	1	103	14:52:47	2825522	0	0	0	0	0	0	0	0	0	0	0	0	0	0	0	0	0
112912	14:52:47	10039	Trial2BackFr	N	3	0	1000	1	104	14:52:47	2827028	0	0	0	0	0	0	0	0	0	0	0	0	0	0	0	0	0
112912	14:52:47	10039	Trial2BackFr	N	3	0	1000	1	105	14:52:47	2828535	0	0	0	0	0	0	0	0	0	0	0	0	0	0	0	0	0
112912	14:52:47	10039	Trial2BackFr	N	3	0	1000	1	106	14:52:47	2830041	0	0	0	0	0	0	0	0	0	0	0	0	0	0	0	0	0
112912	14:52:47	10039	Trial2BackFr	Y	3	57	709	1	107	14:52:47	2831267	0	0	0	0	0	0	0	0	0	0	0	0	0	0	0	0	0
112912	14:52:47	10039	Trial2BackFr	N	3	0	1000	1	108	14:52:47	2833053	0	0	0	0	0	0	0	0	0	0	0	0	0	0	0	0	0
112912	14:52:47	10039	Trial2BackFr	N	3	0	1000	1	109	14:52:47	2834559	0	0	0	0	0	0	0	0	0	0	0	0	0	0	0	0	0
112912	14:52:47	10039	Trial2BackFr	N	3	0	1000	1	110	14:52:47	2836065	0	0	0	0	0	0	0	0	0	0	0	0	0	0	0	0	0
112912	14:52:47	10039	Trial2BackFr	Y	3	57	877	1	111	14:52:47	2837451	0	0	0	0	0	0	0	0	0	0	0	0	0	0	0	0	0
112912	14:52:47	10039	Memory1R3moFr	ScoreFr	5	M6	11549	0	111	14:52:47	2879927	0	0	0	0	0	0	0	0	0	0	0	0	0	0	0	0	0
112912	14:52:47	10039	Memory1R3moFr	ScoreFr	5	M7	162	0	111	14:52:47	2880140	0	0	0	0	0	0	0	0	0	0	0	0	0	0	0	0	0
112912	14:52:47	10039	Memory1R3moFr	ScoreFr	5	M8	661	0	111	14:52:47	2880847	0	0	0	0	0	0	0	0	0	0	0	0	0	0	0	0	0
112912	14:52:47	10039	Memory1R3moFr	ScoreFr	5	Done	6938	0	111	14:52:47	2887830	0	0	0	0	0	0	0	0	0	0	0	0	0	0	0	0	0
112912	14:52:47	10039	Memory2R3moFr	ScoreFr2	5	33	19517	0	111	14:52:47	2925054	0	0	0	0	0	0	0	0	0	0	0	0	0	0	0	0	0
112912	14:52:47	10039	Memory2R3moFr	ScoreFr2	5	88	1408	0	111	14:52:47	2926507	0	0	0	0	0	0	0	0	0	0	0	0	0	0	0	0	0
112912	14:52:47	10039	Memory2R3moFr	ScoreFr2	5	Done	587	0	111	14:52:47	2927147	0	0	0	0	0	0	0	0	0	0	0	0	0	0	0	0	0
112912	14:52:47	10039	Memory3R3moFr	ScoreFr3	5	111	10898	0	111	14:52:47	2955882	0	0	0	0	0	0	0	0	0	0	0	0	0	0	0	0	0
112912	14:52:47	10039	Memory3R3moFr	ScoreFr3	5	222	156	0	111	14:52:47	2956082	0	0	0	0	0	0	0	0	0	0	0	0	0	0	0	0	0
112912	14:52:47	10039	Memory3R3moFr	ScoreFr3	5	555	1911	0	111	14:52:47	2958054	0	0	0	0	0	0	0	0	0	0	0	0	0	0	0	0	0
112912	14:52:47	10039	Memory3R3moFr	ScoreFr3	5	666	215	0	111	14:52:47	2958321	0	0	0	0	0	0	0	0	0	0	0	0	0	0	0	0	0
112912	14:52:47	10039	Memory3R3moFr	ScoreFr3	5	Done	12772	0	111	14:52:47	2971142	0	0	0	0	0	0	0	0	0	0	0	0	0	0	0	0	0
112912	14:52:47	10039	LoriaFrLH3	Stop	6	0	4529	0	111	14:52:47	3046326	0	0	0	0	0	0	0	0	0	0	0	0	0	0	0	0	0
112912	14:52:47	10039	FrTrail	Trails	7	1Trails	940	0	111	14:52:47	3060745	0	0	0	0	0	0	0	0	0	0	0	0	0	0	0	0	0
112912	14:52:47	10039	Serial7Fr3mo	Serial7Fr3mo	8	83	4126	0	111	14:52:47	3085496	1	0	0	0	0	0	0	0	0	0	0	0	0	0	0	0	0
112912	14:52:47	10039	Serial7Fr3mo	Serial7Fr3mo	8	75	52193	0	111	14:52:47	3137706	1	0	0	0	0	0	0	0	0	0	0	0	0	0	0	0	0
112912	14:52:47	10039	Serial7Fr3mo	Serial7Fr3mo	8	68	15166	0	111	14:52:47	3152888	2	0	0	0	0	0	0	0	0	0	0	0	0	0	0	0	0
112912	14:52:47	10039	Serial7Fr3mo	Serial7Fr3mo	8	61	3225	0	111	14:52:47	3156127	3	0	0	0	0	0	0	0	0	0	0	0	0	0	0	0	0
112912	14:52:47	10039	Serial7Fr3mo	Serial7Fr3mo	8	54	17547	0	111	14:52:47	3173695	4	0	0	0	0	0	0	0	0	0	0	0	0	0	0	0	0
112912	14:52:47	10039	corsiblockFrFwrd	recallseqFrFwrd	9	resetCorsiFr	17963	0	111	14:52:47	3224807	4	0	0	0	0	0	0	0	0	0	0	0	0	0	0	0	0
112912	14:52:47	10039	corsiblockFrFwrd	recallseqFrFwrd	9	2	8087	0	111	14:52:47	3232950	4	0	0	0	0	0	0	0	0	0	0	0	0	0	0	0	0
112912	14:52:47	10039	corsiblockFrFwrd	recallseqFrFwrd	9	1	1056	0	111	14:52:47	3234056	4	0	0	0	0	0	0	0	0	0	0	0	0	0	0	0	0
112912	14:52:47	10039	corsiblockFrFwrd	recallseqFrFwrd	9	doneCorsiFr	3445	0	111	14:52:47	3237548	4	0	0	0	0	0	0	0	0	0	0	0	0	0	0	2	0
112912	14:52:47	10039	corsiblockFrFwrd	recallseqFrFwrd	9	4	1116	0	111	14:52:47	3244799	4	0	0	0	0	0	0	0	0	0	0	0	0	0	0	2	0
112912	14:52:47	10039	corsiblockFrFwrd	recallseqFrFwrd	9	6	551	0	111	14:52:47	3245398	4	0	0	0	0	0	0	0	0	0	0	0	0	0	0	2	0
112912	14:52:47	10039	corsiblockFrFwrd	recallseqFrFwrd	9	8	800	0	111	14:52:47	3246251	4	0	0	0	0	0	0	0	0	0	0	0	0	0	0	2	0
112912	14:52:47	10039	corsiblockFrFwrd	recallseqFrFwrd	9	doneCorsiFr	706	0	111	14:52:47	3247011	4	0	0	0	0	0	0	0	0	0	0	0	0	0	0	3	0
112912	14:52:47	10039	corsiblockFrFwrd	recallseqFrFwrd	9	5	791	0	111	14:52:47	3254941	4	0	0	0	0	0	0	0	0	0	0	0	0	0	0	3	0
112912	14:52:47	10039	corsiblockFrFwrd	recallseqFrFwrd	9	3	480	0	111	14:52:47	3255474	4	0	0	0	0	0	0	0	0	0	0	0	0	0	0	3	0
112912	14:52:47	10039	corsiblockFrFwrd	recallseqFrFwrd	9	7	691	0	111	14:52:47	3256221	4	0	0	0	0	0	0	0	0	0	0	0	0	0	0	3	0
112912	14:52:47	10039	corsiblockFrFwrd	recallseqFrFwrd	9	9	481	0	111	14:52:47	3256754	4	0	0	0	0	0	0	0	0	0	0	0	0	0	0	3	0
112912	14:52:47	10039	corsiblockFrFwrd	recallseqFrFwrd	9	doneCorsiFr	916	0	111	14:52:47	3257713	4	0	0	0	0	0	0	0	0	0	0	0	0	0	0	4	0
112912	14:52:47	10039	corsiblockFrFwrd	recallseqFrFwrd	9	7	903	0	111	14:52:47	3266750	4	0	0	0	0	0	0	0	0	0	0	0	0	0	0	4	0
112912	14:52:47	10039	corsiblockFrFwrd	recallseqFrFwrd	9	1	863	0	111	14:52:47	3267669	4	0	0	0	0	0	0	0	0	0	0	0	0	0	0	4	0
112912	14:52:47	10039	corsiblockFrFwrd	recallseqFrFwrd	9	3	696	0	111	14:52:47	3268416	4	0	0	0	0	0	0	0	0	0	0	0	0	0	0	4	0
112912	14:52:47	10039	corsiblockFrFwrd	recallseqFrFwrd	9	5	733	0	111	14:52:47	3269202	4	0	0	0	0	0	0	0	0	0	0	0	0	0	0	4	0
112912	14:52:47	10039	corsiblockFrFwrd	recallseqFrFwrd	9	6	467	0	111	14:52:47	3269722	4	0	0	0	0	0	0	0	0	0	0	0	0	0	0	4	0
112912	14:52:47	10039	corsiblockFrFwrd	recallseqFrFwrd	9	doneCorsiFr	779	0	111	14:52:47	3270548	4	0	0	0	0	0	0	0	0	0	0	0	0	0	0	5	0
112912	14:52:47	10039	corsiblockFrFwrd	recallseqFrFwrd	9	2	1156	0	111	14:52:47	3280837	4	0	0	0	0	0	0	0	0	0	0	0	0	0	0	5	0
112912	14:52:47	10039	corsiblockFrFwrd	recallseqFrFwrd	9	9	775	0	111	14:52:47	3281663	4	0	0	0	0	0	0	0	0	0	0	0	0	0	0	5	0
112912	14:52:47	10039	corsiblockFrFwrd	recallseqFrFwrd	9	8	917	0	111	14:52:47	3282636	4	0	0	0	0	0	0	0	0	0	0	0	0	0	0	5	0
112912	14:52:47	10039	corsiblockFrFwrd	recallseqFrFwrd	9	4	1032	0	111	14:52:47	3283716	4	0	0	0	0	0	0	0	0	0	0	0	0	0	0	5	0
112912	14:52:47	10039	corsiblockFrFwrd	recallseqFrFwrd	9	3	616	0	111	14:52:47	3284382	4	0	0	0	0	0	0	0	0	0	0	0	0	0	0	5	0
112912	14:52:47	10039	corsiblockFrFwrd	recallseqFrFwrd	9	8	718	0	111	14:52:47	3285155	4	0	0	0	0	0	0	0	0	0	0	0	0	0	0	5	0
112912	14:52:47	10039	corsiblockFrFwrd	recallseqFrFwrd	9	doneCorsiFr	777	0	111	14:52:47	3285982	4	0	0	0	0	0	0	0	0	0	0	0	0	0	0	5	0
112912	14:52:47	10039	corsiblockFrFwrd	recallseqFrFwrd	9	7	794	0	111	14:52:47	3295857	4	0	0	0	0	0	0	0	0	0	0	0	0	0	0	5	0
112912	14:52:47	10039	corsiblockFrFwrd	recallseqFrFwrd	9	2	507	0	111	14:52:47	3296417	4	0	0	0	0	0	0	0	0	0	0	0	0	0	0	5	0
112912	14:52:47	10039	corsiblockFrFwrd	recallseqFrFwrd	9	1	539	0	111	14:52:47	3297003	4	0	0	0	0	0	0	0	0	0	0	0	0	0	0	5	0
112912	14:52:47	10039	corsiblockFrFwrd	recallseqFrFwrd	9	5	952	0	111	14:52:47	3298003	4	0	0	0	0	0	0	0	0	0	0	0	0	0	0	5	0
112912	14:52:47	10039	corsiblockFrFwrd	recallseqFrFwrd	9	6	803	0	111	14:52:47	3298870	4	0	0	0	0	0	0	0	0	0	0	0	0	0	0	5	0
112912	14:52:47	10039	corsiblockFrFwrd	recallseqFrFwrd	9	9	638	0	111	14:52:47	3299563	4	0	0	0	0	0	0	0	0	0	0	0	0	0	0	5	0
112912	14:52:47	10039	corsiblockFrFwrd	recallseqFrFwrd	9	doneCorsiFr	729	0	111	14:52:47	3300349	4	0	0	0	0	0	0	0	0	0	0	0	0	0	0	5	0
112912	14:52:47	10039	corsiblockFrRev	recallseqFrRev	10	8	1606	0	111	14:52:47	3313570	4	0	0	0	0	0	0	0	0	0	0	0	0	0	0	5	0
112912	14:52:47	10039	corsiblockFrRev	recallseqFrRev	10	6	737	0	111	14:52:47	3314356	4	0	0	0	0	0	0	0	0	0	0	0	0	0	0	5	0
112912	14:52:47	10039	corsiblockFrRev	recallseqFrRev	10	doneCorsiFr	759	0	111	14:52:47	3315169	4	0	0	0	0	0	0	0	0	0	0	0	0	0	0	5	2
112912	14:52:47	10039	corsiblockFrRev	recallseqFrRev	10	5	1039	0	111	14:52:47	3322353	4	0	0	0	0	0	0	0	0	0	0	0	0	0	0	5	2
112912	14:52:47	10039	corsiblockFrRev	recallseqFrRev	10	4	362	0	111	14:52:47	3322766	4	0	0	0	0	0	0	0	0	0	0	0	0	0	0	5	2
112912	14:52:47	10039	corsiblockFrRev	recallseqFrRev	10	2	485	0	111	14:52:47	3323299	4	0	0	0	0	0	0	0	0	0	0	0	0	0	0	5	2
112912	14:52:47	10039	corsiblockFrRev	recallseqFrRev	10	doneCorsiFr	808	0	111	14:52:47	3324152	4	0	0	0	0	0	0	0	0	0	0	0	0	0	0	5	3
112912	14:52:47	10039	corsiblockFrRev	recallseqFrRev	10	7	909	0	111	14:52:47	3332189	4	0	0	0	0	0	0	0	0	0	0	0	0	0	0	5	3
112912	14:52:47	10039	corsiblockFrRev	recallseqFrRev	10	3	886	0	111	14:52:47	3333122	4	0	0	0	0	0	0	0	0	0	0	0	0	0	0	5	3
112912	14:52:47	10039	corsiblockFrRev	recallseqFrRev	10	9	641	0	111	14:52:47	3333815	4	0	0	0	0	0	0	0	0	0	0	0	0	0	0	5	3
112912	14:52:47	10039	corsiblockFrRev	recallseqFrRev	10	1	787	0	111	14:52:47	3334655	4	0	0	0	0	0	0	0	0	0	0	0	0	0	0	5	3
112912	14:52:47	10039	corsiblockFrRev	recallseqFrRev	10	doneCorsiFr	1068	0	111	14:52:47	3335774	4	0	0	0	0	0	0	0	0	0	0	0	0	0	0	5	4
112912	14:52:47	10039	corsiblockFrRev	recallseqFrRev	10	8	1178	0	111	14:52:47	3345090	4	0	0	0	0	0	0	0	0	0	0	0	0	0	0	5	4
112912	14:52:47	10039	corsiblockFrRev	recallseqFrRev	10	6	672	0	111	14:52:47	3345810	4	0	0	0	0	0	0	0	0	0	0	0	0	0	0	5	4
112912	14:52:47	10039	corsiblockFrRev	recallseqFrRev	10	5	648	0	111	14:52:47	3346503	4	0	0	0	0	0	0	0	0	0	0	0	0	0	0	5	4
112912	14:52:47	10039	corsiblockFrRev	recallseqFrRev	10	4	715	0	111	14:52:47	3347263	4	0	0	0	0	0	0	0	0	0	0	0	0	0	0	5	4
112912	14:52:47	10039	corsiblockFrRev	recallseqFrRev	10	1	659	0	111	14:52:47	3347969	4	0	0	0	0	0	0	0	0	0	0	0	0	0	0	5	4
112912	14:52:47	10039	corsiblockFrRev	recallseqFrRev	10	doneCorsiFr	1001	0	111	14:52:47	3349022	4	0	0	0	0	0	0	0	0	0	0	0	0	0	0	5	4
112912	14:52:47	10039	corsiblockFrRev	recallseqFrRev	10	1	896	0	111	14:52:47	3358005	4	0	0	0	0	0	0	0	0	0	0	0	0	0	0	5	4
112912	14:52:47	10039	corsiblockFrRev	recallseqFrRev	10	2	797	0	111	14:52:47	3358858	4	0	0	0	0	0	0	0	0	0	0	0	0	0	0	5	4
112912	14:52:47	10039	corsiblockFrRev	recallseqFrRev	10	7	776	0	111	14:52:47	3359684	4	0	0	0	0	0	0	0	0	0	0	0	0	0	0	5	4
112912	14:52:47	10039	corsiblockFrRev	recallseqFrRev	10	3	629	0	111	14:52:47	3360364	4	0	0	0	0	0	0	0	0	0	0	0	0	0	0	5	4
112912	14:52:47	10039	corsiblockFrRev	recallseqFrRev	10	9	749	0	111	14:52:47	3361164	4	0	0	0	0	0	0	0	0	0	0	0	0	0	0	5	4
112912	14:52:47	10039	corsiblockFrRev	recallseqFrRev	10	doneCorsiFr	1182	0	111	14:52:47	3362390	4	0	0	0	0	0	0	0	0	0	0	0	0	0	0	5	5
112912	14:52:47	10039	corsiblockFrRev	recallseqFrRev	10	4	844	0	111	14:52:47	3371346	4	0	0	0	0	0	0	0	0	0	0	0	0	0	0	5	5
112912	14:52:47	10039	corsiblockFrRev	recallseqFrRev	10	8	791	0	111	14:52:47	3372186	4	0	0	0	0	0	0	0	0	0	0	0	0	0	0	5	5
112912	14:52:47	10039	corsiblockFrRev	recallseqFrRev	10	2	1536	0	111	14:52:47	3373772	4	0	0	0	0	0	0	0	0	0	0	0	0	0	0	5	5
112912	14:52:47	10039	corsiblockFrRev	recallseqFrRev	10	5	765	0	111	14:52:47	3374585	4	0	0	0	0	0	0	0	0	0	0	0	0	0	0	5	5
112912	14:52:47	10039	corsiblockFrRev	recallseqFrRev	10	6	624	0	111	14:52:47	3375265	4	0	0	0	0	0	0	0	0	0	0	0	0	0	0	5	5
112912	14:52:47	10039	corsiblockFrRev	recallseqFrRev	10	doneCorsiFr	865	0	111	14:52:47	3376184	4	0	0	0	0	0	0	0	0	0	0	0	0	0	0	5	5
112912	14:52:47	10039	corsiblockFrRev	recallseqFrRev	10	9	861	0	111	14:52:47	3386127	4	0	0	0	0	0	0	0	0	0	0	0	0	0	0	5	5
112912	14:52:47	10039	corsiblockFrRev	recallseqFrRev	10	6	730	0	111	14:52:47	3386913	4	0	0	0	0	0	0	0	0	0	0	0	0	0	0	5	5
112912	14:52:47	10039	corsiblockFrRev	recallseqFrRev	10	7	600	0	111	14:52:47	3387566	4	0	0	0	0	0	0	0	0	0	0	0	0	0	0	5	5
112912	14:52:47	10039	corsiblockFrRev	recallseqFrRev	10	5	699	0	111	14:52:47	3388313	4	0	0	0	0	0	0	0	0	0	0	0	0	0	0	5	5
112912	14:52:47	10039	corsiblockFrRev	recallseqFrRev	10	3	488	0	111	14:52:47	3388846	4	0	0	0	0	0	0	0	0	0	0	0	0	0	0	5	5
112912	14:52:47	10039	corsiblockFrRev	recallseqFrRev	10	doneCorsiFr	1515	0	111	14:52:47	3390405	4	0	0	0	0	0	0	0	0	0	0	0	0	0	0	5	5
112912	14:52:47	10039	testFr3mo	WordsFr3mo	11	5Fr3mo	13208	0	111	14:52:47	3408917	4	0	0	0	0	3	0	0	0	0	0	0	0	0	0	5	5
112912	14:52:47	10039	testFr3mo	WordsFr3mo	11	DoneFr3mo	9411	0	111	14:52:47	3418380	4	0	0	0	0	3	0	0	0	0	0	0	0	0	0	5	5
112912	14:52:47	10039	testFr3mo	Cat1Fr3mo	11	0	1	0	111	14:52:47	3418390	4	0	0	0	0	3	0	0	0	0	0	0	0	0	0	5	5
112912	14:52:47	10039	testFr3mo	Ch1Fr3mo	11	WW1Fr3mo	8596	0	111	14:52:47	3427030	4	0	0	0	0	3	0	0	0	0	0	0	0	0	0	5	5
112912	14:52:47	10039	testFr3mo	Cat2Fr3mo	11	R2Fr3mo	6026	0	111	14:52:47	3433107	4	0	2	0	0	3	0	0	0	0	0	0	0	0	0	5	5
112912	14:52:47	10039	testFr3mo	Cat3Fr3mo	11	0	1	0	111	14:52:47	3433115	4	0	2	0	0	3	0	0	0	0	0	0	0	0	0	5	5
112912	14:52:47	10039	testFr3mo	Ch3Fr3mo	11	RR3Fr3mo	6074	0	111	14:52:47	3439211	4	0	2	1	0	3	0	0	0	0	0	0	0	0	0	5	5
112912	14:52:47	10039	testFr3mo	Cat4Fr3mo	11	W4Fr3mo	7618	0	111	14:52:47	3446861	4	0	2	1	0	3	0	0	0	0	0	0	0	0	0	5	5
112912	14:52:47	10039	testFr3mo	Ch4Fr3mo	11	RR4Fr3mo	4711	0	111	14:52:47	3451606	4	0	2	1	1	3	0	0	0	0	0	0	0	0	0	5	5
112912	14:52:47	10039	testFr3mo	Cat6Fr3mo	11	W6Fr3mo	10310	0	111	14:52:47	3461948	4	0	2	1	1	3	0	0	0	0	0	0	0	0	0	5	5
112912	14:52:47	10039	testFr3mo	Ch6Fr3mo	11	RR6Fr3mo	3448	0	111	14:52:47	3465427	4	0	2	1	1	3	1	0	0	0	0	0	0	0	0	5	5
112912	14:52:47	10039	testFr3mo	Cat7Fr3mo	11	W7Fr3mo	4210	0	111	14:52:47	3469678	4	0	2	1	1	3	1	0	0	0	0	0	0	0	0	5	5
112912	14:52:47	10039	testFr3mo	Ch7Fr3mo	11	RR7Fr3mo	2534	0	111	14:52:47	3472251	4	0	2	1	1	3	1	1	0	0	0	0	0	0	0	5	5
112912	14:52:47	10039	testFr3mo	Cat8Fr3mo	11	W8Fr3mo	3513	0	111	14:52:47	3475796	4	0	2	1	1	3	1	1	0	0	0	0	0	0	0	5	5
112912	14:52:47	10039	testFr3mo	Ch8Fr3mo	11	RR8Fr3mo	2344	0	111	14:52:47	3478182	4	0	2	1	1	3	1	1	1	0	0	0	0	0	0	5	5
112912	14:52:47	10039	DigitSpanFwrdFr3mo	Score1FwrdFr3mo	12	DS1	2537	0	111	14:52:47	3494255	4	0	2	1	1	3	1	1	1	0	0	0	0	0	0	5	5
112912	14:52:47	10039	DigitSpanFwrdFr3mo	Gate1FwrdFr3mo	12	0	1	0	111	14:52:47	3494260	4	0	2	1	1	3	1	1	1	3	0	0	0	0	0	5	5
112912	14:52:47	10039	DigitSpanFwrdFr3mo	Score2FwrdFr3mo	12	DS2	5369	0	111	14:52:47	3505317	4	0	2	1	1	3	1	1	1	3	0	0	0	0	0	5	5
112912	14:52:47	10039	DigitSpanFwrdFr3mo	Gate3FwrdFr3mo	12	0	1	0	111	14:52:47	3505321	4	0	2	1	1	3	1	1	1	3	0	0	0	0	0	5	5
112912	14:52:47	10039	DigitSpanFwrdFr3mo	Score22FwrdFr3mo	12	DS1	2598	0	111	14:52:47	3513980	4	0	2	1	1	3	1	1	1	3	0	0	0	0	0	5	5
112912	14:52:47	10039	DigitSpanFwrdFr3mo	Gate4FwrdFr3mo	12	0	1	0	111	14:52:47	3513984	4	0	2	1	1	3	1	1	1	4	0	0	0	0	0	5	5
112912	14:52:47	10039	DigitSpanFwrdFr3mo	Score3FwrdFr3mo	12	DS2	4308	0	111	14:52:47	3525535	4	0	2	1	1	3	1	1	1	4	0	0	0	0	0	5	5
112912	14:52:47	10039	DigitSpanFwrdFr3mo	Gate5FwrdFr3mo	12	0	1	0	111	14:52:47	3525540	4	0	2	1	1	3	1	1	1	4	0	0	0	0	0	5	5
112912	14:52:47	10039	DigitSpanFwrdFr3mo	Score33FwrdFr3mo	12	DS2	9729	0	111	14:52:47	3542475	4	0	2	1	1	3	1	1	1	4	0	0	0	0	0	5	5
112912	14:52:47	10039	DigitSpanFr3mo	Score1Fr3mo	13	DS1	1844	0	111	14:52:47	3557109	4	0	2	1	1	3	1	1	1	4	0	0	0	0	0	5	5
112912	14:52:47	10039	DigitSpanFr3mo	Gate1Fr3mo	13	0	1	0	111	14:52:47	3557114	4	0	2	1	1	3	1	1	1	4	2	0	0	0	0	5	5
112912	14:52:47	10039	DigitSpanFr3mo	Score2Fr3mo	13	DS1	3318	0	111	14:52:47	3564986	4	0	2	1	1	3	1	1	1	4	2	0	0	0	0	5	5
112912	14:52:47	10039	DigitSpanFr3mo	Gate3Fr3mo	13	0	1	0	111	14:52:47	3564990	4	0	2	1	1	3	1	1	1	4	3	0	0	0	0	5	5
112912	14:52:47	10039	DigitSpanFr3mo	Score3Fr3mo	13	DS2	4551	0	111	14:52:47	3575234	4	0	2	1	1	3	1	1	1	4	3	0	0	0	0	5	5
112912	14:52:47	10039	DigitSpanFr3mo	Gate5Fr3mo	13	0	1	0	111	14:52:47	3575238	4	0	2	1	1	3	1	1	1	4	3	0	0	0	0	5	5
112912	14:52:47	10039	DigitSpanFr3mo	Score33Fr3mo	13	DS2	10333	0	111	14:52:47	3591628	4	0	2	1	1	3	1	1	1	4	3	0	0	0	0	5	5
112912	14:52:47	10039	Trial	ResponseIL	14	0	175	0	111	14:52:47	3634504	4	0	2	1	1	3	1	1	1	4	3	0	0	0	0	5	5
112912	14:52:47	10039	Trial	IncongruentLeft	14	203	369	1	111	14:52:47	3634890	4	0	2	1	1	3	1	1	1	4	3	0	0	0	0	5	5
112912	14:52:47	10039	Trial	ResponseCR	14	0	175	0	111	14:52:47	3636209	4	0	2	1	1	3	1	1	1	4	3	0	0	0	0	5	5
112912	14:52:47	10039	Trial	CongruentRight	14	205	279	1	111	14:52:47	3636516	4	0	2	1	1	3	1	1	1	4	3	0	0	0	0	5	5
112912	14:52:47	10039	Trial	ResponseIR	14	0	175	0	111	14:52:47	3637915	4	0	2	1	1	3	1	1	1	4	3	0	0	0	0	5	5
112912	14:52:47	10039	Trial	IncongruentRight	14	205	525	1	111	14:52:47	3638462	4	0	2	1	1	3	1	1	1	4	3	0	0	0	0	5	5
112912	14:52:47	10039	Trial	ResponseCL	14	0	175	0	111	14:52:47	3639621	4	0	2	1	1	3	1	1	1	4	3	0	0	0	0	5	5
112912	14:52:47	10039	Trial	CongruentLeft	14	203	322	1	111	14:52:47	3639968	4	0	2	1	1	3	1	1	1	4	3	0	0	0	0	5	5
112912	14:52:47	10039	Trial	ResponseCR	14	0	175	0	111	14:52:47	3641327	4	0	2	1	1	3	1	1	1	4	3	0	0	0	0	5	5
112912	14:52:47	10039	Trial	CongruentRight	14	205	344	1	111	14:52:47	3641700	4	0	2	1	1	3	1	1	1	4	3	0	0	0	0	5	5
112912	14:52:47	10039	Trial	ResponseIR	14	0	175	0	111	14:52:47	3643033	4	0	2	1	1	3	1	1	1	4	3	0	0	0	0	5	5
112912	14:52:47	10039	Trial	IncongruentRight	14	205	526	1	111	14:52:47	3643580	4	0	2	1	1	3	1	1	1	4	3	0	0	0	0	5	5
112912	14:52:47	10039	Trial	ResponseCL	14	0	175	0	111	14:52:47	3644739	4	0	2	1	1	3	1	1	1	4	3	0	0	0	0	5	5
112912	14:52:47	10039	Trial	CongruentLeft	14	203	324	1	111	14:52:47	3645086	4	0	2	1	1	3	1	1	1	4	3	0	0	0	0	5	5
112912	14:52:47	10039	Trial	ResponseIL	14	0	175	0	111	14:52:47	3646445	4	0	2	1	1	3	1	1	1	4	3	0	0	0	0	5	5
112912	14:52:47	10039	Trial	IncongruentLeft	14	205	282	0	111	14:52:47	3646752	4	0	2	1	1	3	1	1	1	4	3	0	0	0	0	5	5
112912	14:52:47	10039	Trial	ResponseIL	14	0	175	0	111	14:52:47	3648151	4	0	2	1	1	3	1	1	1	4	3	0	0	0	0	5	5
112912	14:52:47	10039	Trial	IncongruentLeft	14	203	416	1	111	14:52:47	3648591	4	0	2	1	1	3	1	1	1	4	3	0	0	0	0	5	5
112912	14:52:47	10039	Trial	ResponseCR	14	0	175	0	111	14:52:47	3649857	4	0	2	1	1	3	1	1	1	4	3	0	0	0	0	5	5
112912	14:52:47	10039	Trial	CongruentRight	14	205	295	1	111	14:52:47	3650177	4	0	2	1	1	3	1	1	1	4	3	0	0	0	0	5	5
112912	14:52:47	10039	Trial	ResponseIR	14	0	175	0	111	14:52:47	3651563	4	0	2	1	1	3	1	1	1	4	3	0	0	0	0	5	5
112912	14:52:47	10039	Trial	IncongruentRight	14	205	476	1	111	14:52:47	3652056	4	0	2	1	1	3	1	1	1	4	3	0	0	0	0	5	5
112912	14:52:47	10039	Trial	ResponseCL	14	0	175	0	111	14:52:47	3653269	4	0	2	1	1	3	1	1	1	4	3	0	0	0	0	5	5
112912	14:52:47	10039	Trial	CongruentLeft	14	203	290	1	111	14:52:47	3653575	4	0	2	1	1	3	1	1	1	4	3	0	0	0	0	5	5
112912	14:52:47	10039	Trial	ResponseCR	14	0	175	0	111	14:52:47	3654975	4	0	2	1	1	3	1	1	1	4	3	0	0	0	0	5	5
112912	14:52:47	10039	Trial	CongruentRight	14	205	489	1	111	14:52:47	3655481	4	0	2	1	1	3	1	1	1	4	3	0	0	0	0	5	5
112912	14:52:47	10039	Trial	ResponseIL	14	0	175	0	111	14:52:47	3656681	4	0	2	1	1	3	1	1	1	4	3	0	0	0	0	5	5
112912	14:52:47	10039	Trial	IncongruentLeft	14	203	382	1	111	14:52:47	3657081	4	0	2	1	1	3	1	1	1	4	3	0	0	0	0	5	5
112912	14:52:47	10039	Trial	ResponseIR	14	0	175	0	111	14:52:47	3658387	4	0	2	1	1	3	1	1	1	4	3	0	0	0	0	5	5
112912	14:52:47	10039	Trial	IncongruentRight	14	205	405	1	111	14:52:47	3658813	4	0	2	1	1	3	1	1	1	4	3	0	0	0	0	5	5
112912	14:52:47	10039	Trial	ResponseCR	14	0	175	0	111	14:52:47	3660093	4	0	2	1	1	3	1	1	1	4	3	0	0	0	0	5	5
112912	14:52:47	10039	Trial	CongruentRight	14	205	298	1	111	14:52:47	3660413	4	0	2	1	1	3	1	1	1	4	3	0	0	0	0	5	5
112912	14:52:47	10039	Trial	ResponseCL	14	0	175	0	111	14:52:47	3661799	4	0	2	1	1	3	1	1	1	4	3	0	0	0	0	5	5
112912	14:52:47	10039	Trial	CongruentLeft	14	203	256	1	111	14:52:47	3662079	4	0	2	1	1	3	1	1	1	4	3	0	0	0	0	5	5
112912	14:52:47	10039	Trial	ResponseCR	14	0	175	0	111	14:52:47	3663505	4	0	2	1	1	3	1	1	1	4	3	0	0	0	0	5	5
112912	14:52:47	10039	Trial	CongruentRight	14	205	422	1	111	14:52:47	3663944	4	0	2	1	1	3	1	1	1	4	3	0	0	0	0	5	5
112912	14:52:47	10039	Trial	ResponseIR	14	0	175	0	111	14:52:47	3665211	4	0	2	1	1	3	1	1	1	4	3	0	0	0	0	5	5
112912	14:52:47	10039	Trial	IncongruentRight	14	205	556	1	111	14:52:47	3665784	4	0	2	1	1	3	1	1	1	4	3	0	0	0	0	5	5
112912	14:52:47	10039	Trial	ResponseIL	14	0	175	0	111	14:52:47	3666917	4	0	2	1	1	3	1	1	1	4	3	0	0	0	0	5	5
112912	14:52:47	10039	Trial	IncongruentLeft	14	203	402	1	111	14:52:47	3667343	4	0	2	1	1	3	1	1	1	4	3	0	0	0	0	5	5
112912	14:52:47	10039	Trial	ResponseIL	14	0	175	0	111	14:52:47	3668623	4	0	2	1	1	3	1	1	1	4	3	0	0	0	0	5	5
112912	14:52:47	10039	Trial	IncongruentLeft	14	203	361	1	111	14:52:47	3669009	4	0	2	1	1	3	1	1	1	4	3	0	0	0	0	5	5
112912	14:52:47	10039	Trial	ResponseCL	14	0	175	0	111	14:52:47	3670329	4	0	2	1	1	3	1	1	1	4	3	0	0	0	0	5	5
112912	14:52:47	10039	Trial	CongruentLeft	14	203	334	1	111	14:52:47	3670688	4	0	2	1	1	3	1	1	1	4	3	0	0	0	0	5	5
112912	14:52:47	10039	Trial	ResponseCR	14	0	175	0	111	14:52:47	3672034	4	0	2	1	1	3	1	1	1	4	3	0	0	0	0	5	5
112912	14:52:47	10039	Trial	CongruentRight	14	205	356	1	111	14:52:47	3672408	4	0	2	1	1	3	1	1	1	4	3	0	0	0	0	5	5
112912	14:52:47	10039	Trial	ResponseIL	14	0	175	0	111	14:52:47	3673740	4	0	2	1	1	3	1	1	1	4	3	0	0	0	0	5	5
112912	14:52:47	10039	Trial	IncongruentLeft	14	203	426	1	111	14:52:47	3674194	4	0	2	1	1	3	1	1	1	4	3	0	0	0	0	5	5
112912	14:52:47	10039	Trial	ResponseIR	14	0	175	0	111	14:52:47	3675446	4	0	2	1	1	3	1	1	1	4	3	0	0	0	0	5	5
112912	14:52:47	10039	Trial	IncongruentRight	14	205	496	1	111	14:52:47	3675966	4	0	2	1	1	3	1	1	1	4	3	0	0	0	0	5	5
112912	14:52:47	10039	Trial	ResponseCR	14	0	175	0	111	14:52:47	3677152	4	0	2	1	1	3	1	1	1	4	3	0	0	0	0	5	5
112912	14:52:47	10039	Trial	CongruentRight	14	205	374	1	111	14:52:47	3677552	4	0	2	1	1	3	1	1	1	4	3	0	0	0	0	5	5
112912	14:52:47	10039	Trial	ResponseCL	14	0	175	0	111	14:52:47	3678858	4	0	2	1	1	3	1	1	1	4	3	0	0	0	0	5	5
112912	14:52:47	10039	Trial	CongruentLeft	14	203	235	1	111	14:52:47	3679112	4	0	2	1	1	3	1	1	1	4	3	0	0	0	0	5	5
112912	14:52:47	10039	Trial	ResponseIR	14	0	175	0	111	14:52:47	3680564	4	0	2	1	1	3	1	1	1	4	3	0	0	0	0	5	5
112912	14:52:47	10039	Trial	IncongruentRight	14	205	434	1	111	14:52:47	3681017	4	0	2	1	1	3	1	1	1	4	3	0	0	0	0	5	5
112912	14:52:47	10039	Trial	ResponseIL	14	0	175	0	111	14:52:47	3682270	4	0	2	1	1	3	1	1	1	4	3	0	0	0	0	5	5
112912	14:52:47	10039	Trial	IncongruentLeft	14	203	376	1	111	14:52:47	3682670	4	0	2	1	1	3	1	1	1	4	3	0	0	0	0	5	5
112912	14:52:47	10039	Trial	ResponseIR	14	0	175	0	111	14:52:47	3683976	4	0	2	1	1	3	1	1	1	4	3	0	0	0	0	5	5
112912	14:52:47	10039	Trial	IncongruentRight	14	205	366	1	111	14:52:47	3684363	4	0	2	1	1	3	1	1	1	4	3	0	0	0	0	5	5
112912	14:52:47	10039	Trial	ResponseCR	14	0	175	0	111	14:52:47	3685682	4	0	2	1	1	3	1	1	1	4	3	0	0	0	0	5	5
112912	14:52:47	10039	Trial	CongruentRight	14	205	324	1	111	14:52:47	3686029	4	0	2	1	1	3	1	1	1	4	3	0	0	0	0	5	5
112912	14:52:47	10039	Trial	ResponseIL	14	0	175	0	111	14:52:47	3687388	4	0	2	1	1	3	1	1	1	4	3	0	0	0	0	5	5
112912	14:52:47	10039	Trial	IncongruentLeft	14	203	426	1	111	14:52:47	3687841	4	0	2	1	1	3	1	1	1	4	3	0	0	0	0	5	5
112912	14:52:47	10039	Trial	ResponseCL	14	0	175	0	111	14:52:47	3689094	4	0	2	1	1	3	1	1	1	4	3	0	0	0	0	5	5
112912	14:52:47	10039	Trial	CongruentLeft	14	203	320	1	111	14:52:47	3689441	4	0	2	1	1	3	1	1	1	4	3	0	0	0	0	5	5
112912	14:52:47	10039	Trial	ResponseCR	14	0	175	0	111	14:52:47	3690800	4	0	2	1	1	3	1	1	1	4	3	0	0	0	0	5	5
112912	14:52:47	10039	Trial	CongruentRight	14	205	342	1	111	14:52:47	3691160	4	0	2	1	1	3	1	1	1	4	3	0	0	0	0	5	5
112912	14:52:47	10039	Trial	ResponseIL	14	0	175	0	111	14:52:47	3692506	4	0	2	1	1	3	1	1	1	4	3	0	0	0	0	5	5
112912	14:52:47	10039	Trial	IncongruentLeft	14	203	444	1	111	14:52:47	3692973	4	0	2	1	1	3	1	1	1	4	3	0	0	0	0	5	5
112912	14:52:47	10039	Trial	ResponseIR	14	0	175	0	111	14:52:47	3694212	4	0	2	1	1	3	1	1	1	4	3	0	0	0	0	5	5
112912	14:52:47	10039	Trial	IncongruentRight	14	205	450	1	111	14:52:47	3694678	4	0	2	1	1	3	1	1	1	4	3	0	0	0	0	5	5
112912	14:52:47	10039	Trial	ResponseIR	14	0	175	0	111	14:52:47	3695918	4	0	2	1	1	3	1	1	1	4	3	0	0	0	0	5	5
112912	14:52:47	10039	Trial	IncongruentRight	14	205	441	1	111	14:52:47	3696384	4	0	2	1	1	3	1	1	1	4	3	0	0	0	0	5	5
112912	14:52:47	10039	Trial	ResponseCL	14	0	175	0	111	14:52:47	3697624	4	0	2	1	1	3	1	1	1	4	3	0	0	0	0	5	5
112912	14:52:47	10039	Trial	CongruentLeft	14	203	302	1	111	14:52:47	3697944	4	0	2	1	1	3	1	1	1	4	3	0	0	0	0	5	5
112912	14:52:47	10039	Trial	ResponseIL	14	0	175	0	111	14:52:47	3699330	4	0	2	1	1	3	1	1	1	4	3	0	0	0	0	5	5
112912	14:52:47	10039	Trial	IncongruentLeft	14	203	372	1	111	14:52:47	3699730	4	0	2	1	1	3	1	1	1	4	3	0	0	0	0	5	5
112912	14:52:47	10039	Trial	ResponseCR	14	0	175	0	111	14:52:47	3701036	4	0	2	1	1	3	1	1	1	4	3	0	0	0	0	5	5
112912	14:52:47	10039	Trial	CongruentRight	14	205	378	1	111	14:52:47	3701436	4	0	2	1	1	3	1	1	1	4	3	0	0	0	0	5	5
112912	14:52:47	10039	Trial	ResponseCL	14	0	175	0	111	14:52:47	3702742	4	0	2	1	1	3	1	1	1	4	3	0	0	0	0	5	5
112912	14:52:47	10039	Trial	CongruentLeft	14	203	336	1	111	14:52:47	3703102	4	0	2	1	1	3	1	1	1	4	3	0	0	0	0	5	5
112912	14:52:47	10039	Trial	ResponseIR	14	0	175	0	111	14:52:47	3704448	4	0	2	1	1	3	1	1	1	4	3	0	0	0	0	5	5
112912	14:52:47	10039	Trial	IncongruentRight	14	205	438	1	111	14:52:47	3704914	4	0	2	1	1	3	1	1	1	4	3	0	0	0	0	5	5
112912	14:52:47	10039	Trial	ResponseCR	14	0	175	0	111	14:52:47	3706154	4	0	2	1	1	3	1	1	1	4	3	0	0	0	0	5	5
112912	14:52:47	10039	Trial	CongruentRight	14	205	255	1	111	14:52:47	3706447	4	0	2	1	1	3	1	1	1	4	3	0	0	0	0	5	5
112912	14:52:47	10039	Trial	ResponseIL	14	0	175	0	111	14:52:47	3707873	4	0	2	1	1	3	1	1	1	4	3	0	0	0	0	5	5
112912	14:52:47	10039	Trial	IncongruentLeft	14	203	373	1	111	14:52:47	3708273	4	0	2	1	1	3	1	1	1	4	3	0	0	0	0	5	5
112912	14:52:47	10039	Trial	ResponseCL	14	0	175	0	111	14:52:47	3709579	4	0	2	1	1	3	1	1	1	4	3	0	0	0	0	5	5
112912	14:52:47	10039	Trial	CongruentLeft	14	203	251	1	111	14:52:47	3709859	4	0	2	1	1	3	1	1	1	4	3	0	0	0	0	5	5
112912	14:52:47	10039	Trial	ResponseIL	14	0	175	0	111	14:52:47	3711285	4	0	2	1	1	3	1	1	1	4	3	0	0	0	0	5	5
112912	14:52:47	10039	Trial	IncongruentLeft	14	203	464	1	111	14:52:47	3711778	4	0	2	1	1	3	1	1	1	4	3	0	0	0	0	5	5
112912	14:52:47	10039	Trial	ResponseIR	14	0	175	0	111	14:52:47	3712991	4	0	2	1	1	3	1	1	1	4	3	0	0	0	0	5	5
112912	14:52:47	10039	Trial	IncongruentRight	14	205	390	1	111	14:52:47	3713404	4	0	2	1	1	3	1	1	1	4	3	0	0	0	0	5	5
112912	14:52:47	10039	Trial	ResponseCR	14	0	175	0	111	14:52:47	3714697	4	0	2	1	1	3	1	1	1	4	3	0	0	0	0	5	5
112912	14:52:47	10039	Trial	CongruentRight	14	205	268	1	111	14:52:47	3714990	4	0	2	1	1	3	1	1	1	4	3	0	0	0	0	5	5
112912	14:52:47	10039	Trial	ResponseCL	14	0	175	0	111	14:52:47	3716403	4	0	2	1	1	3	1	1	1	4	3	0	0	0	0	5	5
112912	14:52:47	10039	Trial	CongruentLeft	14	203	306	1	111	14:52:47	3716736	4	0	2	1	1	3	1	1	1	4	3	0	0	0	0	5	5
112912	14:52:47	10039	Trial	ResponseCL	14	0	175	0	111	14:52:47	3718109	4	0	2	1	1	3	1	1	1	4	3	0	0	0	0	5	5
112912	14:52:47	10039	Trial	CongruentLeft	14	203	248	1	111	14:52:47	3718375	4	0	2	1	1	3	1	1	1	4	3	0	0	0	0	5	5
112912	14:52:47	10039	Trial	ResponseIR	14	0	175	0	111	14:52:47	3719815	4	0	2	1	1	3	1	1	1	4	3	0	0	0	0	5	5
112912	14:52:47	10039	Trial	IncongruentRight	14	205	367	1	111	14:52:47	3720201	4	0	2	1	1	3	1	1	1	4	3	0	0	0	0	5	5
112912	14:52:47	10039	Trial	ResponseIL	14	0	175	0	111	14:52:47	3721521	4	0	2	1	1	3	1	1	1	4	3	0	0	0	0	5	5
112912	14:52:47	10039	Trial	IncongruentLeft	14	203	356	1	111	14:52:47	3721894	4	0	2	1	1	3	1	1	1	4	3	0	0	0	0	5	5
112912	14:52:47	10039	Trial	ResponseIR	14	0	175	0	111	14:52:47	3723227	4	0	2	1	1	3	1	1	1	4	3	0	0	0	0	5	5
112912	14:52:47	10039	Trial	IncongruentRight	14	205	410	1	111	14:52:47	3723653	4	0	2	1	1	3	1	1	1	4	3	0	0	0	0	5	5
112912	14:52:47	10039	Trial	ResponseCR	14	0	175	0	111	14:52:47	3724933	4	0	2	1	1	3	1	1	1	4	3	0	0	0	0	5	5
112912	14:52:47	10039	Trial	CongruentRight	14	205	448	1	111	14:52:47	3725399	4	0	2	1	1	3	1	1	1	4	3	0	0	0	0	5	5
112912	14:52:47	10039	Trial	ResponseCR	14	0	175	0	111	14:52:47	3726639	4	0	2	1	1	3	1	1	1	4	3	0	0	0	0	5	5
112912	14:52:47	10039	Trial	CongruentRight	14	205	438	1	111	14:52:47	3727105	4	0	2	1	1	3	1	1	1	4	3	0	0	0	0	5	5
112912	14:52:47	10039	Trial	ResponseIL	14	0	175	0	111	14:52:47	3728345	4	0	2	1	1	3	1	1	1	4	3	0	0	0	0	5	5
112912	14:52:47	10039	Trial	IncongruentLeft	14	203	300	1	111	14:52:47	3728664	4	0	2	1	1	3	1	1	1	4	3	0	0	0	0	5	5
112912	14:52:47	10039	Trial	ResponseCL	14	0	175	0	111	14:52:47	3730051	4	0	2	1	1	3	1	1	1	4	3	0	0	0	0	5	5
112912	14:52:47	10039	Trial	CongruentLeft	14	203	274	1	111	14:52:47	3730344	4	0	2	1	1	3	1	1	1	4	3	0	0	0	0	5	5
112912	14:52:47	10039	Trial	ResponseCR	14	0	175	0	111	14:52:47	3731756	4	0	2	1	1	3	1	1	1	4	3	0	0	0	0	5	5
112912	14:52:47	10039	Trial	CongruentRight	14	205	296	1	111	14:52:47	3732076	4	0	2	1	1	3	1	1	1	4	3	0	0	0	0	5	5
112912	14:52:47	10039	Trial	ResponseCL	14	0	175	0	111	14:52:47	3733462	4	0	2	1	1	3	1	1	1	4	3	0	0	0	0	5	5
112912	14:52:47	10039	Trial	CongruentLeft	14	203	414	1	111	14:52:47	3733902	4	0	2	1	1	3	1	1	1	4	3	0	0	0	0	5	5
112912	14:52:47	10039	Trial	ResponseIR	14	0	175	0	111	14:52:47	3735168	4	0	2	1	1	3	1	1	1	4	3	0	0	0	0	5	5
112912	14:52:47	10039	Trial	IncongruentRight	14	205	388	1	111	14:52:47	3735582	4	0	2	1	1	3	1	1	1	4	3	0	0	0	0	5	5
112912	14:52:47	10039	Trial	ResponseCR	14	0	175	0	111	14:52:47	3736875	4	0	2	1	1	3	1	1	1	4	3	0	0	0	0	5	5
112912	14:52:47	10039	Trial	CongruentRight	14	205	330	1	111	14:52:47	3737221	4	0	2	1	1	3	1	1	1	4	3	0	0	0	0	5	5
112912	14:52:47	10039	Trial	ResponseCL	14	0	175	0	111	14:52:47	3738580	4	0	2	1	1	3	1	1	1	4	3	0	0	0	0	5	5
112912	14:52:47	10039	Trial	CongruentLeft	14	203	207	1	111	14:52:47	3738807	4	0	2	1	1	3	1	1	1	4	3	0	0	0	0	5	5
112912	14:52:47	10039	Trial	ResponseIL	14	0	175	0	111	14:52:47	3740286	4	0	2	1	1	3	1	1	1	4	3	0	0	0	0	5	5
112912	14:52:47	10039	Trial	IncongruentLeft	14	203	390	1	111	14:52:47	3740699	4	0	2	1	1	3	1	1	1	4	3	0	0	0	0	5	5
112912	14:52:47	10039	Trial	ResponseIL	14	0	175	0	111	14:52:47	3741992	4	0	2	1	1	3	1	1	1	4	3	0	0	0	0	5	5
112912	14:52:47	10039	Trial	IncongruentLeft	14	203	348	1	111	14:52:47	3742365	4	0	2	1	1	3	1	1	1	4	3	0	0	0	0	5	5
112912	14:52:47	10039	Trial	ResponseCR	14	0	175	0	111	14:52:47	3743698	4	0	2	1	1	3	1	1	1	4	3	0	0	0	0	5	5
112912	14:52:47	10039	Trial	CongruentRight	14	205	338	1	111	14:52:47	3744058	4	0	2	1	1	3	1	1	1	4	3	0	0	0	0	5	5
112912	14:52:47	10039	Trial	ResponseIR	14	0	175	0	111	14:52:47	3745404	4	0	2	1	1	3	1	1	1	4	3	0	0	0	0	5	5
112912	14:52:47	10039	Trial	IncongruentRight	14	205	379	1	111	14:52:47	3745804	4	0	2	1	1	3	1	1	1	4	3	0	0	0	0	5	5
112912	14:52:47	10039	Trial	ResponseCL	14	0	175	0	111	14:52:47	3747110	4	0	2	1	1	3	1	1	1	4	3	0	0	0	0	5	5
112912	14:52:47	10039	Trial	CongruentLeft	14	203	334	1	111	14:52:47	3747470	4	0	2	1	1	3	1	1	1	4	3	0	0	0	0	5	5
112912	14:52:47	10039	Trial	ResponseIR	14	0	175	0	111	14:52:47	3748816	4	0	2	1	1	3	1	1	1	4	3	0	0	0	0	5	5
112912	14:52:47	10039	Trial	IncongruentRight	14	205	484	1	111	14:52:47	3749322	4	0	2	1	1	3	1	1	1	4	3	0	0	0	0	5	5
112912	14:52:47	10039	Trial	ResponseCR	14	0	175	0	111	14:52:47	3750522	4	0	2	1	1	3	1	1	1	4	3	0	0	0	0	5	5
112912	14:52:47	10039	Trial	CongruentRight	14	205	298	1	111	14:52:47	3750842	4	0	2	1	1	3	1	1	1	4	3	0	0	0	0	5	5
112912	14:52:47	10039	Trial	ResponseIL	14	0	175	0	111	14:52:47	3752228	4	0	2	1	1	3	1	1	1	4	3	0	0	0	0	5	5
112912	14:52:47	10039	Trial	IncongruentLeft	14	203	384	1	111	14:52:47	3752641	4	0	2	1	1	3	1	1	1	4	3	0	0	0	0	5	5
112912	14:52:47	10039	Trial	ResponseCL	14	0	175	0	111	14:52:47	3753934	4	0	2	1	1	3	1	1	1	4	3	0	0	0	0	5	5
112912	14:52:47	10039	Trial	CongruentLeft	14	203	246	1	111	14:52:47	3754200	4	0	2	1	1	3	1	1	1	4	3	0	0	0	0	5	5
112912	14:52:47	10039	Trial	ResponseCR	14	0	175	0	111	14:52:47	3755640	4	0	2	1	1	3	1	1	1	4	3	0	0	0	0	5	5
112912	14:52:47	10039	Trial	CongruentRight	14	205	332	1	111	14:52:47	3756000	4	0	2	1	1	3	1	1	1	4	3	0	0	0	0	5	5
112912	14:52:47	10039	Trial	ResponseIL	14	0	175	0	111	14:52:47	3757346	4	0	2	1	1	3	1	1	1	4	3	0	0	0	0	5	5
112912	14:52:47	10039	Trial	IncongruentLeft	14	203	386	1	111	14:52:47	3757759	4	0	2	1	1	3	1	1	1	4	3	0	0	0	0	5	5
112912	14:52:47	10039	Trial	ResponseCR	14	0	175	0	111	14:52:47	3759052	4	0	2	1	1	3	1	1	1	4	3	0	0	0	0	5	5
112912	14:52:47	10039	Trial	CongruentRight	14	205	200	1	111	14:52:47	3759279	4	0	2	1	1	3	1	1	1	4	3	0	0	0	0	5	5
112912	14:52:47	10039	Trial	ResponseCR	14	0	175	0	111	14:52:47	3760758	4	0	2	1	1	3	1	1	1	4	3	0	0	0	0	5	5
112912	14:52:47	10039	Trial	CongruentRight	14	205	302	1	111	14:52:47	3761078	4	0	2	1	1	3	1	1	1	4	3	0	0	0	0	5	5
112912	14:52:47	10039	Trial	ResponseIR	14	0	175	0	111	14:52:47	3762464	4	0	2	1	1	3	1	1	1	4	3	0	0	0	0	5	5
112912	14:52:47	10039	Trial	IncongruentRight	14	205	372	1	111	14:52:47	3762864	4	0	2	1	1	3	1	1	1	4	3	0	0	0	0	5	5
112912	14:52:47	10039	Trial	ResponseCL	14	0	175	0	111	14:52:47	3764170	4	0	2	1	1	3	1	1	1	4	3	0	0	0	0	5	5
112912	14:52:47	10039	Trial	CongruentLeft	14	203	394	1	111	14:52:47	3764583	4	0	2	1	1	3	1	1	1	4	3	0	0	0	0	5	5
112912	14:52:47	10039	Trial	ResponseIL	14	0	175	0	111	14:52:47	3765876	4	0	2	1	1	3	1	1	1	4	3	0	0	0	0	5	5
112912	14:52:47	10039	Trial	IncongruentLeft	14	203	320	1	111	14:52:47	3766222	4	0	2	1	1	3	1	1	1	4	3	0	0	0	0	5	5
112912	14:52:47	10039	Trial	ResponseCL	14	0	175	0	111	14:52:47	3767582	4	0	2	1	1	3	1	1	1	4	3	0	0	0	0	5	5
112912	14:52:47	10039	Trial	CongruentLeft	14	203	230	1	111	14:52:47	3767835	4	0	2	1	1	3	1	1	1	4	3	0	0	0	0	5	5
112912	14:52:47	10039	Trial	ResponseIR	14	0	175	0	111	14:52:47	3769288	4	0	2	1	1	3	1	1	1	4	3	0	0	0	0	5	5
112912	14:52:47	10039	Trial	IncongruentRight	14	205	364	1	111	14:52:47	3769674	4	0	2	1	1	3	1	1	1	4	3	0	0	0	0	5	5
112912	14:52:47	10039	Trial	ResponseIL	14	0	175	0	111	14:52:47	3770994	4	0	2	1	1	3	1	1	1	4	3	0	0	0	0	5	5
112912	14:52:47	10039	Trial	IncongruentLeft	14	203	418	1	111	14:52:47	3771433	4	0	2	1	1	3	1	1	1	4	3	0	0	0	0	5	5
112912	14:52:47	10039	Trial	ResponseCR	14	0	175	0	111	14:52:47	3772700	4	0	2	1	1	3	1	1	1	4	3	0	0	0	0	5	5
112912	14:52:47	10039	Trial	CongruentRight	14	205	296	1	111	14:52:47	3773019	4	0	2	1	1	3	1	1	1	4	3	0	0	0	0	5	5
112912	14:52:47	10039	Trial	ResponseCL	14	0	175	0	111	14:52:47	3774406	4	0	2	1	1	3	1	1	1	4	3	0	0	0	0	5	5
112912	14:52:47	10039	Trial	CongruentLeft	14	203	318	1	111	14:52:47	3774752	4	0	2	1	1	3	1	1	1	4	3	0	0	0	0	5	5
112912	14:52:47	10039	Trial	ResponseIL	14	0	175	0	111	14:52:47	3776111	4	0	2	1	1	3	1	1	1	4	3	0	0	0	0	5	5
112912	14:52:47	10039	Trial	IncongruentLeft	14	203	340	1	111	14:52:47	3776471	4	0	2	1	1	3	1	1	1	4	3	0	0	0	0	5	5
112912	14:52:47	10039	Trial	ResponseCL	14	0	175	0	111	14:52:47	3777817	4	0	2	1	1	3	1	1	1	4	3	0	0	0	0	5	5
112912	14:52:47	10039	Trial	CongruentLeft	14	203	394	1	111	14:52:47	3778231	4	0	2	1	1	3	1	1	1	4	3	0	0	0	0	5	5
112912	14:52:47	10039	Trial	ResponseIR	14	0	175	0	111	14:52:47	3779524	4	0	2	1	1	3	1	1	1	4	3	0	0	0	0	5	5
112912	14:52:47	10039	Trial	IncongruentRight	14	205	368	1	111	14:52:47	3779910	4	0	2	1	1	3	1	1	1	4	3	0	0	0	0	5	5
112912	14:52:47	10039	Trial	ResponseCR	14	0	175	0	111	14:52:47	3781229	4	0	2	1	1	3	1	1	1	4	3	0	0	0	0	5	5
112912	14:52:47	10039	Trial	CongruentRight	14	205	342	1	111	14:52:47	3781589	4	0	2	1	1	3	1	1	1	4	3	0	0	0	0	5	5
112912	14:52:47	10039	Trial	ResponseIL	14	0	175	0	111	14:52:47	3782935	4	0	2	1	1	3	1	1	1	4	3	0	0	0	0	5	5
112912	14:52:47	10039	Trial	IncongruentLeft	14	203	348	1	111	14:52:47	3783308	4	0	2	1	1	3	1	1	1	4	3	0	0	0	0	5	5
112912	14:52:47	10039	Trial	ResponseCL	14	0	175	0	111	14:52:47	3784641	4	0	2	1	1	3	1	1	1	4	3	0	0	0	0	5	5
112912	14:52:47	10039	Trial	CongruentLeft	14	203	290	1	111	14:52:47	3784948	4	0	2	1	1	3	1	1	1	4	3	0	0	0	0	5	5
112912	14:52:47	10039	Trial	ResponseIR	14	0	175	0	111	14:52:47	3786347	4	0	2	1	1	3	1	1	1	4	3	0	0	0	0	5	5
112912	14:52:47	10039	Trial	IncongruentRight	14	205	344	1	111	14:52:47	3786720	4	0	2	1	1	3	1	1	1	4	3	0	0	0	0	5	5
112912	14:52:47	10039	Trial	ResponseIL	14	0	175	0	111	14:52:47	3788053	4	0	2	1	1	3	1	1	1	4	3	0	0	0	0	5	5
112912	14:52:47	10039	Trial	IncongruentLeft	14	203	398	1	111	14:52:47	3788480	4	0	2	1	1	3	1	1	1	4	3	0	0	0	0	5	5
112912	14:52:47	10039	Trial	ResponseCL	14	0	175	0	111	14:52:47	3789759	4	0	2	1	1	3	1	1	1	4	3	0	0	0	0	5	5
112912	14:52:47	10039	Trial	CongruentLeft	14	203	420	1	111	14:52:47	3790199	4	0	2	1	1	3	1	1	1	4	3	0	0	0	0	5	5
112912	14:52:47	10039	Trial	ResponseIL	14	0	175	0	111	14:52:47	3791465	4	0	2	1	1	3	1	1	1	4	3	0	0	0	0	5	5
112912	14:52:47	10039	Trial	IncongruentLeft	14	203	362	1	111	14:52:47	3791851	4	0	2	1	1	3	1	1	1	4	3	0	0	0	0	5	5
112912	14:52:47	10039	Trial	ResponseCR	14	0	175	0	111	14:52:47	3793171	4	0	2	1	1	3	1	1	1	4	3	0	0	0	0	5	5
112912	14:52:47	10039	Trial	CongruentRight	14	205	272	1	111	14:52:47	3793464	4	0	2	1	1	3	1	1	1	4	3	0	0	0	0	5	5
112912	14:52:47	10039	Trial	ResponseCL	14	0	175	0	111	14:52:47	3794877	4	0	2	1	1	3	1	1	1	4	3	0	0	0	0	5	5
112912	14:52:47	10039	Trial	CongruentLeft	14	203	278	1	111	14:52:47	3795184	4	0	2	1	1	3	1	1	1	4	3	0	0	0	0	5	5
112912	14:52:47	10039	Trial	ResponseIR	14	0	175	0	111	14:52:47	3796583	4	0	2	1	1	3	1	1	1	4	3	0	0	0	0	5	5
112912	14:52:47	10039	Trial	IncongruentRight	14	205	332	1	111	14:52:47	3796943	4	0	2	1	1	3	1	1	1	4	3	0	0	0	0	5	5
112912	14:52:47	10039	Trial	ResponseCL	14	0	175	0	111	14:52:47	3798289	4	0	2	1	1	3	1	1	1	4	3	0	0	0	0	5	5
112912	14:52:47	10039	Trial	CongruentLeft	14	203	272	1	111	14:52:47	3798582	4	0	2	1	1	3	1	1	1	4	3	0	0	0	0	5	5
112912	14:52:47	10039	Trial	ResponseCR	14	0	175	0	111	14:52:47	3799995	4	0	2	1	1	3	1	1	1	4	3	0	0	0	0	5	5
112912	14:52:47	10039	Trial	CongruentRight	14	205	264	1	111	14:52:47	3800275	4	0	2	1	1	3	1	1	1	4	3	0	0	0	0	5	5
112912	14:52:47	10039	Trial	ResponseIL	14	0	175	0	111	14:52:47	3801701	4	0	2	1	1	3	1	1	1	4	3	0	0	0	0	5	5
112912	14:52:47	10039	Trial	IncongruentLeft	14	203	286	1	111	14:52:47	3802007	4	0	2	1	1	3	1	1	1	4	3	0	0	0	0	5	5
112912	14:52:47	10039	WordsAbsFrThreemo	PAbsFrThreemo1	16	Abs1	4999	0	111	14:52:47	3814855	4	0	2	1	1	3	1	1	1	4	3	0	0	0	0	5	5
112912	14:52:47	10039	WordsAbsFrThreemo	AbsFrThreemo1	16	Abs1	13761	0	111	14:52:47	3828650	4	0	2	1	1	3	1	1	1	4	3	1	0	0	0	5	5
112912	14:52:47	10039	WordsAbsFrThreemo	AbsFrThreemo2	16	Abs1	22646	0	111	14:52:47	3851334	4	0	2	1	1	3	1	1	1	4	3	2	0	0	0	5	5
112912	14:52:47	10039	WordsAbsFrThreemo	AbsFrThreemo3	16	Abs2	14730	0	111	14:52:47	3866101	4	0	2	1	1	3	1	1	1	4	3	2	0	0	0	5	5
112912	14:52:47	10039	Trial2BackFrS	NS	17	0	1000	1	111	14:52:47	3902512	4	0	2	1	1	3	1	1	1	4	3	2	0	0	0	5	5
112912	14:52:47	10039	Trial2BackFrS	NS	17	0	1000	1	111	14:52:47	3904018	4	0	2	1	1	3	1	1	1	4	3	2	0	0	0	5	5
112912	14:52:47	10039	Trial2BackFrS	NS	17	0	1000	1	111	14:52:47	3905524	4	0	2	1	1	3	1	1	1	4	3	2	0	0	0	5	5
112912	14:52:47	10039	Trial2BackFrS	YS	17	0	1000	0	111	14:52:47	3907030	4	0	2	1	1	3	1	1	1	4	3	2	0	0	0	5	5
112912	14:52:47	10039	Trial2BackFrS	NS	17	0	1000	1	111	14:52:47	3908537	4	0	2	1	1	3	1	1	1	4	3	2	0	0	0	5	5
112912	14:52:47	10039	Trial2BackFrS	NS	17	0	1000	1	111	14:52:47	3910043	4	0	2	1	1	3	1	1	1	4	3	2	0	0	0	5	5
112912	14:52:47	10039	Trial2BackFrS	NS	17	0	1000	1	111	14:52:47	3911549	4	0	2	1	1	3	1	1	1	4	3	2	0	0	0	5	5
112912	14:52:47	10039	Trial2BackFrS	NS	17	0	1000	1	111	14:52:47	3913055	4	0	2	1	1	3	1	1	1	4	3	2	0	0	0	5	5
112912	14:52:47	10039	Trial2BackFrS	YS	17	57	644	1	111	14:52:47	3914214	4	0	2	1	1	3	1	1	1	4	3	2	0	0	0	5	5
112912	14:52:47	10039	Trial2BackFrS	NS	17	0	1000	1	111	14:52:47	3916067	4	0	2	1	1	3	1	1	1	4	3	2	0	0	0	5	5
112912	14:52:47	10039	Trial2BackFrS	NS	17	0	1000	1	111	14:52:47	3917573	4	0	2	1	1	3	1	1	1	4	3	2	0	0	0	5	5
112912	14:52:47	10039	Trial2BackFrS	YS	17	0	1000	0	111	14:52:47	3919079	4	0	2	1	1	3	1	1	1	4	3	2	0	0	0	5	5
112912	14:52:47	10039	Trial2BackFrS	NS	17	0	1000	1	111	14:52:47	3920585	4	0	2	1	1	3	1	1	1	4	3	2	0	0	0	5	5
112912	14:52:47	10039	Trial2BackFrS	NS	17	0	1000	1	111	14:52:47	3922091	4	0	2	1	1	3	1	1	1	4	3	2	0	0	0	5	5
112912	14:52:47	10039	Trial2BackFrS	NS	17	0	1000	1	111	14:52:47	3923597	4	0	2	1	1	3	1	1	1	4	3	2	0	0	0	5	5
112912	14:52:47	10039	Trial2BackFrS	YS	17	0	1000	0	111	14:52:47	3925103	4	0	2	1	1	3	1	1	1	4	3	2	0	0	0	5	5
112912	14:52:47	10039	Trial2BackFrS	NS	17	0	1000	1	111	14:52:47	3926609	4	0	2	1	1	3	1	1	1	4	3	2	0	0	0	5	5
112912	14:52:47	10039	Trial2BackFrS	NS	17	0	1000	1	111	14:52:47	3928115	4	0	2	1	1	3	1	1	1	4	3	2	0	0	0	5	5
112912	14:52:47	10039	Trial2BackFrS	NS	17	0	1000	1	111	14:52:47	3929621	4	0	2	1	1	3	1	1	1	4	3	2	0	0	0	5	5
112912	14:52:47	10039	Trial2BackFrS	NS	17	0	1000	1	111	14:52:47	3931127	4	0	2	1	1	3	1	1	1	4	3	2	0	0	0	5	5
112912	14:52:47	10039	Trial2BackFrS	YS	17	57	651	1	111	14:52:47	3932287	4	0	2	1	1	3	1	1	1	4	3	2	0	0	0	5	5
112912	14:52:47	10039	Trial2BackFrS	NS	17	0	1000	1	111	14:52:47	3934139	4	0	2	1	1	3	1	1	1	4	3	2	0	0	0	5	5
112912	14:52:47	10039	Trial2BackFrS	NS	17	0	1000	1	111	14:52:47	3935645	4	0	2	1	1	3	1	1	1	4	3	2	0	0	0	5	5
112912	14:52:47	10039	Trial2BackFrS	NS	17	0	1000	1	111	14:52:47	3937151	4	0	2	1	1	3	1	1	1	4	3	2	0	0	0	5	5
112912	14:52:47	10039	Trial2BackFrS	NS	17	57	771	0	111	14:52:47	3938431	4	0	2	1	1	3	1	1	1	4	3	2	0	0	0	5	5
112912	14:52:47	10039	Trial2BackFrS	NS	17	0	1000	1	111	14:52:47	3940163	4	0	2	1	1	3	1	1	1	4	3	2	0	0	0	5	5
112912	14:52:47	10039	Trial2BackFrS	NS	17	0	1000	1	111	14:52:47	3941669	4	0	2	1	1	3	1	1	1	4	3	2	0	0	0	5	5
112912	14:52:47	10039	Trial2BackFrS	NS	17	0	1000	1	111	14:52:47	3943175	4	0	2	1	1	3	1	1	1	4	3	2	0	0	0	5	5
112912	14:52:47	10039	Trial2BackFrS	NS	17	57	715	0	111	14:52:47	3944402	4	0	2	1	1	3	1	1	1	4	3	2	0	0	0	5	5
112912	14:52:47	10039	Trial2BackFrS	NS	17	0	1000	1	111	14:52:47	3946188	4	0	2	1	1	3	1	1	1	4	3	2	0	0	0	5	5
112912	14:52:47	10039	Trial2BackFrS	NS	17	0	1000	1	111	14:52:47	3947694	4	0	2	1	1	3	1	1	1	4	3	2	0	0	0	5	5
112912	14:52:47	10039	Trial2BackFrS	YS	17	57	756	1	111	14:52:47	3948960	4	0	2	1	1	3	1	1	1	4	3	2	0	0	0	5	5
112912	14:52:47	10039	Trial2BackFrS	NS	17	0	1000	1	111	14:52:47	3950706	4	0	2	1	1	3	1	1	1	4	3	2	0	0	0	5	5
112912	14:52:47	10039	Trial2BackFrS	NS	17	0	1000	1	111	14:52:47	3952212	4	0	2	1	1	3	1	1	1	4	3	2	0	0	0	5	5
112912	14:52:47	10039	Trial2BackFrS	NS	17	0	1000	1	111	14:52:47	3953718	4	0	2	1	1	3	1	1	1	4	3	2	0	0	0	5	5
112912	14:52:47	10039	Trial2BackFrS	YS	17	0	1000	0	111	14:52:47	3955224	4	0	2	1	1	3	1	1	1	4	3	2	0	0	0	5	5
112912	14:52:47	10039	Trial2BackFrS	NS	17	0	1000	1	111	14:52:47	3956730	4	0	2	1	1	3	1	1	1	4	3	2	0	0	0	5	5
112912	14:52:47	10039	Trial2BackFrS	NS	17	0	1000	1	111	14:52:47	3958236	4	0	2	1	1	3	1	1	1	4	3	2	0	0	0	5	5
112912	14:52:47	10039	Trial2BackFrS	NS	17	0	1000	1	111	14:52:47	3959742	4	0	2	1	1	3	1	1	1	4	3	2	0	0	0	5	5
112912	14:52:47	10039	Trial2BackFrS	NS	17	0	1000	1	111	14:52:47	3961248	4	0	2	1	1	3	1	1	1	4	3	2	0	0	0	5	5
112912	14:52:47	10039	Trial2BackFrS	NS	17	0	1000	1	111	14:52:47	3962754	4	0	2	1	1	3	1	1	1	4	3	2	0	0	0	5	5
112912	14:52:47	10039	Trial2BackFrS	NS	17	0	1000	1	111	14:52:47	3964260	4	0	2	1	1	3	1	1	1	4	3	2	0	0	0	5	5
112912	14:52:47	10039	Trial2BackFrS	NS	17	0	1000	1	111	14:52:47	3965766	4	0	2	1	1	3	1	1	1	4	3	2	0	0	0	5	5
112912	14:52:47	10039	Trial2BackFrS	YS	17	0	1000	0	111	14:52:47	3967272	4	0	2	1	1	3	1	1	1	4	3	2	0	0	0	5	5
112912	14:52:47	10039	Trial2BackFrS	NS	17	0	1000	1	111	14:52:47	3968778	4	0	2	1	1	3	1	1	1	4	3	2	0	0	0	5	5
112912	14:52:47	10039	Trial2BackFrS	NS	17	0	1000	1	111	14:52:47	3970284	4	0	2	1	1	3	1	1	1	4	3	2	0	0	0	5	5
112912	14:52:47	10039	Trial2BackFrS	NS	17	0	1000	1	111	14:52:47	3971790	4	0	2	1	1	3	1	1	1	4	3	2	0	0	0	5	5
112912	14:52:47	10039	Trial2BackFrS	NS	17	0	1000	1	111	14:52:47	3973296	4	0	2	1	1	3	1	1	1	4	3	2	0	0	0	5	5
112912	14:52:47	10039	Trial2BackFrS	YS	17	0	1000	0	111	14:52:47	3974802	4	0	2	1	1	3	1	1	1	4	3	2	0	0	0	5	5
112912	14:52:47	10039	Trial2BackFrS	NS	17	0	1000	1	111	14:52:47	3976308	4	0	2	1	1	3	1	1	1	4	3	2	0	0	0	5	5
112912	14:52:47	10039	Trial2BackFrS	NS	17	0	1000	1	111	14:52:47	3977814	4	0	2	1	1	3	1	1	1	4	3	2	0	0	0	5	5
112912	14:52:47	10039	Trial2BackFrS	NS	17	0	1000	1	111	14:52:47	3979320	4	0	2	1	1	3	1	1	1	4	3	2	0	0	0	5	5
112912	14:52:47	10039	Trial2BackFrS	NS	17	0	1000	1	111	14:52:47	3980826	4	0	2	1	1	3	1	1	1	4	3	2	0	0	0	5	5
112912	14:52:47	10039	Trial2BackFrS	NS	17	0	1000	1	111	14:52:47	3982333	4	0	2	1	1	3	1	1	1	4	3	2	0	0	0	5	5
112912	14:52:47	10039	Trial2BackFrS	NS	17	0	1000	1	111	14:52:47	3983839	4	0	2	1	1	3	1	1	1	4	3	2	0	0	0	5	5
112912	14:52:47	10039	Trial2BackFrS	YS	17	0	1000	0	111	14:52:47	3985345	4	0	2	1	1	3	1	1	1	4	3	2	0	0	0	5	5
112912	14:52:47	10039	Trial2BackFrS	NS	17	0	1000	1	111	14:52:47	3986864	4	0	2	1	1	3	1	1	1	4	3	2	0	0	0	5	5
112912	14:52:47	10039	Trial2BackFrS	NS	17	0	1000	1	111	14:52:47	3988370	4	0	2	1	1	3	1	1	1	4	3	2	0	0	0	5	5
112912	14:52:47	10039	Trial2BackFrS	NS	17	0	1000	1	111	14:52:47	3989877	4	0	2	1	1	3	1	1	1	4	3	2	0	0	0	5	5
112912	14:52:47	10039	Trial2BackFrS	NS	17	0	1000	1	111	14:52:47	3991395	4	0	2	1	1	3	1	1	1	4	3	2	0	0	0	5	5
112912	14:52:47	10039	Trial2BackFrS	NS	17	0	1000	1	111	14:52:47	3992902	4	0	2	1	1	3	1	1	1	4	3	2	0	0	0	5	5
112912	14:52:47	10039	Trial2BackFrS	NS	17	0	1000	1	111	14:52:47	3994407	4	0	2	1	1	3	1	1	1	4	3	2	0	0	0	5	5
112912	14:52:47	10039	Trial2BackFrS	NS	17	0	1000	1	111	14:52:47	3995914	4	0	2	1	1	3	1	1	1	4	3	2	0	0	0	5	5
112912	14:52:47	10039	Trial2BackFrS	YS	17	0	1000	0	111	14:52:47	3997420	4	0	2	1	1	3	1	1	1	4	3	2	0	0	0	5	5
112912	14:52:47	10039	Trial2BackFrS	NS	17	0	1000	1	111	14:52:47	3998926	4	0	2	1	1	3	1	1	1	4	3	2	0	0	0	5	5
112912	14:52:47	10039	Trial2BackFrS	NS	17	0	1000	1	111	14:52:47	4000445	4	0	2	1	1	3	1	1	1	4	3	2	0	0	0	5	5
112912	14:52:47	10039	Trial2BackFrS	NS	17	0	1000	1	111	14:52:47	4001951	4	0	2	1	1	3	1	1	1	4	3	2	0	0	0	5	5
112912	14:52:47	10039	Trial2BackFrS	NS	17	0	1000	1	111	14:52:47	4003457	4	0	2	1	1	3	1	1	1	4	3	2	0	0	0	5	5
112912	14:52:47	10039	Trial2BackFrS	YS	17	0	1000	0	111	14:52:47	4004963	4	0	2	1	1	3	1	1	1	4	3	2	0	0	0	5	5
112912	14:52:47	10039	Trial2BackFrS	NS	17	0	1000	1	111	14:52:47	4006469	4	0	2	1	1	3	1	1	1	4	3	2	0	0	0	5	5
112912	14:52:47	10039	Trial2BackFrS	NS	17	0	1000	1	111	14:52:47	4007975	4	0	2	1	1	3	1	1	1	4	3	2	0	0	0	5	5
112912	14:52:47	10039	Trial2BackFrS	YS	17	57	713	1	111	14:52:47	4009201	4	0	2	1	1	3	1	1	1	4	3	2	0	0	0	5	5
112912	14:52:47	10039	Trial2BackFrS	NS	17	0	1000	1	111	14:52:47	4010987	4	0	2	1	1	3	1	1	1	4	3	2	0	0	0	5	5
112912	14:52:47	10039	Trial2BackFrS	NS	17	0	1000	1	111	14:52:47	4012493	4	0	2	1	1	3	1	1	1	4	3	2	0	0	0	5	5
112912	14:52:47	10039	Trial2BackFrS	NS	17	0	1000	1	111	14:52:47	4013999	4	0	2	1	1	3	1	1	1	4	3	2	0	0	0	5	5
112912	14:52:47	10039	Trial2BackFrS	NS	17	0	1000	1	111	14:52:47	4015505	4	0	2	1	1	3	1	1	1	4	3	2	0	0	0	5	5
112912	14:52:47	10039	Trial2BackFrS	NS	17	0	1000	1	111	14:52:47	4017011	4	0	2	1	1	3	1	1	1	4	3	2	0	0	0	5	5
112912	14:52:47	10039	Trial2BackFrS	NS	17	0	1000	1	111	14:52:47	4018517	4	0	2	1	1	3	1	1	1	4	3	2	0	0	0	5	5
112912	14:52:47	10039	Trial2BackFrS	YS	17	57	938	1	111	14:52:47	4019970	4	0	2	1	1	3	1	1	1	4	3	2	0	0	0	5	5
112912	14:52:47	10039	Trial2BackFrS	NS	17	0	1000	1	111	14:52:47	4021530	4	0	2	1	1	3	1	1	1	4	3	2	0	0	0	5	5
112912	14:52:47	10039	Trial2BackFrS	NS	17	0	1000	1	111	14:52:47	4023036	4	0	2	1	1	3	1	1	1	4	3	2	0	0	0	5	5
112912	14:52:47	10039	Trial2BackFrS	NS	17	0	1000	1	111	14:52:47	4024542	4	0	2	1	1	3	1	1	1	4	3	2	0	0	0	5	5
112912	14:52:47	10039	Trial2BackFrS	NS	17	0	1000	1	111	14:52:47	4026048	4	0	2	1	1	3	1	1	1	4	3	2	0	0	0	5	5
112912	14:52:47	10039	Trial2BackFrS	YS	17	0	1000	0	111	14:52:47	4027554	4	0	2	1	1	3	1	1	1	4	3	2	0	0	0	5	5
112912	14:52:47	10039	Trial2BackFrS	NS	17	0	1000	1	111	14:52:47	4029060	4	0	2	1	1	3	1	1	1	4	3	2	0	0	0	5	5
112912	14:52:47	10039	Trial2BackFrS	NS	17	0	1000	1	111	14:52:47	4030566	4	0	2	1	1	3	1	1	1	4	3	2	0	0	0	5	5
112912	14:52:47	10039	Trial2BackFrS	NS	17	0	1000	1	111	14:52:47	4032072	4	0	2	1	1	3	1	1	1	4	3	2	0	0	0	5	5
112912	14:52:47	10039	Trial2BackFrS	NS	17	0	1000	1	111	14:52:47	4033578	4	0	2	1	1	3	1	1	1	4	3	2	0	0	0	5	5
112912	14:52:47	10039	Trial2BackFrS	YS	17	0	1000	0	111	14:52:47	4035084	4	0	2	1	1	3	1	1	1	4	3	2	0	0	0	5	5
112912	14:52:47	10039	Trial2BackFrS	NS	17	0	1000	1	111	14:52:47	4036590	4	0	2	1	1	3	1	1	1	4	3	2	0	0	0	5	5
112912	14:52:47	10039	Trial2BackFrS	NS	17	0	1000	1	111	14:52:47	4038096	4	0	2	1	1	3	1	1	1	4	3	2	0	0	0	5	5
112912	14:52:47	10039	Trial2BackFrS	YS	17	0	1000	0	111	14:52:47	4039602	4	0	2	1	1	3	1	1	1	4	3	2	0	0	0	5	5
112912	14:52:47	10039	Trial2BackFrS	NS	17	0	1000	1	111	14:52:47	4041108	4	0	2	1	1	3	1	1	1	4	3	2	0	0	0	5	5
112912	14:52:47	10039	Trial2BackFrS	NS	17	0	1000	1	111	14:52:47	4042614	4	0	2	1	1	3	1	1	1	4	3	2	0	0	0	5	5
112912	14:52:47	10039	Trial2BackFrS	NS	17	0	1000	1	111	14:52:47	4044120	4	0	2	1	1	3	1	1	1	4	3	2	0	0	0	5	5
112912	14:52:47	10039	Trial2BackFrS	NS	17	0	1000	1	111	14:52:47	4045626	4	0	2	1	1	3	1	1	1	4	3	2	0	0	0	5	5
112912	14:52:47	10039	Trial2BackFrS	NS	17	0	1000	1	111	14:52:47	4047132	4	0	2	1	1	3	1	1	1	4	3	2	0	0	0	5	5
112912	14:52:47	10039	Trial2BackFrS	NS	17	0	1000	1	111	14:52:47	4048638	4	0	2	1	1	3	1	1	1	4	3	2	0	0	0	5	5
112912	14:52:47	10039	Trial2BackFrS	NS	17	0	1000	1	111	14:52:47	4050145	4	0	2	1	1	3	1	1	1	4	3	2	0	0	0	5	5
112912	14:52:47	10039	Trial2BackFrS	NS	17	0	1000	1	111	14:52:47	4051650	4	0	2	1	1	3	1	1	1	4	3	2	0	0	0	5	5
112912	14:52:47	10039	Trial2BackFrS	YS	17	0	1000	0	111	14:52:47	4053156	4	0	2	1	1	3	1	1	1	4	3	2	0	0	0	5	5
112912	14:52:47	10039	Trial2BackFrS	NS	17	0	1000	1	111	14:52:47	4054662	4	0	2	1	1	3	1	1	1	4	3	2	0	0	0	5	5
112912	14:52:47	10039	Trial2BackFrS	NS	17	0	1000	1	111	14:52:47	4056169	4	0	2	1	1	3	1	1	1	4	3	2	0	0	0	5	5
112912	14:52:47	10039	Trial2BackFrS	NS	17	0	1000	1	111	14:52:47	4057688	4	0	2	1	1	3	1	1	1	4	3	2	0	0	0	5	5
112912	14:52:47	10039	Trial2BackFrS	NS	17	0	1000	1	111	14:52:47	4059194	4	0	2	1	1	3	1	1	1	4	3	2	0	0	0	5	5
112912	14:52:47	10039	Trial2BackFrS	NS	17	0	1000	1	111	14:52:47	4060700	4	0	2	1	1	3	1	1	1	4	3	2	0	0	0	5	5
112912	14:52:47	10039	Trial2BackFrS	NS	17	0	1000	1	111	14:52:47	4062206	4	0	2	1	1	3	1	1	1	4	3	2	0	0	0	5	5
112912	14:52:47	10039	Trial2BackFrS	NS	17	0	1000	1	111	14:52:47	4063725	4	0	2	1	1	3	1	1	1	4	3	2	0	0	0	5	5
112912	14:52:47	10039	Trial2BackFrS	YS	17	0	1000	0	111	14:52:47	4065232	4	0	2	1	1	3	1	1	1	4	3	2	0	0	0	5	5
112912	14:52:47	10039	Trial2BackFrS	NS	17	0	1000	1	111	14:52:47	4066737	4	0	2	1	1	3	1	1	1	4	3	2	0	0	0	5	5
112912	14:52:47	10039	Trial2BackFrS	NS	17	0	1000	1	111	14:52:47	4068243	4	0	2	1	1	3	1	1	1	4	3	2	0	0	0	5	5
112912	14:52:47	10039	Trial2BackFrS	NS	17	0	1000	1	111	14:52:47	4069750	4	0	2	1	1	3	1	1	1	4	3	2	0	0	0	5	5
112912	14:52:47	10039	Trial2BackFrS	NS	17	0	1000	1	111	14:52:47	4071256	4	0	2	1	1	3	1	1	1	4	3	2	0	0	0	5	5
112912	14:52:47	10039	Trial2BackFrS	NS	17	0	1000	1	111	14:52:47	4072762	4	0	2	1	1	3	1	1	1	4	3	2	0	0	0	5	5
112912	14:52:47	10039	Trial2BackFrS	NS	17	0	1000	1	111	14:52:47	4074268	4	0	2	1	1	3	1	1	1	4	3	2	0	0	0	5	5
112912	14:52:47	10039	Trial2BackFrS	NS	17	0	1000	1	111	14:52:47	4075787	4	0	2	1	1	3	1	1	1	4	3	2	0	0	0	5	5
112912	14:52:47	10039	Trial2BackFrS	NS	17	0	1000	1	111	14:52:47	4077293	4	0	2	1	1	3	1	1	1	4	3	2	0	0	0	5	5
112912	14:52:47	10039	Trial2BackFrS	NS	17	0	1000	1	111	14:52:47	4078799	4	0	2	1	1	3	1	1	1	4	3	2	0	0	0	5	5
112912	14:52:47	10039	Trial2BackFrS	YS	17	0	1000	0	111	14:52:47	4080305	4	0	2	1	1	3	1	1	1	4	3	2	0	0	0	5	5
112912	14:52:47	10039	Trial2BackFrS	NS	17	0	1000	1	111	14:52:47	4081811	4	0	2	1	1	3	1	1	1	4	3	2	0	0	0	5	5
112912	14:52:47	10039	ClockFr3mo	ClockFr3mo	19	Clock1	4308	0	111	14:52:47	4086236	4	0	2	1	1	3	1	1	1	4	3	2	1	0	0	5	5
112912	14:52:47	10039	ClockFr3mo	ClockFr3mo	19	Clock11	533	0	111	14:52:47	4086823	4	0	2	1	1	3	1	1	1	4	3	2	1	1	0	5	5
112912	14:52:47	10039	ClockFr3mo	ClockFr3mo	19	Clock111	1147	0	111	14:52:47	4088022	4	0	2	1	1	3	1	1	1	4	3	2	1	1	1	5	5
112912	14:52:47	10039	ClockFr3mo	ClockFr3mo	19	Clockdone	8995	0	111	14:52:47	4097072	4	0	2	1	1	3	1	1	1	4	3	2	1	1	1	5	5
112912	14:52:47	10039	FASFrVF3mo	StopFrVF3mo	20	8	4396	0	111	14:52:47	4195472	4	0	2	1	1	3	1	1	1	4	3	2	1	1	1	5	5
