date	time	subject	blockcode	trialcode	values.TaskNumber	response	latency	correct	values.Score	script.starttime	script.elapsedtime	values.ScoreS7	values.Word1	values.Word2	values.Word3	values.Word4	values.Word5	values.Word6	values.Word7	values.Word8	values.DigitSpanFwrd	values.DigitSpanBack	values.ScoreAbs	values.Contour	values.Numbers	values.Hands	values.corsiblockspanFwrd	values.corsiblockspanRev
111912	11:26:39	10034	Language	Language	0	English	105329	0	0	11:26:39	105436	0	0	0	0	0	0	0	0	0	0	0	0	0	0	0	0	0
111912	11:26:39	10034	Session	Session	0	3mo	832	0	0	11:26:39	106342	0	0	0	0	0	0	0	0	0	0	0	0	0	0	0	0	0
111912	11:26:39	10034	HandEng	HandEng	0	Right	850	0	0	11:26:39	107275	0	0	0	0	0	0	0	0	0	0	0	0	0	0	0	0	0
111912	11:26:39	10034	CubeEng	CubeEng	1	1Cube	50531	0	0	11:26:39	1094138	0	0	0	0	0	0	0	0	0	0	0	0	0	0	0	0	0
111912	11:26:39	10034	pm.simpleEngRight	blank.simpleEng	2	0	1900	1	0	11:26:39	1126232	0	0	0	0	0	0	0	0	0	0	0	0	0	0	0	0	0
111912	11:26:39	10034	pm.simpleEngRight	pm.simpleEng	2	57	733	0	0	11:26:39	1126992	0	0	0	0	0	0	0	0	0	0	0	0	0	0	0	0	0
111912	11:26:39	10034	pm.simpleEngRight	blank.simpleEng	2	0	1800	1	0	11:26:39	1128818	0	0	0	0	0	0	0	0	0	0	0	0	0	0	0	0	0
111912	11:26:39	10034	pm.simpleEngRight	pm.simpleEng	2	57	578	0	0	11:26:39	1129418	0	0	0	0	0	0	0	0	0	0	0	0	0	0	0	0	0
111912	11:26:39	10034	pm.simpleEngRight	blank.simpleEng	2	0	2500	1	0	11:26:39	1131936	0	0	0	0	0	0	0	0	0	0	0	0	0	0	0	0	0
111912	11:26:39	10034	pm.simpleEngRight	pm.simpleEng	2	57	487	0	0	11:26:39	1132443	0	0	0	0	0	0	0	0	0	0	0	0	0	0	0	0	0
111912	11:26:39	10034	pm.simpleEngRight	blank.simpleEng	2	0	1700	1	0	11:26:39	1134162	0	0	0	0	0	0	0	0	0	0	0	0	0	0	0	0	0
111912	11:26:39	10034	pm.simpleEngRight	pm.simpleEng	2	57	435	0	0	11:26:39	1134615	0	0	0	0	0	0	0	0	0	0	0	0	0	0	0	0	0
111912	11:26:39	10034	pm.simpleEngRight	blank.simpleEng	2	0	2400	1	0	11:26:39	1137041	0	0	0	0	0	0	0	0	0	0	0	0	0	0	0	0	0
111912	11:26:39	10034	pm.simpleEngRight	pm.simpleEng	2	57	766	0	0	11:26:39	1137828	0	0	0	0	0	0	0	0	0	0	0	0	0	0	0	0	0
111912	11:26:39	10034	pm.simpleEngRight	blank.simpleEng	2	0	2300	1	0	11:26:39	1140147	0	0	0	0	0	0	0	0	0	0	0	0	0	0	0	0	0
111912	11:26:39	10034	pm.simpleEngRight	pm.simpleEng	2	57	611	0	0	11:26:39	1140786	0	0	0	0	0	0	0	0	0	0	0	0	0	0	0	0	0
111912	11:26:39	10034	pm.simpleEngRight	blank.simpleEng	2	0	2000	1	0	11:26:39	1142799	0	0	0	0	0	0	0	0	0	0	0	0	0	0	0	0	0
111912	11:26:39	10034	pm.simpleEngRight	pm.simpleEng	2	57	699	0	0	11:26:39	1143519	0	0	0	0	0	0	0	0	0	0	0	0	0	0	0	0	0
111912	11:26:39	10034	pm.simpleEngRight	blank.simpleEng	2	0	2200	1	0	11:26:39	1145744	0	0	0	0	0	0	0	0	0	0	0	0	0	0	0	0	0
111912	11:26:39	10034	pm.simpleEngRight	pm.simpleEng	2	57	757	0	0	11:26:39	1146531	0	0	0	0	0	0	0	0	0	0	0	0	0	0	0	0	0
111912	11:26:39	10034	pm.simpleEngRight	blank.simpleEng	2	0	1600	1	0	11:26:39	1148143	0	0	0	0	0	0	0	0	0	0	0	0	0	0	0	0	0
111912	11:26:39	10034	pm.simpleEngRight	pm.simpleEng	2	57	506	0	0	11:26:39	1148680	0	0	0	0	0	0	0	0	0	0	0	0	0	0	0	0	0
111912	11:26:39	10034	pm.simpleEngRight	blank.simpleEng	2	0	2100	1	0	11:26:39	1150809	0	0	0	0	0	0	0	0	0	0	0	0	0	0	0	0	0
111912	11:26:39	10034	pm.simpleEngRight	pm.simpleEng	2	57	378	0	0	11:26:39	1151283	0	0	0	0	0	0	0	0	0	0	0	0	0	0	0	0	0
111912	11:26:39	10034	pm.simpleEngRight	blank.simpleEng	2	0	1500	1	0	11:26:39	1152808	0	0	0	0	0	0	0	0	0	0	0	0	0	0	0	0	0
111912	11:26:39	10034	pm.simpleEngRight	pm.simpleEng	2	57	454	0	0	11:26:39	1153288	0	0	0	0	0	0	0	0	0	0	0	0	0	0	0	0	0
111912	11:26:39	10034	pm.simpleEngRight	blank.simpleEng	2	0	2500	1	0	11:26:39	1155807	0	0	0	0	0	0	0	0	0	0	0	0	0	0	0	0	0
111912	11:26:39	10034	pm.simpleEngRight	pm.simpleEng	2	57	573	0	0	11:26:39	1156412	0	0	0	0	0	0	0	0	0	0	0	0	0	0	0	0	0
111912	11:26:39	10034	pm.simpleEngRight	blank.simpleEng	2	0	2200	1	0	11:26:39	1158646	0	0	0	0	0	0	0	0	0	0	0	0	0	0	0	0	0
111912	11:26:39	10034	pm.simpleEngRight	pm.simpleEng	2	57	568	0	0	11:26:39	1159277	0	0	0	0	0	0	0	0	0	0	0	0	0	0	0	0	0
111912	11:26:39	10034	pm.simpleEngRight	blank.simpleEng	2	0	1800	1	0	11:26:39	1161098	0	0	0	0	0	0	0	0	0	0	0	0	0	0	0	0	0
111912	11:26:39	10034	pm.simpleEngRight	pm.simpleEng	2	57	677	0	0	11:26:39	1161805	0	0	0	0	0	0	0	0	0	0	0	0	0	0	0	0	0
111912	11:26:39	10034	pm.simpleEngRight	blank.simpleEng	2	0	1700	1	0	11:26:39	1163524	0	0	0	0	0	0	0	0	0	0	0	0	0	0	0	0	0
111912	11:26:39	10034	pm.simpleEngRight	pm.simpleEng	2	57	457	0	0	11:26:39	1164027	0	0	0	0	0	0	0	0	0	0	0	0	0	0	0	0	0
111912	11:26:39	10034	pm.simpleEngRight	blank.simpleEng	2	0	2300	1	0	11:26:39	1166350	0	0	0	0	0	0	0	0	0	0	0	0	0	0	0	0	0
111912	11:26:39	10034	pm.simpleEngRight	pm.simpleEng	2	57	687	0	0	11:26:39	1167056	0	0	0	0	0	0	0	0	0	0	0	0	0	0	0	0	0
111912	11:26:39	10034	pm.simpleEngRight	blank.simpleEng	2	0	2000	1	0	11:26:39	1169082	0	0	0	0	0	0	0	0	0	0	0	0	0	0	0	0	0
111912	11:26:39	10034	pm.simpleEngRight	pm.simpleEng	2	57	614	0	0	11:26:39	1169725	0	0	0	0	0	0	0	0	0	0	0	0	0	0	0	0	0
111912	11:26:39	10034	pm.simpleEngRight	blank.simpleEng	2	0	1600	1	0	11:26:39	1171374	0	0	0	0	0	0	0	0	0	0	0	0	0	0	0	0	0
111912	11:26:39	10034	pm.simpleEngRight	pm.simpleEng	2	57	845	0	0	11:26:39	1172246	0	0	0	0	0	0	0	0	0	0	0	0	0	0	0	0	0
111912	11:26:39	10034	pm.simpleEngRight	blank.simpleEng	2	0	2100	1	0	11:26:39	1174373	0	0	0	0	0	0	0	0	0	0	0	0	0	0	0	0	0
111912	11:26:39	10034	pm.simpleEngRight	pm.simpleEng	2	57	617	0	0	11:26:39	1175013	0	0	0	0	0	0	0	0	0	0	0	0	0	0	0	0	0
111912	11:26:39	10034	pm.simpleEngRight	blank.simpleEng	2	0	1900	1	0	11:26:39	1176932	0	0	0	0	0	0	0	0	0	0	0	0	0	0	0	0	0
111912	11:26:39	10034	pm.simpleEngRight	pm.simpleEng	2	57	442	0	0	11:26:39	1177488	0	0	0	0	0	0	0	0	0	0	0	0	0	0	0	0	0
111912	11:26:39	10034	pm.simpleEngRight	blank.simpleEng	2	0	2400	1	0	11:26:39	1179904	0	0	0	0	0	0	0	0	0	0	0	0	0	0	0	0	0
111912	11:26:39	10034	pm.simpleEngRight	pm.simpleEng	2	57	619	0	0	11:26:39	1180544	0	0	0	0	0	0	0	0	0	0	0	0	0	0	0	0	0
111912	11:26:39	10034	pm.simpleEngRight	blank.simpleEng	2	0	1500	1	0	11:26:39	1182063	0	0	0	0	0	0	0	0	0	0	0	0	0	0	0	0	0
111912	11:26:39	10034	pm.simpleEngRight	pm.simpleEng	2	57	619	0	0	11:26:39	1182712	0	0	0	0	0	0	0	0	0	0	0	0	0	0	0	0	0
111912	11:26:39	10034	pm.simpleEngRight	blank.simpleEng	2	0	1800	1	0	11:26:39	1184556	0	0	0	0	0	0	0	0	0	0	0	0	0	0	0	0	0
111912	11:26:39	10034	pm.simpleEngRight	pm.simpleEng	2	57	443	0	0	11:26:39	1185026	0	0	0	0	0	0	0	0	0	0	0	0	0	0	0	0	0
111912	11:26:39	10034	pm.simpleEngRight	blank.simpleEng	2	0	2000	1	0	11:26:39	1187061	0	0	0	0	0	0	0	0	0	0	0	0	0	0	0	0	0
111912	11:26:39	10034	pm.simpleEngRight	pm.simpleEng	2	57	549	0	0	11:26:39	1187638	0	0	0	0	0	0	0	0	0	0	0	0	0	0	0	0	0
111912	11:26:39	10034	pm.simpleEngRight	blank.simpleEng	2	0	1700	1	0	11:26:39	1189367	0	0	0	0	0	0	0	0	0	0	0	0	0	0	0	0	0
111912	11:26:39	10034	pm.simpleEngRight	pm.simpleEng	2	57	398	0	0	11:26:39	1189796	0	0	0	0	0	0	0	0	0	0	0	0	0	0	0	0	0
111912	11:26:39	10034	pm.simpleEngRight	blank.simpleEng	2	0	2400	1	0	11:26:39	1192219	0	0	0	0	0	0	0	0	0	0	0	0	0	0	0	0	0
111912	11:26:39	10034	pm.simpleEngRight	pm.simpleEng	2	57	449	0	0	11:26:39	1192691	0	0	0	0	0	0	0	0	0	0	0	0	0	0	0	0	0
111912	11:26:39	10034	pm.simpleEngRight	blank.simpleEng	2	0	2200	1	0	11:26:39	1194911	0	0	0	0	0	0	0	0	0	0	0	0	0	0	0	0	0
111912	11:26:39	10034	pm.simpleEngRight	pm.simpleEng	2	57	373	0	0	11:26:39	1195311	0	0	0	0	0	0	0	0	0	0	0	0	0	0	0	0	0
111912	11:26:39	10034	pm.simpleEngRight	blank.simpleEng	2	0	2500	1	0	11:26:39	1197830	0	0	0	0	0	0	0	0	0	0	0	0	0	0	0	0	0
111912	11:26:39	10034	pm.simpleEngRight	pm.simpleEng	2	57	408	0	0	11:26:39	1198277	0	0	0	0	0	0	0	0	0	0	0	0	0	0	0	0	0
111912	11:26:39	10034	pm.simpleEngRight	blank.simpleEng	2	0	1900	1	0	11:26:39	1200203	0	0	0	0	0	0	0	0	0	0	0	0	0	0	0	0	0
111912	11:26:39	10034	pm.simpleEngRight	pm.simpleEng	2	57	474	0	0	11:26:39	1200696	0	0	0	0	0	0	0	0	0	0	0	0	0	0	0	0	0
111912	11:26:39	10034	pm.simpleEngRight	blank.simpleEng	2	0	1500	1	0	11:26:39	1202216	0	0	0	0	0	0	0	0	0	0	0	0	0	0	0	0	0
111912	11:26:39	10034	pm.simpleEngRight	pm.simpleEng	2	57	566	0	0	11:26:39	1202802	0	0	0	0	0	0	0	0	0	0	0	0	0	0	0	0	0
111912	11:26:39	10034	pm.simpleEngRight	blank.simpleEng	2	0	1600	1	0	11:26:39	1204428	0	0	0	0	0	0	0	0	0	0	0	0	0	0	0	0	0
111912	11:26:39	10034	pm.simpleEngRight	pm.simpleEng	2	57	376	0	0	11:26:39	1204828	0	0	0	0	0	0	0	0	0	0	0	0	0	0	0	0	0
111912	11:26:39	10034	pm.simpleEngRight	blank.simpleEng	2	0	2100	1	0	11:26:39	1206947	0	0	0	0	0	0	0	0	0	0	0	0	0	0	0	0	0
111912	11:26:39	10034	pm.simpleEngRight	pm.simpleEng	2	57	506	0	0	11:26:39	1207480	0	0	0	0	0	0	0	0	0	0	0	0	0	0	0	0	0
111912	11:26:39	10034	pm.simpleEngRight	blank.simpleEng	2	0	2300	1	0	11:26:39	1209799	0	0	0	0	0	0	0	0	0	0	0	0	0	0	0	0	0
111912	11:26:39	10034	pm.simpleEngRight	pm.simpleEng	2	57	475	0	0	11:26:39	1210336	0	0	0	0	0	0	0	0	0	0	0	0	0	0	0	0	0
111912	11:26:39	10034	pm.simpleEngRight	blank.simpleEng	2	0	1700	1	0	11:26:39	1212065	0	0	0	0	0	0	0	0	0	0	0	0	0	0	0	0	0
111912	11:26:39	10034	pm.simpleEngRight	pm.simpleEng	2	57	599	0	0	11:26:39	1212691	0	0	0	0	0	0	0	0	0	0	0	0	0	0	0	0	0
111912	11:26:39	10034	pm.simpleEngRight	blank.simpleEng	2	0	1900	1	0	11:26:39	1214611	0	0	0	0	0	0	0	0	0	0	0	0	0	0	0	0	0
111912	11:26:39	10034	pm.simpleEngRight	pm.simpleEng	2	57	386	0	0	11:26:39	1215024	0	0	0	0	0	0	0	0	0	0	0	0	0	0	0	0	0
111912	11:26:39	10034	pm.simpleEngRight	blank.simpleEng	2	0	2100	1	0	11:26:39	1217143	0	0	0	0	0	0	0	0	0	0	0	0	0	0	0	0	0
111912	11:26:39	10034	pm.simpleEngRight	pm.simpleEng	2	57	365	0	0	11:26:39	1217529	0	0	0	0	0	0	0	0	0	0	0	0	0	0	0	0	0
111912	11:26:39	10034	pm.simpleEngRight	blank.simpleEng	2	0	2400	1	0	11:26:39	1219955	0	0	0	0	0	0	0	0	0	0	0	0	0	0	0	0	0
111912	11:26:39	10034	pm.simpleEngRight	pm.simpleEng	2	57	486	0	0	11:26:39	1220491	0	0	0	0	0	0	0	0	0	0	0	0	0	0	0	0	0
111912	11:26:39	10034	pm.simpleEngRight	blank.simpleEng	2	0	1500	1	0	11:26:39	1222008	0	0	0	0	0	0	0	0	0	0	0	0	0	0	0	0	0
111912	11:26:39	10034	pm.simpleEngRight	pm.simpleEng	2	57	541	0	0	11:26:39	1222568	0	0	0	0	0	0	0	0	0	0	0	0	0	0	0	0	0
111912	11:26:39	10034	pm.simpleEngRight	blank.simpleEng	2	0	2300	1	0	11:26:39	1224886	0	0	0	0	0	0	0	0	0	0	0	0	0	0	0	0	0
111912	11:26:39	10034	pm.simpleEngRight	pm.simpleEng	2	57	349	0	0	11:26:39	1225260	0	0	0	0	0	0	0	0	0	0	0	0	0	0	0	0	0
111912	11:26:39	10034	pm.simpleEngRight	blank.simpleEng	2	0	2500	1	0	11:26:39	1227778	0	0	0	0	0	0	0	0	0	0	0	0	0	0	0	0	0
111912	11:26:39	10034	pm.simpleEngRight	pm.simpleEng	2	57	353	0	0	11:26:39	1228152	0	0	0	0	0	0	0	0	0	0	0	0	0	0	0	0	0
111912	11:26:39	10034	Trial2BackEng	N	3	0	1000	1	1	11:26:39	1280198	0	0	0	0	0	0	0	0	0	0	0	0	0	0	0	0	0
111912	11:26:39	10034	Trial2BackEng	N	3	0	1000	1	2	11:26:39	1281717	0	0	0	0	0	0	0	0	0	0	0	0	0	0	0	0	0
111912	11:26:39	10034	Trial2BackEng	N	3	0	1000	1	3	11:26:39	1283223	0	0	0	0	0	0	0	0	0	0	0	0	0	0	0	0	0
111912	11:26:39	10034	Trial2BackEng	N	3	0	1000	1	4	11:26:39	1284729	0	0	0	0	0	0	0	0	0	0	0	0	0	0	0	0	0
111912	11:26:39	10034	Trial2BackEng	N	3	0	1000	1	5	11:26:39	1286235	0	0	0	0	0	0	0	0	0	0	0	0	0	0	0	0	0
111912	11:26:39	10034	Trial2BackEng	N	3	0	1000	1	6	11:26:39	1287742	0	0	0	0	0	0	0	0	0	0	0	0	0	0	0	0	0
111912	11:26:39	10034	Trial2BackEng	N	3	0	1000	1	7	11:26:39	1289261	0	0	0	0	0	0	0	0	0	0	0	0	0	0	0	0	0
111912	11:26:39	10034	Trial2BackEng	N	3	0	1000	1	8	11:26:39	1290767	0	0	0	0	0	0	0	0	0	0	0	0	0	0	0	0	0
111912	11:26:39	10034	Trial2BackEng	Y	3	57	617	1	9	11:26:39	1291900	0	0	0	0	0	0	0	0	0	0	0	0	0	0	0	0	0
111912	11:26:39	10034	Trial2BackEng	N	3	0	1000	1	10	11:26:39	1293779	0	0	0	0	0	0	0	0	0	0	0	0	0	0	0	0	0
111912	11:26:39	10034	Trial2BackEng	N	3	0	1000	1	11	11:26:39	1295299	0	0	0	0	0	0	0	0	0	0	0	0	0	0	0	0	0
111912	11:26:39	10034	Trial2BackEng	N	3	0	1000	1	12	11:26:39	1296818	0	0	0	0	0	0	0	0	0	0	0	0	0	0	0	0	0
111912	11:26:39	10034	Trial2BackEng	Y	3	57	644	1	13	11:26:39	1297978	0	0	0	0	0	0	0	0	0	0	0	0	0	0	0	0	0
111912	11:26:39	10034	Trial2BackEng	N	3	0	1000	1	14	11:26:39	1299830	0	0	0	0	0	0	0	0	0	0	0	0	0	0	0	0	0
111912	11:26:39	10034	Trial2BackEng	N	3	0	1000	1	15	11:26:39	1301350	0	0	0	0	0	0	0	0	0	0	0	0	0	0	0	0	0
111912	11:26:39	10034	Trial2BackEng	N	3	0	1000	1	16	11:26:39	1302869	0	0	0	0	0	0	0	0	0	0	0	0	0	0	0	0	0
111912	11:26:39	10034	Trial2BackEng	N	3	0	1000	1	17	11:26:39	1304375	0	0	0	0	0	0	0	0	0	0	0	0	0	0	0	0	0
111912	11:26:39	10034	Trial2BackEng	N	3	0	1000	1	18	11:26:39	1305881	0	0	0	0	0	0	0	0	0	0	0	0	0	0	0	0	0
111912	11:26:39	10034	Trial2BackEng	Y	3	57	461	1	19	11:26:39	1306854	0	0	0	0	0	0	0	0	0	0	0	0	0	0	0	0	0
111912	11:26:39	10034	Trial2BackEng	N	3	0	1000	1	20	11:26:39	1308893	0	0	0	0	0	0	0	0	0	0	0	0	0	0	0	0	0
111912	11:26:39	10034	Trial2BackEng	N	3	0	1000	1	21	11:26:39	1310413	0	0	0	0	0	0	0	0	0	0	0	0	0	0	0	0	0
111912	11:26:39	10034	Trial2BackEng	N	3	0	1000	1	22	11:26:39	1311932	0	0	0	0	0	0	0	0	0	0	0	0	0	0	0	0	0
111912	11:26:39	10034	Trial2BackEng	N	3	0	1000	1	23	11:26:39	1313451	0	0	0	0	0	0	0	0	0	0	0	0	0	0	0	0	0
111912	11:26:39	10034	Trial2BackEng	Y	3	57	492	1	24	11:26:39	1314464	0	0	0	0	0	0	0	0	0	0	0	0	0	0	0	0	0
111912	11:26:39	10034	Trial2BackEng	N	3	0	1000	1	25	11:26:39	1316464	0	0	0	0	0	0	0	0	0	0	0	0	0	0	0	0	0
111912	11:26:39	10034	Trial2BackEng	N	3	0	1000	1	26	11:26:39	1317970	0	0	0	0	0	0	0	0	0	0	0	0	0	0	0	0	0
111912	11:26:39	10034	Trial2BackEng	N	3	0	1000	1	27	11:26:39	1319476	0	0	0	0	0	0	0	0	0	0	0	0	0	0	0	0	0
111912	11:26:39	10034	Trial2BackEng	N	3	0	1000	1	28	11:26:39	1320995	0	0	0	0	0	0	0	0	0	0	0	0	0	0	0	0	0
111912	11:26:39	10034	Trial2BackEng	N	3	0	1000	1	29	11:26:39	1322501	0	0	0	0	0	0	0	0	0	0	0	0	0	0	0	0	0
111912	11:26:39	10034	Trial2BackEng	N	3	0	1000	1	30	11:26:39	1324007	0	0	0	0	0	0	0	0	0	0	0	0	0	0	0	0	0
111912	11:26:39	10034	Trial2BackEng	Y	3	57	737	1	31	11:26:39	1325260	0	0	0	0	0	0	0	0	0	0	0	0	0	0	0	0	0
111912	11:26:39	10034	Trial2BackEng	N	3	0	1000	1	32	11:26:39	1327019	0	0	0	0	0	0	0	0	0	0	0	0	0	0	0	0	0
111912	11:26:39	10034	Trial2BackEng	N	3	0	1000	1	33	11:26:39	1328539	0	0	0	0	0	0	0	0	0	0	0	0	0	0	0	0	0
111912	11:26:39	10034	Trial2BackEng	N	3	0	1000	1	34	11:26:39	1330045	0	0	0	0	0	0	0	0	0	0	0	0	0	0	0	0	0
111912	11:26:39	10034	Trial2BackEng	Y	3	57	587	1	35	11:26:39	1331151	0	0	0	0	0	0	0	0	0	0	0	0	0	0	0	0	0
111912	11:26:39	10034	Trial2BackEng	N	3	0	1000	1	36	11:26:39	1333057	0	0	0	0	0	0	0	0	0	0	0	0	0	0	0	0	0
111912	11:26:39	10034	Trial2BackEng	N	3	0	1000	1	37	11:26:39	1334563	0	0	0	0	0	0	0	0	0	0	0	0	0	0	0	0	0
111912	11:26:39	10034	Trial2BackEng	N	3	0	1000	1	38	11:26:39	1336083	0	0	0	0	0	0	0	0	0	0	0	0	0	0	0	0	0
111912	11:26:39	10034	Trial2BackEng	N	3	0	1000	1	39	11:26:39	1337589	0	0	0	0	0	0	0	0	0	0	0	0	0	0	0	0	0
111912	11:26:39	10034	Trial2BackEng	N	3	0	1000	1	40	11:26:39	1339095	0	0	0	0	0	0	0	0	0	0	0	0	0	0	0	0	0
111912	11:26:39	10034	Trial2BackEng	N	3	0	1000	1	41	11:26:39	1340614	0	0	0	0	0	0	0	0	0	0	0	0	0	0	0	0	0
111912	11:26:39	10034	Trial2BackEng	Y	3	0	1000	0	41	11:26:39	1342133	0	0	0	0	0	0	0	0	0	0	0	0	0	0	0	0	0
111912	11:26:39	10034	Trial2BackEng	N	3	0	1000	1	42	11:26:39	1343640	0	0	0	0	0	0	0	0	0	0	0	0	0	0	0	0	0
111912	11:26:39	10034	Trial2BackEng	N	3	0	1000	1	43	11:26:39	1345146	0	0	0	0	0	0	0	0	0	0	0	0	0	0	0	0	0
111912	11:26:39	10034	Trial2BackEng	N	3	0	1000	1	44	11:26:39	1346665	0	0	0	0	0	0	0	0	0	0	0	0	0	0	0	0	0
111912	11:26:39	10034	Trial2BackEng	N	3	0	1000	1	45	11:26:39	1348317	0	0	0	0	0	0	0	0	0	0	0	0	0	0	0	0	0
111912	11:26:39	10034	Trial2BackEng	Y	3	57	563	1	46	11:26:39	1349397	0	0	0	0	0	0	0	0	0	0	0	0	0	0	0	0	0
111912	11:26:39	10034	Trial2BackEng	N	3	0	1000	1	47	11:26:39	1351330	0	0	0	0	0	0	0	0	0	0	0	0	0	0	0	0	0
111912	11:26:39	10034	Trial2BackEng	N	3	0	1000	1	48	11:26:39	1352836	0	0	0	0	0	0	0	0	0	0	0	0	0	0	0	0	0
111912	11:26:39	10034	Trial2BackEng	N	3	0	1000	1	49	11:26:39	1354342	0	0	0	0	0	0	0	0	0	0	0	0	0	0	0	0	0
111912	11:26:39	10034	Trial2BackEng	N	3	0	1000	1	50	11:26:39	1355861	0	0	0	0	0	0	0	0	0	0	0	0	0	0	0	0	0
111912	11:26:39	10034	Trial2BackEng	N	3	0	1000	1	51	11:26:39	1357381	0	0	0	0	0	0	0	0	0	0	0	0	0	0	0	0	0
111912	11:26:39	10034	Trial2BackEng	Y	3	57	618	1	52	11:26:39	1358527	0	0	0	0	0	0	0	0	0	0	0	0	0	0	0	0	0
111912	11:26:39	10034	Trial2BackEng	N	3	0	1000	1	53	11:26:39	1360393	0	0	0	0	0	0	0	0	0	0	0	0	0	0	0	0	0
111912	11:26:39	10034	Trial2BackEng	N	3	0	1000	1	54	11:26:39	1361912	0	0	0	0	0	0	0	0	0	0	0	0	0	0	0	0	0
111912	11:26:39	10034	Trial2BackEng	N	3	0	1000	1	55	11:26:39	1363419	0	0	0	0	0	0	0	0	0	0	0	0	0	0	0	0	0
111912	11:26:39	10034	Trial2BackEng	N	3	0	1000	1	56	11:26:39	1364924	0	0	0	0	0	0	0	0	0	0	0	0	0	0	0	0	0
111912	11:26:39	10034	Trial2BackEng	N	3	0	1000	1	57	11:26:39	1366430	0	0	0	0	0	0	0	0	0	0	0	0	0	0	0	0	0
111912	11:26:39	10034	Trial2BackEng	N	3	0	1000	1	58	11:26:39	1367950	0	0	0	0	0	0	0	0	0	0	0	0	0	0	0	0	0
111912	11:26:39	10034	Trial2BackEng	Y	3	57	698	1	59	11:26:39	1369163	0	0	0	0	0	0	0	0	0	0	0	0	0	0	0	0	0
111912	11:26:39	10034	Trial2BackEng	N	3	0	1000	1	60	11:26:39	1370962	0	0	0	0	0	0	0	0	0	0	0	0	0	0	0	0	0
111912	11:26:39	10034	Trial2BackEng	N	3	0	1000	1	61	11:26:39	1372481	0	0	0	0	0	0	0	0	0	0	0	0	0	0	0	0	0
111912	11:26:39	10034	Trial2BackEng	Y	3	0	1000	0	61	11:26:39	1373988	0	0	0	0	0	0	0	0	0	0	0	0	0	0	0	0	0
111912	11:26:39	10034	Trial2BackEng	N	3	0	1000	1	62	11:26:39	1375640	0	0	0	0	0	0	0	0	0	0	0	0	0	0	0	0	0
111912	11:26:39	10034	Trial2BackEng	N	3	0	1000	1	63	11:26:39	1377146	0	0	0	0	0	0	0	0	0	0	0	0	0	0	0	0	0
111912	11:26:39	10034	Trial2BackEng	N	3	0	1000	1	64	11:26:39	1378652	0	0	0	0	0	0	0	0	0	0	0	0	0	0	0	0	0
111912	11:26:39	10034	Trial2BackEng	N	3	0	1000	1	65	11:26:39	1380158	0	0	0	0	0	0	0	0	0	0	0	0	0	0	0	0	0
111912	11:26:39	10034	Trial2BackEng	N	3	0	1000	1	66	11:26:39	1381665	0	0	0	0	0	0	0	0	0	0	0	0	0	0	0	0	0
111912	11:26:39	10034	Trial2BackEng	N	3	0	1000	1	67	11:26:39	1383171	0	0	0	0	0	0	0	0	0	0	0	0	0	0	0	0	0
111912	11:26:39	10034	Trial2BackEng	N	3	0	1000	1	68	11:26:39	1384690	0	0	0	0	0	0	0	0	0	0	0	0	0	0	0	0	0
111912	11:26:39	10034	Trial2BackEng	N	3	0	1000	1	69	11:26:39	1386209	0	0	0	0	0	0	0	0	0	0	0	0	0	0	0	0	0
111912	11:26:39	10034	Trial2BackEng	N	3	0	1000	1	70	11:26:39	1387715	0	0	0	0	0	0	0	0	0	0	0	0	0	0	0	0	0
111912	11:26:39	10034	Trial2BackEng	N	3	0	1000	1	71	11:26:39	1389235	0	0	0	0	0	0	0	0	0	0	0	0	0	0	0	0	0
111912	11:26:39	10034	Trial2BackEng	Y	3	57	723	1	72	11:26:39	1390474	0	0	0	0	0	0	0	0	0	0	0	0	0	0	0	0	0
111912	11:26:39	10034	Trial2BackEng	N	3	0	1000	1	73	11:26:39	1392247	0	0	0	0	0	0	0	0	0	0	0	0	0	0	0	0	0
111912	11:26:39	10034	Trial2BackEng	N	3	0	1000	1	74	11:26:39	1393766	0	0	0	0	0	0	0	0	0	0	0	0	0	0	0	0	0
111912	11:26:39	10034	Trial2BackEng	N	3	0	1000	1	75	11:26:39	1395273	0	0	0	0	0	0	0	0	0	0	0	0	0	0	0	0	0
111912	11:26:39	10034	Trial2BackEng	Y	3	57	846	1	76	11:26:39	1396632	0	0	0	0	0	0	0	0	0	0	0	0	0	0	0	0	0
111912	11:26:39	10034	Trial2BackEng	N	3	0	1000	1	77	11:26:39	1398285	0	0	0	0	0	0	0	0	0	0	0	0	0	0	0	0	0
111912	11:26:39	10034	Trial2BackEng	N	3	0	1000	1	78	11:26:39	1399804	0	0	0	0	0	0	0	0	0	0	0	0	0	0	0	0	0
111912	11:26:39	10034	Trial2BackEng	N	3	0	1000	1	79	11:26:39	1401310	0	0	0	0	0	0	0	0	0	0	0	0	0	0	0	0	0
111912	11:26:39	10034	Trial2BackEng	N	3	0	1000	1	80	11:26:39	1402816	0	0	0	0	0	0	0	0	0	0	0	0	0	0	0	0	0
111912	11:26:39	10034	Trial2BackEng	N	3	0	1000	1	81	11:26:39	1404335	0	0	0	0	0	0	0	0	0	0	0	0	0	0	0	0	0
111912	11:26:39	10034	Trial2BackEng	Y	3	57	817	1	82	11:26:39	1405668	0	0	0	0	0	0	0	0	0	0	0	0	0	0	0	0	0
111912	11:26:39	10034	Trial2BackEng	N	3	0	1000	1	83	11:26:39	1407348	0	0	0	0	0	0	0	0	0	0	0	0	0	0	0	0	0
111912	11:26:39	10034	Trial2BackEng	N	3	0	1000	1	84	11:26:39	1408867	0	0	0	0	0	0	0	0	0	0	0	0	0	0	0	0	0
111912	11:26:39	10034	Trial2BackEng	N	3	0	1000	1	85	11:26:39	1410373	0	0	0	0	0	0	0	0	0	0	0	0	0	0	0	0	0
111912	11:26:39	10034	Trial2BackEng	N	3	0	1000	1	86	11:26:39	1411879	0	0	0	0	0	0	0	0	0	0	0	0	0	0	0	0	0
111912	11:26:39	10034	Trial2BackEng	N	3	0	1000	1	87	11:26:39	1413399	0	0	0	0	0	0	0	0	0	0	0	0	0	0	0	0	0
111912	11:26:39	10034	Trial2BackEng	N	3	0	1000	1	88	11:26:39	1414905	0	0	0	0	0	0	0	0	0	0	0	0	0	0	0	0	0
111912	11:26:39	10034	Trial2BackEng	N	3	0	1000	1	89	11:26:39	1416411	0	0	0	0	0	0	0	0	0	0	0	0	0	0	0	0	0
111912	11:26:39	10034	Trial2BackEng	N	3	0	1000	1	90	11:26:39	1417930	0	0	0	0	0	0	0	0	0	0	0	0	0	0	0	0	0
111912	11:26:39	10034	Trial2BackEng	N	3	0	1000	1	91	11:26:39	1419450	0	0	0	0	0	0	0	0	0	0	0	0	0	0	0	0	0
111912	11:26:39	10034	Trial2BackEng	Y	3	57	872	1	92	11:26:39	1420836	0	0	0	0	0	0	0	0	0	0	0	0	0	0	0	0	0
111912	11:26:39	10034	Trial2BackEng	N	3	0	1000	1	93	11:26:39	1422462	0	0	0	0	0	0	0	0	0	0	0	0	0	0	0	0	0
111912	11:26:39	10034	Trial2BackEng	N	3	0	1000	1	94	11:26:39	1423968	0	0	0	0	0	0	0	0	0	0	0	0	0	0	0	0	0
111912	11:26:39	10034	Trial2BackEng	N	3	0	1000	1	95	11:26:39	1425474	0	0	0	0	0	0	0	0	0	0	0	0	0	0	0	0	0
111912	11:26:39	10034	Trial2BackEng	N	3	0	1000	1	96	11:26:39	1426993	0	0	0	0	0	0	0	0	0	0	0	0	0	0	0	0	0
111912	11:26:39	10034	Trial2BackEng	N	3	0	1000	1	97	11:26:39	1428499	0	0	0	0	0	0	0	0	0	0	0	0	0	0	0	0	0
111912	11:26:39	10034	Trial2BackEng	N	3	0	1000	1	98	11:26:39	1430005	0	0	0	0	0	0	0	0	0	0	0	0	0	0	0	0	0
111912	11:26:39	10034	Trial2BackEng	N	3	0	1000	1	99	11:26:39	1431511	0	0	0	0	0	0	0	0	0	0	0	0	0	0	0	0	0
111912	11:26:39	10034	Trial2BackEng	N	3	0	1000	1	100	11:26:39	1433018	0	0	0	0	0	0	0	0	0	0	0	0	0	0	0	0	0
111912	11:26:39	10034	Trial2BackEng	Y	3	57	621	1	101	11:26:39	1434150	0	0	0	0	0	0	0	0	0	0	0	0	0	0	0	0	0
111912	11:26:39	10034	Trial2BackEng	N	3	0	1000	1	102	11:26:39	1436030	0	0	0	0	0	0	0	0	0	0	0	0	0	0	0	0	0
111912	11:26:39	10034	Trial2BackEng	N	3	0	1000	1	103	11:26:39	1437536	0	0	0	0	0	0	0	0	0	0	0	0	0	0	0	0	0
111912	11:26:39	10034	Trial2BackEng	N	3	0	1000	1	104	11:26:39	1439042	0	0	0	0	0	0	0	0	0	0	0	0	0	0	0	0	0
111912	11:26:39	10034	Trial2BackEng	N	3	0	1000	1	105	11:26:39	1440561	0	0	0	0	0	0	0	0	0	0	0	0	0	0	0	0	0
111912	11:26:39	10034	Trial2BackEng	Y	3	57	677	1	106	11:26:39	1441747	0	0	0	0	0	0	0	0	0	0	0	0	0	0	0	0	0
111912	11:26:39	10034	Trial2BackEng	N	3	0	1000	1	107	11:26:39	1443574	0	0	0	0	0	0	0	0	0	0	0	0	0	0	0	0	0
111912	11:26:39	10034	Trial2BackEng	N	3	0	1000	1	108	11:26:39	1445079	0	0	0	0	0	0	0	0	0	0	0	0	0	0	0	0	0
111912	11:26:39	10034	Trial2BackEng	N	3	0	1000	1	109	11:26:39	1446585	0	0	0	0	0	0	0	0	0	0	0	0	0	0	0	0	0
111912	11:26:39	10034	Trial2BackEng	Y	3	57	685	1	110	11:26:39	1447785	0	0	0	0	0	0	0	0	0	0	0	0	0	0	0	0	0
111912	11:26:39	10034	Trial2BackEng	N	3	0	1000	1	111	11:26:39	1449598	0	0	0	0	0	0	0	0	0	0	0	0	0	0	0	0	0
111912	11:26:39	10034	Trial2BackEng	N	3	0	1000	1	112	11:26:39	1451104	0	0	0	0	0	0	0	0	0	0	0	0	0	0	0	0	0
111912	11:26:39	10034	Trial2BackEng	N	3	0	1000	1	113	11:26:39	1452610	0	0	0	0	0	0	0	0	0	0	0	0	0	0	0	0	0
111912	11:26:39	10034	Trial2BackEng	N	3	0	1000	1	114	11:26:39	1454116	0	0	0	0	0	0	0	0	0	0	0	0	0	0	0	0	0
111912	11:26:39	10034	Trial2BackEng	N	3	0	1000	1	115	11:26:39	1455635	0	0	0	0	0	0	0	0	0	0	0	0	0	0	0	0	0
111912	11:26:39	10034	Trial2BackEng	Y	3	57	659	1	116	11:26:39	1456808	0	0	0	0	0	0	0	0	0	0	0	0	0	0	0	0	0
111912	11:26:39	10034	Trial2BackEng	N	3	0	1000	1	117	11:26:39	1458648	0	0	0	0	0	0	0	0	0	0	0	0	0	0	0	0	0
111912	11:26:39	10034	Trial2BackEng	N	3	0	1000	1	118	11:26:39	1460154	0	0	0	0	0	0	0	0	0	0	0	0	0	0	0	0	0
111912	11:26:39	10034	Trial2BackEng	N	3	0	1000	1	119	11:26:39	1461673	0	0	0	0	0	0	0	0	0	0	0	0	0	0	0	0	0
111912	11:26:39	10034	Trial2BackEng	Y	3	0	1000	0	119	11:26:39	1463179	0	0	0	0	0	0	0	0	0	0	0	0	0	0	0	0	0
111912	11:26:39	10034	Trial3BackEng	NN	4	0	1000	1	119	11:26:39	1480465	0	0	0	0	0	0	0	0	0	0	0	0	0	0	0	0	0
111912	11:26:39	10034	Trial3BackEng	NN	4	0	1000	1	119	11:26:39	1481972	0	0	0	0	0	0	0	0	0	0	0	0	0	0	0	0	0
111912	11:26:39	10034	Trial3BackEng	NN	4	0	1000	1	119	11:26:39	1483478	0	0	0	0	0	0	0	0	0	0	0	0	0	0	0	0	0
111912	11:26:39	10034	Trial3BackEng	YY	4	57	559	1	119	11:26:39	1484557	0	0	0	0	0	0	0	0	0	0	0	0	0	0	0	0	0
111912	11:26:39	10034	Trial3BackEng	NN	4	0	1000	1	119	11:26:39	1486490	0	0	0	0	0	0	0	0	0	0	0	0	0	0	0	0	0
111912	11:26:39	10034	Trial3BackEng	NN	4	0	1000	1	119	11:26:39	1487996	0	0	0	0	0	0	0	0	0	0	0	0	0	0	0	0	0
111912	11:26:39	10034	Trial3BackEng	NN	4	0	1000	1	119	11:26:39	1489502	0	0	0	0	0	0	0	0	0	0	0	0	0	0	0	0	0
111912	11:26:39	10034	Trial3BackEng	NN	4	0	1000	1	119	11:26:39	1491021	0	0	0	0	0	0	0	0	0	0	0	0	0	0	0	0	0
111912	11:26:39	10034	Trial3BackEng	YY	4	57	888	1	119	11:26:39	1492421	0	0	0	0	0	0	0	0	0	0	0	0	0	0	0	0	0
111912	11:26:39	10034	Trial3BackEng	NN	4	0	1000	1	119	11:26:39	1494033	0	0	0	0	0	0	0	0	0	0	0	0	0	0	0	0	0
111912	11:26:39	10034	Trial3BackEng	NN	4	0	1000	1	119	11:26:39	1495539	0	0	0	0	0	0	0	0	0	0	0	0	0	0	0	0	0
111912	11:26:39	10034	Trial3BackEng	NN	4	0	1000	1	119	11:26:39	1497046	0	0	0	0	0	0	0	0	0	0	0	0	0	0	0	0	0
111912	11:26:39	10034	Trial3BackEng	NN	4	0	1000	1	119	11:26:39	1498552	0	0	0	0	0	0	0	0	0	0	0	0	0	0	0	0	0
111912	11:26:39	10034	Trial3BackEng	NN	4	0	1000	1	119	11:26:39	1500058	0	0	0	0	0	0	0	0	0	0	0	0	0	0	0	0	0
111912	11:26:39	10034	Trial3BackEng	NN	4	0	1000	1	119	11:26:39	1501564	0	0	0	0	0	0	0	0	0	0	0	0	0	0	0	0	0
111912	11:26:39	10034	Trial3BackEng	NN	4	0	1000	1	119	11:26:39	1503070	0	0	0	0	0	0	0	0	0	0	0	0	0	0	0	0	0
111912	11:26:39	10034	Trial3BackEng	YY	4	57	773	1	119	11:26:39	1504363	0	0	0	0	0	0	0	0	0	0	0	0	0	0	0	0	0
111912	11:26:39	10034	Trial3BackEng	NN	4	0	1000	1	119	11:26:39	1506082	0	0	0	0	0	0	0	0	0	0	0	0	0	0	0	0	0
111912	11:26:39	10034	Trial3BackEng	NN	4	0	1000	1	119	11:26:39	1507588	0	0	0	0	0	0	0	0	0	0	0	0	0	0	0	0	0
111912	11:26:39	10034	Trial3BackEng	NN	4	0	1000	1	119	11:26:39	1509094	0	0	0	0	0	0	0	0	0	0	0	0	0	0	0	0	0
111912	11:26:39	10034	Trial3BackEng	NN	4	0	1000	1	119	11:26:39	1510600	0	0	0	0	0	0	0	0	0	0	0	0	0	0	0	0	0
111912	11:26:39	10034	Trial3BackEng	NN	4	0	1000	1	119	11:26:39	1512106	0	0	0	0	0	0	0	0	0	0	0	0	0	0	0	0	0
111912	11:26:39	10034	Trial3BackEng	YY	4	0	1000	0	119	11:26:39	1513612	0	0	0	0	0	0	0	0	0	0	0	0	0	0	0	0	0
111912	11:26:39	10034	Trial3BackEng	NN	4	0	1000	1	119	11:26:39	1515118	0	0	0	0	0	0	0	0	0	0	0	0	0	0	0	0	0
111912	11:26:39	10034	Trial3BackEng	NN	4	0	1000	1	119	11:26:39	1516638	0	0	0	0	0	0	0	0	0	0	0	0	0	0	0	0	0
111912	11:26:39	10034	Trial3BackEng	NN	4	0	1000	1	119	11:26:39	1518157	0	0	0	0	0	0	0	0	0	0	0	0	0	0	0	0	0
111912	11:26:39	10034	Trial3BackEng	YY	4	57	840	1	119	11:26:39	1519517	0	0	0	0	0	0	0	0	0	0	0	0	0	0	0	0	0
111912	11:26:39	10034	Trial3BackEng	NN	4	0	1000	1	119	11:26:39	1521169	0	0	0	0	0	0	0	0	0	0	0	0	0	0	0	0	0
111912	11:26:39	10034	Trial3BackEng	NN	4	0	1000	1	119	11:26:39	1522675	0	0	0	0	0	0	0	0	0	0	0	0	0	0	0	0	0
111912	11:26:39	10034	Trial3BackEng	NN	4	0	1000	1	119	11:26:39	1524195	0	0	0	0	0	0	0	0	0	0	0	0	0	0	0	0	0
111912	11:26:39	10034	Trial3BackEng	YY	4	0	1000	0	119	11:26:39	1525714	0	0	0	0	0	0	0	0	0	0	0	0	0	0	0	0	0
111912	11:26:39	10034	Trial3BackEng	NN	4	0	1000	1	119	11:26:39	1527220	0	0	0	0	0	0	0	0	0	0	0	0	0	0	0	0	0
111912	11:26:39	10034	Trial3BackEng	NN	4	0	1000	1	119	11:26:39	1528740	0	0	0	0	0	0	0	0	0	0	0	0	0	0	0	0	0
111912	11:26:39	10034	Trial3BackEng	NN	4	0	1000	1	119	11:26:39	1530246	0	0	0	0	0	0	0	0	0	0	0	0	0	0	0	0	0
111912	11:26:39	10034	Trial3BackEng	NN	4	0	1000	1	119	11:26:39	1531752	0	0	0	0	0	0	0	0	0	0	0	0	0	0	0	0	0
111912	11:26:39	10034	Trial3BackEng	NN	4	0	1000	1	119	11:26:39	1533258	0	0	0	0	0	0	0	0	0	0	0	0	0	0	0	0	0
111912	11:26:39	10034	Trial3BackEng	NN	4	0	1000	1	119	11:26:39	1534764	0	0	0	0	0	0	0	0	0	0	0	0	0	0	0	0	0
111912	11:26:39	10034	Trial3BackEng	NN	4	0	1000	1	119	11:26:39	1536270	0	0	0	0	0	0	0	0	0	0	0	0	0	0	0	0	0
111912	11:26:39	10034	Trial3BackEng	NN	4	0	1000	1	119	11:26:39	1537776	0	0	0	0	0	0	0	0	0	0	0	0	0	0	0	0	0
111912	11:26:39	10034	Trial3BackEng	NN	4	0	1000	1	119	11:26:39	1539282	0	0	0	0	0	0	0	0	0	0	0	0	0	0	0	0	0
111912	11:26:39	10034	Trial3BackEng	NN	4	0	1000	1	119	11:26:39	1540788	0	0	0	0	0	0	0	0	0	0	0	0	0	0	0	0	0
111912	11:26:39	10034	Trial3BackEng	YY	4	0	1000	0	119	11:26:39	1542294	0	0	0	0	0	0	0	0	0	0	0	0	0	0	0	0	0
111912	11:26:39	10034	Trial3BackEng	NN	4	0	1000	1	119	11:26:39	1543800	0	0	0	0	0	0	0	0	0	0	0	0	0	0	0	0	0
111912	11:26:39	10034	Trial3BackEng	NN	4	0	1000	1	119	11:26:39	1545306	0	0	0	0	0	0	0	0	0	0	0	0	0	0	0	0	0
111912	11:26:39	10034	Trial3BackEng	NN	4	0	1000	1	119	11:26:39	1546813	0	0	0	0	0	0	0	0	0	0	0	0	0	0	0	0	0
111912	11:26:39	10034	Trial3BackEng	NN	4	0	1000	1	119	11:26:39	1548319	0	0	0	0	0	0	0	0	0	0	0	0	0	0	0	0	0
111912	11:26:39	10034	Trial3BackEng	YY	4	57	646	1	119	11:26:39	1549478	0	0	0	0	0	0	0	0	0	0	0	0	0	0	0	0	0
111912	11:26:39	10034	Trial3BackEng	NN	4	0	1000	1	119	11:26:39	1551331	0	0	0	0	0	0	0	0	0	0	0	0	0	0	0	0	0
111912	11:26:39	10034	Trial3BackEng	NN	4	0	1000	1	119	11:26:39	1552850	0	0	0	0	0	0	0	0	0	0	0	0	0	0	0	0	0
111912	11:26:39	10034	Trial3BackEng	NN	4	0	1000	1	119	11:26:39	1554370	0	0	0	0	0	0	0	0	0	0	0	0	0	0	0	0	0
111912	11:26:39	10034	Trial3BackEng	NN	4	0	1000	1	119	11:26:39	1555876	0	0	0	0	0	0	0	0	0	0	0	0	0	0	0	0	0
111912	11:26:39	10034	Trial3BackEng	NN	4	0	1000	1	119	11:26:39	1557395	0	0	0	0	0	0	0	0	0	0	0	0	0	0	0	0	0
111912	11:26:39	10034	Trial3BackEng	YY	4	57	642	1	119	11:26:39	1558555	0	0	0	0	0	0	0	0	0	0	0	0	0	0	0	0	0
111912	11:26:39	10034	Trial3BackEng	NN	4	0	1000	1	119	11:26:39	1560407	0	0	0	0	0	0	0	0	0	0	0	0	0	0	0	0	0
111912	11:26:39	10034	Trial3BackEng	NN	4	0	1000	1	119	11:26:39	1561927	0	0	0	0	0	0	0	0	0	0	0	0	0	0	0	0	0
111912	11:26:39	10034	Trial3BackEng	NN	4	0	1000	1	119	11:26:39	1563446	0	0	0	0	0	0	0	0	0	0	0	0	0	0	0	0	0
111912	11:26:39	10034	Trial3BackEng	NN	4	0	1000	1	119	11:26:39	1564952	0	0	0	0	0	0	0	0	0	0	0	0	0	0	0	0	0
111912	11:26:39	10034	Trial3BackEng	NN	4	0	1000	1	119	11:26:39	1566458	0	0	0	0	0	0	0	0	0	0	0	0	0	0	0	0	0
111912	11:26:39	10034	Trial3BackEng	NN	4	0	1000	1	119	11:26:39	1567978	0	0	0	0	0	0	0	0	0	0	0	0	0	0	0	0	0
111912	11:26:39	10034	Trial3BackEng	YY	4	0	1000	0	119	11:26:39	1569497	0	0	0	0	0	0	0	0	0	0	0	0	0	0	0	0	0
111912	11:26:39	10034	Trial3BackEng	NN	4	0	1000	1	119	11:26:39	1571016	0	0	0	0	0	0	0	0	0	0	0	0	0	0	0	0	0
111912	11:26:39	10034	Trial3BackEng	NN	4	0	1000	1	119	11:26:39	1572522	0	0	0	0	0	0	0	0	0	0	0	0	0	0	0	0	0
111912	11:26:39	10034	Trial3BackEng	NN	4	0	1000	1	119	11:26:39	1574029	0	0	0	0	0	0	0	0	0	0	0	0	0	0	0	0	0
111912	11:26:39	10034	Trial3BackEng	YY	4	57	775	1	119	11:26:39	1575321	0	0	0	0	0	0	0	0	0	0	0	0	0	0	0	0	0
111912	11:26:39	10034	Trial3BackEng	NN	4	0	1000	1	119	11:26:39	1577041	0	0	0	0	0	0	0	0	0	0	0	0	0	0	0	0	0
111912	11:26:39	10034	Trial3BackEng	NN	4	0	1000	1	119	11:26:39	1578560	0	0	0	0	0	0	0	0	0	0	0	0	0	0	0	0	0
111912	11:26:39	10034	Trial3BackEng	NN	4	0	1000	1	119	11:26:39	1580079	0	0	0	0	0	0	0	0	0	0	0	0	0	0	0	0	0
111912	11:26:39	10034	Trial3BackEng	NN	4	0	1000	1	119	11:26:39	1581585	0	0	0	0	0	0	0	0	0	0	0	0	0	0	0	0	0
111912	11:26:39	10034	Trial3BackEng	NN	4	0	1000	1	119	11:26:39	1583091	0	0	0	0	0	0	0	0	0	0	0	0	0	0	0	0	0
111912	11:26:39	10034	Trial3BackEng	NN	4	0	1000	1	119	11:26:39	1584611	0	0	0	0	0	0	0	0	0	0	0	0	0	0	0	0	0
111912	11:26:39	10034	Trial3BackEng	NN	4	0	1000	1	119	11:26:39	1586117	0	0	0	0	0	0	0	0	0	0	0	0	0	0	0	0	0
111912	11:26:39	10034	Trial3BackEng	NN	4	0	1000	1	119	11:26:39	1587623	0	0	0	0	0	0	0	0	0	0	0	0	0	0	0	0	0
111912	11:26:39	10034	Trial3BackEng	NN	4	0	1000	1	119	11:26:39	1589143	0	0	0	0	0	0	0	0	0	0	0	0	0	0	0	0	0
111912	11:26:39	10034	Trial3BackEng	YY	4	0	1000	0	119	11:26:39	1590648	0	0	0	0	0	0	0	0	0	0	0	0	0	0	0	0	0
111912	11:26:39	10034	Trial3BackEng	NN	4	0	1000	1	119	11:26:39	1592155	0	0	0	0	0	0	0	0	0	0	0	0	0	0	0	0	0
111912	11:26:39	10034	Trial3BackEng	NN	4	0	1000	1	119	11:26:39	1593661	0	0	0	0	0	0	0	0	0	0	0	0	0	0	0	0	0
111912	11:26:39	10034	Trial3BackEng	NN	4	0	1000	1	119	11:26:39	1595167	0	0	0	0	0	0	0	0	0	0	0	0	0	0	0	0	0
111912	11:26:39	10034	Trial3BackEng	YY	4	0	1000	0	119	11:26:39	1596673	0	0	0	0	0	0	0	0	0	0	0	0	0	0	0	0	0
111912	11:26:39	10034	Trial3BackEng	NN	4	57	561	0	119	11:26:39	1597752	0	0	0	0	0	0	0	0	0	0	0	0	0	0	0	0	0
111912	11:26:39	10034	Trial3BackEng	NN	4	0	1000	1	119	11:26:39	1599685	0	0	0	0	0	0	0	0	0	0	0	0	0	0	0	0	0
111912	11:26:39	10034	Trial3BackEng	NN	4	0	1000	1	119	11:26:39	1601191	0	0	0	0	0	0	0	0	0	0	0	0	0	0	0	0	0
111912	11:26:39	10034	Trial3BackEng	NN	4	0	1000	1	119	11:26:39	1602711	0	0	0	0	0	0	0	0	0	0	0	0	0	0	0	0	0
111912	11:26:39	10034	Trial3BackEng	NN	4	0	1000	1	119	11:26:39	1604217	0	0	0	0	0	0	0	0	0	0	0	0	0	0	0	0	0
111912	11:26:39	10034	Trial3BackEng	YY	4	0	1000	0	119	11:26:39	1605723	0	0	0	0	0	0	0	0	0	0	0	0	0	0	0	0	0
111912	11:26:39	10034	Trial3BackEng	NN	4	0	1000	1	119	11:26:39	1607229	0	0	0	0	0	0	0	0	0	0	0	0	0	0	0	0	0
111912	11:26:39	10034	Trial3BackEng	NN	4	0	1000	1	119	11:26:39	1608735	0	0	0	0	0	0	0	0	0	0	0	0	0	0	0	0	0
111912	11:26:39	10034	Trial3BackEng	NN	4	0	1000	1	119	11:26:39	1610254	0	0	0	0	0	0	0	0	0	0	0	0	0	0	0	0	0
111912	11:26:39	10034	Trial3BackEng	NN	4	0	1000	1	119	11:26:39	1611760	0	0	0	0	0	0	0	0	0	0	0	0	0	0	0	0	0
111912	11:26:39	10034	Trial3BackEng	NN	4	0	1000	1	119	11:26:39	1613266	0	0	0	0	0	0	0	0	0	0	0	0	0	0	0	0	0
111912	11:26:39	10034	Trial3BackEng	NN	4	0	1000	1	119	11:26:39	1614772	0	0	0	0	0	0	0	0	0	0	0	0	0	0	0	0	0
111912	11:26:39	10034	Trial3BackEng	NN	4	0	1000	1	119	11:26:39	1616292	0	0	0	0	0	0	0	0	0	0	0	0	0	0	0	0	0
111912	11:26:39	10034	Trial3BackEng	NN	4	0	1000	1	119	11:26:39	1617798	0	0	0	0	0	0	0	0	0	0	0	0	0	0	0	0	0
111912	11:26:39	10034	Trial3BackEng	NN	4	0	1000	1	119	11:26:39	1619317	0	0	0	0	0	0	0	0	0	0	0	0	0	0	0	0	0
111912	11:26:39	10034	Trial3BackEng	YY	4	57	863	1	119	11:26:39	1620690	0	0	0	0	0	0	0	0	0	0	0	0	0	0	0	0	0
111912	11:26:39	10034	Trial3BackEng	NN	4	0	1000	1	119	11:26:39	1622329	0	0	0	0	0	0	0	0	0	0	0	0	0	0	0	0	0
111912	11:26:39	10034	Trial3BackEng	NN	4	0	1000	1	119	11:26:39	1623835	0	0	0	0	0	0	0	0	0	0	0	0	0	0	0	0	0
111912	11:26:39	10034	Trial3BackEng	NN	4	0	1000	1	119	11:26:39	1625342	0	0	0	0	0	0	0	0	0	0	0	0	0	0	0	0	0
111912	11:26:39	10034	Trial3BackEng	NN	4	0	1000	1	119	11:26:39	1626847	0	0	0	0	0	0	0	0	0	0	0	0	0	0	0	0	0
111912	11:26:39	10034	Trial3BackEng	NN	4	0	1000	1	119	11:26:39	1628353	0	0	0	0	0	0	0	0	0	0	0	0	0	0	0	0	0
111912	11:26:39	10034	Trial3BackEng	NN	4	0	1000	1	119	11:26:39	1629860	0	0	0	0	0	0	0	0	0	0	0	0	0	0	0	0	0
111912	11:26:39	10034	Trial3BackEng	NN	4	0	1000	1	119	11:26:39	1631366	0	0	0	0	0	0	0	0	0	0	0	0	0	0	0	0	0
111912	11:26:39	10034	Trial3BackEng	NN	4	57	272	0	119	11:26:39	1632153	0	0	0	0	0	0	0	0	0	0	0	0	0	0	0	0	0
111912	11:26:39	10034	Trial3BackEng	YY	4	0	1000	0	119	11:26:39	1634378	0	0	0	0	0	0	0	0	0	0	0	0	0	0	0	0	0
111912	11:26:39	10034	Trial3BackEng	NN	4	0	1000	1	119	11:26:39	1635897	0	0	0	0	0	0	0	0	0	0	0	0	0	0	0	0	0
111912	11:26:39	10034	Trial3BackEng	NN	4	0	1000	1	119	11:26:39	1637417	0	0	0	0	0	0	0	0	0	0	0	0	0	0	0	0	0
111912	11:26:39	10034	Trial3BackEng	NN	4	0	1000	1	119	11:26:39	1638923	0	0	0	0	0	0	0	0	0	0	0	0	0	0	0	0	0
111912	11:26:39	10034	Trial3BackEng	NN	4	0	1000	1	119	11:26:39	1640429	0	0	0	0	0	0	0	0	0	0	0	0	0	0	0	0	0
111912	11:26:39	10034	Trial3BackEng	YY	4	57	757	1	119	11:26:39	1641708	0	0	0	0	0	0	0	0	0	0	0	0	0	0	0	0	0
111912	11:26:39	10034	Trial3BackEng	NN	4	0	1000	1	119	11:26:39	1643441	0	0	0	0	0	0	0	0	0	0	0	0	0	0	0	0	0
111912	11:26:39	10034	Trial3BackEng	NN	4	0	1000	1	119	11:26:39	1644947	0	0	0	0	0	0	0	0	0	0	0	0	0	0	0	0	0
111912	11:26:39	10034	Trial3BackEng	NN	4	0	1000	1	119	11:26:39	1646467	0	0	0	0	0	0	0	0	0	0	0	0	0	0	0	0	0
111912	11:26:39	10034	Trial3BackEng	YY	4	57	849	1	119	11:26:39	1647826	0	0	0	0	0	0	0	0	0	0	0	0	0	0	0	0	0
111912	11:26:39	10034	Trial3BackEng	NN	4	0	1000	1	119	11:26:39	1649479	0	0	0	0	0	0	0	0	0	0	0	0	0	0	0	0	0
111912	11:26:39	10034	Trial3BackEng	NN	4	0	1000	1	119	11:26:39	1650985	0	0	0	0	0	0	0	0	0	0	0	0	0	0	0	0	0
111912	11:26:39	10034	Trial3BackEng	NN	4	0	1000	1	119	11:26:39	1652504	0	0	0	0	0	0	0	0	0	0	0	0	0	0	0	0	0
111912	11:26:39	10034	Trial3BackEng	NN	4	0	1000	1	119	11:26:39	1654010	0	0	0	0	0	0	0	0	0	0	0	0	0	0	0	0	0
111912	11:26:39	10034	Trial3BackEng	NN	4	0	1000	1	119	11:26:39	1655516	0	0	0	0	0	0	0	0	0	0	0	0	0	0	0	0	0
111912	11:26:39	10034	Trial3BackEng	YY	4	0	1000	0	119	11:26:39	1657022	0	0	0	0	0	0	0	0	0	0	0	0	0	0	0	0	0
111912	11:26:39	10034	Trial3BackEng	NN	4	0	1000	1	119	11:26:39	1658528	0	0	0	0	0	0	0	0	0	0	0	0	0	0	0	0	0
111912	11:26:39	10034	Trial3BackEng	NN	4	0	1000	1	119	11:26:39	1660035	0	0	0	0	0	0	0	0	0	0	0	0	0	0	0	0	0
111912	11:26:39	10034	Trial3BackEng	NN	4	0	1000	1	119	11:26:39	1661541	0	0	0	0	0	0	0	0	0	0	0	0	0	0	0	0	0
111912	11:26:39	10034	Trial3BackEng	YY	4	57	687	1	119	11:26:39	1662740	0	0	0	0	0	0	0	0	0	0	0	0	0	0	0	0	0
111912	11:26:39	10034	Memory1R3mo	Score	5	M2	12406	0	119	11:26:39	1702071	0	0	0	0	0	0	0	0	0	0	0	0	0	0	0	0	0
111912	11:26:39	10034	Memory1R3mo	Score	5	M7	544	0	119	11:26:39	1702704	0	0	0	0	0	0	0	0	0	0	0	0	0	0	0	0	0
111912	11:26:39	10034	Memory1R3mo	Score	5	M8	160	0	119	11:26:39	1702925	0	0	0	0	0	0	0	0	0	0	0	0	0	0	0	0	0
111912	11:26:39	10034	Memory1R3mo	Score	5	Done	357	0	119	11:26:39	1703352	0	0	0	0	0	0	0	0	0	0	0	0	0	0	0	0	0
111912	11:26:39	10034	Memory2R3mo	Score2	5	11	14443	0	119	11:26:39	1737604	0	0	0	0	0	0	0	0	0	0	0	0	0	0	0	0	0
111912	11:26:39	10034	Memory2R3mo	Score2	5	22	175	0	119	11:26:39	1737844	0	0	0	0	0	0	0	0	0	0	0	0	0	0	0	0	0
111912	11:26:39	10034	Memory2R3mo	Score2	5	77	909	0	119	11:26:39	1738817	0	0	0	0	0	0	0	0	0	0	0	0	0	0	0	0	0
111912	11:26:39	10034	Memory2R3mo	Score2	5	66	199	0	119	11:26:39	1739084	0	0	0	0	0	0	0	0	0	0	0	0	0	0	0	0	0
111912	11:26:39	10034	Memory2R3mo	Score2	5	88	438	0	119	11:26:39	1739592	0	0	0	0	0	0	0	0	0	0	0	0	0	0	0	0	0
111912	11:26:39	10034	Memory2R3mo	Score2	5	Done	6926	0	119	11:26:39	1746587	0	0	0	0	0	0	0	0	0	0	0	0	0	0	0	0	0
111912	11:26:39	10034	Memory3R3mo	Score3	5	222	22924	0	119	11:26:39	1790357	0	0	0	0	0	0	0	0	0	0	0	0	0	0	0	0	0
111912	11:26:39	10034	Memory3R3mo	Score3	5	333	803	0	119	11:26:39	1791236	0	0	0	0	0	0	0	0	0	0	0	0	0	0	0	0	0
111912	11:26:39	10034	Memory3R3mo	Score3	5	444	1041	0	119	11:26:39	1792343	0	0	0	0	0	0	0	0	0	0	0	0	0	0	0	0	0
111912	11:26:39	10034	Memory3R3mo	Score3	5	555	474	0	119	11:26:39	1792876	0	0	0	0	0	0	0	0	0	0	0	0	0	0	0	0	0
111912	11:26:39	10034	Memory3R3mo	Score3	5	777	989	0	119	11:26:39	1793929	0	0	0	0	0	0	0	0	0	0	0	0	0	0	0	0	0
111912	11:26:39	10034	Memory3R3mo	Score3	5	888	171	0	119	11:26:39	1794168	0	0	0	0	0	0	0	0	0	0	0	0	0	0	0	0	0
111912	11:26:39	10034	Memory3R3mo	Score3	5	Done	13112	0	119	11:26:39	1807350	0	0	0	0	0	0	0	0	0	0	0	0	0	0	0	0	0
111912	11:26:39	10034	LoriaEngLH3	Stop	6	5	3642	0	119	11:26:39	1869926	0	0	0	0	0	0	0	0	0	0	0	0	0	0	0	0	0
111912	11:26:39	10034	EngTrail	Trails	7	1Trails	24454	0	119	11:26:39	1903645	0	0	0	0	0	0	0	0	0	0	0	0	0	0	0	0	0
111912	11:26:39	10034	Serial7Eng3mo	Serial7Eng3mo	8	83	25680	0	119	11:26:39	1940021	1	0	0	0	0	0	0	0	0	0	0	0	0	0	0	0	0
111912	11:26:39	10034	Serial7Eng3mo	Serial7Eng3mo	8	75	4011	0	119	11:26:39	1944060	1	0	0	0	0	0	0	0	0	0	0	0	0	0	0	0	0
111912	11:26:39	10034	Serial7Eng3mo	Serial7Eng3mo	8	67	3062	0	119	11:26:39	1947139	1	0	0	0	0	0	0	0	0	0	0	0	0	0	0	0	0
111912	11:26:39	10034	Serial7Eng3mo	Serial7Eng3mo	8	60	2719	0	119	11:26:39	1949884	2	0	0	0	0	0	0	0	0	0	0	0	0	0	0	0	0
111912	11:26:39	10034	Serial7Eng3mo	Serial7Eng3mo	8	53	3893	0	119	11:26:39	1953804	3	0	0	0	0	0	0	0	0	0	0	0	0	0	0	0	0
111912	11:26:39	10034	corsiblockEngFwrd	recallseqEngFwrd	9	4	2309	0	119	11:26:39	2005609	3	0	0	0	0	0	0	0	0	0	0	0	0	0	0	0	0
111912	11:26:39	10034	corsiblockEngFwrd	recallseqEngFwrd	9	6	753	0	119	11:26:39	2006409	3	0	0	0	0	0	0	0	0	0	0	0	0	0	0	0	0
111912	11:26:39	10034	corsiblockEngFwrd	recallseqEngFwrd	9	doneCorsiEng	2214	0	119	11:26:39	2008675	3	0	0	0	0	0	0	0	0	0	0	0	0	0	0	2	0
111912	11:26:39	10034	corsiblockEngFwrd	recallseqEngFwrd	9	8	1327	0	119	11:26:39	2016125	3	0	0	0	0	0	0	0	0	0	0	0	0	0	0	2	0
111912	11:26:39	10034	corsiblockEngFwrd	recallseqEngFwrd	9	7	1010	0	119	11:26:39	2017191	3	0	0	0	0	0	0	0	0	0	0	0	0	0	0	2	0
111912	11:26:39	10034	corsiblockEngFwrd	recallseqEngFwrd	9	1	1096	0	119	11:26:39	2018338	3	0	0	0	0	0	0	0	0	0	0	0	0	0	0	2	0
111912	11:26:39	10034	corsiblockEngFwrd	recallseqEngFwrd	9	doneCorsiEng	1151	0	119	11:26:39	2019551	3	0	0	0	0	0	0	0	0	0	0	0	0	0	0	3	0
111912	11:26:39	10034	corsiblockEngFwrd	recallseqEngFwrd	9	9	835	0	119	11:26:39	2027507	3	0	0	0	0	0	0	0	0	0	0	0	0	0	0	3	0
111912	11:26:39	10034	corsiblockEngFwrd	recallseqEngFwrd	9	3	1083	0	119	11:26:39	2028640	3	0	0	0	0	0	0	0	0	0	0	0	0	0	0	3	0
111912	11:26:39	10034	corsiblockEngFwrd	recallseqEngFwrd	9	5	820	0	119	11:26:39	2029533	3	0	0	0	0	0	0	0	0	0	0	0	0	0	0	3	0
111912	11:26:39	10034	corsiblockEngFwrd	recallseqEngFwrd	9	2	849	0	119	11:26:39	2030440	3	0	0	0	0	0	0	0	0	0	0	0	0	0	0	3	0
111912	11:26:39	10034	corsiblockEngFwrd	recallseqEngFwrd	9	doneCorsiEng	1087	0	119	11:26:39	2031572	3	0	0	0	0	0	0	0	0	0	0	0	0	0	0	4	0
111912	11:26:39	10034	corsiblockEngFwrd	recallseqEngFwrd	9	4	822	0	119	11:26:39	2040515	3	0	0	0	0	0	0	0	0	0	0	0	0	0	0	4	0
111912	11:26:39	10034	corsiblockEngFwrd	recallseqEngFwrd	9	9	829	0	119	11:26:39	2041396	3	0	0	0	0	0	0	0	0	0	0	0	0	0	0	4	0
111912	11:26:39	10034	corsiblockEngFwrd	recallseqEngFwrd	9	2	689	0	119	11:26:39	2042128	3	0	0	0	0	0	0	0	0	0	0	0	0	0	0	4	0
111912	11:26:39	10034	corsiblockEngFwrd	recallseqEngFwrd	9	3	686	0	119	11:26:39	2042861	3	0	0	0	0	0	0	0	0	0	0	0	0	0	0	4	0
111912	11:26:39	10034	corsiblockEngFwrd	recallseqEngFwrd	9	5	785	0	119	11:26:39	2043701	3	0	0	0	0	0	0	0	0	0	0	0	0	0	0	4	0
111912	11:26:39	10034	corsiblockEngFwrd	recallseqEngFwrd	9	doneCorsiEng	676	0	119	11:26:39	2044434	3	0	0	0	0	0	0	0	0	0	0	0	0	0	0	5	0
111912	11:26:39	10034	corsiblockEngFwrd	recallseqEngFwrd	9	8	1329	0	119	11:26:39	2054897	3	0	0	0	0	0	0	0	0	0	0	0	0	0	0	5	0
111912	11:26:39	10034	corsiblockEngFwrd	recallseqEngFwrd	9	6	950	0	119	11:26:39	2055896	3	0	0	0	0	0	0	0	0	0	0	0	0	0	0	5	0
111912	11:26:39	10034	corsiblockEngFwrd	recallseqEngFwrd	9	4	894	0	119	11:26:39	2056842	3	0	0	0	0	0	0	0	0	0	0	0	0	0	0	5	0
111912	11:26:39	10034	corsiblockEngFwrd	recallseqEngFwrd	9	1	1162	0	119	11:26:39	2058055	3	0	0	0	0	0	0	0	0	0	0	0	0	0	0	5	0
111912	11:26:39	10034	corsiblockEngFwrd	recallseqEngFwrd	9	9	751	0	119	11:26:39	2058855	3	0	0	0	0	0	0	0	0	0	0	0	0	0	0	5	0
111912	11:26:39	10034	corsiblockEngFwrd	recallseqEngFwrd	9	4	798	0	119	11:26:39	2059708	3	0	0	0	0	0	0	0	0	0	0	0	0	0	0	5	0
111912	11:26:39	10034	corsiblockEngFwrd	recallseqEngFwrd	9	doneCorsiEng	962	0	119	11:26:39	2060721	3	0	0	0	0	0	0	0	0	0	0	0	0	0	0	5	0
111912	11:26:39	10034	corsiblockEngFwrd	recallseqEngFwrd	9	2	809	0	119	11:26:39	2070624	3	0	0	0	0	0	0	0	0	0	0	0	0	0	0	5	0
111912	11:26:39	10034	corsiblockEngFwrd	recallseqEngFwrd	9	8	783	0	119	11:26:39	2071463	3	0	0	0	0	0	0	0	0	0	0	0	0	0	0	5	0
111912	11:26:39	10034	corsiblockEngFwrd	recallseqEngFwrd	9	7	1198	0	119	11:26:39	2072716	3	0	0	0	0	0	0	0	0	0	0	0	0	0	0	5	0
111912	11:26:39	10034	corsiblockEngFwrd	recallseqEngFwrd	9	9	608	0	119	11:26:39	2073397	3	0	0	0	0	0	0	0	0	0	0	0	0	0	0	5	0
111912	11:26:39	10034	corsiblockEngFwrd	recallseqEngFwrd	9	4	797	0	119	11:26:39	2074253	3	0	0	0	0	0	0	0	0	0	0	0	0	0	0	5	0
111912	11:26:39	10034	corsiblockEngFwrd	recallseqEngFwrd	9	5	608	0	119	11:26:39	2074915	3	0	0	0	0	0	0	0	0	0	0	0	0	0	0	5	0
111912	11:26:39	10034	corsiblockEngFwrd	recallseqEngFwrd	9	doneCorsiEng	834	0	119	11:26:39	2075822	3	0	0	0	0	0	0	0	0	0	0	0	0	0	0	6	0
111912	11:26:39	10034	corsiblockEngFwrd	recallseqEngFwrd	9	2	652	0	119	11:26:39	2085604	3	0	0	0	0	0	0	0	0	0	0	0	0	0	0	6	0
111912	11:26:39	10034	corsiblockEngFwrd	recallseqEngFwrd	9	7	1235	0	119	11:26:39	2086897	3	0	0	0	0	0	0	0	0	0	0	0	0	0	0	6	0
111912	11:26:39	10034	corsiblockEngFwrd	recallseqEngFwrd	9	4	1227	0	119	11:26:39	2088177	3	0	0	0	0	0	0	0	0	0	0	0	0	0	0	6	0
111912	11:26:39	10034	corsiblockEngFwrd	recallseqEngFwrd	9	1	1101	0	119	11:26:39	2089323	3	0	0	0	0	0	0	0	0	0	0	0	0	0	0	6	0
111912	11:26:39	10034	corsiblockEngFwrd	recallseqEngFwrd	9	9	674	0	119	11:26:39	2090052	3	0	0	0	0	0	0	0	0	0	0	0	0	0	0	6	0
111912	11:26:39	10034	corsiblockEngFwrd	recallseqEngFwrd	9	6	971	0	119	11:26:39	2091082	3	0	0	0	0	0	0	0	0	0	0	0	0	0	0	6	0
111912	11:26:39	10034	corsiblockEngFwrd	recallseqEngFwrd	9	doneCorsiEng	835	0	119	11:26:39	2091975	3	0	0	0	0	0	0	0	0	0	0	0	0	0	0	6	0
111912	11:26:39	10034	corsiblockEngFwrd	recallseqEngFwrd	9	9	1715	0	119	11:26:39	2103771	3	0	0	0	0	0	0	0	0	0	0	0	0	0	0	6	0
111912	11:26:39	10034	corsiblockEngFwrd	recallseqEngFwrd	9	2	783	0	119	11:26:39	2104610	3	0	0	0	0	0	0	0	0	0	0	0	0	0	0	6	0
111912	11:26:39	10034	corsiblockEngFwrd	recallseqEngFwrd	9	8	708	0	119	11:26:39	2105370	3	0	0	0	0	0	0	0	0	0	0	0	0	0	0	6	0
111912	11:26:39	10034	corsiblockEngFwrd	recallseqEngFwrd	9	2	732	0	119	11:26:39	2106156	3	0	0	0	0	0	0	0	0	0	0	0	0	0	0	6	0
111912	11:26:39	10034	corsiblockEngFwrd	recallseqEngFwrd	9	9	596	0	119	11:26:39	2106809	3	0	0	0	0	0	0	0	0	0	0	0	0	0	0	6	0
111912	11:26:39	10034	corsiblockEngFwrd	recallseqEngFwrd	9	6	827	0	119	11:26:39	2107689	3	0	0	0	0	0	0	0	0	0	0	0	0	0	0	6	0
111912	11:26:39	10034	corsiblockEngFwrd	recallseqEngFwrd	9	doneCorsiEng	951	0	119	11:26:39	2108702	3	0	0	0	0	0	0	0	0	0	0	0	0	0	0	6	0
111912	11:26:39	10034	corsiblockEngRev	recallseqEngRev	10	5	1546	0	119	11:26:39	2127748	3	0	0	0	0	0	0	0	0	0	0	0	0	0	0	6	0
111912	11:26:39	10034	corsiblockEngRev	recallseqEngRev	10	7	785	0	119	11:26:39	2128587	3	0	0	0	0	0	0	0	0	0	0	0	0	0	0	6	0
111912	11:26:39	10034	corsiblockEngRev	recallseqEngRev	10	doneCorsiEng	885	0	119	11:26:39	2129534	3	0	0	0	0	0	0	0	0	0	0	0	0	0	0	6	2
111912	11:26:39	10034	corsiblockEngRev	recallseqEngRev	10	6	1578	0	119	11:26:39	2137237	3	0	0	0	0	0	0	0	0	0	0	0	0	0	0	6	2
111912	11:26:39	10034	corsiblockEngRev	recallseqEngRev	10	4	528	0	119	11:26:39	2137811	3	0	0	0	0	0	0	0	0	0	0	0	0	0	0	6	2
111912	11:26:39	10034	corsiblockEngRev	recallseqEngRev	10	1	978	0	119	11:26:39	2138837	3	0	0	0	0	0	0	0	0	0	0	0	0	0	0	6	2
111912	11:26:39	10034	corsiblockEngRev	recallseqEngRev	10	doneCorsiEng	912	0	119	11:26:39	2139796	3	0	0	0	0	0	0	0	0	0	0	0	0	0	0	6	2
111912	11:26:39	10034	corsiblockEngRev	recallseqEngRev	10	3	796	0	119	11:26:39	2146674	3	0	0	0	0	0	0	0	0	0	0	0	0	0	0	6	2
111912	11:26:39	10034	corsiblockEngRev	recallseqEngRev	10	9	1724	0	119	11:26:39	2148446	3	0	0	0	0	0	0	0	0	0	0	0	0	0	0	6	2
111912	11:26:39	10034	corsiblockEngRev	recallseqEngRev	10	2	838	0	119	11:26:39	2149339	3	0	0	0	0	0	0	0	0	0	0	0	0	0	0	6	2
111912	11:26:39	10034	corsiblockEngRev	recallseqEngRev	10	doneCorsiEng	993	0	119	11:26:39	2150406	3	0	0	0	0	0	0	0	0	0	0	0	0	0	0	6	3
111912	11:26:39	10034	corsiblockEngRev	recallseqEngRev	10	7	1242	0	119	11:26:39	2157776	3	0	0	0	0	0	0	0	0	0	0	0	0	0	0	6	3
111912	11:26:39	10034	corsiblockEngRev	recallseqEngRev	10	5	828	0	119	11:26:39	2158656	3	0	0	0	0	0	0	0	0	0	0	0	0	0	0	6	3
111912	11:26:39	10034	corsiblockEngRev	recallseqEngRev	10	8	829	0	119	11:26:39	2159535	3	0	0	0	0	0	0	0	0	0	0	0	0	0	0	6	3
111912	11:26:39	10034	corsiblockEngRev	recallseqEngRev	10	2	638	0	119	11:26:39	2160228	3	0	0	0	0	0	0	0	0	0	0	0	0	0	0	6	3
111912	11:26:39	10034	corsiblockEngRev	recallseqEngRev	10	doneCorsiEng	1558	0	119	11:26:39	2161841	3	0	0	0	0	0	0	0	0	0	0	0	0	0	0	6	3
111912	11:26:39	10034	corsiblockEngRev	recallseqEngRev	10	3	1343	0	119	11:26:39	2170278	3	0	0	0	0	0	0	0	0	0	0	0	0	0	0	6	3
111912	11:26:39	10034	corsiblockEngRev	recallseqEngRev	10	6	687	0	119	11:26:39	2171011	3	0	0	0	0	0	0	0	0	0	0	0	0	0	0	6	3
111912	11:26:39	10034	corsiblockEngRev	recallseqEngRev	10	9	2666	0	119	11:26:39	2173730	3	0	0	0	0	0	0	0	0	0	0	0	0	0	0	6	3
111912	11:26:39	10034	corsiblockEngRev	recallseqEngRev	10	1	1090	0	119	11:26:39	2174876	3	0	0	0	0	0	0	0	0	0	0	0	0	0	0	6	3
111912	11:26:39	10034	corsiblockEngRev	recallseqEngRev	10	doneCorsiEng	992	0	119	11:26:39	2175915	3	0	0	0	0	0	0	0	0	0	0	0	0	0	0	6	3
111912	11:26:39	10034	testEng3mo	WordsEng3mo	11	2Eng3mo	3459	0	119	11:26:39	2196708	3	0	3	0	0	0	0	0	0	0	0	0	0	0	0	6	3
111912	11:26:39	10034	testEng3mo	WordsEng3mo	11	3Eng3mo	183	0	119	11:26:39	2196963	3	0	3	3	0	0	0	0	0	0	0	0	0	0	0	6	3
111912	11:26:39	10034	testEng3mo	WordsEng3mo	11	4Eng3mo	207	0	119	11:26:39	2197231	3	0	3	3	3	0	0	0	0	0	0	0	0	0	0	6	3
111912	11:26:39	10034	testEng3mo	WordsEng3mo	11	4Eng3mo	223	0	119	11:26:39	2197534	3	0	3	3	3	0	0	0	0	0	0	0	0	0	0	6	3
111912	11:26:39	10034	testEng3mo	WordsEng3mo	11	4Eng3mo	375	0	119	11:26:39	2197980	3	0	3	3	3	0	0	0	0	0	0	0	0	0	0	6	3
111912	11:26:39	10034	testEng3mo	WordsEng3mo	11	5Eng3mo	1284	0	119	11:26:39	2199346	3	0	3	3	3	3	0	0	0	0	0	0	0	0	0	6	3
111912	11:26:39	10034	testEng3mo	WordsEng3mo	11	6Eng3mo	266	0	119	11:26:39	2199680	3	0	3	3	3	3	3	0	0	0	0	0	0	0	0	6	3
111912	11:26:39	10034	testEng3mo	WordsEng3mo	11	7Eng3mo	279	0	119	11:26:39	2200026	3	0	3	3	3	3	3	3	0	0	0	0	0	0	0	6	3
111912	11:26:39	10034	testEng3mo	WordsEng3mo	11	DoneEng3mo	14444	0	119	11:26:39	2214540	3	0	3	3	3	3	3	3	0	0	0	0	0	0	0	6	3
111912	11:26:39	10034	testEng3mo	Cat1Eng3mo	11	0	1	0	119	11:26:39	2214553	3	0	3	3	3	3	3	3	0	0	0	0	0	0	0	6	3
111912	11:26:39	10034	testEng3mo	Ch1Eng3mo	11	RR1Eng3mo	5932	0	119	11:26:39	2220538	3	1	3	3	3	3	3	3	0	0	0	0	0	0	0	6	3
111912	11:26:39	10034	testEng3mo	Cat8Eng3mo	11	R8Eng3mo	6565	0	119	11:26:39	2227162	3	1	3	3	3	3	3	3	2	0	0	0	0	0	0	6	3
111912	11:26:39	10034	DigitSpanFwrdEng3mo	Score1FwrdEng3mo	12	DS1	3109	0	119	11:26:39	2241623	3	1	3	3	3	3	3	3	2	0	0	0	0	0	0	6	3
111912	11:26:39	10034	DigitSpanFwrdEng3mo	Gate1FwrdEng3mo	12	0	1	0	119	11:26:39	2241628	3	1	3	3	3	3	3	3	2	3	0	0	0	0	0	6	3
111912	11:26:39	10034	DigitSpanFwrdEng3mo	Score2FwrdEng3mo	12	DS1	4280	0	119	11:26:39	2252462	3	1	3	3	3	3	3	3	2	3	0	0	0	0	0	6	3
111912	11:26:39	10034	DigitSpanFwrdEng3mo	Gate3FwrdEng3mo	12	0	1	0	119	11:26:39	2252468	3	1	3	3	3	3	3	3	2	4	0	0	0	0	0	6	3
111912	11:26:39	10034	DigitSpanFwrdEng3mo	Score3FwrdEng3mo	12	DS1	3846	0	119	11:26:39	2264347	3	1	3	3	3	3	3	3	2	4	0	0	0	0	0	6	3
111912	11:26:39	10034	DigitSpanFwrdEng3mo	Gate5FwrdEng3mo	12	0	1	0	119	11:26:39	2264352	3	1	3	3	3	3	3	3	2	5	0	0	0	0	0	6	3
111912	11:26:39	10034	DigitSpanFwrdEng3mo	Score4FwrdEng3mo	12	DS1	2670	0	119	11:26:39	2276542	3	1	3	3	3	3	3	3	2	5	0	0	0	0	0	6	3
111912	11:26:39	10034	DigitSpanFwrdEng3mo	Gate7FwrdEng3mo	12	0	1	0	119	11:26:39	2276548	3	1	3	3	3	3	3	3	2	6	0	0	0	0	0	6	3
111912	11:26:39	10034	DigitSpanFwrdEng3mo	Score5FwrdEng3mo	12	DS1	4493	0	119	11:26:39	2292096	3	1	3	3	3	3	3	3	2	6	0	0	0	0	0	6	3
111912	11:26:39	10034	DigitSpanFwrdEng3mo	Gate9FwrdEng3mo	12	0	1	0	119	11:26:39	2292102	3	1	3	3	3	3	3	3	2	7	0	0	0	0	0	6	3
111912	11:26:39	10034	DigitSpanFwrdEng3mo	Score6FwrdEng3mo	12	DS1	6052	0	119	11:26:39	2311488	3	1	3	3	3	3	3	3	2	8	0	0	0	0	0	6	3
111912	11:26:39	10034	DigitSpanEng3mo	Score1Eng3mo	13	DS1	2643	0	119	11:26:39	2326309	3	1	3	3	3	3	3	3	2	8	0	0	0	0	0	6	3
111912	11:26:39	10034	DigitSpanEng3mo	Gate1Eng3mo	13	0	1	0	119	11:26:39	2326315	3	1	3	3	3	3	3	3	2	8	2	0	0	0	0	6	3
111912	11:26:39	10034	DigitSpanEng3mo	Score2Eng3mo	13	DS1	3860	0	119	11:26:39	2335106	3	1	3	3	3	3	3	3	2	8	2	0	0	0	0	6	3
111912	11:26:39	10034	DigitSpanEng3mo	Gate3Eng3mo	13	0	1	0	119	11:26:39	2335112	3	1	3	3	3	3	3	3	2	8	3	0	0	0	0	6	3
111912	11:26:39	10034	DigitSpanEng3mo	Score3Eng3mo	13	DS2	6165	0	119	11:26:39	2347834	3	1	3	3	3	3	3	3	2	8	3	0	0	0	0	6	3
111912	11:26:39	10034	DigitSpanEng3mo	Gate5Eng3mo	13	0	1	0	119	11:26:39	2347839	3	1	3	3	3	3	3	3	2	8	3	0	0	0	0	6	3
111912	11:26:39	10034	DigitSpanEng3mo	Score33Eng3mo	13	DS1	5524	0	119	11:26:39	2359683	3	1	3	3	3	3	3	3	2	8	3	0	0	0	0	6	3
111912	11:26:39	10034	DigitSpanEng3mo	Gate6Eng3mo	13	0	1	0	119	11:26:39	2359689	3	1	3	3	3	3	3	3	2	8	4	0	0	0	0	6	3
111912	11:26:39	10034	DigitSpanEng3mo	Score4Eng3mo	13	DS2	9737	0	119	11:26:39	2377449	3	1	3	3	3	3	3	3	2	8	4	0	0	0	0	6	3
111912	11:26:39	10034	DigitSpanEng3mo	Gate7Eng3mo	13	0	1	0	119	11:26:39	2377454	3	1	3	3	3	3	3	3	2	8	4	0	0	0	0	6	3
111912	11:26:39	10034	DigitSpanEng3mo	Score44Eng3mo	13	DS2	11891	0	119	11:26:39	2397574	3	1	3	3	3	3	3	3	2	8	4	0	0	0	0	6	3
111912	11:26:39	10034	Trial	ResponseIL	14	0	175	0	119	11:26:39	2476890	3	1	3	3	3	3	3	3	2	8	4	0	0	0	0	6	3
111912	11:26:39	10034	Trial	IncongruentLeft	14	203	862	1	119	11:26:39	2477770	3	1	3	3	3	3	3	3	2	8	4	0	0	0	0	6	3
111912	11:26:39	10034	Trial	ResponseCR	14	0	175	0	119	11:26:39	2478596	3	1	3	3	3	3	3	3	2	8	4	0	0	0	0	6	3
111912	11:26:39	10034	Trial	CongruentRight	14	205	381	1	119	11:26:39	2479009	3	1	3	3	3	3	3	3	2	8	4	0	0	0	0	6	3
111912	11:26:39	10034	Trial	ResponseIR	14	0	175	0	119	11:26:39	2480302	3	1	3	3	3	3	3	3	2	8	4	0	0	0	0	6	3
111912	11:26:39	10034	Trial	IncongruentRight	14	205	445	1	119	11:26:39	2480768	3	1	3	3	3	3	3	3	2	8	4	0	0	0	0	6	3
111912	11:26:39	10034	Trial	ResponseCL	14	0	175	0	119	11:26:39	2482008	3	1	3	3	3	3	3	3	2	8	4	0	0	0	0	6	3
111912	11:26:39	10034	Trial	CongruentLeft	14	203	271	1	119	11:26:39	2482301	3	1	3	3	3	3	3	3	2	8	4	0	0	0	0	6	3
111912	11:26:39	10034	Trial	ResponseCR	14	0	175	0	119	11:26:39	2483714	3	1	3	3	3	3	3	3	2	8	4	0	0	0	0	6	3
111912	11:26:39	10034	Trial	CongruentRight	14	205	196	1	119	11:26:39	2483940	3	1	3	3	3	3	3	3	2	8	4	0	0	0	0	6	3
111912	11:26:39	10034	Trial	ResponseIR	14	0	175	0	119	11:26:39	2485420	3	1	3	3	3	3	3	3	2	8	4	0	0	0	0	6	3
111912	11:26:39	10034	Trial	IncongruentRight	14	203	186	0	119	11:26:39	2485633	3	1	3	3	3	3	3	3	2	8	4	0	0	0	0	6	3
111912	11:26:39	10034	Trial	ResponseCL	14	0	175	0	119	11:26:39	2487126	3	1	3	3	3	3	3	3	2	8	4	0	0	0	0	6	3
111912	11:26:39	10034	Trial	CongruentLeft	14	203	490	1	119	11:26:39	2487646	3	1	3	3	3	3	3	3	2	8	4	0	0	0	0	6	3
111912	11:26:39	10034	Trial	ResponseIL	14	0	175	0	119	11:26:39	2488832	3	1	3	3	3	3	3	3	2	8	4	0	0	0	0	6	3
111912	11:26:39	10034	Trial	IncongruentLeft	14	203	425	1	119	11:26:39	2489285	3	1	3	3	3	3	3	3	2	8	4	0	0	0	0	6	3
111912	11:26:39	10034	Trial	ResponseIL	14	0	175	0	119	11:26:39	2490538	3	1	3	3	3	3	3	3	2	8	4	0	0	0	0	6	3
111912	11:26:39	10034	Trial	IncongruentLeft	14	203	397	1	119	11:26:39	2490972	3	1	3	3	3	3	3	3	2	8	4	0	0	0	0	6	3
111912	11:26:39	10034	Trial	ResponseCR	14	0	175	0	119	11:26:39	2492244	3	1	3	3	3	3	3	3	2	8	4	0	0	0	0	6	3
111912	11:26:39	10034	Trial	CongruentRight	14	205	228	1	119	11:26:39	2492497	3	1	3	3	3	3	3	3	2	8	4	0	0	0	0	6	3
111912	11:26:39	10034	Trial	ResponseIR	14	0	175	0	119	11:26:39	2493950	3	1	3	3	3	3	3	3	2	8	4	0	0	0	0	6	3
111912	11:26:39	10034	Trial	IncongruentRight	14	205	345	1	119	11:26:39	2494323	3	1	3	3	3	3	3	3	2	8	4	0	0	0	0	6	3
111912	11:26:39	10034	Trial	ResponseCL	14	0	175	0	119	11:26:39	2495656	3	1	3	3	3	3	3	3	2	8	4	0	0	0	0	6	3
111912	11:26:39	10034	Trial	CongruentLeft	14	203	272	1	119	11:26:39	2495949	3	1	3	3	3	3	3	3	2	8	4	0	0	0	0	6	3
111912	11:26:39	10034	Trial	ResponseCR	14	0	175	0	119	11:26:39	2497362	3	1	3	3	3	3	3	3	2	8	4	0	0	0	0	6	3
111912	11:26:39	10034	Trial	CongruentRight	14	205	344	1	119	11:26:39	2497735	3	1	3	3	3	3	3	3	2	8	4	0	0	0	0	6	3
111912	11:26:39	10034	Trial	ResponseIL	14	0	175	0	119	11:26:39	2499068	3	1	3	3	3	3	3	3	2	8	4	0	0	0	0	6	3
111912	11:26:39	10034	Trial	IncongruentLeft	14	203	363	1	119	11:26:39	2499454	3	1	3	3	3	3	3	3	2	8	4	0	0	0	0	6	3
111912	11:26:39	10034	Trial	ResponseIR	14	0	175	0	119	11:26:39	2500774	3	1	3	3	3	3	3	3	2	8	4	0	0	0	0	6	3
111912	11:26:39	10034	Trial	IncongruentRight	14	205	306	1	119	11:26:39	2501107	3	1	3	3	3	3	3	3	2	8	4	0	0	0	0	6	3
111912	11:26:39	10034	Trial	ResponseCR	14	0	175	0	119	11:26:39	2502480	3	1	3	3	3	3	3	3	2	8	4	0	0	0	0	6	3
111912	11:26:39	10034	Trial	CongruentRight	14	205	295	1	119	11:26:39	2502799	3	1	3	3	3	3	3	3	2	8	4	0	0	0	0	6	3
111912	11:26:39	10034	Trial	ResponseCL	14	0	175	0	119	11:26:39	2504186	3	1	3	3	3	3	3	3	2	8	4	0	0	0	0	6	3
111912	11:26:39	10034	Trial	CongruentLeft	14	203	365	1	119	11:26:39	2504572	3	1	3	3	3	3	3	3	2	8	4	0	0	0	0	6	3
111912	11:26:39	10034	Trial	ResponseCR	14	0	175	0	119	11:26:39	2505892	3	1	3	3	3	3	3	3	2	8	4	0	0	0	0	6	3
111912	11:26:39	10034	Trial	CongruentRight	14	205	196	1	119	11:26:39	2506105	3	1	3	3	3	3	3	3	2	8	4	0	0	0	0	6	3
111912	11:26:39	10034	Trial	ResponseIR	14	0	175	0	119	11:26:39	2507598	3	1	3	3	3	3	3	3	2	8	4	0	0	0	0	6	3
111912	11:26:39	10034	Trial	IncongruentRight	14	205	312	1	119	11:26:39	2507931	3	1	3	3	3	3	3	3	2	8	4	0	0	0	0	6	3
111912	11:26:39	10034	Trial	ResponseIL	14	0	175	0	119	11:26:39	2509303	3	1	3	3	3	3	3	3	2	8	4	0	0	0	0	6	3
111912	11:26:39	10034	Trial	IncongruentLeft	14	203	335	1	119	11:26:39	2509663	3	1	3	3	3	3	3	3	2	8	4	0	0	0	0	6	3
111912	11:26:39	10034	Trial	ResponseIL	14	0	175	0	119	11:26:39	2511036	3	1	3	3	3	3	3	3	2	8	4	0	0	0	0	6	3
111912	11:26:39	10034	Trial	IncongruentLeft	14	203	330	1	119	11:26:39	2511396	3	1	3	3	3	3	3	3	2	8	4	0	0	0	0	6	3
111912	11:26:39	10034	Trial	ResponseCL	14	0	175	0	119	11:26:39	2512743	3	1	3	3	3	3	3	3	2	8	4	0	0	0	0	6	3
111912	11:26:39	10034	Trial	CongruentLeft	14	203	239	1	119	11:26:39	2513009	3	1	3	3	3	3	3	3	2	8	4	0	0	0	0	6	3
111912	11:26:39	10034	Trial	ResponseCR	14	0	175	0	119	11:26:39	2514448	3	1	3	3	3	3	3	3	2	8	4	0	0	0	0	6	3
111912	11:26:39	10034	Trial	CongruentRight	14	205	278	1	119	11:26:39	2514755	3	1	3	3	3	3	3	3	2	8	4	0	0	0	0	6	3
111912	11:26:39	10034	Trial	ResponseIL	14	0	175	0	119	11:26:39	2516154	3	1	3	3	3	3	3	3	2	8	4	0	0	0	0	6	3
111912	11:26:39	10034	Trial	IncongruentLeft	14	203	253	1	119	11:26:39	2516434	3	1	3	3	3	3	3	3	2	8	4	0	0	0	0	6	3
111912	11:26:39	10034	Trial	ResponseIR	14	0	175	0	119	11:26:39	2517860	3	1	3	3	3	3	3	3	2	8	4	0	0	0	0	6	3
111912	11:26:39	10034	Trial	IncongruentRight	14	205	290	1	119	11:26:39	2518180	3	1	3	3	3	3	3	3	2	8	4	0	0	0	0	6	3
111912	11:26:39	10034	Trial	ResponseCR	14	0	175	0	119	11:26:39	2519566	3	1	3	3	3	3	3	3	2	8	4	0	0	0	0	6	3
111912	11:26:39	10034	Trial	CongruentRight	14	205	265	1	119	11:26:39	2519859	3	1	3	3	3	3	3	3	2	8	4	0	0	0	0	6	3
111912	11:26:39	10034	Trial	ResponseCL	14	0	175	0	119	11:26:39	2521272	3	1	3	3	3	3	3	3	2	8	4	0	0	0	0	6	3
111912	11:26:39	10034	Trial	CongruentLeft	14	203	255	1	119	11:26:39	2521552	3	1	3	3	3	3	3	3	2	8	4	0	0	0	0	6	3
111912	11:26:39	10034	Trial	ResponseIR	14	0	175	0	119	11:26:39	2522978	3	1	3	3	3	3	3	3	2	8	4	0	0	0	0	6	3
111912	11:26:39	10034	Trial	IncongruentRight	14	205	228	1	119	11:26:39	2523232	3	1	3	3	3	3	3	3	2	8	4	0	0	0	0	6	3
111912	11:26:39	10034	Trial	ResponseIL	14	0	175	0	119	11:26:39	2524684	3	1	3	3	3	3	3	3	2	8	4	0	0	0	0	6	3
111912	11:26:39	10034	Trial	IncongruentLeft	14	203	250	1	119	11:26:39	2524964	3	1	3	3	3	3	3	3	2	8	4	0	0	0	0	6	3
111912	11:26:39	10034	Trial	ResponseIR	14	0	175	0	119	11:26:39	2526390	3	1	3	3	3	3	3	3	2	8	4	0	0	0	0	6	3
111912	11:26:39	10034	Trial	IncongruentRight	14	205	271	1	119	11:26:39	2526683	3	1	3	3	3	3	3	3	2	8	4	0	0	0	0	6	3
111912	11:26:39	10034	Trial	ResponseCR	14	0	175	0	119	11:26:39	2528096	3	1	3	3	3	3	3	3	2	8	4	0	0	0	0	6	3
111912	11:26:39	10034	Trial	CongruentRight	14	205	501	1	119	11:26:39	2528616	3	1	3	3	3	3	3	3	2	8	4	0	0	0	0	6	3
111912	11:26:39	10034	Trial	ResponseIL	14	0	175	0	119	11:26:39	2529802	3	1	3	3	3	3	3	3	2	8	4	0	0	0	0	6	3
111912	11:26:39	10034	Trial	IncongruentLeft	14	203	429	1	119	11:26:39	2530256	3	1	3	3	3	3	3	3	2	8	4	0	0	0	0	6	3
111912	11:26:39	10034	Trial	ResponseCL	14	0	175	0	119	11:26:39	2531508	3	1	3	3	3	3	3	3	2	8	4	0	0	0	0	6	3
111912	11:26:39	10034	Trial	CongruentLeft	14	203	386	1	119	11:26:39	2531924	3	1	3	3	3	3	3	3	2	8	4	0	0	0	0	6	3
111912	11:26:39	10034	Trial	ResponseCR	14	0	175	0	119	11:26:39	2533214	3	1	3	3	3	3	3	3	2	8	4	0	0	0	0	6	3
111912	11:26:39	10034	Trial	CongruentRight	14	205	233	1	119	11:26:39	2533467	3	1	3	3	3	3	3	3	2	8	4	0	0	0	0	6	3
111912	11:26:39	10034	Trial	ResponseIL	14	0	175	0	119	11:26:39	2534920	3	1	3	3	3	3	3	3	2	8	4	0	0	0	0	6	3
111912	11:26:39	10034	Trial	IncongruentLeft	14	203	382	1	119	11:26:39	2535320	3	1	3	3	3	3	3	3	2	8	4	0	0	0	0	6	3
111912	11:26:39	10034	Trial	ResponseIR	14	0	175	0	119	11:26:39	2536626	3	1	3	3	3	3	3	3	2	8	4	0	0	0	0	6	3
111912	11:26:39	10034	Trial	IncongruentRight	14	205	260	1	119	11:26:39	2536906	3	1	3	3	3	3	3	3	2	8	4	0	0	0	0	6	3
111912	11:26:39	10034	Trial	ResponseIR	14	0	175	0	119	11:26:39	2538332	3	1	3	3	3	3	3	3	2	8	4	0	0	0	0	6	3
111912	11:26:39	10034	Trial	IncongruentRight	14	205	394	1	119	11:26:39	2538753	3	1	3	3	3	3	3	3	2	8	4	0	0	0	0	6	3
111912	11:26:39	10034	Trial	ResponseCL	14	0	175	0	119	11:26:39	2540038	3	1	3	3	3	3	3	3	2	8	4	0	0	0	0	6	3
111912	11:26:39	10034	Trial	CongruentLeft	14	203	256	1	119	11:26:39	2540318	3	1	3	3	3	3	3	3	2	8	4	0	0	0	0	6	3
111912	11:26:39	10034	Trial	ResponseIL	14	0	175	0	119	11:26:39	2541744	3	1	3	3	3	3	3	3	2	8	4	0	0	0	0	6	3
111912	11:26:39	10034	Trial	IncongruentLeft	14	205	247	0	119	11:26:39	2542011	3	1	3	3	3	3	3	3	2	8	4	0	0	0	0	6	3
111912	11:26:39	10034	Trial	ResponseCR	14	0	175	0	119	11:26:39	2543450	3	1	3	3	3	3	3	3	2	8	4	0	0	0	0	6	3
111912	11:26:39	10034	Trial	CongruentRight	14	205	316	1	119	11:26:39	2543783	3	1	3	3	3	3	3	3	2	8	4	0	0	0	0	6	3
111912	11:26:39	10034	Trial	ResponseCL	14	0	175	0	119	11:26:39	2545156	3	1	3	3	3	3	3	3	2	8	4	0	0	0	0	6	3
111912	11:26:39	10034	Trial	CongruentLeft	14	203	305	1	119	11:26:39	2545489	3	1	3	3	3	3	3	3	2	8	4	0	0	0	0	6	3
111912	11:26:39	10034	Trial	ResponseIR	14	0	175	0	119	11:26:39	2546862	3	1	3	3	3	3	3	3	2	8	4	0	0	0	0	6	3
111912	11:26:39	10034	Trial	IncongruentRight	14	205	296	1	119	11:26:39	2547182	3	1	3	3	3	3	3	3	2	8	4	0	0	0	0	6	3
111912	11:26:39	10034	Trial	ResponseCR	14	0	175	0	119	11:26:39	2548568	3	1	3	3	3	3	3	3	2	8	4	0	0	0	0	6	3
111912	11:26:39	10034	Trial	CongruentRight	14	205	334	1	119	11:26:39	2548928	3	1	3	3	3	3	3	3	2	8	4	0	0	0	0	6	3
111912	11:26:39	10034	Trial	ResponseIL	14	0	175	0	119	11:26:39	2550274	3	1	3	3	3	3	3	3	2	8	4	0	0	0	0	6	3
111912	11:26:39	10034	Trial	IncongruentLeft	14	203	308	1	119	11:26:39	2550607	3	1	3	3	3	3	3	3	2	8	4	0	0	0	0	6	3
111912	11:26:39	10034	Trial	ResponseCL	14	0	175	0	119	11:26:39	2551980	3	1	3	3	3	3	3	3	2	8	4	0	0	0	0	6	3
111912	11:26:39	10034	Trial	CongruentLeft	14	203	377	1	119	11:26:39	2552380	3	1	3	3	3	3	3	3	2	8	4	0	0	0	0	6	3
111912	11:26:39	10034	Trial	ResponseIL	14	0	175	0	119	11:26:39	2553686	3	1	3	3	3	3	3	3	2	8	4	0	0	0	0	6	3
111912	11:26:39	10034	Trial	IncongruentLeft	14	203	421	1	119	11:26:39	2554126	3	1	3	3	3	3	3	3	2	8	4	0	0	0	0	6	3
111912	11:26:39	10034	Trial	ResponseIR	14	0	175	0	119	11:26:39	2555392	3	1	3	3	3	3	3	3	2	8	4	0	0	0	0	6	3
111912	11:26:39	10034	Trial	IncongruentRight	14	205	261	1	119	11:26:39	2555672	3	1	3	3	3	3	3	3	2	8	4	0	0	0	0	6	3
111912	11:26:39	10034	Trial	ResponseCR	14	0	175	0	119	11:26:39	2557098	3	1	3	3	3	3	3	3	2	8	4	0	0	0	0	6	3
111912	11:26:39	10034	Trial	CongruentRight	14	205	252	1	119	11:26:39	2557378	3	1	3	3	3	3	3	3	2	8	4	0	0	0	0	6	3
111912	11:26:39	10034	Trial	ResponseCL	14	0	175	0	119	11:26:39	2558804	3	1	3	3	3	3	3	3	2	8	4	0	0	0	0	6	3
111912	11:26:39	10034	Trial	CongruentLeft	14	203	227	1	119	11:26:39	2559057	3	1	3	3	3	3	3	3	2	8	4	0	0	0	0	6	3
111912	11:26:39	10034	Trial	ResponseCL	14	0	175	0	119	11:26:39	2560510	3	1	3	3	3	3	3	3	2	8	4	0	0	0	0	6	3
111912	11:26:39	10034	Trial	CongruentLeft	14	203	419	1	119	11:26:39	2560952	3	1	3	3	3	3	3	3	2	8	4	0	0	0	0	6	3
111912	11:26:39	10034	Trial	ResponseIR	14	0	175	0	119	11:26:39	2562216	3	1	3	3	3	3	3	3	2	8	4	0	0	0	0	6	3
111912	11:26:39	10034	Trial	IncongruentRight	14	205	318	1	119	11:26:39	2562563	3	1	3	3	3	3	3	3	2	8	4	0	0	0	0	6	3
111912	11:26:39	10034	Trial	ResponseIL	14	0	175	0	119	11:26:39	2563922	3	1	3	3	3	3	3	3	2	8	4	0	0	0	0	6	3
111912	11:26:39	10034	Trial	IncongruentLeft	14	203	356	1	119	11:26:39	2564295	3	1	3	3	3	3	3	3	2	8	4	0	0	0	0	6	3
111912	11:26:39	10034	Trial	ResponseIR	14	0	175	0	119	11:26:39	2565628	3	1	3	3	3	3	3	3	2	8	4	0	0	0	0	6	3
111912	11:26:39	10034	Trial	IncongruentRight	14	205	299	1	119	11:26:39	2565948	3	1	3	3	3	3	3	3	2	8	4	0	0	0	0	6	3
111912	11:26:39	10034	Trial	ResponseCR	14	0	175	0	119	11:26:39	2567334	3	1	3	3	3	3	3	3	2	8	4	0	0	0	0	6	3
111912	11:26:39	10034	Trial	CongruentRight	14	205	256	1	119	11:26:39	2567614	3	1	3	3	3	3	3	3	2	8	4	0	0	0	0	6	3
111912	11:26:39	10034	Trial	ResponseCR	14	0	175	0	119	11:26:39	2569040	3	1	3	3	3	3	3	3	2	8	4	0	0	0	0	6	3
111912	11:26:39	10034	Trial	CongruentRight	14	205	263	1	119	11:26:39	2569320	3	1	3	3	3	3	3	3	2	8	4	0	0	0	0	6	3
111912	11:26:39	10034	Trial	ResponseIL	14	0	175	0	119	11:26:39	2570746	3	1	3	3	3	3	3	3	2	8	4	0	0	0	0	6	3
111912	11:26:39	10034	Trial	IncongruentLeft	14	203	300	1	119	11:26:39	2571066	3	1	3	3	3	3	3	3	2	8	4	0	0	0	0	6	3
111912	11:26:39	10034	Trial	ResponseCL	14	0	175	0	119	11:26:39	2572452	3	1	3	3	3	3	3	3	2	8	4	0	0	0	0	6	3
111912	11:26:39	10034	Trial	CongruentLeft	14	203	273	1	119	11:26:39	2572745	3	1	3	3	3	3	3	3	2	8	4	0	0	0	0	6	3
111912	11:26:39	10034	Trial	ResponseCR	14	0	175	0	119	11:26:39	2574158	3	1	3	3	3	3	3	3	2	8	4	0	0	0	0	6	3
111912	11:26:39	10034	Trial	CongruentRight	14	205	420	1	119	11:26:39	2574599	3	1	3	3	3	3	3	3	2	8	4	0	0	0	0	6	3
111912	11:26:39	10034	Trial	ResponseCL	14	0	175	0	119	11:26:39	2575864	3	1	3	3	3	3	3	3	2	8	4	0	0	0	0	6	3
111912	11:26:39	10034	Trial	CongruentLeft	14	203	432	1	119	11:26:39	2576318	3	1	3	3	3	3	3	3	2	8	4	0	0	0	0	6	3
111912	11:26:39	10034	Trial	ResponseIR	14	0	175	0	119	11:26:39	2577570	3	1	3	3	3	3	3	3	2	8	4	0	0	0	0	6	3
111912	11:26:39	10034	Trial	IncongruentRight	14	205	195	1	119	11:26:39	2577783	3	1	3	3	3	3	3	3	2	8	4	0	0	0	0	6	3
111912	11:26:39	10034	Trial	ResponseCR	14	0	175	0	119	11:26:39	2579276	3	1	3	3	3	3	3	3	2	8	4	0	0	0	0	6	3
111912	11:26:39	10034	Trial	CongruentRight	14	205	312	1	119	11:26:39	2579609	3	1	3	3	3	3	3	3	2	8	4	0	0	0	0	6	3
111912	11:26:39	10034	Trial	ResponseCL	14	0	175	0	119	11:26:39	2580982	3	1	3	3	3	3	3	3	2	8	4	0	0	0	0	6	3
111912	11:26:39	10034	Trial	CongruentLeft	14	203	208	1	119	11:26:39	2581208	3	1	3	3	3	3	3	3	2	8	4	0	0	0	0	6	3
111912	11:26:39	10034	Trial	ResponseIL	14	0	175	0	119	11:26:39	2582688	3	1	3	3	3	3	3	3	2	8	4	0	0	0	0	6	3
111912	11:26:39	10034	Trial	IncongruentLeft	14	203	294	1	119	11:26:39	2583008	3	1	3	3	3	3	3	3	2	8	4	0	0	0	0	6	3
111912	11:26:39	10034	Trial	ResponseIL	14	0	175	0	119	11:26:39	2584394	3	1	3	3	3	3	3	3	2	8	4	0	0	0	0	6	3
111912	11:26:39	10034	Trial	IncongruentLeft	14	203	332	1	119	11:26:39	2584754	3	1	3	3	3	3	3	3	2	8	4	0	0	0	0	6	3
111912	11:26:39	10034	Trial	ResponseCR	14	0	175	0	119	11:26:39	2586100	3	1	3	3	3	3	3	3	2	8	4	0	0	0	0	6	3
111912	11:26:39	10034	Trial	CongruentRight	14	205	304	1	119	11:26:39	2586433	3	1	3	3	3	3	3	3	2	8	4	0	0	0	0	6	3
111912	11:26:39	10034	Trial	ResponseIR	14	0	175	0	119	11:26:39	2587819	3	1	3	3	3	3	3	3	2	8	4	0	0	0	0	6	3
111912	11:26:39	10034	Trial	IncongruentRight	14	205	330	1	119	11:26:39	2588179	3	1	3	3	3	3	3	3	2	8	4	0	0	0	0	6	3
111912	11:26:39	10034	Trial	ResponseCL	14	0	175	0	119	11:26:39	2589525	3	1	3	3	3	3	3	3	2	8	4	0	0	0	0	6	3
111912	11:26:39	10034	Trial	CongruentLeft	14	203	208	1	119	11:26:39	2589752	3	1	3	3	3	3	3	3	2	8	4	0	0	0	0	6	3
111912	11:26:39	10034	Trial	ResponseIR	14	0	175	0	119	11:26:39	2591231	3	1	3	3	3	3	3	3	2	8	4	0	0	0	0	6	3
111912	11:26:39	10034	Trial	IncongruentRight	14	205	374	1	119	11:26:39	2591631	3	1	3	3	3	3	3	3	2	8	4	0	0	0	0	6	3
111912	11:26:39	10034	Trial	ResponseCR	14	0	175	0	119	11:26:39	2592937	3	1	3	3	3	3	3	3	2	8	4	0	0	0	0	6	3
111912	11:26:39	10034	Trial	CongruentRight	14	205	470	1	119	11:26:39	2593431	3	1	3	3	3	3	3	3	2	8	4	0	0	0	0	6	3
111912	11:26:39	10034	Trial	ResponseIL	14	0	175	0	119	11:26:39	2594643	3	1	3	3	3	3	3	3	2	8	4	0	0	0	0	6	3
111912	11:26:39	10034	Trial	IncongruentLeft	14	203	431	1	119	11:26:39	2595097	3	1	3	3	3	3	3	3	2	8	4	0	0	0	0	6	3
111912	11:26:39	10034	Trial	ResponseCL	14	0	175	0	119	11:26:39	2596349	3	1	3	3	3	3	3	3	2	8	4	0	0	0	0	6	3
111912	11:26:39	10034	Trial	CongruentLeft	14	203	345	1	119	11:26:39	2596723	3	1	3	3	3	3	3	3	2	8	4	0	0	0	0	6	3
111912	11:26:39	10034	Trial	ResponseCR	14	0	175	0	119	11:26:39	2598055	3	1	3	3	3	3	3	3	2	8	4	0	0	0	0	6	3
111912	11:26:39	10034	Trial	CongruentRight	14	205	270	1	119	11:26:39	2598349	3	1	3	3	3	3	3	3	2	8	4	0	0	0	0	6	3
111912	11:26:39	10034	Trial	ResponseIL	14	0	175	0	119	11:26:39	2599761	3	1	3	3	3	3	3	3	2	8	4	0	0	0	0	6	3
111912	11:26:39	10034	Trial	IncongruentLeft	14	203	276	1	119	11:26:39	2600054	3	1	3	3	3	3	3	3	2	8	4	0	0	0	0	6	3
111912	11:26:39	10034	Trial	ResponseCR	14	0	175	0	119	11:26:39	2601467	3	1	3	3	3	3	3	3	2	8	4	0	0	0	0	6	3
111912	11:26:39	10034	Trial	CongruentRight	14	205	219	1	119	11:26:39	2601707	3	1	3	3	3	3	3	3	2	8	4	0	0	0	0	6	3
111912	11:26:39	10034	Trial	ResponseCR	14	0	175	0	119	11:26:39	2603173	3	1	3	3	3	3	3	3	2	8	4	0	0	0	0	6	3
111912	11:26:39	10034	Trial	CongruentRight	14	205	272	1	119	11:26:39	2603466	3	1	3	3	3	3	3	3	2	8	4	0	0	0	0	6	3
111912	11:26:39	10034	Trial	ResponseIR	14	0	175	0	119	11:26:39	2604893	3	1	3	3	3	3	3	3	2	8	4	0	0	0	0	6	3
111912	11:26:39	10034	Trial	IncongruentRight	14	205	217	1	119	11:26:39	2605133	3	1	3	3	3	3	3	3	2	8	4	0	0	0	0	6	3
111912	11:26:39	10034	Trial	ResponseCL	14	0	175	0	119	11:26:39	2606599	3	1	3	3	3	3	3	3	2	8	4	0	0	0	0	6	3
111912	11:26:39	10034	Trial	CongruentLeft	14	203	303	1	119	11:26:39	2606918	3	1	3	3	3	3	3	3	2	8	4	0	0	0	0	6	3
111912	11:26:39	10034	Trial	ResponseIL	14	0	175	0	119	11:26:39	2608305	3	1	3	3	3	3	3	3	2	8	4	0	0	0	0	6	3
111912	11:26:39	10034	Trial	IncongruentLeft	14	205	117	0	119	11:26:39	2608451	3	1	3	3	3	3	3	3	2	8	4	0	0	0	0	6	3
111912	11:26:39	10034	Trial	ResponseCL	14	0	175	0	119	11:26:39	2610011	3	1	3	3	3	3	3	3	2	8	4	0	0	0	0	6	3
111912	11:26:39	10034	Trial	CongruentLeft	14	203	251	1	119	11:26:39	2610290	3	1	3	3	3	3	3	3	2	8	4	0	0	0	0	6	3
111912	11:26:39	10034	Trial	ResponseIR	14	0	175	0	119	11:26:39	2611717	3	1	3	3	3	3	3	3	2	8	4	0	0	0	0	6	3
111912	11:26:39	10034	Trial	IncongruentRight	14	205	241	1	119	11:26:39	2611983	3	1	3	3	3	3	3	3	2	8	4	0	0	0	0	6	3
111912	11:26:39	10034	Trial	ResponseIL	14	0	175	0	119	11:26:39	2613423	3	1	3	3	3	3	3	3	2	8	4	0	0	0	0	6	3
111912	11:26:39	10034	Trial	IncongruentLeft	14	203	270	1	119	11:26:39	2613729	3	1	3	3	3	3	3	3	2	8	4	0	0	0	0	6	3
111912	11:26:39	10034	Trial	ResponseCR	14	0	175	0	119	11:26:39	2615129	3	1	3	3	3	3	3	3	2	8	4	0	0	0	0	6	3
111912	11:26:39	10034	Trial	CongruentRight	14	205	188	1	119	11:26:39	2615342	3	1	3	3	3	3	3	3	2	8	4	0	0	0	0	6	3
111912	11:26:39	10034	Trial	ResponseCL	14	0	175	0	119	11:26:39	2616835	3	1	3	3	3	3	3	3	2	8	4	0	0	0	0	6	3
111912	11:26:39	10034	Trial	CongruentLeft	14	203	355	1	119	11:26:39	2617208	3	1	3	3	3	3	3	3	2	8	4	0	0	0	0	6	3
111912	11:26:39	10034	Trial	ResponseIL	14	0	175	0	119	11:26:39	2618541	3	1	3	3	3	3	3	3	2	8	4	0	0	0	0	6	3
111912	11:26:39	10034	Trial	IncongruentLeft	14	203	404	1	119	11:26:39	2618973	3	1	3	3	3	3	3	3	2	8	4	0	0	0	0	6	3
111912	11:26:39	10034	Trial	ResponseCL	14	0	175	0	119	11:26:39	2620247	3	1	3	3	3	3	3	3	2	8	4	0	0	0	0	6	3
111912	11:26:39	10034	Trial	CongruentLeft	14	203	415	1	119	11:26:39	2620694	3	1	3	3	3	3	3	3	2	8	4	0	0	0	0	6	3
111912	11:26:39	10034	Trial	ResponseIR	14	0	175	0	119	11:26:39	2621953	3	1	3	3	3	3	3	3	2	8	4	0	0	0	0	6	3
111912	11:26:39	10034	Trial	IncongruentRight	14	205	324	1	119	11:26:39	2622299	3	1	3	3	3	3	3	3	2	8	4	0	0	0	0	6	3
111912	11:26:39	10034	Trial	ResponseCR	14	0	175	0	119	11:26:39	2623659	3	1	3	3	3	3	3	3	2	8	4	0	0	0	0	6	3
111912	11:26:39	10034	Trial	CongruentRight	14	205	299	1	119	11:26:39	2623978	3	1	3	3	3	3	3	3	2	8	4	0	0	0	0	6	3
111912	11:26:39	10034	Trial	ResponseIL	14	0	175	0	119	11:26:39	2625365	3	1	3	3	3	3	3	3	2	8	4	0	0	0	0	6	3
111912	11:26:39	10034	Trial	IncongruentLeft	14	203	257	1	119	11:26:39	2625644	3	1	3	3	3	3	3	3	2	8	4	0	0	0	0	6	3
111912	11:26:39	10034	Trial	ResponseCL	14	0	175	0	119	11:26:39	2627071	3	1	3	3	3	3	3	3	2	8	4	0	0	0	0	6	3
111912	11:26:39	10034	Trial	CongruentLeft	14	203	359	1	119	11:26:39	2627457	3	1	3	3	3	3	3	3	2	8	4	0	0	0	0	6	3
111912	11:26:39	10034	Trial	ResponseIR	14	0	175	0	119	11:26:39	2628777	3	1	3	3	3	3	3	3	2	8	4	0	0	0	0	6	3
111912	11:26:39	10034	Trial	IncongruentRight	14	205	301	1	119	11:26:39	2629096	3	1	3	3	3	3	3	3	2	8	4	0	0	0	0	6	3
111912	11:26:39	10034	Trial	ResponseIL	14	0	175	0	119	11:26:39	2630483	3	1	3	3	3	3	3	3	2	8	4	0	0	0	0	6	3
111912	11:26:39	10034	Trial	IncongruentLeft	14	203	323	1	119	11:26:39	2630829	3	1	3	3	3	3	3	3	2	8	4	0	0	0	0	6	3
111912	11:26:39	10034	Trial	ResponseCL	14	0	175	0	119	11:26:39	2632189	3	1	3	3	3	3	3	3	2	8	4	0	0	0	0	6	3
111912	11:26:39	10034	Trial	CongruentLeft	14	203	281	1	119	11:26:39	2632495	3	1	3	3	3	3	3	3	2	8	4	0	0	0	0	6	3
111912	11:26:39	10034	Trial	ResponseIL	14	0	175	0	119	11:26:39	2633895	3	1	3	3	3	3	3	3	2	8	4	0	0	0	0	6	3
111912	11:26:39	10034	Trial	IncongruentLeft	14	203	255	1	119	11:26:39	2634174	3	1	3	3	3	3	3	3	2	8	4	0	0	0	0	6	3
111912	11:26:39	10034	Trial	ResponseCR	14	0	175	0	119	11:26:39	2635600	3	1	3	3	3	3	3	3	2	8	4	0	0	0	0	6	3
111912	11:26:39	10034	Trial	CongruentRight	14	205	324	1	119	11:26:39	2635947	3	1	3	3	3	3	3	3	2	8	4	0	0	0	0	6	3
111912	11:26:39	10034	Trial	ResponseCL	14	0	175	0	119	11:26:39	2637307	3	1	3	3	3	3	3	3	2	8	4	0	0	0	0	6	3
111912	11:26:39	10034	Trial	CongruentLeft	14	203	251	1	119	11:26:39	2637586	3	1	3	3	3	3	3	3	2	8	4	0	0	0	0	6	3
111912	11:26:39	10034	Trial	ResponseIR	14	0	175	0	119	11:26:39	2639013	3	1	3	3	3	3	3	3	2	8	4	0	0	0	0	6	3
111912	11:26:39	10034	Trial	IncongruentRight	14	205	304	1	119	11:26:39	2639346	3	1	3	3	3	3	3	3	2	8	4	0	0	0	0	6	3
111912	11:26:39	10034	Trial	ResponseCL	14	0	175	0	119	11:26:39	2640719	3	1	3	3	3	3	3	3	2	8	4	0	0	0	0	6	3
111912	11:26:39	10034	Trial	CongruentLeft	14	203	341	1	119	11:26:39	2641078	3	1	3	3	3	3	3	3	2	8	4	0	0	0	0	6	3
111912	11:26:39	10034	Trial	ResponseCR	14	0	175	0	119	11:26:39	2642425	3	1	3	3	3	3	3	3	2	8	4	0	0	0	0	6	3
111912	11:26:39	10034	Trial	CongruentRight	14	205	221	1	119	11:26:39	2642664	3	1	3	3	3	3	3	3	2	8	4	0	0	0	0	6	3
111912	11:26:39	10034	Trial	ResponseIL	14	0	175	0	119	11:26:39	2644131	3	1	3	3	3	3	3	3	2	8	4	0	0	0	0	6	3
111912	11:26:39	10034	Trial	IncongruentLeft	14	203	460	1	119	11:26:39	2644611	3	1	3	3	3	3	3	3	2	8	4	0	0	0	0	6	3
111912	11:26:39	10034	WordsAbsEngThreemo	PAbsEngThreemo1	16	Abs1	3996	0	119	11:26:39	2655086	3	1	3	3	3	3	3	3	2	8	4	0	0	0	0	6	3
111912	11:26:39	10034	WordsAbsEngThreemo	AbsEngThreemo1	16	Abs2	17670	0	119	11:26:39	2672813	3	1	3	3	3	3	3	3	2	8	4	0	0	0	0	6	3
111912	11:26:39	10034	WordsAbsEngThreemo	AbsEngThreemo2	16	Abs1	11744	0	119	11:26:39	2684595	3	1	3	3	3	3	3	3	2	8	4	1	0	0	0	6	3
111912	11:26:39	10034	WordsAbsEngThreemo	AbsEngThreemo3	16	Abs1	17618	0	119	11:26:39	2702254	3	1	3	3	3	3	3	3	2	8	4	2	0	0	0	6	3
111912	11:26:39	10034	Trial2BackEngS	NS	17	0	1000	1	119	11:26:39	2766003	3	1	3	3	3	3	3	3	2	8	4	2	0	0	0	6	3
111912	11:26:39	10034	Trial2BackEngS	NS	17	0	1000	1	119	11:26:39	2767509	3	1	3	3	3	3	3	3	2	8	4	2	0	0	0	6	3
111912	11:26:39	10034	Trial2BackEngS	NS	17	0	1000	1	119	11:26:39	2769015	3	1	3	3	3	3	3	3	2	8	4	2	0	0	0	6	3
111912	11:26:39	10034	Trial2BackEngS	YS	17	57	917	1	119	11:26:39	2770454	3	1	3	3	3	3	3	3	2	8	4	2	0	0	0	6	3
111912	11:26:39	10034	Trial2BackEngS	NS	17	0	1000	1	119	11:26:39	2772027	3	1	3	3	3	3	3	3	2	8	4	2	0	0	0	6	3
111912	11:26:39	10034	Trial2BackEngS	NS	17	0	1000	1	119	11:26:39	2773546	3	1	3	3	3	3	3	3	2	8	4	2	0	0	0	6	3
111912	11:26:39	10034	Trial2BackEngS	NS	17	0	1000	1	119	11:26:39	2775052	3	1	3	3	3	3	3	3	2	8	4	2	0	0	0	6	3
111912	11:26:39	10034	Trial2BackEngS	NS	17	57	796	0	119	11:26:39	2776358	3	1	3	3	3	3	3	3	2	8	4	2	0	0	0	6	3
111912	11:26:39	10034	Trial2BackEngS	YS	17	0	1000	0	119	11:26:39	2778064	3	1	3	3	3	3	3	3	2	8	4	2	0	0	0	6	3
111912	11:26:39	10034	Trial2BackEngS	NS	17	0	1000	1	119	11:26:39	2779570	3	1	3	3	3	3	3	3	2	8	4	2	0	0	0	6	3
111912	11:26:39	10034	Trial2BackEngS	NS	17	0	1000	1	119	11:26:39	2781076	3	1	3	3	3	3	3	3	2	8	4	2	0	0	0	6	3
111912	11:26:39	10034	Trial2BackEngS	YS	17	0	1000	0	119	11:26:39	2782583	3	1	3	3	3	3	3	3	2	8	4	2	0	0	0	6	3
111912	11:26:39	10034	Trial2BackEngS	NS	17	0	1000	1	119	11:26:39	2784089	3	1	3	3	3	3	3	3	2	8	4	2	0	0	0	6	3
111912	11:26:39	10034	Trial2BackEngS	NS	17	0	1000	1	119	11:26:39	2785608	3	1	3	3	3	3	3	3	2	8	4	2	0	0	0	6	3
111912	11:26:39	10034	Trial2BackEngS	NS	17	0	1000	1	119	11:26:39	2787114	3	1	3	3	3	3	3	3	2	8	4	2	0	0	0	6	3
111912	11:26:39	10034	Trial2BackEngS	YS	17	57	782	1	119	11:26:39	2788407	3	1	3	3	3	3	3	3	2	8	4	2	0	0	0	6	3
111912	11:26:39	10034	Trial2BackEngS	NS	17	0	1000	1	119	11:26:39	2790126	3	1	3	3	3	3	3	3	2	8	4	2	0	0	0	6	3
111912	11:26:39	10034	Trial2BackEngS	NS	17	0	1000	1	119	11:26:39	2791632	3	1	3	3	3	3	3	3	2	8	4	2	0	0	0	6	3
111912	11:26:39	10034	Trial2BackEngS	NS	17	57	711	0	119	11:26:39	2792858	3	1	3	3	3	3	3	3	2	8	4	2	0	0	0	6	3
111912	11:26:39	10034	Trial2BackEngS	NS	17	0	1000	1	119	11:26:39	2794644	3	1	3	3	3	3	3	3	2	8	4	2	0	0	0	6	3
111912	11:26:39	10034	Trial2BackEngS	YS	17	0	1000	0	119	11:26:39	2796151	3	1	3	3	3	3	3	3	2	8	4	2	0	0	0	6	3
111912	11:26:39	10034	Trial2BackEngS	NS	17	0	1000	1	119	11:26:39	2797670	3	1	3	3	3	3	3	3	2	8	4	2	0	0	0	6	3
111912	11:26:39	10034	Trial2BackEngS	NS	17	0	1000	1	119	11:26:39	2799176	3	1	3	3	3	3	3	3	2	8	4	2	0	0	0	6	3
111912	11:26:39	10034	Trial2BackEngS	NS	17	0	1000	1	119	11:26:39	2800682	3	1	3	3	3	3	3	3	2	8	4	2	0	0	0	6	3
111912	11:26:39	10034	Trial2BackEngS	NS	17	0	1000	1	119	11:26:39	2802201	3	1	3	3	3	3	3	3	2	8	4	2	0	0	0	6	3
111912	11:26:39	10034	Trial2BackEngS	NS	17	0	1000	1	119	11:26:39	2803707	3	1	3	3	3	3	3	3	2	8	4	2	0	0	0	6	3
111912	11:26:39	10034	Trial2BackEngS	NS	17	0	1000	1	119	11:26:39	2805214	3	1	3	3	3	3	3	3	2	8	4	2	0	0	0	6	3
111912	11:26:39	10034	Trial2BackEngS	NS	17	0	1000	1	119	11:26:39	2806720	3	1	3	3	3	3	3	3	2	8	4	2	0	0	0	6	3
111912	11:26:39	10034	Trial2BackEngS	NS	17	57	584	0	119	11:26:39	2807812	3	1	3	3	3	3	3	3	2	8	4	2	0	0	0	6	3
111912	11:26:39	10034	Trial2BackEngS	NS	17	0	1000	1	119	11:26:39	2809732	3	1	3	3	3	3	3	3	2	8	4	2	0	0	0	6	3
111912	11:26:39	10034	Trial2BackEngS	NS	17	0	1000	1	119	11:26:39	2811238	3	1	3	3	3	3	3	3	2	8	4	2	0	0	0	6	3
111912	11:26:39	10034	Trial2BackEngS	YS	17	57	896	1	119	11:26:39	2812651	3	1	3	3	3	3	3	3	2	8	4	2	0	0	0	6	3
111912	11:26:39	10034	Trial2BackEngS	NS	17	0	1000	1	119	11:26:39	2814250	3	1	3	3	3	3	3	3	2	8	4	2	0	0	0	6	3
111912	11:26:39	10034	Trial2BackEngS	NS	17	0	1000	1	119	11:26:39	2815756	3	1	3	3	3	3	3	3	2	8	4	2	0	0	0	6	3
111912	11:26:39	10034	Trial2BackEngS	NS	17	0	1000	1	119	11:26:39	2817262	3	1	3	3	3	3	3	3	2	8	4	2	0	0	0	6	3
111912	11:26:39	10034	Trial2BackEngS	YS	17	57	986	1	119	11:26:39	2818768	3	1	3	3	3	3	3	3	2	8	4	2	0	0	0	6	3
111912	11:26:39	10034	Trial2BackEngS	NS	17	0	1000	1	119	11:26:39	2820274	3	1	3	3	3	3	3	3	2	8	4	2	0	0	0	6	3
111912	11:26:39	10034	Trial2BackEngS	NS	17	0	1000	1	119	11:26:39	2821780	3	1	3	3	3	3	3	3	2	8	4	2	0	0	0	6	3
111912	11:26:39	10034	Trial2BackEngS	NS	17	57	612	0	119	11:26:39	2822900	3	1	3	3	3	3	3	3	2	8	4	2	0	0	0	6	3
111912	11:26:39	10034	Trial2BackEngS	NS	17	0	1000	1	119	11:26:39	2824792	3	1	3	3	3	3	3	3	2	8	4	2	0	0	0	6	3
111912	11:26:39	10034	Trial2BackEngS	NS	17	0	1000	1	119	11:26:39	2826299	3	1	3	3	3	3	3	3	2	8	4	2	0	0	0	6	3
111912	11:26:39	10034	Trial2BackEngS	NS	17	0	1000	1	119	11:26:39	2827818	3	1	3	3	3	3	3	3	2	8	4	2	0	0	0	6	3
111912	11:26:39	10034	Trial2BackEngS	NS	17	0	1000	1	119	11:26:39	2829324	3	1	3	3	3	3	3	3	2	8	4	2	0	0	0	6	3
111912	11:26:39	10034	Trial2BackEngS	YS	17	0	1000	0	119	11:26:39	2830830	3	1	3	3	3	3	3	3	2	8	4	2	0	0	0	6	3
111912	11:26:39	10034	Trial2BackEngS	NS	17	0	1000	1	119	11:26:39	2832336	3	1	3	3	3	3	3	3	2	8	4	2	0	0	0	6	3
111912	11:26:39	10034	Trial2BackEngS	NS	17	57	936	0	119	11:26:39	2833789	3	1	3	3	3	3	3	3	2	8	4	2	0	0	0	6	3
111912	11:26:39	10034	Trial2BackEngS	NS	17	0	1000	1	119	11:26:39	2835348	3	1	3	3	3	3	3	3	2	8	4	2	0	0	0	6	3
111912	11:26:39	10034	Trial2BackEngS	NS	17	0	1000	1	119	11:26:39	2836868	3	1	3	3	3	3	3	3	2	8	4	2	0	0	0	6	3
111912	11:26:39	10034	Trial2BackEngS	YS	17	57	689	1	119	11:26:39	2838067	3	1	3	3	3	3	3	3	2	8	4	2	0	0	0	6	3
111912	11:26:39	10034	Trial2BackEngS	NS	17	0	1000	1	119	11:26:39	2839880	3	1	3	3	3	3	3	3	2	8	4	2	0	0	0	6	3
111912	11:26:39	10034	Trial2BackEngS	NS	17	0	1000	1	119	11:26:39	2841386	3	1	3	3	3	3	3	3	2	8	4	2	0	0	0	6	3
111912	11:26:39	10034	Trial2BackEngS	NS	17	0	1000	1	119	11:26:39	2842892	3	1	3	3	3	3	3	3	2	8	4	2	0	0	0	6	3
111912	11:26:39	10034	Trial2BackEngS	NS	17	0	1000	1	119	11:26:39	2844398	3	1	3	3	3	3	3	3	2	8	4	2	0	0	0	6	3
111912	11:26:39	10034	Trial2BackEngS	NS	17	0	1000	1	119	11:26:39	2845917	3	1	3	3	3	3	3	3	2	8	4	2	0	0	0	6	3
111912	11:26:39	10034	Trial2BackEngS	NS	17	0	1000	1	119	11:26:39	2847423	3	1	3	3	3	3	3	3	2	8	4	2	0	0	0	6	3
111912	11:26:39	10034	Trial2BackEngS	YS	17	57	440	1	119	11:26:39	2848383	3	1	3	3	3	3	3	3	2	8	4	2	0	0	0	6	3
111912	11:26:39	10034	Trial2BackEngS	NS	17	0	1000	1	119	11:26:39	2850436	3	1	3	3	3	3	3	3	2	8	4	2	0	0	0	6	3
111912	11:26:39	10034	Trial2BackEngS	NS	17	0	1000	1	119	11:26:39	2851942	3	1	3	3	3	3	3	3	2	8	4	2	0	0	0	6	3
111912	11:26:39	10034	Trial2BackEngS	NS	17	0	1000	1	119	11:26:39	2853448	3	1	3	3	3	3	3	3	2	8	4	2	0	0	0	6	3
111912	11:26:39	10034	Trial2BackEngS	NS	17	0	1000	1	119	11:26:39	2854954	3	1	3	3	3	3	3	3	2	8	4	2	0	0	0	6	3
111912	11:26:39	10034	Trial2BackEngS	NS	17	0	1000	1	119	11:26:39	2856473	3	1	3	3	3	3	3	3	2	8	4	2	0	0	0	6	3
111912	11:26:39	10034	Trial2BackEngS	NS	17	0	1000	1	119	11:26:39	2857980	3	1	3	3	3	3	3	3	2	8	4	2	0	0	0	6	3
111912	11:26:39	10034	Trial2BackEngS	NS	17	0	1000	1	119	11:26:39	2859499	3	1	3	3	3	3	3	3	2	8	4	2	0	0	0	6	3
111912	11:26:39	10034	Trial2BackEngS	YS	17	57	713	1	119	11:26:39	2860725	3	1	3	3	3	3	3	3	2	8	4	2	0	0	0	6	3
111912	11:26:39	10034	Trial2BackEngS	NS	17	0	1000	1	119	11:26:39	2862511	3	1	3	3	3	3	3	3	2	8	4	2	0	0	0	6	3
111912	11:26:39	10034	Trial2BackEngS	NS	17	0	1000	1	119	11:26:39	2864017	3	1	3	3	3	3	3	3	2	8	4	2	0	0	0	6	3
111912	11:26:39	10034	Trial2BackEngS	NS	17	0	1000	1	119	11:26:39	2865523	3	1	3	3	3	3	3	3	2	8	4	2	0	0	0	6	3
111912	11:26:39	10034	Trial2BackEngS	NS	17	0	1000	1	119	11:26:39	2867029	3	1	3	3	3	3	3	3	2	8	4	2	0	0	0	6	3
111912	11:26:39	10034	Trial2BackEngS	YS	17	57	896	1	119	11:26:39	2868442	3	1	3	3	3	3	3	3	2	8	4	2	0	0	0	6	3
111912	11:26:39	10034	Trial2BackEngS	NS	17	0	1000	1	119	11:26:39	2870041	3	1	3	3	3	3	3	3	2	8	4	2	0	0	0	6	3
111912	11:26:39	10034	Trial2BackEngS	NS	17	0	1000	1	119	11:26:39	2871547	3	1	3	3	3	3	3	3	2	8	4	2	0	0	0	6	3
111912	11:26:39	10034	Trial2BackEngS	YS	17	57	602	1	119	11:26:39	2872667	3	1	3	3	3	3	3	3	2	8	4	2	0	0	0	6	3
111912	11:26:39	10034	Trial2BackEngS	NS	17	0	1000	1	119	11:26:39	2874559	3	1	3	3	3	3	3	3	2	8	4	2	0	0	0	6	3
111912	11:26:39	10034	Trial2BackEngS	NS	17	0	1000	1	119	11:26:39	2876079	3	1	3	3	3	3	3	3	2	8	4	2	0	0	0	6	3
111912	11:26:39	10034	Trial2BackEngS	NS	17	0	1000	1	119	11:26:39	2877585	3	1	3	3	3	3	3	3	2	8	4	2	0	0	0	6	3
111912	11:26:39	10034	Trial2BackEngS	NS	17	0	1000	1	119	11:26:39	2879091	3	1	3	3	3	3	3	3	2	8	4	2	0	0	0	6	3
111912	11:26:39	10034	Trial2BackEngS	NS	17	0	1000	1	119	11:26:39	2880597	3	1	3	3	3	3	3	3	2	8	4	2	0	0	0	6	3
111912	11:26:39	10034	Trial2BackEngS	NS	17	0	1000	1	119	11:26:39	2882103	3	1	3	3	3	3	3	3	2	8	4	2	0	0	0	6	3
111912	11:26:39	10034	Trial2BackEngS	YS	17	57	616	1	119	11:26:39	2883236	3	1	3	3	3	3	3	3	2	8	4	2	0	0	0	6	3
111912	11:26:39	10034	Trial2BackEngS	NS	17	0	1000	1	119	11:26:39	2885115	3	1	3	3	3	3	3	3	2	8	4	2	0	0	0	6	3
111912	11:26:39	10034	Trial2BackEngS	NS	17	0	1000	1	119	11:26:39	2886621	3	1	3	3	3	3	3	3	2	8	4	2	0	0	0	6	3
111912	11:26:39	10034	Trial2BackEngS	NS	17	0	1000	1	119	11:26:39	2888128	3	1	3	3	3	3	3	3	2	8	4	2	0	0	0	6	3
111912	11:26:39	10034	Trial2BackEngS	NS	17	0	1000	1	119	11:26:39	2889634	3	1	3	3	3	3	3	3	2	8	4	2	0	0	0	6	3
111912	11:26:39	10034	Trial2BackEngS	YS	17	0	1000	0	119	11:26:39	2891139	3	1	3	3	3	3	3	3	2	8	4	2	0	0	0	6	3
111912	11:26:39	10034	Trial2BackEngS	NS	17	0	1000	1	119	11:26:39	2892646	3	1	3	3	3	3	3	3	2	8	4	2	0	0	0	6	3
111912	11:26:39	10034	Trial2BackEngS	NS	17	0	1000	1	119	11:26:39	2894152	3	1	3	3	3	3	3	3	2	8	4	2	0	0	0	6	3
111912	11:26:39	10034	Trial2BackEngS	NS	17	0	1000	1	119	11:26:39	2895658	3	1	3	3	3	3	3	3	2	8	4	2	0	0	0	6	3
111912	11:26:39	10034	Trial2BackEngS	NS	17	57	442	0	119	11:26:39	2896618	3	1	3	3	3	3	3	3	2	8	4	2	0	0	0	6	3
111912	11:26:39	10034	Trial2BackEngS	YS	17	0	1000	0	119	11:26:39	2898670	3	1	3	3	3	3	3	3	2	8	4	2	0	0	0	6	3
111912	11:26:39	10034	Trial2BackEngS	NS	17	0	1000	1	119	11:26:39	2900176	3	1	3	3	3	3	3	3	2	8	4	2	0	0	0	6	3
111912	11:26:39	10034	Trial2BackEngS	NS	17	0	1000	1	119	11:26:39	2901682	3	1	3	3	3	3	3	3	2	8	4	2	0	0	0	6	3
111912	11:26:39	10034	Trial2BackEngS	YS	17	57	661	1	119	11:26:39	2902855	3	1	3	3	3	3	3	3	2	8	4	2	0	0	0	6	3
111912	11:26:39	10034	Trial2BackEngS	NS	17	0	1000	1	119	11:26:39	2904694	3	1	3	3	3	3	3	3	2	8	4	2	0	0	0	6	3
111912	11:26:39	10034	Trial2BackEngS	NS	17	0	1000	1	119	11:26:39	2906200	3	1	3	3	3	3	3	3	2	8	4	2	0	0	0	6	3
111912	11:26:39	10034	Trial2BackEngS	NS	17	57	812	0	119	11:26:39	2907533	3	1	3	3	3	3	3	3	2	8	4	2	0	0	0	6	3
111912	11:26:39	10034	Trial2BackEngS	NS	17	0	1000	1	119	11:26:39	2909212	3	1	3	3	3	3	3	3	2	8	4	2	0	0	0	6	3
111912	11:26:39	10034	Trial2BackEngS	NS	17	0	1000	1	119	11:26:39	2910719	3	1	3	3	3	3	3	3	2	8	4	2	0	0	0	6	3
111912	11:26:39	10034	Trial2BackEngS	NS	17	0	1000	1	119	11:26:39	2912225	3	1	3	3	3	3	3	3	2	8	4	2	0	0	0	6	3
111912	11:26:39	10034	Trial2BackEngS	NS	17	0	1000	1	119	11:26:39	2913731	3	1	3	3	3	3	3	3	2	8	4	2	0	0	0	6	3
111912	11:26:39	10034	Trial2BackEngS	NS	17	0	1000	1	119	11:26:39	2915237	3	1	3	3	3	3	3	3	2	8	4	2	0	0	0	6	3
111912	11:26:39	10034	Trial2BackEngS	YS	17	57	735	1	119	11:26:39	2916490	3	1	3	3	3	3	3	3	2	8	4	2	0	0	0	6	3
111912	11:26:39	10034	Trial2BackEngS	NS	17	0	1000	1	119	11:26:39	2918249	3	1	3	3	3	3	3	3	2	8	4	2	0	0	0	6	3
111912	11:26:39	10034	Trial2BackEngS	NS	17	0	1000	1	119	11:26:39	2919755	3	1	3	3	3	3	3	3	2	8	4	2	0	0	0	6	3
111912	11:26:39	10034	Trial2BackEngS	NS	17	0	1000	1	119	11:26:39	2921261	3	1	3	3	3	3	3	3	2	8	4	2	0	0	0	6	3
111912	11:26:39	10034	Trial2BackEngS	NS	17	0	1000	1	119	11:26:39	2922780	3	1	3	3	3	3	3	3	2	8	4	2	0	0	0	6	3
111912	11:26:39	10034	Trial2BackEngS	NS	17	0	1000	1	119	11:26:39	2924287	3	1	3	3	3	3	3	3	2	8	4	2	0	0	0	6	3
111912	11:26:39	10034	Trial2BackEngS	NS	17	0	1000	1	119	11:26:39	2925793	3	1	3	3	3	3	3	3	2	8	4	2	0	0	0	6	3
111912	11:26:39	10034	Trial2BackEngS	NS	17	0	1000	1	119	11:26:39	2927298	3	1	3	3	3	3	3	3	2	8	4	2	0	0	0	6	3
111912	11:26:39	10034	Trial2BackEngS	YS	17	57	911	1	119	11:26:39	2928725	3	1	3	3	3	3	3	3	2	8	4	2	0	0	0	6	3
111912	11:26:39	10034	Trial2BackEngS	NS	17	0	1000	1	119	11:26:39	2930311	3	1	3	3	3	3	3	3	2	8	4	2	0	0	0	6	3
111912	11:26:39	10034	Trial2BackEngS	NS	17	0	1000	1	119	11:26:39	2931830	3	1	3	3	3	3	3	3	2	8	4	2	0	0	0	6	3
111912	11:26:39	10034	Trial2BackEngS	NS	17	0	1000	1	119	11:26:39	2933336	3	1	3	3	3	3	3	3	2	8	4	2	0	0	0	6	3
111912	11:26:39	10034	Trial2BackEngS	NS	17	57	702	0	119	11:26:39	2934549	3	1	3	3	3	3	3	3	2	8	4	2	0	0	0	6	3
111912	11:26:39	10034	Trial2BackEngS	NS	17	0	1000	1	119	11:26:39	2936349	3	1	3	3	3	3	3	3	2	8	4	2	0	0	0	6	3
111912	11:26:39	10034	Trial2BackEngS	NS	17	0	1000	1	119	11:26:39	2937868	3	1	3	3	3	3	3	3	2	8	4	2	0	0	0	6	3
111912	11:26:39	10034	Trial2BackEngS	NS	17	0	1000	1	119	11:26:39	2939387	3	1	3	3	3	3	3	3	2	8	4	2	0	0	0	6	3
111912	11:26:39	10034	Trial2BackEngS	NS	17	0	1000	1	119	11:26:39	2940893	3	1	3	3	3	3	3	3	2	8	4	2	0	0	0	6	3
111912	11:26:39	10034	Trial2BackEngS	NS	17	0	1000	1	119	11:26:39	2942413	3	1	3	3	3	3	3	3	2	8	4	2	0	0	0	6	3
111912	11:26:39	10034	Trial2BackEngS	YS	17	57	601	1	119	11:26:39	2943532	3	1	3	3	3	3	3	3	2	8	4	2	0	0	0	6	3
111912	11:26:39	10034	Trial2BackEngS	NS	17	0	1000	1	119	11:26:39	2945425	3	1	3	3	3	3	3	3	2	8	4	2	0	0	0	6	3
111912	11:26:39	10034	ClockEng3mo	ClockEng3mo	19	Clock11	43465	0	119	11:26:39	2989021	3	1	3	3	3	3	3	3	2	8	4	2	0	1	0	6	3
111912	11:26:39	10034	ClockEng3mo	ClockEng3mo	19	Clock1	1001	0	119	11:26:39	2990101	3	1	3	3	3	3	3	3	2	8	4	2	1	1	0	6	3
111912	11:26:39	10034	ClockEng3mo	ClockEng3mo	19	Clock111	991	0	119	11:26:39	2991154	3	1	3	3	3	3	3	3	2	8	4	2	1	1	1	6	3
111912	11:26:39	10034	ClockEng3mo	ClockEng3mo	19	Clockdone	594	0	119	11:26:39	2991811	3	1	3	3	3	3	3	3	2	8	4	2	1	1	1	6	3
111912	11:26:39	10034	FASEngVF3mo	StopEngVF3mo	20	13	4786	0	119	11:26:39	3087544	3	1	3	3	3	3	3	3	2	8	4	2	1	1	1	6	3
