date	time	subject	blockcode	trialcode	values.TaskNumber	response	latency	correct	values.Score	script.starttime	script.elapsedtime	values.ScoreS7	values.Word1	values.Word2	values.Word3	values.Word4	values.Word5	values.Word6	values.Word7	values.Word8	values.DigitSpanFwrd	values.DigitSpanBack	values.ScoreAbs	values.Contour	values.Numbers	values.Hands	values.corsiblockspanFwrd	values.corsiblockspanRev
120712	08:59:19	10040	Language	Language	0	English	1419844	0	0	08:59:19	1420171	0	0	0	0	0	0	0	0	0	0	0	0	0	0	0	0	0
120712	08:59:19	10040	Session	Session	0	3mo	918	0	0	08:59:19	1421157	0	0	0	0	0	0	0	0	0	0	0	0	0	0	0	0	0
120712	08:59:19	10040	HandEng	HandEng	0	Right	908	0	0	08:59:19	1422130	0	0	0	0	0	0	0	0	0	0	0	0	0	0	0	0	0
120712	08:59:19	10040	CubeEng	CubeEng	1	1Cube	23164	0	0	08:59:19	2704796	0	0	0	0	0	0	0	0	0	0	0	0	0	0	0	0	0
120712	08:59:19	10040	pm.simpleEngRight	blank.simpleEng	2	0	2200	1	0	08:59:19	2732771	0	0	0	0	0	0	0	0	0	0	0	0	0	0	0	0	0
120712	08:59:19	10040	pm.simpleEngRight	pm.simpleEng	2	57	490	0	0	08:59:19	2733278	0	0	0	0	0	0	0	0	0	0	0	0	0	0	0	0	0
120712	08:59:19	10040	pm.simpleEngRight	blank.simpleEng	2	0	2400	1	0	08:59:19	2735690	0	0	0	0	0	0	0	0	0	0	0	0	0	0	0	0	0
120712	08:59:19	10040	pm.simpleEngRight	pm.simpleEng	2	57	291	0	0	08:59:19	2736010	0	0	0	0	0	0	0	0	0	0	0	0	0	0	0	0	0
120712	08:59:19	10040	pm.simpleEngRight	blank.simpleEng	2	0	2500	1	0	08:59:19	2738529	0	0	0	0	0	0	0	0	0	0	0	0	0	0	0	0	0
120712	08:59:19	10040	pm.simpleEngRight	pm.simpleEng	2	57	332	0	0	08:59:19	2738889	0	0	0	0	0	0	0	0	0	0	0	0	0	0	0	0	0
120712	08:59:19	10040	pm.simpleEngRight	blank.simpleEng	2	0	2100	1	0	08:59:19	2741008	0	0	0	0	0	0	0	0	0	0	0	0	0	0	0	0	0
120712	08:59:19	10040	pm.simpleEngRight	pm.simpleEng	2	57	381	0	0	08:59:19	2741407	0	0	0	0	0	0	0	0	0	0	0	0	0	0	0	0	0
120712	08:59:19	10040	pm.simpleEngRight	blank.simpleEng	2	0	2000	1	0	08:59:19	2743420	0	0	0	0	0	0	0	0	0	0	0	0	0	0	0	0	0
120712	08:59:19	10040	pm.simpleEngRight	pm.simpleEng	2	57	496	0	0	08:59:19	2743940	0	0	0	0	0	0	0	0	0	0	0	0	0	0	0	0	0
120712	08:59:19	10040	pm.simpleEngRight	blank.simpleEng	2	0	1700	1	0	08:59:19	2745659	0	0	0	0	0	0	0	0	0	0	0	0	0	0	0	0	0
120712	08:59:19	10040	pm.simpleEngRight	pm.simpleEng	2	57	514	0	0	08:59:19	2746193	0	0	0	0	0	0	0	0	0	0	0	0	0	0	0	0	0
120712	08:59:19	10040	pm.simpleEngRight	blank.simpleEng	2	0	2300	1	0	08:59:19	2748512	0	0	0	0	0	0	0	0	0	0	0	0	0	0	0	0	0
120712	08:59:19	10040	pm.simpleEngRight	pm.simpleEng	2	57	388	0	0	08:59:19	2748925	0	0	0	0	0	0	0	0	0	0	0	0	0	0	0	0	0
120712	08:59:19	10040	pm.simpleEngRight	blank.simpleEng	2	0	1800	1	0	08:59:19	2750737	0	0	0	0	0	0	0	0	0	0	0	0	0	0	0	0	0
120712	08:59:19	10040	pm.simpleEngRight	pm.simpleEng	2	57	396	0	0	08:59:19	2751151	0	0	0	0	0	0	0	0	0	0	0	0	0	0	0	0	0
120712	08:59:19	10040	pm.simpleEngRight	blank.simpleEng	2	0	1900	1	0	08:59:19	2753070	0	0	0	0	0	0	0	0	0	0	0	0	0	0	0	0	0
120712	08:59:19	10040	pm.simpleEngRight	pm.simpleEng	2	57	415	0	0	08:59:19	2753509	0	0	0	0	0	0	0	0	0	0	0	0	0	0	0	0	0
120712	08:59:19	10040	pm.simpleEngRight	blank.simpleEng	2	0	1500	1	0	08:59:19	2755029	0	0	0	0	0	0	0	0	0	0	0	0	0	0	0	0	0
120712	08:59:19	10040	pm.simpleEngRight	pm.simpleEng	2	57	600	0	0	08:59:19	2755655	0	0	0	0	0	0	0	0	0	0	0	0	0	0	0	0	0
120712	08:59:19	10040	pm.simpleEngRight	blank.simpleEng	2	0	1600	1	0	08:59:19	2757268	0	0	0	0	0	0	0	0	0	0	0	0	0	0	0	0	0
120712	08:59:19	10040	pm.simpleEngRight	pm.simpleEng	2	57	553	0	0	08:59:19	2757841	0	0	0	0	0	0	0	0	0	0	0	0	0	0	0	0	0
120712	08:59:19	10040	pm.simpleEngRight	blank.simpleEng	2	0	1600	1	0	08:59:19	2759454	0	0	0	0	0	0	0	0	0	0	0	0	0	0	0	0	0
120712	08:59:19	10040	pm.simpleEngRight	pm.simpleEng	2	57	778	0	0	08:59:19	2760254	0	0	0	0	0	0	0	0	0	0	0	0	0	0	0	0	0
120712	08:59:19	10040	pm.simpleEngRight	blank.simpleEng	2	0	2000	1	0	08:59:19	2762266	0	0	0	0	0	0	0	0	0	0	0	0	0	0	0	0	0
120712	08:59:19	10040	pm.simpleEngRight	pm.simpleEng	2	57	290	0	0	08:59:19	2762586	0	0	0	0	0	0	0	0	0	0	0	0	0	0	0	0	0
120712	08:59:19	10040	pm.simpleEngRight	blank.simpleEng	2	0	2500	1	0	08:59:19	2765105	0	0	0	0	0	0	0	0	0	0	0	0	0	0	0	0	0
120712	08:59:19	10040	pm.simpleEngRight	pm.simpleEng	2	57	316	0	0	08:59:19	2765438	0	0	0	0	0	0	0	0	0	0	0	0	0	0	0	0	0
120712	08:59:19	10040	pm.simpleEngRight	blank.simpleEng	2	0	1500	1	0	08:59:19	2766957	0	0	0	0	0	0	0	0	0	0	0	0	0	0	0	0	0
120712	08:59:19	10040	pm.simpleEngRight	pm.simpleEng	2	57	383	0	0	08:59:19	2767357	0	0	0	0	0	0	0	0	0	0	0	0	0	0	0	0	0
120712	08:59:19	10040	pm.simpleEngRight	blank.simpleEng	2	0	2100	1	0	08:59:19	2769476	0	0	0	0	0	0	0	0	0	0	0	0	0	0	0	0	0
120712	08:59:19	10040	pm.simpleEngRight	pm.simpleEng	2	57	280	0	0	08:59:19	2769783	0	0	0	0	0	0	0	0	0	0	0	0	0	0	0	0	0
120712	08:59:19	10040	pm.simpleEngRight	blank.simpleEng	2	0	1700	1	0	08:59:19	2771502	0	0	0	0	0	0	0	0	0	0	0	0	0	0	0	0	0
120712	08:59:19	10040	pm.simpleEngRight	pm.simpleEng	2	57	350	0	0	08:59:19	2771875	0	0	0	0	0	0	0	0	0	0	0	0	0	0	0	0	0
120712	08:59:19	10040	pm.simpleEngRight	blank.simpleEng	2	0	2200	1	0	08:59:19	2774088	0	0	0	0	0	0	0	0	0	0	0	0	0	0	0	0	0
120712	08:59:19	10040	pm.simpleEngRight	pm.simpleEng	2	57	341	0	0	08:59:19	2774448	0	0	0	0	0	0	0	0	0	0	0	0	0	0	0	0	0
120712	08:59:19	10040	pm.simpleEngRight	blank.simpleEng	2	0	2400	1	0	08:59:19	2776940	0	0	0	0	0	0	0	0	0	0	0	0	0	0	0	0	0
120712	08:59:19	10040	pm.simpleEngRight	pm.simpleEng	2	57	384	0	0	08:59:19	2777353	0	0	0	0	0	0	0	0	0	0	0	0	0	0	0	0	0
120712	08:59:19	10040	pm.simpleEngRight	blank.simpleEng	2	0	2300	1	0	08:59:19	2779672	0	0	0	0	0	0	0	0	0	0	0	0	0	0	0	0	0
120712	08:59:19	10040	pm.simpleEngRight	pm.simpleEng	2	57	516	0	0	08:59:19	2780205	0	0	0	0	0	0	0	0	0	0	0	0	0	0	0	0	0
120712	08:59:19	10040	pm.simpleEngRight	blank.simpleEng	2	0	1800	1	0	08:59:19	2782018	0	0	0	0	0	0	0	0	0	0	0	0	0	0	0	0	0
120712	08:59:19	10040	pm.simpleEngRight	pm.simpleEng	2	57	538	0	0	08:59:19	2782578	0	0	0	0	0	0	0	0	0	0	0	0	0	0	0	0	0
120712	08:59:19	10040	pm.simpleEngRight	blank.simpleEng	2	0	1900	1	0	08:59:19	2784497	0	0	0	0	0	0	0	0	0	0	0	0	0	0	0	0	0
120712	08:59:19	10040	pm.simpleEngRight	pm.simpleEng	2	57	283	0	0	08:59:19	2784804	0	0	0	0	0	0	0	0	0	0	0	0	0	0	0	0	0
120712	08:59:19	10040	pm.simpleEngRight	blank.simpleEng	2	0	2400	1	0	08:59:19	2787229	0	0	0	0	0	0	0	0	0	0	0	0	0	0	0	0	0
120712	08:59:19	10040	pm.simpleEngRight	pm.simpleEng	2	57	463	0	0	08:59:19	2787709	0	0	0	0	0	0	0	0	0	0	0	0	0	0	0	0	0
120712	08:59:19	10040	pm.simpleEngRight	blank.simpleEng	2	0	1800	1	0	08:59:19	2789522	0	0	0	0	0	0	0	0	0	0	0	0	0	0	0	0	0
120712	08:59:19	10040	pm.simpleEngRight	pm.simpleEng	2	57	506	0	0	08:59:19	2790055	0	0	0	0	0	0	0	0	0	0	0	0	0	0	0	0	0
120712	08:59:19	10040	pm.simpleEngRight	blank.simpleEng	2	0	2500	1	0	08:59:19	2792574	0	0	0	0	0	0	0	0	0	0	0	0	0	0	0	0	0
120712	08:59:19	10040	pm.simpleEngRight	pm.simpleEng	2	57	302	0	0	08:59:19	2792893	0	0	0	0	0	0	0	0	0	0	0	0	0	0	0	0	0
120712	08:59:19	10040	pm.simpleEngRight	blank.simpleEng	2	0	2000	1	0	08:59:19	2794906	0	0	0	0	0	0	0	0	0	0	0	0	0	0	0	0	0
120712	08:59:19	10040	pm.simpleEngRight	pm.simpleEng	2	57	386	0	0	08:59:19	2795319	0	0	0	0	0	0	0	0	0	0	0	0	0	0	0	0	0
120712	08:59:19	10040	pm.simpleEngRight	blank.simpleEng	2	0	1700	1	0	08:59:19	2797039	0	0	0	0	0	0	0	0	0	0	0	0	0	0	0	0	0
120712	08:59:19	10040	pm.simpleEngRight	pm.simpleEng	2	57	461	0	0	08:59:19	2797518	0	0	0	0	0	0	0	0	0	0	0	0	0	0	0	0	0
120712	08:59:19	10040	pm.simpleEngRight	blank.simpleEng	2	0	2200	1	0	08:59:19	2799731	0	0	0	0	0	0	0	0	0	0	0	0	0	0	0	0	0
120712	08:59:19	10040	pm.simpleEngRight	pm.simpleEng	2	57	409	0	0	08:59:19	2800158	0	0	0	0	0	0	0	0	0	0	0	0	0	0	0	0	0
120712	08:59:19	10040	pm.simpleEngRight	blank.simpleEng	2	0	2100	1	0	08:59:19	2802277	0	0	0	0	0	0	0	0	0	0	0	0	0	0	0	0	0
120712	08:59:19	10040	pm.simpleEngRight	pm.simpleEng	2	57	392	0	0	08:59:19	2802690	0	0	0	0	0	0	0	0	0	0	0	0	0	0	0	0	0
120712	08:59:19	10040	pm.simpleEngRight	blank.simpleEng	2	0	1600	1	0	08:59:19	2804302	0	0	0	0	0	0	0	0	0	0	0	0	0	0	0	0	0
120712	08:59:19	10040	pm.simpleEngRight	pm.simpleEng	2	57	381	0	0	08:59:19	2804702	0	0	0	0	0	0	0	0	0	0	0	0	0	0	0	0	0
120712	08:59:19	10040	pm.simpleEngRight	blank.simpleEng	2	0	1500	1	0	08:59:19	2806222	0	0	0	0	0	0	0	0	0	0	0	0	0	0	0	0	0
120712	08:59:19	10040	pm.simpleEngRight	pm.simpleEng	2	57	542	0	0	08:59:19	2806781	0	0	0	0	0	0	0	0	0	0	0	0	0	0	0	0	0
120712	08:59:19	10040	pm.simpleEngRight	blank.simpleEng	2	0	2300	1	0	08:59:19	2809100	0	0	0	0	0	0	0	0	0	0	0	0	0	0	0	0	0
120712	08:59:19	10040	pm.simpleEngRight	pm.simpleEng	2	57	415	0	0	08:59:19	2809540	0	0	0	0	0	0	0	0	0	0	0	0	0	0	0	0	0
120712	08:59:19	10040	pm.simpleEngRight	blank.simpleEng	2	0	1900	1	0	08:59:19	2811459	0	0	0	0	0	0	0	0	0	0	0	0	0	0	0	0	0
120712	08:59:19	10040	pm.simpleEngRight	pm.simpleEng	2	57	392	0	0	08:59:19	2811873	0	0	0	0	0	0	0	0	0	0	0	0	0	0	0	0	0
120712	08:59:19	10040	pm.simpleEngRight	blank.simpleEng	2	0	2000	1	0	08:59:19	2813885	0	0	0	0	0	0	0	0	0	0	0	0	0	0	0	0	0
120712	08:59:19	10040	pm.simpleEngRight	pm.simpleEng	2	57	510	0	0	08:59:19	2814418	0	0	0	0	0	0	0	0	0	0	0	0	0	0	0	0	0
120712	08:59:19	10040	pm.simpleEngRight	blank.simpleEng	2	0	1600	1	0	08:59:19	2816031	0	0	0	0	0	0	0	0	0	0	0	0	0	0	0	0	0
120712	08:59:19	10040	pm.simpleEngRight	pm.simpleEng	2	57	412	0	0	08:59:19	2816471	0	0	0	0	0	0	0	0	0	0	0	0	0	0	0	0	0
120712	08:59:19	10040	pm.simpleEngRight	blank.simpleEng	2	0	2500	1	0	08:59:19	2818990	0	0	0	0	0	0	0	0	0	0	0	0	0	0	0	0	0
120712	08:59:19	10040	pm.simpleEngRight	pm.simpleEng	2	57	525	0	0	08:59:19	2819536	0	0	0	0	0	0	0	0	0	0	0	0	0	0	0	0	0
120712	08:59:19	10040	pm.simpleEngRight	blank.simpleEng	2	0	1800	1	0	08:59:19	2821349	0	0	0	0	0	0	0	0	0	0	0	0	0	0	0	0	0
120712	08:59:19	10040	pm.simpleEngRight	pm.simpleEng	2	57	631	0	0	08:59:19	2822002	0	0	0	0	0	0	0	0	0	0	0	0	0	0	0	0	0
120712	08:59:19	10040	pm.simpleEngRight	blank.simpleEng	2	0	1700	1	0	08:59:19	2823721	0	0	0	0	0	0	0	0	0	0	0	0	0	0	0	0	0
120712	08:59:19	10040	pm.simpleEngRight	pm.simpleEng	2	57	290	0	0	08:59:19	2824028	0	0	0	0	0	0	0	0	0	0	0	0	0	0	0	0	0
120712	08:59:19	10040	pm.simpleEngRight	blank.simpleEng	2	0	2400	1	0	08:59:19	2826440	0	0	0	0	0	0	0	0	0	0	0	0	0	0	0	0	0
120712	08:59:19	10040	pm.simpleEngRight	pm.simpleEng	2	57	419	0	0	08:59:19	2826880	0	0	0	0	0	0	0	0	0	0	0	0	0	0	0	0	0
120712	08:59:19	10040	pm.simpleEngRight	blank.simpleEng	2	0	2100	1	0	08:59:19	2828999	0	0	0	0	0	0	0	0	0	0	0	0	0	0	0	0	0
120712	08:59:19	10040	pm.simpleEngRight	pm.simpleEng	2	57	452	0	0	08:59:19	2829479	0	0	0	0	0	0	0	0	0	0	0	0	0	0	0	0	0
120712	08:59:19	10040	Trial2BackEng	N	3	0	1000	1	1	08:59:19	2881111	0	0	0	0	0	0	0	0	0	0	0	0	0	0	0	0	0
120712	08:59:19	10040	Trial2BackEng	N	3	0	1000	1	2	08:59:19	2882617	0	0	0	0	0	0	0	0	0	0	0	0	0	0	0	0	0
120712	08:59:19	10040	Trial2BackEng	N	3	0	1000	1	3	08:59:19	2884123	0	0	0	0	0	0	0	0	0	0	0	0	0	0	0	0	0
120712	08:59:19	10040	Trial2BackEng	N	3	0	1000	1	4	08:59:19	2885629	0	0	0	0	0	0	0	0	0	0	0	0	0	0	0	0	0
120712	08:59:19	10040	Trial2BackEng	N	3	0	1000	1	5	08:59:19	2887136	0	0	0	0	0	0	0	0	0	0	0	0	0	0	0	0	0
120712	08:59:19	10040	Trial2BackEng	N	3	0	1000	1	6	08:59:19	2888642	0	0	0	0	0	0	0	0	0	0	0	0	0	0	0	0	0
120712	08:59:19	10040	Trial2BackEng	N	3	0	1000	1	7	08:59:19	2890148	0	0	0	0	0	0	0	0	0	0	0	0	0	0	0	0	0
120712	08:59:19	10040	Trial2BackEng	N	3	0	1000	1	8	08:59:19	2891654	0	0	0	0	0	0	0	0	0	0	0	0	0	0	0	0	0
120712	08:59:19	10040	Trial2BackEng	Y	3	57	920	1	9	08:59:19	2893093	0	0	0	0	0	0	0	0	0	0	0	0	0	0	0	0	0
120712	08:59:19	10040	Trial2BackEng	N	3	0	1000	1	10	08:59:19	2894666	0	0	0	0	0	0	0	0	0	0	0	0	0	0	0	0	0
120712	08:59:19	10040	Trial2BackEng	N	3	0	1000	1	11	08:59:19	2896172	0	0	0	0	0	0	0	0	0	0	0	0	0	0	0	0	0
120712	08:59:19	10040	Trial2BackEng	N	3	0	1000	1	12	08:59:19	2897678	0	0	0	0	0	0	0	0	0	0	0	0	0	0	0	0	0
120712	08:59:19	10040	Trial2BackEng	Y	3	57	448	1	13	08:59:19	2898638	0	0	0	0	0	0	0	0	0	0	0	0	0	0	0	0	0
120712	08:59:19	10040	Trial2BackEng	N	3	0	1000	1	14	08:59:19	2900690	0	0	0	0	0	0	0	0	0	0	0	0	0	0	0	0	0
120712	08:59:19	10040	Trial2BackEng	N	3	0	1000	1	15	08:59:19	2902196	0	0	0	0	0	0	0	0	0	0	0	0	0	0	0	0	0
120712	08:59:19	10040	Trial2BackEng	N	3	0	1000	1	16	08:59:19	2903702	0	0	0	0	0	0	0	0	0	0	0	0	0	0	0	0	0
120712	08:59:19	10040	Trial2BackEng	N	3	0	1000	1	17	08:59:19	2905208	0	0	0	0	0	0	0	0	0	0	0	0	0	0	0	0	0
120712	08:59:19	10040	Trial2BackEng	N	3	0	1000	1	18	08:59:19	2906714	0	0	0	0	0	0	0	0	0	0	0	0	0	0	0	0	0
120712	08:59:19	10040	Trial2BackEng	Y	3	0	1000	0	18	08:59:19	2908220	0	0	0	0	0	0	0	0	0	0	0	0	0	0	0	0	0
120712	08:59:19	10040	Trial2BackEng	N	3	0	1000	1	19	08:59:19	2909727	0	0	0	0	0	0	0	0	0	0	0	0	0	0	0	0	0
120712	08:59:19	10040	Trial2BackEng	N	3	0	1000	1	20	08:59:19	2911246	0	0	0	0	0	0	0	0	0	0	0	0	0	0	0	0	0
120712	08:59:19	10040	Trial2BackEng	N	3	0	1000	1	21	08:59:19	2912752	0	0	0	0	0	0	0	0	0	0	0	0	0	0	0	0	0
120712	08:59:19	10040	Trial2BackEng	N	3	0	1000	1	22	08:59:19	2914258	0	0	0	0	0	0	0	0	0	0	0	0	0	0	0	0	0
120712	08:59:19	10040	Trial2BackEng	Y	3	0	1000	0	22	08:59:19	2915764	0	0	0	0	0	0	0	0	0	0	0	0	0	0	0	0	0
120712	08:59:19	10040	Trial2BackEng	N	3	0	1000	1	23	08:59:19	2917270	0	0	0	0	0	0	0	0	0	0	0	0	0	0	0	0	0
120712	08:59:19	10040	Trial2BackEng	N	3	0	1000	1	24	08:59:19	2918776	0	0	0	0	0	0	0	0	0	0	0	0	0	0	0	0	0
120712	08:59:19	10040	Trial2BackEng	N	3	0	1000	1	25	08:59:19	2920282	0	0	0	0	0	0	0	0	0	0	0	0	0	0	0	0	0
120712	08:59:19	10040	Trial2BackEng	N	3	0	1000	1	26	08:59:19	2921788	0	0	0	0	0	0	0	0	0	0	0	0	0	0	0	0	0
120712	08:59:19	10040	Trial2BackEng	N	3	0	1000	1	27	08:59:19	2923294	0	0	0	0	0	0	0	0	0	0	0	0	0	0	0	0	0
120712	08:59:19	10040	Trial2BackEng	N	3	0	1000	1	28	08:59:19	2924814	0	0	0	0	0	0	0	0	0	0	0	0	0	0	0	0	0
120712	08:59:19	10040	Trial2BackEng	Y	3	57	656	1	29	08:59:19	2925986	0	0	0	0	0	0	0	0	0	0	0	0	0	0	0	0	0
120712	08:59:19	10040	Trial2BackEng	N	3	0	1000	1	30	08:59:19	2927826	0	0	0	0	0	0	0	0	0	0	0	0	0	0	0	0	0
120712	08:59:19	10040	Trial2BackEng	N	3	0	1000	1	31	08:59:19	2929332	0	0	0	0	0	0	0	0	0	0	0	0	0	0	0	0	0
120712	08:59:19	10040	Trial2BackEng	N	3	0	1000	1	32	08:59:19	2930838	0	0	0	0	0	0	0	0	0	0	0	0	0	0	0	0	0
120712	08:59:19	10040	Trial2BackEng	Y	3	57	648	1	33	08:59:19	2931997	0	0	0	0	0	0	0	0	0	0	0	0	0	0	0	0	0
120712	08:59:19	10040	Trial2BackEng	N	3	0	1000	1	34	08:59:19	2933850	0	0	0	0	0	0	0	0	0	0	0	0	0	0	0	0	0
120712	08:59:19	10040	Trial2BackEng	N	3	0	1000	1	35	08:59:19	2935369	0	0	0	0	0	0	0	0	0	0	0	0	0	0	0	0	0
120712	08:59:19	10040	Trial2BackEng	N	3	0	1000	1	36	08:59:19	2936875	0	0	0	0	0	0	0	0	0	0	0	0	0	0	0	0	0
120712	08:59:19	10040	Trial2BackEng	N	3	0	1000	1	37	08:59:19	2938381	0	0	0	0	0	0	0	0	0	0	0	0	0	0	0	0	0
120712	08:59:19	10040	Trial2BackEng	N	3	0	1000	1	38	08:59:19	2939888	0	0	0	0	0	0	0	0	0	0	0	0	0	0	0	0	0
120712	08:59:19	10040	Trial2BackEng	N	3	0	1000	1	39	08:59:19	2941394	0	0	0	0	0	0	0	0	0	0	0	0	0	0	0	0	0
120712	08:59:19	10040	Trial2BackEng	Y	3	57	715	1	40	08:59:19	2942620	0	0	0	0	0	0	0	0	0	0	0	0	0	0	0	0	0
120712	08:59:19	10040	Trial2BackEng	N	3	0	1000	1	41	08:59:19	2944406	0	0	0	0	0	0	0	0	0	0	0	0	0	0	0	0	0
120712	08:59:19	10040	Trial2BackEng	N	3	0	1000	1	42	08:59:19	2945912	0	0	0	0	0	0	0	0	0	0	0	0	0	0	0	0	0
120712	08:59:19	10040	Trial2BackEng	N	3	0	1000	1	43	08:59:19	2947418	0	0	0	0	0	0	0	0	0	0	0	0	0	0	0	0	0
120712	08:59:19	10040	Trial2BackEng	N	3	0	1000	1	44	08:59:19	2948924	0	0	0	0	0	0	0	0	0	0	0	0	0	0	0	0	0
120712	08:59:19	10040	Trial2BackEng	Y	3	57	705	1	45	08:59:19	2950137	0	0	0	0	0	0	0	0	0	0	0	0	0	0	0	0	0
120712	08:59:19	10040	Trial2BackEng	N	3	0	1000	1	46	08:59:19	2951936	0	0	0	0	0	0	0	0	0	0	0	0	0	0	0	0	0
120712	08:59:19	10040	Trial2BackEng	N	3	0	1000	1	47	08:59:19	2953442	0	0	0	0	0	0	0	0	0	0	0	0	0	0	0	0	0
120712	08:59:19	10040	Trial2BackEng	N	3	0	1000	1	48	08:59:19	2954948	0	0	0	0	0	0	0	0	0	0	0	0	0	0	0	0	0
120712	08:59:19	10040	Trial2BackEng	N	3	0	1000	1	49	08:59:19	2956454	0	0	0	0	0	0	0	0	0	0	0	0	0	0	0	0	0
120712	08:59:19	10040	Trial2BackEng	N	3	0	1000	1	50	08:59:19	2957960	0	0	0	0	0	0	0	0	0	0	0	0	0	0	0	0	0
120712	08:59:19	10040	Trial2BackEng	Y	3	57	708	1	51	08:59:19	2959187	0	0	0	0	0	0	0	0	0	0	0	0	0	0	0	0	0
120712	08:59:19	10040	Trial2BackEng	N	3	0	1000	1	52	08:59:19	2960972	0	0	0	0	0	0	0	0	0	0	0	0	0	0	0	0	0
120712	08:59:19	10040	Trial2BackEng	N	3	0	1000	1	53	08:59:19	2962478	0	0	0	0	0	0	0	0	0	0	0	0	0	0	0	0	0
120712	08:59:19	10040	Trial2BackEng	N	3	0	1000	1	54	08:59:19	2963984	0	0	0	0	0	0	0	0	0	0	0	0	0	0	0	0	0
120712	08:59:19	10040	Trial2BackEng	N	3	0	1000	1	55	08:59:19	2965490	0	0	0	0	0	0	0	0	0	0	0	0	0	0	0	0	0
120712	08:59:19	10040	Trial2BackEng	N	3	0	1000	1	56	08:59:19	2966997	0	0	0	0	0	0	0	0	0	0	0	0	0	0	0	0	0
120712	08:59:19	10040	Trial2BackEng	N	3	0	1000	1	57	08:59:19	2968516	0	0	0	0	0	0	0	0	0	0	0	0	0	0	0	0	0
120712	08:59:19	10040	Trial2BackEng	Y	3	57	505	1	58	08:59:19	2969529	0	0	0	0	0	0	0	0	0	0	0	0	0	0	0	0	0
120712	08:59:19	10040	Trial2BackEng	N	3	0	1000	1	59	08:59:19	2971528	0	0	0	0	0	0	0	0	0	0	0	0	0	0	0	0	0
120712	08:59:19	10040	Trial2BackEng	N	3	0	1000	1	60	08:59:19	2973034	0	0	0	0	0	0	0	0	0	0	0	0	0	0	0	0	0
120712	08:59:19	10040	Trial2BackEng	Y	3	57	962	1	61	08:59:19	2974513	0	0	0	0	0	0	0	0	0	0	0	0	0	0	0	0	0
120712	08:59:19	10040	Trial2BackEng	N	3	0	1000	1	62	08:59:19	2976046	0	0	0	0	0	0	0	0	0	0	0	0	0	0	0	0	0
120712	08:59:19	10040	Trial2BackEng	N	3	0	1000	1	63	08:59:19	2977552	0	0	0	0	0	0	0	0	0	0	0	0	0	0	0	0	0
120712	08:59:19	10040	Trial2BackEng	N	3	0	1000	1	64	08:59:19	2979059	0	0	0	0	0	0	0	0	0	0	0	0	0	0	0	0	0
120712	08:59:19	10040	Trial2BackEng	N	3	0	1000	1	65	08:59:19	2980564	0	0	0	0	0	0	0	0	0	0	0	0	0	0	0	0	0
120712	08:59:19	10040	Trial2BackEng	N	3	0	1000	1	66	08:59:19	2982070	0	0	0	0	0	0	0	0	0	0	0	0	0	0	0	0	0
120712	08:59:19	10040	Trial2BackEng	N	3	0	1000	1	67	08:59:19	2983577	0	0	0	0	0	0	0	0	0	0	0	0	0	0	0	0	0
120712	08:59:19	10040	Trial2BackEng	N	3	0	1000	1	68	08:59:19	2985083	0	0	0	0	0	0	0	0	0	0	0	0	0	0	0	0	0
120712	08:59:19	10040	Trial2BackEng	N	3	0	1000	1	69	08:59:19	2986602	0	0	0	0	0	0	0	0	0	0	0	0	0	0	0	0	0
120712	08:59:19	10040	Trial2BackEng	N	3	0	1000	1	70	08:59:19	2988108	0	0	0	0	0	0	0	0	0	0	0	0	0	0	0	0	0
120712	08:59:19	10040	Trial2BackEng	N	3	0	1000	1	71	08:59:19	2989614	0	0	0	0	0	0	0	0	0	0	0	0	0	0	0	0	0
120712	08:59:19	10040	Trial2BackEng	Y	3	57	670	1	72	08:59:19	2990800	0	0	0	0	0	0	0	0	0	0	0	0	0	0	0	0	0
120712	08:59:19	10040	Trial2BackEng	N	3	0	1000	1	73	08:59:19	2992626	0	0	0	0	0	0	0	0	0	0	0	0	0	0	0	0	0
120712	08:59:19	10040	Trial2BackEng	N	3	0	1000	1	74	08:59:19	2994132	0	0	0	0	0	0	0	0	0	0	0	0	0	0	0	0	0
120712	08:59:19	10040	Trial2BackEng	N	3	0	1000	1	75	08:59:19	2995638	0	0	0	0	0	0	0	0	0	0	0	0	0	0	0	0	0
120712	08:59:19	10040	Trial2BackEng	Y	3	57	757	1	76	08:59:19	2996904	0	0	0	0	0	0	0	0	0	0	0	0	0	0	0	0	0
120712	08:59:19	10040	Trial2BackEng	N	3	0	1000	1	77	08:59:19	2998650	0	0	0	0	0	0	0	0	0	0	0	0	0	0	0	0	0
120712	08:59:19	10040	Trial2BackEng	N	3	0	1000	1	78	08:59:19	3000156	0	0	0	0	0	0	0	0	0	0	0	0	0	0	0	0	0
120712	08:59:19	10040	Trial2BackEng	N	3	0	1000	1	79	08:59:19	3001662	0	0	0	0	0	0	0	0	0	0	0	0	0	0	0	0	0
120712	08:59:19	10040	Trial2BackEng	N	3	0	1000	1	80	08:59:19	3003169	0	0	0	0	0	0	0	0	0	0	0	0	0	0	0	0	0
120712	08:59:19	10040	Trial2BackEng	N	3	0	1000	1	81	08:59:19	3004688	0	0	0	0	0	0	0	0	0	0	0	0	0	0	0	0	0
120712	08:59:19	10040	Trial2BackEng	Y	3	57	811	1	82	08:59:19	3006007	0	0	0	0	0	0	0	0	0	0	0	0	0	0	0	0	0
120712	08:59:19	10040	Trial2BackEng	N	3	0	1000	1	83	08:59:19	3007700	0	0	0	0	0	0	0	0	0	0	0	0	0	0	0	0	0
120712	08:59:19	10040	Trial2BackEng	N	3	0	1000	1	84	08:59:19	3009206	0	0	0	0	0	0	0	0	0	0	0	0	0	0	0	0	0
120712	08:59:19	10040	Trial2BackEng	N	3	0	1000	1	85	08:59:19	3010712	0	0	0	0	0	0	0	0	0	0	0	0	0	0	0	0	0
120712	08:59:19	10040	Trial2BackEng	N	3	0	1000	1	86	08:59:19	3012218	0	0	0	0	0	0	0	0	0	0	0	0	0	0	0	0	0
120712	08:59:19	10040	Trial2BackEng	N	3	0	1000	1	87	08:59:19	3013724	0	0	0	0	0	0	0	0	0	0	0	0	0	0	0	0	0
120712	08:59:19	10040	Trial2BackEng	N	3	0	1000	1	88	08:59:19	3015230	0	0	0	0	0	0	0	0	0	0	0	0	0	0	0	0	0
120712	08:59:19	10040	Trial2BackEng	N	3	0	1000	1	89	08:59:19	3016763	0	0	0	0	0	0	0	0	0	0	0	0	0	0	0	0	0
120712	08:59:19	10040	Trial2BackEng	N	3	0	1000	1	90	08:59:19	3018269	0	0	0	0	0	0	0	0	0	0	0	0	0	0	0	0	0
120712	08:59:19	10040	Trial2BackEng	N	3	0	1000	1	91	08:59:19	3019775	0	0	0	0	0	0	0	0	0	0	0	0	0	0	0	0	0
120712	08:59:19	10040	Trial2BackEng	Y	3	0	1000	0	91	08:59:19	3021281	0	0	0	0	0	0	0	0	0	0	0	0	0	0	0	0	0
120712	08:59:19	10040	Trial2BackEng	N	3	0	1000	1	92	08:59:19	3022787	0	0	0	0	0	0	0	0	0	0	0	0	0	0	0	0	0
120712	08:59:19	10040	Trial2BackEng	N	3	0	1000	1	93	08:59:19	3024307	0	0	0	0	0	0	0	0	0	0	0	0	0	0	0	0	0
120712	08:59:19	10040	Trial2BackEng	N	3	0	1000	1	94	08:59:19	3025813	0	0	0	0	0	0	0	0	0	0	0	0	0	0	0	0	0
120712	08:59:19	10040	Trial2BackEng	N	3	0	1000	1	95	08:59:19	3027332	0	0	0	0	0	0	0	0	0	0	0	0	0	0	0	0	0
120712	08:59:19	10040	Trial2BackEng	N	3	0	1000	1	96	08:59:19	3028838	0	0	0	0	0	0	0	0	0	0	0	0	0	0	0	0	0
120712	08:59:19	10040	Trial2BackEng	N	3	0	1000	1	97	08:59:19	3030344	0	0	0	0	0	0	0	0	0	0	0	0	0	0	0	0	0
120712	08:59:19	10040	Trial2BackEng	N	3	0	1000	1	98	08:59:19	3031850	0	0	0	0	0	0	0	0	0	0	0	0	0	0	0	0	0
120712	08:59:19	10040	Trial2BackEng	N	3	0	1000	1	99	08:59:19	3033370	0	0	0	0	0	0	0	0	0	0	0	0	0	0	0	0	0
120712	08:59:19	10040	Trial2BackEng	Y	3	0	1000	0	99	08:59:19	3034876	0	0	0	0	0	0	0	0	0	0	0	0	0	0	0	0	0
120712	08:59:19	10040	Trial2BackEng	N	3	0	1000	1	100	08:59:19	3036382	0	0	0	0	0	0	0	0	0	0	0	0	0	0	0	0	0
120712	08:59:19	10040	Trial2BackEng	N	3	0	1000	1	101	08:59:19	3037888	0	0	0	0	0	0	0	0	0	0	0	0	0	0	0	0	0
120712	08:59:19	10040	Trial2BackEng	N	3	0	1000	1	102	08:59:19	3039394	0	0	0	0	0	0	0	0	0	0	0	0	0	0	0	0	0
120712	08:59:19	10040	Trial2BackEng	N	3	0	1000	1	103	08:59:19	3040900	0	0	0	0	0	0	0	0	0	0	0	0	0	0	0	0	0
120712	08:59:19	10040	Trial2BackEng	Y	3	57	439	1	104	08:59:19	3041860	0	0	0	0	0	0	0	0	0	0	0	0	0	0	0	0	0
120712	08:59:19	10040	Trial2BackEng	N	3	0	1000	1	105	08:59:19	3043912	0	0	0	0	0	0	0	0	0	0	0	0	0	0	0	0	0
120712	08:59:19	10040	Trial2BackEng	N	3	0	1000	1	106	08:59:19	3045418	0	0	0	0	0	0	0	0	0	0	0	0	0	0	0	0	0
120712	08:59:19	10040	Trial2BackEng	N	3	0	1000	1	107	08:59:19	3046924	0	0	0	0	0	0	0	0	0	0	0	0	0	0	0	0	0
120712	08:59:19	10040	Trial2BackEng	Y	3	0	1000	0	107	08:59:19	3048430	0	0	0	0	0	0	0	0	0	0	0	0	0	0	0	0	0
120712	08:59:19	10040	Trial2BackEng	N	3	0	1000	1	108	08:59:19	3049936	0	0	0	0	0	0	0	0	0	0	0	0	0	0	0	0	0
120712	08:59:19	10040	Trial2BackEng	N	3	0	1000	1	109	08:59:19	3051442	0	0	0	0	0	0	0	0	0	0	0	0	0	0	0	0	0
120712	08:59:19	10040	Trial2BackEng	N	3	0	1000	1	110	08:59:19	3052948	0	0	0	0	0	0	0	0	0	0	0	0	0	0	0	0	0
120712	08:59:19	10040	Trial2BackEng	N	3	0	1000	1	111	08:59:19	3054455	0	0	0	0	0	0	0	0	0	0	0	0	0	0	0	0	0
120712	08:59:19	10040	Trial2BackEng	N	3	0	1000	1	112	08:59:19	3055960	0	0	0	0	0	0	0	0	0	0	0	0	0	0	0	0	0
120712	08:59:19	10040	Trial2BackEng	Y	3	57	674	1	113	08:59:19	3057146	0	0	0	0	0	0	0	0	0	0	0	0	0	0	0	0	0
120712	08:59:19	10040	Trial2BackEng	N	3	0	1000	1	114	08:59:19	3058973	0	0	0	0	0	0	0	0	0	0	0	0	0	0	0	0	0
120712	08:59:19	10040	Trial2BackEng	N	3	0	1000	1	115	08:59:19	3060492	0	0	0	0	0	0	0	0	0	0	0	0	0	0	0	0	0
120712	08:59:19	10040	Trial2BackEng	N	3	0	1000	1	116	08:59:19	3061998	0	0	0	0	0	0	0	0	0	0	0	0	0	0	0	0	0
120712	08:59:19	10040	Trial2BackEng	Y	3	0	1000	0	116	08:59:19	3063504	0	0	0	0	0	0	0	0	0	0	0	0	0	0	0	0	0
120712	08:59:19	10040	Memory1R3mo	Score	5	M1	12917	0	116	08:59:19	3153654	0	0	0	0	0	0	0	0	0	0	0	0	0	0	0	0	0
120712	08:59:19	10040	Memory1R3mo	Score	5	M4	605	0	116	08:59:19	3154307	0	0	0	0	0	0	0	0	0	0	0	0	0	0	0	0	0
120712	08:59:19	10040	Memory1R3mo	Score	5	M5	168	0	116	08:59:19	3154521	0	0	0	0	0	0	0	0	0	0	0	0	0	0	0	0	0
120712	08:59:19	10040	Memory1R3mo	Score	5	M7	2707	0	116	08:59:19	3157280	0	0	0	0	0	0	0	0	0	0	0	0	0	0	0	0	0
120712	08:59:19	10040	Memory1R3mo	Score	5	M8	220	0	116	08:59:19	3157546	0	0	0	0	0	0	0	0	0	0	0	0	0	0	0	0	0
120712	08:59:19	10040	Memory1R3mo	Score	5	M2	13889	0	116	08:59:19	3171487	0	0	0	0	0	0	0	0	0	0	0	0	0	0	0	0	0
120712	08:59:19	10040	Memory1R3mo	Score	5	Done	6828	0	116	08:59:19	3178364	0	0	0	0	0	0	0	0	0	0	0	0	0	0	0	0	0
120712	08:59:19	10040	Memory2R3mo	Score2	5	11	28368	0	116	08:59:19	3226545	0	0	0	0	0	0	0	0	0	0	0	0	0	0	0	0	0
120712	08:59:19	10040	Memory2R3mo	Score2	5	22	209	0	116	08:59:19	3226798	0	0	0	0	0	0	0	0	0	0	0	0	0	0	0	0	0
120712	08:59:19	10040	Memory2R3mo	Score2	5	55	2180	0	116	08:59:19	3229024	0	0	0	0	0	0	0	0	0	0	0	0	0	0	0	0	0
120712	08:59:19	10040	Memory2R3mo	Score2	5	77	1522	0	116	08:59:19	3230597	0	0	0	0	0	0	0	0	0	0	0	0	0	0	0	0	0
120712	08:59:19	10040	Memory2R3mo	Score2	5	88	149	0	116	08:59:19	3230797	0	0	0	0	0	0	0	0	0	0	0	0	0	0	0	0	0
120712	08:59:19	10040	Memory2R3mo	Score2	5	Done	17813	0	116	08:59:19	3248656	0	0	0	0	0	0	0	0	0	0	0	0	0	0	0	0	0
120712	08:59:19	10040	Memory3R3mo	Score3	5	111	11633	0	116	08:59:19	3280377	0	0	0	0	0	0	0	0	0	0	0	0	0	0	0	0	0
120712	08:59:19	10040	Memory3R3mo	Score3	5	222	184	0	116	08:59:19	3280616	0	0	0	0	0	0	0	0	0	0	0	0	0	0	0	0	0
120712	08:59:19	10040	Memory3R3mo	Score3	5	333	1792	0	116	08:59:19	3282456	0	0	0	0	0	0	0	0	0	0	0	0	0	0	0	0	0
120712	08:59:19	10040	Memory3R3mo	Score3	5	666	2521	0	116	08:59:19	3285028	0	0	0	0	0	0	0	0	0	0	0	0	0	0	0	0	0
120712	08:59:19	10040	Memory3R3mo	Score3	5	777	173	0	116	08:59:19	3285254	0	0	0	0	0	0	0	0	0	0	0	0	0	0	0	0	0
120712	08:59:19	10040	Memory3R3mo	Score3	5	888	242	0	116	08:59:19	3285548	0	0	0	0	0	0	0	0	0	0	0	0	0	0	0	0	0
120712	08:59:19	10040	Memory3R3mo	Score3	5	555	21500	0	116	08:59:19	3307099	0	0	0	0	0	0	0	0	0	0	0	0	0	0	0	0	0
120712	08:59:19	10040	Memory3R3mo	Score3	5	Done	1613	0	116	08:59:19	3308765	0	0	0	0	0	0	0	0	0	0	0	0	0	0	0	0	0
120712	08:59:19	10040	LoriaEngLH3	Stop	6	5	3370	0	116	08:59:19	3383096	0	0	0	0	0	0	0	0	0	0	0	0	0	0	0	0	0
120712	08:59:19	10040	EngTrail	Trails	7	1Trails	1590	0	116	08:59:19	3401568	0	0	0	0	0	0	0	0	0	0	0	0	0	0	0	0	0
120712	08:59:19	10040	Serial7Eng3mo	Serial7Eng3mo	8	83	11153	0	116	08:59:19	3431637	1	0	0	0	0	0	0	0	0	0	0	0	0	0	0	0	0
120712	08:59:19	10040	Serial7Eng3mo	Serial7Eng3mo	8	76	2587	0	116	08:59:19	3434250	2	0	0	0	0	0	0	0	0	0	0	0	0	0	0	0	0
120712	08:59:19	10040	Serial7Eng3mo	Serial7Eng3mo	8	69	3087	0	116	08:59:19	3437356	3	0	0	0	0	0	0	0	0	0	0	0	0	0	0	0	0
120712	08:59:19	10040	Serial7Eng3mo	Serial7Eng3mo	8	62	2837	0	116	08:59:19	3440208	4	0	0	0	0	0	0	0	0	0	0	0	0	0	0	0	0
120712	08:59:19	10040	Serial7Eng3mo	Serial7Eng3mo	8	55	3106	0	116	08:59:19	3443340	5	0	0	0	0	0	0	0	0	0	0	0	0	0	0	0	0
120712	08:59:19	10040	corsiblockEngFwrd	recallseqEngFwrd	9	1	1109	0	116	08:59:19	3499224	5	0	0	0	0	0	0	0	0	0	0	0	0	0	0	0	0
120712	08:59:19	10040	corsiblockEngFwrd	recallseqEngFwrd	9	6	990	0	116	08:59:19	3500264	5	0	0	0	0	0	0	0	0	0	0	0	0	0	0	0	0
120712	08:59:19	10040	corsiblockEngFwrd	recallseqEngFwrd	9	doneCorsiEng	3358	0	116	08:59:19	3503675	5	0	0	0	0	0	0	0	0	0	0	0	0	0	0	2	0
120712	08:59:19	10040	corsiblockEngFwrd	recallseqEngFwrd	9	4	1092	0	116	08:59:19	3510899	5	0	0	0	0	0	0	0	0	0	0	0	0	0	0	2	0
120712	08:59:19	10040	corsiblockEngFwrd	recallseqEngFwrd	9	9	1154	0	116	08:59:19	3512099	5	0	0	0	0	0	0	0	0	0	0	0	0	0	0	2	0
120712	08:59:19	10040	corsiblockEngFwrd	recallseqEngFwrd	9	2	971	0	116	08:59:19	3513125	5	0	0	0	0	0	0	0	0	0	0	0	0	0	0	2	0
120712	08:59:19	10040	corsiblockEngFwrd	recallseqEngFwrd	9	doneCorsiEng	1273	0	116	08:59:19	3514444	5	0	0	0	0	0	0	0	0	0	0	0	0	0	0	3	0
120712	08:59:19	10040	corsiblockEngFwrd	recallseqEngFwrd	9	7	1006	0	116	08:59:19	3522588	5	0	0	0	0	0	0	0	0	0	0	0	0	0	0	3	0
120712	08:59:19	10040	corsiblockEngFwrd	recallseqEngFwrd	9	5	737	0	116	08:59:19	3523374	5	0	0	0	0	0	0	0	0	0	0	0	0	0	0	3	0
120712	08:59:19	10040	corsiblockEngFwrd	recallseqEngFwrd	9	3	719	0	116	08:59:19	3524147	5	0	0	0	0	0	0	0	0	0	0	0	0	0	0	3	0
120712	08:59:19	10040	corsiblockEngFwrd	recallseqEngFwrd	9	8	1042	0	116	08:59:19	3525240	5	0	0	0	0	0	0	0	0	0	0	0	0	0	0	3	0
120712	08:59:19	10040	corsiblockEngFwrd	recallseqEngFwrd	9	doneCorsiEng	1029	0	116	08:59:19	3526320	5	0	0	0	0	0	0	0	0	0	0	0	0	0	0	4	0
120712	08:59:19	10040	corsiblockEngFwrd	recallseqEngFwrd	9	1	873	0	116	08:59:19	3535316	5	0	0	0	0	0	0	0	0	0	0	0	0	0	0	4	0
120712	08:59:19	10040	corsiblockEngFwrd	recallseqEngFwrd	9	2	985	0	116	08:59:19	3536356	5	0	0	0	0	0	0	0	0	0	0	0	0	0	0	4	0
120712	08:59:19	10040	corsiblockEngFwrd	recallseqEngFwrd	9	4	498	0	116	08:59:19	3536902	5	0	0	0	0	0	0	0	0	0	0	0	0	0	0	4	0
120712	08:59:19	10040	corsiblockEngFwrd	recallseqEngFwrd	9	8	599	0	116	08:59:19	3537555	5	0	0	0	0	0	0	0	0	0	0	0	0	0	0	4	0
120712	08:59:19	10040	corsiblockEngFwrd	recallseqEngFwrd	9	5	537	0	116	08:59:19	3538141	5	0	0	0	0	0	0	0	0	0	0	0	0	0	0	4	0
120712	08:59:19	10040	corsiblockEngFwrd	recallseqEngFwrd	9	doneCorsiEng	1055	0	116	08:59:19	3539248	5	0	0	0	0	0	0	0	0	0	0	0	0	0	0	5	0
120712	08:59:19	10040	corsiblockEngFwrd	recallseqEngFwrd	9	9	928	0	116	08:59:19	3549297	5	0	0	0	0	0	0	0	0	0	0	0	0	0	0	5	0
120712	08:59:19	10040	corsiblockEngFwrd	recallseqEngFwrd	9	7	700	0	116	08:59:19	3550043	5	0	0	0	0	0	0	0	0	0	0	0	0	0	0	5	0
120712	08:59:19	10040	corsiblockEngFwrd	recallseqEngFwrd	9	6	697	0	116	08:59:19	3550790	5	0	0	0	0	0	0	0	0	0	0	0	0	0	0	5	0
120712	08:59:19	10040	corsiblockEngFwrd	recallseqEngFwrd	9	3	551	0	116	08:59:19	3551390	5	0	0	0	0	0	0	0	0	0	0	0	0	0	0	5	0
120712	08:59:19	10040	corsiblockEngFwrd	recallseqEngFwrd	9	2	567	0	116	08:59:19	3552003	5	0	0	0	0	0	0	0	0	0	0	0	0	0	0	5	0
120712	08:59:19	10040	corsiblockEngFwrd	recallseqEngFwrd	9	5	1074	0	116	08:59:19	3553122	5	0	0	0	0	0	0	0	0	0	0	0	0	0	0	5	0
120712	08:59:19	10040	corsiblockEngFwrd	recallseqEngFwrd	9	doneCorsiEng	893	0	116	08:59:19	3554068	5	0	0	0	0	0	0	0	0	0	0	0	0	0	0	5	0
120712	08:59:19	10040	corsiblockEngFwrd	recallseqEngFwrd	9	1	1083	0	116	08:59:19	3564238	5	0	0	0	0	0	0	0	0	0	0	0	0	0	0	5	0
120712	08:59:19	10040	corsiblockEngFwrd	recallseqEngFwrd	9	3	1175	0	116	08:59:19	3565464	5	0	0	0	0	0	0	0	0	0	0	0	0	0	0	5	0
120712	08:59:19	10040	corsiblockEngFwrd	recallseqEngFwrd	9	9	1181	0	116	08:59:19	3566690	5	0	0	0	0	0	0	0	0	0	0	0	0	0	0	5	0
120712	08:59:19	10040	corsiblockEngFwrd	recallseqEngFwrd	9	5	1354	0	116	08:59:19	3568089	5	0	0	0	0	0	0	0	0	0	0	0	0	0	0	5	0
120712	08:59:19	10040	corsiblockEngFwrd	recallseqEngFwrd	9	6	2219	0	116	08:59:19	3570355	5	0	0	0	0	0	0	0	0	0	0	0	0	0	0	5	0
120712	08:59:19	10040	corsiblockEngFwrd	recallseqEngFwrd	9	2	809	0	116	08:59:19	3571208	5	0	0	0	0	0	0	0	0	0	0	0	0	0	0	5	0
120712	08:59:19	10040	corsiblockEngFwrd	recallseqEngFwrd	9	doneCorsiEng	1580	0	116	08:59:19	3572834	5	0	0	0	0	0	0	0	0	0	0	0	0	0	0	5	0
120712	08:59:19	10040	corsiblockEngRev	recallseqEngRev	10	5	916	0	116	08:59:19	3585669	5	0	0	0	0	0	0	0	0	0	0	0	0	0	0	5	0
120712	08:59:19	10040	corsiblockEngRev	recallseqEngRev	10	8	759	0	116	08:59:19	3586482	5	0	0	0	0	0	0	0	0	0	0	0	0	0	0	5	0
120712	08:59:19	10040	corsiblockEngRev	recallseqEngRev	10	doneCorsiEng	946	0	116	08:59:19	3587482	5	0	0	0	0	0	0	0	0	0	0	0	0	0	0	5	2
120712	08:59:19	10040	corsiblockEngRev	recallseqEngRev	10	1	805	0	116	08:59:19	3594412	5	0	0	0	0	0	0	0	0	0	0	0	0	0	0	5	2
120712	08:59:19	10040	corsiblockEngRev	recallseqEngRev	10	3	823	0	116	08:59:19	3595292	5	0	0	0	0	0	0	0	0	0	0	0	0	0	0	5	2
120712	08:59:19	10040	corsiblockEngRev	recallseqEngRev	10	2	632	0	116	08:59:19	3595971	5	0	0	0	0	0	0	0	0	0	0	0	0	0	0	5	2
120712	08:59:19	10040	corsiblockEngRev	recallseqEngRev	10	doneCorsiEng	1064	0	116	08:59:19	3597091	5	0	0	0	0	0	0	0	0	0	0	0	0	0	0	5	3
120712	08:59:19	10040	corsiblockEngRev	recallseqEngRev	10	9	667	0	116	08:59:19	3604888	5	0	0	0	0	0	0	0	0	0	0	0	0	0	0	5	3
120712	08:59:19	10040	corsiblockEngRev	recallseqEngRev	10	7	660	0	116	08:59:19	3605594	5	0	0	0	0	0	0	0	0	0	0	0	0	0	0	5	3
120712	08:59:19	10040	corsiblockEngRev	recallseqEngRev	10	6	1001	0	116	08:59:19	3606647	5	0	0	0	0	0	0	0	0	0	0	0	0	0	0	5	3
120712	08:59:19	10040	corsiblockEngRev	recallseqEngRev	10	4	596	0	116	08:59:19	3607300	5	0	0	0	0	0	0	0	0	0	0	0	0	0	0	5	3
120712	08:59:19	10040	corsiblockEngRev	recallseqEngRev	10	doneCorsiEng	911	0	116	08:59:19	3608260	5	0	0	0	0	0	0	0	0	0	0	0	0	0	0	5	4
120712	08:59:19	10040	corsiblockEngRev	recallseqEngRev	10	4	733	0	116	08:59:19	3617136	5	0	0	0	0	0	0	0	0	0	0	0	0	0	0	5	4
120712	08:59:19	10040	corsiblockEngRev	recallseqEngRev	10	1	997	0	116	08:59:19	3618242	5	0	0	0	0	0	0	0	0	0	0	0	0	0	0	5	4
120712	08:59:19	10040	corsiblockEngRev	recallseqEngRev	10	7	857	0	116	08:59:19	3619149	5	0	0	0	0	0	0	0	0	0	0	0	0	0	0	5	4
120712	08:59:19	10040	corsiblockEngRev	recallseqEngRev	10	8	718	0	116	08:59:19	3619922	5	0	0	0	0	0	0	0	0	0	0	0	0	0	0	5	4
120712	08:59:19	10040	corsiblockEngRev	recallseqEngRev	10	5	825	0	116	08:59:19	3620801	5	0	0	0	0	0	0	0	0	0	0	0	0	0	0	5	4
120712	08:59:19	10040	corsiblockEngRev	recallseqEngRev	10	doneCorsiEng	865	0	116	08:59:19	3621721	5	0	0	0	0	0	0	0	0	0	0	0	0	0	0	5	5
120712	08:59:19	10040	corsiblockEngRev	recallseqEngRev	10	3	970	0	116	08:59:19	3631810	5	0	0	0	0	0	0	0	0	0	0	0	0	0	0	5	5
120712	08:59:19	10040	corsiblockEngRev	recallseqEngRev	10	5	768	0	116	08:59:19	3632623	5	0	0	0	0	0	0	0	0	0	0	0	0	0	0	5	5
120712	08:59:19	10040	corsiblockEngRev	recallseqEngRev	10	9	2395	0	116	08:59:19	3635076	5	0	0	0	0	0	0	0	0	0	0	0	0	0	0	5	5
120712	08:59:19	10040	corsiblockEngRev	recallseqEngRev	10	2	1839	0	116	08:59:19	3636968	5	0	0	0	0	0	0	0	0	0	0	0	0	0	0	5	5
120712	08:59:19	10040	corsiblockEngRev	recallseqEngRev	10	5	3218	0	116	08:59:19	3640234	5	0	0	0	0	0	0	0	0	0	0	0	0	0	0	5	5
120712	08:59:19	10040	corsiblockEngRev	recallseqEngRev	10	3	585	0	116	08:59:19	3640873	5	0	0	0	0	0	0	0	0	0	0	0	0	0	0	5	5
120712	08:59:19	10040	corsiblockEngRev	recallseqEngRev	10	doneCorsiEng	865	0	116	08:59:19	3641793	5	0	0	0	0	0	0	0	0	0	0	0	0	0	0	5	5
120712	08:59:19	10040	corsiblockEngRev	recallseqEngRev	10	4	1061	0	116	08:59:19	3651936	5	0	0	0	0	0	0	0	0	0	0	0	0	0	0	5	5
120712	08:59:19	10040	corsiblockEngRev	recallseqEngRev	10	6	731	0	116	08:59:19	3652722	5	0	0	0	0	0	0	0	0	0	0	0	0	0	0	5	5
120712	08:59:19	10040	corsiblockEngRev	recallseqEngRev	10	7	776	0	116	08:59:19	3653548	5	0	0	0	0	0	0	0	0	0	0	0	0	0	0	5	5
120712	08:59:19	10040	corsiblockEngRev	recallseqEngRev	10	9	1510	0	116	08:59:19	3655107	5	0	0	0	0	0	0	0	0	0	0	0	0	0	0	5	5
120712	08:59:19	10040	corsiblockEngRev	recallseqEngRev	10	2	1535	0	116	08:59:19	3656693	5	0	0	0	0	0	0	0	0	0	0	0	0	0	0	5	5
120712	08:59:19	10040	corsiblockEngRev	recallseqEngRev	10	1	868	0	116	08:59:19	3657613	5	0	0	0	0	0	0	0	0	0	0	0	0	0	0	5	5
120712	08:59:19	10040	corsiblockEngRev	recallseqEngRev	10	doneCorsiEng	973	0	116	08:59:19	3658639	5	0	0	0	0	0	0	0	0	0	0	0	0	0	0	5	5
120712	08:59:19	10040	testEng3mo	WordsEng3mo	11	1Eng3mo	21141	0	116	08:59:19	3687308	5	3	0	0	0	0	0	0	0	0	0	0	0	0	0	5	5
120712	08:59:19	10040	testEng3mo	WordsEng3mo	11	2Eng3mo	222	0	116	08:59:19	3687575	5	3	3	0	0	0	0	0	0	0	0	0	0	0	0	5	5
120712	08:59:19	10040	testEng3mo	WordsEng3mo	11	3Eng3mo	235	0	116	08:59:19	3687855	5	3	3	3	0	0	0	0	0	0	0	0	0	0	0	5	5
120712	08:59:19	10040	testEng3mo	WordsEng3mo	11	5Eng3mo	2443	0	116	08:59:19	3690347	5	3	3	3	0	3	0	0	0	0	0	0	0	0	0	5	5
120712	08:59:19	10040	testEng3mo	WordsEng3mo	11	6Eng3mo	191	0	116	08:59:19	3690587	5	3	3	3	0	3	3	0	0	0	0	0	0	0	0	5	5
120712	08:59:19	10040	testEng3mo	WordsEng3mo	11	7Eng3mo	583	0	116	08:59:19	3691226	5	3	3	3	0	3	3	3	0	0	0	0	0	0	0	5	5
120712	08:59:19	10040	testEng3mo	WordsEng3mo	11	8Eng3mo	184	0	116	08:59:19	3691466	5	3	3	3	0	3	3	3	3	0	0	0	0	0	0	5	5
120712	08:59:19	10040	testEng3mo	WordsEng3mo	11	DoneEng3mo	30191	0	116	08:59:19	3721707	5	3	3	3	0	3	3	3	3	0	0	0	0	0	0	5	5
120712	08:59:19	10040	testEng3mo	Cat4Eng3mo	11	W4Eng3mo	7156	0	116	08:59:19	3728904	5	3	3	3	0	3	3	3	3	0	0	0	0	0	0	5	5
120712	08:59:19	10040	testEng3mo	Ch4Eng3mo	11	RR4Eng3mo	2231	0	116	08:59:19	3731170	5	3	3	3	1	3	3	3	3	0	0	0	0	0	0	5	5
120712	08:59:19	10040	DigitSpanFwrdEng3mo	Score1FwrdEng3mo	12	DS1	3874	0	116	08:59:19	3749749	5	3	3	3	1	3	3	3	3	0	0	0	0	0	0	5	5
120712	08:59:19	10040	DigitSpanFwrdEng3mo	Gate1FwrdEng3mo	12	0	1	0	116	08:59:19	3749754	5	3	3	3	1	3	3	3	3	3	0	0	0	0	0	5	5
120712	08:59:19	10040	DigitSpanFwrdEng3mo	Score2FwrdEng3mo	12	DS1	2919	0	116	08:59:19	3759238	5	3	3	3	1	3	3	3	3	3	0	0	0	0	0	5	5
120712	08:59:19	10040	DigitSpanFwrdEng3mo	Gate3FwrdEng3mo	12	0	1	0	116	08:59:19	3759243	5	3	3	3	1	3	3	3	3	4	0	0	0	0	0	5	5
120712	08:59:19	10040	DigitSpanFwrdEng3mo	Score3FwrdEng3mo	12	DS1	3939	0	116	08:59:19	3771207	5	3	3	3	1	3	3	3	3	4	0	0	0	0	0	5	5
120712	08:59:19	10040	DigitSpanFwrdEng3mo	Gate5FwrdEng3mo	12	0	1	0	116	08:59:19	3771211	5	3	3	3	1	3	3	3	3	5	0	0	0	0	0	5	5
120712	08:59:19	10040	DigitSpanFwrdEng3mo	Score4FwrdEng3mo	12	DS2	14074	0	116	08:59:19	3794797	5	3	3	3	1	3	3	3	3	5	0	0	0	0	0	5	5
120712	08:59:19	10040	DigitSpanFwrdEng3mo	Gate7FwrdEng3mo	12	0	1	0	116	08:59:19	3794802	5	3	3	3	1	3	3	3	3	5	0	0	0	0	0	5	5
120712	08:59:19	10040	DigitSpanFwrdEng3mo	Score44FwrdEng3mo	12	DS1	5028	0	116	08:59:19	3809418	5	3	3	3	1	3	3	3	3	5	0	0	0	0	0	5	5
120712	08:59:19	10040	DigitSpanFwrdEng3mo	Gate8FwrdEng3mo	12	0	1	0	116	08:59:19	3809423	5	3	3	3	1	3	3	3	3	6	0	0	0	0	0	5	5
120712	08:59:19	10040	DigitSpanFwrdEng3mo	Score5FwrdEng3mo	12	DS1	7586	0	116	08:59:19	3828051	5	3	3	3	1	3	3	3	3	6	0	0	0	0	0	5	5
120712	08:59:19	10040	DigitSpanFwrdEng3mo	Gate9FwrdEng3mo	12	0	1	0	116	08:59:19	3828056	5	3	3	3	1	3	3	3	3	7	0	0	0	0	0	5	5
120712	08:59:19	10040	DigitSpanFwrdEng3mo	Score6FwrdEng3mo	12	DS2	66779	0	116	08:59:19	3908165	5	3	3	3	1	3	3	3	3	7	0	0	0	0	0	5	5
120712	08:59:19	10040	DigitSpanFwrdEng3mo	Gate11FwrdEng3mo	12	0	1	0	116	08:59:19	3908171	5	3	3	3	1	3	3	3	3	7	0	0	0	0	0	5	5
120712	08:59:19	10040	DigitSpanFwrdEng3mo	Score66FwrdEng3mo	12	DS2	12109	0	116	08:59:19	3933315	5	3	3	3	1	3	3	3	3	7	0	0	0	0	0	5	5
120712	08:59:19	10040	DigitSpanEng3mo	Score1Eng3mo	13	DS1	3195	0	116	08:59:19	3952480	5	3	3	3	1	3	3	3	3	7	0	0	0	0	0	5	5
120712	08:59:19	10040	DigitSpanEng3mo	Gate1Eng3mo	13	0	1	0	116	08:59:19	3952484	5	3	3	3	1	3	3	3	3	7	2	0	0	0	0	5	5
120712	08:59:19	10040	DigitSpanEng3mo	Score2Eng3mo	13	DS1	2313	0	116	08:59:19	3959731	5	3	3	3	1	3	3	3	3	7	2	0	0	0	0	5	5
120712	08:59:19	10040	DigitSpanEng3mo	Gate3Eng3mo	13	0	1	0	116	08:59:19	3959735	5	3	3	3	1	3	3	3	3	7	3	0	0	0	0	5	5
120712	08:59:19	10040	DigitSpanEng3mo	Score3Eng3mo	13	DS1	5009	0	116	08:59:19	3971299	5	3	3	3	1	3	3	3	3	7	3	0	0	0	0	5	5
120712	08:59:19	10040	DigitSpanEng3mo	Gate5Eng3mo	13	0	1	0	116	08:59:19	3971305	5	3	3	3	1	3	3	3	3	7	4	0	0	0	0	5	5
120712	08:59:19	10040	DigitSpanEng3mo	Score4Eng3mo	13	DS2	64111	0	116	08:59:19	4043443	5	3	3	3	1	3	3	3	3	7	4	0	0	0	0	5	5
120712	08:59:19	10040	DigitSpanEng3mo	Gate7Eng3mo	13	0	1	0	116	08:59:19	4043448	5	3	3	3	1	3	3	3	3	7	4	0	0	0	0	5	5
120712	08:59:19	10040	DigitSpanEng3mo	Score44Eng3mo	13	DS1	17441	0	116	08:59:19	4069166	5	3	3	3	1	3	3	3	3	7	4	0	0	0	0	5	5
120712	08:59:19	10040	DigitSpanEng3mo	Gate8Eng3mo	13	0	1	0	116	08:59:19	4069170	5	3	3	3	1	3	3	3	3	7	5	0	0	0	0	5	5
120712	08:59:19	10040	DigitSpanEng3mo	Score5Eng3mo	13	DS2	15108	0	116	08:59:19	4093783	5	3	3	3	1	3	3	3	3	7	5	0	0	0	0	5	5
120712	08:59:19	10040	DigitSpanEng3mo	Gate9Eng3mo	13	0	1	0	116	08:59:19	4093788	5	3	3	3	1	3	3	3	3	7	5	0	0	0	0	5	5
120712	08:59:19	10040	DigitSpanEng3mo	Score55Eng3mo	13	DS2	14117	0	116	08:59:19	4117506	5	3	3	3	1	3	3	3	3	7	5	0	0	0	0	5	5
120712	08:59:19	10040	Trial	ResponseIL	14	0	175	0	116	08:59:19	4187278	5	3	3	3	1	3	3	3	3	7	5	0	0	0	0	5	5
120712	08:59:19	10040	Trial	IncongruentLeft	14	203	367	1	116	08:59:19	4187665	5	3	3	3	1	3	3	3	3	7	5	0	0	0	0	5	5
120712	08:59:19	10040	Trial	ResponseCR	14	0	175	0	116	08:59:19	4188984	5	3	3	3	1	3	3	3	3	7	5	0	0	0	0	5	5
120712	08:59:19	10040	Trial	CongruentRight	14	205	213	1	116	08:59:19	4189224	5	3	3	3	1	3	3	3	3	7	5	0	0	0	0	5	5
120712	08:59:19	10040	Trial	ResponseIR	14	0	175	0	116	08:59:19	4190690	5	3	3	3	1	3	3	3	3	7	5	0	0	0	0	5	5
120712	08:59:19	10040	Trial	IncongruentRight	14	205	427	1	116	08:59:19	4191143	5	3	3	3	1	3	3	3	3	7	5	0	0	0	0	5	5
120712	08:59:19	10040	Trial	ResponseCL	14	0	175	0	116	08:59:19	4192396	5	3	3	3	1	3	3	3	3	7	5	0	0	0	0	5	5
120712	08:59:19	10040	Trial	CongruentLeft	14	203	257	1	116	08:59:19	4192676	5	3	3	3	1	3	3	3	3	7	5	0	0	0	0	5	5
120712	08:59:19	10040	Trial	ResponseCR	14	0	175	0	116	08:59:19	4194102	5	3	3	3	1	3	3	3	3	7	5	0	0	0	0	5	5
120712	08:59:19	10040	Trial	CongruentRight	14	205	231	1	116	08:59:19	4194355	5	3	3	3	1	3	3	3	3	7	5	0	0	0	0	5	5
120712	08:59:19	10040	Trial	ResponseIR	14	0	175	0	116	08:59:19	4195808	5	3	3	3	1	3	3	3	3	7	5	0	0	0	0	5	5
120712	08:59:19	10040	Trial	IncongruentRight	14	205	349	1	116	08:59:19	4196181	5	3	3	3	1	3	3	3	3	7	5	0	0	0	0	5	5
120712	08:59:19	10040	Trial	ResponseCL	14	0	175	0	116	08:59:19	4197514	5	3	3	3	1	3	3	3	3	7	5	0	0	0	0	5	5
120712	08:59:19	10040	Trial	CongruentLeft	14	203	339	1	116	08:59:19	4197874	5	3	3	3	1	3	3	3	3	7	5	0	0	0	0	5	5
120712	08:59:19	10040	Trial	ResponseIL	14	0	175	0	116	08:59:19	4199220	5	3	3	3	1	3	3	3	3	7	5	0	0	0	0	5	5
120712	08:59:19	10040	Trial	IncongruentLeft	14	203	361	1	116	08:59:19	4199606	5	3	3	3	1	3	3	3	3	7	5	0	0	0	0	5	5
120712	08:59:19	10040	Trial	ResponseIL	14	0	175	0	116	08:59:19	4200926	5	3	3	3	1	3	3	3	3	7	5	0	0	0	0	5	5
120712	08:59:19	10040	Trial	IncongruentLeft	14	203	415	1	116	08:59:19	4201366	5	3	3	3	1	3	3	3	3	7	5	0	0	0	0	5	5
120712	08:59:19	10040	Trial	ResponseCR	14	0	175	0	116	08:59:19	4202632	5	3	3	3	1	3	3	3	3	7	5	0	0	0	0	5	5
120712	08:59:19	10040	Trial	CongruentRight	14	205	277	1	116	08:59:19	4202925	5	3	3	3	1	3	3	3	3	7	5	0	0	0	0	5	5
120712	08:59:19	10040	Trial	ResponseIR	14	0	175	0	116	08:59:19	4204338	5	3	3	3	1	3	3	3	3	7	5	0	0	0	0	5	5
120712	08:59:19	10040	Trial	IncongruentRight	14	205	347	1	116	08:59:19	4204712	5	3	3	3	1	3	3	3	3	7	5	0	0	0	0	5	5
120712	08:59:19	10040	Trial	ResponseCL	14	0	175	0	116	08:59:19	4206044	5	3	3	3	1	3	3	3	3	7	5	0	0	0	0	5	5
120712	08:59:19	10040	Trial	CongruentLeft	14	203	274	1	116	08:59:19	4206337	5	3	3	3	1	3	3	3	3	7	5	0	0	0	0	5	5
120712	08:59:19	10040	Trial	ResponseCR	14	0	175	0	116	08:59:19	4207764	5	3	3	3	1	3	3	3	3	7	5	0	0	0	0	5	5
120712	08:59:19	10040	Trial	CongruentRight	14	205	250	1	116	08:59:19	4208030	5	3	3	3	1	3	3	3	3	7	5	0	0	0	0	5	5
120712	08:59:19	10040	Trial	ResponseIL	14	0	175	0	116	08:59:19	4209469	5	3	3	3	1	3	3	3	3	7	5	0	0	0	0	5	5
120712	08:59:19	10040	Trial	IncongruentLeft	14	203	288	1	116	08:59:19	4209776	5	3	3	3	1	3	3	3	3	7	5	0	0	0	0	5	5
120712	08:59:19	10040	Trial	ResponseIR	14	0	175	0	116	08:59:19	4211175	5	3	3	3	1	3	3	3	3	7	5	0	0	0	0	5	5
120712	08:59:19	10040	Trial	IncongruentRight	14	205	310	1	116	08:59:19	4211508	5	3	3	3	1	3	3	3	3	7	5	0	0	0	0	5	5
120712	08:59:19	10040	Trial	ResponseCR	14	0	175	0	116	08:59:19	4212895	5	3	3	3	1	3	3	3	3	7	5	0	0	0	0	5	5
120712	08:59:19	10040	Trial	CongruentRight	14	205	292	1	116	08:59:19	4213241	5	3	3	3	1	3	3	3	3	7	5	0	0	0	0	5	5
120712	08:59:19	10040	Trial	ResponseCL	14	0	175	0	116	08:59:19	4214614	5	3	3	3	1	3	3	3	3	7	5	0	0	0	0	5	5
120712	08:59:19	10040	Trial	CongruentLeft	14	203	266	1	116	08:59:19	4214920	5	3	3	3	1	3	3	3	3	7	5	0	0	0	0	5	5
120712	08:59:19	10040	Trial	ResponseCR	14	0	175	0	116	08:59:19	4216346	5	3	3	3	1	3	3	3	3	7	5	0	0	0	0	5	5
120712	08:59:19	10040	Trial	CongruentRight	14	205	291	1	116	08:59:19	4216653	5	3	3	3	1	3	3	3	3	7	5	0	0	0	0	5	5
120712	08:59:19	10040	Trial	ResponseIR	14	0	175	0	116	08:59:19	4218079	5	3	3	3	1	3	3	3	3	7	5	0	0	0	0	5	5
120712	08:59:19	10040	Trial	IncongruentRight	14	205	430	1	116	08:59:19	4218532	5	3	3	3	1	3	3	3	3	7	5	0	0	0	0	5	5
120712	08:59:19	10040	Trial	ResponseIL	14	0	175	0	116	08:59:19	4219785	5	3	3	3	1	3	3	3	3	7	5	0	0	0	0	5	5
120712	08:59:19	10040	Trial	IncongruentLeft	14	203	308	1	116	08:59:19	4220118	5	3	3	3	1	3	3	3	3	7	5	0	0	0	0	5	5
120712	08:59:19	10040	Trial	ResponseIL	14	0	175	0	116	08:59:19	4221505	5	3	3	3	1	3	3	3	3	7	5	0	0	0	0	5	5
120712	08:59:19	10040	Trial	IncongruentLeft	14	203	381	1	116	08:59:19	4221904	5	3	3	3	1	3	3	3	3	7	5	0	0	0	0	5	5
120712	08:59:19	10040	Trial	ResponseCL	14	0	175	0	116	08:59:19	4223210	5	3	3	3	1	3	3	3	3	7	5	0	0	0	0	5	5
120712	08:59:19	10040	Trial	CongruentLeft	14	203	291	1	116	08:59:19	4223517	5	3	3	3	1	3	3	3	3	7	5	0	0	0	0	5	5
120712	08:59:19	10040	Trial	ResponseCR	14	0	175	0	116	08:59:19	4224916	5	3	3	3	1	3	3	3	3	7	5	0	0	0	0	5	5
120712	08:59:19	10040	Trial	CongruentRight	14	205	297	1	116	08:59:19	4225236	5	3	3	3	1	3	3	3	3	7	5	0	0	0	0	5	5
120712	08:59:19	10040	Trial	ResponseIL	14	0	175	0	116	08:59:19	4226649	5	3	3	3	1	3	3	3	3	7	5	0	0	0	0	5	5
120712	08:59:19	10040	Trial	IncongruentLeft	14	203	298	1	116	08:59:19	4226996	5	3	3	3	1	3	3	3	3	7	5	0	0	0	0	5	5
120712	08:59:19	10040	Trial	ResponseIR	14	0	175	0	116	08:59:19	4228355	5	3	3	3	1	3	3	3	3	7	5	0	0	0	0	5	5
120712	08:59:19	10040	Trial	IncongruentRight	14	205	397	1	116	08:59:19	4228808	5	3	3	3	1	3	3	3	3	7	5	0	0	0	0	5	5
120712	08:59:19	10040	Trial	ResponseCR	14	0	175	0	116	08:59:19	4230088	5	3	3	3	1	3	3	3	3	7	5	0	0	0	0	5	5
120712	08:59:19	10040	Trial	CongruentRight	14	205	408	1	116	08:59:19	4230528	5	3	3	3	1	3	3	3	3	7	5	0	0	0	0	5	5
120712	08:59:19	10040	Trial	ResponseCL	14	0	175	0	116	08:59:19	4231794	5	3	3	3	1	3	3	3	3	7	5	0	0	0	0	5	5
120712	08:59:19	10040	Trial	CongruentLeft	14	203	302	1	116	08:59:19	4232127	5	3	3	3	1	3	3	3	3	7	5	0	0	0	0	5	5
120712	08:59:19	10040	Trial	ResponseIR	14	0	175	0	116	08:59:19	4233526	5	3	3	3	1	3	3	3	3	7	5	0	0	0	0	5	5
120712	08:59:19	10040	Trial	IncongruentRight	14	205	393	1	116	08:59:19	4233953	5	3	3	3	1	3	3	3	3	7	5	0	0	0	0	5	5
120712	08:59:19	10040	Trial	ResponseIL	14	0	175	0	116	08:59:19	4235232	5	3	3	3	1	3	3	3	3	7	5	0	0	0	0	5	5
120712	08:59:19	10040	Trial	IncongruentLeft	14	203	273	1	116	08:59:19	4235552	5	3	3	3	1	3	3	3	3	7	5	0	0	0	0	5	5
120712	08:59:19	10040	Trial	ResponseIR	14	0	175	0	116	08:59:19	4236938	5	3	3	3	1	3	3	3	3	7	5	0	0	0	0	5	5
120712	08:59:19	10040	Trial	IncongruentRight	14	205	381	1	116	08:59:19	4237365	5	3	3	3	1	3	3	3	3	7	5	0	0	0	0	5	5
120712	08:59:19	10040	Trial	ResponseCR	14	0	175	0	116	08:59:19	4238644	5	3	3	3	1	3	3	3	3	7	5	0	0	0	0	5	5
120712	08:59:19	10040	Trial	CongruentRight	14	205	301	1	116	08:59:19	4238991	5	3	3	3	1	3	3	3	3	7	5	0	0	0	0	5	5
120712	08:59:19	10040	Trial	ResponseIL	14	0	175	0	116	08:59:19	4240364	5	3	3	3	1	3	3	3	3	7	5	0	0	0	0	5	5
120712	08:59:19	10040	Trial	IncongruentLeft	14	203	245	1	116	08:59:19	4240657	5	3	3	3	1	3	3	3	3	7	5	0	0	0	0	5	5
120712	08:59:19	10040	Trial	ResponseCL	14	0	175	0	116	08:59:19	4242070	5	3	3	3	1	3	3	3	3	7	5	0	0	0	0	5	5
120712	08:59:19	10040	Trial	CongruentLeft	14	203	354	1	116	08:59:19	4242469	5	3	3	3	1	3	3	3	3	7	5	0	0	0	0	5	5
120712	08:59:19	10040	Trial	ResponseCR	14	0	175	0	116	08:59:19	4243776	5	3	3	3	1	3	3	3	3	7	5	0	0	0	0	5	5
120712	08:59:19	10040	Trial	CongruentRight	14	205	211	1	116	08:59:19	4244029	5	3	3	3	1	3	3	3	3	7	5	0	0	0	0	5	5
120712	08:59:19	10040	Trial	ResponseIL	14	0	175	0	116	08:59:19	4245482	5	3	3	3	1	3	3	3	3	7	5	0	0	0	0	5	5
120712	08:59:19	10040	Trial	IncongruentLeft	14	203	267	1	116	08:59:19	4245801	5	3	3	3	1	3	3	3	3	7	5	0	0	0	0	5	5
120712	08:59:19	10040	Trial	ResponseIR	14	0	175	0	116	08:59:19	4247188	5	3	3	3	1	3	3	3	3	7	5	0	0	0	0	5	5
120712	08:59:19	10040	Trial	IncongruentRight	14	205	365	1	116	08:59:19	4247601	5	3	3	3	1	3	3	3	3	7	5	0	0	0	0	5	5
120712	08:59:19	10040	Trial	ResponseIR	14	0	175	0	116	08:59:19	4248894	5	3	3	3	1	3	3	3	3	7	5	0	0	0	0	5	5
120712	08:59:19	10040	Trial	IncongruentRight	14	205	473	1	116	08:59:19	4249413	5	3	3	3	1	3	3	3	3	7	5	0	0	0	0	5	5
120712	08:59:19	10040	Trial	ResponseCL	14	0	175	0	116	08:59:19	4250600	5	3	3	3	1	3	3	3	3	7	5	0	0	0	0	5	5
120712	08:59:19	10040	Trial	CongruentLeft	14	203	299	1	116	08:59:19	4250946	5	3	3	3	1	3	3	3	3	7	5	0	0	0	0	5	5
120712	08:59:19	10040	Trial	ResponseIL	14	0	175	0	116	08:59:19	4252319	5	3	3	3	1	3	3	3	3	7	5	0	0	0	0	5	5
120712	08:59:19	10040	Trial	IncongruentLeft	14	203	337	1	116	08:59:19	4252705	5	3	3	3	1	3	3	3	3	7	5	0	0	0	0	5	5
120712	08:59:19	10040	Trial	ResponseCR	14	0	175	0	116	08:59:19	4254025	5	3	3	3	1	3	3	3	3	7	5	0	0	0	0	5	5
120712	08:59:19	10040	Trial	CongruentRight	14	205	284	1	116	08:59:19	4254358	5	3	3	3	1	3	3	3	3	7	5	0	0	0	0	5	5
120712	08:59:19	10040	Trial	ResponseCL	14	0	175	0	116	08:59:19	4255744	5	3	3	3	1	3	3	3	3	7	5	0	0	0	0	5	5
120712	08:59:19	10040	Trial	CongruentLeft	14	203	260	1	116	08:59:19	4256051	5	3	3	3	1	3	3	3	3	7	5	0	0	0	0	5	5
120712	08:59:19	10040	Trial	ResponseIR	14	0	175	0	116	08:59:19	4257450	5	3	3	3	1	3	3	3	3	7	5	0	0	0	0	5	5
120712	08:59:19	10040	Trial	IncongruentRight	14	205	310	1	116	08:59:19	4257810	5	3	3	3	1	3	3	3	3	7	5	0	0	0	0	5	5
120712	08:59:19	10040	Trial	ResponseCR	14	0	175	0	116	08:59:19	4259156	5	3	3	3	1	3	3	3	3	7	5	0	0	0	0	5	5
120712	08:59:19	10040	Trial	CongruentRight	14	205	370	1	116	08:59:19	4259569	5	3	3	3	1	3	3	3	3	7	5	0	0	0	0	5	5
120712	08:59:19	10040	Trial	ResponseIL	14	0	175	0	116	08:59:19	4260862	5	3	3	3	1	3	3	3	3	7	5	0	0	0	0	5	5
120712	08:59:19	10040	Trial	IncongruentLeft	14	203	323	1	116	08:59:19	4261235	5	3	3	3	1	3	3	3	3	7	5	0	0	0	0	5	5
120712	08:59:19	10040	Trial	ResponseCL	14	0	175	0	116	08:59:19	4262568	5	3	3	3	1	3	3	3	3	7	5	0	0	0	0	5	5
120712	08:59:19	10040	Trial	CongruentLeft	14	203	287	1	116	08:59:19	4262901	5	3	3	3	1	3	3	3	3	7	5	0	0	0	0	5	5
120712	08:59:19	10040	Trial	ResponseIL	14	0	175	0	116	08:59:19	4264287	5	3	3	3	1	3	3	3	3	7	5	0	0	0	0	5	5
120712	08:59:19	10040	Trial	IncongruentLeft	14	203	423	1	116	08:59:19	4264754	5	3	3	3	1	3	3	3	3	7	5	0	0	0	0	5	5
120712	08:59:19	10040	Trial	ResponseIR	14	0	175	0	116	08:59:19	4266020	5	3	3	3	1	3	3	3	3	7	5	0	0	0	0	5	5
120712	08:59:19	10040	Trial	IncongruentRight	14	205	347	1	116	08:59:19	4266406	5	3	3	3	1	3	3	3	3	7	5	0	0	0	0	5	5
120712	08:59:19	10040	Trial	ResponseCR	14	0	175	0	116	08:59:19	4267726	5	3	3	3	1	3	3	3	3	7	5	0	0	0	0	5	5
120712	08:59:19	10040	Trial	CongruentRight	14	205	257	1	116	08:59:19	4268019	5	3	3	3	1	3	3	3	3	7	5	0	0	0	0	5	5
120712	08:59:19	10040	Trial	ResponseCL	14	0	175	0	116	08:59:19	4269459	5	3	3	3	1	3	3	3	3	7	5	0	0	0	0	5	5
120712	08:59:19	10040	Trial	CongruentLeft	14	203	268	1	116	08:59:19	4269765	5	3	3	3	1	3	3	3	3	7	5	0	0	0	0	5	5
120712	08:59:19	10040	Trial	ResponseCL	14	0	175	0	116	08:59:19	4271178	5	3	3	3	1	3	3	3	3	7	5	0	0	0	0	5	5
120712	08:59:19	10040	Trial	CongruentLeft	14	203	341	1	116	08:59:19	4271551	5	3	3	3	1	3	3	3	3	7	5	0	0	0	0	5	5
120712	08:59:19	10040	Trial	ResponseIR	14	0	175	0	116	08:59:19	4272897	5	3	3	3	1	3	3	3	3	7	5	0	0	0	0	5	5
120712	08:59:19	10040	Trial	IncongruentRight	14	205	494	1	116	08:59:19	4273430	5	3	3	3	1	3	3	3	3	7	5	0	0	0	0	5	5
120712	08:59:19	10040	Trial	ResponseIL	14	0	175	0	116	08:59:19	4274617	5	3	3	3	1	3	3	3	3	7	5	0	0	0	0	5	5
120712	08:59:19	10040	Trial	IncongruentLeft	14	203	294	1	116	08:59:19	4274950	5	3	3	3	1	3	3	3	3	7	5	0	0	0	0	5	5
120712	08:59:19	10040	Trial	ResponseIR	14	0	175	0	116	08:59:19	4276349	5	3	3	3	1	3	3	3	3	7	5	0	0	0	0	5	5
120712	08:59:19	10040	Trial	IncongruentRight	14	205	401	1	116	08:59:19	4276789	5	3	3	3	1	3	3	3	3	7	5	0	0	0	0	5	5
120712	08:59:19	10040	Trial	ResponseCR	14	0	175	0	116	08:59:19	4278068	5	3	3	3	1	3	3	3	3	7	5	0	0	0	0	5	5
120712	08:59:19	10040	Trial	CongruentRight	14	205	314	1	116	08:59:19	4278415	5	3	3	3	1	3	3	3	3	7	5	0	0	0	0	5	5
120712	08:59:19	10040	Trial	ResponseCR	14	0	175	0	116	08:59:19	4279801	5	3	3	3	1	3	3	3	3	7	5	0	0	0	0	5	5
120712	08:59:19	10040	Trial	CongruentRight	14	205	453	1	116	08:59:19	4280294	5	3	3	3	1	3	3	3	3	7	5	0	0	0	0	5	5
120712	08:59:19	10040	Trial	ResponseIL	14	0	175	0	116	08:59:19	4281520	5	3	3	3	1	3	3	3	3	7	5	0	0	0	0	5	5
120712	08:59:19	10040	Trial	IncongruentLeft	14	203	302	1	116	08:59:19	4281854	5	3	3	3	1	3	3	3	3	7	5	0	0	0	0	5	5
120712	08:59:19	10040	Trial	ResponseCL	14	0	175	0	116	08:59:19	4283253	5	3	3	3	1	3	3	3	3	7	5	0	0	0	0	5	5
120712	08:59:19	10040	Trial	CongruentLeft	14	203	409	1	116	08:59:19	4283693	5	3	3	3	1	3	3	3	3	7	5	0	0	0	0	5	5
120712	08:59:19	10040	Trial	ResponseCR	14	0	175	0	116	08:59:19	4284972	5	3	3	3	1	3	3	3	3	7	5	0	0	0	0	5	5
120712	08:59:19	10040	Trial	CongruentRight	14	205	306	1	116	08:59:19	4285319	5	3	3	3	1	3	3	3	3	7	5	0	0	0	0	5	5
120712	08:59:19	10040	Trial	ResponseCL	14	0	175	0	116	08:59:19	4286705	5	3	3	3	1	3	3	3	3	7	5	0	0	0	0	5	5
120712	08:59:19	10040	Trial	CongruentLeft	14	203	317	1	116	08:59:19	4287051	5	3	3	3	1	3	3	3	3	7	5	0	0	0	0	5	5
120712	08:59:19	10040	Trial	ResponseIR	14	0	175	0	116	08:59:19	4288411	5	3	3	3	1	3	3	3	3	7	5	0	0	0	0	5	5
120712	08:59:19	10040	Trial	IncongruentRight	14	205	292	1	116	08:59:19	4288744	5	3	3	3	1	3	3	3	3	7	5	0	0	0	0	5	5
120712	08:59:19	10040	Trial	ResponseCR	14	0	175	0	116	08:59:19	4290144	5	3	3	3	1	3	3	3	3	7	5	0	0	0	0	5	5
120712	08:59:19	10040	Trial	CongruentRight	14	205	383	1	116	08:59:19	4290557	5	3	3	3	1	3	3	3	3	7	5	0	0	0	0	5	5
120712	08:59:19	10040	Trial	ResponseCL	14	0	175	0	116	08:59:19	4291850	5	3	3	3	1	3	3	3	3	7	5	0	0	0	0	5	5
120712	08:59:19	10040	Trial	CongruentLeft	14	203	246	1	116	08:59:19	4292143	5	3	3	3	1	3	3	3	3	7	5	0	0	0	0	5	5
120712	08:59:19	10040	Trial	ResponseIL	14	0	175	0	116	08:59:19	4293556	5	3	3	3	1	3	3	3	3	7	5	0	0	0	0	5	5
120712	08:59:19	10040	Trial	IncongruentLeft	14	203	448	1	116	08:59:19	4294048	5	3	3	3	1	3	3	3	3	7	5	0	0	0	0	5	5
120712	08:59:19	10040	Trial	ResponseIL	14	0	175	0	116	08:59:19	4295262	5	3	3	3	1	3	3	3	3	7	5	0	0	0	0	5	5
120712	08:59:19	10040	Trial	IncongruentLeft	14	203	386	1	116	08:59:19	4295701	5	3	3	3	1	3	3	3	3	7	5	0	0	0	0	5	5
120712	08:59:19	10040	Trial	ResponseCR	14	0	175	0	116	08:59:19	4296967	5	3	3	3	1	3	3	3	3	7	5	0	0	0	0	5	5
120712	08:59:19	10040	Trial	CongruentRight	14	205	206	1	116	08:59:19	4297221	5	3	3	3	1	3	3	3	3	7	5	0	0	0	0	5	5
120712	08:59:19	10040	Trial	ResponseIR	14	0	175	0	116	08:59:19	4298674	5	3	3	3	1	3	3	3	3	7	5	0	0	0	0	5	5
120712	08:59:19	10040	Trial	IncongruentRight	14	205	590	1	116	08:59:19	4299313	5	3	3	3	1	3	3	3	3	7	5	0	0	0	0	5	5
120712	08:59:19	10040	Trial	ResponseCL	14	0	175	0	116	08:59:19	4300380	5	3	3	3	1	3	3	3	3	7	5	0	0	0	0	5	5
120712	08:59:19	10040	Trial	CongruentLeft	14	203	266	1	116	08:59:19	4300686	5	3	3	3	1	3	3	3	3	7	5	0	0	0	0	5	5
120712	08:59:19	10040	Trial	ResponseIR	14	0	175	0	116	08:59:19	4302086	5	3	3	3	1	3	3	3	3	7	5	0	0	0	0	5	5
120712	08:59:19	10040	Trial	IncongruentRight	14	205	364	1	116	08:59:19	4302499	5	3	3	3	1	3	3	3	3	7	5	0	0	0	0	5	5
120712	08:59:19	10040	Trial	ResponseCR	14	0	175	0	116	08:59:19	4303792	5	3	3	3	1	3	3	3	3	7	5	0	0	0	0	5	5
120712	08:59:19	10040	Trial	CongruentRight	14	205	302	1	116	08:59:19	4304151	5	3	3	3	1	3	3	3	3	7	5	0	0	0	0	5	5
120712	08:59:19	10040	Trial	ResponseIL	14	0	175	0	116	08:59:19	4305498	5	3	3	3	1	3	3	3	3	7	5	0	0	0	0	5	5
120712	08:59:19	10040	Trial	IncongruentLeft	14	203	313	1	116	08:59:19	4305857	5	3	3	3	1	3	3	3	3	7	5	0	0	0	0	5	5
120712	08:59:19	10040	Trial	ResponseCL	14	0	175	0	116	08:59:19	4307203	5	3	3	3	1	3	3	3	3	7	5	0	0	0	0	5	5
120712	08:59:19	10040	Trial	CongruentLeft	14	203	299	1	116	08:59:19	4307550	5	3	3	3	1	3	3	3	3	7	5	0	0	0	0	5	5
120712	08:59:19	10040	Trial	ResponseCR	14	0	175	0	116	08:59:19	4308923	5	3	3	3	1	3	3	3	3	7	5	0	0	0	0	5	5
120712	08:59:19	10040	Trial	CongruentRight	14	205	227	1	116	08:59:19	4309203	5	3	3	3	1	3	3	3	3	7	5	0	0	0	0	5	5
120712	08:59:19	10040	Trial	ResponseIL	14	0	175	0	116	08:59:19	4310629	5	3	3	3	1	3	3	3	3	7	5	0	0	0	0	5	5
120712	08:59:19	10040	Trial	IncongruentLeft	14	203	303	1	116	08:59:19	4310975	5	3	3	3	1	3	3	3	3	7	5	0	0	0	0	5	5
120712	08:59:19	10040	Trial	ResponseCR	14	0	175	0	116	08:59:19	4312348	5	3	3	3	1	3	3	3	3	7	5	0	0	0	0	5	5
120712	08:59:19	10040	Trial	CongruentRight	14	205	214	1	116	08:59:19	4312615	5	3	3	3	1	3	3	3	3	7	5	0	0	0	0	5	5
120712	08:59:19	10040	Trial	ResponseCR	14	0	175	0	116	08:59:19	4314054	5	3	3	3	1	3	3	3	3	7	5	0	0	0	0	5	5
120712	08:59:19	10040	Trial	CongruentRight	14	205	271	1	116	08:59:19	4314374	5	3	3	3	1	3	3	3	3	7	5	0	0	0	0	5	5
120712	08:59:19	10040	Trial	ResponseIR	14	0	175	0	116	08:59:19	4315760	5	3	3	3	1	3	3	3	3	7	5	0	0	0	0	5	5
120712	08:59:19	10040	Trial	IncongruentRight	14	205	385	1	116	08:59:19	4316200	5	3	3	3	1	3	3	3	3	7	5	0	0	0	0	5	5
120712	08:59:19	10040	Trial	ResponseCL	14	0	175	0	116	08:59:19	4317466	5	3	3	3	1	3	3	3	3	7	5	0	0	0	0	5	5
120712	08:59:19	10040	Trial	CongruentLeft	14	203	195	1	116	08:59:19	4317720	5	3	3	3	1	3	3	3	3	7	5	0	0	0	0	5	5
120712	08:59:19	10040	Trial	ResponseIL	14	0	175	0	116	08:59:19	4319172	5	3	3	3	1	3	3	3	3	7	5	0	0	0	0	5	5
120712	08:59:19	10040	Trial	IncongruentLeft	14	203	511	1	116	08:59:19	4319732	5	3	3	3	1	3	3	3	3	7	5	0	0	0	0	5	5
120712	08:59:19	10040	Trial	ResponseCL	14	0	175	0	116	08:59:19	4320878	5	3	3	3	1	3	3	3	3	7	5	0	0	0	0	5	5
120712	08:59:19	10040	Trial	CongruentLeft	14	203	272	1	116	08:59:19	4321198	5	3	3	3	1	3	3	3	3	7	5	0	0	0	0	5	5
120712	08:59:19	10040	Trial	ResponseIR	14	0	175	0	116	08:59:19	4322584	5	3	3	3	1	3	3	3	3	7	5	0	0	0	0	5	5
120712	08:59:19	10040	Trial	IncongruentRight	14	205	332	1	116	08:59:19	4322957	5	3	3	3	1	3	3	3	3	7	5	0	0	0	0	5	5
120712	08:59:19	10040	Trial	ResponseIL	14	0	175	0	116	08:59:19	4324290	5	3	3	3	1	3	3	3	3	7	5	0	0	0	0	5	5
120712	08:59:19	10040	Trial	IncongruentLeft	14	203	366	1	116	08:59:19	4324703	5	3	3	3	1	3	3	3	3	7	5	0	0	0	0	5	5
120712	08:59:19	10040	Trial	ResponseCR	14	0	175	0	116	08:59:19	4325996	5	3	3	3	1	3	3	3	3	7	5	0	0	0	0	5	5
120712	08:59:19	10040	Trial	CongruentRight	14	205	220	1	116	08:59:19	4326263	5	3	3	3	1	3	3	3	3	7	5	0	0	0	0	5	5
120712	08:59:19	10040	Trial	ResponseCL	14	0	175	0	116	08:59:19	4327702	5	3	3	3	1	3	3	3	3	7	5	0	0	0	0	5	5
120712	08:59:19	10040	Trial	CongruentLeft	14	203	266	1	116	08:59:19	4328022	5	3	3	3	1	3	3	3	3	7	5	0	0	0	0	5	5
120712	08:59:19	10040	Trial	ResponseIL	14	0	175	0	116	08:59:19	4329408	5	3	3	3	1	3	3	3	3	7	5	0	0	0	0	5	5
120712	08:59:19	10040	Trial	IncongruentLeft	14	203	454	1	116	08:59:19	4329901	5	3	3	3	1	3	3	3	3	7	5	0	0	0	0	5	5
120712	08:59:19	10040	Trial	ResponseCL	14	0	175	0	116	08:59:19	4331114	5	3	3	3	1	3	3	3	3	7	5	0	0	0	0	5	5
120712	08:59:19	10040	Trial	CongruentLeft	14	203	328	1	116	08:59:19	4331487	5	3	3	3	1	3	3	3	3	7	5	0	0	0	0	5	5
120712	08:59:19	10040	Trial	ResponseIR	14	0	175	0	116	08:59:19	4332820	5	3	3	3	1	3	3	3	3	7	5	0	0	0	0	5	5
120712	08:59:19	10040	Trial	IncongruentRight	14	205	346	1	116	08:59:19	4333220	5	3	3	3	1	3	3	3	3	7	5	0	0	0	0	5	5
120712	08:59:19	10040	Trial	ResponseCR	14	0	175	0	116	08:59:19	4334526	5	3	3	3	1	3	3	3	3	7	5	0	0	0	0	5	5
120712	08:59:19	10040	Trial	CongruentRight	14	205	277	1	116	08:59:19	4334846	5	3	3	3	1	3	3	3	3	7	5	0	0	0	0	5	5
120712	08:59:19	10040	Trial	ResponseIL	14	0	175	0	116	08:59:19	4336232	5	3	3	3	1	3	3	3	3	7	5	0	0	0	0	5	5
120712	08:59:19	10040	Trial	IncongruentLeft	14	203	280	1	116	08:59:19	4336565	5	3	3	3	1	3	3	3	3	7	5	0	0	0	0	5	5
120712	08:59:19	10040	Trial	ResponseCL	14	0	175	0	116	08:59:19	4337951	5	3	3	3	1	3	3	3	3	7	5	0	0	0	0	5	5
120712	08:59:19	10040	Trial	CongruentLeft	14	203	207	1	116	08:59:19	4338204	5	3	3	3	1	3	3	3	3	7	5	0	0	0	0	5	5
120712	08:59:19	10040	Trial	ResponseIR	14	0	175	0	116	08:59:19	4339657	5	3	3	3	1	3	3	3	3	7	5	0	0	0	0	5	5
120712	08:59:19	10040	Trial	IncongruentRight	14	205	427	1	116	08:59:19	4340124	5	3	3	3	1	3	3	3	3	7	5	0	0	0	0	5	5
120712	08:59:19	10040	Trial	ResponseIL	14	0	175	0	116	08:59:19	4341390	5	3	3	3	1	3	3	3	3	7	5	0	0	0	0	5	5
120712	08:59:19	10040	Trial	IncongruentLeft	14	203	367	1	116	08:59:19	4341790	5	3	3	3	1	3	3	3	3	7	5	0	0	0	0	5	5
120712	08:59:19	10040	Trial	ResponseCL	14	0	175	0	116	08:59:19	4343096	5	3	3	3	1	3	3	3	3	7	5	0	0	0	0	5	5
120712	08:59:19	10040	Trial	CongruentLeft	14	203	342	1	116	08:59:19	4343469	5	3	3	3	1	3	3	3	3	7	5	0	0	0	0	5	5
120712	08:59:19	10040	Trial	ResponseIL	14	0	175	0	116	08:59:19	4344815	5	3	3	3	1	3	3	3	3	7	5	0	0	0	0	5	5
120712	08:59:19	10040	Trial	IncongruentLeft	14	203	350	1	116	08:59:19	4345201	5	3	3	3	1	3	3	3	3	7	5	0	0	0	0	5	5
120712	08:59:19	10040	Trial	ResponseCR	14	0	175	0	116	08:59:19	4346534	5	3	3	3	1	3	3	3	3	7	5	0	0	0	0	5	5
120712	08:59:19	10040	Trial	CongruentRight	14	205	247	1	116	08:59:19	4346814	5	3	3	3	1	3	3	3	3	7	5	0	0	0	0	5	5
120712	08:59:19	10040	Trial	ResponseCL	14	0	175	0	116	08:59:19	4348267	5	3	3	3	1	3	3	3	3	7	5	0	0	0	0	5	5
120712	08:59:19	10040	Trial	CongruentLeft	14	203	402	1	116	08:59:19	4348707	5	3	3	3	1	3	3	3	3	7	5	0	0	0	0	5	5
120712	08:59:19	10040	Trial	ResponseIR	14	0	175	0	116	08:59:19	4349986	5	3	3	3	1	3	3	3	3	7	5	0	0	0	0	5	5
120712	08:59:19	10040	Trial	IncongruentRight	14	205	491	1	116	08:59:19	4350506	5	3	3	3	1	3	3	3	3	7	5	0	0	0	0	5	5
120712	08:59:19	10040	Trial	ResponseCL	14	0	175	0	116	08:59:19	4351719	5	3	3	3	1	3	3	3	3	7	5	0	0	0	0	5	5
120712	08:59:19	10040	Trial	CongruentLeft	14	203	261	1	116	08:59:19	4351999	5	3	3	3	1	3	3	3	3	7	5	0	0	0	0	5	5
120712	08:59:19	10040	Trial	ResponseCR	14	0	175	0	116	08:59:19	4353438	5	3	3	3	1	3	3	3	3	7	5	0	0	0	0	5	5
120712	08:59:19	10040	Trial	CongruentRight	14	205	207	1	116	08:59:19	4353678	5	3	3	3	1	3	3	3	3	7	5	0	0	0	0	5	5
120712	08:59:19	10040	Trial	ResponseIL	14	0	175	0	116	08:59:19	4355158	5	3	3	3	1	3	3	3	3	7	5	0	0	0	0	5	5
120712	08:59:19	10040	Trial	IncongruentLeft	14	203	199	1	116	08:59:19	4355397	5	3	3	3	1	3	3	3	3	7	5	0	0	0	0	5	5
120712	08:59:19	10040	WordsAbsEngThreemo	PAbsEngThreemo1	16	Abs1	1112	0	116	08:59:19	4363754	5	3	3	3	1	3	3	3	3	7	5	0	0	0	0	5	5
120712	08:59:19	10040	WordsAbsEngThreemo	AbsEngThreemo1	16	Abs1	17213	0	116	08:59:19	4381001	5	3	3	3	1	3	3	3	3	7	5	1	0	0	0	5	5
120712	08:59:19	10040	WordsAbsEngThreemo	AbsEngThreemo2	16	Abs1	13343	0	116	08:59:19	4394382	5	3	3	3	1	3	3	3	3	7	5	2	0	0	0	5	5
120712	08:59:19	10040	WordsAbsEngThreemo	AbsEngThreemo3	16	Abs2	46704	0	116	08:59:19	4441123	5	3	3	3	1	3	3	3	3	7	5	2	0	0	0	5	5
120712	08:59:19	10040	Trial2BackEngS	NS	17	0	1000	1	116	08:59:19	4477241	5	3	3	3	1	3	3	3	3	7	5	2	0	0	0	5	5
120712	08:59:19	10040	Trial2BackEngS	NS	17	0	1000	1	116	08:59:19	4478761	5	3	3	3	1	3	3	3	3	7	5	2	0	0	0	5	5
120712	08:59:19	10040	Trial2BackEngS	NS	17	0	1000	1	116	08:59:19	4480267	5	3	3	3	1	3	3	3	3	7	5	2	0	0	0	5	5
120712	08:59:19	10040	Trial2BackEngS	YS	17	0	1000	0	116	08:59:19	4481773	5	3	3	3	1	3	3	3	3	7	5	2	0	0	0	5	5
120712	08:59:19	10040	Trial2BackEngS	NS	17	0	1000	1	116	08:59:19	4483279	5	3	3	3	1	3	3	3	3	7	5	2	0	0	0	5	5
120712	08:59:19	10040	Trial2BackEngS	NS	17	0	1000	1	116	08:59:19	4484785	5	3	3	3	1	3	3	3	3	7	5	2	0	0	0	5	5
120712	08:59:19	10040	Trial2BackEngS	NS	17	0	1000	1	116	08:59:19	4486291	5	3	3	3	1	3	3	3	3	7	5	2	0	0	0	5	5
120712	08:59:19	10040	Trial2BackEngS	NS	17	0	1000	1	116	08:59:19	4487797	5	3	3	3	1	3	3	3	3	7	5	2	0	0	0	5	5
120712	08:59:19	10040	Trial2BackEngS	YS	17	57	550	1	116	08:59:19	4488863	5	3	3	3	1	3	3	3	3	7	5	2	0	0	0	5	5
120712	08:59:19	10040	Trial2BackEngS	NS	17	0	1000	1	116	08:59:19	4490809	5	3	3	3	1	3	3	3	3	7	5	2	0	0	0	5	5
120712	08:59:19	10040	Trial2BackEngS	NS	17	0	1000	1	116	08:59:19	4492315	5	3	3	3	1	3	3	3	3	7	5	2	0	0	0	5	5
120712	08:59:19	10040	Trial2BackEngS	YS	17	0	1000	0	116	08:59:19	4493821	5	3	3	3	1	3	3	3	3	7	5	2	0	0	0	5	5
120712	08:59:19	10040	Trial2BackEngS	NS	17	0	1000	1	116	08:59:19	4495327	5	3	3	3	1	3	3	3	3	7	5	2	0	0	0	5	5
120712	08:59:19	10040	Trial2BackEngS	NS	17	0	1000	1	116	08:59:19	4496834	5	3	3	3	1	3	3	3	3	7	5	2	0	0	0	5	5
120712	08:59:19	10040	Trial2BackEngS	NS	17	0	1000	1	116	08:59:19	4498340	5	3	3	3	1	3	3	3	3	7	5	2	0	0	0	5	5
120712	08:59:19	10040	Trial2BackEngS	YS	17	0	1000	0	116	08:59:19	4499846	5	3	3	3	1	3	3	3	3	7	5	2	0	0	0	5	5
120712	08:59:19	10040	Trial2BackEngS	NS	17	0	1000	1	116	08:59:19	4501352	5	3	3	3	1	3	3	3	3	7	5	2	0	0	0	5	5
120712	08:59:19	10040	Trial2BackEngS	NS	17	0	1000	1	116	08:59:19	4502871	5	3	3	3	1	3	3	3	3	7	5	2	0	0	0	5	5
120712	08:59:19	10040	Trial2BackEngS	NS	17	0	1000	1	116	08:59:19	4504377	5	3	3	3	1	3	3	3	3	7	5	2	0	0	0	5	5
120712	08:59:19	10040	Trial2BackEngS	NS	17	0	1000	1	116	08:59:19	4505883	5	3	3	3	1	3	3	3	3	7	5	2	0	0	0	5	5
120712	08:59:19	10040	Trial2BackEngS	YS	17	57	832	1	116	08:59:19	4507229	5	3	3	3	1	3	3	3	3	7	5	2	0	0	0	5	5
120712	08:59:19	10040	Trial2BackEngS	NS	17	0	1000	1	116	08:59:19	4508895	5	3	3	3	1	3	3	3	3	7	5	2	0	0	0	5	5
120712	08:59:19	10040	Trial2BackEngS	NS	17	0	1000	1	116	08:59:19	4510401	5	3	3	3	1	3	3	3	3	7	5	2	0	0	0	5	5
120712	08:59:19	10040	Trial2BackEngS	NS	17	0	1000	1	116	08:59:19	4511907	5	3	3	3	1	3	3	3	3	7	5	2	0	0	0	5	5
120712	08:59:19	10040	Trial2BackEngS	NS	17	0	1000	1	116	08:59:19	4513414	5	3	3	3	1	3	3	3	3	7	5	2	0	0	0	5	5
120712	08:59:19	10040	Trial2BackEngS	NS	17	0	1000	1	116	08:59:19	4514920	5	3	3	3	1	3	3	3	3	7	5	2	0	0	0	5	5
120712	08:59:19	10040	Trial2BackEngS	NS	17	0	1000	1	116	08:59:19	4516439	5	3	3	3	1	3	3	3	3	7	5	2	0	0	0	5	5
120712	08:59:19	10040	Trial2BackEngS	NS	17	0	1000	1	116	08:59:19	4517945	5	3	3	3	1	3	3	3	3	7	5	2	0	0	0	5	5
120712	08:59:19	10040	Trial2BackEngS	NS	17	0	1000	1	116	08:59:19	4519451	5	3	3	3	1	3	3	3	3	7	5	2	0	0	0	5	5
120712	08:59:19	10040	Trial2BackEngS	NS	17	0	1000	1	116	08:59:19	4520957	5	3	3	3	1	3	3	3	3	7	5	2	0	0	0	5	5
120712	08:59:19	10040	Trial2BackEngS	NS	17	0	1000	1	116	08:59:19	4522463	5	3	3	3	1	3	3	3	3	7	5	2	0	0	0	5	5
120712	08:59:19	10040	Trial2BackEngS	YS	17	0	1000	0	116	08:59:19	4523983	5	3	3	3	1	3	3	3	3	7	5	2	0	0	0	5	5
120712	08:59:19	10040	Trial2BackEngS	NS	17	0	1000	1	116	08:59:19	4525489	5	3	3	3	1	3	3	3	3	7	5	2	0	0	0	5	5
120712	08:59:19	10040	Trial2BackEngS	NS	17	0	1000	1	116	08:59:19	4527008	5	3	3	3	1	3	3	3	3	7	5	2	0	0	0	5	5
120712	08:59:19	10040	Trial2BackEngS	NS	17	0	1000	1	116	08:59:19	4528514	5	3	3	3	1	3	3	3	3	7	5	2	0	0	0	5	5
120712	08:59:19	10040	Trial2BackEngS	YS	17	0	1000	0	116	08:59:19	4530020	5	3	3	3	1	3	3	3	3	7	5	2	0	0	0	5	5
120712	08:59:19	10040	Trial2BackEngS	NS	17	0	1000	1	116	08:59:19	4531526	5	3	3	3	1	3	3	3	3	7	5	2	0	0	0	5	5
120712	08:59:19	10040	Trial2BackEngS	NS	17	0	1000	1	116	08:59:19	4533032	5	3	3	3	1	3	3	3	3	7	5	2	0	0	0	5	5
120712	08:59:19	10040	Trial2BackEngS	NS	17	0	1000	1	116	08:59:19	4534538	5	3	3	3	1	3	3	3	3	7	5	2	0	0	0	5	5
120712	08:59:19	10040	Trial2BackEngS	NS	17	0	1000	1	116	08:59:19	4536044	5	3	3	3	1	3	3	3	3	7	5	2	0	0	0	5	5
120712	08:59:19	10040	Trial2BackEngS	NS	17	0	1000	1	116	08:59:19	4537550	5	3	3	3	1	3	3	3	3	7	5	2	0	0	0	5	5
120712	08:59:19	10040	Trial2BackEngS	NS	17	0	1000	1	116	08:59:19	4539070	5	3	3	3	1	3	3	3	3	7	5	2	0	0	0	5	5
120712	08:59:19	10040	Trial2BackEngS	NS	17	0	1000	1	116	08:59:19	4540576	5	3	3	3	1	3	3	3	3	7	5	2	0	0	0	5	5
120712	08:59:19	10040	Trial2BackEngS	YS	17	0	1000	0	116	08:59:19	4542082	5	3	3	3	1	3	3	3	3	7	5	2	0	0	0	5	5
120712	08:59:19	10040	Trial2BackEngS	NS	17	0	1000	1	116	08:59:19	4543588	5	3	3	3	1	3	3	3	3	7	5	2	0	0	0	5	5
120712	08:59:19	10040	Trial2BackEngS	NS	17	0	1000	1	116	08:59:19	4545094	5	3	3	3	1	3	3	3	3	7	5	2	0	0	0	5	5
120712	08:59:19	10040	Trial2BackEngS	NS	17	0	1000	1	116	08:59:19	4546600	5	3	3	3	1	3	3	3	3	7	5	2	0	0	0	5	5
120712	08:59:19	10040	Trial2BackEngS	NS	17	0	1000	1	116	08:59:19	4548106	5	3	3	3	1	3	3	3	3	7	5	2	0	0	0	5	5
120712	08:59:19	10040	Trial2BackEngS	YS	17	57	736	1	116	08:59:19	4549359	5	3	3	3	1	3	3	3	3	7	5	2	0	0	0	5	5
120712	08:59:19	10040	Trial2BackEngS	NS	17	0	1000	1	116	08:59:19	4551118	5	3	3	3	1	3	3	3	3	7	5	2	0	0	0	5	5
120712	08:59:19	10040	Trial2BackEngS	NS	17	0	1000	1	116	08:59:19	4552624	5	3	3	3	1	3	3	3	3	7	5	2	0	0	0	5	5
120712	08:59:19	10040	Trial2BackEngS	NS	17	0	1000	1	116	08:59:19	4554130	5	3	3	3	1	3	3	3	3	7	5	2	0	0	0	5	5
120712	08:59:19	10040	Trial2BackEngS	NS	17	0	1000	1	116	08:59:19	4555636	5	3	3	3	1	3	3	3	3	7	5	2	0	0	0	5	5
120712	08:59:19	10040	Trial2BackEngS	NS	17	0	1000	1	116	08:59:19	4557142	5	3	3	3	1	3	3	3	3	7	5	2	0	0	0	5	5
120712	08:59:19	10040	Trial2BackEngS	NS	17	0	1000	1	116	08:59:19	4558649	5	3	3	3	1	3	3	3	3	7	5	2	0	0	0	5	5
120712	08:59:19	10040	Trial2BackEngS	YS	17	0	1000	0	116	08:59:19	4560155	5	3	3	3	1	3	3	3	3	7	5	2	0	0	0	5	5
120712	08:59:19	10040	Trial2BackEngS	NS	17	0	1000	1	116	08:59:19	4561661	5	3	3	3	1	3	3	3	3	7	5	2	0	0	0	5	5
120712	08:59:19	10040	Trial2BackEngS	NS	17	0	1000	1	116	08:59:19	4563167	5	3	3	3	1	3	3	3	3	7	5	2	0	0	0	5	5
120712	08:59:19	10040	Trial2BackEngS	NS	17	0	1000	1	116	08:59:19	4564673	5	3	3	3	1	3	3	3	3	7	5	2	0	0	0	5	5
120712	08:59:19	10040	Trial2BackEngS	NS	17	0	1000	1	116	08:59:19	4566179	5	3	3	3	1	3	3	3	3	7	5	2	0	0	0	5	5
120712	08:59:19	10040	Trial2BackEngS	NS	17	0	1000	1	116	08:59:19	4567685	5	3	3	3	1	3	3	3	3	7	5	2	0	0	0	5	5
120712	08:59:19	10040	Trial2BackEngS	NS	17	0	1000	1	116	08:59:19	4569191	5	3	3	3	1	3	3	3	3	7	5	2	0	0	0	5	5
120712	08:59:19	10040	Trial2BackEngS	NS	17	0	1000	1	116	08:59:19	4570697	5	3	3	3	1	3	3	3	3	7	5	2	0	0	0	5	5
120712	08:59:19	10040	Trial2BackEngS	YS	17	57	960	1	116	08:59:19	4572176	5	3	3	3	1	3	3	3	3	7	5	2	0	0	0	5	5
120712	08:59:19	10040	Trial2BackEngS	NS	17	0	1000	1	116	08:59:19	4573709	5	3	3	3	1	3	3	3	3	7	5	2	0	0	0	5	5
120712	08:59:19	10040	Trial2BackEngS	NS	17	0	1000	1	116	08:59:19	4575215	5	3	3	3	1	3	3	3	3	7	5	2	0	0	0	5	5
120712	08:59:19	10040	Trial2BackEngS	NS	17	0	1000	1	116	08:59:19	4576721	5	3	3	3	1	3	3	3	3	7	5	2	0	0	0	5	5
120712	08:59:19	10040	Trial2BackEngS	NS	17	0	1000	1	116	08:59:19	4578227	5	3	3	3	1	3	3	3	3	7	5	2	0	0	0	5	5
120712	08:59:19	10040	Trial2BackEngS	YS	17	0	1000	0	116	08:59:19	4579733	5	3	3	3	1	3	3	3	3	7	5	2	0	0	0	5	5
120712	08:59:19	10040	Trial2BackEngS	NS	17	0	1000	1	116	08:59:19	4581240	5	3	3	3	1	3	3	3	3	7	5	2	0	0	0	5	5
120712	08:59:19	10040	Trial2BackEngS	NS	17	0	1000	1	116	08:59:19	4582745	5	3	3	3	1	3	3	3	3	7	5	2	0	0	0	5	5
120712	08:59:19	10040	Trial2BackEngS	YS	17	57	656	1	116	08:59:19	4583918	5	3	3	3	1	3	3	3	3	7	5	2	0	0	0	5	5
120712	08:59:19	10040	Trial2BackEngS	NS	17	0	1000	1	116	08:59:19	4585758	5	3	3	3	1	3	3	3	3	7	5	2	0	0	0	5	5
120712	08:59:19	10040	Trial2BackEngS	NS	17	0	1000	1	116	08:59:19	4587264	5	3	3	3	1	3	3	3	3	7	5	2	0	0	0	5	5
120712	08:59:19	10040	Trial2BackEngS	NS	17	0	1000	1	116	08:59:19	4588770	5	3	3	3	1	3	3	3	3	7	5	2	0	0	0	5	5
120712	08:59:19	10040	Trial2BackEngS	NS	17	0	1000	1	116	08:59:19	4590276	5	3	3	3	1	3	3	3	3	7	5	2	0	0	0	5	5
120712	08:59:19	10040	Trial2BackEngS	NS	17	0	1000	1	116	08:59:19	4591782	5	3	3	3	1	3	3	3	3	7	5	2	0	0	0	5	5
120712	08:59:19	10040	Trial2BackEngS	NS	17	0	1000	1	116	08:59:19	4593288	5	3	3	3	1	3	3	3	3	7	5	2	0	0	0	5	5
120712	08:59:19	10040	Trial2BackEngS	YS	17	0	1000	0	116	08:59:19	4594794	5	3	3	3	1	3	3	3	3	7	5	2	0	0	0	5	5
120712	08:59:19	10040	Trial2BackEngS	NS	17	0	1000	1	116	08:59:19	4596300	5	3	3	3	1	3	3	3	3	7	5	2	0	0	0	5	5
120712	08:59:19	10040	Trial2BackEngS	NS	17	0	1000	1	116	08:59:19	4597806	5	3	3	3	1	3	3	3	3	7	5	2	0	0	0	5	5
120712	08:59:19	10040	Trial2BackEngS	NS	17	0	1000	1	116	08:59:19	4599325	5	3	3	3	1	3	3	3	3	7	5	2	0	0	0	5	5
120712	08:59:19	10040	Trial2BackEngS	NS	17	0	1000	1	116	08:59:19	4600831	5	3	3	3	1	3	3	3	3	7	5	2	0	0	0	5	5
120712	08:59:19	10040	Trial2BackEngS	YS	17	0	1000	0	116	08:59:19	4602337	5	3	3	3	1	3	3	3	3	7	5	2	0	0	0	5	5
120712	08:59:19	10040	Trial2BackEngS	NS	17	0	1000	1	116	08:59:19	4603844	5	3	3	3	1	3	3	3	3	7	5	2	0	0	0	5	5
120712	08:59:19	10040	Trial2BackEngS	NS	17	0	1000	1	116	08:59:19	4605350	5	3	3	3	1	3	3	3	3	7	5	2	0	0	0	5	5
120712	08:59:19	10040	Trial2BackEngS	NS	17	0	1000	1	116	08:59:19	4606869	5	3	3	3	1	3	3	3	3	7	5	2	0	0	0	5	5
120712	08:59:19	10040	Trial2BackEngS	NS	17	57	660	0	116	08:59:19	4608042	5	3	3	3	1	3	3	3	3	7	5	2	0	0	0	5	5
120712	08:59:19	10040	Trial2BackEngS	YS	17	0	1000	0	116	08:59:19	4609881	5	3	3	3	1	3	3	3	3	7	5	2	0	0	0	5	5
120712	08:59:19	10040	Trial2BackEngS	NS	17	0	1000	1	116	08:59:19	4611387	5	3	3	3	1	3	3	3	3	7	5	2	0	0	0	5	5
120712	08:59:19	10040	Trial2BackEngS	NS	17	0	1000	1	116	08:59:19	4612893	5	3	3	3	1	3	3	3	3	7	5	2	0	0	0	5	5
120712	08:59:19	10040	Trial2BackEngS	YS	17	57	603	1	116	08:59:19	4614013	5	3	3	3	1	3	3	3	3	7	5	2	0	0	0	5	5
120712	08:59:19	10040	Trial2BackEngS	NS	17	0	1000	1	116	08:59:19	4615905	5	3	3	3	1	3	3	3	3	7	5	2	0	0	0	5	5
120712	08:59:19	10040	Trial2BackEngS	NS	17	0	1000	1	116	08:59:19	4617411	5	3	3	3	1	3	3	3	3	7	5	2	0	0	0	5	5
120712	08:59:19	10040	Trial2BackEngS	NS	17	0	1000	1	116	08:59:19	4618917	5	3	3	3	1	3	3	3	3	7	5	2	0	0	0	5	5
120712	08:59:19	10040	Trial2BackEngS	NS	17	0	1000	1	116	08:59:19	4620423	5	3	3	3	1	3	3	3	3	7	5	2	0	0	0	5	5
120712	08:59:19	10040	Trial2BackEngS	NS	17	0	1000	1	116	08:59:19	4621930	5	3	3	3	1	3	3	3	3	7	5	2	0	0	0	5	5
120712	08:59:19	10040	Trial2BackEngS	NS	17	0	1000	1	116	08:59:19	4623436	5	3	3	3	1	3	3	3	3	7	5	2	0	0	0	5	5
120712	08:59:19	10040	Trial2BackEngS	NS	17	0	1000	1	116	08:59:19	4624942	5	3	3	3	1	3	3	3	3	7	5	2	0	0	0	5	5
120712	08:59:19	10040	Trial2BackEngS	NS	17	0	1000	1	116	08:59:19	4626448	5	3	3	3	1	3	3	3	3	7	5	2	0	0	0	5	5
120712	08:59:19	10040	Trial2BackEngS	YS	17	0	1000	0	116	08:59:19	4627954	5	3	3	3	1	3	3	3	3	7	5	2	0	0	0	5	5
120712	08:59:19	10040	Trial2BackEngS	NS	17	0	1000	1	116	08:59:19	4629473	5	3	3	3	1	3	3	3	3	7	5	2	0	0	0	5	5
120712	08:59:19	10040	Trial2BackEngS	NS	17	0	1000	1	116	08:59:19	4630979	5	3	3	3	1	3	3	3	3	7	5	2	0	0	0	5	5
120712	08:59:19	10040	Trial2BackEngS	NS	17	0	1000	1	116	08:59:19	4632485	5	3	3	3	1	3	3	3	3	7	5	2	0	0	0	5	5
120712	08:59:19	10040	Trial2BackEngS	NS	17	0	1000	1	116	08:59:19	4633991	5	3	3	3	1	3	3	3	3	7	5	2	0	0	0	5	5
120712	08:59:19	10040	Trial2BackEngS	NS	17	0	1000	1	116	08:59:19	4635497	5	3	3	3	1	3	3	3	3	7	5	2	0	0	0	5	5
120712	08:59:19	10040	Trial2BackEngS	NS	17	0	1000	1	116	08:59:19	4637017	5	3	3	3	1	3	3	3	3	7	5	2	0	0	0	5	5
120712	08:59:19	10040	Trial2BackEngS	NS	17	0	1000	1	116	08:59:19	4638523	5	3	3	3	1	3	3	3	3	7	5	2	0	0	0	5	5
120712	08:59:19	10040	Trial2BackEngS	YS	17	0	1000	0	116	08:59:19	4640029	5	3	3	3	1	3	3	3	3	7	5	2	0	0	0	5	5
120712	08:59:19	10040	Trial2BackEngS	NS	17	0	1000	1	116	08:59:19	4641535	5	3	3	3	1	3	3	3	3	7	5	2	0	0	0	5	5
120712	08:59:19	10040	Trial2BackEngS	NS	17	0	1000	1	116	08:59:19	4643041	5	3	3	3	1	3	3	3	3	7	5	2	0	0	0	5	5
120712	08:59:19	10040	Trial2BackEngS	NS	17	0	1000	1	116	08:59:19	4644547	5	3	3	3	1	3	3	3	3	7	5	2	0	0	0	5	5
120712	08:59:19	10040	Trial2BackEngS	NS	17	0	1000	1	116	08:59:19	4646066	5	3	3	3	1	3	3	3	3	7	5	2	0	0	0	5	5
120712	08:59:19	10040	Trial2BackEngS	NS	17	0	1000	1	116	08:59:19	4647573	5	3	3	3	1	3	3	3	3	7	5	2	0	0	0	5	5
120712	08:59:19	10040	Trial2BackEngS	NS	17	0	1000	1	116	08:59:19	4649079	5	3	3	3	1	3	3	3	3	7	5	2	0	0	0	5	5
120712	08:59:19	10040	Trial2BackEngS	NS	17	0	1000	1	116	08:59:19	4650585	5	3	3	3	1	3	3	3	3	7	5	2	0	0	0	5	5
120712	08:59:19	10040	Trial2BackEngS	NS	17	0	1000	1	116	08:59:19	4652104	5	3	3	3	1	3	3	3	3	7	5	2	0	0	0	5	5
120712	08:59:19	10040	Trial2BackEngS	NS	17	0	1000	1	116	08:59:19	4653623	5	3	3	3	1	3	3	3	3	7	5	2	0	0	0	5	5
120712	08:59:19	10040	Trial2BackEngS	YS	17	0	1000	0	116	08:59:19	4655129	5	3	3	3	1	3	3	3	3	7	5	2	0	0	0	5	5
120712	08:59:19	10040	Trial2BackEngS	NS	17	0	1000	1	116	08:59:19	4656635	5	3	3	3	1	3	3	3	3	7	5	2	0	0	0	5	5
120712	08:59:19	10040	ClockEng3mo	ClockEng3mo	19	Clock1	27539	0	116	08:59:19	4684371	5	3	3	3	1	3	3	3	3	7	5	2	1	0	0	5	5
120712	08:59:19	10040	ClockEng3mo	ClockEng3mo	19	Clock11	734	0	116	08:59:19	4685157	5	3	3	3	1	3	3	3	3	7	5	2	1	1	0	5	5
120712	08:59:19	10040	ClockEng3mo	ClockEng3mo	19	Clock111	2964	0	116	08:59:19	4688170	5	3	3	3	1	3	3	3	3	7	5	2	1	1	1	5	5
120712	08:59:19	10040	ClockEng3mo	ClockEng3mo	19	Clockdone	19296	0	116	08:59:19	4707522	5	3	3	3	1	3	3	3	3	7	5	2	1	1	1	5	5
120712	08:59:19	10040	FASEngVF3mo	StopEngVF3mo	20	16	6348	0	116	08:59:19	4840669	5	3	3	3	1	3	3	3	3	7	5	2	1	1	1	5	5
