date	time	subject	blockcode	trialcode	values.TaskNumber	response	latency	correct	values.Score	script.starttime	script.elapsedtime	values.ScoreS7	values.Word1	values.Word2	values.Word3	values.Word4	values.Word5	values.Word6	values.Word7	values.Word8	values.DigitSpanFwrd	values.DigitSpanBack	values.ScoreAbs	values.Contour	values.Numbers	values.Hands	values.corsiblockspanFwrd	values.corsiblockspanRev
102312	07:57:45	10027	Language	Language	0	English	49969	0	0	07:57:45	50119	0	0	0	0	0	0	0	0	0	0	0	0	0	0	0	0	0
102312	07:57:45	10027	Session	Session	0	3mo	789	0	0	07:57:45	50972	0	0	0	0	0	0	0	0	0	0	0	0	0	0	0	0	0
102312	07:57:45	10027	HandEng	HandEng	0	Right	2933416	0	0	07:57:45	2984449	0	0	0	0	0	0	0	0	0	0	0	0	0	0	0	0	0
102312	07:57:45	10027	CubeEng	CubeEng	1	1Cube	20852	0	0	07:57:45	3023207	0	0	0	0	0	0	0	0	0	0	0	0	0	0	0	0	0
102312	07:57:45	10027	pm.simpleEngRight	blank.simpleEng	2	0	1700	1	0	07:57:45	3056100	0	0	0	0	0	0	0	0	0	0	0	0	0	0	0	0	0
102312	07:57:45	10027	pm.simpleEngRight	pm.simpleEng	2	57	461	0	0	07:57:45	3056580	0	0	0	0	0	0	0	0	0	0	0	0	0	0	0	0	0
102312	07:57:45	10027	pm.simpleEngRight	blank.simpleEng	2	0	2200	1	0	07:57:45	3058792	0	0	0	0	0	0	0	0	0	0	0	0	0	0	0	0	0
102312	07:57:45	10027	pm.simpleEngRight	pm.simpleEng	2	57	345	0	0	07:57:45	3059165	0	0	0	0	0	0	0	0	0	0	0	0	0	0	0	0	0
102312	07:57:45	10027	pm.simpleEngRight	blank.simpleEng	2	0	2100	1	0	07:57:45	3061284	0	0	0	0	0	0	0	0	0	0	0	0	0	0	0	0	0
102312	07:57:45	10027	pm.simpleEngRight	pm.simpleEng	2	57	365	0	0	07:57:45	3061671	0	0	0	0	0	0	0	0	0	0	0	0	0	0	0	0	0
102312	07:57:45	10027	pm.simpleEngRight	blank.simpleEng	2	0	1900	1	0	07:57:45	3063590	0	0	0	0	0	0	0	0	0	0	0	0	0	0	0	0	0
102312	07:57:45	10027	pm.simpleEngRight	pm.simpleEng	2	57	299	0	0	07:57:45	3063910	0	0	0	0	0	0	0	0	0	0	0	0	0	0	0	0	0
102312	07:57:45	10027	pm.simpleEngRight	blank.simpleEng	2	0	1500	1	0	07:57:45	3065430	0	0	0	0	0	0	0	0	0	0	0	0	0	0	0	0	0
102312	07:57:45	10027	pm.simpleEngRight	pm.simpleEng	2	57	283	0	0	07:57:45	3065736	0	0	0	0	0	0	0	0	0	0	0	0	0	0	0	0	0
102312	07:57:45	10027	pm.simpleEngRight	blank.simpleEng	2	0	2500	1	0	07:57:45	3068255	0	0	0	0	0	0	0	0	0	0	0	0	0	0	0	0	0
102312	07:57:45	10027	pm.simpleEngRight	pm.simpleEng	2	57	258	0	0	07:57:45	3068535	0	0	0	0	0	0	0	0	0	0	0	0	0	0	0	0	0
102312	07:57:45	10027	pm.simpleEngRight	blank.simpleEng	2	0	2000	1	0	07:57:45	3070548	0	0	0	0	0	0	0	0	0	0	0	0	0	0	0	0	0
102312	07:57:45	10027	pm.simpleEngRight	pm.simpleEng	2	57	253	0	0	07:57:45	3070828	0	0	0	0	0	0	0	0	0	0	0	0	0	0	0	0	0
102312	07:57:45	10027	pm.simpleEngRight	blank.simpleEng	2	0	2400	1	0	07:57:45	3073240	0	0	0	0	0	0	0	0	0	0	0	0	0	0	0	0	0
102312	07:57:45	10027	pm.simpleEngRight	pm.simpleEng	2	57	281	0	0	07:57:45	3073546	0	0	0	0	0	0	0	0	0	0	0	0	0	0	0	0	0
102312	07:57:45	10027	pm.simpleEngRight	blank.simpleEng	2	0	1600	1	0	07:57:45	3075159	0	0	0	0	0	0	0	0	0	0	0	0	0	0	0	0	0
102312	07:57:45	10027	pm.simpleEngRight	pm.simpleEng	2	57	282	0	0	07:57:45	3075466	0	0	0	0	0	0	0	0	0	0	0	0	0	0	0	0	0
102312	07:57:45	10027	pm.simpleEngRight	blank.simpleEng	2	0	2300	1	0	07:57:45	3077785	0	0	0	0	0	0	0	0	0	0	0	0	0	0	0	0	0
102312	07:57:45	10027	pm.simpleEngRight	pm.simpleEng	2	57	248	0	0	07:57:45	3078051	0	0	0	0	0	0	0	0	0	0	0	0	0	0	0	0	0
102312	07:57:45	10027	pm.simpleEngRight	blank.simpleEng	2	0	1800	1	0	07:57:45	3079864	0	0	0	0	0	0	0	0	0	0	0	0	0	0	0	0	0
102312	07:57:45	10027	pm.simpleEngRight	pm.simpleEng	2	57	297	0	0	07:57:45	3080184	0	0	0	0	0	0	0	0	0	0	0	0	0	0	0	0	0
102312	07:57:45	10027	pm.simpleEngRight	blank.simpleEng	2	0	1800	1	0	07:57:45	3082023	0	0	0	0	0	0	0	0	0	0	0	0	0	0	0	0	0
102312	07:57:45	10027	pm.simpleEngRight	pm.simpleEng	2	57	250	0	0	07:57:45	3082289	0	0	0	0	0	0	0	0	0	0	0	0	0	0	0	0	0
102312	07:57:45	10027	pm.simpleEngRight	blank.simpleEng	2	0	1900	1	0	07:57:45	3084209	0	0	0	0	0	0	0	0	0	0	0	0	0	0	0	0	0
102312	07:57:45	10027	pm.simpleEngRight	pm.simpleEng	2	57	240	0	0	07:57:45	3084475	0	0	0	0	0	0	0	0	0	0	0	0	0	0	0	0	0
102312	07:57:45	10027	pm.simpleEngRight	blank.simpleEng	2	0	1500	1	0	07:57:45	3085995	0	0	0	0	0	0	0	0	0	0	0	0	0	0	0	0	0
102312	07:57:45	10027	pm.simpleEngRight	pm.simpleEng	2	57	262	0	0	07:57:45	3086275	0	0	0	0	0	0	0	0	0	0	0	0	0	0	0	0	0
102312	07:57:45	10027	pm.simpleEngRight	blank.simpleEng	2	0	2400	1	0	07:57:45	3088687	0	0	0	0	0	0	0	0	0	0	0	0	0	0	0	0	0
102312	07:57:45	10027	pm.simpleEngRight	pm.simpleEng	2	57	273	0	0	07:57:45	3088980	0	0	0	0	0	0	0	0	0	0	0	0	0	0	0	0	0
102312	07:57:45	10027	pm.simpleEngRight	blank.simpleEng	2	0	2100	1	0	07:57:45	3091099	0	0	0	0	0	0	0	0	0	0	0	0	0	0	0	0	0
102312	07:57:45	10027	pm.simpleEngRight	pm.simpleEng	2	57	293	0	0	07:57:45	3091419	0	0	0	0	0	0	0	0	0	0	0	0	0	0	0	0	0
102312	07:57:45	10027	pm.simpleEngRight	blank.simpleEng	2	0	2300	1	0	07:57:45	3093738	0	0	0	0	0	0	0	0	0	0	0	0	0	0	0	0	0
102312	07:57:45	10027	pm.simpleEngRight	pm.simpleEng	2	57	262	0	0	07:57:45	3094018	0	0	0	0	0	0	0	0	0	0	0	0	0	0	0	0	0
102312	07:57:45	10027	pm.simpleEngRight	blank.simpleEng	2	0	1700	1	0	07:57:45	3095737	0	0	0	0	0	0	0	0	0	0	0	0	0	0	0	0	0
102312	07:57:45	10027	pm.simpleEngRight	pm.simpleEng	2	57	263	0	0	07:57:45	3096017	0	0	0	0	0	0	0	0	0	0	0	0	0	0	0	0	0
102312	07:57:45	10027	pm.simpleEngRight	blank.simpleEng	2	0	2500	1	0	07:57:45	3098536	0	0	0	0	0	0	0	0	0	0	0	0	0	0	0	0	0
102312	07:57:45	10027	pm.simpleEngRight	pm.simpleEng	2	57	248	0	0	07:57:45	3098803	0	0	0	0	0	0	0	0	0	0	0	0	0	0	0	0	0
102312	07:57:45	10027	pm.simpleEngRight	blank.simpleEng	2	0	2000	1	0	07:57:45	3100815	0	0	0	0	0	0	0	0	0	0	0	0	0	0	0	0	0
102312	07:57:45	10027	pm.simpleEngRight	pm.simpleEng	2	57	241	0	0	07:57:45	3101082	0	0	0	0	0	0	0	0	0	0	0	0	0	0	0	0	0
102312	07:57:45	10027	pm.simpleEngRight	blank.simpleEng	2	0	2200	1	0	07:57:45	3103294	0	0	0	0	0	0	0	0	0	0	0	0	0	0	0	0	0
102312	07:57:45	10027	pm.simpleEngRight	pm.simpleEng	2	57	274	0	0	07:57:45	3103588	0	0	0	0	0	0	0	0	0	0	0	0	0	0	0	0	0
102312	07:57:45	10027	pm.simpleEngRight	blank.simpleEng	2	0	1600	1	0	07:57:45	3105200	0	0	0	0	0	0	0	0	0	0	0	0	0	0	0	0	0
102312	07:57:45	10027	pm.simpleEngRight	pm.simpleEng	2	57	289	0	0	07:57:45	3105507	0	0	0	0	0	0	0	0	0	0	0	0	0	0	0	0	0
102312	07:57:45	10027	pm.simpleEngRight	blank.simpleEng	2	0	1500	1	0	07:57:45	3107026	0	0	0	0	0	0	0	0	0	0	0	0	0	0	0	0	0
102312	07:57:45	10027	pm.simpleEngRight	pm.simpleEng	2	57	270	0	0	07:57:45	3107320	0	0	0	0	0	0	0	0	0	0	0	0	0	0	0	0	0
102312	07:57:45	10027	pm.simpleEngRight	blank.simpleEng	2	0	1600	1	0	07:57:45	3108932	0	0	0	0	0	0	0	0	0	0	0	0	0	0	0	0	0
102312	07:57:45	10027	pm.simpleEngRight	pm.simpleEng	2	57	252	0	0	07:57:45	3109212	0	0	0	0	0	0	0	0	0	0	0	0	0	0	0	0	0
102312	07:57:45	10027	pm.simpleEngRight	blank.simpleEng	2	0	2400	1	0	07:57:45	3111638	0	0	0	0	0	0	0	0	0	0	0	0	0	0	0	0	0
102312	07:57:45	10027	pm.simpleEngRight	pm.simpleEng	2	57	250	0	0	07:57:45	3111904	0	0	0	0	0	0	0	0	0	0	0	0	0	0	0	0	0
102312	07:57:45	10027	pm.simpleEngRight	blank.simpleEng	2	0	1800	1	0	07:57:45	3113717	0	0	0	0	0	0	0	0	0	0	0	0	0	0	0	0	0
102312	07:57:45	10027	pm.simpleEngRight	pm.simpleEng	2	57	315	0	0	07:57:45	3114050	0	0	0	0	0	0	0	0	0	0	0	0	0	0	0	0	0
102312	07:57:45	10027	pm.simpleEngRight	blank.simpleEng	2	0	2200	1	0	07:57:45	3116262	0	0	0	0	0	0	0	0	0	0	0	0	0	0	0	0	0
102312	07:57:45	10027	pm.simpleEngRight	pm.simpleEng	2	57	249	0	0	07:57:45	3116529	0	0	0	0	0	0	0	0	0	0	0	0	0	0	0	0	0
102312	07:57:45	10027	pm.simpleEngRight	blank.simpleEng	2	0	2000	1	0	07:57:45	3118541	0	0	0	0	0	0	0	0	0	0	0	0	0	0	0	0	0
102312	07:57:45	10027	pm.simpleEngRight	pm.simpleEng	2	57	258	0	0	07:57:45	3118821	0	0	0	0	0	0	0	0	0	0	0	0	0	0	0	0	0
102312	07:57:45	10027	pm.simpleEngRight	blank.simpleEng	2	0	2100	1	0	07:57:45	3120941	0	0	0	0	0	0	0	0	0	0	0	0	0	0	0	0	0
102312	07:57:45	10027	pm.simpleEngRight	pm.simpleEng	2	57	290	0	0	07:57:45	3121260	0	0	0	0	0	0	0	0	0	0	0	0	0	0	0	0	0
102312	07:57:45	10027	pm.simpleEngRight	blank.simpleEng	2	0	2300	1	0	07:57:45	3123579	0	0	0	0	0	0	0	0	0	0	0	0	0	0	0	0	0
102312	07:57:45	10027	pm.simpleEngRight	pm.simpleEng	2	57	260	0	0	07:57:45	3123859	0	0	0	0	0	0	0	0	0	0	0	0	0	0	0	0	0
102312	07:57:45	10027	pm.simpleEngRight	blank.simpleEng	2	0	1700	1	0	07:57:45	3125579	0	0	0	0	0	0	0	0	0	0	0	0	0	0	0	0	0
102312	07:57:45	10027	pm.simpleEngRight	pm.simpleEng	2	57	281	0	0	07:57:45	3125898	0	0	0	0	0	0	0	0	0	0	0	0	0	0	0	0	0
102312	07:57:45	10027	pm.simpleEngRight	blank.simpleEng	2	0	1900	1	0	07:57:45	3127818	0	0	0	0	0	0	0	0	0	0	0	0	0	0	0	0	0
102312	07:57:45	10027	pm.simpleEngRight	pm.simpleEng	2	57	262	0	0	07:57:45	3128098	0	0	0	0	0	0	0	0	0	0	0	0	0	0	0	0	0
102312	07:57:45	10027	pm.simpleEngRight	blank.simpleEng	2	0	2500	1	0	07:57:45	3130617	0	0	0	0	0	0	0	0	0	0	0	0	0	0	0	0	0
102312	07:57:45	10027	pm.simpleEngRight	pm.simpleEng	2	57	263	0	0	07:57:45	3130896	0	0	0	0	0	0	0	0	0	0	0	0	0	0	0	0	0
102312	07:57:45	10027	pm.simpleEngRight	blank.simpleEng	2	0	2500	1	0	07:57:45	3133415	0	0	0	0	0	0	0	0	0	0	0	0	0	0	0	0	0
102312	07:57:45	10027	pm.simpleEngRight	pm.simpleEng	2	57	248	0	0	07:57:45	3133682	0	0	0	0	0	0	0	0	0	0	0	0	0	0	0	0	0
102312	07:57:45	10027	pm.simpleEngRight	blank.simpleEng	2	0	2000	1	0	07:57:45	3135695	0	0	0	0	0	0	0	0	0	0	0	0	0	0	0	0	0
102312	07:57:45	10027	pm.simpleEngRight	pm.simpleEng	2	57	257	0	0	07:57:45	3135974	0	0	0	0	0	0	0	0	0	0	0	0	0	0	0	0	0
102312	07:57:45	10027	pm.simpleEngRight	blank.simpleEng	2	0	1800	1	0	07:57:45	3137787	0	0	0	0	0	0	0	0	0	0	0	0	0	0	0	0	0
102312	07:57:45	10027	pm.simpleEngRight	pm.simpleEng	2	57	276	0	0	07:57:45	3138080	0	0	0	0	0	0	0	0	0	0	0	0	0	0	0	0	0
102312	07:57:45	10027	pm.simpleEngRight	blank.simpleEng	2	0	1600	1	0	07:57:45	3139693	0	0	0	0	0	0	0	0	0	0	0	0	0	0	0	0	0
102312	07:57:45	10027	pm.simpleEngRight	pm.simpleEng	2	57	216	0	0	07:57:45	3139959	0	0	0	0	0	0	0	0	0	0	0	0	0	0	0	0	0
102312	07:57:45	10027	pm.simpleEngRight	blank.simpleEng	2	0	1900	1	0	07:57:45	3141879	0	0	0	0	0	0	0	0	0	0	0	0	0	0	0	0	0
102312	07:57:45	10027	pm.simpleEngRight	pm.simpleEng	2	57	248	0	0	07:57:45	3142145	0	0	0	0	0	0	0	0	0	0	0	0	0	0	0	0	0
102312	07:57:45	10027	pm.simpleEngRight	blank.simpleEng	2	0	1500	1	0	07:57:45	3143665	0	0	0	0	0	0	0	0	0	0	0	0	0	0	0	0	0
102312	07:57:45	10027	pm.simpleEngRight	pm.simpleEng	2	57	286	0	0	07:57:45	3143971	0	0	0	0	0	0	0	0	0	0	0	0	0	0	0	0	0
102312	07:57:45	10027	pm.simpleEngRight	blank.simpleEng	2	0	2300	1	0	07:57:45	3146290	0	0	0	0	0	0	0	0	0	0	0	0	0	0	0	0	0
102312	07:57:45	10027	pm.simpleEngRight	pm.simpleEng	2	57	253	0	0	07:57:45	3146570	0	0	0	0	0	0	0	0	0	0	0	0	0	0	0	0	0
102312	07:57:45	10027	Trial2BackEng	N	3	0	1000	1	1	07:57:45	3224259	0	0	0	0	0	0	0	0	0	0	0	0	0	0	0	0	0
102312	07:57:45	10027	Trial2BackEng	N	3	0	1000	1	2	07:57:45	3225765	0	0	0	0	0	0	0	0	0	0	0	0	0	0	0	0	0
102312	07:57:45	10027	Trial2BackEng	N	3	0	1000	1	3	07:57:45	3227271	0	0	0	0	0	0	0	0	0	0	0	0	0	0	0	0	0
102312	07:57:45	10027	Trial2BackEng	N	3	0	1000	1	4	07:57:45	3228777	0	0	0	0	0	0	0	0	0	0	0	0	0	0	0	0	0
102312	07:57:45	10027	Trial2BackEng	N	3	0	1000	1	5	07:57:45	3230296	0	0	0	0	0	0	0	0	0	0	0	0	0	0	0	0	0
102312	07:57:45	10027	Trial2BackEng	N	3	0	1000	1	6	07:57:45	3231802	0	0	0	0	0	0	0	0	0	0	0	0	0	0	0	0	0
102312	07:57:45	10027	Trial2BackEng	N	3	0	1000	1	7	07:57:45	3233308	0	0	0	0	0	0	0	0	0	0	0	0	0	0	0	0	0
102312	07:57:45	10027	Trial2BackEng	N	3	0	1000	1	8	07:57:45	3234814	0	0	0	0	0	0	0	0	0	0	0	0	0	0	0	0	0
102312	07:57:45	10027	Trial2BackEng	Y	3	57	611	1	9	07:57:45	3235934	0	0	0	0	0	0	0	0	0	0	0	0	0	0	0	0	0
102312	07:57:45	10027	Trial2BackEng	N	3	0	1000	1	10	07:57:45	3237827	0	0	0	0	0	0	0	0	0	0	0	0	0	0	0	0	0
102312	07:57:45	10027	Trial2BackEng	N	3	0	1000	1	11	07:57:45	3239333	0	0	0	0	0	0	0	0	0	0	0	0	0	0	0	0	0
102312	07:57:45	10027	Trial2BackEng	N	3	0	1000	1	12	07:57:45	3240839	0	0	0	0	0	0	0	0	0	0	0	0	0	0	0	0	0
102312	07:57:45	10027	Trial2BackEng	Y	3	57	635	1	13	07:57:45	3241985	0	0	0	0	0	0	0	0	0	0	0	0	0	0	0	0	0
102312	07:57:45	10027	Trial2BackEng	N	3	0	1000	1	14	07:57:45	3243851	0	0	0	0	0	0	0	0	0	0	0	0	0	0	0	0	0
102312	07:57:45	10027	Trial2BackEng	N	3	0	1000	1	15	07:57:45	3245357	0	0	0	0	0	0	0	0	0	0	0	0	0	0	0	0	0
102312	07:57:45	10027	Trial2BackEng	N	3	0	1000	1	16	07:57:45	3246863	0	0	0	0	0	0	0	0	0	0	0	0	0	0	0	0	0
102312	07:57:45	10027	Trial2BackEng	N	3	0	1000	1	17	07:57:45	3248369	0	0	0	0	0	0	0	0	0	0	0	0	0	0	0	0	0
102312	07:57:45	10027	Trial2BackEng	N	3	0	1000	1	18	07:57:45	3249875	0	0	0	0	0	0	0	0	0	0	0	0	0	0	0	0	0
102312	07:57:45	10027	Trial2BackEng	Y	3	57	638	1	19	07:57:45	3251021	0	0	0	0	0	0	0	0	0	0	0	0	0	0	0	0	0
102312	07:57:45	10027	Trial2BackEng	N	3	0	1000	1	20	07:57:45	3252887	0	0	0	0	0	0	0	0	0	0	0	0	0	0	0	0	0
102312	07:57:45	10027	Trial2BackEng	N	3	0	1000	1	21	07:57:45	3254393	0	0	0	0	0	0	0	0	0	0	0	0	0	0	0	0	0
102312	07:57:45	10027	Trial2BackEng	N	3	0	1000	1	22	07:57:45	3255899	0	0	0	0	0	0	0	0	0	0	0	0	0	0	0	0	0
102312	07:57:45	10027	Trial2BackEng	N	3	0	1000	1	23	07:57:45	3257405	0	0	0	0	0	0	0	0	0	0	0	0	0	0	0	0	0
102312	07:57:45	10027	Trial2BackEng	Y	3	57	563	1	24	07:57:45	3258485	0	0	0	0	0	0	0	0	0	0	0	0	0	0	0	0	0
102312	07:57:45	10027	Trial2BackEng	N	3	0	1000	1	25	07:57:45	3260417	0	0	0	0	0	0	0	0	0	0	0	0	0	0	0	0	0
102312	07:57:45	10027	Trial2BackEng	N	3	0	1000	1	26	07:57:45	3261923	0	0	0	0	0	0	0	0	0	0	0	0	0	0	0	0	0
102312	07:57:45	10027	Trial2BackEng	N	3	0	1000	1	27	07:57:45	3263429	0	0	0	0	0	0	0	0	0	0	0	0	0	0	0	0	0
102312	07:57:45	10027	Trial2BackEng	N	3	0	1000	1	28	07:57:45	3264936	0	0	0	0	0	0	0	0	0	0	0	0	0	0	0	0	0
102312	07:57:45	10027	Trial2BackEng	N	3	0	1000	1	29	07:57:45	3266442	0	0	0	0	0	0	0	0	0	0	0	0	0	0	0	0	0
102312	07:57:45	10027	Trial2BackEng	N	3	0	1000	1	30	07:57:45	3267948	0	0	0	0	0	0	0	0	0	0	0	0	0	0	0	0	0
102312	07:57:45	10027	Trial2BackEng	Y	3	57	821	1	31	07:57:45	3269280	0	0	0	0	0	0	0	0	0	0	0	0	0	0	0	0	0
102312	07:57:45	10027	Trial2BackEng	N	3	0	1000	1	32	07:57:45	3270960	0	0	0	0	0	0	0	0	0	0	0	0	0	0	0	0	0
102312	07:57:45	10027	Trial2BackEng	N	3	0	1000	1	33	07:57:45	3272466	0	0	0	0	0	0	0	0	0	0	0	0	0	0	0	0	0
102312	07:57:45	10027	Trial2BackEng	N	3	0	1000	1	34	07:57:45	3273972	0	0	0	0	0	0	0	0	0	0	0	0	0	0	0	0	0
102312	07:57:45	10027	Trial2BackEng	Y	3	57	941	1	35	07:57:45	3275425	0	0	0	0	0	0	0	0	0	0	0	0	0	0	0	0	0
102312	07:57:45	10027	Trial2BackEng	N	3	0	1000	1	36	07:57:45	3276984	0	0	0	0	0	0	0	0	0	0	0	0	0	0	0	0	0
102312	07:57:45	10027	Trial2BackEng	N	3	0	1000	1	37	07:57:45	3278490	0	0	0	0	0	0	0	0	0	0	0	0	0	0	0	0	0
102312	07:57:45	10027	Trial2BackEng	N	3	0	1000	1	38	07:57:45	3279996	0	0	0	0	0	0	0	0	0	0	0	0	0	0	0	0	0
102312	07:57:45	10027	Trial2BackEng	N	3	0	1000	1	39	07:57:45	3281502	0	0	0	0	0	0	0	0	0	0	0	0	0	0	0	0	0
102312	07:57:45	10027	Trial2BackEng	N	3	0	1000	1	40	07:57:45	3283008	0	0	0	0	0	0	0	0	0	0	0	0	0	0	0	0	0
102312	07:57:45	10027	Trial2BackEng	N	3	0	1000	1	41	07:57:45	3284514	0	0	0	0	0	0	0	0	0	0	0	0	0	0	0	0	0
102312	07:57:45	10027	Trial2BackEng	Y	3	0	1000	0	41	07:57:45	3286021	0	0	0	0	0	0	0	0	0	0	0	0	0	0	0	0	0
102312	07:57:45	10027	Trial2BackEng	N	3	0	1000	1	42	07:57:45	3287526	0	0	0	0	0	0	0	0	0	0	0	0	0	0	0	0	0
102312	07:57:45	10027	Trial2BackEng	N	3	0	1000	1	43	07:57:45	3289046	0	0	0	0	0	0	0	0	0	0	0	0	0	0	0	0	0
102312	07:57:45	10027	Trial2BackEng	N	3	0	1000	1	44	07:57:45	3290552	0	0	0	0	0	0	0	0	0	0	0	0	0	0	0	0	0
102312	07:57:45	10027	Trial2BackEng	N	3	0	1000	1	45	07:57:45	3292085	0	0	0	0	0	0	0	0	0	0	0	0	0	0	0	0	0
102312	07:57:45	10027	Trial2BackEng	Y	3	57	507	1	46	07:57:45	3293111	0	0	0	0	0	0	0	0	0	0	0	0	0	0	0	0	0
102312	07:57:45	10027	Trial2BackEng	N	3	0	1000	1	47	07:57:45	3295097	0	0	0	0	0	0	0	0	0	0	0	0	0	0	0	0	0
102312	07:57:45	10027	Trial2BackEng	N	3	0	1000	1	48	07:57:45	3296603	0	0	0	0	0	0	0	0	0	0	0	0	0	0	0	0	0
102312	07:57:45	10027	Trial2BackEng	N	3	0	1000	1	49	07:57:45	3298109	0	0	0	0	0	0	0	0	0	0	0	0	0	0	0	0	0
102312	07:57:45	10027	Trial2BackEng	N	3	0	1000	1	50	07:57:45	3299615	0	0	0	0	0	0	0	0	0	0	0	0	0	0	0	0	0
102312	07:57:45	10027	Trial2BackEng	N	3	0	1000	1	51	07:57:45	3301134	0	0	0	0	0	0	0	0	0	0	0	0	0	0	0	0	0
102312	07:57:45	10027	Trial2BackEng	Y	3	57	498	1	52	07:57:45	3302147	0	0	0	0	0	0	0	0	0	0	0	0	0	0	0	0	0
102312	07:57:45	10027	Trial2BackEng	N	3	0	1000	1	53	07:57:45	3304146	0	0	0	0	0	0	0	0	0	0	0	0	0	0	0	0	0
102312	07:57:45	10027	Trial2BackEng	N	3	0	1000	1	54	07:57:45	3305652	0	0	0	0	0	0	0	0	0	0	0	0	0	0	0	0	0
102312	07:57:45	10027	Trial2BackEng	N	3	0	1000	1	55	07:57:45	3307158	0	0	0	0	0	0	0	0	0	0	0	0	0	0	0	0	0
102312	07:57:45	10027	Trial2BackEng	N	3	0	1000	1	56	07:57:45	3308678	0	0	0	0	0	0	0	0	0	0	0	0	0	0	0	0	0
102312	07:57:45	10027	Trial2BackEng	N	3	0	1000	1	57	07:57:45	3310184	0	0	0	0	0	0	0	0	0	0	0	0	0	0	0	0	0
102312	07:57:45	10027	Trial2BackEng	N	3	0	1000	1	58	07:57:45	3311703	0	0	0	0	0	0	0	0	0	0	0	0	0	0	0	0	0
102312	07:57:45	10027	Trial2BackEng	Y	3	57	648	1	59	07:57:45	3312863	0	0	0	0	0	0	0	0	0	0	0	0	0	0	0	0	0
102312	07:57:45	10027	Trial2BackEng	N	3	0	1000	1	60	07:57:45	3314715	0	0	0	0	0	0	0	0	0	0	0	0	0	0	0	0	0
102312	07:57:45	10027	Trial2BackEng	N	3	0	1000	1	61	07:57:45	3316221	0	0	0	0	0	0	0	0	0	0	0	0	0	0	0	0	0
102312	07:57:45	10027	Trial2BackEng	Y	3	57	802	1	62	07:57:45	3317541	0	0	0	0	0	0	0	0	0	0	0	0	0	0	0	0	0
102312	07:57:45	10027	Trial2BackEng	N	3	0	1000	1	63	07:57:45	3319234	0	0	0	0	0	0	0	0	0	0	0	0	0	0	0	0	0
102312	07:57:45	10027	Trial2BackEng	N	3	0	1000	1	64	07:57:45	3320740	0	0	0	0	0	0	0	0	0	0	0	0	0	0	0	0	0
102312	07:57:45	10027	Trial2BackEng	N	3	0	1000	1	65	07:57:45	3322246	0	0	0	0	0	0	0	0	0	0	0	0	0	0	0	0	0
102312	07:57:45	10027	Trial2BackEng	N	3	0	1000	1	66	07:57:45	3323752	0	0	0	0	0	0	0	0	0	0	0	0	0	0	0	0	0
102312	07:57:45	10027	Trial2BackEng	N	3	0	1000	1	67	07:57:45	3325258	0	0	0	0	0	0	0	0	0	0	0	0	0	0	0	0	0
102312	07:57:45	10027	Trial2BackEng	N	3	0	1000	1	68	07:57:45	3326764	0	0	0	0	0	0	0	0	0	0	0	0	0	0	0	0	0
102312	07:57:45	10027	Trial2BackEng	N	3	0	1000	1	69	07:57:45	3328270	0	0	0	0	0	0	0	0	0	0	0	0	0	0	0	0	0
102312	07:57:45	10027	Trial2BackEng	N	3	0	1000	1	70	07:57:45	3329776	0	0	0	0	0	0	0	0	0	0	0	0	0	0	0	0	0
102312	07:57:45	10027	Trial2BackEng	N	3	57	719	0	70	07:57:45	3331015	0	0	0	0	0	0	0	0	0	0	0	0	0	0	0	0	0
102312	07:57:45	10027	Trial2BackEng	N	3	0	1000	1	71	07:57:45	3332788	0	0	0	0	0	0	0	0	0	0	0	0	0	0	0	0	0
102312	07:57:45	10027	Trial2BackEng	Y	3	0	1000	0	71	07:57:45	3334294	0	0	0	0	0	0	0	0	0	0	0	0	0	0	0	0	0
102312	07:57:45	10027	Trial2BackEng	N	3	0	1000	1	72	07:57:45	3335800	0	0	0	0	0	0	0	0	0	0	0	0	0	0	0	0	0
102312	07:57:45	10027	Trial2BackEng	N	3	0	1000	1	73	07:57:45	3337306	0	0	0	0	0	0	0	0	0	0	0	0	0	0	0	0	0
102312	07:57:45	10027	Trial2BackEng	N	3	0	1000	1	74	07:57:45	3338812	0	0	0	0	0	0	0	0	0	0	0	0	0	0	0	0	0
102312	07:57:45	10027	Trial2BackEng	Y	3	57	707	1	75	07:57:45	3340038	0	0	0	0	0	0	0	0	0	0	0	0	0	0	0	0	0
102312	07:57:45	10027	Trial2BackEng	N	3	0	1000	1	76	07:57:45	3341825	0	0	0	0	0	0	0	0	0	0	0	0	0	0	0	0	0
102312	07:57:45	10027	Trial2BackEng	N	3	0	1000	1	77	07:57:45	3343330	0	0	0	0	0	0	0	0	0	0	0	0	0	0	0	0	0
102312	07:57:45	10027	Trial2BackEng	N	3	0	1000	1	78	07:57:45	3344850	0	0	0	0	0	0	0	0	0	0	0	0	0	0	0	0	0
102312	07:57:45	10027	Trial2BackEng	N	3	0	1000	1	79	07:57:45	3346356	0	0	0	0	0	0	0	0	0	0	0	0	0	0	0	0	0
102312	07:57:45	10027	Trial2BackEng	N	3	57	763	0	79	07:57:45	3347635	0	0	0	0	0	0	0	0	0	0	0	0	0	0	0	0	0
102312	07:57:45	10027	Trial2BackEng	Y	3	0	1000	0	79	07:57:45	3349368	0	0	0	0	0	0	0	0	0	0	0	0	0	0	0	0	0
102312	07:57:45	10027	Trial2BackEng	N	3	0	1000	1	80	07:57:45	3350874	0	0	0	0	0	0	0	0	0	0	0	0	0	0	0	0	0
102312	07:57:45	10027	Trial2BackEng	N	3	0	1000	1	81	07:57:45	3352380	0	0	0	0	0	0	0	0	0	0	0	0	0	0	0	0	0
102312	07:57:45	10027	Trial2BackEng	N	3	0	1000	1	82	07:57:45	3353886	0	0	0	0	0	0	0	0	0	0	0	0	0	0	0	0	0
102312	07:57:45	10027	Trial2BackEng	N	3	0	1000	1	83	07:57:45	3355392	0	0	0	0	0	0	0	0	0	0	0	0	0	0	0	0	0
102312	07:57:45	10027	Trial2BackEng	N	3	0	1000	1	84	07:57:45	3356898	0	0	0	0	0	0	0	0	0	0	0	0	0	0	0	0	0
102312	07:57:45	10027	Trial2BackEng	N	3	0	1000	1	85	07:57:45	3358404	0	0	0	0	0	0	0	0	0	0	0	0	0	0	0	0	0
102312	07:57:45	10027	Trial2BackEng	N	3	0	1000	1	86	07:57:45	3359911	0	0	0	0	0	0	0	0	0	0	0	0	0	0	0	0	0
102312	07:57:45	10027	Trial2BackEng	N	3	0	1000	1	87	07:57:45	3361416	0	0	0	0	0	0	0	0	0	0	0	0	0	0	0	0	0
102312	07:57:45	10027	Trial2BackEng	N	3	0	1000	1	88	07:57:45	3362922	0	0	0	0	0	0	0	0	0	0	0	0	0	0	0	0	0
102312	07:57:45	10027	Trial2BackEng	Y	3	0	1000	0	88	07:57:45	3364455	0	0	0	0	0	0	0	0	0	0	0	0	0	0	0	0	0
102312	07:57:45	10027	Trial2BackEng	N	3	0	1000	1	89	07:57:45	3365961	0	0	0	0	0	0	0	0	0	0	0	0	0	0	0	0	0
102312	07:57:45	10027	Trial2BackEng	N	3	0	1000	1	90	07:57:45	3367467	0	0	0	0	0	0	0	0	0	0	0	0	0	0	0	0	0
102312	07:57:45	10027	Trial2BackEng	N	3	0	1000	1	91	07:57:45	3368973	0	0	0	0	0	0	0	0	0	0	0	0	0	0	0	0	0
102312	07:57:45	10027	Trial2BackEng	N	3	0	1000	1	92	07:57:45	3370479	0	0	0	0	0	0	0	0	0	0	0	0	0	0	0	0	0
102312	07:57:45	10027	Trial2BackEng	N	3	0	1000	1	93	07:57:45	3371986	0	0	0	0	0	0	0	0	0	0	0	0	0	0	0	0	0
102312	07:57:45	10027	Trial2BackEng	N	3	0	1000	1	94	07:57:45	3373518	0	0	0	0	0	0	0	0	0	0	0	0	0	0	0	0	0
102312	07:57:45	10027	Trial2BackEng	N	3	0	1000	1	95	07:57:45	3375024	0	0	0	0	0	0	0	0	0	0	0	0	0	0	0	0	0
102312	07:57:45	10027	Trial2BackEng	N	3	0	1000	1	96	07:57:45	3376530	0	0	0	0	0	0	0	0	0	0	0	0	0	0	0	0	0
102312	07:57:45	10027	Trial2BackEng	Y	3	57	508	1	97	07:57:45	3377557	0	0	0	0	0	0	0	0	0	0	0	0	0	0	0	0	0
102312	07:57:45	10027	Trial2BackEng	N	3	0	1000	1	98	07:57:45	3379542	0	0	0	0	0	0	0	0	0	0	0	0	0	0	0	0	0
102312	07:57:45	10027	Trial2BackEng	N	3	0	1000	1	99	07:57:45	3381049	0	0	0	0	0	0	0	0	0	0	0	0	0	0	0	0	0
102312	07:57:45	10027	Trial2BackEng	N	3	0	1000	1	100	07:57:45	3382555	0	0	0	0	0	0	0	0	0	0	0	0	0	0	0	0	0
102312	07:57:45	10027	Trial2BackEng	N	3	0	1000	1	101	07:57:45	3384061	0	0	0	0	0	0	0	0	0	0	0	0	0	0	0	0	0
102312	07:57:45	10027	Trial2BackEng	Y	3	57	673	1	102	07:57:45	3385247	0	0	0	0	0	0	0	0	0	0	0	0	0	0	0	0	0
102312	07:57:45	10027	Trial2BackEng	N	3	0	1000	1	103	07:57:45	3387073	0	0	0	0	0	0	0	0	0	0	0	0	0	0	0	0	0
102312	07:57:45	10027	Trial2BackEng	N	3	0	1000	1	104	07:57:45	3388579	0	0	0	0	0	0	0	0	0	0	0	0	0	0	0	0	0
102312	07:57:45	10027	Trial2BackEng	N	3	0	1000	1	105	07:57:45	3390098	0	0	0	0	0	0	0	0	0	0	0	0	0	0	0	0	0
102312	07:57:45	10027	Trial2BackEng	Y	3	57	555	1	106	07:57:45	3391164	0	0	0	0	0	0	0	0	0	0	0	0	0	0	0	0	0
102312	07:57:45	10027	Trial2BackEng	N	3	0	1000	1	107	07:57:45	3393110	0	0	0	0	0	0	0	0	0	0	0	0	0	0	0	0	0
102312	07:57:45	10027	Trial2BackEng	N	3	0	1000	1	108	07:57:45	3394630	0	0	0	0	0	0	0	0	0	0	0	0	0	0	0	0	0
102312	07:57:45	10027	Trial2BackEng	N	3	0	1000	1	109	07:57:45	3396136	0	0	0	0	0	0	0	0	0	0	0	0	0	0	0	0	0
102312	07:57:45	10027	Trial2BackEng	N	3	0	1000	1	110	07:57:45	3397642	0	0	0	0	0	0	0	0	0	0	0	0	0	0	0	0	0
102312	07:57:45	10027	Trial2BackEng	N	3	0	1000	1	111	07:57:45	3399148	0	0	0	0	0	0	0	0	0	0	0	0	0	0	0	0	0
102312	07:57:45	10027	Trial2BackEng	Y	3	57	594	1	112	07:57:45	3400254	0	0	0	0	0	0	0	0	0	0	0	0	0	0	0	0	0
102312	07:57:45	10027	Trial2BackEng	N	3	0	1000	1	113	07:57:45	3402160	0	0	0	0	0	0	0	0	0	0	0	0	0	0	0	0	0
102312	07:57:45	10027	Trial2BackEng	N	3	0	1000	1	114	07:57:45	3403666	0	0	0	0	0	0	0	0	0	0	0	0	0	0	0	0	0
102312	07:57:45	10027	Trial2BackEng	N	3	0	1000	1	115	07:57:45	3405199	0	0	0	0	0	0	0	0	0	0	0	0	0	0	0	0	0
102312	07:57:45	10027	Trial2BackEng	Y	3	57	639	1	116	07:57:45	3406358	0	0	0	0	0	0	0	0	0	0	0	0	0	0	0	0	0
102312	07:57:45	10027	Trial3BackEng	NN	4	0	1000	1	116	07:57:45	3440464	0	0	0	0	0	0	0	0	0	0	0	0	0	0	0	0	0
102312	07:57:45	10027	Trial3BackEng	NN	4	0	1000	1	116	07:57:45	3441970	0	0	0	0	0	0	0	0	0	0	0	0	0	0	0	0	0
102312	07:57:45	10027	Trial3BackEng	NN	4	0	1000	1	116	07:57:45	3443477	0	0	0	0	0	0	0	0	0	0	0	0	0	0	0	0	0
102312	07:57:45	10027	Trial3BackEng	YY	4	57	568	1	116	07:57:45	3444556	0	0	0	0	0	0	0	0	0	0	0	0	0	0	0	0	0
102312	07:57:45	10027	Trial3BackEng	NN	4	0	1000	1	116	07:57:45	3446489	0	0	0	0	0	0	0	0	0	0	0	0	0	0	0	0	0
102312	07:57:45	10027	Trial3BackEng	NN	4	0	1000	1	116	07:57:45	3447995	0	0	0	0	0	0	0	0	0	0	0	0	0	0	0	0	0
102312	07:57:45	10027	Trial3BackEng	NN	4	0	1000	1	116	07:57:45	3449501	0	0	0	0	0	0	0	0	0	0	0	0	0	0	0	0	0
102312	07:57:45	10027	Trial3BackEng	NN	4	0	1000	1	116	07:57:45	3451007	0	0	0	0	0	0	0	0	0	0	0	0	0	0	0	0	0
102312	07:57:45	10027	Trial3BackEng	YY	4	0	1000	0	116	07:57:45	3452513	0	0	0	0	0	0	0	0	0	0	0	0	0	0	0	0	0
102312	07:57:45	10027	Trial3BackEng	NN	4	0	1000	1	116	07:57:45	3454032	0	0	0	0	0	0	0	0	0	0	0	0	0	0	0	0	0
102312	07:57:45	10027	Trial3BackEng	NN	4	0	1000	1	116	07:57:45	3455538	0	0	0	0	0	0	0	0	0	0	0	0	0	0	0	0	0
102312	07:57:45	10027	Trial3BackEng	NN	4	0	1000	1	116	07:57:45	3457044	0	0	0	0	0	0	0	0	0	0	0	0	0	0	0	0	0
102312	07:57:45	10027	Trial3BackEng	NN	4	0	1000	1	116	07:57:45	3458564	0	0	0	0	0	0	0	0	0	0	0	0	0	0	0	0	0
102312	07:57:45	10027	Trial3BackEng	NN	4	0	1000	1	116	07:57:45	3460070	0	0	0	0	0	0	0	0	0	0	0	0	0	0	0	0	0
102312	07:57:45	10027	Trial3BackEng	NN	4	0	1000	1	116	07:57:45	3461576	0	0	0	0	0	0	0	0	0	0	0	0	0	0	0	0	0
102312	07:57:45	10027	Trial3BackEng	NN	4	0	1000	1	116	07:57:45	3463082	0	0	0	0	0	0	0	0	0	0	0	0	0	0	0	0	0
102312	07:57:45	10027	Trial3BackEng	YY	4	0	1000	0	116	07:57:45	3464588	0	0	0	0	0	0	0	0	0	0	0	0	0	0	0	0	0
102312	07:57:45	10027	Trial3BackEng	NN	4	0	1000	1	116	07:57:45	3466094	0	0	0	0	0	0	0	0	0	0	0	0	0	0	0	0	0
102312	07:57:45	10027	Trial3BackEng	NN	4	0	1000	1	116	07:57:45	3467600	0	0	0	0	0	0	0	0	0	0	0	0	0	0	0	0	0
102312	07:57:45	10027	Trial3BackEng	NN	4	0	1000	1	116	07:57:45	3469119	0	0	0	0	0	0	0	0	0	0	0	0	0	0	0	0	0
102312	07:57:45	10027	Trial3BackEng	NN	4	0	1000	1	116	07:57:45	3470626	0	0	0	0	0	0	0	0	0	0	0	0	0	0	0	0	0
102312	07:57:45	10027	Trial3BackEng	NN	4	0	1000	1	116	07:57:45	3472132	0	0	0	0	0	0	0	0	0	0	0	0	0	0	0	0	0
102312	07:57:45	10027	Trial3BackEng	YY	4	57	824	1	116	07:57:45	3473464	0	0	0	0	0	0	0	0	0	0	0	0	0	0	0	0	0
102312	07:57:45	10027	Trial3BackEng	NN	4	0	1000	1	116	07:57:45	3475144	0	0	0	0	0	0	0	0	0	0	0	0	0	0	0	0	0
102312	07:57:45	10027	Trial3BackEng	NN	4	0	1000	1	116	07:57:45	3476650	0	0	0	0	0	0	0	0	0	0	0	0	0	0	0	0	0
102312	07:57:45	10027	Trial3BackEng	NN	4	0	1000	1	116	07:57:45	3478156	0	0	0	0	0	0	0	0	0	0	0	0	0	0	0	0	0
102312	07:57:45	10027	Trial3BackEng	YY	4	57	624	1	116	07:57:45	3479289	0	0	0	0	0	0	0	0	0	0	0	0	0	0	0	0	0
102312	07:57:45	10027	Trial3BackEng	NN	4	0	1000	1	116	07:57:45	3481168	0	0	0	0	0	0	0	0	0	0	0	0	0	0	0	0	0
102312	07:57:45	10027	Trial3BackEng	NN	4	0	1000	1	116	07:57:45	3482674	0	0	0	0	0	0	0	0	0	0	0	0	0	0	0	0	0
102312	07:57:45	10027	Trial3BackEng	NN	4	0	1000	1	116	07:57:45	3484180	0	0	0	0	0	0	0	0	0	0	0	0	0	0	0	0	0
102312	07:57:45	10027	Trial3BackEng	YY	4	57	391	1	116	07:57:45	3485086	0	0	0	0	0	0	0	0	0	0	0	0	0	0	0	0	0
102312	07:57:45	10027	Trial3BackEng	NN	4	0	1000	1	116	07:57:45	3487192	0	0	0	0	0	0	0	0	0	0	0	0	0	0	0	0	0
102312	07:57:45	10027	Trial3BackEng	NN	4	0	1000	1	116	07:57:45	3488698	0	0	0	0	0	0	0	0	0	0	0	0	0	0	0	0	0
102312	07:57:45	10027	Trial3BackEng	NN	4	0	1000	1	116	07:57:45	3490218	0	0	0	0	0	0	0	0	0	0	0	0	0	0	0	0	0
102312	07:57:45	10027	Trial3BackEng	NN	4	0	1000	1	116	07:57:45	3491737	0	0	0	0	0	0	0	0	0	0	0	0	0	0	0	0	0
102312	07:57:45	10027	Trial3BackEng	NN	4	0	1000	1	116	07:57:45	3493243	0	0	0	0	0	0	0	0	0	0	0	0	0	0	0	0	0
102312	07:57:45	10027	Trial3BackEng	NN	4	0	1000	1	116	07:57:45	3494749	0	0	0	0	0	0	0	0	0	0	0	0	0	0	0	0	0
102312	07:57:45	10027	Trial3BackEng	NN	4	0	1000	1	116	07:57:45	3496268	0	0	0	0	0	0	0	0	0	0	0	0	0	0	0	0	0
102312	07:57:45	10027	Trial3BackEng	NN	4	57	767	0	116	07:57:45	3497548	0	0	0	0	0	0	0	0	0	0	0	0	0	0	0	0	0
102312	07:57:45	10027	Trial3BackEng	NN	4	0	1000	1	116	07:57:45	3499281	0	0	0	0	0	0	0	0	0	0	0	0	0	0	0	0	0
102312	07:57:45	10027	Trial3BackEng	NN	4	0	1000	1	116	07:57:45	3500787	0	0	0	0	0	0	0	0	0	0	0	0	0	0	0	0	0
102312	07:57:45	10027	Trial3BackEng	YY	4	0	1000	0	116	07:57:45	3502293	0	0	0	0	0	0	0	0	0	0	0	0	0	0	0	0	0
102312	07:57:45	10027	Trial3BackEng	NN	4	0	1000	1	116	07:57:45	3503799	0	0	0	0	0	0	0	0	0	0	0	0	0	0	0	0	0
102312	07:57:45	10027	Trial3BackEng	NN	4	0	1000	1	116	07:57:45	3505305	0	0	0	0	0	0	0	0	0	0	0	0	0	0	0	0	0
102312	07:57:45	10027	Trial3BackEng	NN	4	0	1000	1	116	07:57:45	3506811	0	0	0	0	0	0	0	0	0	0	0	0	0	0	0	0	0
102312	07:57:45	10027	Trial3BackEng	NN	4	0	1000	1	116	07:57:45	3508317	0	0	0	0	0	0	0	0	0	0	0	0	0	0	0	0	0
102312	07:57:45	10027	Trial3BackEng	YY	4	57	750	1	116	07:57:45	3509583	0	0	0	0	0	0	0	0	0	0	0	0	0	0	0	0	0
102312	07:57:45	10027	Trial3BackEng	NN	4	0	1000	1	116	07:57:45	3511329	0	0	0	0	0	0	0	0	0	0	0	0	0	0	0	0	0
102312	07:57:45	10027	Trial3BackEng	NN	4	0	1000	1	116	07:57:45	3512835	0	0	0	0	0	0	0	0	0	0	0	0	0	0	0	0	0
102312	07:57:45	10027	Trial3BackEng	NN	4	0	1000	1	116	07:57:45	3514368	0	0	0	0	0	0	0	0	0	0	0	0	0	0	0	0	0
102312	07:57:45	10027	Trial3BackEng	NN	4	0	1000	1	116	07:57:45	3515874	0	0	0	0	0	0	0	0	0	0	0	0	0	0	0	0	0
102312	07:57:45	10027	Trial3BackEng	NN	4	0	1000	1	116	07:57:45	3517393	0	0	0	0	0	0	0	0	0	0	0	0	0	0	0	0	0
102312	07:57:45	10027	Trial3BackEng	YY	4	57	665	1	116	07:57:45	3518580	0	0	0	0	0	0	0	0	0	0	0	0	0	0	0	0	0
102312	07:57:45	10027	Trial3BackEng	NN	4	0	1000	1	116	07:57:45	3520405	0	0	0	0	0	0	0	0	0	0	0	0	0	0	0	0	0
102312	07:57:45	10027	Trial3BackEng	NN	4	0	1000	1	116	07:57:45	3521911	0	0	0	0	0	0	0	0	0	0	0	0	0	0	0	0	0
102312	07:57:45	10027	Trial3BackEng	NN	4	0	1000	1	116	07:57:45	3523417	0	0	0	0	0	0	0	0	0	0	0	0	0	0	0	0	0
102312	07:57:45	10027	Trial3BackEng	NN	4	0	1000	1	116	07:57:45	3524924	0	0	0	0	0	0	0	0	0	0	0	0	0	0	0	0	0
102312	07:57:45	10027	Trial3BackEng	NN	4	0	1000	1	116	07:57:45	3526430	0	0	0	0	0	0	0	0	0	0	0	0	0	0	0	0	0
102312	07:57:45	10027	Trial3BackEng	NN	4	0	1000	1	116	07:57:45	3527936	0	0	0	0	0	0	0	0	0	0	0	0	0	0	0	0	0
102312	07:57:45	10027	Trial3BackEng	YY	4	57	715	1	116	07:57:45	3529162	0	0	0	0	0	0	0	0	0	0	0	0	0	0	0	0	0
102312	07:57:45	10027	Trial3BackEng	NN	4	0	1000	1	116	07:57:45	3530948	0	0	0	0	0	0	0	0	0	0	0	0	0	0	0	0	0
102312	07:57:45	10027	Trial3BackEng	NN	4	0	1000	1	116	07:57:45	3532454	0	0	0	0	0	0	0	0	0	0	0	0	0	0	0	0	0
102312	07:57:45	10027	Trial3BackEng	NN	4	0	1000	1	116	07:57:45	3533960	0	0	0	0	0	0	0	0	0	0	0	0	0	0	0	0	0
102312	07:57:45	10027	Trial3BackEng	YY	4	57	946	1	116	07:57:45	3535426	0	0	0	0	0	0	0	0	0	0	0	0	0	0	0	0	0
102312	07:57:45	10027	Trial3BackEng	NN	4	0	1000	1	116	07:57:45	3536972	0	0	0	0	0	0	0	0	0	0	0	0	0	0	0	0	0
102312	07:57:45	10027	Trial3BackEng	NN	4	0	1000	1	116	07:57:45	3538478	0	0	0	0	0	0	0	0	0	0	0	0	0	0	0	0	0
102312	07:57:45	10027	Trial3BackEng	NN	4	0	1000	1	116	07:57:45	3539984	0	0	0	0	0	0	0	0	0	0	0	0	0	0	0	0	0
102312	07:57:45	10027	Trial3BackEng	NN	4	0	1000	1	116	07:57:45	3541490	0	0	0	0	0	0	0	0	0	0	0	0	0	0	0	0	0
102312	07:57:45	10027	Trial3BackEng	NN	4	0	1000	1	116	07:57:45	3542996	0	0	0	0	0	0	0	0	0	0	0	0	0	0	0	0	0
102312	07:57:45	10027	Trial3BackEng	NN	4	0	1000	1	116	07:57:45	3544502	0	0	0	0	0	0	0	0	0	0	0	0	0	0	0	0	0
102312	07:57:45	10027	Trial3BackEng	NN	4	0	1000	1	116	07:57:45	3546008	0	0	0	0	0	0	0	0	0	0	0	0	0	0	0	0	0
102312	07:57:45	10027	Trial3BackEng	NN	4	0	1000	1	116	07:57:45	3547514	0	0	0	0	0	0	0	0	0	0	0	0	0	0	0	0	0
102312	07:57:45	10027	Trial3BackEng	NN	4	0	1000	1	116	07:57:45	3549034	0	0	0	0	0	0	0	0	0	0	0	0	0	0	0	0	0
102312	07:57:45	10027	Trial3BackEng	YY	4	0	1000	0	116	07:57:45	3550540	0	0	0	0	0	0	0	0	0	0	0	0	0	0	0	0	0
102312	07:57:45	10027	Trial3BackEng	NN	4	0	1000	1	116	07:57:45	3552046	0	0	0	0	0	0	0	0	0	0	0	0	0	0	0	0	0
102312	07:57:45	10027	Trial3BackEng	NN	4	0	1000	1	116	07:57:45	3553565	0	0	0	0	0	0	0	0	0	0	0	0	0	0	0	0	0
102312	07:57:45	10027	Trial3BackEng	NN	4	0	1000	1	116	07:57:45	3555071	0	0	0	0	0	0	0	0	0	0	0	0	0	0	0	0	0
102312	07:57:45	10027	Trial3BackEng	YY	4	0	1000	0	116	07:57:45	3556577	0	0	0	0	0	0	0	0	0	0	0	0	0	0	0	0	0
102312	07:57:45	10027	Trial3BackEng	NN	4	0	1000	1	116	07:57:45	3558083	0	0	0	0	0	0	0	0	0	0	0	0	0	0	0	0	0
102312	07:57:45	10027	Trial3BackEng	NN	4	0	1000	1	116	07:57:45	3559589	0	0	0	0	0	0	0	0	0	0	0	0	0	0	0	0	0
102312	07:57:45	10027	Trial3BackEng	NN	4	0	1000	1	116	07:57:45	3561096	0	0	0	0	0	0	0	0	0	0	0	0	0	0	0	0	0
102312	07:57:45	10027	Trial3BackEng	NN	4	0	1000	1	116	07:57:45	3562602	0	0	0	0	0	0	0	0	0	0	0	0	0	0	0	0	0
102312	07:57:45	10027	Trial3BackEng	NN	4	0	1000	1	116	07:57:45	3564108	0	0	0	0	0	0	0	0	0	0	0	0	0	0	0	0	0
102312	07:57:45	10027	Trial3BackEng	YY	4	0	1000	0	116	07:57:45	3565614	0	0	0	0	0	0	0	0	0	0	0	0	0	0	0	0	0
102312	07:57:45	10027	Trial3BackEng	NN	4	0	1000	1	116	07:57:45	3567120	0	0	0	0	0	0	0	0	0	0	0	0	0	0	0	0	0
102312	07:57:45	10027	Trial3BackEng	NN	4	0	1000	1	116	07:57:45	3568626	0	0	0	0	0	0	0	0	0	0	0	0	0	0	0	0	0
102312	07:57:45	10027	Trial3BackEng	NN	4	0	1000	1	116	07:57:45	3570132	0	0	0	0	0	0	0	0	0	0	0	0	0	0	0	0	0
102312	07:57:45	10027	Trial3BackEng	NN	4	0	1000	1	116	07:57:45	3571651	0	0	0	0	0	0	0	0	0	0	0	0	0	0	0	0	0
102312	07:57:45	10027	Trial3BackEng	NN	4	57	630	0	116	07:57:45	3572797	0	0	0	0	0	0	0	0	0	0	0	0	0	0	0	0	0
102312	07:57:45	10027	Trial3BackEng	NN	4	0	1000	1	116	07:57:45	3574663	0	0	0	0	0	0	0	0	0	0	0	0	0	0	0	0	0
102312	07:57:45	10027	Trial3BackEng	NN	4	0	1000	1	116	07:57:45	3576196	0	0	0	0	0	0	0	0	0	0	0	0	0	0	0	0	0
102312	07:57:45	10027	Trial3BackEng	NN	4	0	1000	1	116	07:57:45	3577702	0	0	0	0	0	0	0	0	0	0	0	0	0	0	0	0	0
102312	07:57:45	10027	Trial3BackEng	NN	4	0	1000	1	116	07:57:45	3579222	0	0	0	0	0	0	0	0	0	0	0	0	0	0	0	0	0
102312	07:57:45	10027	Trial3BackEng	YY	4	0	1000	0	116	07:57:45	3580728	0	0	0	0	0	0	0	0	0	0	0	0	0	0	0	0	0
102312	07:57:45	10027	Trial3BackEng	NN	4	0	1000	1	116	07:57:45	3582234	0	0	0	0	0	0	0	0	0	0	0	0	0	0	0	0	0
102312	07:57:45	10027	Trial3BackEng	NN	4	0	1000	1	116	07:57:45	3583740	0	0	0	0	0	0	0	0	0	0	0	0	0	0	0	0	0
102312	07:57:45	10027	Trial3BackEng	NN	4	57	877	0	116	07:57:45	3585126	0	0	0	0	0	0	0	0	0	0	0	0	0	0	0	0	0
102312	07:57:45	10027	Trial3BackEng	NN	4	0	1000	1	116	07:57:45	3586752	0	0	0	0	0	0	0	0	0	0	0	0	0	0	0	0	0
102312	07:57:45	10027	Trial3BackEng	NN	4	0	1000	1	116	07:57:45	3588258	0	0	0	0	0	0	0	0	0	0	0	0	0	0	0	0	0
102312	07:57:45	10027	Trial3BackEng	NN	4	0	1000	1	116	07:57:45	3589777	0	0	0	0	0	0	0	0	0	0	0	0	0	0	0	0	0
102312	07:57:45	10027	Trial3BackEng	NN	4	0	1000	1	116	07:57:45	3591283	0	0	0	0	0	0	0	0	0	0	0	0	0	0	0	0	0
102312	07:57:45	10027	Trial3BackEng	NN	4	0	1000	1	116	07:57:45	3592789	0	0	0	0	0	0	0	0	0	0	0	0	0	0	0	0	0
102312	07:57:45	10027	Trial3BackEng	YY	4	0	1000	0	116	07:57:45	3594295	0	0	0	0	0	0	0	0	0	0	0	0	0	0	0	0	0
102312	07:57:45	10027	Trial3BackEng	NN	4	0	1000	1	116	07:57:45	3595801	0	0	0	0	0	0	0	0	0	0	0	0	0	0	0	0	0
102312	07:57:45	10027	Trial3BackEng	NN	4	0	1000	1	116	07:57:45	3597308	0	0	0	0	0	0	0	0	0	0	0	0	0	0	0	0	0
102312	07:57:45	10027	Trial3BackEng	NN	4	0	1000	1	116	07:57:45	3598840	0	0	0	0	0	0	0	0	0	0	0	0	0	0	0	0	0
102312	07:57:45	10027	Trial3BackEng	NN	4	0	1000	1	116	07:57:45	3600346	0	0	0	0	0	0	0	0	0	0	0	0	0	0	0	0	0
102312	07:57:45	10027	Trial3BackEng	YY	4	57	958	1	116	07:57:45	3601812	0	0	0	0	0	0	0	0	0	0	0	0	0	0	0	0	0
102312	07:57:45	10027	Trial3BackEng	NN	4	0	1000	1	116	07:57:45	3603358	0	0	0	0	0	0	0	0	0	0	0	0	0	0	0	0	0
102312	07:57:45	10027	Trial3BackEng	NN	4	0	1000	1	116	07:57:45	3604864	0	0	0	0	0	0	0	0	0	0	0	0	0	0	0	0	0
102312	07:57:45	10027	Trial3BackEng	NN	4	0	1000	1	116	07:57:45	3606371	0	0	0	0	0	0	0	0	0	0	0	0	0	0	0	0	0
102312	07:57:45	10027	Trial3BackEng	YY	4	57	982	1	116	07:57:45	3607863	0	0	0	0	0	0	0	0	0	0	0	0	0	0	0	0	0
102312	07:57:45	10027	Trial3BackEng	NN	4	0	1000	1	116	07:57:45	3609383	0	0	0	0	0	0	0	0	0	0	0	0	0	0	0	0	0
102312	07:57:45	10027	Trial3BackEng	NN	4	0	1000	1	116	07:57:45	3610902	0	0	0	0	0	0	0	0	0	0	0	0	0	0	0	0	0
102312	07:57:45	10027	Trial3BackEng	NN	4	0	1000	1	116	07:57:45	3612408	0	0	0	0	0	0	0	0	0	0	0	0	0	0	0	0	0
102312	07:57:45	10027	Trial3BackEng	NN	4	0	1000	1	116	07:57:45	3613914	0	0	0	0	0	0	0	0	0	0	0	0	0	0	0	0	0
102312	07:57:45	10027	Trial3BackEng	NN	4	0	1000	1	116	07:57:45	3615420	0	0	0	0	0	0	0	0	0	0	0	0	0	0	0	0	0
102312	07:57:45	10027	Trial3BackEng	YY	4	0	1000	0	116	07:57:45	3616926	0	0	0	0	0	0	0	0	0	0	0	0	0	0	0	0	0
102312	07:57:45	10027	Trial3BackEng	NN	4	0	1000	1	116	07:57:45	3618432	0	0	0	0	0	0	0	0	0	0	0	0	0	0	0	0	0
102312	07:57:45	10027	Trial3BackEng	NN	4	0	1000	1	116	07:57:45	3619952	0	0	0	0	0	0	0	0	0	0	0	0	0	0	0	0	0
102312	07:57:45	10027	Trial3BackEng	NN	4	0	1000	1	116	07:57:45	3621458	0	0	0	0	0	0	0	0	0	0	0	0	0	0	0	0	0
102312	07:57:45	10027	Trial3BackEng	YY	4	57	934	1	116	07:57:45	3622911	0	0	0	0	0	0	0	0	0	0	0	0	0	0	0	0	0
102312	07:57:45	10027	Memory1R3mo	Score	5	M1	27660	0	116	07:57:45	3683553	0	0	0	0	0	0	0	0	0	0	0	0	0	0	0	0	0
102312	07:57:45	10027	Memory1R3mo	Score	5	M2	192	0	116	07:57:45	3683793	0	0	0	0	0	0	0	0	0	0	0	0	0	0	0	0	0
102312	07:57:45	10027	Memory1R3mo	Score	5	M7	1280	0	116	07:57:45	3685126	0	0	0	0	0	0	0	0	0	0	0	0	0	0	0	0	0
102312	07:57:45	10027	Memory1R3mo	Score	5	Done	363	0	116	07:57:45	3685539	0	0	0	0	0	0	0	0	0	0	0	0	0	0	0	0	0
102312	07:57:45	10027	Memory2R3mo	Score2	5	11	20535	0	116	07:57:45	3726096	0	0	0	0	0	0	0	0	0	0	0	0	0	0	0	0	0
102312	07:57:45	10027	Memory2R3mo	Score2	5	33	1568	0	116	07:57:45	3727708	0	0	0	0	0	0	0	0	0	0	0	0	0	0	0	0	0
102312	07:57:45	10027	Memory2R3mo	Score2	5	44	163	0	116	07:57:45	3727921	0	0	0	0	0	0	0	0	0	0	0	0	0	0	0	0	0
102312	07:57:45	10027	Memory2R3mo	Score2	5	88	1494	0	116	07:57:45	3729468	0	0	0	0	0	0	0	0	0	0	0	0	0	0	0	0	0
102312	07:57:45	10027	Memory2R3mo	Score2	5	77	5508	0	116	07:57:45	3735025	0	0	0	0	0	0	0	0	0	0	0	0	0	0	0	0	0
102312	07:57:45	10027	Memory2R3mo	Score2	5	22	550	0	116	07:57:45	3735625	0	0	0	0	0	0	0	0	0	0	0	0	0	0	0	0	0
102312	07:57:45	10027	Memory2R3mo	Score2	5	Done	2086	0	116	07:57:45	3737758	0	0	0	0	0	0	0	0	0	0	0	0	0	0	0	0	0
102312	07:57:45	10027	Memory3R3mo	Score3	5	111	19564	0	116	07:57:45	3777462	0	0	0	0	0	0	0	0	0	0	0	0	0	0	0	0	0
102312	07:57:45	10027	Memory3R3mo	Score3	5	222	257	0	116	07:57:45	3777768	0	0	0	0	0	0	0	0	0	0	0	0	0	0	0	0	0
102312	07:57:45	10027	Memory3R3mo	Score3	5	333	214	0	116	07:57:45	3778035	0	0	0	0	0	0	0	0	0	0	0	0	0	0	0	0	0
102312	07:57:45	10027	Memory3R3mo	Score3	5	444	308	0	116	07:57:45	3778394	0	0	0	0	0	0	0	0	0	0	0	0	0	0	0	0	0
102312	07:57:45	10027	Memory3R3mo	Score3	5	555	236	0	116	07:57:45	3778674	0	0	0	0	0	0	0	0	0	0	0	0	0	0	0	0	0
102312	07:57:45	10027	Memory3R3mo	Score3	5	777	300	0	116	07:57:45	3779021	0	0	0	0	0	0	0	0	0	0	0	0	0	0	0	0	0
102312	07:57:45	10027	Memory3R3mo	Score3	5	666	465	0	116	07:57:45	3779541	0	0	0	0	0	0	0	0	0	0	0	0	0	0	0	0	0
102312	07:57:45	10027	Memory3R3mo	Score3	5	888	506	0	116	07:57:45	3780100	0	0	0	0	0	0	0	0	0	0	0	0	0	0	0	0	0
102312	07:57:45	10027	Memory3R3mo	Score3	5	Done	722	0	116	07:57:45	3780873	0	0	0	0	0	0	0	0	0	0	0	0	0	0	0	0	0
102312	07:57:45	10027	LoriaEngLH3	Stop	6	7	4332	0	116	07:57:45	3875996	0	0	0	0	0	0	0	0	0	0	0	0	0	0	0	0	0
102312	07:57:45	10027	EngTrail	Trails	7	1Trails	896	0	116	07:57:45	3908542	0	0	0	0	0	0	0	0	0	0	0	0	0	0	0	0	0
102312	07:57:45	10027	Serial7Eng3mo	Serial7Eng3mo	8	83	2197	0	116	07:57:45	3965120	1	0	0	0	0	0	0	0	0	0	0	0	0	0	0	0	0
102312	07:57:45	10027	Serial7Eng3mo	Serial7Eng3mo	8	75	3405	0	116	07:57:45	3968545	1	0	0	0	0	0	0	0	0	0	0	0	0	0	0	0	0
102312	07:57:45	10027	Serial7Eng3mo	Serial7Eng3mo	8	63	2843	0	116	07:57:45	3971413	1	0	0	0	0	0	0	0	0	0	0	0	0	0	0	0	0
102312	07:57:45	10027	Serial7Eng3mo	Serial7Eng3mo	8	55	3366	0	116	07:57:45	3974797	1	0	0	0	0	0	0	0	0	0	0	0	0	0	0	0	0
102312	07:57:45	10027	Serial7Eng3mo	Serial7Eng3mo	8	48	3057	0	116	07:57:45	3977876	2	0	0	0	0	0	0	0	0	0	0	0	0	0	0	0	0
102312	07:57:45	10027	corsiblockEngFwrd	recallseqEngFwrd	9	3	2612	0	116	07:57:45	4017473	2	0	0	0	0	0	0	0	0	0	0	0	0	0	0	0	0
102312	07:57:45	10027	corsiblockEngFwrd	recallseqEngFwrd	9	6	905	0	116	07:57:45	4018433	2	0	0	0	0	0	0	0	0	0	0	0	0	0	0	0	0
102312	07:57:45	10027	corsiblockEngFwrd	recallseqEngFwrd	9	doneCorsiEng	5074	0	116	07:57:45	4023550	2	0	0	0	0	0	0	0	0	0	0	0	0	0	0	2	0
102312	07:57:45	10027	corsiblockEngFwrd	recallseqEngFwrd	9	2	1229	0	116	07:57:45	4030907	2	0	0	0	0	0	0	0	0	0	0	0	0	0	0	2	0
102312	07:57:45	10027	corsiblockEngFwrd	recallseqEngFwrd	9	5	558	0	116	07:57:45	4031521	2	0	0	0	0	0	0	0	0	0	0	0	0	0	0	2	0
102312	07:57:45	10027	corsiblockEngFwrd	recallseqEngFwrd	9	7	706	0	116	07:57:45	4032280	2	0	0	0	0	0	0	0	0	0	0	0	0	0	0	2	0
102312	07:57:45	10027	corsiblockEngFwrd	recallseqEngFwrd	9	doneCorsiEng	970	0	116	07:57:45	4033307	2	0	0	0	0	0	0	0	0	0	0	0	0	0	0	3	0
102312	07:57:45	10027	corsiblockEngFwrd	recallseqEngFwrd	9	8	8546	0	116	07:57:45	4048980	2	0	0	0	0	0	0	0	0	0	0	0	0	0	0	3	0
102312	07:57:45	10027	corsiblockEngFwrd	recallseqEngFwrd	9	1	1605	0	116	07:57:45	4050633	2	0	0	0	0	0	0	0	0	0	0	0	0	0	0	3	0
102312	07:57:45	10027	corsiblockEngFwrd	recallseqEngFwrd	9	2	2128	0	116	07:57:45	4052805	2	0	0	0	0	0	0	0	0	0	0	0	0	0	0	3	0
102312	07:57:45	10027	corsiblockEngFwrd	recallseqEngFwrd	9	4	471	0	116	07:57:45	4053338	2	0	0	0	0	0	0	0	0	0	0	0	0	0	0	3	0
102312	07:57:45	10027	corsiblockEngFwrd	recallseqEngFwrd	9	doneCorsiEng	1191	0	116	07:57:45	4054578	2	0	0	0	0	0	0	0	0	0	0	0	0	0	0	3	0
102312	07:57:45	10027	corsiblockEngFwrd	recallseqEngFwrd	9	5	1194	0	116	07:57:45	4062855	2	0	0	0	0	0	0	0	0	0	0	0	0	0	0	3	0
102312	07:57:45	10027	corsiblockEngFwrd	recallseqEngFwrd	9	4	498	0	116	07:57:45	4063401	2	0	0	0	0	0	0	0	0	0	0	0	0	0	0	3	0
102312	07:57:45	10027	corsiblockEngFwrd	recallseqEngFwrd	9	9	984	0	116	07:57:45	4064441	2	0	0	0	0	0	0	0	0	0	0	0	0	0	0	3	0
102312	07:57:45	10027	corsiblockEngFwrd	recallseqEngFwrd	9	7	521	0	116	07:57:45	4065014	2	0	0	0	0	0	0	0	0	0	0	0	0	0	0	3	0
102312	07:57:45	10027	corsiblockEngFwrd	recallseqEngFwrd	9	doneCorsiEng	915	0	116	07:57:45	4065973	2	0	0	0	0	0	0	0	0	0	0	0	0	0	0	4	0
102312	07:57:45	10027	corsiblockEngFwrd	recallseqEngFwrd	9	2	5308	0	116	07:57:45	4078395	2	0	0	0	0	0	0	0	0	0	0	0	0	0	0	4	0
102312	07:57:45	10027	corsiblockEngFwrd	recallseqEngFwrd	9	3	870	0	116	07:57:45	4079315	2	0	0	0	0	0	0	0	0	0	0	0	0	0	0	4	0
102312	07:57:45	10027	corsiblockEngFwrd	recallseqEngFwrd	9	1	678	0	116	07:57:45	4080048	2	0	0	0	0	0	0	0	0	0	0	0	0	0	0	4	0
102312	07:57:45	10027	corsiblockEngFwrd	recallseqEngFwrd	9	8	953	0	116	07:57:45	4081047	2	0	0	0	0	0	0	0	0	0	0	0	0	0	0	4	0
102312	07:57:45	10027	corsiblockEngFwrd	recallseqEngFwrd	9	doneCorsiEng	746	0	116	07:57:45	4081847	2	0	0	0	0	0	0	0	0	0	0	0	0	0	0	4	0
102312	07:57:45	10027	corsiblockEngFwrd	recallseqEngFwrd	9	9	3541	0	116	07:57:45	4093469	2	0	0	0	0	0	0	0	0	0	0	0	0	0	0	4	0
102312	07:57:45	10027	corsiblockEngFwrd	recallseqEngFwrd	9	5	1348	0	116	07:57:45	4094868	2	0	0	0	0	0	0	0	0	0	0	0	0	0	0	4	0
102312	07:57:45	10027	corsiblockEngFwrd	recallseqEngFwrd	9	4	708	0	116	07:57:45	4095628	2	0	0	0	0	0	0	0	0	0	0	0	0	0	0	4	0
102312	07:57:45	10027	corsiblockEngFwrd	recallseqEngFwrd	9	1	588	0	116	07:57:45	4096268	2	0	0	0	0	0	0	0	0	0	0	0	0	0	0	4	0
102312	07:57:45	10027	corsiblockEngFwrd	recallseqEngFwrd	9	6	636	0	116	07:57:45	4096961	2	0	0	0	0	0	0	0	0	0	0	0	0	0	0	4	0
102312	07:57:45	10027	corsiblockEngFwrd	recallseqEngFwrd	9	doneCorsiEng	888	0	116	07:57:45	4097894	2	0	0	0	0	0	0	0	0	0	0	0	0	0	0	5	0
102312	07:57:45	10027	corsiblockEngFwrd	recallseqEngFwrd	9	2	3739	0	116	07:57:45	4109742	2	0	0	0	0	0	0	0	0	0	0	0	0	0	0	5	0
102312	07:57:45	10027	corsiblockEngFwrd	recallseqEngFwrd	9	3	825	0	116	07:57:45	4110622	2	0	0	0	0	0	0	0	0	0	0	0	0	0	0	5	0
102312	07:57:45	10027	corsiblockEngFwrd	recallseqEngFwrd	9	7	2970	0	116	07:57:45	4113647	2	0	0	0	0	0	0	0	0	0	0	0	0	0	0	5	0
102312	07:57:45	10027	corsiblockEngFwrd	recallseqEngFwrd	9	8	5288	0	116	07:57:45	4118992	2	0	0	0	0	0	0	0	0	0	0	0	0	0	0	5	0
102312	07:57:45	10027	corsiblockEngFwrd	recallseqEngFwrd	9	3	504	0	116	07:57:45	4119552	2	0	0	0	0	0	0	0	0	0	0	0	0	0	0	5	0
102312	07:57:45	10027	corsiblockEngFwrd	recallseqEngFwrd	9	1	504	0	116	07:57:45	4120111	2	0	0	0	0	0	0	0	0	0	0	0	0	0	0	5	0
102312	07:57:45	10027	corsiblockEngFwrd	recallseqEngFwrd	9	doneCorsiEng	897	0	116	07:57:45	4121058	2	0	0	0	0	0	0	0	0	0	0	0	0	0	0	5	0
102312	07:57:45	10027	corsiblockEngFwrd	recallseqEngFwrd	9	6	5561	0	116	07:57:45	4135705	2	0	0	0	0	0	0	0	0	0	0	0	0	0	0	5	0
102312	07:57:45	10027	corsiblockEngFwrd	recallseqEngFwrd	9	5	5983	0	116	07:57:45	4141743	2	0	0	0	0	0	0	0	0	0	0	0	0	0	0	5	0
102312	07:57:45	10027	corsiblockEngFwrd	recallseqEngFwrd	9	9	617	0	116	07:57:45	4142409	2	0	0	0	0	0	0	0	0	0	0	0	0	0	0	5	0
102312	07:57:45	10027	corsiblockEngFwrd	recallseqEngFwrd	9	7	366	0	116	07:57:45	4142822	2	0	0	0	0	0	0	0	0	0	0	0	0	0	0	5	0
102312	07:57:45	10027	corsiblockEngFwrd	recallseqEngFwrd	9	8	513	0	116	07:57:45	4143382	2	0	0	0	0	0	0	0	0	0	0	0	0	0	0	5	0
102312	07:57:45	10027	corsiblockEngFwrd	recallseqEngFwrd	9	2	1329	0	116	07:57:45	4144768	2	0	0	0	0	0	0	0	0	0	0	0	0	0	0	5	0
102312	07:57:45	10027	corsiblockEngFwrd	recallseqEngFwrd	9	doneCorsiEng	1023	0	116	07:57:45	4145848	2	0	0	0	0	0	0	0	0	0	0	0	0	0	0	5	0
102312	07:57:45	10027	corsiblockEngRev	recallseqEngRev	10	5	772	0	116	07:57:45	4165133	2	0	0	0	0	0	0	0	0	0	0	0	0	0	0	5	0
102312	07:57:45	10027	corsiblockEngRev	recallseqEngRev	10	1	634	0	116	07:57:45	4165813	2	0	0	0	0	0	0	0	0	0	0	0	0	0	0	5	0
102312	07:57:45	10027	corsiblockEngRev	recallseqEngRev	10	doneCorsiEng	1474	0	116	07:57:45	4167332	2	0	0	0	0	0	0	0	0	0	0	0	0	0	0	5	2
102312	07:57:45	10027	corsiblockEngRev	recallseqEngRev	10	6	4847	0	116	07:57:45	4178315	2	0	0	0	0	0	0	0	0	0	0	0	0	0	0	5	2
102312	07:57:45	10027	corsiblockEngRev	recallseqEngRev	10	9	660	0	116	07:57:45	4179021	2	0	0	0	0	0	0	0	0	0	0	0	0	0	0	5	2
102312	07:57:45	10027	corsiblockEngRev	recallseqEngRev	10	7	481	0	116	07:57:45	4179554	2	0	0	0	0	0	0	0	0	0	0	0	0	0	0	5	2
102312	07:57:45	10027	corsiblockEngRev	recallseqEngRev	10	doneCorsiEng	1052	0	116	07:57:45	4180661	2	0	0	0	0	0	0	0	0	0	0	0	0	0	0	5	3
102312	07:57:45	10027	corsiblockEngRev	recallseqEngRev	10	2	1509	0	116	07:57:45	4189297	2	0	0	0	0	0	0	0	0	0	0	0	0	0	0	5	3
102312	07:57:45	10027	corsiblockEngRev	recallseqEngRev	10	8	725	0	116	07:57:45	4190070	2	0	0	0	0	0	0	0	0	0	0	0	0	0	0	5	3
102312	07:57:45	10027	corsiblockEngRev	recallseqEngRev	10	4	560	0	116	07:57:45	4190683	2	0	0	0	0	0	0	0	0	0	0	0	0	0	0	5	3
102312	07:57:45	10027	corsiblockEngRev	recallseqEngRev	10	3	563	0	116	07:57:45	4191296	2	0	0	0	0	0	0	0	0	0	0	0	0	0	0	5	3
102312	07:57:45	10027	corsiblockEngRev	recallseqEngRev	10	doneCorsiEng	1047	0	116	07:57:45	4192389	2	0	0	0	0	0	0	0	0	0	0	0	0	0	0	5	4
102312	07:57:45	10027	corsiblockEngRev	recallseqEngRev	10	3	1108	0	116	07:57:45	4201625	2	0	0	0	0	0	0	0	0	0	0	0	0	0	0	5	4
102312	07:57:45	10027	corsiblockEngRev	recallseqEngRev	10	7	805	0	116	07:57:45	4202478	2	0	0	0	0	0	0	0	0	0	0	0	0	0	0	5	4
102312	07:57:45	10027	corsiblockEngRev	recallseqEngRev	10	2	776	0	116	07:57:45	4203304	2	0	0	0	0	0	0	0	0	0	0	0	0	0	0	5	4
102312	07:57:45	10027	corsiblockEngRev	recallseqEngRev	10	1	630	0	116	07:57:45	4203984	2	0	0	0	0	0	0	0	0	0	0	0	0	0	0	5	4
102312	07:57:45	10027	corsiblockEngRev	recallseqEngRev	10	9	710	0	116	07:57:45	4204744	2	0	0	0	0	0	0	0	0	0	0	0	0	0	0	5	4
102312	07:57:45	10027	corsiblockEngRev	recallseqEngRev	10	doneCorsiEng	918	0	116	07:57:45	4205717	2	0	0	0	0	0	0	0	0	0	0	0	0	0	0	5	4
102312	07:57:45	10027	corsiblockEngRev	recallseqEngRev	10	5	2028	0	116	07:57:45	4215833	2	0	0	0	0	0	0	0	0	0	0	0	0	0	0	5	4
102312	07:57:45	10027	corsiblockEngRev	recallseqEngRev	10	4	573	0	116	07:57:45	4216459	2	0	0	0	0	0	0	0	0	0	0	0	0	0	0	5	4
102312	07:57:45	10027	corsiblockEngRev	recallseqEngRev	10	6	594	0	116	07:57:45	4217099	2	0	0	0	0	0	0	0	0	0	0	0	0	0	0	5	4
102312	07:57:45	10027	corsiblockEngRev	recallseqEngRev	10	8	723	0	116	07:57:45	4217872	2	0	0	0	0	0	0	0	0	0	0	0	0	0	0	5	4
102312	07:57:45	10027	corsiblockEngRev	recallseqEngRev	10	3	3454	0	116	07:57:45	4221377	2	0	0	0	0	0	0	0	0	0	0	0	0	0	0	5	4
102312	07:57:45	10027	corsiblockEngRev	recallseqEngRev	10	doneCorsiEng	1124	0	116	07:57:45	4222550	2	0	0	0	0	0	0	0	0	0	0	0	0	0	0	5	4
102312	07:57:45	10027	testEng3mo	WordsEng3mo	11	1Eng3mo	15757	0	116	07:57:45	4246847	2	3	0	0	0	0	0	0	0	0	0	0	0	0	0	5	4
102312	07:57:45	10027	testEng3mo	WordsEng3mo	11	2Eng3mo	182	0	116	07:57:45	4247074	2	3	3	0	0	0	0	0	0	0	0	0	0	0	0	5	4
102312	07:57:45	10027	testEng3mo	WordsEng3mo	11	3Eng3mo	1763	0	116	07:57:45	4248886	2	3	3	3	0	0	0	0	0	0	0	0	0	0	0	5	4
102312	07:57:45	10027	testEng3mo	WordsEng3mo	11	4Eng3mo	151	0	116	07:57:45	4249086	2	3	3	3	3	0	0	0	0	0	0	0	0	0	0	5	4
102312	07:57:45	10027	testEng3mo	WordsEng3mo	11	6Eng3mo	1399	0	116	07:57:45	4250539	2	3	3	3	3	0	3	0	0	0	0	0	0	0	0	5	4
102312	07:57:45	10027	testEng3mo	WordsEng3mo	11	7Eng3mo	178	0	116	07:57:45	4250765	2	3	3	3	3	0	3	3	0	0	0	0	0	0	0	5	4
102312	07:57:45	10027	testEng3mo	WordsEng3mo	11	8Eng3mo	224	0	116	07:57:45	4251045	2	3	3	3	3	0	3	3	3	0	0	0	0	0	0	5	4
102312	07:57:45	10027	testEng3mo	WordsEng3mo	11	DoneEng3mo	15695	0	116	07:57:45	4266786	2	3	3	3	3	0	3	3	3	0	0	0	0	0	0	5	4
102312	07:57:45	10027	testEng3mo	Cat5Eng3mo	11	R5Eng3mo	4572	0	116	07:57:45	4271410	2	3	3	3	3	2	3	3	3	0	0	0	0	0	0	5	4
102312	07:57:45	10027	DigitSpanFwrdEng3mo	Score1FwrdEng3mo	12	DS1	2927	0	116	07:57:45	4290322	2	3	3	3	3	2	3	3	3	0	0	0	0	0	0	5	4
102312	07:57:45	10027	DigitSpanFwrdEng3mo	Gate1FwrdEng3mo	12	0	1	0	116	07:57:45	4290327	2	3	3	3	3	2	3	3	3	3	0	0	0	0	0	5	4
102312	07:57:45	10027	DigitSpanFwrdEng3mo	Score2FwrdEng3mo	12	DS1	4013	0	116	07:57:45	4300905	2	3	3	3	3	2	3	3	3	3	0	0	0	0	0	5	4
102312	07:57:45	10027	DigitSpanFwrdEng3mo	Gate3FwrdEng3mo	12	0	1	0	116	07:57:45	4300909	2	3	3	3	3	2	3	3	3	4	0	0	0	0	0	5	4
102312	07:57:45	10027	DigitSpanFwrdEng3mo	Score3FwrdEng3mo	12	DS1	4100	0	116	07:57:45	4313033	2	3	3	3	3	2	3	3	3	4	0	0	0	0	0	5	4
102312	07:57:45	10027	DigitSpanFwrdEng3mo	Gate5FwrdEng3mo	12	0	1	0	116	07:57:45	4313038	2	3	3	3	3	2	3	3	3	5	0	0	0	0	0	5	4
102312	07:57:45	10027	DigitSpanFwrdEng3mo	Score4FwrdEng3mo	12	DS1	3559	0	116	07:57:45	4326121	2	3	3	3	3	2	3	3	3	5	0	0	0	0	0	5	4
102312	07:57:45	10027	DigitSpanFwrdEng3mo	Gate7FwrdEng3mo	12	0	1	0	116	07:57:45	4326126	2	3	3	3	3	2	3	3	3	6	0	0	0	0	0	5	4
102312	07:57:45	10027	DigitSpanFwrdEng3mo	Score5FwrdEng3mo	12	DS1	4127	0	116	07:57:45	4341289	2	3	3	3	3	2	3	3	3	6	0	0	0	0	0	5	4
102312	07:57:45	10027	DigitSpanFwrdEng3mo	Gate9FwrdEng3mo	12	0	1	0	116	07:57:45	4341293	2	3	3	3	3	2	3	3	3	7	0	0	0	0	0	5	4
102312	07:57:45	10027	DigitSpanFwrdEng3mo	Score6FwrdEng3mo	12	DS2	5155	0	116	07:57:45	4359774	2	3	3	3	3	2	3	3	3	7	0	0	0	0	0	5	4
102312	07:57:45	10027	DigitSpanFwrdEng3mo	Gate11FwrdEng3mo	12	0	1	0	116	07:57:45	4359779	2	3	3	3	3	2	3	3	3	7	0	0	0	0	0	5	4
102312	07:57:45	10027	DigitSpanFwrdEng3mo	Score66FwrdEng3mo	12	DS2	6943	0	116	07:57:45	4379713	2	3	3	3	3	2	3	3	3	7	0	0	0	0	0	5	4
102312	07:57:45	10027	DigitSpanEng3mo	Score1Eng3mo	13	DS1	2853	0	116	07:57:45	4403783	2	3	3	3	3	2	3	3	3	7	0	0	0	0	0	5	4
102312	07:57:45	10027	DigitSpanEng3mo	Gate1Eng3mo	13	0	1	0	116	07:57:45	4403787	2	3	3	3	3	2	3	3	3	7	2	0	0	0	0	5	4
102312	07:57:45	10027	DigitSpanEng3mo	Score2Eng3mo	13	DS1	3213	0	116	07:57:45	4411966	2	3	3	3	3	2	3	3	3	7	2	0	0	0	0	5	4
102312	07:57:45	10027	DigitSpanEng3mo	Gate3Eng3mo	13	0	1	0	116	07:57:45	4411972	2	3	3	3	3	2	3	3	3	7	3	0	0	0	0	5	4
102312	07:57:45	10027	DigitSpanEng3mo	Score3Eng3mo	13	DS1	5518	0	116	07:57:45	4424055	2	3	3	3	3	2	3	3	3	7	3	0	0	0	0	5	4
102312	07:57:45	10027	DigitSpanEng3mo	Gate5Eng3mo	13	0	1	0	116	07:57:45	4424059	2	3	3	3	3	2	3	3	3	7	4	0	0	0	0	5	4
102312	07:57:45	10027	DigitSpanEng3mo	Score4Eng3mo	13	DS2	6571	0	116	07:57:45	4438662	2	3	3	3	3	2	3	3	3	7	4	0	0	0	0	5	4
102312	07:57:45	10027	DigitSpanEng3mo	Gate7Eng3mo	13	0	1	0	116	07:57:45	4438668	2	3	3	3	3	2	3	3	3	7	4	0	0	0	0	5	4
102312	07:57:45	10027	DigitSpanEng3mo	Score44Eng3mo	13	DS1	7086	0	116	07:57:45	4453989	2	3	3	3	3	2	3	3	3	7	4	0	0	0	0	5	4
102312	07:57:45	10027	DigitSpanEng3mo	Gate8Eng3mo	13	0	1	0	116	07:57:45	4453994	2	3	3	3	3	2	3	3	3	7	5	0	0	0	0	5	4
102312	07:57:45	10027	DigitSpanEng3mo	Score5Eng3mo	13	DS2	7943	0	116	07:57:45	4471462	2	3	3	3	3	2	3	3	3	7	5	0	0	0	0	5	4
102312	07:57:45	10027	DigitSpanEng3mo	Gate9Eng3mo	13	0	1	0	116	07:57:45	4471468	2	3	3	3	3	2	3	3	3	7	5	0	0	0	0	5	4
102312	07:57:45	10027	DigitSpanEng3mo	Score55Eng3mo	13	DS2	7518	0	116	07:57:45	4488588	2	3	3	3	3	2	3	3	3	7	5	0	0	0	0	5	4
102312	07:57:45	10027	Trial	ResponseIL	14	0	175	0	116	07:57:45	4543220	2	3	3	3	3	2	3	3	3	7	5	0	0	0	0	5	4
102312	07:57:45	10027	Trial	IncongruentLeft	14	203	428	1	116	07:57:45	4543673	2	3	3	3	3	2	3	3	3	7	5	0	0	0	0	5	4
102312	07:57:45	10027	Trial	ResponseCR	14	0	175	0	116	07:57:45	4544926	2	3	3	3	3	2	3	3	3	7	5	0	0	0	0	5	4
102312	07:57:45	10027	Trial	CongruentRight	14	205	242	1	116	07:57:45	4545192	2	3	3	3	3	2	3	3	3	7	5	0	0	0	0	5	4
102312	07:57:45	10027	Trial	ResponseIR	14	0	175	0	116	07:57:45	4546632	2	3	3	3	3	2	3	3	3	7	5	0	0	0	0	5	4
102312	07:57:45	10027	Trial	IncongruentRight	14	203	184	0	116	07:57:45	4546845	2	3	3	3	3	2	3	3	3	7	5	0	0	0	0	5	4
102312	07:57:45	10027	Trial	ResponseCL	14	0	175	0	116	07:57:45	4548338	2	3	3	3	3	2	3	3	3	7	5	0	0	0	0	5	4
102312	07:57:45	10027	Trial	CongruentLeft	14	203	254	1	116	07:57:45	4548618	2	3	3	3	3	2	3	3	3	7	5	0	0	0	0	5	4
102312	07:57:45	10027	Trial	ResponseCR	14	0	175	0	116	07:57:45	4550044	2	3	3	3	3	2	3	3	3	7	5	0	0	0	0	5	4
102312	07:57:45	10027	Trial	CongruentRight	14	205	276	1	116	07:57:45	4550337	2	3	3	3	3	2	3	3	3	7	5	0	0	0	0	5	4
102312	07:57:45	10027	Trial	ResponseIR	14	0	175	0	116	07:57:45	4551750	2	3	3	3	3	2	3	3	3	7	5	0	0	0	0	5	4
102312	07:57:45	10027	Trial	IncongruentRight	14	205	266	1	116	07:57:45	4552043	2	3	3	3	3	2	3	3	3	7	5	0	0	0	0	5	4
102312	07:57:45	10027	Trial	ResponseCL	14	0	175	0	116	07:57:45	4553456	2	3	3	3	3	2	3	3	3	7	5	0	0	0	0	5	4
102312	07:57:45	10027	Trial	CongruentLeft	14	203	271	1	116	07:57:45	4553749	2	3	3	3	3	2	3	3	3	7	5	0	0	0	0	5	4
102312	07:57:45	10027	Trial	ResponseIL	14	0	175	0	116	07:57:45	4555162	2	3	3	3	3	2	3	3	3	7	5	0	0	0	0	5	4
102312	07:57:45	10027	Trial	IncongruentLeft	14	203	358	1	116	07:57:45	4555548	2	3	3	3	3	2	3	3	3	7	5	0	0	0	0	5	4
102312	07:57:45	10027	Trial	ResponseIL	14	0	175	0	116	07:57:45	4556868	2	3	3	3	3	2	3	3	3	7	5	0	0	0	0	5	4
102312	07:57:45	10027	Trial	IncongruentLeft	14	203	380	1	116	07:57:45	4557267	2	3	3	3	3	2	3	3	3	7	5	0	0	0	0	5	4
102312	07:57:45	10027	Trial	ResponseCR	14	0	175	0	116	07:57:45	4558574	2	3	3	3	3	2	3	3	3	7	5	0	0	0	0	5	4
102312	07:57:45	10027	Trial	CongruentRight	14	205	242	1	116	07:57:45	4558840	2	3	3	3	3	2	3	3	3	7	5	0	0	0	0	5	4
102312	07:57:45	10027	Trial	ResponseIR	14	0	175	0	116	07:57:45	4560280	2	3	3	3	3	2	3	3	3	7	5	0	0	0	0	5	4
102312	07:57:45	10027	Trial	IncongruentRight	14	205	408	1	116	07:57:45	4560706	2	3	3	3	3	2	3	3	3	7	5	0	0	0	0	5	4
102312	07:57:45	10027	Trial	ResponseCL	14	0	175	0	116	07:57:45	4561986	2	3	3	3	3	2	3	3	3	7	5	0	0	0	0	5	4
102312	07:57:45	10027	Trial	CongruentLeft	14	203	190	1	116	07:57:45	4562199	2	3	3	3	3	2	3	3	3	7	5	0	0	0	0	5	4
102312	07:57:45	10027	Trial	ResponseCR	14	0	175	0	116	07:57:45	4563692	2	3	3	3	3	2	3	3	3	7	5	0	0	0	0	5	4
102312	07:57:45	10027	Trial	CongruentRight	14	205	228	1	116	07:57:45	4563945	2	3	3	3	3	2	3	3	3	7	5	0	0	0	0	5	4
102312	07:57:45	10027	Trial	ResponseIL	14	0	175	0	116	07:57:45	4565398	2	3	3	3	3	2	3	3	3	7	5	0	0	0	0	5	4
102312	07:57:45	10027	Trial	IncongruentLeft	14	203	250	1	116	07:57:45	4565664	2	3	3	3	3	2	3	3	3	7	5	0	0	0	0	5	4
102312	07:57:45	10027	Trial	ResponseIR	14	0	175	0	116	07:57:45	4567104	2	3	3	3	3	2	3	3	3	7	5	0	0	0	0	5	4
102312	07:57:45	10027	Trial	IncongruentRight	14	205	304	1	116	07:57:45	4567423	2	3	3	3	3	2	3	3	3	7	5	0	0	0	0	5	4
102312	07:57:45	10027	Trial	ResponseCR	14	0	175	0	116	07:57:45	4568809	2	3	3	3	3	2	3	3	3	7	5	0	0	0	0	5	4
102312	07:57:45	10027	Trial	CongruentRight	14	205	230	1	116	07:57:45	4569063	2	3	3	3	3	2	3	3	3	7	5	0	0	0	0	5	4
102312	07:57:45	10027	Trial	ResponseCL	14	0	175	0	116	07:57:45	4570515	2	3	3	3	3	2	3	3	3	7	5	0	0	0	0	5	4
102312	07:57:45	10027	Trial	CongruentLeft	14	203	188	1	116	07:57:45	4570729	2	3	3	3	3	2	3	3	3	7	5	0	0	0	0	5	4
102312	07:57:45	10027	Trial	ResponseCR	14	0	175	0	116	07:57:45	4572221	2	3	3	3	3	2	3	3	3	7	5	0	0	0	0	5	4
102312	07:57:45	10027	Trial	CongruentRight	14	205	162	1	116	07:57:45	4572408	2	3	3	3	3	2	3	3	3	7	5	0	0	0	0	5	4
102312	07:57:45	10027	Trial	ResponseIR	14	0	175	0	116	07:57:45	4573927	2	3	3	3	3	2	3	3	3	7	5	0	0	0	0	5	4
102312	07:57:45	10027	Trial	IncongruentRight	14	203	168	0	116	07:57:45	4574114	2	3	3	3	3	2	3	3	3	7	5	0	0	0	0	5	4
102312	07:57:45	10027	Trial	ResponseIL	14	0	175	0	116	07:57:45	4575633	2	3	3	3	3	2	3	3	3	7	5	0	0	0	0	5	4
102312	07:57:45	10027	Trial	IncongruentLeft	14	203	382	1	116	07:57:45	4576033	2	3	3	3	3	2	3	3	3	7	5	0	0	0	0	5	4
102312	07:57:45	10027	Trial	ResponseIL	14	0	175	0	116	07:57:45	4577339	2	3	3	3	3	2	3	3	3	7	5	0	0	0	0	5	4
102312	07:57:45	10027	Trial	IncongruentLeft	14	205	100	0	116	07:57:45	4577459	2	3	3	3	3	2	3	3	3	7	5	0	0	0	0	5	4
102312	07:57:45	10027	Trial	ResponseCL	14	0	175	0	116	07:57:45	4579046	2	3	3	3	3	2	3	3	3	7	5	0	0	0	0	5	4
102312	07:57:45	10027	Trial	CongruentLeft	14	203	266	1	116	07:57:45	4579339	2	3	3	3	3	2	3	3	3	7	5	0	0	0	0	5	4
102312	07:57:45	10027	Trial	ResponseCR	14	0	175	0	116	07:57:45	4580751	2	3	3	3	3	2	3	3	3	7	5	0	0	0	0	5	4
102312	07:57:45	10027	Trial	CongruentRight	14	205	199	1	116	07:57:45	4580978	2	3	3	3	3	2	3	3	3	7	5	0	0	0	0	5	4
102312	07:57:45	10027	Trial	ResponseIL	14	0	175	0	116	07:57:45	4582457	2	3	3	3	3	2	3	3	3	7	5	0	0	0	0	5	4
102312	07:57:45	10027	Trial	IncongruentLeft	14	205	230	0	116	07:57:45	4582710	2	3	3	3	3	2	3	3	3	7	5	0	0	0	0	5	4
102312	07:57:45	10027	Trial	ResponseIR	14	0	175	0	116	07:57:45	4584163	2	3	3	3	3	2	3	3	3	7	5	0	0	0	0	5	4
102312	07:57:45	10027	Trial	IncongruentRight	14	205	284	1	116	07:57:45	4584470	2	3	3	3	3	2	3	3	3	7	5	0	0	0	0	5	4
102312	07:57:45	10027	Trial	ResponseCR	14	0	175	0	116	07:57:45	4585869	2	3	3	3	3	2	3	3	3	7	5	0	0	0	0	5	4
102312	07:57:45	10027	Trial	CongruentRight	14	205	258	1	116	07:57:45	4586149	2	3	3	3	3	2	3	3	3	7	5	0	0	0	0	5	4
102312	07:57:45	10027	Trial	ResponseCL	14	0	175	0	116	07:57:45	4587575	2	3	3	3	3	2	3	3	3	7	5	0	0	0	0	5	4
102312	07:57:45	10027	Trial	CongruentLeft	14	203	184	1	116	07:57:45	4587775	2	3	3	3	3	2	3	3	3	7	5	0	0	0	0	5	4
102312	07:57:45	10027	Trial	ResponseIR	14	0	175	0	116	07:57:45	4589281	2	3	3	3	3	2	3	3	3	7	5	0	0	0	0	5	4
102312	07:57:45	10027	Trial	IncongruentRight	14	205	254	1	116	07:57:45	4589561	2	3	3	3	3	2	3	3	3	7	5	0	0	0	0	5	4
102312	07:57:45	10027	Trial	ResponseIL	14	0	175	0	116	07:57:45	4590987	2	3	3	3	3	2	3	3	3	7	5	0	0	0	0	5	4
102312	07:57:45	10027	Trial	IncongruentLeft	14	203	228	1	116	07:57:45	4591240	2	3	3	3	3	2	3	3	3	7	5	0	0	0	0	5	4
102312	07:57:45	10027	Trial	ResponseIR	14	0	175	0	116	07:57:45	4592693	2	3	3	3	3	2	3	3	3	7	5	0	0	0	0	5	4
102312	07:57:45	10027	Trial	IncongruentRight	14	205	186	1	116	07:57:45	4592906	2	3	3	3	3	2	3	3	3	7	5	0	0	0	0	5	4
102312	07:57:45	10027	Trial	ResponseCR	14	0	175	0	116	07:57:45	4594399	2	3	3	3	3	2	3	3	3	7	5	0	0	0	0	5	4
102312	07:57:45	10027	Trial	CongruentRight	14	205	272	1	116	07:57:45	4594692	2	3	3	3	3	2	3	3	3	7	5	0	0	0	0	5	4
102312	07:57:45	10027	Trial	ResponseIL	14	0	175	0	116	07:57:45	4596105	2	3	3	3	3	2	3	3	3	7	5	0	0	0	0	5	4
102312	07:57:45	10027	Trial	IncongruentLeft	14	203	261	1	116	07:57:45	4596385	2	3	3	3	3	2	3	3	3	7	5	0	0	0	0	5	4
102312	07:57:45	10027	Trial	ResponseCL	14	0	175	0	116	07:57:45	4597811	2	3	3	3	3	2	3	3	3	7	5	0	0	0	0	5	4
102312	07:57:45	10027	Trial	CongruentLeft	14	205	204	0	116	07:57:45	4598038	2	3	3	3	3	2	3	3	3	7	5	0	0	0	0	5	4
102312	07:57:45	10027	Trial	ResponseCR	14	0	175	0	116	07:57:45	4599517	2	3	3	3	3	2	3	3	3	7	5	0	0	0	0	5	4
102312	07:57:45	10027	Trial	CongruentRight	14	205	242	1	116	07:57:45	4599784	2	3	3	3	3	2	3	3	3	7	5	0	0	0	0	5	4
102312	07:57:45	10027	Trial	ResponseIL	14	0	175	0	116	07:57:45	4601223	2	3	3	3	3	2	3	3	3	7	5	0	0	0	0	5	4
102312	07:57:45	10027	Trial	IncongruentLeft	14	203	359	1	116	07:57:45	4601610	2	3	3	3	3	2	3	3	3	7	5	0	0	0	0	5	4
102312	07:57:45	10027	Trial	ResponseIR	14	0	175	0	116	07:57:45	4602929	2	3	3	3	3	2	3	3	3	7	5	0	0	0	0	5	4
102312	07:57:45	10027	Trial	IncongruentRight	14	205	317	1	116	07:57:45	4603276	2	3	3	3	3	2	3	3	3	7	5	0	0	0	0	5	4
102312	07:57:45	10027	Trial	ResponseIR	14	0	175	0	116	07:57:45	4604635	2	3	3	3	3	2	3	3	3	7	5	0	0	0	0	5	4
102312	07:57:45	10027	Trial	IncongruentRight	14	203	119	0	116	07:57:45	4604795	2	3	3	3	3	2	3	3	3	7	5	0	0	0	0	5	4
102312	07:57:45	10027	Trial	ResponseCL	14	0	175	0	116	07:57:45	4606354	2	3	3	3	3	2	3	3	3	7	5	0	0	0	0	5	4
102312	07:57:45	10027	Trial	CongruentLeft	14	203	364	1	116	07:57:45	4606741	2	3	3	3	3	2	3	3	3	7	5	0	0	0	0	5	4
102312	07:57:45	10027	Trial	ResponseIL	14	0	175	0	116	07:57:45	4608060	2	3	3	3	3	2	3	3	3	7	5	0	0	0	0	5	4
102312	07:57:45	10027	Trial	IncongruentLeft	14	203	274	1	116	07:57:45	4608354	2	3	3	3	3	2	3	3	3	7	5	0	0	0	0	5	4
102312	07:57:45	10027	Trial	ResponseCR	14	0	175	0	116	07:57:45	4609766	2	3	3	3	3	2	3	3	3	7	5	0	0	0	0	5	4
102312	07:57:45	10027	Trial	CongruentRight	14	205	216	1	116	07:57:45	4610006	2	3	3	3	3	2	3	3	3	7	5	0	0	0	0	5	4
102312	07:57:45	10027	Trial	ResponseCL	14	0	175	0	116	07:57:45	4611472	2	3	3	3	3	2	3	3	3	7	5	0	0	0	0	5	4
102312	07:57:45	10027	Trial	CongruentLeft	14	203	126	1	116	07:57:45	4611619	2	3	3	3	3	2	3	3	3	7	5	0	0	0	0	5	4
102312	07:57:45	10027	Trial	ResponseIR	14	0	175	0	116	07:57:45	4613178	2	3	3	3	3	2	3	3	3	7	5	0	0	0	0	5	4
102312	07:57:45	10027	Trial	IncongruentRight	14	205	324	1	116	07:57:45	4613525	2	3	3	3	3	2	3	3	3	7	5	0	0	0	0	5	4
102312	07:57:45	10027	Trial	ResponseCR	14	0	175	0	116	07:57:45	4614884	2	3	3	3	3	2	3	3	3	7	5	0	0	0	0	5	4
102312	07:57:45	10027	Trial	CongruentRight	14	203	237	0	116	07:57:45	4615151	2	3	3	3	3	2	3	3	3	7	5	0	0	0	0	5	4
102312	07:57:45	10027	Trial	ResponseIL	14	0	175	0	116	07:57:45	4616604	2	3	3	3	3	2	3	3	3	7	5	0	0	0	0	5	4
102312	07:57:45	10027	Trial	IncongruentLeft	14	203	322	1	116	07:57:45	4616950	2	3	3	3	3	2	3	3	3	7	5	0	0	0	0	5	4
102312	07:57:45	10027	Trial	ResponseCL	14	0	175	0	116	07:57:45	4618310	2	3	3	3	3	2	3	3	3	7	5	0	0	0	0	5	4
102312	07:57:45	10027	Trial	CongruentLeft	14	203	345	1	116	07:57:45	4618683	2	3	3	3	3	2	3	3	3	7	5	0	0	0	0	5	4
102312	07:57:45	10027	Trial	ResponseIL	14	0	175	0	116	07:57:45	4620016	2	3	3	3	3	2	3	3	3	7	5	0	0	0	0	5	4
102312	07:57:45	10027	Trial	IncongruentLeft	14	203	303	1	116	07:57:45	4620335	2	3	3	3	3	2	3	3	3	7	5	0	0	0	0	5	4
102312	07:57:45	10027	Trial	ResponseIR	14	0	175	0	116	07:57:45	4621722	2	3	3	3	3	2	3	3	3	7	5	0	0	0	0	5	4
102312	07:57:45	10027	Trial	IncongruentRight	14	205	325	1	116	07:57:45	4622068	2	3	3	3	3	2	3	3	3	7	5	0	0	0	0	5	4
102312	07:57:45	10027	Trial	ResponseCR	14	0	175	0	116	07:57:45	4623427	2	3	3	3	3	2	3	3	3	7	5	0	0	0	0	5	4
102312	07:57:45	10027	Trial	CongruentRight	14	205	318	1	116	07:57:45	4623787	2	3	3	3	3	2	3	3	3	7	5	0	0	0	0	5	4
102312	07:57:45	10027	Trial	ResponseCL	14	0	175	0	116	07:57:45	4625133	2	3	3	3	3	2	3	3	3	7	5	0	0	0	0	5	4
102312	07:57:45	10027	Trial	CongruentLeft	14	203	225	1	116	07:57:45	4625387	2	3	3	3	3	2	3	3	3	7	5	0	0	0	0	5	4
102312	07:57:45	10027	Trial	ResponseCL	14	0	175	0	116	07:57:45	4626839	2	3	3	3	3	2	3	3	3	7	5	0	0	0	0	5	4
102312	07:57:45	10027	Trial	CongruentLeft	14	203	231	1	116	07:57:45	4627093	2	3	3	3	3	2	3	3	3	7	5	0	0	0	0	5	4
102312	07:57:45	10027	Trial	ResponseIR	14	0	175	0	116	07:57:45	4628545	2	3	3	3	3	2	3	3	3	7	5	0	0	0	0	5	4
102312	07:57:45	10027	Trial	IncongruentRight	14	203	268	0	116	07:57:45	4628839	2	3	3	3	3	2	3	3	3	7	5	0	0	0	0	5	4
102312	07:57:45	10027	Trial	ResponseIL	14	0	175	0	116	07:57:45	4630252	2	3	3	3	3	2	3	3	3	7	5	0	0	0	0	5	4
102312	07:57:45	10027	Trial	IncongruentLeft	14	203	291	1	116	07:57:45	4630571	2	3	3	3	3	2	3	3	3	7	5	0	0	0	0	5	4
102312	07:57:45	10027	Trial	ResponseIR	14	0	175	0	116	07:57:45	4631957	2	3	3	3	3	2	3	3	3	7	5	0	0	0	0	5	4
102312	07:57:45	10027	Trial	IncongruentRight	14	205	281	1	116	07:57:45	4632264	2	3	3	3	3	2	3	3	3	7	5	0	0	0	0	5	4
102312	07:57:45	10027	Trial	ResponseCR	14	0	175	0	116	07:57:45	4633663	2	3	3	3	3	2	3	3	3	7	5	0	0	0	0	5	4
102312	07:57:45	10027	Trial	CongruentRight	14	205	239	1	116	07:57:45	4633930	2	3	3	3	3	2	3	3	3	7	5	0	0	0	0	5	4
102312	07:57:45	10027	Trial	ResponseCR	14	0	175	0	116	07:57:45	4635369	2	3	3	3	3	2	3	3	3	7	5	0	0	0	0	5	4
102312	07:57:45	10027	Trial	CongruentRight	14	205	229	1	116	07:57:45	4635623	2	3	3	3	3	2	3	3	3	7	5	0	0	0	0	5	4
102312	07:57:45	10027	Trial	ResponseIL	14	0	175	0	116	07:57:45	4637075	2	3	3	3	3	2	3	3	3	7	5	0	0	0	0	5	4
102312	07:57:45	10027	Trial	IncongruentLeft	14	203	250	1	116	07:57:45	4637355	2	3	3	3	3	2	3	3	3	7	5	0	0	0	0	5	4
102312	07:57:45	10027	Trial	ResponseCL	14	0	175	0	116	07:57:45	4638781	2	3	3	3	3	2	3	3	3	7	5	0	0	0	0	5	4
102312	07:57:45	10027	Trial	CongruentLeft	14	203	240	1	116	07:57:45	4639048	2	3	3	3	3	2	3	3	3	7	5	0	0	0	0	5	4
102312	07:57:45	10027	Trial	ResponseCR	14	0	175	0	116	07:57:45	4640487	2	3	3	3	3	2	3	3	3	7	5	0	0	0	0	5	4
102312	07:57:45	10027	Trial	CongruentRight	14	205	214	1	116	07:57:45	4640727	2	3	3	3	3	2	3	3	3	7	5	0	0	0	0	5	4
102312	07:57:45	10027	Trial	ResponseCL	14	0	175	0	116	07:57:45	4642193	2	3	3	3	3	2	3	3	3	7	5	0	0	0	0	5	4
102312	07:57:45	10027	Trial	CongruentLeft	14	203	268	1	116	07:57:45	4642486	2	3	3	3	3	2	3	3	3	7	5	0	0	0	0	5	4
102312	07:57:45	10027	Trial	ResponseIR	14	0	175	0	116	07:57:45	4643899	2	3	3	3	3	2	3	3	3	7	5	0	0	0	0	5	4
102312	07:57:45	10027	Trial	IncongruentRight	14	205	307	1	116	07:57:45	4644232	2	3	3	3	3	2	3	3	3	7	5	0	0	0	0	5	4
102312	07:57:45	10027	Trial	ResponseCR	14	0	175	0	116	07:57:45	4645605	2	3	3	3	3	2	3	3	3	7	5	0	0	0	0	5	4
102312	07:57:45	10027	Trial	CongruentRight	14	205	232	1	116	07:57:45	4645858	2	3	3	3	3	2	3	3	3	7	5	0	0	0	0	5	4
102312	07:57:45	10027	Trial	ResponseCL	14	0	175	0	116	07:57:45	4647311	2	3	3	3	3	2	3	3	3	7	5	0	0	0	0	5	4
102312	07:57:45	10027	Trial	CongruentLeft	14	203	222	1	116	07:57:45	4647551	2	3	3	3	3	2	3	3	3	7	5	0	0	0	0	5	4
102312	07:57:45	10027	Trial	ResponseIL	14	0	175	0	116	07:57:45	4649017	2	3	3	3	3	2	3	3	3	7	5	0	0	0	0	5	4
102312	07:57:45	10027	Trial	IncongruentLeft	14	203	389	1	116	07:57:45	4649430	2	3	3	3	3	2	3	3	3	7	5	0	0	0	0	5	4
102312	07:57:45	10027	Trial	ResponseIL	14	0	175	0	116	07:57:45	4650723	2	3	3	3	3	2	3	3	3	7	5	0	0	0	0	5	4
102312	07:57:45	10027	Trial	IncongruentLeft	14	203	299	1	116	07:57:45	4651043	2	3	3	3	3	2	3	3	3	7	5	0	0	0	0	5	4
102312	07:57:45	10027	Trial	ResponseCR	14	0	175	0	116	07:57:45	4652429	2	3	3	3	3	2	3	3	3	7	5	0	0	0	0	5	4
102312	07:57:45	10027	Trial	CongruentRight	14	205	193	1	116	07:57:45	4652642	2	3	3	3	3	2	3	3	3	7	5	0	0	0	0	5	4
102312	07:57:45	10027	Trial	ResponseIR	14	0	175	0	116	07:57:45	4654135	2	3	3	3	3	2	3	3	3	7	5	0	0	0	0	5	4
102312	07:57:45	10027	Trial	IncongruentRight	14	203	134	0	116	07:57:45	4654295	2	3	3	3	3	2	3	3	3	7	5	0	0	0	0	5	4
102312	07:57:45	10027	Trial	ResponseCL	14	0	175	0	116	07:57:45	4655841	2	3	3	3	3	2	3	3	3	7	5	0	0	0	0	5	4
102312	07:57:45	10027	Trial	CongruentLeft	14	203	236	1	116	07:57:45	4656094	2	3	3	3	3	2	3	3	3	7	5	0	0	0	0	5	4
102312	07:57:45	10027	Trial	ResponseIR	14	0	175	0	116	07:57:45	4657547	2	3	3	3	3	2	3	3	3	7	5	0	0	0	0	5	4
102312	07:57:45	10027	Trial	IncongruentRight	14	203	258	0	116	07:57:45	4657827	2	3	3	3	3	2	3	3	3	7	5	0	0	0	0	5	4
102312	07:57:45	10027	Trial	ResponseCR	14	0	175	0	116	07:57:45	4659253	2	3	3	3	3	2	3	3	3	7	5	0	0	0	0	5	4
102312	07:57:45	10027	Trial	CongruentRight	14	205	216	1	116	07:57:45	4659493	2	3	3	3	3	2	3	3	3	7	5	0	0	0	0	5	4
102312	07:57:45	10027	Trial	ResponseIL	14	0	175	0	116	07:57:45	4660959	2	3	3	3	3	2	3	3	3	7	5	0	0	0	0	5	4
102312	07:57:45	10027	Trial	IncongruentLeft	14	205	270	0	116	07:57:45	4661252	2	3	3	3	3	2	3	3	3	7	5	0	0	0	0	5	4
102312	07:57:45	10027	Trial	ResponseCL	14	0	175	0	116	07:57:45	4662665	2	3	3	3	3	2	3	3	3	7	5	0	0	0	0	5	4
102312	07:57:45	10027	Trial	CongruentLeft	14	203	196	1	116	07:57:45	4662878	2	3	3	3	3	2	3	3	3	7	5	0	0	0	0	5	4
102312	07:57:45	10027	Trial	ResponseCR	14	0	175	0	116	07:57:45	4664371	2	3	3	3	3	2	3	3	3	7	5	0	0	0	0	5	4
102312	07:57:45	10027	Trial	CongruentRight	14	205	218	1	116	07:57:45	4664611	2	3	3	3	3	2	3	3	3	7	5	0	0	0	0	5	4
102312	07:57:45	10027	Trial	ResponseIL	14	0	175	0	116	07:57:45	4666077	2	3	3	3	3	2	3	3	3	7	5	0	0	0	0	5	4
102312	07:57:45	10027	Trial	IncongruentLeft	14	203	240	1	116	07:57:45	4666344	2	3	3	3	3	2	3	3	3	7	5	0	0	0	0	5	4
102312	07:57:45	10027	Trial	ResponseCR	14	0	175	0	116	07:57:45	4667783	2	3	3	3	3	2	3	3	3	7	5	0	0	0	0	5	4
102312	07:57:45	10027	Trial	CongruentRight	14	205	278	1	116	07:57:45	4668090	2	3	3	3	3	2	3	3	3	7	5	0	0	0	0	5	4
102312	07:57:45	10027	Trial	ResponseCR	14	0	175	0	116	07:57:45	4669489	2	3	3	3	3	2	3	3	3	7	5	0	0	0	0	5	4
102312	07:57:45	10027	Trial	CongruentRight	14	205	251	1	116	07:57:45	4669769	2	3	3	3	3	2	3	3	3	7	5	0	0	0	0	5	4
102312	07:57:45	10027	Trial	ResponseIR	14	0	175	0	116	07:57:45	4671195	2	3	3	3	3	2	3	3	3	7	5	0	0	0	0	5	4
102312	07:57:45	10027	Trial	IncongruentRight	14	205	514	1	116	07:57:45	4671728	2	3	3	3	3	2	3	3	3	7	5	0	0	0	0	5	4
102312	07:57:45	10027	Trial	ResponseCL	14	0	175	0	116	07:57:45	4672901	2	3	3	3	3	2	3	3	3	7	5	0	0	0	0	5	4
102312	07:57:45	10027	Trial	CongruentLeft	14	203	296	1	116	07:57:45	4673221	2	3	3	3	3	2	3	3	3	7	5	0	0	0	0	5	4
102312	07:57:45	10027	Trial	ResponseIL	14	0	175	0	116	07:57:45	4674607	2	3	3	3	3	2	3	3	3	7	5	0	0	0	0	5	4
102312	07:57:45	10027	Trial	IncongruentLeft	14	203	254	1	116	07:57:45	4674887	2	3	3	3	3	2	3	3	3	7	5	0	0	0	0	5	4
102312	07:57:45	10027	Trial	ResponseCL	14	0	175	0	116	07:57:45	4676313	2	3	3	3	3	2	3	3	3	7	5	0	0	0	0	5	4
102312	07:57:45	10027	Trial	CongruentLeft	14	203	228	1	116	07:57:45	4676566	2	3	3	3	3	2	3	3	3	7	5	0	0	0	0	5	4
102312	07:57:45	10027	Trial	ResponseIR	14	0	175	0	116	07:57:45	4678019	2	3	3	3	3	2	3	3	3	7	5	0	0	0	0	5	4
102312	07:57:45	10027	Trial	IncongruentRight	14	205	346	1	116	07:57:45	4678392	2	3	3	3	3	2	3	3	3	7	5	0	0	0	0	5	4
102312	07:57:45	10027	Trial	ResponseIL	14	0	175	0	116	07:57:45	4679725	2	3	3	3	3	2	3	3	3	7	5	0	0	0	0	5	4
102312	07:57:45	10027	Trial	IncongruentLeft	14	203	256	1	116	07:57:45	4680005	2	3	3	3	3	2	3	3	3	7	5	0	0	0	0	5	4
102312	07:57:45	10027	Trial	ResponseCR	14	0	175	0	116	07:57:45	4681431	2	3	3	3	3	2	3	3	3	7	5	0	0	0	0	5	4
102312	07:57:45	10027	Trial	CongruentRight	14	205	262	1	116	07:57:45	4681710	2	3	3	3	3	2	3	3	3	7	5	0	0	0	0	5	4
102312	07:57:45	10027	Trial	ResponseCL	14	0	175	0	116	07:57:45	4683137	2	3	3	3	3	2	3	3	3	7	5	0	0	0	0	5	4
102312	07:57:45	10027	Trial	CongruentLeft	14	203	156	1	116	07:57:45	4683310	2	3	3	3	3	2	3	3	3	7	5	0	0	0	0	5	4
102312	07:57:45	10027	Trial	ResponseIL	14	0	175	0	116	07:57:45	4684843	2	3	3	3	3	2	3	3	3	7	5	0	0	0	0	5	4
102312	07:57:45	10027	Trial	IncongruentLeft	14	205	178	0	116	07:57:45	4685043	2	3	3	3	3	2	3	3	3	7	5	0	0	0	0	5	4
102312	07:57:45	10027	Trial	ResponseCL	14	0	175	0	116	07:57:45	4686549	2	3	3	3	3	2	3	3	3	7	5	0	0	0	0	5	4
102312	07:57:45	10027	Trial	CongruentLeft	14	203	168	1	116	07:57:45	4686735	2	3	3	3	3	2	3	3	3	7	5	0	0	0	0	5	4
102312	07:57:45	10027	Trial	ResponseIR	14	0	175	0	116	07:57:45	4688255	2	3	3	3	3	2	3	3	3	7	5	0	0	0	0	5	4
102312	07:57:45	10027	Trial	IncongruentRight	14	205	286	1	116	07:57:45	4688561	2	3	3	3	3	2	3	3	3	7	5	0	0	0	0	5	4
102312	07:57:45	10027	Trial	ResponseCR	14	0	175	0	116	07:57:45	4689961	2	3	3	3	3	2	3	3	3	7	5	0	0	0	0	5	4
102312	07:57:45	10027	Trial	CongruentRight	14	205	228	1	116	07:57:45	4690214	2	3	3	3	3	2	3	3	3	7	5	0	0	0	0	5	4
102312	07:57:45	10027	Trial	ResponseIL	14	0	175	0	116	07:57:45	4691667	2	3	3	3	3	2	3	3	3	7	5	0	0	0	0	5	4
102312	07:57:45	10027	Trial	IncongruentLeft	14	203	346	1	116	07:57:45	4692040	2	3	3	3	3	2	3	3	3	7	5	0	0	0	0	5	4
102312	07:57:45	10027	Trial	ResponseCL	14	0	175	0	116	07:57:45	4693373	2	3	3	3	3	2	3	3	3	7	5	0	0	0	0	5	4
102312	07:57:45	10027	Trial	CongruentLeft	14	203	272	1	116	07:57:45	4693666	2	3	3	3	3	2	3	3	3	7	5	0	0	0	0	5	4
102312	07:57:45	10027	Trial	ResponseIR	14	0	175	0	116	07:57:45	4695079	2	3	3	3	3	2	3	3	3	7	5	0	0	0	0	5	4
102312	07:57:45	10027	Trial	IncongruentRight	14	205	326	1	116	07:57:45	4695425	2	3	3	3	3	2	3	3	3	7	5	0	0	0	0	5	4
102312	07:57:45	10027	Trial	ResponseIL	14	0	175	0	116	07:57:45	4696785	2	3	3	3	3	2	3	3	3	7	5	0	0	0	0	5	4
102312	07:57:45	10027	Trial	IncongruentLeft	14	203	348	1	116	07:57:45	4697158	2	3	3	3	3	2	3	3	3	7	5	0	0	0	0	5	4
102312	07:57:45	10027	Trial	ResponseCL	14	0	175	0	116	07:57:45	4698491	2	3	3	3	3	2	3	3	3	7	5	0	0	0	0	5	4
102312	07:57:45	10027	Trial	CongruentLeft	14	203	226	1	116	07:57:45	4698744	2	3	3	3	3	2	3	3	3	7	5	0	0	0	0	5	4
102312	07:57:45	10027	Trial	ResponseIL	14	0	175	0	116	07:57:45	4700197	2	3	3	3	3	2	3	3	3	7	5	0	0	0	0	5	4
102312	07:57:45	10027	Trial	IncongruentLeft	14	203	296	1	116	07:57:45	4700516	2	3	3	3	3	2	3	3	3	7	5	0	0	0	0	5	4
102312	07:57:45	10027	Trial	ResponseCR	14	0	175	0	116	07:57:45	4701903	2	3	3	3	3	2	3	3	3	7	5	0	0	0	0	5	4
102312	07:57:45	10027	Trial	CongruentRight	14	205	270	1	116	07:57:45	4702195	2	3	3	3	3	2	3	3	3	7	5	0	0	0	0	5	4
102312	07:57:45	10027	Trial	ResponseCL	14	0	175	0	116	07:57:45	4703608	2	3	3	3	3	2	3	3	3	7	5	0	0	0	0	5	4
102312	07:57:45	10027	Trial	CongruentLeft	14	203	164	1	116	07:57:45	4703795	2	3	3	3	3	2	3	3	3	7	5	0	0	0	0	5	4
102312	07:57:45	10027	Trial	ResponseIR	14	0	175	0	116	07:57:45	4705315	2	3	3	3	3	2	3	3	3	7	5	0	0	0	0	5	4
102312	07:57:45	10027	Trial	IncongruentRight	14	205	282	1	116	07:57:45	4705621	2	3	3	3	3	2	3	3	3	7	5	0	0	0	0	5	4
102312	07:57:45	10027	Trial	ResponseCL	14	0	175	0	116	07:57:45	4707020	2	3	3	3	3	2	3	3	3	7	5	0	0	0	0	5	4
102312	07:57:45	10027	Trial	CongruentLeft	14	203	176	1	116	07:57:45	4707220	2	3	3	3	3	2	3	3	3	7	5	0	0	0	0	5	4
102312	07:57:45	10027	Trial	ResponseCR	14	0	175	0	116	07:57:45	4708726	2	3	3	3	3	2	3	3	3	7	5	0	0	0	0	5	4
102312	07:57:45	10027	Trial	CongruentRight	14	205	278	1	116	07:57:45	4709033	2	3	3	3	3	2	3	3	3	7	5	0	0	0	0	5	4
102312	07:57:45	10027	Trial	ResponseIL	14	0	175	0	116	07:57:45	4710432	2	3	3	3	3	2	3	3	3	7	5	0	0	0	0	5	4
102312	07:57:45	10027	Trial	IncongruentLeft	14	203	220	1	116	07:57:45	4710672	2	3	3	3	3	2	3	3	3	7	5	0	0	0	0	5	4
102312	07:57:45	10027	WordsAbsEngThreemo	PAbsEngThreemo1	16	Abs1	5575	0	116	07:57:45	4724427	2	3	3	3	3	2	3	3	3	7	5	0	0	0	0	5	4
102312	07:57:45	10027	WordsAbsEngThreemo	AbsEngThreemo1	16	Abs1	15325	0	116	07:57:45	4739794	2	3	3	3	3	2	3	3	3	7	5	1	0	0	0	5	4
102312	07:57:45	10027	WordsAbsEngThreemo	AbsEngThreemo2	16	Abs1	11517	0	116	07:57:45	4751349	2	3	3	3	3	2	3	3	3	7	5	2	0	0	0	5	4
102312	07:57:45	10027	WordsAbsEngThreemo	AbsEngThreemo3	16	Abs2	29177	0	116	07:57:45	4780564	2	3	3	3	3	2	3	3	3	7	5	2	0	0	0	5	4
102312	07:57:45	10027	Trial2BackEngS	NS	17	0	1000	1	116	07:57:45	4828345	2	3	3	3	3	2	3	3	3	7	5	2	0	0	0	5	4
102312	07:57:45	10027	Trial2BackEngS	NS	17	0	1000	1	116	07:57:45	4829851	2	3	3	3	3	2	3	3	3	7	5	2	0	0	0	5	4
102312	07:57:45	10027	Trial2BackEngS	NS	17	0	1000	1	116	07:57:45	4831357	2	3	3	3	3	2	3	3	3	7	5	2	0	0	0	5	4
102312	07:57:45	10027	Trial2BackEngS	YS	17	57	481	1	116	07:57:45	4832356	2	3	3	3	3	2	3	3	3	7	5	2	0	0	0	5	4
102312	07:57:45	10027	Trial2BackEngS	NS	17	0	1000	1	116	07:57:45	4834369	2	3	3	3	3	2	3	3	3	7	5	2	0	0	0	5	4
102312	07:57:45	10027	Trial2BackEngS	NS	17	0	1000	1	116	07:57:45	4835875	2	3	3	3	3	2	3	3	3	7	5	2	0	0	0	5	4
102312	07:57:45	10027	Trial2BackEngS	NS	17	0	1000	1	116	07:57:45	4837381	2	3	3	3	3	2	3	3	3	7	5	2	0	0	0	5	4
102312	07:57:45	10027	Trial2BackEngS	NS	17	0	1000	1	116	07:57:45	4838887	2	3	3	3	3	2	3	3	3	7	5	2	0	0	0	5	4
102312	07:57:45	10027	Trial2BackEngS	YS	17	0	1000	0	116	07:57:45	4840393	2	3	3	3	3	2	3	3	3	7	5	2	0	0	0	5	4
102312	07:57:45	10027	Trial2BackEngS	NS	17	0	1000	1	116	07:57:45	4841899	2	3	3	3	3	2	3	3	3	7	5	2	0	0	0	5	4
102312	07:57:45	10027	Trial2BackEngS	NS	17	0	1000	1	116	07:57:45	4843405	2	3	3	3	3	2	3	3	3	7	5	2	0	0	0	5	4
102312	07:57:45	10027	Trial2BackEngS	YS	17	0	1000	0	116	07:57:45	4844911	2	3	3	3	3	2	3	3	3	7	5	2	0	0	0	5	4
102312	07:57:45	10027	Trial2BackEngS	NS	17	0	1000	1	116	07:57:45	4846457	2	3	3	3	3	2	3	3	3	7	5	2	0	0	0	5	4
102312	07:57:45	10027	Trial2BackEngS	NS	17	0	1000	1	116	07:57:45	4847963	2	3	3	3	3	2	3	3	3	7	5	2	0	0	0	5	4
102312	07:57:45	10027	Trial2BackEngS	NS	17	0	1000	1	116	07:57:45	4849469	2	3	3	3	3	2	3	3	3	7	5	2	0	0	0	5	4
102312	07:57:45	10027	Trial2BackEngS	YS	17	0	1000	0	116	07:57:45	4850975	2	3	3	3	3	2	3	3	3	7	5	2	0	0	0	5	4
102312	07:57:45	10027	Trial2BackEngS	NS	17	0	1000	1	116	07:57:45	4852482	2	3	3	3	3	2	3	3	3	7	5	2	0	0	0	5	4
102312	07:57:45	10027	Trial2BackEngS	NS	17	0	1000	1	116	07:57:45	4854001	2	3	3	3	3	2	3	3	3	7	5	2	0	0	0	5	4
102312	07:57:45	10027	Trial2BackEngS	NS	17	0	1000	1	116	07:57:45	4855507	2	3	3	3	3	2	3	3	3	7	5	2	0	0	0	5	4
102312	07:57:45	10027	Trial2BackEngS	NS	17	0	1000	1	116	07:57:45	4857013	2	3	3	3	3	2	3	3	3	7	5	2	0	0	0	5	4
102312	07:57:45	10027	Trial2BackEngS	YS	17	57	648	1	116	07:57:45	4858173	2	3	3	3	3	2	3	3	3	7	5	2	0	0	0	5	4
102312	07:57:45	10027	Trial2BackEngS	NS	17	0	1000	1	116	07:57:45	4860025	2	3	3	3	3	2	3	3	3	7	5	2	0	0	0	5	4
102312	07:57:45	10027	Trial2BackEngS	NS	17	0	1000	1	116	07:57:45	4861531	2	3	3	3	3	2	3	3	3	7	5	2	0	0	0	5	4
102312	07:57:45	10027	Trial2BackEngS	NS	17	0	1000	1	116	07:57:45	4863064	2	3	3	3	3	2	3	3	3	7	5	2	0	0	0	5	4
102312	07:57:45	10027	Trial2BackEngS	NS	17	0	1000	1	116	07:57:45	4864570	2	3	3	3	3	2	3	3	3	7	5	2	0	0	0	5	4
102312	07:57:45	10027	Trial2BackEngS	NS	17	0	1000	1	116	07:57:45	4866076	2	3	3	3	3	2	3	3	3	7	5	2	0	0	0	5	4
102312	07:57:45	10027	Trial2BackEngS	NS	17	0	1000	1	116	07:57:45	4867582	2	3	3	3	3	2	3	3	3	7	5	2	0	0	0	5	4
102312	07:57:45	10027	Trial2BackEngS	NS	17	0	1000	1	116	07:57:45	4869088	2	3	3	3	3	2	3	3	3	7	5	2	0	0	0	5	4
102312	07:57:45	10027	Trial2BackEngS	NS	17	0	1000	1	116	07:57:45	4870594	2	3	3	3	3	2	3	3	3	7	5	2	0	0	0	5	4
102312	07:57:45	10027	Trial2BackEngS	NS	17	0	1000	1	116	07:57:45	4872114	2	3	3	3	3	2	3	3	3	7	5	2	0	0	0	5	4
102312	07:57:45	10027	Trial2BackEngS	NS	17	0	1000	1	116	07:57:45	4873620	2	3	3	3	3	2	3	3	3	7	5	2	0	0	0	5	4
102312	07:57:45	10027	Trial2BackEngS	YS	17	57	841	1	116	07:57:45	4874979	2	3	3	3	3	2	3	3	3	7	5	2	0	0	0	5	4
102312	07:57:45	10027	Trial2BackEngS	NS	17	0	1000	1	116	07:57:45	4876632	2	3	3	3	3	2	3	3	3	7	5	2	0	0	0	5	4
102312	07:57:45	10027	Trial2BackEngS	NS	17	0	1000	1	116	07:57:45	4878138	2	3	3	3	3	2	3	3	3	7	5	2	0	0	0	5	4
102312	07:57:45	10027	Trial2BackEngS	NS	17	0	1000	1	116	07:57:45	4879644	2	3	3	3	3	2	3	3	3	7	5	2	0	0	0	5	4
102312	07:57:45	10027	Trial2BackEngS	YS	17	57	641	1	116	07:57:45	4880803	2	3	3	3	3	2	3	3	3	7	5	2	0	0	0	5	4
102312	07:57:45	10027	Trial2BackEngS	NS	17	0	1000	1	116	07:57:45	4882656	2	3	3	3	3	2	3	3	3	7	5	2	0	0	0	5	4
102312	07:57:45	10027	Trial2BackEngS	NS	17	0	1000	1	116	07:57:45	4884162	2	3	3	3	3	2	3	3	3	7	5	2	0	0	0	5	4
102312	07:57:45	10027	Trial2BackEngS	NS	17	0	1000	1	116	07:57:45	4885668	2	3	3	3	3	2	3	3	3	7	5	2	0	0	0	5	4
102312	07:57:45	10027	Trial2BackEngS	NS	17	57	696	0	116	07:57:45	4886881	2	3	3	3	3	2	3	3	3	7	5	2	0	0	0	5	4
102312	07:57:45	10027	Trial2BackEngS	NS	17	0	1000	1	116	07:57:45	4888680	2	3	3	3	3	2	3	3	3	7	5	2	0	0	0	5	4
102312	07:57:45	10027	Trial2BackEngS	NS	17	0	1000	1	116	07:57:45	4890186	2	3	3	3	3	2	3	3	3	7	5	2	0	0	0	5	4
102312	07:57:45	10027	Trial2BackEngS	NS	17	0	1000	1	116	07:57:45	4891706	2	3	3	3	3	2	3	3	3	7	5	2	0	0	0	5	4
102312	07:57:45	10027	Trial2BackEngS	YS	17	0	1000	0	116	07:57:45	4893212	2	3	3	3	3	2	3	3	3	7	5	2	0	0	0	5	4
102312	07:57:45	10027	Trial2BackEngS	NS	17	0	1000	1	116	07:57:45	4894718	2	3	3	3	3	2	3	3	3	7	5	2	0	0	0	5	4
102312	07:57:45	10027	Trial2BackEngS	NS	17	0	1000	1	116	07:57:45	4896251	2	3	3	3	3	2	3	3	3	7	5	2	0	0	0	5	4
102312	07:57:45	10027	Trial2BackEngS	NS	17	0	1000	1	116	07:57:45	4897757	2	3	3	3	3	2	3	3	3	7	5	2	0	0	0	5	4
102312	07:57:45	10027	Trial2BackEngS	NS	17	0	1000	1	116	07:57:45	4899263	2	3	3	3	3	2	3	3	3	7	5	2	0	0	0	5	4
102312	07:57:45	10027	Trial2BackEngS	YS	17	57	429	1	116	07:57:45	4900209	2	3	3	3	3	2	3	3	3	7	5	2	0	0	0	5	4
102312	07:57:45	10027	Trial2BackEngS	NS	17	0	1000	1	116	07:57:45	4902275	2	3	3	3	3	2	3	3	3	7	5	2	0	0	0	5	4
102312	07:57:45	10027	Trial2BackEngS	NS	17	0	1000	1	116	07:57:45	4903781	2	3	3	3	3	2	3	3	3	7	5	2	0	0	0	5	4
102312	07:57:45	10027	Trial2BackEngS	NS	17	0	1000	1	116	07:57:45	4905287	2	3	3	3	3	2	3	3	3	7	5	2	0	0	0	5	4
102312	07:57:45	10027	Trial2BackEngS	NS	17	57	533	0	116	07:57:45	4906340	2	3	3	3	3	2	3	3	3	7	5	2	0	0	0	5	4
102312	07:57:45	10027	Trial2BackEngS	NS	17	0	1000	1	116	07:57:45	4908299	2	3	3	3	3	2	3	3	3	7	5	2	0	0	0	5	4
102312	07:57:45	10027	Trial2BackEngS	NS	17	0	1000	1	116	07:57:45	4909818	2	3	3	3	3	2	3	3	3	7	5	2	0	0	0	5	4
102312	07:57:45	10027	Trial2BackEngS	YS	17	57	545	1	116	07:57:45	4910885	2	3	3	3	3	2	3	3	3	7	5	2	0	0	0	5	4
102312	07:57:45	10027	Trial2BackEngS	NS	17	0	1000	1	116	07:57:45	4912830	2	3	3	3	3	2	3	3	3	7	5	2	0	0	0	5	4
102312	07:57:45	10027	Trial2BackEngS	NS	17	0	1000	1	116	07:57:45	4914337	2	3	3	3	3	2	3	3	3	7	5	2	0	0	0	5	4
102312	07:57:45	10027	Trial2BackEngS	NS	17	0	1000	1	116	07:57:45	4915843	2	3	3	3	3	2	3	3	3	7	5	2	0	0	0	5	4
102312	07:57:45	10027	Trial2BackEngS	NS	17	0	1000	1	116	07:57:45	4917362	2	3	3	3	3	2	3	3	3	7	5	2	0	0	0	5	4
102312	07:57:45	10027	Trial2BackEngS	NS	17	0	1000	1	116	07:57:45	4918881	2	3	3	3	3	2	3	3	3	7	5	2	0	0	0	5	4
102312	07:57:45	10027	Trial2BackEngS	NS	17	0	1000	1	116	07:57:45	4920388	2	3	3	3	3	2	3	3	3	7	5	2	0	0	0	5	4
102312	07:57:45	10027	Trial2BackEngS	NS	17	0	1000	1	116	07:57:45	4921893	2	3	3	3	3	2	3	3	3	7	5	2	0	0	0	5	4
102312	07:57:45	10027	Trial2BackEngS	YS	17	0	1000	0	116	07:57:45	4923400	2	3	3	3	3	2	3	3	3	7	5	2	0	0	0	5	4
102312	07:57:45	10027	Trial2BackEngS	NS	17	0	1000	1	116	07:57:45	4924906	2	3	3	3	3	2	3	3	3	7	5	2	0	0	0	5	4
102312	07:57:45	10027	Trial2BackEngS	NS	17	0	1000	1	116	07:57:45	4926425	2	3	3	3	3	2	3	3	3	7	5	2	0	0	0	5	4
102312	07:57:45	10027	Trial2BackEngS	NS	17	0	1000	1	116	07:57:45	4927931	2	3	3	3	3	2	3	3	3	7	5	2	0	0	0	5	4
102312	07:57:45	10027	Trial2BackEngS	NS	17	0	1000	1	116	07:57:45	4929437	2	3	3	3	3	2	3	3	3	7	5	2	0	0	0	5	4
102312	07:57:45	10027	Trial2BackEngS	YS	17	0	1000	0	116	07:57:45	4930956	2	3	3	3	3	2	3	3	3	7	5	2	0	0	0	5	4
102312	07:57:45	10027	Trial2BackEngS	NS	17	0	1000	1	116	07:57:45	4932462	2	3	3	3	3	2	3	3	3	7	5	2	0	0	0	5	4
102312	07:57:45	10027	Trial2BackEngS	NS	17	0	1000	1	116	07:57:45	4933969	2	3	3	3	3	2	3	3	3	7	5	2	0	0	0	5	4
102312	07:57:45	10027	Trial2BackEngS	YS	17	57	522	1	116	07:57:45	4935008	2	3	3	3	3	2	3	3	3	7	5	2	0	0	0	5	4
102312	07:57:45	10027	Trial2BackEngS	NS	17	0	1000	1	116	07:57:45	4936981	2	3	3	3	3	2	3	3	3	7	5	2	0	0	0	5	4
102312	07:57:45	10027	Trial2BackEngS	NS	17	0	1000	1	116	07:57:45	4938487	2	3	3	3	3	2	3	3	3	7	5	2	0	0	0	5	4
102312	07:57:45	10027	Trial2BackEngS	NS	17	0	1000	1	116	07:57:45	4939993	2	3	3	3	3	2	3	3	3	7	5	2	0	0	0	5	4
102312	07:57:45	10027	Trial2BackEngS	NS	17	0	1000	1	116	07:57:45	4941499	2	3	3	3	3	2	3	3	3	7	5	2	0	0	0	5	4
102312	07:57:45	10027	Trial2BackEngS	NS	17	0	1000	1	116	07:57:45	4943005	2	3	3	3	3	2	3	3	3	7	5	2	0	0	0	5	4
102312	07:57:45	10027	Trial2BackEngS	NS	17	0	1000	1	116	07:57:45	4944524	2	3	3	3	3	2	3	3	3	7	5	2	0	0	0	5	4
102312	07:57:45	10027	Trial2BackEngS	YS	17	57	622	1	116	07:57:45	4945657	2	3	3	3	3	2	3	3	3	7	5	2	0	0	0	5	4
102312	07:57:45	10027	Trial2BackEngS	NS	17	0	1000	1	116	07:57:45	4947536	2	3	3	3	3	2	3	3	3	7	5	2	0	0	0	5	4
102312	07:57:45	10027	Trial2BackEngS	NS	17	0	1000	1	116	07:57:45	4949042	2	3	3	3	3	2	3	3	3	7	5	2	0	0	0	5	4
102312	07:57:45	10027	Trial2BackEngS	NS	17	0	1000	1	116	07:57:45	4950549	2	3	3	3	3	2	3	3	3	7	5	2	0	0	0	5	4
102312	07:57:45	10027	Trial2BackEngS	NS	17	0	1000	1	116	07:57:45	4952055	2	3	3	3	3	2	3	3	3	7	5	2	0	0	0	5	4
102312	07:57:45	10027	Trial2BackEngS	YS	17	0	1000	0	116	07:57:45	4953560	2	3	3	3	3	2	3	3	3	7	5	2	0	0	0	5	4
102312	07:57:45	10027	Trial2BackEngS	NS	17	0	1000	1	116	07:57:45	4955067	2	3	3	3	3	2	3	3	3	7	5	2	0	0	0	5	4
102312	07:57:45	10027	Trial2BackEngS	NS	17	0	1000	1	116	07:57:45	4956573	2	3	3	3	3	2	3	3	3	7	5	2	0	0	0	5	4
102312	07:57:45	10027	Trial2BackEngS	NS	17	0	1000	1	116	07:57:45	4958079	2	3	3	3	3	2	3	3	3	7	5	2	0	0	0	5	4
102312	07:57:45	10027	Trial2BackEngS	NS	17	57	540	0	116	07:57:45	4959132	2	3	3	3	3	2	3	3	3	7	5	2	0	0	0	5	4
102312	07:57:45	10027	Trial2BackEngS	YS	17	0	1000	0	116	07:57:45	4961091	2	3	3	3	3	2	3	3	3	7	5	2	0	0	0	5	4
102312	07:57:45	10027	Trial2BackEngS	NS	17	0	1000	1	116	07:57:45	4962597	2	3	3	3	3	2	3	3	3	7	5	2	0	0	0	5	4
102312	07:57:45	10027	Trial2BackEngS	NS	17	0	1000	1	116	07:57:45	4964103	2	3	3	3	3	2	3	3	3	7	5	2	0	0	0	5	4
102312	07:57:45	10027	Trial2BackEngS	YS	17	57	404	1	116	07:57:45	4965023	2	3	3	3	3	2	3	3	3	7	5	2	0	0	0	5	4
102312	07:57:45	10027	Trial2BackEngS	NS	17	0	1000	1	116	07:57:45	4967115	2	3	3	3	3	2	3	3	3	7	5	2	0	0	0	5	4
102312	07:57:45	10027	Trial2BackEngS	NS	17	0	1000	1	116	07:57:45	4968621	2	3	3	3	3	2	3	3	3	7	5	2	0	0	0	5	4
102312	07:57:45	10027	Trial2BackEngS	NS	17	0	1000	1	116	07:57:45	4970141	2	3	3	3	3	2	3	3	3	7	5	2	0	0	0	5	4
102312	07:57:45	10027	Trial2BackEngS	NS	17	57	558	0	116	07:57:45	4971207	2	3	3	3	3	2	3	3	3	7	5	2	0	0	0	5	4
102312	07:57:45	10027	Trial2BackEngS	NS	17	0	1000	1	116	07:57:45	4973153	2	3	3	3	3	2	3	3	3	7	5	2	0	0	0	5	4
102312	07:57:45	10027	Trial2BackEngS	NS	17	0	1000	1	116	07:57:45	4974659	2	3	3	3	3	2	3	3	3	7	5	2	0	0	0	5	4
102312	07:57:45	10027	Trial2BackEngS	NS	17	0	1000	1	116	07:57:45	4976165	2	3	3	3	3	2	3	3	3	7	5	2	0	0	0	5	4
102312	07:57:45	10027	Trial2BackEngS	NS	17	0	1000	1	116	07:57:45	4977671	2	3	3	3	3	2	3	3	3	7	5	2	0	0	0	5	4
102312	07:57:45	10027	Trial2BackEngS	YS	17	0	1000	0	116	07:57:45	4979177	2	3	3	3	3	2	3	3	3	7	5	2	0	0	0	5	4
102312	07:57:45	10027	Trial2BackEngS	NS	17	0	1000	1	116	07:57:45	4980683	2	3	3	3	3	2	3	3	3	7	5	2	0	0	0	5	4
102312	07:57:45	10027	Trial2BackEngS	NS	17	0	1000	1	116	07:57:45	4982189	2	3	3	3	3	2	3	3	3	7	5	2	0	0	0	5	4
102312	07:57:45	10027	Trial2BackEngS	NS	17	0	1000	1	116	07:57:45	4983695	2	3	3	3	3	2	3	3	3	7	5	2	0	0	0	5	4
102312	07:57:45	10027	Trial2BackEngS	NS	17	0	1000	1	116	07:57:45	4985201	2	3	3	3	3	2	3	3	3	7	5	2	0	0	0	5	4
102312	07:57:45	10027	Trial2BackEngS	NS	17	0	1000	1	116	07:57:45	4986707	2	3	3	3	3	2	3	3	3	7	5	2	0	0	0	5	4
102312	07:57:45	10027	Trial2BackEngS	NS	17	0	1000	1	116	07:57:45	4988214	2	3	3	3	3	2	3	3	3	7	5	2	0	0	0	5	4
102312	07:57:45	10027	Trial2BackEngS	NS	17	0	1000	1	116	07:57:45	4989733	2	3	3	3	3	2	3	3	3	7	5	2	0	0	0	5	4
102312	07:57:45	10027	Trial2BackEngS	YS	17	0	1000	0	116	07:57:45	4991252	2	3	3	3	3	2	3	3	3	7	5	2	0	0	0	5	4
102312	07:57:45	10027	Trial2BackEngS	NS	17	0	1000	1	116	07:57:45	4992758	2	3	3	3	3	2	3	3	3	7	5	2	0	0	0	5	4
102312	07:57:45	10027	Trial2BackEngS	NS	17	0	1000	1	116	07:57:45	4994291	2	3	3	3	3	2	3	3	3	7	5	2	0	0	0	5	4
102312	07:57:45	10027	Trial2BackEngS	NS	17	0	1000	1	116	07:57:45	4995797	2	3	3	3	3	2	3	3	3	7	5	2	0	0	0	5	4
102312	07:57:45	10027	Trial2BackEngS	NS	17	0	1000	1	116	07:57:45	4997303	2	3	3	3	3	2	3	3	3	7	5	2	0	0	0	5	4
102312	07:57:45	10027	Trial2BackEngS	NS	17	0	1000	1	116	07:57:45	4998809	2	3	3	3	3	2	3	3	3	7	5	2	0	0	0	5	4
102312	07:57:45	10027	Trial2BackEngS	NS	17	0	1000	1	116	07:57:45	5000315	2	3	3	3	3	2	3	3	3	7	5	2	0	0	0	5	4
102312	07:57:45	10027	Trial2BackEngS	NS	17	0	1000	1	116	07:57:45	5001821	2	3	3	3	3	2	3	3	3	7	5	2	0	0	0	5	4
102312	07:57:45	10027	Trial2BackEngS	NS	17	0	1000	1	116	07:57:45	5003327	2	3	3	3	3	2	3	3	3	7	5	2	0	0	0	5	4
102312	07:57:45	10027	Trial2BackEngS	NS	17	0	1000	1	116	07:57:45	5004846	2	3	3	3	3	2	3	3	3	7	5	2	0	0	0	5	4
102312	07:57:45	10027	Trial2BackEngS	YS	17	0	1000	0	116	07:57:45	5006353	2	3	3	3	3	2	3	3	3	7	5	2	0	0	0	5	4
102312	07:57:45	10027	Trial2BackEngS	NS	17	0	1000	1	116	07:57:45	5007872	2	3	3	3	3	2	3	3	3	7	5	2	0	0	0	5	4
102312	07:57:45	10027	ClockEng3mo	ClockEng3mo	19	Clock1	76423	0	116	07:57:45	5084414	2	3	3	3	3	2	3	3	3	7	5	2	1	0	0	5	4
102312	07:57:45	10027	ClockEng3mo	ClockEng3mo	19	Clock11	490	0	116	07:57:45	5084961	2	3	3	3	3	2	3	3	3	7	5	2	1	1	0	5	4
102312	07:57:45	10027	ClockEng3mo	ClockEng3mo	19	Clock111	520	0	116	07:57:45	5085534	2	3	3	3	3	2	3	3	3	7	5	2	1	1	1	5	4
102312	07:57:45	10027	ClockEng3mo	ClockEng3mo	19	Clockdone	555	0	116	07:57:45	5086134	2	3	3	3	3	2	3	3	3	7	5	2	1	1	1	5	4
102312	07:57:45	10027	FASEngVF3mo	StopEngVF3mo	20	14	8564	0	116	07:57:45	5182950	2	3	3	3	3	2	3	3	3	7	5	2	1	1	1	5	4
