date	time	subject	blockcode	trialcode	values.TaskNumber	response	latency	correct	values.Score	script.starttime	script.elapsedtime	values.ScoreS7	values.Word1	values.Word2	values.Word3	values.Word4	values.Word5	values.Word6	values.Word7	values.Word8	values.DigitSpanFwrd	values.DigitSpanBack	values.ScoreAbs	values.Contour	values.Numbers	values.Hands	values.corsiblockspanFwrd	values.corsiblockspanRev
121412	07:56:29	10042	Language	Language	0	French	107798	0	0	07:56:29	107935	0	0	0	0	0	0	0	0	0	0	0	0	0	0	0	0	0
121412	07:56:29	10042	Session	Session	0	3mo	985	0	0	07:56:29	108988	0	0	0	0	0	0	0	0	0	0	0	0	0	0	0	0	0
121412	07:56:29	10042	HandFr	HandFr	0	RightFr	711	0	0	07:56:29	109775	0	0	0	0	0	0	0	0	0	0	0	0	0	0	0	0	0
121412	07:56:29	10042	AudioCheckFr	WordsFr	0	0	0	0	0	07:56:29	1093463	0	0	0	0	0	0	0	0	0	0	0	0	0	0	0	0	0
121412	07:56:29	10042	CubeFr	CubeFr	1	1Cube	41225	0	0	07:56:29	1137265	0	0	0	0	0	0	0	0	0	0	0	0	0	0	0	0	0
121412	07:56:29	10042	pm.simpleFrRight	blank.simpleFr	2	0	2000	1	0	07:56:29	1166120	0	0	0	0	0	0	0	0	0	0	0	0	0	0	0	0	0
121412	07:56:29	10042	pm.simpleFrRight	pm.simpleFr	2	57	424	0	0	07:56:29	1166573	0	0	0	0	0	0	0	0	0	0	0	0	0	0	0	0	0
121412	07:56:29	10042	pm.simpleFrRight	blank.simpleFr	2	0	2400	1	0	07:56:29	1168998	0	0	0	0	0	0	0	0	0	0	0	0	0	0	0	0	0
121412	07:56:29	10042	pm.simpleFrRight	pm.simpleFr	2	57	329	0	0	07:56:29	1169345	0	0	0	0	0	0	0	0	0	0	0	0	0	0	0	0	0
121412	07:56:29	10042	pm.simpleFrRight	blank.simpleFr	2	0	1600	1	0	07:56:29	1170958	0	0	0	0	0	0	0	0	0	0	0	0	0	0	0	0	0
121412	07:56:29	10042	pm.simpleFrRight	pm.simpleFr	2	57	1106	0	0	07:56:29	1172090	0	0	0	0	0	0	0	0	0	0	0	0	0	0	0	0	0
121412	07:56:29	10042	pm.simpleFrRight	blank.simpleFr	2	0	2300	1	0	07:56:29	1174409	0	0	0	0	0	0	0	0	0	0	0	0	0	0	0	0	0
121412	07:56:29	10042	pm.simpleFrRight	pm.simpleFr	2	57	342	0	0	07:56:29	1174769	0	0	0	0	0	0	0	0	0	0	0	0	0	0	0	0	0
121412	07:56:29	10042	pm.simpleFrRight	blank.simpleFr	2	0	2100	1	0	07:56:29	1176888	0	0	0	0	0	0	0	0	0	0	0	0	0	0	0	0	0
121412	07:56:29	10042	pm.simpleFrRight	pm.simpleFr	2	57	359	0	0	07:56:29	1177275	0	0	0	0	0	0	0	0	0	0	0	0	0	0	0	0	0
121412	07:56:29	10042	pm.simpleFrRight	blank.simpleFr	2	0	2200	1	0	07:56:29	1179487	0	0	0	0	0	0	0	0	0	0	0	0	0	0	0	0	0
121412	07:56:29	10042	pm.simpleFrRight	pm.simpleFr	2	57	304	0	0	07:56:29	1179821	0	0	0	0	0	0	0	0	0	0	0	0	0	0	0	0	0
121412	07:56:29	10042	pm.simpleFrRight	blank.simpleFr	2	0	1800	1	0	07:56:29	1181633	0	0	0	0	0	0	0	0	0	0	0	0	0	0	0	0	0
121412	07:56:29	10042	pm.simpleFrRight	pm.simpleFr	2	57	414	0	0	07:56:29	1182073	0	0	0	0	0	0	0	0	0	0	0	0	0	0	0	0	0
121412	07:56:29	10042	pm.simpleFrRight	blank.simpleFr	2	0	2500	1	0	07:56:29	1184592	0	0	0	0	0	0	0	0	0	0	0	0	0	0	0	0	0
121412	07:56:29	10042	pm.simpleFrRight	pm.simpleFr	2	57	319	0	0	07:56:29	1184938	0	0	0	0	0	0	0	0	0	0	0	0	0	0	0	0	0
121412	07:56:29	10042	pm.simpleFrRight	blank.simpleFr	2	0	1900	1	0	07:56:29	1186858	0	0	0	0	0	0	0	0	0	0	0	0	0	0	0	0	0
121412	07:56:29	10042	pm.simpleFrRight	pm.simpleFr	2	57	294	0	0	07:56:29	1187178	0	0	0	0	0	0	0	0	0	0	0	0	0	0	0	0	0
121412	07:56:29	10042	pm.simpleFrRight	blank.simpleFr	2	0	1700	1	0	07:56:29	1188897	0	0	0	0	0	0	0	0	0	0	0	0	0	0	0	0	0
121412	07:56:29	10042	pm.simpleFrRight	pm.simpleFr	2	57	302	0	0	07:56:29	1189217	0	0	0	0	0	0	0	0	0	0	0	0	0	0	0	0	0
121412	07:56:29	10042	pm.simpleFrRight	blank.simpleFr	2	0	1500	1	0	07:56:29	1190736	0	0	0	0	0	0	0	0	0	0	0	0	0	0	0	0	0
121412	07:56:29	10042	pm.simpleFrRight	pm.simpleFr	2	57	319	0	0	07:56:29	1191083	0	0	0	0	0	0	0	0	0	0	0	0	0	0	0	0	0
121412	07:56:29	10042	pm.simpleFrRight	blank.simpleFr	2	0	2200	1	0	07:56:29	1193295	0	0	0	0	0	0	0	0	0	0	0	0	0	0	0	0	0
121412	07:56:29	10042	pm.simpleFrRight	pm.simpleFr	2	57	336	0	0	07:56:29	1193655	0	0	0	0	0	0	0	0	0	0	0	0	0	0	0	0	0
121412	07:56:29	10042	pm.simpleFrRight	blank.simpleFr	2	0	2100	1	0	07:56:29	1195774	0	0	0	0	0	0	0	0	0	0	0	0	0	0	0	0	0
121412	07:56:29	10042	pm.simpleFrRight	pm.simpleFr	2	57	305	0	0	07:56:29	1196107	0	0	0	0	0	0	0	0	0	0	0	0	0	0	0	0	0
121412	07:56:29	10042	pm.simpleFrRight	blank.simpleFr	2	0	1500	1	0	07:56:29	1197627	0	0	0	0	0	0	0	0	0	0	0	0	0	0	0	0	0
121412	07:56:29	10042	pm.simpleFrRight	pm.simpleFr	2	57	309	0	0	07:56:29	1197960	0	0	0	0	0	0	0	0	0	0	0	0	0	0	0	0	0
121412	07:56:29	10042	pm.simpleFrRight	blank.simpleFr	2	0	1700	1	0	07:56:29	1199679	0	0	0	0	0	0	0	0	0	0	0	0	0	0	0	0	0
121412	07:56:29	10042	pm.simpleFrRight	pm.simpleFr	2	57	288	0	0	07:56:29	1199986	0	0	0	0	0	0	0	0	0	0	0	0	0	0	0	0	0
121412	07:56:29	10042	pm.simpleFrRight	blank.simpleFr	2	0	2500	1	0	07:56:29	1202505	0	0	0	0	0	0	0	0	0	0	0	0	0	0	0	0	0
121412	07:56:29	10042	pm.simpleFrRight	pm.simpleFr	2	57	310	0	0	07:56:29	1202838	0	0	0	0	0	0	0	0	0	0	0	0	0	0	0	0	0
121412	07:56:29	10042	pm.simpleFrRight	blank.simpleFr	2	0	2000	1	0	07:56:29	1204850	0	0	0	0	0	0	0	0	0	0	0	0	0	0	0	0	0
121412	07:56:29	10042	pm.simpleFrRight	pm.simpleFr	2	57	268	0	0	07:56:29	1205144	0	0	0	0	0	0	0	0	0	0	0	0	0	0	0	0	0
121412	07:56:29	10042	pm.simpleFrRight	blank.simpleFr	2	0	2300	1	0	07:56:29	1207463	0	0	0	0	0	0	0	0	0	0	0	0	0	0	0	0	0
121412	07:56:29	10042	pm.simpleFrRight	pm.simpleFr	2	57	296	0	0	07:56:29	1207783	0	0	0	0	0	0	0	0	0	0	0	0	0	0	0	0	0
121412	07:56:29	10042	pm.simpleFrRight	blank.simpleFr	2	0	1900	1	0	07:56:29	1209702	0	0	0	0	0	0	0	0	0	0	0	0	0	0	0	0	0
121412	07:56:29	10042	pm.simpleFrRight	pm.simpleFr	2	57	281	0	0	07:56:29	1210008	0	0	0	0	0	0	0	0	0	0	0	0	0	0	0	0	0
121412	07:56:29	10042	pm.simpleFrRight	blank.simpleFr	2	0	1600	1	0	07:56:29	1211621	0	0	0	0	0	0	0	0	0	0	0	0	0	0	0	0	0
121412	07:56:29	10042	pm.simpleFrRight	pm.simpleFr	2	57	282	0	0	07:56:29	1211927	0	0	0	0	0	0	0	0	0	0	0	0	0	0	0	0	0
121412	07:56:29	10042	pm.simpleFrRight	blank.simpleFr	2	0	2400	1	0	07:56:29	1214340	0	0	0	0	0	0	0	0	0	0	0	0	0	0	0	0	0
121412	07:56:29	10042	pm.simpleFrRight	pm.simpleFr	2	57	299	0	0	07:56:29	1214660	0	0	0	0	0	0	0	0	0	0	0	0	0	0	0	0	0
121412	07:56:29	10042	pm.simpleFrRight	blank.simpleFr	2	0	1800	1	0	07:56:29	1216472	0	0	0	0	0	0	0	0	0	0	0	0	0	0	0	0	0
121412	07:56:29	10042	pm.simpleFrRight	pm.simpleFr	2	57	278	0	0	07:56:29	1216779	0	0	0	0	0	0	0	0	0	0	0	0	0	0	0	0	0
121412	07:56:29	10042	pm.simpleFrRight	blank.simpleFr	2	0	1600	1	0	07:56:29	1218392	0	0	0	0	0	0	0	0	0	0	0	0	0	0	0	0	0
121412	07:56:29	10042	pm.simpleFrRight	pm.simpleFr	2	57	311	0	0	07:56:29	1218725	0	0	0	0	0	0	0	0	0	0	0	0	0	0	0	0	0
121412	07:56:29	10042	pm.simpleFrRight	blank.simpleFr	2	0	2500	1	0	07:56:29	1221244	0	0	0	0	0	0	0	0	0	0	0	0	0	0	0	0	0
121412	07:56:29	10042	pm.simpleFrRight	pm.simpleFr	2	57	355	0	0	07:56:29	1221617	0	0	0	0	0	0	0	0	0	0	0	0	0	0	0	0	0
121412	07:56:29	10042	pm.simpleFrRight	blank.simpleFr	2	0	2300	1	0	07:56:29	1223936	0	0	0	0	0	0	0	0	0	0	0	0	0	0	0	0	0
121412	07:56:29	10042	pm.simpleFrRight	pm.simpleFr	2	57	270	0	0	07:56:29	1224229	0	0	0	0	0	0	0	0	0	0	0	0	0	0	0	0	0
121412	07:56:29	10042	pm.simpleFrRight	blank.simpleFr	2	0	1800	1	0	07:56:29	1226042	0	0	0	0	0	0	0	0	0	0	0	0	0	0	0	0	0
121412	07:56:29	10042	pm.simpleFrRight	pm.simpleFr	2	57	293	0	0	07:56:29	1226362	0	0	0	0	0	0	0	0	0	0	0	0	0	0	0	0	0
121412	07:56:29	10042	pm.simpleFrRight	blank.simpleFr	2	0	2200	1	0	07:56:29	1228574	0	0	0	0	0	0	0	0	0	0	0	0	0	0	0	0	0
121412	07:56:29	10042	pm.simpleFrRight	pm.simpleFr	2	57	288	0	0	07:56:29	1228881	0	0	0	0	0	0	0	0	0	0	0	0	0	0	0	0	0
121412	07:56:29	10042	pm.simpleFrRight	blank.simpleFr	2	0	1900	1	0	07:56:29	1230800	0	0	0	0	0	0	0	0	0	0	0	0	0	0	0	0	0
121412	07:56:29	10042	pm.simpleFrRight	pm.simpleFr	2	57	270	0	0	07:56:29	1231093	0	0	0	0	0	0	0	0	0	0	0	0	0	0	0	0	0
121412	07:56:29	10042	pm.simpleFrRight	blank.simpleFr	2	0	1700	1	0	07:56:29	1232812	0	0	0	0	0	0	0	0	0	0	0	0	0	0	0	0	0
121412	07:56:29	10042	pm.simpleFrRight	pm.simpleFr	2	57	274	0	0	07:56:29	1233105	0	0	0	0	0	0	0	0	0	0	0	0	0	0	0	0	0
121412	07:56:29	10042	pm.simpleFrRight	blank.simpleFr	2	0	2100	1	0	07:56:29	1235225	0	0	0	0	0	0	0	0	0	0	0	0	0	0	0	0	0
121412	07:56:29	10042	pm.simpleFrRight	pm.simpleFr	2	57	326	0	0	07:56:29	1235571	0	0	0	0	0	0	0	0	0	0	0	0	0	0	0	0	0
121412	07:56:29	10042	pm.simpleFrRight	blank.simpleFr	2	0	2000	1	0	07:56:29	1237584	0	0	0	0	0	0	0	0	0	0	0	0	0	0	0	0	0
121412	07:56:29	10042	pm.simpleFrRight	pm.simpleFr	2	57	270	0	0	07:56:29	1237877	0	0	0	0	0	0	0	0	0	0	0	0	0	0	0	0	0
121412	07:56:29	10042	pm.simpleFrRight	blank.simpleFr	2	0	2400	1	0	07:56:29	1240303	0	0	0	0	0	0	0	0	0	0	0	0	0	0	0	0	0
121412	07:56:29	10042	pm.simpleFrRight	pm.simpleFr	2	57	303	0	0	07:56:29	1240623	0	0	0	0	0	0	0	0	0	0	0	0	0	0	0	0	0
121412	07:56:29	10042	pm.simpleFrRight	blank.simpleFr	2	0	1500	1	0	07:56:29	1242142	0	0	0	0	0	0	0	0	0	0	0	0	0	0	0	0	0
121412	07:56:29	10042	pm.simpleFrRight	pm.simpleFr	2	57	384	0	0	07:56:29	1242555	0	0	0	0	0	0	0	0	0	0	0	0	0	0	0	0	0
121412	07:56:29	10042	pm.simpleFrRight	blank.simpleFr	2	0	2200	1	0	07:56:29	1244768	0	0	0	0	0	0	0	0	0	0	0	0	0	0	0	0	0
121412	07:56:29	10042	pm.simpleFrRight	pm.simpleFr	2	57	286	0	0	07:56:29	1245074	0	0	0	0	0	0	0	0	0	0	0	0	0	0	0	0	0
121412	07:56:29	10042	pm.simpleFrRight	blank.simpleFr	2	0	1700	1	0	07:56:29	1246793	0	0	0	0	0	0	0	0	0	0	0	0	0	0	0	0	0
121412	07:56:29	10042	pm.simpleFrRight	pm.simpleFr	2	57	260	0	0	07:56:29	1247073	0	0	0	0	0	0	0	0	0	0	0	0	0	0	0	0	0
121412	07:56:29	10042	pm.simpleFrRight	blank.simpleFr	2	0	2400	1	0	07:56:29	1249486	0	0	0	0	0	0	0	0	0	0	0	0	0	0	0	0	0
121412	07:56:29	10042	pm.simpleFrRight	pm.simpleFr	2	57	262	0	0	07:56:29	1249792	0	0	0	0	0	0	0	0	0	0	0	0	0	0	0	0	0
121412	07:56:29	10042	pm.simpleFrRight	blank.simpleFr	2	0	1600	1	0	07:56:29	1251405	0	0	0	0	0	0	0	0	0	0	0	0	0	0	0	0	0
121412	07:56:29	10042	pm.simpleFrRight	pm.simpleFr	2	57	273	0	0	07:56:29	1251698	0	0	0	0	0	0	0	0	0	0	0	0	0	0	0	0	0
121412	07:56:29	10042	pm.simpleFrRight	blank.simpleFr	2	0	2000	1	0	07:56:29	1253711	0	0	0	0	0	0	0	0	0	0	0	0	0	0	0	0	0
121412	07:56:29	10042	pm.simpleFrRight	pm.simpleFr	2	57	271	0	0	07:56:29	1254004	0	0	0	0	0	0	0	0	0	0	0	0	0	0	0	0	0
121412	07:56:29	10042	pm.simpleFrRight	blank.simpleFr	2	0	2500	1	0	07:56:29	1256523	0	0	0	0	0	0	0	0	0	0	0	0	0	0	0	0	0
121412	07:56:29	10042	pm.simpleFrRight	pm.simpleFr	2	57	307	0	0	07:56:29	1256856	0	0	0	0	0	0	0	0	0	0	0	0	0	0	0	0	0
121412	07:56:29	10042	pm.simpleFrRight	blank.simpleFr	2	0	2300	1	0	07:56:29	1259175	0	0	0	0	0	0	0	0	0	0	0	0	0	0	0	0	0
121412	07:56:29	10042	pm.simpleFrRight	pm.simpleFr	2	57	278	0	0	07:56:29	1259482	0	0	0	0	0	0	0	0	0	0	0	0	0	0	0	0	0
121412	07:56:29	10042	Trial2BackFr	N	3	0	1000	1	1	07:56:29	1366558	0	0	0	0	0	0	0	0	0	0	0	0	0	0	0	0	0
121412	07:56:29	10042	Trial2BackFr	N	3	0	1000	1	2	07:56:29	1368064	0	0	0	0	0	0	0	0	0	0	0	0	0	0	0	0	0
121412	07:56:29	10042	Trial2BackFr	N	3	0	1000	1	3	07:56:29	1369570	0	0	0	0	0	0	0	0	0	0	0	0	0	0	0	0	0
121412	07:56:29	10042	Trial2BackFr	N	3	0	1000	1	4	07:56:29	1371076	0	0	0	0	0	0	0	0	0	0	0	0	0	0	0	0	0
121412	07:56:29	10042	Trial2BackFr	N	3	0	1000	1	5	07:56:29	1372582	0	0	0	0	0	0	0	0	0	0	0	0	0	0	0	0	0
121412	07:56:29	10042	Trial2BackFr	N	3	0	1000	1	6	07:56:29	1374102	0	0	0	0	0	0	0	0	0	0	0	0	0	0	0	0	0
121412	07:56:29	10042	Trial2BackFr	N	3	0	1000	1	7	07:56:29	1375608	0	0	0	0	0	0	0	0	0	0	0	0	0	0	0	0	0
121412	07:56:29	10042	Trial2BackFr	N	3	0	1000	1	8	07:56:29	1377127	0	0	0	0	0	0	0	0	0	0	0	0	0	0	0	0	0
121412	07:56:29	10042	Trial2BackFr	Y	3	0	1000	0	8	07:56:29	1378633	0	0	0	0	0	0	0	0	0	0	0	0	0	0	0	0	0
121412	07:56:29	10042	Trial2BackFr	N	3	0	1000	1	9	07:56:29	1380139	0	0	0	0	0	0	0	0	0	0	0	0	0	0	0	0	0
121412	07:56:29	10042	Trial2BackFr	N	3	0	1000	1	10	07:56:29	1381645	0	0	0	0	0	0	0	0	0	0	0	0	0	0	0	0	0
121412	07:56:29	10042	Trial2BackFr	N	3	0	1000	1	11	07:56:29	1383152	0	0	0	0	0	0	0	0	0	0	0	0	0	0	0	0	0
121412	07:56:29	10042	Trial2BackFr	Y	3	57	703	1	12	07:56:29	1384364	0	0	0	0	0	0	0	0	0	0	0	0	0	0	0	0	0
121412	07:56:29	10042	Trial2BackFr	N	3	0	1000	1	13	07:56:29	1386164	0	0	0	0	0	0	0	0	0	0	0	0	0	0	0	0	0
121412	07:56:29	10042	Trial2BackFr	N	3	0	1000	1	14	07:56:29	1387670	0	0	0	0	0	0	0	0	0	0	0	0	0	0	0	0	0
121412	07:56:29	10042	Trial2BackFr	N	3	0	1000	1	15	07:56:29	1389176	0	0	0	0	0	0	0	0	0	0	0	0	0	0	0	0	0
121412	07:56:29	10042	Trial2BackFr	N	3	0	1000	1	16	07:56:29	1390682	0	0	0	0	0	0	0	0	0	0	0	0	0	0	0	0	0
121412	07:56:29	10042	Trial2BackFr	N	3	0	1000	1	17	07:56:29	1392188	0	0	0	0	0	0	0	0	0	0	0	0	0	0	0	0	0
121412	07:56:29	10042	Trial2BackFr	Y	3	57	451	1	18	07:56:29	1393147	0	0	0	0	0	0	0	0	0	0	0	0	0	0	0	0	0
121412	07:56:29	10042	Trial2BackFr	N	3	0	1000	1	19	07:56:29	1395200	0	0	0	0	0	0	0	0	0	0	0	0	0	0	0	0	0
121412	07:56:29	10042	Trial2BackFr	N	3	0	1000	1	20	07:56:29	1396706	0	0	0	0	0	0	0	0	0	0	0	0	0	0	0	0	0
121412	07:56:29	10042	Trial2BackFr	N	3	0	1000	1	21	07:56:29	1398212	0	0	0	0	0	0	0	0	0	0	0	0	0	0	0	0	0
121412	07:56:29	10042	Trial2BackFr	N	3	0	1000	1	22	07:56:29	1399718	0	0	0	0	0	0	0	0	0	0	0	0	0	0	0	0	0
121412	07:56:29	10042	Trial2BackFr	Y	3	0	1000	0	22	07:56:29	1401224	0	0	0	0	0	0	0	0	0	0	0	0	0	0	0	0	0
121412	07:56:29	10042	Trial2BackFr	N	3	0	1000	1	23	07:56:29	1402730	0	0	0	0	0	0	0	0	0	0	0	0	0	0	0	0	0
121412	07:56:29	10042	Trial2BackFr	N	3	0	1000	1	24	07:56:29	1404236	0	0	0	0	0	0	0	0	0	0	0	0	0	0	0	0	0
121412	07:56:29	10042	Trial2BackFr	N	3	0	1000	1	25	07:56:29	1405743	0	0	0	0	0	0	0	0	0	0	0	0	0	0	0	0	0
121412	07:56:29	10042	Trial2BackFr	N	3	0	1000	1	26	07:56:29	1407248	0	0	0	0	0	0	0	0	0	0	0	0	0	0	0	0	0
121412	07:56:29	10042	Trial2BackFr	N	3	0	1000	1	27	07:56:29	1408755	0	0	0	0	0	0	0	0	0	0	0	0	0	0	0	0	0
121412	07:56:29	10042	Trial2BackFr	N	3	0	1000	1	28	07:56:29	1410261	0	0	0	0	0	0	0	0	0	0	0	0	0	0	0	0	0
121412	07:56:29	10042	Trial2BackFr	Y	3	0	1000	0	28	07:56:29	1411767	0	0	0	0	0	0	0	0	0	0	0	0	0	0	0	0	0
121412	07:56:29	10042	Trial2BackFr	N	3	0	1000	1	29	07:56:29	1413273	0	0	0	0	0	0	0	0	0	0	0	0	0	0	0	0	0
121412	07:56:29	10042	Trial2BackFr	N	3	0	1000	1	30	07:56:29	1414779	0	0	0	0	0	0	0	0	0	0	0	0	0	0	0	0	0
121412	07:56:29	10042	Trial2BackFr	N	3	0	1000	1	31	07:56:29	1416285	0	0	0	0	0	0	0	0	0	0	0	0	0	0	0	0	0
121412	07:56:29	10042	Trial2BackFr	Y	3	0	1000	0	31	07:56:29	1417804	0	0	0	0	0	0	0	0	0	0	0	0	0	0	0	0	0
121412	07:56:29	10042	Trial2BackFr	N	3	0	1000	1	32	07:56:29	1419310	0	0	0	0	0	0	0	0	0	0	0	0	0	0	0	0	0
121412	07:56:29	10042	Trial2BackFr	N	3	0	1000	1	33	07:56:29	1420830	0	0	0	0	0	0	0	0	0	0	0	0	0	0	0	0	0
121412	07:56:29	10042	Trial2BackFr	N	3	0	1000	1	34	07:56:29	1422336	0	0	0	0	0	0	0	0	0	0	0	0	0	0	0	0	0
121412	07:56:29	10042	Trial2BackFr	N	3	0	1000	1	35	07:56:29	1423855	0	0	0	0	0	0	0	0	0	0	0	0	0	0	0	0	0
121412	07:56:29	10042	Trial2BackFr	N	3	0	1000	1	36	07:56:29	1425361	0	0	0	0	0	0	0	0	0	0	0	0	0	0	0	0	0
121412	07:56:29	10042	Trial2BackFr	N	3	0	1000	1	37	07:56:29	1426880	0	0	0	0	0	0	0	0	0	0	0	0	0	0	0	0	0
121412	07:56:29	10042	Trial2BackFr	Y	3	57	765	1	38	07:56:29	1428160	0	0	0	0	0	0	0	0	0	0	0	0	0	0	0	0	0
121412	07:56:29	10042	Trial2BackFr	N	3	0	1000	1	39	07:56:29	1429893	0	0	0	0	0	0	0	0	0	0	0	0	0	0	0	0	0
121412	07:56:29	10042	Trial2BackFr	N	3	0	1000	1	40	07:56:29	1431399	0	0	0	0	0	0	0	0	0	0	0	0	0	0	0	0	0
121412	07:56:29	10042	Trial2BackFr	N	3	0	1000	1	41	07:56:29	1432905	0	0	0	0	0	0	0	0	0	0	0	0	0	0	0	0	0
121412	07:56:29	10042	Trial2BackFr	N	3	0	1000	1	42	07:56:29	1434411	0	0	0	0	0	0	0	0	0	0	0	0	0	0	0	0	0
121412	07:56:29	10042	Trial2BackFr	Y	3	57	835	1	43	07:56:29	1435757	0	0	0	0	0	0	0	0	0	0	0	0	0	0	0	0	0
121412	07:56:29	10042	Trial2BackFr	N	3	0	1000	1	44	07:56:29	1437423	0	0	0	0	0	0	0	0	0	0	0	0	0	0	0	0	0
121412	07:56:29	10042	Trial2BackFr	N	3	0	1000	1	45	07:56:29	1438929	0	0	0	0	0	0	0	0	0	0	0	0	0	0	0	0	0
121412	07:56:29	10042	Trial2BackFr	N	3	0	1000	1	46	07:56:29	1440448	0	0	0	0	0	0	0	0	0	0	0	0	0	0	0	0	0
121412	07:56:29	10042	Trial2BackFr	N	3	0	1000	1	47	07:56:29	1441954	0	0	0	0	0	0	0	0	0	0	0	0	0	0	0	0	0
121412	07:56:29	10042	Trial2BackFr	N	3	0	1000	1	48	07:56:29	1443460	0	0	0	0	0	0	0	0	0	0	0	0	0	0	0	0	0
121412	07:56:29	10042	Trial2BackFr	Y	3	57	585	1	49	07:56:29	1444554	0	0	0	0	0	0	0	0	0	0	0	0	0	0	0	0	0
121412	07:56:29	10042	Trial2BackFr	N	3	0	1000	1	50	07:56:29	1446473	0	0	0	0	0	0	0	0	0	0	0	0	0	0	0	0	0
121412	07:56:29	10042	Trial2BackFr	N	3	0	1000	1	51	07:56:29	1447992	0	0	0	0	0	0	0	0	0	0	0	0	0	0	0	0	0
121412	07:56:29	10042	Trial2BackFr	N	3	0	1000	1	52	07:56:29	1449498	0	0	0	0	0	0	0	0	0	0	0	0	0	0	0	0	0
121412	07:56:29	10042	Trial2BackFr	N	3	0	1000	1	53	07:56:29	1451004	0	0	0	0	0	0	0	0	0	0	0	0	0	0	0	0	0
121412	07:56:29	10042	Trial2BackFr	N	3	0	1000	1	54	07:56:29	1452510	0	0	0	0	0	0	0	0	0	0	0	0	0	0	0	0	0
121412	07:56:29	10042	Trial2BackFr	N	3	0	1000	1	55	07:56:29	1454016	0	0	0	0	0	0	0	0	0	0	0	0	0	0	0	0	0
121412	07:56:29	10042	Trial2BackFr	Y	3	57	637	1	56	07:56:29	1455162	0	0	0	0	0	0	0	0	0	0	0	0	0	0	0	0	0
121412	07:56:29	10042	Trial2BackFr	N	3	0	1000	1	57	07:56:29	1457028	0	0	0	0	0	0	0	0	0	0	0	0	0	0	0	0	0
121412	07:56:29	10042	Trial2BackFr	N	3	0	1000	1	58	07:56:29	1458534	0	0	0	0	0	0	0	0	0	0	0	0	0	0	0	0	0
121412	07:56:29	10042	Trial2BackFr	Y	3	57	711	1	59	07:56:29	1459760	0	0	0	0	0	0	0	0	0	0	0	0	0	0	0	0	0
121412	07:56:29	10042	Trial2BackFr	N	3	0	1000	1	60	07:56:29	1461546	0	0	0	0	0	0	0	0	0	0	0	0	0	0	0	0	0
121412	07:56:29	10042	Trial2BackFr	N	3	0	1000	1	61	07:56:29	1463066	0	0	0	0	0	0	0	0	0	0	0	0	0	0	0	0	0
121412	07:56:29	10042	Trial2BackFr	N	3	0	1000	1	62	07:56:29	1464572	0	0	0	0	0	0	0	0	0	0	0	0	0	0	0	0	0
121412	07:56:29	10042	Trial2BackFr	N	3	0	1000	1	63	07:56:29	1466078	0	0	0	0	0	0	0	0	0	0	0	0	0	0	0	0	0
121412	07:56:29	10042	Trial2BackFr	N	3	0	1000	1	64	07:56:29	1467597	0	0	0	0	0	0	0	0	0	0	0	0	0	0	0	0	0
121412	07:56:29	10042	Trial2BackFr	N	3	0	1000	1	65	07:56:29	1469103	0	0	0	0	0	0	0	0	0	0	0	0	0	0	0	0	0
121412	07:56:29	10042	Trial2BackFr	N	3	0	1000	1	66	07:56:29	1470609	0	0	0	0	0	0	0	0	0	0	0	0	0	0	0	0	0
121412	07:56:29	10042	Trial2BackFr	N	3	0	1000	1	67	07:56:29	1472115	0	0	0	0	0	0	0	0	0	0	0	0	0	0	0	0	0
121412	07:56:29	10042	Trial2BackFr	N	3	0	1000	1	68	07:56:29	1473622	0	0	0	0	0	0	0	0	0	0	0	0	0	0	0	0	0
121412	07:56:29	10042	Trial2BackFr	N	3	0	1000	1	69	07:56:29	1475128	0	0	0	0	0	0	0	0	0	0	0	0	0	0	0	0	0
121412	07:56:29	10042	Trial2BackFr	Y	3	57	709	1	70	07:56:29	1476354	0	0	0	0	0	0	0	0	0	0	0	0	0	0	0	0	0
121412	07:56:29	10042	Trial2BackFr	N	3	0	1000	1	71	07:56:29	1478140	0	0	0	0	0	0	0	0	0	0	0	0	0	0	0	0	0
121412	07:56:29	10042	Trial2BackFr	N	3	0	1000	1	72	07:56:29	1479646	0	0	0	0	0	0	0	0	0	0	0	0	0	0	0	0	0
121412	07:56:29	10042	Trial2BackFr	N	3	0	1000	1	73	07:56:29	1481152	0	0	0	0	0	0	0	0	0	0	0	0	0	0	0	0	0
121412	07:56:29	10042	Trial2BackFr	Y	3	57	573	1	74	07:56:29	1482245	0	0	0	0	0	0	0	0	0	0	0	0	0	0	0	0	0
121412	07:56:29	10042	Trial2BackFr	N	3	0	1000	1	75	07:56:29	1484164	0	0	0	0	0	0	0	0	0	0	0	0	0	0	0	0	0
121412	07:56:29	10042	Trial2BackFr	N	3	0	1000	1	76	07:56:29	1485670	0	0	0	0	0	0	0	0	0	0	0	0	0	0	0	0	0
121412	07:56:29	10042	Trial2BackFr	N	3	0	1000	1	77	07:56:29	1487176	0	0	0	0	0	0	0	0	0	0	0	0	0	0	0	0	0
121412	07:56:29	10042	Trial2BackFr	N	3	0	1000	1	78	07:56:29	1488682	0	0	0	0	0	0	0	0	0	0	0	0	0	0	0	0	0
121412	07:56:29	10042	Trial2BackFr	N	3	0	1000	1	79	07:56:29	1490188	0	0	0	0	0	0	0	0	0	0	0	0	0	0	0	0	0
121412	07:56:29	10042	Trial2BackFr	Y	3	57	800	1	80	07:56:29	1491508	0	0	0	0	0	0	0	0	0	0	0	0	0	0	0	0	0
121412	07:56:29	10042	Trial2BackFr	N	3	0	1000	1	81	07:56:29	1493200	0	0	0	0	0	0	0	0	0	0	0	0	0	0	0	0	0
121412	07:56:29	10042	Trial2BackFr	N	3	0	1000	1	82	07:56:29	1494720	0	0	0	0	0	0	0	0	0	0	0	0	0	0	0	0	0
121412	07:56:29	10042	Trial2BackFr	N	3	0	1000	1	83	07:56:29	1496226	0	0	0	0	0	0	0	0	0	0	0	0	0	0	0	0	0
121412	07:56:29	10042	Trial2BackFr	N	3	0	1000	1	84	07:56:29	1497732	0	0	0	0	0	0	0	0	0	0	0	0	0	0	0	0	0
121412	07:56:29	10042	Trial2BackFr	N	3	0	1000	1	85	07:56:29	1499238	0	0	0	0	0	0	0	0	0	0	0	0	0	0	0	0	0
121412	07:56:29	10042	Trial2BackFr	N	3	0	1000	1	86	07:56:29	1500744	0	0	0	0	0	0	0	0	0	0	0	0	0	0	0	0	0
121412	07:56:29	10042	Trial2BackFr	N	3	0	1000	1	87	07:56:29	1502250	0	0	0	0	0	0	0	0	0	0	0	0	0	0	0	0	0
121412	07:56:29	10042	Trial2BackFr	N	3	0	1000	1	88	07:56:29	1503756	0	0	0	0	0	0	0	0	0	0	0	0	0	0	0	0	0
121412	07:56:29	10042	Trial2BackFr	N	3	0	1000	1	89	07:56:29	1505262	0	0	0	0	0	0	0	0	0	0	0	0	0	0	0	0	0
121412	07:56:29	10042	Trial2BackFr	Y	3	57	638	1	90	07:56:29	1506408	0	0	0	0	0	0	0	0	0	0	0	0	0	0	0	0	0
121412	07:56:29	10042	Trial2BackFr	N	3	0	1000	1	91	07:56:29	1508274	0	0	0	0	0	0	0	0	0	0	0	0	0	0	0	0	0
121412	07:56:29	10042	Trial2BackFr	N	3	0	1000	1	92	07:56:29	1509780	0	0	0	0	0	0	0	0	0	0	0	0	0	0	0	0	0
121412	07:56:29	10042	Trial2BackFr	N	3	0	1000	1	93	07:56:29	1511300	0	0	0	0	0	0	0	0	0	0	0	0	0	0	0	0	0
121412	07:56:29	10042	Trial2BackFr	N	3	0	1000	1	94	07:56:29	1512806	0	0	0	0	0	0	0	0	0	0	0	0	0	0	0	0	0
121412	07:56:29	10042	Trial2BackFr	N	3	0	1000	1	95	07:56:29	1514312	0	0	0	0	0	0	0	0	0	0	0	0	0	0	0	0	0
121412	07:56:29	10042	Trial2BackFr	N	3	0	1000	1	96	07:56:29	1515818	0	0	0	0	0	0	0	0	0	0	0	0	0	0	0	0	0
121412	07:56:29	10042	Trial2BackFr	N	3	0	1000	1	97	07:56:29	1517324	0	0	0	0	0	0	0	0	0	0	0	0	0	0	0	0	0
121412	07:56:29	10042	Trial2BackFr	N	3	0	1000	1	98	07:56:29	1518843	0	0	0	0	0	0	0	0	0	0	0	0	0	0	0	0	0
121412	07:56:29	10042	Trial2BackFr	Y	3	57	785	1	99	07:56:29	1520136	0	0	0	0	0	0	0	0	0	0	0	0	0	0	0	0	0
121412	07:56:29	10042	Trial2BackFr	N	3	0	1000	1	100	07:56:29	1521855	0	0	0	0	0	0	0	0	0	0	0	0	0	0	0	0	0
121412	07:56:29	10042	Trial2BackFr	N	3	0	1000	1	101	07:56:29	1523375	0	0	0	0	0	0	0	0	0	0	0	0	0	0	0	0	0
121412	07:56:29	10042	Trial2BackFr	N	3	0	1000	1	102	07:56:29	1524907	0	0	0	0	0	0	0	0	0	0	0	0	0	0	0	0	0
121412	07:56:29	10042	Trial2BackFr	N	3	0	1000	1	103	07:56:29	1526413	0	0	0	0	0	0	0	0	0	0	0	0	0	0	0	0	0
121412	07:56:29	10042	Trial2BackFr	Y	3	57	542	1	104	07:56:29	1527466	0	0	0	0	0	0	0	0	0	0	0	0	0	0	0	0	0
121412	07:56:29	10042	Trial2BackFr	N	3	0	1000	1	105	07:56:29	1529426	0	0	0	0	0	0	0	0	0	0	0	0	0	0	0	0	0
121412	07:56:29	10042	Trial2BackFr	N	3	0	1000	1	106	07:56:29	1530932	0	0	0	0	0	0	0	0	0	0	0	0	0	0	0	0	0
121412	07:56:29	10042	Trial2BackFr	N	3	0	1000	1	107	07:56:29	1532451	0	0	0	0	0	0	0	0	0	0	0	0	0	0	0	0	0
121412	07:56:29	10042	Trial2BackFr	Y	3	57	617	1	108	07:56:29	1533584	0	0	0	0	0	0	0	0	0	0	0	0	0	0	0	0	0
121412	07:56:29	10042	Trial2BackFr	N	3	0	1000	1	109	07:56:29	1535463	0	0	0	0	0	0	0	0	0	0	0	0	0	0	0	0	0
121412	07:56:29	10042	Trial2BackFr	N	3	0	1000	1	110	07:56:29	1536969	0	0	0	0	0	0	0	0	0	0	0	0	0	0	0	0	0
121412	07:56:29	10042	Trial2BackFr	N	3	0	1000	1	111	07:56:29	1538488	0	0	0	0	0	0	0	0	0	0	0	0	0	0	0	0	0
121412	07:56:29	10042	Trial2BackFr	N	3	0	1000	1	112	07:56:29	1539995	0	0	0	0	0	0	0	0	0	0	0	0	0	0	0	0	0
121412	07:56:29	10042	Trial2BackFr	N	3	0	1000	1	113	07:56:29	1541514	0	0	0	0	0	0	0	0	0	0	0	0	0	0	0	0	0
121412	07:56:29	10042	Trial2BackFr	Y	3	57	401	1	114	07:56:29	1542434	0	0	0	0	0	0	0	0	0	0	0	0	0	0	0	0	0
121412	07:56:29	10042	Trial2BackFr	N	3	0	1000	1	115	07:56:29	1544526	0	0	0	0	0	0	0	0	0	0	0	0	0	0	0	0	0
121412	07:56:29	10042	Trial2BackFr	N	3	0	1000	1	116	07:56:29	1546033	0	0	0	0	0	0	0	0	0	0	0	0	0	0	0	0	0
121412	07:56:29	10042	Trial2BackFr	N	3	0	1000	1	117	07:56:29	1547538	0	0	0	0	0	0	0	0	0	0	0	0	0	0	0	0	0
121412	07:56:29	10042	Trial2BackFr	Y	3	57	697	1	118	07:56:29	1548751	0	0	0	0	0	0	0	0	0	0	0	0	0	0	0	0	0
121412	07:56:29	10042	Trial3BackFr	NN	4	0	1000	1	118	07:56:29	1593386	0	0	0	0	0	0	0	0	0	0	0	0	0	0	0	0	0
121412	07:56:29	10042	Trial3BackFr	NN	4	0	1000	1	118	07:56:29	1594892	0	0	0	0	0	0	0	0	0	0	0	0	0	0	0	0	0
121412	07:56:29	10042	Trial3BackFr	NN	4	0	1000	1	118	07:56:29	1596399	0	0	0	0	0	0	0	0	0	0	0	0	0	0	0	0	0
121412	07:56:29	10042	Trial3BackFr	YY	4	57	396	1	118	07:56:29	1597305	0	0	0	0	0	0	0	0	0	0	0	0	0	0	0	0	0
121412	07:56:29	10042	Trial3BackFr	NN	4	0	1000	1	118	07:56:29	1599411	0	0	0	0	0	0	0	0	0	0	0	0	0	0	0	0	0
121412	07:56:29	10042	Trial3BackFr	NN	4	0	1000	1	118	07:56:29	1600930	0	0	0	0	0	0	0	0	0	0	0	0	0	0	0	0	0
121412	07:56:29	10042	Trial3BackFr	NN	4	0	1000	1	118	07:56:29	1602436	0	0	0	0	0	0	0	0	0	0	0	0	0	0	0	0	0
121412	07:56:29	10042	Trial3BackFr	NN	4	0	1000	1	118	07:56:29	1603942	0	0	0	0	0	0	0	0	0	0	0	0	0	0	0	0	0
121412	07:56:29	10042	Trial3BackFr	YY	4	0	1000	0	118	07:56:29	1605448	0	0	0	0	0	0	0	0	0	0	0	0	0	0	0	0	0
121412	07:56:29	10042	Trial3BackFr	NN	4	0	1000	1	118	07:56:29	1606954	0	0	0	0	0	0	0	0	0	0	0	0	0	0	0	0	0
121412	07:56:29	10042	Trial3BackFr	NN	4	0	1000	1	118	07:56:29	1608460	0	0	0	0	0	0	0	0	0	0	0	0	0	0	0	0	0
121412	07:56:29	10042	Trial3BackFr	NN	4	0	1000	1	118	07:56:29	1609980	0	0	0	0	0	0	0	0	0	0	0	0	0	0	0	0	0
121412	07:56:29	10042	Trial3BackFr	NN	4	0	1000	1	118	07:56:29	1611486	0	0	0	0	0	0	0	0	0	0	0	0	0	0	0	0	0
121412	07:56:29	10042	Trial3BackFr	NN	4	0	1000	1	118	07:56:29	1612992	0	0	0	0	0	0	0	0	0	0	0	0	0	0	0	0	0
121412	07:56:29	10042	Trial3BackFr	NN	4	0	1000	1	118	07:56:29	1614498	0	0	0	0	0	0	0	0	0	0	0	0	0	0	0	0	0
121412	07:56:29	10042	Trial3BackFr	NN	4	0	1000	1	118	07:56:29	1616017	0	0	0	0	0	0	0	0	0	0	0	0	0	0	0	0	0
121412	07:56:29	10042	Trial3BackFr	YY	4	57	584	1	118	07:56:29	1617110	0	0	0	0	0	0	0	0	0	0	0	0	0	0	0	0	0
121412	07:56:29	10042	Trial3BackFr	NN	4	0	1000	1	118	07:56:29	1619029	0	0	0	0	0	0	0	0	0	0	0	0	0	0	0	0	0
121412	07:56:29	10042	Trial3BackFr	NN	4	0	1000	1	118	07:56:29	1620535	0	0	0	0	0	0	0	0	0	0	0	0	0	0	0	0	0
121412	07:56:29	10042	Trial3BackFr	NN	4	0	1000	1	118	07:56:29	1622041	0	0	0	0	0	0	0	0	0	0	0	0	0	0	0	0	0
121412	07:56:29	10042	Trial3BackFr	NN	4	0	1000	1	118	07:56:29	1623547	0	0	0	0	0	0	0	0	0	0	0	0	0	0	0	0	0
121412	07:56:29	10042	Trial3BackFr	NN	4	0	1000	1	118	07:56:29	1625053	0	0	0	0	0	0	0	0	0	0	0	0	0	0	0	0	0
121412	07:56:29	10042	Trial3BackFr	YY	4	0	1000	0	118	07:56:29	1626560	0	0	0	0	0	0	0	0	0	0	0	0	0	0	0	0	0
121412	07:56:29	10042	Trial3BackFr	NN	4	0	1000	1	118	07:56:29	1628066	0	0	0	0	0	0	0	0	0	0	0	0	0	0	0	0	0
121412	07:56:29	10042	Trial3BackFr	NN	4	0	1000	1	118	07:56:29	1629572	0	0	0	0	0	0	0	0	0	0	0	0	0	0	0	0	0
121412	07:56:29	10042	Trial3BackFr	NN	4	0	1000	1	118	07:56:29	1631091	0	0	0	0	0	0	0	0	0	0	0	0	0	0	0	0	0
121412	07:56:29	10042	Trial3BackFr	YY	4	57	726	1	118	07:56:29	1632330	0	0	0	0	0	0	0	0	0	0	0	0	0	0	0	0	0
121412	07:56:29	10042	Trial3BackFr	NN	4	0	1000	1	118	07:56:29	1634103	0	0	0	0	0	0	0	0	0	0	0	0	0	0	0	0	0
121412	07:56:29	10042	Trial3BackFr	NN	4	0	1000	1	118	07:56:29	1635609	0	0	0	0	0	0	0	0	0	0	0	0	0	0	0	0	0
121412	07:56:29	10042	Trial3BackFr	NN	4	0	1000	1	118	07:56:29	1637115	0	0	0	0	0	0	0	0	0	0	0	0	0	0	0	0	0
121412	07:56:29	10042	Trial3BackFr	YY	4	57	766	1	118	07:56:29	1638395	0	0	0	0	0	0	0	0	0	0	0	0	0	0	0	0	0
121412	07:56:29	10042	Trial3BackFr	NN	4	0	1000	1	118	07:56:29	1640127	0	0	0	0	0	0	0	0	0	0	0	0	0	0	0	0	0
121412	07:56:29	10042	Trial3BackFr	NN	4	0	1000	1	118	07:56:29	1641647	0	0	0	0	0	0	0	0	0	0	0	0	0	0	0	0	0
121412	07:56:29	10042	Trial3BackFr	NN	4	0	1000	1	118	07:56:29	1643153	0	0	0	0	0	0	0	0	0	0	0	0	0	0	0	0	0
121412	07:56:29	10042	Trial3BackFr	NN	4	57	632	0	118	07:56:29	1644299	0	0	0	0	0	0	0	0	0	0	0	0	0	0	0	0	0
121412	07:56:29	10042	Trial3BackFr	NN	4	0	1000	1	118	07:56:29	1646165	0	0	0	0	0	0	0	0	0	0	0	0	0	0	0	0	0
121412	07:56:29	10042	Trial3BackFr	NN	4	0	1000	1	118	07:56:29	1647671	0	0	0	0	0	0	0	0	0	0	0	0	0	0	0	0	0
121412	07:56:29	10042	Trial3BackFr	NN	4	0	1000	1	118	07:56:29	1649177	0	0	0	0	0	0	0	0	0	0	0	0	0	0	0	0	0
121412	07:56:29	10042	Trial3BackFr	NN	4	0	1000	1	118	07:56:29	1650683	0	0	0	0	0	0	0	0	0	0	0	0	0	0	0	0	0
121412	07:56:29	10042	Trial3BackFr	NN	4	0	1000	1	118	07:56:29	1652189	0	0	0	0	0	0	0	0	0	0	0	0	0	0	0	0	0
121412	07:56:29	10042	Trial3BackFr	NN	4	0	1000	1	118	07:56:29	1653695	0	0	0	0	0	0	0	0	0	0	0	0	0	0	0	0	0
121412	07:56:29	10042	Trial3BackFr	YY	4	0	1000	0	118	07:56:29	1655201	0	0	0	0	0	0	0	0	0	0	0	0	0	0	0	0	0
121412	07:56:29	10042	Trial3BackFr	NN	4	0	1000	1	118	07:56:29	1656707	0	0	0	0	0	0	0	0	0	0	0	0	0	0	0	0	0
121412	07:56:29	10042	Trial3BackFr	NN	4	0	1000	1	118	07:56:29	1658213	0	0	0	0	0	0	0	0	0	0	0	0	0	0	0	0	0
121412	07:56:29	10042	Trial3BackFr	NN	4	0	1000	1	118	07:56:29	1659719	0	0	0	0	0	0	0	0	0	0	0	0	0	0	0	0	0
121412	07:56:29	10042	Trial3BackFr	NN	4	0	1000	1	118	07:56:29	1661225	0	0	0	0	0	0	0	0	0	0	0	0	0	0	0	0	0
121412	07:56:29	10042	Trial3BackFr	YY	4	57	975	1	118	07:56:29	1662718	0	0	0	0	0	0	0	0	0	0	0	0	0	0	0	0	0
121412	07:56:29	10042	Trial3BackFr	NN	4	0	1000	1	118	07:56:29	1664238	0	0	0	0	0	0	0	0	0	0	0	0	0	0	0	0	0
121412	07:56:29	10042	Trial3BackFr	NN	4	0	1000	1	118	07:56:29	1665744	0	0	0	0	0	0	0	0	0	0	0	0	0	0	0	0	0
121412	07:56:29	10042	Trial3BackFr	NN	4	0	1000	1	118	07:56:29	1667250	0	0	0	0	0	0	0	0	0	0	0	0	0	0	0	0	0
121412	07:56:29	10042	Trial3BackFr	NN	4	0	1000	1	118	07:56:29	1668756	0	0	0	0	0	0	0	0	0	0	0	0	0	0	0	0	0
121412	07:56:29	10042	Trial3BackFr	NN	4	0	1000	1	118	07:56:29	1670262	0	0	0	0	0	0	0	0	0	0	0	0	0	0	0	0	0
121412	07:56:29	10042	Trial3BackFr	YY	4	57	434	1	118	07:56:29	1671208	0	0	0	0	0	0	0	0	0	0	0	0	0	0	0	0	0
121412	07:56:29	10042	Trial3BackFr	NN	4	0	1000	1	118	07:56:29	1673274	0	0	0	0	0	0	0	0	0	0	0	0	0	0	0	0	0
121412	07:56:29	10042	Trial3BackFr	NN	4	0	1000	1	118	07:56:29	1674780	0	0	0	0	0	0	0	0	0	0	0	0	0	0	0	0	0
121412	07:56:29	10042	Trial3BackFr	NN	4	0	1000	1	118	07:56:29	1676286	0	0	0	0	0	0	0	0	0	0	0	0	0	0	0	0	0
121412	07:56:29	10042	Trial3BackFr	NN	4	0	1000	1	118	07:56:29	1677792	0	0	0	0	0	0	0	0	0	0	0	0	0	0	0	0	0
121412	07:56:29	10042	Trial3BackFr	NN	4	0	1000	1	118	07:56:29	1679298	0	0	0	0	0	0	0	0	0	0	0	0	0	0	0	0	0
121412	07:56:29	10042	Trial3BackFr	NN	4	0	1000	1	118	07:56:29	1680804	0	0	0	0	0	0	0	0	0	0	0	0	0	0	0	0	0
121412	07:56:29	10042	Trial3BackFr	YY	4	57	836	1	118	07:56:29	1682150	0	0	0	0	0	0	0	0	0	0	0	0	0	0	0	0	0
121412	07:56:29	10042	Trial3BackFr	NN	4	0	1000	1	118	07:56:29	1683816	0	0	0	0	0	0	0	0	0	0	0	0	0	0	0	0	0
121412	07:56:29	10042	Trial3BackFr	NN	4	0	1000	1	118	07:56:29	1685322	0	0	0	0	0	0	0	0	0	0	0	0	0	0	0	0	0
121412	07:56:29	10042	Trial3BackFr	NN	4	0	1000	1	118	07:56:29	1686829	0	0	0	0	0	0	0	0	0	0	0	0	0	0	0	0	0
121412	07:56:29	10042	Trial3BackFr	YY	4	57	459	1	118	07:56:29	1687801	0	0	0	0	0	0	0	0	0	0	0	0	0	0	0	0	0
121412	07:56:29	10042	Trial3BackFr	NN	4	0	1000	1	118	07:56:29	1689841	0	0	0	0	0	0	0	0	0	0	0	0	0	0	0	0	0
121412	07:56:29	10042	Trial3BackFr	NN	4	0	1000	1	118	07:56:29	1691347	0	0	0	0	0	0	0	0	0	0	0	0	0	0	0	0	0
121412	07:56:29	10042	Trial3BackFr	NN	4	0	1000	1	118	07:56:29	1692866	0	0	0	0	0	0	0	0	0	0	0	0	0	0	0	0	0
121412	07:56:29	10042	Trial3BackFr	NN	4	0	1000	1	118	07:56:29	1694372	0	0	0	0	0	0	0	0	0	0	0	0	0	0	0	0	0
121412	07:56:29	10042	Trial3BackFr	NN	4	0	1000	1	118	07:56:29	1695878	0	0	0	0	0	0	0	0	0	0	0	0	0	0	0	0	0
121412	07:56:29	10042	Trial3BackFr	NN	4	0	1000	1	118	07:56:29	1697384	0	0	0	0	0	0	0	0	0	0	0	0	0	0	0	0	0
121412	07:56:29	10042	Trial3BackFr	NN	4	0	1000	1	118	07:56:29	1698890	0	0	0	0	0	0	0	0	0	0	0	0	0	0	0	0	0
121412	07:56:29	10042	Trial3BackFr	NN	4	0	1000	1	118	07:56:29	1700396	0	0	0	0	0	0	0	0	0	0	0	0	0	0	0	0	0
121412	07:56:29	10042	Trial3BackFr	NN	4	0	1000	1	118	07:56:29	1701916	0	0	0	0	0	0	0	0	0	0	0	0	0	0	0	0	0
121412	07:56:29	10042	Trial3BackFr	YY	4	57	572	1	118	07:56:29	1702995	0	0	0	0	0	0	0	0	0	0	0	0	0	0	0	0	0
121412	07:56:29	10042	Trial3BackFr	NN	4	0	1000	1	118	07:56:29	1704928	0	0	0	0	0	0	0	0	0	0	0	0	0	0	0	0	0
121412	07:56:29	10042	Trial3BackFr	NN	4	0	1000	1	118	07:56:29	1706434	0	0	0	0	0	0	0	0	0	0	0	0	0	0	0	0	0
121412	07:56:29	10042	Trial3BackFr	NN	4	0	1000	1	118	07:56:29	1707953	0	0	0	0	0	0	0	0	0	0	0	0	0	0	0	0	0
121412	07:56:29	10042	Trial3BackFr	YY	4	57	534	1	118	07:56:29	1709006	0	0	0	0	0	0	0	0	0	0	0	0	0	0	0	0	0
121412	07:56:29	10042	Trial3BackFr	NN	4	0	1000	1	118	07:56:29	1710965	0	0	0	0	0	0	0	0	0	0	0	0	0	0	0	0	0
121412	07:56:29	10042	Trial3BackFr	NN	4	0	1000	1	118	07:56:29	1712471	0	0	0	0	0	0	0	0	0	0	0	0	0	0	0	0	0
121412	07:56:29	10042	Trial3BackFr	NN	4	0	1000	1	118	07:56:29	1713977	0	0	0	0	0	0	0	0	0	0	0	0	0	0	0	0	0
121412	07:56:29	10042	Trial3BackFr	NN	4	0	1000	1	118	07:56:29	1715484	0	0	0	0	0	0	0	0	0	0	0	0	0	0	0	0	0
121412	07:56:29	10042	Trial3BackFr	NN	4	0	1000	1	118	07:56:29	1717003	0	0	0	0	0	0	0	0	0	0	0	0	0	0	0	0	0
121412	07:56:29	10042	Trial3BackFr	YY	4	0	1000	0	118	07:56:29	1718509	0	0	0	0	0	0	0	0	0	0	0	0	0	0	0	0	0
121412	07:56:29	10042	Trial3BackFr	NN	4	0	1000	1	118	07:56:29	1720015	0	0	0	0	0	0	0	0	0	0	0	0	0	0	0	0	0
121412	07:56:29	10042	Trial3BackFr	NN	4	0	1000	1	118	07:56:29	1721521	0	0	0	0	0	0	0	0	0	0	0	0	0	0	0	0	0
121412	07:56:29	10042	Trial3BackFr	NN	4	0	1000	1	118	07:56:29	1723040	0	0	0	0	0	0	0	0	0	0	0	0	0	0	0	0	0
121412	07:56:29	10042	Trial3BackFr	NN	4	57	534	0	118	07:56:29	1724093	0	0	0	0	0	0	0	0	0	0	0	0	0	0	0	0	0
121412	07:56:29	10042	Trial3BackFr	NN	4	0	1000	1	118	07:56:29	1726053	0	0	0	0	0	0	0	0	0	0	0	0	0	0	0	0	0
121412	07:56:29	10042	Trial3BackFr	NN	4	0	1000	1	118	07:56:29	1727559	0	0	0	0	0	0	0	0	0	0	0	0	0	0	0	0	0
121412	07:56:29	10042	Trial3BackFr	NN	4	0	1000	1	118	07:56:29	1729065	0	0	0	0	0	0	0	0	0	0	0	0	0	0	0	0	0
121412	07:56:29	10042	Trial3BackFr	NN	4	0	1000	1	118	07:56:29	1730571	0	0	0	0	0	0	0	0	0	0	0	0	0	0	0	0	0
121412	07:56:29	10042	Trial3BackFr	NN	4	0	1000	1	118	07:56:29	1732077	0	0	0	0	0	0	0	0	0	0	0	0	0	0	0	0	0
121412	07:56:29	10042	Trial3BackFr	YY	4	0	1000	0	118	07:56:29	1733583	0	0	0	0	0	0	0	0	0	0	0	0	0	0	0	0	0
121412	07:56:29	10042	Trial3BackFr	NN	4	0	1000	1	118	07:56:29	1735089	0	0	0	0	0	0	0	0	0	0	0	0	0	0	0	0	0
121412	07:56:29	10042	Trial3BackFr	NN	4	0	1000	1	118	07:56:29	1736608	0	0	0	0	0	0	0	0	0	0	0	0	0	0	0	0	0
121412	07:56:29	10042	Trial3BackFr	NN	4	0	1000	1	118	07:56:29	1738114	0	0	0	0	0	0	0	0	0	0	0	0	0	0	0	0	0
121412	07:56:29	10042	Trial3BackFr	NN	4	0	1000	1	118	07:56:29	1739620	0	0	0	0	0	0	0	0	0	0	0	0	0	0	0	0	0
121412	07:56:29	10042	Trial3BackFr	NN	4	0	1000	1	118	07:56:29	1741126	0	0	0	0	0	0	0	0	0	0	0	0	0	0	0	0	0
121412	07:56:29	10042	Trial3BackFr	NN	4	0	1000	1	118	07:56:29	1742633	0	0	0	0	0	0	0	0	0	0	0	0	0	0	0	0	0
121412	07:56:29	10042	Trial3BackFr	NN	4	0	1000	1	118	07:56:29	1744139	0	0	0	0	0	0	0	0	0	0	0	0	0	0	0	0	0
121412	07:56:29	10042	Trial3BackFr	NN	4	0	1000	1	118	07:56:29	1745645	0	0	0	0	0	0	0	0	0	0	0	0	0	0	0	0	0
121412	07:56:29	10042	Trial3BackFr	YY	4	57	762	1	118	07:56:29	1746924	0	0	0	0	0	0	0	0	0	0	0	0	0	0	0	0	0
121412	07:56:29	10042	Trial3BackFr	NN	4	0	1000	1	118	07:56:29	1748657	0	0	0	0	0	0	0	0	0	0	0	0	0	0	0	0	0
121412	07:56:29	10042	Trial3BackFr	NN	4	0	1000	1	118	07:56:29	1750163	0	0	0	0	0	0	0	0	0	0	0	0	0	0	0	0	0
121412	07:56:29	10042	Trial3BackFr	NN	4	0	1000	1	118	07:56:29	1751669	0	0	0	0	0	0	0	0	0	0	0	0	0	0	0	0	0
121412	07:56:29	10042	Trial3BackFr	NN	4	0	1000	1	118	07:56:29	1753175	0	0	0	0	0	0	0	0	0	0	0	0	0	0	0	0	0
121412	07:56:29	10042	Trial3BackFr	YY	4	0	1000	0	118	07:56:29	1754681	0	0	0	0	0	0	0	0	0	0	0	0	0	0	0	0	0
121412	07:56:29	10042	Trial3BackFr	NN	4	0	1000	1	118	07:56:29	1756200	0	0	0	0	0	0	0	0	0	0	0	0	0	0	0	0	0
121412	07:56:29	10042	Trial3BackFr	NN	4	0	1000	1	118	07:56:29	1757706	0	0	0	0	0	0	0	0	0	0	0	0	0	0	0	0	0
121412	07:56:29	10042	Trial3BackFr	NN	4	0	1000	1	118	07:56:29	1759212	0	0	0	0	0	0	0	0	0	0	0	0	0	0	0	0	0
121412	07:56:29	10042	Trial3BackFr	YY	4	57	569	1	118	07:56:29	1760292	0	0	0	0	0	0	0	0	0	0	0	0	0	0	0	0	0
121412	07:56:29	10042	Trial3BackFr	NN	4	0	1000	1	118	07:56:29	1762225	0	0	0	0	0	0	0	0	0	0	0	0	0	0	0	0	0
121412	07:56:29	10042	Trial3BackFr	NN	4	0	1000	1	118	07:56:29	1763731	0	0	0	0	0	0	0	0	0	0	0	0	0	0	0	0	0
121412	07:56:29	10042	Trial3BackFr	NN	4	0	1000	1	118	07:56:29	1765237	0	0	0	0	0	0	0	0	0	0	0	0	0	0	0	0	0
121412	07:56:29	10042	Trial3BackFr	NN	4	0	1000	1	118	07:56:29	1766743	0	0	0	0	0	0	0	0	0	0	0	0	0	0	0	0	0
121412	07:56:29	10042	Trial3BackFr	NN	4	0	1000	1	118	07:56:29	1768262	0	0	0	0	0	0	0	0	0	0	0	0	0	0	0	0	0
121412	07:56:29	10042	Trial3BackFr	YY	4	0	1000	0	118	07:56:29	1769768	0	0	0	0	0	0	0	0	0	0	0	0	0	0	0	0	0
121412	07:56:29	10042	Trial3BackFr	NN	4	0	1000	1	118	07:56:29	1771274	0	0	0	0	0	0	0	0	0	0	0	0	0	0	0	0	0
121412	07:56:29	10042	Trial3BackFr	NN	4	0	1000	1	118	07:56:29	1772780	0	0	0	0	0	0	0	0	0	0	0	0	0	0	0	0	0
121412	07:56:29	10042	Trial3BackFr	NN	4	0	1000	1	118	07:56:29	1774286	0	0	0	0	0	0	0	0	0	0	0	0	0	0	0	0	0
121412	07:56:29	10042	Trial3BackFr	YY	4	57	439	1	118	07:56:29	1775246	0	0	0	0	0	0	0	0	0	0	0	0	0	0	0	0	0
121412	07:56:29	10042	Memory1R3moFr	ScoreFr	5	M1	12120	0	118	07:56:29	1812804	0	0	0	0	0	0	0	0	0	0	0	0	0	0	0	0	0
121412	07:56:29	10042	Memory1R3moFr	ScoreFr	5	M2	423	0	118	07:56:29	1813284	0	0	0	0	0	0	0	0	0	0	0	0	0	0	0	0	0
121412	07:56:29	10042	Memory1R3moFr	ScoreFr	5	M5	2328	0	118	07:56:29	1815657	0	0	0	0	0	0	0	0	0	0	0	0	0	0	0	0	0
121412	07:56:29	10042	Memory1R3moFr	ScoreFr	5	M6	312	0	118	07:56:29	1816030	0	0	0	0	0	0	0	0	0	0	0	0	0	0	0	0	0
121412	07:56:29	10042	Memory1R3moFr	ScoreFr	5	M7	286	0	118	07:56:29	1816363	0	0	0	0	0	0	0	0	0	0	0	0	0	0	0	0	0
121412	07:56:29	10042	Memory1R3moFr	ScoreFr	5	M8	487	0	118	07:56:29	1816923	0	0	0	0	0	0	0	0	0	0	0	0	0	0	0	0	0
121412	07:56:29	10042	Memory1R3moFr	ScoreFr	5	Done	3217	0	118	07:56:29	1820188	0	0	0	0	0	0	0	0	0	0	0	0	0	0	0	0	0
121412	07:56:29	10042	Memory2R3moFr	ScoreFr2	5	11	20915	0	118	07:56:29	1857773	0	0	0	0	0	0	0	0	0	0	0	0	0	0	0	0	0
121412	07:56:29	10042	Memory2R3moFr	ScoreFr2	5	22	214	0	118	07:56:29	1858039	0	0	0	0	0	0	0	0	0	0	0	0	0	0	0	0	0
121412	07:56:29	10042	Memory2R3moFr	ScoreFr2	5	44	467	0	118	07:56:29	1858559	0	0	0	0	0	0	0	0	0	0	0	0	0	0	0	0	0
121412	07:56:29	10042	Memory2R3moFr	ScoreFr2	5	55	196	0	118	07:56:29	1858799	0	0	0	0	0	0	0	0	0	0	0	0	0	0	0	0	0
121412	07:56:29	10042	Memory2R3moFr	ScoreFr2	5	66	228	0	118	07:56:29	1859079	0	0	0	0	0	0	0	0	0	0	0	0	0	0	0	0	0
121412	07:56:29	10042	Memory2R3moFr	ScoreFr2	5	77	244	0	118	07:56:29	1859372	0	0	0	0	0	0	0	0	0	0	0	0	0	0	0	0	0
121412	07:56:29	10042	Memory2R3moFr	ScoreFr2	5	88	170	0	118	07:56:29	1859599	0	0	0	0	0	0	0	0	0	0	0	0	0	0	0	0	0
121412	07:56:29	10042	Memory2R3moFr	ScoreFr2	5	Done	11874	0	118	07:56:29	1871554	0	0	0	0	0	0	0	0	0	0	0	0	0	0	0	0	0
121412	07:56:29	10042	Memory3R3moFr	ScoreFr3	5	888	13483	0	118	07:56:29	1904367	0	0	0	0	0	0	0	0	0	0	0	0	0	0	0	0	0
121412	07:56:29	10042	Memory3R3moFr	ScoreFr3	5	666	387	0	118	07:56:29	1904807	0	0	0	0	0	0	0	0	0	0	0	0	0	0	0	0	0
121412	07:56:29	10042	Memory3R3moFr	ScoreFr3	5	555	307	0	118	07:56:29	1905167	0	0	0	0	0	0	0	0	0	0	0	0	0	0	0	0	0
121412	07:56:29	10042	Memory3R3moFr	ScoreFr3	5	444	275	0	118	07:56:29	1905487	0	0	0	0	0	0	0	0	0	0	0	0	0	0	0	0	0
121412	07:56:29	10042	Memory3R3moFr	ScoreFr3	5	333	379	0	118	07:56:29	1905913	0	0	0	0	0	0	0	0	0	0	0	0	0	0	0	0	0
121412	07:56:29	10042	Memory3R3moFr	ScoreFr3	5	222	320	0	118	07:56:29	1906286	0	0	0	0	0	0	0	0	0	0	0	0	0	0	0	0	0
121412	07:56:29	10042	Memory3R3moFr	ScoreFr3	5	111	268	0	118	07:56:29	1906606	0	0	0	0	0	0	0	0	0	0	0	0	0	0	0	0	0
121412	07:56:29	10042	Memory3R3moFr	ScoreFr3	5	Done	14139	0	118	07:56:29	1920800	0	0	0	0	0	0	0	0	0	0	0	0	0	0	0	0	0
121412	07:56:29	10042	LoriaFrLH3	Stop	6	5	3524	0	118	07:56:29	1993239	0	0	0	0	0	0	0	0	0	0	0	0	0	0	0	0	0
121412	07:56:29	10042	FrTrail	Trails	7	1Trails	3619	0	118	07:56:29	2012830	0	0	0	0	0	0	0	0	0	0	0	0	0	0	0	0	0
121412	07:56:29	10042	Serial7Fr3mo	Serial7Fr3mo	8	83	3664	0	118	07:56:29	2075554	1	0	0	0	0	0	0	0	0	0	0	0	0	0	0	0	0
121412	07:56:29	10042	Serial7Fr3mo	Serial7Fr3mo	8	76	3078	0	118	07:56:29	2078658	2	0	0	0	0	0	0	0	0	0	0	0	0	0	0	0	0
121412	07:56:29	10042	Serial7Fr3mo	Serial7Fr3mo	8	68	6919	0	118	07:56:29	2085602	2	0	0	0	0	0	0	0	0	0	0	0	0	0	0	0	0
121412	07:56:29	10042	Serial7Fr3mo	Serial7Fr3mo	8	61	3015	0	118	07:56:29	2088642	3	0	0	0	0	0	0	0	0	0	0	0	0	0	0	0	0
121412	07:56:29	10042	Serial7Fr3mo	Serial7Fr3mo	8	54	2985	0	118	07:56:29	2091641	4	0	0	0	0	0	0	0	0	0	0	0	0	0	0	0	0
121412	07:56:29	10042	corsiblockFrFwrd	recallseqFrFwrd	9	6	2005	0	118	07:56:29	2144166	4	0	0	0	0	0	0	0	0	0	0	0	0	0	0	0	0
121412	07:56:29	10042	corsiblockFrFwrd	recallseqFrFwrd	9	1	1184	0	118	07:56:29	2145405	4	0	0	0	0	0	0	0	0	0	0	0	0	0	0	0	0
121412	07:56:29	10042	corsiblockFrFwrd	recallseqFrFwrd	9	resetCorsiFr	11337	0	118	07:56:29	2156787	4	0	0	0	0	0	0	0	0	0	0	0	0	0	0	0	0
121412	07:56:29	10042	corsiblockFrFwrd	recallseqFrFwrd	9	6	8378	0	118	07:56:29	2165211	4	0	0	0	0	0	0	0	0	0	0	0	0	0	0	0	0
121412	07:56:29	10042	corsiblockFrFwrd	recallseqFrFwrd	9	1	1307	0	118	07:56:29	2166570	4	0	0	0	0	0	0	0	0	0	0	0	0	0	0	0	0
121412	07:56:29	10042	corsiblockFrFwrd	recallseqFrFwrd	9	doneCorsiFr	3796	0	118	07:56:29	2170422	4	0	0	0	0	0	0	0	0	0	0	0	0	0	0	2	0
121412	07:56:29	10042	corsiblockFrFwrd	recallseqFrFwrd	9	5	1365	0	118	07:56:29	2177925	4	0	0	0	0	0	0	0	0	0	0	0	0	0	0	2	0
121412	07:56:29	10042	corsiblockFrFwrd	recallseqFrFwrd	9	4	704	0	118	07:56:29	2178685	4	0	0	0	0	0	0	0	0	0	0	0	0	0	0	2	0
121412	07:56:29	10042	corsiblockFrFwrd	recallseqFrFwrd	9	2	1152	0	118	07:56:29	2179884	4	0	0	0	0	0	0	0	0	0	0	0	0	0	0	2	0
121412	07:56:29	10042	corsiblockFrFwrd	recallseqFrFwrd	9	doneCorsiFr	1673	0	118	07:56:29	2181604	4	0	0	0	0	0	0	0	0	0	0	0	0	0	0	2	0
121412	07:56:29	10042	corsiblockFrFwrd	recallseqFrFwrd	9	8	1068	0	118	07:56:29	2188761	4	0	0	0	0	0	0	0	0	0	0	0	0	0	0	2	0
121412	07:56:29	10042	corsiblockFrFwrd	recallseqFrFwrd	9	7	796	0	118	07:56:29	2189614	4	0	0	0	0	0	0	0	0	0	0	0	0	0	0	2	0
121412	07:56:29	10042	corsiblockFrFwrd	recallseqFrFwrd	9	3	959	0	118	07:56:29	2190627	4	0	0	0	0	0	0	0	0	0	0	0	0	0	0	2	0
121412	07:56:29	10042	corsiblockFrFwrd	recallseqFrFwrd	9	doneCorsiFr	978	0	118	07:56:29	2191653	4	0	0	0	0	0	0	0	0	0	0	0	0	0	0	3	0
121412	07:56:29	10042	corsiblockFrFwrd	recallseqFrFwrd	9	5	1368	0	118	07:56:29	2199130	4	0	0	0	0	0	0	0	0	0	0	0	0	0	0	3	0
121412	07:56:29	10042	corsiblockFrFwrd	recallseqFrFwrd	9	8	842	0	118	07:56:29	2200023	4	0	0	0	0	0	0	0	0	0	0	0	0	0	0	3	0
121412	07:56:29	10042	corsiblockFrFwrd	recallseqFrFwrd	9	7	910	0	118	07:56:29	2200983	4	0	0	0	0	0	0	0	0	0	0	0	0	0	0	3	0
121412	07:56:29	10042	corsiblockFrFwrd	recallseqFrFwrd	9	9	926	0	118	07:56:29	2201956	4	0	0	0	0	0	0	0	0	0	0	0	0	0	0	3	0
121412	07:56:29	10042	corsiblockFrFwrd	recallseqFrFwrd	9	doneCorsiFr	2833	0	118	07:56:29	2204834	4	0	0	0	0	0	0	0	0	0	0	0	0	0	0	3	0
121412	07:56:29	10042	corsiblockFrFwrd	recallseqFrFwrd	9	6	821	0	118	07:56:29	2212738	4	0	0	0	0	0	0	0	0	0	0	0	0	0	0	3	0
121412	07:56:29	10042	corsiblockFrFwrd	recallseqFrFwrd	9	4	570	0	118	07:56:29	2213364	4	0	0	0	0	0	0	0	0	0	0	0	0	0	0	3	0
121412	07:56:29	10042	corsiblockFrFwrd	recallseqFrFwrd	9	1	1392	0	118	07:56:29	2214804	4	0	0	0	0	0	0	0	0	0	0	0	0	0	0	3	0
121412	07:56:29	10042	corsiblockFrFwrd	recallseqFrFwrd	9	9	1617	0	118	07:56:29	2216470	4	0	0	0	0	0	0	0	0	0	0	0	0	0	0	3	0
121412	07:56:29	10042	corsiblockFrFwrd	recallseqFrFwrd	9	doneCorsiFr	2039	0	118	07:56:29	2218562	4	0	0	0	0	0	0	0	0	0	0	0	0	0	0	3	0
121412	07:56:29	10042	corsiblockFrRev	recallseqFrRev	10	6	1704	0	118	07:56:29	2236235	4	0	0	0	0	0	0	0	0	0	0	0	0	0	0	3	0
121412	07:56:29	10042	corsiblockFrRev	recallseqFrRev	10	8	1041	0	118	07:56:29	2237328	4	0	0	0	0	0	0	0	0	0	0	0	0	0	0	3	0
121412	07:56:29	10042	corsiblockFrRev	recallseqFrRev	10	doneCorsiFr	2676	0	118	07:56:29	2240060	4	0	0	0	0	0	0	0	0	0	0	0	0	0	0	3	0
121412	07:56:29	10042	corsiblockFrRev	recallseqFrRev	10	3	1578	0	118	07:56:29	2246724	4	0	0	0	0	0	0	0	0	0	0	0	0	0	0	3	0
121412	07:56:29	10042	corsiblockFrRev	recallseqFrRev	10	9	920	0	118	07:56:29	2247697	4	0	0	0	0	0	0	0	0	0	0	0	0	0	0	3	0
121412	07:56:29	10042	corsiblockFrRev	recallseqFrRev	10	doneCorsiFr	1331	0	118	07:56:29	2249083	4	0	0	0	0	0	0	0	0	0	0	0	0	0	0	3	2
121412	07:56:29	10042	corsiblockFrRev	recallseqFrRev	10	4	1023	0	118	07:56:29	2255227	4	0	0	0	0	0	0	0	0	0	0	0	0	0	0	3	2
121412	07:56:29	10042	corsiblockFrRev	recallseqFrRev	10	1	1120	0	118	07:56:29	2256400	4	0	0	0	0	0	0	0	0	0	0	0	0	0	0	3	2
121412	07:56:29	10042	corsiblockFrRev	recallseqFrRev	10	2	1283	0	118	07:56:29	2257733	4	0	0	0	0	0	0	0	0	0	0	0	0	0	0	3	2
121412	07:56:29	10042	corsiblockFrRev	recallseqFrRev	10	doneCorsiFr	998	0	118	07:56:29	2258786	4	0	0	0	0	0	0	0	0	0	0	0	0	0	0	3	2
121412	07:56:29	10042	corsiblockFrRev	recallseqFrRev	10	9	1708	0	118	07:56:29	2266583	4	0	0	0	0	0	0	0	0	0	0	0	0	0	0	3	2
121412	07:56:29	10042	corsiblockFrRev	recallseqFrRev	10	5	1069	0	118	07:56:29	2267702	4	0	0	0	0	0	0	0	0	0	0	0	0	0	0	3	2
121412	07:56:29	10042	corsiblockFrRev	recallseqFrRev	10	7	1037	0	118	07:56:29	2268795	4	0	0	0	0	0	0	0	0	0	0	0	0	0	0	3	2
121412	07:56:29	10042	corsiblockFrRev	recallseqFrRev	10	doneCorsiFr	1176	0	118	07:56:29	2270021	4	0	0	0	0	0	0	0	0	0	0	0	0	0	0	3	3
121412	07:56:29	10042	corsiblockFrRev	recallseqFrRev	10	3	907	0	118	07:56:29	2277072	4	0	0	0	0	0	0	0	0	0	0	0	0	0	0	3	3
121412	07:56:29	10042	corsiblockFrRev	recallseqFrRev	10	1	1083	0	118	07:56:29	2278205	4	0	0	0	0	0	0	0	0	0	0	0	0	0	0	3	3
121412	07:56:29	10042	corsiblockFrRev	recallseqFrRev	10	5	1774	0	118	07:56:29	2280031	4	0	0	0	0	0	0	0	0	0	0	0	0	0	0	3	3
121412	07:56:29	10042	corsiblockFrRev	recallseqFrRev	10	6	1148	0	118	07:56:29	2281230	4	0	0	0	0	0	0	0	0	0	0	0	0	0	0	3	3
121412	07:56:29	10042	corsiblockFrRev	recallseqFrRev	10	doneCorsiFr	941	0	118	07:56:29	2282217	4	0	0	0	0	0	0	0	0	0	0	0	0	0	0	3	3
121412	07:56:29	10042	corsiblockFrRev	recallseqFrRev	10	8	685	0	118	07:56:29	2289987	4	0	0	0	0	0	0	0	0	0	0	0	0	0	0	3	3
121412	07:56:29	10042	corsiblockFrRev	recallseqFrRev	10	4	896	0	118	07:56:29	2290933	4	0	0	0	0	0	0	0	0	0	0	0	0	0	0	3	3
121412	07:56:29	10042	corsiblockFrRev	recallseqFrRev	10	2	1182	0	118	07:56:29	2292159	4	0	0	0	0	0	0	0	0	0	0	0	0	0	0	3	3
121412	07:56:29	10042	corsiblockFrRev	recallseqFrRev	10	7	908	0	118	07:56:29	2293119	4	0	0	0	0	0	0	0	0	0	0	0	0	0	0	3	3
121412	07:56:29	10042	corsiblockFrRev	recallseqFrRev	10	doneCorsiFr	2708	0	118	07:56:29	2295878	4	0	0	0	0	0	0	0	0	0	0	0	0	0	0	3	4
121412	07:56:29	10042	corsiblockFrRev	recallseqFrRev	10	1	2150	0	118	07:56:29	2305141	4	0	0	0	0	0	0	0	0	0	0	0	0	0	0	3	4
121412	07:56:29	10042	corsiblockFrRev	recallseqFrRev	10	4	998	0	118	07:56:29	2306194	4	0	0	0	0	0	0	0	0	0	0	0	0	0	0	3	4
121412	07:56:29	10042	corsiblockFrRev	recallseqFrRev	10	8	849	0	118	07:56:29	2307087	4	0	0	0	0	0	0	0	0	0	0	0	0	0	0	3	4
121412	07:56:29	10042	corsiblockFrRev	recallseqFrRev	10	7	1188	0	118	07:56:29	2308326	4	0	0	0	0	0	0	0	0	0	0	0	0	0	0	3	4
121412	07:56:29	10042	corsiblockFrRev	recallseqFrRev	10	9	652	0	118	07:56:29	2309032	4	0	0	0	0	0	0	0	0	0	0	0	0	0	0	3	4
121412	07:56:29	10042	corsiblockFrRev	recallseqFrRev	10	doneCorsiFr	2674	0	118	07:56:29	2311751	4	0	0	0	0	0	0	0	0	0	0	0	0	0	0	3	4
121412	07:56:29	10042	corsiblockFrRev	recallseqFrRev	10	9	790	0	118	07:56:29	2320628	4	0	0	0	0	0	0	0	0	0	0	0	0	0	0	3	4
121412	07:56:29	10042	corsiblockFrRev	recallseqFrRev	10	3	870	0	118	07:56:29	2321547	4	0	0	0	0	0	0	0	0	0	0	0	0	0	0	3	4
121412	07:56:29	10042	corsiblockFrRev	recallseqFrRev	10	2	2087	0	118	07:56:29	2323680	4	0	0	0	0	0	0	0	0	0	0	0	0	0	0	3	4
121412	07:56:29	10042	corsiblockFrRev	recallseqFrRev	10	5	850	0	118	07:56:29	2324586	4	0	0	0	0	0	0	0	0	0	0	0	0	0	0	3	4
121412	07:56:29	10042	corsiblockFrRev	recallseqFrRev	10	6	536	0	118	07:56:29	2325173	4	0	0	0	0	0	0	0	0	0	0	0	0	0	0	3	4
121412	07:56:29	10042	corsiblockFrRev	recallseqFrRev	10	doneCorsiFr	1758	0	118	07:56:29	2326985	4	0	0	0	0	0	0	0	0	0	0	0	0	0	0	3	4
121412	07:56:29	10042	testFr3mo	WordsFr3mo	11	1Fr3mo	24318	0	118	07:56:29	2360119	4	3	0	0	0	0	0	0	0	0	0	0	0	0	0	3	4
121412	07:56:29	10042	testFr3mo	WordsFr3mo	11	2Fr3mo	1659	0	118	07:56:29	2361825	4	3	3	0	0	0	0	0	0	0	0	0	0	0	0	3	4
121412	07:56:29	10042	testFr3mo	WordsFr3mo	11	3Fr3mo	161	0	118	07:56:29	2362038	4	3	3	3	0	0	0	0	0	0	0	0	0	0	0	3	4
121412	07:56:29	10042	testFr3mo	WordsFr3mo	11	5Fr3mo	1980	0	118	07:56:29	2364064	4	3	3	3	0	3	0	0	0	0	0	0	0	0	0	3	4
121412	07:56:29	10042	testFr3mo	WordsFr3mo	11	6Fr3mo	2162	0	118	07:56:29	2366276	4	3	3	3	0	3	3	0	0	0	0	0	0	0	0	3	4
121412	07:56:29	10042	testFr3mo	WordsFr3mo	11	7Fr3mo	1294	0	118	07:56:29	2367622	4	3	3	3	0	3	3	3	0	0	0	0	0	0	0	3	4
121412	07:56:29	10042	testFr3mo	WordsFr3mo	11	8Fr3mo	491	0	118	07:56:29	2368169	4	3	3	3	0	3	3	3	3	0	0	0	0	0	0	3	4
121412	07:56:29	10042	testFr3mo	WordsFr3mo	11	DoneFr3mo	422	0	118	07:56:29	2368648	4	3	3	3	0	3	3	3	3	0	0	0	0	0	0	3	4
121412	07:56:29	10042	testFr3mo	Cat4Fr3mo	11	R4Fr3mo	8255	0	118	07:56:29	2376938	4	3	3	3	2	3	3	3	3	0	0	0	0	0	0	3	4
121412	07:56:29	10042	DigitSpanFwrdFr3mo	Score1FwrdFr3mo	12	DS1	4238	0	118	07:56:29	2397343	4	3	3	3	2	3	3	3	3	0	0	0	0	0	0	3	4
121412	07:56:29	10042	DigitSpanFwrdFr3mo	Gate1FwrdFr3mo	12	0	1	0	118	07:56:29	2397347	4	3	3	3	2	3	3	3	3	3	0	0	0	0	0	3	4
121412	07:56:29	10042	DigitSpanFwrdFr3mo	Score2FwrdFr3mo	12	DS1	2101	0	118	07:56:29	2405127	4	3	3	3	2	3	3	3	3	3	0	0	0	0	0	3	4
121412	07:56:29	10042	DigitSpanFwrdFr3mo	Gate3FwrdFr3mo	12	0	1	0	118	07:56:29	2405131	4	3	3	3	2	3	3	3	3	4	0	0	0	0	0	3	4
121412	07:56:29	10042	DigitSpanFwrdFr3mo	Score3FwrdFr3mo	12	DS1	2635	0	118	07:56:29	2414989	4	3	3	3	2	3	3	3	3	4	0	0	0	0	0	3	4
121412	07:56:29	10042	DigitSpanFwrdFr3mo	Gate5FwrdFr3mo	12	0	1	0	118	07:56:29	2414994	4	3	3	3	2	3	3	3	3	5	0	0	0	0	0	3	4
121412	07:56:29	10042	DigitSpanFwrdFr3mo	Score4FwrdFr3mo	12	DS1	29532	0	118	07:56:29	2453027	4	3	3	3	2	3	3	3	3	5	0	0	0	0	0	3	4
121412	07:56:29	10042	DigitSpanFwrdFr3mo	Gate7FwrdFr3mo	12	0	1	0	118	07:56:29	2453032	4	3	3	3	2	3	3	3	3	6	0	0	0	0	0	3	4
121412	07:56:29	10042	DigitSpanFwrdFr3mo	Score5FwrdFr3mo	12	DS2	8156	0	118	07:56:29	2473326	4	3	3	3	2	3	3	3	3	6	0	0	0	0	0	3	4
121412	07:56:29	10042	DigitSpanFwrdFr3mo	Gate9FwrdFr3mo	12	0	1	0	118	07:56:29	2473330	4	3	3	3	2	3	3	3	3	6	0	0	0	0	0	3	4
121412	07:56:29	10042	DigitSpanFwrdFr3mo	Score55FwrdFr3mo	12	DS1	4292	0	118	07:56:29	2490452	4	3	3	3	2	3	3	3	3	6	0	0	0	0	0	3	4
121412	07:56:29	10042	DigitSpanFwrdFr3mo	Gate10FwrdFr3mo	12	0	1	0	118	07:56:29	2490456	4	3	3	3	2	3	3	3	3	7	0	0	0	0	0	3	4
121412	07:56:29	10042	DigitSpanFwrdFr3mo	Score6FwrdFr3mo	12	DS1	4842	0	118	07:56:29	2507152	4	3	3	3	2	3	3	3	3	8	0	0	0	0	0	3	4
121412	07:56:29	10042	DigitSpanFr3mo	Score1Fr3mo	13	DS1	3455	0	118	07:56:29	2523185	4	3	3	3	2	3	3	3	3	8	0	0	0	0	0	3	4
121412	07:56:29	10042	DigitSpanFr3mo	Gate1Fr3mo	13	0	1	0	118	07:56:29	2523190	4	3	3	3	2	3	3	3	3	8	2	0	0	0	0	3	4
121412	07:56:29	10042	DigitSpanFr3mo	Score2Fr3mo	13	DS1	4135	0	118	07:56:29	2531889	4	3	3	3	2	3	3	3	3	8	2	0	0	0	0	3	4
121412	07:56:29	10042	DigitSpanFr3mo	Gate3Fr3mo	13	0	1	0	118	07:56:29	2531894	4	3	3	3	2	3	3	3	3	8	3	0	0	0	0	3	4
121412	07:56:29	10042	DigitSpanFr3mo	Score3Fr3mo	13	DS1	5560	0	118	07:56:29	2543137	4	3	3	3	2	3	3	3	3	8	3	0	0	0	0	3	4
121412	07:56:29	10042	DigitSpanFr3mo	Gate5Fr3mo	13	0	1	0	118	07:56:29	2543142	4	3	3	3	2	3	3	3	3	8	4	0	0	0	0	3	4
121412	07:56:29	10042	DigitSpanFr3mo	Score4Fr3mo	13	DS1	7751	0	118	07:56:29	2558131	4	3	3	3	2	3	3	3	3	8	4	0	0	0	0	3	4
121412	07:56:29	10042	DigitSpanFr3mo	Gate7Fr3mo	13	0	1	0	118	07:56:29	2558137	4	3	3	3	2	3	3	3	3	8	5	0	0	0	0	3	4
121412	07:56:29	10042	DigitSpanFr3mo	Score5Fr3mo	13	DS1	9723	0	118	07:56:29	2576364	4	3	3	3	2	3	3	3	3	8	5	0	0	0	0	3	4
121412	07:56:29	10042	DigitSpanFr3mo	Gate9Fr3mo	13	0	1	0	118	07:56:29	2576369	4	3	3	3	2	3	3	3	3	8	6	0	0	0	0	3	4
121412	07:56:29	10042	DigitSpanFr3mo	Score6Fr3mo	13	DS2	10357	0	118	07:56:29	2596489	4	3	3	3	2	3	3	3	3	8	6	0	0	0	0	3	4
121412	07:56:29	10042	DigitSpanFr3mo	Gate11Fr3mo	13	0	1	0	118	07:56:29	2596493	4	3	3	3	2	3	3	3	3	8	6	0	0	0	0	3	4
121412	07:56:29	10042	DigitSpanFr3mo	Score66Fr3mo	13	DS1	9098	0	118	07:56:29	2615161	4	3	3	3	2	3	3	3	3	8	7	0	0	0	0	3	4
121412	07:56:29	10042	Trial	ResponseIL	14	0	175	0	118	07:56:29	2708271	4	3	3	3	2	3	3	3	3	8	7	0	0	0	0	3	4
121412	07:56:29	10042	Trial	IncongruentLeft	14	203	383	1	118	07:56:29	2708670	4	3	3	3	2	3	3	3	3	8	7	0	0	0	0	3	4
121412	07:56:29	10042	Trial	ResponseCR	14	0	175	0	118	07:56:29	2709976	4	3	3	3	2	3	3	3	3	8	7	0	0	0	0	3	4
121412	07:56:29	10042	Trial	CongruentRight	14	205	229	1	118	07:56:29	2710229	4	3	3	3	2	3	3	3	3	8	7	0	0	0	0	3	4
121412	07:56:29	10042	Trial	ResponseIR	14	0	175	0	118	07:56:29	2711682	4	3	3	3	2	3	3	3	3	8	7	0	0	0	0	3	4
121412	07:56:29	10042	Trial	IncongruentRight	14	205	368	1	118	07:56:29	2712069	4	3	3	3	2	3	3	3	3	8	7	0	0	0	0	3	4
121412	07:56:29	10042	Trial	ResponseCL	14	0	175	0	118	07:56:29	2713388	4	3	3	3	2	3	3	3	3	8	7	0	0	0	0	3	4
121412	07:56:29	10042	Trial	CongruentLeft	14	203	193	1	118	07:56:29	2713601	4	3	3	3	2	3	3	3	3	8	7	0	0	0	0	3	4
121412	07:56:29	10042	Trial	ResponseCR	14	0	175	0	118	07:56:29	2715094	4	3	3	3	2	3	3	3	3	8	7	0	0	0	0	3	4
121412	07:56:29	10042	Trial	CongruentRight	14	205	215	1	118	07:56:29	2715334	4	3	3	3	2	3	3	3	3	8	7	0	0	0	0	3	4
121412	07:56:29	10042	Trial	ResponseIR	14	0	175	0	118	07:56:29	2716800	4	3	3	3	2	3	3	3	3	8	7	0	0	0	0	3	4
121412	07:56:29	10042	Trial	IncongruentRight	14	203	157	0	118	07:56:29	2716973	4	3	3	3	2	3	3	3	3	8	7	0	0	0	0	3	4
121412	07:56:29	10042	Trial	ResponseCL	14	0	175	0	118	07:56:29	2718506	4	3	3	3	2	3	3	3	3	8	7	0	0	0	0	3	4
121412	07:56:29	10042	Trial	CongruentLeft	14	203	323	1	118	07:56:29	2718853	4	3	3	3	2	3	3	3	3	8	7	0	0	0	0	3	4
121412	07:56:29	10042	Trial	ResponseIL	14	0	175	0	118	07:56:29	2720212	4	3	3	3	2	3	3	3	3	8	7	0	0	0	0	3	4
121412	07:56:29	10042	Trial	IncongruentLeft	14	205	184	0	118	07:56:29	2720425	4	3	3	3	2	3	3	3	3	8	7	0	0	0	0	3	4
121412	07:56:29	10042	Trial	ResponseIL	14	0	175	0	118	07:56:29	2721918	4	3	3	3	2	3	3	3	3	8	7	0	0	0	0	3	4
121412	07:56:29	10042	Trial	IncongruentLeft	14	203	335	1	118	07:56:29	2722278	4	3	3	3	2	3	3	3	3	8	7	0	0	0	0	3	4
121412	07:56:29	10042	Trial	ResponseCR	14	0	175	0	118	07:56:29	2723624	4	3	3	3	2	3	3	3	3	8	7	0	0	0	0	3	4
121412	07:56:29	10042	Trial	CongruentRight	14	205	213	1	118	07:56:29	2723864	4	3	3	3	2	3	3	3	3	8	7	0	0	0	0	3	4
121412	07:56:29	10042	Trial	ResponseIR	14	0	175	0	118	07:56:29	2725330	4	3	3	3	2	3	3	3	3	8	7	0	0	0	0	3	4
121412	07:56:29	10042	Trial	IncongruentRight	14	203	186	0	118	07:56:29	2725544	4	3	3	3	2	3	3	3	3	8	7	0	0	0	0	3	4
121412	07:56:29	10042	Trial	ResponseCL	14	0	175	0	118	07:56:29	2727036	4	3	3	3	2	3	3	3	3	8	7	0	0	0	0	3	4
121412	07:56:29	10042	Trial	CongruentLeft	14	203	273	1	118	07:56:29	2727329	4	3	3	3	2	3	3	3	3	8	7	0	0	0	0	3	4
121412	07:56:29	10042	Trial	ResponseCR	14	0	175	0	118	07:56:29	2728742	4	3	3	3	2	3	3	3	3	8	7	0	0	0	0	3	4
121412	07:56:29	10042	Trial	CongruentRight	14	205	183	1	118	07:56:29	2728942	4	3	3	3	2	3	3	3	3	8	7	0	0	0	0	3	4
121412	07:56:29	10042	Trial	ResponseIL	14	0	175	0	118	07:56:29	2730448	4	3	3	3	2	3	3	3	3	8	7	0	0	0	0	3	4
121412	07:56:29	10042	Trial	IncongruentLeft	14	203	365	1	118	07:56:29	2730835	4	3	3	3	2	3	3	3	3	8	7	0	0	0	0	3	4
121412	07:56:29	10042	Trial	ResponseIR	14	0	175	0	118	07:56:29	2732154	4	3	3	3	2	3	3	3	3	8	7	0	0	0	0	3	4
121412	07:56:29	10042	Trial	IncongruentRight	14	203	290	0	118	07:56:29	2732460	4	3	3	3	2	3	3	3	3	8	7	0	0	0	0	3	4
121412	07:56:29	10042	Trial	ResponseCR	14	0	175	0	118	07:56:29	2733860	4	3	3	3	2	3	3	3	3	8	7	0	0	0	0	3	4
121412	07:56:29	10042	Trial	CongruentRight	14	205	361	1	118	07:56:29	2734247	4	3	3	3	2	3	3	3	3	8	7	0	0	0	0	3	4
121412	07:56:29	10042	Trial	ResponseCL	14	0	175	0	118	07:56:29	2735566	4	3	3	3	2	3	3	3	3	8	7	0	0	0	0	3	4
121412	07:56:29	10042	Trial	CongruentLeft	14	203	178	1	118	07:56:29	2735766	4	3	3	3	2	3	3	3	3	8	7	0	0	0	0	3	4
121412	07:56:29	10042	Trial	ResponseCR	14	0	175	0	118	07:56:29	2737272	4	3	3	3	2	3	3	3	3	8	7	0	0	0	0	3	4
121412	07:56:29	10042	Trial	CongruentRight	14	205	261	1	118	07:56:29	2737552	4	3	3	3	2	3	3	3	3	8	7	0	0	0	0	3	4
121412	07:56:29	10042	Trial	ResponseIR	14	0	175	0	118	07:56:29	2738978	4	3	3	3	2	3	3	3	3	8	7	0	0	0	0	3	4
121412	07:56:29	10042	Trial	IncongruentRight	14	205	363	1	118	07:56:29	2739364	4	3	3	3	2	3	3	3	3	8	7	0	0	0	0	3	4
121412	07:56:29	10042	Trial	ResponseIL	14	0	175	0	118	07:56:29	2740684	4	3	3	3	2	3	3	3	3	8	7	0	0	0	0	3	4
121412	07:56:29	10042	Trial	IncongruentLeft	14	203	224	1	118	07:56:29	2740937	4	3	3	3	2	3	3	3	3	8	7	0	0	0	0	3	4
121412	07:56:29	10042	Trial	ResponseIL	14	0	175	0	118	07:56:29	2742390	4	3	3	3	2	3	3	3	3	8	7	0	0	0	0	3	4
121412	07:56:29	10042	Trial	IncongruentLeft	14	205	198	0	118	07:56:29	2742617	4	3	3	3	2	3	3	3	3	8	7	0	0	0	0	3	4
121412	07:56:29	10042	Trial	ResponseCL	14	0	175	0	118	07:56:29	2744096	4	3	3	3	2	3	3	3	3	8	7	0	0	0	0	3	4
121412	07:56:29	10042	Trial	CongruentLeft	14	203	268	1	118	07:56:29	2744389	4	3	3	3	2	3	3	3	3	8	7	0	0	0	0	3	4
121412	07:56:29	10042	Trial	ResponseCR	14	0	175	0	118	07:56:29	2745802	4	3	3	3	2	3	3	3	3	8	7	0	0	0	0	3	4
121412	07:56:29	10042	Trial	CongruentRight	14	205	274	1	118	07:56:29	2746095	4	3	3	3	2	3	3	3	3	8	7	0	0	0	0	3	4
121412	07:56:29	10042	Trial	ResponseIL	14	0	175	0	118	07:56:29	2747508	4	3	3	3	2	3	3	3	3	8	7	0	0	0	0	3	4
121412	07:56:29	10042	Trial	IncongruentLeft	14	203	312	1	118	07:56:29	2747841	4	3	3	3	2	3	3	3	3	8	7	0	0	0	0	3	4
121412	07:56:29	10042	Trial	ResponseIR	14	0	175	0	118	07:56:29	2749214	4	3	3	3	2	3	3	3	3	8	7	0	0	0	0	3	4
121412	07:56:29	10042	Trial	IncongruentRight	14	205	207	1	118	07:56:29	2749440	4	3	3	3	2	3	3	3	3	8	7	0	0	0	0	3	4
121412	07:56:29	10042	Trial	ResponseCR	14	0	175	0	118	07:56:29	2750920	4	3	3	3	2	3	3	3	3	8	7	0	0	0	0	3	4
121412	07:56:29	10042	Trial	CongruentRight	14	205	212	1	118	07:56:29	2751160	4	3	3	3	2	3	3	3	3	8	7	0	0	0	0	3	4
121412	07:56:29	10042	Trial	ResponseCL	14	0	175	0	118	07:56:29	2752626	4	3	3	3	2	3	3	3	3	8	7	0	0	0	0	3	4
121412	07:56:29	10042	Trial	CongruentLeft	14	203	250	1	118	07:56:29	2752892	4	3	3	3	2	3	3	3	3	8	7	0	0	0	0	3	4
121412	07:56:29	10042	Trial	ResponseIR	14	0	175	0	118	07:56:29	2754332	4	3	3	3	2	3	3	3	3	8	7	0	0	0	0	3	4
121412	07:56:29	10042	Trial	IncongruentRight	14	205	320	1	118	07:56:29	2754678	4	3	3	3	2	3	3	3	3	8	7	0	0	0	0	3	4
121412	07:56:29	10042	Trial	ResponseIL	14	0	175	0	118	07:56:29	2756038	4	3	3	3	2	3	3	3	3	8	7	0	0	0	0	3	4
121412	07:56:29	10042	Trial	IncongruentLeft	14	203	246	1	118	07:56:29	2756304	4	3	3	3	2	3	3	3	3	8	7	0	0	0	0	3	4
121412	07:56:29	10042	Trial	ResponseIR	14	0	175	0	118	07:56:29	2757744	4	3	3	3	2	3	3	3	3	8	7	0	0	0	0	3	4
121412	07:56:29	10042	Trial	IncongruentRight	14	205	300	1	118	07:56:29	2758063	4	3	3	3	2	3	3	3	3	8	7	0	0	0	0	3	4
121412	07:56:29	10042	Trial	ResponseCR	14	0	175	0	118	07:56:29	2759450	4	3	3	3	2	3	3	3	3	8	7	0	0	0	0	3	4
121412	07:56:29	10042	Trial	CongruentRight	14	205	322	1	118	07:56:29	2759796	4	3	3	3	2	3	3	3	3	8	7	0	0	0	0	3	4
121412	07:56:29	10042	Trial	ResponseIL	14	0	175	0	118	07:56:29	2761156	4	3	3	3	2	3	3	3	3	8	7	0	0	0	0	3	4
121412	07:56:29	10042	Trial	IncongruentLeft	14	203	216	1	118	07:56:29	2761396	4	3	3	3	2	3	3	3	3	8	7	0	0	0	0	3	4
121412	07:56:29	10042	Trial	ResponseCL	14	0	175	0	118	07:56:29	2762862	4	3	3	3	2	3	3	3	3	8	7	0	0	0	0	3	4
121412	07:56:29	10042	Trial	CongruentLeft	14	203	366	1	118	07:56:29	2763248	4	3	3	3	2	3	3	3	3	8	7	0	0	0	0	3	4
121412	07:56:29	10042	Trial	ResponseCR	14	0	175	0	118	07:56:29	2764568	4	3	3	3	2	3	3	3	3	8	7	0	0	0	0	3	4
121412	07:56:29	10042	Trial	CongruentRight	14	205	195	1	118	07:56:29	2764781	4	3	3	3	2	3	3	3	3	8	7	0	0	0	0	3	4
121412	07:56:29	10042	Trial	ResponseIL	14	0	175	0	118	07:56:29	2766274	4	3	3	3	2	3	3	3	3	8	7	0	0	0	0	3	4
121412	07:56:29	10042	Trial	IncongruentLeft	14	203	355	1	118	07:56:29	2766647	4	3	3	3	2	3	3	3	3	8	7	0	0	0	0	3	4
121412	07:56:29	10042	Trial	ResponseIR	14	0	175	0	118	07:56:29	2767980	4	3	3	3	2	3	3	3	3	8	7	0	0	0	0	3	4
121412	07:56:29	10042	Trial	IncongruentRight	14	205	224	1	118	07:56:29	2768233	4	3	3	3	2	3	3	3	3	8	7	0	0	0	0	3	4
121412	07:56:29	10042	Trial	ResponseIR	14	0	175	0	118	07:56:29	2769686	4	3	3	3	2	3	3	3	3	8	7	0	0	0	0	3	4
121412	07:56:29	10042	Trial	IncongruentRight	14	205	294	1	118	07:56:29	2770005	4	3	3	3	2	3	3	3	3	8	7	0	0	0	0	3	4
121412	07:56:29	10042	Trial	ResponseCL	14	0	175	0	118	07:56:29	2771392	4	3	3	3	2	3	3	3	3	8	7	0	0	0	0	3	4
121412	07:56:29	10042	Trial	CongruentLeft	14	203	220	1	118	07:56:29	2771631	4	3	3	3	2	3	3	3	3	8	7	0	0	0	0	3	4
121412	07:56:29	10042	Trial	ResponseIL	14	0	175	0	118	07:56:29	2773098	4	3	3	3	2	3	3	3	3	8	7	0	0	0	0	3	4
121412	07:56:29	10042	Trial	IncongruentLeft	14	205	178	0	118	07:56:29	2773298	4	3	3	3	2	3	3	3	3	8	7	0	0	0	0	3	4
121412	07:56:29	10042	Trial	ResponseCR	14	0	175	0	118	07:56:29	2774804	4	3	3	3	2	3	3	3	3	8	7	0	0	0	0	3	4
121412	07:56:29	10042	Trial	CongruentRight	14	205	232	1	118	07:56:29	2775057	4	3	3	3	2	3	3	3	3	8	7	0	0	0	0	3	4
121412	07:56:29	10042	Trial	ResponseCL	14	0	175	0	118	07:56:29	2776510	4	3	3	3	2	3	3	3	3	8	7	0	0	0	0	3	4
121412	07:56:29	10042	Trial	CongruentLeft	14	203	190	1	118	07:56:29	2776723	4	3	3	3	2	3	3	3	3	8	7	0	0	0	0	3	4
121412	07:56:29	10042	Trial	ResponseIR	14	0	175	0	118	07:56:29	2778216	4	3	3	3	2	3	3	3	3	8	7	0	0	0	0	3	4
121412	07:56:29	10042	Trial	IncongruentRight	14	205	292	1	118	07:56:29	2778535	4	3	3	3	2	3	3	3	3	8	7	0	0	0	0	3	4
121412	07:56:29	10042	Trial	ResponseCR	14	0	175	0	118	07:56:29	2779922	4	3	3	3	2	3	3	3	3	8	7	0	0	0	0	3	4
121412	07:56:29	10042	Trial	CongruentRight	14	205	202	1	118	07:56:29	2780148	4	3	3	3	2	3	3	3	3	8	7	0	0	0	0	3	4
121412	07:56:29	10042	Trial	ResponseIL	14	0	175	0	118	07:56:29	2781627	4	3	3	3	2	3	3	3	3	8	7	0	0	0	0	3	4
121412	07:56:29	10042	Trial	IncongruentLeft	14	203	208	1	118	07:56:29	2781854	4	3	3	3	2	3	3	3	3	8	7	0	0	0	0	3	4
121412	07:56:29	10042	Trial	ResponseCL	14	0	175	0	118	07:56:29	2783333	4	3	3	3	2	3	3	3	3	8	7	0	0	0	0	3	4
121412	07:56:29	10042	Trial	CongruentLeft	14	203	230	1	118	07:56:29	2783587	4	3	3	3	2	3	3	3	3	8	7	0	0	0	0	3	4
121412	07:56:29	10042	Trial	ResponseIL	14	0	175	0	118	07:56:29	2785039	4	3	3	3	2	3	3	3	3	8	7	0	0	0	0	3	4
121412	07:56:29	10042	Trial	IncongruentLeft	14	203	444	1	118	07:56:29	2785506	4	3	3	3	2	3	3	3	3	8	7	0	0	0	0	3	4
121412	07:56:29	10042	Trial	ResponseIR	14	0	175	0	118	07:56:29	2786745	4	3	3	3	2	3	3	3	3	8	7	0	0	0	0	3	4
121412	07:56:29	10042	Trial	IncongruentRight	14	205	242	1	118	07:56:29	2787012	4	3	3	3	2	3	3	3	3	8	7	0	0	0	0	3	4
121412	07:56:29	10042	Trial	ResponseCR	14	0	175	0	118	07:56:29	2788451	4	3	3	3	2	3	3	3	3	8	7	0	0	0	0	3	4
121412	07:56:29	10042	Trial	CongruentRight	14	205	216	1	118	07:56:29	2788691	4	3	3	3	2	3	3	3	3	8	7	0	0	0	0	3	4
121412	07:56:29	10042	Trial	ResponseCL	14	0	175	0	118	07:56:29	2790157	4	3	3	3	2	3	3	3	3	8	7	0	0	0	0	3	4
121412	07:56:29	10042	Trial	CongruentLeft	14	203	206	1	118	07:56:29	2790384	4	3	3	3	2	3	3	3	3	8	7	0	0	0	0	3	4
121412	07:56:29	10042	Trial	ResponseCL	14	0	175	0	118	07:56:29	2791863	4	3	3	3	2	3	3	3	3	8	7	0	0	0	0	3	4
121412	07:56:29	10042	Trial	CongruentLeft	14	203	340	1	118	07:56:29	2792223	4	3	3	3	2	3	3	3	3	8	7	0	0	0	0	3	4
121412	07:56:29	10042	Trial	ResponseIR	14	0	175	0	118	07:56:29	2793570	4	3	3	3	2	3	3	3	3	8	7	0	0	0	0	3	4
121412	07:56:29	10042	Trial	IncongruentRight	14	205	202	1	118	07:56:29	2793796	4	3	3	3	2	3	3	3	3	8	7	0	0	0	0	3	4
121412	07:56:29	10042	Trial	ResponseIL	14	0	175	0	118	07:56:29	2795275	4	3	3	3	2	3	3	3	3	8	7	0	0	0	0	3	4
121412	07:56:29	10042	Trial	IncongruentLeft	14	203	320	1	118	07:56:29	2795622	4	3	3	3	2	3	3	3	3	8	7	0	0	0	0	3	4
121412	07:56:29	10042	Trial	ResponseIR	14	0	175	0	118	07:56:29	2796981	4	3	3	3	2	3	3	3	3	8	7	0	0	0	0	3	4
121412	07:56:29	10042	Trial	IncongruentRight	14	205	166	1	118	07:56:29	2797168	4	3	3	3	2	3	3	3	3	8	7	0	0	0	0	3	4
121412	07:56:29	10042	Trial	ResponseCR	14	0	175	0	118	07:56:29	2798687	4	3	3	3	2	3	3	3	3	8	7	0	0	0	0	3	4
121412	07:56:29	10042	Trial	CongruentRight	14	205	300	1	118	07:56:29	2799007	4	3	3	3	2	3	3	3	3	8	7	0	0	0	0	3	4
121412	07:56:29	10042	Trial	ResponseCR	14	0	175	0	118	07:56:29	2800393	4	3	3	3	2	3	3	3	3	8	7	0	0	0	0	3	4
121412	07:56:29	10042	Trial	CongruentRight	14	205	322	1	118	07:56:29	2800740	4	3	3	3	2	3	3	3	3	8	7	0	0	0	0	3	4
121412	07:56:29	10042	Trial	ResponseIL	14	0	175	0	118	07:56:29	2802099	4	3	3	3	2	3	3	3	3	8	7	0	0	0	0	3	4
121412	07:56:29	10042	Trial	IncongruentLeft	14	203	328	1	118	07:56:29	2802446	4	3	3	3	2	3	3	3	3	8	7	0	0	0	0	3	4
121412	07:56:29	10042	Trial	ResponseCL	14	0	175	0	118	07:56:29	2803805	4	3	3	3	2	3	3	3	3	8	7	0	0	0	0	3	4
121412	07:56:29	10042	Trial	CongruentLeft	14	203	222	1	118	07:56:29	2804045	4	3	3	3	2	3	3	3	3	8	7	0	0	0	0	3	4
121412	07:56:29	10042	Trial	ResponseCR	14	0	175	0	118	07:56:29	2805511	4	3	3	3	2	3	3	3	3	8	7	0	0	0	0	3	4
121412	07:56:29	10042	Trial	CongruentRight	14	205	339	1	118	07:56:29	2805871	4	3	3	3	2	3	3	3	3	8	7	0	0	0	0	3	4
121412	07:56:29	10042	Trial	ResponseCL	14	0	175	0	118	07:56:29	2807217	4	3	3	3	2	3	3	3	3	8	7	0	0	0	0	3	4
121412	07:56:29	10042	Trial	CongruentLeft	14	203	186	1	118	07:56:29	2807430	4	3	3	3	2	3	3	3	3	8	7	0	0	0	0	3	4
121412	07:56:29	10042	Trial	ResponseIR	14	0	175	0	118	07:56:29	2808923	4	3	3	3	2	3	3	3	3	8	7	0	0	0	0	3	4
121412	07:56:29	10042	Trial	IncongruentRight	14	205	192	1	118	07:56:29	2809136	4	3	3	3	2	3	3	3	3	8	7	0	0	0	0	3	4
121412	07:56:29	10042	Trial	ResponseCR	14	0	175	0	118	07:56:29	2810629	4	3	3	3	2	3	3	3	3	8	7	0	0	0	0	3	4
121412	07:56:29	10042	Trial	CongruentRight	14	203	102	0	118	07:56:29	2810749	4	3	3	3	2	3	3	3	3	8	7	0	0	0	0	3	4
121412	07:56:29	10042	Trial	ResponseCL	14	0	175	0	118	07:56:29	2812335	4	3	3	3	2	3	3	3	3	8	7	0	0	0	0	3	4
121412	07:56:29	10042	Trial	CongruentLeft	14	203	236	1	118	07:56:29	2812588	4	3	3	3	2	3	3	3	3	8	7	0	0	0	0	3	4
121412	07:56:29	10042	Trial	ResponseIL	14	0	175	0	118	07:56:29	2814041	4	3	3	3	2	3	3	3	3	8	7	0	0	0	0	3	4
121412	07:56:29	10042	Trial	IncongruentLeft	14	205	178	0	118	07:56:29	2814241	4	3	3	3	2	3	3	3	3	8	7	0	0	0	0	3	4
121412	07:56:29	10042	Trial	ResponseIL	14	0	175	0	118	07:56:29	2815747	4	3	3	3	2	3	3	3	3	8	7	0	0	0	0	3	4
121412	07:56:29	10042	Trial	IncongruentLeft	14	0	1000	0	118	07:56:29	2816760	4	3	3	3	2	3	3	3	3	8	7	0	0	0	0	3	4
121412	07:56:29	10042	Trial	ResponseCR	14	0	175	0	118	07:56:29	2817466	4	3	3	3	2	3	3	3	3	8	7	0	0	0	0	3	4
121412	07:56:29	10042	Trial	CongruentRight	14	205	208	1	118	07:56:29	2817693	4	3	3	3	2	3	3	3	3	8	7	0	0	0	0	3	4
121412	07:56:29	10042	Trial	ResponseIR	14	0	175	0	118	07:56:29	2819172	4	3	3	3	2	3	3	3	3	8	7	0	0	0	0	3	4
121412	07:56:29	10042	Trial	IncongruentRight	14	205	358	1	118	07:56:29	2819559	4	3	3	3	2	3	3	3	3	8	7	0	0	0	0	3	4
121412	07:56:29	10042	Trial	ResponseCL	14	0	175	0	118	07:56:29	2820878	4	3	3	3	2	3	3	3	3	8	7	0	0	0	0	3	4
121412	07:56:29	10042	Trial	CongruentLeft	14	203	204	1	118	07:56:29	2821105	4	3	3	3	2	3	3	3	3	8	7	0	0	0	0	3	4
121412	07:56:29	10042	Trial	ResponseIR	14	0	175	0	118	07:56:29	2822584	4	3	3	3	2	3	3	3	3	8	7	0	0	0	0	3	4
121412	07:56:29	10042	Trial	IncongruentRight	14	205	274	1	118	07:56:29	2822878	4	3	3	3	2	3	3	3	3	8	7	0	0	0	0	3	4
121412	07:56:29	10042	Trial	ResponseCR	14	0	175	0	118	07:56:29	2824290	4	3	3	3	2	3	3	3	3	8	7	0	0	0	0	3	4
121412	07:56:29	10042	Trial	CongruentRight	14	205	312	1	118	07:56:29	2824623	4	3	3	3	2	3	3	3	3	8	7	0	0	0	0	3	4
121412	07:56:29	10042	Trial	ResponseIL	14	0	175	0	118	07:56:29	2825996	4	3	3	3	2	3	3	3	3	8	7	0	0	0	0	3	4
121412	07:56:29	10042	Trial	IncongruentLeft	14	203	318	1	118	07:56:29	2826343	4	3	3	3	2	3	3	3	3	8	7	0	0	0	0	3	4
121412	07:56:29	10042	Trial	ResponseCL	14	0	175	0	118	07:56:29	2827703	4	3	3	3	2	3	3	3	3	8	7	0	0	0	0	3	4
121412	07:56:29	10042	Trial	CongruentLeft	14	203	276	1	118	07:56:29	2827995	4	3	3	3	2	3	3	3	3	8	7	0	0	0	0	3	4
121412	07:56:29	10042	Trial	ResponseCR	14	0	175	0	118	07:56:29	2829408	4	3	3	3	2	3	3	3	3	8	7	0	0	0	0	3	4
121412	07:56:29	10042	Trial	CongruentRight	14	205	218	1	118	07:56:29	2829648	4	3	3	3	2	3	3	3	3	8	7	0	0	0	0	3	4
121412	07:56:29	10042	Trial	ResponseIL	14	0	175	0	118	07:56:29	2831114	4	3	3	3	2	3	3	3	3	8	7	0	0	0	0	3	4
121412	07:56:29	10042	Trial	IncongruentLeft	14	203	256	1	118	07:56:29	2831394	4	3	3	3	2	3	3	3	3	8	7	0	0	0	0	3	4
121412	07:56:29	10042	Trial	ResponseCR	14	0	175	0	118	07:56:29	2832820	4	3	3	3	2	3	3	3	3	8	7	0	0	0	0	3	4
121412	07:56:29	10042	Trial	CongruentRight	14	205	246	1	118	07:56:29	2833087	4	3	3	3	2	3	3	3	3	8	7	0	0	0	0	3	4
121412	07:56:29	10042	Trial	ResponseCR	14	0	175	0	118	07:56:29	2834526	4	3	3	3	2	3	3	3	3	8	7	0	0	0	0	3	4
121412	07:56:29	10042	Trial	CongruentRight	14	203	156	0	118	07:56:29	2834699	4	3	3	3	2	3	3	3	3	8	7	0	0	0	0	3	4
121412	07:56:29	10042	Trial	ResponseIR	14	0	175	0	118	07:56:29	2836232	4	3	3	3	2	3	3	3	3	8	7	0	0	0	0	3	4
121412	07:56:29	10042	Trial	IncongruentRight	14	205	322	1	118	07:56:29	2836579	4	3	3	3	2	3	3	3	3	8	7	0	0	0	0	3	4
121412	07:56:29	10042	Trial	ResponseCL	14	0	175	0	118	07:56:29	2837938	4	3	3	3	2	3	3	3	3	8	7	0	0	0	0	3	4
121412	07:56:29	10042	Trial	CongruentLeft	14	203	264	1	118	07:56:29	2838231	4	3	3	3	2	3	3	3	3	8	7	0	0	0	0	3	4
121412	07:56:29	10042	Trial	ResponseIL	14	0	175	0	118	07:56:29	2839644	4	3	3	3	2	3	3	3	3	8	7	0	0	0	0	3	4
121412	07:56:29	10042	Trial	IncongruentLeft	14	203	382	1	118	07:56:29	2840044	4	3	3	3	2	3	3	3	3	8	7	0	0	0	0	3	4
121412	07:56:29	10042	Trial	ResponseCL	14	0	175	0	118	07:56:29	2841350	4	3	3	3	2	3	3	3	3	8	7	0	0	0	0	3	4
121412	07:56:29	10042	Trial	CongruentLeft	14	203	308	1	118	07:56:29	2841683	4	3	3	3	2	3	3	3	3	8	7	0	0	0	0	3	4
121412	07:56:29	10042	Trial	ResponseIR	14	0	175	0	118	07:56:29	2843056	4	3	3	3	2	3	3	3	3	8	7	0	0	0	0	3	4
121412	07:56:29	10042	Trial	IncongruentRight	14	205	330	1	118	07:56:29	2843403	4	3	3	3	2	3	3	3	3	8	7	0	0	0	0	3	4
121412	07:56:29	10042	Trial	ResponseIL	14	0	175	0	118	07:56:29	2844762	4	3	3	3	2	3	3	3	3	8	7	0	0	0	0	3	4
121412	07:56:29	10042	Trial	IncongruentLeft	14	203	320	1	118	07:56:29	2845109	4	3	3	3	2	3	3	3	3	8	7	0	0	0	0	3	4
121412	07:56:29	10042	Trial	ResponseCR	14	0	175	0	118	07:56:29	2846468	4	3	3	3	2	3	3	3	3	8	7	0	0	0	0	3	4
121412	07:56:29	10042	Trial	CongruentRight	14	205	198	1	118	07:56:29	2846695	4	3	3	3	2	3	3	3	3	8	7	0	0	0	0	3	4
121412	07:56:29	10042	Trial	ResponseCL	14	0	175	0	118	07:56:29	2848174	4	3	3	3	2	3	3	3	3	8	7	0	0	0	0	3	4
121412	07:56:29	10042	Trial	CongruentLeft	14	203	252	1	118	07:56:29	2848454	4	3	3	3	2	3	3	3	3	8	7	0	0	0	0	3	4
121412	07:56:29	10042	Trial	ResponseIL	14	0	175	0	118	07:56:29	2849880	4	3	3	3	2	3	3	3	3	8	7	0	0	0	0	3	4
121412	07:56:29	10042	Trial	IncongruentLeft	14	203	402	1	118	07:56:29	2850306	4	3	3	3	2	3	3	3	3	8	7	0	0	0	0	3	4
121412	07:56:29	10042	Trial	ResponseCL	14	0	175	0	118	07:56:29	2851586	4	3	3	3	2	3	3	3	3	8	7	0	0	0	0	3	4
121412	07:56:29	10042	Trial	CongruentLeft	14	203	312	1	118	07:56:29	2851919	4	3	3	3	2	3	3	3	3	8	7	0	0	0	0	3	4
121412	07:56:29	10042	Trial	ResponseIR	14	0	175	0	118	07:56:29	2853292	4	3	3	3	2	3	3	3	3	8	7	0	0	0	0	3	4
121412	07:56:29	10042	Trial	IncongruentRight	14	205	286	1	118	07:56:29	2853598	4	3	3	3	2	3	3	3	3	8	7	0	0	0	0	3	4
121412	07:56:29	10042	Trial	ResponseCR	14	0	175	0	118	07:56:29	2854998	4	3	3	3	2	3	3	3	3	8	7	0	0	0	0	3	4
121412	07:56:29	10042	Trial	CongruentRight	14	205	260	1	118	07:56:29	2855278	4	3	3	3	2	3	3	3	3	8	7	0	0	0	0	3	4
121412	07:56:29	10042	Trial	ResponseIL	14	0	175	0	118	07:56:29	2856704	4	3	3	3	2	3	3	3	3	8	7	0	0	0	0	3	4
121412	07:56:29	10042	Trial	IncongruentLeft	14	205	314	0	118	07:56:29	2857037	4	3	3	3	2	3	3	3	3	8	7	0	0	0	0	3	4
121412	07:56:29	10042	Trial	ResponseCL	14	0	175	0	118	07:56:29	2858410	4	3	3	3	2	3	3	3	3	8	7	0	0	0	0	3	4
121412	07:56:29	10042	Trial	CongruentLeft	14	203	384	1	118	07:56:29	2858823	4	3	3	3	2	3	3	3	3	8	7	0	0	0	0	3	4
121412	07:56:29	10042	Trial	ResponseIR	14	0	175	0	118	07:56:29	2860116	4	3	3	3	2	3	3	3	3	8	7	0	0	0	0	3	4
121412	07:56:29	10042	Trial	IncongruentRight	14	205	326	1	118	07:56:29	2860462	4	3	3	3	2	3	3	3	3	8	7	0	0	0	0	3	4
121412	07:56:29	10042	Trial	ResponseIL	14	0	175	0	118	07:56:29	2861822	4	3	3	3	2	3	3	3	3	8	7	0	0	0	0	3	4
121412	07:56:29	10042	Trial	IncongruentLeft	14	203	220	1	118	07:56:29	2862062	4	3	3	3	2	3	3	3	3	8	7	0	0	0	0	3	4
121412	07:56:29	10042	Trial	ResponseCL	14	0	175	0	118	07:56:29	2863528	4	3	3	3	2	3	3	3	3	8	7	0	0	0	0	3	4
121412	07:56:29	10042	Trial	CongruentLeft	14	203	306	1	118	07:56:29	2863861	4	3	3	3	2	3	3	3	3	8	7	0	0	0	0	3	4
121412	07:56:29	10042	Trial	ResponseIL	14	0	175	0	118	07:56:29	2865234	4	3	3	3	2	3	3	3	3	8	7	0	0	0	0	3	4
121412	07:56:29	10042	Trial	IncongruentLeft	14	203	392	1	118	07:56:29	2865647	4	3	3	3	2	3	3	3	3	8	7	0	0	0	0	3	4
121412	07:56:29	10042	Trial	ResponseCR	14	0	175	0	118	07:56:29	2866940	4	3	3	3	2	3	3	3	3	8	7	0	0	0	0	3	4
121412	07:56:29	10042	Trial	CongruentRight	14	205	174	1	118	07:56:29	2867140	4	3	3	3	2	3	3	3	3	8	7	0	0	0	0	3	4
121412	07:56:29	10042	Trial	ResponseCL	14	0	175	0	118	07:56:29	2868646	4	3	3	3	2	3	3	3	3	8	7	0	0	0	0	3	4
121412	07:56:29	10042	Trial	CongruentLeft	14	203	292	1	118	07:56:29	2868966	4	3	3	3	2	3	3	3	3	8	7	0	0	0	0	3	4
121412	07:56:29	10042	Trial	ResponseIR	14	0	175	0	118	07:56:29	2870352	4	3	3	3	2	3	3	3	3	8	7	0	0	0	0	3	4
121412	07:56:29	10042	Trial	IncongruentRight	14	205	186	1	118	07:56:29	2870565	4	3	3	3	2	3	3	3	3	8	7	0	0	0	0	3	4
121412	07:56:29	10042	Trial	ResponseCL	14	0	175	0	118	07:56:29	2872058	4	3	3	3	2	3	3	3	3	8	7	0	0	0	0	3	4
121412	07:56:29	10042	Trial	CongruentLeft	14	203	160	1	118	07:56:29	2872244	4	3	3	3	2	3	3	3	3	8	7	0	0	0	0	3	4
121412	07:56:29	10042	Trial	ResponseCR	14	0	175	0	118	07:56:29	2873764	4	3	3	3	2	3	3	3	3	8	7	0	0	0	0	3	4
121412	07:56:29	10042	Trial	CongruentRight	14	205	166	1	118	07:56:29	2873950	4	3	3	3	2	3	3	3	3	8	7	0	0	0	0	3	4
121412	07:56:29	10042	Trial	ResponseIL	14	0	175	0	118	07:56:29	2875470	4	3	3	3	2	3	3	3	3	8	7	0	0	0	0	3	4
121412	07:56:29	10042	Trial	IncongruentLeft	14	203	156	1	118	07:56:29	2875643	4	3	3	3	2	3	3	3	3	8	7	0	0	0	0	3	4
121412	07:56:29	10042	WordsAbsFrThreemo	PAbsFrThreemo1	16	Abs1	810	0	118	07:56:29	2882773	4	3	3	3	2	3	3	3	3	8	7	0	0	0	0	3	4
121412	07:56:29	10042	WordsAbsFrThreemo	AbsFrThreemo1	16	Abs2	26605	0	118	07:56:29	2909416	4	3	3	3	2	3	3	3	3	8	7	0	0	0	0	3	4
121412	07:56:29	10042	WordsAbsFrThreemo	AbsFrThreemo2	16	Abs1	17642	0	118	07:56:29	2927089	4	3	3	3	2	3	3	3	3	8	7	1	0	0	0	3	4
121412	07:56:29	10042	WordsAbsFrThreemo	AbsFrThreemo3	16	Abs2	8361	0	118	07:56:29	2935486	4	3	3	3	2	3	3	3	3	8	7	1	0	0	0	3	4
121412	07:56:29	10042	Trial2BackFrS	NS	17	0	1000	1	118	07:56:29	3002605	4	3	3	3	2	3	3	3	3	8	7	1	0	0	0	3	4
121412	07:56:29	10042	Trial2BackFrS	NS	17	0	1000	1	118	07:56:29	3004111	4	3	3	3	2	3	3	3	3	8	7	1	0	0	0	3	4
121412	07:56:29	10042	Trial2BackFrS	NS	17	0	1000	1	118	07:56:29	3005630	4	3	3	3	2	3	3	3	3	8	7	1	0	0	0	3	4
121412	07:56:29	10042	Trial2BackFrS	YS	17	57	428	1	118	07:56:29	3006577	4	3	3	3	2	3	3	3	3	8	7	1	0	0	0	3	4
121412	07:56:29	10042	Trial2BackFrS	NS	17	0	1000	1	118	07:56:29	3008642	4	3	3	3	2	3	3	3	3	8	7	1	0	0	0	3	4
121412	07:56:29	10042	Trial2BackFrS	NS	17	0	1000	1	118	07:56:29	3010148	4	3	3	3	2	3	3	3	3	8	7	1	0	0	0	3	4
121412	07:56:29	10042	Trial2BackFrS	NS	17	0	1000	1	118	07:56:29	3011654	4	3	3	3	2	3	3	3	3	8	7	1	0	0	0	3	4
121412	07:56:29	10042	Trial2BackFrS	NS	17	0	1000	1	118	07:56:29	3013161	4	3	3	3	2	3	3	3	3	8	7	1	0	0	0	3	4
121412	07:56:29	10042	Trial2BackFrS	YS	17	57	626	1	118	07:56:29	3014307	4	3	3	3	2	3	3	3	3	8	7	1	0	0	0	3	4
121412	07:56:29	10042	Trial2BackFrS	NS	17	0	1000	1	118	07:56:29	3016173	4	3	3	3	2	3	3	3	3	8	7	1	0	0	0	3	4
121412	07:56:29	10042	Trial2BackFrS	NS	17	0	1000	1	118	07:56:29	3017679	4	3	3	3	2	3	3	3	3	8	7	1	0	0	0	3	4
121412	07:56:29	10042	Trial2BackFrS	YS	17	0	1000	0	118	07:56:29	3019185	4	3	3	3	2	3	3	3	3	8	7	1	0	0	0	3	4
121412	07:56:29	10042	Trial2BackFrS	NS	17	0	1000	1	118	07:56:29	3020691	4	3	3	3	2	3	3	3	3	8	7	1	0	0	0	3	4
121412	07:56:29	10042	Trial2BackFrS	NS	17	0	1000	1	118	07:56:29	3022197	4	3	3	3	2	3	3	3	3	8	7	1	0	0	0	3	4
121412	07:56:29	10042	Trial2BackFrS	NS	17	0	1000	1	118	07:56:29	3023703	4	3	3	3	2	3	3	3	3	8	7	1	0	0	0	3	4
121412	07:56:29	10042	Trial2BackFrS	YS	17	0	1000	0	118	07:56:29	3025222	4	3	3	3	2	3	3	3	3	8	7	1	0	0	0	3	4
121412	07:56:29	10042	Trial2BackFrS	NS	17	0	1000	1	118	07:56:29	3026728	4	3	3	3	2	3	3	3	3	8	7	1	0	0	0	3	4
121412	07:56:29	10042	Trial2BackFrS	NS	17	0	1000	1	118	07:56:29	3028234	4	3	3	3	2	3	3	3	3	8	7	1	0	0	0	3	4
121412	07:56:29	10042	Trial2BackFrS	NS	17	0	1000	1	118	07:56:29	3029754	4	3	3	3	2	3	3	3	3	8	7	1	0	0	0	3	4
121412	07:56:29	10042	Trial2BackFrS	NS	17	0	1000	1	118	07:56:29	3031260	4	3	3	3	2	3	3	3	3	8	7	1	0	0	0	3	4
121412	07:56:29	10042	Trial2BackFrS	YS	17	57	878	1	118	07:56:29	3032646	4	3	3	3	2	3	3	3	3	8	7	1	0	0	0	3	4
121412	07:56:29	10042	Trial2BackFrS	NS	17	0	1000	1	118	07:56:29	3034272	4	3	3	3	2	3	3	3	3	8	7	1	0	0	0	3	4
121412	07:56:29	10042	Trial2BackFrS	NS	17	0	1000	1	118	07:56:29	3035778	4	3	3	3	2	3	3	3	3	8	7	1	0	0	0	3	4
121412	07:56:29	10042	Trial2BackFrS	NS	17	0	1000	1	118	07:56:29	3037284	4	3	3	3	2	3	3	3	3	8	7	1	0	0	0	3	4
121412	07:56:29	10042	Trial2BackFrS	NS	17	57	486	0	118	07:56:29	3038284	4	3	3	3	2	3	3	3	3	8	7	1	0	0	0	3	4
121412	07:56:29	10042	Trial2BackFrS	NS	17	0	1000	1	118	07:56:29	3040296	4	3	3	3	2	3	3	3	3	8	7	1	0	0	0	3	4
121412	07:56:29	10042	Trial2BackFrS	NS	17	0	1000	1	118	07:56:29	3041802	4	3	3	3	2	3	3	3	3	8	7	1	0	0	0	3	4
121412	07:56:29	10042	Trial2BackFrS	NS	17	0	1000	1	118	07:56:29	3043308	4	3	3	3	2	3	3	3	3	8	7	1	0	0	0	3	4
121412	07:56:29	10042	Trial2BackFrS	NS	17	0	1000	1	118	07:56:29	3044814	4	3	3	3	2	3	3	3	3	8	7	1	0	0	0	3	4
121412	07:56:29	10042	Trial2BackFrS	NS	17	0	1000	1	118	07:56:29	3046321	4	3	3	3	2	3	3	3	3	8	7	1	0	0	0	3	4
121412	07:56:29	10042	Trial2BackFrS	NS	17	57	297	0	118	07:56:29	3047133	4	3	3	3	2	3	3	3	3	8	7	1	0	0	0	3	4
121412	07:56:29	10042	Trial2BackFrS	YS	17	0	1000	0	118	07:56:29	3049333	4	3	3	3	2	3	3	3	3	8	7	1	0	0	0	3	4
121412	07:56:29	10042	Trial2BackFrS	NS	17	0	1000	1	118	07:56:29	3050839	4	3	3	3	2	3	3	3	3	8	7	1	0	0	0	3	4
121412	07:56:29	10042	Trial2BackFrS	NS	17	0	1000	1	118	07:56:29	3052345	4	3	3	3	2	3	3	3	3	8	7	1	0	0	0	3	4
121412	07:56:29	10042	Trial2BackFrS	NS	17	57	417	0	118	07:56:29	3053278	4	3	3	3	2	3	3	3	3	8	7	1	0	0	0	3	4
121412	07:56:29	10042	Trial2BackFrS	YS	17	0	1000	0	118	07:56:29	3055357	4	3	3	3	2	3	3	3	3	8	7	1	0	0	0	3	4
121412	07:56:29	10042	Trial2BackFrS	NS	17	0	1000	1	118	07:56:29	3056863	4	3	3	3	2	3	3	3	3	8	7	1	0	0	0	3	4
121412	07:56:29	10042	Trial2BackFrS	NS	17	0	1000	1	118	07:56:29	3058382	4	3	3	3	2	3	3	3	3	8	7	1	0	0	0	3	4
121412	07:56:29	10042	Trial2BackFrS	NS	17	0	1000	1	118	07:56:29	3059888	4	3	3	3	2	3	3	3	3	8	7	1	0	0	0	3	4
121412	07:56:29	10042	Trial2BackFrS	NS	17	0	1000	1	118	07:56:29	3061408	4	3	3	3	2	3	3	3	3	8	7	1	0	0	0	3	4
121412	07:56:29	10042	Trial2BackFrS	NS	17	0	1000	1	118	07:56:29	3062914	4	3	3	3	2	3	3	3	3	8	7	1	0	0	0	3	4
121412	07:56:29	10042	Trial2BackFrS	NS	17	0	1000	1	118	07:56:29	3064420	4	3	3	3	2	3	3	3	3	8	7	1	0	0	0	3	4
121412	07:56:29	10042	Trial2BackFrS	NS	17	0	1000	1	118	07:56:29	3065926	4	3	3	3	2	3	3	3	3	8	7	1	0	0	0	3	4
121412	07:56:29	10042	Trial2BackFrS	YS	17	0	1000	0	118	07:56:29	3067432	4	3	3	3	2	3	3	3	3	8	7	1	0	0	0	3	4
121412	07:56:29	10042	Trial2BackFrS	NS	17	0	1000	1	118	07:56:29	3068938	4	3	3	3	2	3	3	3	3	8	7	1	0	0	0	3	4
121412	07:56:29	10042	Trial2BackFrS	NS	17	0	1000	1	118	07:56:29	3070457	4	3	3	3	2	3	3	3	3	8	7	1	0	0	0	3	4
121412	07:56:29	10042	Trial2BackFrS	NS	17	0	1000	1	118	07:56:29	3071963	4	3	3	3	2	3	3	3	3	8	7	1	0	0	0	3	4
121412	07:56:29	10042	Trial2BackFrS	NS	17	0	1000	1	118	07:56:29	3073469	4	3	3	3	2	3	3	3	3	8	7	1	0	0	0	3	4
121412	07:56:29	10042	Trial2BackFrS	YS	17	57	428	1	118	07:56:29	3074416	4	3	3	3	2	3	3	3	3	8	7	1	0	0	0	3	4
121412	07:56:29	10042	Trial2BackFrS	NS	17	0	1000	1	118	07:56:29	3076482	4	3	3	3	2	3	3	3	3	8	7	1	0	0	0	3	4
121412	07:56:29	10042	Trial2BackFrS	NS	17	0	1000	1	118	07:56:29	3077988	4	3	3	3	2	3	3	3	3	8	7	1	0	0	0	3	4
121412	07:56:29	10042	Trial2BackFrS	NS	17	0	1000	1	118	07:56:29	3079494	4	3	3	3	2	3	3	3	3	8	7	1	0	0	0	3	4
121412	07:56:29	10042	Trial2BackFrS	NS	17	0	1000	1	118	07:56:29	3081013	4	3	3	3	2	3	3	3	3	8	7	1	0	0	0	3	4
121412	07:56:29	10042	Trial2BackFrS	NS	17	0	1000	1	118	07:56:29	3082520	4	3	3	3	2	3	3	3	3	8	7	1	0	0	0	3	4
121412	07:56:29	10042	Trial2BackFrS	NS	17	0	1000	1	118	07:56:29	3084039	4	3	3	3	2	3	3	3	3	8	7	1	0	0	0	3	4
121412	07:56:29	10042	Trial2BackFrS	YS	17	0	1000	0	118	07:56:29	3085545	4	3	3	3	2	3	3	3	3	8	7	1	0	0	0	3	4
121412	07:56:29	10042	Trial2BackFrS	NS	17	0	1000	1	118	07:56:29	3087051	4	3	3	3	2	3	3	3	3	8	7	1	0	0	0	3	4
121412	07:56:29	10042	Trial2BackFrS	NS	17	0	1000	1	118	07:56:29	3088557	4	3	3	3	2	3	3	3	3	8	7	1	0	0	0	3	4
121412	07:56:29	10042	Trial2BackFrS	NS	17	0	1000	1	118	07:56:29	3090063	4	3	3	3	2	3	3	3	3	8	7	1	0	0	0	3	4
121412	07:56:29	10042	Trial2BackFrS	NS	17	0	1000	1	118	07:56:29	3091582	4	3	3	3	2	3	3	3	3	8	7	1	0	0	0	3	4
121412	07:56:29	10042	Trial2BackFrS	NS	17	0	1000	1	118	07:56:29	3093088	4	3	3	3	2	3	3	3	3	8	7	1	0	0	0	3	4
121412	07:56:29	10042	Trial2BackFrS	NS	17	0	1000	1	118	07:56:29	3094594	4	3	3	3	2	3	3	3	3	8	7	1	0	0	0	3	4
121412	07:56:29	10042	Trial2BackFrS	NS	17	0	1000	1	118	07:56:29	3096114	4	3	3	3	2	3	3	3	3	8	7	1	0	0	0	3	4
121412	07:56:29	10042	Trial2BackFrS	YS	17	0	1000	0	118	07:56:29	3097620	4	3	3	3	2	3	3	3	3	8	7	1	0	0	0	3	4
121412	07:56:29	10042	Trial2BackFrS	NS	17	0	1000	1	118	07:56:29	3099126	4	3	3	3	2	3	3	3	3	8	7	1	0	0	0	3	4
121412	07:56:29	10042	Trial2BackFrS	NS	17	0	1000	1	118	07:56:29	3100632	4	3	3	3	2	3	3	3	3	8	7	1	0	0	0	3	4
121412	07:56:29	10042	Trial2BackFrS	NS	17	0	1000	1	118	07:56:29	3102151	4	3	3	3	2	3	3	3	3	8	7	1	0	0	0	3	4
121412	07:56:29	10042	Trial2BackFrS	NS	17	0	1000	1	118	07:56:29	3103657	4	3	3	3	2	3	3	3	3	8	7	1	0	0	0	3	4
121412	07:56:29	10042	Trial2BackFrS	YS	17	0	1000	0	118	07:56:29	3105163	4	3	3	3	2	3	3	3	3	8	7	1	0	0	0	3	4
121412	07:56:29	10042	Trial2BackFrS	NS	17	0	1000	1	118	07:56:29	3106669	4	3	3	3	2	3	3	3	3	8	7	1	0	0	0	3	4
121412	07:56:29	10042	Trial2BackFrS	NS	17	0	1000	1	118	07:56:29	3108175	4	3	3	3	2	3	3	3	3	8	7	1	0	0	0	3	4
121412	07:56:29	10042	Trial2BackFrS	YS	17	57	361	1	118	07:56:29	3109055	4	3	3	3	2	3	3	3	3	8	7	1	0	0	0	3	4
121412	07:56:29	10042	Trial2BackFrS	NS	17	0	1000	1	118	07:56:29	3111188	4	3	3	3	2	3	3	3	3	8	7	1	0	0	0	3	4
121412	07:56:29	10042	Trial2BackFrS	NS	17	0	1000	1	118	07:56:29	3112694	4	3	3	3	2	3	3	3	3	8	7	1	0	0	0	3	4
121412	07:56:29	10042	Trial2BackFrS	NS	17	0	1000	1	118	07:56:29	3114199	4	3	3	3	2	3	3	3	3	8	7	1	0	0	0	3	4
121412	07:56:29	10042	Trial2BackFrS	NS	17	0	1000	1	118	07:56:29	3115719	4	3	3	3	2	3	3	3	3	8	7	1	0	0	0	3	4
121412	07:56:29	10042	Trial2BackFrS	NS	17	0	1000	1	118	07:56:29	3117225	4	3	3	3	2	3	3	3	3	8	7	1	0	0	0	3	4
121412	07:56:29	10042	Trial2BackFrS	NS	17	0	1000	1	118	07:56:29	3118731	4	3	3	3	2	3	3	3	3	8	7	1	0	0	0	3	4
121412	07:56:29	10042	Trial2BackFrS	YS	17	57	493	1	118	07:56:29	3119744	4	3	3	3	2	3	3	3	3	8	7	1	0	0	0	3	4
121412	07:56:29	10042	Trial2BackFrS	NS	17	0	1000	1	118	07:56:29	3121743	4	3	3	3	2	3	3	3	3	8	7	1	0	0	0	3	4
121412	07:56:29	10042	Trial2BackFrS	NS	17	0	1000	1	118	07:56:29	3123249	4	3	3	3	2	3	3	3	3	8	7	1	0	0	0	3	4
121412	07:56:29	10042	Trial2BackFrS	NS	17	0	1000	1	118	07:56:29	3124755	4	3	3	3	2	3	3	3	3	8	7	1	0	0	0	3	4
121412	07:56:29	10042	Trial2BackFrS	NS	17	0	1000	1	118	07:56:29	3126261	4	3	3	3	2	3	3	3	3	8	7	1	0	0	0	3	4
121412	07:56:29	10042	Trial2BackFrS	YS	17	57	418	1	118	07:56:29	3127194	4	3	3	3	2	3	3	3	3	8	7	1	0	0	0	3	4
121412	07:56:29	10042	Trial2BackFrS	NS	17	0	1000	1	118	07:56:29	3129273	4	3	3	3	2	3	3	3	3	8	7	1	0	0	0	3	4
121412	07:56:29	10042	Trial2BackFrS	NS	17	0	1000	1	118	07:56:29	3130780	4	3	3	3	2	3	3	3	3	8	7	1	0	0	0	3	4
121412	07:56:29	10042	Trial2BackFrS	NS	17	0	1000	1	118	07:56:29	3132286	4	3	3	3	2	3	3	3	3	8	7	1	0	0	0	3	4
121412	07:56:29	10042	Trial2BackFrS	NS	17	57	426	0	118	07:56:29	3133232	4	3	3	3	2	3	3	3	3	8	7	1	0	0	0	3	4
121412	07:56:29	10042	Trial2BackFrS	YS	17	0	1000	0	118	07:56:29	3135298	4	3	3	3	2	3	3	3	3	8	7	1	0	0	0	3	4
121412	07:56:29	10042	Trial2BackFrS	NS	17	0	1000	1	118	07:56:29	3136804	4	3	3	3	2	3	3	3	3	8	7	1	0	0	0	3	4
121412	07:56:29	10042	Trial2BackFrS	NS	17	0	1000	1	118	07:56:29	3138310	4	3	3	3	2	3	3	3	3	8	7	1	0	0	0	3	4
121412	07:56:29	10042	Trial2BackFrS	YS	17	57	370	1	118	07:56:29	3139189	4	3	3	3	2	3	3	3	3	8	7	1	0	0	0	3	4
121412	07:56:29	10042	Trial2BackFrS	NS	17	0	1000	1	118	07:56:29	3141322	4	3	3	3	2	3	3	3	3	8	7	1	0	0	0	3	4
121412	07:56:29	10042	Trial2BackFrS	NS	17	0	1000	1	118	07:56:29	3142828	4	3	3	3	2	3	3	3	3	8	7	1	0	0	0	3	4
121412	07:56:29	10042	Trial2BackFrS	NS	17	0	1000	1	118	07:56:29	3144334	4	3	3	3	2	3	3	3	3	8	7	1	0	0	0	3	4
121412	07:56:29	10042	Trial2BackFrS	NS	17	0	1000	1	118	07:56:29	3145840	4	3	3	3	2	3	3	3	3	8	7	1	0	0	0	3	4
121412	07:56:29	10042	Trial2BackFrS	NS	17	0	1000	1	118	07:56:29	3147346	4	3	3	3	2	3	3	3	3	8	7	1	0	0	0	3	4
121412	07:56:29	10042	Trial2BackFrS	NS	17	0	1000	1	118	07:56:29	3148852	4	3	3	3	2	3	3	3	3	8	7	1	0	0	0	3	4
121412	07:56:29	10042	Trial2BackFrS	NS	17	0	1000	1	118	07:56:29	3150359	4	3	3	3	2	3	3	3	3	8	7	1	0	0	0	3	4
121412	07:56:29	10042	Trial2BackFrS	NS	17	0	1000	1	118	07:56:29	3151864	4	3	3	3	2	3	3	3	3	8	7	1	0	0	0	3	4
121412	07:56:29	10042	Trial2BackFrS	YS	17	57	687	1	118	07:56:29	3153064	4	3	3	3	2	3	3	3	3	8	7	1	0	0	0	3	4
121412	07:56:29	10042	Trial2BackFrS	NS	17	0	1000	1	118	07:56:29	3154876	4	3	3	3	2	3	3	3	3	8	7	1	0	0	0	3	4
121412	07:56:29	10042	Trial2BackFrS	NS	17	0	1000	1	118	07:56:29	3156383	4	3	3	3	2	3	3	3	3	8	7	1	0	0	0	3	4
121412	07:56:29	10042	Trial2BackFrS	NS	17	0	1000	1	118	07:56:29	3157902	4	3	3	3	2	3	3	3	3	8	7	1	0	0	0	3	4
121412	07:56:29	10042	Trial2BackFrS	NS	17	0	1000	1	118	07:56:29	3159408	4	3	3	3	2	3	3	3	3	8	7	1	0	0	0	3	4
121412	07:56:29	10042	Trial2BackFrS	NS	17	0	1000	1	118	07:56:29	3160914	4	3	3	3	2	3	3	3	3	8	7	1	0	0	0	3	4
121412	07:56:29	10042	Trial2BackFrS	NS	17	0	1000	1	118	07:56:29	3162420	4	3	3	3	2	3	3	3	3	8	7	1	0	0	0	3	4
121412	07:56:29	10042	Trial2BackFrS	NS	17	0	1000	1	118	07:56:29	3163926	4	3	3	3	2	3	3	3	3	8	7	1	0	0	0	3	4
121412	07:56:29	10042	Trial2BackFrS	YS	17	0	1000	0	118	07:56:29	3165432	4	3	3	3	2	3	3	3	3	8	7	1	0	0	0	3	4
121412	07:56:29	10042	Trial2BackFrS	NS	17	0	1000	1	118	07:56:29	3166938	4	3	3	3	2	3	3	3	3	8	7	1	0	0	0	3	4
121412	07:56:29	10042	Trial2BackFrS	NS	17	0	1000	1	118	07:56:29	3168444	4	3	3	3	2	3	3	3	3	8	7	1	0	0	0	3	4
121412	07:56:29	10042	Trial2BackFrS	NS	17	0	1000	1	118	07:56:29	3169950	4	3	3	3	2	3	3	3	3	8	7	1	0	0	0	3	4
121412	07:56:29	10042	Trial2BackFrS	NS	17	0	1000	1	118	07:56:29	3171456	4	3	3	3	2	3	3	3	3	8	7	1	0	0	0	3	4
121412	07:56:29	10042	Trial2BackFrS	NS	17	0	1000	1	118	07:56:29	3172962	4	3	3	3	2	3	3	3	3	8	7	1	0	0	0	3	4
121412	07:56:29	10042	Trial2BackFrS	NS	17	0	1000	1	118	07:56:29	3174469	4	3	3	3	2	3	3	3	3	8	7	1	0	0	0	3	4
121412	07:56:29	10042	Trial2BackFrS	NS	17	0	1000	1	118	07:56:29	3175975	4	3	3	3	2	3	3	3	3	8	7	1	0	0	0	3	4
121412	07:56:29	10042	Trial2BackFrS	NS	17	0	1000	1	118	07:56:29	3177481	4	3	3	3	2	3	3	3	3	8	7	1	0	0	0	3	4
121412	07:56:29	10042	Trial2BackFrS	NS	17	0	1000	1	118	07:56:29	3178987	4	3	3	3	2	3	3	3	3	8	7	1	0	0	0	3	4
121412	07:56:29	10042	Trial2BackFrS	YS	17	57	764	1	118	07:56:29	3180266	4	3	3	3	2	3	3	3	3	8	7	1	0	0	0	3	4
121412	07:56:29	10042	Trial2BackFrS	NS	17	0	1000	1	118	07:56:29	3181999	4	3	3	3	2	3	3	3	3	8	7	1	0	0	0	3	4
121412	07:56:29	10042	ClockFr3mo	ClockFr3mo	19	Clock1	13372	0	118	07:56:29	3195487	4	3	3	3	2	3	3	3	3	8	7	1	1	0	0	3	4
121412	07:56:29	10042	ClockFr3mo	ClockFr3mo	19	Clock11	7310	0	118	07:56:29	3202844	4	3	3	3	2	3	3	3	3	8	7	1	1	1	0	3	4
121412	07:56:29	10042	ClockFr3mo	ClockFr3mo	19	Clockdone	3601	0	118	07:56:29	3206496	4	3	3	3	2	3	3	3	3	8	7	1	1	1	0	3	4
121412	07:56:29	10042	FASFrVF3mo	StopFrVF3mo	20	9	4371	0	118	07:56:29	3299539	4	3	3	3	2	3	3	3	3	8	7	1	1	1	0	3	4
