date	time	subject	blockcode	trialcode	values.TaskNumber	response	latency	correct	values.Score	script.starttime	script.elapsedtime	values.ScoreS7	values.Word1	values.Word2	values.Word3	values.Word4	values.Word5	values.Word6	values.Word7	values.Word8	values.DigitSpanFwrd	values.DigitSpanBack	values.ScoreAbs	values.Contour	values.Numbers	values.Hands	values.corsiblockspanFwrd	values.corsiblockspanRev
111912	09:11:22	10030	Language	Language	0	French	2005	0	0	09:11:22	2122	0	0	0	0	0	0	0	0	0	0	0	0	0	0	0	0	0
111912	09:11:22	10030	Session	Session	0	3mo	1585	0	0	09:11:22	3788	0	0	0	0	0	0	0	0	0	0	0	0	0	0	0	0	0
111912	09:11:22	10030	HandFr	HandFr	0	RightFr	139606	0	0	09:11:22	143466	0	0	0	0	0	0	0	0	0	0	0	0	0	0	0	0	0
111912	09:11:22	10030	AudioCheckFr	WordsFr	0	0	0	0	0	09:11:22	2222462	0	0	0	0	0	0	0	0	0	0	0	0	0	0	0	0	0
111912	09:11:22	10030	CubeFr	CubeFr	1	1Cube	46197	0	0	09:11:22	2272171	0	0	0	0	0	0	0	0	0	0	0	0	0	0	0	0	0
111912	09:11:22	10030	pm.simpleFrRight	blank.simpleFr	2	0	2200	1	0	09:11:22	2311116	0	0	0	0	0	0	0	0	0	0	0	0	0	0	0	0	0
111912	09:11:22	10030	pm.simpleFrRight	pm.simpleFr	2	57	466	0	0	09:11:22	2311609	0	0	0	0	0	0	0	0	0	0	0	0	0	0	0	0	0
111912	09:11:22	10030	pm.simpleFrRight	blank.simpleFr	2	0	1700	1	0	09:11:22	2313328	0	0	0	0	0	0	0	0	0	0	0	0	0	0	0	0	0
111912	09:11:22	10030	pm.simpleFrRight	pm.simpleFr	2	57	335	0	0	09:11:22	2313688	0	0	0	0	0	0	0	0	0	0	0	0	0	0	0	0	0
111912	09:11:22	10030	pm.simpleFrRight	blank.simpleFr	2	0	1900	1	0	09:11:22	2315607	0	0	0	0	0	0	0	0	0	0	0	0	0	0	0	0	0
111912	09:11:22	10030	pm.simpleFrRight	pm.simpleFr	2	57	495	0	0	09:11:22	2316127	0	0	0	0	0	0	0	0	0	0	0	0	0	0	0	0	0
111912	09:11:22	10030	pm.simpleFrRight	blank.simpleFr	2	0	2300	1	0	09:11:22	2318446	0	0	0	0	0	0	0	0	0	0	0	0	0	0	0	0	0
111912	09:11:22	10030	pm.simpleFrRight	pm.simpleFr	2	57	369	0	0	09:11:22	2318833	0	0	0	0	0	0	0	0	0	0	0	0	0	0	0	0	0
111912	09:11:22	10030	pm.simpleFrRight	blank.simpleFr	2	0	2400	1	0	09:11:22	2321245	0	0	0	0	0	0	0	0	0	0	0	0	0	0	0	0	0
111912	09:11:22	10030	pm.simpleFrRight	pm.simpleFr	2	57	610	0	0	09:11:22	2321887	0	0	0	0	0	0	0	0	0	0	0	0	0	0	0	0	0
111912	09:11:22	10030	pm.simpleFrRight	blank.simpleFr	2	0	1800	1	0	09:11:22	2323711	0	0	0	0	0	0	0	0	0	0	0	0	0	0	0	0	0
111912	09:11:22	10030	pm.simpleFrRight	pm.simpleFr	2	57	385	0	0	09:11:22	2324129	0	0	0	0	0	0	0	0	0	0	0	0	0	0	0	0	0
111912	09:11:22	10030	pm.simpleFrRight	blank.simpleFr	2	0	1500	1	0	09:11:22	2325643	0	0	0	0	0	0	0	0	0	0	0	0	0	0	0	0	0
111912	09:11:22	10030	pm.simpleFrRight	pm.simpleFr	2	57	324	0	0	09:11:22	2325990	0	0	0	0	0	0	0	0	0	0	0	0	0	0	0	0	0
111912	09:11:22	10030	pm.simpleFrRight	blank.simpleFr	2	0	2000	1	0	09:11:22	2328002	0	0	0	0	0	0	0	0	0	0	0	0	0	0	0	0	0
111912	09:11:22	10030	pm.simpleFrRight	pm.simpleFr	2	57	302	0	0	09:11:22	2328322	0	0	0	0	0	0	0	0	0	0	0	0	0	0	0	0	0
111912	09:11:22	10030	pm.simpleFrRight	blank.simpleFr	2	0	2500	1	0	09:11:22	2330841	0	0	0	0	0	0	0	0	0	0	0	0	0	0	0	0	0
111912	09:11:22	10030	pm.simpleFrRight	pm.simpleFr	2	57	340	0	0	09:11:22	2331201	0	0	0	0	0	0	0	0	0	0	0	0	0	0	0	0	0
111912	09:11:22	10030	pm.simpleFrRight	blank.simpleFr	2	0	2100	1	0	09:11:22	2333320	0	0	0	0	0	0	0	0	0	0	0	0	0	0	0	0	0
111912	09:11:22	10030	pm.simpleFrRight	pm.simpleFr	2	57	359	0	0	09:11:22	2333707	0	0	0	0	0	0	0	0	0	0	0	0	0	0	0	0	0
111912	09:11:22	10030	pm.simpleFrRight	blank.simpleFr	2	0	1600	1	0	09:11:22	2335320	0	0	0	0	0	0	0	0	0	0	0	0	0	0	0	0	0
111912	09:11:22	10030	pm.simpleFrRight	pm.simpleFr	2	57	552	0	0	09:11:22	2335894	0	0	0	0	0	0	0	0	0	0	0	0	0	0	0	0	0
111912	09:11:22	10030	pm.simpleFrRight	blank.simpleFr	2	0	2100	1	0	09:11:22	2338012	0	0	0	0	0	0	0	0	0	0	0	0	0	0	0	0	0
111912	09:11:22	10030	pm.simpleFrRight	pm.simpleFr	2	57	323	0	0	09:11:22	2338358	0	0	0	0	0	0	0	0	0	0	0	0	0	0	0	0	0
111912	09:11:22	10030	pm.simpleFrRight	blank.simpleFr	2	0	2300	1	0	09:11:22	2340678	0	0	0	0	0	0	0	0	0	0	0	0	0	0	0	0	0
111912	09:11:22	10030	pm.simpleFrRight	pm.simpleFr	2	57	484	0	0	09:11:22	2341185	0	0	0	0	0	0	0	0	0	0	0	0	0	0	0	0	0
111912	09:11:22	10030	pm.simpleFrRight	blank.simpleFr	2	0	2400	1	0	09:11:22	2343610	0	0	0	0	0	0	0	0	0	0	0	0	0	0	0	0	0
111912	09:11:22	10030	pm.simpleFrRight	pm.simpleFr	2	57	642	0	0	09:11:22	2344277	0	0	0	0	0	0	0	0	0	0	0	0	0	0	0	0	0
111912	09:11:22	10030	pm.simpleFrRight	blank.simpleFr	2	0	1600	1	0	09:11:22	2345902	0	0	0	0	0	0	0	0	0	0	0	0	0	0	0	0	0
111912	09:11:22	10030	pm.simpleFrRight	pm.simpleFr	2	57	587	0	0	09:11:22	2346517	0	0	0	0	0	0	0	0	0	0	0	0	0	0	0	0	0
111912	09:11:22	10030	pm.simpleFrRight	blank.simpleFr	2	0	1700	1	0	09:11:22	2348234	0	0	0	0	0	0	0	0	0	0	0	0	0	0	0	0	0
111912	09:11:22	10030	pm.simpleFrRight	pm.simpleFr	2	57	500	0	0	09:11:22	2348756	0	0	0	0	0	0	0	0	0	0	0	0	0	0	0	0	0
111912	09:11:22	10030	pm.simpleFrRight	blank.simpleFr	2	0	1800	1	0	09:11:22	2350580	0	0	0	0	0	0	0	0	0	0	0	0	0	0	0	0	0
111912	09:11:22	10030	pm.simpleFrRight	pm.simpleFr	2	57	510	0	0	09:11:22	2351113	0	0	0	0	0	0	0	0	0	0	0	0	0	0	0	0	0
111912	09:11:22	10030	pm.simpleFrRight	blank.simpleFr	2	0	2200	1	0	09:11:22	2353326	0	0	0	0	0	0	0	0	0	0	0	0	0	0	0	0	0
111912	09:11:22	10030	pm.simpleFrRight	pm.simpleFr	2	57	273	0	0	09:11:22	2353619	0	0	0	0	0	0	0	0	0	0	0	0	0	0	0	0	0
111912	09:11:22	10030	pm.simpleFrRight	blank.simpleFr	2	0	2000	1	0	09:11:22	2355631	0	0	0	0	0	0	0	0	0	0	0	0	0	0	0	0	0
111912	09:11:22	10030	pm.simpleFrRight	pm.simpleFr	2	57	420	0	0	09:11:22	2356086	0	0	0	0	0	0	0	0	0	0	0	0	0	0	0	0	0
111912	09:11:22	10030	pm.simpleFrRight	blank.simpleFr	2	0	2500	1	0	09:11:22	2358604	0	0	0	0	0	0	0	0	0	0	0	0	0	0	0	0	0
111912	09:11:22	10030	pm.simpleFrRight	pm.simpleFr	2	57	474	0	0	09:11:22	2359097	0	0	0	0	0	0	0	0	0	0	0	0	0	0	0	0	0
111912	09:11:22	10030	pm.simpleFrRight	blank.simpleFr	2	0	1500	1	0	09:11:22	2360616	0	0	0	0	0	0	0	0	0	0	0	0	0	0	0	0	0
111912	09:11:22	10030	pm.simpleFrRight	pm.simpleFr	2	57	375	0	0	09:11:22	2361016	0	0	0	0	0	0	0	0	0	0	0	0	0	0	0	0	0
111912	09:11:22	10030	pm.simpleFrRight	blank.simpleFr	2	0	1900	1	0	09:11:22	2362935	0	0	0	0	0	0	0	0	0	0	0	0	0	0	0	0	0
111912	09:11:22	10030	pm.simpleFrRight	pm.simpleFr	2	57	443	0	0	09:11:22	2363403	0	0	0	0	0	0	0	0	0	0	0	0	0	0	0	0	0
111912	09:11:22	10030	pm.simpleFrRight	blank.simpleFr	2	0	2400	1	0	09:11:22	2365827	0	0	0	0	0	0	0	0	0	0	0	0	0	0	0	0	0
111912	09:11:22	10030	pm.simpleFrRight	pm.simpleFr	2	57	332	0	0	09:11:22	2366187	0	0	0	0	0	0	0	0	0	0	0	0	0	0	0	0	0
111912	09:11:22	10030	pm.simpleFrRight	blank.simpleFr	2	0	2000	1	0	09:11:22	2368200	0	0	0	0	0	0	0	0	0	0	0	0	0	0	0	0	0
111912	09:11:22	10030	pm.simpleFrRight	pm.simpleFr	2	57	359	0	0	09:11:22	2368586	0	0	0	0	0	0	0	0	0	0	0	0	0	0	0	0	0
111912	09:11:22	10030	pm.simpleFrRight	blank.simpleFr	2	0	1900	1	0	09:11:22	2370506	0	0	0	0	0	0	0	0	0	0	0	0	0	0	0	0	0
111912	09:11:22	10030	pm.simpleFrRight	pm.simpleFr	2	57	561	0	0	09:11:22	2371094	0	0	0	0	0	0	0	0	0	0	0	0	0	0	0	0	0
111912	09:11:22	10030	pm.simpleFrRight	blank.simpleFr	2	0	2100	1	0	09:11:22	2373211	0	0	0	0	0	0	0	0	0	0	0	0	0	0	0	0	0
111912	09:11:22	10030	pm.simpleFrRight	pm.simpleFr	2	57	324	0	0	09:11:22	2373558	0	0	0	0	0	0	0	0	0	0	0	0	0	0	0	0	0
111912	09:11:22	10030	pm.simpleFrRight	blank.simpleFr	2	0	1800	1	0	09:11:22	2375370	0	0	0	0	0	0	0	0	0	0	0	0	0	0	0	0	0
111912	09:11:22	10030	pm.simpleFrRight	pm.simpleFr	2	57	309	0	0	09:11:22	2375704	0	0	0	0	0	0	0	0	0	0	0	0	0	0	0	0	0
111912	09:11:22	10030	pm.simpleFrRight	blank.simpleFr	2	0	2500	1	0	09:11:22	2378223	0	0	0	0	0	0	0	0	0	0	0	0	0	0	0	0	0
111912	09:11:22	10030	pm.simpleFrRight	pm.simpleFr	2	57	289	0	0	09:11:22	2378529	0	0	0	0	0	0	0	0	0	0	0	0	0	0	0	0	0
111912	09:11:22	10030	pm.simpleFrRight	blank.simpleFr	2	0	2300	1	0	09:11:22	2380848	0	0	0	0	0	0	0	0	0	0	0	0	0	0	0	0	0
111912	09:11:22	10030	pm.simpleFrRight	pm.simpleFr	2	57	286	0	0	09:11:22	2381155	0	0	0	0	0	0	0	0	0	0	0	0	0	0	0	0	0
111912	09:11:22	10030	pm.simpleFrRight	blank.simpleFr	2	0	1500	1	0	09:11:22	2382674	0	0	0	0	0	0	0	0	0	0	0	0	0	0	0	0	0
111912	09:11:22	10030	pm.simpleFrRight	pm.simpleFr	2	57	435	0	0	09:11:22	2383127	0	0	0	0	0	0	0	0	0	0	0	0	0	0	0	0	0
111912	09:11:22	10030	pm.simpleFrRight	blank.simpleFr	2	0	1600	1	0	09:11:22	2384740	0	0	0	0	0	0	0	0	0	0	0	0	0	0	0	0	0
111912	09:11:22	10030	pm.simpleFrRight	pm.simpleFr	2	57	471	0	0	09:11:22	2385234	0	0	0	0	0	0	0	0	0	0	0	0	0	0	0	0	0
111912	09:11:22	10030	pm.simpleFrRight	blank.simpleFr	2	0	1700	1	0	09:11:22	2386952	0	0	0	0	0	0	0	0	0	0	0	0	0	0	0	0	0
111912	09:11:22	10030	pm.simpleFrRight	pm.simpleFr	2	57	310	0	0	09:11:22	2387286	0	0	0	0	0	0	0	0	0	0	0	0	0	0	0	0	0
111912	09:11:22	10030	pm.simpleFrRight	blank.simpleFr	2	0	2200	1	0	09:11:22	2389498	0	0	0	0	0	0	0	0	0	0	0	0	0	0	0	0	0
111912	09:11:22	10030	pm.simpleFrRight	pm.simpleFr	2	57	476	0	0	09:11:22	2389998	0	0	0	0	0	0	0	0	0	0	0	0	0	0	0	0	0
111912	09:11:22	10030	pm.simpleFrRight	blank.simpleFr	2	0	2200	1	0	09:11:22	2392217	0	0	0	0	0	0	0	0	0	0	0	0	0	0	0	0	0
111912	09:11:22	10030	pm.simpleFrRight	pm.simpleFr	2	57	396	0	0	09:11:22	2392657	0	0	0	0	0	0	0	0	0	0	0	0	0	0	0	0	0
111912	09:11:22	10030	pm.simpleFrRight	blank.simpleFr	2	0	1900	1	0	09:11:22	2394576	0	0	0	0	0	0	0	0	0	0	0	0	0	0	0	0	0
111912	09:11:22	10030	pm.simpleFrRight	pm.simpleFr	2	57	334	0	0	09:11:22	2394936	0	0	0	0	0	0	0	0	0	0	0	0	0	0	0	0	0
111912	09:11:22	10030	pm.simpleFrRight	blank.simpleFr	2	0	1800	1	0	09:11:22	2396749	0	0	0	0	0	0	0	0	0	0	0	0	0	0	0	0	0
111912	09:11:22	10030	pm.simpleFrRight	pm.simpleFr	2	57	564	0	0	09:11:22	2397337	0	0	0	0	0	0	0	0	0	0	0	0	0	0	0	0	0
111912	09:11:22	10030	pm.simpleFrRight	blank.simpleFr	2	0	1700	1	0	09:11:22	2399054	0	0	0	0	0	0	0	0	0	0	0	0	0	0	0	0	0
111912	09:11:22	10030	pm.simpleFrRight	pm.simpleFr	2	57	304	0	0	09:11:22	2399387	0	0	0	0	0	0	0	0	0	0	0	0	0	0	0	0	0
111912	09:11:22	10030	pm.simpleFrRight	blank.simpleFr	2	0	1600	1	0	09:11:22	2401014	0	0	0	0	0	0	0	0	0	0	0	0	0	0	0	0	0
111912	09:11:22	10030	pm.simpleFrRight	pm.simpleFr	2	57	1545	0	0	09:11:22	2402586	0	0	0	0	0	0	0	0	0	0	0	0	0	0	0	0	0
111912	09:11:22	10030	pm.simpleFrRight	blank.simpleFr	2	0	2400	1	0	09:11:22	2404999	0	0	0	0	0	0	0	0	0	0	0	0	0	0	0	0	0
111912	09:11:22	10030	pm.simpleFrRight	pm.simpleFr	2	57	474	0	0	09:11:22	2405492	0	0	0	0	0	0	0	0	0	0	0	0	0	0	0	0	0
111912	09:11:22	10030	pm.simpleFrRight	blank.simpleFr	2	0	2100	1	0	09:11:22	2407611	0	0	0	0	0	0	0	0	0	0	0	0	0	0	0	0	0
111912	09:11:22	10030	pm.simpleFrRight	pm.simpleFr	2	57	778	0	0	09:11:22	2408411	0	0	0	0	0	0	0	0	0	0	0	0	0	0	0	0	0
111912	09:11:22	10030	Trial2BackFr	N	3	0	1000	1	1	09:11:22	2465188	0	0	0	0	0	0	0	0	0	0	0	0	0	0	0	0	0
111912	09:11:22	10030	Trial2BackFr	N	3	0	1000	1	2	09:11:22	2466694	0	0	0	0	0	0	0	0	0	0	0	0	0	0	0	0	0
111912	09:11:22	10030	Trial2BackFr	N	3	0	1000	1	3	09:11:22	2468200	0	0	0	0	0	0	0	0	0	0	0	0	0	0	0	0	0
111912	09:11:22	10030	Trial2BackFr	N	3	0	1000	1	4	09:11:22	2469706	0	0	0	0	0	0	0	0	0	0	0	0	0	0	0	0	0
111912	09:11:22	10030	Trial2BackFr	N	3	0	1000	1	5	09:11:22	2471213	0	0	0	0	0	0	0	0	0	0	0	0	0	0	0	0	0
111912	09:11:22	10030	Trial2BackFr	N	3	0	1000	1	6	09:11:22	2472718	0	0	0	0	0	0	0	0	0	0	0	0	0	0	0	0	0
111912	09:11:22	10030	Trial2BackFr	N	3	0	1000	1	7	09:11:22	2474225	0	0	0	0	0	0	0	0	0	0	0	0	0	0	0	0	0
111912	09:11:22	10030	Trial2BackFr	N	3	0	1000	1	8	09:11:22	2475731	0	0	0	0	0	0	0	0	0	0	0	0	0	0	0	0	0
111912	09:11:22	10030	Trial2BackFr	Y	3	0	1000	0	8	09:11:22	2477237	0	0	0	0	0	0	0	0	0	0	0	0	0	0	0	0	0
111912	09:11:22	10030	Trial2BackFr	N	3	0	1000	1	9	09:11:22	2478743	0	0	0	0	0	0	0	0	0	0	0	0	0	0	0	0	0
111912	09:11:22	10030	Trial2BackFr	N	3	0	1000	1	10	09:11:22	2480262	0	0	0	0	0	0	0	0	0	0	0	0	0	0	0	0	0
111912	09:11:22	10030	Trial2BackFr	N	3	0	1000	1	11	09:11:22	2481768	0	0	0	0	0	0	0	0	0	0	0	0	0	0	0	0	0
111912	09:11:22	10030	Trial2BackFr	Y	3	57	856	1	12	09:11:22	2483141	0	0	0	0	0	0	0	0	0	0	0	0	0	0	0	0	0
111912	09:11:22	10030	Trial2BackFr	N	3	0	1000	1	13	09:11:22	2484781	0	0	0	0	0	0	0	0	0	0	0	0	0	0	0	0	0
111912	09:11:22	10030	Trial2BackFr	N	3	0	1000	1	14	09:11:22	2486286	0	0	0	0	0	0	0	0	0	0	0	0	0	0	0	0	0
111912	09:11:22	10030	Trial2BackFr	N	3	0	1000	1	15	09:11:22	2487793	0	0	0	0	0	0	0	0	0	0	0	0	0	0	0	0	0
111912	09:11:22	10030	Trial2BackFr	N	3	0	1000	1	16	09:11:22	2489299	0	0	0	0	0	0	0	0	0	0	0	0	0	0	0	0	0
111912	09:11:22	10030	Trial2BackFr	N	3	0	1000	1	17	09:11:22	2490805	0	0	0	0	0	0	0	0	0	0	0	0	0	0	0	0	0
111912	09:11:22	10030	Trial2BackFr	Y	3	0	1000	0	17	09:11:22	2492311	0	0	0	0	0	0	0	0	0	0	0	0	0	0	0	0	0
111912	09:11:22	10030	Trial2BackFr	N	3	0	1000	1	18	09:11:22	2493817	0	0	0	0	0	0	0	0	0	0	0	0	0	0	0	0	0
111912	09:11:22	10030	Trial2BackFr	N	3	0	1000	1	19	09:11:22	2495323	0	0	0	0	0	0	0	0	0	0	0	0	0	0	0	0	0
111912	09:11:22	10030	Trial2BackFr	N	3	0	1000	1	20	09:11:22	2496829	0	0	0	0	0	0	0	0	0	0	0	0	0	0	0	0	0
111912	09:11:22	10030	Trial2BackFr	N	3	0	1000	1	21	09:11:22	2498335	0	0	0	0	0	0	0	0	0	0	0	0	0	0	0	0	0
111912	09:11:22	10030	Trial2BackFr	Y	3	57	899	1	22	09:11:22	2499748	0	0	0	0	0	0	0	0	0	0	0	0	0	0	0	0	0
111912	09:11:22	10030	Trial2BackFr	N	3	0	1000	1	23	09:11:22	2501347	0	0	0	0	0	0	0	0	0	0	0	0	0	0	0	0	0
111912	09:11:22	10030	Trial2BackFr	N	3	0	1000	1	24	09:11:22	2502853	0	0	0	0	0	0	0	0	0	0	0	0	0	0	0	0	0
111912	09:11:22	10030	Trial2BackFr	N	3	0	1000	1	25	09:11:22	2504359	0	0	0	0	0	0	0	0	0	0	0	0	0	0	0	0	0
111912	09:11:22	10030	Trial2BackFr	N	3	0	1000	1	26	09:11:22	2505865	0	0	0	0	0	0	0	0	0	0	0	0	0	0	0	0	0
111912	09:11:22	10030	Trial2BackFr	N	3	0	1000	1	27	09:11:22	2507385	0	0	0	0	0	0	0	0	0	0	0	0	0	0	0	0	0
111912	09:11:22	10030	Trial2BackFr	N	3	0	1000	1	28	09:11:22	2508891	0	0	0	0	0	0	0	0	0	0	0	0	0	0	0	0	0
111912	09:11:22	10030	Trial2BackFr	Y	3	57	535	1	29	09:11:22	2509944	0	0	0	0	0	0	0	0	0	0	0	0	0	0	0	0	0
111912	09:11:22	10030	Trial2BackFr	N	3	0	1000	1	30	09:11:22	2511903	0	0	0	0	0	0	0	0	0	0	0	0	0	0	0	0	0
111912	09:11:22	10030	Trial2BackFr	N	3	0	1000	1	31	09:11:22	2513409	0	0	0	0	0	0	0	0	0	0	0	0	0	0	0	0	0
111912	09:11:22	10030	Trial2BackFr	N	3	0	1000	1	32	09:11:22	2514915	0	0	0	0	0	0	0	0	0	0	0	0	0	0	0	0	0
111912	09:11:22	10030	Trial2BackFr	Y	3	0	1000	0	32	09:11:22	2516421	0	0	0	0	0	0	0	0	0	0	0	0	0	0	0	0	0
111912	09:11:22	10030	Trial2BackFr	N	3	0	1000	1	33	09:11:22	2517927	0	0	0	0	0	0	0	0	0	0	0	0	0	0	0	0	0
111912	09:11:22	10030	Trial2BackFr	N	3	0	1000	1	34	09:11:22	2519447	0	0	0	0	0	0	0	0	0	0	0	0	0	0	0	0	0
111912	09:11:22	10030	Trial2BackFr	N	3	0	1000	1	35	09:11:22	2520953	0	0	0	0	0	0	0	0	0	0	0	0	0	0	0	0	0
111912	09:11:22	10030	Trial2BackFr	N	3	0	1000	1	36	09:11:22	2522459	0	0	0	0	0	0	0	0	0	0	0	0	0	0	0	0	0
111912	09:11:22	10030	Trial2BackFr	N	3	0	1000	1	37	09:11:22	2523965	0	0	0	0	0	0	0	0	0	0	0	0	0	0	0	0	0
111912	09:11:22	10030	Trial2BackFr	N	3	0	1000	1	38	09:11:22	2525471	0	0	0	0	0	0	0	0	0	0	0	0	0	0	0	0	0
111912	09:11:22	10030	Trial2BackFr	Y	3	0	1000	0	38	09:11:22	2526977	0	0	0	0	0	0	0	0	0	0	0	0	0	0	0	0	0
111912	09:11:22	10030	Trial2BackFr	N	3	0	1000	1	39	09:11:22	2528483	0	0	0	0	0	0	0	0	0	0	0	0	0	0	0	0	0
111912	09:11:22	10030	Trial2BackFr	N	3	57	957	0	39	09:11:22	2529949	0	0	0	0	0	0	0	0	0	0	0	0	0	0	0	0	0
111912	09:11:22	10030	Trial2BackFr	N	3	0	1000	1	40	09:11:22	2531495	0	0	0	0	0	0	0	0	0	0	0	0	0	0	0	0	0
111912	09:11:22	10030	Trial2BackFr	N	3	0	1000	1	41	09:11:22	2533001	0	0	0	0	0	0	0	0	0	0	0	0	0	0	0	0	0
111912	09:11:22	10030	Trial2BackFr	Y	3	0	1000	0	41	09:11:22	2534508	0	0	0	0	0	0	0	0	0	0	0	0	0	0	0	0	0
111912	09:11:22	10030	Trial2BackFr	N	3	0	1000	1	42	09:11:22	2536014	0	0	0	0	0	0	0	0	0	0	0	0	0	0	0	0	0
111912	09:11:22	10030	Trial2BackFr	N	3	0	1000	1	43	09:11:22	2537520	0	0	0	0	0	0	0	0	0	0	0	0	0	0	0	0	0
111912	09:11:22	10030	Trial2BackFr	N	3	0	1000	1	44	09:11:22	2539026	0	0	0	0	0	0	0	0	0	0	0	0	0	0	0	0	0
111912	09:11:22	10030	Trial2BackFr	N	3	0	1000	1	45	09:11:22	2540532	0	0	0	0	0	0	0	0	0	0	0	0	0	0	0	0	0
111912	09:11:22	10030	Trial2BackFr	N	3	0	1000	1	46	09:11:22	2542038	0	0	0	0	0	0	0	0	0	0	0	0	0	0	0	0	0
111912	09:11:22	10030	Trial2BackFr	Y	3	57	682	1	47	09:11:22	2543237	0	0	0	0	0	0	0	0	0	0	0	0	0	0	0	0	0
111912	09:11:22	10030	Trial2BackFr	N	3	0	1000	1	48	09:11:22	2545050	0	0	0	0	0	0	0	0	0	0	0	0	0	0	0	0	0
111912	09:11:22	10030	Trial2BackFr	N	3	0	1000	1	49	09:11:22	2546569	0	0	0	0	0	0	0	0	0	0	0	0	0	0	0	0	0
111912	09:11:22	10030	Trial2BackFr	N	3	0	1000	1	50	09:11:22	2548075	0	0	0	0	0	0	0	0	0	0	0	0	0	0	0	0	0
111912	09:11:22	10030	Trial2BackFr	N	3	0	1000	1	51	09:11:22	2549582	0	0	0	0	0	0	0	0	0	0	0	0	0	0	0	0	0
111912	09:11:22	10030	Trial2BackFr	N	3	0	1000	1	52	09:11:22	2551088	0	0	0	0	0	0	0	0	0	0	0	0	0	0	0	0	0
111912	09:11:22	10030	Trial2BackFr	N	3	0	1000	1	53	09:11:22	2552594	0	0	0	0	0	0	0	0	0	0	0	0	0	0	0	0	0
111912	09:11:22	10030	Trial2BackFr	Y	3	57	847	1	54	09:11:22	2553953	0	0	0	0	0	0	0	0	0	0	0	0	0	0	0	0	0
111912	09:11:22	10030	Trial2BackFr	N	3	0	1000	1	55	09:11:22	2555619	0	0	0	0	0	0	0	0	0	0	0	0	0	0	0	0	0
111912	09:11:22	10030	Trial2BackFr	N	3	0	1000	1	56	09:11:22	2557125	0	0	0	0	0	0	0	0	0	0	0	0	0	0	0	0	0
111912	09:11:22	10030	Trial2BackFr	Y	3	0	1000	0	56	09:11:22	2558631	0	0	0	0	0	0	0	0	0	0	0	0	0	0	0	0	0
111912	09:11:22	10030	Trial2BackFr	N	3	0	1000	1	57	09:11:22	2560137	0	0	0	0	0	0	0	0	0	0	0	0	0	0	0	0	0
111912	09:11:22	10030	Trial2BackFr	N	3	0	1000	1	58	09:11:22	2561643	0	0	0	0	0	0	0	0	0	0	0	0	0	0	0	0	0
111912	09:11:22	10030	Trial2BackFr	N	3	0	1000	1	59	09:11:22	2563150	0	0	0	0	0	0	0	0	0	0	0	0	0	0	0	0	0
111912	09:11:22	10030	Trial2BackFr	N	3	0	1000	1	60	09:11:22	2564656	0	0	0	0	0	0	0	0	0	0	0	0	0	0	0	0	0
111912	09:11:22	10030	Trial2BackFr	N	3	0	1000	1	61	09:11:22	2566175	0	0	0	0	0	0	0	0	0	0	0	0	0	0	0	0	0
111912	09:11:22	10030	Trial2BackFr	N	3	0	1000	1	62	09:11:22	2567681	0	0	0	0	0	0	0	0	0	0	0	0	0	0	0	0	0
111912	09:11:22	10030	Trial2BackFr	N	3	0	1000	1	63	09:11:22	2569187	0	0	0	0	0	0	0	0	0	0	0	0	0	0	0	0	0
111912	09:11:22	10030	Trial2BackFr	N	3	0	1000	1	64	09:11:22	2570693	0	0	0	0	0	0	0	0	0	0	0	0	0	0	0	0	0
111912	09:11:22	10030	Trial2BackFr	N	3	0	1000	1	65	09:11:22	2572199	0	0	0	0	0	0	0	0	0	0	0	0	0	0	0	0	0
111912	09:11:22	10030	Trial2BackFr	N	3	0	1000	1	66	09:11:22	2573705	0	0	0	0	0	0	0	0	0	0	0	0	0	0	0	0	0
111912	09:11:22	10030	Trial2BackFr	Y	3	57	568	1	67	09:11:22	2574785	0	0	0	0	0	0	0	0	0	0	0	0	0	0	0	0	0
111912	09:11:22	10030	Trial2BackFr	N	3	0	1000	1	68	09:11:22	2576718	0	0	0	0	0	0	0	0	0	0	0	0	0	0	0	0	0
111912	09:11:22	10030	Trial2BackFr	N	3	0	1000	1	69	09:11:22	2578224	0	0	0	0	0	0	0	0	0	0	0	0	0	0	0	0	0
111912	09:11:22	10030	Trial2BackFr	N	3	0	1000	1	70	09:11:22	2579730	0	0	0	0	0	0	0	0	0	0	0	0	0	0	0	0	0
111912	09:11:22	10030	Trial2BackFr	Y	3	57	718	1	71	09:11:22	2580969	0	0	0	0	0	0	0	0	0	0	0	0	0	0	0	0	0
111912	09:11:22	10030	Trial2BackFr	N	3	0	1000	1	72	09:11:22	2582742	0	0	0	0	0	0	0	0	0	0	0	0	0	0	0	0	0
111912	09:11:22	10030	Trial2BackFr	N	3	0	1000	1	73	09:11:22	2584248	0	0	0	0	0	0	0	0	0	0	0	0	0	0	0	0	0
111912	09:11:22	10030	Trial2BackFr	N	3	0	1000	1	74	09:11:22	2585754	0	0	0	0	0	0	0	0	0	0	0	0	0	0	0	0	0
111912	09:11:22	10030	Trial2BackFr	N	3	0	1000	1	75	09:11:22	2587260	0	0	0	0	0	0	0	0	0	0	0	0	0	0	0	0	0
111912	09:11:22	10030	Trial2BackFr	N	3	0	1000	1	76	09:11:22	2588766	0	0	0	0	0	0	0	0	0	0	0	0	0	0	0	0	0
111912	09:11:22	10030	Trial2BackFr	Y	3	57	673	1	77	09:11:22	2589952	0	0	0	0	0	0	0	0	0	0	0	0	0	0	0	0	0
111912	09:11:22	10030	Trial2BackFr	N	3	0	1000	1	78	09:11:22	2591778	0	0	0	0	0	0	0	0	0	0	0	0	0	0	0	0	0
111912	09:11:22	10030	Trial2BackFr	N	3	0	1000	1	79	09:11:22	2593284	0	0	0	0	0	0	0	0	0	0	0	0	0	0	0	0	0
111912	09:11:22	10030	Trial2BackFr	N	3	0	1000	1	80	09:11:22	2594790	0	0	0	0	0	0	0	0	0	0	0	0	0	0	0	0	0
111912	09:11:22	10030	Trial2BackFr	N	3	0	1000	1	81	09:11:22	2596296	0	0	0	0	0	0	0	0	0	0	0	0	0	0	0	0	0
111912	09:11:22	10030	Trial2BackFr	N	3	0	1000	1	82	09:11:22	2597803	0	0	0	0	0	0	0	0	0	0	0	0	0	0	0	0	0
111912	09:11:22	10030	Trial2BackFr	N	3	0	1000	1	83	09:11:22	2599309	0	0	0	0	0	0	0	0	0	0	0	0	0	0	0	0	0
111912	09:11:22	10030	Trial2BackFr	N	3	0	1000	1	84	09:11:22	2600815	0	0	0	0	0	0	0	0	0	0	0	0	0	0	0	0	0
111912	09:11:22	10030	Trial2BackFr	N	3	0	1000	1	85	09:11:22	2602321	0	0	0	0	0	0	0	0	0	0	0	0	0	0	0	0	0
111912	09:11:22	10030	Trial2BackFr	N	3	0	1000	1	86	09:11:22	2603827	0	0	0	0	0	0	0	0	0	0	0	0	0	0	0	0	0
111912	09:11:22	10030	Trial2BackFr	Y	3	0	1000	0	86	09:11:22	2605333	0	0	0	0	0	0	0	0	0	0	0	0	0	0	0	0	0
111912	09:11:22	10030	Trial2BackFr	N	3	0	1000	1	87	09:11:22	2606839	0	0	0	0	0	0	0	0	0	0	0	0	0	0	0	0	0
111912	09:11:22	10030	Trial2BackFr	N	3	0	1000	1	88	09:11:22	2608345	0	0	0	0	0	0	0	0	0	0	0	0	0	0	0	0	0
111912	09:11:22	10030	Trial2BackFr	N	3	0	1000	1	89	09:11:22	2609851	0	0	0	0	0	0	0	0	0	0	0	0	0	0	0	0	0
111912	09:11:22	10030	Trial2BackFr	N	3	0	1000	1	90	09:11:22	2611357	0	0	0	0	0	0	0	0	0	0	0	0	0	0	0	0	0
111912	09:11:22	10030	Trial2BackFr	N	3	0	1000	1	91	09:11:22	2612863	0	0	0	0	0	0	0	0	0	0	0	0	0	0	0	0	0
111912	09:11:22	10030	Trial2BackFr	N	3	0	1000	1	92	09:11:22	2614369	0	0	0	0	0	0	0	0	0	0	0	0	0	0	0	0	0
111912	09:11:22	10030	Trial2BackFr	N	3	0	1000	1	93	09:11:22	2615889	0	0	0	0	0	0	0	0	0	0	0	0	0	0	0	0	0
111912	09:11:22	10030	Trial2BackFr	N	3	0	1000	1	94	09:11:22	2617395	0	0	0	0	0	0	0	0	0	0	0	0	0	0	0	0	0
111912	09:11:22	10030	Trial2BackFr	Y	3	0	1000	0	94	09:11:22	2618901	0	0	0	0	0	0	0	0	0	0	0	0	0	0	0	0	0
111912	09:11:22	10030	Trial2BackFr	N	3	0	1000	1	95	09:11:22	2620407	0	0	0	0	0	0	0	0	0	0	0	0	0	0	0	0	0
111912	09:11:22	10030	Trial2BackFr	N	3	0	1000	1	96	09:11:22	2621913	0	0	0	0	0	0	0	0	0	0	0	0	0	0	0	0	0
111912	09:11:22	10030	Trial2BackFr	N	3	0	1000	1	97	09:11:22	2623419	0	0	0	0	0	0	0	0	0	0	0	0	0	0	0	0	0
111912	09:11:22	10030	Trial2BackFr	N	3	0	1000	1	98	09:11:22	2624925	0	0	0	0	0	0	0	0	0	0	0	0	0	0	0	0	0
111912	09:11:22	10030	Trial2BackFr	Y	3	0	1000	0	98	09:11:22	2626431	0	0	0	0	0	0	0	0	0	0	0	0	0	0	0	0	0
111912	09:11:22	10030	Trial2BackFr	N	3	0	1000	1	99	09:11:22	2627937	0	0	0	0	0	0	0	0	0	0	0	0	0	0	0	0	0
111912	09:11:22	10030	Trial2BackFr	N	3	0	1000	1	100	09:11:22	2629443	0	0	0	0	0	0	0	0	0	0	0	0	0	0	0	0	0
111912	09:11:22	10030	Trial2BackFr	N	3	0	1000	1	101	09:11:22	2630949	0	0	0	0	0	0	0	0	0	0	0	0	0	0	0	0	0
111912	09:11:22	10030	Trial2BackFr	Y	3	57	921	1	102	09:11:22	2632389	0	0	0	0	0	0	0	0	0	0	0	0	0	0	0	0	0
111912	09:11:22	10030	Trial2BackFr	N	3	0	1000	1	103	09:11:22	2633962	0	0	0	0	0	0	0	0	0	0	0	0	0	0	0	0	0
111912	09:11:22	10030	Trial2BackFr	N	3	0	1000	1	104	09:11:22	2635481	0	0	0	0	0	0	0	0	0	0	0	0	0	0	0	0	0
111912	09:11:22	10030	Trial2BackFr	N	3	0	1000	1	105	09:11:22	2636987	0	0	0	0	0	0	0	0	0	0	0	0	0	0	0	0	0
111912	09:11:22	10030	Trial2BackFr	N	3	0	1000	1	106	09:11:22	2638493	0	0	0	0	0	0	0	0	0	0	0	0	0	0	0	0	0
111912	09:11:22	10030	Trial2BackFr	N	3	0	1000	1	107	09:11:22	2639999	0	0	0	0	0	0	0	0	0	0	0	0	0	0	0	0	0
111912	09:11:22	10030	Trial2BackFr	Y	3	57	817	1	108	09:11:22	2641332	0	0	0	0	0	0	0	0	0	0	0	0	0	0	0	0	0
111912	09:11:22	10030	Trial2BackFr	N	3	0	1000	1	109	09:11:22	2643011	0	0	0	0	0	0	0	0	0	0	0	0	0	0	0	0	0
111912	09:11:22	10030	Trial2BackFr	N	3	0	1000	1	110	09:11:22	2644517	0	0	0	0	0	0	0	0	0	0	0	0	0	0	0	0	0
111912	09:11:22	10030	Trial2BackFr	N	3	0	1000	1	111	09:11:22	2646023	0	0	0	0	0	0	0	0	0	0	0	0	0	0	0	0	0
111912	09:11:22	10030	Trial2BackFr	Y	3	0	1000	0	111	09:11:22	2647543	0	0	0	0	0	0	0	0	0	0	0	0	0	0	0	0	0
111912	09:11:22	10030	Memory1R3moFr	ScoreFr	5	M1	20654	0	111	09:11:22	2718222	0	0	0	0	0	0	0	0	0	0	0	0	0	0	0	0	0
111912	09:11:22	10030	Memory1R3moFr	ScoreFr	5	M2	236	0	111	09:11:22	2718528	0	0	0	0	0	0	0	0	0	0	0	0	0	0	0	0	0
111912	09:11:22	10030	Memory1R3moFr	ScoreFr	5	M4	2009	0	111	09:11:22	2720608	0	0	0	0	0	0	0	0	0	0	0	0	0	0	0	0	0
111912	09:11:22	10030	Memory1R3moFr	ScoreFr	5	M5	132	0	111	09:11:22	2720807	0	0	0	0	0	0	0	0	0	0	0	0	0	0	0	0	0
111912	09:11:22	10030	Memory1R3moFr	ScoreFr	5	M8	640	0	111	09:11:22	2721514	0	0	0	0	0	0	0	0	0	0	0	0	0	0	0	0	0
111912	09:11:22	10030	Memory1R3moFr	ScoreFr	5	Done	254	0	111	09:11:22	2721834	0	0	0	0	0	0	0	0	0	0	0	0	0	0	0	0	0
111912	09:11:22	10030	Memory2R3moFr	ScoreFr2	5	11	20549	0	111	09:11:22	2758832	0	0	0	0	0	0	0	0	0	0	0	0	0	0	0	0	0
111912	09:11:22	10030	Memory2R3moFr	ScoreFr2	5	22	188	0	111	09:11:22	2759099	0	0	0	0	0	0	0	0	0	0	0	0	0	0	0	0	0
111912	09:11:22	10030	Memory2R3moFr	ScoreFr2	5	44	2012	0	111	09:11:22	2761178	0	0	0	0	0	0	0	0	0	0	0	0	0	0	0	0	0
111912	09:11:22	10030	Memory2R3moFr	ScoreFr2	5	77	856	0	111	09:11:22	2762098	0	0	0	0	0	0	0	0	0	0	0	0	0	0	0	0	0
111912	09:11:22	10030	Memory2R3moFr	ScoreFr2	5	88	215	0	111	09:11:22	2762378	0	0	0	0	0	0	0	0	0	0	0	0	0	0	0	0	0
111912	09:11:22	10030	Memory2R3moFr	ScoreFr2	5	Done	13287	0	111	09:11:22	2775732	0	0	0	0	0	0	0	0	0	0	0	0	0	0	0	0	0
111912	09:11:22	10030	Memory3R3moFr	ScoreFr3	5	111	23327	0	111	09:11:22	2816410	0	0	0	0	0	0	0	0	0	0	0	0	0	0	0	0	0
111912	09:11:22	10030	Memory3R3moFr	ScoreFr3	5	222	279	0	111	09:11:22	2816756	0	0	0	0	0	0	0	0	0	0	0	0	0	0	0	0	0
111912	09:11:22	10030	Memory3R3moFr	ScoreFr3	5	666	1965	0	111	09:11:22	2818782	0	0	0	0	0	0	0	0	0	0	0	0	0	0	0	0	0
111912	09:11:22	10030	Memory3R3moFr	ScoreFr3	5	777	194	0	111	09:11:22	2819035	0	0	0	0	0	0	0	0	0	0	0	0	0	0	0	0	0
111912	09:11:22	10030	Memory3R3moFr	ScoreFr3	5	Done	4319	0	111	09:11:22	2823420	0	0	0	0	0	0	0	0	0	0	0	0	0	0	0	0	0
111912	09:11:22	10030	LoriaFrLH3	Stop	6	4	5694	0	111	09:11:22	2904456	0	0	0	0	0	0	0	0	0	0	0	0	0	0	0	0	0
111912	09:11:22	10030	FrTrail	Trails	7	1Trails	958	0	111	09:11:22	2945293	0	0	0	0	0	0	0	0	0	0	0	0	0	0	0	0	0
111912	09:11:22	10030	Serial7Fr3mo	Serial7Fr3mo	8	83	3229	0	111	09:11:22	2965738	1	0	0	0	0	0	0	0	0	0	0	0	0	0	0	0	0
111912	09:11:22	10030	Serial7Fr3mo	Serial7Fr3mo	8	74	6622	0	111	09:11:22	2972378	1	0	0	0	0	0	0	0	0	0	0	0	0	0	0	0	0
111912	09:11:22	10030	Serial7Fr3mo	Serial7Fr3mo	8	63	6786	0	111	09:11:22	2979188	1	0	0	0	0	0	0	0	0	0	0	0	0	0	0	0	0
111912	09:11:22	10030	Serial7Fr3mo	Serial7Fr3mo	8	54	3084	0	111	09:11:22	2982294	1	0	0	0	0	0	0	0	0	0	0	0	0	0	0	0	0
111912	09:11:22	10030	Serial7Fr3mo	Serial7Fr3mo	8	43	3779	0	111	09:11:22	2986093	1	0	0	0	0	0	0	0	0	0	0	0	0	0	0	0	0
111912	09:11:22	10030	corsiblockFrFwrd	recallseqFrFwrd	9	7	2246	0	111	09:11:22	3092637	1	0	0	0	0	0	0	0	0	0	0	0	0	0	0	0	0
111912	09:11:22	10030	corsiblockFrFwrd	recallseqFrFwrd	9	2	1252	0	111	09:11:22	3093956	1	0	0	0	0	0	0	0	0	0	0	0	0	0	0	0	0
111912	09:11:22	10030	corsiblockFrFwrd	recallseqFrFwrd	9	doneCorsiFr	4129	0	111	09:11:22	3098141	1	0	0	0	0	0	0	0	0	0	0	0	0	0	0	2	0
111912	09:11:22	10030	corsiblockFrFwrd	recallseqFrFwrd	9	4	1387	0	111	09:11:22	3105658	1	0	0	0	0	0	0	0	0	0	0	0	0	0	0	2	0
111912	09:11:22	10030	corsiblockFrFwrd	recallseqFrFwrd	9	8	1164	0	111	09:11:22	3106871	1	0	0	0	0	0	0	0	0	0	0	0	0	0	0	2	0
111912	09:11:22	10030	corsiblockFrFwrd	recallseqFrFwrd	9	5	990	0	111	09:11:22	3107911	1	0	0	0	0	0	0	0	0	0	0	0	0	0	0	2	0
111912	09:11:22	10030	corsiblockFrFwrd	recallseqFrFwrd	9	doneCorsiFr	1334	0	111	09:11:22	3109297	1	0	0	0	0	0	0	0	0	0	0	0	0	0	0	3	0
111912	09:11:22	10030	corsiblockFrFwrd	recallseqFrFwrd	9	9	1875	0	111	09:11:22	3118307	1	0	0	0	0	0	0	0	0	0	0	0	0	0	0	3	0
111912	09:11:22	10030	corsiblockFrFwrd	recallseqFrFwrd	9	6	2115	0	111	09:11:22	3120479	1	0	0	0	0	0	0	0	0	0	0	0	0	0	0	3	0
111912	09:11:22	10030	corsiblockFrFwrd	recallseqFrFwrd	9	1	926	0	111	09:11:22	3121452	1	0	0	0	0	0	0	0	0	0	0	0	0	0	0	3	0
111912	09:11:22	10030	corsiblockFrFwrd	recallseqFrFwrd	9	doneCorsiFr	1691	0	111	09:11:22	3123198	1	0	0	0	0	0	0	0	0	0	0	0	0	0	0	3	0
111912	09:11:22	10030	corsiblockFrFwrd	recallseqFrFwrd	9	9	1693	0	111	09:11:22	3131994	1	0	0	0	0	0	0	0	0	0	0	0	0	0	0	3	0
111912	09:11:22	10030	corsiblockFrFwrd	recallseqFrFwrd	9	2	1091	0	111	09:11:22	3133141	1	0	0	0	0	0	0	0	0	0	0	0	0	0	0	3	0
111912	09:11:22	10030	corsiblockFrFwrd	recallseqFrFwrd	9	1	1624	0	111	09:11:22	3134820	1	0	0	0	0	0	0	0	0	0	0	0	0	0	0	3	0
111912	09:11:22	10030	corsiblockFrFwrd	recallseqFrFwrd	9	3	1881	0	111	09:11:22	3136753	1	0	0	0	0	0	0	0	0	0	0	0	0	0	0	3	0
111912	09:11:22	10030	corsiblockFrFwrd	recallseqFrFwrd	9	doneCorsiFr	2348	0	111	09:11:22	3139165	1	0	0	0	0	0	0	0	0	0	0	0	0	0	0	4	0
111912	09:11:22	10030	corsiblockFrFwrd	recallseqFrFwrd	9	5	1099	0	111	09:11:22	3147388	1	0	0	0	0	0	0	0	0	0	0	0	0	0	0	4	0
111912	09:11:22	10030	corsiblockFrFwrd	recallseqFrFwrd	9	4	736	0	111	09:11:22	3148175	1	0	0	0	0	0	0	0	0	0	0	0	0	0	0	4	0
111912	09:11:22	10030	corsiblockFrFwrd	recallseqFrFwrd	9	6	845	0	111	09:11:22	3149067	1	0	0	0	0	0	0	0	0	0	0	0	0	0	0	4	0
111912	09:11:22	10030	corsiblockFrFwrd	recallseqFrFwrd	9	8	1288	0	111	09:11:22	3150414	1	0	0	0	0	0	0	0	0	0	0	0	0	0	0	4	0
111912	09:11:22	10030	corsiblockFrFwrd	recallseqFrFwrd	9	7	871	0	111	09:11:22	3151333	1	0	0	0	0	0	0	0	0	0	0	0	0	0	0	4	0
111912	09:11:22	10030	corsiblockFrFwrd	recallseqFrFwrd	9	doneCorsiFr	1375	0	111	09:11:22	3152760	1	0	0	0	0	0	0	0	0	0	0	0	0	0	0	5	0
111912	09:11:22	10030	corsiblockFrFwrd	recallseqFrFwrd	9	5	1777	0	111	09:11:22	3163662	1	0	0	0	0	0	0	0	0	0	0	0	0	0	0	5	0
111912	09:11:22	10030	corsiblockFrFwrd	recallseqFrFwrd	9	3	1007	0	111	09:11:22	3164715	1	0	0	0	0	0	0	0	0	0	0	0	0	0	0	5	0
111912	09:11:22	10030	corsiblockFrFwrd	recallseqFrFwrd	9	2	850	0	111	09:11:22	3165621	1	0	0	0	0	0	0	0	0	0	0	0	0	0	0	5	0
111912	09:11:22	10030	corsiblockFrFwrd	recallseqFrFwrd	9	8	929	0	111	09:11:22	3166607	1	0	0	0	0	0	0	0	0	0	0	0	0	0	0	5	0
111912	09:11:22	10030	corsiblockFrFwrd	recallseqFrFwrd	9	9	1117	0	111	09:11:22	3167780	1	0	0	0	0	0	0	0	0	0	0	0	0	0	0	5	0
111912	09:11:22	10030	corsiblockFrFwrd	recallseqFrFwrd	9	4	728	0	111	09:11:22	3168554	1	0	0	0	0	0	0	0	0	0	0	0	0	0	0	5	0
111912	09:11:22	10030	corsiblockFrFwrd	recallseqFrFwrd	9	doneCorsiFr	806	0	111	09:11:22	3169420	1	0	0	0	0	0	0	0	0	0	0	0	0	0	0	6	0
111912	09:11:22	10030	corsiblockFrFwrd	recallseqFrFwrd	9	7	1805	0	111	09:11:22	3181348	1	0	0	0	0	0	0	0	0	0	0	0	0	0	0	6	0
111912	09:11:22	10030	corsiblockFrFwrd	recallseqFrFwrd	9	6	944	0	111	09:11:22	3182348	1	0	0	0	0	0	0	0	0	0	0	0	0	0	0	6	0
111912	09:11:22	10030	corsiblockFrFwrd	recallseqFrFwrd	9	1	1297	0	111	09:11:22	3183694	1	0	0	0	0	0	0	0	0	0	0	0	0	0	0	6	0
111912	09:11:22	10030	corsiblockFrFwrd	recallseqFrFwrd	9	2	761	0	111	09:11:22	3184520	1	0	0	0	0	0	0	0	0	0	0	0	0	0	0	6	0
111912	09:11:22	10030	corsiblockFrFwrd	recallseqFrFwrd	9	9	1404	0	111	09:11:22	3185973	1	0	0	0	0	0	0	0	0	0	0	0	0	0	0	6	0
111912	09:11:22	10030	corsiblockFrFwrd	recallseqFrFwrd	9	6	1255	0	111	09:11:22	3187279	1	0	0	0	0	0	0	0	0	0	0	0	0	0	0	6	0
111912	09:11:22	10030	corsiblockFrFwrd	recallseqFrFwrd	9	7	758	0	111	09:11:22	3188092	1	0	0	0	0	0	0	0	0	0	0	0	0	0	0	6	0
111912	09:11:22	10030	corsiblockFrFwrd	recallseqFrFwrd	9	doneCorsiFr	1125	0	111	09:11:22	3189265	1	0	0	0	0	0	0	0	0	0	0	0	0	0	0	6	0
111912	09:11:22	10030	corsiblockFrFwrd	recallseqFrFwrd	9	4	3280	0	111	09:11:22	3202633	1	0	0	0	0	0	0	0	0	0	0	0	0	0	0	6	0
111912	09:11:22	10030	corsiblockFrFwrd	recallseqFrFwrd	9	resetCorsiFr	3155	0	111	09:11:22	3205845	1	0	0	0	0	0	0	0	0	0	0	0	0	0	0	6	0
111912	09:11:22	10030	corsiblockFrFwrd	recallseqFrFwrd	9	5	1111	0	111	09:11:22	3207005	1	0	0	0	0	0	0	0	0	0	0	0	0	0	0	6	0
111912	09:11:22	10030	corsiblockFrFwrd	recallseqFrFwrd	9	3	942	0	111	09:11:22	3208004	1	0	0	0	0	0	0	0	0	0	0	0	0	0	0	6	0
111912	09:11:22	10030	corsiblockFrFwrd	recallseqFrFwrd	9	1	967	0	111	09:11:22	3209017	1	0	0	0	0	0	0	0	0	0	0	0	0	0	0	6	0
111912	09:11:22	10030	corsiblockFrFwrd	recallseqFrFwrd	9	4	2185	0	111	09:11:22	3211257	1	0	0	0	0	0	0	0	0	0	0	0	0	0	0	6	0
111912	09:11:22	10030	corsiblockFrFwrd	recallseqFrFwrd	9	7	907	0	111	09:11:22	3212229	1	0	0	0	0	0	0	0	0	0	0	0	0	0	0	6	0
111912	09:11:22	10030	corsiblockFrFwrd	recallseqFrFwrd	9	4	1239	0	111	09:11:22	3213522	1	0	0	0	0	0	0	0	0	0	0	0	0	0	0	6	0
111912	09:11:22	10030	corsiblockFrFwrd	recallseqFrFwrd	9	5	2986	0	111	09:11:22	3216561	1	0	0	0	0	0	0	0	0	0	0	0	0	0	0	6	0
111912	09:11:22	10030	corsiblockFrFwrd	recallseqFrFwrd	9	doneCorsiFr	1299	0	111	09:11:22	3217907	1	0	0	0	0	0	0	0	0	0	0	0	0	0	0	6	0
111912	09:11:22	10030	corsiblockFrRev	recallseqFrRev	10	4	2485	0	111	09:11:22	3236860	1	0	0	0	0	0	0	0	0	0	0	0	0	0	0	6	0
111912	09:11:22	10030	corsiblockFrRev	recallseqFrRev	10	1	1064	0	111	09:11:22	3237979	1	0	0	0	0	0	0	0	0	0	0	0	0	0	0	6	0
111912	09:11:22	10030	corsiblockFrRev	recallseqFrRev	10	doneCorsiFr	953	0	111	09:11:22	3238979	1	0	0	0	0	0	0	0	0	0	0	0	0	0	0	6	2
111912	09:11:22	10030	corsiblockFrRev	recallseqFrRev	10	9	1222	0	111	09:11:22	3246349	1	0	0	0	0	0	0	0	0	0	0	0	0	0	0	6	2
111912	09:11:22	10030	corsiblockFrRev	recallseqFrRev	10	8	647	0	111	09:11:22	3247043	1	0	0	0	0	0	0	0	0	0	0	0	0	0	0	6	2
111912	09:11:22	10030	corsiblockFrRev	recallseqFrRev	10	3	806	0	111	09:11:22	3247909	1	0	0	0	0	0	0	0	0	0	0	0	0	0	0	6	2
111912	09:11:22	10030	corsiblockFrRev	recallseqFrRev	10	doneCorsiFr	2359	0	111	09:11:22	3250321	1	0	0	0	0	0	0	0	0	0	0	0	0	0	0	6	3
111912	09:11:22	10030	corsiblockFrRev	recallseqFrRev	10	7	1352	0	111	09:11:22	3258811	1	0	0	0	0	0	0	0	0	0	0	0	0	0	0	6	3
111912	09:11:22	10030	corsiblockFrRev	recallseqFrRev	10	5	839	0	111	09:11:22	3259704	1	0	0	0	0	0	0	0	0	0	0	0	0	0	0	6	3
111912	09:11:22	10030	corsiblockFrRev	recallseqFrRev	10	2	1147	0	111	09:11:22	3260904	1	0	0	0	0	0	0	0	0	0	0	0	0	0	0	6	3
111912	09:11:22	10030	corsiblockFrRev	recallseqFrRev	10	6	706	0	111	09:11:22	3261666	1	0	0	0	0	0	0	0	0	0	0	0	0	0	0	6	3
111912	09:11:22	10030	corsiblockFrRev	recallseqFrRev	10	doneCorsiFr	1143	0	111	09:11:22	3262876	1	0	0	0	0	0	0	0	0	0	0	0	0	0	0	6	4
111912	09:11:22	10030	corsiblockFrRev	recallseqFrRev	10	9	1307	0	111	09:11:22	3272312	1	0	0	0	0	0	0	0	0	0	0	0	0	0	0	6	4
111912	09:11:22	10030	corsiblockFrRev	recallseqFrRev	10	8	867	0	111	09:11:22	3273232	1	0	0	0	0	0	0	0	0	0	0	0	0	0	0	6	4
111912	09:11:22	10030	corsiblockFrRev	recallseqFrRev	10	4	2163	0	111	09:11:22	3275445	1	0	0	0	0	0	0	0	0	0	0	0	0	0	0	6	4
111912	09:11:22	10030	corsiblockFrRev	recallseqFrRev	10	2	519	0	111	09:11:22	3276022	1	0	0	0	0	0	0	0	0	0	0	0	0	0	0	6	4
111912	09:11:22	10030	corsiblockFrRev	recallseqFrRev	10	1	855	0	111	09:11:22	3276937	1	0	0	0	0	0	0	0	0	0	0	0	0	0	0	6	4
111912	09:11:22	10030	corsiblockFrRev	recallseqFrRev	10	doneCorsiFr	1362	0	111	09:11:22	3278350	1	0	0	0	0	0	0	0	0	0	0	0	0	0	0	6	4
111912	09:11:22	10030	corsiblockFrRev	recallseqFrRev	10	6	3369	0	111	09:11:22	3289812	1	0	0	0	0	0	0	0	0	0	0	0	0	0	0	6	4
111912	09:11:22	10030	corsiblockFrRev	recallseqFrRev	10	7	1111	0	111	09:11:22	3290972	1	0	0	0	0	0	0	0	0	0	0	0	0	0	0	6	4
111912	09:11:22	10030	corsiblockFrRev	recallseqFrRev	10	6	1263	0	111	09:11:22	3292291	1	0	0	0	0	0	0	0	0	0	0	0	0	0	0	6	4
111912	09:11:22	10030	corsiblockFrRev	recallseqFrRev	10	5	670	0	111	09:11:22	3293024	1	0	0	0	0	0	0	0	0	0	0	0	0	0	0	6	4
111912	09:11:22	10030	corsiblockFrRev	recallseqFrRev	10	3	1451	0	111	09:11:22	3294530	1	0	0	0	0	0	0	0	0	0	0	0	0	0	0	6	4
111912	09:11:22	10030	corsiblockFrRev	recallseqFrRev	10	doneCorsiFr	1275	0	111	09:11:22	3295863	1	0	0	0	0	0	0	0	0	0	0	0	0	0	0	6	5
111912	09:11:22	10030	corsiblockFrRev	recallseqFrRev	10	2	1247	0	111	09:11:22	3305233	1	0	0	0	0	0	0	0	0	0	0	0	0	0	0	6	5
111912	09:11:22	10030	corsiblockFrRev	recallseqFrRev	10	4	707	0	111	09:11:22	3305995	1	0	0	0	0	0	0	0	0	0	0	0	0	0	0	6	5
111912	09:11:22	10030	corsiblockFrRev	recallseqFrRev	10	5	885	0	111	09:11:22	3306939	1	0	0	0	0	0	0	0	0	0	0	0	0	0	0	6	5
111912	09:11:22	10030	corsiblockFrRev	recallseqFrRev	10	3	905	0	111	09:11:22	3307898	1	0	0	0	0	0	0	0	0	0	0	0	0	0	0	6	5
111912	09:11:22	10030	corsiblockFrRev	recallseqFrRev	10	7	1282	0	111	09:11:22	3309231	1	0	0	0	0	0	0	0	0	0	0	0	0	0	0	6	5
111912	09:11:22	10030	corsiblockFrRev	recallseqFrRev	10	1	715	0	111	09:11:22	3310005	1	0	0	0	0	0	0	0	0	0	0	0	0	0	0	6	5
111912	09:11:22	10030	corsiblockFrRev	recallseqFrRev	10	doneCorsiFr	1367	0	111	09:11:22	3311417	1	0	0	0	0	0	0	0	0	0	0	0	0	0	0	6	6
111912	09:11:22	10030	corsiblockFrRev	recallseqFrRev	10	8	2022	0	111	09:11:22	3323572	1	0	0	0	0	0	0	0	0	0	0	0	0	0	0	6	6
111912	09:11:22	10030	corsiblockFrRev	recallseqFrRev	10	4	1048	0	111	09:11:22	3324692	1	0	0	0	0	0	0	0	0	0	0	0	0	0	0	6	6
111912	09:11:22	10030	corsiblockFrRev	recallseqFrRev	10	9	1013	0	111	09:11:22	3325758	1	0	0	0	0	0	0	0	0	0	0	0	0	0	0	6	6
111912	09:11:22	10030	corsiblockFrRev	recallseqFrRev	10	1	1075	0	111	09:11:22	3326891	1	0	0	0	0	0	0	0	0	0	0	0	0	0	0	6	6
111912	09:11:22	10030	corsiblockFrRev	recallseqFrRev	10	9	1245	0	111	09:11:22	3328184	1	0	0	0	0	0	0	0	0	0	0	0	0	0	0	6	6
111912	09:11:22	10030	corsiblockFrRev	recallseqFrRev	10	1	894	0	111	09:11:22	3329130	1	0	0	0	0	0	0	0	0	0	0	0	0	0	0	6	6
111912	09:11:22	10030	corsiblockFrRev	recallseqFrRev	10	7	713	0	111	09:11:22	3329890	1	0	0	0	0	0	0	0	0	0	0	0	0	0	0	6	6
111912	09:11:22	10030	corsiblockFrRev	recallseqFrRev	10	8	631	0	111	09:11:22	3330570	1	0	0	0	0	0	0	0	0	0	0	0	0	0	0	6	6
111912	09:11:22	10030	corsiblockFrRev	recallseqFrRev	10	doneCorsiFr	1008	0	111	09:11:22	3331636	1	0	0	0	0	0	0	0	0	0	0	0	0	0	0	6	6
111912	09:11:22	10030	corsiblockFrRev	recallseqFrRev	10	3	2254	0	111	09:11:22	3343991	1	0	0	0	0	0	0	0	0	0	0	0	0	0	0	6	6
111912	09:11:22	10030	corsiblockFrRev	recallseqFrRev	10	5	1076	0	111	09:11:22	3345124	1	0	0	0	0	0	0	0	0	0	0	0	0	0	0	6	6
111912	09:11:22	10030	corsiblockFrRev	recallseqFrRev	10	6	574	0	111	09:11:22	3345752	1	0	0	0	0	0	0	0	0	0	0	0	0	0	0	6	6
111912	09:11:22	10030	corsiblockFrRev	recallseqFrRev	10	5	788	0	111	09:11:22	3346590	1	0	0	0	0	0	0	0	0	0	0	0	0	0	0	6	6
111912	09:11:22	10030	corsiblockFrRev	recallseqFrRev	10	3	874	0	111	09:11:22	3347523	1	0	0	0	0	0	0	0	0	0	0	0	0	0	0	6	6
111912	09:11:22	10030	corsiblockFrRev	recallseqFrRev	10	2	860	0	111	09:11:22	3348442	1	0	0	0	0	0	0	0	0	0	0	0	0	0	0	6	6
111912	09:11:22	10030	corsiblockFrRev	recallseqFrRev	10	9	673	0	111	09:11:22	3349163	1	0	0	0	0	0	0	0	0	0	0	0	0	0	0	6	6
111912	09:11:22	10030	corsiblockFrRev	recallseqFrRev	10	1	737	0	111	09:11:22	3349948	1	0	0	0	0	0	0	0	0	0	0	0	0	0	0	6	6
111912	09:11:22	10030	corsiblockFrRev	recallseqFrRev	10	doneCorsiFr	1864	0	111	09:11:22	3351881	1	0	0	0	0	0	0	0	0	0	0	0	0	0	0	6	6
111912	09:11:22	10030	testFr3mo	WordsFr3mo	11	6Fr3mo	10295	0	111	09:11:22	3376018	1	0	0	0	0	0	3	0	0	0	0	0	0	0	0	6	6
111912	09:11:22	10030	testFr3mo	WordsFr3mo	11	7Fr3mo	299	0	111	09:11:22	3376378	1	0	0	0	0	0	3	3	0	0	0	0	0	0	0	6	6
111912	09:11:22	10030	testFr3mo	WordsFr3mo	11	5Fr3mo	11082	0	111	09:11:22	3387520	1	0	0	0	0	3	3	3	0	0	0	0	0	0	0	6	6
111912	09:11:22	10030	testFr3mo	WordsFr3mo	11	DoneFr3mo	16196	0	111	09:11:22	3403781	1	0	0	0	0	3	3	3	0	0	0	0	0	0	0	6	6
111912	09:11:22	10030	testFr3mo	Cat1Fr3mo	11	0	1	0	111	09:11:22	3403794	1	0	0	0	0	3	3	3	0	0	0	0	0	0	0	6	6
111912	09:11:22	10030	testFr3mo	Ch1Fr3mo	11	RR1Fr3mo	6110	0	111	09:11:22	3409951	1	1	0	0	0	3	3	3	0	0	0	0	0	0	0	6	6
111912	09:11:22	10030	testFr3mo	Cat2Fr3mo	11	W2Fr3mo	8584	0	111	09:11:22	3418574	1	1	0	0	0	3	3	3	0	0	0	0	0	0	0	6	6
111912	09:11:22	10030	testFr3mo	Ch2Fr3mo	11	RR2Fr3mo	3689	0	111	09:11:22	3422306	1	1	1	0	0	3	3	3	0	0	0	0	0	0	0	6	6
111912	09:11:22	10030	testFr3mo	Cat3Fr3mo	11	0	1	0	111	09:11:22	3422315	1	1	1	0	0	3	3	3	0	0	0	0	0	0	0	6	6
111912	09:11:22	10030	testFr3mo	Ch3Fr3mo	11	WW3Fr3mo	5529	0	111	09:11:22	3427891	1	1	1	0	0	3	3	3	0	0	0	0	0	0	0	6	6
111912	09:11:22	10030	testFr3mo	Cat4Fr3mo	11	W4Fr3mo	4933	0	111	09:11:22	3432862	1	1	1	0	0	3	3	3	0	0	0	0	0	0	0	6	6
111912	09:11:22	10030	testFr3mo	Ch4Fr3mo	11	RR4Fr3mo	4041	0	111	09:11:22	3436941	1	1	1	0	1	3	3	3	0	0	0	0	0	0	0	6	6
111912	09:11:22	10030	testFr3mo	Cat8Fr3mo	11	W8Fr3mo	7683	0	111	09:11:22	3444657	1	1	1	0	1	3	3	3	0	0	0	0	0	0	0	6	6
111912	09:11:22	10030	testFr3mo	Ch8Fr3mo	11	WW8Fr3mo	4182	0	111	09:11:22	3448869	1	1	1	0	1	3	3	3	0	0	0	0	0	0	0	6	6
111912	09:11:22	10030	DigitSpanFwrdFr3mo	Score1FwrdFr3mo	12	DS1	3283	0	111	09:11:22	3466795	1	1	1	0	1	3	3	3	0	0	0	0	0	0	0	6	6
111912	09:11:22	10030	DigitSpanFwrdFr3mo	Gate1FwrdFr3mo	12	0	1	0	111	09:11:22	3466801	1	1	1	0	1	3	3	3	0	3	0	0	0	0	0	6	6
111912	09:11:22	10030	DigitSpanFwrdFr3mo	Score2FwrdFr3mo	12	DS2	4707	0	111	09:11:22	3477205	1	1	1	0	1	3	3	3	0	3	0	0	0	0	0	6	6
111912	09:11:22	10030	DigitSpanFwrdFr3mo	Gate3FwrdFr3mo	12	0	1	0	111	09:11:22	3477210	1	1	1	0	1	3	3	3	0	3	0	0	0	0	0	6	6
111912	09:11:22	10030	DigitSpanFwrdFr3mo	Score22FwrdFr3mo	12	DS1	3792	0	111	09:11:22	3487054	1	1	1	0	1	3	3	3	0	3	0	0	0	0	0	6	6
111912	09:11:22	10030	DigitSpanFwrdFr3mo	Gate4FwrdFr3mo	12	0	1	0	111	09:11:22	3487060	1	1	1	0	1	3	3	3	0	4	0	0	0	0	0	6	6
111912	09:11:22	10030	DigitSpanFwrdFr3mo	Score3FwrdFr3mo	12	DS1	4857	0	111	09:11:22	3499169	1	1	1	0	1	3	3	3	0	4	0	0	0	0	0	6	6
111912	09:11:22	10030	DigitSpanFwrdFr3mo	Gate5FwrdFr3mo	12	0	1	0	111	09:11:22	3499176	1	1	1	0	1	3	3	3	0	5	0	0	0	0	0	6	6
111912	09:11:22	10030	DigitSpanFwrdFr3mo	Score4FwrdFr3mo	12	DS2	9089	0	111	09:11:22	3516776	1	1	1	0	1	3	3	3	0	5	0	0	0	0	0	6	6
111912	09:11:22	10030	DigitSpanFwrdFr3mo	Gate7FwrdFr3mo	12	0	1	0	111	09:11:22	3516781	1	1	1	0	1	3	3	3	0	5	0	0	0	0	0	6	6
111912	09:11:22	10030	DigitSpanFwrdFr3mo	Score44FwrdFr3mo	12	DS1	6240	0	111	09:11:22	3531317	1	1	1	0	1	3	3	3	0	5	0	0	0	0	0	6	6
111912	09:11:22	10030	DigitSpanFwrdFr3mo	Gate8FwrdFr3mo	12	0	1	0	111	09:11:22	3531322	1	1	1	0	1	3	3	3	0	6	0	0	0	0	0	6	6
111912	09:11:22	10030	DigitSpanFwrdFr3mo	Score5FwrdFr3mo	12	DS2	9527	0	111	09:11:22	3552908	1	1	1	0	1	3	3	3	0	6	0	0	0	0	0	6	6
111912	09:11:22	10030	DigitSpanFwrdFr3mo	Gate9FwrdFr3mo	12	0	1	0	111	09:11:22	3552914	1	1	1	0	1	3	3	3	0	6	0	0	0	0	0	6	6
111912	09:11:22	10030	DigitSpanFwrdFr3mo	Score55FwrdFr3mo	12	DS2	14671	0	111	09:11:22	3580404	1	1	1	0	1	3	3	3	0	6	0	0	0	0	0	6	6
111912	09:11:22	10030	DigitSpanFr3mo	Score1Fr3mo	13	DS1	3548	0	111	09:11:22	3596611	1	1	1	0	1	3	3	3	0	6	0	0	0	0	0	6	6
111912	09:11:22	10030	DigitSpanFr3mo	Gate1Fr3mo	13	0	1	0	111	09:11:22	3596616	1	1	1	0	1	3	3	3	0	6	2	0	0	0	0	6	6
111912	09:11:22	10030	DigitSpanFr3mo	Score2Fr3mo	13	DS2	1871	0	111	09:11:22	3603048	1	1	1	0	1	3	3	3	0	6	2	0	0	0	0	6	6
111912	09:11:22	10030	DigitSpanFr3mo	Gate3Fr3mo	13	0	1	0	111	09:11:22	3603055	1	1	1	0	1	3	3	3	0	6	2	0	0	0	0	6	6
111912	09:11:22	10030	DigitSpanFr3mo	Score22Fr3mo	13	DS1	3564	0	111	09:11:22	3610832	1	1	1	0	1	3	3	3	0	6	2	0	0	0	0	6	6
111912	09:11:22	10030	DigitSpanFr3mo	Gate4Fr3mo	13	0	1	0	111	09:11:22	3610838	1	1	1	0	1	3	3	3	0	6	3	0	0	0	0	6	6
111912	09:11:22	10030	DigitSpanFr3mo	Score3Fr3mo	13	DS1	5929	0	111	09:11:22	3622454	1	1	1	0	1	3	3	3	0	6	3	0	0	0	0	6	6
111912	09:11:22	10030	DigitSpanFr3mo	Gate5Fr3mo	13	0	1	0	111	09:11:22	3622459	1	1	1	0	1	3	3	3	0	6	4	0	0	0	0	6	6
111912	09:11:22	10030	DigitSpanFr3mo	Score4Fr3mo	13	DS2	6954	0	111	09:11:22	3636635	1	1	1	0	1	3	3	3	0	6	4	0	0	0	0	6	6
111912	09:11:22	10030	DigitSpanFr3mo	Gate7Fr3mo	13	0	1	0	111	09:11:22	3636641	1	1	1	0	1	3	3	3	0	6	4	0	0	0	0	6	6
111912	09:11:22	10030	DigitSpanFr3mo	Score44Fr3mo	13	DS2	6074	0	111	09:11:22	3649923	1	1	1	0	1	3	3	3	0	6	4	0	0	0	0	6	6
111912	09:11:22	10030	Trial	ResponseIL	14	0	175	0	111	09:11:22	3728026	1	1	1	0	1	3	3	3	0	6	4	0	0	0	0	6	6
111912	09:11:22	10030	Trial	IncongruentLeft	14	203	443	1	111	09:11:22	3728494	1	1	1	0	1	3	3	3	0	6	4	0	0	0	0	6	6
111912	09:11:22	10030	Trial	ResponseCR	14	0	175	0	111	09:11:22	3729732	1	1	1	0	1	3	3	3	0	6	4	0	0	0	0	6	6
111912	09:11:22	10030	Trial	CongruentRight	14	205	251	1	111	09:11:22	3730011	1	1	1	0	1	3	3	3	0	6	4	0	0	0	0	6	6
111912	09:11:22	10030	Trial	ResponseIR	14	0	175	0	111	09:11:22	3731438	1	1	1	0	1	3	3	3	0	6	4	0	0	0	0	6	6
111912	09:11:22	10030	Trial	IncongruentRight	14	205	615	1	111	09:11:22	3732078	1	1	1	0	1	3	3	3	0	6	4	0	0	0	0	6	6
111912	09:11:22	10030	Trial	ResponseCL	14	0	175	0	111	09:11:22	3733144	1	1	1	0	1	3	3	3	0	6	4	0	0	0	0	6	6
111912	09:11:22	10030	Trial	CongruentLeft	14	203	599	1	111	09:11:22	3733772	1	1	1	0	1	3	3	3	0	6	4	0	0	0	0	6	6
111912	09:11:22	10030	Trial	ResponseCR	14	0	175	0	111	09:11:22	3734850	1	1	1	0	1	3	3	3	0	6	4	0	0	0	0	6	6
111912	09:11:22	10030	Trial	CongruentRight	14	205	332	1	111	09:11:22	3735209	1	1	1	0	1	3	3	3	0	6	4	0	0	0	0	6	6
111912	09:11:22	10030	Trial	ResponseIR	14	0	175	0	111	09:11:22	3736556	1	1	1	0	1	3	3	3	0	6	4	0	0	0	0	6	6
111912	09:11:22	10030	Trial	IncongruentRight	14	205	483	1	111	09:11:22	3737062	1	1	1	0	1	3	3	3	0	6	4	0	0	0	0	6	6
111912	09:11:22	10030	Trial	ResponseCL	14	0	175	0	111	09:11:22	3738261	1	1	1	0	1	3	3	3	0	6	4	0	0	0	0	6	6
111912	09:11:22	10030	Trial	CongruentLeft	14	203	360	1	111	09:11:22	3738648	1	1	1	0	1	3	3	3	0	6	4	0	0	0	0	6	6
111912	09:11:22	10030	Trial	ResponseIL	14	0	175	0	111	09:11:22	3739967	1	1	1	0	1	3	3	3	0	6	4	0	0	0	0	6	6
111912	09:11:22	10030	Trial	IncongruentLeft	14	205	207	0	111	09:11:22	3740194	1	1	1	0	1	3	3	3	0	6	4	0	0	0	0	6	6
111912	09:11:22	10030	Trial	ResponseIL	14	0	175	0	111	09:11:22	3741673	1	1	1	0	1	3	3	3	0	6	4	0	0	0	0	6	6
111912	09:11:22	10030	Trial	IncongruentLeft	14	203	413	1	111	09:11:22	3742114	1	1	1	0	1	3	3	3	0	6	4	0	0	0	0	6	6
111912	09:11:22	10030	Trial	ResponseCR	14	0	175	0	111	09:11:22	3743379	1	1	1	0	1	3	3	3	0	6	4	0	0	0	0	6	6
111912	09:11:22	10030	Trial	CongruentRight	14	205	268	1	111	09:11:22	3743673	1	1	1	0	1	3	3	3	0	6	4	0	0	0	0	6	6
111912	09:11:22	10030	Trial	ResponseIR	14	0	175	0	111	09:11:22	3745085	1	1	1	0	1	3	3	3	0	6	4	0	0	0	0	6	6
111912	09:11:22	10030	Trial	IncongruentRight	14	205	499	1	111	09:11:22	3745605	1	1	1	0	1	3	3	3	0	6	4	0	0	0	0	6	6
111912	09:11:22	10030	Trial	ResponseCL	14	0	175	0	111	09:11:22	3746791	1	1	1	0	1	3	3	3	0	6	4	0	0	0	0	6	6
111912	09:11:22	10030	Trial	CongruentLeft	14	203	445	1	111	09:11:22	3747258	1	1	1	0	1	3	3	3	0	6	4	0	0	0	0	6	6
111912	09:11:22	10030	Trial	ResponseCR	14	0	175	0	111	09:11:22	3748498	1	1	1	0	1	3	3	3	0	6	4	0	0	0	0	6	6
111912	09:11:22	10030	Trial	CongruentRight	14	205	380	1	111	09:11:22	3748897	1	1	1	0	1	3	3	3	0	6	4	0	0	0	0	6	6
111912	09:11:22	10030	Trial	ResponseIL	14	0	175	0	111	09:11:22	3750203	1	1	1	0	1	3	3	3	0	6	4	0	0	0	0	6	6
111912	09:11:22	10030	Trial	IncongruentLeft	14	203	404	1	111	09:11:22	3750630	1	1	1	0	1	3	3	3	0	6	4	0	0	0	0	6	6
111912	09:11:22	10030	Trial	ResponseIR	14	0	175	0	111	09:11:22	3751909	1	1	1	0	1	3	3	3	0	6	4	0	0	0	0	6	6
111912	09:11:22	10030	Trial	IncongruentRight	14	205	463	1	111	09:11:22	3752390	1	1	1	0	1	3	3	3	0	6	4	0	0	0	0	6	6
111912	09:11:22	10030	Trial	ResponseCR	14	0	175	0	111	09:11:22	3753615	1	1	1	0	1	3	3	3	0	6	4	0	0	0	0	6	6
111912	09:11:22	10030	Trial	CongruentRight	14	205	383	1	111	09:11:22	3754015	1	1	1	0	1	3	3	3	0	6	4	0	0	0	0	6	6
111912	09:11:22	10030	Trial	ResponseCL	14	0	175	0	111	09:11:22	3755321	1	1	1	0	1	3	3	3	0	6	4	0	0	0	0	6	6
111912	09:11:22	10030	Trial	CongruentLeft	14	203	373	1	111	09:11:22	3755721	1	1	1	0	1	3	3	3	0	6	4	0	0	0	0	6	6
111912	09:11:22	10030	Trial	ResponseCR	14	0	175	0	111	09:11:22	3757027	1	1	1	0	1	3	3	3	0	6	4	0	0	0	0	6	6
111912	09:11:22	10030	Trial	CongruentRight	14	205	283	1	111	09:11:22	3757334	1	1	1	0	1	3	3	3	0	6	4	0	0	0	0	6	6
111912	09:11:22	10030	Trial	ResponseIR	14	0	175	0	111	09:11:22	3758733	1	1	1	0	1	3	3	3	0	6	4	0	0	0	0	6	6
111912	09:11:22	10030	Trial	IncongruentRight	14	205	401	1	111	09:11:22	3759160	1	1	1	0	1	3	3	3	0	6	4	0	0	0	0	6	6
111912	09:11:22	10030	Trial	ResponseIL	14	0	175	0	111	09:11:22	3760439	1	1	1	0	1	3	3	3	0	6	4	0	0	0	0	6	6
111912	09:11:22	10030	Trial	IncongruentLeft	14	203	419	1	111	09:11:22	3760883	1	1	1	0	1	3	3	3	0	6	4	0	0	0	0	6	6
111912	09:11:22	10030	Trial	ResponseIL	14	0	175	0	111	09:11:22	3762145	1	1	1	0	1	3	3	3	0	6	4	0	0	0	0	6	6
111912	09:11:22	10030	Trial	IncongruentLeft	14	205	205	0	111	09:11:22	3762372	1	1	1	0	1	3	3	3	0	6	4	0	0	0	0	6	6
111912	09:11:22	10030	Trial	ResponseCL	14	0	175	0	111	09:11:22	3763851	1	1	1	0	1	3	3	3	0	6	4	0	0	0	0	6	6
111912	09:11:22	10030	Trial	CongruentLeft	14	203	499	1	111	09:11:22	3764371	1	1	1	0	1	3	3	3	0	6	4	0	0	0	0	6	6
111912	09:11:22	10030	Trial	ResponseCR	14	0	175	0	111	09:11:22	3765557	1	1	1	0	1	3	3	3	0	6	4	0	0	0	0	6	6
111912	09:11:22	10030	Trial	CongruentRight	14	205	426	1	111	09:11:22	3766016	1	1	1	0	1	3	3	3	0	6	4	0	0	0	0	6	6
111912	09:11:22	10030	Trial	ResponseIL	14	0	175	0	111	09:11:22	3767263	1	1	1	0	1	3	3	3	0	6	4	0	0	0	0	6	6
111912	09:11:22	10030	Trial	IncongruentLeft	14	203	475	1	111	09:11:22	3767761	1	1	1	0	1	3	3	3	0	6	4	0	0	0	0	6	6
111912	09:11:22	10030	Trial	ResponseIR	14	0	175	0	111	09:11:22	3768969	1	1	1	0	1	3	3	3	0	6	4	0	0	0	0	6	6
111912	09:11:22	10030	Trial	IncongruentRight	14	205	532	1	111	09:11:22	3769530	1	1	1	0	1	3	3	3	0	6	4	0	0	0	0	6	6
111912	09:11:22	10030	Trial	ResponseCR	14	0	175	0	111	09:11:22	3770675	1	1	1	0	1	3	3	3	0	6	4	0	0	0	0	6	6
111912	09:11:22	10030	Trial	CongruentRight	14	205	457	1	111	09:11:22	3771159	1	1	1	0	1	3	3	3	0	6	4	0	0	0	0	6	6
111912	09:11:22	10030	Trial	ResponseCL	14	0	175	0	111	09:11:22	3772381	1	1	1	0	1	3	3	3	0	6	4	0	0	0	0	6	6
111912	09:11:22	10030	Trial	CongruentLeft	14	203	461	1	111	09:11:22	3772861	1	1	1	0	1	3	3	3	0	6	4	0	0	0	0	6	6
111912	09:11:22	10030	Trial	ResponseIR	14	0	175	0	111	09:11:22	3774087	1	1	1	0	1	3	3	3	0	6	4	0	0	0	0	6	6
111912	09:11:22	10030	Trial	IncongruentRight	14	205	533	1	111	09:11:22	3774648	1	1	1	0	1	3	3	3	0	6	4	0	0	0	0	6	6
111912	09:11:22	10030	Trial	ResponseIL	14	0	175	0	111	09:11:22	3775793	1	1	1	0	1	3	3	3	0	6	4	0	0	0	0	6	6
111912	09:11:22	10030	Trial	IncongruentLeft	14	203	534	1	111	09:11:22	3776353	1	1	1	0	1	3	3	3	0	6	4	0	0	0	0	6	6
111912	09:11:22	10030	Trial	ResponseIR	14	0	175	0	111	09:11:22	3777499	1	1	1	0	1	3	3	3	0	6	4	0	0	0	0	6	6
111912	09:11:22	10030	Trial	IncongruentRight	14	205	464	1	111	09:11:22	3777993	1	1	1	0	1	3	3	3	0	6	4	0	0	0	0	6	6
111912	09:11:22	10030	Trial	ResponseCR	14	0	175	0	111	09:11:22	3779205	1	1	1	0	1	3	3	3	0	6	4	0	0	0	0	6	6
111912	09:11:22	10030	Trial	CongruentRight	14	205	426	1	111	09:11:22	3779663	1	1	1	0	1	3	3	3	0	6	4	0	0	0	0	6	6
111912	09:11:22	10030	Trial	ResponseIL	14	0	175	0	111	09:11:22	3780911	1	1	1	0	1	3	3	3	0	6	4	0	0	0	0	6	6
111912	09:11:22	10030	Trial	IncongruentLeft	14	203	577	1	111	09:11:22	3781518	1	1	1	0	1	3	3	3	0	6	4	0	0	0	0	6	6
111912	09:11:22	10030	Trial	ResponseCL	14	0	175	0	111	09:11:22	3782618	1	1	1	0	1	3	3	3	0	6	4	0	0	0	0	6	6
111912	09:11:22	10030	Trial	CongruentLeft	14	203	444	1	111	09:11:22	3783087	1	1	1	0	1	3	3	3	0	6	4	0	0	0	0	6	6
111912	09:11:22	10030	Trial	ResponseCR	14	0	175	0	111	09:11:22	3784323	1	1	1	0	1	3	3	3	0	6	4	0	0	0	0	6	6
111912	09:11:22	10030	Trial	CongruentRight	14	205	601	1	111	09:11:22	3784950	1	1	1	0	1	3	3	3	0	6	4	0	0	0	0	6	6
111912	09:11:22	10030	Trial	ResponseIL	14	0	175	0	111	09:11:22	3786029	1	1	1	0	1	3	3	3	0	6	4	0	0	0	0	6	6
111912	09:11:22	10030	Trial	IncongruentLeft	14	203	490	1	111	09:11:22	3786553	1	1	1	0	1	3	3	3	0	6	4	0	0	0	0	6	6
111912	09:11:22	10030	Trial	ResponseIR	14	0	175	0	111	09:11:22	3787735	1	1	1	0	1	3	3	3	0	6	4	0	0	0	0	6	6
111912	09:11:22	10030	Trial	IncongruentRight	14	205	413	1	111	09:11:22	3788175	1	1	1	0	1	3	3	3	0	6	4	0	0	0	0	6	6
111912	09:11:22	10030	Trial	ResponseIR	14	0	175	0	111	09:11:22	3789441	1	1	1	0	1	3	3	3	0	6	4	0	0	0	0	6	6
111912	09:11:22	10030	Trial	IncongruentRight	14	205	545	1	111	09:11:22	3790022	1	1	1	0	1	3	3	3	0	6	4	0	0	0	0	6	6
111912	09:11:22	10030	Trial	ResponseCL	14	0	175	0	111	09:11:22	3791147	1	1	1	0	1	3	3	3	0	6	4	0	0	0	0	6	6
111912	09:11:22	10030	Trial	CongruentLeft	14	203	465	1	111	09:11:22	3791647	1	1	1	0	1	3	3	3	0	6	4	0	0	0	0	6	6
111912	09:11:22	10030	Trial	ResponseIL	14	0	175	0	111	09:11:22	3792854	1	1	1	0	1	3	3	3	0	6	4	0	0	0	0	6	6
111912	09:11:22	10030	Trial	IncongruentLeft	14	203	327	1	111	09:11:22	3793200	1	1	1	0	1	3	3	3	0	6	4	0	0	0	0	6	6
111912	09:11:22	10030	Trial	ResponseCR	14	0	175	0	111	09:11:22	3794560	1	1	1	0	1	3	3	3	0	6	4	0	0	0	0	6	6
111912	09:11:22	10030	Trial	CongruentRight	14	205	496	1	111	09:11:22	3795079	1	1	1	0	1	3	3	3	0	6	4	0	0	0	0	6	6
111912	09:11:22	10030	Trial	ResponseCL	14	0	175	0	111	09:11:22	3796279	1	1	1	0	1	3	3	3	0	6	4	0	0	0	0	6	6
111912	09:11:22	10030	Trial	CongruentLeft	14	203	423	1	111	09:11:22	3796734	1	1	1	0	1	3	3	3	0	6	4	0	0	0	0	6	6
111912	09:11:22	10030	Trial	ResponseIR	14	0	175	0	111	09:11:22	3797985	1	1	1	0	1	3	3	3	0	6	4	0	0	0	0	6	6
111912	09:11:22	10030	Trial	IncongruentRight	14	205	527	1	111	09:11:22	3798531	1	1	1	0	1	3	3	3	0	6	4	0	0	0	0	6	6
111912	09:11:22	10030	Trial	ResponseCR	14	0	175	0	111	09:11:22	3799691	1	1	1	0	1	3	3	3	0	6	4	0	0	0	0	6	6
111912	09:11:22	10030	Trial	CongruentRight	14	205	290	1	111	09:11:22	3800011	1	1	1	0	1	3	3	3	0	6	4	0	0	0	0	6	6
111912	09:11:22	10030	Trial	ResponseIL	14	0	175	0	111	09:11:22	3801397	1	1	1	0	1	3	3	3	0	6	4	0	0	0	0	6	6
111912	09:11:22	10030	Trial	IncongruentLeft	14	203	361	1	111	09:11:22	3801783	1	1	1	0	1	3	3	3	0	6	4	0	0	0	0	6	6
111912	09:11:22	10030	Trial	ResponseCL	14	0	175	0	111	09:11:22	3803103	1	1	1	0	1	3	3	3	0	6	4	0	0	0	0	6	6
111912	09:11:22	10030	Trial	CongruentLeft	14	203	535	1	111	09:11:22	3803667	1	1	1	0	1	3	3	3	0	6	4	0	0	0	0	6	6
111912	09:11:22	10030	Trial	ResponseIL	14	0	175	0	111	09:11:22	3804809	1	1	1	0	1	3	3	3	0	6	4	0	0	0	0	6	6
111912	09:11:22	10030	Trial	IncongruentLeft	14	205	213	0	111	09:11:22	3805049	1	1	1	0	1	3	3	3	0	6	4	0	0	0	0	6	6
111912	09:11:22	10030	Trial	ResponseIR	14	0	175	0	111	09:11:22	3806515	1	1	1	0	1	3	3	3	0	6	4	0	0	0	0	6	6
111912	09:11:22	10030	Trial	IncongruentRight	14	205	411	1	111	09:11:22	3806955	1	1	1	0	1	3	3	3	0	6	4	0	0	0	0	6	6
111912	09:11:22	10030	Trial	ResponseCR	14	0	175	0	111	09:11:22	3808221	1	1	1	0	1	3	3	3	0	6	4	0	0	0	0	6	6
111912	09:11:22	10030	Trial	CongruentRight	14	205	336	1	111	09:11:22	3808580	1	1	1	0	1	3	3	3	0	6	4	0	0	0	0	6	6
111912	09:11:22	10030	Trial	ResponseCL	14	0	175	0	111	09:11:22	3809927	1	1	1	0	1	3	3	3	0	6	4	0	0	0	0	6	6
111912	09:11:22	10030	Trial	CongruentLeft	14	203	343	1	111	09:11:22	3810286	1	1	1	0	1	3	3	3	0	6	4	0	0	0	0	6	6
111912	09:11:22	10030	Trial	ResponseCL	14	0	175	0	111	09:11:22	3811646	1	1	1	0	1	3	3	3	0	6	4	0	0	0	0	6	6
111912	09:11:22	10030	Trial	CongruentLeft	14	203	353	1	111	09:11:22	3812032	1	1	1	0	1	3	3	3	0	6	4	0	0	0	0	6	6
111912	09:11:22	10030	Trial	ResponseIR	14	0	175	0	111	09:11:22	3813352	1	1	1	0	1	3	3	3	0	6	4	0	0	0	0	6	6
111912	09:11:22	10030	Trial	IncongruentRight	14	205	310	1	111	09:11:22	3813685	1	1	1	0	1	3	3	3	0	6	4	0	0	0	0	6	6
111912	09:11:22	10030	Trial	ResponseIL	14	0	175	0	111	09:11:22	3815058	1	1	1	0	1	3	3	3	0	6	4	0	0	0	0	6	6
111912	09:11:22	10030	Trial	IncongruentLeft	14	203	315	1	111	09:11:22	3815391	1	1	1	0	1	3	3	3	0	6	4	0	0	0	0	6	6
111912	09:11:22	10030	Trial	ResponseIR	14	0	175	0	111	09:11:22	3816764	1	1	1	0	1	3	3	3	0	6	4	0	0	0	0	6	6
111912	09:11:22	10030	Trial	IncongruentRight	14	205	354	1	111	09:11:22	3817137	1	1	1	0	1	3	3	3	0	6	4	0	0	0	0	6	6
111912	09:11:22	10030	Trial	ResponseCR	14	0	175	0	111	09:11:22	3818470	1	1	1	0	1	3	3	3	0	6	4	0	0	0	0	6	6
111912	09:11:22	10030	Trial	CongruentRight	14	205	280	1	111	09:11:22	3818776	1	1	1	0	1	3	3	3	0	6	4	0	0	0	0	6	6
111912	09:11:22	10030	Trial	ResponseCR	14	0	175	0	111	09:11:22	3820176	1	1	1	0	1	3	3	3	0	6	4	0	0	0	0	6	6
111912	09:11:22	10030	Trial	CongruentRight	14	205	333	1	111	09:11:22	3820536	1	1	1	0	1	3	3	3	0	6	4	0	0	0	0	6	6
111912	09:11:22	10030	Trial	ResponseIL	14	0	175	0	111	09:11:22	3821882	1	1	1	0	1	3	3	3	0	6	4	0	0	0	0	6	6
111912	09:11:22	10030	Trial	IncongruentLeft	14	203	324	1	111	09:11:22	3822228	1	1	1	0	1	3	3	3	0	6	4	0	0	0	0	6	6
111912	09:11:22	10030	Trial	ResponseCL	14	0	175	0	111	09:11:22	3823588	1	1	1	0	1	3	3	3	0	6	4	0	0	0	0	6	6
111912	09:11:22	10030	Trial	CongruentLeft	14	203	218	1	111	09:11:22	3823828	1	1	1	0	1	3	3	3	0	6	4	0	0	0	0	6	6
111912	09:11:22	10030	Trial	ResponseCR	14	0	175	0	111	09:11:22	3825294	1	1	1	0	1	3	3	3	0	6	4	0	0	0	0	6	6
111912	09:11:22	10030	Trial	CongruentRight	14	205	383	1	111	09:11:22	3825714	1	1	1	0	1	3	3	3	0	6	4	0	0	0	0	6	6
111912	09:11:22	10030	Trial	ResponseCL	14	0	175	0	111	09:11:22	3827000	1	1	1	0	1	3	3	3	0	6	4	0	0	0	0	6	6
111912	09:11:22	10030	Trial	CongruentLeft	14	205	230	0	111	09:11:22	3827253	1	1	1	0	1	3	3	3	0	6	4	0	0	0	0	6	6
111912	09:11:22	10030	Trial	ResponseIR	14	0	175	0	111	09:11:22	3828706	1	1	1	0	1	3	3	3	0	6	4	0	0	0	0	6	6
111912	09:11:22	10030	Trial	IncongruentRight	14	205	412	1	111	09:11:22	3829148	1	1	1	0	1	3	3	3	0	6	4	0	0	0	0	6	6
111912	09:11:22	10030	Trial	ResponseCR	14	0	175	0	111	09:11:22	3830412	1	1	1	0	1	3	3	3	0	6	4	0	0	0	0	6	6
111912	09:11:22	10030	Trial	CongruentRight	14	205	209	1	111	09:11:22	3830638	1	1	1	0	1	3	3	3	0	6	4	0	0	0	0	6	6
111912	09:11:22	10030	Trial	ResponseCL	14	0	175	0	111	09:11:22	3832118	1	1	1	0	1	3	3	3	0	6	4	0	0	0	0	6	6
111912	09:11:22	10030	Trial	CongruentLeft	14	203	278	1	111	09:11:22	3832425	1	1	1	0	1	3	3	3	0	6	4	0	0	0	0	6	6
111912	09:11:22	10030	Trial	ResponseIL	14	0	175	0	111	09:11:22	3833824	1	1	1	0	1	3	3	3	0	6	4	0	0	0	0	6	6
111912	09:11:22	10030	Trial	IncongruentLeft	14	203	461	1	111	09:11:22	3834304	1	1	1	0	1	3	3	3	0	6	4	0	0	0	0	6	6
111912	09:11:22	10030	Trial	ResponseIL	14	0	175	0	111	09:11:22	3835530	1	1	1	0	1	3	3	3	0	6	4	0	0	0	0	6	6
111912	09:11:22	10030	Trial	IncongruentLeft	14	203	536	1	111	09:11:22	3836090	1	1	1	0	1	3	3	3	0	6	4	0	0	0	0	6	6
111912	09:11:22	10030	Trial	ResponseCR	14	0	175	0	111	09:11:22	3837236	1	1	1	0	1	3	3	3	0	6	4	0	0	0	0	6	6
111912	09:11:22	10030	Trial	CongruentRight	14	205	377	1	111	09:11:22	3837636	1	1	1	0	1	3	3	3	0	6	4	0	0	0	0	6	6
111912	09:11:22	10030	Trial	ResponseIR	14	0	175	0	111	09:11:22	3838942	1	1	1	0	1	3	3	3	0	6	4	0	0	0	0	6	6
111912	09:11:22	10030	Trial	IncongruentRight	14	205	568	1	111	09:11:22	3839536	1	1	1	0	1	3	3	3	0	6	4	0	0	0	0	6	6
111912	09:11:22	10030	Trial	ResponseCL	14	0	175	0	111	09:11:22	3840648	1	1	1	0	1	3	3	3	0	6	4	0	0	0	0	6	6
111912	09:11:22	10030	Trial	CongruentLeft	14	203	389	1	111	09:11:22	3841061	1	1	1	0	1	3	3	3	0	6	4	0	0	0	0	6	6
111912	09:11:22	10030	Trial	ResponseIR	14	0	175	0	111	09:11:22	3842354	1	1	1	0	1	3	3	3	0	6	4	0	0	0	0	6	6
111912	09:11:22	10030	Trial	IncongruentRight	14	205	330	1	111	09:11:22	3842714	1	1	1	0	1	3	3	3	0	6	4	0	0	0	0	6	6
111912	09:11:22	10030	Trial	ResponseCR	14	0	175	0	111	09:11:22	3844060	1	1	1	0	1	3	3	3	0	6	4	0	0	0	0	6	6
111912	09:11:22	10030	Trial	CongruentRight	14	203	209	0	111	09:11:22	3844286	1	1	1	0	1	3	3	3	0	6	4	0	0	0	0	6	6
111912	09:11:22	10030	Trial	ResponseIL	14	0	175	0	111	09:11:22	3845766	1	1	1	0	1	3	3	3	0	6	4	0	0	0	0	6	6
111912	09:11:22	10030	Trial	IncongruentLeft	14	203	426	1	111	09:11:22	3846223	1	1	1	0	1	3	3	3	0	6	4	0	0	0	0	6	6
111912	09:11:22	10030	Trial	ResponseCL	14	0	175	0	111	09:11:22	3847472	1	1	1	0	1	3	3	3	0	6	4	0	0	0	0	6	6
111912	09:11:22	10030	Trial	CongruentLeft	14	203	381	1	111	09:11:22	3847872	1	1	1	0	1	3	3	3	0	6	4	0	0	0	0	6	6
111912	09:11:22	10030	Trial	ResponseCR	14	0	175	0	111	09:11:22	3849178	1	1	1	0	1	3	3	3	0	6	4	0	0	0	0	6	6
111912	09:11:22	10030	Trial	CongruentRight	14	205	462	1	111	09:11:22	3849658	1	1	1	0	1	3	3	3	0	6	4	0	0	0	0	6	6
111912	09:11:22	10030	Trial	ResponseIL	14	0	175	0	111	09:11:22	3850884	1	1	1	0	1	3	3	3	0	6	4	0	0	0	0	6	6
111912	09:11:22	10030	Trial	IncongruentLeft	14	203	450	1	111	09:11:22	3851352	1	1	1	0	1	3	3	3	0	6	4	0	0	0	0	6	6
111912	09:11:22	10030	Trial	ResponseCR	14	0	175	0	111	09:11:22	3852590	1	1	1	0	1	3	3	3	0	6	4	0	0	0	0	6	6
111912	09:11:22	10030	Trial	CongruentRight	14	205	615	1	111	09:11:22	3853231	1	1	1	0	1	3	3	3	0	6	4	0	0	0	0	6	6
111912	09:11:22	10030	Trial	ResponseCR	14	0	175	0	111	09:11:22	3854296	1	1	1	0	1	3	3	3	0	6	4	0	0	0	0	6	6
111912	09:11:22	10030	Trial	CongruentRight	14	205	389	1	111	09:11:22	3854718	1	1	1	0	1	3	3	3	0	6	4	0	0	0	0	6	6
111912	09:11:22	10030	Trial	ResponseIR	14	0	175	0	111	09:11:22	3856068	1	1	1	0	1	3	3	3	0	6	4	0	0	0	0	6	6
111912	09:11:22	10030	Trial	IncongruentRight	14	205	439	1	111	09:11:22	3856535	1	1	1	0	1	3	3	3	0	6	4	0	0	0	0	6	6
111912	09:11:22	10030	Trial	ResponseCL	14	0	175	0	111	09:11:22	3857774	1	1	1	0	1	3	3	3	0	6	4	0	0	0	0	6	6
111912	09:11:22	10030	Trial	CongruentLeft	14	203	569	1	111	09:11:22	3858361	1	1	1	0	1	3	3	3	0	6	4	0	0	0	0	6	6
111912	09:11:22	10030	Trial	ResponseIL	14	0	175	0	111	09:11:22	3859480	1	1	1	0	1	3	3	3	0	6	4	0	0	0	0	6	6
111912	09:11:22	10030	Trial	IncongruentLeft	14	203	500	1	111	09:11:22	3860001	1	1	1	0	1	3	3	3	0	6	4	0	0	0	0	6	6
111912	09:11:22	10030	Trial	ResponseCL	14	0	175	0	111	09:11:22	3861186	1	1	1	0	1	3	3	3	0	6	4	0	0	0	0	6	6
111912	09:11:22	10030	Trial	CongruentLeft	14	203	330	1	111	09:11:22	3861546	1	1	1	0	1	3	3	3	0	6	4	0	0	0	0	6	6
111912	09:11:22	10030	Trial	ResponseIR	14	0	175	0	111	09:11:22	3862892	1	1	1	0	1	3	3	3	0	6	4	0	0	0	0	6	6
111912	09:11:22	10030	Trial	IncongruentRight	14	205	533	1	111	09:11:22	3863460	1	1	1	0	1	3	3	3	0	6	4	0	0	0	0	6	6
111912	09:11:22	10030	Trial	ResponseIL	14	0	175	0	111	09:11:22	3864598	1	1	1	0	1	3	3	3	0	6	4	0	0	0	0	6	6
111912	09:11:22	10030	Trial	IncongruentLeft	14	203	389	1	111	09:11:22	3865011	1	1	1	0	1	3	3	3	0	6	4	0	0	0	0	6	6
111912	09:11:22	10030	Trial	ResponseCR	14	0	175	0	111	09:11:22	3866304	1	1	1	0	1	3	3	3	0	6	4	0	0	0	0	6	6
111912	09:11:22	10030	Trial	CongruentRight	14	205	450	1	111	09:11:22	3866784	1	1	1	0	1	3	3	3	0	6	4	0	0	0	0	6	6
111912	09:11:22	10030	Trial	ResponseCL	14	0	175	0	111	09:11:22	3868011	1	1	1	0	1	3	3	3	0	6	4	0	0	0	0	6	6
111912	09:11:22	10030	Trial	CongruentLeft	14	203	461	1	111	09:11:22	3868490	1	1	1	0	1	3	3	3	0	6	4	0	0	0	0	6	6
111912	09:11:22	10030	Trial	ResponseIL	14	0	175	0	111	09:11:22	3869716	1	1	1	0	1	3	3	3	0	6	4	0	0	0	0	6	6
111912	09:11:22	10030	Trial	IncongruentLeft	14	203	546	1	111	09:11:22	3870290	1	1	1	0	1	3	3	3	0	6	4	0	0	0	0	6	6
111912	09:11:22	10030	Trial	ResponseCL	14	0	175	0	111	09:11:22	3871436	1	1	1	0	1	3	3	3	0	6	4	0	0	0	0	6	6
111912	09:11:22	10030	Trial	CongruentLeft	14	203	321	1	111	09:11:22	3871782	1	1	1	0	1	3	3	3	0	6	4	0	0	0	0	6	6
111912	09:11:22	10030	Trial	ResponseIR	14	0	175	0	111	09:11:22	3873142	1	1	1	0	1	3	3	3	0	6	4	0	0	0	0	6	6
111912	09:11:22	10030	Trial	IncongruentRight	14	205	466	1	111	09:11:22	3873642	1	1	1	0	1	3	3	3	0	6	4	0	0	0	0	6	6
111912	09:11:22	10030	Trial	ResponseCR	14	0	175	0	111	09:11:22	3874848	1	1	1	0	1	3	3	3	0	6	4	0	0	0	0	6	6
111912	09:11:22	10030	Trial	CongruentRight	14	205	333	1	111	09:11:22	3875208	1	1	1	0	1	3	3	3	0	6	4	0	0	0	0	6	6
111912	09:11:22	10030	Trial	ResponseIL	14	0	175	0	111	09:11:22	3876554	1	1	1	0	1	3	3	3	0	6	4	0	0	0	0	6	6
111912	09:11:22	10030	Trial	IncongruentLeft	14	203	432	1	111	09:11:22	3877012	1	1	1	0	1	3	3	3	0	6	4	0	0	0	0	6	6
111912	09:11:22	10030	Trial	ResponseCL	14	0	175	0	111	09:11:22	3878260	1	1	1	0	1	3	3	3	0	6	4	0	0	0	0	6	6
111912	09:11:22	10030	Trial	CongruentLeft	14	203	393	1	111	09:11:22	3878673	1	1	1	0	1	3	3	3	0	6	4	0	0	0	0	6	6
111912	09:11:22	10030	Trial	ResponseIR	14	0	175	0	111	09:11:22	3879966	1	1	1	0	1	3	3	3	0	6	4	0	0	0	0	6	6
111912	09:11:22	10030	Trial	IncongruentRight	14	205	383	1	111	09:11:22	3880365	1	1	1	0	1	3	3	3	0	6	4	0	0	0	0	6	6
111912	09:11:22	10030	Trial	ResponseIL	14	0	175	0	111	09:11:22	3881672	1	1	1	0	1	3	3	3	0	6	4	0	0	0	0	6	6
111912	09:11:22	10030	Trial	IncongruentLeft	14	203	601	1	111	09:11:22	3882298	1	1	1	0	1	3	3	3	0	6	4	0	0	0	0	6	6
111912	09:11:22	10030	Trial	ResponseCL	14	0	175	0	111	09:11:22	3883378	1	1	1	0	1	3	3	3	0	6	4	0	0	0	0	6	6
111912	09:11:22	10030	Trial	CongruentLeft	14	203	330	1	111	09:11:22	3883738	1	1	1	0	1	3	3	3	0	6	4	0	0	0	0	6	6
111912	09:11:22	10030	Trial	ResponseIL	14	0	175	0	111	09:11:22	3885084	1	1	1	0	1	3	3	3	0	6	4	0	0	0	0	6	6
111912	09:11:22	10030	Trial	IncongruentLeft	14	203	265	1	111	09:11:22	3885377	1	1	1	0	1	3	3	3	0	6	4	0	0	0	0	6	6
111912	09:11:22	10030	Trial	ResponseCR	14	0	175	0	111	09:11:22	3886790	1	1	1	0	1	3	3	3	0	6	4	0	0	0	0	6	6
111912	09:11:22	10030	Trial	CongruentRight	14	205	311	1	111	09:11:22	3887123	1	1	1	0	1	3	3	3	0	6	4	0	0	0	0	6	6
111912	09:11:22	10030	Trial	ResponseCL	14	0	175	0	111	09:11:22	3888496	1	1	1	0	1	3	3	3	0	6	4	0	0	0	0	6	6
111912	09:11:22	10030	Trial	CongruentLeft	14	203	236	1	111	09:11:22	3888762	1	1	1	0	1	3	3	3	0	6	4	0	0	0	0	6	6
111912	09:11:22	10030	Trial	ResponseIR	14	0	175	0	111	09:11:22	3890202	1	1	1	0	1	3	3	3	0	6	4	0	0	0	0	6	6
111912	09:11:22	10030	Trial	IncongruentRight	14	203	241	0	111	09:11:22	3890468	1	1	1	0	1	3	3	3	0	6	4	0	0	0	0	6	6
111912	09:11:22	10030	Trial	ResponseCL	14	0	175	0	111	09:11:22	3891908	1	1	1	0	1	3	3	3	0	6	4	0	0	0	0	6	6
111912	09:11:22	10030	Trial	CongruentLeft	14	203	454	1	111	09:11:22	3892389	1	1	1	0	1	3	3	3	0	6	4	0	0	0	0	6	6
111912	09:11:22	10030	Trial	ResponseCR	14	0	175	0	111	09:11:22	3893614	1	1	1	0	1	3	3	3	0	6	4	0	0	0	0	6	6
111912	09:11:22	10030	Trial	CongruentRight	14	205	575	1	111	09:11:22	3894216	1	1	1	0	1	3	3	3	0	6	4	0	0	0	0	6	6
111912	09:11:22	10030	Trial	ResponseIL	14	0	175	0	111	09:11:22	3895320	1	1	1	0	1	3	3	3	0	6	4	0	0	0	0	6	6
111912	09:11:22	10030	Trial	IncongruentLeft	14	203	356	1	111	09:11:22	3895706	1	1	1	0	1	3	3	3	0	6	4	0	0	0	0	6	6
111912	09:11:22	10030	WordsAbsFrThreemo	PAbsFrThreemo1	16	Abs2	6946	0	111	09:11:22	3910207	1	1	1	0	1	3	3	3	0	6	4	0	0	0	0	6	6
111912	09:11:22	10030	WordsAbsFrThreemo	PAbsFrThreemo2	16	Abs1	13138	0	111	09:11:22	3923375	1	1	1	0	1	3	3	3	0	6	4	0	0	0	0	6	6
111912	09:11:22	10030	WordsAbsFrThreemo	AbsFrThreemo1	16	Abs1	14425	0	111	09:11:22	3937836	1	1	1	0	1	3	3	3	0	6	4	1	0	0	0	6	6
111912	09:11:22	10030	WordsAbsFrThreemo	AbsFrThreemo2	16	Abs2	13020	0	111	09:11:22	3950898	1	1	1	0	1	3	3	3	0	6	4	1	0	0	0	6	6
111912	09:11:22	10030	WordsAbsFrThreemo	AbsFrThreemo3	16	Abs1	11678	0	111	09:11:22	3962613	1	1	1	0	1	3	3	3	0	6	4	2	0	0	0	6	6
111912	09:11:22	10030	Trial2BackFrS	NS	17	0	1000	1	111	09:11:22	4018498	1	1	1	0	1	3	3	3	0	6	4	2	0	0	0	6	6
111912	09:11:22	10030	Trial2BackFrS	NS	17	0	1000	1	111	09:11:22	4020017	1	1	1	0	1	3	3	3	0	6	4	2	0	0	0	6	6
111912	09:11:22	10030	Trial2BackFrS	NS	17	0	1000	1	111	09:11:22	4021523	1	1	1	0	1	3	3	3	0	6	4	2	0	0	0	6	6
111912	09:11:22	10030	Trial2BackFrS	YS	17	0	1000	0	111	09:11:22	4023029	1	1	1	0	1	3	3	3	0	6	4	2	0	0	0	6	6
111912	09:11:22	10030	Trial2BackFrS	NS	17	0	1000	1	111	09:11:22	4024535	1	1	1	0	1	3	3	3	0	6	4	2	0	0	0	6	6
111912	09:11:22	10030	Trial2BackFrS	NS	17	0	1000	1	111	09:11:22	4026041	1	1	1	0	1	3	3	3	0	6	4	2	0	0	0	6	6
111912	09:11:22	10030	Trial2BackFrS	NS	17	0	1000	1	111	09:11:22	4027547	1	1	1	0	1	3	3	3	0	6	4	2	0	0	0	6	6
111912	09:11:22	10030	Trial2BackFrS	NS	17	0	1000	1	111	09:11:22	4029054	1	1	1	0	1	3	3	3	0	6	4	2	0	0	0	6	6
111912	09:11:22	10030	Trial2BackFrS	YS	17	57	796	1	111	09:11:22	4030373	1	1	1	0	1	3	3	3	0	6	4	2	0	0	0	6	6
111912	09:11:22	10030	Trial2BackFrS	NS	17	0	1000	1	111	09:11:22	4032066	1	1	1	0	1	3	3	3	0	6	4	2	0	0	0	6	6
111912	09:11:22	10030	Trial2BackFrS	NS	17	0	1000	1	111	09:11:22	4033572	1	1	1	0	1	3	3	3	0	6	4	2	0	0	0	6	6
111912	09:11:22	10030	Trial2BackFrS	YS	17	0	1000	0	111	09:11:22	4035091	1	1	1	0	1	3	3	3	0	6	4	2	0	0	0	6	6
111912	09:11:22	10030	Trial2BackFrS	NS	17	0	1000	1	111	09:11:22	4036597	1	1	1	0	1	3	3	3	0	6	4	2	0	0	0	6	6
111912	09:11:22	10030	Trial2BackFrS	NS	17	0	1000	1	111	09:11:22	4038103	1	1	1	0	1	3	3	3	0	6	4	2	0	0	0	6	6
111912	09:11:22	10030	Trial2BackFrS	NS	17	0	1000	1	111	09:11:22	4039609	1	1	1	0	1	3	3	3	0	6	4	2	0	0	0	6	6
111912	09:11:22	10030	Trial2BackFrS	YS	17	0	1000	0	111	09:11:22	4041115	1	1	1	0	1	3	3	3	0	6	4	2	0	0	0	6	6
111912	09:11:22	10030	Trial2BackFrS	NS	17	0	1000	1	111	09:11:22	4042621	1	1	1	0	1	3	3	3	0	6	4	2	0	0	0	6	6
111912	09:11:22	10030	Trial2BackFrS	NS	17	0	1000	1	111	09:11:22	4044128	1	1	1	0	1	3	3	3	0	6	4	2	0	0	0	6	6
111912	09:11:22	10030	Trial2BackFrS	NS	17	0	1000	1	111	09:11:22	4045634	1	1	1	0	1	3	3	3	0	6	4	2	0	0	0	6	6
111912	09:11:22	10030	Trial2BackFrS	NS	17	0	1000	1	111	09:11:22	4047140	1	1	1	0	1	3	3	3	0	6	4	2	0	0	0	6	6
111912	09:11:22	10030	Trial2BackFrS	YS	17	57	796	1	111	09:11:22	4048446	1	1	1	0	1	3	3	3	0	6	4	2	0	0	0	6	6
111912	09:11:22	10030	Trial2BackFrS	NS	17	0	1000	1	111	09:11:22	4050152	1	1	1	0	1	3	3	3	0	6	4	2	0	0	0	6	6
111912	09:11:22	10030	Trial2BackFrS	NS	17	0	1000	1	111	09:11:22	4051658	1	1	1	0	1	3	3	3	0	6	4	2	0	0	0	6	6
111912	09:11:22	10030	Trial2BackFrS	NS	17	0	1000	1	111	09:11:22	4053164	1	1	1	0	1	3	3	3	0	6	4	2	0	0	0	6	6
111912	09:11:22	10030	Trial2BackFrS	NS	17	0	1000	1	111	09:11:22	4054683	1	1	1	0	1	3	3	3	0	6	4	2	0	0	0	6	6
111912	09:11:22	10030	Trial2BackFrS	NS	17	0	1000	1	111	09:11:22	4056189	1	1	1	0	1	3	3	3	0	6	4	2	0	0	0	6	6
111912	09:11:22	10030	Trial2BackFrS	NS	17	0	1000	1	111	09:11:22	4057695	1	1	1	0	1	3	3	3	0	6	4	2	0	0	0	6	6
111912	09:11:22	10030	Trial2BackFrS	NS	17	0	1000	1	111	09:11:22	4059202	1	1	1	0	1	3	3	3	0	6	4	2	0	0	0	6	6
111912	09:11:22	10030	Trial2BackFrS	NS	17	0	1000	1	111	09:11:22	4060708	1	1	1	0	1	3	3	3	0	6	4	2	0	0	0	6	6
111912	09:11:22	10030	Trial2BackFrS	NS	17	0	1000	1	111	09:11:22	4062214	1	1	1	0	1	3	3	3	0	6	4	2	0	0	0	6	6
111912	09:11:22	10030	Trial2BackFrS	NS	17	0	1000	1	111	09:11:22	4063720	1	1	1	0	1	3	3	3	0	6	4	2	0	0	0	6	6
111912	09:11:22	10030	Trial2BackFrS	YS	17	57	647	1	111	09:11:22	4064879	1	1	1	0	1	3	3	3	0	6	4	2	0	0	0	6	6
111912	09:11:22	10030	Trial2BackFrS	NS	17	0	1000	1	111	09:11:22	4066732	1	1	1	0	1	3	3	3	0	6	4	2	0	0	0	6	6
111912	09:11:22	10030	Trial2BackFrS	NS	17	0	1000	1	111	09:11:22	4068238	1	1	1	0	1	3	3	3	0	6	4	2	0	0	0	6	6
111912	09:11:22	10030	Trial2BackFrS	NS	17	0	1000	1	111	09:11:22	4069744	1	1	1	0	1	3	3	3	0	6	4	2	0	0	0	6	6
111912	09:11:22	10030	Trial2BackFrS	YS	17	0	1000	0	111	09:11:22	4071250	1	1	1	0	1	3	3	3	0	6	4	2	0	0	0	6	6
111912	09:11:22	10030	Trial2BackFrS	NS	17	0	1000	1	111	09:11:22	4072756	1	1	1	0	1	3	3	3	0	6	4	2	0	0	0	6	6
111912	09:11:22	10030	Trial2BackFrS	NS	17	0	1000	1	111	09:11:22	4074262	1	1	1	0	1	3	3	3	0	6	4	2	0	0	0	6	6
111912	09:11:22	10030	Trial2BackFrS	NS	17	0	1000	1	111	09:11:22	4075768	1	1	1	0	1	3	3	3	0	6	4	2	0	0	0	6	6
111912	09:11:22	10030	Trial2BackFrS	NS	17	0	1000	1	111	09:11:22	4077274	1	1	1	0	1	3	3	3	0	6	4	2	0	0	0	6	6
111912	09:11:22	10030	Trial2BackFrS	NS	17	0	1000	1	111	09:11:22	4078781	1	1	1	0	1	3	3	3	0	6	4	2	0	0	0	6	6
111912	09:11:22	10030	Trial2BackFrS	NS	17	0	1000	1	111	09:11:22	4080286	1	1	1	0	1	3	3	3	0	6	4	2	0	0	0	6	6
111912	09:11:22	10030	Trial2BackFrS	NS	17	0	1000	1	111	09:11:22	4081793	1	1	1	0	1	3	3	3	0	6	4	2	0	0	0	6	6
111912	09:11:22	10030	Trial2BackFrS	YS	17	57	782	1	111	09:11:22	4083086	1	1	1	0	1	3	3	3	0	6	4	2	0	0	0	6	6
111912	09:11:22	10030	Trial2BackFrS	NS	17	0	1000	1	111	09:11:22	4084805	1	1	1	0	1	3	3	3	0	6	4	2	0	0	0	6	6
111912	09:11:22	10030	Trial2BackFrS	NS	17	0	1000	1	111	09:11:22	4086324	1	1	1	0	1	3	3	3	0	6	4	2	0	0	0	6	6
111912	09:11:22	10030	Trial2BackFrS	NS	17	0	1000	1	111	09:11:22	4087844	1	1	1	0	1	3	3	3	0	6	4	2	0	0	0	6	6
111912	09:11:22	10030	Trial2BackFrS	NS	17	0	1000	1	111	09:11:22	4089350	1	1	1	0	1	3	3	3	0	6	4	2	0	0	0	6	6
111912	09:11:22	10030	Trial2BackFrS	YS	17	0	1000	0	111	09:11:22	4090869	1	1	1	0	1	3	3	3	0	6	4	2	0	0	0	6	6
111912	09:11:22	10030	Trial2BackFrS	NS	17	0	1000	1	111	09:11:22	4092375	1	1	1	0	1	3	3	3	0	6	4	2	0	0	0	6	6
111912	09:11:22	10030	Trial2BackFrS	NS	17	0	1000	1	111	09:11:22	4093881	1	1	1	0	1	3	3	3	0	6	4	2	0	0	0	6	6
111912	09:11:22	10030	Trial2BackFrS	NS	17	0	1000	1	111	09:11:22	4095401	1	1	1	0	1	3	3	3	0	6	4	2	0	0	0	6	6
111912	09:11:22	10030	Trial2BackFrS	NS	17	0	1000	1	111	09:11:22	4096907	1	1	1	0	1	3	3	3	0	6	4	2	0	0	0	6	6
111912	09:11:22	10030	Trial2BackFrS	NS	17	0	1000	1	111	09:11:22	4098413	1	1	1	0	1	3	3	3	0	6	4	2	0	0	0	6	6
111912	09:11:22	10030	Trial2BackFrS	NS	17	0	1000	1	111	09:11:22	4099932	1	1	1	0	1	3	3	3	0	6	4	2	0	0	0	6	6
111912	09:11:22	10030	Trial2BackFrS	YS	17	0	1000	0	111	09:11:22	4101438	1	1	1	0	1	3	3	3	0	6	4	2	0	0	0	6	6
111912	09:11:22	10030	Trial2BackFrS	NS	17	0	1000	1	111	09:11:22	4102944	1	1	1	0	1	3	3	3	0	6	4	2	0	0	0	6	6
111912	09:11:22	10030	Trial2BackFrS	NS	17	0	1000	1	111	09:11:22	4104450	1	1	1	0	1	3	3	3	0	6	4	2	0	0	0	6	6
111912	09:11:22	10030	Trial2BackFrS	NS	17	0	1000	1	111	09:11:22	4105970	1	1	1	0	1	3	3	3	0	6	4	2	0	0	0	6	6
111912	09:11:22	10030	Trial2BackFrS	NS	17	0	1000	1	111	09:11:22	4107476	1	1	1	0	1	3	3	3	0	6	4	2	0	0	0	6	6
111912	09:11:22	10030	Trial2BackFrS	NS	17	0	1000	1	111	09:11:22	4108982	1	1	1	0	1	3	3	3	0	6	4	2	0	0	0	6	6
111912	09:11:22	10030	Trial2BackFrS	NS	17	0	1000	1	111	09:11:22	4110488	1	1	1	0	1	3	3	3	0	6	4	2	0	0	0	6	6
111912	09:11:22	10030	Trial2BackFrS	NS	17	0	1000	1	111	09:11:22	4111994	1	1	1	0	1	3	3	3	0	6	4	2	0	0	0	6	6
111912	09:11:22	10030	Trial2BackFrS	YS	17	0	1000	0	111	09:11:22	4113500	1	1	1	0	1	3	3	3	0	6	4	2	0	0	0	6	6
111912	09:11:22	10030	Trial2BackFrS	NS	17	0	1000	1	111	09:11:22	4115006	1	1	1	0	1	3	3	3	0	6	4	2	0	0	0	6	6
111912	09:11:22	10030	Trial2BackFrS	NS	17	0	1000	1	111	09:11:22	4116512	1	1	1	0	1	3	3	3	0	6	4	2	0	0	0	6	6
111912	09:11:22	10030	Trial2BackFrS	NS	17	0	1000	1	111	09:11:22	4118018	1	1	1	0	1	3	3	3	0	6	4	2	0	0	0	6	6
111912	09:11:22	10030	Trial2BackFrS	NS	17	0	1000	1	111	09:11:22	4119538	1	1	1	0	1	3	3	3	0	6	4	2	0	0	0	6	6
111912	09:11:22	10030	Trial2BackFrS	YS	17	0	1000	0	111	09:11:22	4121044	1	1	1	0	1	3	3	3	0	6	4	2	0	0	0	6	6
111912	09:11:22	10030	Trial2BackFrS	NS	17	0	1000	1	111	09:11:22	4122550	1	1	1	0	1	3	3	3	0	6	4	2	0	0	0	6	6
111912	09:11:22	10030	Trial2BackFrS	NS	17	57	755	0	111	09:11:22	4123829	1	1	1	0	1	3	3	3	0	6	4	2	0	0	0	6	6
111912	09:11:22	10030	Trial2BackFrS	YS	17	0	1000	0	111	09:11:22	4125562	1	1	1	0	1	3	3	3	0	6	4	2	0	0	0	6	6
111912	09:11:22	10030	Trial2BackFrS	NS	17	57	229	0	111	09:11:22	4126309	1	1	1	0	1	3	3	3	0	6	4	2	0	0	0	6	6
111912	09:11:22	10030	Trial2BackFrS	NS	17	0	1000	1	111	09:11:22	4128574	1	1	1	0	1	3	3	3	0	6	4	2	0	0	0	6	6
111912	09:11:22	10030	Trial2BackFrS	NS	17	0	1000	1	111	09:11:22	4130080	1	1	1	0	1	3	3	3	0	6	4	2	0	0	0	6	6
111912	09:11:22	10030	Trial2BackFrS	NS	17	0	1000	1	111	09:11:22	4131586	1	1	1	0	1	3	3	3	0	6	4	2	0	0	0	6	6
111912	09:11:22	10030	Trial2BackFrS	NS	17	0	1000	1	111	09:11:22	4133092	1	1	1	0	1	3	3	3	0	6	4	2	0	0	0	6	6
111912	09:11:22	10030	Trial2BackFrS	NS	17	0	1000	1	111	09:11:22	4134598	1	1	1	0	1	3	3	3	0	6	4	2	0	0	0	6	6
111912	09:11:22	10030	Trial2BackFrS	YS	17	57	760	1	111	09:11:22	4135878	1	1	1	0	1	3	3	3	0	6	4	2	0	0	0	6	6
111912	09:11:22	10030	Trial2BackFrS	NS	17	0	1000	1	111	09:11:22	4137611	1	1	1	0	1	3	3	3	0	6	4	2	0	0	0	6	6
111912	09:11:22	10030	Trial2BackFrS	NS	17	0	1000	1	111	09:11:22	4139117	1	1	1	0	1	3	3	3	0	6	4	2	0	0	0	6	6
111912	09:11:22	10030	Trial2BackFrS	NS	17	0	1000	1	111	09:11:22	4140636	1	1	1	0	1	3	3	3	0	6	4	2	0	0	0	6	6
111912	09:11:22	10030	Trial2BackFrS	NS	17	0	1000	1	111	09:11:22	4142142	1	1	1	0	1	3	3	3	0	6	4	2	0	0	0	6	6
111912	09:11:22	10030	Trial2BackFrS	YS	17	0	1000	0	111	09:11:22	4143648	1	1	1	0	1	3	3	3	0	6	4	2	0	0	0	6	6
111912	09:11:22	10030	Trial2BackFrS	NS	17	0	1000	1	111	09:11:22	4145154	1	1	1	0	1	3	3	3	0	6	4	2	0	0	0	6	6
111912	09:11:22	10030	Trial2BackFrS	NS	17	0	1000	1	111	09:11:22	4146660	1	1	1	0	1	3	3	3	0	6	4	2	0	0	0	6	6
111912	09:11:22	10030	Trial2BackFrS	NS	17	0	1000	1	111	09:11:22	4148166	1	1	1	0	1	3	3	3	0	6	4	2	0	0	0	6	6
111912	09:11:22	10030	Trial2BackFrS	NS	17	0	1000	1	111	09:11:22	4149672	1	1	1	0	1	3	3	3	0	6	4	2	0	0	0	6	6
111912	09:11:22	10030	Trial2BackFrS	YS	17	0	1000	0	111	09:11:22	4151178	1	1	1	0	1	3	3	3	0	6	4	2	0	0	0	6	6
111912	09:11:22	10030	Trial2BackFrS	NS	17	0	1000	1	111	09:11:22	4152685	1	1	1	0	1	3	3	3	0	6	4	2	0	0	0	6	6
111912	09:11:22	10030	Trial2BackFrS	NS	17	0	1000	1	111	09:11:22	4154191	1	1	1	0	1	3	3	3	0	6	4	2	0	0	0	6	6
111912	09:11:22	10030	Trial2BackFrS	YS	17	57	815	1	111	09:11:22	4155523	1	1	1	0	1	3	3	3	0	6	4	2	0	0	0	6	6
111912	09:11:22	10030	Trial2BackFrS	NS	17	0	1000	1	111	09:11:22	4157203	1	1	1	0	1	3	3	3	0	6	4	2	0	0	0	6	6
111912	09:11:22	10030	Trial2BackFrS	NS	17	0	1000	1	111	09:11:22	4158709	1	1	1	0	1	3	3	3	0	6	4	2	0	0	0	6	6
111912	09:11:22	10030	Trial2BackFrS	NS	17	0	1000	1	111	09:11:22	4160228	1	1	1	0	1	3	3	3	0	6	4	2	0	0	0	6	6
111912	09:11:22	10030	Trial2BackFrS	NS	17	0	1000	1	111	09:11:22	4161734	1	1	1	0	1	3	3	3	0	6	4	2	0	0	0	6	6
111912	09:11:22	10030	Trial2BackFrS	NS	17	0	1000	1	111	09:11:22	4163240	1	1	1	0	1	3	3	3	0	6	4	2	0	0	0	6	6
111912	09:11:22	10030	Trial2BackFrS	NS	17	0	1000	1	111	09:11:22	4164747	1	1	1	0	1	3	3	3	0	6	4	2	0	0	0	6	6
111912	09:11:22	10030	Trial2BackFrS	NS	17	0	1000	1	111	09:11:22	4166253	1	1	1	0	1	3	3	3	0	6	4	2	0	0	0	6	6
111912	09:11:22	10030	Trial2BackFrS	NS	17	0	1000	1	111	09:11:22	4167772	1	1	1	0	1	3	3	3	0	6	4	2	0	0	0	6	6
111912	09:11:22	10030	Trial2BackFrS	YS	17	0	1000	0	111	09:11:22	4169278	1	1	1	0	1	3	3	3	0	6	4	2	0	0	0	6	6
111912	09:11:22	10030	Trial2BackFrS	NS	17	0	1000	1	111	09:11:22	4170784	1	1	1	0	1	3	3	3	0	6	4	2	0	0	0	6	6
111912	09:11:22	10030	Trial2BackFrS	NS	17	0	1000	1	111	09:11:22	4172304	1	1	1	0	1	3	3	3	0	6	4	2	0	0	0	6	6
111912	09:11:22	10030	Trial2BackFrS	NS	17	57	862	0	111	09:11:22	4173677	1	1	1	0	1	3	3	3	0	6	4	2	0	0	0	6	6
111912	09:11:22	10030	Trial2BackFrS	NS	17	0	1000	1	111	09:11:22	4175316	1	1	1	0	1	3	3	3	0	6	4	2	0	0	0	6	6
111912	09:11:22	10030	Trial2BackFrS	NS	17	0	1000	1	111	09:11:22	4176822	1	1	1	0	1	3	3	3	0	6	4	2	0	0	0	6	6
111912	09:11:22	10030	Trial2BackFrS	NS	17	0	1000	1	111	09:11:22	4178328	1	1	1	0	1	3	3	3	0	6	4	2	0	0	0	6	6
111912	09:11:22	10030	Trial2BackFrS	NS	17	0	1000	1	111	09:11:22	4179847	1	1	1	0	1	3	3	3	0	6	4	2	0	0	0	6	6
111912	09:11:22	10030	Trial2BackFrS	YS	17	57	822	1	111	09:11:22	4181180	1	1	1	0	1	3	3	3	0	6	4	2	0	0	0	6	6
111912	09:11:22	10030	Trial2BackFrS	NS	17	0	1000	1	111	09:11:22	4182859	1	1	1	0	1	3	3	3	0	6	4	2	0	0	0	6	6
111912	09:11:22	10030	Trial2BackFrS	NS	17	0	1000	1	111	09:11:22	4184366	1	1	1	0	1	3	3	3	0	6	4	2	0	0	0	6	6
111912	09:11:22	10030	Trial2BackFrS	NS	17	0	1000	1	111	09:11:22	4185885	1	1	1	0	1	3	3	3	0	6	4	2	0	0	0	6	6
111912	09:11:22	10030	Trial2BackFrS	NS	17	57	825	0	111	09:11:22	4187231	1	1	1	0	1	3	3	3	0	6	4	2	0	0	0	6	6
111912	09:11:22	10030	Trial2BackFrS	NS	17	0	1000	1	111	09:11:22	4188897	1	1	1	0	1	3	3	3	0	6	4	2	0	0	0	6	6
111912	09:11:22	10030	Trial2BackFrS	NS	17	0	1000	1	111	09:11:22	4190416	1	1	1	0	1	3	3	3	0	6	4	2	0	0	0	6	6
111912	09:11:22	10030	Trial2BackFrS	NS	17	0	1000	1	111	09:11:22	4191936	1	1	1	0	1	3	3	3	0	6	4	2	0	0	0	6	6
111912	09:11:22	10030	Trial2BackFrS	NS	17	0	1000	1	111	09:11:22	4193455	1	1	1	0	1	3	3	3	0	6	4	2	0	0	0	6	6
111912	09:11:22	10030	Trial2BackFrS	NS	17	0	1000	1	111	09:11:22	4194974	1	1	1	0	1	3	3	3	0	6	4	2	0	0	0	6	6
111912	09:11:22	10030	Trial2BackFrS	YS	17	57	716	1	111	09:11:22	4196214	1	1	1	0	1	3	3	3	0	6	4	2	0	0	0	6	6
111912	09:11:22	10030	Trial2BackFrS	NS	17	0	1000	1	111	09:11:22	4197987	1	1	1	0	1	3	3	3	0	6	4	2	0	0	0	6	6
111912	09:11:22	10030	ClockFr3mo	ClockFr3mo	19	Clock1	56561	0	111	09:11:22	4254711	1	1	1	0	1	3	3	3	0	6	4	2	1	0	0	6	6
111912	09:11:22	10030	ClockFr3mo	ClockFr3mo	19	Clock11	569	0	111	09:11:22	4255338	1	1	1	0	1	3	3	3	0	6	4	2	1	1	0	6	6
111912	09:11:22	10030	ClockFr3mo	ClockFr3mo	19	Clock111	1007	0	111	09:11:22	4256404	1	1	1	0	1	3	3	3	0	6	4	2	1	1	1	6	6
111912	09:11:22	10030	ClockFr3mo	ClockFr3mo	19	Clockdone	1005	0	111	09:11:22	4257470	1	1	1	0	1	3	3	3	0	6	4	2	1	1	1	6	6
111912	09:11:22	10030	FASFrVF3mo	StopFrVF3mo	20	6	7258	0	111	09:11:22	4355860	1	1	1	0	1	3	3	3	0	6	4	2	1	1	1	6	6
