date	time	subject	blockcode	trialcode	values.TaskNumber	response	latency	correct	values.Score	script.starttime	script.elapsedtime	values.ScoreS7	values.Word1	values.Word2	values.Word3	values.Word4	values.Word5	values.Word6	values.Word7	values.Word8	values.DigitSpanFwrd	values.DigitSpanBack	values.ScoreAbs	values.Contour	values.Numbers	values.Hands	values.corsiblockspanFwrd	values.corsiblockspanRev
120712	12:00:13	10037	Language	Language	0	French	37072	0	0	12:00:13	37194	0	0	0	0	0	0	0	0	0	0	0	0	0	0	0	0	0
120712	12:00:13	10037	Session	Session	0	3mo	1069	0	0	12:00:13	38327	0	0	0	0	0	0	0	0	0	0	0	0	0	0	0	0	0
120712	12:00:13	10037	HandFr	HandFr	0	RightFr	2426057	0	0	12:00:13	2464461	0	0	0	0	0	0	0	0	0	0	0	0	0	0	0	0	0
120712	12:00:13	10037	AudioCheckFr	WordsFr	0	0	0	0	0	12:00:13	3275426	0	0	0	0	0	0	0	0	0	0	0	0	0	0	0	0	0
120712	12:00:13	10037	CubeFr	CubeFr	1	1Cube	45569	0	0	12:00:13	3323268	0	0	0	0	0	0	0	0	0	0	0	0	0	0	0	0	0
120712	12:00:13	10037	pm.simpleFrRight	blank.simpleFr	2	0	1700	1	0	12:00:13	3377606	0	0	0	0	0	0	0	0	0	0	0	0	0	0	0	0	0
120712	12:00:13	10037	pm.simpleFrRight	pm.simpleFr	2	57	1460	0	0	12:00:13	3379086	0	0	0	0	0	0	0	0	0	0	0	0	0	0	0	0	0
120712	12:00:13	10037	pm.simpleFrRight	blank.simpleFr	2	0	2000	1	0	12:00:13	3381098	0	0	0	0	0	0	0	0	0	0	0	0	0	0	0	0	0
120712	12:00:13	10037	pm.simpleFrRight	pm.simpleFr	2	57	928	0	0	12:00:13	3382044	0	0	0	0	0	0	0	0	0	0	0	0	0	0	0	0	0
120712	12:00:13	10037	pm.simpleFrRight	blank.simpleFr	2	0	1500	1	0	12:00:13	3383564	0	0	0	0	0	0	0	0	0	0	0	0	0	0	0	0	0
120712	12:00:13	10037	pm.simpleFrRight	pm.simpleFr	2	57	558	0	0	12:00:13	3384150	0	0	0	0	0	0	0	0	0	0	0	0	0	0	0	0	0
120712	12:00:13	10037	pm.simpleFrRight	blank.simpleFr	2	0	1900	1	0	12:00:13	3386070	0	0	0	0	0	0	0	0	0	0	0	0	0	0	0	0	0
120712	12:00:13	10037	pm.simpleFrRight	pm.simpleFr	2	57	1013	0	0	12:00:13	3387109	0	0	0	0	0	0	0	0	0	0	0	0	0	0	0	0	0
120712	12:00:13	10037	pm.simpleFrRight	blank.simpleFr	2	0	1600	1	0	12:00:13	3388722	0	0	0	0	0	0	0	0	0	0	0	0	0	0	0	0	0
120712	12:00:13	10037	pm.simpleFrRight	pm.simpleFr	2	57	632	0	0	12:00:13	3389375	0	0	0	0	0	0	0	0	0	0	0	0	0	0	0	0	0
120712	12:00:13	10037	pm.simpleFrRight	blank.simpleFr	2	0	2500	1	0	12:00:13	3391894	0	0	0	0	0	0	0	0	0	0	0	0	0	0	0	0	0
120712	12:00:13	10037	pm.simpleFrRight	pm.simpleFr	2	57	580	0	0	12:00:13	3392494	0	0	0	0	0	0	0	0	0	0	0	0	0	0	0	0	0
120712	12:00:13	10037	pm.simpleFrRight	blank.simpleFr	2	0	2200	1	0	12:00:13	3394706	0	0	0	0	0	0	0	0	0	0	0	0	0	0	0	0	0
120712	12:00:13	10037	pm.simpleFrRight	pm.simpleFr	2	57	568	0	0	12:00:13	3395293	0	0	0	0	0	0	0	0	0	0	0	0	0	0	0	0	0
120712	12:00:13	10037	pm.simpleFrRight	blank.simpleFr	2	0	2400	1	0	12:00:13	3397705	0	0	0	0	0	0	0	0	0	0	0	0	0	0	0	0	0
120712	12:00:13	10037	pm.simpleFrRight	pm.simpleFr	2	57	529	0	0	12:00:13	3398252	0	0	0	0	0	0	0	0	0	0	0	0	0	0	0	0	0
120712	12:00:13	10037	pm.simpleFrRight	blank.simpleFr	2	0	2300	1	0	12:00:13	3400571	0	0	0	0	0	0	0	0	0	0	0	0	0	0	0	0	0
120712	12:00:13	10037	pm.simpleFrRight	pm.simpleFr	2	57	528	0	0	12:00:13	3401117	0	0	0	0	0	0	0	0	0	0	0	0	0	0	0	0	0
120712	12:00:13	10037	pm.simpleFrRight	blank.simpleFr	2	0	2100	1	0	12:00:13	3403236	0	0	0	0	0	0	0	0	0	0	0	0	0	0	0	0	0
120712	12:00:13	10037	pm.simpleFrRight	pm.simpleFr	2	57	566	0	0	12:00:13	3403823	0	0	0	0	0	0	0	0	0	0	0	0	0	0	0	0	0
120712	12:00:13	10037	pm.simpleFrRight	blank.simpleFr	2	0	1800	1	0	12:00:13	3405635	0	0	0	0	0	0	0	0	0	0	0	0	0	0	0	0	0
120712	12:00:13	10037	pm.simpleFrRight	pm.simpleFr	2	57	535	0	0	12:00:13	3406195	0	0	0	0	0	0	0	0	0	0	0	0	0	0	0	0	0
120712	12:00:13	10037	pm.simpleFrRight	blank.simpleFr	2	0	1700	1	0	12:00:13	3407941	0	0	0	0	0	0	0	0	0	0	0	0	0	0	0	0	0
120712	12:00:13	10037	pm.simpleFrRight	pm.simpleFr	2	57	629	0	0	12:00:13	3408594	0	0	0	0	0	0	0	0	0	0	0	0	0	0	0	0	0
120712	12:00:13	10037	pm.simpleFrRight	blank.simpleFr	2	0	2300	1	0	12:00:13	3410913	0	0	0	0	0	0	0	0	0	0	0	0	0	0	0	0	0
120712	12:00:13	10037	pm.simpleFrRight	pm.simpleFr	2	57	569	0	0	12:00:13	3411499	0	0	0	0	0	0	0	0	0	0	0	0	0	0	0	0	0
120712	12:00:13	10037	pm.simpleFrRight	blank.simpleFr	2	0	2200	1	0	12:00:13	3413712	0	0	0	0	0	0	0	0	0	0	0	0	0	0	0	0	0
120712	12:00:13	10037	pm.simpleFrRight	pm.simpleFr	2	57	1162	0	0	12:00:13	3414898	0	0	0	0	0	0	0	0	0	0	0	0	0	0	0	0	0
120712	12:00:13	10037	pm.simpleFrRight	blank.simpleFr	2	0	1500	1	0	12:00:13	3416418	0	0	0	0	0	0	0	0	0	0	0	0	0	0	0	0	0
120712	12:00:13	10037	pm.simpleFrRight	pm.simpleFr	2	57	648	0	0	12:00:13	3417084	0	0	0	0	0	0	0	0	0	0	0	0	0	0	0	0	0
120712	12:00:13	10037	pm.simpleFrRight	blank.simpleFr	2	0	1800	1	0	12:00:13	3418897	0	0	0	0	0	0	0	0	0	0	0	0	0	0	0	0	0
120712	12:00:13	10037	pm.simpleFrRight	pm.simpleFr	2	57	777	0	0	12:00:13	3419696	0	0	0	0	0	0	0	0	0	0	0	0	0	0	0	0	0
120712	12:00:13	10037	pm.simpleFrRight	blank.simpleFr	2	0	1600	1	0	12:00:13	3421309	0	0	0	0	0	0	0	0	0	0	0	0	0	0	0	0	0
120712	12:00:13	10037	pm.simpleFrRight	pm.simpleFr	2	57	653	0	0	12:00:13	3421989	0	0	0	0	0	0	0	0	0	0	0	0	0	0	0	0	0
120712	12:00:13	10037	pm.simpleFrRight	blank.simpleFr	2	0	2400	1	0	12:00:13	3424401	0	0	0	0	0	0	0	0	0	0	0	0	0	0	0	0	0
120712	12:00:13	10037	pm.simpleFrRight	pm.simpleFr	2	57	552	0	0	12:00:13	3424974	0	0	0	0	0	0	0	0	0	0	0	0	0	0	0	0	0
120712	12:00:13	10037	pm.simpleFrRight	blank.simpleFr	2	0	2100	1	0	12:00:13	3427093	0	0	0	0	0	0	0	0	0	0	0	0	0	0	0	0	0
120712	12:00:13	10037	pm.simpleFrRight	pm.simpleFr	2	57	2484	0	0	12:00:13	3429599	0	0	0	0	0	0	0	0	0	0	0	0	0	0	0	0	0
120712	12:00:13	10037	pm.simpleFrRight	blank.simpleFr	2	0	1900	1	0	12:00:13	3431518	0	0	0	0	0	0	0	0	0	0	0	0	0	0	0	0	0
120712	12:00:13	10037	pm.simpleFrRight	pm.simpleFr	2	57	427	0	0	12:00:13	3431972	0	0	0	0	0	0	0	0	0	0	0	0	0	0	0	0	0
120712	12:00:13	10037	pm.simpleFrRight	blank.simpleFr	2	0	2500	1	0	12:00:13	3434491	0	0	0	0	0	0	0	0	0	0	0	0	0	0	0	0	0
120712	12:00:13	10037	pm.simpleFrRight	pm.simpleFr	2	57	431	0	0	12:00:13	3434944	0	0	0	0	0	0	0	0	0	0	0	0	0	0	0	0	0
120712	12:00:13	10037	pm.simpleFrRight	blank.simpleFr	2	0	2000	1	0	12:00:13	3436956	0	0	0	0	0	0	0	0	0	0	0	0	0	0	0	0	0
120712	12:00:13	10037	pm.simpleFrRight	pm.simpleFr	2	57	445	0	0	12:00:13	3437423	0	0	0	0	0	0	0	0	0	0	0	0	0	0	0	0	0
120712	12:00:13	10037	pm.simpleFrRight	blank.simpleFr	2	0	2500	1	0	12:00:13	3439942	0	0	0	0	0	0	0	0	0	0	0	0	0	0	0	0	0
120712	12:00:13	10037	pm.simpleFrRight	pm.simpleFr	2	57	420	0	0	12:00:13	3440381	0	0	0	0	0	0	0	0	0	0	0	0	0	0	0	0	0
120712	12:00:13	10037	pm.simpleFrRight	blank.simpleFr	2	0	1600	1	0	12:00:13	3441994	0	0	0	0	0	0	0	0	0	0	0	0	0	0	0	0	0
120712	12:00:13	10037	pm.simpleFrRight	pm.simpleFr	2	57	431	0	0	12:00:13	3442447	0	0	0	0	0	0	0	0	0	0	0	0	0	0	0	0	0
120712	12:00:13	10037	pm.simpleFrRight	blank.simpleFr	2	0	1700	1	0	12:00:13	3444167	0	0	0	0	0	0	0	0	0	0	0	0	0	0	0	0	0
120712	12:00:13	10037	pm.simpleFrRight	pm.simpleFr	2	57	435	0	0	12:00:13	3444620	0	0	0	0	0	0	0	0	0	0	0	0	0	0	0	0	0
120712	12:00:13	10037	pm.simpleFrRight	blank.simpleFr	2	0	2100	1	0	12:00:13	3446739	0	0	0	0	0	0	0	0	0	0	0	0	0	0	0	0	0
120712	12:00:13	10037	pm.simpleFrRight	pm.simpleFr	2	57	470	0	0	12:00:13	3447232	0	0	0	0	0	0	0	0	0	0	0	0	0	0	0	0	0
120712	12:00:13	10037	pm.simpleFrRight	blank.simpleFr	2	0	1900	1	0	12:00:13	3449151	0	0	0	0	0	0	0	0	0	0	0	0	0	0	0	0	0
120712	12:00:13	10037	pm.simpleFrRight	pm.simpleFr	2	57	426	0	0	12:00:13	3449605	0	0	0	0	0	0	0	0	0	0	0	0	0	0	0	0	0
120712	12:00:13	10037	pm.simpleFrRight	blank.simpleFr	2	0	1500	1	0	12:00:13	3451124	0	0	0	0	0	0	0	0	0	0	0	0	0	0	0	0	0
120712	12:00:13	10037	pm.simpleFrRight	pm.simpleFr	2	57	438	0	0	12:00:13	3451591	0	0	0	0	0	0	0	0	0	0	0	0	0	0	0	0	0
120712	12:00:13	10037	pm.simpleFrRight	blank.simpleFr	2	0	2000	1	0	12:00:13	3453603	0	0	0	0	0	0	0	0	0	0	0	0	0	0	0	0	0
120712	12:00:13	10037	pm.simpleFrRight	pm.simpleFr	2	57	422	0	0	12:00:13	3454043	0	0	0	0	0	0	0	0	0	0	0	0	0	0	0	0	0
120712	12:00:13	10037	pm.simpleFrRight	blank.simpleFr	2	0	1800	1	0	12:00:13	3455855	0	0	0	0	0	0	0	0	0	0	0	0	0	0	0	0	0
120712	12:00:13	10037	pm.simpleFrRight	pm.simpleFr	2	57	442	0	0	12:00:13	3456322	0	0	0	0	0	0	0	0	0	0	0	0	0	0	0	0	0
120712	12:00:13	10037	pm.simpleFrRight	blank.simpleFr	2	0	2200	1	0	12:00:13	3458534	0	0	0	0	0	0	0	0	0	0	0	0	0	0	0	0	0
120712	12:00:13	10037	pm.simpleFrRight	pm.simpleFr	2	57	387	0	0	12:00:13	3458948	0	0	0	0	0	0	0	0	0	0	0	0	0	0	0	0	0
120712	12:00:13	10037	pm.simpleFrRight	blank.simpleFr	2	0	2400	1	0	12:00:13	3461360	0	0	0	0	0	0	0	0	0	0	0	0	0	0	0	0	0
120712	12:00:13	10037	pm.simpleFrRight	pm.simpleFr	2	57	489	0	0	12:00:13	3461866	0	0	0	0	0	0	0	0	0	0	0	0	0	0	0	0	0
120712	12:00:13	10037	pm.simpleFrRight	blank.simpleFr	2	0	2300	1	0	12:00:13	3464186	0	0	0	0	0	0	0	0	0	0	0	0	0	0	0	0	0
120712	12:00:13	10037	pm.simpleFrRight	pm.simpleFr	2	57	912	0	0	12:00:13	3465118	0	0	0	0	0	0	0	0	0	0	0	0	0	0	0	0	0
120712	12:00:13	10037	pm.simpleFrRight	blank.simpleFr	2	0	1900	1	0	12:00:13	3467038	0	0	0	0	0	0	0	0	0	0	0	0	0	0	0	0	0
120712	12:00:13	10037	pm.simpleFrRight	pm.simpleFr	2	57	715	0	0	12:00:13	3467771	0	0	0	0	0	0	0	0	0	0	0	0	0	0	0	0	0
120712	12:00:13	10037	pm.simpleFrRight	blank.simpleFr	2	0	2200	1	0	12:00:13	3469983	0	0	0	0	0	0	0	0	0	0	0	0	0	0	0	0	0
120712	12:00:13	10037	pm.simpleFrRight	pm.simpleFr	2	57	474	0	0	12:00:13	3470476	0	0	0	0	0	0	0	0	0	0	0	0	0	0	0	0	0
120712	12:00:13	10037	pm.simpleFrRight	blank.simpleFr	2	0	2000	1	0	12:00:13	3472489	0	0	0	0	0	0	0	0	0	0	0	0	0	0	0	0	0
120712	12:00:13	10037	pm.simpleFrRight	pm.simpleFr	2	57	432	0	0	12:00:13	3472942	0	0	0	0	0	0	0	0	0	0	0	0	0	0	0	0	0
120712	12:00:13	10037	pm.simpleFrRight	blank.simpleFr	2	0	1600	1	0	12:00:13	3474555	0	0	0	0	0	0	0	0	0	0	0	0	0	0	0	0	0
120712	12:00:13	10037	pm.simpleFrRight	pm.simpleFr	2	57	415	0	0	12:00:13	3474995	0	0	0	0	0	0	0	0	0	0	0	0	0	0	0	0	0
120712	12:00:13	10037	pm.simpleFrRight	blank.simpleFr	2	0	1700	1	0	12:00:13	3476714	0	0	0	0	0	0	0	0	0	0	0	0	0	0	0	0	0
120712	12:00:13	10037	pm.simpleFrRight	pm.simpleFr	2	57	415	0	0	12:00:13	3477154	0	0	0	0	0	0	0	0	0	0	0	0	0	0	0	0	0
120712	12:00:13	10037	pm.simpleFrRight	blank.simpleFr	2	0	1500	1	0	12:00:13	3478673	0	0	0	0	0	0	0	0	0	0	0	0	0	0	0	0	0
120712	12:00:13	10037	pm.simpleFrRight	pm.simpleFr	2	57	440	0	0	12:00:13	3479140	0	0	0	0	0	0	0	0	0	0	0	0	0	0	0	0	0
120712	12:00:13	10037	pm.simpleFrRight	blank.simpleFr	2	0	2100	1	0	12:00:13	3481259	0	0	0	0	0	0	0	0	0	0	0	0	0	0	0	0	0
120712	12:00:13	10037	pm.simpleFrRight	pm.simpleFr	2	57	398	0	0	12:00:13	3481685	0	0	0	0	0	0	0	0	0	0	0	0	0	0	0	0	0
120712	12:00:13	10037	Trial2BackFr	N	3	0	1000	1	1	12:00:13	3731360	0	0	0	0	0	0	0	0	0	0	0	0	0	0	0	0	0
120712	12:00:13	10037	Trial2BackFr	N	3	0	1000	1	2	12:00:13	3732866	0	0	0	0	0	0	0	0	0	0	0	0	0	0	0	0	0
120712	12:00:13	10037	Trial2BackFr	N	3	0	1000	1	3	12:00:13	3734372	0	0	0	0	0	0	0	0	0	0	0	0	0	0	0	0	0
120712	12:00:13	10037	Trial2BackFr	N	3	0	1000	1	4	12:00:13	3735878	0	0	0	0	0	0	0	0	0	0	0	0	0	0	0	0	0
120712	12:00:13	10037	Trial2BackFr	N	3	0	1000	1	5	12:00:13	3737384	0	0	0	0	0	0	0	0	0	0	0	0	0	0	0	0	0
120712	12:00:13	10037	Trial2BackFr	N	3	0	1000	1	6	12:00:13	3738891	0	0	0	0	0	0	0	0	0	0	0	0	0	0	0	0	0
120712	12:00:13	10037	Trial2BackFr	N	3	0	1000	1	7	12:00:13	3740396	0	0	0	0	0	0	0	0	0	0	0	0	0	0	0	0	0
120712	12:00:13	10037	Trial2BackFr	N	3	0	1000	1	8	12:00:13	3741902	0	0	0	0	0	0	0	0	0	0	0	0	0	0	0	0	0
120712	12:00:13	10037	Trial2BackFr	Y	3	57	827	1	9	12:00:13	3743249	0	0	0	0	0	0	0	0	0	0	0	0	0	0	0	0	0
120712	12:00:13	10037	Trial2BackFr	N	3	0	1000	1	10	12:00:13	3744915	0	0	0	0	0	0	0	0	0	0	0	0	0	0	0	0	0
120712	12:00:13	10037	Trial2BackFr	N	3	0	1000	1	11	12:00:13	3746421	0	0	0	0	0	0	0	0	0	0	0	0	0	0	0	0	0
120712	12:00:13	10037	Trial2BackFr	N	3	0	1000	1	12	12:00:13	3747927	0	0	0	0	0	0	0	0	0	0	0	0	0	0	0	0	0
120712	12:00:13	10037	Trial2BackFr	Y	3	57	691	1	13	12:00:13	3749126	0	0	0	0	0	0	0	0	0	0	0	0	0	0	0	0	0
120712	12:00:13	10037	Trial2BackFr	N	3	0	1000	1	14	12:00:13	3750939	0	0	0	0	0	0	0	0	0	0	0	0	0	0	0	0	0
120712	12:00:13	10037	Trial2BackFr	N	3	0	1000	1	15	12:00:13	3752445	0	0	0	0	0	0	0	0	0	0	0	0	0	0	0	0	0
120712	12:00:13	10037	Trial2BackFr	N	3	0	1000	1	16	12:00:13	3753951	0	0	0	0	0	0	0	0	0	0	0	0	0	0	0	0	0
120712	12:00:13	10037	Trial2BackFr	N	3	0	1000	1	17	12:00:13	3755457	0	0	0	0	0	0	0	0	0	0	0	0	0	0	0	0	0
120712	12:00:13	10037	Trial2BackFr	N	3	57	761	0	17	12:00:13	3756737	0	0	0	0	0	0	0	0	0	0	0	0	0	0	0	0	0
120712	12:00:13	10037	Trial2BackFr	Y	3	0	1000	0	17	12:00:13	3758469	0	0	0	0	0	0	0	0	0	0	0	0	0	0	0	0	0
120712	12:00:13	10037	Trial2BackFr	N	3	0	1000	1	18	12:00:13	3759975	0	0	0	0	0	0	0	0	0	0	0	0	0	0	0	0	0
120712	12:00:13	10037	Trial2BackFr	N	3	0	1000	1	19	12:00:13	3761495	0	0	0	0	0	0	0	0	0	0	0	0	0	0	0	0	0
120712	12:00:13	10037	Trial2BackFr	N	3	0	1000	1	20	12:00:13	3763014	0	0	0	0	0	0	0	0	0	0	0	0	0	0	0	0	0
120712	12:00:13	10037	Trial2BackFr	N	3	57	420	0	20	12:00:13	3763947	0	0	0	0	0	0	0	0	0	0	0	0	0	0	0	0	0
120712	12:00:13	10037	Trial2BackFr	Y	3	0	1000	0	20	12:00:13	3766026	0	0	0	0	0	0	0	0	0	0	0	0	0	0	0	0	0
120712	12:00:13	10037	Trial2BackFr	N	3	57	863	0	20	12:00:13	3767399	0	0	0	0	0	0	0	0	0	0	0	0	0	0	0	0	0
120712	12:00:13	10037	Trial2BackFr	N	3	0	1000	1	21	12:00:13	3769039	0	0	0	0	0	0	0	0	0	0	0	0	0	0	0	0	0
120712	12:00:13	10037	Trial2BackFr	N	3	0	1000	1	22	12:00:13	3770545	0	0	0	0	0	0	0	0	0	0	0	0	0	0	0	0	0
120712	12:00:13	10037	Trial2BackFr	N	3	0	1000	1	23	12:00:13	3772051	0	0	0	0	0	0	0	0	0	0	0	0	0	0	0	0	0
120712	12:00:13	10037	Trial2BackFr	N	3	0	1000	1	24	12:00:13	3773557	0	0	0	0	0	0	0	0	0	0	0	0	0	0	0	0	0
120712	12:00:13	10037	Trial2BackFr	N	3	0	1000	1	25	12:00:13	3775063	0	0	0	0	0	0	0	0	0	0	0	0	0	0	0	0	0
120712	12:00:13	10037	Trial2BackFr	Y	3	0	1000	0	25	12:00:13	3776569	0	0	0	0	0	0	0	0	0	0	0	0	0	0	0	0	0
120712	12:00:13	10037	Trial2BackFr	N	3	0	1000	1	26	12:00:13	3778075	0	0	0	0	0	0	0	0	0	0	0	0	0	0	0	0	0
120712	12:00:13	10037	Trial2BackFr	N	3	57	606	0	26	12:00:13	3779195	0	0	0	0	0	0	0	0	0	0	0	0	0	0	0	0	0
120712	12:00:13	10037	Trial2BackFr	N	3	0	1000	1	27	12:00:13	3781087	0	0	0	0	0	0	0	0	0	0	0	0	0	0	0	0	0
120712	12:00:13	10037	Trial2BackFr	Y	3	0	1000	0	27	12:00:13	3782593	0	0	0	0	0	0	0	0	0	0	0	0	0	0	0	0	0
120712	12:00:13	10037	Trial2BackFr	N	3	57	744	0	27	12:00:13	3783846	0	0	0	0	0	0	0	0	0	0	0	0	0	0	0	0	0
120712	12:00:13	10037	Trial2BackFr	N	3	0	1000	1	28	12:00:13	3785605	0	0	0	0	0	0	0	0	0	0	0	0	0	0	0	0	0
120712	12:00:13	10037	Trial2BackFr	N	3	0	1000	1	29	12:00:13	3787111	0	0	0	0	0	0	0	0	0	0	0	0	0	0	0	0	0
120712	12:00:13	10037	Trial2BackFr	N	3	57	818	0	29	12:00:13	3788444	0	0	0	0	0	0	0	0	0	0	0	0	0	0	0	0	0
120712	12:00:13	10037	Trial2BackFr	N	3	0	1000	1	30	12:00:13	3790124	0	0	0	0	0	0	0	0	0	0	0	0	0	0	0	0	0
120712	12:00:13	10037	Trial2BackFr	N	3	0	1000	1	31	12:00:13	3791630	0	0	0	0	0	0	0	0	0	0	0	0	0	0	0	0	0
120712	12:00:13	10037	Trial2BackFr	Y	3	0	1000	0	31	12:00:13	3793135	0	0	0	0	0	0	0	0	0	0	0	0	0	0	0	0	0
120712	12:00:13	10037	Trial2BackFr	N	3	0	1000	1	32	12:00:13	3794642	0	0	0	0	0	0	0	0	0	0	0	0	0	0	0	0	0
120712	12:00:13	10037	Trial2BackFr	N	3	57	759	0	32	12:00:13	3795921	0	0	0	0	0	0	0	0	0	0	0	0	0	0	0	0	0
120712	12:00:13	10037	Trial2BackFr	N	3	0	1000	1	33	12:00:13	3797654	0	0	0	0	0	0	0	0	0	0	0	0	0	0	0	0	0
120712	12:00:13	10037	Trial2BackFr	N	3	0	1000	1	34	12:00:13	3799160	0	0	0	0	0	0	0	0	0	0	0	0	0	0	0	0	0
120712	12:00:13	10037	Trial2BackFr	Y	3	57	881	1	35	12:00:13	3800559	0	0	0	0	0	0	0	0	0	0	0	0	0	0	0	0	0
120712	12:00:13	10037	Trial2BackFr	N	3	0	1000	1	36	12:00:13	3802172	0	0	0	0	0	0	0	0	0	0	0	0	0	0	0	0	0
120712	12:00:13	10037	Trial2BackFr	N	3	0	1000	1	37	12:00:13	3803678	0	0	0	0	0	0	0	0	0	0	0	0	0	0	0	0	0
120712	12:00:13	10037	Trial2BackFr	N	3	0	1000	1	38	12:00:13	3805184	0	0	0	0	0	0	0	0	0	0	0	0	0	0	0	0	0
120712	12:00:13	10037	Trial2BackFr	N	3	0	1000	1	39	12:00:13	3806704	0	0	0	0	0	0	0	0	0	0	0	0	0	0	0	0	0
120712	12:00:13	10037	Trial2BackFr	N	3	0	1000	1	40	12:00:13	3808210	0	0	0	0	0	0	0	0	0	0	0	0	0	0	0	0	0
120712	12:00:13	10037	Trial2BackFr	Y	3	0	1000	0	40	12:00:13	3809716	0	0	0	0	0	0	0	0	0	0	0	0	0	0	0	0	0
120712	12:00:13	10037	Trial2BackFr	N	3	0	1000	1	41	12:00:13	3811222	0	0	0	0	0	0	0	0	0	0	0	0	0	0	0	0	0
120712	12:00:13	10037	Trial2BackFr	N	3	0	1000	1	42	12:00:13	3812728	0	0	0	0	0	0	0	0	0	0	0	0	0	0	0	0	0
120712	12:00:13	10037	Trial2BackFr	N	3	0	1000	1	43	12:00:13	3814234	0	0	0	0	0	0	0	0	0	0	0	0	0	0	0	0	0
120712	12:00:13	10037	Trial2BackFr	N	3	0	1000	1	44	12:00:13	3815740	0	0	0	0	0	0	0	0	0	0	0	0	0	0	0	0	0
120712	12:00:13	10037	Trial2BackFr	N	3	57	813	0	44	12:00:13	3817073	0	0	0	0	0	0	0	0	0	0	0	0	0	0	0	0	0
120712	12:00:13	10037	Trial2BackFr	N	3	0	1000	1	45	12:00:13	3818752	0	0	0	0	0	0	0	0	0	0	0	0	0	0	0	0	0
120712	12:00:13	10037	Trial2BackFr	Y	3	57	809	1	46	12:00:13	3820071	0	0	0	0	0	0	0	0	0	0	0	0	0	0	0	0	0
120712	12:00:13	10037	Trial2BackFr	N	3	0	1000	1	47	12:00:13	3821764	0	0	0	0	0	0	0	0	0	0	0	0	0	0	0	0	0
120712	12:00:13	10037	Trial2BackFr	N	3	57	805	0	47	12:00:13	3823084	0	0	0	0	0	0	0	0	0	0	0	0	0	0	0	0	0
120712	12:00:13	10037	Trial2BackFr	Y	3	0	1000	0	47	12:00:13	3824776	0	0	0	0	0	0	0	0	0	0	0	0	0	0	0	0	0
120712	12:00:13	10037	Trial2BackFr	N	3	0	1000	1	48	12:00:13	3826283	0	0	0	0	0	0	0	0	0	0	0	0	0	0	0	0	0
120712	12:00:13	10037	Trial2BackFr	N	3	0	1000	1	49	12:00:13	3827789	0	0	0	0	0	0	0	0	0	0	0	0	0	0	0	0	0
120712	12:00:13	10037	Trial2BackFr	N	3	0	1000	1	50	12:00:13	3829308	0	0	0	0	0	0	0	0	0	0	0	0	0	0	0	0	0
120712	12:00:13	10037	Trial2BackFr	N	3	0	1000	1	51	12:00:13	3830814	0	0	0	0	0	0	0	0	0	0	0	0	0	0	0	0	0
120712	12:00:13	10037	Trial2BackFr	N	3	0	1000	1	52	12:00:13	3832320	0	0	0	0	0	0	0	0	0	0	0	0	0	0	0	0	0
120712	12:00:13	10037	Trial2BackFr	N	3	0	1000	1	53	12:00:13	3833826	0	0	0	0	0	0	0	0	0	0	0	0	0	0	0	0	0
120712	12:00:13	10037	Trial2BackFr	N	3	0	1000	1	54	12:00:13	3835346	0	0	0	0	0	0	0	0	0	0	0	0	0	0	0	0	0
120712	12:00:13	10037	Trial2BackFr	N	3	0	1000	1	55	12:00:13	3836852	0	0	0	0	0	0	0	0	0	0	0	0	0	0	0	0	0
120712	12:00:13	10037	Trial2BackFr	N	3	0	1000	1	56	12:00:13	3838358	0	0	0	0	0	0	0	0	0	0	0	0	0	0	0	0	0
120712	12:00:13	10037	Trial2BackFr	N	3	0	1000	1	57	12:00:13	3839864	0	0	0	0	0	0	0	0	0	0	0	0	0	0	0	0	0
120712	12:00:13	10037	Trial2BackFr	Y	3	57	705	1	58	12:00:13	3841077	0	0	0	0	0	0	0	0	0	0	0	0	0	0	0	0	0
120712	12:00:13	10037	Trial2BackFr	N	3	0	1000	1	59	12:00:13	3842876	0	0	0	0	0	0	0	0	0	0	0	0	0	0	0	0	0
120712	12:00:13	10037	Trial2BackFr	N	3	0	1000	1	60	12:00:13	3844395	0	0	0	0	0	0	0	0	0	0	0	0	0	0	0	0	0
120712	12:00:13	10037	Trial2BackFr	N	3	0	1000	1	61	12:00:13	3845901	0	0	0	0	0	0	0	0	0	0	0	0	0	0	0	0	0
120712	12:00:13	10037	Trial2BackFr	Y	3	57	715	1	62	12:00:13	3847128	0	0	0	0	0	0	0	0	0	0	0	0	0	0	0	0	0
120712	12:00:13	10037	Trial2BackFr	N	3	57	745	0	62	12:00:13	3848660	0	0	0	0	0	0	0	0	0	0	0	0	0	0	0	0	0
120712	12:00:13	10037	Trial2BackFr	N	3	0	1000	1	63	12:00:13	3850420	0	0	0	0	0	0	0	0	0	0	0	0	0	0	0	0	0
120712	12:00:13	10037	Trial2BackFr	N	3	0	1000	1	64	12:00:13	3851926	0	0	0	0	0	0	0	0	0	0	0	0	0	0	0	0	0
120712	12:00:13	10037	Trial2BackFr	N	3	0	1000	1	65	12:00:13	3853432	0	0	0	0	0	0	0	0	0	0	0	0	0	0	0	0	0
120712	12:00:13	10037	Trial2BackFr	N	3	0	1000	1	66	12:00:13	3854938	0	0	0	0	0	0	0	0	0	0	0	0	0	0	0	0	0
120712	12:00:13	10037	Trial2BackFr	Y	3	0	1000	0	66	12:00:13	3856444	0	0	0	0	0	0	0	0	0	0	0	0	0	0	0	0	0
120712	12:00:13	10037	Trial2BackFr	N	3	0	1000	1	67	12:00:13	3857950	0	0	0	0	0	0	0	0	0	0	0	0	0	0	0	0	0
120712	12:00:13	10037	Trial2BackFr	N	3	0	1000	1	68	12:00:13	3859456	0	0	0	0	0	0	0	0	0	0	0	0	0	0	0	0	0
120712	12:00:13	10037	Trial2BackFr	N	3	0	1000	1	69	12:00:13	3860962	0	0	0	0	0	0	0	0	0	0	0	0	0	0	0	0	0
120712	12:00:13	10037	Trial2BackFr	N	3	0	1000	1	70	12:00:13	3862468	0	0	0	0	0	0	0	0	0	0	0	0	0	0	0	0	0
120712	12:00:13	10037	Trial2BackFr	N	3	0	1000	1	71	12:00:13	3863975	0	0	0	0	0	0	0	0	0	0	0	0	0	0	0	0	0
120712	12:00:13	10037	Trial2BackFr	N	3	0	1000	1	72	12:00:13	3865480	0	0	0	0	0	0	0	0	0	0	0	0	0	0	0	0	0
120712	12:00:13	10037	Trial2BackFr	N	3	0	1000	1	73	12:00:13	3866987	0	0	0	0	0	0	0	0	0	0	0	0	0	0	0	0	0
120712	12:00:13	10037	Trial2BackFr	N	3	0	1000	1	74	12:00:13	3868493	0	0	0	0	0	0	0	0	0	0	0	0	0	0	0	0	0
120712	12:00:13	10037	Trial2BackFr	N	3	0	1000	1	75	12:00:13	3870012	0	0	0	0	0	0	0	0	0	0	0	0	0	0	0	0	0
120712	12:00:13	10037	Trial2BackFr	Y	3	0	1000	0	75	12:00:13	3871518	0	0	0	0	0	0	0	0	0	0	0	0	0	0	0	0	0
120712	12:00:13	10037	Trial2BackFr	N	3	0	1000	1	76	12:00:13	3873024	0	0	0	0	0	0	0	0	0	0	0	0	0	0	0	0	0
120712	12:00:13	10037	Trial2BackFr	N	3	0	1000	1	77	12:00:13	3874530	0	0	0	0	0	0	0	0	0	0	0	0	0	0	0	0	0
120712	12:00:13	10037	Trial2BackFr	N	3	0	1000	1	78	12:00:13	3876036	0	0	0	0	0	0	0	0	0	0	0	0	0	0	0	0	0
120712	12:00:13	10037	Trial2BackFr	N	3	0	1000	1	79	12:00:13	3877556	0	0	0	0	0	0	0	0	0	0	0	0	0	0	0	0	0
120712	12:00:13	10037	Trial2BackFr	N	3	57	884	0	79	12:00:13	3878955	0	0	0	0	0	0	0	0	0	0	0	0	0	0	0	0	0
120712	12:00:13	10037	Trial2BackFr	N	3	0	1000	1	80	12:00:13	3880568	0	0	0	0	0	0	0	0	0	0	0	0	0	0	0	0	0
120712	12:00:13	10037	Trial2BackFr	N	3	0	1000	1	81	12:00:13	3882074	0	0	0	0	0	0	0	0	0	0	0	0	0	0	0	0	0
120712	12:00:13	10037	Trial2BackFr	N	3	57	846	0	81	12:00:13	3883433	0	0	0	0	0	0	0	0	0	0	0	0	0	0	0	0	0
120712	12:00:13	10037	Trial2BackFr	Y	3	0	1000	0	81	12:00:13	3885086	0	0	0	0	0	0	0	0	0	0	0	0	0	0	0	0	0
120712	12:00:13	10037	Trial2BackFr	N	3	0	1000	1	82	12:00:13	3886592	0	0	0	0	0	0	0	0	0	0	0	0	0	0	0	0	0
120712	12:00:13	10037	Trial2BackFr	N	3	0	1000	1	83	12:00:13	3888098	0	0	0	0	0	0	0	0	0	0	0	0	0	0	0	0	0
120712	12:00:13	10037	Trial2BackFr	N	3	0	1000	1	84	12:00:13	3889618	0	0	0	0	0	0	0	0	0	0	0	0	0	0	0	0	0
120712	12:00:13	10037	Trial2BackFr	N	3	57	918	0	84	12:00:13	3891043	0	0	0	0	0	0	0	0	0	0	0	0	0	0	0	0	0
120712	12:00:13	10037	Trial2BackFr	Y	3	0	1000	0	84	12:00:13	3892630	0	0	0	0	0	0	0	0	0	0	0	0	0	0	0	0	0
120712	12:00:13	10037	Trial2BackFr	N	3	57	546	0	84	12:00:13	3893696	0	0	0	0	0	0	0	0	0	0	0	0	0	0	0	0	0
120712	12:00:13	10037	Trial2BackFr	N	3	0	1000	1	85	12:00:13	3895642	0	0	0	0	0	0	0	0	0	0	0	0	0	0	0	0	0
120712	12:00:13	10037	Trial2BackFr	N	3	0	1000	1	86	12:00:13	3897148	0	0	0	0	0	0	0	0	0	0	0	0	0	0	0	0	0
120712	12:00:13	10037	Trial2BackFr	Y	3	0	1000	0	86	12:00:13	3898654	0	0	0	0	0	0	0	0	0	0	0	0	0	0	0	0	0
120712	12:00:13	10037	Trial2BackFr	N	3	0	1000	1	87	12:00:13	3900160	0	0	0	0	0	0	0	0	0	0	0	0	0	0	0	0	0
120712	12:00:13	10037	Trial2BackFr	N	3	0	1000	1	88	12:00:13	3901679	0	0	0	0	0	0	0	0	0	0	0	0	0	0	0	0	0
120712	12:00:13	10037	Trial2BackFr	N	3	0	1000	1	89	12:00:13	3903185	0	0	0	0	0	0	0	0	0	0	0	0	0	0	0	0	0
120712	12:00:13	10037	Trial2BackFr	N	3	57	646	0	89	12:00:13	3904345	0	0	0	0	0	0	0	0	0	0	0	0	0	0	0	0	0
120712	12:00:13	10037	Trial2BackFr	N	3	0	1000	1	90	12:00:13	3906197	0	0	0	0	0	0	0	0	0	0	0	0	0	0	0	0	0
120712	12:00:13	10037	Trial2BackFr	Y	3	57	706	1	91	12:00:13	3907424	0	0	0	0	0	0	0	0	0	0	0	0	0	0	0	0	0
120712	12:00:13	10037	Trial2BackFr	N	3	0	1000	1	92	12:00:13	3909210	0	0	0	0	0	0	0	0	0	0	0	0	0	0	0	0	0
120712	12:00:13	10037	Trial2BackFr	N	3	0	1000	1	93	12:00:13	3910716	0	0	0	0	0	0	0	0	0	0	0	0	0	0	0	0	0
120712	12:00:13	10037	Trial2BackFr	N	3	0	1000	1	94	12:00:13	3912222	0	0	0	0	0	0	0	0	0	0	0	0	0	0	0	0	0
120712	12:00:13	10037	Trial2BackFr	Y	3	0	1000	0	94	12:00:13	3913728	0	0	0	0	0	0	0	0	0	0	0	0	0	0	0	0	0
120712	12:00:13	10037	Memory1R3moFr	ScoreFr	5	M1	24514	0	94	12:00:13	3970719	0	0	0	0	0	0	0	0	0	0	0	0	0	0	0	0	0
120712	12:00:13	10037	Memory1R3moFr	ScoreFr	5	M5	2094	0	94	12:00:13	3972865	0	0	0	0	0	0	0	0	0	0	0	0	0	0	0	0	0
120712	12:00:13	10037	Memory1R3moFr	ScoreFr	5	M6	380	0	94	12:00:13	3973291	0	0	0	0	0	0	0	0	0	0	0	0	0	0	0	0	0
120712	12:00:13	10037	Memory1R3moFr	ScoreFr	5	M8	402	0	94	12:00:13	3973745	0	0	0	0	0	0	0	0	0	0	0	0	0	0	0	0	0
120712	12:00:13	10037	Memory1R3moFr	ScoreFr	5	Done	1133	0	94	12:00:13	3974931	0	0	0	0	0	0	0	0	0	0	0	0	0	0	0	0	0
120712	12:00:13	10037	Memory2R3moFr	ScoreFr2	5	11	24014	0	94	12:00:13	4017261	0	0	0	0	0	0	0	0	0	0	0	0	0	0	0	0	0
120712	12:00:13	10037	Memory2R3moFr	ScoreFr2	5	22	312	0	94	12:00:13	4017621	0	0	0	0	0	0	0	0	0	0	0	0	0	0	0	0	0
120712	12:00:13	10037	Memory2R3moFr	ScoreFr2	5	55	544	0	94	12:00:13	4018220	0	0	0	0	0	0	0	0	0	0	0	0	0	0	0	0	0
120712	12:00:13	10037	Memory2R3moFr	ScoreFr2	5	66	176	0	94	12:00:13	4018447	0	0	0	0	0	0	0	0	0	0	0	0	0	0	0	0	0
120712	12:00:13	10037	Memory2R3moFr	ScoreFr2	5	77	326	0	94	12:00:13	4018820	0	0	0	0	0	0	0	0	0	0	0	0	0	0	0	0	0
120712	12:00:13	10037	Memory2R3moFr	ScoreFr2	5	88	168	0	94	12:00:13	4019033	0	0	0	0	0	0	0	0	0	0	0	0	0	0	0	0	0
120712	12:00:13	10037	Memory2R3moFr	ScoreFr2	5	Done	3139	0	94	12:00:13	4022219	0	0	0	0	0	0	0	0	0	0	0	0	0	0	0	0	0
120712	12:00:13	10037	Memory3R3moFr	ScoreFr3	5	111	13358	0	94	12:00:13	4053966	0	0	0	0	0	0	0	0	0	0	0	0	0	0	0	0	0
120712	12:00:13	10037	Memory3R3moFr	ScoreFr3	5	777	646	0	94	12:00:13	4054659	0	0	0	0	0	0	0	0	0	0	0	0	0	0	0	0	0
120712	12:00:13	10037	Memory3R3moFr	ScoreFr3	5	666	363	0	94	12:00:13	4055086	0	0	0	0	0	0	0	0	0	0	0	0	0	0	0	0	0
120712	12:00:13	10037	Memory3R3moFr	ScoreFr3	5	555	950	0	94	12:00:13	4056085	0	0	0	0	0	0	0	0	0	0	0	0	0	0	0	0	0
120712	12:00:13	10037	Memory3R3moFr	ScoreFr3	5	333	1046	0	94	12:00:13	4057178	0	0	0	0	0	0	0	0	0	0	0	0	0	0	0	0	0
120712	12:00:13	10037	Memory3R3moFr	ScoreFr3	5	222	11066	0	94	12:00:13	4068294	0	0	0	0	0	0	0	0	0	0	0	0	0	0	0	0	0
120712	12:00:13	10037	Memory3R3moFr	ScoreFr3	5	444	6384	0	94	12:00:13	4074745	0	0	0	0	0	0	0	0	0	0	0	0	0	0	0	0	0
120712	12:00:13	10037	Memory3R3moFr	ScoreFr3	5	Done	13923	0	94	12:00:13	4088712	0	0	0	0	0	0	0	0	0	0	0	0	0	0	0	0	0
120712	12:00:13	10037	LoriaFrLH3	Stop	6	2	2998	0	94	12:00:13	4201043	0	0	0	0	0	0	0	0	0	0	0	0	0	0	0	0	0
120712	12:00:13	10037	FrTrail	Trails	7	1Trails	823	0	94	12:00:13	4233108	0	0	0	0	0	0	0	0	0	0	0	0	0	0	0	0	0
120712	12:00:13	10037	Serial7Fr3mo	Serial7Fr3mo	8	83	3339	0	94	12:00:13	4265164	1	0	0	0	0	0	0	0	0	0	0	0	0	0	0	0	0
120712	12:00:13	10037	Serial7Fr3mo	Serial7Fr3mo	8	75	9913	0	94	12:00:13	4275094	1	0	0	0	0	0	0	0	0	0	0	0	0	0	0	0	0
120712	12:00:13	10037	Serial7Fr3mo	Serial7Fr3mo	8	68	11240	0	94	12:00:13	4286357	2	0	0	0	0	0	0	0	0	0	0	0	0	0	0	0	0
120712	12:00:13	10037	Serial7Fr3mo	Serial7Fr3mo	8	44	24945	0	94	12:00:13	4311325	2	0	0	0	0	0	0	0	0	0	0	0	0	0	0	0	0
120712	12:00:13	10037	Serial7Fr3mo	Serial7Fr3mo	8	37	3268	0	94	12:00:13	4314616	3	0	0	0	0	0	0	0	0	0	0	0	0	0	0	0	0
120712	12:00:13	10037	corsiblockFrFwrd	recallseqFrFwrd	9	resetCorsiFr	5994	0	94	12:00:13	4415269	3	0	0	0	0	0	0	0	0	0	0	0	0	0	0	0	0
120712	12:00:13	10037	corsiblockFrFwrd	recallseqFrFwrd	9	resetCorsiFr	4919	0	94	12:00:13	4420240	3	0	0	0	0	0	0	0	0	0	0	0	0	0	0	0	0
120712	12:00:13	10037	corsiblockFrFwrd	recallseqFrFwrd	9	3	4484	0	94	12:00:13	4424772	3	0	0	0	0	0	0	0	0	0	0	0	0	0	0	0	0
120712	12:00:13	10037	corsiblockFrFwrd	recallseqFrFwrd	9	7	1432	0	94	12:00:13	4426251	3	0	0	0	0	0	0	0	0	0	0	0	0	0	0	0	0
120712	12:00:13	10037	corsiblockFrFwrd	recallseqFrFwrd	9	doneCorsiFr	1825	0	94	12:00:13	4428131	3	0	0	0	0	0	0	0	0	0	0	0	0	0	0	2	0
120712	12:00:13	10037	corsiblockFrFwrd	recallseqFrFwrd	9	4	1340	0	94	12:00:13	4435594	3	0	0	0	0	0	0	0	0	0	0	0	0	0	0	2	0
120712	12:00:13	10037	corsiblockFrFwrd	recallseqFrFwrd	9	5	833	0	94	12:00:13	4436474	3	0	0	0	0	0	0	0	0	0	0	0	0	0	0	2	0
120712	12:00:13	10037	corsiblockFrFwrd	recallseqFrFwrd	9	9	1170	0	94	12:00:13	4437700	3	0	0	0	0	0	0	0	0	0	0	0	0	0	0	2	0
120712	12:00:13	10037	corsiblockFrFwrd	recallseqFrFwrd	9	doneCorsiFr	1192	0	94	12:00:13	4438939	3	0	0	0	0	0	0	0	0	0	0	0	0	0	0	3	0
120712	12:00:13	10037	corsiblockFrFwrd	recallseqFrFwrd	9	1	811	0	94	12:00:13	4446883	3	0	0	0	0	0	0	0	0	0	0	0	0	0	0	3	0
120712	12:00:13	10037	corsiblockFrFwrd	recallseqFrFwrd	9	8	1352	0	94	12:00:13	4448283	3	0	0	0	0	0	0	0	0	0	0	0	0	0	0	3	0
120712	12:00:13	10037	corsiblockFrFwrd	recallseqFrFwrd	9	6	1049	0	94	12:00:13	4449376	3	0	0	0	0	0	0	0	0	0	0	0	0	0	0	3	0
120712	12:00:13	10037	corsiblockFrFwrd	recallseqFrFwrd	9	2	1196	0	94	12:00:13	4450628	3	0	0	0	0	0	0	0	0	0	0	0	0	0	0	3	0
120712	12:00:13	10037	corsiblockFrFwrd	recallseqFrFwrd	9	doneCorsiFr	1543	0	94	12:00:13	4452228	3	0	0	0	0	0	0	0	0	0	0	0	0	0	0	4	0
120712	12:00:13	10037	corsiblockFrFwrd	recallseqFrFwrd	9	5	915	0	94	12:00:13	4461264	3	0	0	0	0	0	0	0	0	0	0	0	0	0	0	4	0
120712	12:00:13	10037	corsiblockFrFwrd	recallseqFrFwrd	9	9	1349	0	94	12:00:13	4462664	3	0	0	0	0	0	0	0	0	0	0	0	0	0	0	4	0
120712	12:00:13	10037	corsiblockFrFwrd	recallseqFrFwrd	9	1	820	0	94	12:00:13	4463530	3	0	0	0	0	0	0	0	0	0	0	0	0	0	0	4	0
120712	12:00:13	10037	corsiblockFrFwrd	recallseqFrFwrd	9	6	1114	0	94	12:00:13	4464690	3	0	0	0	0	0	0	0	0	0	0	0	0	0	0	4	0
120712	12:00:13	10037	corsiblockFrFwrd	recallseqFrFwrd	9	4	938	0	94	12:00:13	4465676	3	0	0	0	0	0	0	0	0	0	0	0	0	0	0	4	0
120712	12:00:13	10037	corsiblockFrFwrd	recallseqFrFwrd	9	doneCorsiFr	1672	0	94	12:00:13	4467395	3	0	0	0	0	0	0	0	0	0	0	0	0	0	0	4	0
120712	12:00:13	10037	corsiblockFrFwrd	recallseqFrFwrd	9	4	859	0	94	12:00:13	4476338	3	0	0	0	0	0	0	0	0	0	0	0	0	0	0	4	0
120712	12:00:13	10037	corsiblockFrFwrd	recallseqFrFwrd	9	8	905	0	94	12:00:13	4477298	3	0	0	0	0	0	0	0	0	0	0	0	0	0	0	4	0
120712	12:00:13	10037	corsiblockFrFwrd	recallseqFrFwrd	9	2	748	0	94	12:00:13	4478097	3	0	0	0	0	0	0	0	0	0	0	0	0	0	0	4	0
120712	12:00:13	10037	corsiblockFrFwrd	recallseqFrFwrd	9	3	738	0	94	12:00:13	4478884	3	0	0	0	0	0	0	0	0	0	0	0	0	0	0	4	0
120712	12:00:13	10037	corsiblockFrFwrd	recallseqFrFwrd	9	7	1031	0	94	12:00:13	4479964	3	0	0	0	0	0	0	0	0	0	0	0	0	0	0	4	0
120712	12:00:13	10037	corsiblockFrFwrd	recallseqFrFwrd	9	doneCorsiFr	1312	0	94	12:00:13	4481323	3	0	0	0	0	0	0	0	0	0	0	0	0	0	0	5	0
120712	12:00:13	10037	corsiblockFrFwrd	recallseqFrFwrd	9	3	1297	0	94	12:00:13	4490732	3	0	0	0	0	0	0	0	0	0	0	0	0	0	0	5	0
120712	12:00:13	10037	corsiblockFrFwrd	recallseqFrFwrd	9	6	926	0	94	12:00:13	4491706	3	0	0	0	0	0	0	0	0	0	0	0	0	0	0	5	0
120712	12:00:13	10037	corsiblockFrFwrd	recallseqFrFwrd	9	2	865	0	94	12:00:13	4492625	3	0	0	0	0	0	0	0	0	0	0	0	0	0	0	5	0
120712	12:00:13	10037	corsiblockFrFwrd	recallseqFrFwrd	9	9	1162	0	94	12:00:13	4493838	3	0	0	0	0	0	0	0	0	0	0	0	0	0	0	5	0
120712	12:00:13	10037	corsiblockFrFwrd	recallseqFrFwrd	9	8	949	0	94	12:00:13	4494838	3	0	0	0	0	0	0	0	0	0	0	0	0	0	0	5	0
120712	12:00:13	10037	corsiblockFrFwrd	recallseqFrFwrd	9	4	721	0	94	12:00:13	4495611	3	0	0	0	0	0	0	0	0	0	0	0	0	0	0	5	0
120712	12:00:13	10037	corsiblockFrFwrd	recallseqFrFwrd	9	doneCorsiFr	1616	0	94	12:00:13	4497277	3	0	0	0	0	0	0	0	0	0	0	0	0	0	0	6	0
120712	12:00:13	10037	corsiblockFrFwrd	recallseqFrFwrd	9	1	1330	0	94	12:00:13	4508739	3	0	0	0	0	0	0	0	0	0	0	0	0	0	0	6	0
120712	12:00:13	10037	corsiblockFrFwrd	recallseqFrFwrd	9	3	1112	0	94	12:00:13	4509898	3	0	0	0	0	0	0	0	0	0	0	0	0	0	0	6	0
120712	12:00:13	10037	corsiblockFrFwrd	recallseqFrFwrd	9	5	1201	0	94	12:00:13	4511151	3	0	0	0	0	0	0	0	0	0	0	0	0	0	0	6	0
120712	12:00:13	10037	corsiblockFrFwrd	recallseqFrFwrd	9	4	844	0	94	12:00:13	4512044	3	0	0	0	0	0	0	0	0	0	0	0	0	0	0	6	0
120712	12:00:13	10037	corsiblockFrFwrd	recallseqFrFwrd	9	8	1439	0	94	12:00:13	4513537	3	0	0	0	0	0	0	0	0	0	0	0	0	0	0	6	0
120712	12:00:13	10037	corsiblockFrFwrd	recallseqFrFwrd	9	4	1130	0	94	12:00:13	4514723	3	0	0	0	0	0	0	0	0	0	0	0	0	0	0	6	0
120712	12:00:13	10037	corsiblockFrFwrd	recallseqFrFwrd	9	9	1456	0	94	12:00:13	4516229	3	0	0	0	0	0	0	0	0	0	0	0	0	0	0	6	0
120712	12:00:13	10037	corsiblockFrFwrd	recallseqFrFwrd	9	doneCorsiFr	1590	0	94	12:00:13	4517869	3	0	0	0	0	0	0	0	0	0	0	0	0	0	0	6	0
120712	12:00:13	10037	corsiblockFrFwrd	recallseqFrFwrd	9	8	1994	0	94	12:00:13	4529944	3	0	0	0	0	0	0	0	0	0	0	0	0	0	0	6	0
120712	12:00:13	10037	corsiblockFrFwrd	recallseqFrFwrd	9	6	2339	0	94	12:00:13	4532330	3	0	0	0	0	0	0	0	0	0	0	0	0	0	0	6	0
120712	12:00:13	10037	corsiblockFrFwrd	recallseqFrFwrd	9	5	1113	0	94	12:00:13	4533489	3	0	0	0	0	0	0	0	0	0	0	0	0	0	0	6	0
120712	12:00:13	10037	corsiblockFrFwrd	recallseqFrFwrd	9	4	898	0	94	12:00:13	4534435	3	0	0	0	0	0	0	0	0	0	0	0	0	0	0	6	0
120712	12:00:13	10037	corsiblockFrFwrd	recallseqFrFwrd	9	6	935	0	94	12:00:13	4535422	3	0	0	0	0	0	0	0	0	0	0	0	0	0	0	6	0
120712	12:00:13	10037	corsiblockFrFwrd	recallseqFrFwrd	9	3	901	0	94	12:00:13	4536368	3	0	0	0	0	0	0	0	0	0	0	0	0	0	0	6	0
120712	12:00:13	10037	corsiblockFrFwrd	recallseqFrFwrd	9	4	786	0	94	12:00:13	4537208	3	0	0	0	0	0	0	0	0	0	0	0	0	0	0	6	0
120712	12:00:13	10037	corsiblockFrFwrd	recallseqFrFwrd	9	doneCorsiFr	1483	0	94	12:00:13	4538740	3	0	0	0	0	0	0	0	0	0	0	0	0	0	0	6	0
120712	12:00:13	10037	corsiblockFrRev	recallseqFrRev	10	1	2641	0	94	12:00:13	4555854	3	0	0	0	0	0	0	0	0	0	0	0	0	0	0	6	0
120712	12:00:13	10037	corsiblockFrRev	recallseqFrRev	10	8	1093	0	94	12:00:13	4557000	3	0	0	0	0	0	0	0	0	0	0	0	0	0	0	6	0
120712	12:00:13	10037	corsiblockFrRev	recallseqFrRev	10	doneCorsiFr	1539	0	94	12:00:13	4558586	3	0	0	0	0	0	0	0	0	0	0	0	0	0	0	6	2
120712	12:00:13	10037	corsiblockFrRev	recallseqFrRev	10	4	1851	0	94	12:00:13	4566569	3	0	0	0	0	0	0	0	0	0	0	0	0	0	0	6	2
120712	12:00:13	10037	corsiblockFrRev	recallseqFrRev	10	2	1049	0	94	12:00:13	4567662	3	0	0	0	0	0	0	0	0	0	0	0	0	0	0	6	2
120712	12:00:13	10037	corsiblockFrRev	recallseqFrRev	10	7	972	0	94	12:00:13	4568689	3	0	0	0	0	0	0	0	0	0	0	0	0	0	0	6	2
120712	12:00:13	10037	corsiblockFrRev	recallseqFrRev	10	doneCorsiFr	1282	0	94	12:00:13	4570021	3	0	0	0	0	0	0	0	0	0	0	0	0	0	0	6	3
120712	12:00:13	10037	corsiblockFrRev	recallseqFrRev	10	3	1434	0	94	12:00:13	4578591	3	0	0	0	0	0	0	0	0	0	0	0	0	0	0	6	3
120712	12:00:13	10037	corsiblockFrRev	recallseqFrRev	10	9	1163	0	94	12:00:13	4579804	3	0	0	0	0	0	0	0	0	0	0	0	0	0	0	6	3
120712	12:00:13	10037	corsiblockFrRev	recallseqFrRev	10	5	1013	0	94	12:00:13	4580870	3	0	0	0	0	0	0	0	0	0	0	0	0	0	0	6	3
120712	12:00:13	10037	corsiblockFrRev	recallseqFrRev	10	6	651	0	94	12:00:13	4581577	3	0	0	0	0	0	0	0	0	0	0	0	0	0	0	6	3
120712	12:00:13	10037	corsiblockFrRev	recallseqFrRev	10	doneCorsiFr	1257	0	94	12:00:13	4582883	3	0	0	0	0	0	0	0	0	0	0	0	0	0	0	6	4
120712	12:00:13	10037	corsiblockFrRev	recallseqFrRev	10	3	1298	0	94	12:00:13	4592306	3	0	0	0	0	0	0	0	0	0	0	0	0	0	0	6	4
120712	12:00:13	10037	corsiblockFrRev	recallseqFrRev	10	7	1104	0	94	12:00:13	4593466	3	0	0	0	0	0	0	0	0	0	0	0	0	0	0	6	4
120712	12:00:13	10037	corsiblockFrRev	recallseqFrRev	10	1	929	0	94	12:00:13	4594438	3	0	0	0	0	0	0	0	0	0	0	0	0	0	0	6	4
120712	12:00:13	10037	corsiblockFrRev	recallseqFrRev	10	8	1324	0	94	12:00:13	4595811	3	0	0	0	0	0	0	0	0	0	0	0	0	0	0	6	4
120712	12:00:13	10037	corsiblockFrRev	recallseqFrRev	10	doneCorsiFr	1767	0	94	12:00:13	4597624	3	0	0	0	0	0	0	0	0	0	0	0	0	0	0	6	4
120712	12:00:13	10037	corsiblockFrRev	recallseqFrRev	10	9	2653	0	94	12:00:13	4608366	3	0	0	0	0	0	0	0	0	0	0	0	0	0	0	6	4
120712	12:00:13	10037	corsiblockFrRev	recallseqFrRev	10	2	955	0	94	12:00:13	4609366	3	0	0	0	0	0	0	0	0	0	0	0	0	0	0	6	4
120712	12:00:13	10037	corsiblockFrRev	recallseqFrRev	10	5	1700	0	94	12:00:13	4611112	3	0	0	0	0	0	0	0	0	0	0	0	0	0	0	6	4
120712	12:00:13	10037	corsiblockFrRev	recallseqFrRev	10	6	978	0	94	12:00:13	4612138	3	0	0	0	0	0	0	0	0	0	0	0	0	0	0	6	4
120712	12:00:13	10037	corsiblockFrRev	recallseqFrRev	10	doneCorsiFr	2224	0	94	12:00:13	4614417	3	0	0	0	0	0	0	0	0	0	0	0	0	0	0	6	4
120712	12:00:13	10037	testFr3mo	WordsFr3mo	11	2Fr3mo	11363	0	94	12:00:13	4633663	3	0	3	0	0	0	0	0	0	0	0	0	0	0	0	6	4
120712	12:00:13	10037	testFr3mo	WordsFr3mo	11	6Fr3mo	2506	0	94	12:00:13	4636222	3	0	3	0	0	0	3	0	0	0	0	0	0	0	0	6	4
120712	12:00:13	10037	testFr3mo	WordsFr3mo	11	4Fr3mo	5763	0	94	12:00:13	4642033	3	0	3	0	3	0	3	0	0	0	0	0	0	0	0	6	4
120712	12:00:13	10037	testFr3mo	WordsFr3mo	11	3Fr3mo	4136	0	94	12:00:13	4646218	3	0	3	3	3	0	3	0	0	0	0	0	0	0	0	6	4
120712	12:00:13	10037	testFr3mo	WordsFr3mo	11	7Fr3mo	1911	0	94	12:00:13	4648177	3	0	3	3	3	0	3	3	0	0	0	0	0	0	0	6	4
120712	12:00:13	10037	testFr3mo	WordsFr3mo	11	5Fr3mo	14744	0	94	12:00:13	4662971	3	0	3	3	3	3	3	3	0	0	0	0	0	0	0	6	4
120712	12:00:13	10037	testFr3mo	WordsFr3mo	11	DoneFr3mo	9790	0	94	12:00:13	4672808	3	0	3	3	3	3	3	3	0	0	0	0	0	0	0	6	4
120712	12:00:13	10037	testFr3mo	Cat1Fr3mo	11	0	1	0	94	12:00:13	4672817	3	0	3	3	3	3	3	3	0	0	0	0	0	0	0	6	4
120712	12:00:13	10037	testFr3mo	Ch1Fr3mo	11	RR1Fr3mo	5167	0	94	12:00:13	4678045	3	1	3	3	3	3	3	3	0	0	0	0	0	0	0	6	4
120712	12:00:13	10037	testFr3mo	Cat8Fr3mo	11	R8Fr3mo	6314	0	94	12:00:13	4684389	3	1	3	3	3	3	3	3	2	0	0	0	0	0	0	6	4
120712	12:00:13	10037	DigitSpanFwrdFr3mo	Score1FwrdFr3mo	12	DS1	6986	0	94	12:00:13	4707340	3	1	3	3	3	3	3	3	2	0	0	0	0	0	0	6	4
120712	12:00:13	10037	DigitSpanFwrdFr3mo	Gate1FwrdFr3mo	12	0	1	0	94	12:00:13	4707347	3	1	3	3	3	3	3	3	2	3	0	0	0	0	0	6	4
120712	12:00:13	10037	DigitSpanFwrdFr3mo	Score2FwrdFr3mo	12	DS1	3508	0	94	12:00:13	4716563	3	1	3	3	3	3	3	3	2	3	0	0	0	0	0	6	4
120712	12:00:13	10037	DigitSpanFwrdFr3mo	Gate3FwrdFr3mo	12	0	1	0	94	12:00:13	4716570	3	1	3	3	3	3	3	3	2	4	0	0	0	0	0	6	4
120712	12:00:13	10037	DigitSpanFwrdFr3mo	Score3FwrdFr3mo	12	DS1	6217	0	94	12:00:13	4730025	3	1	3	3	3	3	3	3	2	4	0	0	0	0	0	6	4
120712	12:00:13	10037	DigitSpanFwrdFr3mo	Gate5FwrdFr3mo	12	0	1	0	94	12:00:13	4730030	3	1	3	3	3	3	3	3	2	5	0	0	0	0	0	6	4
120712	12:00:13	10037	DigitSpanFwrdFr3mo	Score4FwrdFr3mo	12	DS1	6091	0	94	12:00:13	4744645	3	1	3	3	3	3	3	3	2	5	0	0	0	0	0	6	4
120712	12:00:13	10037	DigitSpanFwrdFr3mo	Gate7FwrdFr3mo	12	0	1	0	94	12:00:13	4744650	3	1	3	3	3	3	3	3	2	6	0	0	0	0	0	6	4
120712	12:00:13	10037	DigitSpanFwrdFr3mo	Score5FwrdFr3mo	12	DS2	9197	0	94	12:00:13	4765917	3	1	3	3	3	3	3	3	2	6	0	0	0	0	0	6	4
120712	12:00:13	10037	DigitSpanFwrdFr3mo	Gate9FwrdFr3mo	12	0	1	0	94	12:00:13	4765921	3	1	3	3	3	3	3	3	2	6	0	0	0	0	0	6	4
120712	12:00:13	10037	DigitSpanFwrdFr3mo	Score55FwrdFr3mo	12	DS2	9534	0	94	12:00:13	4788282	3	1	3	3	3	3	3	3	2	6	0	0	0	0	0	6	4
120712	12:00:13	10037	DigitSpanFr3mo	Score1Fr3mo	13	DS1	3656	0	94	12:00:13	4802529	3	1	3	3	3	3	3	3	2	6	0	0	0	0	0	6	4
120712	12:00:13	10037	DigitSpanFr3mo	Gate1Fr3mo	13	0	1	0	94	12:00:13	4802534	3	1	3	3	3	3	3	3	2	6	2	0	0	0	0	6	4
120712	12:00:13	10037	DigitSpanFr3mo	Score2Fr3mo	13	DS1	3782	0	94	12:00:13	4810859	3	1	3	3	3	3	3	3	2	6	2	0	0	0	0	6	4
120712	12:00:13	10037	DigitSpanFr3mo	Gate3Fr3mo	13	0	1	0	94	12:00:13	4810864	3	1	3	3	3	3	3	3	2	6	3	0	0	0	0	6	4
120712	12:00:13	10037	DigitSpanFr3mo	Score3Fr3mo	13	DS2	8846	0	94	12:00:13	4825387	3	1	3	3	3	3	3	3	2	6	3	0	0	0	0	6	4
120712	12:00:13	10037	DigitSpanFr3mo	Gate5Fr3mo	13	0	1	0	94	12:00:13	4825391	3	1	3	3	3	3	3	3	2	6	3	0	0	0	0	6	4
120712	12:00:13	10037	DigitSpanFr3mo	Score33Fr3mo	13	DS2	10703	0	94	12:00:13	4842140	3	1	3	3	3	3	3	3	2	6	3	0	0	0	0	6	4
120712	12:00:13	10037	Trial	ResponseIL	14	0	175	0	94	12:00:13	4914458	3	1	3	3	3	3	3	3	2	6	3	0	0	0	0	6	4
120712	12:00:13	10037	Trial	IncongruentLeft	14	205	320	0	94	12:00:13	4914805	3	1	3	3	3	3	3	3	2	6	3	0	0	0	0	6	4
120712	12:00:13	10037	Trial	ResponseCR	14	0	175	0	94	12:00:13	4916164	3	1	3	3	3	3	3	3	2	6	3	0	0	0	0	6	4
120712	12:00:13	10037	Trial	CongruentRight	14	205	406	1	94	12:00:13	4916591	3	1	3	3	3	3	3	3	2	6	3	0	0	0	0	6	4
120712	12:00:13	10037	Trial	ResponseIR	14	0	175	0	94	12:00:13	4917870	3	1	3	3	3	3	3	3	2	6	3	0	0	0	0	6	4
120712	12:00:13	10037	Trial	IncongruentRight	14	203	429	0	94	12:00:13	4918324	3	1	3	3	3	3	3	3	2	6	3	0	0	0	0	6	4
120712	12:00:13	10037	Trial	ResponseCL	14	0	175	0	94	12:00:13	4919577	3	1	3	3	3	3	3	3	2	6	3	0	0	0	0	6	4
120712	12:00:13	10037	Trial	CongruentLeft	14	203	691	1	94	12:00:13	4920296	3	1	3	3	3	3	3	3	2	6	3	0	0	0	0	6	4
120712	12:00:13	10037	Trial	ResponseCR	14	0	175	0	94	12:00:13	4921282	3	1	3	3	3	3	3	3	2	6	3	0	0	0	0	6	4
120712	12:00:13	10037	Trial	CongruentRight	14	205	424	1	94	12:00:13	4921736	3	1	3	3	3	3	3	3	2	6	3	0	0	0	0	6	4
120712	12:00:13	10037	Trial	ResponseIR	14	0	175	0	94	12:00:13	4922988	3	1	3	3	3	3	3	3	2	6	3	0	0	0	0	6	4
120712	12:00:13	10037	Trial	IncongruentRight	14	203	350	0	94	12:00:13	4923361	3	1	3	3	3	3	3	3	2	6	3	0	0	0	0	6	4
120712	12:00:13	10037	Trial	ResponseCL	14	0	175	0	94	12:00:13	4924694	3	1	3	3	3	3	3	3	2	6	3	0	0	0	0	6	4
120712	12:00:13	10037	Trial	CongruentLeft	14	205	196	0	94	12:00:13	4924907	3	1	3	3	3	3	3	3	2	6	3	0	0	0	0	6	4
120712	12:00:13	10037	Trial	ResponseIL	14	0	175	0	94	12:00:13	4926400	3	1	3	3	3	3	3	3	2	6	3	0	0	0	0	6	4
120712	12:00:13	10037	Trial	IncongruentLeft	14	0	1000	0	94	12:00:13	4927413	3	1	3	3	3	3	3	3	2	6	3	0	0	0	0	6	4
120712	12:00:13	10037	Trial	ResponseIL	14	0	175	0	94	12:00:13	4928120	3	1	3	3	3	3	3	3	2	6	3	0	0	0	0	6	4
120712	12:00:13	10037	Trial	IncongruentLeft	14	203	211	1	94	12:00:13	4928360	3	1	3	3	3	3	3	3	2	6	3	0	0	0	0	6	4
120712	12:00:13	10037	Trial	ResponseCR	14	0	175	0	94	12:00:13	4929826	3	1	3	3	3	3	3	3	2	6	3	0	0	0	0	6	4
120712	12:00:13	10037	Trial	CongruentRight	14	205	441	1	94	12:00:13	4930292	3	1	3	3	3	3	3	3	2	6	3	0	0	0	0	6	4
120712	12:00:13	10037	Trial	ResponseIR	14	0	175	0	94	12:00:13	4931532	3	1	3	3	3	3	3	3	2	6	3	0	0	0	0	6	4
120712	12:00:13	10037	Trial	IncongruentRight	14	203	383	0	94	12:00:13	4931931	3	1	3	3	3	3	3	3	2	6	3	0	0	0	0	6	4
120712	12:00:13	10037	Trial	ResponseCL	14	0	175	0	94	12:00:13	4933238	3	1	3	3	3	3	3	3	2	6	3	0	0	0	0	6	4
120712	12:00:13	10037	Trial	CongruentLeft	14	203	389	1	94	12:00:13	4933651	3	1	3	3	3	3	3	3	2	6	3	0	0	0	0	6	4
120712	12:00:13	10037	Trial	ResponseCR	14	0	175	0	94	12:00:13	4934944	3	1	3	3	3	3	3	3	2	6	3	0	0	0	0	6	4
120712	12:00:13	10037	Trial	CongruentRight	14	205	347	1	94	12:00:13	4935317	3	1	3	3	3	3	3	3	2	6	3	0	0	0	0	6	4
120712	12:00:13	10037	Trial	ResponseIL	14	0	175	0	94	12:00:13	4936650	3	1	3	3	3	3	3	3	2	6	3	0	0	0	0	6	4
120712	12:00:13	10037	Trial	IncongruentLeft	14	205	481	0	94	12:00:13	4937156	3	1	3	3	3	3	3	3	2	6	3	0	0	0	0	6	4
120712	12:00:13	10037	Trial	ResponseIR	14	0	175	0	94	12:00:13	4938356	3	1	3	3	3	3	3	3	2	6	3	0	0	0	0	6	4
120712	12:00:13	10037	Trial	IncongruentRight	14	203	359	0	94	12:00:13	4938742	3	1	3	3	3	3	3	3	2	6	3	0	0	0	0	6	4
120712	12:00:13	10037	Trial	ResponseCR	14	0	175	0	94	12:00:13	4940062	3	1	3	3	3	3	3	3	2	6	3	0	0	0	0	6	4
120712	12:00:13	10037	Trial	CongruentRight	14	205	303	1	94	12:00:13	4940382	3	1	3	3	3	3	3	3	2	6	3	0	0	0	0	6	4
120712	12:00:13	10037	Trial	ResponseCL	14	0	175	0	94	12:00:13	4941768	3	1	3	3	3	3	3	3	2	6	3	0	0	0	0	6	4
120712	12:00:13	10037	Trial	CongruentLeft	14	203	371	1	94	12:00:13	4942168	3	1	3	3	3	3	3	3	2	6	3	0	0	0	0	6	4
120712	12:00:13	10037	Trial	ResponseCR	14	0	175	0	94	12:00:13	4943474	3	1	3	3	3	3	3	3	2	6	3	0	0	0	0	6	4
120712	12:00:13	10037	Trial	CongruentRight	14	205	329	1	94	12:00:13	4943820	3	1	3	3	3	3	3	3	2	6	3	0	0	0	0	6	4
120712	12:00:13	10037	Trial	ResponseIR	14	0	175	0	94	12:00:13	4945180	3	1	3	3	3	3	3	3	2	6	3	0	0	0	0	6	4
120712	12:00:13	10037	Trial	IncongruentRight	14	205	495	1	94	12:00:13	4945700	3	1	3	3	3	3	3	3	2	6	3	0	0	0	0	6	4
120712	12:00:13	10037	Trial	ResponseIL	14	0	175	0	94	12:00:13	4946886	3	1	3	3	3	3	3	3	2	6	3	0	0	0	0	6	4
120712	12:00:13	10037	Trial	IncongruentLeft	14	205	469	0	94	12:00:13	4947379	3	1	3	3	3	3	3	3	2	6	3	0	0	0	0	6	4
120712	12:00:13	10037	Trial	ResponseIL	14	0	175	0	94	12:00:13	4948592	3	1	3	3	3	3	3	3	2	6	3	0	0	0	0	6	4
120712	12:00:13	10037	Trial	IncongruentLeft	14	203	618	1	94	12:00:13	4949231	3	1	3	3	3	3	3	3	2	6	3	0	0	0	0	6	4
120712	12:00:13	10037	Trial	ResponseCL	14	0	175	0	94	12:00:13	4950298	3	1	3	3	3	3	3	3	2	6	3	0	0	0	0	6	4
120712	12:00:13	10037	Trial	CongruentLeft	14	203	817	1	94	12:00:13	4951137	3	1	3	3	3	3	3	3	2	6	3	0	0	0	0	6	4
120712	12:00:13	10037	Trial	ResponseCR	14	0	175	0	94	12:00:13	4952004	3	1	3	3	3	3	3	3	2	6	3	0	0	0	0	6	4
120712	12:00:13	10037	Trial	CongruentRight	14	205	407	1	94	12:00:13	4952430	3	1	3	3	3	3	3	3	2	6	3	0	0	0	0	6	4
120712	12:00:13	10037	Trial	ResponseIL	14	0	175	0	94	12:00:13	4953710	3	1	3	3	3	3	3	3	2	6	3	0	0	0	0	6	4
120712	12:00:13	10037	Trial	IncongruentLeft	14	205	301	0	94	12:00:13	4954029	3	1	3	3	3	3	3	3	2	6	3	0	0	0	0	6	4
120712	12:00:13	10037	Trial	ResponseIR	14	0	175	0	94	12:00:13	4955416	3	1	3	3	3	3	3	3	2	6	3	0	0	0	0	6	4
120712	12:00:13	10037	Trial	IncongruentRight	14	205	755	1	94	12:00:13	4956189	3	1	3	3	3	3	3	3	2	6	3	0	0	0	0	6	4
120712	12:00:13	10037	Trial	ResponseCR	14	0	175	0	94	12:00:13	4957122	3	1	3	3	3	3	3	3	2	6	3	0	0	0	0	6	4
120712	12:00:13	10037	Trial	CongruentRight	14	205	617	1	94	12:00:13	4957761	3	1	3	3	3	3	3	3	2	6	3	0	0	0	0	6	4
120712	12:00:13	10037	Trial	ResponseCL	14	0	175	0	94	12:00:13	4958828	3	1	3	3	3	3	3	3	2	6	3	0	0	0	0	6	4
120712	12:00:13	10037	Trial	CongruentLeft	14	203	319	1	94	12:00:13	4959174	3	1	3	3	3	3	3	3	2	6	3	0	0	0	0	6	4
120712	12:00:13	10037	Trial	ResponseIR	14	0	175	0	94	12:00:13	4960534	3	1	3	3	3	3	3	3	2	6	3	0	0	0	0	6	4
120712	12:00:13	10037	Trial	IncongruentRight	14	203	309	0	94	12:00:13	4960867	3	1	3	3	3	3	3	3	2	6	3	0	0	0	0	6	4
120712	12:00:13	10037	Trial	ResponseIL	14	0	175	0	94	12:00:13	4962240	3	1	3	3	3	3	3	3	2	6	3	0	0	0	0	6	4
120712	12:00:13	10037	Trial	IncongruentLeft	14	205	315	0	94	12:00:13	4962573	3	1	3	3	3	3	3	3	2	6	3	0	0	0	0	6	4
120712	12:00:13	10037	Trial	ResponseIR	14	0	175	0	94	12:00:13	4963946	3	1	3	3	3	3	3	3	2	6	3	0	0	0	0	6	4
120712	12:00:13	10037	Trial	IncongruentRight	14	205	241	1	94	12:00:13	4964212	3	1	3	3	3	3	3	3	2	6	3	0	0	0	0	6	4
120712	12:00:13	10037	Trial	ResponseCR	14	0	175	0	94	12:00:13	4965652	3	1	3	3	3	3	3	3	2	6	3	0	0	0	0	6	4
120712	12:00:13	10037	Trial	CongruentRight	14	205	375	1	94	12:00:13	4966051	3	1	3	3	3	3	3	3	2	6	3	0	0	0	0	6	4
120712	12:00:13	10037	Trial	ResponseIL	14	0	175	0	94	12:00:13	4967358	3	1	3	3	3	3	3	3	2	6	3	0	0	0	0	6	4
120712	12:00:13	10037	Trial	IncongruentLeft	14	205	380	0	94	12:00:13	4967757	3	1	3	3	3	3	3	3	2	6	3	0	0	0	0	6	4
120712	12:00:13	10037	Trial	ResponseCL	14	0	175	0	94	12:00:13	4969064	3	1	3	3	3	3	3	3	2	6	3	0	0	0	0	6	4
120712	12:00:13	10037	Trial	CongruentLeft	14	203	290	1	94	12:00:13	4969384	3	1	3	3	3	3	3	3	2	6	3	0	0	0	0	6	4
120712	12:00:13	10037	Trial	ResponseCR	14	0	175	0	94	12:00:13	4970770	3	1	3	3	3	3	3	3	2	6	3	0	0	0	0	6	4
120712	12:00:13	10037	Trial	CongruentRight	14	205	201	1	94	12:00:13	4970996	3	1	3	3	3	3	3	3	2	6	3	0	0	0	0	6	4
120712	12:00:13	10037	Trial	ResponseIL	14	0	175	0	94	12:00:13	4972476	3	1	3	3	3	3	3	3	2	6	3	0	0	0	0	6	4
120712	12:00:13	10037	Trial	IncongruentLeft	14	205	302	0	94	12:00:13	4972795	3	1	3	3	3	3	3	3	2	6	3	0	0	0	0	6	4
120712	12:00:13	10037	Trial	ResponseIR	14	0	175	0	94	12:00:13	4974182	3	1	3	3	3	3	3	3	2	6	3	0	0	0	0	6	4
120712	12:00:13	10037	Trial	IncongruentRight	14	203	149	0	94	12:00:13	4974355	3	1	3	3	3	3	3	3	2	6	3	0	0	0	0	6	4
120712	12:00:13	10037	Trial	ResponseIR	14	0	175	0	94	12:00:13	4975888	3	1	3	3	3	3	3	3	2	6	3	0	0	0	0	6	4
120712	12:00:13	10037	Trial	IncongruentRight	14	203	298	0	94	12:00:13	4976207	3	1	3	3	3	3	3	3	2	6	3	0	0	0	0	6	4
120712	12:00:13	10037	Trial	ResponseCL	14	0	175	0	94	12:00:13	4977594	3	1	3	3	3	3	3	3	2	6	3	0	0	0	0	6	4
120712	12:00:13	10037	Trial	CongruentLeft	14	205	128	0	94	12:00:13	4977740	3	1	3	3	3	3	3	3	2	6	3	0	0	0	0	6	4
120712	12:00:13	10037	Trial	ResponseIL	14	0	175	0	94	12:00:13	4979300	3	1	3	3	3	3	3	3	2	6	3	0	0	0	0	6	4
120712	12:00:13	10037	Trial	IncongruentLeft	14	205	614	0	94	12:00:13	4979939	3	1	3	3	3	3	3	3	2	6	3	0	0	0	0	6	4
120712	12:00:13	10037	Trial	ResponseCR	14	0	175	0	94	12:00:13	4981006	3	1	3	3	3	3	3	3	2	6	3	0	0	0	0	6	4
120712	12:00:13	10037	Trial	CongruentRight	14	205	572	1	94	12:00:13	4981605	3	1	3	3	3	3	3	3	2	6	3	0	0	0	0	6	4
120712	12:00:13	10037	Trial	ResponseCL	14	0	175	0	94	12:00:13	4982712	3	1	3	3	3	3	3	3	2	6	3	0	0	0	0	6	4
120712	12:00:13	10037	Trial	CongruentLeft	14	203	226	1	94	12:00:13	4982965	3	1	3	3	3	3	3	3	2	6	3	0	0	0	0	6	4
120712	12:00:13	10037	Trial	ResponseIR	14	0	175	0	94	12:00:13	4984418	3	1	3	3	3	3	3	3	2	6	3	0	0	0	0	6	4
120712	12:00:13	10037	Trial	IncongruentRight	14	203	345	0	94	12:00:13	4984791	3	1	3	3	3	3	3	3	2	6	3	0	0	0	0	6	4
120712	12:00:13	10037	Trial	ResponseCR	14	0	175	0	94	12:00:13	4986124	3	1	3	3	3	3	3	3	2	6	3	0	0	0	0	6	4
120712	12:00:13	10037	Trial	CongruentRight	14	205	462	1	94	12:00:13	4986603	3	1	3	3	3	3	3	3	2	6	3	0	0	0	0	6	4
120712	12:00:13	10037	Trial	ResponseIL	14	0	175	0	94	12:00:13	4987830	3	1	3	3	3	3	3	3	2	6	3	0	0	0	0	6	4
120712	12:00:13	10037	Trial	IncongruentLeft	14	203	516	1	94	12:00:13	4988363	3	1	3	3	3	3	3	3	2	6	3	0	0	0	0	6	4
120712	12:00:13	10037	Trial	ResponseCL	14	0	175	0	94	12:00:13	4989536	3	1	3	3	3	3	3	3	2	6	3	0	0	0	0	6	4
120712	12:00:13	10037	Trial	CongruentLeft	14	203	378	1	94	12:00:13	4989935	3	1	3	3	3	3	3	3	2	6	3	0	0	0	0	6	4
120712	12:00:13	10037	Trial	ResponseIL	14	0	175	0	94	12:00:13	4991242	3	1	3	3	3	3	3	3	2	6	3	0	0	0	0	6	4
120712	12:00:13	10037	Trial	IncongruentLeft	14	205	320	0	94	12:00:13	4991588	3	1	3	3	3	3	3	3	2	6	3	0	0	0	0	6	4
120712	12:00:13	10037	Trial	ResponseIR	14	0	175	0	94	12:00:13	4992948	3	1	3	3	3	3	3	3	2	6	3	0	0	0	0	6	4
120712	12:00:13	10037	Trial	IncongruentRight	14	203	230	0	94	12:00:13	4993201	3	1	3	3	3	3	3	3	2	6	3	0	0	0	0	6	4
120712	12:00:13	10037	Trial	ResponseCR	14	0	175	0	94	12:00:13	4994654	3	1	3	3	3	3	3	3	2	6	3	0	0	0	0	6	4
120712	12:00:13	10037	Trial	CongruentRight	14	205	348	1	94	12:00:13	4995027	3	1	3	3	3	3	3	3	2	6	3	0	0	0	0	6	4
120712	12:00:13	10037	Trial	ResponseCL	14	0	175	0	94	12:00:13	4996360	3	1	3	3	3	3	3	3	2	6	3	0	0	0	0	6	4
120712	12:00:13	10037	Trial	CongruentLeft	14	203	274	1	94	12:00:13	4996653	3	1	3	3	3	3	3	3	2	6	3	0	0	0	0	6	4
120712	12:00:13	10037	Trial	ResponseCL	14	0	175	0	94	12:00:13	4998066	3	1	3	3	3	3	3	3	2	6	3	0	0	0	0	6	4
120712	12:00:13	10037	Trial	CongruentLeft	14	203	360	1	94	12:00:13	4998452	3	1	3	3	3	3	3	3	2	6	3	0	0	0	0	6	4
120712	12:00:13	10037	Trial	ResponseIR	14	0	175	0	94	12:00:13	4999772	3	1	3	3	3	3	3	3	2	6	3	0	0	0	0	6	4
120712	12:00:13	10037	Trial	IncongruentRight	14	203	238	0	94	12:00:13	5000038	3	1	3	3	3	3	3	3	2	6	3	0	0	0	0	6	4
120712	12:00:13	10037	Trial	ResponseIL	14	0	175	0	94	12:00:13	5001478	3	1	3	3	3	3	3	3	2	6	3	0	0	0	0	6	4
120712	12:00:13	10037	Trial	IncongruentLeft	14	205	516	0	94	12:00:13	5002011	3	1	3	3	3	3	3	3	2	6	3	0	0	0	0	6	4
120712	12:00:13	10037	Trial	ResponseIR	14	0	175	0	94	12:00:13	5003183	3	1	3	3	3	3	3	3	2	6	3	0	0	0	0	6	4
120712	12:00:13	10037	Trial	IncongruentRight	14	203	395	0	94	12:00:13	5003597	3	1	3	3	3	3	3	3	2	6	3	0	0	0	0	6	4
120712	12:00:13	10037	Trial	ResponseCR	14	0	175	0	94	12:00:13	5004890	3	1	3	3	3	3	3	3	2	6	3	0	0	0	0	6	4
120712	12:00:13	10037	Trial	CongruentRight	14	205	336	1	94	12:00:13	5005250	3	1	3	3	3	3	3	3	2	6	3	0	0	0	0	6	4
120712	12:00:13	10037	Trial	ResponseCR	14	0	175	0	94	12:00:13	5006596	3	1	3	3	3	3	3	3	2	6	3	0	0	0	0	6	4
120712	12:00:13	10037	Trial	CongruentRight	14	205	486	1	94	12:00:13	5007102	3	1	3	3	3	3	3	3	2	6	3	0	0	0	0	6	4
120712	12:00:13	10037	Trial	ResponseIL	14	0	175	0	94	12:00:13	5008302	3	1	3	3	3	3	3	3	2	6	3	0	0	0	0	6	4
120712	12:00:13	10037	Trial	IncongruentLeft	14	205	332	0	94	12:00:13	5008661	3	1	3	3	3	3	3	3	2	6	3	0	0	0	0	6	4
120712	12:00:13	10037	Trial	ResponseCL	14	0	175	0	94	12:00:13	5010007	3	1	3	3	3	3	3	3	2	6	3	0	0	0	0	6	4
120712	12:00:13	10037	Trial	CongruentLeft	14	203	306	1	94	12:00:13	5010341	3	1	3	3	3	3	3	3	2	6	3	0	0	0	0	6	4
120712	12:00:13	10037	Trial	ResponseCR	14	0	175	0	94	12:00:13	5011714	3	1	3	3	3	3	3	3	2	6	3	0	0	0	0	6	4
120712	12:00:13	10037	Trial	CongruentRight	14	205	312	1	94	12:00:13	5012047	3	1	3	3	3	3	3	3	2	6	3	0	0	0	0	6	4
120712	12:00:13	10037	Trial	ResponseCL	14	0	175	0	94	12:00:13	5013420	3	1	3	3	3	3	3	3	2	6	3	0	0	0	0	6	4
120712	12:00:13	10037	Trial	CongruentLeft	14	203	206	1	94	12:00:13	5013646	3	1	3	3	3	3	3	3	2	6	3	0	0	0	0	6	4
120712	12:00:13	10037	Trial	ResponseIR	14	0	175	0	94	12:00:13	5015126	3	1	3	3	3	3	3	3	2	6	3	0	0	0	0	6	4
120712	12:00:13	10037	Trial	IncongruentRight	14	203	276	0	94	12:00:13	5015419	3	1	3	3	3	3	3	3	2	6	3	0	0	0	0	6	4
120712	12:00:13	10037	Trial	ResponseCR	14	0	175	0	94	12:00:13	5016832	3	1	3	3	3	3	3	3	2	6	3	0	0	0	0	6	4
120712	12:00:13	10037	Trial	CongruentRight	14	205	186	1	94	12:00:13	5017045	3	1	3	3	3	3	3	3	2	6	3	0	0	0	0	6	4
120712	12:00:13	10037	Trial	ResponseCL	14	0	175	0	94	12:00:13	5018538	3	1	3	3	3	3	3	3	2	6	3	0	0	0	0	6	4
120712	12:00:13	10037	Trial	CongruentLeft	14	203	160	1	94	12:00:13	5018724	3	1	3	3	3	3	3	3	2	6	3	0	0	0	0	6	4
120712	12:00:13	10037	Trial	ResponseIL	14	0	175	0	94	12:00:13	5020244	3	1	3	3	3	3	3	3	2	6	3	0	0	0	0	6	4
120712	12:00:13	10037	Trial	IncongruentLeft	14	205	374	0	94	12:00:13	5020643	3	1	3	3	3	3	3	3	2	6	3	0	0	0	0	6	4
120712	12:00:13	10037	Trial	ResponseIL	14	0	175	0	94	12:00:13	5021950	3	1	3	3	3	3	3	3	2	6	3	0	0	0	0	6	4
120712	12:00:13	10037	Trial	IncongruentLeft	14	205	364	0	94	12:00:13	5022336	3	1	3	3	3	3	3	3	2	6	3	0	0	0	0	6	4
120712	12:00:13	10037	Trial	ResponseCR	14	0	175	0	94	12:00:13	5023656	3	1	3	3	3	3	3	3	2	6	3	0	0	0	0	6	4
120712	12:00:13	10037	Trial	CongruentRight	14	205	482	1	94	12:00:13	5024162	3	1	3	3	3	3	3	3	2	6	3	0	0	0	0	6	4
120712	12:00:13	10037	Trial	ResponseIR	14	0	175	0	94	12:00:13	5025362	3	1	3	3	3	3	3	3	2	6	3	0	0	0	0	6	4
120712	12:00:13	10037	Trial	IncongruentRight	14	203	488	0	94	12:00:13	5025868	3	1	3	3	3	3	3	3	2	6	3	0	0	0	0	6	4
120712	12:00:13	10037	Trial	ResponseCL	14	0	175	0	94	12:00:13	5027067	3	1	3	3	3	3	3	3	2	6	3	0	0	0	0	6	4
120712	12:00:13	10037	Trial	CongruentLeft	14	203	494	1	94	12:00:13	5027587	3	1	3	3	3	3	3	3	2	6	3	0	0	0	0	6	4
120712	12:00:13	10037	Trial	ResponseIR	14	0	175	0	94	12:00:13	5028774	3	1	3	3	3	3	3	3	2	6	3	0	0	0	0	6	4
120712	12:00:13	10037	Trial	IncongruentRight	14	205	436	1	94	12:00:13	5029227	3	1	3	3	3	3	3	3	2	6	3	0	0	0	0	6	4
120712	12:00:13	10037	Trial	ResponseCR	14	0	175	0	94	12:00:13	5030480	3	1	3	3	3	3	3	3	2	6	3	0	0	0	0	6	4
120712	12:00:13	10037	Trial	CongruentRight	14	205	538	1	94	12:00:13	5031039	3	1	3	3	3	3	3	3	2	6	3	0	0	0	0	6	4
120712	12:00:13	10037	Trial	ResponseIL	14	0	175	0	94	12:00:13	5032186	3	1	3	3	3	3	3	3	2	6	3	0	0	0	0	6	4
120712	12:00:13	10037	Trial	IncongruentLeft	14	205	368	0	94	12:00:13	5032572	3	1	3	3	3	3	3	3	2	6	3	0	0	0	0	6	4
120712	12:00:13	10037	Trial	ResponseCL	14	0	175	0	94	12:00:13	5033892	3	1	3	3	3	3	3	3	2	6	3	0	0	0	0	6	4
120712	12:00:13	10037	Trial	CongruentLeft	14	203	326	1	94	12:00:13	5034238	3	1	3	3	3	3	3	3	2	6	3	0	0	0	0	6	4
120712	12:00:13	10037	Trial	ResponseCR	14	0	175	0	94	12:00:13	5035598	3	1	3	3	3	3	3	3	2	6	3	0	0	0	0	6	4
120712	12:00:13	10037	Trial	CongruentRight	14	205	220	1	94	12:00:13	5035837	3	1	3	3	3	3	3	3	2	6	3	0	0	0	0	6	4
120712	12:00:13	10037	Trial	ResponseIL	14	0	175	0	94	12:00:13	5037304	3	1	3	3	3	3	3	3	2	6	3	0	0	0	0	6	4
120712	12:00:13	10037	Trial	IncongruentLeft	14	205	274	0	94	12:00:13	5037597	3	1	3	3	3	3	3	3	2	6	3	0	0	0	0	6	4
120712	12:00:13	10037	Trial	ResponseCR	14	0	175	0	94	12:00:13	5039010	3	1	3	3	3	3	3	3	2	6	3	0	0	0	0	6	4
120712	12:00:13	10037	Trial	CongruentRight	14	205	296	1	94	12:00:13	5039330	3	1	3	3	3	3	3	3	2	6	3	0	0	0	0	6	4
120712	12:00:13	10037	Trial	ResponseCR	14	0	175	0	94	12:00:13	5040716	3	1	3	3	3	3	3	3	2	6	3	0	0	0	0	6	4
120712	12:00:13	10037	Trial	CongruentRight	14	205	206	1	94	12:00:13	5040942	3	1	3	3	3	3	3	3	2	6	3	0	0	0	0	6	4
120712	12:00:13	10037	Trial	ResponseIR	14	0	175	0	94	12:00:13	5042421	3	1	3	3	3	3	3	3	2	6	3	0	0	0	0	6	4
120712	12:00:13	10037	Trial	IncongruentRight	14	205	196	1	94	12:00:13	5042635	3	1	3	3	3	3	3	3	2	6	3	0	0	0	0	6	4
120712	12:00:13	10037	Trial	ResponseCL	14	0	175	0	94	12:00:13	5044128	3	1	3	3	3	3	3	3	2	6	3	0	0	0	0	6	4
120712	12:00:13	10037	Trial	CongruentLeft	14	203	442	1	94	12:00:13	5044594	3	1	3	3	3	3	3	3	2	6	3	0	0	0	0	6	4
120712	12:00:13	10037	Trial	ResponseIL	14	0	175	0	94	12:00:13	5045834	3	1	3	3	3	3	3	3	2	6	3	0	0	0	0	6	4
120712	12:00:13	10037	Trial	IncongruentLeft	14	205	384	0	94	12:00:13	5046247	3	1	3	3	3	3	3	3	2	6	3	0	0	0	0	6	4
120712	12:00:13	10037	Trial	ResponseCL	14	0	175	0	94	12:00:13	5047540	3	1	3	3	3	3	3	3	2	6	3	0	0	0	0	6	4
120712	12:00:13	10037	Trial	CongruentLeft	14	203	374	1	94	12:00:13	5047939	3	1	3	3	3	3	3	3	2	6	3	0	0	0	0	6	4
120712	12:00:13	10037	Trial	ResponseIR	14	0	175	0	94	12:00:13	5049246	3	1	3	3	3	3	3	3	2	6	3	0	0	0	0	6	4
120712	12:00:13	10037	Trial	IncongruentRight	14	203	380	0	94	12:00:13	5049645	3	1	3	3	3	3	3	3	2	6	3	0	0	0	0	6	4
120712	12:00:13	10037	Trial	ResponseIL	14	0	175	0	94	12:00:13	5050951	3	1	3	3	3	3	3	3	2	6	3	0	0	0	0	6	4
120712	12:00:13	10037	Trial	IncongruentLeft	14	205	194	0	94	12:00:13	5051165	3	1	3	3	3	3	3	3	2	6	3	0	0	0	0	6	4
120712	12:00:13	10037	Trial	ResponseCR	14	0	175	0	94	12:00:13	5052657	3	1	3	3	3	3	3	3	2	6	3	0	0	0	0	6	4
120712	12:00:13	10037	Trial	CongruentRight	14	205	312	1	94	12:00:13	5052990	3	1	3	3	3	3	3	3	2	6	3	0	0	0	0	6	4
120712	12:00:13	10037	Trial	ResponseCL	14	0	175	0	94	12:00:13	5054363	3	1	3	3	3	3	3	3	2	6	3	0	0	0	0	6	4
120712	12:00:13	10037	Trial	CongruentLeft	14	203	238	1	94	12:00:13	5054630	3	1	3	3	3	3	3	3	2	6	3	0	0	0	0	6	4
120712	12:00:13	10037	Trial	ResponseIL	14	0	175	0	94	12:00:13	5056069	3	1	3	3	3	3	3	3	2	6	3	0	0	0	0	6	4
120712	12:00:13	10037	Trial	IncongruentLeft	14	205	324	0	94	12:00:13	5056416	3	1	3	3	3	3	3	3	2	6	3	0	0	0	0	6	4
120712	12:00:13	10037	Trial	ResponseCL	14	0	175	0	94	12:00:13	5057776	3	1	3	3	3	3	3	3	2	6	3	0	0	0	0	6	4
120712	12:00:13	10037	Trial	CongruentLeft	14	203	346	1	94	12:00:13	5058149	3	1	3	3	3	3	3	3	2	6	3	0	0	0	0	6	4
120712	12:00:13	10037	Trial	ResponseIR	14	0	175	0	94	12:00:13	5059481	3	1	3	3	3	3	3	3	2	6	3	0	0	0	0	6	4
120712	12:00:13	10037	Trial	IncongruentRight	14	203	240	0	94	12:00:13	5059748	3	1	3	3	3	3	3	3	2	6	3	0	0	0	0	6	4
120712	12:00:13	10037	Trial	ResponseCR	14	0	175	0	94	12:00:13	5061187	3	1	3	3	3	3	3	3	2	6	3	0	0	0	0	6	4
120712	12:00:13	10037	Trial	CongruentRight	14	203	230	0	94	12:00:13	5061441	3	1	3	3	3	3	3	3	2	6	3	0	0	0	0	6	4
120712	12:00:13	10037	Trial	ResponseIL	14	0	175	0	94	12:00:13	5062894	3	1	3	3	3	3	3	3	2	6	3	0	0	0	0	6	4
120712	12:00:13	10037	Trial	IncongruentLeft	14	205	379	0	94	12:00:13	5063293	3	1	3	3	3	3	3	3	2	6	3	0	0	0	0	6	4
120712	12:00:13	10037	Trial	ResponseCL	14	0	175	0	94	12:00:13	5064599	3	1	3	3	3	3	3	3	2	6	3	0	0	0	0	6	4
120712	12:00:13	10037	Trial	CongruentLeft	14	203	354	1	94	12:00:13	5064973	3	1	3	3	3	3	3	3	2	6	3	0	0	0	0	6	4
120712	12:00:13	10037	Trial	ResponseIR	14	0	175	0	94	12:00:13	5066305	3	1	3	3	3	3	3	3	2	6	3	0	0	0	0	6	4
120712	12:00:13	10037	Trial	IncongruentRight	14	205	200	1	94	12:00:13	5066532	3	1	3	3	3	3	3	3	2	6	3	0	0	0	0	6	4
120712	12:00:13	10037	Trial	ResponseIL	14	0	175	0	94	12:00:13	5068011	3	1	3	3	3	3	3	3	2	6	3	0	0	0	0	6	4
120712	12:00:13	10037	Trial	IncongruentLeft	14	205	238	0	94	12:00:13	5068278	3	1	3	3	3	3	3	3	2	6	3	0	0	0	0	6	4
120712	12:00:13	10037	Trial	ResponseCL	14	0	175	0	94	12:00:13	5069717	3	1	3	3	3	3	3	3	2	6	3	0	0	0	0	6	4
120712	12:00:13	10037	Trial	CongruentLeft	14	203	212	1	94	12:00:13	5069957	3	1	3	3	3	3	3	3	2	6	3	0	0	0	0	6	4
120712	12:00:13	10037	Trial	ResponseIL	14	0	175	0	94	12:00:13	5071423	3	1	3	3	3	3	3	3	2	6	3	0	0	0	0	6	4
120712	12:00:13	10037	Trial	IncongruentLeft	14	205	266	0	94	12:00:13	5071717	3	1	3	3	3	3	3	3	2	6	3	0	0	0	0	6	4
120712	12:00:13	10037	Trial	ResponseCR	14	0	175	0	94	12:00:13	5073129	3	1	3	3	3	3	3	3	2	6	3	0	0	0	0	6	4
120712	12:00:13	10037	Trial	CongruentRight	14	203	128	0	94	12:00:13	5073276	3	1	3	3	3	3	3	3	2	6	3	0	0	0	0	6	4
120712	12:00:13	10037	Trial	ResponseCL	14	0	175	0	94	12:00:13	5074835	3	1	3	3	3	3	3	3	2	6	3	0	0	0	0	6	4
120712	12:00:13	10037	Trial	CongruentLeft	14	203	230	1	94	12:00:13	5075089	3	1	3	3	3	3	3	3	2	6	3	0	0	0	0	6	4
120712	12:00:13	10037	Trial	ResponseIR	14	0	175	0	94	12:00:13	5076541	3	1	3	3	3	3	3	3	2	6	3	0	0	0	0	6	4
120712	12:00:13	10037	Trial	IncongruentRight	14	205	172	1	94	12:00:13	5076741	3	1	3	3	3	3	3	3	2	6	3	0	0	0	0	6	4
120712	12:00:13	10037	Trial	ResponseCL	14	0	175	0	94	12:00:13	5078247	3	1	3	3	3	3	3	3	2	6	3	0	0	0	0	6	4
120712	12:00:13	10037	Trial	CongruentLeft	14	203	257	1	94	12:00:13	5078527	3	1	3	3	3	3	3	3	2	6	3	0	0	0	0	6	4
120712	12:00:13	10037	Trial	ResponseCR	14	0	175	0	94	12:00:13	5079953	3	1	3	3	3	3	3	3	2	6	3	0	0	0	0	6	4
120712	12:00:13	10037	Trial	CongruentRight	14	205	343	1	94	12:00:13	5080313	3	1	3	3	3	3	3	3	2	6	3	0	0	0	0	6	4
120712	12:00:13	10037	Trial	ResponseIL	14	0	175	0	94	12:00:13	5081660	3	1	3	3	3	3	3	3	2	6	3	0	0	0	0	6	4
120712	12:00:13	10037	Trial	IncongruentLeft	14	205	333	0	94	12:00:13	5082019	3	1	3	3	3	3	3	3	2	6	3	0	0	0	0	6	4
120712	12:00:13	10037	WordsAbsFrThreemo	PAbsFrThreemo1	16	Abs1	9487	0	94	12:00:13	5096147	3	1	3	3	3	3	3	3	2	6	3	0	0	0	0	6	4
120712	12:00:13	10037	WordsAbsFrThreemo	AbsFrThreemo1	16	Abs1	4558	0	94	12:00:13	5100746	3	1	3	3	3	3	3	3	2	6	3	1	0	0	0	6	4
120712	12:00:13	10037	WordsAbsFrThreemo	AbsFrThreemo2	16	Abs2	19248	0	94	12:00:13	5120031	3	1	3	3	3	3	3	3	2	6	3	1	0	0	0	6	4
120712	12:00:13	10037	WordsAbsFrThreemo	AbsFrThreemo3	16	Abs1	17802	0	94	12:00:13	5137864	3	1	3	3	3	3	3	3	2	6	3	2	0	0	0	6	4
120712	12:00:13	10037	Trial2BackFrS	NS	17	0	1000	1	94	12:00:13	5185059	3	1	3	3	3	3	3	3	2	6	3	2	0	0	0	6	4
120712	12:00:13	10037	Trial2BackFrS	NS	17	0	1000	1	94	12:00:13	5186578	3	1	3	3	3	3	3	3	2	6	3	2	0	0	0	6	4
120712	12:00:13	10037	Trial2BackFrS	NS	17	0	1000	1	94	12:00:13	5188084	3	1	3	3	3	3	3	3	2	6	3	2	0	0	0	6	4
120712	12:00:13	10037	Trial2BackFrS	YS	17	57	712	1	94	12:00:13	5189310	3	1	3	3	3	3	3	3	2	6	3	2	0	0	0	6	4
120712	12:00:13	10037	Trial2BackFrS	NS	17	0	1000	1	94	12:00:13	5191096	3	1	3	3	3	3	3	3	2	6	3	2	0	0	0	6	4
120712	12:00:13	10037	Trial2BackFrS	NS	17	0	1000	1	94	12:00:13	5192602	3	1	3	3	3	3	3	3	2	6	3	2	0	0	0	6	4
120712	12:00:13	10037	Trial2BackFrS	NS	17	0	1000	1	94	12:00:13	5194108	3	1	3	3	3	3	3	3	2	6	3	2	0	0	0	6	4
120712	12:00:13	10037	Trial2BackFrS	NS	17	0	1000	1	94	12:00:13	5195614	3	1	3	3	3	3	3	3	2	6	3	2	0	0	0	6	4
120712	12:00:13	10037	Trial2BackFrS	YS	17	57	557	1	94	12:00:13	5196680	3	1	3	3	3	3	3	3	2	6	3	2	0	0	0	6	4
120712	12:00:13	10037	Trial2BackFrS	NS	17	0	1000	1	94	12:00:13	5198627	3	1	3	3	3	3	3	3	2	6	3	2	0	0	0	6	4
120712	12:00:13	10037	Trial2BackFrS	NS	17	0	1000	1	94	12:00:13	5200133	3	1	3	3	3	3	3	3	2	6	3	2	0	0	0	6	4
120712	12:00:13	10037	Trial2BackFrS	YS	17	0	1000	0	94	12:00:13	5201639	3	1	3	3	3	3	3	3	2	6	3	2	0	0	0	6	4
120712	12:00:13	10037	Trial2BackFrS	NS	17	0	1000	1	94	12:00:13	5203158	3	1	3	3	3	3	3	3	2	6	3	2	0	0	0	6	4
120712	12:00:13	10037	Trial2BackFrS	NS	17	0	1000	1	94	12:00:13	5204664	3	1	3	3	3	3	3	3	2	6	3	2	0	0	0	6	4
120712	12:00:13	10037	Trial2BackFrS	NS	17	0	1000	1	94	12:00:13	5206170	3	1	3	3	3	3	3	3	2	6	3	2	0	0	0	6	4
120712	12:00:13	10037	Trial2BackFrS	YS	17	57	529	1	94	12:00:13	5207210	3	1	3	3	3	3	3	3	2	6	3	2	0	0	0	6	4
120712	12:00:13	10037	Trial2BackFrS	NS	17	0	1000	1	94	12:00:13	5209182	3	1	3	3	3	3	3	3	2	6	3	2	0	0	0	6	4
120712	12:00:13	10037	Trial2BackFrS	NS	17	0	1000	1	94	12:00:13	5210689	3	1	3	3	3	3	3	3	2	6	3	2	0	0	0	6	4
120712	12:00:13	10037	Trial2BackFrS	NS	17	57	827	0	94	12:00:13	5212035	3	1	3	3	3	3	3	3	2	6	3	2	0	0	0	6	4
120712	12:00:13	10037	Trial2BackFrS	NS	17	57	889	0	94	12:00:13	5213594	3	1	3	3	3	3	3	3	2	6	3	2	0	0	0	6	4
120712	12:00:13	10037	Trial2BackFrS	YS	17	0	1000	0	94	12:00:13	5215207	3	1	3	3	3	3	3	3	2	6	3	2	0	0	0	6	4
120712	12:00:13	10037	Trial2BackFrS	NS	17	0	1000	1	94	12:00:13	5216713	3	1	3	3	3	3	3	3	2	6	3	2	0	0	0	6	4
120712	12:00:13	10037	Trial2BackFrS	NS	17	57	19	0	94	12:00:13	5217246	3	1	3	3	3	3	3	3	2	6	3	2	0	0	0	6	4
120712	12:00:13	10037	Trial2BackFrS	NS	17	0	1000	1	94	12:00:13	5219725	3	1	3	3	3	3	3	3	2	6	3	2	0	0	0	6	4
120712	12:00:13	10037	Trial2BackFrS	NS	17	57	751	0	94	12:00:13	5220991	3	1	3	3	3	3	3	3	2	6	3	2	0	0	0	6	4
120712	12:00:13	10037	Trial2BackFrS	NS	17	0	1000	1	94	12:00:13	5222737	3	1	3	3	3	3	3	3	2	6	3	2	0	0	0	6	4
120712	12:00:13	10037	Trial2BackFrS	NS	17	57	842	0	94	12:00:13	5224097	3	1	3	3	3	3	3	3	2	6	3	2	0	0	0	6	4
120712	12:00:13	10037	Trial2BackFrS	NS	17	0	1000	1	94	12:00:13	5225749	3	1	3	3	3	3	3	3	2	6	3	2	0	0	0	6	4
120712	12:00:13	10037	Trial2BackFrS	NS	17	57	630	0	94	12:00:13	5226895	3	1	3	3	3	3	3	3	2	6	3	2	0	0	0	6	4
120712	12:00:13	10037	Trial2BackFrS	NS	17	0	1000	1	94	12:00:13	5228761	3	1	3	3	3	3	3	3	2	6	3	2	0	0	0	6	4
120712	12:00:13	10037	Trial2BackFrS	NS	17	57	610	0	94	12:00:13	5229881	3	1	3	3	3	3	3	3	2	6	3	2	0	0	0	6	4
120712	12:00:13	10037	Trial2BackFrS	YS	17	0	1000	0	94	12:00:13	5231773	3	1	3	3	3	3	3	3	2	6	3	2	0	0	0	6	4
120712	12:00:13	10037	Trial2BackFrS	NS	17	57	174	0	94	12:00:13	5232466	3	1	3	3	3	3	3	3	2	6	3	2	0	0	0	6	4
120712	12:00:13	10037	Trial2BackFrS	NS	17	57	827	0	94	12:00:13	5234625	3	1	3	3	3	3	3	3	2	6	3	2	0	0	0	6	4
120712	12:00:13	10037	Trial2BackFrS	NS	17	0	1000	1	94	12:00:13	5236292	3	1	3	3	3	3	3	3	2	6	3	2	0	0	0	6	4
120712	12:00:13	10037	Trial2BackFrS	YS	17	57	632	1	94	12:00:13	5237438	3	1	3	3	3	3	3	3	2	6	3	2	0	0	0	6	4
120712	12:00:13	10037	Trial2BackFrS	NS	17	57	709	0	94	12:00:13	5239024	3	1	3	3	3	3	3	3	2	6	3	2	0	0	0	6	4
120712	12:00:13	10037	Trial2BackFrS	NS	17	0	1000	1	94	12:00:13	5240810	3	1	3	3	3	3	3	3	2	6	3	2	0	0	0	6	4
120712	12:00:13	10037	Trial2BackFrS	NS	17	57	401	0	94	12:00:13	5241729	3	1	3	3	3	3	3	3	2	6	3	2	0	0	0	6	4
120712	12:00:13	10037	Trial2BackFrS	NS	17	57	799	0	94	12:00:13	5243635	3	1	3	3	3	3	3	3	2	6	3	2	0	0	0	6	4
120712	12:00:13	10037	Trial2BackFrS	NS	17	57	794	0	94	12:00:13	5245115	3	1	3	3	3	3	3	3	2	6	3	2	0	0	0	6	4
120712	12:00:13	10037	Trial2BackFrS	NS	17	0	1000	1	94	12:00:13	5246821	3	1	3	3	3	3	3	3	2	6	3	2	0	0	0	6	4
120712	12:00:13	10037	Trial2BackFrS	NS	17	57	582	0	94	12:00:13	5247914	3	1	3	3	3	3	3	3	2	6	3	2	0	0	0	6	4
120712	12:00:13	10037	Trial2BackFrS	YS	17	0	1000	0	94	12:00:13	5249833	3	1	3	3	3	3	3	3	2	6	3	2	0	0	0	6	4
120712	12:00:13	10037	Trial2BackFrS	NS	17	0	1000	1	94	12:00:13	5251339	3	1	3	3	3	3	3	3	2	6	3	2	0	0	0	6	4
120712	12:00:13	10037	Trial2BackFrS	NS	17	57	528	0	94	12:00:13	5252378	3	1	3	3	3	3	3	3	2	6	3	2	0	0	0	6	4
120712	12:00:13	10037	Trial2BackFrS	NS	17	0	1000	1	94	12:00:13	5254351	3	1	3	3	3	3	3	3	2	6	3	2	0	0	0	6	4
120712	12:00:13	10037	Trial2BackFrS	NS	17	57	524	0	94	12:00:13	5255391	3	1	3	3	3	3	3	3	2	6	3	2	0	0	0	6	4
120712	12:00:13	10037	Trial2BackFrS	YS	17	0	1000	0	94	12:00:13	5257363	3	1	3	3	3	3	3	3	2	6	3	2	0	0	0	6	4
120712	12:00:13	10037	Trial2BackFrS	NS	17	57	471	0	94	12:00:13	5258350	3	1	3	3	3	3	3	3	2	6	3	2	0	0	0	6	4
120712	12:00:13	10037	Trial2BackFrS	NS	17	0	1000	1	94	12:00:13	5260376	3	1	3	3	3	3	3	3	2	6	3	2	0	0	0	6	4
120712	12:00:13	10037	Trial2BackFrS	NS	17	57	595	0	94	12:00:13	5261482	3	1	3	3	3	3	3	3	2	6	3	2	0	0	0	6	4
120712	12:00:13	10037	Trial2BackFrS	NS	17	0	1000	1	94	12:00:13	5263388	3	1	3	3	3	3	3	3	2	6	3	2	0	0	0	6	4
120712	12:00:13	10037	Trial2BackFrS	NS	17	57	495	0	94	12:00:13	5264401	3	1	3	3	3	3	3	3	2	6	3	2	0	0	0	6	4
120712	12:00:13	10037	Trial2BackFrS	NS	17	0	1000	1	94	12:00:13	5266400	3	1	3	3	3	3	3	3	2	6	3	2	0	0	0	6	4
120712	12:00:13	10037	Trial2BackFrS	YS	17	57	427	1	94	12:00:13	5267346	3	1	3	3	3	3	3	3	2	6	3	2	0	0	0	6	4
120712	12:00:13	10037	Trial2BackFrS	NS	17	0	1000	1	94	12:00:13	5269412	3	1	3	3	3	3	3	3	2	6	3	2	0	0	0	6	4
120712	12:00:13	10037	Trial2BackFrS	NS	17	57	871	0	94	12:00:13	5270798	3	1	3	3	3	3	3	3	2	6	3	2	0	0	0	6	4
120712	12:00:13	10037	Trial2BackFrS	NS	17	0	1000	1	94	12:00:13	5272424	3	1	3	3	3	3	3	3	2	6	3	2	0	0	0	6	4
120712	12:00:13	10037	Trial2BackFrS	NS	17	0	1000	1	94	12:00:13	5273930	3	1	3	3	3	3	3	3	2	6	3	2	0	0	0	6	4
120712	12:00:13	10037	Trial2BackFrS	NS	17	57	752	0	94	12:00:13	5275196	3	1	3	3	3	3	3	3	2	6	3	2	0	0	0	6	4
120712	12:00:13	10037	Trial2BackFrS	NS	17	0	1000	1	94	12:00:13	5276942	3	1	3	3	3	3	3	3	2	6	3	2	0	0	0	6	4
120712	12:00:13	10037	Trial2BackFrS	NS	17	0	1000	1	94	12:00:13	5278448	3	1	3	3	3	3	3	3	2	6	3	2	0	0	0	6	4
120712	12:00:13	10037	Trial2BackFrS	YS	17	57	554	1	94	12:00:13	5279515	3	1	3	3	3	3	3	3	2	6	3	2	0	0	0	6	4
120712	12:00:13	10037	Trial2BackFrS	NS	17	0	1000	1	94	12:00:13	5281461	3	1	3	3	3	3	3	3	2	6	3	2	0	0	0	6	4
120712	12:00:13	10037	Trial2BackFrS	NS	17	0	1000	1	94	12:00:13	5282967	3	1	3	3	3	3	3	3	2	6	3	2	0	0	0	6	4
120712	12:00:13	10037	Trial2BackFrS	NS	17	57	724	0	94	12:00:13	5284206	3	1	3	3	3	3	3	3	2	6	3	2	0	0	0	6	4
120712	12:00:13	10037	Trial2BackFrS	NS	17	0	1000	1	94	12:00:13	5285979	3	1	3	3	3	3	3	3	2	6	3	2	0	0	0	6	4
120712	12:00:13	10037	Trial2BackFrS	YS	17	0	1000	0	94	12:00:13	5287485	3	1	3	3	3	3	3	3	2	6	3	2	0	0	0	6	4
120712	12:00:13	10037	Trial2BackFrS	NS	17	57	621	0	94	12:00:13	5288618	3	1	3	3	3	3	3	3	2	6	3	2	0	0	0	6	4
120712	12:00:13	10037	Trial2BackFrS	NS	17	0	1000	1	94	12:00:13	5290497	3	1	3	3	3	3	3	3	2	6	3	2	0	0	0	6	4
120712	12:00:13	10037	Trial2BackFrS	YS	17	0	1000	0	94	12:00:13	5292003	3	1	3	3	3	3	3	3	2	6	3	2	0	0	0	6	4
120712	12:00:13	10037	Trial2BackFrS	NS	17	57	440	0	94	12:00:13	5292963	3	1	3	3	3	3	3	3	2	6	3	2	0	0	0	6	4
120712	12:00:13	10037	Trial2BackFrS	NS	17	0	1000	1	94	12:00:13	5295015	3	1	3	3	3	3	3	3	2	6	3	2	0	0	0	6	4
120712	12:00:13	10037	Trial2BackFrS	NS	17	57	627	0	94	12:00:13	5296161	3	1	3	3	3	3	3	3	2	6	3	2	0	0	0	6	4
120712	12:00:13	10037	Trial2BackFrS	NS	17	0	1000	1	94	12:00:13	5298027	3	1	3	3	3	3	3	3	2	6	3	2	0	0	0	6	4
120712	12:00:13	10037	Trial2BackFrS	NS	17	57	511	0	94	12:00:13	5299053	3	1	3	3	3	3	3	3	2	6	3	2	0	0	0	6	4
120712	12:00:13	10037	Trial2BackFrS	NS	17	0	1000	1	94	12:00:13	5301039	3	1	3	3	3	3	3	3	2	6	3	2	0	0	0	6	4
120712	12:00:13	10037	Trial2BackFrS	YS	17	57	523	1	94	12:00:13	5302079	3	1	3	3	3	3	3	3	2	6	3	2	0	0	0	6	4
120712	12:00:13	10037	Trial2BackFrS	NS	17	57	729	0	94	12:00:13	5303785	3	1	3	3	3	3	3	3	2	6	3	2	0	0	0	6	4
120712	12:00:13	10037	Trial2BackFrS	NS	17	0	1000	1	94	12:00:13	5305558	3	1	3	3	3	3	3	3	2	6	3	2	0	0	0	6	4
120712	12:00:13	10037	Trial2BackFrS	NS	17	0	1000	1	94	12:00:13	5307064	3	1	3	3	3	3	3	3	2	6	3	2	0	0	0	6	4
120712	12:00:13	10037	Trial2BackFrS	NS	17	57	482	0	94	12:00:13	5308063	3	1	3	3	3	3	3	3	2	6	3	2	0	0	0	6	4
120712	12:00:13	10037	Trial2BackFrS	YS	17	0	1000	0	94	12:00:13	5310076	3	1	3	3	3	3	3	3	2	6	3	2	0	0	0	6	4
120712	12:00:13	10037	Trial2BackFrS	NS	17	0	1000	1	94	12:00:13	5311595	3	1	3	3	3	3	3	3	2	6	3	2	0	0	0	6	4
120712	12:00:13	10037	Trial2BackFrS	NS	17	57	815	0	94	12:00:13	5312928	3	1	3	3	3	3	3	3	2	6	3	2	0	0	0	6	4
120712	12:00:13	10037	Trial2BackFrS	NS	17	0	1000	1	94	12:00:13	5314607	3	1	3	3	3	3	3	3	2	6	3	2	0	0	0	6	4
120712	12:00:13	10037	Trial2BackFrS	NS	17	0	1000	1	94	12:00:13	5316114	3	1	3	3	3	3	3	3	2	6	3	2	0	0	0	6	4
120712	12:00:13	10037	Trial2BackFrS	YS	17	57	697	1	94	12:00:13	5317326	3	1	3	3	3	3	3	3	2	6	3	2	0	0	0	6	4
120712	12:00:13	10037	Trial2BackFrS	NS	17	0	1000	1	94	12:00:13	5319126	3	1	3	3	3	3	3	3	2	6	3	2	0	0	0	6	4
120712	12:00:13	10037	Trial2BackFrS	NS	17	0	1000	1	94	12:00:13	5320632	3	1	3	3	3	3	3	3	2	6	3	2	0	0	0	6	4
120712	12:00:13	10037	Trial2BackFrS	YS	17	57	498	1	94	12:00:13	5321645	3	1	3	3	3	3	3	3	2	6	3	2	0	0	0	6	4
120712	12:00:13	10037	Trial2BackFrS	NS	17	0	1000	1	94	12:00:13	5323644	3	1	3	3	3	3	3	3	2	6	3	2	0	0	0	6	4
120712	12:00:13	10037	Trial2BackFrS	NS	17	0	1000	1	94	12:00:13	5325163	3	1	3	3	3	3	3	3	2	6	3	2	0	0	0	6	4
120712	12:00:13	10037	Trial2BackFrS	NS	17	57	687	0	94	12:00:13	5326363	3	1	3	3	3	3	3	3	2	6	3	2	0	0	0	6	4
120712	12:00:13	10037	Trial2BackFrS	NS	17	0	1000	1	94	12:00:13	5328175	3	1	3	3	3	3	3	3	2	6	3	2	0	0	0	6	4
120712	12:00:13	10037	Trial2BackFrS	NS	17	0	1000	1	94	12:00:13	5329682	3	1	3	3	3	3	3	3	2	6	3	2	0	0	0	6	4
120712	12:00:13	10037	Trial2BackFrS	NS	17	0	1000	1	94	12:00:13	5331188	3	1	3	3	3	3	3	3	2	6	3	2	0	0	0	6	4
120712	12:00:13	10037	Trial2BackFrS	NS	17	0	1000	1	94	12:00:13	5332694	3	1	3	3	3	3	3	3	2	6	3	2	0	0	0	6	4
120712	12:00:13	10037	Trial2BackFrS	NS	17	57	564	0	94	12:00:13	5333773	3	1	3	3	3	3	3	3	2	6	3	2	0	0	0	6	4
120712	12:00:13	10037	Trial2BackFrS	YS	17	0	1000	0	94	12:00:13	5335706	3	1	3	3	3	3	3	3	2	6	3	2	0	0	0	6	4
120712	12:00:13	10037	Trial2BackFrS	NS	17	57	880	0	94	12:00:13	5337105	3	1	3	3	3	3	3	3	2	6	3	2	0	0	0	6	4
120712	12:00:13	10037	Trial2BackFrS	NS	17	0	1000	1	94	12:00:13	5338718	3	1	3	3	3	3	3	3	2	6	3	2	0	0	0	6	4
120712	12:00:13	10037	Trial2BackFrS	NS	17	0	1000	1	94	12:00:13	5340224	3	1	3	3	3	3	3	3	2	6	3	2	0	0	0	6	4
120712	12:00:13	10037	Trial2BackFrS	NS	17	57	634	0	94	12:00:13	5341370	3	1	3	3	3	3	3	3	2	6	3	2	0	0	0	6	4
120712	12:00:13	10037	Trial2BackFrS	NS	17	0	1000	1	94	12:00:13	5343236	3	1	3	3	3	3	3	3	2	6	3	2	0	0	0	6	4
120712	12:00:13	10037	Trial2BackFrS	NS	17	0	1000	1	94	12:00:13	5344742	3	1	3	3	3	3	3	3	2	6	3	2	0	0	0	6	4
120712	12:00:13	10037	Trial2BackFrS	NS	17	0	1000	1	94	12:00:13	5346248	3	1	3	3	3	3	3	3	2	6	3	2	0	0	0	6	4
120712	12:00:13	10037	Trial2BackFrS	YS	17	0	1000	0	94	12:00:13	5347754	3	1	3	3	3	3	3	3	2	6	3	2	0	0	0	6	4
120712	12:00:13	10037	Trial2BackFrS	NS	17	57	831	0	94	12:00:13	5349101	3	1	3	3	3	3	3	3	2	6	3	2	0	0	0	6	4
120712	12:00:13	10037	Trial2BackFrS	NS	17	0	1000	1	94	12:00:13	5350767	3	1	3	3	3	3	3	3	2	6	3	2	0	0	0	6	4
120712	12:00:13	10037	Trial2BackFrS	NS	17	0	1000	1	94	12:00:13	5352273	3	1	3	3	3	3	3	3	2	6	3	2	0	0	0	6	4
120712	12:00:13	10037	Trial2BackFrS	NS	17	57	665	0	94	12:00:13	5353445	3	1	3	3	3	3	3	3	2	6	3	2	0	0	0	6	4
120712	12:00:13	10037	Trial2BackFrS	NS	17	0	1000	1	94	12:00:13	5355285	3	1	3	3	3	3	3	3	2	6	3	2	0	0	0	6	4
120712	12:00:13	10037	Trial2BackFrS	NS	17	0	1000	1	94	12:00:13	5356791	3	1	3	3	3	3	3	3	2	6	3	2	0	0	0	6	4
120712	12:00:13	10037	Trial2BackFrS	NS	17	57	611	0	94	12:00:13	5357910	3	1	3	3	3	3	3	3	2	6	3	2	0	0	0	6	4
120712	12:00:13	10037	Trial2BackFrS	NS	17	0	1000	1	94	12:00:13	5359803	3	1	3	3	3	3	3	3	2	6	3	2	0	0	0	6	4
120712	12:00:13	10037	Trial2BackFrS	NS	17	0	1000	1	94	12:00:13	5361309	3	1	3	3	3	3	3	3	2	6	3	2	0	0	0	6	4
120712	12:00:13	10037	Trial2BackFrS	YS	17	57	572	1	94	12:00:13	5362402	3	1	3	3	3	3	3	3	2	6	3	2	0	0	0	6	4
120712	12:00:13	10037	Trial2BackFrS	NS	17	0	1000	1	94	12:00:13	5364321	3	1	3	3	3	3	3	3	2	6	3	2	0	0	0	6	4
120712	12:00:13	10037	ClockFr3mo	ClockFr3mo	19	Clock1	20227	0	94	12:00:13	5384740	3	1	3	3	3	3	3	3	2	6	3	2	1	0	0	6	4
120712	12:00:13	10037	ClockFr3mo	ClockFr3mo	19	Clock11	7059	0	94	12:00:13	5391844	3	1	3	3	3	3	3	3	2	6	3	2	1	1	0	6	4
120712	12:00:13	10037	ClockFr3mo	ClockFr3mo	19	Clock111	35891	0	94	12:00:13	5427790	3	1	3	3	3	3	3	3	2	6	3	2	1	1	1	6	4
120712	12:00:13	10037	ClockFr3mo	ClockFr3mo	19	Clockdone	681	0	94	12:00:13	5428523	3	1	3	3	3	3	3	3	2	6	3	2	1	1	1	6	4
120712	12:00:13	10037	FASFrVF3mo	StopFrVF3mo	20	7	4448	0	94	12:00:13	5548823	3	1	3	3	3	3	3	3	2	6	3	2	1	1	1	6	4
