date	time	subject	blockcode	trialcode	values.TaskNumber	response	latency	correct	values.Score	script.starttime	script.elapsedtime	values.ScoreS7	values.Word1	values.Word2	values.Word3	values.Word4	values.Word5	values.Word6	values.Word7	values.Word8	values.DigitSpanFwrd	values.DigitSpanBack	values.ScoreAbs	values.Contour	values.Numbers	values.Hands	values.corsiblockspanFwrd	values.corsiblockspanRev
101012	17:47:33	10023	Language	Language	0	English	11421	0	0	17:47:33	11750	0	0	0	0	0	0	0	0	0	0	0	0	0	0	0	0	0
101012	17:47:33	10023	Session	Session	0	3mo	2339	0	0	17:47:33	14169	0	0	0	0	0	0	0	0	0	0	0	0	0	0	0	0	0
101012	17:47:33	10023	HandEng	HandEng	0	Right	1128613	0	0	17:47:33	1142871	0	0	0	0	0	0	0	0	0	0	0	0	0	0	0	0	0
101012	17:47:33	10023	CubeEng	CubeEng	1	1Cube	1445	0	0	17:47:33	1230809	0	0	0	0	0	0	0	0	0	0	0	0	0	0	0	0	0
101012	17:47:33	10023	pm.simpleEngRight	blank.simpleEng	2	0	1587	1	0	17:47:33	1258891	0	0	0	0	0	0	0	0	0	0	0	0	0	0	0	0	0
101012	17:47:33	10023	pm.simpleEngRight	pm.simpleEng	2	57	571	0	0	17:47:33	1259504	0	0	0	0	0	0	0	0	0	0	0	0	0	0	0	0	0
101012	17:47:33	10023	pm.simpleEngRight	blank.simpleEng	2	0	1787	1	0	17:47:33	1261316	0	0	0	0	0	0	0	0	0	0	0	0	0	0	0	0	0
101012	17:47:33	10023	pm.simpleEngRight	pm.simpleEng	2	57	353	0	0	17:47:33	1261703	0	0	0	0	0	0	0	0	0	0	0	0	0	0	0	0	0
101012	17:47:33	10023	pm.simpleEngRight	blank.simpleEng	2	0	1687	1	0	17:47:33	1263408	0	0	0	0	0	0	0	0	0	0	0	0	0	0	0	0	0
101012	17:47:33	10023	pm.simpleEngRight	pm.simpleEng	2	57	292	0	0	17:47:33	1263742	0	0	0	0	0	0	0	0	0	0	0	0	0	0	0	0	0
101012	17:47:33	10023	pm.simpleEngRight	blank.simpleEng	2	0	2287	1	0	17:47:33	1266061	0	0	0	0	0	0	0	0	0	0	0	0	0	0	0	0	0
101012	17:47:33	10023	pm.simpleEngRight	pm.simpleEng	2	57	344	0	0	17:47:33	1266448	0	0	0	0	0	0	0	0	0	0	0	0	0	0	0	0	0
101012	17:47:33	10023	pm.simpleEngRight	blank.simpleEng	2	0	2187	1	0	17:47:33	1268660	0	0	0	0	0	0	0	0	0	0	0	0	0	0	0	0	0
101012	17:47:33	10023	pm.simpleEngRight	pm.simpleEng	2	57	289	0	0	17:47:33	1268980	0	0	0	0	0	0	0	0	0	0	0	0	0	0	0	0	0
101012	17:47:33	10023	pm.simpleEngRight	blank.simpleEng	2	0	2087	1	0	17:47:33	1271099	0	0	0	0	0	0	0	0	0	0	0	0	0	0	0	0	0
101012	17:47:33	10023	pm.simpleEngRight	pm.simpleEng	2	57	346	0	0	17:47:33	1271486	0	0	0	0	0	0	0	0	0	0	0	0	0	0	0	0	0
101012	17:47:33	10023	pm.simpleEngRight	blank.simpleEng	2	0	1987	1	0	17:47:33	1273498	0	0	0	0	0	0	0	0	0	0	0	0	0	0	0	0	0
101012	17:47:33	10023	pm.simpleEngRight	pm.simpleEng	2	57	283	0	0	17:47:33	1273818	0	0	0	0	0	0	0	0	0	0	0	0	0	0	0	0	0
101012	17:47:33	10023	pm.simpleEngRight	blank.simpleEng	2	0	2487	1	0	17:47:33	1276337	0	0	0	0	0	0	0	0	0	0	0	0	0	0	0	0	0
101012	17:47:33	10023	pm.simpleEngRight	pm.simpleEng	2	57	260	0	0	17:47:33	1276630	0	0	0	0	0	0	0	0	0	0	0	0	0	0	0	0	0
101012	17:47:33	10023	pm.simpleEngRight	blank.simpleEng	2	0	1887	1	0	17:47:33	1278536	0	0	0	0	0	0	0	0	0	0	0	0	0	0	0	0	0
101012	17:47:33	10023	pm.simpleEngRight	pm.simpleEng	2	57	301	0	0	17:47:33	1278869	0	0	0	0	0	0	0	0	0	0	0	0	0	0	0	0	0
101012	17:47:33	10023	pm.simpleEngRight	blank.simpleEng	2	0	2387	1	0	17:47:33	1281282	0	0	0	0	0	0	0	0	0	0	0	0	0	0	0	0	0
101012	17:47:33	10023	pm.simpleEngRight	pm.simpleEng	2	57	291	0	0	17:47:33	1281615	0	0	0	0	0	0	0	0	0	0	0	0	0	0	0	0	0
101012	17:47:33	10023	pm.simpleEngRight	blank.simpleEng	2	0	1487	1	0	17:47:33	1283134	0	0	0	0	0	0	0	0	0	0	0	0	0	0	0	0	0
101012	17:47:33	10023	pm.simpleEngRight	pm.simpleEng	2	57	391	0	0	17:47:33	1283561	0	0	0	0	0	0	0	0	0	0	0	0	0	0	0	0	0
101012	17:47:33	10023	pm.simpleEngRight	blank.simpleEng	2	0	1987	1	0	17:47:33	1285573	0	0	0	0	0	0	0	0	0	0	0	0	0	0	0	0	0
101012	17:47:33	10023	pm.simpleEngRight	pm.simpleEng	2	57	304	0	0	17:47:33	1285920	0	0	0	0	0	0	0	0	0	0	0	0	0	0	0	0	0
101012	17:47:33	10023	pm.simpleEngRight	blank.simpleEng	2	0	1787	1	0	17:47:33	1287732	0	0	0	0	0	0	0	0	0	0	0	0	0	0	0	0	0
101012	17:47:33	10023	pm.simpleEngRight	pm.simpleEng	2	57	337	0	0	17:47:33	1288105	0	0	0	0	0	0	0	0	0	0	0	0	0	0	0	0	0
101012	17:47:33	10023	pm.simpleEngRight	blank.simpleEng	2	0	2187	1	0	17:47:33	1290318	0	0	0	0	0	0	0	0	0	0	0	0	0	0	0	0	0
101012	17:47:33	10023	pm.simpleEngRight	pm.simpleEng	2	57	263	0	0	17:47:33	1290611	0	0	0	0	0	0	0	0	0	0	0	0	0	0	0	0	0
101012	17:47:33	10023	pm.simpleEngRight	blank.simpleEng	2	0	2487	1	0	17:47:33	1293130	0	0	0	0	0	0	0	0	0	0	0	0	0	0	0	0	0
101012	17:47:33	10023	pm.simpleEngRight	pm.simpleEng	2	57	283	0	0	17:47:33	1293450	0	0	0	0	0	0	0	0	0	0	0	0	0	0	0	0	0
101012	17:47:33	10023	pm.simpleEngRight	blank.simpleEng	2	0	1887	1	0	17:47:33	1295369	0	0	0	0	0	0	0	0	0	0	0	0	0	0	0	0	0
101012	17:47:33	10023	pm.simpleEngRight	pm.simpleEng	2	57	300	0	0	17:47:33	1295703	0	0	0	0	0	0	0	0	0	0	0	0	0	0	0	0	0
101012	17:47:33	10023	pm.simpleEngRight	blank.simpleEng	2	0	1487	1	0	17:47:33	1297209	0	0	0	0	0	0	0	0	0	0	0	0	0	0	0	0	0
101012	17:47:33	10023	pm.simpleEngRight	pm.simpleEng	2	57	380	0	0	17:47:33	1297622	0	0	0	0	0	0	0	0	0	0	0	0	0	0	0	0	0
101012	17:47:33	10023	pm.simpleEngRight	blank.simpleEng	2	0	2087	1	0	17:47:33	1299741	0	0	0	0	0	0	0	0	0	0	0	0	0	0	0	0	0
101012	17:47:33	10023	pm.simpleEngRight	pm.simpleEng	2	57	360	0	0	17:47:33	1300141	0	0	0	0	0	0	0	0	0	0	0	0	0	0	0	0	0
101012	17:47:33	10023	pm.simpleEngRight	blank.simpleEng	2	0	1687	1	0	17:47:33	1301860	0	0	0	0	0	0	0	0	0	0	0	0	0	0	0	0	0
101012	17:47:33	10023	pm.simpleEngRight	pm.simpleEng	2	57	305	0	0	17:47:33	1302207	0	0	0	0	0	0	0	0	0	0	0	0	0	0	0	0	0
101012	17:47:33	10023	pm.simpleEngRight	blank.simpleEng	2	0	2387	1	0	17:47:33	1304619	0	0	0	0	0	0	0	0	0	0	0	0	0	0	0	0	0
101012	17:47:33	10023	pm.simpleEngRight	pm.simpleEng	2	57	346	0	0	17:47:33	1305006	0	0	0	0	0	0	0	0	0	0	0	0	0	0	0	0	0
101012	17:47:33	10023	pm.simpleEngRight	blank.simpleEng	2	0	1587	1	0	17:47:33	1306618	0	0	0	0	0	0	0	0	0	0	0	0	0	0	0	0	0
101012	17:47:33	10023	pm.simpleEngRight	pm.simpleEng	2	57	379	0	0	17:47:33	1307032	0	0	0	0	0	0	0	0	0	0	0	0	0	0	0	0	0
101012	17:47:33	10023	pm.simpleEngRight	blank.simpleEng	2	0	2287	1	0	17:47:33	1309337	0	0	0	0	0	0	0	0	0	0	0	0	0	0	0	0	0
101012	17:47:33	10023	pm.simpleEngRight	pm.simpleEng	2	57	316	0	0	17:47:33	1309684	0	0	0	0	0	0	0	0	0	0	0	0	0	0	0	0	0
101012	17:47:33	10023	pm.simpleEngRight	blank.simpleEng	2	0	1887	1	0	17:47:33	1311590	0	0	0	0	0	0	0	0	0	0	0	0	0	0	0	0	0
101012	17:47:33	10023	pm.simpleEngRight	pm.simpleEng	2	57	271	0	0	17:47:33	1311896	0	0	0	0	0	0	0	0	0	0	0	0	0	0	0	0	0
101012	17:47:33	10023	pm.simpleEngRight	blank.simpleEng	2	0	2087	1	0	17:47:33	1314002	0	0	0	0	0	0	0	0	0	0	0	0	0	0	0	0	0
101012	17:47:33	10023	pm.simpleEngRight	pm.simpleEng	2	57	339	0	0	17:47:33	1314375	0	0	0	0	0	0	0	0	0	0	0	0	0	0	0	0	0
101012	17:47:33	10023	pm.simpleEngRight	blank.simpleEng	2	0	1987	1	0	17:47:33	1316388	0	0	0	0	0	0	0	0	0	0	0	0	0	0	0	0	0
101012	17:47:33	10023	pm.simpleEngRight	pm.simpleEng	2	57	305	0	0	17:47:33	1316734	0	0	0	0	0	0	0	0	0	0	0	0	0	0	0	0	0
101012	17:47:33	10023	pm.simpleEngRight	blank.simpleEng	2	0	1687	1	0	17:47:33	1318454	0	0	0	0	0	0	0	0	0	0	0	0	0	0	0	0	0
101012	17:47:33	10023	pm.simpleEngRight	pm.simpleEng	2	57	447	0	0	17:47:33	1318933	0	0	0	0	0	0	0	0	0	0	0	0	0	0	0	0	0
101012	17:47:33	10023	pm.simpleEngRight	blank.simpleEng	2	0	2187	1	0	17:47:33	1321146	0	0	0	0	0	0	0	0	0	0	0	0	0	0	0	0	0
101012	17:47:33	10023	pm.simpleEngRight	pm.simpleEng	2	57	283	0	0	17:47:33	1321466	0	0	0	0	0	0	0	0	0	0	0	0	0	0	0	0	0
101012	17:47:33	10023	pm.simpleEngRight	blank.simpleEng	2	0	1787	1	0	17:47:33	1323278	0	0	0	0	0	0	0	0	0	0	0	0	0	0	0	0	0
101012	17:47:33	10023	pm.simpleEngRight	pm.simpleEng	2	57	358	0	0	17:47:33	1323679	0	0	0	0	0	0	0	0	0	0	0	0	0	0	0	0	0
101012	17:47:33	10023	pm.simpleEngRight	blank.simpleEng	2	0	2387	1	0	17:47:33	1326091	0	0	0	0	0	0	0	0	0	0	0	0	0	0	0	0	0
101012	17:47:33	10023	pm.simpleEngRight	pm.simpleEng	2	57	330	0	0	17:47:33	1326451	0	0	0	0	0	0	0	0	0	0	0	0	0	0	0	0	0
101012	17:47:33	10023	pm.simpleEngRight	blank.simpleEng	2	0	1587	1	0	17:47:33	1328063	0	0	0	0	0	0	0	0	0	0	0	0	0	0	0	0	0
101012	17:47:33	10023	pm.simpleEngRight	pm.simpleEng	2	57	341	0	0	17:47:33	1328437	0	0	0	0	0	0	0	0	0	0	0	0	0	0	0	0	0
101012	17:47:33	10023	pm.simpleEngRight	blank.simpleEng	2	0	2287	1	0	17:47:33	1330756	0	0	0	0	0	0	0	0	0	0	0	0	0	0	0	0	0
101012	17:47:33	10023	pm.simpleEngRight	pm.simpleEng	2	57	273	0	0	17:47:33	1331062	0	0	0	0	0	0	0	0	0	0	0	0	0	0	0	0	0
101012	17:47:33	10023	pm.simpleEngRight	blank.simpleEng	2	0	2487	1	0	17:47:33	1333581	0	0	0	0	0	0	0	0	0	0	0	0	0	0	0	0	0
101012	17:47:33	10023	pm.simpleEngRight	pm.simpleEng	2	57	295	0	0	17:47:33	1333914	0	0	0	0	0	0	0	0	0	0	0	0	0	0	0	0	0
101012	17:47:33	10023	pm.simpleEngRight	blank.simpleEng	2	0	1487	1	0	17:47:33	1335434	0	0	0	0	0	0	0	0	0	0	0	0	0	0	0	0	0
101012	17:47:33	10023	pm.simpleEngRight	pm.simpleEng	2	57	347	0	0	17:47:33	1335820	0	0	0	0	0	0	0	0	0	0	0	0	0	0	0	0	0
101012	17:47:33	10023	pm.simpleEngRight	blank.simpleEng	2	0	1587	1	0	17:47:33	1337433	0	0	0	0	0	0	0	0	0	0	0	0	0	0	0	0	0
101012	17:47:33	10023	pm.simpleEngRight	pm.simpleEng	2	57	267	0	0	17:47:33	1337739	0	0	0	0	0	0	0	0	0	0	0	0	0	0	0	0	0
101012	17:47:33	10023	pm.simpleEngRight	blank.simpleEng	2	0	2087	1	0	17:47:33	1339859	0	0	0	0	0	0	0	0	0	0	0	0	0	0	0	0	0
101012	17:47:33	10023	pm.simpleEngRight	pm.simpleEng	2	57	274	0	0	17:47:33	1340165	0	0	0	0	0	0	0	0	0	0	0	0	0	0	0	0	0
101012	17:47:33	10023	pm.simpleEngRight	blank.simpleEng	2	0	2387	1	0	17:47:33	1342578	0	0	0	0	0	0	0	0	0	0	0	0	0	0	0	0	0
101012	17:47:33	10023	pm.simpleEngRight	pm.simpleEng	2	57	275	0	0	17:47:33	1342884	0	0	0	0	0	0	0	0	0	0	0	0	0	0	0	0	0
101012	17:47:33	10023	pm.simpleEngRight	blank.simpleEng	2	0	2187	1	0	17:47:33	1345097	0	0	0	0	0	0	0	0	0	0	0	0	0	0	0	0	0
101012	17:47:33	10023	pm.simpleEngRight	pm.simpleEng	2	57	284	0	0	17:47:33	1345416	0	0	0	0	0	0	0	0	0	0	0	0	0	0	0	0	0
101012	17:47:33	10023	pm.simpleEngRight	blank.simpleEng	2	0	2487	1	0	17:47:33	1347935	0	0	0	0	0	0	0	0	0	0	0	0	0	0	0	0	0
101012	17:47:33	10023	pm.simpleEngRight	pm.simpleEng	2	57	245	0	0	17:47:33	1348216	0	0	0	0	0	0	0	0	0	0	0	0	0	0	0	0	0
101012	17:47:33	10023	pm.simpleEngRight	blank.simpleEng	2	0	1987	1	0	17:47:33	1350228	0	0	0	0	0	0	0	0	0	0	0	0	0	0	0	0	0
101012	17:47:33	10023	pm.simpleEngRight	pm.simpleEng	2	57	272	0	0	17:47:33	1350535	0	0	0	0	0	0	0	0	0	0	0	0	0	0	0	0	0
101012	17:47:33	10023	pm.simpleEngRight	blank.simpleEng	2	0	2287	1	0	17:47:33	1352854	0	0	0	0	0	0	0	0	0	0	0	0	0	0	0	0	0
101012	17:47:33	10023	pm.simpleEngRight	pm.simpleEng	2	57	255	0	0	17:47:33	1353147	0	0	0	0	0	0	0	0	0	0	0	0	0	0	0	0	0
101012	17:47:33	10023	Trial2BackEng	N	3	0	1000	1	1	17:47:33	1401808	0	0	0	0	0	0	0	0	0	0	0	0	0	0	0	0	0
101012	17:47:33	10023	Trial2BackEng	N	3	0	1000	1	2	17:47:33	1403340	0	0	0	0	0	0	0	0	0	0	0	0	0	0	0	0	0
101012	17:47:33	10023	Trial2BackEng	N	3	0	1000	1	3	17:47:33	1404860	0	0	0	0	0	0	0	0	0	0	0	0	0	0	0	0	0
101012	17:47:33	10023	Trial2BackEng	N	3	0	1000	1	4	17:47:33	1406379	0	0	0	0	0	0	0	0	0	0	0	0	0	0	0	0	0
101012	17:47:33	10023	Trial2BackEng	N	3	57	397	0	4	17:47:33	1407299	0	0	0	0	0	0	0	0	0	0	0	0	0	0	0	0	0
101012	17:47:33	10023	Trial2BackEng	N	3	0	1000	1	5	17:47:33	1409405	0	0	0	0	0	0	0	0	0	0	0	0	0	0	0	0	0
101012	17:47:33	10023	Trial2BackEng	N	3	0	1000	1	6	17:47:33	1410924	0	0	0	0	0	0	0	0	0	0	0	0	0	0	0	0	0
101012	17:47:33	10023	Trial2BackEng	N	3	0	1000	1	7	17:47:33	1412443	0	0	0	0	0	0	0	0	0	0	0	0	0	0	0	0	0
101012	17:47:33	10023	Trial2BackEng	Y	3	0	1000	0	7	17:47:33	1413963	0	0	0	0	0	0	0	0	0	0	0	0	0	0	0	0	0
101012	17:47:33	10023	Trial2BackEng	N	3	0	1000	1	8	17:47:33	1415482	0	0	0	0	0	0	0	0	0	0	0	0	0	0	0	0	0
101012	17:47:33	10023	Trial2BackEng	N	3	0	1000	1	9	17:47:33	1417001	0	0	0	0	0	0	0	0	0	0	0	0	0	0	0	0	0
101012	17:47:33	10023	Trial2BackEng	N	3	0	1000	1	10	17:47:33	1418521	0	0	0	0	0	0	0	0	0	0	0	0	0	0	0	0	0
101012	17:47:33	10023	Trial2BackEng	Y	3	57	623	1	11	17:47:33	1419667	0	0	0	0	0	0	0	0	0	0	0	0	0	0	0	0	0
101012	17:47:33	10023	Trial2BackEng	N	3	0	1000	1	12	17:47:33	1421547	0	0	0	0	0	0	0	0	0	0	0	0	0	0	0	0	0
101012	17:47:33	10023	Trial2BackEng	N	3	0	1000	1	13	17:47:33	1423079	0	0	0	0	0	0	0	0	0	0	0	0	0	0	0	0	0
101012	17:47:33	10023	Trial2BackEng	N	3	0	1000	1	14	17:47:33	1424599	0	0	0	0	0	0	0	0	0	0	0	0	0	0	0	0	0
101012	17:47:33	10023	Trial2BackEng	N	3	0	1000	1	15	17:47:33	1426118	0	0	0	0	0	0	0	0	0	0	0	0	0	0	0	0	0
101012	17:47:33	10023	Trial2BackEng	N	3	57	673	0	15	17:47:33	1427317	0	0	0	0	0	0	0	0	0	0	0	0	0	0	0	0	0
101012	17:47:33	10023	Trial2BackEng	Y	3	0	1000	0	15	17:47:33	1429143	0	0	0	0	0	0	0	0	0	0	0	0	0	0	0	0	0
101012	17:47:33	10023	Trial2BackEng	N	3	0	1000	1	16	17:47:33	1430663	0	0	0	0	0	0	0	0	0	0	0	0	0	0	0	0	0
101012	17:47:33	10023	Trial2BackEng	N	3	0	1000	1	17	17:47:33	1432182	0	0	0	0	0	0	0	0	0	0	0	0	0	0	0	0	0
101012	17:47:33	10023	Trial2BackEng	N	3	0	1000	1	18	17:47:33	1433702	0	0	0	0	0	0	0	0	0	0	0	0	0	0	0	0	0
101012	17:47:33	10023	Trial2BackEng	N	3	57	738	0	18	17:47:33	1434968	0	0	0	0	0	0	0	0	0	0	0	0	0	0	0	0	0
101012	17:47:33	10023	Trial2BackEng	Y	3	0	1000	0	18	17:47:33	1436727	0	0	0	0	0	0	0	0	0	0	0	0	0	0	0	0	0
101012	17:47:33	10023	Trial2BackEng	N	3	0	1000	1	19	17:47:33	1438247	0	0	0	0	0	0	0	0	0	0	0	0	0	0	0	0	0
101012	17:47:33	10023	Trial2BackEng	N	3	0	1000	1	20	17:47:33	1439779	0	0	0	0	0	0	0	0	0	0	0	0	0	0	0	0	0
101012	17:47:33	10023	Trial2BackEng	N	3	0	1000	1	21	17:47:33	1441299	0	0	0	0	0	0	0	0	0	0	0	0	0	0	0	0	0
101012	17:47:33	10023	Trial2BackEng	N	3	0	1000	1	22	17:47:33	1442818	0	0	0	0	0	0	0	0	0	0	0	0	0	0	0	0	0
101012	17:47:33	10023	Trial2BackEng	N	3	0	1000	1	23	17:47:33	1444338	0	0	0	0	0	0	0	0	0	0	0	0	0	0	0	0	0
101012	17:47:33	10023	Trial2BackEng	N	3	0	1000	1	24	17:47:33	1445857	0	0	0	0	0	0	0	0	0	0	0	0	0	0	0	0	0
101012	17:47:33	10023	Trial2BackEng	Y	3	57	791	1	25	17:47:33	1447177	0	0	0	0	0	0	0	0	0	0	0	0	0	0	0	0	0
101012	17:47:33	10023	Trial2BackEng	N	3	0	1000	1	26	17:47:33	1448883	0	0	0	0	0	0	0	0	0	0	0	0	0	0	0	0	0
101012	17:47:33	10023	Trial2BackEng	N	3	0	1000	1	27	17:47:33	1450402	0	0	0	0	0	0	0	0	0	0	0	0	0	0	0	0	0
101012	17:47:33	10023	Trial2BackEng	N	3	0	1000	1	28	17:47:33	1451921	0	0	0	0	0	0	0	0	0	0	0	0	0	0	0	0	0
101012	17:47:33	10023	Trial2BackEng	Y	3	57	662	1	29	17:47:33	1453107	0	0	0	0	0	0	0	0	0	0	0	0	0	0	0	0	0
101012	17:47:33	10023	Trial2BackEng	N	3	0	1000	1	30	17:47:33	1454947	0	0	0	0	0	0	0	0	0	0	0	0	0	0	0	0	0
101012	17:47:33	10023	Trial2BackEng	N	3	0	1000	1	31	17:47:33	1456479	0	0	0	0	0	0	0	0	0	0	0	0	0	0	0	0	0
101012	17:47:33	10023	Trial2BackEng	N	3	0	1000	1	32	17:47:33	1457999	0	0	0	0	0	0	0	0	0	0	0	0	0	0	0	0	0
101012	17:47:33	10023	Trial2BackEng	N	3	0	1000	1	33	17:47:33	1459518	0	0	0	0	0	0	0	0	0	0	0	0	0	0	0	0	0
101012	17:47:33	10023	Trial2BackEng	N	3	0	1000	1	34	17:47:33	1461038	0	0	0	0	0	0	0	0	0	0	0	0	0	0	0	0	0
101012	17:47:33	10023	Trial2BackEng	N	3	0	1000	1	35	17:47:33	1462557	0	0	0	0	0	0	0	0	0	0	0	0	0	0	0	0	0
101012	17:47:33	10023	Trial2BackEng	Y	3	0	1000	0	35	17:47:33	1464076	0	0	0	0	0	0	0	0	0	0	0	0	0	0	0	0	0
101012	17:47:33	10023	Trial2BackEng	N	3	0	1000	1	36	17:47:33	1465596	0	0	0	0	0	0	0	0	0	0	0	0	0	0	0	0	0
101012	17:47:33	10023	Trial2BackEng	N	3	0	1000	1	37	17:47:33	1467115	0	0	0	0	0	0	0	0	0	0	0	0	0	0	0	0	0
101012	17:47:33	10023	Trial2BackEng	N	3	0	1000	1	38	17:47:33	1468635	0	0	0	0	0	0	0	0	0	0	0	0	0	0	0	0	0
101012	17:47:33	10023	Trial2BackEng	N	3	0	1000	1	39	17:47:33	1470154	0	0	0	0	0	0	0	0	0	0	0	0	0	0	0	0	0
101012	17:47:33	10023	Trial2BackEng	Y	3	0	1000	0	39	17:47:33	1471673	0	0	0	0	0	0	0	0	0	0	0	0	0	0	0	0	0
101012	17:47:33	10023	Trial2BackEng	N	3	0	1000	1	40	17:47:33	1473193	0	0	0	0	0	0	0	0	0	0	0	0	0	0	0	0	0
101012	17:47:33	10023	Trial2BackEng	N	3	0	1000	1	41	17:47:33	1474712	0	0	0	0	0	0	0	0	0	0	0	0	0	0	0	0	0
101012	17:47:33	10023	Trial2BackEng	N	3	57	767	0	41	17:47:33	1476005	0	0	0	0	0	0	0	0	0	0	0	0	0	0	0	0	0
101012	17:47:33	10023	Trial2BackEng	N	3	0	1000	1	42	17:47:33	1477738	0	0	0	0	0	0	0	0	0	0	0	0	0	0	0	0	0
101012	17:47:33	10023	Trial2BackEng	N	3	0	1000	1	43	17:47:33	1479257	0	0	0	0	0	0	0	0	0	0	0	0	0	0	0	0	0
101012	17:47:33	10023	Trial2BackEng	Y	3	0	1000	0	43	17:47:33	1480777	0	0	0	0	0	0	0	0	0	0	0	0	0	0	0	0	0
101012	17:47:33	10023	Trial2BackEng	N	3	0	1000	1	44	17:47:33	1482296	0	0	0	0	0	0	0	0	0	0	0	0	0	0	0	0	0
101012	17:47:33	10023	Trial2BackEng	N	3	0	1000	1	45	17:47:33	1483815	0	0	0	0	0	0	0	0	0	0	0	0	0	0	0	0	0
101012	17:47:33	10023	Trial2BackEng	N	3	0	1000	1	46	17:47:33	1485335	0	0	0	0	0	0	0	0	0	0	0	0	0	0	0	0	0
101012	17:47:33	10023	Trial2BackEng	N	3	0	1000	1	47	17:47:33	1486854	0	0	0	0	0	0	0	0	0	0	0	0	0	0	0	0	0
101012	17:47:33	10023	Trial2BackEng	N	3	0	1000	1	48	17:47:33	1488373	0	0	0	0	0	0	0	0	0	0	0	0	0	0	0	0	0
101012	17:47:33	10023	Trial2BackEng	N	3	0	1000	1	49	17:47:33	1489893	0	0	0	0	0	0	0	0	0	0	0	0	0	0	0	0	0
101012	17:47:33	10023	Trial2BackEng	Y	3	57	770	1	50	17:47:33	1491185	0	0	0	0	0	0	0	0	0	0	0	0	0	0	0	0	0
101012	17:47:33	10023	Trial2BackEng	N	3	0	1000	1	51	17:47:33	1492918	0	0	0	0	0	0	0	0	0	0	0	0	0	0	0	0	0
101012	17:47:33	10023	Trial2BackEng	N	3	0	1000	1	52	17:47:33	1494438	0	0	0	0	0	0	0	0	0	0	0	0	0	0	0	0	0
101012	17:47:33	10023	Trial2BackEng	Y	3	57	529	1	53	17:47:33	1495491	0	0	0	0	0	0	0	0	0	0	0	0	0	0	0	0	0
101012	17:47:33	10023	Trial2BackEng	N	3	0	1000	1	54	17:47:33	1497463	0	0	0	0	0	0	0	0	0	0	0	0	0	0	0	0	0
101012	17:47:33	10023	Trial2BackEng	N	3	0	1000	1	55	17:47:33	1498983	0	0	0	0	0	0	0	0	0	0	0	0	0	0	0	0	0
101012	17:47:33	10023	Trial2BackEng	N	3	0	1000	1	56	17:47:33	1500502	0	0	0	0	0	0	0	0	0	0	0	0	0	0	0	0	0
101012	17:47:33	10023	Trial2BackEng	N	3	0	1000	1	57	17:47:33	1502021	0	0	0	0	0	0	0	0	0	0	0	0	0	0	0	0	0
101012	17:47:33	10023	Trial2BackEng	N	3	0	1000	1	58	17:47:33	1503541	0	0	0	0	0	0	0	0	0	0	0	0	0	0	0	0	0
101012	17:47:33	10023	Trial2BackEng	N	3	0	1000	1	59	17:47:33	1505060	0	0	0	0	0	0	0	0	0	0	0	0	0	0	0	0	0
101012	17:47:33	10023	Trial2BackEng	N	3	0	1000	1	60	17:47:33	1506580	0	0	0	0	0	0	0	0	0	0	0	0	0	0	0	0	0
101012	17:47:33	10023	Trial2BackEng	N	3	57	595	0	60	17:47:33	1507699	0	0	0	0	0	0	0	0	0	0	0	0	0	0	0	0	0
101012	17:47:33	10023	Trial2BackEng	N	3	0	1000	1	61	17:47:33	1509605	0	0	0	0	0	0	0	0	0	0	0	0	0	0	0	0	0
101012	17:47:33	10023	Trial2BackEng	N	3	0	1000	1	62	17:47:33	1511125	0	0	0	0	0	0	0	0	0	0	0	0	0	0	0	0	0
101012	17:47:33	10023	Trial2BackEng	Y	3	0	1000	0	62	17:47:33	1512644	0	0	0	0	0	0	0	0	0	0	0	0	0	0	0	0	0
101012	17:47:33	10023	Trial2BackEng	N	3	0	1000	1	63	17:47:33	1514163	0	0	0	0	0	0	0	0	0	0	0	0	0	0	0	0	0
101012	17:47:33	10023	Trial2BackEng	N	3	0	1000	1	64	17:47:33	1515683	0	0	0	0	0	0	0	0	0	0	0	0	0	0	0	0	0
101012	17:47:33	10023	Trial2BackEng	N	3	0	1000	1	65	17:47:33	1517202	0	0	0	0	0	0	0	0	0	0	0	0	0	0	0	0	0
101012	17:47:33	10023	Trial2BackEng	Y	3	57	581	1	66	17:47:33	1518308	0	0	0	0	0	0	0	0	0	0	0	0	0	0	0	0	0
101012	17:47:33	10023	Trial2BackEng	N	3	0	1000	1	67	17:47:33	1520228	0	0	0	0	0	0	0	0	0	0	0	0	0	0	0	0	0
101012	17:47:33	10023	Trial2BackEng	N	3	0	1000	1	68	17:47:33	1521747	0	0	0	0	0	0	0	0	0	0	0	0	0	0	0	0	0
101012	17:47:33	10023	Trial2BackEng	N	3	0	1000	1	69	17:47:33	1523266	0	0	0	0	0	0	0	0	0	0	0	0	0	0	0	0	0
101012	17:47:33	10023	Trial2BackEng	N	3	0	1000	1	70	17:47:33	1524786	0	0	0	0	0	0	0	0	0	0	0	0	0	0	0	0	0
101012	17:47:33	10023	Trial2BackEng	N	3	0	1000	1	71	17:47:33	1526305	0	0	0	0	0	0	0	0	0	0	0	0	0	0	0	0	0
101012	17:47:33	10023	Trial2BackEng	Y	3	0	1000	0	71	17:47:33	1527825	0	0	0	0	0	0	0	0	0	0	0	0	0	0	0	0	0
101012	17:47:33	10023	Trial2BackEng	N	3	0	1000	1	72	17:47:33	1529344	0	0	0	0	0	0	0	0	0	0	0	0	0	0	0	0	0
101012	17:47:33	10023	Trial2BackEng	N	3	0	1000	1	73	17:47:33	1530863	0	0	0	0	0	0	0	0	0	0	0	0	0	0	0	0	0
101012	17:47:33	10023	Trial2BackEng	N	3	0	1000	1	74	17:47:33	1532383	0	0	0	0	0	0	0	0	0	0	0	0	0	0	0	0	0
101012	17:47:33	10023	Trial2BackEng	N	3	0	1000	1	75	17:47:33	1533902	0	0	0	0	0	0	0	0	0	0	0	0	0	0	0	0	0
101012	17:47:33	10023	Trial2BackEng	N	3	0	1000	1	76	17:47:33	1535422	0	0	0	0	0	0	0	0	0	0	0	0	0	0	0	0	0
101012	17:47:33	10023	Trial2BackEng	N	3	0	1000	1	77	17:47:33	1536941	0	0	0	0	0	0	0	0	0	0	0	0	0	0	0	0	0
101012	17:47:33	10023	Trial2BackEng	N	3	0	1000	1	78	17:47:33	1538460	0	0	0	0	0	0	0	0	0	0	0	0	0	0	0	0	0
101012	17:47:33	10023	Trial2BackEng	N	3	0	1000	1	79	17:47:33	1539980	0	0	0	0	0	0	0	0	0	0	0	0	0	0	0	0	0
101012	17:47:33	10023	Trial2BackEng	N	3	0	1000	1	80	17:47:33	1541499	0	0	0	0	0	0	0	0	0	0	0	0	0	0	0	0	0
101012	17:47:33	10023	Trial2BackEng	Y	3	57	971	1	81	17:47:33	1543005	0	0	0	0	0	0	0	0	0	0	0	0	0	0	0	0	0
101012	17:47:33	10023	Trial2BackEng	N	3	0	1000	1	82	17:47:33	1544525	0	0	0	0	0	0	0	0	0	0	0	0	0	0	0	0	0
101012	17:47:33	10023	Trial2BackEng	N	3	0	1000	1	83	17:47:33	1546044	0	0	0	0	0	0	0	0	0	0	0	0	0	0	0	0	0
101012	17:47:33	10023	Trial2BackEng	N	3	0	1000	1	84	17:47:33	1547563	0	0	0	0	0	0	0	0	0	0	0	0	0	0	0	0	0
101012	17:47:33	10023	Trial2BackEng	N	3	0	1000	1	85	17:47:33	1549083	0	0	0	0	0	0	0	0	0	0	0	0	0	0	0	0	0
101012	17:47:33	10023	Trial2BackEng	N	3	0	1000	1	86	17:47:33	1550602	0	0	0	0	0	0	0	0	0	0	0	0	0	0	0	0	0
101012	17:47:33	10023	Trial2BackEng	N	3	0	1000	1	87	17:47:33	1552122	0	0	0	0	0	0	0	0	0	0	0	0	0	0	0	0	0
101012	17:47:33	10023	Trial2BackEng	N	3	0	1000	1	88	17:47:33	1553641	0	0	0	0	0	0	0	0	0	0	0	0	0	0	0	0	0
101012	17:47:33	10023	Trial2BackEng	N	3	57	653	0	88	17:47:33	1554827	0	0	0	0	0	0	0	0	0	0	0	0	0	0	0	0	0
101012	17:47:33	10023	Trial2BackEng	Y	3	0	1000	0	88	17:47:33	1556667	0	0	0	0	0	0	0	0	0	0	0	0	0	0	0	0	0
101012	17:47:33	10023	Trial2BackEng	N	3	0	1000	1	89	17:47:33	1558186	0	0	0	0	0	0	0	0	0	0	0	0	0	0	0	0	0
101012	17:47:33	10023	Trial2BackEng	N	3	0	1000	1	90	17:47:33	1559706	0	0	0	0	0	0	0	0	0	0	0	0	0	0	0	0	0
101012	17:47:33	10023	Trial2BackEng	N	3	0	1000	1	91	17:47:33	1561225	0	0	0	0	0	0	0	0	0	0	0	0	0	0	0	0	0
101012	17:47:33	10023	Trial2BackEng	N	3	0	1000	1	92	17:47:33	1562744	0	0	0	0	0	0	0	0	0	0	0	0	0	0	0	0	0
101012	17:47:33	10023	Trial2BackEng	Y	3	0	1000	0	92	17:47:33	1564263	0	0	0	0	0	0	0	0	0	0	0	0	0	0	0	0	0
101012	17:47:33	10023	Trial2BackEng	N	3	0	1000	1	93	17:47:33	1565783	0	0	0	0	0	0	0	0	0	0	0	0	0	0	0	0	0
101012	17:47:33	10023	Trial2BackEng	N	3	0	1000	1	94	17:47:33	1567302	0	0	0	0	0	0	0	0	0	0	0	0	0	0	0	0	0
101012	17:47:33	10023	Trial2BackEng	N	3	0	1000	1	95	17:47:33	1568822	0	0	0	0	0	0	0	0	0	0	0	0	0	0	0	0	0
101012	17:47:33	10023	Trial2BackEng	Y	3	57	560	1	96	17:47:33	1569915	0	0	0	0	0	0	0	0	0	0	0	0	0	0	0	0	0
101012	17:47:33	10023	Trial2BackEng	N	3	0	1000	1	97	17:47:33	1571847	0	0	0	0	0	0	0	0	0	0	0	0	0	0	0	0	0
101012	17:47:33	10023	Trial2BackEng	N	3	0	1000	1	98	17:47:33	1573367	0	0	0	0	0	0	0	0	0	0	0	0	0	0	0	0	0
101012	17:47:33	10023	Trial2BackEng	N	3	0	1000	1	99	17:47:33	1574886	0	0	0	0	0	0	0	0	0	0	0	0	0	0	0	0	0
101012	17:47:33	10023	Trial2BackEng	N	3	0	1000	1	100	17:47:33	1576406	0	0	0	0	0	0	0	0	0	0	0	0	0	0	0	0	0
101012	17:47:33	10023	Trial2BackEng	N	3	0	1000	1	101	17:47:33	1577925	0	0	0	0	0	0	0	0	0	0	0	0	0	0	0	0	0
101012	17:47:33	10023	Trial2BackEng	Y	3	57	593	1	102	17:47:33	1579044	0	0	0	0	0	0	0	0	0	0	0	0	0	0	0	0	0
101012	17:47:33	10023	Trial2BackEng	N	3	0	1000	1	103	17:47:33	1580950	0	0	0	0	0	0	0	0	0	0	0	0	0	0	0	0	0
101012	17:47:33	10023	Trial2BackEng	N	3	0	1000	1	104	17:47:33	1582470	0	0	0	0	0	0	0	0	0	0	0	0	0	0	0	0	0
101012	17:47:33	10023	Trial2BackEng	N	3	0	1000	1	105	17:47:33	1583989	0	0	0	0	0	0	0	0	0	0	0	0	0	0	0	0	0
101012	17:47:33	10023	Trial2BackEng	Y	3	57	609	1	106	17:47:33	1585122	0	0	0	0	0	0	0	0	0	0	0	0	0	0	0	0	0
101012	17:47:33	10023	Memory1R3mo	Score	5	M1	14229	0	106	17:47:33	1630518	0	0	0	0	0	0	0	0	0	0	0	0	0	0	0	0	0
101012	17:47:33	10023	Memory1R3mo	Score	5	M2	523	0	106	17:47:33	1631077	0	0	0	0	0	0	0	0	0	0	0	0	0	0	0	0	0
101012	17:47:33	10023	Memory1R3mo	Score	5	M5	1875	0	106	17:47:33	1632997	0	0	0	0	0	0	0	0	0	0	0	0	0	0	0	0	0
101012	17:47:33	10023	Memory1R3mo	Score	5	M7	972	0	106	17:47:33	1634010	0	0	0	0	0	0	0	0	0	0	0	0	0	0	0	0	0
101012	17:47:33	10023	Memory1R3mo	Score	5	M8	1112	0	106	17:47:33	1635156	0	0	0	0	0	0	0	0	0	0	0	0	0	0	0	0	0
101012	17:47:33	10023	Memory1R3mo	Score	5	Done	773	0	106	17:47:33	1635969	0	0	0	0	0	0	0	0	0	0	0	0	0	0	0	0	0
101012	17:47:33	10023	Memory2R3mo	Score2	5	11	16101	0	106	17:47:33	1673248	0	0	0	0	0	0	0	0	0	0	0	0	0	0	0	0	0
101012	17:47:33	10023	Memory2R3mo	Score2	5	33	393	0	106	17:47:33	1673687	0	0	0	0	0	0	0	0	0	0	0	0	0	0	0	0	0
101012	17:47:33	10023	Memory2R3mo	Score2	5	44	361	0	106	17:47:33	1674087	0	0	0	0	0	0	0	0	0	0	0	0	0	0	0	0	0
101012	17:47:33	10023	Memory2R3mo	Score2	5	55	489	0	106	17:47:33	1674620	0	0	0	0	0	0	0	0	0	0	0	0	0	0	0	0	0
101012	17:47:33	10023	Memory2R3mo	Score2	5	66	420	0	106	17:47:33	1675087	0	0	0	0	0	0	0	0	0	0	0	0	0	0	0	0	0
101012	17:47:33	10023	Memory2R3mo	Score2	5	77	322	0	106	17:47:33	1675447	0	0	0	0	0	0	0	0	0	0	0	0	0	0	0	0	0
101012	17:47:33	10023	Memory2R3mo	Score2	5	88	354	0	106	17:47:33	1675847	0	0	0	0	0	0	0	0	0	0	0	0	0	0	0	0	0
101012	17:47:33	10023	Memory2R3mo	Score2	5	Done	362	0	106	17:47:33	1676246	0	0	0	0	0	0	0	0	0	0	0	0	0	0	0	0	0
101012	17:47:33	10023	Memory3R3mo	Score3	5	111	17852	0	106	17:47:33	1714778	0	0	0	0	0	0	0	0	0	0	0	0	0	0	0	0	0
101012	17:47:33	10023	Memory3R3mo	Score3	5	222	438	0	106	17:47:33	1715257	0	0	0	0	0	0	0	0	0	0	0	0	0	0	0	0	0
101012	17:47:33	10023	Memory3R3mo	Score3	5	555	3406	0	106	17:47:33	1718710	0	0	0	0	0	0	0	0	0	0	0	0	0	0	0	0	0
101012	17:47:33	10023	Memory3R3mo	Score3	5	666	274	0	106	17:47:33	1719029	0	0	0	0	0	0	0	0	0	0	0	0	0	0	0	0	0
101012	17:47:33	10023	Memory3R3mo	Score3	5	777	266	0	106	17:47:33	1719336	0	0	0	0	0	0	0	0	0	0	0	0	0	0	0	0	0
101012	17:47:33	10023	Memory3R3mo	Score3	5	888	256	0	106	17:47:33	1719629	0	0	0	0	0	0	0	0	0	0	0	0	0	0	0	0	0
101012	17:47:33	10023	Memory3R3mo	Score3	5	Done	667	0	106	17:47:33	1720336	0	0	0	0	0	0	0	0	0	0	0	0	0	0	0	0	0
101012	17:47:33	10023	LoriaEngLH3	Stop	6	3	4682	0	106	17:47:33	1798626	0	0	0	0	0	0	0	0	0	0	0	0	0	0	0	0	0
101012	17:47:33	10023	EngTrail	Trails	7	1Trails	513	0	106	17:47:33	1829439	0	0	0	0	0	0	0	0	0	0	0	0	0	0	0	0	0
101012	17:47:33	10023	Serial7Eng3mo	Serial7Eng3mo	8	83	27821	0	106	17:47:33	1868641	1	0	0	0	0	0	0	0	0	0	0	0	0	0	0	0	0
101012	17:47:33	10023	Serial7Eng3mo	Serial7Eng3mo	8	76	2965	0	106	17:47:33	1871627	2	0	0	0	0	0	0	0	0	0	0	0	0	0	0	0	0
101012	17:47:33	10023	Serial7Eng3mo	Serial7Eng3mo	8	69	3251	0	106	17:47:33	1874906	3	0	0	0	0	0	0	0	0	0	0	0	0	0	0	0	0
101012	17:47:33	10023	Serial7Eng3mo	Serial7Eng3mo	8	62	2756	0	106	17:47:33	1877678	4	0	0	0	0	0	0	0	0	0	0	0	0	0	0	0	0
101012	17:47:33	10023	Serial7Eng3mo	Serial7Eng3mo	8	54	2168	0	106	17:47:33	1879864	4	0	0	0	0	0	0	0	0	0	0	0	0	0	0	0	0
101012	17:47:33	10023	corsiblockEngFwrd	recallseqEngFwrd	9	3	2020	0	106	17:47:33	1924606	4	0	0	0	0	0	0	0	0	0	0	0	0	0	0	0	0
101012	17:47:33	10023	corsiblockEngFwrd	recallseqEngFwrd	9	2	699	0	106	17:47:33	1925339	4	0	0	0	0	0	0	0	0	0	0	0	0	0	0	0	0
101012	17:47:33	10023	corsiblockEngFwrd	recallseqEngFwrd	9	doneCorsiEng	2886	0	106	17:47:33	1928258	4	0	0	0	0	0	0	0	0	0	0	0	0	0	0	2	0
101012	17:47:33	10023	corsiblockEngFwrd	recallseqEngFwrd	9	1	1596	0	106	17:47:33	1935948	4	0	0	0	0	0	0	0	0	0	0	0	0	0	0	2	0
101012	17:47:33	10023	corsiblockEngFwrd	recallseqEngFwrd	9	5	1261	0	106	17:47:33	1937255	4	0	0	0	0	0	0	0	0	0	0	0	0	0	0	2	0
101012	17:47:33	10023	corsiblockEngFwrd	recallseqEngFwrd	9	9	1163	0	106	17:47:33	1938454	4	0	0	0	0	0	0	0	0	0	0	0	0	0	0	2	0
101012	17:47:33	10023	corsiblockEngFwrd	recallseqEngFwrd	9	doneCorsiEng	1163	0	106	17:47:33	1939654	4	0	0	0	0	0	0	0	0	0	0	0	0	0	0	3	0
101012	17:47:33	10023	corsiblockEngFwrd	recallseqEngFwrd	9	8	1425	0	106	17:47:33	1948170	4	0	0	0	0	0	0	0	0	0	0	0	0	0	0	3	0
101012	17:47:33	10023	corsiblockEngFwrd	recallseqEngFwrd	9	4	807	0	106	17:47:33	1949010	4	0	0	0	0	0	0	0	0	0	0	0	0	0	0	3	0
101012	17:47:33	10023	corsiblockEngFwrd	recallseqEngFwrd	9	6	711	0	106	17:47:33	1949756	4	0	0	0	0	0	0	0	0	0	0	0	0	0	0	3	0
101012	17:47:33	10023	corsiblockEngFwrd	recallseqEngFwrd	9	7	853	0	106	17:47:33	1950649	4	0	0	0	0	0	0	0	0	0	0	0	0	0	0	3	0
101012	17:47:33	10023	corsiblockEngFwrd	recallseqEngFwrd	9	doneCorsiEng	1000	0	106	17:47:33	1951689	4	0	0	0	0	0	0	0	0	0	0	0	0	0	0	4	0
101012	17:47:33	10023	corsiblockEngFwrd	recallseqEngFwrd	9	1	1670	0	106	17:47:33	1961445	4	0	0	0	0	0	0	0	0	0	0	0	0	0	0	4	0
101012	17:47:33	10023	corsiblockEngFwrd	recallseqEngFwrd	9	9	836	0	106	17:47:33	1962325	4	0	0	0	0	0	0	0	0	0	0	0	0	0	0	4	0
101012	17:47:33	10023	corsiblockEngFwrd	recallseqEngFwrd	9	4	852	0	106	17:47:33	1963218	4	0	0	0	0	0	0	0	0	0	0	0	0	0	0	4	0
101012	17:47:33	10023	corsiblockEngFwrd	recallseqEngFwrd	9	5	559	0	106	17:47:33	1963817	4	0	0	0	0	0	0	0	0	0	0	0	0	0	0	4	0
101012	17:47:33	10023	corsiblockEngFwrd	recallseqEngFwrd	9	6	623	0	106	17:47:33	1964484	4	0	0	0	0	0	0	0	0	0	0	0	0	0	0	4	0
101012	17:47:33	10023	corsiblockEngFwrd	recallseqEngFwrd	9	doneCorsiEng	1236	0	106	17:47:33	1965763	4	0	0	0	0	0	0	0	0	0	0	0	0	0	0	4	0
101012	17:47:33	10023	corsiblockEngFwrd	recallseqEngFwrd	9	6	1435	0	106	17:47:33	1975253	4	0	0	0	0	0	0	0	0	0	0	0	0	0	0	4	0
101012	17:47:33	10023	corsiblockEngFwrd	recallseqEngFwrd	9	2	780	0	106	17:47:33	1976066	4	0	0	0	0	0	0	0	0	0	0	0	0	0	0	4	0
101012	17:47:33	10023	corsiblockEngFwrd	recallseqEngFwrd	9	8	1046	0	106	17:47:33	1977146	4	0	0	0	0	0	0	0	0	0	0	0	0	0	0	4	0
101012	17:47:33	10023	corsiblockEngFwrd	recallseqEngFwrd	9	7	983	0	106	17:47:33	1978172	4	0	0	0	0	0	0	0	0	0	0	0	0	0	0	4	0
101012	17:47:33	10023	corsiblockEngFwrd	recallseqEngFwrd	9	5	1917	0	106	17:47:33	1980131	4	0	0	0	0	0	0	0	0	0	0	0	0	0	0	4	0
101012	17:47:33	10023	corsiblockEngFwrd	recallseqEngFwrd	9	7	789	0	106	17:47:33	1980957	4	0	0	0	0	0	0	0	0	0	0	0	0	0	0	4	0
101012	17:47:33	10023	corsiblockEngFwrd	recallseqEngFwrd	9	doneCorsiEng	1059	0	106	17:47:33	1982050	4	0	0	0	0	0	0	0	0	0	0	0	0	0	0	4	0
101012	17:47:33	10023	corsiblockEngRev	recallseqEngRev	10	4	1251	0	106	17:47:33	1995099	4	0	0	0	0	0	0	0	0	0	0	0	0	0	0	4	0
101012	17:47:33	10023	corsiblockEngRev	recallseqEngRev	10	8	686	0	106	17:47:33	1995818	4	0	0	0	0	0	0	0	0	0	0	0	0	0	0	4	0
101012	17:47:33	10023	corsiblockEngRev	recallseqEngRev	10	doneCorsiEng	893	0	106	17:47:33	1996752	4	0	0	0	0	0	0	0	0	0	0	0	0	0	0	4	2
101012	17:47:33	10023	corsiblockEngRev	recallseqEngRev	10	9	726	0	106	17:47:33	2003562	4	0	0	0	0	0	0	0	0	0	0	0	0	0	0	4	2
101012	17:47:33	10023	corsiblockEngRev	recallseqEngRev	10	3	1439	0	106	17:47:33	2005041	4	0	0	0	0	0	0	0	0	0	0	0	0	0	0	4	2
101012	17:47:33	10023	corsiblockEngRev	recallseqEngRev	10	6	1055	0	106	17:47:33	2006134	4	0	0	0	0	0	0	0	0	0	0	0	0	0	0	4	2
101012	17:47:33	10023	corsiblockEngRev	recallseqEngRev	10	doneCorsiEng	802	0	106	17:47:33	2006974	4	0	0	0	0	0	0	0	0	0	0	0	0	0	0	4	3
101012	17:47:33	10023	corsiblockEngRev	recallseqEngRev	10	2	1151	0	106	17:47:33	2015211	4	0	0	0	0	0	0	0	0	0	0	0	0	0	0	4	3
101012	17:47:33	10023	corsiblockEngRev	recallseqEngRev	10	5	822	0	106	17:47:33	2016077	4	0	0	0	0	0	0	0	0	0	0	0	0	0	0	4	3
101012	17:47:33	10023	corsiblockEngRev	recallseqEngRev	10	1	955	0	106	17:47:33	2017077	4	0	0	0	0	0	0	0	0	0	0	0	0	0	0	4	3
101012	17:47:33	10023	corsiblockEngRev	recallseqEngRev	10	7	900	0	106	17:47:33	2018009	4	0	0	0	0	0	0	0	0	0	0	0	0	0	0	4	3
101012	17:47:33	10023	corsiblockEngRev	recallseqEngRev	10	doneCorsiEng	878	0	106	17:47:33	2018929	4	0	0	0	0	0	0	0	0	0	0	0	0	0	0	4	4
101012	17:47:33	10023	corsiblockEngRev	recallseqEngRev	10	5	1259	0	106	17:47:33	2028285	4	0	0	0	0	0	0	0	0	0	0	0	0	0	0	4	4
101012	17:47:33	10023	corsiblockEngRev	recallseqEngRev	10	7	1043	0	106	17:47:33	2029365	4	0	0	0	0	0	0	0	0	0	0	0	0	0	0	4	4
101012	17:47:33	10023	corsiblockEngRev	recallseqEngRev	10	9	1323	0	106	17:47:33	2030724	4	0	0	0	0	0	0	0	0	0	0	0	0	0	0	4	4
101012	17:47:33	10023	corsiblockEngRev	recallseqEngRev	10	6	1108	0	106	17:47:33	2031871	4	0	0	0	0	0	0	0	0	0	0	0	0	0	0	4	4
101012	17:47:33	10023	corsiblockEngRev	recallseqEngRev	10	2	729	0	106	17:47:33	2032644	4	0	0	0	0	0	0	0	0	0	0	0	0	0	0	4	4
101012	17:47:33	10023	corsiblockEngRev	recallseqEngRev	10	doneCorsiEng	796	0	106	17:47:33	2033483	4	0	0	0	0	0	0	0	0	0	0	0	0	0	0	4	4
101012	17:47:33	10023	corsiblockEngRev	recallseqEngRev	10	5	994	0	106	17:47:33	2042533	4	0	0	0	0	0	0	0	0	0	0	0	0	0	0	4	4
101012	17:47:33	10023	corsiblockEngRev	recallseqEngRev	10	8	1146	0	106	17:47:33	2043719	4	0	0	0	0	0	0	0	0	0	0	0	0	0	0	4	4
101012	17:47:33	10023	corsiblockEngRev	recallseqEngRev	10	3	1056	0	106	17:47:33	2044812	4	0	0	0	0	0	0	0	0	0	0	0	0	0	0	4	4
101012	17:47:33	10023	corsiblockEngRev	recallseqEngRev	10	2	1228	0	106	17:47:33	2046078	4	0	0	0	0	0	0	0	0	0	0	0	0	0	0	4	4
101012	17:47:33	10023	corsiblockEngRev	recallseqEngRev	10	1	833	0	106	17:47:33	2046945	4	0	0	0	0	0	0	0	0	0	0	0	0	0	0	4	4
101012	17:47:33	10023	corsiblockEngRev	recallseqEngRev	10	doneCorsiEng	1087	0	106	17:47:33	2048078	4	0	0	0	0	0	0	0	0	0	0	0	0	0	0	4	4
101012	17:47:33	10023	testEng3mo	WordsEng3mo	11	1Eng3mo	1611	0	106	17:47:33	2074881	4	3	0	0	0	0	0	0	0	0	0	0	0	0	0	4	4
101012	17:47:33	10023	testEng3mo	WordsEng3mo	11	3Eng3mo	2615	0	106	17:47:33	2077533	4	3	0	3	0	0	0	0	0	0	0	0	0	0	0	4	4
101012	17:47:33	10023	testEng3mo	WordsEng3mo	11	6Eng3mo	1779	0	106	17:47:33	2079359	4	3	0	3	0	0	3	0	0	0	0	0	0	0	0	4	4
101012	17:47:33	10023	testEng3mo	WordsEng3mo	11	7Eng3mo	1065	0	106	17:47:33	2080465	4	3	0	3	0	0	3	3	0	0	0	0	0	0	0	4	4
101012	17:47:33	10023	testEng3mo	WordsEng3mo	11	8Eng3mo	287	0	106	17:47:33	2080798	4	3	0	3	0	0	3	3	3	0	0	0	0	0	0	4	4
101012	17:47:33	10023	testEng3mo	WordsEng3mo	11	DoneEng3mo	1154	0	106	17:47:33	2081998	4	3	0	3	0	0	3	3	3	0	0	0	0	0	0	4	4
101012	17:47:33	10023	testEng3mo	Cat2Eng3mo	11	R2Eng3mo	5314	0	106	17:47:33	2087355	4	3	2	3	0	0	3	3	3	0	0	0	0	0	0	4	4
101012	17:47:33	10023	testEng3mo	Cat4Eng3mo	11	W4Eng3mo	9580	0	106	17:47:33	2096978	4	3	2	3	0	0	3	3	3	0	0	0	0	0	0	4	4
101012	17:47:33	10023	testEng3mo	Ch4Eng3mo	11	RR4Eng3mo	4045	0	106	17:47:33	2101057	4	3	2	3	1	0	3	3	3	0	0	0	0	0	0	4	4
101012	17:47:33	10023	testEng3mo	Cat5Eng3mo	11	R5Eng3mo	6879	0	106	17:47:33	2107974	4	3	2	3	1	2	3	3	3	0	0	0	0	0	0	4	4
101012	17:47:33	10023	DigitSpanFwrdEng3mo	Score1FwrdEng3mo	12	DS1	4204	0	106	17:47:33	2124834	4	3	2	3	1	2	3	3	3	0	0	0	0	0	0	4	4
101012	17:47:33	10023	DigitSpanFwrdEng3mo	Gate1FwrdEng3mo	12	0	1	0	106	17:47:33	2124850	4	3	2	3	1	2	3	3	3	3	0	0	0	0	0	4	4
101012	17:47:33	10023	DigitSpanFwrdEng3mo	Score2FwrdEng3mo	12	DS1	4405	0	106	17:47:33	2135816	4	3	2	3	1	2	3	3	3	3	0	0	0	0	0	4	4
101012	17:47:33	10023	DigitSpanFwrdEng3mo	Gate3FwrdEng3mo	12	0	1	0	106	17:47:33	2135831	4	3	2	3	1	2	3	3	3	4	0	0	0	0	0	4	4
101012	17:47:33	10023	DigitSpanFwrdEng3mo	Score3FwrdEng3mo	12	DS1	3922	0	106	17:47:33	2147811	4	3	2	3	1	2	3	3	3	4	0	0	0	0	0	4	4
101012	17:47:33	10023	DigitSpanFwrdEng3mo	Gate5FwrdEng3mo	12	0	1	0	106	17:47:33	2147827	4	3	2	3	1	2	3	3	3	5	0	0	0	0	0	4	4
101012	17:47:33	10023	DigitSpanFwrdEng3mo	Score4FwrdEng3mo	12	DS1	5008	0	106	17:47:33	2162379	4	3	2	3	1	2	3	3	3	5	0	0	0	0	0	4	4
101012	17:47:33	10023	DigitSpanFwrdEng3mo	Gate7FwrdEng3mo	12	0	1	0	106	17:47:33	2162394	4	3	2	3	1	2	3	3	3	6	0	0	0	0	0	4	4
101012	17:47:33	10023	DigitSpanFwrdEng3mo	Score5FwrdEng3mo	12	DS2	9320	0	106	17:47:33	2182771	4	3	2	3	1	2	3	3	3	6	0	0	0	0	0	4	4
101012	17:47:33	10023	DigitSpanFwrdEng3mo	Gate9FwrdEng3mo	12	0	1	0	106	17:47:33	2182786	4	3	2	3	1	2	3	3	3	6	0	0	0	0	0	4	4
101012	17:47:33	10023	DigitSpanFwrdEng3mo	Score55FwrdEng3mo	12	DS2	10032	0	106	17:47:33	2204229	4	3	2	3	1	2	3	3	3	6	0	0	0	0	0	4	4
101012	17:47:33	10023	DigitSpanEng3mo	Score1Eng3mo	13	DS1	2326	0	106	17:47:33	2219863	4	3	2	3	1	2	3	3	3	6	0	0	0	0	0	4	4
101012	17:47:33	10023	DigitSpanEng3mo	Gate1Eng3mo	13	0	1	0	106	17:47:33	2219878	4	3	2	3	1	2	3	3	3	6	2	0	0	0	0	4	4
101012	17:47:33	10023	DigitSpanEng3mo	Score2Eng3mo	13	DS1	3628	0	106	17:47:33	2228460	4	3	2	3	1	2	3	3	3	6	2	0	0	0	0	4	4
101012	17:47:33	10023	DigitSpanEng3mo	Gate3Eng3mo	13	0	1	0	106	17:47:33	2228475	4	3	2	3	1	2	3	3	3	6	3	0	0	0	0	4	4
101012	17:47:33	10023	DigitSpanEng3mo	Score3Eng3mo	13	DS2	4384	0	106	17:47:33	2239455	4	3	2	3	1	2	3	3	3	6	3	0	0	0	0	4	4
101012	17:47:33	10023	DigitSpanEng3mo	Gate5Eng3mo	13	0	1	0	106	17:47:33	2239470	4	3	2	3	1	2	3	3	3	6	3	0	0	0	0	4	4
101012	17:47:33	10023	DigitSpanEng3mo	Score33Eng3mo	13	DS2	13137	0	106	17:47:33	2258941	4	3	2	3	1	2	3	3	3	6	3	0	0	0	0	4	4
101012	17:47:33	10023	Trial	ResponseIL	14	0	162	0	106	17:47:33	2332165	4	3	2	3	1	2	3	3	3	6	3	0	0	0	0	4	4
101012	17:47:33	10023	Trial	IncongruentLeft	14	203	600	1	106	17:47:33	2332792	4	3	2	3	1	2	3	3	3	6	3	0	0	0	0	4	4
101012	17:47:33	10023	Trial	ResponseCR	14	0	162	0	106	17:47:33	2333858	4	3	2	3	1	2	3	3	3	6	3	0	0	0	0	4	4
101012	17:47:33	10023	Trial	CongruentRight	14	205	332	1	106	17:47:33	2334216	4	3	2	3	1	2	3	3	3	6	3	0	0	0	0	4	4
101012	17:47:33	10023	Trial	ResponseIR	14	0	162	0	106	17:47:33	2335551	4	3	2	3	1	2	3	3	3	6	3	0	0	0	0	4	4
101012	17:47:33	10023	Trial	IncongruentRight	14	203	271	0	106	17:47:33	2335848	4	3	2	3	1	2	3	3	3	6	3	0	0	0	0	4	4
101012	17:47:33	10023	Trial	ResponseCL	14	0	162	0	106	17:47:33	2337243	4	3	2	3	1	2	3	3	3	6	3	0	0	0	0	4	4
101012	17:47:33	10023	Trial	CongruentLeft	14	203	146	1	106	17:47:33	2337416	4	3	2	3	1	2	3	3	3	6	3	0	0	0	0	4	4
101012	17:47:33	10023	Trial	ResponseCR	14	0	162	0	106	17:47:33	2338936	4	3	2	3	1	2	3	3	3	6	3	0	0	0	0	4	4
101012	17:47:33	10023	Trial	CongruentRight	14	205	181	1	106	17:47:33	2339144	4	3	2	3	1	2	3	3	3	6	3	0	0	0	0	4	4
101012	17:47:33	10023	Trial	ResponseIR	14	0	162	0	106	17:47:33	2340629	4	3	2	3	1	2	3	3	3	6	3	0	0	0	0	4	4
101012	17:47:33	10023	Trial	IncongruentRight	14	203	233	0	106	17:47:33	2340888	4	3	2	3	1	2	3	3	3	6	3	0	0	0	0	4	4
101012	17:47:33	10023	Trial	ResponseCL	14	0	162	0	106	17:47:33	2342321	4	3	2	3	1	2	3	3	3	6	3	0	0	0	0	4	4
101012	17:47:33	10023	Trial	CongruentLeft	14	203	428	1	106	17:47:33	2342776	4	3	2	3	1	2	3	3	3	6	3	0	0	0	0	4	4
101012	17:47:33	10023	Trial	ResponseIL	14	0	162	0	106	17:47:33	2344014	4	3	2	3	1	2	3	3	3	6	3	0	0	0	0	4	4
101012	17:47:33	10023	Trial	IncongruentLeft	14	203	575	1	106	17:47:33	2344616	4	3	2	3	1	2	3	3	3	6	3	0	0	0	0	4	4
101012	17:47:33	10023	Trial	ResponseIL	14	0	162	0	106	17:47:33	2345707	4	3	2	3	1	2	3	3	3	6	3	0	0	0	0	4	4
101012	17:47:33	10023	Trial	IncongruentLeft	14	205	227	0	106	17:47:33	2345960	4	3	2	3	1	2	3	3	3	6	3	0	0	0	0	4	4
101012	17:47:33	10023	Trial	ResponseCR	14	0	162	0	106	17:47:33	2347399	4	3	2	3	1	2	3	3	3	6	3	0	0	0	0	4	4
101012	17:47:33	10023	Trial	CongruentRight	14	205	422	1	106	17:47:33	2347848	4	3	2	3	1	2	3	3	3	6	3	0	0	0	0	4	4
101012	17:47:33	10023	Trial	ResponseIR	14	0	162	0	106	17:47:33	2349092	4	3	2	3	1	2	3	3	3	6	3	0	0	0	0	4	4
101012	17:47:33	10023	Trial	IncongruentRight	14	205	473	1	106	17:47:33	2349592	4	3	2	3	1	2	3	3	3	6	3	0	0	0	0	4	4
101012	17:47:33	10023	Trial	ResponseCL	14	0	162	0	106	17:47:33	2350785	4	3	2	3	1	2	3	3	3	6	3	0	0	0	0	4	4
101012	17:47:33	10023	Trial	CongruentLeft	14	203	317	1	106	17:47:33	2351128	4	3	2	3	1	2	3	3	3	6	3	0	0	0	0	4	4
101012	17:47:33	10023	Trial	ResponseCR	14	0	162	0	106	17:47:33	2352477	4	3	2	3	1	2	3	3	3	6	3	0	0	0	0	4	4
101012	17:47:33	10023	Trial	CongruentRight	14	205	320	1	106	17:47:33	2352824	4	3	2	3	1	2	3	3	3	6	3	0	0	0	0	4	4
101012	17:47:33	10023	Trial	ResponseIL	14	0	162	0	106	17:47:33	2354183	4	3	2	3	1	2	3	3	3	6	3	0	0	0	0	4	4
101012	17:47:33	10023	Trial	IncongruentLeft	14	203	214	1	106	17:47:33	2354424	4	3	2	3	1	2	3	3	3	6	3	0	0	0	0	4	4
101012	17:47:33	10023	Trial	ResponseIR	14	0	162	0	106	17:47:33	2355876	4	3	2	3	1	2	3	3	3	6	3	0	0	0	0	4	4
101012	17:47:33	10023	Trial	IncongruentRight	14	205	345	1	106	17:47:33	2356248	4	3	2	3	1	2	3	3	3	6	3	0	0	0	0	4	4
101012	17:47:33	10023	Trial	ResponseCR	14	0	162	0	106	17:47:33	2357569	4	3	2	3	1	2	3	3	3	6	3	0	0	0	0	4	4
101012	17:47:33	10023	Trial	CongruentRight	14	205	204	1	106	17:47:33	2357800	4	3	2	3	1	2	3	3	3	6	3	0	0	0	0	4	4
101012	17:47:33	10023	Trial	ResponseCL	14	0	162	0	106	17:47:33	2359261	4	3	2	3	1	2	3	3	3	6	3	0	0	0	0	4	4
101012	17:47:33	10023	Trial	CongruentLeft	14	203	224	1	106	17:47:33	2359512	4	3	2	3	1	2	3	3	3	6	3	0	0	0	0	4	4
101012	17:47:33	10023	Trial	ResponseCR	14	0	162	0	106	17:47:33	2360954	4	3	2	3	1	2	3	3	3	6	3	0	0	0	0	4	4
101012	17:47:33	10023	Trial	CongruentRight	14	205	227	1	106	17:47:33	2361208	4	3	2	3	1	2	3	3	3	6	3	0	0	0	0	4	4
101012	17:47:33	10023	Trial	ResponseIR	14	0	162	0	106	17:47:33	2362647	4	3	2	3	1	2	3	3	3	6	3	0	0	0	0	4	4
101012	17:47:33	10023	Trial	IncongruentRight	14	203	182	0	106	17:47:33	2362856	4	3	2	3	1	2	3	3	3	6	3	0	0	0	0	4	4
101012	17:47:33	10023	Trial	ResponseIL	14	0	162	0	106	17:47:33	2364339	4	3	2	3	1	2	3	3	3	6	3	0	0	0	0	4	4
101012	17:47:33	10023	Trial	IncongruentLeft	14	203	410	1	106	17:47:33	2364776	4	3	2	3	1	2	3	3	3	6	3	0	0	0	0	4	4
101012	17:47:33	10023	Trial	ResponseIL	14	0	162	0	106	17:47:33	2366032	4	3	2	3	1	2	3	3	3	6	3	0	0	0	0	4	4
101012	17:47:33	10023	Trial	IncongruentLeft	14	205	189	0	106	17:47:33	2366248	4	3	2	3	1	2	3	3	3	6	3	0	0	0	0	4	4
101012	17:47:33	10023	Trial	ResponseCL	14	0	162	0	106	17:47:33	2367725	4	3	2	3	1	2	3	3	3	6	3	0	0	0	0	4	4
101012	17:47:33	10023	Trial	CongruentLeft	14	203	545	1	106	17:47:33	2368296	4	3	2	3	1	2	3	3	3	6	3	0	0	0	0	4	4
101012	17:47:33	10023	Trial	ResponseCR	14	0	162	0	106	17:47:33	2369417	4	3	2	3	1	2	3	3	3	6	3	0	0	0	0	4	4
101012	17:47:33	10023	Trial	CongruentRight	14	205	291	1	106	17:47:33	2369736	4	3	2	3	1	2	3	3	3	6	3	0	0	0	0	4	4
101012	17:47:33	10023	Trial	ResponseIL	14	0	162	0	106	17:47:33	2371110	4	3	2	3	1	2	3	3	3	6	3	0	0	0	0	4	4
101012	17:47:33	10023	Trial	IncongruentLeft	14	203	439	1	106	17:47:33	2371576	4	3	2	3	1	2	3	3	3	6	3	0	0	0	0	4	4
101012	17:47:33	10023	Trial	ResponseIR	14	0	162	0	106	17:47:33	2372803	4	3	2	3	1	2	3	3	3	6	3	0	0	0	0	4	4
101012	17:47:33	10023	Trial	IncongruentRight	14	205	219	1	106	17:47:33	2373048	4	3	2	3	1	2	3	3	3	6	3	0	0	0	0	4	4
101012	17:47:33	10023	Trial	ResponseCR	14	0	162	0	106	17:47:33	2374495	4	3	2	3	1	2	3	3	3	6	3	0	0	0	0	4	4
101012	17:47:33	10023	Trial	CongruentRight	14	203	174	0	106	17:47:33	2374696	4	3	2	3	1	2	3	3	3	6	3	0	0	0	0	4	4
101012	17:47:33	10023	Trial	ResponseCL	14	0	162	0	106	17:47:33	2376188	4	3	2	3	1	2	3	3	3	6	3	0	0	0	0	4	4
101012	17:47:33	10023	Trial	CongruentLeft	14	203	353	1	106	17:47:33	2376568	4	3	2	3	1	2	3	3	3	6	3	0	0	0	0	4	4
101012	17:47:33	10023	Trial	ResponseIR	14	0	162	0	106	17:47:33	2377881	4	3	2	3	1	2	3	3	3	6	3	0	0	0	0	4	4
101012	17:47:33	10023	Trial	IncongruentRight	14	205	212	1	106	17:47:33	2378120	4	3	2	3	1	2	3	3	3	6	3	0	0	0	0	4	4
101012	17:47:33	10023	Trial	ResponseIL	14	0	162	0	106	17:47:33	2379573	4	3	2	3	1	2	3	3	3	6	3	0	0	0	0	4	4
101012	17:47:33	10023	Trial	IncongruentLeft	14	203	327	1	106	17:47:33	2379928	4	3	2	3	1	2	3	3	3	6	3	0	0	0	0	4	4
101012	17:47:33	10023	Trial	ResponseIR	14	0	162	0	106	17:47:33	2381266	4	3	2	3	1	2	3	3	3	6	3	0	0	0	0	4	4
101012	17:47:33	10023	Trial	IncongruentRight	14	205	283	1	106	17:47:33	2381576	4	3	2	3	1	2	3	3	3	6	3	0	0	0	0	4	4
101012	17:47:33	10023	Trial	ResponseCR	14	0	162	0	106	17:47:33	2382959	4	3	2	3	1	2	3	3	3	6	3	0	0	0	0	4	4
101012	17:47:33	10023	Trial	CongruentRight	14	203	238	0	106	17:47:33	2383224	4	3	2	3	1	2	3	3	3	6	3	0	0	0	0	4	4
101012	17:47:33	10023	Trial	ResponseIL	14	0	162	0	106	17:47:33	2384652	4	3	2	3	1	2	3	3	3	6	3	0	0	0	0	4	4
101012	17:47:33	10023	Trial	IncongruentLeft	14	203	498	1	106	17:47:33	2385176	4	3	2	3	1	2	3	3	3	6	3	0	0	0	0	4	4
101012	17:47:33	10023	Trial	ResponseCL	14	0	162	0	106	17:47:33	2386344	4	3	2	3	1	2	3	3	3	6	3	0	0	0	0	4	4
101012	17:47:33	10023	Trial	CongruentLeft	14	203	581	1	106	17:47:33	2386952	4	3	2	3	1	2	3	3	3	6	3	0	0	0	0	4	4
101012	17:47:33	10023	Trial	ResponseCR	14	0	162	0	106	17:47:33	2388037	4	3	2	3	1	2	3	3	3	6	3	0	0	0	0	4	4
101012	17:47:33	10023	Trial	CongruentRight	14	205	232	1	106	17:47:33	2388296	4	3	2	3	1	2	3	3	3	6	3	0	0	0	0	4	4
101012	17:47:33	10023	Trial	ResponseIL	14	0	162	0	106	17:47:33	2389730	4	3	2	3	1	2	3	3	3	6	3	0	0	0	0	4	4
101012	17:47:33	10023	Trial	IncongruentLeft	14	203	235	1	106	17:47:33	2389991	4	3	2	3	1	2	3	3	3	6	3	0	0	0	0	4	4
101012	17:47:33	10023	Trial	ResponseIR	14	0	162	0	106	17:47:33	2391435	4	3	2	3	1	2	3	3	3	6	3	0	0	0	0	4	4
101012	17:47:33	10023	Trial	IncongruentRight	14	205	177	1	106	17:47:33	2391639	4	3	2	3	1	2	3	3	3	6	3	0	0	0	0	4	4
101012	17:47:33	10023	Trial	ResponseIR	14	0	162	0	106	17:47:33	2393128	4	3	2	3	1	2	3	3	3	6	3	0	0	0	0	4	4
101012	17:47:33	10023	Trial	IncongruentRight	14	203	165	0	106	17:47:33	2393319	4	3	2	3	1	2	3	3	3	6	3	0	0	0	0	4	4
101012	17:47:33	10023	Trial	ResponseCL	14	0	162	0	106	17:47:33	2394821	4	3	2	3	1	2	3	3	3	6	3	0	0	0	0	4	4
101012	17:47:33	10023	Trial	CongruentLeft	14	203	344	1	106	17:47:33	2395191	4	3	2	3	1	2	3	3	3	6	3	0	0	0	0	4	4
101012	17:47:33	10023	Trial	ResponseIL	14	0	162	0	106	17:47:33	2396514	4	3	2	3	1	2	3	3	3	6	3	0	0	0	0	4	4
101012	17:47:33	10023	Trial	IncongruentLeft	14	205	203	0	106	17:47:33	2396743	4	3	2	3	1	2	3	3	3	6	3	0	0	0	0	4	4
101012	17:47:33	10023	Trial	ResponseCR	14	0	162	0	106	17:47:33	2398206	4	3	2	3	1	2	3	3	3	6	3	0	0	0	0	4	4
101012	17:47:33	10023	Trial	CongruentRight	14	205	415	1	106	17:47:33	2398647	4	3	2	3	1	2	3	3	3	6	3	0	0	0	0	4	4
101012	17:47:33	10023	Trial	ResponseCL	14	0	162	0	106	17:47:33	2399899	4	3	2	3	1	2	3	3	3	6	3	0	0	0	0	4	4
101012	17:47:33	10023	Trial	CongruentLeft	14	203	306	1	106	17:47:33	2400231	4	3	2	3	1	2	3	3	3	6	3	0	0	0	0	4	4
101012	17:47:33	10023	Trial	ResponseIR	14	0	162	0	106	17:47:33	2401591	4	3	2	3	1	2	3	3	3	6	3	0	0	0	0	4	4
101012	17:47:33	10023	Trial	IncongruentRight	14	205	453	1	106	17:47:33	2402071	4	3	2	3	1	2	3	3	3	6	3	0	0	0	0	4	4
101012	17:47:33	10023	Trial	ResponseCR	14	0	162	0	106	17:47:33	2403284	4	3	2	3	1	2	3	3	3	6	3	0	0	0	0	4	4
101012	17:47:33	10023	Trial	CongruentRight	14	205	505	1	106	17:47:33	2403815	4	3	2	3	1	2	3	3	3	6	3	0	0	0	0	4	4
101012	17:47:33	10023	Trial	ResponseIL	14	0	162	0	106	17:47:33	2404977	4	3	2	3	1	2	3	3	3	6	3	0	0	0	0	4	4
101012	17:47:33	10023	Trial	IncongruentLeft	14	203	268	1	106	17:47:33	2405271	4	3	2	3	1	2	3	3	3	6	3	0	0	0	0	4	4
101012	17:47:33	10023	Trial	ResponseCL	14	0	162	0	106	17:47:33	2406670	4	3	2	3	1	2	3	3	3	6	3	0	0	0	0	4	4
101012	17:47:33	10023	Trial	CongruentLeft	14	203	399	1	106	17:47:33	2407095	4	3	2	3	1	2	3	3	3	6	3	0	0	0	0	4	4
101012	17:47:33	10023	Trial	ResponseIL	14	0	162	0	106	17:47:33	2408375	4	3	2	3	1	2	3	3	3	6	3	0	0	0	0	4	4
101012	17:47:33	10023	Trial	IncongruentLeft	14	205	245	0	106	17:47:33	2408647	4	3	2	3	1	2	3	3	3	6	3	0	0	0	0	4	4
101012	17:47:33	10023	Trial	ResponseIR	14	0	162	0	106	17:47:33	2410081	4	3	2	3	1	2	3	3	3	6	3	0	0	0	0	4	4
101012	17:47:33	10023	Trial	IncongruentRight	14	205	267	1	106	17:47:33	2410375	4	3	2	3	1	2	3	3	3	6	3	0	0	0	0	4	4
101012	17:47:33	10023	Trial	ResponseCR	14	0	162	0	106	17:47:33	2411774	4	3	2	3	1	2	3	3	3	6	3	0	0	0	0	4	4
101012	17:47:33	10023	Trial	CongruentRight	14	205	414	1	106	17:47:33	2412215	4	3	2	3	1	2	3	3	3	6	3	0	0	0	0	4	4
101012	17:47:33	10023	Trial	ResponseCL	14	0	162	0	106	17:47:33	2413467	4	3	2	3	1	2	3	3	3	6	3	0	0	0	0	4	4
101012	17:47:33	10023	Trial	CongruentLeft	14	203	418	1	106	17:47:33	2413911	4	3	2	3	1	2	3	3	3	6	3	0	0	0	0	4	4
101012	17:47:33	10023	Trial	ResponseCL	14	0	162	0	106	17:47:33	2415159	4	3	2	3	1	2	3	3	3	6	3	0	0	0	0	4	4
101012	17:47:33	10023	Trial	CongruentLeft	14	203	469	1	106	17:47:33	2415655	4	3	2	3	1	2	3	3	3	6	3	0	0	0	0	4	4
101012	17:47:33	10023	Trial	ResponseIR	14	0	162	0	106	17:47:33	2416852	4	3	2	3	1	2	3	3	3	6	3	0	0	0	0	4	4
101012	17:47:33	10023	Trial	IncongruentRight	14	205	232	1	106	17:47:33	2417111	4	3	2	3	1	2	3	3	3	6	3	0	0	0	0	4	4
101012	17:47:33	10023	Trial	ResponseIL	14	0	162	0	106	17:47:33	2418545	4	3	2	3	1	2	3	3	3	6	3	0	0	0	0	4	4
101012	17:47:33	10023	Trial	IncongruentLeft	14	203	316	1	106	17:47:33	2418887	4	3	2	3	1	2	3	3	3	6	3	0	0	0	0	4	4
101012	17:47:33	10023	Trial	ResponseIR	14	0	162	0	106	17:47:33	2420251	4	3	2	3	1	2	3	3	3	6	3	0	0	0	0	4	4
101012	17:47:33	10023	Trial	IncongruentRight	14	205	258	1	106	17:47:33	2420535	4	3	2	3	1	2	3	3	3	6	3	0	0	0	0	4	4
101012	17:47:33	10023	Trial	ResponseCR	14	0	162	0	106	17:47:33	2421944	4	3	2	3	1	2	3	3	3	6	3	0	0	0	0	4	4
101012	17:47:33	10023	Trial	CongruentRight	14	203	278	0	106	17:47:33	2422248	4	3	2	3	1	2	3	3	3	6	3	0	0	0	0	4	4
101012	17:47:33	10023	Trial	ResponseCR	14	0	162	0	106	17:47:33	2423636	4	3	2	3	1	2	3	3	3	6	3	0	0	0	0	4	4
101012	17:47:33	10023	Trial	CongruentRight	14	205	185	1	106	17:47:33	2423847	4	3	2	3	1	2	3	3	3	6	3	0	0	0	0	4	4
101012	17:47:33	10023	Trial	ResponseIL	14	0	162	0	106	17:47:33	2425329	4	3	2	3	1	2	3	3	3	6	3	0	0	0	0	4	4
101012	17:47:33	10023	Trial	IncongruentLeft	14	203	188	1	106	17:47:33	2425543	4	3	2	3	1	2	3	3	3	6	3	0	0	0	0	4	4
101012	17:47:33	10023	Trial	ResponseCL	14	0	162	0	106	17:47:33	2427022	4	3	2	3	1	2	3	3	3	6	3	0	0	0	0	4	4
101012	17:47:33	10023	Trial	CongruentLeft	14	205	175	0	106	17:47:33	2427223	4	3	2	3	1	2	3	3	3	6	3	0	0	0	0	4	4
101012	17:47:33	10023	Trial	ResponseCR	14	0	162	0	106	17:47:33	2428728	4	3	2	3	1	2	3	3	3	6	3	0	0	0	0	4	4
101012	17:47:33	10023	Trial	CongruentRight	14	203	437	0	106	17:47:33	2429191	4	3	2	3	1	2	3	3	3	6	3	0	0	0	0	4	4
101012	17:47:33	10023	Trial	ResponseCL	14	0	162	0	106	17:47:33	2430420	4	3	2	3	1	2	3	3	3	6	3	0	0	0	0	4	4
101012	17:47:33	10023	Trial	CongruentLeft	14	203	232	1	106	17:47:33	2430679	4	3	2	3	1	2	3	3	3	6	3	0	0	0	0	4	4
101012	17:47:33	10023	Trial	ResponseIR	14	0	162	0	106	17:47:33	2432113	4	3	2	3	1	2	3	3	3	6	3	0	0	0	0	4	4
101012	17:47:33	10023	Trial	IncongruentRight	14	205	284	1	106	17:47:33	2432424	4	3	2	3	1	2	3	3	3	6	3	0	0	0	0	4	4
101012	17:47:33	10023	Trial	ResponseCR	14	0	162	0	106	17:47:33	2433806	4	3	2	3	1	2	3	3	3	6	3	0	0	0	0	4	4
101012	17:47:33	10023	Trial	CongruentRight	14	205	399	1	106	17:47:33	2434231	4	3	2	3	1	2	3	3	3	6	3	0	0	0	0	4	4
101012	17:47:33	10023	Trial	ResponseCL	14	0	162	0	106	17:47:33	2435498	4	3	2	3	1	2	3	3	3	6	3	0	0	0	0	4	4
101012	17:47:33	10023	Trial	CongruentLeft	14	203	177	1	106	17:47:33	2435703	4	3	2	3	1	2	3	3	3	6	3	0	0	0	0	4	4
101012	17:47:33	10023	Trial	ResponseIL	14	0	162	0	106	17:47:33	2437191	4	3	2	3	1	2	3	3	3	6	3	0	0	0	0	4	4
101012	17:47:33	10023	Trial	IncongruentLeft	14	203	421	1	106	17:47:33	2437639	4	3	2	3	1	2	3	3	3	6	3	0	0	0	0	4	4
101012	17:47:33	10023	Trial	ResponseIL	14	0	162	0	106	17:47:33	2438884	4	3	2	3	1	2	3	3	3	6	3	0	0	0	0	4	4
101012	17:47:33	10023	Trial	IncongruentLeft	14	205	233	0	106	17:47:33	2439143	4	3	2	3	1	2	3	3	3	6	3	0	0	0	0	4	4
101012	17:47:33	10023	Trial	ResponseCR	14	0	162	0	106	17:47:33	2440576	4	3	2	3	1	2	3	3	3	6	3	0	0	0	0	4	4
101012	17:47:33	10023	Trial	CongruentRight	14	205	444	1	106	17:47:33	2441047	4	3	2	3	1	2	3	3	3	6	3	0	0	0	0	4	4
101012	17:47:33	10023	Trial	ResponseIR	14	0	162	0	106	17:47:33	2442269	4	3	2	3	1	2	3	3	3	6	3	0	0	0	0	4	4
101012	17:47:33	10023	Trial	IncongruentRight	14	205	527	1	106	17:47:33	2442823	4	3	2	3	1	2	3	3	3	6	3	0	0	0	0	4	4
101012	17:47:33	10023	Trial	ResponseCL	14	0	162	0	106	17:47:33	2443975	4	3	2	3	1	2	3	3	3	6	3	0	0	0	0	4	4
101012	17:47:33	10023	Trial	CongruentLeft	14	203	421	1	106	17:47:33	2444423	4	3	2	3	1	2	3	3	3	6	3	0	0	0	0	4	4
101012	17:47:33	10023	Trial	ResponseIR	14	0	162	0	106	17:47:33	2445668	4	3	2	3	1	2	3	3	3	6	3	0	0	0	0	4	4
101012	17:47:33	10023	Trial	IncongruentRight	14	205	329	1	106	17:47:33	2446023	4	3	2	3	1	2	3	3	3	6	3	0	0	0	0	4	4
101012	17:47:33	10023	Trial	ResponseCR	14	0	162	0	106	17:47:33	2447360	4	3	2	3	1	2	3	3	3	6	3	0	0	0	0	4	4
101012	17:47:33	10023	Trial	CongruentRight	14	205	460	1	106	17:47:33	2447847	4	3	2	3	1	2	3	3	3	6	3	0	0	0	0	4	4
101012	17:47:33	10023	Trial	ResponseIL	14	0	162	0	106	17:47:33	2449053	4	3	2	3	1	2	3	3	3	6	3	0	0	0	0	4	4
101012	17:47:33	10023	Trial	IncongruentLeft	14	203	255	1	106	17:47:33	2449335	4	3	2	3	1	2	3	3	3	6	3	0	0	0	0	4	4
101012	17:47:33	10023	Trial	ResponseCL	14	0	162	0	106	17:47:33	2450746	4	3	2	3	1	2	3	3	3	6	3	0	0	0	0	4	4
101012	17:47:33	10023	Trial	CongruentLeft	14	203	387	1	106	17:47:33	2451159	4	3	2	3	1	2	3	3	3	6	3	0	0	0	0	4	4
101012	17:47:33	10023	Trial	ResponseCR	14	0	162	0	106	17:47:33	2452438	4	3	2	3	1	2	3	3	3	6	3	0	0	0	0	4	4
101012	17:47:33	10023	Trial	CongruentRight	14	205	390	1	106	17:47:33	2452855	4	3	2	3	1	2	3	3	3	6	3	0	0	0	0	4	4
101012	17:47:33	10023	Trial	ResponseIL	14	0	162	0	106	17:47:33	2454131	4	3	2	3	1	2	3	3	3	6	3	0	0	0	0	4	4
101012	17:47:33	10023	Trial	IncongruentLeft	14	203	314	1	106	17:47:33	2454471	4	3	2	3	1	2	3	3	3	6	3	0	0	0	0	4	4
101012	17:47:33	10023	Trial	ResponseCR	14	0	162	0	106	17:47:33	2455824	4	3	2	3	1	2	3	3	3	6	3	0	0	0	0	4	4
101012	17:47:33	10023	Trial	CongruentRight	14	205	269	1	106	17:47:33	2456119	4	3	2	3	1	2	3	3	3	6	3	0	0	0	0	4	4
101012	17:47:33	10023	Trial	ResponseCR	14	0	162	0	106	17:47:33	2457516	4	3	2	3	1	2	3	3	3	6	3	0	0	0	0	4	4
101012	17:47:33	10023	Trial	CongruentRight	14	203	176	0	106	17:47:33	2457719	4	3	2	3	1	2	3	3	3	6	3	0	0	0	0	4	4
101012	17:47:33	10023	Trial	ResponseIR	14	0	162	0	106	17:47:33	2459209	4	3	2	3	1	2	3	3	3	6	3	0	0	0	0	4	4
101012	17:47:33	10023	Trial	IncongruentRight	14	203	211	0	106	17:47:33	2459447	4	3	2	3	1	2	3	3	3	6	3	0	0	0	0	4	4
101012	17:47:33	10023	Trial	ResponseCL	14	0	162	0	106	17:47:33	2460915	4	3	2	3	1	2	3	3	3	6	3	0	0	0	0	4	4
101012	17:47:33	10023	Trial	CongruentLeft	14	205	217	0	106	17:47:33	2461159	4	3	2	3	1	2	3	3	3	6	3	0	0	0	0	4	4
101012	17:47:33	10023	Trial	ResponseIL	14	0	162	0	106	17:47:33	2462608	4	3	2	3	1	2	3	3	3	6	3	0	0	0	0	4	4
101012	17:47:33	10023	Trial	IncongruentLeft	14	203	476	1	106	17:47:33	2463111	4	3	2	3	1	2	3	3	3	6	3	0	0	0	0	4	4
101012	17:47:33	10023	Trial	ResponseCL	14	0	162	0	106	17:47:33	2464300	4	3	2	3	1	2	3	3	3	6	3	0	0	0	0	4	4
101012	17:47:33	10023	Trial	CongruentLeft	14	203	432	1	106	17:47:33	2464759	4	3	2	3	1	2	3	3	3	6	3	0	0	0	0	4	4
101012	17:47:33	10023	Trial	ResponseIR	14	0	162	0	106	17:47:33	2465993	4	3	2	3	1	2	3	3	3	6	3	0	0	0	0	4	4
101012	17:47:33	10023	Trial	IncongruentRight	14	205	371	1	106	17:47:33	2466391	4	3	2	3	1	2	3	3	3	6	3	0	0	0	0	4	4
101012	17:47:33	10023	Trial	ResponseIL	14	0	162	0	106	17:47:33	2467686	4	3	2	3	1	2	3	3	3	6	3	0	0	0	0	4	4
101012	17:47:33	10023	Trial	IncongruentLeft	14	203	374	1	106	17:47:33	2468087	4	3	2	3	1	2	3	3	3	6	3	0	0	0	0	4	4
101012	17:47:33	10023	Trial	ResponseCR	14	0	162	0	106	17:47:33	2469378	4	3	2	3	1	2	3	3	3	6	3	0	0	0	0	4	4
101012	17:47:33	10023	Trial	CongruentRight	14	205	298	1	106	17:47:33	2469703	4	3	2	3	1	2	3	3	3	6	3	0	0	0	0	4	4
101012	17:47:33	10023	Trial	ResponseCL	14	0	162	0	106	17:47:33	2471071	4	3	2	3	1	2	3	3	3	6	3	0	0	0	0	4	4
101012	17:47:33	10023	Trial	CongruentLeft	14	203	205	1	106	17:47:33	2471303	4	3	2	3	1	2	3	3	3	6	3	0	0	0	0	4	4
101012	17:47:33	10023	Trial	ResponseIL	14	0	162	0	106	17:47:33	2472764	4	3	2	3	1	2	3	3	3	6	3	0	0	0	0	4	4
101012	17:47:33	10023	Trial	IncongruentLeft	14	203	544	1	106	17:47:33	2473335	4	3	2	3	1	2	3	3	3	6	3	0	0	0	0	4	4
101012	17:47:33	10023	Trial	ResponseCL	14	0	162	0	106	17:47:33	2474456	4	3	2	3	1	2	3	3	3	6	3	0	0	0	0	4	4
101012	17:47:33	10023	Trial	CongruentLeft	14	203	452	1	106	17:47:33	2474935	4	3	2	3	1	2	3	3	3	6	3	0	0	0	0	4	4
101012	17:47:33	10023	Trial	ResponseIR	14	0	162	0	106	17:47:33	2476149	4	3	2	3	1	2	3	3	3	6	3	0	0	0	0	4	4
101012	17:47:33	10023	Trial	IncongruentRight	14	205	327	1	106	17:47:33	2476503	4	3	2	3	1	2	3	3	3	6	3	0	0	0	0	4	4
101012	17:47:33	10023	Trial	ResponseCR	14	0	162	0	106	17:47:33	2477842	4	3	2	3	1	2	3	3	3	6	3	0	0	0	0	4	4
101012	17:47:33	10023	Trial	CongruentRight	14	205	410	1	106	17:47:33	2478279	4	3	2	3	1	2	3	3	3	6	3	0	0	0	0	4	4
101012	17:47:33	10023	Trial	ResponseIL	14	0	162	0	106	17:47:33	2479534	4	3	2	3	1	2	3	3	3	6	3	0	0	0	0	4	4
101012	17:47:33	10023	Trial	IncongruentLeft	14	203	286	1	106	17:47:33	2479847	4	3	2	3	1	2	3	3	3	6	3	0	0	0	0	4	4
101012	17:47:33	10023	Trial	ResponseCL	14	0	162	0	106	17:47:33	2481227	4	3	2	3	1	2	3	3	3	6	3	0	0	0	0	4	4
101012	17:47:33	10023	Trial	CongruentLeft	14	203	482	1	106	17:47:33	2481735	4	3	2	3	1	2	3	3	3	6	3	0	0	0	0	4	4
101012	17:47:33	10023	Trial	ResponseIR	14	0	162	0	106	17:47:33	2482920	4	3	2	3	1	2	3	3	3	6	3	0	0	0	0	4	4
101012	17:47:33	10023	Trial	IncongruentRight	14	205	324	1	106	17:47:33	2483270	4	3	2	3	1	2	3	3	3	6	3	0	0	0	0	4	4
101012	17:47:33	10023	Trial	ResponseIL	14	0	162	0	106	17:47:33	2484612	4	3	2	3	1	2	3	3	3	6	3	0	0	0	0	4	4
101012	17:47:33	10023	Trial	IncongruentLeft	14	203	360	1	106	17:47:33	2484999	4	3	2	3	1	2	3	3	3	6	3	0	0	0	0	4	4
101012	17:47:33	10023	Trial	ResponseCL	14	0	162	0	106	17:47:33	2486305	4	3	2	3	1	2	3	3	3	6	3	0	0	0	0	4	4
101012	17:47:33	10023	Trial	CongruentLeft	14	203	459	1	106	17:47:33	2486790	4	3	2	3	1	2	3	3	3	6	3	0	0	0	0	4	4
101012	17:47:33	10023	Trial	ResponseIL	14	0	162	0	106	17:47:33	2488011	4	3	2	3	1	2	3	3	3	6	3	0	0	0	0	4	4
101012	17:47:33	10023	Trial	IncongruentLeft	14	205	321	0	106	17:47:33	2488359	4	3	2	3	1	2	3	3	3	6	3	0	0	0	0	4	4
101012	17:47:33	10023	Trial	ResponseCR	14	0	162	0	106	17:47:33	2489704	4	3	2	3	1	2	3	3	3	6	3	0	0	0	0	4	4
101012	17:47:33	10023	Trial	CongruentRight	14	205	404	1	106	17:47:33	2490135	4	3	2	3	1	2	3	3	3	6	3	0	0	0	0	4	4
101012	17:47:33	10023	Trial	ResponseCL	14	0	162	0	106	17:47:33	2491397	4	3	2	3	1	2	3	3	3	6	3	0	0	0	0	4	4
101012	17:47:33	10023	Trial	CongruentLeft	14	0	987	0	106	17:47:33	2492398	4	3	2	3	1	2	3	3	3	6	3	0	0	0	0	4	4
101012	17:47:33	10023	Trial	ResponseIR	14	0	162	0	106	17:47:33	2493089	4	3	2	3	1	2	3	3	3	6	3	0	0	0	0	4	4
101012	17:47:33	10023	Trial	IncongruentRight	14	205	555	1	106	17:47:33	2493671	4	3	2	3	1	2	3	3	3	6	3	0	0	0	0	4	4
101012	17:47:33	10023	Trial	ResponseCL	14	0	162	0	106	17:47:33	2494782	4	3	2	3	1	2	3	3	3	6	3	0	0	0	0	4	4
101012	17:47:33	10023	Trial	CongruentLeft	14	203	398	1	106	17:47:33	2495206	4	3	2	3	1	2	3	3	3	6	3	0	0	0	0	4	4
101012	17:47:33	10023	Trial	ResponseCR	14	0	162	0	106	17:47:33	2496475	4	3	2	3	1	2	3	3	3	6	3	0	0	0	0	4	4
101012	17:47:33	10023	Trial	CongruentRight	14	205	209	1	106	17:47:33	2496710	4	3	2	3	1	2	3	3	3	6	3	0	0	0	0	4	4
101012	17:47:33	10023	Trial	ResponseIL	14	0	162	0	106	17:47:33	2498167	4	3	2	3	1	2	3	3	3	6	3	0	0	0	0	4	4
101012	17:47:33	10023	Trial	IncongruentLeft	14	203	229	1	106	17:47:33	2498422	4	3	2	3	1	2	3	3	3	6	3	0	0	0	0	4	4
101012	17:47:33	10023	WordsAbsEngThreemo	PAbsEngThreemo1	16	Abs1	5902	0	106	17:47:33	2512628	4	3	2	3	1	2	3	3	3	6	3	0	0	0	0	4	4
101012	17:47:33	10023	WordsAbsEngThreemo	AbsEngThreemo1	16	Abs1	4015	0	106	17:47:33	2516680	4	3	2	3	1	2	3	3	3	6	3	1	0	0	0	4	4
101012	17:47:33	10023	WordsAbsEngThreemo	AbsEngThreemo2	16	Abs2	7435	0	106	17:47:33	2524157	4	3	2	3	1	2	3	3	3	6	3	1	0	0	0	4	4
101012	17:47:33	10023	WordsAbsEngThreemo	AbsEngThreemo3	16	Abs1	15181	0	106	17:47:33	2539377	4	3	2	3	1	2	3	3	3	6	3	2	0	0	0	4	4
101012	17:47:33	10023	Trial2BackEngS	NS	17	0	1000	1	106	17:47:33	2574963	4	3	2	3	1	2	3	3	3	6	3	2	0	0	0	4	4
101012	17:47:33	10023	Trial2BackEngS	NS	17	0	1000	1	106	17:47:33	2576483	4	3	2	3	1	2	3	3	3	6	3	2	0	0	0	4	4
101012	17:47:33	10023	Trial2BackEngS	NS	17	0	1000	1	106	17:47:33	2578002	4	3	2	3	1	2	3	3	3	6	3	2	0	0	0	4	4
101012	17:47:33	10023	Trial2BackEngS	YS	17	57	395	1	106	17:47:33	2578922	4	3	2	3	1	2	3	3	3	6	3	2	0	0	0	4	4
101012	17:47:33	10023	Trial2BackEngS	NS	17	0	1000	1	106	17:47:33	2581028	4	3	2	3	1	2	3	3	3	6	3	2	0	0	0	4	4
101012	17:47:33	10023	Trial2BackEngS	NS	17	0	1000	1	106	17:47:33	2582547	4	3	2	3	1	2	3	3	3	6	3	2	0	0	0	4	4
101012	17:47:33	10023	Trial2BackEngS	NS	17	0	1000	1	106	17:47:33	2584066	4	3	2	3	1	2	3	3	3	6	3	2	0	0	0	4	4
101012	17:47:33	10023	Trial2BackEngS	NS	17	57	715	0	106	17:47:33	2585306	4	3	2	3	1	2	3	3	3	6	3	2	0	0	0	4	4
101012	17:47:33	10023	Trial2BackEngS	YS	17	0	1000	0	106	17:47:33	2587092	4	3	2	3	1	2	3	3	3	6	3	2	0	0	0	4	4
101012	17:47:33	10023	Trial2BackEngS	NS	17	0	1000	1	106	17:47:33	2588611	4	3	2	3	1	2	3	3	3	6	3	2	0	0	0	4	4
101012	17:47:33	10023	Trial2BackEngS	NS	17	0	1000	1	106	17:47:33	2590131	4	3	2	3	1	2	3	3	3	6	3	2	0	0	0	4	4
101012	17:47:33	10023	Trial2BackEngS	YS	17	0	1000	0	106	17:47:33	2591650	4	3	2	3	1	2	3	3	3	6	3	2	0	0	0	4	4
101012	17:47:33	10023	Trial2BackEngS	NS	17	0	1000	1	106	17:47:33	2593170	4	3	2	3	1	2	3	3	3	6	3	2	0	0	0	4	4
101012	17:47:33	10023	Trial2BackEngS	NS	17	0	1000	1	106	17:47:33	2594703	4	3	2	3	1	2	3	3	3	6	3	2	0	0	0	4	4
101012	17:47:33	10023	Trial2BackEngS	NS	17	0	1000	1	106	17:47:33	2596235	4	3	2	3	1	2	3	3	3	6	3	2	0	0	0	4	4
101012	17:47:33	10023	Trial2BackEngS	YS	17	57	546	1	106	17:47:33	2597315	4	3	2	3	1	2	3	3	3	6	3	2	0	0	0	4	4
101012	17:47:33	10023	Trial2BackEngS	NS	17	0	1000	1	106	17:47:33	2599261	4	3	2	3	1	2	3	3	3	6	3	2	0	0	0	4	4
101012	17:47:33	10023	Trial2BackEngS	NS	17	0	1000	1	106	17:47:33	2600780	4	3	2	3	1	2	3	3	3	6	3	2	0	0	0	4	4
101012	17:47:33	10023	Trial2BackEngS	NS	17	0	1000	1	106	17:47:33	2602299	4	3	2	3	1	2	3	3	3	6	3	2	0	0	0	4	4
101012	17:47:33	10023	Trial2BackEngS	NS	17	0	1000	1	106	17:47:33	2603819	4	3	2	3	1	2	3	3	3	6	3	2	0	0	0	4	4
101012	17:47:33	10023	Trial2BackEngS	YS	17	57	723	1	106	17:47:33	2605071	4	3	2	3	1	2	3	3	3	6	3	2	0	0	0	4	4
101012	17:47:33	10023	Trial2BackEngS	NS	17	0	1000	1	106	17:47:33	2606844	4	3	2	3	1	2	3	3	3	6	3	2	0	0	0	4	4
101012	17:47:33	10023	Trial2BackEngS	NS	17	0	1000	1	106	17:47:33	2608364	4	3	2	3	1	2	3	3	3	6	3	2	0	0	0	4	4
101012	17:47:33	10023	Trial2BackEngS	NS	17	0	1000	1	106	17:47:33	2609883	4	3	2	3	1	2	3	3	3	6	3	2	0	0	0	4	4
101012	17:47:33	10023	Trial2BackEngS	NS	17	57	482	0	106	17:47:33	2610896	4	3	2	3	1	2	3	3	3	6	3	2	0	0	0	4	4
101012	17:47:33	10023	Trial2BackEngS	NS	17	0	1000	1	106	17:47:33	2612908	4	3	2	3	1	2	3	3	3	6	3	2	0	0	0	4	4
101012	17:47:33	10023	Trial2BackEngS	NS	17	0	1000	1	106	17:47:33	2614428	4	3	2	3	1	2	3	3	3	6	3	2	0	0	0	4	4
101012	17:47:33	10023	Trial2BackEngS	NS	17	0	1000	1	106	17:47:33	2615948	4	3	2	3	1	2	3	3	3	6	3	2	0	0	0	4	4
101012	17:47:33	10023	Trial2BackEngS	NS	17	57	514	0	106	17:47:33	2616987	4	3	2	3	1	2	3	3	3	6	3	2	0	0	0	4	4
101012	17:47:33	10023	Trial2BackEngS	NS	17	0	1000	1	106	17:47:33	2618973	4	3	2	3	1	2	3	3	3	6	3	2	0	0	0	4	4
101012	17:47:33	10023	Trial2BackEngS	NS	17	0	1000	1	106	17:47:33	2620492	4	3	2	3	1	2	3	3	3	6	3	2	0	0	0	4	4
101012	17:47:33	10023	Trial2BackEngS	YS	17	57	817	1	106	17:47:33	2621838	4	3	2	3	1	2	3	3	3	6	3	2	0	0	0	4	4
101012	17:47:33	10023	Trial2BackEngS	NS	17	0	1000	1	106	17:47:33	2623518	4	3	2	3	1	2	3	3	3	6	3	2	0	0	0	4	4
101012	17:47:33	10023	Trial2BackEngS	NS	17	0	1000	1	106	17:47:33	2625037	4	3	2	3	1	2	3	3	3	6	3	2	0	0	0	4	4
101012	17:47:33	10023	Trial2BackEngS	NS	17	57	656	0	106	17:47:33	2626223	4	3	2	3	1	2	3	3	3	6	3	2	0	0	0	4	4
101012	17:47:33	10023	Trial2BackEngS	YS	17	57	910	1	106	17:47:33	2627982	4	3	2	3	1	2	3	3	3	6	3	2	0	0	0	4	4
101012	17:47:33	10023	Trial2BackEngS	NS	17	0	1000	1	106	17:47:33	2629555	4	3	2	3	1	2	3	3	3	6	3	2	0	0	0	4	4
101012	17:47:33	10023	Trial2BackEngS	NS	17	0	1000	1	106	17:47:33	2631075	4	3	2	3	1	2	3	3	3	6	3	2	0	0	0	4	4
101012	17:47:33	10023	Trial2BackEngS	NS	17	57	394	0	106	17:47:33	2631994	4	3	2	3	1	2	3	3	3	6	3	2	0	0	0	4	4
101012	17:47:33	10023	Trial2BackEngS	NS	17	0	1000	1	106	17:47:33	2634100	4	3	2	3	1	2	3	3	3	6	3	2	0	0	0	4	4
101012	17:47:33	10023	Trial2BackEngS	NS	17	0	1000	1	106	17:47:33	2635619	4	3	2	3	1	2	3	3	3	6	3	2	0	0	0	4	4
101012	17:47:33	10023	Trial2BackEngS	NS	17	0	1000	1	106	17:47:33	2637139	4	3	2	3	1	2	3	3	3	6	3	2	0	0	0	4	4
101012	17:47:33	10023	Trial2BackEngS	NS	17	0	1000	1	106	17:47:33	2638658	4	3	2	3	1	2	3	3	3	6	3	2	0	0	0	4	4
101012	17:47:33	10023	Trial2BackEngS	YS	17	57	619	1	106	17:47:33	2639804	4	3	2	3	1	2	3	3	3	6	3	2	0	0	0	4	4
101012	17:47:33	10023	Trial2BackEngS	NS	17	0	1000	1	106	17:47:33	2641684	4	3	2	3	1	2	3	3	3	6	3	2	0	0	0	4	4
101012	17:47:33	10023	Trial2BackEngS	NS	17	0	1000	1	106	17:47:33	2643203	4	3	2	3	1	2	3	3	3	6	3	2	0	0	0	4	4
101012	17:47:33	10023	Trial2BackEngS	NS	17	57	890	0	106	17:47:33	2644616	4	3	2	3	1	2	3	3	3	6	3	2	0	0	0	4	4
101012	17:47:33	10023	Trial2BackEngS	NS	17	0	1000	1	106	17:47:33	2646229	4	3	2	3	1	2	3	3	3	6	3	2	0	0	0	4	4
101012	17:47:33	10023	Trial2BackEngS	YS	17	57	952	1	106	17:47:33	2647708	4	3	2	3	1	2	3	3	3	6	3	2	0	0	0	4	4
101012	17:47:33	10023	Trial2BackEngS	NS	17	0	1000	1	106	17:47:33	2649254	4	3	2	3	1	2	3	3	3	6	3	2	0	0	0	4	4
101012	17:47:33	10023	Trial2BackEngS	NS	17	0	1000	1	106	17:47:33	2650773	4	3	2	3	1	2	3	3	3	6	3	2	0	0	0	4	4
101012	17:47:33	10023	Trial2BackEngS	NS	17	0	1000	1	106	17:47:33	2652293	4	3	2	3	1	2	3	3	3	6	3	2	0	0	0	4	4
101012	17:47:33	10023	Trial2BackEngS	NS	17	57	616	0	106	17:47:33	2653439	4	3	2	3	1	2	3	3	3	6	3	2	0	0	0	4	4
101012	17:47:33	10023	Trial2BackEngS	NS	17	0	1000	1	106	17:47:33	2655318	4	3	2	3	1	2	3	3	3	6	3	2	0	0	0	4	4
101012	17:47:33	10023	Trial2BackEngS	NS	17	0	1000	1	106	17:47:33	2656838	4	3	2	3	1	2	3	3	3	6	3	2	0	0	0	4	4
101012	17:47:33	10023	Trial2BackEngS	YS	17	57	615	1	106	17:47:33	2657984	4	3	2	3	1	2	3	3	3	6	3	2	0	0	0	4	4
101012	17:47:33	10023	Trial2BackEngS	NS	17	0	1000	1	106	17:47:33	2659863	4	3	2	3	1	2	3	3	3	6	3	2	0	0	0	4	4
101012	17:47:33	10023	Trial2BackEngS	NS	17	0	1000	1	106	17:47:33	2661383	4	3	2	3	1	2	3	3	3	6	3	2	0	0	0	4	4
101012	17:47:33	10023	Trial2BackEngS	NS	17	0	1000	1	106	17:47:33	2662902	4	3	2	3	1	2	3	3	3	6	3	2	0	0	0	4	4
101012	17:47:33	10023	Trial2BackEngS	NS	17	0	1000	1	106	17:47:33	2664421	4	3	2	3	1	2	3	3	3	6	3	2	0	0	0	4	4
101012	17:47:33	10023	Trial2BackEngS	NS	17	0	1000	1	106	17:47:33	2665941	4	3	2	3	1	2	3	3	3	6	3	2	0	0	0	4	4
101012	17:47:33	10023	Trial2BackEngS	NS	17	0	1000	1	106	17:47:33	2667460	4	3	2	3	1	2	3	3	3	6	3	2	0	0	0	4	4
101012	17:47:33	10023	Trial2BackEngS	NS	17	0	1000	1	106	17:47:33	2668979	4	3	2	3	1	2	3	3	3	6	3	2	0	0	0	4	4
101012	17:47:33	10023	Trial2BackEngS	YS	17	0	1000	0	106	17:47:33	2670499	4	3	2	3	1	2	3	3	3	6	3	2	0	0	0	4	4
101012	17:47:33	10023	Trial2BackEngS	NS	17	57	505	0	106	17:47:33	2671539	4	3	2	3	1	2	3	3	3	6	3	2	0	0	0	4	4
101012	17:47:33	10023	Trial2BackEngS	NS	17	0	1000	1	106	17:47:33	2673524	4	3	2	3	1	2	3	3	3	6	3	2	0	0	0	4	4
101012	17:47:33	10023	Trial2BackEngS	NS	17	57	952	0	106	17:47:33	2675004	4	3	2	3	1	2	3	3	3	6	3	2	0	0	0	4	4
101012	17:47:33	10023	Trial2BackEngS	NS	17	0	1000	1	106	17:47:33	2676550	4	3	2	3	1	2	3	3	3	6	3	2	0	0	0	4	4
101012	17:47:33	10023	Trial2BackEngS	YS	17	0	1000	0	106	17:47:33	2678069	4	3	2	3	1	2	3	3	3	6	3	2	0	0	0	4	4
101012	17:47:33	10023	Trial2BackEngS	NS	17	0	1000	1	106	17:47:33	2679589	4	3	2	3	1	2	3	3	3	6	3	2	0	0	0	4	4
101012	17:47:33	10023	Trial2BackEngS	NS	17	57	503	0	106	17:47:33	2680615	4	3	2	3	1	2	3	3	3	6	3	2	0	0	0	4	4
101012	17:47:33	10023	Trial2BackEngS	YS	17	0	1000	0	106	17:47:33	2682614	4	3	2	3	1	2	3	3	3	6	3	2	0	0	0	4	4
101012	17:47:33	10023	Trial2BackEngS	NS	17	0	1000	1	106	17:47:33	2684133	4	3	2	3	1	2	3	3	3	6	3	2	0	0	0	4	4
101012	17:47:33	10023	Trial2BackEngS	NS	17	57	519	0	106	17:47:33	2685187	4	3	2	3	1	2	3	3	3	6	3	2	0	0	0	4	4
101012	17:47:33	10023	Trial2BackEngS	NS	17	0	1000	1	106	17:47:33	2687159	4	3	2	3	1	2	3	3	3	6	3	2	0	0	0	4	4
101012	17:47:33	10023	Trial2BackEngS	NS	17	0	1000	1	106	17:47:33	2688679	4	3	2	3	1	2	3	3	3	6	3	2	0	0	0	4	4
101012	17:47:33	10023	Trial2BackEngS	NS	17	0	1000	1	106	17:47:33	2690198	4	3	2	3	1	2	3	3	3	6	3	2	0	0	0	4	4
101012	17:47:33	10023	Trial2BackEngS	NS	17	0	1000	1	106	17:47:33	2691717	4	3	2	3	1	2	3	3	3	6	3	2	0	0	0	4	4
101012	17:47:33	10023	Trial2BackEngS	YS	17	0	1000	0	106	17:47:33	2693237	4	3	2	3	1	2	3	3	3	6	3	2	0	0	0	4	4
101012	17:47:33	10023	Trial2BackEngS	NS	17	0	1000	1	106	17:47:33	2694756	4	3	2	3	1	2	3	3	3	6	3	2	0	0	0	4	4
101012	17:47:33	10023	Trial2BackEngS	NS	17	57	488	0	106	17:47:33	2695769	4	3	2	3	1	2	3	3	3	6	3	2	0	0	0	4	4
101012	17:47:33	10023	Trial2BackEngS	NS	17	0	1000	1	106	17:47:33	2697782	4	3	2	3	1	2	3	3	3	6	3	2	0	0	0	4	4
101012	17:47:33	10023	Trial2BackEngS	NS	17	0	1000	1	106	17:47:33	2699301	4	3	2	3	1	2	3	3	3	6	3	2	0	0	0	4	4
101012	17:47:33	10023	Trial2BackEngS	YS	17	0	1000	0	106	17:47:33	2700820	4	3	2	3	1	2	3	3	3	6	3	2	0	0	0	4	4
101012	17:47:33	10023	Trial2BackEngS	NS	17	0	1000	1	106	17:47:33	2702340	4	3	2	3	1	2	3	3	3	6	3	2	0	0	0	4	4
101012	17:47:33	10023	Trial2BackEngS	NS	17	0	1000	1	106	17:47:33	2703859	4	3	2	3	1	2	3	3	3	6	3	2	0	0	0	4	4
101012	17:47:33	10023	Trial2BackEngS	NS	17	0	1000	1	106	17:47:33	2705379	4	3	2	3	1	2	3	3	3	6	3	2	0	0	0	4	4
101012	17:47:33	10023	Trial2BackEngS	NS	17	0	1000	1	106	17:47:33	2706898	4	3	2	3	1	2	3	3	3	6	3	2	0	0	0	4	4
101012	17:47:33	10023	Trial2BackEngS	YS	17	0	1000	0	106	17:47:33	2708417	4	3	2	3	1	2	3	3	3	6	3	2	0	0	0	4	4
101012	17:47:33	10023	Trial2BackEngS	NS	17	57	571	0	106	17:47:33	2709510	4	3	2	3	1	2	3	3	3	6	3	2	0	0	0	4	4
101012	17:47:33	10023	Trial2BackEngS	NS	17	0	1000	1	106	17:47:33	2711443	4	3	2	3	1	2	3	3	3	6	3	2	0	0	0	4	4
101012	17:47:33	10023	Trial2BackEngS	YS	17	0	1000	0	106	17:47:33	2712963	4	3	2	3	1	2	3	3	3	6	3	2	0	0	0	4	4
101012	17:47:33	10023	Trial2BackEngS	NS	17	0	1000	1	106	17:47:33	2714482	4	3	2	3	1	2	3	3	3	6	3	2	0	0	0	4	4
101012	17:47:33	10023	Trial2BackEngS	NS	17	57	621	0	106	17:47:33	2715642	4	3	2	3	1	2	3	3	3	6	3	2	0	0	0	4	4
101012	17:47:33	10023	Trial2BackEngS	NS	17	0	1000	1	106	17:47:33	2717507	4	3	2	3	1	2	3	3	3	6	3	2	0	0	0	4	4
101012	17:47:33	10023	Trial2BackEngS	NS	17	0	1000	1	106	17:47:33	2719027	4	3	2	3	1	2	3	3	3	6	3	2	0	0	0	4	4
101012	17:47:33	10023	Trial2BackEngS	NS	17	0	1000	1	106	17:47:33	2720546	4	3	2	3	1	2	3	3	3	6	3	2	0	0	0	4	4
101012	17:47:33	10023	Trial2BackEngS	NS	17	0	1000	1	106	17:47:33	2722065	4	3	2	3	1	2	3	3	3	6	3	2	0	0	0	4	4
101012	17:47:33	10023	Trial2BackEngS	NS	17	0	1000	1	106	17:47:33	2723585	4	3	2	3	1	2	3	3	3	6	3	2	0	0	0	4	4
101012	17:47:33	10023	Trial2BackEngS	NS	17	0	1000	1	106	17:47:33	2725104	4	3	2	3	1	2	3	3	3	6	3	2	0	0	0	4	4
101012	17:47:33	10023	Trial2BackEngS	YS	17	0	1000	0	106	17:47:33	2726624	4	3	2	3	1	2	3	3	3	6	3	2	0	0	0	4	4
101012	17:47:33	10023	Trial2BackEngS	NS	17	0	1000	1	106	17:47:33	2728143	4	3	2	3	1	2	3	3	3	6	3	2	0	0	0	4	4
101012	17:47:33	10023	Trial2BackEngS	NS	17	0	1000	1	106	17:47:33	2729662	4	3	2	3	1	2	3	3	3	6	3	2	0	0	0	4	4
101012	17:47:33	10023	Trial2BackEngS	NS	17	0	1000	1	106	17:47:33	2731182	4	3	2	3	1	2	3	3	3	6	3	2	0	0	0	4	4
101012	17:47:33	10023	Trial2BackEngS	NS	17	0	1000	1	106	17:47:33	2732701	4	3	2	3	1	2	3	3	3	6	3	2	0	0	0	4	4
101012	17:47:33	10023	Trial2BackEngS	NS	17	0	1000	1	106	17:47:33	2734221	4	3	2	3	1	2	3	3	3	6	3	2	0	0	0	4	4
101012	17:47:33	10023	Trial2BackEngS	NS	17	0	1000	1	106	17:47:33	2735740	4	3	2	3	1	2	3	3	3	6	3	2	0	0	0	4	4
101012	17:47:33	10023	Trial2BackEngS	NS	17	0	1000	1	106	17:47:33	2737260	4	3	2	3	1	2	3	3	3	6	3	2	0	0	0	4	4
101012	17:47:33	10023	Trial2BackEngS	YS	17	0	1000	0	106	17:47:33	2738779	4	3	2	3	1	2	3	3	3	6	3	2	0	0	0	4	4
101012	17:47:33	10023	Trial2BackEngS	NS	17	0	1000	1	106	17:47:33	2740298	4	3	2	3	1	2	3	3	3	6	3	2	0	0	0	4	4
101012	17:47:33	10023	Trial2BackEngS	NS	17	0	1000	1	106	17:47:33	2741818	4	3	2	3	1	2	3	3	3	6	3	2	0	0	0	4	4
101012	17:47:33	10023	Trial2BackEngS	NS	17	0	1000	1	106	17:47:33	2743337	4	3	2	3	1	2	3	3	3	6	3	2	0	0	0	4	4
101012	17:47:33	10023	Trial2BackEngS	NS	17	0	1000	1	106	17:47:33	2744857	4	3	2	3	1	2	3	3	3	6	3	2	0	0	0	4	4
101012	17:47:33	10023	Trial2BackEngS	NS	17	0	1000	1	106	17:47:33	2746376	4	3	2	3	1	2	3	3	3	6	3	2	0	0	0	4	4
101012	17:47:33	10023	Trial2BackEngS	NS	17	0	1000	1	106	17:47:33	2747895	4	3	2	3	1	2	3	3	3	6	3	2	0	0	0	4	4
101012	17:47:33	10023	Trial2BackEngS	NS	17	0	1000	1	106	17:47:33	2749415	4	3	2	3	1	2	3	3	3	6	3	2	0	0	0	4	4
101012	17:47:33	10023	Trial2BackEngS	NS	17	0	1000	1	106	17:47:33	2750934	4	3	2	3	1	2	3	3	3	6	3	2	0	0	0	4	4
101012	17:47:33	10023	Trial2BackEngS	NS	17	57	901	0	106	17:47:33	2752360	4	3	2	3	1	2	3	3	3	6	3	2	0	0	0	4	4
101012	17:47:33	10023	Trial2BackEngS	YS	17	0	1000	0	106	17:47:33	2753960	4	3	2	3	1	2	3	3	3	6	3	2	0	0	0	4	4
101012	17:47:33	10023	Trial2BackEngS	NS	17	0	1000	1	106	17:47:33	2755479	4	3	2	3	1	2	3	3	3	6	3	2	0	0	0	4	4
101012	17:47:33	10023	ClockEng3mo	ClockEng3mo	19	Clock1	43939	0	106	17:47:33	2799528	4	3	2	3	1	2	3	3	3	6	3	2	1	0	0	4	4
101012	17:47:33	10023	ClockEng3mo	ClockEng3mo	19	Clock11	486	0	106	17:47:33	2800048	4	3	2	3	1	2	3	3	3	6	3	2	1	1	0	4	4
101012	17:47:33	10023	ClockEng3mo	ClockEng3mo	19	Clock111	958	0	106	17:47:33	2801048	4	3	2	3	1	2	3	3	3	6	3	2	1	1	1	4	4
101012	17:47:33	10023	ClockEng3mo	ClockEng3mo	19	Clockdone	406	0	106	17:47:33	2801488	4	3	2	3	1	2	3	3	3	6	3	2	1	1	1	4	4
101012	17:47:33	10023	FASEngVF3mo	StopEngVF3mo	20	13	13354	0	106	17:47:33	2919857	4	3	2	3	1	2	3	3	3	6	3	2	1	1	1	4	4
