date	time	subject	blockcode	trialcode	values.TaskNumber	response	latency	correct	values.Score	script.starttime	script.elapsedtime	values.ScoreS7	values.Word1	values.Word2	values.Word3	values.Word4	values.Word5	values.Word6	values.Word7	values.Word8	values.DigitSpanFwrd	values.DigitSpanBack	values.ScoreAbs	values.Contour	values.Numbers	values.Hands	values.corsiblockspanFwrd	values.corsiblockspanRev	values.problemnumber	values.subjectattempts	values.targetmoves	values.subjectmoves	expressions.excessmoves	values.movestring	expressions.targetachieved	values.problemscore	values.totalscoreTOL	expressions.firstmovetime	expressions.executiontime	expressions.solutiontime	values.t_choicestart	values.t_choiceend
021213	08:02:20	1	Language	Language	0	French	118791	0	0	08:02:20	118965	0	0	0	0	0	0	0	0	0	0	0	0	0	0	0	0	0	0	0	0	0	0		1	0	0	0	0	0	0	0
021213	08:02:20	1	Session	Session	0	6mo	14029	0	0	08:02:20	133127	0	0	0	0	0	0	0	0	0	0	0	0	0	0	0	0	0	0	0	0	0	0		1	0	0	0	0	0	0	0
021213	08:02:20	1	HandFr	HandFr	0	RightFr	2234	0	0	08:02:20	135476	0	0	0	0	0	0	0	0	0	0	0	0	0	0	0	0	0	0	0	0	0	0		1	0	0	0	0	0	0	0
021213	08:02:20	1	AudioCheckFr	WordsFr	0	0	0	0	0	08:02:20	162192	0	0	0	0	0	0	0	0	0	0	0	0	0	0	0	0	0	0	0	0	0	0		1	0	0	0	0	0	0	0
021213	08:02:20	1	CubeFr	CubeFr	1	1Cube	1691	0	0	08:02:20	165115	0	0	0	0	0	0	0	0	0	0	0	0	0	0	0	0	0	0	0	0	0	0		1	0	0	0	0	0	0	0
021213	08:02:20	1	pm.simpleFrRight	blank.simpleFr	2	0	2100	1	0	08:02:20	169614	0	0	0	0	0	0	0	0	0	0	0	0	0	0	0	0	0	0	0	0	0	0		1	0	0	0	0	0	0	0
021213	08:02:20	1	pm.simpleFrRight	pm.simpleFr	2	57	612	0	0	08:02:20	170280	0	0	0	0	0	0	0	0	0	0	0	0	0	0	0	0	0	0	0	0	0	0		1	0	0	0	0	0	0	0
021213	08:02:20	1	pm.simpleFrRight	blank.simpleFr	2	0	1700	1	0	08:02:20	172029	0	0	0	0	0	0	0	0	0	0	0	0	0	0	0	0	0	0	0	0	0	0		1	0	0	0	0	0	0	0
021213	08:02:20	1	pm.simpleFrRight	pm.simpleFr	2	57	9	0	0	08:02:20	172096	0	0	0	0	0	0	0	0	0	0	0	0	0	0	0	0	0	0	0	0	0	0		1	0	0	0	0	0	0	0
021213	08:02:20	1	pm.simpleFrRight	blank.simpleFr	2	0	2300	1	0	08:02:20	174445	0	0	0	0	0	0	0	0	0	0	0	0	0	0	0	0	0	0	0	0	0	0		1	0	0	0	0	0	0	0
021213	08:02:20	1	pm.simpleFrRight	pm.simpleFr	2	57	132	0	0	08:02:20	174645	0	0	0	0	0	0	0	0	0	0	0	0	0	0	0	0	0	0	0	0	0	0		1	0	0	0	0	0	0	0
021213	08:02:20	1	pm.simpleFrRight	blank.simpleFr	2	0	1800	1	0	08:02:20	176495	0	0	0	0	0	0	0	0	0	0	0	0	0	0	0	0	0	0	0	0	0	0		1	0	0	0	0	0	0	0
021213	08:02:20	1	pm.simpleFrRight	pm.simpleFr	2	57	233	0	0	08:02:20	176794	0	0	0	0	0	0	0	0	0	0	0	0	0	0	0	0	0	0	0	0	0	0		1	0	0	0	0	0	0	0
021213	08:02:20	1	pm.simpleFrRight	blank.simpleFr	2	0	1500	1	0	08:02:20	178344	0	0	0	0	0	0	0	0	0	0	0	0	0	0	0	0	0	0	0	0	0	0		1	0	0	0	0	0	0	0
021213	08:02:20	1	pm.simpleFrRight	pm.simpleFr	2	57	191	0	0	08:02:20	178594	0	0	0	0	0	0	0	0	0	0	0	0	0	0	0	0	0	0	0	0	0	0		1	0	0	0	0	0	0	0
021213	08:02:20	1	pm.simpleFrRight	blank.simpleFr	2	0	2000	1	0	08:02:20	180643	0	0	0	0	0	0	0	0	0	0	0	0	0	0	0	0	0	0	0	0	0	0		1	0	0	0	0	0	0	0
021213	08:02:20	1	pm.simpleFrRight	pm.simpleFr	2	57	172	0	0	08:02:20	180876	0	0	0	0	0	0	0	0	0	0	0	0	0	0	0	0	0	0	0	0	0	0		1	0	0	0	0	0	0	0
021213	08:02:20	1	pm.simpleFrRight	blank.simpleFr	2	0	1600	1	0	08:02:20	182526	0	0	0	0	0	0	0	0	0	0	0	0	0	0	0	0	0	0	0	0	0	0		1	0	0	0	0	0	0	0
021213	08:02:20	1	pm.simpleFrRight	pm.simpleFr	2	57	257	0	0	08:02:20	182842	0	0	0	0	0	0	0	0	0	0	0	0	0	0	0	0	0	0	0	0	0	0		1	0	0	0	0	0	0	0
021213	08:02:20	1	pm.simpleFrRight	blank.simpleFr	2	57	2263	0	0	08:02:20	186158	0	0	0	0	0	0	0	0	0	0	0	0	0	0	0	0	0	0	0	0	0	0		1	0	0	0	0	0	0	0
021213	08:02:20	1	pm.simpleFrRight	blank.simpleFr	2	0	2200	1	0	08:02:20	188407	0	0	0	0	0	0	0	0	0	0	0	0	0	0	0	0	0	0	0	0	0	0		1	0	0	0	0	0	0	0
021213	08:02:20	1	pm.simpleFrRight	pm.simpleFr	2	57	217	0	0	08:02:20	188690	0	0	0	0	0	0	0	0	0	0	0	0	0	0	0	0	0	0	0	0	0	0		1	0	0	0	0	0	0	0
021213	08:02:20	1	pm.simpleFrRight	blank.simpleFr	2	0	1900	1	0	08:02:20	190639	0	0	0	0	0	0	0	0	0	0	0	0	0	0	0	0	0	0	0	0	0	0		1	0	0	0	0	0	0	0
021213	08:02:20	1	pm.simpleFrRight	pm.simpleFr	2	57	230	0	0	08:02:20	190922	0	0	0	0	0	0	0	0	0	0	0	0	0	0	0	0	0	0	0	0	0	0		1	0	0	0	0	0	0	0
021213	08:02:20	1	pm.simpleFrRight	blank.simpleFr	2	0	2400	1	0	08:02:20	193372	0	0	0	0	0	0	0	0	0	0	0	0	0	0	0	0	0	0	0	0	0	0		1	0	0	0	0	0	0	0
021213	08:02:20	1	pm.simpleFrRight	pm.simpleFr	2	57	174	0	0	08:02:20	193605	0	0	0	0	0	0	0	0	0	0	0	0	0	0	0	0	0	0	0	0	0	0		1	0	0	0	0	0	0	0
021213	08:02:20	1	pm.simpleFrRight	blank.simpleFr	2	0	1600	1	0	08:02:20	195254	0	0	0	0	0	0	0	0	0	0	0	0	0	0	0	0	0	0	0	0	0	0		1	0	0	0	0	0	0	0
021213	08:02:20	1	pm.simpleFrRight	pm.simpleFr	2	57	194	0	0	08:02:20	195504	0	0	0	0	0	0	0	0	0	0	0	0	0	0	0	0	0	0	0	0	0	0		1	0	0	0	0	0	0	0
021213	08:02:20	1	pm.simpleFrRight	blank.simpleFr	2	0	1800	1	0	08:02:20	197354	0	0	0	0	0	0	0	0	0	0	0	0	0	0	0	0	0	0	0	0	0	0		1	0	0	0	0	0	0	0
021213	08:02:20	1	pm.simpleFrRight	pm.simpleFr	2	57	193	0	0	08:02:20	197604	0	0	0	0	0	0	0	0	0	0	0	0	0	0	0	0	0	0	0	0	0	0		1	0	0	0	0	0	0	0
021213	08:02:20	1	pm.simpleFrRight	blank.simpleFr	2	0	2300	1	0	08:02:20	199953	0	0	0	0	0	0	0	0	0	0	0	0	0	0	0	0	0	0	0	0	0	0		1	0	0	0	0	0	0	0
021213	08:02:20	1	pm.simpleFrRight	pm.simpleFr	2	57	191	0	0	08:02:20	200202	0	0	0	0	0	0	0	0	0	0	0	0	0	0	0	0	0	0	0	0	0	0		1	0	0	0	0	0	0	0
021213	08:02:20	1	pm.simpleFrRight	blank.simpleFr	2	0	2400	1	0	08:02:20	202652	0	0	0	0	0	0	0	0	0	0	0	0	0	0	0	0	0	0	0	0	0	0		1	0	0	0	0	0	0	0
021213	08:02:20	1	pm.simpleFrRight	pm.simpleFr	2	57	197	0	0	08:02:20	202901	0	0	0	0	0	0	0	0	0	0	0	0	0	0	0	0	0	0	0	0	0	0		1	0	0	0	0	0	0	0
021213	08:02:20	1	pm.simpleFrRight	blank.simpleFr	2	0	1500	1	0	08:02:20	204451	0	0	0	0	0	0	0	0	0	0	0	0	0	0	0	0	0	0	0	0	0	0		1	0	0	0	0	0	0	0
021213	08:02:20	1	pm.simpleFrRight	pm.simpleFr	2	57	365	0	0	08:02:20	204884	0	0	0	0	0	0	0	0	0	0	0	0	0	0	0	0	0	0	0	0	0	0		1	0	0	0	0	0	0	0
021213	08:02:20	1	pm.simpleFrRight	blank.simpleFr	2	0	2100	1	0	08:02:20	207033	0	0	0	0	0	0	0	0	0	0	0	0	0	0	0	0	0	0	0	0	0	0		1	0	0	0	0	0	0	0
021213	08:02:20	1	pm.simpleFrRight	pm.simpleFr	2	57	274	0	0	08:02:20	207367	0	0	0	0	0	0	0	0	0	0	0	0	0	0	0	0	0	0	0	0	0	0		1	0	0	0	0	0	0	0
021213	08:02:20	1	pm.simpleFrRight	blank.simpleFr	2	0	2200	1	0	08:02:20	209616	0	0	0	0	0	0	0	0	0	0	0	0	0	0	0	0	0	0	0	0	0	0		1	0	0	0	0	0	0	0
021213	08:02:20	1	pm.simpleFrRight	pm.simpleFr	2	57	406	0	0	08:02:20	210082	0	0	0	0	0	0	0	0	0	0	0	0	0	0	0	0	0	0	0	0	0	0		1	0	0	0	0	0	0	0
021213	08:02:20	1	pm.simpleFrRight	blank.simpleFr	2	0	1900	1	0	08:02:20	212032	0	0	0	0	0	0	0	0	0	0	0	0	0	0	0	0	0	0	0	0	0	0		1	0	0	0	0	0	0	0
021213	08:02:20	1	pm.simpleFrRight	pm.simpleFr	2	57	266	0	0	08:02:20	212365	0	0	0	0	0	0	0	0	0	0	0	0	0	0	0	0	0	0	0	0	0	0		1	0	0	0	0	0	0	0
021213	08:02:20	1	pm.simpleFrRight	blank.simpleFr	2	0	2000	1	0	08:02:20	214414	0	0	0	0	0	0	0	0	0	0	0	0	0	0	0	0	0	0	0	0	0	0		1	0	0	0	0	0	0	0
021213	08:02:20	1	pm.simpleFrRight	pm.simpleFr	2	57	200	0	0	08:02:20	214681	0	0	0	0	0	0	0	0	0	0	0	0	0	0	0	0	0	0	0	0	0	0		1	0	0	0	0	0	0	0
021213	08:02:20	1	pm.simpleFrRight	blank.simpleFr	2	0	1700	1	0	08:02:20	216430	0	0	0	0	0	0	0	0	0	0	0	0	0	0	0	0	0	0	0	0	0	0		1	0	0	0	0	0	0	0
021213	08:02:20	1	pm.simpleFrRight	pm.simpleFr	2	57	532	0	0	08:02:20	217030	0	0	0	0	0	0	0	0	0	0	0	0	0	0	0	0	0	0	0	0	0	0		1	0	0	0	0	0	0	0
021213	08:02:20	1	pm.simpleFrRight	blank.simpleFr	2	0	2500	1	0	08:02:20	219579	0	0	0	0	0	0	0	0	0	0	0	0	0	0	0	0	0	0	0	0	0	0		1	0	0	0	0	0	0	0
021213	08:02:20	1	pm.simpleFrRight	pm.simpleFr	2	57	325	0	0	08:02:20	219962	0	0	0	0	0	0	0	0	0	0	0	0	0	0	0	0	0	0	0	0	0	0		1	0	0	0	0	0	0	0
021213	08:02:20	1	pm.simpleFrRight	blank.simpleFr	2	0	1800	1	0	08:02:20	221811	0	0	0	0	0	0	0	0	0	0	0	0	0	0	0	0	0	0	0	0	0	0		1	0	0	0	0	0	0	0
021213	08:02:20	1	pm.simpleFrRight	pm.simpleFr	2	57	231	0	0	08:02:20	222095	0	0	0	0	0	0	0	0	0	0	0	0	0	0	0	0	0	0	0	0	0	0		1	0	0	0	0	0	0	0
021213	08:02:20	1	pm.simpleFrRight	blank.simpleFr	2	0	1500	1	0	08:02:20	223644	0	0	0	0	0	0	0	0	0	0	0	0	0	0	0	0	0	0	0	0	0	0		1	0	0	0	0	0	0	0
021213	08:02:20	1	pm.simpleFrRight	pm.simpleFr	2	57	380	0	0	08:02:20	224077	0	0	0	0	0	0	0	0	0	0	0	0	0	0	0	0	0	0	0	0	0	0		1	0	0	0	0	0	0	0
021213	08:02:20	1	pm.simpleFrRight	blank.simpleFr	2	0	2100	1	0	08:02:20	226226	0	0	0	0	0	0	0	0	0	0	0	0	0	0	0	0	0	0	0	0	0	0		1	0	0	0	0	0	0	0
021213	08:02:20	1	pm.simpleFrRight	pm.simpleFr	2	57	679	0	0	08:02:20	226959	0	0	0	0	0	0	0	0	0	0	0	0	0	0	0	0	0	0	0	0	0	0		1	0	0	0	0	0	0	0
021213	08:02:20	1	pm.simpleFrRight	blank.simpleFr	2	0	1700	1	0	08:02:20	228709	0	0	0	0	0	0	0	0	0	0	0	0	0	0	0	0	0	0	0	0	0	0		1	0	0	0	0	0	0	0
021213	08:02:20	1	pm.simpleFrRight	pm.simpleFr	2	57	950	0	0	08:02:20	229725	0	0	0	0	0	0	0	0	0	0	0	0	0	0	0	0	0	0	0	0	0	0		1	0	0	0	0	0	0	0
021213	08:02:20	1	pm.simpleFrRight	blank.simpleFr	2	57	2239	0	0	08:02:20	233024	0	0	0	0	0	0	0	0	0	0	0	0	0	0	0	0	0	0	0	0	0	0		1	0	0	0	0	0	0	0
021213	08:02:20	1	pm.simpleFrRight	blank.simpleFr	2	0	2000	1	0	08:02:20	235073	0	0	0	0	0	0	0	0	0	0	0	0	0	0	0	0	0	0	0	0	0	0		1	0	0	0	0	0	0	0
021213	08:02:20	1	pm.simpleFrRight	pm.simpleFr	2	57	494	0	0	08:02:20	235623	0	0	0	0	0	0	0	0	0	0	0	0	0	0	0	0	0	0	0	0	0	0		1	0	0	0	0	0	0	0
021213	08:02:20	1	pm.simpleFrRight	blank.simpleFr	2	0	1600	1	0	08:02:20	237272	0	0	0	0	0	0	0	0	0	0	0	0	0	0	0	0	0	0	0	0	0	0		1	0	0	0	0	0	0	0
021213	08:02:20	1	pm.simpleFrRight	pm.simpleFr	2	57	392	0	0	08:02:20	237722	0	0	0	0	0	0	0	0	0	0	0	0	0	0	0	0	0	0	0	0	0	0		1	0	0	0	0	0	0	0
021213	08:02:20	1	pm.simpleFrRight	blank.simpleFr	2	0	2400	1	0	08:02:20	240171	0	0	0	0	0	0	0	0	0	0	0	0	0	0	0	0	0	0	0	0	0	0		1	0	0	0	0	0	0	0
021213	08:02:20	1	pm.simpleFrRight	pm.simpleFr	2	57	316	0	0	08:02:20	240555	0	0	0	0	0	0	0	0	0	0	0	0	0	0	0	0	0	0	0	0	0	0		1	0	0	0	0	0	0	0
021213	08:02:20	1	pm.simpleFrRight	blank.simpleFr	2	0	2200	1	0	08:02:20	242804	0	0	0	0	0	0	0	0	0	0	0	0	0	0	0	0	0	0	0	0	0	0		1	0	0	0	0	0	0	0
021213	08:02:20	1	pm.simpleFrRight	pm.simpleFr	2	57	417	0	0	08:02:20	243287	0	0	0	0	0	0	0	0	0	0	0	0	0	0	0	0	0	0	0	0	0	0		1	0	0	0	0	0	0	0
021213	08:02:20	1	pm.simpleFrRight	blank.simpleFr	2	0	1900	1	0	08:02:20	245236	0	0	0	0	0	0	0	0	0	0	0	0	0	0	0	0	0	0	0	0	0	0		1	0	0	0	0	0	0	0
021213	08:02:20	1	pm.simpleFrRight	pm.simpleFr	2	57	300	0	0	08:02:20	245603	0	0	0	0	0	0	0	0	0	0	0	0	0	0	0	0	0	0	0	0	0	0		1	0	0	0	0	0	0	0
021213	08:02:20	1	pm.simpleFrRight	blank.simpleFr	2	0	2300	1	0	08:02:20	247952	0	0	0	0	0	0	0	0	0	0	0	0	0	0	0	0	0	0	0	0	0	0		1	0	0	0	0	0	0	0
021213	08:02:20	1	pm.simpleFrRight	pm.simpleFr	2	57	189	0	0	08:02:20	248202	0	0	0	0	0	0	0	0	0	0	0	0	0	0	0	0	0	0	0	0	0	0		1	0	0	0	0	0	0	0
021213	08:02:20	1	pm.simpleFrRight	blank.simpleFr	2	0	1900	1	0	08:02:20	250151	0	0	0	0	0	0	0	0	0	0	0	0	0	0	0	0	0	0	0	0	0	0		1	0	0	0	0	0	0	0
021213	08:02:20	1	pm.simpleFrRight	pm.simpleFr	2	57	226	0	0	08:02:20	250434	0	0	0	0	0	0	0	0	0	0	0	0	0	0	0	0	0	0	0	0	0	0		1	0	0	0	0	0	0	0
021213	08:02:20	1	pm.simpleFrRight	blank.simpleFr	2	0	2200	1	0	08:02:20	252684	0	0	0	0	0	0	0	0	0	0	0	0	0	0	0	0	0	0	0	0	0	0		1	0	0	0	0	0	0	0
021213	08:02:20	1	pm.simpleFrRight	pm.simpleFr	2	57	210	0	0	08:02:20	252950	0	0	0	0	0	0	0	0	0	0	0	0	0	0	0	0	0	0	0	0	0	0		1	0	0	0	0	0	0	0
021213	08:02:20	1	pm.simpleFrRight	blank.simpleFr	2	0	2000	1	0	08:02:20	254999	0	0	0	0	0	0	0	0	0	0	0	0	0	0	0	0	0	0	0	0	0	0		1	0	0	0	0	0	0	0
021213	08:02:20	1	pm.simpleFrRight	pm.simpleFr	2	57	897	0	0	08:02:20	255949	0	0	0	0	0	0	0	0	0	0	0	0	0	0	0	0	0	0	0	0	0	0		1	0	0	0	0	0	0	0
021213	08:02:20	1	pm.simpleFrRight	blank.simpleFr	2	0	2100	1	0	08:02:20	258098	0	0	0	0	0	0	0	0	0	0	0	0	0	0	0	0	0	0	0	0	0	0		1	0	0	0	0	0	0	0
021213	08:02:20	1	pm.simpleFrRight	pm.simpleFr	2	57	183	0	0	08:02:20	258348	0	0	0	0	0	0	0	0	0	0	0	0	0	0	0	0	0	0	0	0	0	0		1	0	0	0	0	0	0	0
021213	08:02:20	1	pm.simpleFrRight	blank.simpleFr	2	0	1500	1	0	08:02:20	259898	0	0	0	0	0	0	0	0	0	0	0	0	0	0	0	0	0	0	0	0	0	0		1	0	0	0	0	0	0	0
021213	08:02:20	1	pm.simpleFrRight	pm.simpleFr	2	57	351	0	0	08:02:20	260314	0	0	0	0	0	0	0	0	0	0	0	0	0	0	0	0	0	0	0	0	0	0		1	0	0	0	0	0	0	0
021213	08:02:20	1	pm.simpleFrRight	blank.simpleFr	2	0	2300	1	0	08:02:20	262663	0	0	0	0	0	0	0	0	0	0	0	0	0	0	0	0	0	0	0	0	0	0		1	0	0	0	0	0	0	0
021213	08:02:20	1	pm.simpleFrRight	pm.simpleFr	2	57	212	0	0	08:02:20	262930	0	0	0	0	0	0	0	0	0	0	0	0	0	0	0	0	0	0	0	0	0	0		1	0	0	0	0	0	0	0
021213	08:02:20	1	pm.simpleFrRight	blank.simpleFr	2	0	1600	1	0	08:02:20	264579	0	0	0	0	0	0	0	0	0	0	0	0	0	0	0	0	0	0	0	0	0	0		1	0	0	0	0	0	0	0
021213	08:02:20	1	pm.simpleFrRight	pm.simpleFr	2	57	399	0	0	08:02:20	265046	0	0	0	0	0	0	0	0	0	0	0	0	0	0	0	0	0	0	0	0	0	0		1	0	0	0	0	0	0	0
021213	08:02:20	1	pm.simpleFrRight	blank.simpleFr	2	0	1800	1	0	08:02:20	266895	0	0	0	0	0	0	0	0	0	0	0	0	0	0	0	0	0	0	0	0	0	0		1	0	0	0	0	0	0	0
021213	08:02:20	1	pm.simpleFrRight	pm.simpleFr	2	57	219	0	0	08:02:20	267178	0	0	0	0	0	0	0	0	0	0	0	0	0	0	0	0	0	0	0	0	0	0		1	0	0	0	0	0	0	0
021213	08:02:20	1	pm.simpleFrRight	blank.simpleFr	2	0	2500	1	0	08:02:20	269727	0	0	0	0	0	0	0	0	0	0	0	0	0	0	0	0	0	0	0	0	0	0		1	0	0	0	0	0	0	0
021213	08:02:20	1	pm.simpleFrRight	pm.simpleFr	2	57	136	0	0	08:02:20	269927	0	0	0	0	0	0	0	0	0	0	0	0	0	0	0	0	0	0	0	0	0	0		1	0	0	0	0	0	0	0
021213	08:02:20	1	Trial2BackFr	N	3	0	1000	1	1	08:02:20	323208	0	0	0	0	0	0	0	0	0	0	0	0	0	0	0	0	0	0	0	0	0	0		1	0	0	0	0	0	0	0
021213	08:02:20	1	Trial2BackFr	N	3	0	1000	1	2	08:02:20	324724	0	0	0	0	0	0	0	0	0	0	0	0	0	0	0	0	0	0	0	0	0	0		1	0	0	0	0	0	0	0
021213	08:02:20	1	Trial2BackFr	N	3	0	1000	1	3	08:02:20	326240	0	0	0	0	0	0	0	0	0	0	0	0	0	0	0	0	0	0	0	0	0	0		1	0	0	0	0	0	0	0
021213	08:02:20	1	Trial2BackFr	N	3	0	1000	1	4	08:02:20	327756	0	0	0	0	0	0	0	0	0	0	0	0	0	0	0	0	0	0	0	0	0	0		1	0	0	0	0	0	0	0
021213	08:02:20	1	Trial2BackFr	N	3	0	1000	1	5	08:02:20	329273	0	0	0	0	0	0	0	0	0	0	0	0	0	0	0	0	0	0	0	0	0	0		1	0	0	0	0	0	0	0
021213	08:02:20	1	Trial2BackFr	N	3	0	1000	1	6	08:02:20	330789	0	0	0	0	0	0	0	0	0	0	0	0	0	0	0	0	0	0	0	0	0	0		1	0	0	0	0	0	0	0
021213	08:02:20	1	Trial2BackFr	N	3	0	1000	1	7	08:02:20	332305	0	0	0	0	0	0	0	0	0	0	0	0	0	0	0	0	0	0	0	0	0	0		1	0	0	0	0	0	0	0
021213	08:02:20	1	Trial2BackFr	N	3	0	1000	1	8	08:02:20	333821	0	0	0	0	0	0	0	0	0	0	0	0	0	0	0	0	0	0	0	0	0	0		1	0	0	0	0	0	0	0
021213	08:02:20	1	Trial2BackFr	Y	3	0	1000	0	8	08:02:20	335337	0	0	0	0	0	0	0	0	0	0	0	0	0	0	0	0	0	0	0	0	0	0		1	0	0	0	0	0	0	0
021213	08:02:20	1	Trial2BackFr	N	3	0	1000	1	9	08:02:20	336853	0	0	0	0	0	0	0	0	0	0	0	0	0	0	0	0	0	0	0	0	0	0		1	0	0	0	0	0	0	0
021213	08:02:20	1	Trial2BackFr	N	3	0	1000	1	10	08:02:20	338369	0	0	0	0	0	0	0	0	0	0	0	0	0	0	0	0	0	0	0	0	0	0		1	0	0	0	0	0	0	0
021213	08:02:20	1	Trial2BackFr	N	3	0	1000	1	11	08:02:20	339885	0	0	0	0	0	0	0	0	0	0	0	0	0	0	0	0	0	0	0	0	0	0		1	0	0	0	0	0	0	0
021213	08:02:20	1	Trial2BackFr	Y	3	0	1000	0	11	08:02:20	341401	0	0	0	0	0	0	0	0	0	0	0	0	0	0	0	0	0	0	0	0	0	0		1	0	0	0	0	0	0	0
021213	08:02:20	1	Trial2BackFr	N	3	0	1000	1	12	08:02:20	342917	0	0	0	0	0	0	0	0	0	0	0	0	0	0	0	0	0	0	0	0	0	0		1	0	0	0	0	0	0	0
021213	08:02:20	1	Trial2BackFr	N	3	0	1000	1	13	08:02:20	344434	0	0	0	0	0	0	0	0	0	0	0	0	0	0	0	0	0	0	0	0	0	0		1	0	0	0	0	0	0	0
021213	08:02:20	1	Trial2BackFr	N	3	0	1000	1	14	08:02:20	345950	0	0	0	0	0	0	0	0	0	0	0	0	0	0	0	0	0	0	0	0	0	0		1	0	0	0	0	0	0	0
021213	08:02:20	1	Trial2BackFr	N	3	0	1000	1	15	08:02:20	347466	0	0	0	0	0	0	0	0	0	0	0	0	0	0	0	0	0	0	0	0	0	0		1	0	0	0	0	0	0	0
021213	08:02:20	1	Trial2BackFr	N	3	0	1000	1	16	08:02:20	348982	0	0	0	0	0	0	0	0	0	0	0	0	0	0	0	0	0	0	0	0	0	0		1	0	0	0	0	0	0	0
021213	08:02:20	1	Trial2BackFr	Y	3	0	1000	0	16	08:02:20	350498	0	0	0	0	0	0	0	0	0	0	0	0	0	0	0	0	0	0	0	0	0	0		1	0	0	0	0	0	0	0
021213	08:02:20	1	Trial2BackFr	N	3	0	1000	1	17	08:02:20	352014	0	0	0	0	0	0	0	0	0	0	0	0	0	0	0	0	0	0	0	0	0	0		1	0	0	0	0	0	0	0
021213	08:02:20	1	Trial2BackFr	N	3	0	1000	1	18	08:02:20	353530	0	0	0	0	0	0	0	0	0	0	0	0	0	0	0	0	0	0	0	0	0	0		1	0	0	0	0	0	0	0
021213	08:02:20	1	Trial2BackFr	N	3	0	1000	1	19	08:02:20	355046	0	0	0	0	0	0	0	0	0	0	0	0	0	0	0	0	0	0	0	0	0	0		1	0	0	0	0	0	0	0
021213	08:02:20	1	Trial2BackFr	N	3	0	1000	1	20	08:02:20	356563	0	0	0	0	0	0	0	0	0	0	0	0	0	0	0	0	0	0	0	0	0	0		1	0	0	0	0	0	0	0
021213	08:02:20	1	Trial2BackFr	Y	3	0	1000	0	20	08:02:20	358079	0	0	0	0	0	0	0	0	0	0	0	0	0	0	0	0	0	0	0	0	0	0		1	0	0	0	0	0	0	0
021213	08:02:20	1	Trial2BackFr	N	3	0	1000	1	21	08:02:20	359595	0	0	0	0	0	0	0	0	0	0	0	0	0	0	0	0	0	0	0	0	0	0		1	0	0	0	0	0	0	0
021213	08:02:20	1	Trial2BackFr	N	3	0	1000	1	22	08:02:20	361111	0	0	0	0	0	0	0	0	0	0	0	0	0	0	0	0	0	0	0	0	0	0		1	0	0	0	0	0	0	0
021213	08:02:20	1	Trial2BackFr	N	3	0	1000	1	23	08:02:20	362627	0	0	0	0	0	0	0	0	0	0	0	0	0	0	0	0	0	0	0	0	0	0		1	0	0	0	0	0	0	0
021213	08:02:20	1	Trial2BackFr	N	3	0	1000	1	24	08:02:20	364143	0	0	0	0	0	0	0	0	0	0	0	0	0	0	0	0	0	0	0	0	0	0		1	0	0	0	0	0	0	0
021213	08:02:20	1	Trial2BackFr	N	3	0	1000	1	25	08:02:20	365659	0	0	0	0	0	0	0	0	0	0	0	0	0	0	0	0	0	0	0	0	0	0		1	0	0	0	0	0	0	0
021213	08:02:20	1	Trial2BackFr	N	3	0	1000	1	26	08:02:20	367175	0	0	0	0	0	0	0	0	0	0	0	0	0	0	0	0	0	0	0	0	0	0		1	0	0	0	0	0	0	0
021213	08:02:20	1	Trial2BackFr	Y	3	0	1000	0	26	08:02:20	368691	0	0	0	0	0	0	0	0	0	0	0	0	0	0	0	0	0	0	0	0	0	0		1	0	0	0	0	0	0	0
021213	08:02:20	1	Trial2BackFr	N	3	0	1000	1	27	08:02:20	370208	0	0	0	0	0	0	0	0	0	0	0	0	0	0	0	0	0	0	0	0	0	0		1	0	0	0	0	0	0	0
021213	08:02:20	1	Trial2BackFr	N	3	0	1000	1	28	08:02:20	371724	0	0	0	0	0	0	0	0	0	0	0	0	0	0	0	0	0	0	0	0	0	0		1	0	0	0	0	0	0	0
021213	08:02:20	1	Trial2BackFr	N	3	0	1000	1	29	08:02:20	373240	0	0	0	0	0	0	0	0	0	0	0	0	0	0	0	0	0	0	0	0	0	0		1	0	0	0	0	0	0	0
021213	08:02:20	1	Trial2BackFr	Y	3	0	1000	0	29	08:02:20	374756	0	0	0	0	0	0	0	0	0	0	0	0	0	0	0	0	0	0	0	0	0	0		1	0	0	0	0	0	0	0
021213	08:02:20	1	Trial2BackFr	N	3	0	1000	1	30	08:02:20	376272	0	0	0	0	0	0	0	0	0	0	0	0	0	0	0	0	0	0	0	0	0	0		1	0	0	0	0	0	0	0
021213	08:02:20	1	Trial2BackFr	N	3	0	1000	1	31	08:02:20	377788	0	0	0	0	0	0	0	0	0	0	0	0	0	0	0	0	0	0	0	0	0	0		1	0	0	0	0	0	0	0
021213	08:02:20	1	Trial2BackFr	N	3	0	1000	1	32	08:02:20	379304	0	0	0	0	0	0	0	0	0	0	0	0	0	0	0	0	0	0	0	0	0	0		1	0	0	0	0	0	0	0
021213	08:02:20	1	Trial2BackFr	N	3	0	1000	1	33	08:02:20	380820	0	0	0	0	0	0	0	0	0	0	0	0	0	0	0	0	0	0	0	0	0	0		1	0	0	0	0	0	0	0
021213	08:02:20	1	Trial2BackFr	N	3	0	1000	1	34	08:02:20	382337	0	0	0	0	0	0	0	0	0	0	0	0	0	0	0	0	0	0	0	0	0	0		1	0	0	0	0	0	0	0
021213	08:02:20	1	Trial2BackFr	N	3	0	1000	1	35	08:02:20	383852	0	0	0	0	0	0	0	0	0	0	0	0	0	0	0	0	0	0	0	0	0	0		1	0	0	0	0	0	0	0
021213	08:02:20	1	Trial2BackFr	Y	3	0	1000	0	35	08:02:20	385369	0	0	0	0	0	0	0	0	0	0	0	0	0	0	0	0	0	0	0	0	0	0		1	0	0	0	0	0	0	0
021213	08:02:20	1	Trial2BackFr	N	3	0	1000	1	36	08:02:20	386885	0	0	0	0	0	0	0	0	0	0	0	0	0	0	0	0	0	0	0	0	0	0		1	0	0	0	0	0	0	0
021213	08:02:20	1	Trial2BackFr	N	3	0	1000	1	37	08:02:20	388401	0	0	0	0	0	0	0	0	0	0	0	0	0	0	0	0	0	0	0	0	0	0		1	0	0	0	0	0	0	0
021213	08:02:20	1	Trial2BackFr	N	3	0	1000	1	38	08:02:20	389917	0	0	0	0	0	0	0	0	0	0	0	0	0	0	0	0	0	0	0	0	0	0		1	0	0	0	0	0	0	0
021213	08:02:20	1	Trial2BackFr	N	3	0	1000	1	39	08:02:20	391433	0	0	0	0	0	0	0	0	0	0	0	0	0	0	0	0	0	0	0	0	0	0		1	0	0	0	0	0	0	0
021213	08:02:20	1	Trial2BackFr	Y	3	0	1000	0	39	08:02:20	392949	0	0	0	0	0	0	0	0	0	0	0	0	0	0	0	0	0	0	0	0	0	0		1	0	0	0	0	0	0	0
021213	08:02:20	1	Trial2BackFr	N	3	0	1000	1	40	08:02:20	394465	0	0	0	0	0	0	0	0	0	0	0	0	0	0	0	0	0	0	0	0	0	0		1	0	0	0	0	0	0	0
021213	08:02:20	1	Trial2BackFr	N	3	0	1000	1	41	08:02:20	395982	0	0	0	0	0	0	0	0	0	0	0	0	0	0	0	0	0	0	0	0	0	0		1	0	0	0	0	0	0	0
021213	08:02:20	1	Trial2BackFr	N	3	0	1000	1	42	08:02:20	397498	0	0	0	0	0	0	0	0	0	0	0	0	0	0	0	0	0	0	0	0	0	0		1	0	0	0	0	0	0	0
021213	08:02:20	1	Trial2BackFr	N	3	0	1000	1	43	08:02:20	399014	0	0	0	0	0	0	0	0	0	0	0	0	0	0	0	0	0	0	0	0	0	0		1	0	0	0	0	0	0	0
021213	08:02:20	1	Trial2BackFr	N	3	0	1000	1	44	08:02:20	400530	0	0	0	0	0	0	0	0	0	0	0	0	0	0	0	0	0	0	0	0	0	0		1	0	0	0	0	0	0	0
021213	08:02:20	1	Trial2BackFr	Y	3	0	1000	0	44	08:02:20	402046	0	0	0	0	0	0	0	0	0	0	0	0	0	0	0	0	0	0	0	0	0	0		1	0	0	0	0	0	0	0
021213	08:02:20	1	Trial2BackFr	N	3	0	1000	1	45	08:02:20	403562	0	0	0	0	0	0	0	0	0	0	0	0	0	0	0	0	0	0	0	0	0	0		1	0	0	0	0	0	0	0
021213	08:02:20	1	Trial2BackFr	N	3	0	1000	1	46	08:02:20	405078	0	0	0	0	0	0	0	0	0	0	0	0	0	0	0	0	0	0	0	0	0	0		1	0	0	0	0	0	0	0
021213	08:02:20	1	Trial2BackFr	N	3	0	1000	1	47	08:02:20	406594	0	0	0	0	0	0	0	0	0	0	0	0	0	0	0	0	0	0	0	0	0	0		1	0	0	0	0	0	0	0
021213	08:02:20	1	Trial2BackFr	N	3	0	1000	1	48	08:02:20	408111	0	0	0	0	0	0	0	0	0	0	0	0	0	0	0	0	0	0	0	0	0	0		1	0	0	0	0	0	0	0
021213	08:02:20	1	Trial2BackFr	N	3	0	1000	1	49	08:02:20	409627	0	0	0	0	0	0	0	0	0	0	0	0	0	0	0	0	0	0	0	0	0	0		1	0	0	0	0	0	0	0
021213	08:02:20	1	Trial2BackFr	N	3	0	1000	1	50	08:02:20	411143	0	0	0	0	0	0	0	0	0	0	0	0	0	0	0	0	0	0	0	0	0	0		1	0	0	0	0	0	0	0
021213	08:02:20	1	Trial2BackFr	Y	3	0	1000	0	50	08:02:20	412659	0	0	0	0	0	0	0	0	0	0	0	0	0	0	0	0	0	0	0	0	0	0		1	0	0	0	0	0	0	0
021213	08:02:20	1	Trial2BackFr	N	3	0	1000	1	51	08:02:20	414175	0	0	0	0	0	0	0	0	0	0	0	0	0	0	0	0	0	0	0	0	0	0		1	0	0	0	0	0	0	0
021213	08:02:20	1	Trial2BackFr	N	3	0	1000	1	52	08:02:20	415691	0	0	0	0	0	0	0	0	0	0	0	0	0	0	0	0	0	0	0	0	0	0		1	0	0	0	0	0	0	0
021213	08:02:20	1	Trial2BackFr	Y	3	0	1000	0	52	08:02:20	417207	0	0	0	0	0	0	0	0	0	0	0	0	0	0	0	0	0	0	0	0	0	0		1	0	0	0	0	0	0	0
021213	08:02:20	1	Trial2BackFr	N	3	0	1000	1	53	08:02:20	418723	0	0	0	0	0	0	0	0	0	0	0	0	0	0	0	0	0	0	0	0	0	0		1	0	0	0	0	0	0	0
021213	08:02:20	1	Trial2BackFr	N	3	0	1000	1	54	08:02:20	420239	0	0	0	0	0	0	0	0	0	0	0	0	0	0	0	0	0	0	0	0	0	0		1	0	0	0	0	0	0	0
021213	08:02:20	1	Trial2BackFr	N	3	0	1000	1	55	08:02:20	421756	0	0	0	0	0	0	0	0	0	0	0	0	0	0	0	0	0	0	0	0	0	0		1	0	0	0	0	0	0	0
021213	08:02:20	1	Trial2BackFr	N	3	0	1000	1	56	08:02:20	423272	0	0	0	0	0	0	0	0	0	0	0	0	0	0	0	0	0	0	0	0	0	0		1	0	0	0	0	0	0	0
021213	08:02:20	1	Trial2BackFr	N	3	0	1000	1	57	08:02:20	424788	0	0	0	0	0	0	0	0	0	0	0	0	0	0	0	0	0	0	0	0	0	0		1	0	0	0	0	0	0	0
021213	08:02:20	1	Trial2BackFr	N	3	0	1000	1	58	08:02:20	426304	0	0	0	0	0	0	0	0	0	0	0	0	0	0	0	0	0	0	0	0	0	0		1	0	0	0	0	0	0	0
021213	08:02:20	1	Trial2BackFr	N	3	0	1000	1	59	08:02:20	427820	0	0	0	0	0	0	0	0	0	0	0	0	0	0	0	0	0	0	0	0	0	0		1	0	0	0	0	0	0	0
021213	08:02:20	1	Trial2BackFr	N	3	0	1000	1	60	08:02:20	429336	0	0	0	0	0	0	0	0	0	0	0	0	0	0	0	0	0	0	0	0	0	0		1	0	0	0	0	0	0	0
021213	08:02:20	1	Trial2BackFr	N	3	0	1000	1	61	08:02:20	430852	0	0	0	0	0	0	0	0	0	0	0	0	0	0	0	0	0	0	0	0	0	0		1	0	0	0	0	0	0	0
021213	08:02:20	1	Trial2BackFr	N	3	0	1000	1	62	08:02:20	432368	0	0	0	0	0	0	0	0	0	0	0	0	0	0	0	0	0	0	0	0	0	0		1	0	0	0	0	0	0	0
021213	08:02:20	1	Trial2BackFr	Y	3	0	1000	0	62	08:02:20	433884	0	0	0	0	0	0	0	0	0	0	0	0	0	0	0	0	0	0	0	0	0	0		1	0	0	0	0	0	0	0
021213	08:02:20	1	Trial2BackFr	N	3	0	1000	1	63	08:02:20	435401	0	0	0	0	0	0	0	0	0	0	0	0	0	0	0	0	0	0	0	0	0	0		1	0	0	0	0	0	0	0
021213	08:02:20	1	Trial2BackFr	N	3	0	1000	1	64	08:02:20	436917	0	0	0	0	0	0	0	0	0	0	0	0	0	0	0	0	0	0	0	0	0	0		1	0	0	0	0	0	0	0
021213	08:02:20	1	Trial2BackFr	N	3	0	1000	1	65	08:02:20	438433	0	0	0	0	0	0	0	0	0	0	0	0	0	0	0	0	0	0	0	0	0	0		1	0	0	0	0	0	0	0
021213	08:02:20	1	Trial2BackFr	Y	3	0	1000	0	65	08:02:20	439949	0	0	0	0	0	0	0	0	0	0	0	0	0	0	0	0	0	0	0	0	0	0		1	0	0	0	0	0	0	0
021213	08:02:20	1	Trial2BackFr	N	3	0	1000	1	66	08:02:20	441465	0	0	0	0	0	0	0	0	0	0	0	0	0	0	0	0	0	0	0	0	0	0		1	0	0	0	0	0	0	0
021213	08:02:20	1	Trial2BackFr	N	3	0	1000	1	67	08:02:20	442981	0	0	0	0	0	0	0	0	0	0	0	0	0	0	0	0	0	0	0	0	0	0		1	0	0	0	0	0	0	0
021213	08:02:20	1	Trial2BackFr	N	3	0	1000	1	68	08:02:20	444497	0	0	0	0	0	0	0	0	0	0	0	0	0	0	0	0	0	0	0	0	0	0		1	0	0	0	0	0	0	0
021213	08:02:20	1	Trial2BackFr	N	3	0	1000	1	69	08:02:20	446013	0	0	0	0	0	0	0	0	0	0	0	0	0	0	0	0	0	0	0	0	0	0		1	0	0	0	0	0	0	0
021213	08:02:20	1	Trial2BackFr	N	3	0	1000	1	70	08:02:20	447530	0	0	0	0	0	0	0	0	0	0	0	0	0	0	0	0	0	0	0	0	0	0		1	0	0	0	0	0	0	0
021213	08:02:20	1	Trial2BackFr	Y	3	0	1000	0	70	08:02:20	449046	0	0	0	0	0	0	0	0	0	0	0	0	0	0	0	0	0	0	0	0	0	0		1	0	0	0	0	0	0	0
021213	08:02:20	1	Trial2BackFr	N	3	0	1000	1	71	08:02:20	450562	0	0	0	0	0	0	0	0	0	0	0	0	0	0	0	0	0	0	0	0	0	0		1	0	0	0	0	0	0	0
021213	08:02:20	1	Trial2BackFr	N	3	0	1000	1	72	08:02:20	452078	0	0	0	0	0	0	0	0	0	0	0	0	0	0	0	0	0	0	0	0	0	0		1	0	0	0	0	0	0	0
021213	08:02:20	1	Trial2BackFr	N	3	0	1000	1	73	08:02:20	453594	0	0	0	0	0	0	0	0	0	0	0	0	0	0	0	0	0	0	0	0	0	0		1	0	0	0	0	0	0	0
021213	08:02:20	1	Trial2BackFr	N	3	0	1000	1	74	08:02:20	455110	0	0	0	0	0	0	0	0	0	0	0	0	0	0	0	0	0	0	0	0	0	0		1	0	0	0	0	0	0	0
021213	08:02:20	1	Trial2BackFr	N	3	0	1000	1	75	08:02:20	456626	0	0	0	0	0	0	0	0	0	0	0	0	0	0	0	0	0	0	0	0	0	0		1	0	0	0	0	0	0	0
021213	08:02:20	1	Trial2BackFr	N	3	0	1000	1	76	08:02:20	458142	0	0	0	0	0	0	0	0	0	0	0	0	0	0	0	0	0	0	0	0	0	0		1	0	0	0	0	0	0	0
021213	08:02:20	1	Trial2BackFr	N	3	0	1000	1	77	08:02:20	459658	0	0	0	0	0	0	0	0	0	0	0	0	0	0	0	0	0	0	0	0	0	0		1	0	0	0	0	0	0	0
021213	08:02:20	1	Trial2BackFr	N	3	0	1000	1	78	08:02:20	461175	0	0	0	0	0	0	0	0	0	0	0	0	0	0	0	0	0	0	0	0	0	0		1	0	0	0	0	0	0	0
021213	08:02:20	1	Trial2BackFr	N	3	0	1000	1	79	08:02:20	462690	0	0	0	0	0	0	0	0	0	0	0	0	0	0	0	0	0	0	0	0	0	0		1	0	0	0	0	0	0	0
021213	08:02:20	1	Trial2BackFr	Y	3	0	1000	0	79	08:02:20	464207	0	0	0	0	0	0	0	0	0	0	0	0	0	0	0	0	0	0	0	0	0	0		1	0	0	0	0	0	0	0
021213	08:02:20	1	Trial2BackFr	N	3	0	1000	1	80	08:02:20	465723	0	0	0	0	0	0	0	0	0	0	0	0	0	0	0	0	0	0	0	0	0	0		1	0	0	0	0	0	0	0
021213	08:02:20	1	Trial2BackFr	N	3	0	1000	1	81	08:02:20	467240	0	0	0	0	0	0	0	0	0	0	0	0	0	0	0	0	0	0	0	0	0	0		1	0	0	0	0	0	0	0
021213	08:02:20	1	Trial2BackFr	N	3	0	1000	1	82	08:02:20	468755	0	0	0	0	0	0	0	0	0	0	0	0	0	0	0	0	0	0	0	0	0	0		1	0	0	0	0	0	0	0
021213	08:02:20	1	Trial2BackFr	N	3	0	1000	1	83	08:02:20	470271	0	0	0	0	0	0	0	0	0	0	0	0	0	0	0	0	0	0	0	0	0	0		1	0	0	0	0	0	0	0
021213	08:02:20	1	Trial2BackFr	N	3	0	1000	1	84	08:02:20	471787	0	0	0	0	0	0	0	0	0	0	0	0	0	0	0	0	0	0	0	0	0	0		1	0	0	0	0	0	0	0
021213	08:02:20	1	Trial2BackFr	N	3	0	1000	1	85	08:02:20	473304	0	0	0	0	0	0	0	0	0	0	0	0	0	0	0	0	0	0	0	0	0	0		1	0	0	0	0	0	0	0
021213	08:02:20	1	Trial2BackFr	N	3	0	1000	1	86	08:02:20	474820	0	0	0	0	0	0	0	0	0	0	0	0	0	0	0	0	0	0	0	0	0	0		1	0	0	0	0	0	0	0
021213	08:02:20	1	Trial2BackFr	N	3	0	1000	1	87	08:02:20	476336	0	0	0	0	0	0	0	0	0	0	0	0	0	0	0	0	0	0	0	0	0	0		1	0	0	0	0	0	0	0
021213	08:02:20	1	Trial2BackFr	Y	3	0	1000	0	87	08:02:20	477852	0	0	0	0	0	0	0	0	0	0	0	0	0	0	0	0	0	0	0	0	0	0		1	0	0	0	0	0	0	0
021213	08:02:20	1	Trial2BackFr	N	3	0	1000	1	88	08:02:20	479368	0	0	0	0	0	0	0	0	0	0	0	0	0	0	0	0	0	0	0	0	0	0		1	0	0	0	0	0	0	0
021213	08:02:20	1	Trial2BackFr	N	3	0	1000	1	89	08:02:20	480884	0	0	0	0	0	0	0	0	0	0	0	0	0	0	0	0	0	0	0	0	0	0		1	0	0	0	0	0	0	0
021213	08:02:20	1	Trial2BackFr	N	3	0	1000	1	90	08:02:20	482400	0	0	0	0	0	0	0	0	0	0	0	0	0	0	0	0	0	0	0	0	0	0		1	0	0	0	0	0	0	0
021213	08:02:20	1	Trial2BackFr	N	3	0	1000	1	91	08:02:20	483916	0	0	0	0	0	0	0	0	0	0	0	0	0	0	0	0	0	0	0	0	0	0		1	0	0	0	0	0	0	0
021213	08:02:20	1	Trial2BackFr	Y	3	0	1000	0	91	08:02:20	485432	0	0	0	0	0	0	0	0	0	0	0	0	0	0	0	0	0	0	0	0	0	0		1	0	0	0	0	0	0	0
021213	08:02:20	1	Trial2BackFr	N	3	0	1000	1	92	08:02:20	486949	0	0	0	0	0	0	0	0	0	0	0	0	0	0	0	0	0	0	0	0	0	0		1	0	0	0	0	0	0	0
021213	08:02:20	1	Trial2BackFr	N	3	0	1000	1	93	08:02:20	488465	0	0	0	0	0	0	0	0	0	0	0	0	0	0	0	0	0	0	0	0	0	0		1	0	0	0	0	0	0	0
021213	08:02:20	1	Trial2BackFr	N	3	0	1000	1	94	08:02:20	489981	0	0	0	0	0	0	0	0	0	0	0	0	0	0	0	0	0	0	0	0	0	0		1	0	0	0	0	0	0	0
021213	08:02:20	1	Trial2BackFr	Y	3	0	1000	0	94	08:02:20	491497	0	0	0	0	0	0	0	0	0	0	0	0	0	0	0	0	0	0	0	0	0	0		1	0	0	0	0	0	0	0
021213	08:02:20	1	Trial2BackFr	N	3	0	1000	1	95	08:02:20	493013	0	0	0	0	0	0	0	0	0	0	0	0	0	0	0	0	0	0	0	0	0	0		1	0	0	0	0	0	0	0
021213	08:02:20	1	Trial2BackFr	N	3	0	1000	1	96	08:02:20	494529	0	0	0	0	0	0	0	0	0	0	0	0	0	0	0	0	0	0	0	0	0	0		1	0	0	0	0	0	0	0
021213	08:02:20	1	Trial2BackFr	N	3	0	1000	1	97	08:02:20	496045	0	0	0	0	0	0	0	0	0	0	0	0	0	0	0	0	0	0	0	0	0	0		1	0	0	0	0	0	0	0
021213	08:02:20	1	Trial2BackFr	N	3	0	1000	1	98	08:02:20	497561	0	0	0	0	0	0	0	0	0	0	0	0	0	0	0	0	0	0	0	0	0	0		1	0	0	0	0	0	0	0
021213	08:02:20	1	Trial2BackFr	N	3	0	1000	1	99	08:02:20	499078	0	0	0	0	0	0	0	0	0	0	0	0	0	0	0	0	0	0	0	0	0	0		1	0	0	0	0	0	0	0
021213	08:02:20	1	Trial2BackFr	Y	3	0	1000	0	99	08:02:20	500594	0	0	0	0	0	0	0	0	0	0	0	0	0	0	0	0	0	0	0	0	0	0		1	0	0	0	0	0	0	0
021213	08:02:20	1	Trial2BackFr	N	3	0	1000	1	100	08:02:20	502110	0	0	0	0	0	0	0	0	0	0	0	0	0	0	0	0	0	0	0	0	0	0		1	0	0	0	0	0	0	0
021213	08:02:20	1	Trial2BackFr	N	3	0	1000	1	101	08:02:20	503626	0	0	0	0	0	0	0	0	0	0	0	0	0	0	0	0	0	0	0	0	0	0		1	0	0	0	0	0	0	0
021213	08:02:20	1	Trial2BackFr	N	3	0	1000	1	102	08:02:20	505142	0	0	0	0	0	0	0	0	0	0	0	0	0	0	0	0	0	0	0	0	0	0		1	0	0	0	0	0	0	0
021213	08:02:20	1	Trial2BackFr	Y	3	0	1000	0	102	08:02:20	506658	0	0	0	0	0	0	0	0	0	0	0	0	0	0	0	0	0	0	0	0	0	0		1	0	0	0	0	0	0	0
021213	08:02:20	1	Memory1R6moFr	ScoreFr	5	Done	4017	0	102	08:02:20	866827	0	0	0	0	0	0	0	0	0	0	0	0	0	0	0	0	0	0	0	0	0	0		1	0	0	0	0	0	0	0
021213	08:02:20	1	Memory2R6moFr	ScoreFr2	5	Done	4844	0	102	08:02:20	893701	0	0	0	0	0	0	0	0	0	0	0	0	0	0	0	0	0	0	0	0	0	0		1	0	0	0	0	0	0	0
021213	08:02:20	1	Memory3R6moFr	ScoreFr3	5	Done	3191	0	102	08:02:20	926339	0	0	0	0	0	0	0	0	0	0	0	0	0	0	0	0	0	0	0	0	0	0		1	0	0	0	0	0	0	0
021213	08:02:20	1	LoriaFrLH3	Stop	6		3661	0	102	08:02:20	1156189	0	0	0	0	0	0	0	0	0	0	0	0	0	0	0	0	0	0	0	0	0	0		1	0	0	0	0	0	0	0
021213	08:02:20	1	FrTrail	Trails	7	1Trails	2428	0	102	08:02:20	1161254	0	0	0	0	0	0	0	0	0	0	0	0	0	0	0	0	0	0	0	0	0	0		1	0	0	0	0	0	0	0
021213	08:02:20	1	Serial7Fr6mo	Serial7Fr6mo	8		1411	0	102	08:02:20	1165152	0	0	0	0	0	0	0	0	0	0	0	0	0	0	0	0	0	0	0	0	0	0		1	0	0	0	0	0	0	0
021213	08:02:20	1	Serial7Fr6mo	Serial7Fr6mo	8		430	0	102	08:02:20	1165604	0	0	0	0	0	0	0	0	0	0	0	0	0	0	0	0	0	0	0	0	0	0		1	0	0	0	0	0	0	0
021213	08:02:20	1	Serial7Fr6mo	Serial7Fr6mo	8		385	0	102	08:02:20	1166019	0	0	0	0	0	0	0	0	0	0	0	0	0	0	0	0	0	0	0	0	0	0		1	0	0	0	0	0	0	0
021213	08:02:20	1	Serial7Fr6mo	Serial7Fr6mo	8		487	0	102	08:02:20	1166535	0	0	0	0	0	0	0	0	0	0	0	0	0	0	0	0	0	0	0	0	0	0		1	0	0	0	0	0	0	0
021213	08:02:20	1	Serial7Fr6mo	Serial7Fr6mo	8		658	0	102	08:02:20	1167218	0	0	0	0	0	0	0	0	0	0	0	0	0	0	0	0	0	0	0	0	0	0		1	0	0	0	0	0	0	0
021213	08:02:20	1	corsiblockFrFwrd	recallseqFrFwrd	9	doneCorsiFr	3042	0	102	08:02:20	1177031	0	0	0	0	0	0	0	0	0	0	0	0	0	0	0	0	0	0	0	0	0	0		1	0	0	0	0	0	0	0
021213	08:02:20	1	corsiblockFrFwrd	recallseqFrFwrd	9	doneCorsiFr	8736	0	102	08:02:20	1190960	0	0	0	0	0	0	0	0	0	0	0	0	0	0	0	0	0	0	0	0	0	0		1	0	0	0	0	0	0	0
021213	08:02:20	1	corsiblockFrRev	recallseqFrRev	10	doneCorsiFr	2133	0	102	08:02:20	1200773	0	0	0	0	0	0	0	0	0	0	0	0	0	0	0	0	0	0	0	0	0	0		1	0	0	0	0	0	0	0
021213	08:02:20	1	corsiblockFrRev	recallseqFrRev	10	doneCorsiFr	108258	0	102	08:02:20	1314215	0	0	0	0	0	0	0	0	0	0	0	0	0	0	0	0	0	0	0	0	0	0		1	0	0	0	0	0	0	0
021213	08:02:20	1	testFr6mo	WordsFr6mo	11	1Fr6mo	47345	0	102	08:02:20	1364213	0	3	0	0	0	0	0	0	0	0	0	0	0	0	0	0	0	0	0	0	0	0		1	0	0	0	0	0	0	0
021213	08:02:20	1	testFr6mo	WordsFr6mo	11	2Fr6mo	565	0	102	08:02:20	1364880	0	3	3	0	0	0	0	0	0	0	0	0	0	0	0	0	0	0	0	0	0	0		1	0	0	0	0	0	0	0
021213	08:02:20	1	testFr6mo	WordsFr6mo	11	3Fr6mo	496	0	102	08:02:20	1365463	0	3	3	3	0	0	0	0	0	0	0	0	0	0	0	0	0	0	0	0	0	0		1	0	0	0	0	0	0	0
021213	08:02:20	1	testFr6mo	WordsFr6mo	11	4Fr6mo	453	0	102	08:02:20	1366013	0	3	3	3	3	0	0	0	0	0	0	0	0	0	0	0	0	0	0	0	0	0		1	0	0	0	0	0	0	0
021213	08:02:20	1	testFr6mo	WordsFr6mo	11	5Fr6mo	381	0	102	08:02:20	1366496	0	3	3	3	3	3	0	0	0	0	0	0	0	0	0	0	0	0	0	0	0	0		1	0	0	0	0	0	0	0
021213	08:02:20	1	testFr6mo	WordsFr6mo	11	6Fr6mo	432	0	102	08:02:20	1367029	0	3	3	3	3	3	3	0	0	0	0	0	0	0	0	0	0	0	0	0	0	0		1	0	0	0	0	0	0	0
021213	08:02:20	1	testFr6mo	WordsFr6mo	11	7Fr6mo	396	0	102	08:02:20	1367512	0	3	3	3	3	3	3	3	0	0	0	0	0	0	0	0	0	0	0	0	0	0		1	0	0	0	0	0	0	0
021213	08:02:20	1	testFr6mo	WordsFr6mo	11	8Fr6mo	530	0	102	08:02:20	1368131	0	3	3	3	3	3	3	3	3	0	0	0	0	0	0	0	0	0	0	0	0	0		1	0	0	0	0	0	0	0
021213	08:02:20	1	testFr6mo	WordsFr6mo	11	DoneFr6mo	805	0	102	08:02:20	1369028	0	3	3	3	3	3	3	3	3	0	0	0	0	0	0	0	0	0	0	0	0	0		1	0	0	0	0	0	0	0
021213	08:02:20	1	DigitSpanFwrdFr6mo	Score1FwrdFr6mo	12	DS2	17189	0	102	08:02:20	1393520	0	3	3	3	3	3	3	3	3	0	0	0	0	0	0	0	0	0	0	0	0	0		1	0	0	0	0	0	0	0
021213	08:02:20	1	DigitSpanFwrdFr6mo	Gate1FwrdFr6mo	12	0	1	0	102	08:02:20	1393527	0	3	3	3	3	3	3	3	3	0	0	0	0	0	0	0	0	0	0	0	0	0		1	0	0	0	0	0	0	0
021213	08:02:20	1	DigitSpanFwrdFr6mo	Score11FwrdFr6mo	12	DS2	2256	0	102	08:02:20	1399884	0	3	3	3	3	3	3	3	3	0	0	0	0	0	0	0	0	0	0	0	0	0		1	0	0	0	0	0	0	0
021213	08:02:20	1	DigitSpanFr6mo	Score1Fr6mo	13	DS2	3925	0	102	08:02:20	1408181	0	3	3	3	3	3	3	3	3	0	0	0	0	0	0	0	0	0	0	0	0	0		1	0	0	0	0	0	0	0
021213	08:02:20	1	DigitSpanFr6mo	Gate1Fr6mo	13	0	1	0	102	08:02:20	1408186	0	3	3	3	3	3	3	3	3	0	0	0	0	0	0	0	0	0	0	0	0	0		1	0	0	0	0	0	0	0
021213	08:02:20	1	DigitSpanFr6mo	Score11Fr6mo	13	DS2	4053	0	102	08:02:20	1414695	0	3	3	3	3	3	3	3	3	0	0	0	0	0	0	0	0	0	0	0	0	0		1	0	0	0	0	0	0	0
021213	08:02:20	1	Trial	ResponseIL	14	0	175	0	102	08:02:20	1700757	0	3	3	3	3	3	3	3	3	0	0	0	0	0	0	0	0	0	0	0	0	0		1	0	0	0	0	0	0	0
021213	08:02:20	1	Trial	IncongruentLeft	14	0	1000	0	102	08:02:20	1701807	0	3	3	3	3	3	3	3	3	0	0	0	0	0	0	0	0	0	0	0	0	0		1	0	0	0	0	0	0	0
021213	08:02:20	1	Trial	ResponseCR	14	0	175	0	102	08:02:20	1702573	0	3	3	3	3	3	3	3	3	0	0	0	0	0	0	0	0	0	0	0	0	0		1	0	0	0	0	0	0	0
021213	08:02:20	1	Trial	CongruentRight	14	0	1000	0	102	08:02:20	1703623	0	3	3	3	3	3	3	3	3	0	0	0	0	0	0	0	0	0	0	0	0	0		1	0	0	0	0	0	0	0
021213	08:02:20	1	Trial	ResponseIR	14	0	175	0	102	08:02:20	1704389	0	3	3	3	3	3	3	3	3	0	0	0	0	0	0	0	0	0	0	0	0	0		1	0	0	0	0	0	0	0
021213	08:02:20	1	Trial	IncongruentRight	14	0	1000	0	102	08:02:20	1705439	0	3	3	3	3	3	3	3	3	0	0	0	0	0	0	0	0	0	0	0	0	0		1	0	0	0	0	0	0	0
021213	08:02:20	1	Trial	ResponseCL	14	0	175	0	102	08:02:20	1706205	0	3	3	3	3	3	3	3	3	0	0	0	0	0	0	0	0	0	0	0	0	0		1	0	0	0	0	0	0	0
021213	08:02:20	1	Trial	CongruentLeft	14	0	1000	0	102	08:02:20	1707255	0	3	3	3	3	3	3	3	3	0	0	0	0	0	0	0	0	0	0	0	0	0		1	0	0	0	0	0	0	0
021213	08:02:20	1	Trial	ResponseCR	14	0	175	0	102	08:02:20	1708021	0	3	3	3	3	3	3	3	3	0	0	0	0	0	0	0	0	0	0	0	0	0		1	0	0	0	0	0	0	0
021213	08:02:20	1	Trial	CongruentRight	14	0	1000	0	102	08:02:20	1709071	0	3	3	3	3	3	3	3	3	0	0	0	0	0	0	0	0	0	0	0	0	0		1	0	0	0	0	0	0	0
021213	08:02:20	1	Trial	ResponseIR	14	0	175	0	102	08:02:20	1709837	0	3	3	3	3	3	3	3	3	0	0	0	0	0	0	0	0	0	0	0	0	0		1	0	0	0	0	0	0	0
021213	08:02:20	1	Trial	IncongruentRight	14	0	1000	0	102	08:02:20	1710887	0	3	3	3	3	3	3	3	3	0	0	0	0	0	0	0	0	0	0	0	0	0		1	0	0	0	0	0	0	0
021213	08:02:20	1	Trial	ResponseCL	14	0	175	0	102	08:02:20	1711654	0	3	3	3	3	3	3	3	3	0	0	0	0	0	0	0	0	0	0	0	0	0		1	0	0	0	0	0	0	0
021213	08:02:20	1	Trial	CongruentLeft	14	0	1000	0	102	08:02:20	1712703	0	3	3	3	3	3	3	3	3	0	0	0	0	0	0	0	0	0	0	0	0	0		1	0	0	0	0	0	0	0
021213	08:02:20	1	Trial	ResponseIL	14	0	175	0	102	08:02:20	1713470	0	3	3	3	3	3	3	3	3	0	0	0	0	0	0	0	0	0	0	0	0	0		1	0	0	0	0	0	0	0
021213	08:02:20	1	Trial	IncongruentLeft	14	0	1000	0	102	08:02:20	1714519	0	3	3	3	3	3	3	3	3	0	0	0	0	0	0	0	0	0	0	0	0	0		1	0	0	0	0	0	0	0
021213	08:02:20	1	Trial	ResponseIL	14	0	175	0	102	08:02:20	1715286	0	3	3	3	3	3	3	3	3	0	0	0	0	0	0	0	0	0	0	0	0	0		1	0	0	0	0	0	0	0
021213	08:02:20	1	Trial	IncongruentLeft	14	0	1000	0	102	08:02:20	1716335	0	3	3	3	3	3	3	3	3	0	0	0	0	0	0	0	0	0	0	0	0	0		1	0	0	0	0	0	0	0
021213	08:02:20	1	Trial	ResponseCR	14	0	175	0	102	08:02:20	1717102	0	3	3	3	3	3	3	3	3	0	0	0	0	0	0	0	0	0	0	0	0	0		1	0	0	0	0	0	0	0
021213	08:02:20	1	Trial	CongruentRight	14	0	1000	0	102	08:02:20	1718151	0	3	3	3	3	3	3	3	3	0	0	0	0	0	0	0	0	0	0	0	0	0		1	0	0	0	0	0	0	0
021213	08:02:20	1	Trial	ResponseIR	14	0	175	0	102	08:02:20	1718918	0	3	3	3	3	3	3	3	3	0	0	0	0	0	0	0	0	0	0	0	0	0		1	0	0	0	0	0	0	0
021213	08:02:20	1	Trial	IncongruentRight	14	0	1000	0	102	08:02:20	1719967	0	3	3	3	3	3	3	3	3	0	0	0	0	0	0	0	0	0	0	0	0	0		1	0	0	0	0	0	0	0
021213	08:02:20	1	Trial	ResponseCL	14	0	175	0	102	08:02:20	1720734	0	3	3	3	3	3	3	3	3	0	0	0	0	0	0	0	0	0	0	0	0	0		1	0	0	0	0	0	0	0
021213	08:02:20	1	Trial	CongruentLeft	14	0	1000	0	102	08:02:20	1721783	0	3	3	3	3	3	3	3	3	0	0	0	0	0	0	0	0	0	0	0	0	0		1	0	0	0	0	0	0	0
021213	08:02:20	1	Trial	ResponseCR	14	0	175	0	102	08:02:20	1722550	0	3	3	3	3	3	3	3	3	0	0	0	0	0	0	0	0	0	0	0	0	0		1	0	0	0	0	0	0	0
021213	08:02:20	1	Trial	CongruentRight	14	0	1000	0	102	08:02:20	1723599	0	3	3	3	3	3	3	3	3	0	0	0	0	0	0	0	0	0	0	0	0	0		1	0	0	0	0	0	0	0
021213	08:02:20	1	Trial	ResponseIL	14	0	175	0	102	08:02:20	1724366	0	3	3	3	3	3	3	3	3	0	0	0	0	0	0	0	0	0	0	0	0	0		1	0	0	0	0	0	0	0
021213	08:02:20	1	Trial	IncongruentLeft	14	0	1000	0	102	08:02:20	1725415	0	3	3	3	3	3	3	3	3	0	0	0	0	0	0	0	0	0	0	0	0	0		1	0	0	0	0	0	0	0
021213	08:02:20	1	Trial	ResponseIR	14	0	175	0	102	08:02:20	1726182	0	3	3	3	3	3	3	3	3	0	0	0	0	0	0	0	0	0	0	0	0	0		1	0	0	0	0	0	0	0
021213	08:02:20	1	Trial	IncongruentRight	14	0	1000	0	102	08:02:20	1727231	0	3	3	3	3	3	3	3	3	0	0	0	0	0	0	0	0	0	0	0	0	0		1	0	0	0	0	0	0	0
021213	08:02:20	1	Trial	ResponseCR	14	0	175	0	102	08:02:20	1727998	0	3	3	3	3	3	3	3	3	0	0	0	0	0	0	0	0	0	0	0	0	0		1	0	0	0	0	0	0	0
021213	08:02:20	1	Trial	CongruentRight	14	0	1000	0	102	08:02:20	1729047	0	3	3	3	3	3	3	3	3	0	0	0	0	0	0	0	0	0	0	0	0	0		1	0	0	0	0	0	0	0
021213	08:02:20	1	Trial	ResponseCL	14	0	175	0	102	08:02:20	1729814	0	3	3	3	3	3	3	3	3	0	0	0	0	0	0	0	0	0	0	0	0	0		1	0	0	0	0	0	0	0
021213	08:02:20	1	Trial	CongruentLeft	14	0	1000	0	102	08:02:20	1730863	0	3	3	3	3	3	3	3	3	0	0	0	0	0	0	0	0	0	0	0	0	0		1	0	0	0	0	0	0	0
021213	08:02:20	1	Trial	ResponseCR	14	0	175	0	102	08:02:20	1731630	0	3	3	3	3	3	3	3	3	0	0	0	0	0	0	0	0	0	0	0	0	0		1	0	0	0	0	0	0	0
021213	08:02:20	1	Trial	CongruentRight	14	0	1000	0	102	08:02:20	1732679	0	3	3	3	3	3	3	3	3	0	0	0	0	0	0	0	0	0	0	0	0	0		1	0	0	0	0	0	0	0
021213	08:02:20	1	Trial	ResponseIR	14	0	175	0	102	08:02:20	1733446	0	3	3	3	3	3	3	3	3	0	0	0	0	0	0	0	0	0	0	0	0	0		1	0	0	0	0	0	0	0
021213	08:02:20	1	Trial	IncongruentRight	14	0	1000	0	102	08:02:20	1734495	0	3	3	3	3	3	3	3	3	0	0	0	0	0	0	0	0	0	0	0	0	0		1	0	0	0	0	0	0	0
021213	08:02:20	1	Trial	ResponseIL	14	0	175	0	102	08:02:20	1735262	0	3	3	3	3	3	3	3	3	0	0	0	0	0	0	0	0	0	0	0	0	0		1	0	0	0	0	0	0	0
021213	08:02:20	1	Trial	IncongruentLeft	14	0	1000	0	102	08:02:20	1736311	0	3	3	3	3	3	3	3	3	0	0	0	0	0	0	0	0	0	0	0	0	0		1	0	0	0	0	0	0	0
021213	08:02:20	1	Trial	ResponseIL	14	0	175	0	102	08:02:20	1737078	0	3	3	3	3	3	3	3	3	0	0	0	0	0	0	0	0	0	0	0	0	0		1	0	0	0	0	0	0	0
021213	08:02:20	1	Trial	IncongruentLeft	14	0	1000	0	102	08:02:20	1738127	0	3	3	3	3	3	3	3	3	0	0	0	0	0	0	0	0	0	0	0	0	0		1	0	0	0	0	0	0	0
021213	08:02:20	1	Trial	ResponseCL	14	0	175	0	102	08:02:20	1738894	0	3	3	3	3	3	3	3	3	0	0	0	0	0	0	0	0	0	0	0	0	0		1	0	0	0	0	0	0	0
021213	08:02:20	1	Trial	CongruentLeft	14	0	1000	0	102	08:02:20	1739943	0	3	3	3	3	3	3	3	3	0	0	0	0	0	0	0	0	0	0	0	0	0		1	0	0	0	0	0	0	0
021213	08:02:20	1	Trial	ResponseCR	14	0	175	0	102	08:02:20	1740710	0	3	3	3	3	3	3	3	3	0	0	0	0	0	0	0	0	0	0	0	0	0		1	0	0	0	0	0	0	0
021213	08:02:20	1	Trial	CongruentRight	14	0	1000	0	102	08:02:20	1741759	0	3	3	3	3	3	3	3	3	0	0	0	0	0	0	0	0	0	0	0	0	0		1	0	0	0	0	0	0	0
021213	08:02:20	1	Trial	ResponseIL	14	0	175	0	102	08:02:20	1742526	0	3	3	3	3	3	3	3	3	0	0	0	0	0	0	0	0	0	0	0	0	0		1	0	0	0	0	0	0	0
021213	08:02:20	1	Trial	IncongruentLeft	14	0	1000	0	102	08:02:20	1743575	0	3	3	3	3	3	3	3	3	0	0	0	0	0	0	0	0	0	0	0	0	0		1	0	0	0	0	0	0	0
021213	08:02:20	1	Trial	ResponseIR	14	0	175	0	102	08:02:20	1744342	0	3	3	3	3	3	3	3	3	0	0	0	0	0	0	0	0	0	0	0	0	0		1	0	0	0	0	0	0	0
021213	08:02:20	1	Trial	IncongruentRight	14	0	1000	0	102	08:02:20	1745391	0	3	3	3	3	3	3	3	3	0	0	0	0	0	0	0	0	0	0	0	0	0		1	0	0	0	0	0	0	0
021213	08:02:20	1	Trial	ResponseCR	14	0	175	0	102	08:02:20	1746158	0	3	3	3	3	3	3	3	3	0	0	0	0	0	0	0	0	0	0	0	0	0		1	0	0	0	0	0	0	0
021213	08:02:20	1	Trial	CongruentRight	14	0	1000	0	102	08:02:20	1747207	0	3	3	3	3	3	3	3	3	0	0	0	0	0	0	0	0	0	0	0	0	0		1	0	0	0	0	0	0	0
021213	08:02:20	1	Trial	ResponseCL	14	0	175	0	102	08:02:20	1747974	0	3	3	3	3	3	3	3	3	0	0	0	0	0	0	0	0	0	0	0	0	0		1	0	0	0	0	0	0	0
021213	08:02:20	1	Trial	CongruentLeft	14	0	1000	0	102	08:02:20	1749023	0	3	3	3	3	3	3	3	3	0	0	0	0	0	0	0	0	0	0	0	0	0		1	0	0	0	0	0	0	0
021213	08:02:20	1	Trial	ResponseIR	14	0	175	0	102	08:02:20	1749790	0	3	3	3	3	3	3	3	3	0	0	0	0	0	0	0	0	0	0	0	0	0		1	0	0	0	0	0	0	0
021213	08:02:20	1	Trial	IncongruentRight	14	0	1000	0	102	08:02:20	1750839	0	3	3	3	3	3	3	3	3	0	0	0	0	0	0	0	0	0	0	0	0	0		1	0	0	0	0	0	0	0
021213	08:02:20	1	Trial	ResponseIL	14	0	175	0	102	08:02:20	1751606	0	3	3	3	3	3	3	3	3	0	0	0	0	0	0	0	0	0	0	0	0	0		1	0	0	0	0	0	0	0
021213	08:02:20	1	Trial	IncongruentLeft	14	0	1000	0	102	08:02:20	1752655	0	3	3	3	3	3	3	3	3	0	0	0	0	0	0	0	0	0	0	0	0	0		1	0	0	0	0	0	0	0
021213	08:02:20	1	Trial	ResponseIR	14	0	175	0	102	08:02:20	1753422	0	3	3	3	3	3	3	3	3	0	0	0	0	0	0	0	0	0	0	0	0	0		1	0	0	0	0	0	0	0
021213	08:02:20	1	Trial	IncongruentRight	14	0	1000	0	102	08:02:20	1754471	0	3	3	3	3	3	3	3	3	0	0	0	0	0	0	0	0	0	0	0	0	0		1	0	0	0	0	0	0	0
021213	08:02:20	1	Trial	ResponseCR	14	0	175	0	102	08:02:20	1755238	0	3	3	3	3	3	3	3	3	0	0	0	0	0	0	0	0	0	0	0	0	0		1	0	0	0	0	0	0	0
021213	08:02:20	1	Trial	CongruentRight	14	0	1000	0	102	08:02:20	1756287	0	3	3	3	3	3	3	3	3	0	0	0	0	0	0	0	0	0	0	0	0	0		1	0	0	0	0	0	0	0
021213	08:02:20	1	Trial	ResponseIL	14	0	175	0	102	08:02:20	1757054	0	3	3	3	3	3	3	3	3	0	0	0	0	0	0	0	0	0	0	0	0	0		1	0	0	0	0	0	0	0
021213	08:02:20	1	Trial	IncongruentLeft	14	0	1000	0	102	08:02:20	1758103	0	3	3	3	3	3	3	3	3	0	0	0	0	0	0	0	0	0	0	0	0	0		1	0	0	0	0	0	0	0
021213	08:02:20	1	Trial	ResponseCL	14	0	175	0	102	08:02:20	1758870	0	3	3	3	3	3	3	3	3	0	0	0	0	0	0	0	0	0	0	0	0	0		1	0	0	0	0	0	0	0
021213	08:02:20	1	Trial	CongruentLeft	14	0	1000	0	102	08:02:20	1759919	0	3	3	3	3	3	3	3	3	0	0	0	0	0	0	0	0	0	0	0	0	0		1	0	0	0	0	0	0	0
021213	08:02:20	1	Trial	ResponseCR	14	0	175	0	102	08:02:20	1760686	0	3	3	3	3	3	3	3	3	0	0	0	0	0	0	0	0	0	0	0	0	0		1	0	0	0	0	0	0	0
021213	08:02:20	1	Trial	CongruentRight	14	0	1000	0	102	08:02:20	1761735	0	3	3	3	3	3	3	3	3	0	0	0	0	0	0	0	0	0	0	0	0	0		1	0	0	0	0	0	0	0
021213	08:02:20	1	Trial	ResponseIL	14	0	175	0	102	08:02:20	1762502	0	3	3	3	3	3	3	3	3	0	0	0	0	0	0	0	0	0	0	0	0	0		1	0	0	0	0	0	0	0
021213	08:02:20	1	Trial	IncongruentLeft	14	0	1000	0	102	08:02:20	1763551	0	3	3	3	3	3	3	3	3	0	0	0	0	0	0	0	0	0	0	0	0	0		1	0	0	0	0	0	0	0
021213	08:02:20	1	Trial	ResponseIR	14	0	175	0	102	08:02:20	1764318	0	3	3	3	3	3	3	3	3	0	0	0	0	0	0	0	0	0	0	0	0	0		1	0	0	0	0	0	0	0
021213	08:02:20	1	Trial	IncongruentRight	14	0	1000	0	102	08:02:20	1765367	0	3	3	3	3	3	3	3	3	0	0	0	0	0	0	0	0	0	0	0	0	0		1	0	0	0	0	0	0	0
021213	08:02:20	1	Trial	ResponseIR	14	0	175	0	102	08:02:20	1766134	0	3	3	3	3	3	3	3	3	0	0	0	0	0	0	0	0	0	0	0	0	0		1	0	0	0	0	0	0	0
021213	08:02:20	1	Trial	IncongruentRight	14	0	1000	0	102	08:02:20	1767183	0	3	3	3	3	3	3	3	3	0	0	0	0	0	0	0	0	0	0	0	0	0		1	0	0	0	0	0	0	0
021213	08:02:20	1	Trial	ResponseCL	14	0	175	0	102	08:02:20	1767950	0	3	3	3	3	3	3	3	3	0	0	0	0	0	0	0	0	0	0	0	0	0		1	0	0	0	0	0	0	0
021213	08:02:20	1	Trial	CongruentLeft	14	0	1000	0	102	08:02:20	1768999	0	3	3	3	3	3	3	3	3	0	0	0	0	0	0	0	0	0	0	0	0	0		1	0	0	0	0	0	0	0
021213	08:02:20	1	Trial	ResponseIL	14	0	175	0	102	08:02:20	1769766	0	3	3	3	3	3	3	3	3	0	0	0	0	0	0	0	0	0	0	0	0	0		1	0	0	0	0	0	0	0
021213	08:02:20	1	Trial	IncongruentLeft	14	0	1000	0	102	08:02:20	1770815	0	3	3	3	3	3	3	3	3	0	0	0	0	0	0	0	0	0	0	0	0	0		1	0	0	0	0	0	0	0
021213	08:02:20	1	Trial	ResponseCR	14	0	175	0	102	08:02:20	1771582	0	3	3	3	3	3	3	3	3	0	0	0	0	0	0	0	0	0	0	0	0	0		1	0	0	0	0	0	0	0
021213	08:02:20	1	Trial	CongruentRight	14	0	1000	0	102	08:02:20	1772631	0	3	3	3	3	3	3	3	3	0	0	0	0	0	0	0	0	0	0	0	0	0		1	0	0	0	0	0	0	0
021213	08:02:20	1	Trial	ResponseCL	14	0	175	0	102	08:02:20	1773398	0	3	3	3	3	3	3	3	3	0	0	0	0	0	0	0	0	0	0	0	0	0		1	0	0	0	0	0	0	0
021213	08:02:20	1	Trial	CongruentLeft	14	0	1000	0	102	08:02:20	1774447	0	3	3	3	3	3	3	3	3	0	0	0	0	0	0	0	0	0	0	0	0	0		1	0	0	0	0	0	0	0
021213	08:02:20	1	Trial	ResponseIR	14	0	175	0	102	08:02:20	1775214	0	3	3	3	3	3	3	3	3	0	0	0	0	0	0	0	0	0	0	0	0	0		1	0	0	0	0	0	0	0
021213	08:02:20	1	Trial	IncongruentRight	14	0	1000	0	102	08:02:20	1776263	0	3	3	3	3	3	3	3	3	0	0	0	0	0	0	0	0	0	0	0	0	0		1	0	0	0	0	0	0	0
021213	08:02:20	1	Trial	ResponseCR	14	0	175	0	102	08:02:20	1777030	0	3	3	3	3	3	3	3	3	0	0	0	0	0	0	0	0	0	0	0	0	0		1	0	0	0	0	0	0	0
021213	08:02:20	1	Trial	CongruentRight	14	0	1000	0	102	08:02:20	1778079	0	3	3	3	3	3	3	3	3	0	0	0	0	0	0	0	0	0	0	0	0	0		1	0	0	0	0	0	0	0
021213	08:02:20	1	Trial	ResponseIL	14	0	175	0	102	08:02:20	1778846	0	3	3	3	3	3	3	3	3	0	0	0	0	0	0	0	0	0	0	0	0	0		1	0	0	0	0	0	0	0
021213	08:02:20	1	Trial	IncongruentLeft	14	0	1000	0	102	08:02:20	1779896	0	3	3	3	3	3	3	3	3	0	0	0	0	0	0	0	0	0	0	0	0	0		1	0	0	0	0	0	0	0
021213	08:02:20	1	Trial	ResponseCL	14	0	175	0	102	08:02:20	1780662	0	3	3	3	3	3	3	3	3	0	0	0	0	0	0	0	0	0	0	0	0	0		1	0	0	0	0	0	0	0
021213	08:02:20	1	Trial	CongruentLeft	14	0	1000	0	102	08:02:20	1781712	0	3	3	3	3	3	3	3	3	0	0	0	0	0	0	0	0	0	0	0	0	0		1	0	0	0	0	0	0	0
021213	08:02:20	1	Trial	ResponseIL	14	0	175	0	102	08:02:20	1782478	0	3	3	3	3	3	3	3	3	0	0	0	0	0	0	0	0	0	0	0	0	0		1	0	0	0	0	0	0	0
021213	08:02:20	1	Trial	IncongruentLeft	14	0	1000	0	102	08:02:20	1783528	0	3	3	3	3	3	3	3	3	0	0	0	0	0	0	0	0	0	0	0	0	0		1	0	0	0	0	0	0	0
021213	08:02:20	1	Trial	ResponseIR	14	0	175	0	102	08:02:20	1784294	0	3	3	3	3	3	3	3	3	0	0	0	0	0	0	0	0	0	0	0	0	0		1	0	0	0	0	0	0	0
021213	08:02:20	1	Trial	IncongruentRight	14	0	1000	0	102	08:02:20	1785344	0	3	3	3	3	3	3	3	3	0	0	0	0	0	0	0	0	0	0	0	0	0		1	0	0	0	0	0	0	0
021213	08:02:20	1	Trial	ResponseCR	14	0	175	0	102	08:02:20	1786110	0	3	3	3	3	3	3	3	3	0	0	0	0	0	0	0	0	0	0	0	0	0		1	0	0	0	0	0	0	0
021213	08:02:20	1	Trial	CongruentRight	14	0	1000	0	102	08:02:20	1787160	0	3	3	3	3	3	3	3	3	0	0	0	0	0	0	0	0	0	0	0	0	0		1	0	0	0	0	0	0	0
021213	08:02:20	1	Trial	ResponseCL	14	0	175	0	102	08:02:20	1787926	0	3	3	3	3	3	3	3	3	0	0	0	0	0	0	0	0	0	0	0	0	0		1	0	0	0	0	0	0	0
021213	08:02:20	1	Trial	CongruentLeft	14	0	1000	0	102	08:02:20	1788975	0	3	3	3	3	3	3	3	3	0	0	0	0	0	0	0	0	0	0	0	0	0		1	0	0	0	0	0	0	0
021213	08:02:20	1	Trial	ResponseCL	14	0	175	0	102	08:02:20	1789742	0	3	3	3	3	3	3	3	3	0	0	0	0	0	0	0	0	0	0	0	0	0		1	0	0	0	0	0	0	0
021213	08:02:20	1	Trial	CongruentLeft	14	0	1000	0	102	08:02:20	1790792	0	3	3	3	3	3	3	3	3	0	0	0	0	0	0	0	0	0	0	0	0	0		1	0	0	0	0	0	0	0
021213	08:02:20	1	Trial	ResponseIR	14	0	175	0	102	08:02:20	1791558	0	3	3	3	3	3	3	3	3	0	0	0	0	0	0	0	0	0	0	0	0	0		1	0	0	0	0	0	0	0
021213	08:02:20	1	Trial	IncongruentRight	14	0	1000	0	102	08:02:20	1792607	0	3	3	3	3	3	3	3	3	0	0	0	0	0	0	0	0	0	0	0	0	0		1	0	0	0	0	0	0	0
021213	08:02:20	1	Trial	ResponseIL	14	0	175	0	102	08:02:20	1793374	0	3	3	3	3	3	3	3	3	0	0	0	0	0	0	0	0	0	0	0	0	0		1	0	0	0	0	0	0	0
021213	08:02:20	1	Trial	IncongruentLeft	14	0	1000	0	102	08:02:20	1794424	0	3	3	3	3	3	3	3	3	0	0	0	0	0	0	0	0	0	0	0	0	0		1	0	0	0	0	0	0	0
021213	08:02:20	1	Trial	ResponseIR	14	0	175	0	102	08:02:20	1795190	0	3	3	3	3	3	3	3	3	0	0	0	0	0	0	0	0	0	0	0	0	0		1	0	0	0	0	0	0	0
021213	08:02:20	1	Trial	IncongruentRight	14	0	1000	0	102	08:02:20	1796240	0	3	3	3	3	3	3	3	3	0	0	0	0	0	0	0	0	0	0	0	0	0		1	0	0	0	0	0	0	0
021213	08:02:20	1	Trial	ResponseCR	14	0	175	0	102	08:02:20	1797006	0	3	3	3	3	3	3	3	3	0	0	0	0	0	0	0	0	0	0	0	0	0		1	0	0	0	0	0	0	0
021213	08:02:20	1	Trial	CongruentRight	14	0	1000	0	102	08:02:20	1798056	0	3	3	3	3	3	3	3	3	0	0	0	0	0	0	0	0	0	0	0	0	0		1	0	0	0	0	0	0	0
021213	08:02:20	1	Trial	ResponseCR	14	0	175	0	102	08:02:20	1798822	0	3	3	3	3	3	3	3	3	0	0	0	0	0	0	0	0	0	0	0	0	0		1	0	0	0	0	0	0	0
021213	08:02:20	1	Trial	CongruentRight	14	0	1000	0	102	08:02:20	1799871	0	3	3	3	3	3	3	3	3	0	0	0	0	0	0	0	0	0	0	0	0	0		1	0	0	0	0	0	0	0
021213	08:02:20	1	Trial	ResponseIL	14	0	175	0	102	08:02:20	1800638	0	3	3	3	3	3	3	3	3	0	0	0	0	0	0	0	0	0	0	0	0	0		1	0	0	0	0	0	0	0
021213	08:02:20	1	Trial	IncongruentLeft	14	0	1000	0	102	08:02:20	1801688	0	3	3	3	3	3	3	3	3	0	0	0	0	0	0	0	0	0	0	0	0	0		1	0	0	0	0	0	0	0
021213	08:02:20	1	Trial	ResponseCL	14	0	175	0	102	08:02:20	1802454	0	3	3	3	3	3	3	3	3	0	0	0	0	0	0	0	0	0	0	0	0	0		1	0	0	0	0	0	0	0
021213	08:02:20	1	Trial	CongruentLeft	14	0	1000	0	102	08:02:20	1803504	0	3	3	3	3	3	3	3	3	0	0	0	0	0	0	0	0	0	0	0	0	0		1	0	0	0	0	0	0	0
021213	08:02:20	1	Trial	ResponseCR	14	0	175	0	102	08:02:20	1804270	0	3	3	3	3	3	3	3	3	0	0	0	0	0	0	0	0	0	0	0	0	0		1	0	0	0	0	0	0	0
021213	08:02:20	1	Trial	CongruentRight	14	0	1000	0	102	08:02:20	1805320	0	3	3	3	3	3	3	3	3	0	0	0	0	0	0	0	0	0	0	0	0	0		1	0	0	0	0	0	0	0
021213	08:02:20	1	Trial	ResponseCL	14	0	175	0	102	08:02:20	1806086	0	3	3	3	3	3	3	3	3	0	0	0	0	0	0	0	0	0	0	0	0	0		1	0	0	0	0	0	0	0
021213	08:02:20	1	Trial	CongruentLeft	14	0	1000	0	102	08:02:20	1807136	0	3	3	3	3	3	3	3	3	0	0	0	0	0	0	0	0	0	0	0	0	0		1	0	0	0	0	0	0	0
021213	08:02:20	1	Trial	ResponseIR	14	0	175	0	102	08:02:20	1807902	0	3	3	3	3	3	3	3	3	0	0	0	0	0	0	0	0	0	0	0	0	0		1	0	0	0	0	0	0	0
021213	08:02:20	1	Trial	IncongruentRight	14	0	1000	0	102	08:02:20	1808952	0	3	3	3	3	3	3	3	3	0	0	0	0	0	0	0	0	0	0	0	0	0		1	0	0	0	0	0	0	0
021213	08:02:20	1	Trial	ResponseCR	14	0	175	0	102	08:02:20	1809718	0	3	3	3	3	3	3	3	3	0	0	0	0	0	0	0	0	0	0	0	0	0		1	0	0	0	0	0	0	0
021213	08:02:20	1	Trial	CongruentRight	14	0	1000	0	102	08:02:20	1810767	0	3	3	3	3	3	3	3	3	0	0	0	0	0	0	0	0	0	0	0	0	0		1	0	0	0	0	0	0	0
021213	08:02:20	1	Trial	ResponseCL	14	0	175	0	102	08:02:20	1811534	0	3	3	3	3	3	3	3	3	0	0	0	0	0	0	0	0	0	0	0	0	0		1	0	0	0	0	0	0	0
021213	08:02:20	1	Trial	CongruentLeft	14	0	1000	0	102	08:02:20	1812584	0	3	3	3	3	3	3	3	3	0	0	0	0	0	0	0	0	0	0	0	0	0		1	0	0	0	0	0	0	0
021213	08:02:20	1	Trial	ResponseIL	14	0	175	0	102	08:02:20	1813350	0	3	3	3	3	3	3	3	3	0	0	0	0	0	0	0	0	0	0	0	0	0		1	0	0	0	0	0	0	0
021213	08:02:20	1	Trial	IncongruentLeft	14	0	1000	0	102	08:02:20	1814399	0	3	3	3	3	3	3	3	3	0	0	0	0	0	0	0	0	0	0	0	0	0		1	0	0	0	0	0	0	0
021213	08:02:20	1	Trial	ResponseIL	14	0	175	0	102	08:02:20	1815166	0	3	3	3	3	3	3	3	3	0	0	0	0	0	0	0	0	0	0	0	0	0		1	0	0	0	0	0	0	0
021213	08:02:20	1	Trial	IncongruentLeft	14	0	1000	0	102	08:02:20	1816216	0	3	3	3	3	3	3	3	3	0	0	0	0	0	0	0	0	0	0	0	0	0		1	0	0	0	0	0	0	0
021213	08:02:20	1	Trial	ResponseCR	14	0	175	0	102	08:02:20	1816982	0	3	3	3	3	3	3	3	3	0	0	0	0	0	0	0	0	0	0	0	0	0		1	0	0	0	0	0	0	0
021213	08:02:20	1	Trial	CongruentRight	14	0	1000	0	102	08:02:20	1818032	0	3	3	3	3	3	3	3	3	0	0	0	0	0	0	0	0	0	0	0	0	0		1	0	0	0	0	0	0	0
021213	08:02:20	1	Trial	ResponseIR	14	0	175	0	102	08:02:20	1818798	0	3	3	3	3	3	3	3	3	0	0	0	0	0	0	0	0	0	0	0	0	0		1	0	0	0	0	0	0	0
021213	08:02:20	1	Trial	IncongruentRight	14	0	1000	0	102	08:02:20	1819848	0	3	3	3	3	3	3	3	3	0	0	0	0	0	0	0	0	0	0	0	0	0		1	0	0	0	0	0	0	0
021213	08:02:20	1	Trial	ResponseCL	14	0	175	0	102	08:02:20	1820614	0	3	3	3	3	3	3	3	3	0	0	0	0	0	0	0	0	0	0	0	0	0		1	0	0	0	0	0	0	0
021213	08:02:20	1	Trial	CongruentLeft	14	0	1000	0	102	08:02:20	1821664	0	3	3	3	3	3	3	3	3	0	0	0	0	0	0	0	0	0	0	0	0	0		1	0	0	0	0	0	0	0
021213	08:02:20	1	Trial	ResponseIR	14	0	175	0	102	08:02:20	1822430	0	3	3	3	3	3	3	3	3	0	0	0	0	0	0	0	0	0	0	0	0	0		1	0	0	0	0	0	0	0
021213	08:02:20	1	Trial	IncongruentRight	14	0	1000	0	102	08:02:20	1823480	0	3	3	3	3	3	3	3	3	0	0	0	0	0	0	0	0	0	0	0	0	0		1	0	0	0	0	0	0	0
021213	08:02:20	1	Trial	ResponseCR	14	0	175	0	102	08:02:20	1824246	0	3	3	3	3	3	3	3	3	0	0	0	0	0	0	0	0	0	0	0	0	0		1	0	0	0	0	0	0	0
021213	08:02:20	1	Trial	CongruentRight	14	0	1000	0	102	08:02:20	1825296	0	3	3	3	3	3	3	3	3	0	0	0	0	0	0	0	0	0	0	0	0	0		1	0	0	0	0	0	0	0
021213	08:02:20	1	Trial	ResponseIL	14	0	175	0	102	08:02:20	1826062	0	3	3	3	3	3	3	3	3	0	0	0	0	0	0	0	0	0	0	0	0	0		1	0	0	0	0	0	0	0
021213	08:02:20	1	Trial	IncongruentLeft	14	0	1000	0	102	08:02:20	1827112	0	3	3	3	3	3	3	3	3	0	0	0	0	0	0	0	0	0	0	0	0	0		1	0	0	0	0	0	0	0
021213	08:02:20	1	Trial	ResponseCL	14	0	175	0	102	08:02:20	1827878	0	3	3	3	3	3	3	3	3	0	0	0	0	0	0	0	0	0	0	0	0	0		1	0	0	0	0	0	0	0
021213	08:02:20	1	Trial	CongruentLeft	14	0	1000	0	102	08:02:20	1828928	0	3	3	3	3	3	3	3	3	0	0	0	0	0	0	0	0	0	0	0	0	0		1	0	0	0	0	0	0	0
021213	08:02:20	1	Trial	ResponseCR	14	0	175	0	102	08:02:20	1829694	0	3	3	3	3	3	3	3	3	0	0	0	0	0	0	0	0	0	0	0	0	0		1	0	0	0	0	0	0	0
021213	08:02:20	1	Trial	CongruentRight	14	0	1000	0	102	08:02:20	1830744	0	3	3	3	3	3	3	3	3	0	0	0	0	0	0	0	0	0	0	0	0	0		1	0	0	0	0	0	0	0
021213	08:02:20	1	Trial	ResponseIL	14	0	175	0	102	08:02:20	1831510	0	3	3	3	3	3	3	3	3	0	0	0	0	0	0	0	0	0	0	0	0	0		1	0	0	0	0	0	0	0
021213	08:02:20	1	Trial	IncongruentLeft	14	0	1000	0	102	08:02:20	1832560	0	3	3	3	3	3	3	3	3	0	0	0	0	0	0	0	0	0	0	0	0	0		1	0	0	0	0	0	0	0
021213	08:02:20	1	Trial	ResponseCR	14	0	175	0	102	08:02:20	1833326	0	3	3	3	3	3	3	3	3	0	0	0	0	0	0	0	0	0	0	0	0	0		1	0	0	0	0	0	0	0
021213	08:02:20	1	Trial	CongruentRight	14	0	1000	0	102	08:02:20	1834376	0	3	3	3	3	3	3	3	3	0	0	0	0	0	0	0	0	0	0	0	0	0		1	0	0	0	0	0	0	0
021213	08:02:20	1	Trial	ResponseCR	14	0	175	0	102	08:02:20	1835142	0	3	3	3	3	3	3	3	3	0	0	0	0	0	0	0	0	0	0	0	0	0		1	0	0	0	0	0	0	0
021213	08:02:20	1	Trial	CongruentRight	14	0	1000	0	102	08:02:20	1836192	0	3	3	3	3	3	3	3	3	0	0	0	0	0	0	0	0	0	0	0	0	0		1	0	0	0	0	0	0	0
021213	08:02:20	1	Trial	ResponseIR	14	0	175	0	102	08:02:20	1836958	0	3	3	3	3	3	3	3	3	0	0	0	0	0	0	0	0	0	0	0	0	0		1	0	0	0	0	0	0	0
021213	08:02:20	1	Trial	IncongruentRight	14	0	1000	0	102	08:02:20	1838008	0	3	3	3	3	3	3	3	3	0	0	0	0	0	0	0	0	0	0	0	0	0		1	0	0	0	0	0	0	0
021213	08:02:20	1	Trial	ResponseCL	14	0	175	0	102	08:02:20	1838774	0	3	3	3	3	3	3	3	3	0	0	0	0	0	0	0	0	0	0	0	0	0		1	0	0	0	0	0	0	0
021213	08:02:20	1	Trial	CongruentLeft	14	0	1000	0	102	08:02:20	1839824	0	3	3	3	3	3	3	3	3	0	0	0	0	0	0	0	0	0	0	0	0	0		1	0	0	0	0	0	0	0
021213	08:02:20	1	Trial	ResponseIL	14	0	175	0	102	08:02:20	1840590	0	3	3	3	3	3	3	3	3	0	0	0	0	0	0	0	0	0	0	0	0	0		1	0	0	0	0	0	0	0
021213	08:02:20	1	Trial	IncongruentLeft	14	0	1000	0	102	08:02:20	1841640	0	3	3	3	3	3	3	3	3	0	0	0	0	0	0	0	0	0	0	0	0	0		1	0	0	0	0	0	0	0
021213	08:02:20	1	Trial	ResponseCL	14	0	175	0	102	08:02:20	1842406	0	3	3	3	3	3	3	3	3	0	0	0	0	0	0	0	0	0	0	0	0	0		1	0	0	0	0	0	0	0
021213	08:02:20	1	Trial	CongruentLeft	14	0	1000	0	102	08:02:20	1843456	0	3	3	3	3	3	3	3	3	0	0	0	0	0	0	0	0	0	0	0	0	0		1	0	0	0	0	0	0	0
021213	08:02:20	1	Trial	ResponseIR	14	0	175	0	102	08:02:20	1844222	0	3	3	3	3	3	3	3	3	0	0	0	0	0	0	0	0	0	0	0	0	0		1	0	0	0	0	0	0	0
021213	08:02:20	1	Trial	IncongruentRight	14	0	1000	0	102	08:02:20	1845272	0	3	3	3	3	3	3	3	3	0	0	0	0	0	0	0	0	0	0	0	0	0		1	0	0	0	0	0	0	0
021213	08:02:20	1	Trial	ResponseIL	14	0	175	0	102	08:02:20	1846038	0	3	3	3	3	3	3	3	3	0	0	0	0	0	0	0	0	0	0	0	0	0		1	0	0	0	0	0	0	0
021213	08:02:20	1	Trial	IncongruentLeft	14	0	1000	0	102	08:02:20	1847088	0	3	3	3	3	3	3	3	3	0	0	0	0	0	0	0	0	0	0	0	0	0		1	0	0	0	0	0	0	0
021213	08:02:20	1	Trial	ResponseCR	14	0	175	0	102	08:02:20	1847854	0	3	3	3	3	3	3	3	3	0	0	0	0	0	0	0	0	0	0	0	0	0		1	0	0	0	0	0	0	0
021213	08:02:20	1	Trial	CongruentRight	14	0	1000	0	102	08:02:20	1848904	0	3	3	3	3	3	3	3	3	0	0	0	0	0	0	0	0	0	0	0	0	0		1	0	0	0	0	0	0	0
021213	08:02:20	1	Trial	ResponseCL	14	0	175	0	102	08:02:20	1849670	0	3	3	3	3	3	3	3	3	0	0	0	0	0	0	0	0	0	0	0	0	0		1	0	0	0	0	0	0	0
021213	08:02:20	1	Trial	CongruentLeft	14	0	1000	0	102	08:02:20	1850720	0	3	3	3	3	3	3	3	3	0	0	0	0	0	0	0	0	0	0	0	0	0		1	0	0	0	0	0	0	0
021213	08:02:20	1	Trial	ResponseIL	14	0	175	0	102	08:02:20	1851486	0	3	3	3	3	3	3	3	3	0	0	0	0	0	0	0	0	0	0	0	0	0		1	0	0	0	0	0	0	0
021213	08:02:20	1	Trial	IncongruentLeft	14	0	1000	0	102	08:02:20	1852536	0	3	3	3	3	3	3	3	3	0	0	0	0	0	0	0	0	0	0	0	0	0		1	0	0	0	0	0	0	0
021213	08:02:20	1	Trial	ResponseCL	14	0	175	0	102	08:02:20	1853302	0	3	3	3	3	3	3	3	3	0	0	0	0	0	0	0	0	0	0	0	0	0		1	0	0	0	0	0	0	0
021213	08:02:20	1	Trial	CongruentLeft	14	0	1000	0	102	08:02:20	1854352	0	3	3	3	3	3	3	3	3	0	0	0	0	0	0	0	0	0	0	0	0	0		1	0	0	0	0	0	0	0
021213	08:02:20	1	Trial	ResponseIR	14	0	175	0	102	08:02:20	1855119	0	3	3	3	3	3	3	3	3	0	0	0	0	0	0	0	0	0	0	0	0	0		1	0	0	0	0	0	0	0
021213	08:02:20	1	Trial	IncongruentRight	14	0	1000	0	102	08:02:20	1856168	0	3	3	3	3	3	3	3	3	0	0	0	0	0	0	0	0	0	0	0	0	0		1	0	0	0	0	0	0	0
021213	08:02:20	1	Trial	ResponseCR	14	0	175	0	102	08:02:20	1856934	0	3	3	3	3	3	3	3	3	0	0	0	0	0	0	0	0	0	0	0	0	0		1	0	0	0	0	0	0	0
021213	08:02:20	1	Trial	CongruentRight	14	0	1000	0	102	08:02:20	1857984	0	3	3	3	3	3	3	3	3	0	0	0	0	0	0	0	0	0	0	0	0	0		1	0	0	0	0	0	0	0
021213	08:02:20	1	Trial	ResponseIL	14	0	175	0	102	08:02:20	1858750	0	3	3	3	3	3	3	3	3	0	0	0	0	0	0	0	0	0	0	0	0	0		1	0	0	0	0	0	0	0
021213	08:02:20	1	Trial	IncongruentLeft	14	0	1000	0	102	08:02:20	1859800	0	3	3	3	3	3	3	3	3	0	0	0	0	0	0	0	0	0	0	0	0	0		1	0	0	0	0	0	0	0
021213	08:02:20	1	Trial	ResponseCL	14	0	175	0	102	08:02:20	1860566	0	3	3	3	3	3	3	3	3	0	0	0	0	0	0	0	0	0	0	0	0	0		1	0	0	0	0	0	0	0
021213	08:02:20	1	Trial	CongruentLeft	14	0	1000	0	102	08:02:20	1861616	0	3	3	3	3	3	3	3	3	0	0	0	0	0	0	0	0	0	0	0	0	0		1	0	0	0	0	0	0	0
021213	08:02:20	1	Trial	ResponseIR	14	0	175	0	102	08:02:20	1862382	0	3	3	3	3	3	3	3	3	0	0	0	0	0	0	0	0	0	0	0	0	0		1	0	0	0	0	0	0	0
021213	08:02:20	1	Trial	IncongruentRight	14	0	1000	0	102	08:02:20	1863432	0	3	3	3	3	3	3	3	3	0	0	0	0	0	0	0	0	0	0	0	0	0		1	0	0	0	0	0	0	0
021213	08:02:20	1	Trial	ResponseIL	14	0	175	0	102	08:02:20	1864198	0	3	3	3	3	3	3	3	3	0	0	0	0	0	0	0	0	0	0	0	0	0		1	0	0	0	0	0	0	0
021213	08:02:20	1	Trial	IncongruentLeft	14	0	1000	0	102	08:02:20	1865248	0	3	3	3	3	3	3	3	3	0	0	0	0	0	0	0	0	0	0	0	0	0		1	0	0	0	0	0	0	0
021213	08:02:20	1	Trial	ResponseCL	14	0	175	0	102	08:02:20	1866014	0	3	3	3	3	3	3	3	3	0	0	0	0	0	0	0	0	0	0	0	0	0		1	0	0	0	0	0	0	0
021213	08:02:20	1	Trial	CongruentLeft	14	0	1000	0	102	08:02:20	1867064	0	3	3	3	3	3	3	3	3	0	0	0	0	0	0	0	0	0	0	0	0	0		1	0	0	0	0	0	0	0
021213	08:02:20	1	Trial	ResponseIL	14	0	175	0	102	08:02:20	1867830	0	3	3	3	3	3	3	3	3	0	0	0	0	0	0	0	0	0	0	0	0	0		1	0	0	0	0	0	0	0
021213	08:02:20	1	Trial	IncongruentLeft	14	0	1000	0	102	08:02:20	1868880	0	3	3	3	3	3	3	3	3	0	0	0	0	0	0	0	0	0	0	0	0	0		1	0	0	0	0	0	0	0
021213	08:02:20	1	Trial	ResponseCR	14	0	175	0	102	08:02:20	1869646	0	3	3	3	3	3	3	3	3	0	0	0	0	0	0	0	0	0	0	0	0	0		1	0	0	0	0	0	0	0
021213	08:02:20	1	Trial	CongruentRight	14	0	1000	0	102	08:02:20	1870696	0	3	3	3	3	3	3	3	3	0	0	0	0	0	0	0	0	0	0	0	0	0		1	0	0	0	0	0	0	0
021213	08:02:20	1	Trial	ResponseCL	14	0	175	0	102	08:02:20	1871462	0	3	3	3	3	3	3	3	3	0	0	0	0	0	0	0	0	0	0	0	0	0		1	0	0	0	0	0	0	0
021213	08:02:20	1	Trial	CongruentLeft	14	0	1000	0	102	08:02:20	1872512	0	3	3	3	3	3	3	3	3	0	0	0	0	0	0	0	0	0	0	0	0	0		1	0	0	0	0	0	0	0
021213	08:02:20	1	Trial	ResponseIR	14	0	175	0	102	08:02:20	1873278	0	3	3	3	3	3	3	3	3	0	0	0	0	0	0	0	0	0	0	0	0	0		1	0	0	0	0	0	0	0
021213	08:02:20	1	Trial	IncongruentRight	14	0	1000	0	102	08:02:20	1874328	0	3	3	3	3	3	3	3	3	0	0	0	0	0	0	0	0	0	0	0	0	0		1	0	0	0	0	0	0	0
021213	08:02:20	1	Trial	ResponseCL	14	0	175	0	102	08:02:20	1875094	0	3	3	3	3	3	3	3	3	0	0	0	0	0	0	0	0	0	0	0	0	0		1	0	0	0	0	0	0	0
021213	08:02:20	1	Trial	CongruentLeft	14	0	1000	0	102	08:02:20	1876144	0	3	3	3	3	3	3	3	3	0	0	0	0	0	0	0	0	0	0	0	0	0		1	0	0	0	0	0	0	0
021213	08:02:20	1	Trial	ResponseCR	14	0	175	0	102	08:02:20	1876910	0	3	3	3	3	3	3	3	3	0	0	0	0	0	0	0	0	0	0	0	0	0		1	0	0	0	0	0	0	0
021213	08:02:20	1	Trial	CongruentRight	14	0	1000	0	102	08:02:20	1877960	0	3	3	3	3	3	3	3	3	0	0	0	0	0	0	0	0	0	0	0	0	0		1	0	0	0	0	0	0	0
021213	08:02:20	1	Trial	ResponseIL	14	0	175	0	102	08:02:20	1878726	0	3	3	3	3	3	3	3	3	0	0	0	0	0	0	0	0	0	0	0	0	0		1	0	0	0	0	0	0	0
021213	08:02:20	1	Trial	IncongruentLeft	14	0	1000	0	102	08:02:20	1879776	0	3	3	3	3	3	3	3	3	0	0	0	0	0	0	0	0	0	0	0	0	0		1	0	0	0	0	0	0	0
021213	08:02:20	1	WordsAbsFr6mo	PAbsFr6mo1	16	Abs1	2643	0	102	08:02:20	1897786	0	3	3	3	3	3	3	3	3	0	0	0	0	0	0	0	0	0	0	0	0	0		1	0	0	0	0	0	0	0
021213	08:02:20	1	WordsAbsFr6mo	AbsFr6mo1	16	Abs1	1153	0	102	08:02:20	1899019	0	3	3	3	3	3	3	3	3	0	0	1	0	0	0	0	0	0	0	0	0	0		1	0	0	0	0	0	0	0
021213	08:02:20	1	WordsAbsFr6mo	AbsFr6mo2	16	Abs1	921	0	102	08:02:20	1900019	0	3	3	3	3	3	3	3	3	0	0	2	0	0	0	0	0	0	0	0	0	0		1	0	0	0	0	0	0	0
021213	08:02:20	1	WordsAbsFr6mo	AbsFr6mo3	16	Abs1	878	0	102	08:02:20	1900969	0	3	3	3	3	3	3	3	3	0	0	3	0	0	0	0	0	0	0	0	0	0		1	0	0	0	0	0	0	0
021213	08:02:20	1	Trial2BackFrS	NS	17	0	1000	1	102	08:02:20	2047082	0	3	3	3	3	3	3	3	3	0	0	3	0	0	0	0	0	0	0	0	0	0		1	0	0	0	0	0	0	0
021213	08:02:20	1	Trial2BackFrS	NS	17	0	1000	1	102	08:02:20	2048598	0	3	3	3	3	3	3	3	3	0	0	3	0	0	0	0	0	0	0	0	0	0		1	0	0	0	0	0	0	0
021213	08:02:20	1	Trial2BackFrS	NS	17	0	1000	1	102	08:02:20	2050164	0	3	3	3	3	3	3	3	3	0	0	3	0	0	0	0	0	0	0	0	0	0		1	0	0	0	0	0	0	0
021213	08:02:20	1	Trial2BackFrS	YS	17	0	1000	0	102	08:02:20	2051680	0	3	3	3	3	3	3	3	3	0	0	3	0	0	0	0	0	0	0	0	0	0		1	0	0	0	0	0	0	0
021213	08:02:20	1	Trial2BackFrS	NS	17	0	1000	1	102	08:02:20	2053246	0	3	3	3	3	3	3	3	3	0	0	3	0	0	0	0	0	0	0	0	0	0		1	0	0	0	0	0	0	0
021213	08:02:20	1	Trial2BackFrS	NS	17	0	1000	1	102	08:02:20	2054762	0	3	3	3	3	3	3	3	3	0	0	3	0	0	0	0	0	0	0	0	0	0		1	0	0	0	0	0	0	0
021213	08:02:20	1	Trial2BackFrS	NS	17	0	1000	1	102	08:02:20	2056278	0	3	3	3	3	3	3	3	3	0	0	3	0	0	0	0	0	0	0	0	0	0		1	0	0	0	0	0	0	0
021213	08:02:20	1	Trial2BackFrS	NS	17	0	1000	1	102	08:02:20	2057845	0	3	3	3	3	3	3	3	3	0	0	3	0	0	0	0	0	0	0	0	0	0		1	0	0	0	0	0	0	0
021213	08:02:20	1	Trial2BackFrS	YS	17	0	1000	0	102	08:02:20	2059361	0	3	3	3	3	3	3	3	3	0	0	3	0	0	0	0	0	0	0	0	0	0		1	0	0	0	0	0	0	0
021213	08:02:20	1	Trial2BackFrS	NS	17	0	1000	1	102	08:02:20	2060877	0	3	3	3	3	3	3	3	3	0	0	3	0	0	0	0	0	0	0	0	0	0		1	0	0	0	0	0	0	0
021213	08:02:20	1	Trial2BackFrS	NS	17	0	1000	1	102	08:02:20	2062393	0	3	3	3	3	3	3	3	3	0	0	3	0	0	0	0	0	0	0	0	0	0		1	0	0	0	0	0	0	0
021213	08:02:20	1	Trial2BackFrS	YS	17	0	1000	0	102	08:02:20	2063959	0	3	3	3	3	3	3	3	3	0	0	3	0	0	0	0	0	0	0	0	0	0		1	0	0	0	0	0	0	0
021213	08:02:20	1	Trial2BackFrS	NS	17	0	1000	1	102	08:02:20	2065492	0	3	3	3	3	3	3	3	3	0	0	3	0	0	0	0	0	0	0	0	0	0		1	0	0	0	0	0	0	0
021213	08:02:20	1	Trial2BackFrS	NS	17	0	1000	1	102	08:02:20	2067041	0	3	3	3	3	3	3	3	3	0	0	3	0	0	0	0	0	0	0	0	0	0		1	0	0	0	0	0	0	0
021213	08:02:20	1	Trial2BackFrS	NS	17	0	1000	1	102	08:02:20	2068591	0	3	3	3	3	3	3	3	3	0	0	3	0	0	0	0	0	0	0	0	0	0		1	0	0	0	0	0	0	0
021213	08:02:20	1	Trial2BackFrS	YS	17	0	1000	0	102	08:02:20	2070107	0	3	3	3	3	3	3	3	3	0	0	3	0	0	0	0	0	0	0	0	0	0		1	0	0	0	0	0	0	0
021213	08:02:20	1	Trial2BackFrS	NS	17	0	1000	1	102	08:02:20	2071640	0	3	3	3	3	3	3	3	3	0	0	3	0	0	0	0	0	0	0	0	0	0		1	0	0	0	0	0	0	0
021213	08:02:20	1	Trial2BackFrS	NS	17	0	1000	1	102	08:02:20	2073172	0	3	3	3	3	3	3	3	3	0	0	3	0	0	0	0	0	0	0	0	0	0		1	0	0	0	0	0	0	0
021213	08:02:20	1	Trial2BackFrS	NS	17	0	1000	1	102	08:02:20	2074689	0	3	3	3	3	3	3	3	3	0	0	3	0	0	0	0	0	0	0	0	0	0		1	0	0	0	0	0	0	0
021213	08:02:20	1	Trial2BackFrS	NS	17	0	1000	1	102	08:02:20	2076205	0	3	3	3	3	3	3	3	3	0	0	3	0	0	0	0	0	0	0	0	0	0		1	0	0	0	0	0	0	0
021213	08:02:20	1	Trial2BackFrS	YS	17	0	1000	0	102	08:02:20	2077721	0	3	3	3	3	3	3	3	3	0	0	3	0	0	0	0	0	0	0	0	0	0		1	0	0	0	0	0	0	0
021213	08:02:20	1	Trial2BackFrS	NS	17	0	1000	1	102	08:02:20	2079237	0	3	3	3	3	3	3	3	3	0	0	3	0	0	0	0	0	0	0	0	0	0		1	0	0	0	0	0	0	0
021213	08:02:20	1	Trial2BackFrS	NS	17	0	1000	1	102	08:02:20	2080753	0	3	3	3	3	3	3	3	3	0	0	3	0	0	0	0	0	0	0	0	0	0		1	0	0	0	0	0	0	0
021213	08:02:20	1	Trial2BackFrS	NS	17	0	1000	1	102	08:02:20	2082269	0	3	3	3	3	3	3	3	3	0	0	3	0	0	0	0	0	0	0	0	0	0		1	0	0	0	0	0	0	0
021213	08:02:20	1	Trial2BackFrS	NS	17	0	1000	1	102	08:02:20	2083785	0	3	3	3	3	3	3	3	3	0	0	3	0	0	0	0	0	0	0	0	0	0		1	0	0	0	0	0	0	0
021213	08:02:20	1	Trial2BackFrS	NS	17	0	1000	1	102	08:02:20	2085301	0	3	3	3	3	3	3	3	3	0	0	3	0	0	0	0	0	0	0	0	0	0		1	0	0	0	0	0	0	0
021213	08:02:20	1	Trial2BackFrS	NS	17	0	1000	1	102	08:02:20	2086818	0	3	3	3	3	3	3	3	3	0	0	3	0	0	0	0	0	0	0	0	0	0		1	0	0	0	0	0	0	0
021213	08:02:20	1	Trial2BackFrS	NS	17	0	1000	1	102	08:02:20	2088334	0	3	3	3	3	3	3	3	3	0	0	3	0	0	0	0	0	0	0	0	0	0		1	0	0	0	0	0	0	0
021213	08:02:20	1	Trial2BackFrS	NS	17	0	1000	1	102	08:02:20	2089850	0	3	3	3	3	3	3	3	3	0	0	3	0	0	0	0	0	0	0	0	0	0		1	0	0	0	0	0	0	0
021213	08:02:20	1	Trial2BackFrS	NS	17	0	1000	1	102	08:02:20	2091366	0	3	3	3	3	3	3	3	3	0	0	3	0	0	0	0	0	0	0	0	0	0		1	0	0	0	0	0	0	0
021213	08:02:20	1	Trial2BackFrS	NS	17	0	1000	1	102	08:02:20	2092882	0	3	3	3	3	3	3	3	3	0	0	3	0	0	0	0	0	0	0	0	0	0		1	0	0	0	0	0	0	0
021213	08:02:20	1	Trial2BackFrS	YS	17	0	1000	0	102	08:02:20	2094398	0	3	3	3	3	3	3	3	3	0	0	3	0	0	0	0	0	0	0	0	0	0		1	0	0	0	0	0	0	0
021213	08:02:20	1	Trial2BackFrS	NS	17	0	1000	1	102	08:02:20	2095914	0	3	3	3	3	3	3	3	3	0	0	3	0	0	0	0	0	0	0	0	0	0		1	0	0	0	0	0	0	0
021213	08:02:20	1	Trial2BackFrS	NS	17	0	1000	1	102	08:02:20	2097430	0	3	3	3	3	3	3	3	3	0	0	3	0	0	0	0	0	0	0	0	0	0		1	0	0	0	0	0	0	0
021213	08:02:20	1	Trial2BackFrS	NS	17	0	1000	1	102	08:02:20	2098946	0	3	3	3	3	3	3	3	3	0	0	3	0	0	0	0	0	0	0	0	0	0		1	0	0	0	0	0	0	0
021213	08:02:20	1	Trial2BackFrS	YS	17	0	1000	0	102	08:02:20	2100463	0	3	3	3	3	3	3	3	3	0	0	3	0	0	0	0	0	0	0	0	0	0		1	0	0	0	0	0	0	0
021213	08:02:20	1	Trial2BackFrS	NS	17	0	1000	1	102	08:02:20	2101979	0	3	3	3	3	3	3	3	3	0	0	3	0	0	0	0	0	0	0	0	0	0		1	0	0	0	0	0	0	0
021213	08:02:20	1	Trial2BackFrS	NS	17	0	1000	1	102	08:02:20	2103495	0	3	3	3	3	3	3	3	3	0	0	3	0	0	0	0	0	0	0	0	0	0		1	0	0	0	0	0	0	0
021213	08:02:20	1	Trial2BackFrS	NS	17	0	1000	1	102	08:02:20	2105011	0	3	3	3	3	3	3	3	3	0	0	3	0	0	0	0	0	0	0	0	0	0		1	0	0	0	0	0	0	0
021213	08:02:20	1	Trial2BackFrS	NS	17	0	1000	1	102	08:02:20	2106527	0	3	3	3	3	3	3	3	3	0	0	3	0	0	0	0	0	0	0	0	0	0		1	0	0	0	0	0	0	0
021213	08:02:20	1	Trial2BackFrS	NS	17	0	1000	1	102	08:02:20	2108043	0	3	3	3	3	3	3	3	3	0	0	3	0	0	0	0	0	0	0	0	0	0		1	0	0	0	0	0	0	0
021213	08:02:20	1	Trial2BackFrS	NS	17	0	1000	1	102	08:02:20	2109559	0	3	3	3	3	3	3	3	3	0	0	3	0	0	0	0	0	0	0	0	0	0		1	0	0	0	0	0	0	0
021213	08:02:20	1	Trial2BackFrS	NS	17	0	1000	1	102	08:02:20	2111075	0	3	3	3	3	3	3	3	3	0	0	3	0	0	0	0	0	0	0	0	0	0		1	0	0	0	0	0	0	0
021213	08:02:20	1	Trial2BackFrS	YS	17	0	1000	0	102	08:02:20	2112592	0	3	3	3	3	3	3	3	3	0	0	3	0	0	0	0	0	0	0	0	0	0		1	0	0	0	0	0	0	0
021213	08:02:20	1	Trial2BackFrS	NS	17	0	1000	1	102	08:02:20	2114108	0	3	3	3	3	3	3	3	3	0	0	3	0	0	0	0	0	0	0	0	0	0		1	0	0	0	0	0	0	0
021213	08:02:20	1	Trial2BackFrS	NS	17	0	1000	1	102	08:02:20	2115623	0	3	3	3	3	3	3	3	3	0	0	3	0	0	0	0	0	0	0	0	0	0		1	0	0	0	0	0	0	0
021213	08:02:20	1	Trial2BackFrS	NS	17	0	1000	1	102	08:02:20	2117140	0	3	3	3	3	3	3	3	3	0	0	3	0	0	0	0	0	0	0	0	0	0		1	0	0	0	0	0	0	0
021213	08:02:20	1	Trial2BackFrS	NS	17	0	1000	1	102	08:02:20	2118656	0	3	3	3	3	3	3	3	3	0	0	3	0	0	0	0	0	0	0	0	0	0		1	0	0	0	0	0	0	0
021213	08:02:20	1	Trial2BackFrS	YS	17	0	1000	0	102	08:02:20	2120172	0	3	3	3	3	3	3	3	3	0	0	3	0	0	0	0	0	0	0	0	0	0		1	0	0	0	0	0	0	0
021213	08:02:20	1	Trial2BackFrS	NS	17	0	1000	1	102	08:02:20	2121688	0	3	3	3	3	3	3	3	3	0	0	3	0	0	0	0	0	0	0	0	0	0		1	0	0	0	0	0	0	0
021213	08:02:20	1	Trial2BackFrS	NS	17	0	1000	1	102	08:02:20	2123204	0	3	3	3	3	3	3	3	3	0	0	3	0	0	0	0	0	0	0	0	0	0		1	0	0	0	0	0	0	0
021213	08:02:20	1	Trial2BackFrS	NS	17	0	1000	1	102	08:02:20	2124720	0	3	3	3	3	3	3	3	3	0	0	3	0	0	0	0	0	0	0	0	0	0		1	0	0	0	0	0	0	0
021213	08:02:20	1	Trial2BackFrS	NS	17	0	1000	1	102	08:02:20	2126236	0	3	3	3	3	3	3	3	3	0	0	3	0	0	0	0	0	0	0	0	0	0		1	0	0	0	0	0	0	0
021213	08:02:20	1	Trial2BackFrS	NS	17	0	1000	1	102	08:02:20	2127753	0	3	3	3	3	3	3	3	3	0	0	3	0	0	0	0	0	0	0	0	0	0		1	0	0	0	0	0	0	0
021213	08:02:20	1	Trial2BackFrS	NS	17	0	1000	1	102	08:02:20	2129269	0	3	3	3	3	3	3	3	3	0	0	3	0	0	0	0	0	0	0	0	0	0		1	0	0	0	0	0	0	0
021213	08:02:20	1	Trial2BackFrS	YS	17	0	1000	0	102	08:02:20	2130785	0	3	3	3	3	3	3	3	3	0	0	3	0	0	0	0	0	0	0	0	0	0		1	0	0	0	0	0	0	0
021213	08:02:20	1	Trial2BackFrS	NS	17	0	1000	1	102	08:02:20	2132301	0	3	3	3	3	3	3	3	3	0	0	3	0	0	0	0	0	0	0	0	0	0		1	0	0	0	0	0	0	0
021213	08:02:20	1	Trial2BackFrS	NS	17	0	1000	1	102	08:02:20	2133817	0	3	3	3	3	3	3	3	3	0	0	3	0	0	0	0	0	0	0	0	0	0		1	0	0	0	0	0	0	0
021213	08:02:20	1	Trial2BackFrS	NS	17	0	1000	1	102	08:02:20	2135333	0	3	3	3	3	3	3	3	3	0	0	3	0	0	0	0	0	0	0	0	0	0		1	0	0	0	0	0	0	0
021213	08:02:20	1	Trial2BackFrS	NS	17	0	1000	1	102	08:02:20	2136849	0	3	3	3	3	3	3	3	3	0	0	3	0	0	0	0	0	0	0	0	0	0		1	0	0	0	0	0	0	0
021213	08:02:20	1	Trial2BackFrS	NS	17	0	1000	1	102	08:02:20	2138365	0	3	3	3	3	3	3	3	3	0	0	3	0	0	0	0	0	0	0	0	0	0		1	0	0	0	0	0	0	0
021213	08:02:20	1	Trial2BackFrS	NS	17	0	1000	1	102	08:02:20	2139882	0	3	3	3	3	3	3	3	3	0	0	3	0	0	0	0	0	0	0	0	0	0		1	0	0	0	0	0	0	0
021213	08:02:20	1	Trial2BackFrS	NS	17	0	1000	1	102	08:02:20	2141398	0	3	3	3	3	3	3	3	3	0	0	3	0	0	0	0	0	0	0	0	0	0		1	0	0	0	0	0	0	0
021213	08:02:20	1	Trial2BackFrS	YS	17	0	1000	0	102	08:02:20	2142914	0	3	3	3	3	3	3	3	3	0	0	3	0	0	0	0	0	0	0	0	0	0		1	0	0	0	0	0	0	0
021213	08:02:20	1	Trial2BackFrS	NS	17	0	1000	1	102	08:02:20	2144430	0	3	3	3	3	3	3	3	3	0	0	3	0	0	0	0	0	0	0	0	0	0		1	0	0	0	0	0	0	0
021213	08:02:20	1	Trial2BackFrS	NS	17	0	1000	1	102	08:02:20	2145946	0	3	3	3	3	3	3	3	3	0	0	3	0	0	0	0	0	0	0	0	0	0		1	0	0	0	0	0	0	0
021213	08:02:20	1	Trial2BackFrS	NS	17	0	1000	1	102	08:02:20	2147462	0	3	3	3	3	3	3	3	3	0	0	3	0	0	0	0	0	0	0	0	0	0		1	0	0	0	0	0	0	0
021213	08:02:20	1	Trial2BackFrS	NS	17	0	1000	1	102	08:02:20	2148978	0	3	3	3	3	3	3	3	3	0	0	3	0	0	0	0	0	0	0	0	0	0		1	0	0	0	0	0	0	0
021213	08:02:20	1	Trial2BackFrS	YS	17	0	1000	0	102	08:02:20	2150494	0	3	3	3	3	3	3	3	3	0	0	3	0	0	0	0	0	0	0	0	0	0		1	0	0	0	0	0	0	0
021213	08:02:20	1	Trial2BackFrS	NS	17	0	1000	1	102	08:02:20	2152011	0	3	3	3	3	3	3	3	3	0	0	3	0	0	0	0	0	0	0	0	0	0		1	0	0	0	0	0	0	0
021213	08:02:20	1	Trial2BackFrS	NS	17	0	1000	1	102	08:02:20	2153527	0	3	3	3	3	3	3	3	3	0	0	3	0	0	0	0	0	0	0	0	0	0		1	0	0	0	0	0	0	0
021213	08:02:20	1	Trial2BackFrS	YS	17	0	1000	0	102	08:02:20	2155043	0	3	3	3	3	3	3	3	3	0	0	3	0	0	0	0	0	0	0	0	0	0		1	0	0	0	0	0	0	0
021213	08:02:20	1	Trial2BackFrS	NS	17	0	1000	1	102	08:02:20	2156559	0	3	3	3	3	3	3	3	3	0	0	3	0	0	0	0	0	0	0	0	0	0		1	0	0	0	0	0	0	0
021213	08:02:20	1	Trial2BackFrS	NS	17	0	1000	1	102	08:02:20	2158108	0	3	3	3	3	3	3	3	3	0	0	3	0	0	0	0	0	0	0	0	0	0		1	0	0	0	0	0	0	0
021213	08:02:20	1	Trial2BackFrS	NS	17	0	1000	1	102	08:02:20	2159625	0	3	3	3	3	3	3	3	3	0	0	3	0	0	0	0	0	0	0	0	0	0		1	0	0	0	0	0	0	0
021213	08:02:20	1	Trial2BackFrS	NS	17	0	1000	1	102	08:02:20	2161141	0	3	3	3	3	3	3	3	3	0	0	3	0	0	0	0	0	0	0	0	0	0		1	0	0	0	0	0	0	0
021213	08:02:20	1	Trial2BackFrS	NS	17	0	1000	1	102	08:02:20	2162657	0	3	3	3	3	3	3	3	3	0	0	3	0	0	0	0	0	0	0	0	0	0		1	0	0	0	0	0	0	0
021213	08:02:20	1	Trial2BackFrS	NS	17	0	1000	1	102	08:02:20	2164173	0	3	3	3	3	3	3	3	3	0	0	3	0	0	0	0	0	0	0	0	0	0		1	0	0	0	0	0	0	0
021213	08:02:20	1	Trial2BackFrS	YS	17	0	1000	0	102	08:02:20	2165689	0	3	3	3	3	3	3	3	3	0	0	3	0	0	0	0	0	0	0	0	0	0		1	0	0	0	0	0	0	0
021213	08:02:20	1	Trial2BackFrS	NS	17	0	1000	1	102	08:02:20	2167205	0	3	3	3	3	3	3	3	3	0	0	3	0	0	0	0	0	0	0	0	0	0		1	0	0	0	0	0	0	0
021213	08:02:20	1	Trial2BackFrS	NS	17	0	1000	1	102	08:02:20	2168721	0	3	3	3	3	3	3	3	3	0	0	3	0	0	0	0	0	0	0	0	0	0		1	0	0	0	0	0	0	0
021213	08:02:20	1	Trial2BackFrS	NS	17	0	1000	1	102	08:02:20	2170237	0	3	3	3	3	3	3	3	3	0	0	3	0	0	0	0	0	0	0	0	0	0		1	0	0	0	0	0	0	0
021213	08:02:20	1	Trial2BackFrS	NS	17	0	1000	1	102	08:02:20	2171753	0	3	3	3	3	3	3	3	3	0	0	3	0	0	0	0	0	0	0	0	0	0		1	0	0	0	0	0	0	0
021213	08:02:20	1	Trial2BackFrS	YS	17	0	1000	0	102	08:02:20	2173270	0	3	3	3	3	3	3	3	3	0	0	3	0	0	0	0	0	0	0	0	0	0		1	0	0	0	0	0	0	0
021213	08:02:20	1	Trial2BackFrS	NS	17	0	1000	1	102	08:02:20	2174787	0	3	3	3	3	3	3	3	3	0	0	3	0	0	0	0	0	0	0	0	0	0		1	0	0	0	0	0	0	0
021213	08:02:20	1	Trial2BackFrS	NS	17	0	1000	1	102	08:02:20	2176302	0	3	3	3	3	3	3	3	3	0	0	3	0	0	0	0	0	0	0	0	0	0		1	0	0	0	0	0	0	0
021213	08:02:20	1	Trial2BackFrS	NS	17	0	1000	1	102	08:02:20	2177818	0	3	3	3	3	3	3	3	3	0	0	3	0	0	0	0	0	0	0	0	0	0		1	0	0	0	0	0	0	0
021213	08:02:20	1	Trial2BackFrS	NS	17	0	1000	1	102	08:02:20	2179334	0	3	3	3	3	3	3	3	3	0	0	3	0	0	0	0	0	0	0	0	0	0		1	0	0	0	0	0	0	0
021213	08:02:20	1	Trial2BackFrS	YS	17	0	1000	0	102	08:02:20	2180850	0	3	3	3	3	3	3	3	3	0	0	3	0	0	0	0	0	0	0	0	0	0		1	0	0	0	0	0	0	0
021213	08:02:20	1	Trial2BackFrS	NS	17	0	1000	1	102	08:02:20	2182366	0	3	3	3	3	3	3	3	3	0	0	3	0	0	0	0	0	0	0	0	0	0		1	0	0	0	0	0	0	0
021213	08:02:20	1	Trial2BackFrS	NS	17	0	1000	1	102	08:02:20	2183882	0	3	3	3	3	3	3	3	3	0	0	3	0	0	0	0	0	0	0	0	0	0		1	0	0	0	0	0	0	0
021213	08:02:20	1	Trial2BackFrS	YS	17	0	1000	0	102	08:02:20	2185398	0	3	3	3	3	3	3	3	3	0	0	3	0	0	0	0	0	0	0	0	0	0		1	0	0	0	0	0	0	0
021213	08:02:20	1	Trial2BackFrS	NS	17	0	1000	1	102	08:02:20	2186915	0	3	3	3	3	3	3	3	3	0	0	3	0	0	0	0	0	0	0	0	0	0		1	0	0	0	0	0	0	0
021213	08:02:20	1	Trial2BackFrS	NS	17	0	1000	1	102	08:02:20	2188431	0	3	3	3	3	3	3	3	3	0	0	3	0	0	0	0	0	0	0	0	0	0		1	0	0	0	0	0	0	0
021213	08:02:20	1	Trial2BackFrS	NS	17	0	1000	1	102	08:02:20	2189947	0	3	3	3	3	3	3	3	3	0	0	3	0	0	0	0	0	0	0	0	0	0		1	0	0	0	0	0	0	0
021213	08:02:20	1	Trial2BackFrS	NS	17	0	1000	1	102	08:02:20	2191463	0	3	3	3	3	3	3	3	3	0	0	3	0	0	0	0	0	0	0	0	0	0		1	0	0	0	0	0	0	0
021213	08:02:20	1	Trial2BackFrS	NS	17	0	1000	1	102	08:02:20	2192979	0	3	3	3	3	3	3	3	3	0	0	3	0	0	0	0	0	0	0	0	0	0		1	0	0	0	0	0	0	0
021213	08:02:20	1	Trial2BackFrS	NS	17	0	1000	1	102	08:02:20	2194495	0	3	3	3	3	3	3	3	3	0	0	3	0	0	0	0	0	0	0	0	0	0		1	0	0	0	0	0	0	0
021213	08:02:20	1	Trial2BackFrS	NS	17	0	1000	1	102	08:02:20	2196011	0	3	3	3	3	3	3	3	3	0	0	3	0	0	0	0	0	0	0	0	0	0		1	0	0	0	0	0	0	0
021213	08:02:20	1	Trial2BackFrS	NS	17	0	1000	1	102	08:02:20	2197527	0	3	3	3	3	3	3	3	3	0	0	3	0	0	0	0	0	0	0	0	0	0		1	0	0	0	0	0	0	0
021213	08:02:20	1	Trial2BackFrS	YS	17	0	1000	0	102	08:02:20	2199043	0	3	3	3	3	3	3	3	3	0	0	3	0	0	0	0	0	0	0	0	0	0		1	0	0	0	0	0	0	0
021213	08:02:20	1	Trial2BackFrS	NS	17	0	1000	1	102	08:02:20	2200560	0	3	3	3	3	3	3	3	3	0	0	3	0	0	0	0	0	0	0	0	0	0		1	0	0	0	0	0	0	0
021213	08:02:20	1	Trial2BackFrS	NS	17	0	1000	1	102	08:02:20	2202076	0	3	3	3	3	3	3	3	3	0	0	3	0	0	0	0	0	0	0	0	0	0		1	0	0	0	0	0	0	0
021213	08:02:20	1	Trial2BackFrS	NS	17	0	1000	1	102	08:02:20	2203592	0	3	3	3	3	3	3	3	3	0	0	3	0	0	0	0	0	0	0	0	0	0		1	0	0	0	0	0	0	0
021213	08:02:20	1	Trial2BackFrS	NS	17	0	1000	1	102	08:02:20	2205108	0	3	3	3	3	3	3	3	3	0	0	3	0	0	0	0	0	0	0	0	0	0		1	0	0	0	0	0	0	0
021213	08:02:20	1	Trial2BackFrS	NS	17	0	1000	1	102	08:02:20	2206624	0	3	3	3	3	3	3	3	3	0	0	3	0	0	0	0	0	0	0	0	0	0		1	0	0	0	0	0	0	0
021213	08:02:20	1	Trial2BackFrS	NS	17	0	1000	1	102	08:02:20	2208140	0	3	3	3	3	3	3	3	3	0	0	3	0	0	0	0	0	0	0	0	0	0		1	0	0	0	0	0	0	0
021213	08:02:20	1	Trial2BackFrS	NS	17	0	1000	1	102	08:02:20	2209656	0	3	3	3	3	3	3	3	3	0	0	3	0	0	0	0	0	0	0	0	0	0		1	0	0	0	0	0	0	0
021213	08:02:20	1	Trial2BackFrS	YS	17	0	1000	0	102	08:02:20	2211172	0	3	3	3	3	3	3	3	3	0	0	3	0	0	0	0	0	0	0	0	0	0		1	0	0	0	0	0	0	0
021213	08:02:20	1	Trial2BackFrS	NS	17	0	1000	1	102	08:02:20	2212689	0	3	3	3	3	3	3	3	3	0	0	3	0	0	0	0	0	0	0	0	0	0		1	0	0	0	0	0	0	0
021213	08:02:20	1	Trial2BackFrS	NS	17	0	1000	1	102	08:02:20	2214205	0	3	3	3	3	3	3	3	3	0	0	3	0	0	0	0	0	0	0	0	0	0		1	0	0	0	0	0	0	0
021213	08:02:20	1	Trial2BackFrS	NS	17	0	1000	1	102	08:02:20	2215721	0	3	3	3	3	3	3	3	3	0	0	3	0	0	0	0	0	0	0	0	0	0		1	0	0	0	0	0	0	0
021213	08:02:20	1	Trial2BackFrS	NS	17	0	1000	1	102	08:02:20	2217237	0	3	3	3	3	3	3	3	3	0	0	3	0	0	0	0	0	0	0	0	0	0		1	0	0	0	0	0	0	0
021213	08:02:20	1	Trial2BackFrS	NS	17	0	1000	1	102	08:02:20	2218753	0	3	3	3	3	3	3	3	3	0	0	3	0	0	0	0	0	0	0	0	0	0		1	0	0	0	0	0	0	0
021213	08:02:20	1	Trial2BackFrS	NS	17	0	1000	1	102	08:02:20	2220269	0	3	3	3	3	3	3	3	3	0	0	3	0	0	0	0	0	0	0	0	0	0		1	0	0	0	0	0	0	0
021213	08:02:20	1	Trial2BackFrS	NS	17	0	1000	1	102	08:02:20	2221785	0	3	3	3	3	3	3	3	3	0	0	3	0	0	0	0	0	0	0	0	0	0		1	0	0	0	0	0	0	0
021213	08:02:20	1	Trial2BackFrS	NS	17	0	1000	1	102	08:02:20	2223301	0	3	3	3	3	3	3	3	3	0	0	3	0	0	0	0	0	0	0	0	0	0		1	0	0	0	0	0	0	0
021213	08:02:20	1	Trial2BackFrS	NS	17	0	1000	1	102	08:02:20	2224817	0	3	3	3	3	3	3	3	3	0	0	3	0	0	0	0	0	0	0	0	0	0		1	0	0	0	0	0	0	0
021213	08:02:20	1	Trial2BackFrS	YS	17	0	1000	0	102	08:02:20	2226334	0	3	3	3	3	3	3	3	3	0	0	3	0	0	0	0	0	0	0	0	0	0		1	0	0	0	0	0	0	0
021213	08:02:20	1	Trial2BackFrS	NS	17	0	1000	1	102	08:02:20	2227849	0	3	3	3	3	3	3	3	3	0	0	3	0	0	0	0	0	0	0	0	0	0		1	0	0	0	0	0	0	0
021213	08:02:20	1	ClockFr6mo	ClockFr6mo	19	Clock1	77327	0	102	08:02:20	2305355	0	3	3	3	3	3	3	3	3	0	0	3	1	0	0	0	0	0	0	0	0	0		1	0	0	0	0	0	0	0
021213	08:02:20	1	ClockFr6mo	ClockFr6mo	19	Clock11	1566	0	102	08:02:20	2307021	0	3	3	3	3	3	3	3	3	0	0	3	1	1	0	0	0	0	0	0	0	0		1	0	0	0	0	0	0	0
021213	08:02:20	1	ClockFr6mo	ClockFr6mo	19	Clock111	1060	0	102	08:02:20	2308955	0	3	3	3	3	3	3	3	3	0	0	3	1	1	1	0	0	0	0	0	0	0		1	0	0	0	0	0	0	0
021213	08:02:20	1	ClockFr6mo	ClockFr6mo	19	Clockdone	1239	0	102	08:02:20	2310303	0	3	3	3	3	3	3	3	3	0	0	3	1	1	1	0	0	0	0	0	0	0		1	0	0	0	0	0	0	0
021213	08:02:20	1	FASFrVF6mo	StopFrVF6mo	20		3426	0	102	08:02:20	2377145	0	3	3	3	3	3	3	3	3	0	0	3	1	1	1	0	0	0	0	0	0	0		1	0	0	0	0	0	0	0
021213	08:02:20	1	practiceTOLFR	choice	20	nextround	1775	0	102	08:02:20	2384402	0	3	3	3	3	3	3	3	3	0	0	3	1	1	1	0	0	0	1	2	0	-2	nextround	0	0	0	2152	0	0	2382250	2384402
021213	08:02:20	1	testTOLFR	choice	20	nextround	2047	0	102	08:02:20	2390423	0	3	3	3	3	3	3	3	3	0	0	3	1	1	1	0	0	2	1	2	0	-2	nextround	0	0	0	2408	0	0	2388015	2390423
021213	08:02:20	1	testTOLFR	choice	20	nextround	1543	0	102	08:02:20	2393367	0	3	3	3	3	3	3	3	3	0	0	3	1	1	1	0	0	4	1	3	0	-3	nextround	0	0	0	1895	0	0	2391472	2393367
021213	08:02:20	1	testTOLFR	choice	20	nextround	402	0	102	08:02:20	2395175	0	3	3	3	3	3	3	3	3	0	0	3	1	1	1	0	0	7	1	4	0	-4	nextround	0	0	0	760	0	0	2394415	2395175
021213	08:02:20	1	testTOLFR	choice	20	nextround	343	0	102	08:02:20	2396916	0	3	3	3	3	3	3	3	3	0	0	3	1	1	1	0	0	10	1	5	0	-5	nextround	0	0	0	694	0	0	2396222	2396916
