date	time	subject	blockcode	trialcode	values.TaskNumber	response	latency	correct	values.Score	script.starttime	script.elapsedtime	values.ScoreS7	values.Word1	values.Word2	values.Word3	values.Word4	values.Word5	values.Word6	values.Word7	values.Word8	values.DigitSpanFwrd	values.DigitSpanBack	values.ScoreAbs	values.Contour	values.Numbers	values.Hands	values.corsiblockspanFwrd	values.corsiblockspanRev
100212	19:23:12	10024	Language	Language	0	French	308085	0	0	19:23:12	308185	0	0	0	0	0	0	0	0	0	0	0	0	0	0	0	0	0
100212	19:23:12	10024	Session	Session	0	3mo	693	0	0	19:23:12	308958	0	0	0	0	0	0	0	0	0	0	0	0	0	0	0	0	0
100212	19:23:12	10024	HandFr	HandFr	0	RightFr	1662	0	0	19:23:12	310704	0	0	0	0	0	0	0	0	0	0	0	0	0	0	0	0	0
100212	19:23:12	10024	AudioCheckFr	WordsFr	0	0	0	0	0	19:23:12	1548239	0	0	0	0	0	0	0	0	0	0	0	0	0	0	0	0	0
100212	19:23:12	10024	CubeFr	CubeFr	1	1Cube	74234	0	0	19:23:12	1625730	0	0	0	0	0	0	0	0	0	0	0	0	0	0	0	0	0
100212	19:23:12	10024	pm.simpleFrRight	blank.simpleFr	2	0	2287	1	0	19:23:12	1669499	0	0	0	0	0	0	0	0	0	0	0	0	0	0	0	0	0
100212	19:23:12	10024	pm.simpleFrRight	pm.simpleFr	2	57	271	0	0	19:23:12	1669805	0	0	0	0	0	0	0	0	0	0	0	0	0	0	0	0	0
100212	19:23:12	10024	pm.simpleFrRight	blank.simpleFr	2	0	2087	1	0	19:23:12	1671924	0	0	0	0	0	0	0	0	0	0	0	0	0	0	0	0	0
100212	19:23:12	10024	pm.simpleFrRight	pm.simpleFr	2	57	246	0	0	19:23:12	1672204	0	0	0	0	0	0	0	0	0	0	0	0	0	0	0	0	0
100212	19:23:12	10024	pm.simpleFrRight	blank.simpleFr	2	0	1687	1	0	19:23:12	1673910	0	0	0	0	0	0	0	0	0	0	0	0	0	0	0	0	0
100212	19:23:12	10024	pm.simpleFrRight	pm.simpleFr	2	57	260	0	0	19:23:12	1674203	0	0	0	0	0	0	0	0	0	0	0	0	0	0	0	0	0
100212	19:23:12	10024	pm.simpleFrRight	blank.simpleFr	2	0	1987	1	0	19:23:12	1676216	0	0	0	0	0	0	0	0	0	0	0	0	0	0	0	0	0
100212	19:23:12	10024	pm.simpleFrRight	pm.simpleFr	2	57	258	0	0	19:23:12	1676509	0	0	0	0	0	0	0	0	0	0	0	0	0	0	0	0	0
100212	19:23:12	10024	pm.simpleFrRight	blank.simpleFr	2	0	2187	1	0	19:23:12	1678721	0	0	0	0	0	0	0	0	0	0	0	0	0	0	0	0	0
100212	19:23:12	10024	pm.simpleFrRight	pm.simpleFr	2	57	312	0	0	19:23:12	1679068	0	0	0	0	0	0	0	0	0	0	0	0	0	0	0	0	0
100212	19:23:12	10024	pm.simpleFrRight	blank.simpleFr	2	0	1487	1	0	19:23:12	1680574	0	0	0	0	0	0	0	0	0	0	0	0	0	0	0	0	0
100212	19:23:12	10024	pm.simpleFrRight	pm.simpleFr	2	57	251	0	0	19:23:12	1680867	0	0	0	0	0	0	0	0	0	0	0	0	0	0	0	0	0
100212	19:23:12	10024	pm.simpleFrRight	blank.simpleFr	2	0	2487	1	0	19:23:12	1683386	0	0	0	0	0	0	0	0	0	0	0	0	0	0	0	0	0
100212	19:23:12	10024	pm.simpleFrRight	pm.simpleFr	2	57	239	0	0	19:23:12	1683666	0	0	0	0	0	0	0	0	0	0	0	0	0	0	0	0	0
100212	19:23:12	10024	pm.simpleFrRight	blank.simpleFr	2	0	2387	1	0	19:23:12	1686078	0	0	0	0	0	0	0	0	0	0	0	0	0	0	0	0	0
100212	19:23:12	10024	pm.simpleFrRight	pm.simpleFr	2	57	251	0	0	19:23:12	1686372	0	0	0	0	0	0	0	0	0	0	0	0	0	0	0	0	0
100212	19:23:12	10024	pm.simpleFrRight	blank.simpleFr	2	0	1587	1	0	19:23:12	1687984	0	0	0	0	0	0	0	0	0	0	0	0	0	0	0	0	0
100212	19:23:12	10024	pm.simpleFrRight	pm.simpleFr	2	57	297	0	0	19:23:12	1688317	0	0	0	0	0	0	0	0	0	0	0	0	0	0	0	0	0
100212	19:23:12	10024	pm.simpleFrRight	blank.simpleFr	2	0	1787	1	0	19:23:12	1690130	0	0	0	0	0	0	0	0	0	0	0	0	0	0	0	0	0
100212	19:23:12	10024	pm.simpleFrRight	pm.simpleFr	2	57	231	0	0	19:23:12	1690397	0	0	0	0	0	0	0	0	0	0	0	0	0	0	0	0	0
100212	19:23:12	10024	pm.simpleFrRight	blank.simpleFr	2	0	1887	1	0	19:23:12	1692303	0	0	0	0	0	0	0	0	0	0	0	0	0	0	0	0	0
100212	19:23:12	10024	pm.simpleFrRight	pm.simpleFr	2	57	251	0	0	19:23:12	1692596	0	0	0	0	0	0	0	0	0	0	0	0	0	0	0	0	0
100212	19:23:12	10024	pm.simpleFrRight	blank.simpleFr	2	0	2287	1	0	19:23:12	1694901	0	0	0	0	0	0	0	0	0	0	0	0	0	0	0	0	0
100212	19:23:12	10024	pm.simpleFrRight	pm.simpleFr	2	57	484	0	0	19:23:12	1695421	0	0	0	0	0	0	0	0	0	0	0	0	0	0	0	0	0
100212	19:23:12	10024	pm.simpleFrRight	blank.simpleFr	2	0	1787	1	0	19:23:12	1697234	0	0	0	0	0	0	0	0	0	0	0	0	0	0	0	0	0
100212	19:23:12	10024	pm.simpleFrRight	pm.simpleFr	2	57	263	0	0	19:23:12	1697527	0	0	0	0	0	0	0	0	0	0	0	0	0	0	0	0	0
100212	19:23:12	10024	pm.simpleFrRight	blank.simpleFr	2	0	1487	1	0	19:23:12	1699033	0	0	0	0	0	0	0	0	0	0	0	0	0	0	0	0	0
100212	19:23:12	10024	pm.simpleFrRight	pm.simpleFr	2	57	272	0	0	19:23:12	1699340	0	0	0	0	0	0	0	0	0	0	0	0	0	0	0	0	0
100212	19:23:12	10024	pm.simpleFrRight	blank.simpleFr	2	0	1987	1	0	19:23:12	1701352	0	0	0	0	0	0	0	0	0	0	0	0	0	0	0	0	0
100212	19:23:12	10024	pm.simpleFrRight	pm.simpleFr	2	57	241	0	0	19:23:12	1701632	0	0	0	0	0	0	0	0	0	0	0	0	0	0	0	0	0
100212	19:23:12	10024	pm.simpleFrRight	blank.simpleFr	2	0	2087	1	0	19:23:12	1703751	0	0	0	0	0	0	0	0	0	0	0	0	0	0	0	0	0
100212	19:23:12	10024	pm.simpleFrRight	pm.simpleFr	2	57	274	0	0	19:23:12	1704057	0	0	0	0	0	0	0	0	0	0	0	0	0	0	0	0	0
100212	19:23:12	10024	pm.simpleFrRight	blank.simpleFr	2	0	2487	1	0	19:23:12	1706577	0	0	0	0	0	0	0	0	0	0	0	0	0	0	0	0	0
100212	19:23:12	10024	pm.simpleFrRight	pm.simpleFr	2	57	232	0	0	19:23:12	1706843	0	0	0	0	0	0	0	0	0	0	0	0	0	0	0	0	0
100212	19:23:12	10024	pm.simpleFrRight	blank.simpleFr	2	0	2387	1	0	19:23:12	1709256	0	0	0	0	0	0	0	0	0	0	0	0	0	0	0	0	0
100212	19:23:12	10024	pm.simpleFrRight	pm.simpleFr	2	57	241	0	0	19:23:12	1709535	0	0	0	0	0	0	0	0	0	0	0	0	0	0	0	0	0
100212	19:23:12	10024	pm.simpleFrRight	blank.simpleFr	2	0	2187	1	0	19:23:12	1711748	0	0	0	0	0	0	0	0	0	0	0	0	0	0	0	0	0
100212	19:23:12	10024	pm.simpleFrRight	pm.simpleFr	2	57	229	0	0	19:23:12	1712014	0	0	0	0	0	0	0	0	0	0	0	0	0	0	0	0	0
100212	19:23:12	10024	pm.simpleFrRight	blank.simpleFr	2	0	1587	1	0	19:23:12	1713627	0	0	0	0	0	0	0	0	0	0	0	0	0	0	0	0	0
100212	19:23:12	10024	pm.simpleFrRight	pm.simpleFr	2	57	269	0	0	19:23:12	1713933	0	0	0	0	0	0	0	0	0	0	0	0	0	0	0	0	0
100212	19:23:12	10024	pm.simpleFrRight	blank.simpleFr	2	0	1687	1	0	19:23:12	1715653	0	0	0	0	0	0	0	0	0	0	0	0	0	0	0	0	0
100212	19:23:12	10024	pm.simpleFrRight	pm.simpleFr	2	57	212	0	0	19:23:12	1715906	0	0	0	0	0	0	0	0	0	0	0	0	0	0	0	0	0
100212	19:23:12	10024	pm.simpleFrRight	blank.simpleFr	2	0	1887	1	0	19:23:12	1717825	0	0	0	0	0	0	0	0	0	0	0	0	0	0	0	0	0
100212	19:23:12	10024	pm.simpleFrRight	pm.simpleFr	2	57	199	0	0	19:23:12	1718065	0	0	0	0	0	0	0	0	0	0	0	0	0	0	0	0	0
100212	19:23:12	10024	pm.simpleFrRight	blank.simpleFr	2	0	1987	1	0	19:23:12	1720078	0	0	0	0	0	0	0	0	0	0	0	0	0	0	0	0	0
100212	19:23:12	10024	pm.simpleFrRight	pm.simpleFr	2	57	269	0	0	19:23:12	1720384	0	0	0	0	0	0	0	0	0	0	0	0	0	0	0	0	0
100212	19:23:12	10024	pm.simpleFrRight	blank.simpleFr	2	0	1487	1	0	19:23:12	1721890	0	0	0	0	0	0	0	0	0	0	0	0	0	0	0	0	0
100212	19:23:12	10024	pm.simpleFrRight	pm.simpleFr	2	57	262	0	0	19:23:12	1722183	0	0	0	0	0	0	0	0	0	0	0	0	0	0	0	0	0
100212	19:23:12	10024	pm.simpleFrRight	blank.simpleFr	2	0	2087	1	0	19:23:12	1724289	0	0	0	0	0	0	0	0	0	0	0	0	0	0	0	0	0
100212	19:23:12	10024	pm.simpleFrRight	pm.simpleFr	2	57	263	0	0	19:23:12	1724582	0	0	0	0	0	0	0	0	0	0	0	0	0	0	0	0	0
100212	19:23:12	10024	pm.simpleFrRight	blank.simpleFr	2	0	2287	1	0	19:23:12	1726888	0	0	0	0	0	0	0	0	0	0	0	0	0	0	0	0	0
100212	19:23:12	10024	pm.simpleFrRight	pm.simpleFr	2	57	272	0	0	19:23:12	1727195	0	0	0	0	0	0	0	0	0	0	0	0	0	0	0	0	0
100212	19:23:12	10024	pm.simpleFrRight	blank.simpleFr	2	0	1887	1	0	19:23:12	1729114	0	0	0	0	0	0	0	0	0	0	0	0	0	0	0	0	0
100212	19:23:12	10024	pm.simpleFrRight	pm.simpleFr	2	57	238	0	0	19:23:12	1729394	0	0	0	0	0	0	0	0	0	0	0	0	0	0	0	0	0
100212	19:23:12	10024	pm.simpleFrRight	blank.simpleFr	2	0	2487	1	0	19:23:12	1731913	0	0	0	0	0	0	0	0	0	0	0	0	0	0	0	0	0
100212	19:23:12	10024	pm.simpleFrRight	pm.simpleFr	2	57	207	0	0	19:23:12	1732153	0	0	0	0	0	0	0	0	0	0	0	0	0	0	0	0	0
100212	19:23:12	10024	pm.simpleFrRight	blank.simpleFr	2	0	2387	1	0	19:23:12	1734565	0	0	0	0	0	0	0	0	0	0	0	0	0	0	0	0	0
100212	19:23:12	10024	pm.simpleFrRight	pm.simpleFr	2	57	227	0	0	19:23:12	1734832	0	0	0	0	0	0	0	0	0	0	0	0	0	0	0	0	0
100212	19:23:12	10024	pm.simpleFrRight	blank.simpleFr	2	0	2187	1	0	19:23:12	1737044	0	0	0	0	0	0	0	0	0	0	0	0	0	0	0	0	0
100212	19:23:12	10024	pm.simpleFrRight	pm.simpleFr	2	57	260	0	0	19:23:12	1737337	0	0	0	0	0	0	0	0	0	0	0	0	0	0	0	0	0
100212	19:23:12	10024	pm.simpleFrRight	blank.simpleFr	2	0	1687	1	0	19:23:12	1739043	0	0	0	0	0	0	0	0	0	0	0	0	0	0	0	0	0
100212	19:23:12	10024	pm.simpleFrRight	pm.simpleFr	2	57	260	0	0	19:23:12	1739337	0	0	0	0	0	0	0	0	0	0	0	0	0	0	0	0	0
100212	19:23:12	10024	pm.simpleFrRight	blank.simpleFr	2	0	1787	1	0	19:23:12	1741149	0	0	0	0	0	0	0	0	0	0	0	0	0	0	0	0	0
100212	19:23:12	10024	pm.simpleFrRight	pm.simpleFr	2	57	251	0	0	19:23:12	1741442	0	0	0	0	0	0	0	0	0	0	0	0	0	0	0	0	0
100212	19:23:12	10024	pm.simpleFrRight	blank.simpleFr	2	0	1587	1	0	19:23:12	1743055	0	0	0	0	0	0	0	0	0	0	0	0	0	0	0	0	0
100212	19:23:12	10024	pm.simpleFrRight	pm.simpleFr	2	57	249	0	0	19:23:12	1743335	0	0	0	0	0	0	0	0	0	0	0	0	0	0	0	0	0
100212	19:23:12	10024	pm.simpleFrRight	blank.simpleFr	2	0	2087	1	0	19:23:12	1745454	0	0	0	0	0	0	0	0	0	0	0	0	0	0	0	0	0
100212	19:23:12	10024	pm.simpleFrRight	pm.simpleFr	2	57	234	0	0	19:23:12	1745720	0	0	0	0	0	0	0	0	0	0	0	0	0	0	0	0	0
100212	19:23:12	10024	pm.simpleFrRight	blank.simpleFr	2	0	1987	1	0	19:23:12	1747733	0	0	0	0	0	0	0	0	0	0	0	0	0	0	0	0	0
100212	19:23:12	10024	pm.simpleFrRight	pm.simpleFr	2	57	258	0	0	19:23:12	1748026	0	0	0	0	0	0	0	0	0	0	0	0	0	0	0	0	0
100212	19:23:12	10024	pm.simpleFrRight	blank.simpleFr	2	0	2187	1	0	19:23:12	1750239	0	0	0	0	0	0	0	0	0	0	0	0	0	0	0	0	0
100212	19:23:12	10024	pm.simpleFrRight	pm.simpleFr	2	57	233	0	0	19:23:12	1750505	0	0	0	0	0	0	0	0	0	0	0	0	0	0	0	0	0
100212	19:23:12	10024	pm.simpleFrRight	blank.simpleFr	2	0	2287	1	0	19:23:12	1752811	0	0	0	0	0	0	0	0	0	0	0	0	0	0	0	0	0
100212	19:23:12	10024	pm.simpleFrRight	pm.simpleFr	2	57	268	0	0	19:23:12	1753117	0	0	0	0	0	0	0	0	0	0	0	0	0	0	0	0	0
100212	19:23:12	10024	pm.simpleFrRight	blank.simpleFr	2	0	1487	1	0	19:23:12	1754637	0	0	0	0	0	0	0	0	0	0	0	0	0	0	0	0	0
100212	19:23:12	10024	pm.simpleFrRight	pm.simpleFr	2	57	315	0	0	19:23:12	1754983	0	0	0	0	0	0	0	0	0	0	0	0	0	0	0	0	0
100212	19:23:12	10024	pm.simpleFrRight	blank.simpleFr	2	0	2487	1	0	19:23:12	1757502	0	0	0	0	0	0	0	0	0	0	0	0	0	0	0	0	0
100212	19:23:12	10024	pm.simpleFrRight	pm.simpleFr	2	57	265	0	0	19:23:12	1757809	0	0	0	0	0	0	0	0	0	0	0	0	0	0	0	0	0
100212	19:23:12	10024	pm.simpleFrRight	blank.simpleFr	2	0	1887	1	0	19:23:12	1759728	0	0	0	0	0	0	0	0	0	0	0	0	0	0	0	0	0
100212	19:23:12	10024	pm.simpleFrRight	pm.simpleFr	2	57	295	0	0	19:23:12	1760061	0	0	0	0	0	0	0	0	0	0	0	0	0	0	0	0	0
100212	19:23:12	10024	Trial2BackFr	N	3	0	1000	1	1	19:23:12	1849930	0	0	0	0	0	0	0	0	0	0	0	0	0	0	0	0	0
100212	19:23:12	10024	Trial2BackFr	N	3	0	1000	1	2	19:23:12	1851450	0	0	0	0	0	0	0	0	0	0	0	0	0	0	0	0	0
100212	19:23:12	10024	Trial2BackFr	N	3	0	1000	1	3	19:23:12	1852969	0	0	0	0	0	0	0	0	0	0	0	0	0	0	0	0	0
100212	19:23:12	10024	Trial2BackFr	N	3	0	1000	1	4	19:23:12	1854489	0	0	0	0	0	0	0	0	0	0	0	0	0	0	0	0	0
100212	19:23:12	10024	Trial2BackFr	N	3	0	1000	1	5	19:23:12	1856008	0	0	0	0	0	0	0	0	0	0	0	0	0	0	0	0	0
100212	19:23:12	10024	Trial2BackFr	N	3	0	1000	1	6	19:23:12	1857527	0	0	0	0	0	0	0	0	0	0	0	0	0	0	0	0	0
100212	19:23:12	10024	Trial2BackFr	N	3	0	1000	1	7	19:23:12	1859047	0	0	0	0	0	0	0	0	0	0	0	0	0	0	0	0	0
100212	19:23:12	10024	Trial2BackFr	N	3	0	1000	1	8	19:23:12	1860566	0	0	0	0	0	0	0	0	0	0	0	0	0	0	0	0	0
100212	19:23:12	10024	Trial2BackFr	Y	3	57	610	1	9	19:23:12	1861699	0	0	0	0	0	0	0	0	0	0	0	0	0	0	0	0	0
100212	19:23:12	10024	Trial2BackFr	N	3	0	1000	1	10	19:23:12	1863591	0	0	0	0	0	0	0	0	0	0	0	0	0	0	0	0	0
100212	19:23:12	10024	Trial2BackFr	N	3	0	1000	1	11	19:23:12	1865111	0	0	0	0	0	0	0	0	0	0	0	0	0	0	0	0	0
100212	19:23:12	10024	Trial2BackFr	N	3	0	1000	1	12	19:23:12	1866630	0	0	0	0	0	0	0	0	0	0	0	0	0	0	0	0	0
100212	19:23:12	10024	Trial2BackFr	Y	3	57	594	1	13	19:23:12	1867750	0	0	0	0	0	0	0	0	0	0	0	0	0	0	0	0	0
100212	19:23:12	10024	Trial2BackFr	N	3	0	1000	1	14	19:23:12	1869656	0	0	0	0	0	0	0	0	0	0	0	0	0	0	0	0	0
100212	19:23:12	10024	Trial2BackFr	N	3	0	1000	1	15	19:23:12	1871175	0	0	0	0	0	0	0	0	0	0	0	0	0	0	0	0	0
100212	19:23:12	10024	Trial2BackFr	N	3	0	1000	1	16	19:23:12	1872694	0	0	0	0	0	0	0	0	0	0	0	0	0	0	0	0	0
100212	19:23:12	10024	Trial2BackFr	N	3	0	1000	1	17	19:23:12	1874214	0	0	0	0	0	0	0	0	0	0	0	0	0	0	0	0	0
100212	19:23:12	10024	Trial2BackFr	N	3	0	1000	1	18	19:23:12	1875733	0	0	0	0	0	0	0	0	0	0	0	0	0	0	0	0	0
100212	19:23:12	10024	Trial2BackFr	Y	3	57	562	1	19	19:23:12	1876826	0	0	0	0	0	0	0	0	0	0	0	0	0	0	0	0	0
100212	19:23:12	10024	Trial2BackFr	N	3	0	1000	1	20	19:23:12	1878759	0	0	0	0	0	0	0	0	0	0	0	0	0	0	0	0	0
100212	19:23:12	10024	Trial2BackFr	N	3	0	1000	1	21	19:23:12	1880278	0	0	0	0	0	0	0	0	0	0	0	0	0	0	0	0	0
100212	19:23:12	10024	Trial2BackFr	N	3	0	1000	1	22	19:23:12	1881797	0	0	0	0	0	0	0	0	0	0	0	0	0	0	0	0	0
100212	19:23:12	10024	Trial2BackFr	N	3	0	1000	1	23	19:23:12	1883317	0	0	0	0	0	0	0	0	0	0	0	0	0	0	0	0	0
100212	19:23:12	10024	Trial2BackFr	Y	3	57	579	1	24	19:23:12	1884423	0	0	0	0	0	0	0	0	0	0	0	0	0	0	0	0	0
100212	19:23:12	10024	Trial2BackFr	N	3	0	1000	1	25	19:23:12	1886342	0	0	0	0	0	0	0	0	0	0	0	0	0	0	0	0	0
100212	19:23:12	10024	Trial2BackFr	N	3	0	1000	1	26	19:23:12	1887861	0	0	0	0	0	0	0	0	0	0	0	0	0	0	0	0	0
100212	19:23:12	10024	Trial2BackFr	N	3	0	1000	1	27	19:23:12	1889381	0	0	0	0	0	0	0	0	0	0	0	0	0	0	0	0	0
100212	19:23:12	10024	Trial2BackFr	N	3	0	1000	1	28	19:23:12	1890900	0	0	0	0	0	0	0	0	0	0	0	0	0	0	0	0	0
100212	19:23:12	10024	Trial2BackFr	N	3	0	1000	1	29	19:23:12	1892420	0	0	0	0	0	0	0	0	0	0	0	0	0	0	0	0	0
100212	19:23:12	10024	Trial2BackFr	N	3	0	1000	1	30	19:23:12	1893939	0	0	0	0	0	0	0	0	0	0	0	0	0	0	0	0	0
100212	19:23:12	10024	Trial2BackFr	Y	3	57	388	1	31	19:23:12	1894859	0	0	0	0	0	0	0	0	0	0	0	0	0	0	0	0	0
100212	19:23:12	10024	Trial2BackFr	N	3	0	1000	1	32	19:23:12	1896964	0	0	0	0	0	0	0	0	0	0	0	0	0	0	0	0	0
100212	19:23:12	10024	Trial2BackFr	N	3	0	1000	1	33	19:23:12	1898484	0	0	0	0	0	0	0	0	0	0	0	0	0	0	0	0	0
100212	19:23:12	10024	Trial2BackFr	N	3	0	1000	1	34	19:23:12	1900003	0	0	0	0	0	0	0	0	0	0	0	0	0	0	0	0	0
100212	19:23:12	10024	Trial2BackFr	Y	3	57	660	1	35	19:23:12	1901189	0	0	0	0	0	0	0	0	0	0	0	0	0	0	0	0	0
100212	19:23:12	10024	Trial2BackFr	N	3	0	1000	1	36	19:23:12	1903028	0	0	0	0	0	0	0	0	0	0	0	0	0	0	0	0	0
100212	19:23:12	10024	Trial2BackFr	N	3	0	1000	1	37	19:23:12	1904548	0	0	0	0	0	0	0	0	0	0	0	0	0	0	0	0	0
100212	19:23:12	10024	Trial2BackFr	N	3	0	1000	1	38	19:23:12	1906067	0	0	0	0	0	0	0	0	0	0	0	0	0	0	0	0	0
100212	19:23:12	10024	Trial2BackFr	N	3	0	1000	1	39	19:23:12	1907587	0	0	0	0	0	0	0	0	0	0	0	0	0	0	0	0	0
100212	19:23:12	10024	Trial2BackFr	N	3	0	1000	1	40	19:23:12	1909106	0	0	0	0	0	0	0	0	0	0	0	0	0	0	0	0	0
100212	19:23:12	10024	Trial2BackFr	N	3	0	1000	1	41	19:23:12	1910625	0	0	0	0	0	0	0	0	0	0	0	0	0	0	0	0	0
100212	19:23:12	10024	Trial2BackFr	Y	3	57	549	1	42	19:23:12	1911705	0	0	0	0	0	0	0	0	0	0	0	0	0	0	0	0	0
100212	19:23:12	10024	Trial2BackFr	N	3	0	1000	1	43	19:23:12	1913651	0	0	0	0	0	0	0	0	0	0	0	0	0	0	0	0	0
100212	19:23:12	10024	Trial2BackFr	N	3	0	1000	1	44	19:23:12	1915170	0	0	0	0	0	0	0	0	0	0	0	0	0	0	0	0	0
100212	19:23:12	10024	Trial2BackFr	N	3	0	1000	1	45	19:23:12	1916689	0	0	0	0	0	0	0	0	0	0	0	0	0	0	0	0	0
100212	19:23:12	10024	Trial2BackFr	N	3	0	1000	1	46	19:23:12	1918209	0	0	0	0	0	0	0	0	0	0	0	0	0	0	0	0	0
100212	19:23:12	10024	Trial2BackFr	Y	3	57	357	1	47	19:23:12	1919088	0	0	0	0	0	0	0	0	0	0	0	0	0	0	0	0	0
100212	19:23:12	10024	Trial2BackFr	N	3	0	1000	1	48	19:23:12	1921234	0	0	0	0	0	0	0	0	0	0	0	0	0	0	0	0	0
100212	19:23:12	10024	Trial2BackFr	N	3	0	1000	1	49	19:23:12	1922753	0	0	0	0	0	0	0	0	0	0	0	0	0	0	0	0	0
100212	19:23:12	10024	Trial2BackFr	N	3	0	1000	1	50	19:23:12	1924273	0	0	0	0	0	0	0	0	0	0	0	0	0	0	0	0	0
100212	19:23:12	10024	Trial2BackFr	N	3	0	1000	1	51	19:23:12	1925792	0	0	0	0	0	0	0	0	0	0	0	0	0	0	0	0	0
100212	19:23:12	10024	Trial2BackFr	N	3	0	1000	1	52	19:23:12	1927312	0	0	0	0	0	0	0	0	0	0	0	0	0	0	0	0	0
100212	19:23:12	10024	Trial2BackFr	Y	3	57	502	1	53	19:23:12	1928338	0	0	0	0	0	0	0	0	0	0	0	0	0	0	0	0	0
100212	19:23:12	10024	Trial2BackFr	N	3	0	1000	1	54	19:23:12	1930337	0	0	0	0	0	0	0	0	0	0	0	0	0	0	0	0	0
100212	19:23:12	10024	Trial2BackFr	N	3	0	1000	1	55	19:23:12	1931856	0	0	0	0	0	0	0	0	0	0	0	0	0	0	0	0	0
100212	19:23:12	10024	Trial2BackFr	N	3	0	1000	1	56	19:23:12	1933376	0	0	0	0	0	0	0	0	0	0	0	0	0	0	0	0	0
100212	19:23:12	10024	Trial2BackFr	N	3	0	1000	1	57	19:23:12	1934895	0	0	0	0	0	0	0	0	0	0	0	0	0	0	0	0	0
100212	19:23:12	10024	Trial2BackFr	N	3	0	1000	1	58	19:23:12	1936415	0	0	0	0	0	0	0	0	0	0	0	0	0	0	0	0	0
100212	19:23:12	10024	Trial2BackFr	N	3	0	1000	1	59	19:23:12	1937934	0	0	0	0	0	0	0	0	0	0	0	0	0	0	0	0	0
100212	19:23:12	10024	Trial2BackFr	Y	3	57	664	1	60	19:23:12	1939120	0	0	0	0	0	0	0	0	0	0	0	0	0	0	0	0	0
100212	19:23:12	10024	Trial2BackFr	N	3	0	1000	1	61	19:23:12	1940959	0	0	0	0	0	0	0	0	0	0	0	0	0	0	0	0	0
100212	19:23:12	10024	Trial2BackFr	N	3	0	1000	1	62	19:23:12	1942479	0	0	0	0	0	0	0	0	0	0	0	0	0	0	0	0	0
100212	19:23:12	10024	Trial2BackFr	Y	3	57	583	1	63	19:23:12	1943585	0	0	0	0	0	0	0	0	0	0	0	0	0	0	0	0	0
100212	19:23:12	10024	Trial2BackFr	N	3	0	1000	1	64	19:23:12	1945504	0	0	0	0	0	0	0	0	0	0	0	0	0	0	0	0	0
100212	19:23:12	10024	Trial2BackFr	N	3	0	1000	1	65	19:23:12	1947024	0	0	0	0	0	0	0	0	0	0	0	0	0	0	0	0	0
100212	19:23:12	10024	Trial2BackFr	N	3	0	1000	1	66	19:23:12	1948543	0	0	0	0	0	0	0	0	0	0	0	0	0	0	0	0	0
100212	19:23:12	10024	Trial2BackFr	N	3	0	1000	1	67	19:23:12	1950062	0	0	0	0	0	0	0	0	0	0	0	0	0	0	0	0	0
100212	19:23:12	10024	Trial2BackFr	N	3	0	1000	1	68	19:23:12	1951582	0	0	0	0	0	0	0	0	0	0	0	0	0	0	0	0	0
100212	19:23:12	10024	Trial2BackFr	N	3	0	1000	1	69	19:23:12	1953101	0	0	0	0	0	0	0	0	0	0	0	0	0	0	0	0	0
100212	19:23:12	10024	Trial2BackFr	N	3	57	520	0	69	19:23:12	1954154	0	0	0	0	0	0	0	0	0	0	0	0	0	0	0	0	0
100212	19:23:12	10024	Trial2BackFr	N	3	0	1000	1	70	19:23:12	1956126	0	0	0	0	0	0	0	0	0	0	0	0	0	0	0	0	0
100212	19:23:12	10024	Trial2BackFr	N	3	0	1000	1	71	19:23:12	1957646	0	0	0	0	0	0	0	0	0	0	0	0	0	0	0	0	0
100212	19:23:12	10024	Trial2BackFr	N	3	0	1000	1	72	19:23:12	1959165	0	0	0	0	0	0	0	0	0	0	0	0	0	0	0	0	0
100212	19:23:12	10024	Trial2BackFr	Y	3	57	711	1	73	19:23:12	1960405	0	0	0	0	0	0	0	0	0	0	0	0	0	0	0	0	0
100212	19:23:12	10024	Trial2BackFr	N	3	0	1000	1	74	19:23:12	1962191	0	0	0	0	0	0	0	0	0	0	0	0	0	0	0	0	0
100212	19:23:12	10024	Trial2BackFr	N	3	0	1000	1	75	19:23:12	1963710	0	0	0	0	0	0	0	0	0	0	0	0	0	0	0	0	0
100212	19:23:12	10024	Trial2BackFr	N	3	0	1000	1	76	19:23:12	1965229	0	0	0	0	0	0	0	0	0	0	0	0	0	0	0	0	0
100212	19:23:12	10024	Trial2BackFr	Y	3	57	551	1	77	19:23:12	1966309	0	0	0	0	0	0	0	0	0	0	0	0	0	0	0	0	0
100212	19:23:12	10024	Trial2BackFr	N	3	0	1000	1	78	19:23:12	1968255	0	0	0	0	0	0	0	0	0	0	0	0	0	0	0	0	0
100212	19:23:12	10024	Trial2BackFr	N	3	0	1000	1	79	19:23:12	1969774	0	0	0	0	0	0	0	0	0	0	0	0	0	0	0	0	0
100212	19:23:12	10024	Trial2BackFr	N	3	0	1000	1	80	19:23:12	1971294	0	0	0	0	0	0	0	0	0	0	0	0	0	0	0	0	0
100212	19:23:12	10024	Trial2BackFr	N	3	0	1000	1	81	19:23:12	1972813	0	0	0	0	0	0	0	0	0	0	0	0	0	0	0	0	0
100212	19:23:12	10024	Trial2BackFr	N	3	0	1000	1	82	19:23:12	1974332	0	0	0	0	0	0	0	0	0	0	0	0	0	0	0	0	0
100212	19:23:12	10024	Trial2BackFr	Y	3	57	360	1	83	19:23:12	1975225	0	0	0	0	0	0	0	0	0	0	0	0	0	0	0	0	0
100212	19:23:12	10024	Trial2BackFr	N	3	0	1000	1	84	19:23:12	1977358	0	0	0	0	0	0	0	0	0	0	0	0	0	0	0	0	0
100212	19:23:12	10024	Trial2BackFr	N	3	0	1000	1	85	19:23:12	1978877	0	0	0	0	0	0	0	0	0	0	0	0	0	0	0	0	0
100212	19:23:12	10024	Trial2BackFr	N	3	0	1000	1	86	19:23:12	1980396	0	0	0	0	0	0	0	0	0	0	0	0	0	0	0	0	0
100212	19:23:12	10024	Trial2BackFr	N	3	0	1000	1	87	19:23:12	1981916	0	0	0	0	0	0	0	0	0	0	0	0	0	0	0	0	0
100212	19:23:12	10024	Trial2BackFr	N	3	0	1000	1	88	19:23:12	1983435	0	0	0	0	0	0	0	0	0	0	0	0	0	0	0	0	0
100212	19:23:12	10024	Trial2BackFr	N	3	0	1000	1	89	19:23:12	1984955	0	0	0	0	0	0	0	0	0	0	0	0	0	0	0	0	0
100212	19:23:12	10024	Trial2BackFr	N	3	0	1000	1	90	19:23:12	1986474	0	0	0	0	0	0	0	0	0	0	0	0	0	0	0	0	0
100212	19:23:12	10024	Trial2BackFr	N	3	57	602	0	90	19:23:12	1987607	0	0	0	0	0	0	0	0	0	0	0	0	0	0	0	0	0
100212	19:23:12	10024	Trial2BackFr	N	3	0	1000	1	91	19:23:12	1989499	0	0	0	0	0	0	0	0	0	0	0	0	0	0	0	0	0
100212	19:23:12	10024	Trial2BackFr	Y	3	0	1000	0	91	19:23:12	1991019	0	0	0	0	0	0	0	0	0	0	0	0	0	0	0	0	0
100212	19:23:12	10024	Trial2BackFr	N	3	0	1000	1	92	19:23:12	1992538	0	0	0	0	0	0	0	0	0	0	0	0	0	0	0	0	0
100212	19:23:12	10024	Trial2BackFr	N	3	0	1000	1	93	19:23:12	1994057	0	0	0	0	0	0	0	0	0	0	0	0	0	0	0	0	0
100212	19:23:12	10024	Trial2BackFr	N	3	0	1000	1	94	19:23:12	1995577	0	0	0	0	0	0	0	0	0	0	0	0	0	0	0	0	0
100212	19:23:12	10024	Trial2BackFr	N	3	0	1000	1	95	19:23:12	1997096	0	0	0	0	0	0	0	0	0	0	0	0	0	0	0	0	0
100212	19:23:12	10024	Trial2BackFr	N	3	0	1000	1	96	19:23:12	1998616	0	0	0	0	0	0	0	0	0	0	0	0	0	0	0	0	0
100212	19:23:12	10024	Trial2BackFr	N	3	0	1000	1	97	19:23:12	2000135	0	0	0	0	0	0	0	0	0	0	0	0	0	0	0	0	0
100212	19:23:12	10024	Trial2BackFr	N	3	0	1000	1	98	19:23:12	2001654	0	0	0	0	0	0	0	0	0	0	0	0	0	0	0	0	0
100212	19:23:12	10024	Trial2BackFr	N	3	0	1000	1	99	19:23:12	2003174	0	0	0	0	0	0	0	0	0	0	0	0	0	0	0	0	0
100212	19:23:12	10024	Trial2BackFr	Y	3	57	590	1	100	19:23:12	2004293	0	0	0	0	0	0	0	0	0	0	0	0	0	0	0	0	0
100212	19:23:12	10024	Trial2BackFr	N	3	0	1000	1	101	19:23:12	2006199	0	0	0	0	0	0	0	0	0	0	0	0	0	0	0	0	0
100212	19:23:12	10024	Trial2BackFr	N	3	0	1000	1	102	19:23:12	2007718	0	0	0	0	0	0	0	0	0	0	0	0	0	0	0	0	0
100212	19:23:12	10024	Trial2BackFr	N	3	0	1000	1	103	19:23:12	2009238	0	0	0	0	0	0	0	0	0	0	0	0	0	0	0	0	0
100212	19:23:12	10024	Trial2BackFr	N	3	0	1000	1	104	19:23:12	2010757	0	0	0	0	0	0	0	0	0	0	0	0	0	0	0	0	0
100212	19:23:12	10024	Trial2BackFr	Y	3	57	734	1	105	19:23:12	2012023	0	0	0	0	0	0	0	0	0	0	0	0	0	0	0	0	0
100212	19:23:12	10024	Trial2BackFr	N	3	0	1000	1	106	19:23:12	2013783	0	0	0	0	0	0	0	0	0	0	0	0	0	0	0	0	0
100212	19:23:12	10024	Trial2BackFr	N	3	0	1000	1	107	19:23:12	2015302	0	0	0	0	0	0	0	0	0	0	0	0	0	0	0	0	0
100212	19:23:12	10024	Trial2BackFr	N	3	0	1000	1	108	19:23:12	2016821	0	0	0	0	0	0	0	0	0	0	0	0	0	0	0	0	0
100212	19:23:12	10024	Trial2BackFr	Y	3	57	718	1	109	19:23:12	2018061	0	0	0	0	0	0	0	0	0	0	0	0	0	0	0	0	0
100212	19:23:12	10024	Trial2BackFr	N	3	0	1000	1	110	19:23:12	2019847	0	0	0	0	0	0	0	0	0	0	0	0	0	0	0	0	0
100212	19:23:12	10024	Trial2BackFr	N	3	0	1000	1	111	19:23:12	2021366	0	0	0	0	0	0	0	0	0	0	0	0	0	0	0	0	0
100212	19:23:12	10024	Trial2BackFr	N	3	0	1000	1	112	19:23:12	2022885	0	0	0	0	0	0	0	0	0	0	0	0	0	0	0	0	0
100212	19:23:12	10024	Trial2BackFr	N	3	0	1000	1	113	19:23:12	2024405	0	0	0	0	0	0	0	0	0	0	0	0	0	0	0	0	0
100212	19:23:12	10024	Trial2BackFr	N	3	0	1000	1	114	19:23:12	2025924	0	0	0	0	0	0	0	0	0	0	0	0	0	0	0	0	0
100212	19:23:12	10024	Trial2BackFr	Y	3	57	543	1	115	19:23:12	2026990	0	0	0	0	0	0	0	0	0	0	0	0	0	0	0	0	0
100212	19:23:12	10024	Trial2BackFr	N	3	0	1000	1	116	19:23:12	2028950	0	0	0	0	0	0	0	0	0	0	0	0	0	0	0	0	0
100212	19:23:12	10024	Trial2BackFr	N	3	0	1000	1	117	19:23:12	2030469	0	0	0	0	0	0	0	0	0	0	0	0	0	0	0	0	0
100212	19:23:12	10024	Trial2BackFr	N	3	0	1000	1	118	19:23:12	2031988	0	0	0	0	0	0	0	0	0	0	0	0	0	0	0	0	0
100212	19:23:12	10024	Trial2BackFr	Y	3	57	654	1	119	19:23:12	2033175	0	0	0	0	0	0	0	0	0	0	0	0	0	0	0	0	0
100212	19:23:12	10024	Trial3BackFr	NN	4	0	1000	1	119	19:23:12	2060590	0	0	0	0	0	0	0	0	0	0	0	0	0	0	0	0	0
100212	19:23:12	10024	Trial3BackFr	NN	4	0	1000	1	119	19:23:12	2062109	0	0	0	0	0	0	0	0	0	0	0	0	0	0	0	0	0
100212	19:23:12	10024	Trial3BackFr	NN	4	0	1000	1	119	19:23:12	2063628	0	0	0	0	0	0	0	0	0	0	0	0	0	0	0	0	0
100212	19:23:12	10024	Trial3BackFr	YY	4	57	965	1	119	19:23:12	2065121	0	0	0	0	0	0	0	0	0	0	0	0	0	0	0	0	0
100212	19:23:12	10024	Trial3BackFr	NN	4	0	1000	1	119	19:23:12	2066654	0	0	0	0	0	0	0	0	0	0	0	0	0	0	0	0	0
100212	19:23:12	10024	Trial3BackFr	NN	4	0	1000	1	119	19:23:12	2068173	0	0	0	0	0	0	0	0	0	0	0	0	0	0	0	0	0
100212	19:23:12	10024	Trial3BackFr	NN	4	0	1000	1	119	19:23:12	2069693	0	0	0	0	0	0	0	0	0	0	0	0	0	0	0	0	0
100212	19:23:12	10024	Trial3BackFr	NN	4	0	1000	1	119	19:23:12	2071212	0	0	0	0	0	0	0	0	0	0	0	0	0	0	0	0	0
100212	19:23:12	10024	Trial3BackFr	YY	4	0	1000	0	119	19:23:12	2072731	0	0	0	0	0	0	0	0	0	0	0	0	0	0	0	0	0
100212	19:23:12	10024	Trial3BackFr	NN	4	0	1000	1	119	19:23:12	2074251	0	0	0	0	0	0	0	0	0	0	0	0	0	0	0	0	0
100212	19:23:12	10024	Trial3BackFr	NN	4	0	1000	1	119	19:23:12	2075770	0	0	0	0	0	0	0	0	0	0	0	0	0	0	0	0	0
100212	19:23:12	10024	Trial3BackFr	NN	4	0	1000	1	119	19:23:12	2077289	0	0	0	0	0	0	0	0	0	0	0	0	0	0	0	0	0
100212	19:23:12	10024	Trial3BackFr	NN	4	0	1000	1	119	19:23:12	2078809	0	0	0	0	0	0	0	0	0	0	0	0	0	0	0	0	0
100212	19:23:12	10024	Trial3BackFr	NN	4	0	1000	1	119	19:23:12	2080328	0	0	0	0	0	0	0	0	0	0	0	0	0	0	0	0	0
100212	19:23:12	10024	Trial3BackFr	NN	4	0	1000	1	119	19:23:12	2081848	0	0	0	0	0	0	0	0	0	0	0	0	0	0	0	0	0
100212	19:23:12	10024	Trial3BackFr	NN	4	0	1000	1	119	19:23:12	2083367	0	0	0	0	0	0	0	0	0	0	0	0	0	0	0	0	0
100212	19:23:12	10024	Trial3BackFr	YY	4	0	1000	0	119	19:23:12	2084886	0	0	0	0	0	0	0	0	0	0	0	0	0	0	0	0	0
100212	19:23:12	10024	Trial3BackFr	NN	4	0	1000	1	119	19:23:12	2086406	0	0	0	0	0	0	0	0	0	0	0	0	0	0	0	0	0
100212	19:23:12	10024	Trial3BackFr	NN	4	0	1000	1	119	19:23:12	2087925	0	0	0	0	0	0	0	0	0	0	0	0	0	0	0	0	0
100212	19:23:12	10024	Trial3BackFr	NN	4	0	1000	1	119	19:23:12	2089444	0	0	0	0	0	0	0	0	0	0	0	0	0	0	0	0	0
100212	19:23:12	10024	Trial3BackFr	NN	4	57	828	0	119	19:23:12	2090804	0	0	0	0	0	0	0	0	0	0	0	0	0	0	0	0	0
100212	19:23:12	10024	Trial3BackFr	NN	4	0	1000	1	119	19:23:12	2092470	0	0	0	0	0	0	0	0	0	0	0	0	0	0	0	0	0
100212	19:23:12	10024	Trial3BackFr	YY	4	0	1000	0	119	19:23:12	2093989	0	0	0	0	0	0	0	0	0	0	0	0	0	0	0	0	0
100212	19:23:12	10024	Trial3BackFr	NN	4	0	1000	1	119	19:23:12	2095509	0	0	0	0	0	0	0	0	0	0	0	0	0	0	0	0	0
100212	19:23:12	10024	Trial3BackFr	NN	4	0	1000	1	119	19:23:12	2097028	0	0	0	0	0	0	0	0	0	0	0	0	0	0	0	0	0
100212	19:23:12	10024	Trial3BackFr	NN	4	0	1000	1	119	19:23:12	2098547	0	0	0	0	0	0	0	0	0	0	0	0	0	0	0	0	0
100212	19:23:12	10024	Trial3BackFr	YY	4	57	557	1	119	19:23:12	2099627	0	0	0	0	0	0	0	0	0	0	0	0	0	0	0	0	0
100212	19:23:12	10024	Trial3BackFr	NN	4	0	1000	1	119	19:23:12	2101573	0	0	0	0	0	0	0	0	0	0	0	0	0	0	0	0	0
100212	19:23:12	10024	Trial3BackFr	NN	4	0	1000	1	119	19:23:12	2103092	0	0	0	0	0	0	0	0	0	0	0	0	0	0	0	0	0
100212	19:23:12	10024	Trial3BackFr	NN	4	0	1000	1	119	19:23:12	2104612	0	0	0	0	0	0	0	0	0	0	0	0	0	0	0	0	0
100212	19:23:12	10024	Trial3BackFr	YY	4	57	572	1	119	19:23:12	2105718	0	0	0	0	0	0	0	0	0	0	0	0	0	0	0	0	0
100212	19:23:12	10024	Trial3BackFr	NN	4	0	1000	1	119	19:23:12	2107637	0	0	0	0	0	0	0	0	0	0	0	0	0	0	0	0	0
100212	19:23:12	10024	Trial3BackFr	NN	4	0	1000	1	119	19:23:12	2109156	0	0	0	0	0	0	0	0	0	0	0	0	0	0	0	0	0
100212	19:23:12	10024	Trial3BackFr	NN	4	0	1000	1	119	19:23:12	2110676	0	0	0	0	0	0	0	0	0	0	0	0	0	0	0	0	0
100212	19:23:12	10024	Trial3BackFr	NN	4	0	1000	1	119	19:23:12	2112195	0	0	0	0	0	0	0	0	0	0	0	0	0	0	0	0	0
100212	19:23:12	10024	Trial3BackFr	NN	4	0	1000	1	119	19:23:12	2113715	0	0	0	0	0	0	0	0	0	0	0	0	0	0	0	0	0
100212	19:23:12	10024	Trial3BackFr	NN	4	0	1000	1	119	19:23:12	2115234	0	0	0	0	0	0	0	0	0	0	0	0	0	0	0	0	0
100212	19:23:12	10024	Trial3BackFr	NN	4	0	1000	1	119	19:23:12	2116753	0	0	0	0	0	0	0	0	0	0	0	0	0	0	0	0	0
100212	19:23:12	10024	Trial3BackFr	NN	4	0	1000	1	119	19:23:12	2118273	0	0	0	0	0	0	0	0	0	0	0	0	0	0	0	0	0
100212	19:23:12	10024	Trial3BackFr	NN	4	0	1000	1	119	19:23:12	2119792	0	0	0	0	0	0	0	0	0	0	0	0	0	0	0	0	0
100212	19:23:12	10024	Trial3BackFr	NN	4	0	1000	1	119	19:23:12	2121311	0	0	0	0	0	0	0	0	0	0	0	0	0	0	0	0	0
100212	19:23:12	10024	Trial3BackFr	YY	4	57	720	1	119	19:23:12	2122564	0	0	0	0	0	0	0	0	0	0	0	0	0	0	0	0	0
100212	19:23:12	10024	Trial3BackFr	NN	4	0	1000	1	119	19:23:12	2124337	0	0	0	0	0	0	0	0	0	0	0	0	0	0	0	0	0
100212	19:23:12	10024	Trial3BackFr	NN	4	0	1000	1	119	19:23:12	2125856	0	0	0	0	0	0	0	0	0	0	0	0	0	0	0	0	0
100212	19:23:12	10024	Trial3BackFr	NN	4	0	1000	1	119	19:23:12	2127375	0	0	0	0	0	0	0	0	0	0	0	0	0	0	0	0	0
100212	19:23:12	10024	Trial3BackFr	NN	4	0	1000	1	119	19:23:12	2128895	0	0	0	0	0	0	0	0	0	0	0	0	0	0	0	0	0
100212	19:23:12	10024	Trial3BackFr	YY	4	57	785	1	119	19:23:12	2130214	0	0	0	0	0	0	0	0	0	0	0	0	0	0	0	0	0
100212	19:23:12	10024	Trial3BackFr	NN	4	0	1000	1	119	19:23:12	2131920	0	0	0	0	0	0	0	0	0	0	0	0	0	0	0	0	0
100212	19:23:12	10024	Trial3BackFr	NN	4	0	1000	1	119	19:23:12	2133440	0	0	0	0	0	0	0	0	0	0	0	0	0	0	0	0	0
100212	19:23:12	10024	Trial3BackFr	NN	4	0	1000	1	119	19:23:12	2134959	0	0	0	0	0	0	0	0	0	0	0	0	0	0	0	0	0
100212	19:23:12	10024	Trial3BackFr	NN	4	0	1000	1	119	19:23:12	2136478	0	0	0	0	0	0	0	0	0	0	0	0	0	0	0	0	0
100212	19:23:12	10024	Trial3BackFr	NN	4	0	1000	1	119	19:23:12	2137998	0	0	0	0	0	0	0	0	0	0	0	0	0	0	0	0	0
100212	19:23:12	10024	Trial3BackFr	YY	4	57	881	1	119	19:23:12	2139410	0	0	0	0	0	0	0	0	0	0	0	0	0	0	0	0	0
100212	19:23:12	10024	Trial3BackFr	NN	4	0	1000	1	119	19:23:12	2141023	0	0	0	0	0	0	0	0	0	0	0	0	0	0	0	0	0
100212	19:23:12	10024	Trial3BackFr	NN	4	0	1000	1	119	19:23:12	2142542	0	0	0	0	0	0	0	0	0	0	0	0	0	0	0	0	0
100212	19:23:12	10024	Trial3BackFr	NN	4	0	1000	1	119	19:23:12	2144062	0	0	0	0	0	0	0	0	0	0	0	0	0	0	0	0	0
100212	19:23:12	10024	Trial3BackFr	NN	4	0	1000	1	119	19:23:12	2145581	0	0	0	0	0	0	0	0	0	0	0	0	0	0	0	0	0
100212	19:23:12	10024	Trial3BackFr	NN	4	0	1000	1	119	19:23:12	2147101	0	0	0	0	0	0	0	0	0	0	0	0	0	0	0	0	0
100212	19:23:12	10024	Trial3BackFr	NN	4	0	1000	1	119	19:23:12	2148620	0	0	0	0	0	0	0	0	0	0	0	0	0	0	0	0	0
100212	19:23:12	10024	Trial3BackFr	YY	4	57	802	1	119	19:23:12	2149953	0	0	0	0	0	0	0	0	0	0	0	0	0	0	0	0	0
100212	19:23:12	10024	Trial3BackFr	NN	4	0	1000	1	119	19:23:12	2151645	0	0	0	0	0	0	0	0	0	0	0	0	0	0	0	0	0
100212	19:23:12	10024	Trial3BackFr	NN	4	0	1000	1	119	19:23:12	2153165	0	0	0	0	0	0	0	0	0	0	0	0	0	0	0	0	0
100212	19:23:12	10024	Trial3BackFr	NN	4	0	1000	1	119	19:23:12	2154684	0	0	0	0	0	0	0	0	0	0	0	0	0	0	0	0	0
100212	19:23:12	10024	Trial3BackFr	YY	4	0	1000	0	119	19:23:12	2156203	0	0	0	0	0	0	0	0	0	0	0	0	0	0	0	0	0
100212	19:23:12	10024	Trial3BackFr	NN	4	0	1000	1	119	19:23:12	2157723	0	0	0	0	0	0	0	0	0	0	0	0	0	0	0	0	0
100212	19:23:12	10024	Trial3BackFr	NN	4	0	1000	1	119	19:23:12	2159242	0	0	0	0	0	0	0	0	0	0	0	0	0	0	0	0	0
100212	19:23:12	10024	Trial3BackFr	NN	4	0	1000	1	119	19:23:12	2160762	0	0	0	0	0	0	0	0	0	0	0	0	0	0	0	0	0
100212	19:23:12	10024	Trial3BackFr	NN	4	0	1000	1	119	19:23:12	2162281	0	0	0	0	0	0	0	0	0	0	0	0	0	0	0	0	0
100212	19:23:12	10024	Trial3BackFr	NN	4	57	646	0	119	19:23:12	2163454	0	0	0	0	0	0	0	0	0	0	0	0	0	0	0	0	0
100212	19:23:12	10024	Trial3BackFr	NN	4	0	1000	1	119	19:23:12	2165306	0	0	0	0	0	0	0	0	0	0	0	0	0	0	0	0	0
100212	19:23:12	10024	Trial3BackFr	NN	4	0	1000	1	119	19:23:12	2166826	0	0	0	0	0	0	0	0	0	0	0	0	0	0	0	0	0
100212	19:23:12	10024	Trial3BackFr	NN	4	0	1000	1	119	19:23:12	2168345	0	0	0	0	0	0	0	0	0	0	0	0	0	0	0	0	0
100212	19:23:12	10024	Trial3BackFr	NN	4	0	1000	1	119	19:23:12	2169864	0	0	0	0	0	0	0	0	0	0	0	0	0	0	0	0	0
100212	19:23:12	10024	Trial3BackFr	YY	4	0	1000	0	119	19:23:12	2171384	0	0	0	0	0	0	0	0	0	0	0	0	0	0	0	0	0
100212	19:23:12	10024	Trial3BackFr	NN	4	0	1000	1	119	19:23:12	2172903	0	0	0	0	0	0	0	0	0	0	0	0	0	0	0	0	0
100212	19:23:12	10024	Trial3BackFr	NN	4	0	1000	1	119	19:23:12	2174422	0	0	0	0	0	0	0	0	0	0	0	0	0	0	0	0	0
100212	19:23:12	10024	Trial3BackFr	NN	4	0	1000	1	119	19:23:12	2175942	0	0	0	0	0	0	0	0	0	0	0	0	0	0	0	0	0
100212	19:23:12	10024	Trial3BackFr	YY	4	57	728	1	119	19:23:12	2177195	0	0	0	0	0	0	0	0	0	0	0	0	0	0	0	0	0
100212	19:23:12	10024	Trial3BackFr	NN	4	0	1000	1	119	19:23:12	2178967	0	0	0	0	0	0	0	0	0	0	0	0	0	0	0	0	0
100212	19:23:12	10024	Trial3BackFr	NN	4	0	1000	1	119	19:23:12	2180487	0	0	0	0	0	0	0	0	0	0	0	0	0	0	0	0	0
100212	19:23:12	10024	Trial3BackFr	NN	4	0	1000	1	119	19:23:12	2182006	0	0	0	0	0	0	0	0	0	0	0	0	0	0	0	0	0
100212	19:23:12	10024	Trial3BackFr	NN	4	57	791	0	119	19:23:12	2183325	0	0	0	0	0	0	0	0	0	0	0	0	0	0	0	0	0
100212	19:23:12	10024	Trial3BackFr	NN	4	0	1000	1	119	19:23:12	2185031	0	0	0	0	0	0	0	0	0	0	0	0	0	0	0	0	0
100212	19:23:12	10024	Trial3BackFr	YY	4	0	1000	0	119	19:23:12	2186551	0	0	0	0	0	0	0	0	0	0	0	0	0	0	0	0	0
100212	19:23:12	10024	Trial3BackFr	NN	4	0	1000	1	119	19:23:12	2188070	0	0	0	0	0	0	0	0	0	0	0	0	0	0	0	0	0
100212	19:23:12	10024	Trial3BackFr	NN	4	0	1000	1	119	19:23:12	2189590	0	0	0	0	0	0	0	0	0	0	0	0	0	0	0	0	0
100212	19:23:12	10024	Trial3BackFr	NN	4	0	1000	1	119	19:23:12	2191109	0	0	0	0	0	0	0	0	0	0	0	0	0	0	0	0	0
100212	19:23:12	10024	Trial3BackFr	NN	4	0	1000	1	119	19:23:12	2192628	0	0	0	0	0	0	0	0	0	0	0	0	0	0	0	0	0
100212	19:23:12	10024	Trial3BackFr	NN	4	0	1000	1	119	19:23:12	2194148	0	0	0	0	0	0	0	0	0	0	0	0	0	0	0	0	0
100212	19:23:12	10024	Trial3BackFr	NN	4	0	1000	1	119	19:23:12	2195667	0	0	0	0	0	0	0	0	0	0	0	0	0	0	0	0	0
100212	19:23:12	10024	Trial3BackFr	NN	4	57	666	0	119	19:23:12	2196867	0	0	0	0	0	0	0	0	0	0	0	0	0	0	0	0	0
100212	19:23:12	10024	Trial3BackFr	NN	4	0	1000	1	119	19:23:12	2198693	0	0	0	0	0	0	0	0	0	0	0	0	0	0	0	0	0
100212	19:23:12	10024	Trial3BackFr	NN	4	0	1000	1	119	19:23:12	2200212	0	0	0	0	0	0	0	0	0	0	0	0	0	0	0	0	0
100212	19:23:12	10024	Trial3BackFr	YY	4	0	1000	0	119	19:23:12	2201731	0	0	0	0	0	0	0	0	0	0	0	0	0	0	0	0	0
100212	19:23:12	10024	Trial3BackFr	NN	4	0	1000	1	119	19:23:12	2203251	0	0	0	0	0	0	0	0	0	0	0	0	0	0	0	0	0
100212	19:23:12	10024	Trial3BackFr	NN	4	0	1000	1	119	19:23:12	2204770	0	0	0	0	0	0	0	0	0	0	0	0	0	0	0	0	0
100212	19:23:12	10024	Trial3BackFr	NN	4	0	1000	1	119	19:23:12	2206289	0	0	0	0	0	0	0	0	0	0	0	0	0	0	0	0	0
100212	19:23:12	10024	Trial3BackFr	NN	4	0	1000	1	119	19:23:12	2207809	0	0	0	0	0	0	0	0	0	0	0	0	0	0	0	0	0
100212	19:23:12	10024	Trial3BackFr	NN	4	0	1000	1	119	19:23:12	2209328	0	0	0	0	0	0	0	0	0	0	0	0	0	0	0	0	0
100212	19:23:12	10024	Trial3BackFr	NN	4	0	1000	1	119	19:23:12	2210847	0	0	0	0	0	0	0	0	0	0	0	0	0	0	0	0	0
100212	19:23:12	10024	Trial3BackFr	NN	4	0	1000	1	119	19:23:12	2212367	0	0	0	0	0	0	0	0	0	0	0	0	0	0	0	0	0
100212	19:23:12	10024	Trial3BackFr	NN	4	0	1000	1	119	19:23:12	2213886	0	0	0	0	0	0	0	0	0	0	0	0	0	0	0	0	0
100212	19:23:12	10024	Trial3BackFr	YY	4	57	958	1	119	19:23:12	2215379	0	0	0	0	0	0	0	0	0	0	0	0	0	0	0	0	0
100212	19:23:12	10024	Trial3BackFr	NN	4	0	1000	1	119	19:23:12	2216912	0	0	0	0	0	0	0	0	0	0	0	0	0	0	0	0	0
100212	19:23:12	10024	Trial3BackFr	NN	4	0	1000	1	119	19:23:12	2218431	0	0	0	0	0	0	0	0	0	0	0	0	0	0	0	0	0
100212	19:23:12	10024	Trial3BackFr	NN	4	0	1000	1	119	19:23:12	2219950	0	0	0	0	0	0	0	0	0	0	0	0	0	0	0	0	0
100212	19:23:12	10024	Trial3BackFr	NN	4	0	1000	1	119	19:23:12	2221470	0	0	0	0	0	0	0	0	0	0	0	0	0	0	0	0	0
100212	19:23:12	10024	Trial3BackFr	YY	4	57	462	1	119	19:23:12	2222456	0	0	0	0	0	0	0	0	0	0	0	0	0	0	0	0	0
100212	19:23:12	10024	Trial3BackFr	NN	4	0	1000	1	119	19:23:12	2224495	0	0	0	0	0	0	0	0	0	0	0	0	0	0	0	0	0
100212	19:23:12	10024	Trial3BackFr	NN	4	0	1000	1	119	19:23:12	2226015	0	0	0	0	0	0	0	0	0	0	0	0	0	0	0	0	0
100212	19:23:12	10024	Trial3BackFr	NN	4	0	1000	1	119	19:23:12	2227534	0	0	0	0	0	0	0	0	0	0	0	0	0	0	0	0	0
100212	19:23:12	10024	Trial3BackFr	YY	4	57	478	1	119	19:23:12	2228533	0	0	0	0	0	0	0	0	0	0	0	0	0	0	0	0	0
100212	19:23:12	10024	Trial3BackFr	NN	4	0	1000	1	119	19:23:12	2230559	0	0	0	0	0	0	0	0	0	0	0	0	0	0	0	0	0
100212	19:23:12	10024	Trial3BackFr	NN	4	0	1000	1	119	19:23:12	2232079	0	0	0	0	0	0	0	0	0	0	0	0	0	0	0	0	0
100212	19:23:12	10024	Trial3BackFr	NN	4	0	1000	1	119	19:23:12	2233598	0	0	0	0	0	0	0	0	0	0	0	0	0	0	0	0	0
100212	19:23:12	10024	Trial3BackFr	NN	4	0	1000	1	119	19:23:12	2235117	0	0	0	0	0	0	0	0	0	0	0	0	0	0	0	0	0
100212	19:23:12	10024	Trial3BackFr	NN	4	0	1000	1	119	19:23:12	2236637	0	0	0	0	0	0	0	0	0	0	0	0	0	0	0	0	0
100212	19:23:12	10024	Trial3BackFr	YY	4	0	1000	0	119	19:23:12	2238156	0	0	0	0	0	0	0	0	0	0	0	0	0	0	0	0	0
100212	19:23:12	10024	Trial3BackFr	NN	4	0	1000	1	119	19:23:12	2239676	0	0	0	0	0	0	0	0	0	0	0	0	0	0	0	0	0
100212	19:23:12	10024	Trial3BackFr	NN	4	0	1000	1	119	19:23:12	2241195	0	0	0	0	0	0	0	0	0	0	0	0	0	0	0	0	0
100212	19:23:12	10024	Trial3BackFr	NN	4	57	864	0	119	19:23:12	2242594	0	0	0	0	0	0	0	0	0	0	0	0	0	0	0	0	0
100212	19:23:12	10024	Trial3BackFr	YY	4	0	1000	0	119	19:23:12	2244220	0	0	0	0	0	0	0	0	0	0	0	0	0	0	0	0	0
100212	19:23:12	10024	Memory1R3moFr	ScoreFr	5	M1	23247	0	119	19:23:12	2297532	0	0	0	0	0	0	0	0	0	0	0	0	0	0	0	0	0
100212	19:23:12	10024	Memory1R3moFr	ScoreFr	5	M2	629	0	119	19:23:12	2298198	0	0	0	0	0	0	0	0	0	0	0	0	0	0	0	0	0
100212	19:23:12	10024	Memory1R3moFr	ScoreFr	5	M7	2187	0	119	19:23:12	2300424	0	0	0	0	0	0	0	0	0	0	0	0	0	0	0	0	0
100212	19:23:12	10024	Memory1R3moFr	ScoreFr	5	M8	289	0	119	19:23:12	2300757	0	0	0	0	0	0	0	0	0	0	0	0	0	0	0	0	0
100212	19:23:12	10024	Memory1R3moFr	ScoreFr	5	Done	1108	0	119	19:23:12	2301903	0	0	0	0	0	0	0	0	0	0	0	0	0	0	0	0	0
100212	19:23:12	10024	Memory2R3moFr	ScoreFr2	5	11	24760	0	119	19:23:12	2345259	0	0	0	0	0	0	0	0	0	0	0	0	0	0	0	0	0
100212	19:23:12	10024	Memory2R3moFr	ScoreFr2	5	22	549	0	119	19:23:12	2345845	0	0	0	0	0	0	0	0	0	0	0	0	0	0	0	0	0
100212	19:23:12	10024	Memory2R3moFr	ScoreFr2	5	33	219	0	119	19:23:12	2346098	0	0	0	0	0	0	0	0	0	0	0	0	0	0	0	0	0
100212	19:23:12	10024	Memory2R3moFr	ScoreFr2	5	44	557	0	119	19:23:12	2346698	0	0	0	0	0	0	0	0	0	0	0	0	0	0	0	0	0
100212	19:23:12	10024	Memory2R3moFr	ScoreFr2	5	55	221	0	119	19:23:12	2346965	0	0	0	0	0	0	0	0	0	0	0	0	0	0	0	0	0
100212	19:23:12	10024	Memory2R3moFr	ScoreFr2	5	66	260	0	119	19:23:12	2347258	0	0	0	0	0	0	0	0	0	0	0	0	0	0	0	0	0
100212	19:23:12	10024	Memory2R3moFr	ScoreFr2	5	77	285	0	119	19:23:12	2347578	0	0	0	0	0	0	0	0	0	0	0	0	0	0	0	0	0
100212	19:23:12	10024	Memory2R3moFr	ScoreFr2	5	88	310	0	119	19:23:12	2347924	0	0	0	0	0	0	0	0	0	0	0	0	0	0	0	0	0
100212	19:23:12	10024	Memory2R3moFr	ScoreFr2	5	Done	707	0	119	19:23:12	2348671	0	0	0	0	0	0	0	0	0	0	0	0	0	0	0	0	0
100212	19:23:12	10024	Memory3R3moFr	ScoreFr3	5	111	16879	0	119	19:23:12	2384456	0	0	0	0	0	0	0	0	0	0	0	0	0	0	0	0	0
100212	19:23:12	10024	Memory3R3moFr	ScoreFr3	5	222	302	0	119	19:23:12	2384802	0	0	0	0	0	0	0	0	0	0	0	0	0	0	0	0	0
100212	19:23:12	10024	Memory3R3moFr	ScoreFr3	5	333	236	0	119	19:23:12	2385082	0	0	0	0	0	0	0	0	0	0	0	0	0	0	0	0	0
100212	19:23:12	10024	Memory3R3moFr	ScoreFr3	5	444	356	0	119	19:23:12	2385482	0	0	0	0	0	0	0	0	0	0	0	0	0	0	0	0	0
100212	19:23:12	10024	Memory3R3moFr	ScoreFr3	5	555	468	0	119	19:23:12	2385988	0	0	0	0	0	0	0	0	0	0	0	0	0	0	0	0	0
100212	19:23:12	10024	Memory3R3moFr	ScoreFr3	5	666	506	0	119	19:23:12	2386535	0	0	0	0	0	0	0	0	0	0	0	0	0	0	0	0	0
100212	19:23:12	10024	Memory3R3moFr	ScoreFr3	5	777	400	0	119	19:23:12	2386975	0	0	0	0	0	0	0	0	0	0	0	0	0	0	0	0	0
100212	19:23:12	10024	Memory3R3moFr	ScoreFr3	5	888	408	0	119	19:23:12	2387428	0	0	0	0	0	0	0	0	0	0	0	0	0	0	0	0	0
100212	19:23:12	10024	Memory3R3moFr	ScoreFr3	5	Done	531	0	119	19:23:12	2388001	0	0	0	0	0	0	0	0	0	0	0	0	0	0	0	0	0
100212	19:23:12	10024	LoriaFrLH3	Stop	6	4	7798	0	119	19:23:12	2471568	0	0	0	0	0	0	0	0	0	0	0	0	0	0	0	0	0
100212	19:23:12	10024	FrTrail	Trails	7	1Trails	734	0	119	19:23:12	2495890	0	0	0	0	0	0	0	0	0	0	0	0	0	0	0	0	0
100212	19:23:12	10024	Serial7Fr3mo	Serial7Fr3mo	8	83	6079	0	119	19:23:12	2554413	1	0	0	0	0	0	0	0	0	0	0	0	0	0	0	0	0
100212	19:23:12	10024	Serial7Fr3mo	Serial7Fr3mo	8	76	4416	0	119	19:23:12	2558852	2	0	0	0	0	0	0	0	0	0	0	0	0	0	0	0	0
100212	19:23:12	10024	Serial7Fr3mo	Serial7Fr3mo	8	69	10098	0	119	19:23:12	2568969	3	0	0	0	0	0	0	0	0	0	0	0	0	0	0	0	0
100212	19:23:12	10024	Serial7Fr3mo	Serial7Fr3mo	8	62	3837	0	119	19:23:12	2572834	4	0	0	0	0	0	0	0	0	0	0	0	0	0	0	0	0
100212	19:23:12	10024	Serial7Fr3mo	Serial7Fr3mo	8	55	3180	0	119	19:23:12	2576033	5	0	0	0	0	0	0	0	0	0	0	0	0	0	0	0	0
100212	19:23:12	10024	corsiblockFrFwrd	recallseqFrFwrd	9	6	1411	0	119	19:23:12	2623386	5	0	0	0	0	0	0	0	0	0	0	0	0	0	0	0	0
100212	19:23:12	10024	corsiblockFrFwrd	recallseqFrFwrd	9	3	1110	0	119	19:23:12	2624532	5	0	0	0	0	0	0	0	0	0	0	0	0	0	0	0	0
100212	19:23:12	10024	corsiblockFrFwrd	recallseqFrFwrd	9	doneCorsiFr	1556	0	119	19:23:12	2626132	5	0	0	0	0	0	0	0	0	0	0	0	0	0	0	2	0
100212	19:23:12	10024	corsiblockFrFwrd	recallseqFrFwrd	9	8	1417	0	119	19:23:12	2633635	5	0	0	0	0	0	0	0	0	0	0	0	0	0	0	2	0
100212	19:23:12	10024	corsiblockFrFwrd	recallseqFrFwrd	9	4	797	0	119	19:23:12	2634475	5	0	0	0	0	0	0	0	0	0	0	0	0	0	0	2	0
100212	19:23:12	10024	corsiblockFrFwrd	recallseqFrFwrd	9	7	806	0	119	19:23:12	2635315	5	0	0	0	0	0	0	0	0	0	0	0	0	0	0	2	0
100212	19:23:12	10024	corsiblockFrFwrd	recallseqFrFwrd	9	doneCorsiFr	1189	0	119	19:23:12	2636541	5	0	0	0	0	0	0	0	0	0	0	0	0	0	0	3	0
100212	19:23:12	10024	corsiblockFrFwrd	recallseqFrFwrd	9	1	1225	0	119	19:23:12	2644857	5	0	0	0	0	0	0	0	0	0	0	0	0	0	0	3	0
100212	19:23:12	10024	corsiblockFrFwrd	recallseqFrFwrd	9	2	1391	0	119	19:23:12	2646283	5	0	0	0	0	0	0	0	0	0	0	0	0	0	0	3	0
100212	19:23:12	10024	corsiblockFrFwrd	recallseqFrFwrd	9	9	892	0	119	19:23:12	2647217	5	0	0	0	0	0	0	0	0	0	0	0	0	0	0	3	0
100212	19:23:12	10024	corsiblockFrFwrd	recallseqFrFwrd	9	5	952	0	119	19:23:12	2648203	5	0	0	0	0	0	0	0	0	0	0	0	0	0	0	3	0
100212	19:23:12	10024	corsiblockFrFwrd	recallseqFrFwrd	9	doneCorsiFr	845	0	119	19:23:12	2649082	5	0	0	0	0	0	0	0	0	0	0	0	0	0	0	4	0
100212	19:23:12	10024	corsiblockFrFwrd	recallseqFrFwrd	9	2	972	0	119	19:23:12	2658145	5	0	0	0	0	0	0	0	0	0	0	0	0	0	0	4	0
100212	19:23:12	10024	corsiblockFrFwrd	recallseqFrFwrd	9	5	972	0	119	19:23:12	2659158	5	0	0	0	0	0	0	0	0	0	0	0	0	0	0	4	0
100212	19:23:12	10024	corsiblockFrFwrd	recallseqFrFwrd	9	3	810	0	119	19:23:12	2660011	5	0	0	0	0	0	0	0	0	0	0	0	0	0	0	4	0
100212	19:23:12	10024	corsiblockFrFwrd	recallseqFrFwrd	9	1	749	0	119	19:23:12	2660797	5	0	0	0	0	0	0	0	0	0	0	0	0	0	0	4	0
100212	19:23:12	10024	corsiblockFrFwrd	recallseqFrFwrd	9	7	1002	0	119	19:23:12	2661837	5	0	0	0	0	0	0	0	0	0	0	0	0	0	0	4	0
100212	19:23:12	10024	corsiblockFrFwrd	recallseqFrFwrd	9	doneCorsiFr	818	0	119	19:23:12	2662690	5	0	0	0	0	0	0	0	0	0	0	0	0	0	0	5	0
100212	19:23:12	10024	corsiblockFrFwrd	recallseqFrFwrd	9	9	915	0	119	19:23:12	2672699	5	0	0	0	0	0	0	0	0	0	0	0	0	0	0	5	0
100212	19:23:12	10024	corsiblockFrFwrd	recallseqFrFwrd	9	8	732	0	119	19:23:12	2673472	5	0	0	0	0	0	0	0	0	0	0	0	0	0	0	5	0
100212	19:23:12	10024	corsiblockFrFwrd	recallseqFrFwrd	9	6	863	0	119	19:23:12	2674378	5	0	0	0	0	0	0	0	0	0	0	0	0	0	0	5	0
100212	19:23:12	10024	corsiblockFrFwrd	recallseqFrFwrd	9	4	636	0	119	19:23:12	2675058	5	0	0	0	0	0	0	0	0	0	0	0	0	0	0	5	0
100212	19:23:12	10024	corsiblockFrFwrd	recallseqFrFwrd	9	3	885	0	119	19:23:12	2675978	5	0	0	0	0	0	0	0	0	0	0	0	0	0	0	5	0
100212	19:23:12	10024	corsiblockFrFwrd	recallseqFrFwrd	9	1	823	0	119	19:23:12	2676844	5	0	0	0	0	0	0	0	0	0	0	0	0	0	0	5	0
100212	19:23:12	10024	corsiblockFrFwrd	recallseqFrFwrd	9	doneCorsiFr	1451	0	119	19:23:12	2678337	5	0	0	0	0	0	0	0	0	0	0	0	0	0	0	6	0
100212	19:23:12	10024	corsiblockFrFwrd	recallseqFrFwrd	9	5	748	0	119	19:23:12	2689172	5	0	0	0	0	0	0	0	0	0	0	0	0	0	0	6	0
100212	19:23:12	10024	corsiblockFrFwrd	recallseqFrFwrd	9	6	818	0	119	19:23:12	2690025	5	0	0	0	0	0	0	0	0	0	0	0	0	0	0	6	0
100212	19:23:12	10024	corsiblockFrFwrd	recallseqFrFwrd	9	9	885	0	119	19:23:12	2690945	5	0	0	0	0	0	0	0	0	0	0	0	0	0	0	6	0
100212	19:23:12	10024	corsiblockFrFwrd	recallseqFrFwrd	9	4	1078	0	119	19:23:12	2692064	5	0	0	0	0	0	0	0	0	0	0	0	0	0	0	6	0
100212	19:23:12	10024	corsiblockFrFwrd	recallseqFrFwrd	9	2	750	0	119	19:23:12	2692851	5	0	0	0	0	0	0	0	0	0	0	0	0	0	0	6	0
100212	19:23:12	10024	corsiblockFrFwrd	recallseqFrFwrd	9	7	629	0	119	19:23:12	2693518	5	0	0	0	0	0	0	0	0	0	0	0	0	0	0	6	0
100212	19:23:12	10024	corsiblockFrFwrd	recallseqFrFwrd	9	8	625	0	119	19:23:12	2694184	5	0	0	0	0	0	0	0	0	0	0	0	0	0	0	6	0
100212	19:23:12	10024	corsiblockFrFwrd	recallseqFrFwrd	9	doneCorsiFr	863	0	119	19:23:12	2695090	5	0	0	0	0	0	0	0	0	0	0	0	0	0	0	7	0
100212	19:23:12	10024	corsiblockFrFwrd	recallseqFrFwrd	9	9	923	0	119	19:23:12	2707098	5	0	0	0	0	0	0	0	0	0	0	0	0	0	0	7	0
100212	19:23:12	10024	corsiblockFrFwrd	recallseqFrFwrd	9	8	1324	0	119	19:23:12	2708458	5	0	0	0	0	0	0	0	0	0	0	0	0	0	0	7	0
100212	19:23:12	10024	corsiblockFrFwrd	recallseqFrFwrd	9	6	1260	0	119	19:23:12	2709750	5	0	0	0	0	0	0	0	0	0	0	0	0	0	0	7	0
100212	19:23:12	10024	corsiblockFrFwrd	recallseqFrFwrd	9	5	623	0	119	19:23:12	2710417	5	0	0	0	0	0	0	0	0	0	0	0	0	0	0	7	0
100212	19:23:12	10024	corsiblockFrFwrd	recallseqFrFwrd	9	3	1085	0	119	19:23:12	2711536	5	0	0	0	0	0	0	0	0	0	0	0	0	0	0	7	0
100212	19:23:12	10024	corsiblockFrFwrd	recallseqFrFwrd	9	1	749	0	119	19:23:12	2712323	5	0	0	0	0	0	0	0	0	0	0	0	0	0	0	7	0
100212	19:23:12	10024	corsiblockFrFwrd	recallseqFrFwrd	9	2	755	0	119	19:23:12	2713122	5	0	0	0	0	0	0	0	0	0	0	0	0	0	0	7	0
100212	19:23:12	10024	corsiblockFrFwrd	recallseqFrFwrd	9	7	691	0	119	19:23:12	2713855	5	0	0	0	0	0	0	0	0	0	0	0	0	0	0	7	0
100212	19:23:12	10024	corsiblockFrFwrd	recallseqFrFwrd	9	doneCorsiFr	1127	0	119	19:23:12	2715015	5	0	0	0	0	0	0	0	0	0	0	0	0	0	0	7	0
100212	19:23:12	10024	corsiblockFrFwrd	recallseqFrFwrd	9	4	950	0	119	19:23:12	2727010	5	0	0	0	0	0	0	0	0	0	0	0	0	0	0	7	0
100212	19:23:12	10024	corsiblockFrFwrd	recallseqFrFwrd	9	3	731	0	119	19:23:12	2727783	5	0	0	0	0	0	0	0	0	0	0	0	0	0	0	7	0
100212	19:23:12	10024	corsiblockFrFwrd	recallseqFrFwrd	9	5	1502	0	119	19:23:12	2729329	5	0	0	0	0	0	0	0	0	0	0	0	0	0	0	7	0
100212	19:23:12	10024	corsiblockFrFwrd	recallseqFrFwrd	9	9	1220	0	119	19:23:12	2730582	5	0	0	0	0	0	0	0	0	0	0	0	0	0	0	7	0
100212	19:23:12	10024	corsiblockFrFwrd	recallseqFrFwrd	9	2	3575	0	119	19:23:12	2734194	5	0	0	0	0	0	0	0	0	0	0	0	0	0	0	7	0
100212	19:23:12	10024	corsiblockFrFwrd	recallseqFrFwrd	9	7	739	0	119	19:23:12	2734967	5	0	0	0	0	0	0	0	0	0	0	0	0	0	0	7	0
100212	19:23:12	10024	corsiblockFrFwrd	recallseqFrFwrd	9	6	1182	0	119	19:23:12	2736193	5	0	0	0	0	0	0	0	0	0	0	0	0	0	0	7	0
100212	19:23:12	10024	corsiblockFrFwrd	recallseqFrFwrd	9	doneCorsiFr	836	0	119	19:23:12	2737073	5	0	0	0	0	0	0	0	0	0	0	0	0	0	0	7	0
100212	19:23:12	10024	corsiblockFrRev	recallseqFrRev	10	7	1217	0	119	19:23:12	2751440	5	0	0	0	0	0	0	0	0	0	0	0	0	0	0	7	0
100212	19:23:12	10024	corsiblockFrRev	recallseqFrRev	10	6	772	0	119	19:23:12	2752253	5	0	0	0	0	0	0	0	0	0	0	0	0	0	0	7	0
100212	19:23:12	10024	corsiblockFrRev	recallseqFrRev	10	doneCorsiFr	1120	0	119	19:23:12	2753412	5	0	0	0	0	0	0	0	0	0	0	0	0	0	0	7	0
100212	19:23:12	10024	corsiblockFrRev	recallseqFrRev	10	2	2453	0	119	19:23:12	2760916	5	0	0	0	0	0	0	0	0	0	0	0	0	0	0	7	0
100212	19:23:12	10024	corsiblockFrRev	recallseqFrRev	10	9	784	0	119	19:23:12	2761742	5	0	0	0	0	0	0	0	0	0	0	0	0	0	0	7	0
100212	19:23:12	10024	corsiblockFrRev	recallseqFrRev	10	doneCorsiFr	910	0	119	19:23:12	2762689	5	0	0	0	0	0	0	0	0	0	0	0	0	0	0	7	2
100212	19:23:12	10024	corsiblockFrRev	recallseqFrRev	10	8	712	0	119	19:23:12	2768486	5	0	0	0	0	0	0	0	0	0	0	0	0	0	0	7	2
100212	19:23:12	10024	corsiblockFrRev	recallseqFrRev	10	1	790	0	119	19:23:12	2769313	5	0	0	0	0	0	0	0	0	0	0	0	0	0	0	7	2
100212	19:23:12	10024	corsiblockFrRev	recallseqFrRev	10	3	771	0	119	19:23:12	2770126	5	0	0	0	0	0	0	0	0	0	0	0	0	0	0	7	2
100212	19:23:12	10024	corsiblockFrRev	recallseqFrRev	10	doneCorsiFr	975	0	119	19:23:12	2771138	5	0	0	0	0	0	0	0	0	0	0	0	0	0	0	7	3
100212	19:23:12	10024	corsiblockFrRev	recallseqFrRev	10	4	1167	0	119	19:23:12	2779388	5	0	0	0	0	0	0	0	0	0	0	0	0	0	0	7	3
100212	19:23:12	10024	corsiblockFrRev	recallseqFrRev	10	2	647	0	119	19:23:12	2780081	5	0	0	0	0	0	0	0	0	0	0	0	0	0	0	7	3
100212	19:23:12	10024	corsiblockFrRev	recallseqFrRev	10	4	618	0	119	19:23:12	2780735	5	0	0	0	0	0	0	0	0	0	0	0	0	0	0	7	3
100212	19:23:12	10024	corsiblockFrRev	recallseqFrRev	10	5	517	0	119	19:23:12	2781294	5	0	0	0	0	0	0	0	0	0	0	0	0	0	0	7	3
100212	19:23:12	10024	corsiblockFrRev	recallseqFrRev	10	doneCorsiFr	709	0	119	19:23:12	2782041	5	0	0	0	0	0	0	0	0	0	0	0	0	0	0	7	4
100212	19:23:12	10024	corsiblockFrRev	recallseqFrRev	10	3	840	0	119	19:23:12	2790970	5	0	0	0	0	0	0	0	0	0	0	0	0	0	0	7	4
100212	19:23:12	10024	corsiblockFrRev	recallseqFrRev	10	1	745	0	119	19:23:12	2791757	5	0	0	0	0	0	0	0	0	0	0	0	0	0	0	7	4
100212	19:23:12	10024	corsiblockFrRev	recallseqFrRev	10	6	718	0	119	19:23:12	2792516	5	0	0	0	0	0	0	0	0	0	0	0	0	0	0	7	4
100212	19:23:12	10024	corsiblockFrRev	recallseqFrRev	10	7	751	0	119	19:23:12	2793303	5	0	0	0	0	0	0	0	0	0	0	0	0	0	0	7	4
100212	19:23:12	10024	corsiblockFrRev	recallseqFrRev	10	9	453	0	119	19:23:12	2793796	5	0	0	0	0	0	0	0	0	0	0	0	0	0	0	7	4
100212	19:23:12	10024	corsiblockFrRev	recallseqFrRev	10	doneCorsiFr	751	0	119	19:23:12	2794582	5	0	0	0	0	0	0	0	0	0	0	0	0	0	0	7	5
100212	19:23:12	10024	corsiblockFrRev	recallseqFrRev	10	7	739	0	119	19:23:12	2804405	5	0	0	0	0	0	0	0	0	0	0	0	0	0	0	7	5
100212	19:23:12	10024	corsiblockFrRev	recallseqFrRev	10	8	646	0	119	19:23:12	2805084	5	0	0	0	0	0	0	0	0	0	0	0	0	0	0	7	5
100212	19:23:12	10024	corsiblockFrRev	recallseqFrRev	10	1	790	0	119	19:23:12	2805911	5	0	0	0	0	0	0	0	0	0	0	0	0	0	0	7	5
100212	19:23:12	10024	corsiblockFrRev	recallseqFrRev	10	6	791	0	119	19:23:12	2806737	5	0	0	0	0	0	0	0	0	0	0	0	0	0	0	7	5
100212	19:23:12	10024	corsiblockFrRev	recallseqFrRev	10	5	738	0	119	19:23:12	2807510	5	0	0	0	0	0	0	0	0	0	0	0	0	0	0	7	5
100212	19:23:12	10024	corsiblockFrRev	recallseqFrRev	10	6	509	0	119	19:23:12	2808057	5	0	0	0	0	0	0	0	0	0	0	0	0	0	0	7	5
100212	19:23:12	10024	corsiblockFrRev	recallseqFrRev	10	doneCorsiFr	842	0	119	19:23:12	2808936	5	0	0	0	0	0	0	0	0	0	0	0	0	0	0	7	5
100212	19:23:12	10024	corsiblockFrRev	recallseqFrRev	10	6	1081	0	119	19:23:12	2819065	5	0	0	0	0	0	0	0	0	0	0	0	0	0	0	7	5
100212	19:23:12	10024	corsiblockFrRev	recallseqFrRev	10	2	936	0	119	19:23:12	2820038	5	0	0	0	0	0	0	0	0	0	0	0	0	0	0	7	5
100212	19:23:12	10024	corsiblockFrRev	recallseqFrRev	10	4	1069	0	119	19:23:12	2821144	5	0	0	0	0	0	0	0	0	0	0	0	0	0	0	7	5
100212	19:23:12	10024	corsiblockFrRev	recallseqFrRev	10	3	658	0	119	19:23:12	2821838	5	0	0	0	0	0	0	0	0	0	0	0	0	0	0	7	5
100212	19:23:12	10024	corsiblockFrRev	recallseqFrRev	10	5	765	0	119	19:23:12	2822637	5	0	0	0	0	0	0	0	0	0	0	0	0	0	0	7	5
100212	19:23:12	10024	corsiblockFrRev	recallseqFrRev	10	9	940	0	119	19:23:12	2823624	5	0	0	0	0	0	0	0	0	0	0	0	0	0	0	7	5
100212	19:23:12	10024	corsiblockFrRev	recallseqFrRev	10	doneCorsiFr	757	0	119	19:23:12	2824437	5	0	0	0	0	0	0	0	0	0	0	0	0	0	0	7	5
100212	19:23:12	10024	testFr3mo	WordsFr3mo	11	1Fr3mo	754	0	119	19:23:12	2849560	5	3	0	0	0	0	0	0	0	0	0	0	0	0	0	7	5
100212	19:23:12	10024	testFr3mo	WordsFr3mo	11	2Fr3mo	666	0	119	19:23:12	2850266	5	3	3	0	0	0	0	0	0	0	0	0	0	0	0	7	5
100212	19:23:12	10024	testFr3mo	WordsFr3mo	11	3Fr3mo	904	0	119	19:23:12	2851212	5	3	3	3	0	0	0	0	0	0	0	0	0	0	0	7	5
100212	19:23:12	10024	testFr3mo	WordsFr3mo	11	5Fr3mo	534	0	119	19:23:12	2851785	5	3	3	3	0	3	0	0	0	0	0	0	0	0	0	7	5
100212	19:23:12	10024	testFr3mo	WordsFr3mo	11	6Fr3mo	568	0	119	19:23:12	2852398	5	3	3	3	0	3	3	0	0	0	0	0	0	0	0	7	5
100212	19:23:12	10024	testFr3mo	WordsFr3mo	11	7Fr3mo	531	0	119	19:23:12	2852971	5	3	3	3	0	3	3	3	0	0	0	0	0	0	0	7	5
100212	19:23:12	10024	testFr3mo	WordsFr3mo	11	8Fr3mo	446	0	119	19:23:12	2853465	5	3	3	3	0	3	3	3	3	0	0	0	0	0	0	7	5
100212	19:23:12	10024	testFr3mo	WordsFr3mo	11	4Fr3mo	2641	0	119	19:23:12	2856144	5	3	3	3	3	3	3	3	3	0	0	0	0	0	0	7	5
100212	19:23:12	10024	testFr3mo	WordsFr3mo	11	DoneFr3mo	931	0	119	19:23:12	2857116	5	3	3	3	3	3	3	3	3	0	0	0	0	0	0	7	5
100212	19:23:12	10024	DigitSpanFwrdFr3mo	Score1FwrdFr3mo	12	DS1	3590	0	119	19:23:12	2888156	5	3	3	3	3	3	3	3	3	0	0	0	0	0	0	7	5
100212	19:23:12	10024	DigitSpanFwrdFr3mo	Gate1FwrdFr3mo	12	0	1	0	119	19:23:12	2888172	5	3	3	3	3	3	3	3	3	3	0	0	0	0	0	7	5
100212	19:23:12	10024	DigitSpanFwrdFr3mo	Score2FwrdFr3mo	12	DS1	2047	0	119	19:23:12	2895913	5	3	3	3	3	3	3	3	3	3	0	0	0	0	0	7	5
100212	19:23:12	10024	DigitSpanFwrdFr3mo	Gate3FwrdFr3mo	12	0	1	0	119	19:23:12	2895928	5	3	3	3	3	3	3	3	3	4	0	0	0	0	0	7	5
100212	19:23:12	10024	DigitSpanFwrdFr3mo	Score3FwrdFr3mo	12	DS1	3242	0	119	19:23:12	2906429	5	3	3	3	3	3	3	3	3	4	0	0	0	0	0	7	5
100212	19:23:12	10024	DigitSpanFwrdFr3mo	Gate5FwrdFr3mo	12	0	1	0	119	19:23:12	2906444	5	3	3	3	3	3	3	3	3	5	0	0	0	0	0	7	5
100212	19:23:12	10024	DigitSpanFwrdFr3mo	Score4FwrdFr3mo	12	DS2	13259	0	119	19:23:12	2928233	5	3	3	3	3	3	3	3	3	5	0	0	0	0	0	7	5
100212	19:23:12	10024	DigitSpanFwrdFr3mo	Gate7FwrdFr3mo	12	0	1	0	119	19:23:12	2928249	5	3	3	3	3	3	3	3	3	5	0	0	0	0	0	7	5
100212	19:23:12	10024	DigitSpanFwrdFr3mo	Score44FwrdFr3mo	12	DS1	3623	0	119	19:23:12	2940201	5	3	3	3	3	3	3	3	3	5	0	0	0	0	0	7	5
100212	19:23:12	10024	DigitSpanFwrdFr3mo	Gate8FwrdFr3mo	12	0	1	0	119	19:23:12	2940217	5	3	3	3	3	3	3	3	3	6	0	0	0	0	0	7	5
100212	19:23:12	10024	DigitSpanFwrdFr3mo	Score5FwrdFr3mo	12	DS2	8912	0	119	19:23:12	2961206	5	3	3	3	3	3	3	3	3	6	0	0	0	0	0	7	5
100212	19:23:12	10024	DigitSpanFwrdFr3mo	Gate9FwrdFr3mo	12	0	1	0	119	19:23:12	2961221	5	3	3	3	3	3	3	3	3	6	0	0	0	0	0	7	5
100212	19:23:12	10024	DigitSpanFwrdFr3mo	Score55FwrdFr3mo	12	DS2	6330	0	119	19:23:12	2980398	5	3	3	3	3	3	3	3	3	6	0	0	0	0	0	7	5
100212	19:23:12	10024	DigitSpanFr3mo	Score1Fr3mo	13	DS1	2415	0	119	19:23:12	3003162	5	3	3	3	3	3	3	3	3	6	0	0	0	0	0	7	5
100212	19:23:12	10024	DigitSpanFr3mo	Gate1Fr3mo	13	0	1	0	119	19:23:12	3003178	5	3	3	3	3	3	3	3	3	6	2	0	0	0	0	7	5
100212	19:23:12	10024	DigitSpanFr3mo	Score2Fr3mo	13	DS1	3581	0	119	19:23:12	3011332	5	3	3	3	3	3	3	3	3	6	2	0	0	0	0	7	5
100212	19:23:12	10024	DigitSpanFr3mo	Gate3Fr3mo	13	0	1	0	119	19:23:12	3011347	5	3	3	3	3	3	3	3	3	6	3	0	0	0	0	7	5
100212	19:23:12	10024	DigitSpanFr3mo	Score3Fr3mo	13	DS1	4397	0	119	19:23:12	3021461	5	3	3	3	3	3	3	3	3	6	3	0	0	0	0	7	5
100212	19:23:12	10024	DigitSpanFr3mo	Gate5Fr3mo	13	0	1	0	119	19:23:12	3021476	5	3	3	3	3	3	3	3	3	6	4	0	0	0	0	7	5
100212	19:23:12	10024	DigitSpanFr3mo	Score4Fr3mo	13	DS2	6597	0	119	19:23:12	3035349	5	3	3	3	3	3	3	3	3	6	4	0	0	0	0	7	5
100212	19:23:12	10024	DigitSpanFr3mo	Gate7Fr3mo	13	0	1	0	119	19:23:12	3035364	5	3	3	3	3	3	3	3	3	6	4	0	0	0	0	7	5
100212	19:23:12	10024	DigitSpanFr3mo	Score44Fr3mo	13	DS1	5759	0	119	19:23:12	3048330	5	3	3	3	3	3	3	3	3	6	4	0	0	0	0	7	5
100212	19:23:12	10024	DigitSpanFr3mo	Gate8Fr3mo	13	0	1	0	119	19:23:12	3048345	5	3	3	3	3	3	3	3	3	6	5	0	0	0	0	7	5
100212	19:23:12	10024	DigitSpanFr3mo	Score5Fr3mo	13	DS2	7471	0	119	19:23:12	3064323	5	3	3	3	3	3	3	3	3	6	5	0	0	0	0	7	5
100212	19:23:12	10024	DigitSpanFr3mo	Gate9Fr3mo	13	0	1	0	119	19:23:12	3064339	5	3	3	3	3	3	3	3	3	6	5	0	0	0	0	7	5
100212	19:23:12	10024	DigitSpanFr3mo	Score55Fr3mo	13	DS2	6573	0	119	19:23:12	3079224	5	3	3	3	3	3	3	3	3	6	5	0	0	0	0	7	5
100212	19:23:12	10024	Trial	ResponseIL	14	0	162	0	119	19:23:12	3174344	5	3	3	3	3	3	3	3	3	6	5	0	0	0	0	7	5
100212	19:23:12	10024	Trial	IncongruentLeft	14	203	292	1	119	19:23:12	3174663	5	3	3	3	3	3	3	3	3	6	5	0	0	0	0	7	5
100212	19:23:12	10024	Trial	ResponseCR	14	0	162	0	119	19:23:12	3176037	5	3	3	3	3	3	3	3	3	6	5	0	0	0	0	7	5
100212	19:23:12	10024	Trial	CongruentRight	14	205	151	1	119	19:23:12	3176215	5	3	3	3	3	3	3	3	3	6	5	0	0	0	0	7	5
100212	19:23:12	10024	Trial	ResponseIR	14	0	162	0	119	19:23:12	3177729	5	3	3	3	3	3	3	3	3	6	5	0	0	0	0	7	5
100212	19:23:12	10024	Trial	IncongruentRight	14	203	122	0	119	19:23:12	3177878	5	3	3	3	3	3	3	3	3	6	5	0	0	0	0	7	5
100212	19:23:12	10024	Trial	ResponseCL	14	0	162	0	119	19:23:12	3179422	5	3	3	3	3	3	3	3	3	6	5	0	0	0	0	7	5
100212	19:23:12	10024	Trial	CongruentLeft	14	203	173	1	119	19:23:12	3179623	5	3	3	3	3	3	3	3	3	6	5	0	0	0	0	7	5
100212	19:23:12	10024	Trial	ResponseCR	14	0	162	0	119	19:23:12	3181115	5	3	3	3	3	3	3	3	3	6	5	0	0	0	0	7	5
100212	19:23:12	10024	Trial	CongruentRight	14	205	161	1	119	19:23:12	3181302	5	3	3	3	3	3	3	3	3	6	5	0	0	0	0	7	5
100212	19:23:12	10024	Trial	ResponseIR	14	0	162	0	119	19:23:12	3182807	5	3	3	3	3	3	3	3	3	6	5	0	0	0	0	7	5
100212	19:23:12	10024	Trial	IncongruentRight	14	205	308	1	119	19:23:12	3183142	5	3	3	3	3	3	3	3	3	6	5	0	0	0	0	7	5
100212	19:23:12	10024	Trial	ResponseCL	14	0	162	0	119	19:23:12	3184500	5	3	3	3	3	3	3	3	3	6	5	0	0	0	0	7	5
100212	19:23:12	10024	Trial	CongruentLeft	14	203	200	1	119	19:23:12	3184727	5	3	3	3	3	3	3	3	3	6	5	0	0	0	0	7	5
100212	19:23:12	10024	Trial	ResponseIL	14	0	162	0	119	19:23:12	3186193	5	3	3	3	3	3	3	3	3	6	5	0	0	0	0	7	5
100212	19:23:12	10024	Trial	IncongruentLeft	14	205	155	0	119	19:23:12	3186374	5	3	3	3	3	3	3	3	3	6	5	0	0	0	0	7	5
100212	19:23:12	10024	Trial	ResponseIL	14	0	162	0	119	19:23:12	3187885	5	3	3	3	3	3	3	3	3	6	5	0	0	0	0	7	5
100212	19:23:12	10024	Trial	IncongruentLeft	14	203	334	1	119	19:23:12	3188246	5	3	3	3	3	3	3	3	3	6	5	0	0	0	0	7	5
100212	19:23:12	10024	Trial	ResponseCR	14	0	162	0	119	19:23:12	3189578	5	3	3	3	3	3	3	3	3	6	5	0	0	0	0	7	5
100212	19:23:12	10024	Trial	CongruentRight	14	205	162	1	119	19:23:12	3189766	5	3	3	3	3	3	3	3	3	6	5	0	0	0	0	7	5
100212	19:23:12	10024	Trial	ResponseIR	14	0	162	0	119	19:23:12	3191284	5	3	3	3	3	3	3	3	3	6	5	0	0	0	0	7	5
100212	19:23:12	10024	Trial	IncongruentRight	14	205	200	1	119	19:23:12	3191510	5	3	3	3	3	3	3	3	3	6	5	0	0	0	0	7	5
100212	19:23:12	10024	Trial	ResponseCL	14	0	162	0	119	19:23:12	3192977	5	3	3	3	3	3	3	3	3	6	5	0	0	0	0	7	5
100212	19:23:12	10024	Trial	CongruentLeft	14	203	235	1	119	19:23:12	3193238	5	3	3	3	3	3	3	3	3	6	5	0	0	0	0	7	5
100212	19:23:12	10024	Trial	ResponseCR	14	0	162	0	119	19:23:12	3194669	5	3	3	3	3	3	3	3	3	6	5	0	0	0	0	7	5
100212	19:23:12	10024	Trial	CongruentRight	14	205	191	1	119	19:23:12	3194887	5	3	3	3	3	3	3	3	3	6	5	0	0	0	0	7	5
100212	19:23:12	10024	Trial	ResponseIL	14	0	162	0	119	19:23:12	3196362	5	3	3	3	3	3	3	3	3	6	5	0	0	0	0	7	5
100212	19:23:12	10024	Trial	IncongruentLeft	14	203	226	1	119	19:23:12	3196614	5	3	3	3	3	3	3	3	3	6	5	0	0	0	0	7	5
100212	19:23:12	10024	Trial	ResponseIR	14	0	162	0	119	19:23:12	3198055	5	3	3	3	3	3	3	3	3	6	5	0	0	0	0	7	5
100212	19:23:12	10024	Trial	IncongruentRight	14	205	309	1	119	19:23:12	3198390	5	3	3	3	3	3	3	3	3	6	5	0	0	0	0	7	5
100212	19:23:12	10024	Trial	ResponseCR	14	0	162	0	119	19:23:12	3199747	5	3	3	3	3	3	3	3	3	6	5	0	0	0	0	7	5
100212	19:23:12	10024	Trial	CongruentRight	14	205	248	1	119	19:23:12	3200022	5	3	3	3	3	3	3	3	3	6	5	0	0	0	0	7	5
100212	19:23:12	10024	Trial	ResponseCL	14	0	162	0	119	19:23:12	3201440	5	3	3	3	3	3	3	3	3	6	5	0	0	0	0	7	5
100212	19:23:12	10024	Trial	CongruentLeft	14	203	140	1	119	19:23:12	3201606	5	3	3	3	3	3	3	3	3	6	5	0	0	0	0	7	5
100212	19:23:12	10024	Trial	ResponseCR	14	0	162	0	119	19:23:12	3203146	5	3	3	3	3	3	3	3	3	6	5	0	0	0	0	7	5
100212	19:23:12	10024	Trial	CongruentRight	14	205	162	1	119	19:23:12	3203334	5	3	3	3	3	3	3	3	3	6	5	0	0	0	0	7	5
100212	19:23:12	10024	Trial	ResponseIR	14	0	162	0	119	19:23:12	3204838	5	3	3	3	3	3	3	3	3	6	5	0	0	0	0	7	5
100212	19:23:12	10024	Trial	IncongruentRight	14	205	325	1	119	19:23:12	3205190	5	3	3	3	3	3	3	3	3	6	5	0	0	0	0	7	5
100212	19:23:12	10024	Trial	ResponseIL	14	0	162	0	119	19:23:12	3206531	5	3	3	3	3	3	3	3	3	6	5	0	0	0	0	7	5
100212	19:23:12	10024	Trial	IncongruentLeft	14	203	248	1	119	19:23:12	3206806	5	3	3	3	3	3	3	3	3	6	5	0	0	0	0	7	5
100212	19:23:12	10024	Trial	ResponseIL	14	0	162	0	119	19:23:12	3208224	5	3	3	3	3	3	3	3	3	6	5	0	0	0	0	7	5
100212	19:23:12	10024	Trial	IncongruentLeft	14	205	236	0	119	19:23:12	3208486	5	3	3	3	3	3	3	3	3	6	5	0	0	0	0	7	5
100212	19:23:12	10024	Trial	ResponseCL	14	0	162	0	119	19:23:12	3209916	5	3	3	3	3	3	3	3	3	6	5	0	0	0	0	7	5
100212	19:23:12	10024	Trial	CongruentLeft	14	203	239	1	119	19:23:12	3210181	5	3	3	3	3	3	3	3	3	6	5	0	0	0	0	7	5
100212	19:23:12	10024	Trial	ResponseCR	14	0	162	0	119	19:23:12	3211622	5	3	3	3	3	3	3	3	3	6	5	0	0	0	0	7	5
100212	19:23:12	10024	Trial	CongruentRight	14	205	149	1	119	19:23:12	3211798	5	3	3	3	3	3	3	3	3	6	5	0	0	0	0	7	5
100212	19:23:12	10024	Trial	ResponseIL	14	0	162	0	119	19:23:12	3213315	5	3	3	3	3	3	3	3	3	6	5	0	0	0	0	7	5
100212	19:23:12	10024	Trial	IncongruentLeft	14	203	248	1	119	19:23:12	3213590	5	3	3	3	3	3	3	3	3	6	5	0	0	0	0	7	5
100212	19:23:12	10024	Trial	ResponseIR	14	0	162	0	119	19:23:12	3215007	5	3	3	3	3	3	3	3	3	6	5	0	0	0	0	7	5
100212	19:23:12	10024	Trial	IncongruentRight	14	205	251	1	119	19:23:12	3215285	5	3	3	3	3	3	3	3	3	6	5	0	0	0	0	7	5
100212	19:23:12	10024	Trial	ResponseCR	14	0	162	0	119	19:23:12	3216700	5	3	3	3	3	3	3	3	3	6	5	0	0	0	0	7	5
100212	19:23:12	10024	Trial	CongruentRight	14	205	191	1	119	19:23:12	3216917	5	3	3	3	3	3	3	3	3	6	5	0	0	0	0	7	5
100212	19:23:12	10024	Trial	ResponseCL	14	0	162	0	119	19:23:12	3218393	5	3	3	3	3	3	3	3	3	6	5	0	0	0	0	7	5
100212	19:23:12	10024	Trial	CongruentLeft	14	203	242	1	119	19:23:12	3218661	5	3	3	3	3	3	3	3	3	6	5	0	0	0	0	7	5
100212	19:23:12	10024	Trial	ResponseIR	14	0	162	0	119	19:23:12	3220085	5	3	3	3	3	3	3	3	3	6	5	0	0	0	0	7	5
100212	19:23:12	10024	Trial	IncongruentRight	14	205	181	1	119	19:23:12	3220293	5	3	3	3	3	3	3	3	3	6	5	0	0	0	0	7	5
100212	19:23:12	10024	Trial	ResponseIL	14	0	162	0	119	19:23:12	3221778	5	3	3	3	3	3	3	3	3	6	5	0	0	0	0	7	5
100212	19:23:12	10024	Trial	IncongruentLeft	14	205	249	0	119	19:23:12	3222053	5	3	3	3	3	3	3	3	3	6	5	0	0	0	0	7	5
100212	19:23:12	10024	Trial	ResponseIR	14	0	162	0	119	19:23:12	3223471	5	3	3	3	3	3	3	3	3	6	5	0	0	0	0	7	5
100212	19:23:12	10024	Trial	IncongruentRight	14	205	300	1	119	19:23:12	3223797	5	3	3	3	3	3	3	3	3	6	5	0	0	0	0	7	5
100212	19:23:12	10024	Trial	ResponseCR	14	0	162	0	119	19:23:12	3225163	5	3	3	3	3	3	3	3	3	6	5	0	0	0	0	7	5
100212	19:23:12	10024	Trial	CongruentRight	14	205	287	1	119	19:23:12	3225477	5	3	3	3	3	3	3	3	3	6	5	0	0	0	0	7	5
100212	19:23:12	10024	Trial	ResponseIL	14	0	162	0	119	19:23:12	3226856	5	3	3	3	3	3	3	3	3	6	5	0	0	0	0	7	5
100212	19:23:12	10024	Trial	IncongruentLeft	14	203	259	1	119	19:23:12	3227141	5	3	3	3	3	3	3	3	3	6	5	0	0	0	0	7	5
100212	19:23:12	10024	Trial	ResponseCL	14	0	162	0	119	19:23:12	3228549	5	3	3	3	3	3	3	3	3	6	5	0	0	0	0	7	5
100212	19:23:12	10024	Trial	CongruentLeft	14	203	198	1	119	19:23:12	3228773	5	3	3	3	3	3	3	3	3	6	5	0	0	0	0	7	5
100212	19:23:12	10024	Trial	ResponseCR	14	0	162	0	119	19:23:12	3230241	5	3	3	3	3	3	3	3	3	6	5	0	0	0	0	7	5
100212	19:23:12	10024	Trial	CongruentRight	14	205	217	1	119	19:23:12	3230485	5	3	3	3	3	3	3	3	3	6	5	0	0	0	0	7	5
100212	19:23:12	10024	Trial	ResponseIL	14	0	162	0	119	19:23:12	3231934	5	3	3	3	3	3	3	3	3	6	5	0	0	0	0	7	5
100212	19:23:12	10024	Trial	IncongruentLeft	14	203	253	1	119	19:23:12	3232213	5	3	3	3	3	3	3	3	3	6	5	0	0	0	0	7	5
100212	19:23:12	10024	Trial	ResponseIR	14	0	162	0	119	19:23:12	3233640	5	3	3	3	3	3	3	3	3	6	5	0	0	0	0	7	5
100212	19:23:12	10024	Trial	IncongruentRight	14	205	242	1	119	19:23:12	3233909	5	3	3	3	3	3	3	3	3	6	5	0	0	0	0	7	5
100212	19:23:12	10024	Trial	ResponseIR	14	0	162	0	119	19:23:12	3235332	5	3	3	3	3	3	3	3	3	6	5	0	0	0	0	7	5
100212	19:23:12	10024	Trial	IncongruentRight	14	203	166	0	119	19:23:12	3235525	5	3	3	3	3	3	3	3	3	6	5	0	0	0	0	7	5
100212	19:23:12	10024	Trial	ResponseCL	14	0	162	0	119	19:23:12	3237025	5	3	3	3	3	3	3	3	3	6	5	0	0	0	0	7	5
100212	19:23:12	10024	Trial	CongruentLeft	14	203	297	1	119	19:23:12	3237349	5	3	3	3	3	3	3	3	3	6	5	0	0	0	0	7	5
100212	19:23:12	10024	Trial	ResponseIL	14	0	162	0	119	19:23:12	3238718	5	3	3	3	3	3	3	3	3	6	5	0	0	0	0	7	5
100212	19:23:12	10024	Trial	IncongruentLeft	14	203	253	1	119	19:23:12	3238997	5	3	3	3	3	3	3	3	3	6	5	0	0	0	0	7	5
100212	19:23:12	10024	Trial	ResponseCR	14	0	162	0	119	19:23:12	3240410	5	3	3	3	3	3	3	3	3	6	5	0	0	0	0	7	5
100212	19:23:12	10024	Trial	CongruentRight	14	205	256	1	119	19:23:12	3240693	5	3	3	3	3	3	3	3	3	6	5	0	0	0	0	7	5
100212	19:23:12	10024	Trial	ResponseCL	14	0	162	0	119	19:23:12	3242103	5	3	3	3	3	3	3	3	3	6	5	0	0	0	0	7	5
100212	19:23:12	10024	Trial	CongruentLeft	14	203	243	1	119	19:23:12	3242373	5	3	3	3	3	3	3	3	3	6	5	0	0	0	0	7	5
100212	19:23:12	10024	Trial	ResponseIR	14	0	162	0	119	19:23:12	3243796	5	3	3	3	3	3	3	3	3	6	5	0	0	0	0	7	5
100212	19:23:12	10024	Trial	IncongruentRight	14	205	213	1	119	19:23:12	3244037	5	3	3	3	3	3	3	3	3	6	5	0	0	0	0	7	5
100212	19:23:12	10024	Trial	ResponseCR	14	0	162	0	119	19:23:12	3245488	5	3	3	3	3	3	3	3	3	6	5	0	0	0	0	7	5
100212	19:23:12	10024	Trial	CongruentRight	14	205	202	1	119	19:23:12	3245717	5	3	3	3	3	3	3	3	3	6	5	0	0	0	0	7	5
100212	19:23:12	10024	Trial	ResponseIL	14	0	162	0	119	19:23:12	3247181	5	3	3	3	3	3	3	3	3	6	5	0	0	0	0	7	5
100212	19:23:12	10024	Trial	IncongruentLeft	14	203	285	1	119	19:23:12	3247493	5	3	3	3	3	3	3	3	3	6	5	0	0	0	0	7	5
100212	19:23:12	10024	Trial	ResponseCL	14	0	162	0	119	19:23:12	3248874	5	3	3	3	3	3	3	3	3	6	5	0	0	0	0	7	5
100212	19:23:12	10024	Trial	CongruentLeft	14	203	256	1	119	19:23:12	3249156	5	3	3	3	3	3	3	3	3	6	5	0	0	0	0	7	5
100212	19:23:12	10024	Trial	ResponseIL	14	0	162	0	119	19:23:12	3250566	5	3	3	3	3	3	3	3	3	6	5	0	0	0	0	7	5
100212	19:23:12	10024	Trial	IncongruentLeft	14	0	987	0	119	19:23:12	3251568	5	3	3	3	3	3	3	3	3	6	5	0	0	0	0	7	5
100212	19:23:12	10024	Trial	ResponseIR	14	0	162	0	119	19:23:12	3252259	5	3	3	3	3	3	3	3	3	6	5	0	0	0	0	7	5
100212	19:23:12	10024	Trial	IncongruentRight	14	205	375	1	119	19:23:12	3252660	5	3	3	3	3	3	3	3	3	6	5	0	0	0	0	7	5
100212	19:23:12	10024	Trial	ResponseCR	14	0	162	0	119	19:23:12	3253951	5	3	3	3	3	3	3	3	3	6	5	0	0	0	0	7	5
100212	19:23:12	10024	Trial	CongruentRight	14	205	394	1	119	19:23:12	3254372	5	3	3	3	3	3	3	3	3	6	5	0	0	0	0	7	5
100212	19:23:12	10024	Trial	ResponseCL	14	0	162	0	119	19:23:12	3255644	5	3	3	3	3	3	3	3	3	6	5	0	0	0	0	7	5
100212	19:23:12	10024	Trial	CongruentLeft	14	203	269	1	119	19:23:12	3255940	5	3	3	3	3	3	3	3	3	6	5	0	0	0	0	7	5
100212	19:23:12	10024	Trial	ResponseCL	14	0	162	0	119	19:23:12	3257337	5	3	3	3	3	3	3	3	3	6	5	0	0	0	0	7	5
100212	19:23:12	10024	Trial	CongruentLeft	14	203	209	1	119	19:23:12	3257572	5	3	3	3	3	3	3	3	3	6	5	0	0	0	0	7	5
100212	19:23:12	10024	Trial	ResponseIR	14	0	162	0	119	19:23:12	3259029	5	3	3	3	3	3	3	3	3	6	5	0	0	0	0	7	5
100212	19:23:12	10024	Trial	IncongruentRight	14	205	260	1	119	19:23:12	3259316	5	3	3	3	3	3	3	3	3	6	5	0	0	0	0	7	5
100212	19:23:12	10024	Trial	ResponseIL	14	0	162	0	119	19:23:12	3260722	5	3	3	3	3	3	3	3	3	6	5	0	0	0	0	7	5
100212	19:23:12	10024	Trial	IncongruentLeft	14	203	423	1	119	19:23:12	3261172	5	3	3	3	3	3	3	3	3	6	5	0	0	0	0	7	5
100212	19:23:12	10024	Trial	ResponseIR	14	0	162	0	119	19:23:12	3262428	5	3	3	3	3	3	3	3	3	6	5	0	0	0	0	7	5
100212	19:23:12	10024	Trial	IncongruentRight	14	205	254	1	119	19:23:12	3262708	5	3	3	3	3	3	3	3	3	6	5	0	0	0	0	7	5
100212	19:23:12	10024	Trial	ResponseCR	14	0	162	0	119	19:23:12	3264121	5	3	3	3	3	3	3	3	3	6	5	0	0	0	0	7	5
100212	19:23:12	10024	Trial	CongruentRight	14	205	257	1	119	19:23:12	3264404	5	3	3	3	3	3	3	3	3	6	5	0	0	0	0	7	5
100212	19:23:12	10024	Trial	ResponseCR	14	0	162	0	119	19:23:12	3265813	5	3	3	3	3	3	3	3	3	6	5	0	0	0	0	7	5
100212	19:23:12	10024	Trial	CongruentRight	14	205	276	1	119	19:23:12	3266116	5	3	3	3	3	3	3	3	3	6	5	0	0	0	0	7	5
100212	19:23:12	10024	Trial	ResponseIL	14	0	162	0	119	19:23:12	3267506	5	3	3	3	3	3	3	3	3	6	5	0	0	0	0	7	5
100212	19:23:12	10024	Trial	IncongruentLeft	14	203	167	1	119	19:23:12	3267700	5	3	3	3	3	3	3	3	3	6	5	0	0	0	0	7	5
100212	19:23:12	10024	Trial	ResponseCL	14	0	162	0	119	19:23:12	3269199	5	3	3	3	3	3	3	3	3	6	5	0	0	0	0	7	5
100212	19:23:12	10024	Trial	CongruentLeft	14	203	203	1	119	19:23:12	3269428	5	3	3	3	3	3	3	3	3	6	5	0	0	0	0	7	5
100212	19:23:12	10024	Trial	ResponseCR	14	0	162	0	119	19:23:12	3270892	5	3	3	3	3	3	3	3	3	6	5	0	0	0	0	7	5
100212	19:23:12	10024	Trial	CongruentRight	14	205	177	1	119	19:23:12	3271095	5	3	3	3	3	3	3	3	3	6	5	0	0	0	0	7	5
100212	19:23:12	10024	Trial	ResponseCL	14	0	162	0	119	19:23:12	3272584	5	3	3	3	3	3	3	3	3	6	5	0	0	0	0	7	5
100212	19:23:12	10024	Trial	CongruentLeft	14	203	162	1	119	19:23:12	3272772	5	3	3	3	3	3	3	3	3	6	5	0	0	0	0	7	5
100212	19:23:12	10024	Trial	ResponseIR	14	0	162	0	119	19:23:12	3274276	5	3	3	3	3	3	3	3	3	6	5	0	0	0	0	7	5
100212	19:23:12	10024	Trial	IncongruentRight	14	205	164	1	119	19:23:12	3274468	5	3	3	3	3	3	3	3	3	6	5	0	0	0	0	7	5
100212	19:23:12	10024	Trial	ResponseCR	14	0	162	0	119	19:23:12	3275969	5	3	3	3	3	3	3	3	3	6	5	0	0	0	0	7	5
100212	19:23:12	10024	Trial	CongruentRight	14	205	254	1	119	19:23:12	3276249	5	3	3	3	3	3	3	3	3	6	5	0	0	0	0	7	5
100212	19:23:12	10024	Trial	ResponseCL	14	0	162	0	119	19:23:12	3277662	5	3	3	3	3	3	3	3	3	6	5	0	0	0	0	7	5
100212	19:23:12	10024	Trial	CongruentLeft	14	203	267	1	119	19:23:12	3277955	5	3	3	3	3	3	3	3	3	6	5	0	0	0	0	7	5
100212	19:23:12	10024	Trial	ResponseIL	14	0	162	0	119	19:23:12	3279354	5	3	3	3	3	3	3	3	3	6	5	0	0	0	0	7	5
100212	19:23:12	10024	Trial	IncongruentLeft	14	203	287	1	119	19:23:12	3279668	5	3	3	3	3	3	3	3	3	6	5	0	0	0	0	7	5
100212	19:23:12	10024	Trial	ResponseIL	14	0	162	0	119	19:23:12	3281060	5	3	3	3	3	3	3	3	3	6	5	0	0	0	0	7	5
100212	19:23:12	10024	Trial	IncongruentLeft	14	203	196	1	119	19:23:12	3281283	5	3	3	3	3	3	3	3	3	6	5	0	0	0	0	7	5
100212	19:23:12	10024	Trial	ResponseCR	14	0	162	0	119	19:23:12	3282766	5	3	3	3	3	3	3	3	3	6	5	0	0	0	0	7	5
100212	19:23:12	10024	Trial	CongruentRight	14	205	91	1	119	19:23:12	3282884	5	3	3	3	3	3	3	3	3	6	5	0	0	0	0	7	5
100212	19:23:12	10024	Trial	ResponseIR	14	0	162	0	119	19:23:12	3284459	5	3	3	3	3	3	3	3	3	6	5	0	0	0	0	7	5
100212	19:23:12	10024	Trial	IncongruentRight	14	205	237	1	119	19:23:12	3284723	5	3	3	3	3	3	3	3	3	6	5	0	0	0	0	7	5
100212	19:23:12	10024	Trial	ResponseCL	14	0	162	0	119	19:23:12	3286152	5	3	3	3	3	3	3	3	3	6	5	0	0	0	0	7	5
100212	19:23:12	10024	Trial	CongruentLeft	14	203	257	1	119	19:23:12	3286436	5	3	3	3	3	3	3	3	3	6	5	0	0	0	0	7	5
100212	19:23:12	10024	Trial	ResponseIR	14	0	162	0	119	19:23:12	3287844	5	3	3	3	3	3	3	3	3	6	5	0	0	0	0	7	5
100212	19:23:12	10024	Trial	IncongruentRight	14	205	244	1	119	19:23:12	3288115	5	3	3	3	3	3	3	3	3	6	5	0	0	0	0	7	5
100212	19:23:12	10024	Trial	ResponseCR	14	0	162	0	119	19:23:12	3289537	5	3	3	3	3	3	3	3	3	6	5	0	0	0	0	7	5
100212	19:23:12	10024	Trial	CongruentRight	14	205	152	1	119	19:23:12	3289715	5	3	3	3	3	3	3	3	3	6	5	0	0	0	0	7	5
100212	19:23:12	10024	Trial	ResponseIL	14	0	162	0	119	19:23:12	3291229	5	3	3	3	3	3	3	3	3	6	5	0	0	0	0	7	5
100212	19:23:12	10024	Trial	IncongruentLeft	14	203	219	1	119	19:23:12	3291475	5	3	3	3	3	3	3	3	3	6	5	0	0	0	0	7	5
100212	19:23:12	10024	Trial	ResponseCL	14	0	162	0	119	19:23:12	3292922	5	3	3	3	3	3	3	3	3	6	5	0	0	0	0	7	5
100212	19:23:12	10024	Trial	CongruentLeft	14	203	190	1	119	19:23:12	3293139	5	3	3	3	3	3	3	3	3	6	5	0	0	0	0	7	5
100212	19:23:12	10024	Trial	ResponseCR	14	0	162	0	119	19:23:12	3294615	5	3	3	3	3	3	3	3	3	6	5	0	0	0	0	7	5
100212	19:23:12	10024	Trial	CongruentRight	14	205	226	1	119	19:23:12	3294867	5	3	3	3	3	3	3	3	3	6	5	0	0	0	0	7	5
100212	19:23:12	10024	Trial	ResponseIL	14	0	162	0	119	19:23:12	3296321	5	3	3	3	3	3	3	3	3	6	5	0	0	0	0	7	5
100212	19:23:12	10024	Trial	IncongruentLeft	14	203	264	1	119	19:23:12	3296611	5	3	3	3	3	3	3	3	3	6	5	0	0	0	0	7	5
100212	19:23:12	10024	Trial	ResponseCR	14	0	162	0	119	19:23:12	3298013	5	3	3	3	3	3	3	3	3	6	5	0	0	0	0	7	5
100212	19:23:12	10024	Trial	CongruentRight	14	205	171	1	119	19:23:12	3298211	5	3	3	3	3	3	3	3	3	6	5	0	0	0	0	7	5
100212	19:23:12	10024	Trial	ResponseCR	14	0	162	0	119	19:23:12	3299706	5	3	3	3	3	3	3	3	3	6	5	0	0	0	0	7	5
100212	19:23:12	10024	Trial	CongruentRight	14	205	158	1	119	19:23:12	3299891	5	3	3	3	3	3	3	3	3	6	5	0	0	0	0	7	5
100212	19:23:12	10024	Trial	ResponseIR	14	0	162	0	119	19:23:12	3301399	5	3	3	3	3	3	3	3	3	6	5	0	0	0	0	7	5
100212	19:23:12	10024	Trial	IncongruentRight	14	205	161	1	119	19:23:12	3301587	5	3	3	3	3	3	3	3	3	6	5	0	0	0	0	7	5
100212	19:23:12	10024	Trial	ResponseCL	14	0	162	0	119	19:23:12	3303091	5	3	3	3	3	3	3	3	3	6	5	0	0	0	0	7	5
100212	19:23:12	10024	Trial	CongruentLeft	14	203	69	1	119	19:23:12	3303187	5	3	3	3	3	3	3	3	3	6	5	0	0	0	0	7	5
100212	19:23:12	10024	Trial	ResponseIL	14	0	162	0	119	19:23:12	3304784	5	3	3	3	3	3	3	3	3	6	5	0	0	0	0	7	5
100212	19:23:12	10024	Trial	IncongruentLeft	14	203	269	1	119	19:23:12	3305079	5	3	3	3	3	3	3	3	3	6	5	0	0	0	0	7	5
100212	19:23:12	10024	Trial	ResponseCL	14	0	162	0	119	19:23:12	3306476	5	3	3	3	3	3	3	3	3	6	5	0	0	0	0	7	5
100212	19:23:12	10024	Trial	CongruentLeft	14	203	236	1	119	19:23:12	3306739	5	3	3	3	3	3	3	3	3	6	5	0	0	0	0	7	5
100212	19:23:12	10024	Trial	ResponseIR	14	0	162	0	119	19:23:12	3308169	5	3	3	3	3	3	3	3	3	6	5	0	0	0	0	7	5
100212	19:23:12	10024	Trial	IncongruentRight	14	205	239	1	119	19:23:12	3308435	5	3	3	3	3	3	3	3	3	6	5	0	0	0	0	7	5
100212	19:23:12	10024	Trial	ResponseIL	14	0	162	0	119	19:23:12	3309862	5	3	3	3	3	3	3	3	3	6	5	0	0	0	0	7	5
100212	19:23:12	10024	Trial	IncongruentLeft	14	203	258	1	119	19:23:12	3310147	5	3	3	3	3	3	3	3	3	6	5	0	0	0	0	7	5
100212	19:23:12	10024	Trial	ResponseCR	14	0	162	0	119	19:23:12	3311555	5	3	3	3	3	3	3	3	3	6	5	0	0	0	0	7	5
100212	19:23:12	10024	Trial	CongruentRight	14	205	230	1	119	19:23:12	3311811	5	3	3	3	3	3	3	3	3	6	5	0	0	0	0	7	5
100212	19:23:12	10024	Trial	ResponseCL	14	0	162	0	119	19:23:12	3313247	5	3	3	3	3	3	3	3	3	6	5	0	0	0	0	7	5
100212	19:23:12	10024	Trial	CongruentLeft	14	203	153	1	119	19:23:12	3313426	5	3	3	3	3	3	3	3	3	6	5	0	0	0	0	7	5
100212	19:23:12	10024	Trial	ResponseIL	14	0	162	0	119	19:23:12	3314940	5	3	3	3	3	3	3	3	3	6	5	0	0	0	0	7	5
100212	19:23:12	10024	Trial	IncongruentLeft	14	203	364	1	119	19:23:12	3315330	5	3	3	3	3	3	3	3	3	6	5	0	0	0	0	7	5
100212	19:23:12	10024	Trial	ResponseCL	14	0	162	0	119	19:23:12	3316632	5	3	3	3	3	3	3	3	3	6	5	0	0	0	0	7	5
100212	19:23:12	10024	Trial	CongruentLeft	14	203	191	1	119	19:23:12	3316850	5	3	3	3	3	3	3	3	3	6	5	0	0	0	0	7	5
100212	19:23:12	10024	Trial	ResponseIR	14	0	162	0	119	19:23:12	3318325	5	3	3	3	3	3	3	3	3	6	5	0	0	0	0	7	5
100212	19:23:12	10024	Trial	IncongruentRight	14	205	211	1	119	19:23:12	3318562	5	3	3	3	3	3	3	3	3	6	5	0	0	0	0	7	5
100212	19:23:12	10024	Trial	ResponseCR	14	0	162	0	119	19:23:12	3320018	5	3	3	3	3	3	3	3	3	6	5	0	0	0	0	7	5
100212	19:23:12	10024	Trial	CongruentRight	14	205	182	1	119	19:23:12	3320226	5	3	3	3	3	3	3	3	3	6	5	0	0	0	0	7	5
100212	19:23:12	10024	Trial	ResponseIL	14	0	162	0	119	19:23:12	3321710	5	3	3	3	3	3	3	3	3	6	5	0	0	0	0	7	5
100212	19:23:12	10024	Trial	IncongruentLeft	14	203	249	1	119	19:23:12	3321986	5	3	3	3	3	3	3	3	3	6	5	0	0	0	0	7	5
100212	19:23:12	10024	Trial	ResponseCL	14	0	162	0	119	19:23:12	3323403	5	3	3	3	3	3	3	3	3	6	5	0	0	0	0	7	5
100212	19:23:12	10024	Trial	CongruentLeft	14	203	205	1	119	19:23:12	3323634	5	3	3	3	3	3	3	3	3	6	5	0	0	0	0	7	5
100212	19:23:12	10024	Trial	ResponseIR	14	0	162	0	119	19:23:12	3325096	5	3	3	3	3	3	3	3	3	6	5	0	0	0	0	7	5
100212	19:23:12	10024	Trial	IncongruentRight	14	205	208	1	119	19:23:12	3325330	5	3	3	3	3	3	3	3	3	6	5	0	0	0	0	7	5
100212	19:23:12	10024	Trial	ResponseIL	14	0	162	0	119	19:23:12	3326788	5	3	3	3	3	3	3	3	3	6	5	0	0	0	0	7	5
100212	19:23:12	10024	Trial	IncongruentLeft	14	203	323	1	119	19:23:12	3327138	5	3	3	3	3	3	3	3	3	6	5	0	0	0	0	7	5
100212	19:23:12	10024	Trial	ResponseCL	14	0	162	0	119	19:23:12	3328481	5	3	3	3	3	3	3	3	3	6	5	0	0	0	0	7	5
100212	19:23:12	10024	Trial	CongruentLeft	14	203	199	1	119	19:23:12	3328706	5	3	3	3	3	3	3	3	3	6	5	0	0	0	0	7	5
100212	19:23:12	10024	Trial	ResponseIL	14	0	162	0	119	19:23:12	3330173	5	3	3	3	3	3	3	3	3	6	5	0	0	0	0	7	5
100212	19:23:12	10024	Trial	IncongruentLeft	14	203	330	1	119	19:23:12	3330530	5	3	3	3	3	3	3	3	3	6	5	0	0	0	0	7	5
100212	19:23:12	10024	Trial	ResponseCR	14	0	162	0	119	19:23:12	3331866	5	3	3	3	3	3	3	3	3	6	5	0	0	0	0	7	5
100212	19:23:12	10024	Trial	CongruentRight	14	205	157	1	119	19:23:12	3332050	5	3	3	3	3	3	3	3	3	6	5	0	0	0	0	7	5
100212	19:23:12	10024	Trial	ResponseCL	14	0	162	0	119	19:23:12	3333559	5	3	3	3	3	3	3	3	3	6	5	0	0	0	0	7	5
100212	19:23:12	10024	Trial	CongruentLeft	14	203	208	1	119	19:23:12	3333794	5	3	3	3	3	3	3	3	3	6	5	0	0	0	0	7	5
100212	19:23:12	10024	Trial	ResponseIR	14	0	162	0	119	19:23:12	3335252	5	3	3	3	3	3	3	3	3	6	5	0	0	0	0	7	5
100212	19:23:12	10024	Trial	IncongruentRight	14	205	308	1	119	19:23:12	3335586	5	3	3	3	3	3	3	3	3	6	5	0	0	0	0	7	5
100212	19:23:12	10024	Trial	ResponseCL	14	0	162	0	119	19:23:12	3336944	5	3	3	3	3	3	3	3	3	6	5	0	0	0	0	7	5
100212	19:23:12	10024	Trial	CongruentLeft	14	203	103	1	119	19:23:12	3337074	5	3	3	3	3	3	3	3	3	6	5	0	0	0	0	7	5
100212	19:23:12	10024	Trial	ResponseCR	14	0	162	0	119	19:23:12	3338637	5	3	3	3	3	3	3	3	3	6	5	0	0	0	0	7	5
100212	19:23:12	10024	Trial	CongruentRight	14	205	105	1	119	19:23:12	3338770	5	3	3	3	3	3	3	3	3	6	5	0	0	0	0	7	5
100212	19:23:12	10024	Trial	ResponseIL	14	0	162	0	119	19:23:12	3340343	5	3	3	3	3	3	3	3	3	6	5	0	0	0	0	7	5
100212	19:23:12	10024	Trial	IncongruentLeft	14	203	160	1	119	19:23:12	3340530	5	3	3	3	3	3	3	3	3	6	5	0	0	0	0	7	5
100212	19:23:12	10024	WordsAbsFrThreemo	PAbsFrThreemo1	16	Abs1	4377	0	119	19:23:12	3355323	5	3	3	3	3	3	3	3	3	6	5	0	0	0	0	7	5
100212	19:23:12	10024	WordsAbsFrThreemo	AbsFrThreemo1	16	Abs1	3598	0	119	19:23:12	3358961	5	3	3	3	3	3	3	3	3	6	5	1	0	0	0	7	5
100212	19:23:12	10024	WordsAbsFrThreemo	AbsFrThreemo2	16	Abs1	7959	0	119	19:23:12	3366958	5	3	3	3	3	3	3	3	3	6	5	2	0	0	0	7	5
100212	19:23:12	10024	WordsAbsFrThreemo	AbsFrThreemo3	16	Abs1	6386	0	119	19:23:12	3373382	5	3	3	3	3	3	3	3	3	6	5	3	0	0	0	7	5
100212	19:23:12	10024	Trial2BackFrS	NS	17	0	1000	1	119	19:23:12	3483710	5	3	3	3	3	3	3	3	3	6	5	3	0	0	0	7	5
100212	19:23:12	10024	Trial2BackFrS	NS	17	0	1000	1	119	19:23:12	3485229	5	3	3	3	3	3	3	3	3	6	5	3	0	0	0	7	5
100212	19:23:12	10024	Trial2BackFrS	NS	17	0	1000	1	119	19:23:12	3486748	5	3	3	3	3	3	3	3	3	6	5	3	0	0	0	7	5
100212	19:23:12	10024	Trial2BackFrS	YS	17	57	361	1	119	19:23:12	3487641	5	3	3	3	3	3	3	3	3	6	5	3	0	0	0	7	5
100212	19:23:12	10024	Trial2BackFrS	NS	17	0	1000	1	119	19:23:12	3489774	5	3	3	3	3	3	3	3	3	6	5	3	0	0	0	7	5
100212	19:23:12	10024	Trial2BackFrS	NS	17	0	1000	1	119	19:23:12	3491293	5	3	3	3	3	3	3	3	3	6	5	3	0	0	0	7	5
100212	19:23:12	10024	Trial2BackFrS	NS	17	0	1000	1	119	19:23:12	3492812	5	3	3	3	3	3	3	3	3	6	5	3	0	0	0	7	5
100212	19:23:12	10024	Trial2BackFrS	NS	17	57	760	0	119	19:23:12	3494105	5	3	3	3	3	3	3	3	3	6	5	3	0	0	0	7	5
100212	19:23:12	10024	Trial2BackFrS	YS	17	57	550	1	119	19:23:12	3495398	5	3	3	3	3	3	3	3	3	6	5	3	0	0	0	7	5
100212	19:23:12	10024	Trial2BackFrS	NS	17	0	1000	1	119	19:23:12	3497331	5	3	3	3	3	3	3	3	3	6	5	3	0	0	0	7	5
100212	19:23:12	10024	Trial2BackFrS	NS	17	0	1000	1	119	19:23:12	3498850	5	3	3	3	3	3	3	3	3	6	5	3	0	0	0	7	5
100212	19:23:12	10024	Trial2BackFrS	YS	17	0	1000	0	119	19:23:12	3500369	5	3	3	3	3	3	3	3	3	6	5	3	0	0	0	7	5
100212	19:23:12	10024	Trial2BackFrS	NS	17	0	1000	1	119	19:23:12	3501889	5	3	3	3	3	3	3	3	3	6	5	3	0	0	0	7	5
100212	19:23:12	10024	Trial2BackFrS	NS	17	0	1000	1	119	19:23:12	3503408	5	3	3	3	3	3	3	3	3	6	5	3	0	0	0	7	5
100212	19:23:12	10024	Trial2BackFrS	NS	17	0	1000	1	119	19:23:12	3504927	5	3	3	3	3	3	3	3	3	6	5	3	0	0	0	7	5
100212	19:23:12	10024	Trial2BackFrS	YS	17	57	661	1	119	19:23:12	3506114	5	3	3	3	3	3	3	3	3	6	5	3	0	0	0	7	5
100212	19:23:12	10024	Trial2BackFrS	NS	17	0	1000	1	119	19:23:12	3507953	5	3	3	3	3	3	3	3	3	6	5	3	0	0	0	7	5
100212	19:23:12	10024	Trial2BackFrS	NS	17	0	1000	1	119	19:23:12	3509472	5	3	3	3	3	3	3	3	3	6	5	3	0	0	0	7	5
100212	19:23:12	10024	Trial2BackFrS	NS	17	0	1000	1	119	19:23:12	3510992	5	3	3	3	3	3	3	3	3	6	5	3	0	0	0	7	5
100212	19:23:12	10024	Trial2BackFrS	NS	17	0	1000	1	119	19:23:12	3512511	5	3	3	3	3	3	3	3	3	6	5	3	0	0	0	7	5
100212	19:23:12	10024	Trial2BackFrS	YS	17	57	837	1	119	19:23:12	3513870	5	3	3	3	3	3	3	3	3	6	5	3	0	0	0	7	5
100212	19:23:12	10024	Trial2BackFrS	NS	17	0	1000	1	119	19:23:12	3515536	5	3	3	3	3	3	3	3	3	6	5	3	0	0	0	7	5
100212	19:23:12	10024	Trial2BackFrS	NS	17	0	1000	1	119	19:23:12	3517056	5	3	3	3	3	3	3	3	3	6	5	3	0	0	0	7	5
100212	19:23:12	10024	Trial2BackFrS	NS	17	0	1000	1	119	19:23:12	3518576	5	3	3	3	3	3	3	3	3	6	5	3	0	0	0	7	5
100212	19:23:12	10024	Trial2BackFrS	NS	17	57	533	0	119	19:23:12	3519641	5	3	3	3	3	3	3	3	3	6	5	3	0	0	0	7	5
100212	19:23:12	10024	Trial2BackFrS	NS	17	57	819	0	119	19:23:12	3521427	5	3	3	3	3	3	3	3	3	6	5	3	0	0	0	7	5
100212	19:23:12	10024	Trial2BackFrS	NS	17	0	1000	1	119	19:23:12	3523093	5	3	3	3	3	3	3	3	3	6	5	3	0	0	0	7	5
100212	19:23:12	10024	Trial2BackFrS	NS	17	0	1000	1	119	19:23:12	3524613	5	3	3	3	3	3	3	3	3	6	5	3	0	0	0	7	5
100212	19:23:12	10024	Trial2BackFrS	NS	17	0	1000	1	119	19:23:12	3526132	5	3	3	3	3	3	3	3	3	6	5	3	0	0	0	7	5
100212	19:23:12	10024	Trial2BackFrS	NS	17	57	480	0	119	19:23:12	3527145	5	3	3	3	3	3	3	3	3	6	5	3	0	0	0	7	5
100212	19:23:12	10024	Trial2BackFrS	NS	17	57	702	0	119	19:23:12	3528864	5	3	3	3	3	3	3	3	3	6	5	3	0	0	0	7	5
100212	19:23:12	10024	Trial2BackFrS	YS	17	0	1000	0	119	19:23:12	3530650	5	3	3	3	3	3	3	3	3	6	5	3	0	0	0	7	5
100212	19:23:12	10024	Trial2BackFrS	NS	17	0	1000	1	119	19:23:12	3532170	5	3	3	3	3	3	3	3	3	6	5	3	0	0	0	7	5
100212	19:23:12	10024	Trial2BackFrS	NS	17	0	1000	1	119	19:23:12	3533716	5	3	3	3	3	3	3	3	3	6	5	3	0	0	0	7	5
100212	19:23:12	10024	Trial2BackFrS	NS	17	57	560	0	119	19:23:12	3534808	5	3	3	3	3	3	3	3	3	6	5	3	0	0	0	7	5
100212	19:23:12	10024	Trial2BackFrS	YS	17	57	766	1	119	19:23:12	3536514	5	3	3	3	3	3	3	3	3	6	5	3	0	0	0	7	5
100212	19:23:12	10024	Trial2BackFrS	NS	17	0	1000	1	119	19:23:12	3538234	5	3	3	3	3	3	3	3	3	6	5	3	0	0	0	7	5
100212	19:23:12	10024	Trial2BackFrS	NS	17	0	1000	1	119	19:23:12	3539780	5	3	3	3	3	3	3	3	3	6	5	3	0	0	0	7	5
100212	19:23:12	10024	Trial2BackFrS	NS	17	0	1000	1	119	19:23:12	3541299	5	3	3	3	3	3	3	3	3	6	5	3	0	0	0	7	5
100212	19:23:12	10024	Trial2BackFrS	NS	17	0	1000	1	119	19:23:12	3542818	5	3	3	3	3	3	3	3	3	6	5	3	0	0	0	7	5
100212	19:23:12	10024	Trial2BackFrS	NS	17	0	1000	1	119	19:23:12	3544338	5	3	3	3	3	3	3	3	3	6	5	3	0	0	0	7	5
100212	19:23:12	10024	Trial2BackFrS	NS	17	0	1000	1	119	19:23:12	3545857	5	3	3	3	3	3	3	3	3	6	5	3	0	0	0	7	5
100212	19:23:12	10024	Trial2BackFrS	NS	17	0	1000	1	119	19:23:12	3547377	5	3	3	3	3	3	3	3	3	6	5	3	0	0	0	7	5
100212	19:23:12	10024	Trial2BackFrS	YS	17	57	642	1	119	19:23:12	3548550	5	3	3	3	3	3	3	3	3	6	5	3	0	0	0	7	5
100212	19:23:12	10024	Trial2BackFrS	NS	17	0	1000	1	119	19:23:12	3550402	5	3	3	3	3	3	3	3	3	6	5	3	0	0	0	7	5
100212	19:23:12	10024	Trial2BackFrS	NS	17	0	1000	1	119	19:23:12	3551921	5	3	3	3	3	3	3	3	3	6	5	3	0	0	0	7	5
100212	19:23:12	10024	Trial2BackFrS	NS	17	0	1000	1	119	19:23:12	3553441	5	3	3	3	3	3	3	3	3	6	5	3	0	0	0	7	5
100212	19:23:12	10024	Trial2BackFrS	NS	17	0	1000	1	119	19:23:12	3554960	5	3	3	3	3	3	3	3	3	6	5	3	0	0	0	7	5
100212	19:23:12	10024	Trial2BackFrS	YS	17	57	515	1	119	19:23:12	3556000	5	3	3	3	3	3	3	3	3	6	5	3	0	0	0	7	5
100212	19:23:12	10024	Trial2BackFrS	NS	17	57	752	0	119	19:23:12	3557746	5	3	3	3	3	3	3	3	3	6	5	3	0	0	0	7	5
100212	19:23:12	10024	Trial2BackFrS	NS	17	0	1000	1	119	19:23:12	3559478	5	3	3	3	3	3	3	3	3	6	5	3	0	0	0	7	5
100212	19:23:12	10024	Trial2BackFrS	NS	17	0	1000	1	119	19:23:12	3560998	5	3	3	3	3	3	3	3	3	6	5	3	0	0	0	7	5
100212	19:23:12	10024	Trial2BackFrS	NS	17	0	1000	1	119	19:23:12	3562517	5	3	3	3	3	3	3	3	3	6	5	3	0	0	0	7	5
100212	19:23:12	10024	Trial2BackFrS	NS	17	57	574	0	119	19:23:12	3563623	5	3	3	3	3	3	3	3	3	6	5	3	0	0	0	7	5
100212	19:23:12	10024	Trial2BackFrS	NS	17	0	1000	1	119	19:23:12	3565542	5	3	3	3	3	3	3	3	3	6	5	3	0	0	0	7	5
100212	19:23:12	10024	Trial2BackFrS	YS	17	0	1000	0	119	19:23:12	3567062	5	3	3	3	3	3	3	3	3	6	5	3	0	0	0	7	5
100212	19:23:12	10024	Trial2BackFrS	NS	17	0	1000	1	119	19:23:12	3568581	5	3	3	3	3	3	3	3	3	6	5	3	0	0	0	7	5
100212	19:23:12	10024	Trial2BackFrS	NS	17	0	1000	1	119	19:23:12	3570101	5	3	3	3	3	3	3	3	3	6	5	3	0	0	0	7	5
100212	19:23:12	10024	Trial2BackFrS	NS	17	0	1000	1	119	19:23:12	3571620	5	3	3	3	3	3	3	3	3	6	5	3	0	0	0	7	5
100212	19:23:12	10024	Trial2BackFrS	NS	17	0	1000	1	119	19:23:12	3573139	5	3	3	3	3	3	3	3	3	6	5	3	0	0	0	7	5
100212	19:23:12	10024	Trial2BackFrS	NS	17	0	1000	1	119	19:23:12	3574659	5	3	3	3	3	3	3	3	3	6	5	3	0	0	0	7	5
100212	19:23:12	10024	Trial2BackFrS	NS	17	0	1000	1	119	19:23:12	3576178	5	3	3	3	3	3	3	3	3	6	5	3	0	0	0	7	5
100212	19:23:12	10024	Trial2BackFrS	NS	17	0	1000	1	119	19:23:12	3577697	5	3	3	3	3	3	3	3	3	6	5	3	0	0	0	7	5
100212	19:23:12	10024	Trial2BackFrS	YS	17	57	608	1	119	19:23:12	3578830	5	3	3	3	3	3	3	3	3	6	5	3	0	0	0	7	5
100212	19:23:12	10024	Trial2BackFrS	NS	17	0	1000	1	119	19:23:12	3580723	5	3	3	3	3	3	3	3	3	6	5	3	0	0	0	7	5
100212	19:23:12	10024	Trial2BackFrS	NS	17	0	1000	1	119	19:23:12	3582242	5	3	3	3	3	3	3	3	3	6	5	3	0	0	0	7	5
100212	19:23:12	10024	Trial2BackFrS	NS	17	0	1000	1	119	19:23:12	3583761	5	3	3	3	3	3	3	3	3	6	5	3	0	0	0	7	5
100212	19:23:12	10024	Trial2BackFrS	NS	17	0	1000	1	119	19:23:12	3585281	5	3	3	3	3	3	3	3	3	6	5	3	0	0	0	7	5
100212	19:23:12	10024	Trial2BackFrS	YS	17	57	513	1	119	19:23:12	3586320	5	3	3	3	3	3	3	3	3	6	5	3	0	0	0	7	5
100212	19:23:12	10024	Trial2BackFrS	NS	17	0	1000	1	119	19:23:12	3588306	5	3	3	3	3	3	3	3	3	6	5	3	0	0	0	7	5
100212	19:23:12	10024	Trial2BackFrS	NS	17	0	1000	1	119	19:23:12	3589826	5	3	3	3	3	3	3	3	3	6	5	3	0	0	0	7	5
100212	19:23:12	10024	Trial2BackFrS	YS	17	57	576	1	119	19:23:12	3590932	5	3	3	3	3	3	3	3	3	6	5	3	0	0	0	7	5
100212	19:23:12	10024	Trial2BackFrS	NS	17	0	1000	1	119	19:23:12	3592851	5	3	3	3	3	3	3	3	3	6	5	3	0	0	0	7	5
100212	19:23:12	10024	Trial2BackFrS	NS	17	0	1000	1	119	19:23:12	3594370	5	3	3	3	3	3	3	3	3	6	5	3	0	0	0	7	5
100212	19:23:12	10024	Trial2BackFrS	NS	17	57	590	0	119	19:23:12	3595490	5	3	3	3	3	3	3	3	3	6	5	3	0	0	0	7	5
100212	19:23:12	10024	Trial2BackFrS	NS	17	0	1000	1	119	19:23:12	3597396	5	3	3	3	3	3	3	3	3	6	5	3	0	0	0	7	5
100212	19:23:12	10024	Trial2BackFrS	NS	17	57	749	0	119	19:23:12	3598675	5	3	3	3	3	3	3	3	3	6	5	3	0	0	0	7	5
100212	19:23:12	10024	Trial2BackFrS	NS	17	0	1000	1	119	19:23:12	3600421	5	3	3	3	3	3	3	3	3	6	5	3	0	0	0	7	5
100212	19:23:12	10024	Trial2BackFrS	YS	17	57	588	1	119	19:23:12	3601541	5	3	3	3	3	3	3	3	3	6	5	3	0	0	0	7	5
100212	19:23:12	10024	Trial2BackFrS	NS	17	0	1000	1	119	19:23:12	3603447	5	3	3	3	3	3	3	3	3	6	5	3	0	0	0	7	5
100212	19:23:12	10024	Trial2BackFrS	NS	17	0	1000	1	119	19:23:12	3604966	5	3	3	3	3	3	3	3	3	6	5	3	0	0	0	7	5
100212	19:23:12	10024	Trial2BackFrS	NS	17	0	1000	1	119	19:23:12	3606485	5	3	3	3	3	3	3	3	3	6	5	3	0	0	0	7	5
100212	19:23:12	10024	Trial2BackFrS	NS	17	0	1000	1	119	19:23:12	3608005	5	3	3	3	3	3	3	3	3	6	5	3	0	0	0	7	5
100212	19:23:12	10024	Trial2BackFrS	YS	17	57	508	1	119	19:23:12	3609044	5	3	3	3	3	3	3	3	3	6	5	3	0	0	0	7	5
100212	19:23:12	10024	Trial2BackFrS	NS	17	0	1000	1	119	19:23:12	3611030	5	3	3	3	3	3	3	3	3	6	5	3	0	0	0	7	5
100212	19:23:12	10024	Trial2BackFrS	NS	17	0	1000	1	119	19:23:12	3612550	5	3	3	3	3	3	3	3	3	6	5	3	0	0	0	7	5
100212	19:23:12	10024	Trial2BackFrS	NS	17	0	1000	1	119	19:23:12	3614069	5	3	3	3	3	3	3	3	3	6	5	3	0	0	0	7	5
100212	19:23:12	10024	Trial2BackFrS	NS	17	57	508	0	119	19:23:12	3615109	5	3	3	3	3	3	3	3	3	6	5	3	0	0	0	7	5
100212	19:23:12	10024	Trial2BackFrS	YS	17	0	1000	0	119	19:23:12	3617095	5	3	3	3	3	3	3	3	3	6	5	3	0	0	0	7	5
100212	19:23:12	10024	Trial2BackFrS	NS	17	0	1000	1	119	19:23:12	3618614	5	3	3	3	3	3	3	3	3	6	5	3	0	0	0	7	5
100212	19:23:12	10024	Trial2BackFrS	NS	17	0	1000	1	119	19:23:12	3620133	5	3	3	3	3	3	3	3	3	6	5	3	0	0	0	7	5
100212	19:23:12	10024	Trial2BackFrS	YS	17	57	651	1	119	19:23:12	3621306	5	3	3	3	3	3	3	3	3	6	5	3	0	0	0	7	5
100212	19:23:12	10024	Trial2BackFrS	NS	17	0	1000	1	119	19:23:12	3623158	5	3	3	3	3	3	3	3	3	6	5	3	0	0	0	7	5
100212	19:23:12	10024	Trial2BackFrS	NS	17	0	1000	1	119	19:23:12	3624678	5	3	3	3	3	3	3	3	3	6	5	3	0	0	0	7	5
100212	19:23:12	10024	Trial2BackFrS	NS	17	0	1000	1	119	19:23:12	3626197	5	3	3	3	3	3	3	3	3	6	5	3	0	0	0	7	5
100212	19:23:12	10024	Trial2BackFrS	NS	17	0	1000	1	119	19:23:12	3627717	5	3	3	3	3	3	3	3	3	6	5	3	0	0	0	7	5
100212	19:23:12	10024	Trial2BackFrS	NS	17	0	1000	1	119	19:23:12	3629236	5	3	3	3	3	3	3	3	3	6	5	3	0	0	0	7	5
100212	19:23:12	10024	Trial2BackFrS	NS	17	0	1000	1	119	19:23:12	3630755	5	3	3	3	3	3	3	3	3	6	5	3	0	0	0	7	5
100212	19:23:12	10024	Trial2BackFrS	NS	17	0	1000	1	119	19:23:12	3632275	5	3	3	3	3	3	3	3	3	6	5	3	0	0	0	7	5
100212	19:23:12	10024	Trial2BackFrS	NS	17	0	1000	1	119	19:23:12	3633794	5	3	3	3	3	3	3	3	3	6	5	3	0	0	0	7	5
100212	19:23:12	10024	Trial2BackFrS	YS	17	57	494	1	119	19:23:12	3634820	5	3	3	3	3	3	3	3	3	6	5	3	0	0	0	7	5
100212	19:23:12	10024	Trial2BackFrS	NS	17	0	1000	1	119	19:23:12	3636819	5	3	3	3	3	3	3	3	3	6	5	3	0	0	0	7	5
100212	19:23:12	10024	Trial2BackFrS	NS	17	0	1000	1	119	19:23:12	3638339	5	3	3	3	3	3	3	3	3	6	5	3	0	0	0	7	5
100212	19:23:12	10024	Trial2BackFrS	NS	17	0	1000	1	119	19:23:12	3639858	5	3	3	3	3	3	3	3	3	6	5	3	0	0	0	7	5
100212	19:23:12	10024	Trial2BackFrS	NS	17	0	1000	1	119	19:23:12	3641377	5	3	3	3	3	3	3	3	3	6	5	3	0	0	0	7	5
100212	19:23:12	10024	Trial2BackFrS	NS	17	0	1000	1	119	19:23:12	3642897	5	3	3	3	3	3	3	3	3	6	5	3	0	0	0	7	5
100212	19:23:12	10024	Trial2BackFrS	NS	17	0	1000	1	119	19:23:12	3644416	5	3	3	3	3	3	3	3	3	6	5	3	0	0	0	7	5
100212	19:23:12	10024	Trial2BackFrS	NS	17	0	1000	1	119	19:23:12	3645936	5	3	3	3	3	3	3	3	3	6	5	3	0	0	0	7	5
100212	19:23:12	10024	Trial2BackFrS	YS	17	57	528	1	119	19:23:12	3646988	5	3	3	3	3	3	3	3	3	6	5	3	0	0	0	7	5
100212	19:23:12	10024	Trial2BackFrS	NS	17	0	1000	1	119	19:23:12	3648961	5	3	3	3	3	3	3	3	3	6	5	3	0	0	0	7	5
100212	19:23:12	10024	Trial2BackFrS	NS	17	0	1000	1	119	19:23:12	3650480	5	3	3	3	3	3	3	3	3	6	5	3	0	0	0	7	5
100212	19:23:12	10024	Trial2BackFrS	NS	17	0	1000	1	119	19:23:12	3652000	5	3	3	3	3	3	3	3	3	6	5	3	0	0	0	7	5
100212	19:23:12	10024	Trial2BackFrS	NS	17	0	1000	1	119	19:23:12	3653519	5	3	3	3	3	3	3	3	3	6	5	3	0	0	0	7	5
100212	19:23:12	10024	Trial2BackFrS	NS	17	0	1000	1	119	19:23:12	3655039	5	3	3	3	3	3	3	3	3	6	5	3	0	0	0	7	5
100212	19:23:12	10024	Trial2BackFrS	NS	17	0	1000	1	119	19:23:12	3656558	5	3	3	3	3	3	3	3	3	6	5	3	0	0	0	7	5
100212	19:23:12	10024	Trial2BackFrS	NS	17	0	1000	1	119	19:23:12	3658077	5	3	3	3	3	3	3	3	3	6	5	3	0	0	0	7	5
100212	19:23:12	10024	Trial2BackFrS	NS	17	0	1000	1	119	19:23:12	3659597	5	3	3	3	3	3	3	3	3	6	5	3	0	0	0	7	5
100212	19:23:12	10024	Trial2BackFrS	NS	17	0	1000	1	119	19:23:12	3661116	5	3	3	3	3	3	3	3	3	6	5	3	0	0	0	7	5
100212	19:23:12	10024	Trial2BackFrS	YS	17	57	931	1	119	19:23:12	3662568	5	3	3	3	3	3	3	3	3	6	5	3	0	0	0	7	5
100212	19:23:12	10024	Trial2BackFrS	NS	17	0	1000	1	119	19:23:12	3664141	5	3	3	3	3	3	3	3	3	6	5	3	0	0	0	7	5
100212	19:23:12	10024	Trial3BackFrS	NNS	18	0	1000	1	119	19:23:12	3684440	5	3	3	3	3	3	3	3	3	6	5	3	0	0	0	7	5
100212	19:23:12	10024	Trial3BackFrS	NNS	18	0	1000	1	119	19:23:12	3685959	5	3	3	3	3	3	3	3	3	6	5	3	0	0	0	7	5
100212	19:23:12	10024	Trial3BackFrS	NNS	18	0	1000	1	119	19:23:12	3687478	5	3	3	3	3	3	3	3	3	6	5	3	0	0	0	7	5
100212	19:23:12	10024	Trial3BackFrS	YYS	18	57	520	1	119	19:23:12	3688531	5	3	3	3	3	3	3	3	3	6	5	3	0	0	0	7	5
100212	19:23:12	10024	Trial3BackFrS	NNS	18	0	1000	1	119	19:23:12	3690504	5	3	3	3	3	3	3	3	3	6	5	3	0	0	0	7	5
100212	19:23:12	10024	Trial3BackFrS	NNS	18	0	1000	1	119	19:23:12	3692023	5	3	3	3	3	3	3	3	3	6	5	3	0	0	0	7	5
100212	19:23:12	10024	Trial3BackFrS	NNS	18	0	1000	1	119	19:23:12	3693543	5	3	3	3	3	3	3	3	3	6	5	3	0	0	0	7	5
100212	19:23:12	10024	Trial3BackFrS	NNS	18	0	1000	1	119	19:23:12	3695062	5	3	3	3	3	3	3	3	3	6	5	3	0	0	0	7	5
100212	19:23:12	10024	Trial3BackFrS	YYS	18	57	648	1	119	19:23:12	3696235	5	3	3	3	3	3	3	3	3	6	5	3	0	0	0	7	5
100212	19:23:12	10024	Trial3BackFrS	NNS	18	57	950	0	119	19:23:12	3698048	5	3	3	3	3	3	3	3	3	6	5	3	0	0	0	7	5
100212	19:23:12	10024	Trial3BackFrS	NNS	18	0	1000	1	119	19:23:12	3699580	5	3	3	3	3	3	3	3	3	6	5	3	0	0	0	7	5
100212	19:23:12	10024	Trial3BackFrS	NNS	18	0	1000	1	119	19:23:12	3701100	5	3	3	3	3	3	3	3	3	6	5	3	0	0	0	7	5
100212	19:23:12	10024	Trial3BackFrS	NNS	18	0	1000	1	119	19:23:12	3702619	5	3	3	3	3	3	3	3	3	6	5	3	0	0	0	7	5
100212	19:23:12	10024	Trial3BackFrS	NNS	18	57	627	0	119	19:23:12	3703778	5	3	3	3	3	3	3	3	3	6	5	3	0	0	0	7	5
100212	19:23:12	10024	Trial3BackFrS	NNS	18	0	1000	1	119	19:23:12	3705644	5	3	3	3	3	3	3	3	3	6	5	3	0	0	0	7	5
100212	19:23:12	10024	Trial3BackFrS	NNS	18	0	1000	1	119	19:23:12	3707163	5	3	3	3	3	3	3	3	3	6	5	3	0	0	0	7	5
100212	19:23:12	10024	Trial3BackFrS	YYS	18	0	1000	0	119	19:23:12	3708683	5	3	3	3	3	3	3	3	3	6	5	3	0	0	0	7	5
100212	19:23:12	10024	Trial3BackFrS	NNS	18	0	1000	1	119	19:23:12	3710202	5	3	3	3	3	3	3	3	3	6	5	3	0	0	0	7	5
100212	19:23:12	10024	Trial3BackFrS	NNS	18	0	1000	1	119	19:23:12	3711722	5	3	3	3	3	3	3	3	3	6	5	3	0	0	0	7	5
100212	19:23:12	10024	Trial3BackFrS	NNS	18	0	1000	1	119	19:23:12	3713241	5	3	3	3	3	3	3	3	3	6	5	3	0	0	0	7	5
100212	19:23:12	10024	Trial3BackFrS	NNS	18	57	788	0	119	19:23:12	3714561	5	3	3	3	3	3	3	3	3	6	5	3	0	0	0	7	5
100212	19:23:12	10024	Trial3BackFrS	NNS	18	0	1000	1	119	19:23:12	3716266	5	3	3	3	3	3	3	3	3	6	5	3	0	0	0	7	5
100212	19:23:12	10024	Trial3BackFrS	YYS	18	57	835	1	119	19:23:12	3717626	5	3	3	3	3	3	3	3	3	6	5	3	0	0	0	7	5
100212	19:23:12	10024	Trial3BackFrS	NNS	18	0	1000	1	119	19:23:12	3719292	5	3	3	3	3	3	3	3	3	6	5	3	0	0	0	7	5
100212	19:23:12	10024	Trial3BackFrS	NNS	18	0	1000	1	119	19:23:12	3720811	5	3	3	3	3	3	3	3	3	6	5	3	0	0	0	7	5
100212	19:23:12	10024	Trial3BackFrS	NNS	18	0	1000	1	119	19:23:12	3722331	5	3	3	3	3	3	3	3	3	6	5	3	0	0	0	7	5
100212	19:23:12	10024	Trial3BackFrS	YYS	18	0	1000	0	119	19:23:12	3723850	5	3	3	3	3	3	3	3	3	6	5	3	0	0	0	7	5
100212	19:23:12	10024	Trial3BackFrS	NNS	18	0	1000	1	119	19:23:12	3725369	5	3	3	3	3	3	3	3	3	6	5	3	0	0	0	7	5
100212	19:23:12	10024	Trial3BackFrS	NNS	18	0	1000	1	119	19:23:12	3726889	5	3	3	3	3	3	3	3	3	6	5	3	0	0	0	7	5
100212	19:23:12	10024	Trial3BackFrS	NNS	18	57	660	0	119	19:23:12	3728075	5	3	3	3	3	3	3	3	3	6	5	3	0	0	0	7	5
100212	19:23:12	10024	Trial3BackFrS	YYS	18	57	706	1	119	19:23:12	3729634	5	3	3	3	3	3	3	3	3	6	5	3	0	0	0	7	5
100212	19:23:12	10024	Trial3BackFrS	NNS	18	0	1000	1	119	19:23:12	3731407	5	3	3	3	3	3	3	3	3	6	5	3	0	0	0	7	5
100212	19:23:12	10024	Trial3BackFrS	NNS	18	0	1000	1	119	19:23:12	3732926	5	3	3	3	3	3	3	3	3	6	5	3	0	0	0	7	5
100212	19:23:12	10024	Trial3BackFrS	NNS	18	0	1000	1	119	19:23:12	3734446	5	3	3	3	3	3	3	3	3	6	5	3	0	0	0	7	5
100212	19:23:12	10024	Trial3BackFrS	NNS	18	0	1000	1	119	19:23:12	3735965	5	3	3	3	3	3	3	3	3	6	5	3	0	0	0	7	5
100212	19:23:12	10024	Trial3BackFrS	NNS	18	0	1000	1	119	19:23:12	3737484	5	3	3	3	3	3	3	3	3	6	5	3	0	0	0	7	5
100212	19:23:12	10024	Trial3BackFrS	NNS	18	57	864	0	119	19:23:12	3738870	5	3	3	3	3	3	3	3	3	6	5	3	0	0	0	7	5
100212	19:23:12	10024	Trial3BackFrS	NNS	18	0	1000	1	119	19:23:12	3740510	5	3	3	3	3	3	3	3	3	6	5	3	0	0	0	7	5
100212	19:23:12	10024	Trial3BackFrS	NNS	18	0	1000	1	119	19:23:12	3742029	5	3	3	3	3	3	3	3	3	6	5	3	0	0	0	7	5
100212	19:23:12	10024	Trial3BackFrS	NNS	18	0	1000	1	119	19:23:12	3743549	5	3	3	3	3	3	3	3	3	6	5	3	0	0	0	7	5
100212	19:23:12	10024	Trial3BackFrS	NNS	18	0	1000	1	119	19:23:12	3745081	5	3	3	3	3	3	3	3	3	6	5	3	0	0	0	7	5
100212	19:23:12	10024	Trial3BackFrS	YYS	18	57	787	1	119	19:23:12	3746401	5	3	3	3	3	3	3	3	3	6	5	3	0	0	0	7	5
100212	19:23:12	10024	Trial3BackFrS	NNS	18	0	1000	1	119	19:23:12	3748107	5	3	3	3	3	3	3	3	3	6	5	3	0	0	0	7	5
100212	19:23:12	10024	Trial3BackFrS	NNS	18	0	1000	1	119	19:23:12	3749626	5	3	3	3	3	3	3	3	3	6	5	3	0	0	0	7	5
100212	19:23:12	10024	Trial3BackFrS	NNS	18	0	1000	1	119	19:23:12	3751145	5	3	3	3	3	3	3	3	3	6	5	3	0	0	0	7	5
100212	19:23:12	10024	Trial3BackFrS	NNS	18	57	531	0	119	19:23:12	3752198	5	3	3	3	3	3	3	3	3	6	5	3	0	0	0	7	5
100212	19:23:12	10024	Trial3BackFrS	YYS	18	0	1000	0	119	19:23:12	3754171	5	3	3	3	3	3	3	3	3	6	5	3	0	0	0	7	5
100212	19:23:12	10024	Trial3BackFrS	NNS	18	0	1000	1	119	19:23:12	3755690	5	3	3	3	3	3	3	3	3	6	5	3	0	0	0	7	5
100212	19:23:12	10024	Trial3BackFrS	NNS	18	0	1000	1	119	19:23:12	3757210	5	3	3	3	3	3	3	3	3	6	5	3	0	0	0	7	5
100212	19:23:12	10024	Trial3BackFrS	NNS	18	57	610	0	119	19:23:12	3758342	5	3	3	3	3	3	3	3	3	6	5	3	0	0	0	7	5
100212	19:23:12	10024	Trial3BackFrS	NNS	18	0	1000	1	119	19:23:12	3760235	5	3	3	3	3	3	3	3	3	6	5	3	0	0	0	7	5
100212	19:23:12	10024	Trial3BackFrS	NNS	18	0	1000	1	119	19:23:12	3761754	5	3	3	3	3	3	3	3	3	6	5	3	0	0	0	7	5
100212	19:23:12	10024	Trial3BackFrS	YYS	18	57	657	1	119	19:23:12	3762940	5	3	3	3	3	3	3	3	3	6	5	3	0	0	0	7	5
100212	19:23:12	10024	Trial3BackFrS	NNS	18	0	1000	1	119	19:23:12	3764780	5	3	3	3	3	3	3	3	3	6	5	3	0	0	0	7	5
100212	19:23:12	10024	Trial3BackFrS	NNS	18	0	1000	1	119	19:23:12	3766299	5	3	3	3	3	3	3	3	3	6	5	3	0	0	0	7	5
100212	19:23:12	10024	Trial3BackFrS	NNS	18	0	1000	1	119	19:23:12	3767818	5	3	3	3	3	3	3	3	3	6	5	3	0	0	0	7	5
100212	19:23:12	10024	Trial3BackFrS	NNS	18	0	1000	1	119	19:23:12	3769338	5	3	3	3	3	3	3	3	3	6	5	3	0	0	0	7	5
100212	19:23:12	10024	Trial3BackFrS	NNS	18	57	450	0	119	19:23:12	3770311	5	3	3	3	3	3	3	3	3	6	5	3	0	0	0	7	5
100212	19:23:12	10024	Trial3BackFrS	NNS	18	57	927	0	119	19:23:12	3772296	5	3	3	3	3	3	3	3	3	6	5	3	0	0	0	7	5
100212	19:23:12	10024	Trial3BackFrS	YYS	18	0	1000	0	119	19:23:12	3773856	5	3	3	3	3	3	3	3	3	6	5	3	0	0	0	7	5
100212	19:23:12	10024	Trial3BackFrS	NNS	18	0	1000	1	119	19:23:12	3775375	5	3	3	3	3	3	3	3	3	6	5	3	0	0	0	7	5
100212	19:23:12	10024	Trial3BackFrS	NNS	18	0	1000	1	119	19:23:12	3776895	5	3	3	3	3	3	3	3	3	6	5	3	0	0	0	7	5
100212	19:23:12	10024	Trial3BackFrS	NNS	18	57	796	0	119	19:23:12	3778214	5	3	3	3	3	3	3	3	3	6	5	3	0	0	0	7	5
100212	19:23:12	10024	Trial3BackFrS	YYS	18	57	650	1	119	19:23:12	3779574	5	3	3	3	3	3	3	3	3	6	5	3	0	0	0	7	5
100212	19:23:12	10024	Trial3BackFrS	NNS	18	0	1000	1	119	19:23:12	3781413	5	3	3	3	3	3	3	3	3	6	5	3	0	0	0	7	5
100212	19:23:12	10024	Trial3BackFrS	NNS	18	0	1000	1	119	19:23:12	3782932	5	3	3	3	3	3	3	3	3	6	5	3	0	0	0	7	5
100212	19:23:12	10024	Trial3BackFrS	NNS	18	0	1000	1	119	19:23:12	3784452	5	3	3	3	3	3	3	3	3	6	5	3	0	0	0	7	5
100212	19:23:12	10024	Trial3BackFrS	NNS	18	0	1000	1	119	19:23:12	3785971	5	3	3	3	3	3	3	3	3	6	5	3	0	0	0	7	5
100212	19:23:12	10024	Trial3BackFrS	NNS	18	0	1000	1	119	19:23:12	3787490	5	3	3	3	3	3	3	3	3	6	5	3	0	0	0	7	5
100212	19:23:12	10024	Trial3BackFrS	NNS	18	57	552	0	119	19:23:12	3788570	5	3	3	3	3	3	3	3	3	6	5	3	0	0	0	7	5
100212	19:23:12	10024	Trial3BackFrS	NNS	18	0	1000	1	119	19:23:12	3790516	5	3	3	3	3	3	3	3	3	6	5	3	0	0	0	7	5
100212	19:23:12	10024	Trial3BackFrS	NNS	18	0	1000	1	119	19:23:12	3792035	5	3	3	3	3	3	3	3	3	6	5	3	0	0	0	7	5
100212	19:23:12	10024	Trial3BackFrS	NNS	18	0	1000	1	119	19:23:12	3793554	5	3	3	3	3	3	3	3	3	6	5	3	0	0	0	7	5
100212	19:23:12	10024	Trial3BackFrS	YYS	18	57	392	1	119	19:23:12	3794474	5	3	3	3	3	3	3	3	3	6	5	3	0	0	0	7	5
100212	19:23:12	10024	Trial3BackFrS	NNS	18	57	742	0	119	19:23:12	3796327	5	3	3	3	3	3	3	3	3	6	5	3	0	0	0	7	5
100212	19:23:12	10024	Trial3BackFrS	NNS	18	0	1000	1	119	19:23:12	3798073	5	3	3	3	3	3	3	3	3	6	5	3	0	0	0	7	5
100212	19:23:12	10024	Trial3BackFrS	NNS	18	0	1000	1	119	19:23:12	3799592	5	3	3	3	3	3	3	3	3	6	5	3	0	0	0	7	5
100212	19:23:12	10024	Trial3BackFrS	YYS	18	57	626	1	119	19:23:12	3800751	5	3	3	3	3	3	3	3	3	6	5	3	0	0	0	7	5
100212	19:23:12	10024	Trial3BackFrS	NNS	18	0	1000	1	119	19:23:12	3802617	5	3	3	3	3	3	3	3	3	6	5	3	0	0	0	7	5
100212	19:23:12	10024	Trial3BackFrS	NNS	18	57	913	0	119	19:23:12	3804057	5	3	3	3	3	3	3	3	3	6	5	3	0	0	0	7	5
100212	19:23:12	10024	Trial3BackFrS	NNS	18	0	1000	1	119	19:23:12	3805643	5	3	3	3	3	3	3	3	3	6	5	3	0	0	0	7	5
100212	19:23:12	10024	Trial3BackFrS	NNS	18	0	1000	1	119	19:23:12	3807162	5	3	3	3	3	3	3	3	3	6	5	3	0	0	0	7	5
100212	19:23:12	10024	Trial3BackFrS	NNS	18	57	800	0	119	19:23:12	3808495	5	3	3	3	3	3	3	3	3	6	5	3	0	0	0	7	5
100212	19:23:12	10024	Trial3BackFrS	YYS	18	57	718	1	119	19:23:12	3809907	5	3	3	3	3	3	3	3	3	6	5	3	0	0	0	7	5
100212	19:23:12	10024	Trial3BackFrS	NNS	18	0	1000	1	119	19:23:12	3811680	5	3	3	3	3	3	3	3	3	6	5	3	0	0	0	7	5
100212	19:23:12	10024	Trial3BackFrS	NNS	18	0	1000	1	119	19:23:12	3813200	5	3	3	3	3	3	3	3	3	6	5	3	0	0	0	7	5
100212	19:23:12	10024	Trial3BackFrS	NNS	18	0	1000	1	119	19:23:12	3814719	5	3	3	3	3	3	3	3	3	6	5	3	0	0	0	7	5
100212	19:23:12	10024	Trial3BackFrS	NNS	18	57	731	0	119	19:23:12	3815972	5	3	3	3	3	3	3	3	3	6	5	3	0	0	0	7	5
100212	19:23:12	10024	Trial3BackFrS	NNS	18	0	1000	1	119	19:23:12	3817745	5	3	3	3	3	3	3	3	3	6	5	3	0	0	0	7	5
100212	19:23:12	10024	Trial3BackFrS	NNS	18	57	953	0	119	19:23:12	3819224	5	3	3	3	3	3	3	3	3	6	5	3	0	0	0	7	5
100212	19:23:12	10024	Trial3BackFrS	NNS	18	0	1000	1	119	19:23:12	3820770	5	3	3	3	3	3	3	3	3	6	5	3	0	0	0	7	5
100212	19:23:12	10024	Trial3BackFrS	NNS	18	0	1000	1	119	19:23:12	3822289	5	3	3	3	3	3	3	3	3	6	5	3	0	0	0	7	5
100212	19:23:12	10024	Trial3BackFrS	NNS	18	57	712	0	119	19:23:12	3823529	5	3	3	3	3	3	3	3	3	6	5	3	0	0	0	7	5
100212	19:23:12	10024	Trial3BackFrS	YYS	18	0	1000	0	119	19:23:12	3825315	5	3	3	3	3	3	3	3	3	6	5	3	0	0	0	7	5
100212	19:23:12	10024	Trial3BackFrS	NNS	18	0	1000	1	119	19:23:12	3826834	5	3	3	3	3	3	3	3	3	6	5	3	0	0	0	7	5
100212	19:23:12	10024	Trial3BackFrS	NNS	18	0	1000	1	119	19:23:12	3828353	5	3	3	3	3	3	3	3	3	6	5	3	0	0	0	7	5
100212	19:23:12	10024	Trial3BackFrS	NNS	18	57	600	0	119	19:23:12	3829486	5	3	3	3	3	3	3	3	3	6	5	3	0	0	0	7	5
100212	19:23:12	10024	Trial3BackFrS	NNS	18	57	870	0	119	19:23:12	3831259	5	3	3	3	3	3	3	3	3	6	5	3	0	0	0	7	5
100212	19:23:12	10024	Trial3BackFrS	NNS	18	0	1000	1	119	19:23:12	3832871	5	3	3	3	3	3	3	3	3	6	5	3	0	0	0	7	5
100212	19:23:12	10024	Trial3BackFrS	NNS	18	57	738	0	119	19:23:12	3834138	5	3	3	3	3	3	3	3	3	6	5	3	0	0	0	7	5
100212	19:23:12	10024	Trial3BackFrS	NNS	18	0	1000	1	119	19:23:12	3835897	5	3	3	3	3	3	3	3	3	6	5	3	0	0	0	7	5
100212	19:23:12	10024	Trial3BackFrS	NNS	18	0	1000	1	119	19:23:12	3837416	5	3	3	3	3	3	3	3	3	6	5	3	0	0	0	7	5
100212	19:23:12	10024	Trial3BackFrS	YYS	18	57	993	1	119	19:23:12	3838936	5	3	3	3	3	3	3	3	3	6	5	3	0	0	0	7	5
100212	19:23:12	10024	Trial3BackFrS	NNS	18	0	1000	1	119	19:23:12	3840455	5	3	3	3	3	3	3	3	3	6	5	3	0	0	0	7	5
100212	19:23:12	10024	Trial3BackFrS	NNS	18	57	818	0	119	19:23:12	3841801	5	3	3	3	3	3	3	3	3	6	5	3	0	0	0	7	5
100212	19:23:12	10024	Trial3BackFrS	NNS	18	0	1000	1	119	19:23:12	3843480	5	3	3	3	3	3	3	3	3	6	5	3	0	0	0	7	5
100212	19:23:12	10024	Trial3BackFrS	NNS	18	0	1000	1	119	19:23:12	3845000	5	3	3	3	3	3	3	3	3	6	5	3	0	0	0	7	5
100212	19:23:12	10024	Trial3BackFrS	YYS	18	57	577	1	119	19:23:12	3846106	5	3	3	3	3	3	3	3	3	6	5	3	0	0	0	7	5
100212	19:23:12	10024	Trial3BackFrS	NNS	18	0	1000	1	119	19:23:12	3848025	5	3	3	3	3	3	3	3	3	6	5	3	0	0	0	7	5
100212	19:23:12	10024	Trial3BackFrS	NNS	18	0	1000	1	119	19:23:12	3849545	5	3	3	3	3	3	3	3	3	6	5	3	0	0	0	7	5
100212	19:23:12	10024	Trial3BackFrS	NNS	18	0	1000	1	119	19:23:12	3851064	5	3	3	3	3	3	3	3	3	6	5	3	0	0	0	7	5
100212	19:23:12	10024	Trial3BackFrS	YYS	18	57	641	1	119	19:23:12	3852237	5	3	3	3	3	3	3	3	3	6	5	3	0	0	0	7	5
100212	19:23:12	10024	Trial3BackFrS	NNS	18	57	799	0	119	19:23:12	3853889	5	3	3	3	3	3	3	3	3	6	5	3	0	0	0	7	5
