date	time	subject	blockcode	trialcode	values.TaskNumber	response	latency	correct	values.Score	script.starttime	script.elapsedtime	values.ScoreS7	values.Word1	values.Word2	values.Word3	values.Word4	values.Word5	values.Word6	values.Word7	values.Word8	values.DigitSpanFwrd	values.DigitSpanBack	values.ScoreAbs	values.Contour	values.Numbers	values.Hands	values.corsiblockspanFwrd	values.corsiblockspanRev	values.problemnumber	values.subjectattempts	values.targetmoves	values.subjectmoves	expressions.excessmoves	values.movestring	expressions.targetachieved	values.problemscore	values.totalscoreL	expressions.firstmovetime	expressions.executiontime	expressions.solutiontime	values.t_choicestart	values.t_choiceend
121412	12:07:01	1	Language	Language	0	French	12037	0	0	12:07:01	12115	0	0	0	0	0	0	0	0	0	0	0	0	0	0	0	0	0	0	0	0	0	0		1	0	0	0	0	0	0	0
121412	12:07:01	1	Session	Session	0	3mo	1637	0	0	12:07:01	13808	0	0	0	0	0	0	0	0	0	0	0	0	0	0	0	0	0	0	0	0	0	0		1	0	0	0	0	0	0	0
121412	12:07:01	1	HandFr	HandFr	0	RightFr	2541	0	0	12:07:01	16407	0	0	0	0	0	0	0	0	0	0	0	0	0	0	0	0	0	0	0	0	0	0		1	0	0	0	0	0	0	0
121412	12:07:01	1	AudioCheckFr	WordsFr	0	0	0	0	0	12:07:01	27812	0	0	0	0	0	0	0	0	0	0	0	0	0	0	0	0	0	0	0	0	0	0		1	0	0	0	0	0	0	0
121412	12:07:01	1	practice	choice	0	R	5800	0	0	12:07:01	86794	0	0	0	0	0	0	0	0	0	0	0	0	0	0	0	0	0	0	1	2	0	-2	R	0	0	0	5901	0	0	80893	86794
121412	12:07:01	1	practice	choice	0	B	735	0	0	12:07:01	88715	0	0	0	0	0	0	0	0	0	0	0	0	0	0	0	0	0	0	1	2	1	-1	R3B	0	0	0	5901	0	0	87955	88714
121412	12:07:01	1	practice	feedback	0	0	2000	0	0	12:07:01	91878	0	0	0	0	0	0	0	0	0	0	0	0	0	0	0	0	0	0	1	2	2	0	R3B1	1	3	3	5901	3073	8974	87955	88714
121412	12:07:01	1	test	choice	0	R	2447	0	0	12:07:01	107186	0	0	0	0	0	0	0	0	0	0	0	0	0	0	0	0	0	1	1	2	0	-2	R	0	0	0	2497	0	0	104689	107186
121412	12:07:01	1	test	choice	0	G	1023	0	0	12:07:01	109561	0	0	0	0	0	0	0	0	0	0	0	0	0	0	0	0	0	1	1	2	1	-1	R3G	0	0	0	2497	0	0	108522	109561
121412	12:07:01	1	test	feedback	0	0	2000	0	0	12:07:01	116165	0	0	0	0	0	0	0	0	0	0	0	0	0	0	0	0	0	1	1	2	2	0	R3G2	1	3	3	2497	6968	9465	108522	109561
121412	12:07:01	1	test	choice	0	B	23771	0	0	12:07:01	140976	0	0	0	0	0	0	0	0	0	0	0	0	0	0	0	0	0	2	1	2	0	-2	B	0	0	3	23805	0	0	117171	140976
121412	12:07:01	1	test	choice	0	R	1412	0	0	12:07:01	144536	0	0	0	0	0	0	0	0	0	0	0	0	0	0	0	0	0	2	1	2	1	-1	B3R	0	0	3	23805	0	0	143104	144536
121412	12:07:01	1	test	feedback	0	0	2000	0	0	12:07:01	148026	0	0	0	0	0	0	0	0	0	0	0	0	0	0	0	0	0	2	1	2	2	0	B3R2	1	3	6	23805	5040	28845	143104	144536
121412	12:07:01	1	test	choice	0	B	2966	0	0	12:07:01	152023	0	0	0	0	0	0	0	0	0	0	0	0	0	0	0	0	0	3	1	3	0	-3	B	0	0	6	2994	0	0	149029	152023
121412	12:07:01	1	test	choice	0	R	1038	0	0	12:07:01	154215	0	0	0	0	0	0	0	0	0	0	0	0	0	0	0	0	0	3	1	3	1	-2	B3R	0	0	6	2994	0	0	153160	154215
121412	12:07:01	1	test	choice	0	B	725	0	0	12:07:01	156809	0	0	0	0	0	0	0	0	0	0	0	0	0	0	0	0	0	3	1	3	2	-1	B3R2B	0	0	6	2994	0	0	156057	156809
121412	12:07:01	1	test	feedback	0	0	2000	0	0	12:07:01	159827	0	0	0	0	0	0	0	0	0	0	0	0	0	0	0	0	0	3	1	3	3	0	B3R2B1	1	3	9	2994	5793	8787	156057	156809
121412	12:07:01	1	test	choice	0	R	7809	0	0	12:07:01	168679	0	0	0	0	0	0	0	0	0	0	0	0	0	0	0	0	0	4	1	3	0	-3	R	0	0	9	7848	0	0	160831	168678
121412	12:07:01	1	test	choice	0	B	711	0	0	12:07:01	171367	0	0	0	0	0	0	0	0	0	0	0	0	0	0	0	0	0	4	1	3	1	-2	R3B	0	0	9	7848	0	0	170631	171367
121412	12:07:01	1	test	choice	0	R	1143	0	0	12:07:01	173359	0	0	0	0	0	0	0	0	0	0	0	0	0	0	0	0	0	4	1	3	2	-1	R3B1R	0	0	9	7848	0	0	172195	173359
121412	12:07:01	1	test	choice	0	B	746	0	0	12:07:01	175055	0	0	0	0	0	0	0	0	0	0	0	0	0	0	0	0	0	4	1	3	3	0	R3B1R2B	0	0	9	7848	0	0	174287	175055
121412	12:07:01	1	test	feedback	0	0	2000	0	0	12:07:01	177856	0	0	0	0	0	0	0	0	0	0	0	0	0	0	0	0	0	4	1	3	4	1	R3B1R2B2	1	0	9	7848	7166	15014	174287	175055
121412	12:07:01	1	test	choice	0	B	5071	0	0	12:07:01	183954	0	0	0	0	0	0	0	0	0	0	0	0	0	0	0	0	0	4	2	3	0	-3	B	0	0	9	5094	0	0	178860	183954
121412	12:07:01	1	test	choice	0	R	910	0	0	12:07:01	185966	0	0	0	0	0	0	0	0	0	0	0	0	0	0	0	0	0	4	2	3	1	-2	B3R	0	0	9	5094	0	0	185039	185966
121412	12:07:01	1	test	choice	0	B	746	0	0	12:07:01	187709	0	0	0	0	0	0	0	0	0	0	0	0	0	0	0	0	0	4	2	3	2	-1	B3R2B	0	0	9	5094	0	0	186949	187708
121412	12:07:01	1	test	feedback	0	0	2000	0	0	12:07:01	190689	0	0	0	0	0	0	0	0	0	0	0	0	0	0	0	0	0	4	2	3	3	0	B3R2B2	1	2	11	5094	4724	9818	186949	187708
121412	12:07:01	1	test	choice	0	R	4582	0	0	12:07:01	196318	0	0	0	0	0	0	0	0	0	0	0	0	0	0	0	0	0	5	1	4	0	-4	R	0	0	11	4617	0	0	191700	196317
121412	12:07:01	1	test	choice	0	G	953	0	0	12:07:01	198543	0	0	0	0	0	0	0	0	0	0	0	0	0	0	0	0	0	5	1	4	1	-3	R3G	0	0	11	4617	0	0	197574	198543
121412	12:07:01	1	test	choice	0	R	1001	0	0	12:07:01	200430	0	0	0	0	0	0	0	0	0	0	0	0	0	0	0	0	0	5	1	4	2	-2	R3G2R	0	0	11	4617	0	0	199414	200430
121412	12:07:01	1	test	choice	0	G	1083	0	0	12:07:01	202525	0	0	0	0	0	0	0	0	0	0	0	0	0	0	0	0	0	5	1	4	3	-1	R3G2R1G	0	0	11	4617	0	0	201422	202525
121412	12:07:01	1	test	feedback	0	0	2000	0	0	12:07:01	205464	0	0	0	0	0	0	0	0	0	0	0	0	0	0	0	0	0	5	1	4	4	0	R3G2R1G1	1	3	14	4617	7137	11754	201422	202525
121412	12:07:01	1	test	choice	0	R	11070	0	0	12:07:01	217565	0	0	0	0	0	0	0	0	0	0	0	0	0	0	0	0	0	6	1	4	0	-4	R	0	0	14	11097	0	0	206468	217565
121412	12:07:01	1	test	choice	0	R	5632	0	0	12:07:01	224940	0	0	0	0	0	0	0	0	0	0	0	0	0	0	0	0	0	6	1	4	1	-3	R3R	0	0	14	11097	0	0	219285	224940
121412	12:07:01	1	test	choice	0	B	1087	0	0	12:07:01	227156	0	0	0	0	0	0	0	0	0	0	0	0	0	0	0	0	0	6	1	4	2	-2	R3R1B	0	0	14	11097	0	0	226045	227155
121412	12:07:01	1	test	choice	0	R	1019	0	0	12:07:01	229060	0	0	0	0	0	0	0	0	0	0	0	0	0	0	0	0	0	6	1	4	3	-1	R3R1B3R	0	0	14	11097	0	0	228021	229060
121412	12:07:01	1	test	choice	0	G	969	0	0	12:07:01	231050	0	0	0	0	0	0	0	0	0	0	0	0	0	0	0	0	0	6	1	4	4	0	R3R1B3R2G	0	0	14	11097	0	0	230060	231050
121412	12:07:01	1	test	choice	0	B	1032	0	0	12:07:01	233340	0	0	0	0	0	0	0	0	0	0	0	0	0	0	0	0	0	6	1	4	5	1	R3R1B3R2G2B	0	0	14	11097	0	0	232284	233340
121412	12:07:01	1	test	feedback	0	0	2000	0	0	12:07:01	236512	0	0	0	0	0	0	0	0	0	0	0	0	0	0	0	0	0	6	1	4	6	2	R3R1B3R2G2B1	1	0	14	11097	16935	28032	232284	233340
121412	12:07:01	1	test	choice	0	B	6909	0	0	12:07:01	244443	0	0	0	0	0	0	0	0	0	0	0	0	0	0	0	0	0	6	2	4	0	-4	B	0	0	14	6926	0	0	237517	244443
121412	12:07:01	1	test	choice	0	R	1133	0	0	12:07:01	247067	0	0	0	0	0	0	0	0	0	0	0	0	0	0	0	0	0	6	2	4	1	-3	B3R	0	0	14	6926	0	0	245916	247067
121412	12:07:01	1	test	choice	0	G	720	0	0	12:07:01	248707	0	0	0	0	0	0	0	0	0	0	0	0	0	0	0	0	0	6	2	4	2	-2	B3R2G	0	0	14	6926	0	0	247972	248707
121412	12:07:01	1	test	choice	0	B	925	0	0	12:07:01	250699	0	0	0	0	0	0	0	0	0	0	0	0	0	0	0	0	0	6	2	4	3	-1	B3R2G2B	0	0	14	6926	0	0	249748	250699
121412	12:07:01	1	test	feedback	0	0	2000	0	0	12:07:01	253600	0	0	0	0	0	0	0	0	0	0	0	0	0	0	0	0	0	6	2	4	4	0	B3R2G2B1	1	2	16	6926	7146	14072	249748	250699
121412	12:07:01	1	test	choice	0	R	11026	0	0	12:07:01	265666	0	0	0	0	0	0	0	0	0	0	0	0	0	0	0	0	0	7	1	4	0	-4	R	0	0	16	11059	0	0	254607	265666
121412	12:07:01	1	test	choice	0	G	1215	0	0	12:07:01	267842	0	0	0	0	0	0	0	0	0	0	0	0	0	0	0	0	0	7	1	4	1	-3	R2G	0	0	16	11059	0	0	266611	267842
121412	12:07:01	1	test	choice	0	R	691	0	0	12:07:01	269464	0	0	0	0	0	0	0	0	0	0	0	0	0	0	0	0	0	7	1	4	2	-2	R2G3R	0	0	16	11059	0	0	268747	269464
121412	12:07:01	1	test	choice	0	B	760	0	0	12:07:01	270986	0	0	0	0	0	0	0	0	0	0	0	0	0	0	0	0	0	7	1	4	3	-1	R2G3R1B	0	0	16	11059	0	0	270211	270986
121412	12:07:01	1	test	feedback	0	0	2000	0	0	12:07:01	273769	0	0	0	0	0	0	0	0	0	0	0	0	0	0	0	0	0	7	1	4	4	0	R2G3R1B1	1	3	19	11059	6093	17152	270211	270986
121412	12:07:01	1	test	choice	0	background	4846	1	0	12:07:01	279659	0	0	0	0	0	0	0	0	0	0	0	0	0	0	0	0	0	8	1	4	0	-4	background	0	0	19	4885	0	0	274774	279658
