date	time	subject	blockcode	trialcode	values.TaskNumber	response	latency	correct	values.Score	script.starttime	script.elapsedtime	values.ScoreS7	values.Word1	values.Word2	values.Word3	values.Word4	values.Word5	values.Word6	values.Word7	values.Word8	values.DigitSpanFwrd	values.DigitSpanBack	values.ScoreAbs	values.Contour	values.Numbers	values.Hands	values.corsiblockspanFwrd	values.corsiblockspanRev
100912	17:32:08	10022	Language	Language	0	French	1735	0	0	17:32:08	2035	0	0	0	0	0	0	0	0	0	0	0	0	0	0	0	0	0
100912	17:32:08	10022	Session	Session	0	3mo	617	0	0	17:32:08	2737	0	0	0	0	0	0	0	0	0	0	0	0	0	0	0	0	0
100912	17:32:08	10022	HandFr	HandFr	0	RightFr	1284436	0	0	17:32:08	1287256	0	0	0	0	0	0	0	0	0	0	0	0	0	0	0	0	0
100912	17:32:08	10022	AudioCheckFr	WordsFr	0	0	0	0	0	17:32:08	1598431	0	0	0	0	0	0	0	0	0	0	0	0	0	0	0	0	0
100912	17:32:08	10022	CubeFr	CubeFr	1	1Cube	17489	0	0	17:32:08	1617682	0	0	0	0	0	0	0	0	0	0	0	0	0	0	0	0	0
100912	17:32:08	10022	pm.simpleFrRight	blank.simpleFr	2	0	1887	1	0	17:32:08	1645138	0	0	0	0	0	0	0	0	0	0	0	0	0	0	0	0	0
100912	17:32:08	10022	pm.simpleFrRight	pm.simpleFr	2	57	5906	0	0	17:32:08	1651082	0	0	0	0	0	0	0	0	0	0	0	0	0	0	0	0	0
100912	17:32:08	10022	pm.simpleFrRight	blank.simpleFr	2	0	2187	1	0	17:32:08	1653294	0	0	0	0	0	0	0	0	0	0	0	0	0	0	0	0	0
100912	17:32:08	10022	pm.simpleFrRight	pm.simpleFr	2	57	357	0	0	17:32:08	1653694	0	0	0	0	0	0	0	0	0	0	0	0	0	0	0	0	0
100912	17:32:08	10022	pm.simpleFrRight	blank.simpleFr	2	0	2287	1	0	17:32:08	1656013	0	0	0	0	0	0	0	0	0	0	0	0	0	0	0	0	0
100912	17:32:08	10022	pm.simpleFrRight	pm.simpleFr	2	57	294	0	0	17:32:08	1656346	0	0	0	0	0	0	0	0	0	0	0	0	0	0	0	0	0
100912	17:32:08	10022	pm.simpleFrRight	blank.simpleFr	2	0	2087	1	0	17:32:08	1658466	0	0	0	0	0	0	0	0	0	0	0	0	0	0	0	0	0
100912	17:32:08	10022	pm.simpleFrRight	pm.simpleFr	2	57	306	0	0	17:32:08	1658812	0	0	0	0	0	0	0	0	0	0	0	0	0	0	0	0	0
100912	17:32:08	10022	pm.simpleFrRight	blank.simpleFr	2	0	1487	1	0	17:32:08	1660318	0	0	0	0	0	0	0	0	0	0	0	0	0	0	0	0	0
100912	17:32:08	10022	pm.simpleFrRight	pm.simpleFr	2	57	309	0	0	17:32:08	1660665	0	0	0	0	0	0	0	0	0	0	0	0	0	0	0	0	0
100912	17:32:08	10022	pm.simpleFrRight	blank.simpleFr	2	0	1787	1	0	17:32:08	1662478	0	0	0	0	0	0	0	0	0	0	0	0	0	0	0	0	0
100912	17:32:08	10022	pm.simpleFrRight	pm.simpleFr	2	57	310	0	0	17:32:08	1662824	0	0	0	0	0	0	0	0	0	0	0	0	0	0	0	0	0
100912	17:32:08	10022	pm.simpleFrRight	blank.simpleFr	2	0	2387	1	0	17:32:08	1665236	0	0	0	0	0	0	0	0	0	0	0	0	0	0	0	0	0
100912	17:32:08	10022	pm.simpleFrRight	pm.simpleFr	2	57	271	0	0	17:32:08	1665543	0	0	0	0	0	0	0	0	0	0	0	0	0	0	0	0	0
100912	17:32:08	10022	pm.simpleFrRight	blank.simpleFr	2	0	1987	1	0	17:32:08	1667555	0	0	0	0	0	0	0	0	0	0	0	0	0	0	0	0	0
100912	17:32:08	10022	pm.simpleFrRight	pm.simpleFr	2	57	418	0	0	17:32:08	1668008	0	0	0	0	0	0	0	0	0	0	0	0	0	0	0	0	0
100912	17:32:08	10022	pm.simpleFrRight	blank.simpleFr	2	0	2487	1	0	17:32:08	1670528	0	0	0	0	0	0	0	0	0	0	0	0	0	0	0	0	0
100912	17:32:08	10022	pm.simpleFrRight	pm.simpleFr	2	57	388	0	0	17:32:08	1670954	0	0	0	0	0	0	0	0	0	0	0	0	0	0	0	0	0
100912	17:32:08	10022	pm.simpleFrRight	blank.simpleFr	2	0	1687	1	0	17:32:08	1672673	0	0	0	0	0	0	0	0	0	0	0	0	0	0	0	0	0
100912	17:32:08	10022	pm.simpleFrRight	pm.simpleFr	2	57	370	0	0	17:32:08	1673073	0	0	0	0	0	0	0	0	0	0	0	0	0	0	0	0	0
100912	17:32:08	10022	pm.simpleFrRight	blank.simpleFr	2	0	1587	1	0	17:32:08	1674686	0	0	0	0	0	0	0	0	0	0	0	0	0	0	0	0	0
100912	17:32:08	10022	pm.simpleFrRight	pm.simpleFr	2	57	437	0	0	17:32:08	1675166	0	0	0	0	0	0	0	0	0	0	0	0	0	0	0	0	0
100912	17:32:08	10022	pm.simpleFrRight	blank.simpleFr	2	0	2487	1	0	17:32:08	1677684	0	0	0	0	0	0	0	0	0	0	0	0	0	0	0	0	0
100912	17:32:08	10022	pm.simpleFrRight	pm.simpleFr	2	57	319	0	0	17:32:08	1678044	0	0	0	0	0	0	0	0	0	0	0	0	0	0	0	0	0
100912	17:32:08	10022	pm.simpleFrRight	blank.simpleFr	2	0	1687	1	0	17:32:08	1679764	0	0	0	0	0	0	0	0	0	0	0	0	0	0	0	0	0
100912	17:32:08	10022	pm.simpleFrRight	pm.simpleFr	2	57	399	0	0	17:32:08	1680204	0	0	0	0	0	0	0	0	0	0	0	0	0	0	0	0	0
100912	17:32:08	10022	pm.simpleFrRight	blank.simpleFr	2	0	1587	1	0	17:32:08	1681816	0	0	0	0	0	0	0	0	0	0	0	0	0	0	0	0	0
100912	17:32:08	10022	pm.simpleFrRight	pm.simpleFr	2	57	267	0	0	17:32:08	1682123	0	0	0	0	0	0	0	0	0	0	0	0	0	0	0	0	0
100912	17:32:08	10022	pm.simpleFrRight	blank.simpleFr	2	0	1487	1	0	17:32:08	1683629	0	0	0	0	0	0	0	0	0	0	0	0	0	0	0	0	0
100912	17:32:08	10022	pm.simpleFrRight	pm.simpleFr	2	57	550	0	0	17:32:08	1684215	0	0	0	0	0	0	0	0	0	0	0	0	0	0	0	0	0
100912	17:32:08	10022	pm.simpleFrRight	blank.simpleFr	2	0	1987	1	0	17:32:08	1686228	0	0	0	0	0	0	0	0	0	0	0	0	0	0	0	0	0
100912	17:32:08	10022	pm.simpleFrRight	pm.simpleFr	2	57	287	0	0	17:32:08	1686548	0	0	0	0	0	0	0	0	0	0	0	0	0	0	0	0	0
100912	17:32:08	10022	pm.simpleFrRight	blank.simpleFr	2	0	2387	1	0	17:32:08	1688960	0	0	0	0	0	0	0	0	0	0	0	0	0	0	0	0	0
100912	17:32:08	10022	pm.simpleFrRight	pm.simpleFr	2	57	291	0	0	17:32:08	1689293	0	0	0	0	0	0	0	0	0	0	0	0	0	0	0	0	0
100912	17:32:08	10022	pm.simpleFrRight	blank.simpleFr	2	0	2287	1	0	17:32:08	1691612	0	0	0	0	0	0	0	0	0	0	0	0	0	0	0	0	0
100912	17:32:08	10022	pm.simpleFrRight	pm.simpleFr	2	57	406	0	0	17:32:08	1692052	0	0	0	0	0	0	0	0	0	0	0	0	0	0	0	0	0
100912	17:32:08	10022	pm.simpleFrRight	blank.simpleFr	2	0	2187	1	0	17:32:08	1694265	0	0	0	0	0	0	0	0	0	0	0	0	0	0	0	0	0
100912	17:32:08	10022	pm.simpleFrRight	pm.simpleFr	2	57	266	0	0	17:32:08	1694571	0	0	0	0	0	0	0	0	0	0	0	0	0	0	0	0	0
100912	17:32:08	10022	pm.simpleFrRight	blank.simpleFr	2	0	2087	1	0	17:32:08	1696690	0	0	0	0	0	0	0	0	0	0	0	0	0	0	0	0	0
100912	17:32:08	10022	pm.simpleFrRight	pm.simpleFr	2	57	304	0	0	17:32:08	1697037	0	0	0	0	0	0	0	0	0	0	0	0	0	0	0	0	0
100912	17:32:08	10022	pm.simpleFrRight	blank.simpleFr	2	0	1787	1	0	17:32:08	1698849	0	0	0	0	0	0	0	0	0	0	0	0	0	0	0	0	0
100912	17:32:08	10022	pm.simpleFrRight	pm.simpleFr	2	57	417	0	0	17:32:08	1699303	0	0	0	0	0	0	0	0	0	0	0	0	0	0	0	0	0
100912	17:32:08	10022	pm.simpleFrRight	blank.simpleFr	2	0	1887	1	0	17:32:08	1701222	0	0	0	0	0	0	0	0	0	0	0	0	0	0	0	0	0
100912	17:32:08	10022	pm.simpleFrRight	pm.simpleFr	2	57	301	0	0	17:32:08	1701555	0	0	0	0	0	0	0	0	0	0	0	0	0	0	0	0	0
100912	17:32:08	10022	pm.simpleFrRight	blank.simpleFr	2	0	1787	1	0	17:32:08	1703368	0	0	0	0	0	0	0	0	0	0	0	0	0	0	0	0	0
100912	17:32:08	10022	pm.simpleFrRight	pm.simpleFr	2	57	315	0	0	17:32:08	1703714	0	0	0	0	0	0	0	0	0	0	0	0	0	0	0	0	0
100912	17:32:08	10022	pm.simpleFrRight	blank.simpleFr	2	0	2287	1	0	17:32:08	1706033	0	0	0	0	0	0	0	0	0	0	0	0	0	0	0	0	0
100912	17:32:08	10022	pm.simpleFrRight	pm.simpleFr	2	57	257	0	0	17:32:08	1706327	0	0	0	0	0	0	0	0	0	0	0	0	0	0	0	0	0
100912	17:32:08	10022	pm.simpleFrRight	blank.simpleFr	2	0	2087	1	0	17:32:08	1708446	0	0	0	0	0	0	0	0	0	0	0	0	0	0	0	0	0
100912	17:32:08	10022	pm.simpleFrRight	pm.simpleFr	2	57	293	0	0	17:32:08	1708779	0	0	0	0	0	0	0	0	0	0	0	0	0	0	0	0	0
100912	17:32:08	10022	pm.simpleFrRight	blank.simpleFr	2	0	1487	1	0	17:32:08	1710298	0	0	0	0	0	0	0	0	0	0	0	0	0	0	0	0	0
100912	17:32:08	10022	pm.simpleFrRight	pm.simpleFr	2	57	344	0	0	17:32:08	1710685	0	0	0	0	0	0	0	0	0	0	0	0	0	0	0	0	0
100912	17:32:08	10022	pm.simpleFrRight	blank.simpleFr	2	0	2187	1	0	17:32:08	1712897	0	0	0	0	0	0	0	0	0	0	0	0	0	0	0	0	0
100912	17:32:08	10022	pm.simpleFrRight	pm.simpleFr	2	57	289	0	0	17:32:08	1713217	0	0	0	0	0	0	0	0	0	0	0	0	0	0	0	0	0
100912	17:32:08	10022	pm.simpleFrRight	blank.simpleFr	2	0	2387	1	0	17:32:08	1715629	0	0	0	0	0	0	0	0	0	0	0	0	0	0	0	0	0
100912	17:32:08	10022	pm.simpleFrRight	pm.simpleFr	2	57	277	0	0	17:32:08	1715936	0	0	0	0	0	0	0	0	0	0	0	0	0	0	0	0	0
100912	17:32:08	10022	pm.simpleFrRight	blank.simpleFr	2	0	2487	1	0	17:32:08	1718455	0	0	0	0	0	0	0	0	0	0	0	0	0	0	0	0	0
100912	17:32:08	10022	pm.simpleFrRight	pm.simpleFr	2	57	315	0	0	17:32:08	1718801	0	0	0	0	0	0	0	0	0	0	0	0	0	0	0	0	0
100912	17:32:08	10022	pm.simpleFrRight	blank.simpleFr	2	0	1887	1	0	17:32:08	1720721	0	0	0	0	0	0	0	0	0	0	0	0	0	0	0	0	0
100912	17:32:08	10022	pm.simpleFrRight	pm.simpleFr	2	57	337	0	0	17:32:08	1721094	0	0	0	0	0	0	0	0	0	0	0	0	0	0	0	0	0
100912	17:32:08	10022	pm.simpleFrRight	blank.simpleFr	2	0	1587	1	0	17:32:08	1722706	0	0	0	0	0	0	0	0	0	0	0	0	0	0	0	0	0
100912	17:32:08	10022	pm.simpleFrRight	pm.simpleFr	2	57	272	0	0	17:32:08	1723013	0	0	0	0	0	0	0	0	0	0	0	0	0	0	0	0	0
100912	17:32:08	10022	pm.simpleFrRight	blank.simpleFr	2	0	1687	1	0	17:32:08	1724732	0	0	0	0	0	0	0	0	0	0	0	0	0	0	0	0	0
100912	17:32:08	10022	pm.simpleFrRight	pm.simpleFr	2	57	342	0	0	17:32:08	1725105	0	0	0	0	0	0	0	0	0	0	0	0	0	0	0	0	0
100912	17:32:08	10022	pm.simpleFrRight	blank.simpleFr	2	0	1987	1	0	17:32:08	1727118	0	0	0	0	0	0	0	0	0	0	0	0	0	0	0	0	0
100912	17:32:08	10022	pm.simpleFrRight	pm.simpleFr	2	57	308	0	0	17:32:08	1727465	0	0	0	0	0	0	0	0	0	0	0	0	0	0	0	0	0
100912	17:32:08	10022	pm.simpleFrRight	blank.simpleFr	2	0	2387	1	0	17:32:08	1729877	0	0	0	0	0	0	0	0	0	0	0	0	0	0	0	0	0
100912	17:32:08	10022	pm.simpleFrRight	pm.simpleFr	2	57	317	0	0	17:32:08	1730224	0	0	0	0	0	0	0	0	0	0	0	0	0	0	0	0	0
100912	17:32:08	10022	pm.simpleFrRight	blank.simpleFr	2	0	2187	1	0	17:32:08	1732436	0	0	0	0	0	0	0	0	0	0	0	0	0	0	0	0	0
100912	17:32:08	10022	pm.simpleFrRight	pm.simpleFr	2	57	301	0	0	17:32:08	1732769	0	0	0	0	0	0	0	0	0	0	0	0	0	0	0	0	0
100912	17:32:08	10022	pm.simpleFrRight	blank.simpleFr	2	0	1987	1	0	17:32:08	1734782	0	0	0	0	0	0	0	0	0	0	0	0	0	0	0	0	0
100912	17:32:08	10022	pm.simpleFrRight	pm.simpleFr	2	57	308	0	0	17:32:08	1735128	0	0	0	0	0	0	0	0	0	0	0	0	0	0	0	0	0
100912	17:32:08	10022	pm.simpleFrRight	blank.simpleFr	2	0	1487	1	0	17:32:08	1736648	0	0	0	0	0	0	0	0	0	0	0	0	0	0	0	0	0
100912	17:32:08	10022	pm.simpleFrRight	pm.simpleFr	2	57	394	0	0	17:32:08	1737074	0	0	0	0	0	0	0	0	0	0	0	0	0	0	0	0	0
100912	17:32:08	10022	pm.simpleFrRight	blank.simpleFr	2	0	1587	1	0	17:32:08	1738687	0	0	0	0	0	0	0	0	0	0	0	0	0	0	0	0	0
100912	17:32:08	10022	pm.simpleFrRight	pm.simpleFr	2	57	387	0	0	17:32:08	1739113	0	0	0	0	0	0	0	0	0	0	0	0	0	0	0	0	0
100912	17:32:08	10022	pm.simpleFrRight	blank.simpleFr	2	0	1887	1	0	17:32:08	1741032	0	0	0	0	0	0	0	0	0	0	0	0	0	0	0	0	0
100912	17:32:08	10022	pm.simpleFrRight	pm.simpleFr	2	57	281	0	0	17:32:08	1741352	0	0	0	0	0	0	0	0	0	0	0	0	0	0	0	0	0
100912	17:32:08	10022	pm.simpleFrRight	blank.simpleFr	2	0	2487	1	0	17:32:08	1743871	0	0	0	0	0	0	0	0	0	0	0	0	0	0	0	0	0
100912	17:32:08	10022	pm.simpleFrRight	pm.simpleFr	2	57	258	0	0	17:32:08	1744165	0	0	0	0	0	0	0	0	0	0	0	0	0	0	0	0	0
100912	17:32:08	10022	Trial2BackFr	N	3	0	1000	1	1	17:32:08	1809885	0	0	0	0	0	0	0	0	0	0	0	0	0	0	0	0	0
100912	17:32:08	10022	Trial2BackFr	N	3	0	1000	1	2	17:32:08	1811404	0	0	0	0	0	0	0	0	0	0	0	0	0	0	0	0	0
100912	17:32:08	10022	Trial2BackFr	N	3	0	1000	1	3	17:32:08	1812923	0	0	0	0	0	0	0	0	0	0	0	0	0	0	0	0	0
100912	17:32:08	10022	Trial2BackFr	N	3	0	1000	1	4	17:32:08	1814443	0	0	0	0	0	0	0	0	0	0	0	0	0	0	0	0	0
100912	17:32:08	10022	Trial2BackFr	N	3	0	1000	1	5	17:32:08	1815962	0	0	0	0	0	0	0	0	0	0	0	0	0	0	0	0	0
100912	17:32:08	10022	Trial2BackFr	N	3	0	1000	1	6	17:32:08	1817482	0	0	0	0	0	0	0	0	0	0	0	0	0	0	0	0	0
100912	17:32:08	10022	Trial2BackFr	N	3	0	1000	1	7	17:32:08	1819001	0	0	0	0	0	0	0	0	0	0	0	0	0	0	0	0	0
100912	17:32:08	10022	Trial2BackFr	N	3	0	1000	1	8	17:32:08	1820520	0	0	0	0	0	0	0	0	0	0	0	0	0	0	0	0	0
100912	17:32:08	10022	Trial2BackFr	Y	3	0	1000	0	8	17:32:08	1822040	0	0	0	0	0	0	0	0	0	0	0	0	0	0	0	0	0
100912	17:32:08	10022	Trial2BackFr	N	3	0	1000	1	9	17:32:08	1823559	0	0	0	0	0	0	0	0	0	0	0	0	0	0	0	0	0
100912	17:32:08	10022	Trial2BackFr	N	3	0	1000	1	10	17:32:08	1825078	0	0	0	0	0	0	0	0	0	0	0	0	0	0	0	0	0
100912	17:32:08	10022	Trial2BackFr	N	3	0	1000	1	11	17:32:08	1826598	0	0	0	0	0	0	0	0	0	0	0	0	0	0	0	0	0
100912	17:32:08	10022	Trial2BackFr	Y	3	57	574	1	12	17:32:08	1827704	0	0	0	0	0	0	0	0	0	0	0	0	0	0	0	0	0
100912	17:32:08	10022	Trial2BackFr	N	3	0	1000	1	13	17:32:08	1829623	0	0	0	0	0	0	0	0	0	0	0	0	0	0	0	0	0
100912	17:32:08	10022	Trial2BackFr	N	3	0	1000	1	14	17:32:08	1831143	0	0	0	0	0	0	0	0	0	0	0	0	0	0	0	0	0
100912	17:32:08	10022	Trial2BackFr	N	3	0	1000	1	15	17:32:08	1832662	0	0	0	0	0	0	0	0	0	0	0	0	0	0	0	0	0
100912	17:32:08	10022	Trial2BackFr	N	3	0	1000	1	16	17:32:08	1834181	0	0	0	0	0	0	0	0	0	0	0	0	0	0	0	0	0
100912	17:32:08	10022	Trial2BackFr	N	3	0	1000	1	17	17:32:08	1835701	0	0	0	0	0	0	0	0	0	0	0	0	0	0	0	0	0
100912	17:32:08	10022	Trial2BackFr	Y	3	57	575	1	18	17:32:08	1836807	0	0	0	0	0	0	0	0	0	0	0	0	0	0	0	0	0
100912	17:32:08	10022	Trial2BackFr	N	3	0	1000	1	19	17:32:08	1838726	0	0	0	0	0	0	0	0	0	0	0	0	0	0	0	0	0
100912	17:32:08	10022	Trial2BackFr	N	3	0	1000	1	20	17:32:08	1840246	0	0	0	0	0	0	0	0	0	0	0	0	0	0	0	0	0
100912	17:32:08	10022	Trial2BackFr	N	3	0	1000	1	21	17:32:08	1841765	0	0	0	0	0	0	0	0	0	0	0	0	0	0	0	0	0
100912	17:32:08	10022	Trial2BackFr	N	3	0	1000	1	22	17:32:08	1843284	0	0	0	0	0	0	0	0	0	0	0	0	0	0	0	0	0
100912	17:32:08	10022	Trial2BackFr	Y	3	57	815	1	23	17:32:08	1844631	0	0	0	0	0	0	0	0	0	0	0	0	0	0	0	0	0
100912	17:32:08	10022	Trial2BackFr	N	3	0	1000	1	24	17:32:08	1846310	0	0	0	0	0	0	0	0	0	0	0	0	0	0	0	0	0
100912	17:32:08	10022	Trial2BackFr	N	3	0	1000	1	25	17:32:08	1847830	0	0	0	0	0	0	0	0	0	0	0	0	0	0	0	0	0
100912	17:32:08	10022	Trial2BackFr	N	3	0	1000	1	26	17:32:08	1849349	0	0	0	0	0	0	0	0	0	0	0	0	0	0	0	0	0
100912	17:32:08	10022	Trial2BackFr	N	3	0	1000	1	27	17:32:08	1850868	0	0	0	0	0	0	0	0	0	0	0	0	0	0	0	0	0
100912	17:32:08	10022	Trial2BackFr	N	3	0	1000	1	28	17:32:08	1852387	0	0	0	0	0	0	0	0	0	0	0	0	0	0	0	0	0
100912	17:32:08	10022	Trial2BackFr	N	3	0	1000	1	29	17:32:08	1853907	0	0	0	0	0	0	0	0	0	0	0	0	0	0	0	0	0
100912	17:32:08	10022	Trial2BackFr	Y	3	57	801	1	30	17:32:08	1855240	0	0	0	0	0	0	0	0	0	0	0	0	0	0	0	0	0
100912	17:32:08	10022	Trial2BackFr	N	3	0	1000	1	31	17:32:08	1856932	0	0	0	0	0	0	0	0	0	0	0	0	0	0	0	0	0
100912	17:32:08	10022	Trial2BackFr	N	3	0	1000	1	32	17:32:08	1858452	0	0	0	0	0	0	0	0	0	0	0	0	0	0	0	0	0
100912	17:32:08	10022	Trial2BackFr	N	3	0	1000	1	33	17:32:08	1859984	0	0	0	0	0	0	0	0	0	0	0	0	0	0	0	0	0
100912	17:32:08	10022	Trial2BackFr	Y	3	57	659	1	34	17:32:08	1861171	0	0	0	0	0	0	0	0	0	0	0	0	0	0	0	0	0
100912	17:32:08	10022	Trial2BackFr	N	3	0	1000	1	35	17:32:08	1863010	0	0	0	0	0	0	0	0	0	0	0	0	0	0	0	0	0
100912	17:32:08	10022	Trial2BackFr	N	3	0	1000	1	36	17:32:08	1864529	0	0	0	0	0	0	0	0	0	0	0	0	0	0	0	0	0
100912	17:32:08	10022	Trial2BackFr	N	3	0	1000	1	37	17:32:08	1866049	0	0	0	0	0	0	0	0	0	0	0	0	0	0	0	0	0
100912	17:32:08	10022	Trial2BackFr	N	3	0	1000	1	38	17:32:08	1867568	0	0	0	0	0	0	0	0	0	0	0	0	0	0	0	0	0
100912	17:32:08	10022	Trial2BackFr	N	3	0	1000	1	39	17:32:08	1869087	0	0	0	0	0	0	0	0	0	0	0	0	0	0	0	0	0
100912	17:32:08	10022	Trial2BackFr	N	3	0	1000	1	40	17:32:08	1870607	0	0	0	0	0	0	0	0	0	0	0	0	0	0	0	0	0
100912	17:32:08	10022	Trial2BackFr	Y	3	0	1000	0	40	17:32:08	1872126	0	0	0	0	0	0	0	0	0	0	0	0	0	0	0	0	0
100912	17:32:08	10022	Trial2BackFr	N	3	0	1000	1	41	17:32:08	1873646	0	0	0	0	0	0	0	0	0	0	0	0	0	0	0	0	0
100912	17:32:08	10022	Trial2BackFr	N	3	0	1000	1	42	17:32:08	1875165	0	0	0	0	0	0	0	0	0	0	0	0	0	0	0	0	0
100912	17:32:08	10022	Trial2BackFr	N	3	0	1000	1	43	17:32:08	1876684	0	0	0	0	0	0	0	0	0	0	0	0	0	0	0	0	0
100912	17:32:08	10022	Trial2BackFr	N	3	0	1000	1	44	17:32:08	1878204	0	0	0	0	0	0	0	0	0	0	0	0	0	0	0	0	0
100912	17:32:08	10022	Trial2BackFr	Y	3	0	1000	0	44	17:32:08	1879723	0	0	0	0	0	0	0	0	0	0	0	0	0	0	0	0	0
100912	17:32:08	10022	Trial2BackFr	N	3	57	712	0	44	17:32:08	1880963	0	0	0	0	0	0	0	0	0	0	0	0	0	0	0	0	0
100912	17:32:08	10022	Trial2BackFr	N	3	0	1000	1	45	17:32:08	1882748	0	0	0	0	0	0	0	0	0	0	0	0	0	0	0	0	0
100912	17:32:08	10022	Trial2BackFr	N	3	0	1000	1	46	17:32:08	1884268	0	0	0	0	0	0	0	0	0	0	0	0	0	0	0	0	0
100912	17:32:08	10022	Trial2BackFr	N	3	0	1000	1	47	17:32:08	1885787	0	0	0	0	0	0	0	0	0	0	0	0	0	0	0	0	0
100912	17:32:08	10022	Trial2BackFr	N	3	0	1000	1	48	17:32:08	1887307	0	0	0	0	0	0	0	0	0	0	0	0	0	0	0	0	0
100912	17:32:08	10022	Trial2BackFr	Y	3	57	792	1	49	17:32:08	1888626	0	0	0	0	0	0	0	0	0	0	0	0	0	0	0	0	0
100912	17:32:08	10022	Trial2BackFr	N	3	0	1000	1	50	17:32:08	1890332	0	0	0	0	0	0	0	0	0	0	0	0	0	0	0	0	0
100912	17:32:08	10022	Trial2BackFr	N	3	0	1000	1	51	17:32:08	1891851	0	0	0	0	0	0	0	0	0	0	0	0	0	0	0	0	0
100912	17:32:08	10022	Trial2BackFr	N	3	0	1000	1	52	17:32:08	1893371	0	0	0	0	0	0	0	0	0	0	0	0	0	0	0	0	0
100912	17:32:08	10022	Trial2BackFr	N	3	0	1000	1	53	17:32:08	1894890	0	0	0	0	0	0	0	0	0	0	0	0	0	0	0	0	0
100912	17:32:08	10022	Trial2BackFr	N	3	0	1000	1	54	17:32:08	1896410	0	0	0	0	0	0	0	0	0	0	0	0	0	0	0	0	0
100912	17:32:08	10022	Trial2BackFr	N	3	0	1000	1	55	17:32:08	1897929	0	0	0	0	0	0	0	0	0	0	0	0	0	0	0	0	0
100912	17:32:08	10022	Trial2BackFr	Y	3	0	1000	0	55	17:32:08	1899448	0	0	0	0	0	0	0	0	0	0	0	0	0	0	0	0	0
100912	17:32:08	10022	Trial2BackFr	N	3	0	1000	1	56	17:32:08	1900968	0	0	0	0	0	0	0	0	0	0	0	0	0	0	0	0	0
100912	17:32:08	10022	Trial2BackFr	N	3	0	1000	1	57	17:32:08	1902487	0	0	0	0	0	0	0	0	0	0	0	0	0	0	0	0	0
100912	17:32:08	10022	Trial2BackFr	Y	3	0	1000	0	57	17:32:08	1904007	0	0	0	0	0	0	0	0	0	0	0	0	0	0	0	0	0
100912	17:32:08	10022	Trial2BackFr	N	3	0	1000	1	58	17:32:08	1905526	0	0	0	0	0	0	0	0	0	0	0	0	0	0	0	0	0
100912	17:32:08	10022	Trial2BackFr	N	3	0	1000	1	59	17:32:08	1907045	0	0	0	0	0	0	0	0	0	0	0	0	0	0	0	0	0
100912	17:32:08	10022	Trial2BackFr	N	3	0	1000	1	60	17:32:08	1908565	0	0	0	0	0	0	0	0	0	0	0	0	0	0	0	0	0
100912	17:32:08	10022	Trial2BackFr	N	3	0	1000	1	61	17:32:08	1910084	0	0	0	0	0	0	0	0	0	0	0	0	0	0	0	0	0
100912	17:32:08	10022	Trial2BackFr	N	3	0	1000	1	62	17:32:08	1911603	0	0	0	0	0	0	0	0	0	0	0	0	0	0	0	0	0
100912	17:32:08	10022	Trial2BackFr	N	3	0	1000	1	63	17:32:08	1913123	0	0	0	0	0	0	0	0	0	0	0	0	0	0	0	0	0
100912	17:32:08	10022	Trial2BackFr	N	3	0	1000	1	64	17:32:08	1914642	0	0	0	0	0	0	0	0	0	0	0	0	0	0	0	0	0
100912	17:32:08	10022	Trial2BackFr	N	3	0	1000	1	65	17:32:08	1916162	0	0	0	0	0	0	0	0	0	0	0	0	0	0	0	0	0
100912	17:32:08	10022	Trial2BackFr	N	3	57	705	0	65	17:32:08	1917401	0	0	0	0	0	0	0	0	0	0	0	0	0	0	0	0	0
100912	17:32:08	10022	Trial2BackFr	N	3	0	1000	1	66	17:32:08	1919187	0	0	0	0	0	0	0	0	0	0	0	0	0	0	0	0	0
100912	17:32:08	10022	Trial2BackFr	Y	3	57	703	1	67	17:32:08	1920413	0	0	0	0	0	0	0	0	0	0	0	0	0	0	0	0	0
100912	17:32:08	10022	Trial2BackFr	N	3	0	1000	1	68	17:32:08	1922213	0	0	0	0	0	0	0	0	0	0	0	0	0	0	0	0	0
100912	17:32:08	10022	Trial2BackFr	N	3	0	1000	1	69	17:32:08	1923732	0	0	0	0	0	0	0	0	0	0	0	0	0	0	0	0	0
100912	17:32:08	10022	Trial2BackFr	N	3	0	1000	1	70	17:32:08	1925251	0	0	0	0	0	0	0	0	0	0	0	0	0	0	0	0	0
100912	17:32:08	10022	Trial2BackFr	Y	3	57	638	1	71	17:32:08	1926424	0	0	0	0	0	0	0	0	0	0	0	0	0	0	0	0	0
100912	17:32:08	10022	Trial2BackFr	N	3	0	1000	1	72	17:32:08	1928277	0	0	0	0	0	0	0	0	0	0	0	0	0	0	0	0	0
100912	17:32:08	10022	Trial2BackFr	N	3	0	1000	1	73	17:32:08	1929796	0	0	0	0	0	0	0	0	0	0	0	0	0	0	0	0	0
100912	17:32:08	10022	Trial2BackFr	N	3	0	1000	1	74	17:32:08	1931316	0	0	0	0	0	0	0	0	0	0	0	0	0	0	0	0	0
100912	17:32:08	10022	Trial2BackFr	N	3	0	1000	1	75	17:32:08	1932835	0	0	0	0	0	0	0	0	0	0	0	0	0	0	0	0	0
100912	17:32:08	10022	Trial2BackFr	N	3	0	1000	1	76	17:32:08	1934354	0	0	0	0	0	0	0	0	0	0	0	0	0	0	0	0	0
100912	17:32:08	10022	Trial2BackFr	Y	3	57	879	1	77	17:32:08	1935767	0	0	0	0	0	0	0	0	0	0	0	0	0	0	0	0	0
100912	17:32:08	10022	Trial2BackFr	N	3	0	1000	1	78	17:32:08	1937380	0	0	0	0	0	0	0	0	0	0	0	0	0	0	0	0	0
100912	17:32:08	10022	Trial2BackFr	N	3	0	1000	1	79	17:32:08	1938899	0	0	0	0	0	0	0	0	0	0	0	0	0	0	0	0	0
100912	17:32:08	10022	Trial2BackFr	N	3	0	1000	1	80	17:32:08	1940418	0	0	0	0	0	0	0	0	0	0	0	0	0	0	0	0	0
100912	17:32:08	10022	Trial2BackFr	N	3	0	1000	1	81	17:32:08	1941938	0	0	0	0	0	0	0	0	0	0	0	0	0	0	0	0	0
100912	17:32:08	10022	Trial2BackFr	N	3	0	1000	1	82	17:32:08	1943457	0	0	0	0	0	0	0	0	0	0	0	0	0	0	0	0	0
100912	17:32:08	10022	Trial2BackFr	N	3	0	1000	1	83	17:32:08	1944977	0	0	0	0	0	0	0	0	0	0	0	0	0	0	0	0	0
100912	17:32:08	10022	Trial2BackFr	N	3	0	1000	1	84	17:32:08	1946496	0	0	0	0	0	0	0	0	0	0	0	0	0	0	0	0	0
100912	17:32:08	10022	Trial2BackFr	N	3	0	1000	1	85	17:32:08	1948015	0	0	0	0	0	0	0	0	0	0	0	0	0	0	0	0	0
100912	17:32:08	10022	Trial2BackFr	N	3	0	1000	1	86	17:32:08	1949535	0	0	0	0	0	0	0	0	0	0	0	0	0	0	0	0	0
100912	17:32:08	10022	Trial2BackFr	Y	3	57	691	1	87	17:32:08	1950747	0	0	0	0	0	0	0	0	0	0	0	0	0	0	0	0	0
100912	17:32:08	10022	Trial2BackFr	N	3	0	1000	1	88	17:32:08	1952560	0	0	0	0	0	0	0	0	0	0	0	0	0	0	0	0	0
100912	17:32:08	10022	Trial2BackFr	N	3	0	1000	1	89	17:32:08	1954079	0	0	0	0	0	0	0	0	0	0	0	0	0	0	0	0	0
100912	17:32:08	10022	Trial2BackFr	N	3	0	1000	1	90	17:32:08	1955599	0	0	0	0	0	0	0	0	0	0	0	0	0	0	0	0	0
100912	17:32:08	10022	Trial2BackFr	N	3	0	1000	1	91	17:32:08	1957118	0	0	0	0	0	0	0	0	0	0	0	0	0	0	0	0	0
100912	17:32:08	10022	Trial2BackFr	N	3	0	1000	1	92	17:32:08	1958638	0	0	0	0	0	0	0	0	0	0	0	0	0	0	0	0	0
100912	17:32:08	10022	Trial2BackFr	N	3	0	1000	1	93	17:32:08	1960157	0	0	0	0	0	0	0	0	0	0	0	0	0	0	0	0	0
100912	17:32:08	10022	Trial2BackFr	N	3	0	1000	1	94	17:32:08	1961677	0	0	0	0	0	0	0	0	0	0	0	0	0	0	0	0	0
100912	17:32:08	10022	Trial2BackFr	N	3	0	1000	1	95	17:32:08	1963196	0	0	0	0	0	0	0	0	0	0	0	0	0	0	0	0	0
100912	17:32:08	10022	Trial2BackFr	Y	3	57	581	1	96	17:32:08	1964302	0	0	0	0	0	0	0	0	0	0	0	0	0	0	0	0	0
100912	17:32:08	10022	Trial2BackFr	N	3	0	1000	1	97	17:32:08	1966221	0	0	0	0	0	0	0	0	0	0	0	0	0	0	0	0	0
100912	17:32:08	10022	Trial2BackFr	N	3	0	1000	1	98	17:32:08	1967741	0	0	0	0	0	0	0	0	0	0	0	0	0	0	0	0	0
100912	17:32:08	10022	Trial2BackFr	N	3	0	1000	1	99	17:32:08	1969260	0	0	0	0	0	0	0	0	0	0	0	0	0	0	0	0	0
100912	17:32:08	10022	Trial2BackFr	N	3	0	1000	1	100	17:32:08	1970780	0	0	0	0	0	0	0	0	0	0	0	0	0	0	0	0	0
100912	17:32:08	10022	Trial2BackFr	Y	3	57	693	1	101	17:32:08	1972006	0	0	0	0	0	0	0	0	0	0	0	0	0	0	0	0	0
100912	17:32:08	10022	Trial2BackFr	N	3	0	1000	1	102	17:32:08	1973805	0	0	0	0	0	0	0	0	0	0	0	0	0	0	0	0	0
100912	17:32:08	10022	Trial2BackFr	N	3	0	1000	1	103	17:32:08	1975324	0	0	0	0	0	0	0	0	0	0	0	0	0	0	0	0	0
100912	17:32:08	10022	Trial2BackFr	N	3	0	1000	1	104	17:32:08	1976844	0	0	0	0	0	0	0	0	0	0	0	0	0	0	0	0	0
100912	17:32:08	10022	Trial2BackFr	Y	3	57	613	1	105	17:32:08	1977990	0	0	0	0	0	0	0	0	0	0	0	0	0	0	0	0	0
100912	17:32:08	10022	Trial2BackFr	N	3	0	1000	1	106	17:32:08	1979869	0	0	0	0	0	0	0	0	0	0	0	0	0	0	0	0	0
100912	17:32:08	10022	Trial2BackFr	N	3	0	1000	1	107	17:32:08	1981389	0	0	0	0	0	0	0	0	0	0	0	0	0	0	0	0	0
100912	17:32:08	10022	Trial2BackFr	N	3	0	1000	1	108	17:32:08	1982908	0	0	0	0	0	0	0	0	0	0	0	0	0	0	0	0	0
100912	17:32:08	10022	Trial2BackFr	N	3	0	1000	1	109	17:32:08	1984427	0	0	0	0	0	0	0	0	0	0	0	0	0	0	0	0	0
100912	17:32:08	10022	Trial2BackFr	N	3	0	1000	1	110	17:32:08	1985947	0	0	0	0	0	0	0	0	0	0	0	0	0	0	0	0	0
100912	17:32:08	10022	Trial2BackFr	Y	3	57	550	1	111	17:32:08	1987026	0	0	0	0	0	0	0	0	0	0	0	0	0	0	0	0	0
100912	17:32:08	10022	Trial2BackFr	N	3	0	1000	1	112	17:32:08	1988972	0	0	0	0	0	0	0	0	0	0	0	0	0	0	0	0	0
100912	17:32:08	10022	Trial2BackFr	N	3	0	1000	1	113	17:32:08	1990492	0	0	0	0	0	0	0	0	0	0	0	0	0	0	0	0	0
100912	17:32:08	10022	Trial2BackFr	N	3	0	1000	1	114	17:32:08	1992011	0	0	0	0	0	0	0	0	0	0	0	0	0	0	0	0	0
100912	17:32:08	10022	Trial2BackFr	Y	3	57	613	1	115	17:32:08	1993157	0	0	0	0	0	0	0	0	0	0	0	0	0	0	0	0	0
100912	17:32:08	10022	Memory1R3moFr	ScoreFr	5	M2	17504	0	115	17:32:08	2048535	0	0	0	0	0	0	0	0	0	0	0	0	0	0	0	0	0
100912	17:32:08	10022	Memory1R3moFr	ScoreFr	5	M3	165	0	115	17:32:08	2048735	0	0	0	0	0	0	0	0	0	0	0	0	0	0	0	0	0
100912	17:32:08	10022	Memory1R3moFr	ScoreFr	5	M5	2013	0	115	17:32:08	2050787	0	0	0	0	0	0	0	0	0	0	0	0	0	0	0	0	0
100912	17:32:08	10022	Memory1R3moFr	ScoreFr	5	M6	136	0	115	17:32:08	2050961	0	0	0	0	0	0	0	0	0	0	0	0	0	0	0	0	0
100912	17:32:08	10022	Memory1R3moFr	ScoreFr	5	M8	1042	0	115	17:32:08	2052040	0	0	0	0	0	0	0	0	0	0	0	0	0	0	0	0	0
100912	17:32:08	10022	Memory1R3moFr	ScoreFr	5	Done	20898	0	115	17:32:08	2072978	0	0	0	0	0	0	0	0	0	0	0	0	0	0	0	0	0
100912	17:32:08	10022	Memory2R3moFr	ScoreFr2	5	11	15692	0	115	17:32:08	2105965	0	0	0	0	0	0	0	0	0	0	0	0	0	0	0	0	0
100912	17:32:08	10022	Memory2R3moFr	ScoreFr2	5	33	1189	0	115	17:32:08	2107192	0	0	0	0	0	0	0	0	0	0	0	0	0	0	0	0	0
100912	17:32:08	10022	Memory2R3moFr	ScoreFr2	5	55	2123	0	115	17:32:08	2109350	0	0	0	0	0	0	0	0	0	0	0	0	0	0	0	0	0
100912	17:32:08	10022	Memory2R3moFr	ScoreFr2	5	66	156	0	115	17:32:08	2109550	0	0	0	0	0	0	0	0	0	0	0	0	0	0	0	0	0
100912	17:32:08	10022	Memory2R3moFr	ScoreFr2	5	77	5852	0	115	17:32:08	2115441	0	0	0	0	0	0	0	0	0	0	0	0	0	0	0	0	0
100912	17:32:08	10022	Memory2R3moFr	ScoreFr2	5	88	265	0	115	17:32:08	2115748	0	0	0	0	0	0	0	0	0	0	0	0	0	0	0	0	0
100912	17:32:08	10022	Memory2R3moFr	ScoreFr2	5	22	1286	0	115	17:32:08	2117081	0	0	0	0	0	0	0	0	0	0	0	0	0	0	0	0	0
100912	17:32:08	10022	Memory2R3moFr	ScoreFr2	5	Done	16305	0	115	17:32:08	2133421	0	0	0	0	0	0	0	0	0	0	0	0	0	0	0	0	0
100912	17:32:08	10022	Memory3R3moFr	ScoreFr3	5	111	10062	0	115	17:32:08	2168113	0	0	0	0	0	0	0	0	0	0	0	0	0	0	0	0	0
100912	17:32:08	10022	Memory3R3moFr	ScoreFr3	5	222	191	0	115	17:32:08	2168340	0	0	0	0	0	0	0	0	0	0	0	0	0	0	0	0	0
100912	17:32:08	10022	Memory3R3moFr	ScoreFr3	5	333	293	0	115	17:32:08	2168673	0	0	0	0	0	0	0	0	0	0	0	0	0	0	0	0	0
100912	17:32:08	10022	Memory3R3moFr	ScoreFr3	5	444	703	0	115	17:32:08	2169420	0	0	0	0	0	0	0	0	0	0	0	0	0	0	0	0	0
100912	17:32:08	10022	Memory3R3moFr	ScoreFr3	5	555	198	0	115	17:32:08	2169659	0	0	0	0	0	0	0	0	0	0	0	0	0	0	0	0	0
100912	17:32:08	10022	Memory3R3moFr	ScoreFr3	5	777	445	0	115	17:32:08	2170139	0	0	0	0	0	0	0	0	0	0	0	0	0	0	0	0	0
100912	17:32:08	10022	Memory3R3moFr	ScoreFr3	5	888	206	0	115	17:32:08	2170379	0	0	0	0	0	0	0	0	0	0	0	0	0	0	0	0	0
100912	17:32:08	10022	Memory3R3moFr	ScoreFr3	5	555	1774	0	115	17:32:08	2172192	0	0	0	0	0	0	0	0	0	0	0	0	0	0	0	0	0
100912	17:32:08	10022	Memory3R3moFr	ScoreFr3	5	666	489	0	115	17:32:08	2172725	0	0	0	0	0	0	0	0	0	0	0	0	0	0	0	0	0
100912	17:32:08	10022	Memory3R3moFr	ScoreFr3	5	555	19403	0	115	17:32:08	2192170	0	0	0	0	0	0	0	0	0	0	0	0	0	0	0	0	0
100912	17:32:08	10022	Memory3R3moFr	ScoreFr3	5	Done	638	0	115	17:32:08	2192850	0	0	0	0	0	0	0	0	0	0	0	0	0	0	0	0	0
100912	17:32:08	10022	LoriaFrLH3	Stop	6	7	7871	0	115	17:32:08	2284828	0	0	0	0	0	0	0	0	0	0	0	0	0	0	0	0	0
100912	17:32:08	10022	FrTrail	Trails	7	1Trails	840	0	115	17:32:08	2303326	0	0	0	0	0	0	0	0	0	0	0	0	0	0	0	0	0
100912	17:32:08	10022	Serial7Fr3mo	Serial7Fr3mo	8	83	47220	0	115	17:32:08	2370557	1	0	0	0	0	0	0	0	0	0	0	0	0	0	0	0	0
100912	17:32:08	10022	Serial7Fr3mo	Serial7Fr3mo	8	76	3664	0	115	17:32:08	2374250	2	0	0	0	0	0	0	0	0	0	0	0	0	0	0	0	0
100912	17:32:08	10022	Serial7Fr3mo	Serial7Fr3mo	8	69	3916	0	115	17:32:08	2378182	3	0	0	0	0	0	0	0	0	0	0	0	0	0	0	0	0
100912	17:32:08	10022	Serial7Fr3mo	Serial7Fr3mo	8	62	2473	0	115	17:32:08	2380674	4	0	0	0	0	0	0	0	0	0	0	0	0	0	0	0	0
100912	17:32:08	10022	Serial7Fr3mo	Serial7Fr3mo	8	55	14381	0	115	17:32:08	2395083	5	0	0	0	0	0	0	0	0	0	0	0	0	0	0	0	0
100912	17:32:08	10022	corsiblockFrFwrd	recallseqFrFwrd	9	8	3115	0	115	17:32:08	2460750	5	0	0	0	0	0	0	0	0	0	0	0	0	0	0	0	0
100912	17:32:08	10022	corsiblockFrFwrd	recallseqFrFwrd	9	9	884	0	115	17:32:08	2461669	5	0	0	0	0	0	0	0	0	0	0	0	0	0	0	0	0
100912	17:32:08	10022	corsiblockFrFwrd	recallseqFrFwrd	9	doneCorsiFr	3604	0	115	17:32:08	2465308	5	0	0	0	0	0	0	0	0	0	0	0	0	0	0	2	0
100912	17:32:08	10022	corsiblockFrFwrd	recallseqFrFwrd	9	5	2571	0	115	17:32:08	2473971	5	0	0	0	0	0	0	0	0	0	0	0	0	0	0	2	0
100912	17:32:08	10022	corsiblockFrFwrd	recallseqFrFwrd	9	7	583	0	115	17:32:08	2474597	5	0	0	0	0	0	0	0	0	0	0	0	0	0	0	2	0
100912	17:32:08	10022	corsiblockFrFwrd	recallseqFrFwrd	9	3	1884	0	115	17:32:08	2476517	5	0	0	0	0	0	0	0	0	0	0	0	0	0	0	2	0
100912	17:32:08	10022	corsiblockFrFwrd	recallseqFrFwrd	9	doneCorsiFr	2277	0	115	17:32:08	2478836	5	0	0	0	0	0	0	0	0	0	0	0	0	0	0	2	0
100912	17:32:08	10022	corsiblockFrFwrd	recallseqFrFwrd	9	2	1219	0	115	17:32:08	2486100	5	0	0	0	0	0	0	0	0	0	0	0	0	0	0	2	0
100912	17:32:08	10022	corsiblockFrFwrd	recallseqFrFwrd	9	4	742	0	115	17:32:08	2486886	5	0	0	0	0	0	0	0	0	0	0	0	0	0	0	2	0
100912	17:32:08	10022	corsiblockFrFwrd	recallseqFrFwrd	9	1	1299	0	115	17:32:08	2488219	5	0	0	0	0	0	0	0	0	0	0	0	0	0	0	2	0
100912	17:32:08	10022	corsiblockFrFwrd	recallseqFrFwrd	9	doneCorsiFr	2654	0	115	17:32:08	2490911	5	0	0	0	0	0	0	0	0	0	0	0	0	0	0	3	0
100912	17:32:08	10022	corsiblockFrFwrd	recallseqFrFwrd	9	6	1143	0	115	17:32:08	2498148	5	0	0	0	0	0	0	0	0	0	0	0	0	0	0	3	0
100912	17:32:08	10022	corsiblockFrFwrd	recallseqFrFwrd	9	8	2549	0	115	17:32:08	2500734	5	0	0	0	0	0	0	0	0	0	0	0	0	0	0	3	0
100912	17:32:08	10022	corsiblockFrFwrd	recallseqFrFwrd	9	5	979	0	115	17:32:08	2501746	5	0	0	0	0	0	0	0	0	0	0	0	0	0	0	3	0
100912	17:32:08	10022	corsiblockFrFwrd	recallseqFrFwrd	9	6	1807	0	115	17:32:08	2503599	5	0	0	0	0	0	0	0	0	0	0	0	0	0	0	3	0
100912	17:32:08	10022	corsiblockFrFwrd	recallseqFrFwrd	9	doneCorsiFr	3098	0	115	17:32:08	2506731	5	0	0	0	0	0	0	0	0	0	0	0	0	0	0	4	0
100912	17:32:08	10022	corsiblockFrFwrd	recallseqFrFwrd	9	9	1355	0	115	17:32:08	2516181	5	0	0	0	0	0	0	0	0	0	0	0	0	0	0	4	0
100912	17:32:08	10022	corsiblockFrFwrd	recallseqFrFwrd	9	2	3860	0	115	17:32:08	2520086	5	0	0	0	0	0	0	0	0	0	0	0	0	0	0	4	0
100912	17:32:08	10022	corsiblockFrFwrd	recallseqFrFwrd	9	3	907	0	115	17:32:08	2521032	5	0	0	0	0	0	0	0	0	0	0	0	0	0	0	4	0
100912	17:32:08	10022	corsiblockFrFwrd	recallseqFrFwrd	9	7	1440	0	115	17:32:08	2522511	5	0	0	0	0	0	0	0	0	0	0	0	0	0	0	4	0
100912	17:32:08	10022	corsiblockFrFwrd	recallseqFrFwrd	9	1	1409	0	115	17:32:08	2523964	5	0	0	0	0	0	0	0	0	0	0	0	0	0	0	4	0
100912	17:32:08	10022	corsiblockFrFwrd	recallseqFrFwrd	9	doneCorsiFr	2340	0	115	17:32:08	2526350	5	0	0	0	0	0	0	0	0	0	0	0	0	0	0	4	0
100912	17:32:08	10022	corsiblockFrFwrd	recallseqFrFwrd	9	4	1144	0	115	17:32:08	2535546	5	0	0	0	0	0	0	0	0	0	0	0	0	0	0	4	0
100912	17:32:08	10022	corsiblockFrFwrd	recallseqFrFwrd	9	8	910	0	115	17:32:08	2536492	5	0	0	0	0	0	0	0	0	0	0	0	0	0	0	4	0
100912	17:32:08	10022	corsiblockFrFwrd	recallseqFrFwrd	9	7	1308	0	115	17:32:08	2537839	5	0	0	0	0	0	0	0	0	0	0	0	0	0	0	4	0
100912	17:32:08	10022	corsiblockFrFwrd	recallseqFrFwrd	9	2	2065	0	115	17:32:08	2539944	5	0	0	0	0	0	0	0	0	0	0	0	0	0	0	4	0
100912	17:32:08	10022	corsiblockFrFwrd	recallseqFrFwrd	9	6	1120	0	115	17:32:08	2541104	5	0	0	0	0	0	0	0	0	0	0	0	0	0	0	4	0
100912	17:32:08	10022	corsiblockFrFwrd	recallseqFrFwrd	9	3	2064	0	115	17:32:08	2543210	5	0	0	0	0	0	0	0	0	0	0	0	0	0	0	4	0
100912	17:32:08	10022	corsiblockFrFwrd	recallseqFrFwrd	9	doneCorsiFr	1582	0	115	17:32:08	2544836	5	0	0	0	0	0	0	0	0	0	0	0	0	0	0	4	0
100912	17:32:08	10022	corsiblockFrRev	recallseqFrRev	10	2	2233	0	115	17:32:08	2561349	5	0	0	0	0	0	0	0	0	0	0	0	0	0	0	4	0
100912	17:32:08	10022	corsiblockFrRev	recallseqFrRev	10	4	866	0	115	17:32:08	2562255	5	0	0	0	0	0	0	0	0	0	0	0	0	0	0	4	0
100912	17:32:08	10022	corsiblockFrRev	recallseqFrRev	10	doneCorsiFr	1104	0	115	17:32:08	2563402	5	0	0	0	0	0	0	0	0	0	0	0	0	0	0	4	2
100912	17:32:08	10022	corsiblockFrRev	recallseqFrRev	10	7	1530	0	115	17:32:08	2571026	5	0	0	0	0	0	0	0	0	0	0	0	0	0	0	4	2
100912	17:32:08	10022	corsiblockFrRev	recallseqFrRev	10	1	1638	0	115	17:32:08	2572705	5	0	0	0	0	0	0	0	0	0	0	0	0	0	0	4	2
100912	17:32:08	10022	corsiblockFrRev	recallseqFrRev	10	5	1207	0	115	17:32:08	2573957	5	0	0	0	0	0	0	0	0	0	0	0	0	0	0	4	2
100912	17:32:08	10022	corsiblockFrRev	recallseqFrRev	10	doneCorsiFr	1202	0	115	17:32:08	2575197	5	0	0	0	0	0	0	0	0	0	0	0	0	0	0	4	3
100912	17:32:08	10022	corsiblockFrRev	recallseqFrRev	10	9	792	0	115	17:32:08	2583074	5	0	0	0	0	0	0	0	0	0	0	0	0	0	0	4	3
100912	17:32:08	10022	corsiblockFrRev	recallseqFrRev	10	8	973	0	115	17:32:08	2584087	5	0	0	0	0	0	0	0	0	0	0	0	0	0	0	4	3
100912	17:32:08	10022	corsiblockFrRev	recallseqFrRev	10	6	1808	0	115	17:32:08	2585939	5	0	0	0	0	0	0	0	0	0	0	0	0	0	0	4	3
100912	17:32:08	10022	corsiblockFrRev	recallseqFrRev	10	3	955	0	115	17:32:08	2586939	5	0	0	0	0	0	0	0	0	0	0	0	0	0	0	4	3
100912	17:32:08	10022	corsiblockFrRev	recallseqFrRev	10	doneCorsiFr	1045	0	115	17:32:08	2588018	5	0	0	0	0	0	0	0	0	0	0	0	0	0	0	4	4
100912	17:32:08	10022	corsiblockFrRev	recallseqFrRev	10	7	1282	0	115	17:32:08	2597388	5	0	0	0	0	0	0	0	0	0	0	0	0	0	0	4	4
100912	17:32:08	10022	corsiblockFrRev	recallseqFrRev	10	3	899	0	115	17:32:08	2598321	5	0	0	0	0	0	0	0	0	0	0	0	0	0	0	4	4
100912	17:32:08	10022	corsiblockFrRev	recallseqFrRev	10	2	758	0	115	17:32:08	2599120	5	0	0	0	0	0	0	0	0	0	0	0	0	0	0	4	4
100912	17:32:08	10022	corsiblockFrRev	recallseqFrRev	10	5	1133	0	115	17:32:08	2600293	5	0	0	0	0	0	0	0	0	0	0	0	0	0	0	4	4
100912	17:32:08	10022	corsiblockFrRev	recallseqFrRev	10	8	930	0	115	17:32:08	2601266	5	0	0	0	0	0	0	0	0	0	0	0	0	0	0	4	4
100912	17:32:08	10022	corsiblockFrRev	recallseqFrRev	10	doneCorsiFr	1325	0	115	17:32:08	2602626	5	0	0	0	0	0	0	0	0	0	0	0	0	0	0	4	5
100912	17:32:08	10022	corsiblockFrRev	recallseqFrRev	10	3	1875	0	115	17:32:08	2613595	5	0	0	0	0	0	0	0	0	0	0	0	0	0	0	4	5
100912	17:32:08	10022	corsiblockFrRev	recallseqFrRev	10	8	868	0	115	17:32:08	2614501	5	0	0	0	0	0	0	0	0	0	0	0	0	0	0	4	5
100912	17:32:08	10022	corsiblockFrRev	recallseqFrRev	10	6	1905	0	115	17:32:08	2616447	5	0	0	0	0	0	0	0	0	0	0	0	0	0	0	4	5
100912	17:32:08	10022	corsiblockFrRev	recallseqFrRev	10	1	4367	0	115	17:32:08	2620858	5	0	0	0	0	0	0	0	0	0	0	0	0	0	0	4	5
100912	17:32:08	10022	corsiblockFrRev	recallseqFrRev	10	9	1356	0	115	17:32:08	2622258	5	0	0	0	0	0	0	0	0	0	0	0	0	0	0	4	5
100912	17:32:08	10022	corsiblockFrRev	recallseqFrRev	10	doneCorsiFr	2012	0	115	17:32:08	2624310	5	0	0	0	0	0	0	0	0	0	0	0	0	0	0	4	5
100912	17:32:08	10022	corsiblockFrRev	recallseqFrRev	10	7	838	0	115	17:32:08	2634200	5	0	0	0	0	0	0	0	0	0	0	0	0	0	0	4	5
100912	17:32:08	10022	corsiblockFrRev	recallseqFrRev	10	9	582	0	115	17:32:08	2634826	5	0	0	0	0	0	0	0	0	0	0	0	0	0	0	4	5
100912	17:32:08	10022	corsiblockFrRev	recallseqFrRev	10	4	3179	0	115	17:32:08	2638051	5	0	0	0	0	0	0	0	0	0	0	0	0	0	0	4	5
100912	17:32:08	10022	corsiblockFrRev	recallseqFrRev	10	6	1010	0	115	17:32:08	2639104	5	0	0	0	0	0	0	0	0	0	0	0	0	0	0	4	5
100912	17:32:08	10022	corsiblockFrRev	recallseqFrRev	10	1	1078	0	115	17:32:08	2640224	5	0	0	0	0	0	0	0	0	0	0	0	0	0	0	4	5
100912	17:32:08	10022	corsiblockFrRev	recallseqFrRev	10	doneCorsiFr	1094	0	115	17:32:08	2641357	5	0	0	0	0	0	0	0	0	0	0	0	0	0	0	4	5
100912	17:32:08	10022	testFr3mo	WordsFr3mo	11	4Fr3mo	5926	0	115	17:32:08	2662202	5	0	0	0	3	0	0	0	0	0	0	0	0	0	0	4	5
100912	17:32:08	10022	testFr3mo	WordsFr3mo	11	5Fr3mo	524	0	115	17:32:08	2662762	5	0	0	0	3	3	0	0	0	0	0	0	0	0	0	4	5
100912	17:32:08	10022	testFr3mo	WordsFr3mo	11	7Fr3mo	396	0	115	17:32:08	2663202	5	0	0	0	3	3	0	3	0	0	0	0	0	0	0	4	5
100912	17:32:08	10022	testFr3mo	WordsFr3mo	11	8Fr3mo	165	0	115	17:32:08	2663401	5	0	0	0	3	3	0	3	3	0	0	0	0	0	0	4	5
100912	17:32:08	10022	testFr3mo	WordsFr3mo	11	6Fr3mo	540	0	115	17:32:08	2663988	5	0	0	0	3	3	3	3	3	0	0	0	0	0	0	4	5
100912	17:32:08	10022	testFr3mo	WordsFr3mo	11	DoneFr3mo	40769	0	115	17:32:08	2704812	5	0	0	0	3	3	3	3	3	0	0	0	0	0	0	4	5
100912	17:32:08	10022	testFr3mo	Cat1Fr3mo	11	0	1	0	115	17:32:08	2704827	5	0	0	0	3	3	3	3	3	0	0	0	0	0	0	4	5
100912	17:32:08	10022	testFr3mo	Ch1Fr3mo	11	RR1Fr3mo	6369	0	115	17:32:08	2711221	5	1	0	0	3	3	3	3	3	0	0	0	0	0	0	4	5
100912	17:32:08	10022	testFr3mo	Cat2Fr3mo	11	W2Fr3mo	28774	0	115	17:32:08	2740036	5	1	0	0	3	3	3	3	3	0	0	0	0	0	0	4	5
100912	17:32:08	10022	testFr3mo	Ch2Fr3mo	11	RR2Fr3mo	3703	0	115	17:32:08	2743782	5	1	1	0	3	3	3	3	3	0	0	0	0	0	0	4	5
100912	17:32:08	10022	testFr3mo	Cat3Fr3mo	11	0	1	0	115	17:32:08	2743798	5	1	1	0	3	3	3	3	3	0	0	0	0	0	0	4	5
100912	17:32:08	10022	testFr3mo	Ch3Fr3mo	11	RR3Fr3mo	5029	0	115	17:32:08	2748846	5	1	1	1	3	3	3	3	3	0	0	0	0	0	0	4	5
100912	17:32:08	10022	DigitSpanFwrdFr3mo	Score1FwrdFr3mo	12	DS1	3235	0	115	17:32:08	2788710	5	1	1	1	3	3	3	3	3	0	0	0	0	0	0	4	5
100912	17:32:08	10022	DigitSpanFwrdFr3mo	Gate1FwrdFr3mo	12	0	1	0	115	17:32:08	2788726	5	1	1	1	3	3	3	3	3	3	0	0	0	0	0	4	5
100912	17:32:08	10022	DigitSpanFwrdFr3mo	Score2FwrdFr3mo	12	DS1	2572	0	115	17:32:08	2797027	5	1	1	1	3	3	3	3	3	3	0	0	0	0	0	4	5
100912	17:32:08	10022	DigitSpanFwrdFr3mo	Gate3FwrdFr3mo	12	0	1	0	115	17:32:08	2797042	5	1	1	1	3	3	3	3	3	4	0	0	0	0	0	4	5
100912	17:32:08	10022	DigitSpanFwrdFr3mo	Score3FwrdFr3mo	12	DS2	5731	0	115	17:32:08	2810035	5	1	1	1	3	3	3	3	3	4	0	0	0	0	0	4	5
100912	17:32:08	10022	DigitSpanFwrdFr3mo	Gate5FwrdFr3mo	12	0	1	0	115	17:32:08	2810050	5	1	1	1	3	3	3	3	3	4	0	0	0	0	0	4	5
100912	17:32:08	10022	DigitSpanFwrdFr3mo	Score33FwrdFr3mo	12	DS1	4717	0	115	17:32:08	2822003	5	1	1	1	3	3	3	3	3	4	0	0	0	0	0	4	5
100912	17:32:08	10022	DigitSpanFwrdFr3mo	Gate6FwrdFr3mo	12	0	1	0	115	17:32:08	2822019	5	1	1	1	3	3	3	3	3	5	0	0	0	0	0	4	5
100912	17:32:08	10022	DigitSpanFwrdFr3mo	Score4FwrdFr3mo	12	DS2	9644	0	115	17:32:08	2840169	5	1	1	1	3	3	3	3	3	5	0	0	0	0	0	4	5
100912	17:32:08	10022	DigitSpanFwrdFr3mo	Gate7FwrdFr3mo	12	0	1	0	115	17:32:08	2840185	5	1	1	1	3	3	3	3	3	5	0	0	0	0	0	4	5
100912	17:32:08	10022	DigitSpanFwrdFr3mo	Score44FwrdFr3mo	12	DS1	3886	0	115	17:32:08	2852377	5	1	1	1	3	3	3	3	3	5	0	0	0	0	0	4	5
100912	17:32:08	10022	DigitSpanFwrdFr3mo	Gate8FwrdFr3mo	12	0	1	0	115	17:32:08	2852393	5	1	1	1	3	3	3	3	3	6	0	0	0	0	0	4	5
100912	17:32:08	10022	DigitSpanFwrdFr3mo	Score5FwrdFr3mo	12	DS2	10636	0	115	17:32:08	2875128	5	1	1	1	3	3	3	3	3	6	0	0	0	0	0	4	5
100912	17:32:08	10022	DigitSpanFwrdFr3mo	Gate9FwrdFr3mo	12	0	1	0	115	17:32:08	2875144	5	1	1	1	3	3	3	3	3	6	0	0	0	0	0	4	5
100912	17:32:08	10022	DigitSpanFwrdFr3mo	Score55FwrdFr3mo	12	DS2	3101	0	115	17:32:08	2891109	5	1	1	1	3	3	3	3	3	6	0	0	0	0	0	4	5
100912	17:32:08	10022	DigitSpanFr3mo	Score1Fr3mo	13	DS1	4366	0	115	17:32:08	2909888	5	1	1	1	3	3	3	3	3	6	0	0	0	0	0	4	5
100912	17:32:08	10022	DigitSpanFr3mo	Gate1Fr3mo	13	0	1	0	115	17:32:08	2909903	5	1	1	1	3	3	3	3	3	6	2	0	0	0	0	4	5
100912	17:32:08	10022	DigitSpanFr3mo	Score2Fr3mo	13	DS1	4327	0	115	17:32:08	2918791	5	1	1	1	3	3	3	3	3	6	2	0	0	0	0	4	5
100912	17:32:08	10022	DigitSpanFr3mo	Gate3Fr3mo	13	0	1	0	115	17:32:08	2918806	5	1	1	1	3	3	3	3	3	6	3	0	0	0	0	4	5
100912	17:32:08	10022	DigitSpanFr3mo	Score3Fr3mo	13	DS2	5731	0	115	17:32:08	2930239	5	1	1	1	3	3	3	3	3	6	3	0	0	0	0	4	5
100912	17:32:08	10022	DigitSpanFr3mo	Gate5Fr3mo	13	0	1	0	115	17:32:08	2930255	5	1	1	1	3	3	3	3	3	6	3	0	0	0	0	4	5
100912	17:32:08	10022	DigitSpanFr3mo	Score33Fr3mo	13	DS1	3605	0	115	17:32:08	2939929	5	1	1	1	3	3	3	3	3	6	3	0	0	0	0	4	5
100912	17:32:08	10022	DigitSpanFr3mo	Gate6Fr3mo	13	0	1	0	115	17:32:08	2939944	5	1	1	1	3	3	3	3	3	6	4	0	0	0	0	4	5
100912	17:32:08	10022	DigitSpanFr3mo	Score4Fr3mo	13	DS2	7006	0	115	17:32:08	2954190	5	1	1	1	3	3	3	3	3	6	4	0	0	0	0	4	5
100912	17:32:08	10022	DigitSpanFr3mo	Gate7Fr3mo	13	0	1	0	115	17:32:08	2954205	5	1	1	1	3	3	3	3	3	6	4	0	0	0	0	4	5
100912	17:32:08	10022	DigitSpanFr3mo	Score44Fr3mo	13	DS2	3825	0	115	17:32:08	2965239	5	1	1	1	3	3	3	3	3	6	4	0	0	0	0	4	5
100912	17:32:08	10022	Trial	ResponseIL	14	0	162	0	115	17:32:08	3038236	5	1	1	1	3	3	3	3	3	6	4	0	0	0	0	4	5
100912	17:32:08	10022	Trial	IncongruentLeft	14	203	337	1	115	17:32:08	3038599	5	1	1	1	3	3	3	3	3	6	4	0	0	0	0	4	5
100912	17:32:08	10022	Trial	ResponseCR	14	0	162	0	115	17:32:08	3039928	5	1	1	1	3	3	3	3	3	6	4	0	0	0	0	4	5
100912	17:32:08	10022	Trial	CongruentRight	14	205	228	1	115	17:32:08	3040183	5	1	1	1	3	3	3	3	3	6	4	0	0	0	0	4	5
100912	17:32:08	10022	Trial	ResponseIR	14	0	162	0	115	17:32:08	3041621	5	1	1	1	3	3	3	3	3	6	4	0	0	0	0	4	5
100912	17:32:08	10022	Trial	IncongruentRight	14	203	264	0	115	17:32:08	3041911	5	1	1	1	3	3	3	3	3	6	4	0	0	0	0	4	5
100912	17:32:08	10022	Trial	ResponseCL	14	0	162	0	115	17:32:08	3043314	5	1	1	1	3	3	3	3	3	6	4	0	0	0	0	4	5
100912	17:32:08	10022	Trial	CongruentLeft	14	203	315	1	115	17:32:08	3043655	5	1	1	1	3	3	3	3	3	6	4	0	0	0	0	4	5
100912	17:32:08	10022	Trial	ResponseCR	14	0	162	0	115	17:32:08	3045007	5	1	1	1	3	3	3	3	3	6	4	0	0	0	0	4	5
100912	17:32:08	10022	Trial	CongruentRight	14	205	206	1	115	17:32:08	3045239	5	1	1	1	3	3	3	3	3	6	4	0	0	0	0	4	5
100912	17:32:08	10022	Trial	ResponseIR	14	0	162	0	115	17:32:08	3046699	5	1	1	1	3	3	3	3	3	6	4	0	0	0	0	4	5
100912	17:32:08	10022	Trial	IncongruentRight	14	205	370	1	115	17:32:08	3047095	5	1	1	1	3	3	3	3	3	6	4	0	0	0	0	4	5
100912	17:32:08	10022	Trial	ResponseCL	14	0	162	0	115	17:32:08	3048392	5	1	1	1	3	3	3	3	3	6	4	0	0	0	0	4	5
100912	17:32:08	10022	Trial	CongruentLeft	14	203	213	1	115	17:32:08	3048631	5	1	1	1	3	3	3	3	3	6	4	0	0	0	0	4	5
100912	17:32:08	10022	Trial	ResponseIL	14	0	162	0	115	17:32:08	3050085	5	1	1	1	3	3	3	3	3	6	4	0	0	0	0	4	5
100912	17:32:08	10022	Trial	IncongruentLeft	14	203	360	1	115	17:32:08	3050471	5	1	1	1	3	3	3	3	3	6	4	0	0	0	0	4	5
100912	17:32:08	10022	Trial	ResponseIL	14	0	162	0	115	17:32:08	3051777	5	1	1	1	3	3	3	3	3	6	4	0	0	0	0	4	5
100912	17:32:08	10022	Trial	IncongruentLeft	14	203	331	1	115	17:32:08	3052135	5	1	1	1	3	3	3	3	3	6	4	0	0	0	0	4	5
100912	17:32:08	10022	Trial	ResponseCR	14	0	162	0	115	17:32:08	3053470	5	1	1	1	3	3	3	3	3	6	4	0	0	0	0	4	5
100912	17:32:08	10022	Trial	CongruentRight	14	205	191	1	115	17:32:08	3053687	5	1	1	1	3	3	3	3	3	6	4	0	0	0	0	4	5
100912	17:32:08	10022	Trial	ResponseIR	14	0	162	0	115	17:32:08	3055162	5	1	1	1	3	3	3	3	3	6	4	0	0	0	0	4	5
100912	17:32:08	10022	Trial	IncongruentRight	14	205	354	1	115	17:32:08	3055543	5	1	1	1	3	3	3	3	3	6	4	0	0	0	0	4	5
100912	17:32:08	10022	Trial	ResponseCL	14	0	162	0	115	17:32:08	3056855	5	1	1	1	3	3	3	3	3	6	4	0	0	0	0	4	5
100912	17:32:08	10022	Trial	CongruentLeft	14	203	229	1	115	17:32:08	3057111	5	1	1	1	3	3	3	3	3	6	4	0	0	0	0	4	5
100912	17:32:08	10022	Trial	ResponseCR	14	0	162	0	115	17:32:08	3058548	5	1	1	1	3	3	3	3	3	6	4	0	0	0	0	4	5
100912	17:32:08	10022	Trial	CongruentRight	14	205	217	1	115	17:32:08	3058791	5	1	1	1	3	3	3	3	3	6	4	0	0	0	0	4	5
100912	17:32:08	10022	Trial	ResponseIL	14	0	162	0	115	17:32:08	3060240	5	1	1	1	3	3	3	3	3	6	4	0	0	0	0	4	5
100912	17:32:08	10022	Trial	IncongruentLeft	14	203	284	1	115	17:32:08	3060551	5	1	1	1	3	3	3	3	3	6	4	0	0	0	0	4	5
100912	17:32:08	10022	Trial	ResponseIR	14	0	162	0	115	17:32:08	3061933	5	1	1	1	3	3	3	3	3	6	4	0	0	0	0	4	5
100912	17:32:08	10022	Trial	IncongruentRight	14	205	255	1	115	17:32:08	3062215	5	1	1	1	3	3	3	3	3	6	4	0	0	0	0	4	5
100912	17:32:08	10022	Trial	ResponseCR	14	0	162	0	115	17:32:08	3063626	5	1	1	1	3	3	3	3	3	6	4	0	0	0	0	4	5
100912	17:32:08	10022	Trial	CongruentRight	14	205	227	1	115	17:32:08	3063879	5	1	1	1	3	3	3	3	3	6	4	0	0	0	0	4	5
100912	17:32:08	10022	Trial	ResponseCL	14	0	162	0	115	17:32:08	3065318	5	1	1	1	3	3	3	3	3	6	4	0	0	0	0	4	5
100912	17:32:08	10022	Trial	CongruentLeft	14	203	230	1	115	17:32:08	3065575	5	1	1	1	3	3	3	3	3	6	4	0	0	0	0	4	5
100912	17:32:08	10022	Trial	ResponseCR	14	0	162	0	115	17:32:08	3067011	5	1	1	1	3	3	3	3	3	6	4	0	0	0	0	4	5
100912	17:32:08	10022	Trial	CongruentRight	14	205	393	1	115	17:32:08	3067431	5	1	1	1	3	3	3	3	3	6	4	0	0	0	0	4	5
100912	17:32:08	10022	Trial	ResponseIR	14	0	162	0	115	17:32:08	3068704	5	1	1	1	3	3	3	3	3	6	4	0	0	0	0	4	5
100912	17:32:08	10022	Trial	IncongruentRight	14	205	365	1	115	17:32:08	3069095	5	1	1	1	3	3	3	3	3	6	4	0	0	0	0	4	5
100912	17:32:08	10022	Trial	ResponseIL	14	0	162	0	115	17:32:08	3070396	5	1	1	1	3	3	3	3	3	6	4	0	0	0	0	4	5
100912	17:32:08	10022	Trial	IncongruentLeft	14	203	160	1	115	17:32:08	3070583	5	1	1	1	3	3	3	3	3	6	4	0	0	0	0	4	5
100912	17:32:08	10022	Trial	ResponseIL	14	0	162	0	115	17:32:08	3072089	5	1	1	1	3	3	3	3	3	6	4	0	0	0	0	4	5
100912	17:32:08	10022	Trial	IncongruentLeft	14	203	371	1	115	17:32:08	3072487	5	1	1	1	3	3	3	3	3	6	4	0	0	0	0	4	5
100912	17:32:08	10022	Trial	ResponseCL	14	0	162	0	115	17:32:08	3073781	5	1	1	1	3	3	3	3	3	6	4	0	0	0	0	4	5
100912	17:32:08	10022	Trial	CongruentLeft	14	203	375	1	115	17:32:08	3074183	5	1	1	1	3	3	3	3	3	6	4	0	0	0	0	4	5
100912	17:32:08	10022	Trial	ResponseCR	14	0	162	0	115	17:32:08	3075474	5	1	1	1	3	3	3	3	3	6	4	0	0	0	0	4	5
100912	17:32:08	10022	Trial	CongruentRight	14	205	170	1	115	17:32:08	3075671	5	1	1	1	3	3	3	3	3	6	4	0	0	0	0	4	5
100912	17:32:08	10022	Trial	ResponseIL	14	0	162	0	115	17:32:08	3077167	5	1	1	1	3	3	3	3	3	6	4	0	0	0	0	4	5
100912	17:32:08	10022	Trial	IncongruentLeft	14	203	285	1	115	17:32:08	3077479	5	1	1	1	3	3	3	3	3	6	4	0	0	0	0	4	5
100912	17:32:08	10022	Trial	ResponseIR	14	0	162	0	115	17:32:08	3078860	5	1	1	1	3	3	3	3	3	6	4	0	0	0	0	4	5
100912	17:32:08	10022	Trial	IncongruentRight	14	205	321	1	115	17:32:08	3079207	5	1	1	1	3	3	3	3	3	6	4	0	0	0	0	4	5
100912	17:32:08	10022	Trial	ResponseCR	14	0	162	0	115	17:32:08	3080552	5	1	1	1	3	3	3	3	3	6	4	0	0	0	0	4	5
100912	17:32:08	10022	Trial	CongruentRight	14	205	228	1	115	17:32:08	3080806	5	1	1	1	3	3	3	3	3	6	4	0	0	0	0	4	5
100912	17:32:08	10022	Trial	ResponseCL	14	0	162	0	115	17:32:08	3082245	5	1	1	1	3	3	3	3	3	6	4	0	0	0	0	4	5
100912	17:32:08	10022	Trial	CongruentLeft	14	203	263	1	115	17:32:08	3082534	5	1	1	1	3	3	3	3	3	6	4	0	0	0	0	4	5
100912	17:32:08	10022	Trial	ResponseIR	14	0	162	0	115	17:32:08	3083938	5	1	1	1	3	3	3	3	3	6	4	0	0	0	0	4	5
100912	17:32:08	10022	Trial	IncongruentRight	14	205	314	1	115	17:32:08	3084278	5	1	1	1	3	3	3	3	3	6	4	0	0	0	0	4	5
100912	17:32:08	10022	Trial	ResponseIL	14	0	162	0	115	17:32:08	3085630	5	1	1	1	3	3	3	3	3	6	4	0	0	0	0	4	5
100912	17:32:08	10022	Trial	IncongruentLeft	14	203	270	1	115	17:32:08	3085927	5	1	1	1	3	3	3	3	3	6	4	0	0	0	0	4	5
100912	17:32:08	10022	Trial	ResponseIR	14	0	162	0	115	17:32:08	3087323	5	1	1	1	3	3	3	3	3	6	4	0	0	0	0	4	5
100912	17:32:08	10022	Trial	IncongruentRight	14	205	353	1	115	17:32:08	3087702	5	1	1	1	3	3	3	3	3	6	4	0	0	0	0	4	5
100912	17:32:08	10022	Trial	ResponseCR	14	0	162	0	115	17:32:08	3089015	5	1	1	1	3	3	3	3	3	6	4	0	0	0	0	4	5
100912	17:32:08	10022	Trial	CongruentRight	14	205	229	1	115	17:32:08	3089270	5	1	1	1	3	3	3	3	3	6	4	0	0	0	0	4	5
100912	17:32:08	10022	Trial	ResponseIL	14	0	162	0	115	17:32:08	3090708	5	1	1	1	3	3	3	3	3	6	4	0	0	0	0	4	5
100912	17:32:08	10022	Trial	IncongruentLeft	14	203	312	1	115	17:32:08	3091046	5	1	1	1	3	3	3	3	3	6	4	0	0	0	0	4	5
100912	17:32:08	10022	Trial	ResponseCL	14	0	162	0	115	17:32:08	3092401	5	1	1	1	3	3	3	3	3	6	4	0	0	0	0	4	5
100912	17:32:08	10022	Trial	CongruentLeft	14	203	235	1	115	17:32:08	3092662	5	1	1	1	3	3	3	3	3	6	4	0	0	0	0	4	5
100912	17:32:08	10022	Trial	ResponseCR	14	0	162	0	115	17:32:08	3094093	5	1	1	1	3	3	3	3	3	6	4	0	0	0	0	4	5
100912	17:32:08	10022	Trial	CongruentRight	14	205	190	1	115	17:32:08	3094310	5	1	1	1	3	3	3	3	3	6	4	0	0	0	0	4	5
100912	17:32:08	10022	Trial	ResponseIL	14	0	162	0	115	17:32:08	3095786	5	1	1	1	3	3	3	3	3	6	4	0	0	0	0	4	5
100912	17:32:08	10022	Trial	IncongruentLeft	14	203	306	1	115	17:32:08	3096118	5	1	1	1	3	3	3	3	3	6	4	0	0	0	0	4	5
100912	17:32:08	10022	Trial	ResponseIR	14	0	162	0	115	17:32:08	3097479	5	1	1	1	3	3	3	3	3	6	4	0	0	0	0	4	5
100912	17:32:08	10022	Trial	IncongruentRight	14	205	357	1	115	17:32:08	3097862	5	1	1	1	3	3	3	3	3	6	4	0	0	0	0	4	5
100912	17:32:08	10022	Trial	ResponseIR	14	0	162	0	115	17:32:08	3099171	5	1	1	1	3	3	3	3	3	6	4	0	0	0	0	4	5
100912	17:32:08	10022	Trial	IncongruentRight	14	205	312	1	115	17:32:08	3099510	5	1	1	1	3	3	3	3	3	6	4	0	0	0	0	4	5
100912	17:32:08	10022	Trial	ResponseCL	14	0	162	0	115	17:32:08	3100864	5	1	1	1	3	3	3	3	3	6	4	0	0	0	0	4	5
100912	17:32:08	10022	Trial	CongruentLeft	14	203	219	1	115	17:32:08	3101110	5	1	1	1	3	3	3	3	3	6	4	0	0	0	0	4	5
100912	17:32:08	10022	Trial	ResponseIL	14	0	162	0	115	17:32:08	3102557	5	1	1	1	3	3	3	3	3	6	4	0	0	0	0	4	5
100912	17:32:08	10022	Trial	IncongruentLeft	14	203	271	1	115	17:32:08	3102854	5	1	1	1	3	3	3	3	3	6	4	0	0	0	0	4	5
100912	17:32:08	10022	Trial	ResponseCR	14	0	162	0	115	17:32:08	3104249	5	1	1	1	3	3	3	3	3	6	4	0	0	0	0	4	5
100912	17:32:08	10022	Trial	CongruentRight	14	205	178	1	115	17:32:08	3104454	5	1	1	1	3	3	3	3	3	6	4	0	0	0	0	4	5
100912	17:32:08	10022	Trial	ResponseCL	14	0	162	0	115	17:32:08	3105942	5	1	1	1	3	3	3	3	3	6	4	0	0	0	0	4	5
100912	17:32:08	10022	Trial	CongruentLeft	14	203	198	1	115	17:32:08	3106166	5	1	1	1	3	3	3	3	3	6	4	0	0	0	0	4	5
100912	17:32:08	10022	Trial	ResponseIR	14	0	162	0	115	17:32:08	3107635	5	1	1	1	3	3	3	3	3	6	4	0	0	0	0	4	5
100912	17:32:08	10022	Trial	IncongruentRight	14	205	217	1	115	17:32:08	3107878	5	1	1	1	3	3	3	3	3	6	4	0	0	0	0	4	5
100912	17:32:08	10022	Trial	ResponseCR	14	0	162	0	115	17:32:08	3109327	5	1	1	1	3	3	3	3	3	6	4	0	0	0	0	4	5
100912	17:32:08	10022	Trial	CongruentRight	14	205	364	1	115	17:32:08	3109718	5	1	1	1	3	3	3	3	3	6	4	0	0	0	0	4	5
100912	17:32:08	10022	Trial	ResponseIL	14	0	162	0	115	17:32:08	3111020	5	1	1	1	3	3	3	3	3	6	4	0	0	0	0	4	5
100912	17:32:08	10022	Trial	IncongruentLeft	14	203	287	1	115	17:32:08	3111334	5	1	1	1	3	3	3	3	3	6	4	0	0	0	0	4	5
100912	17:32:08	10022	Trial	ResponseCL	14	0	162	0	115	17:32:08	3112726	5	1	1	1	3	3	3	3	3	6	4	0	0	0	0	4	5
100912	17:32:08	10022	Trial	CongruentLeft	14	203	326	1	115	17:32:08	3113078	5	1	1	1	3	3	3	3	3	6	4	0	0	0	0	4	5
100912	17:32:08	10022	Trial	ResponseIL	14	0	162	0	115	17:32:08	3114418	5	1	1	1	3	3	3	3	3	6	4	0	0	0	0	4	5
100912	17:32:08	10022	Trial	IncongruentLeft	14	203	345	1	115	17:32:08	3114790	5	1	1	1	3	3	3	3	3	6	4	0	0	0	0	4	5
100912	17:32:08	10022	Trial	ResponseIR	14	0	162	0	115	17:32:08	3116111	5	1	1	1	3	3	3	3	3	6	4	0	0	0	0	4	5
100912	17:32:08	10022	Trial	IncongruentRight	14	205	316	1	115	17:32:08	3116454	5	1	1	1	3	3	3	3	3	6	4	0	0	0	0	4	5
100912	17:32:08	10022	Trial	ResponseCR	14	0	162	0	115	17:32:08	3117804	5	1	1	1	3	3	3	3	3	6	4	0	0	0	0	4	5
100912	17:32:08	10022	Trial	CongruentRight	14	205	175	1	115	17:32:08	3118006	5	1	1	1	3	3	3	3	3	6	4	0	0	0	0	4	5
100912	17:32:08	10022	Trial	ResponseCL	14	0	162	0	115	17:32:08	3119496	5	1	1	1	3	3	3	3	3	6	4	0	0	0	0	4	5
100912	17:32:08	10022	Trial	CongruentLeft	14	203	195	1	115	17:32:08	3119718	5	1	1	1	3	3	3	3	3	6	4	0	0	0	0	4	5
100912	17:32:08	10022	Trial	ResponseCL	14	0	162	0	115	17:32:08	3121189	5	1	1	1	3	3	3	3	3	6	4	0	0	0	0	4	5
100912	17:32:08	10022	Trial	CongruentLeft	14	203	278	1	115	17:32:08	3121494	5	1	1	1	3	3	3	3	3	6	4	0	0	0	0	4	5
100912	17:32:08	10022	Trial	ResponseIR	14	0	162	0	115	17:32:08	3122882	5	1	1	1	3	3	3	3	3	6	4	0	0	0	0	4	5
100912	17:32:08	10022	Trial	IncongruentRight	14	205	330	1	115	17:32:08	3123238	5	1	1	1	3	3	3	3	3	6	4	0	0	0	0	4	5
100912	17:32:08	10022	Trial	ResponseIL	14	0	162	0	115	17:32:08	3124574	5	1	1	1	3	3	3	3	3	6	4	0	0	0	0	4	5
100912	17:32:08	10022	Trial	IncongruentLeft	14	203	273	1	115	17:32:08	3124874	5	1	1	1	3	3	3	3	3	6	4	0	0	0	0	4	5
100912	17:32:08	10022	Trial	ResponseIR	14	0	162	0	115	17:32:08	3126267	5	1	1	1	3	3	3	3	3	6	4	0	0	0	0	4	5
100912	17:32:08	10022	Trial	IncongruentRight	14	205	240	1	115	17:32:08	3126534	5	1	1	1	3	3	3	3	3	6	4	0	0	0	0	4	5
100912	17:32:08	10022	Trial	ResponseCR	14	0	162	0	115	17:32:08	3127960	5	1	1	1	3	3	3	3	3	6	4	0	0	0	0	4	5
100912	17:32:08	10022	Trial	CongruentRight	14	205	275	1	115	17:32:08	3128262	5	1	1	1	3	3	3	3	3	6	4	0	0	0	0	4	5
100912	17:32:08	10022	Trial	ResponseCR	14	0	162	0	115	17:32:08	3129652	5	1	1	1	3	3	3	3	3	6	4	0	0	0	0	4	5
100912	17:32:08	10022	Trial	CongruentRight	14	205	199	1	115	17:32:08	3129878	5	1	1	1	3	3	3	3	3	6	4	0	0	0	0	4	5
100912	17:32:08	10022	Trial	ResponseIL	14	0	162	0	115	17:32:08	3131345	5	1	1	1	3	3	3	3	3	6	4	0	0	0	0	4	5
100912	17:32:08	10022	Trial	IncongruentLeft	14	203	330	1	115	17:32:08	3131702	5	1	1	1	3	3	3	3	3	6	4	0	0	0	0	4	5
100912	17:32:08	10022	Trial	ResponseCL	14	0	162	0	115	17:32:08	3133038	5	1	1	1	3	3	3	3	3	6	4	0	0	0	0	4	5
100912	17:32:08	10022	Trial	CongruentLeft	14	203	350	1	115	17:32:08	3133414	5	1	1	1	3	3	3	3	3	6	4	0	0	0	0	4	5
100912	17:32:08	10022	Trial	ResponseCR	14	0	162	0	115	17:32:08	3134744	5	1	1	1	3	3	3	3	3	6	4	0	0	0	0	4	5
100912	17:32:08	10022	Trial	CongruentRight	14	205	211	1	115	17:32:08	3134982	5	1	1	1	3	3	3	3	3	6	4	0	0	0	0	4	5
100912	17:32:08	10022	Trial	ResponseCL	14	0	162	0	115	17:32:08	3136436	5	1	1	1	3	3	3	3	3	6	4	0	0	0	0	4	5
100912	17:32:08	10022	Trial	CongruentLeft	14	203	279	1	115	17:32:08	3136741	5	1	1	1	3	3	3	3	3	6	4	0	0	0	0	4	5
100912	17:32:08	10022	Trial	ResponseIR	14	0	162	0	115	17:32:08	3138129	5	1	1	1	3	3	3	3	3	6	4	0	0	0	0	4	5
100912	17:32:08	10022	Trial	IncongruentRight	14	205	282	1	115	17:32:08	3138437	5	1	1	1	3	3	3	3	3	6	4	0	0	0	0	4	5
100912	17:32:08	10022	Trial	ResponseCR	14	0	162	0	115	17:32:08	3139822	5	1	1	1	3	3	3	3	3	6	4	0	0	0	0	4	5
100912	17:32:08	10022	Trial	CongruentRight	14	205	205	1	115	17:32:08	3140053	5	1	1	1	3	3	3	3	3	6	4	0	0	0	0	4	5
100912	17:32:08	10022	Trial	ResponseCL	14	0	162	0	115	17:32:08	3141515	5	1	1	1	3	3	3	3	3	6	4	0	0	0	0	4	5
100912	17:32:08	10022	Trial	CongruentLeft	14	203	176	1	115	17:32:08	3141717	5	1	1	1	3	3	3	3	3	6	4	0	0	0	0	4	5
100912	17:32:08	10022	Trial	ResponseIL	14	0	162	0	115	17:32:08	3143207	5	1	1	1	3	3	3	3	3	6	4	0	0	0	0	4	5
100912	17:32:08	10022	Trial	IncongruentLeft	14	205	260	0	115	17:32:08	3143493	5	1	1	1	3	3	3	3	3	6	4	0	0	0	0	4	5
100912	17:32:08	10022	Trial	ResponseIL	14	0	162	0	115	17:32:08	3144900	5	1	1	1	3	3	3	3	3	6	4	0	0	0	0	4	5
100912	17:32:08	10022	Trial	IncongruentLeft	14	203	263	1	115	17:32:08	3145189	5	1	1	1	3	3	3	3	3	6	4	0	0	0	0	4	5
100912	17:32:08	10022	Trial	ResponseCR	14	0	162	0	115	17:32:08	3146592	5	1	1	1	3	3	3	3	3	6	4	0	0	0	0	4	5
100912	17:32:08	10022	Trial	CongruentRight	14	205	170	1	115	17:32:08	3146789	5	1	1	1	3	3	3	3	3	6	4	0	0	0	0	4	5
100912	17:32:08	10022	Trial	ResponseIR	14	0	162	0	115	17:32:08	3148285	5	1	1	1	3	3	3	3	3	6	4	0	0	0	0	4	5
100912	17:32:08	10022	Trial	IncongruentRight	14	203	190	0	115	17:32:08	3148501	5	1	1	1	3	3	3	3	3	6	4	0	0	0	0	4	5
100912	17:32:08	10022	Trial	ResponseCL	14	0	162	0	115	17:32:08	3149978	5	1	1	1	3	3	3	3	3	6	4	0	0	0	0	4	5
100912	17:32:08	10022	Trial	CongruentLeft	14	203	193	1	115	17:32:08	3150197	5	1	1	1	3	3	3	3	3	6	4	0	0	0	0	4	5
100912	17:32:08	10022	Trial	ResponseIR	14	0	162	0	115	17:32:08	3151670	5	1	1	1	3	3	3	3	3	6	4	0	0	0	0	4	5
100912	17:32:08	10022	Trial	IncongruentRight	14	205	292	1	115	17:32:08	3151989	5	1	1	1	3	3	3	3	3	6	4	0	0	0	0	4	5
100912	17:32:08	10022	Trial	ResponseCR	14	0	162	0	115	17:32:08	3153363	5	1	1	1	3	3	3	3	3	6	4	0	0	0	0	4	5
100912	17:32:08	10022	Trial	CongruentRight	14	205	392	1	115	17:32:08	3153781	5	1	1	1	3	3	3	3	3	6	4	0	0	0	0	4	5
100912	17:32:08	10022	Trial	ResponseIL	14	0	162	0	115	17:32:08	3155056	5	1	1	1	3	3	3	3	3	6	4	0	0	0	0	4	5
100912	17:32:08	10022	Trial	IncongruentLeft	14	203	267	1	115	17:32:08	3155349	5	1	1	1	3	3	3	3	3	6	4	0	0	0	0	4	5
100912	17:32:08	10022	Trial	ResponseCL	14	0	162	0	115	17:32:08	3156748	5	1	1	1	3	3	3	3	3	6	4	0	0	0	0	4	5
100912	17:32:08	10022	Trial	CongruentLeft	14	203	334	1	115	17:32:08	3157109	5	1	1	1	3	3	3	3	3	6	4	0	0	0	0	4	5
100912	17:32:08	10022	Trial	ResponseCR	14	0	162	0	115	17:32:08	3158441	5	1	1	1	3	3	3	3	3	6	4	0	0	0	0	4	5
100912	17:32:08	10022	Trial	CongruentRight	14	205	242	1	115	17:32:08	3158709	5	1	1	1	3	3	3	3	3	6	4	0	0	0	0	4	5
100912	17:32:08	10022	Trial	ResponseIL	14	0	162	0	115	17:32:08	3160133	5	1	1	1	3	3	3	3	3	6	4	0	0	0	0	4	5
100912	17:32:08	10022	Trial	IncongruentLeft	14	203	325	1	115	17:32:08	3160485	5	1	1	1	3	3	3	3	3	6	4	0	0	0	0	4	5
100912	17:32:08	10022	Trial	ResponseCR	14	0	162	0	115	17:32:08	3161826	5	1	1	1	3	3	3	3	3	6	4	0	0	0	0	4	5
100912	17:32:08	10022	Trial	CongruentRight	14	205	248	1	115	17:32:08	3162101	5	1	1	1	3	3	3	3	3	6	4	0	0	0	0	4	5
100912	17:32:08	10022	Trial	ResponseCR	14	0	162	0	115	17:32:08	3163519	5	1	1	1	3	3	3	3	3	6	4	0	0	0	0	4	5
100912	17:32:08	10022	Trial	CongruentRight	14	205	188	1	115	17:32:08	3163733	5	1	1	1	3	3	3	3	3	6	4	0	0	0	0	4	5
100912	17:32:08	10022	Trial	ResponseIR	14	0	162	0	115	17:32:08	3165211	5	1	1	1	3	3	3	3	3	6	4	0	0	0	0	4	5
100912	17:32:08	10022	Trial	IncongruentRight	14	203	223	0	115	17:32:08	3165461	5	1	1	1	3	3	3	3	3	6	4	0	0	0	0	4	5
100912	17:32:08	10022	Trial	ResponseCL	14	0	162	0	115	17:32:08	3166904	5	1	1	1	3	3	3	3	3	6	4	0	0	0	0	4	5
100912	17:32:08	10022	Trial	CongruentLeft	14	203	626	1	115	17:32:08	3167557	5	1	1	1	3	3	3	3	3	6	4	0	0	0	0	4	5
100912	17:32:08	10022	Trial	ResponseIL	14	0	162	0	115	17:32:08	3168597	5	1	1	1	3	3	3	3	3	6	4	0	0	0	0	4	5
100912	17:32:08	10022	Trial	IncongruentLeft	14	203	421	1	115	17:32:08	3169045	5	1	1	1	3	3	3	3	3	6	4	0	0	0	0	4	5
100912	17:32:08	10022	Trial	ResponseCL	14	0	162	0	115	17:32:08	3170290	5	1	1	1	3	3	3	3	3	6	4	0	0	0	0	4	5
100912	17:32:08	10022	Trial	CongruentLeft	14	203	473	1	115	17:32:08	3170789	5	1	1	1	3	3	3	3	3	6	4	0	0	0	0	4	5
100912	17:32:08	10022	Trial	ResponseIR	14	0	162	0	115	17:32:08	3171982	5	1	1	1	3	3	3	3	3	6	4	0	0	0	0	4	5
100912	17:32:08	10022	Trial	IncongruentRight	14	205	316	1	115	17:32:08	3172325	5	1	1	1	3	3	3	3	3	6	4	0	0	0	0	4	5
100912	17:32:08	10022	Trial	ResponseIL	14	0	162	0	115	17:32:08	3173675	5	1	1	1	3	3	3	3	3	6	4	0	0	0	0	4	5
100912	17:32:08	10022	Trial	IncongruentLeft	14	203	479	1	115	17:32:08	3174181	5	1	1	1	3	3	3	3	3	6	4	0	0	0	0	4	5
100912	17:32:08	10022	Trial	ResponseCR	14	0	162	0	115	17:32:08	3175367	5	1	1	1	3	3	3	3	3	6	4	0	0	0	0	4	5
100912	17:32:08	10022	Trial	CongruentRight	14	205	211	1	115	17:32:08	3175605	5	1	1	1	3	3	3	3	3	6	4	0	0	0	0	4	5
100912	17:32:08	10022	Trial	ResponseCL	14	0	162	0	115	17:32:08	3177060	5	1	1	1	3	3	3	3	3	6	4	0	0	0	0	4	5
100912	17:32:08	10022	Trial	CongruentLeft	14	203	406	1	115	17:32:08	3177493	5	1	1	1	3	3	3	3	3	6	4	0	0	0	0	4	5
100912	17:32:08	10022	Trial	ResponseIL	14	0	162	0	115	17:32:08	3178753	5	1	1	1	3	3	3	3	3	6	4	0	0	0	0	4	5
100912	17:32:08	10022	Trial	IncongruentLeft	14	203	345	1	115	17:32:08	3179125	5	1	1	1	3	3	3	3	3	6	4	0	0	0	0	4	5
100912	17:32:08	10022	Trial	ResponseCL	14	0	162	0	115	17:32:08	3180445	5	1	1	1	3	3	3	3	3	6	4	0	0	0	0	4	5
100912	17:32:08	10022	Trial	CongruentLeft	14	203	268	1	115	17:32:08	3180740	5	1	1	1	3	3	3	3	3	6	4	0	0	0	0	4	5
100912	17:32:08	10022	Trial	ResponseIR	14	0	162	0	115	17:32:08	3182151	5	1	1	1	3	3	3	3	3	6	4	0	0	0	0	4	5
100912	17:32:08	10022	Trial	IncongruentRight	14	203	243	0	115	17:32:08	3182421	5	1	1	1	3	3	3	3	3	6	4	0	0	0	0	4	5
100912	17:32:08	10022	Trial	ResponseCR	14	0	162	0	115	17:32:08	3183844	5	1	1	1	3	3	3	3	3	6	4	0	0	0	0	4	5
100912	17:32:08	10022	Trial	CongruentRight	14	205	714	1	115	17:32:08	3184584	5	1	1	1	3	3	3	3	3	6	4	0	0	0	0	4	5
100912	17:32:08	10022	Trial	ResponseIL	14	0	162	0	115	17:32:08	3185537	5	1	1	1	3	3	3	3	3	6	4	0	0	0	0	4	5
100912	17:32:08	10022	Trial	IncongruentLeft	14	203	249	1	115	17:32:08	3185812	5	1	1	1	3	3	3	3	3	6	4	0	0	0	0	4	5
100912	17:32:08	10022	Trial	ResponseCL	14	0	162	0	115	17:32:08	3187229	5	1	1	1	3	3	3	3	3	6	4	0	0	0	0	4	5
100912	17:32:08	10022	Trial	CongruentLeft	14	203	188	1	115	17:32:08	3187444	5	1	1	1	3	3	3	3	3	6	4	0	0	0	0	4	5
100912	17:32:08	10022	Trial	ResponseIR	14	0	162	0	115	17:32:08	3188922	5	1	1	1	3	3	3	3	3	6	4	0	0	0	0	4	5
100912	17:32:08	10022	Trial	IncongruentRight	14	205	288	1	115	17:32:08	3189236	5	1	1	1	3	3	3	3	3	6	4	0	0	0	0	4	5
100912	17:32:08	10022	Trial	ResponseIL	14	0	162	0	115	17:32:08	3190615	5	1	1	1	3	3	3	3	3	6	4	0	0	0	0	4	5
100912	17:32:08	10022	Trial	IncongruentLeft	14	203	291	1	115	17:32:08	3190932	5	1	1	1	3	3	3	3	3	6	4	0	0	0	0	4	5
100912	17:32:08	10022	Trial	ResponseCL	14	0	162	0	115	17:32:08	3192307	5	1	1	1	3	3	3	3	3	6	4	0	0	0	0	4	5
100912	17:32:08	10022	Trial	CongruentLeft	14	203	262	1	115	17:32:08	3192596	5	1	1	1	3	3	3	3	3	6	4	0	0	0	0	4	5
100912	17:32:08	10022	Trial	ResponseIL	14	0	162	0	115	17:32:08	3194000	5	1	1	1	3	3	3	3	3	6	4	0	0	0	0	4	5
100912	17:32:08	10022	Trial	IncongruentLeft	14	203	522	1	115	17:32:08	3194548	5	1	1	1	3	3	3	3	3	6	4	0	0	0	0	4	5
100912	17:32:08	10022	Trial	ResponseCR	14	0	162	0	115	17:32:08	3195693	5	1	1	1	3	3	3	3	3	6	4	0	0	0	0	4	5
100912	17:32:08	10022	Trial	CongruentRight	14	205	189	1	115	17:32:08	3195909	5	1	1	1	3	3	3	3	3	6	4	0	0	0	0	4	5
100912	17:32:08	10022	Trial	ResponseCL	14	0	162	0	115	17:32:08	3197385	5	1	1	1	3	3	3	3	3	6	4	0	0	0	0	4	5
100912	17:32:08	10022	Trial	CongruentLeft	14	203	288	1	115	17:32:08	3197700	5	1	1	1	3	3	3	3	3	6	4	0	0	0	0	4	5
100912	17:32:08	10022	Trial	ResponseIR	14	0	162	0	115	17:32:08	3199078	5	1	1	1	3	3	3	3	3	6	4	0	0	0	0	4	5
100912	17:32:08	10022	Trial	IncongruentRight	14	205	308	1	115	17:32:08	3199412	5	1	1	1	3	3	3	3	3	6	4	0	0	0	0	4	5
100912	17:32:08	10022	Trial	ResponseCL	14	0	162	0	115	17:32:08	3200770	5	1	1	1	3	3	3	3	3	6	4	0	0	0	0	4	5
100912	17:32:08	10022	Trial	CongruentLeft	14	203	279	1	115	17:32:08	3201076	5	1	1	1	3	3	3	3	3	6	4	0	0	0	0	4	5
100912	17:32:08	10022	Trial	ResponseCR	14	0	162	0	115	17:32:08	3202463	5	1	1	1	3	3	3	3	3	6	4	0	0	0	0	4	5
100912	17:32:08	10022	Trial	CongruentRight	14	205	202	1	115	17:32:08	3202692	5	1	1	1	3	3	3	3	3	6	4	0	0	0	0	4	5
100912	17:32:08	10022	Trial	ResponseIL	14	0	162	0	115	17:32:08	3204169	5	1	1	1	3	3	3	3	3	6	4	0	0	0	0	4	5
100912	17:32:08	10022	Trial	IncongruentLeft	14	203	225	1	115	17:32:08	3204420	5	1	1	1	3	3	3	3	3	6	4	0	0	0	0	4	5
100912	17:32:08	10022	WordsAbsFrThreemo	PAbsFrThreemo1	16	Abs1	7758	0	115	17:32:08	3224854	5	1	1	1	3	3	3	3	3	6	4	0	0	0	0	4	5
100912	17:32:08	10022	WordsAbsFrThreemo	AbsFrThreemo1	16	Abs1	6034	0	115	17:32:08	3230932	5	1	1	1	3	3	3	3	3	6	4	1	0	0	0	4	5
100912	17:32:08	10022	WordsAbsFrThreemo	AbsFrThreemo2	16	Abs1	4709	0	115	17:32:08	3235676	5	1	1	1	3	3	3	3	3	6	4	2	0	0	0	4	5
100912	17:32:08	10022	WordsAbsFrThreemo	AbsFrThreemo3	16	Abs2	8828	0	115	17:32:08	3244539	5	1	1	1	3	3	3	3	3	6	4	2	0	0	0	4	5
100912	17:32:08	10022	Trial2BackFrS	NS	17	0	1000	1	115	17:32:08	3320562	5	1	1	1	3	3	3	3	3	6	4	2	0	0	0	4	5
100912	17:32:08	10022	Trial2BackFrS	NS	17	0	1000	1	115	17:32:08	3322081	5	1	1	1	3	3	3	3	3	6	4	2	0	0	0	4	5
100912	17:32:08	10022	Trial2BackFrS	NS	17	0	1000	1	115	17:32:08	3323601	5	1	1	1	3	3	3	3	3	6	4	2	0	0	0	4	5
100912	17:32:08	10022	Trial2BackFrS	YS	17	57	569	1	115	17:32:08	3324693	5	1	1	1	3	3	3	3	3	6	4	2	0	0	0	4	5
100912	17:32:08	10022	Trial2BackFrS	NS	17	0	1000	1	115	17:32:08	3326626	5	1	1	1	3	3	3	3	3	6	4	2	0	0	0	4	5
100912	17:32:08	10022	Trial2BackFrS	NS	17	0	1000	1	115	17:32:08	3328146	5	1	1	1	3	3	3	3	3	6	4	2	0	0	0	4	5
100912	17:32:08	10022	Trial2BackFrS	NS	17	0	1000	1	115	17:32:08	3329665	5	1	1	1	3	3	3	3	3	6	4	2	0	0	0	4	5
100912	17:32:08	10022	Trial2BackFrS	NS	17	0	1000	1	115	17:32:08	3331184	5	1	1	1	3	3	3	3	3	6	4	2	0	0	0	4	5
100912	17:32:08	10022	Trial2BackFrS	YS	17	57	713	1	115	17:32:08	3332424	5	1	1	1	3	3	3	3	3	6	4	2	0	0	0	4	5
100912	17:32:08	10022	Trial2BackFrS	NS	17	0	1000	1	115	17:32:08	3334210	5	1	1	1	3	3	3	3	3	6	4	2	0	0	0	4	5
100912	17:32:08	10022	Trial2BackFrS	NS	17	0	1000	1	115	17:32:08	3335729	5	1	1	1	3	3	3	3	3	6	4	2	0	0	0	4	5
100912	17:32:08	10022	Trial2BackFrS	YS	17	0	1000	0	115	17:32:08	3337249	5	1	1	1	3	3	3	3	3	6	4	2	0	0	0	4	5
100912	17:32:08	10022	Trial2BackFrS	NS	17	0	1000	1	115	17:32:08	3338768	5	1	1	1	3	3	3	3	3	6	4	2	0	0	0	4	5
100912	17:32:08	10022	Trial2BackFrS	NS	17	0	1000	1	115	17:32:08	3340287	5	1	1	1	3	3	3	3	3	6	4	2	0	0	0	4	5
100912	17:32:08	10022	Trial2BackFrS	NS	17	0	1000	1	115	17:32:08	3341807	5	1	1	1	3	3	3	3	3	6	4	2	0	0	0	4	5
100912	17:32:08	10022	Trial2BackFrS	YS	17	0	1000	0	115	17:32:08	3343326	5	1	1	1	3	3	3	3	3	6	4	2	0	0	0	4	5
100912	17:32:08	10022	Trial2BackFrS	NS	17	0	1000	1	115	17:32:08	3344845	5	1	1	1	3	3	3	3	3	6	4	2	0	0	0	4	5
100912	17:32:08	10022	Trial2BackFrS	NS	17	0	1000	1	115	17:32:08	3346365	5	1	1	1	3	3	3	3	3	6	4	2	0	0	0	4	5
100912	17:32:08	10022	Trial2BackFrS	NS	17	57	524	0	115	17:32:08	3347418	5	1	1	1	3	3	3	3	3	6	4	2	0	0	0	4	5
100912	17:32:08	10022	Trial2BackFrS	NS	17	0	1000	1	115	17:32:08	3349390	5	1	1	1	3	3	3	3	3	6	4	2	0	0	0	4	5
100912	17:32:08	10022	Trial2BackFrS	YS	17	0	1000	0	115	17:32:08	3350910	5	1	1	1	3	3	3	3	3	6	4	2	0	0	0	4	5
100912	17:32:08	10022	Trial2BackFrS	NS	17	0	1000	1	115	17:32:08	3352429	5	1	1	1	3	3	3	3	3	6	4	2	0	0	0	4	5
100912	17:32:08	10022	Trial2BackFrS	NS	17	0	1000	1	115	17:32:08	3353948	5	1	1	1	3	3	3	3	3	6	4	2	0	0	0	4	5
100912	17:32:08	10022	Trial2BackFrS	NS	17	0	1000	1	115	17:32:08	3355468	5	1	1	1	3	3	3	3	3	6	4	2	0	0	0	4	5
100912	17:32:08	10022	Trial2BackFrS	NS	17	0	1000	1	115	17:32:08	3356987	5	1	1	1	3	3	3	3	3	6	4	2	0	0	0	4	5
100912	17:32:08	10022	Trial2BackFrS	NS	17	0	1000	1	115	17:32:08	3358507	5	1	1	1	3	3	3	3	3	6	4	2	0	0	0	4	5
100912	17:32:08	10022	Trial2BackFrS	NS	17	57	670	0	115	17:32:08	3359706	5	1	1	1	3	3	3	3	3	6	4	2	0	0	0	4	5
100912	17:32:08	10022	Trial2BackFrS	NS	17	0	1000	1	115	17:32:08	3361532	5	1	1	1	3	3	3	3	3	6	4	2	0	0	0	4	5
100912	17:32:08	10022	Trial2BackFrS	NS	17	0	1000	1	115	17:32:08	3363052	5	1	1	1	3	3	3	3	3	6	4	2	0	0	0	4	5
100912	17:32:08	10022	Trial2BackFrS	NS	17	0	1000	1	115	17:32:08	3364571	5	1	1	1	3	3	3	3	3	6	4	2	0	0	0	4	5
100912	17:32:08	10022	Trial2BackFrS	NS	17	0	1000	1	115	17:32:08	3366090	5	1	1	1	3	3	3	3	3	6	4	2	0	0	0	4	5
100912	17:32:08	10022	Trial2BackFrS	YS	17	0	1000	0	115	17:32:08	3367610	5	1	1	1	3	3	3	3	3	6	4	2	0	0	0	4	5
100912	17:32:08	10022	Trial2BackFrS	NS	17	0	1000	1	115	17:32:08	3369129	5	1	1	1	3	3	3	3	3	6	4	2	0	0	0	4	5
100912	17:32:08	10022	Trial2BackFrS	NS	17	0	1000	1	115	17:32:08	3370648	5	1	1	1	3	3	3	3	3	6	4	2	0	0	0	4	5
100912	17:32:08	10022	Trial2BackFrS	NS	17	0	1000	1	115	17:32:08	3372168	5	1	1	1	3	3	3	3	3	6	4	2	0	0	0	4	5
100912	17:32:08	10022	Trial2BackFrS	YS	17	57	721	1	115	17:32:08	3373421	5	1	1	1	3	3	3	3	3	6	4	2	0	0	0	4	5
100912	17:32:08	10022	Trial2BackFrS	NS	17	0	1000	1	115	17:32:08	3375193	5	1	1	1	3	3	3	3	3	6	4	2	0	0	0	4	5
100912	17:32:08	10022	Trial2BackFrS	NS	17	0	1000	1	115	17:32:08	3376713	5	1	1	1	3	3	3	3	3	6	4	2	0	0	0	4	5
100912	17:32:08	10022	Trial2BackFrS	NS	17	0	1000	1	115	17:32:08	3378232	5	1	1	1	3	3	3	3	3	6	4	2	0	0	0	4	5
100912	17:32:08	10022	Trial2BackFrS	NS	17	0	1000	1	115	17:32:08	3379751	5	1	1	1	3	3	3	3	3	6	4	2	0	0	0	4	5
100912	17:32:08	10022	Trial2BackFrS	NS	17	0	1000	1	115	17:32:08	3381271	5	1	1	1	3	3	3	3	3	6	4	2	0	0	0	4	5
100912	17:32:08	10022	Trial2BackFrS	NS	17	0	1000	1	115	17:32:08	3382790	5	1	1	1	3	3	3	3	3	6	4	2	0	0	0	4	5
100912	17:32:08	10022	Trial2BackFrS	NS	17	0	1000	1	115	17:32:08	3384309	5	1	1	1	3	3	3	3	3	6	4	2	0	0	0	4	5
100912	17:32:08	10022	Trial2BackFrS	YS	17	57	595	1	115	17:32:08	3385429	5	1	1	1	3	3	3	3	3	6	4	2	0	0	0	4	5
100912	17:32:08	10022	Trial2BackFrS	NS	17	0	1000	1	115	17:32:08	3387335	5	1	1	1	3	3	3	3	3	6	4	2	0	0	0	4	5
100912	17:32:08	10022	Trial2BackFrS	NS	17	0	1000	1	115	17:32:08	3388854	5	1	1	1	3	3	3	3	3	6	4	2	0	0	0	4	5
100912	17:32:08	10022	Trial2BackFrS	NS	17	0	1000	1	115	17:32:08	3390374	5	1	1	1	3	3	3	3	3	6	4	2	0	0	0	4	5
100912	17:32:08	10022	Trial2BackFrS	NS	17	0	1000	1	115	17:32:08	3391893	5	1	1	1	3	3	3	3	3	6	4	2	0	0	0	4	5
100912	17:32:08	10022	Trial2BackFrS	YS	17	0	1000	0	115	17:32:08	3393412	5	1	1	1	3	3	3	3	3	6	4	2	0	0	0	4	5
100912	17:32:08	10022	Trial2BackFrS	NS	17	0	1000	1	115	17:32:08	3394932	5	1	1	1	3	3	3	3	3	6	4	2	0	0	0	4	5
100912	17:32:08	10022	Trial2BackFrS	NS	17	57	532	0	115	17:32:08	3395998	5	1	1	1	3	3	3	3	3	6	4	2	0	0	0	4	5
100912	17:32:08	10022	Trial2BackFrS	NS	17	0	1000	1	115	17:32:08	3397957	5	1	1	1	3	3	3	3	3	6	4	2	0	0	0	4	5
100912	17:32:08	10022	Trial2BackFrS	NS	17	0	1000	1	115	17:32:08	3399477	5	1	1	1	3	3	3	3	3	6	4	2	0	0	0	4	5
100912	17:32:08	10022	Trial2BackFrS	NS	17	0	1000	1	115	17:32:08	3400996	5	1	1	1	3	3	3	3	3	6	4	2	0	0	0	4	5
100912	17:32:08	10022	Trial2BackFrS	NS	17	0	1000	1	115	17:32:08	3402515	5	1	1	1	3	3	3	3	3	6	4	2	0	0	0	4	5
100912	17:32:08	10022	Trial2BackFrS	YS	17	57	852	1	115	17:32:08	3403902	5	1	1	1	3	3	3	3	3	6	4	2	0	0	0	4	5
100912	17:32:08	10022	Trial2BackFrS	NS	17	0	1000	1	115	17:32:08	3405541	5	1	1	1	3	3	3	3	3	6	4	2	0	0	0	4	5
100912	17:32:08	10022	Trial2BackFrS	NS	17	0	1000	1	115	17:32:08	3407060	5	1	1	1	3	3	3	3	3	6	4	2	0	0	0	4	5
100912	17:32:08	10022	Trial2BackFrS	NS	17	0	1000	1	115	17:32:08	3408580	5	1	1	1	3	3	3	3	3	6	4	2	0	0	0	4	5
100912	17:32:08	10022	Trial2BackFrS	NS	17	0	1000	1	115	17:32:08	3410113	5	1	1	1	3	3	3	3	3	6	4	2	0	0	0	4	5
100912	17:32:08	10022	Trial2BackFrS	NS	17	0	1000	1	115	17:32:08	3411632	5	1	1	1	3	3	3	3	3	6	4	2	0	0	0	4	5
100912	17:32:08	10022	Trial2BackFrS	NS	17	0	1000	1	115	17:32:08	3413151	5	1	1	1	3	3	3	3	3	6	4	2	0	0	0	4	5
100912	17:32:08	10022	Trial2BackFrS	NS	17	0	1000	1	115	17:32:08	3414671	5	1	1	1	3	3	3	3	3	6	4	2	0	0	0	4	5
100912	17:32:08	10022	Trial2BackFrS	YS	17	57	521	1	115	17:32:08	3415723	5	1	1	1	3	3	3	3	3	6	4	2	0	0	0	4	5
100912	17:32:08	10022	Trial2BackFrS	NS	17	0	1000	1	115	17:32:08	3417696	5	1	1	1	3	3	3	3	3	6	4	2	0	0	0	4	5
100912	17:32:08	10022	Trial2BackFrS	NS	17	0	1000	1	115	17:32:08	3419215	5	1	1	1	3	3	3	3	3	6	4	2	0	0	0	4	5
100912	17:32:08	10022	Trial2BackFrS	NS	17	0	1000	1	115	17:32:08	3420735	5	1	1	1	3	3	3	3	3	6	4	2	0	0	0	4	5
100912	17:32:08	10022	Trial2BackFrS	NS	17	0	1000	1	115	17:32:08	3422254	5	1	1	1	3	3	3	3	3	6	4	2	0	0	0	4	5
100912	17:32:08	10022	Trial2BackFrS	YS	17	57	473	1	115	17:32:08	3423254	5	1	1	1	3	3	3	3	3	6	4	2	0	0	0	4	5
100912	17:32:08	10022	Trial2BackFrS	NS	17	0	1000	1	115	17:32:08	3425280	5	1	1	1	3	3	3	3	3	6	4	2	0	0	0	4	5
100912	17:32:08	10022	Trial2BackFrS	NS	17	0	1000	1	115	17:32:08	3426799	5	1	1	1	3	3	3	3	3	6	4	2	0	0	0	4	5
100912	17:32:08	10022	Trial2BackFrS	YS	17	57	632	1	115	17:32:08	3427959	5	1	1	1	3	3	3	3	3	6	4	2	0	0	0	4	5
100912	17:32:08	10022	Trial2BackFrS	NS	17	0	1000	1	115	17:32:08	3429824	5	1	1	1	3	3	3	3	3	6	4	2	0	0	0	4	5
100912	17:32:08	10022	Trial2BackFrS	NS	17	0	1000	1	115	17:32:08	3431344	5	1	1	1	3	3	3	3	3	6	4	2	0	0	0	4	5
100912	17:32:08	10022	Trial2BackFrS	NS	17	0	1000	1	115	17:32:08	3432863	5	1	1	1	3	3	3	3	3	6	4	2	0	0	0	4	5
100912	17:32:08	10022	Trial2BackFrS	NS	17	0	1000	1	115	17:32:08	3434383	5	1	1	1	3	3	3	3	3	6	4	2	0	0	0	4	5
100912	17:32:08	10022	Trial2BackFrS	NS	17	57	728	0	115	17:32:08	3435635	5	1	1	1	3	3	3	3	3	6	4	2	0	0	0	4	5
100912	17:32:08	10022	Trial2BackFrS	NS	17	0	1000	1	115	17:32:08	3437408	5	1	1	1	3	3	3	3	3	6	4	2	0	0	0	4	5
100912	17:32:08	10022	Trial2BackFrS	YS	17	0	1000	0	115	17:32:08	3438927	5	1	1	1	3	3	3	3	3	6	4	2	0	0	0	4	5
100912	17:32:08	10022	Trial2BackFrS	NS	17	0	1000	1	115	17:32:08	3440447	5	1	1	1	3	3	3	3	3	6	4	2	0	0	0	4	5
100912	17:32:08	10022	Trial2BackFrS	NS	17	0	1000	1	115	17:32:08	3441966	5	1	1	1	3	3	3	3	3	6	4	2	0	0	0	4	5
100912	17:32:08	10022	Trial2BackFrS	NS	17	0	1000	1	115	17:32:08	3443485	5	1	1	1	3	3	3	3	3	6	4	2	0	0	0	4	5
100912	17:32:08	10022	Trial2BackFrS	NS	17	57	601	0	115	17:32:08	3444618	5	1	1	1	3	3	3	3	3	6	4	2	0	0	0	4	5
100912	17:32:08	10022	Trial2BackFrS	YS	17	0	1000	0	115	17:32:08	3446511	5	1	1	1	3	3	3	3	3	6	4	2	0	0	0	4	5
100912	17:32:08	10022	Trial2BackFrS	NS	17	57	808	0	115	17:32:08	3447844	5	1	1	1	3	3	3	3	3	6	4	2	0	0	0	4	5
100912	17:32:08	10022	Trial2BackFrS	NS	17	0	1000	1	115	17:32:08	3449537	5	1	1	1	3	3	3	3	3	6	4	2	0	0	0	4	5
100912	17:32:08	10022	Trial2BackFrS	NS	17	0	1000	1	115	17:32:08	3451056	5	1	1	1	3	3	3	3	3	6	4	2	0	0	0	4	5
100912	17:32:08	10022	Trial2BackFrS	NS	17	57	631	0	115	17:32:08	3452215	5	1	1	1	3	3	3	3	3	6	4	2	0	0	0	4	5
100912	17:32:08	10022	Trial2BackFrS	YS	17	0	1000	0	115	17:32:08	3454081	5	1	1	1	3	3	3	3	3	6	4	2	0	0	0	4	5
100912	17:32:08	10022	Trial2BackFrS	NS	17	0	1000	1	115	17:32:08	3455601	5	1	1	1	3	3	3	3	3	6	4	2	0	0	0	4	5
100912	17:32:08	10022	Trial2BackFrS	NS	17	0	1000	1	115	17:32:08	3457120	5	1	1	1	3	3	3	3	3	6	4	2	0	0	0	4	5
100912	17:32:08	10022	Trial2BackFrS	YS	17	57	390	1	115	17:32:08	3458040	5	1	1	1	3	3	3	3	3	6	4	2	0	0	0	4	5
100912	17:32:08	10022	Trial2BackFrS	NS	17	0	1000	1	115	17:32:08	3460146	5	1	1	1	3	3	3	3	3	6	4	2	0	0	0	4	5
100912	17:32:08	10022	Trial2BackFrS	NS	17	0	1000	1	115	17:32:08	3461665	5	1	1	1	3	3	3	3	3	6	4	2	0	0	0	4	5
100912	17:32:08	10022	Trial2BackFrS	NS	17	0	1000	1	115	17:32:08	3463184	5	1	1	1	3	3	3	3	3	6	4	2	0	0	0	4	5
100912	17:32:08	10022	Trial2BackFrS	NS	17	0	1000	1	115	17:32:08	3464704	5	1	1	1	3	3	3	3	3	6	4	2	0	0	0	4	5
100912	17:32:08	10022	Trial2BackFrS	NS	17	0	1000	1	115	17:32:08	3466223	5	1	1	1	3	3	3	3	3	6	4	2	0	0	0	4	5
100912	17:32:08	10022	Trial2BackFrS	NS	17	0	1000	1	115	17:32:08	3467743	5	1	1	1	3	3	3	3	3	6	4	2	0	0	0	4	5
100912	17:32:08	10022	Trial2BackFrS	NS	17	0	1000	1	115	17:32:08	3469262	5	1	1	1	3	3	3	3	3	6	4	2	0	0	0	4	5
100912	17:32:08	10022	Trial2BackFrS	NS	17	57	584	0	115	17:32:08	3470368	5	1	1	1	3	3	3	3	3	6	4	2	0	0	0	4	5
100912	17:32:08	10022	Trial2BackFrS	YS	17	0	1000	0	115	17:32:08	3472287	5	1	1	1	3	3	3	3	3	6	4	2	0	0	0	4	5
100912	17:32:08	10022	Trial2BackFrS	NS	17	0	1000	1	115	17:32:08	3473807	5	1	1	1	3	3	3	3	3	6	4	2	0	0	0	4	5
100912	17:32:08	10022	Trial2BackFrS	NS	17	0	1000	1	115	17:32:08	3475326	5	1	1	1	3	3	3	3	3	6	4	2	0	0	0	4	5
100912	17:32:08	10022	Trial2BackFrS	NS	17	0	1000	1	115	17:32:08	3476845	5	1	1	1	3	3	3	3	3	6	4	2	0	0	0	4	5
100912	17:32:08	10022	Trial2BackFrS	NS	17	0	1000	1	115	17:32:08	3478365	5	1	1	1	3	3	3	3	3	6	4	2	0	0	0	4	5
100912	17:32:08	10022	Trial2BackFrS	NS	17	0	1000	1	115	17:32:08	3479884	5	1	1	1	3	3	3	3	3	6	4	2	0	0	0	4	5
100912	17:32:08	10022	Trial2BackFrS	NS	17	0	1000	1	115	17:32:08	3481404	5	1	1	1	3	3	3	3	3	6	4	2	0	0	0	4	5
100912	17:32:08	10022	Trial2BackFrS	NS	17	0	1000	1	115	17:32:08	3482923	5	1	1	1	3	3	3	3	3	6	4	2	0	0	0	4	5
100912	17:32:08	10022	Trial2BackFrS	YS	17	57	427	1	115	17:32:08	3483883	5	1	1	1	3	3	3	3	3	6	4	2	0	0	0	4	5
100912	17:32:08	10022	Trial2BackFrS	NS	17	0	1000	1	115	17:32:08	3485948	5	1	1	1	3	3	3	3	3	6	4	2	0	0	0	4	5
100912	17:32:08	10022	Trial2BackFrS	NS	17	0	1000	1	115	17:32:08	3487468	5	1	1	1	3	3	3	3	3	6	4	2	0	0	0	4	5
100912	17:32:08	10022	Trial2BackFrS	NS	17	57	762	0	115	17:32:08	3488761	5	1	1	1	3	3	3	3	3	6	4	2	0	0	0	4	5
100912	17:32:08	10022	Trial2BackFrS	NS	17	0	1000	1	115	17:32:08	3490493	5	1	1	1	3	3	3	3	3	6	4	2	0	0	0	4	5
100912	17:32:08	10022	Trial2BackFrS	NS	17	57	552	0	115	17:32:08	3491573	5	1	1	1	3	3	3	3	3	6	4	2	0	0	0	4	5
100912	17:32:08	10022	Trial2BackFrS	NS	17	0	1000	1	115	17:32:08	3493519	5	1	1	1	3	3	3	3	3	6	4	2	0	0	0	4	5
100912	17:32:08	10022	Trial2BackFrS	NS	17	0	1000	1	115	17:32:08	3495038	5	1	1	1	3	3	3	3	3	6	4	2	0	0	0	4	5
100912	17:32:08	10022	Trial2BackFrS	NS	17	0	1000	1	115	17:32:08	3496557	5	1	1	1	3	3	3	3	3	6	4	2	0	0	0	4	5
100912	17:32:08	10022	Trial2BackFrS	NS	17	0	1000	1	115	17:32:08	3498077	5	1	1	1	3	3	3	3	3	6	4	2	0	0	0	4	5
100912	17:32:08	10022	Trial2BackFrS	YS	17	57	601	1	115	17:32:08	3499210	5	1	1	1	3	3	3	3	3	6	4	2	0	0	0	4	5
100912	17:32:08	10022	Trial2BackFrS	NS	17	0	1000	1	115	17:32:08	3501102	5	1	1	1	3	3	3	3	3	6	4	2	0	0	0	4	5
100912	17:32:08	10022	ClockFr3mo	ClockFr3mo	19	Clock1	29264	0	115	17:32:08	3530477	5	1	1	1	3	3	3	3	3	6	4	2	1	0	0	4	5
100912	17:32:08	10022	ClockFr3mo	ClockFr3mo	19	Clock11	492	0	115	17:32:08	3531010	5	1	1	1	3	3	3	3	3	6	4	2	1	1	0	4	5
100912	17:32:08	10022	ClockFr3mo	ClockFr3mo	19	Clock111	711	0	115	17:32:08	3531757	5	1	1	1	3	3	3	3	3	6	4	2	1	1	1	4	5
100912	17:32:08	10022	ClockFr3mo	ClockFr3mo	19	Clockdone	500	0	115	17:32:08	3532303	5	1	1	1	3	3	3	3	3	6	4	2	1	1	1	4	5
100912	17:32:08	10022	FASFrVF3mo	StopFrVF3mo	20	14	5362	0	115	17:32:08	3643033	5	1	1	1	3	3	3	3	3	6	4	2	1	1	1	4	5
