date	time	subject	blockcode	trialcode	values.TaskNumber	response	latency	correct	values.Score	script.starttime	script.elapsedtime	values.ScoreS7	values.Word1	values.Word2	values.Word3	values.Word4	values.Word5	values.Word6	values.Word7	values.Word8	values.DigitSpanFwrd	values.DigitSpanBack	values.ScoreAbs	values.Contour	values.Numbers	values.Hands	values.corsiblockspanFwrd	values.corsiblockspanRev	values.problemnumber	values.subjectattempts	values.targetmoves	values.subjectmoves	expressions.excessmoves	values.movestring	expressions.targetachieved	values.problemscore	values.totalscoreTOL	expressions.firstmovetime	expressions.executiontime	expressions.solutiontime	values.t_choicestart	values.t_choiceend
010513	16:01:21	1	Language	Language	0	English	1938	0	0	16:01:21	2032	0	0	0	0	0	0	0	0	0	0	0	0	0	0	0	0	0	0	0	0	0	0		1	0	0	0	0	0	0	0
010513	16:01:21	1	Session	Session	0	6mo	1312	0	0	16:01:21	3447	0	0	0	0	0	0	0	0	0	0	0	0	0	0	0	0	0	0	0	0	0	0		1	0	0	0	0	0	0	0
010513	16:01:21	1	HandEng	HandEng	0	Left	1207	0	0	16:01:21	4762	0	0	0	0	0	0	0	0	0	0	0	0	0	0	0	0	0	0	0	0	0	0		1	0	0	0	0	0	0	0
010513	16:01:21	1	CubeEng	CubeEng	1	1Cube	2126	0	0	16:01:21	17533	0	0	0	0	0	0	0	0	0	0	0	0	0	0	0	0	0	0	0	0	0	0		1	0	0	0	0	0	0	0
010513	16:01:21	1	pm.simpleEngLeft	blank.simpleEng	2	0	1600	1	0	16:01:21	22062	0	0	0	0	0	0	0	0	0	0	0	0	0	0	0	0	0	0	0	0	0	0		1	0	0	0	0	0	0	0
010513	16:01:21	1	pm.simpleEngLeft	pm.simpleEng	2	57	560	0	0	16:01:21	22777	0	0	0	0	0	0	0	0	0	0	0	0	0	0	0	0	0	0	0	0	0	0		1	0	0	0	0	0	0	0
010513	16:01:21	1	pm.simpleEngLeft	blank.simpleEng	2	0	2200	1	0	16:01:21	25025	0	0	0	0	0	0	0	0	0	0	0	0	0	0	0	0	0	0	0	0	0	0		1	0	0	0	0	0	0	0
010513	16:01:21	1	pm.simpleEngLeft	pm.simpleEng	2	57	262	0	0	16:01:21	25342	0	0	0	0	0	0	0	0	0	0	0	0	0	0	0	0	0	0	0	0	0	0		1	0	0	0	0	0	0	0
010513	16:01:21	1	pm.simpleEngLeft	blank.simpleEng	2	0	1800	1	0	16:01:21	27190	0	0	0	0	0	0	0	0	0	0	0	0	0	0	0	0	0	0	0	0	0	0		1	0	0	0	0	0	0	0
010513	16:01:21	1	pm.simpleEngLeft	pm.simpleEng	2	57	209	0	0	16:01:21	27456	0	0	0	0	0	0	0	0	0	0	0	0	0	0	0	0	0	0	0	0	0	0		1	0	0	0	0	0	0	0
010513	16:01:21	1	pm.simpleEngLeft	blank.simpleEng	2	0	1900	1	0	16:01:21	29404	0	0	0	0	0	0	0	0	0	0	0	0	0	0	0	0	0	0	0	0	0	0		1	0	0	0	0	0	0	0
010513	16:01:21	1	pm.simpleEngLeft	pm.simpleEng	2	57	189	0	0	16:01:21	29654	0	0	0	0	0	0	0	0	0	0	0	0	0	0	0	0	0	0	0	0	0	0		1	0	0	0	0	0	0	0
010513	16:01:21	1	pm.simpleEngLeft	blank.simpleEng	2	0	2500	1	0	16:01:21	32201	0	0	0	0	0	0	0	0	0	0	0	0	0	0	0	0	0	0	0	0	0	0		1	0	0	0	0	0	0	0
010513	16:01:21	1	pm.simpleEngLeft	pm.simpleEng	2	57	210	0	0	16:01:21	32468	0	0	0	0	0	0	0	0	0	0	0	0	0	0	0	0	0	0	0	0	0	0		1	0	0	0	0	0	0	0
010513	16:01:21	1	pm.simpleEngLeft	blank.simpleEng	2	0	2400	1	0	16:01:21	34915	0	0	0	0	0	0	0	0	0	0	0	0	0	0	0	0	0	0	0	0	0	0		1	0	0	0	0	0	0	0
010513	16:01:21	1	pm.simpleEngLeft	pm.simpleEng	2	57	210	0	0	16:01:21	35182	0	0	0	0	0	0	0	0	0	0	0	0	0	0	0	0	0	0	0	0	0	0		1	0	0	0	0	0	0	0
010513	16:01:21	1	pm.simpleEngLeft	blank.simpleEng	2	0	1700	1	0	16:01:21	36930	0	0	0	0	0	0	0	0	0	0	0	0	0	0	0	0	0	0	0	0	0	0		1	0	0	0	0	0	0	0
010513	16:01:21	1	pm.simpleEngLeft	pm.simpleEng	2	57	193	0	0	16:01:21	37180	0	0	0	0	0	0	0	0	0	0	0	0	0	0	0	0	0	0	0	0	0	0		1	0	0	0	0	0	0	0
010513	16:01:21	1	pm.simpleEngLeft	blank.simpleEng	2	0	1500	1	0	16:01:21	38728	0	0	0	0	0	0	0	0	0	0	0	0	0	0	0	0	0	0	0	0	0	0		1	0	0	0	0	0	0	0
010513	16:01:21	1	pm.simpleEngLeft	pm.simpleEng	2	57	204	0	0	16:01:21	38995	0	0	0	0	0	0	0	0	0	0	0	0	0	0	0	0	0	0	0	0	0	0		1	0	0	0	0	0	0	0
010513	16:01:21	1	pm.simpleEngLeft	blank.simpleEng	2	0	2000	1	0	16:01:21	41043	0	0	0	0	0	0	0	0	0	0	0	0	0	0	0	0	0	0	0	0	0	0		1	0	0	0	0	0	0	0
010513	16:01:21	1	pm.simpleEngLeft	pm.simpleEng	2	57	232	0	0	16:01:21	41342	0	0	0	0	0	0	0	0	0	0	0	0	0	0	0	0	0	0	0	0	0	0		1	0	0	0	0	0	0	0
010513	16:01:21	1	pm.simpleEngLeft	blank.simpleEng	2	0	2300	1	0	16:01:21	43690	0	0	0	0	0	0	0	0	0	0	0	0	0	0	0	0	0	0	0	0	0	0		1	0	0	0	0	0	0	0
010513	16:01:21	1	pm.simpleEngLeft	pm.simpleEng	2	57	205	0	0	16:01:21	43956	0	0	0	0	0	0	0	0	0	0	0	0	0	0	0	0	0	0	0	0	0	0		1	0	0	0	0	0	0	0
010513	16:01:21	1	pm.simpleEngLeft	blank.simpleEng	2	0	2100	1	0	16:01:21	46104	0	0	0	0	0	0	0	0	0	0	0	0	0	0	0	0	0	0	0	0	0	0		1	0	0	0	0	0	0	0
010513	16:01:21	1	pm.simpleEngLeft	pm.simpleEng	2	57	237	0	0	16:01:21	46404	0	0	0	0	0	0	0	0	0	0	0	0	0	0	0	0	0	0	0	0	0	0		1	0	0	0	0	0	0	0
010513	16:01:21	1	pm.simpleEngLeft	blank.simpleEng	2	0	2300	1	0	16:01:21	48751	0	0	0	0	0	0	0	0	0	0	0	0	0	0	0	0	0	0	0	0	0	0		1	0	0	0	0	0	0	0
010513	16:01:21	1	pm.simpleEngLeft	pm.simpleEng	2	57	239	0	0	16:01:21	49051	0	0	0	0	0	0	0	0	0	0	0	0	0	0	0	0	0	0	0	0	0	0		1	0	0	0	0	0	0	0
010513	16:01:21	1	pm.simpleEngLeft	blank.simpleEng	2	0	1500	1	0	16:01:21	50600	0	0	0	0	0	0	0	0	0	0	0	0	0	0	0	0	0	0	0	0	0	0		1	0	0	0	0	0	0	0
010513	16:01:21	1	pm.simpleEngLeft	pm.simpleEng	2	57	225	0	0	16:01:21	50883	0	0	0	0	0	0	0	0	0	0	0	0	0	0	0	0	0	0	0	0	0	0		1	0	0	0	0	0	0	0
010513	16:01:21	1	pm.simpleEngLeft	blank.simpleEng	2	0	1700	1	0	16:01:21	52631	0	0	0	0	0	0	0	0	0	0	0	0	0	0	0	0	0	0	0	0	0	0		1	0	0	0	0	0	0	0
010513	16:01:21	1	pm.simpleEngLeft	pm.simpleEng	2	57	221	0	0	16:01:21	52914	0	0	0	0	0	0	0	0	0	0	0	0	0	0	0	0	0	0	0	0	0	0		1	0	0	0	0	0	0	0
010513	16:01:21	1	pm.simpleEngLeft	blank.simpleEng	2	0	2500	1	0	16:01:21	55462	0	0	0	0	0	0	0	0	0	0	0	0	0	0	0	0	0	0	0	0	0	0		1	0	0	0	0	0	0	0
010513	16:01:21	1	pm.simpleEngLeft	pm.simpleEng	2	57	228	0	0	16:01:21	55744	0	0	0	0	0	0	0	0	0	0	0	0	0	0	0	0	0	0	0	0	0	0		1	0	0	0	0	0	0	0
010513	16:01:21	1	pm.simpleEngLeft	blank.simpleEng	2	0	1800	1	0	16:01:21	57593	0	0	0	0	0	0	0	0	0	0	0	0	0	0	0	0	0	0	0	0	0	0		1	0	0	0	0	0	0	0
010513	16:01:21	1	pm.simpleEngLeft	pm.simpleEng	2	57	272	0	0	16:01:21	57926	0	0	0	0	0	0	0	0	0	0	0	0	0	0	0	0	0	0	0	0	0	0		1	0	0	0	0	0	0	0
010513	16:01:21	1	pm.simpleEngLeft	blank.simpleEng	2	0	2400	1	0	16:01:21	60373	0	0	0	0	0	0	0	0	0	0	0	0	0	0	0	0	0	0	0	0	0	0		1	0	0	0	0	0	0	0
010513	16:01:21	1	pm.simpleEngLeft	pm.simpleEng	2	57	186	0	0	16:01:21	60623	0	0	0	0	0	0	0	0	0	0	0	0	0	0	0	0	0	0	0	0	0	0		1	0	0	0	0	0	0	0
010513	16:01:21	1	pm.simpleEngLeft	blank.simpleEng	2	0	1600	1	0	16:01:21	62271	0	0	0	0	0	0	0	0	0	0	0	0	0	0	0	0	0	0	0	0	0	0		1	0	0	0	0	0	0	0
010513	16:01:21	1	pm.simpleEngLeft	pm.simpleEng	2	57	245	0	0	16:01:21	62571	0	0	0	0	0	0	0	0	0	0	0	0	0	0	0	0	0	0	0	0	0	0		1	0	0	0	0	0	0	0
010513	16:01:21	1	pm.simpleEngLeft	blank.simpleEng	2	0	2000	1	0	16:01:21	64619	0	0	0	0	0	0	0	0	0	0	0	0	0	0	0	0	0	0	0	0	0	0		1	0	0	0	0	0	0	0
010513	16:01:21	1	pm.simpleEngLeft	pm.simpleEng	2	57	216	0	0	16:01:21	64902	0	0	0	0	0	0	0	0	0	0	0	0	0	0	0	0	0	0	0	0	0	0		1	0	0	0	0	0	0	0
010513	16:01:21	1	pm.simpleEngLeft	blank.simpleEng	2	0	2200	1	0	16:01:21	67150	0	0	0	0	0	0	0	0	0	0	0	0	0	0	0	0	0	0	0	0	0	0		1	0	0	0	0	0	0	0
010513	16:01:21	1	pm.simpleEngLeft	pm.simpleEng	2	57	207	0	0	16:01:21	67416	0	0	0	0	0	0	0	0	0	0	0	0	0	0	0	0	0	0	0	0	0	0		1	0	0	0	0	0	0	0
010513	16:01:21	1	pm.simpleEngLeft	blank.simpleEng	2	0	1900	1	0	16:01:21	69365	0	0	0	0	0	0	0	0	0	0	0	0	0	0	0	0	0	0	0	0	0	0		1	0	0	0	0	0	0	0
010513	16:01:21	1	pm.simpleEngLeft	pm.simpleEng	2	57	241	0	0	16:01:21	69664	0	0	0	0	0	0	0	0	0	0	0	0	0	0	0	0	0	0	0	0	0	0		1	0	0	0	0	0	0	0
010513	16:01:21	1	pm.simpleEngLeft	blank.simpleEng	2	0	2100	1	0	16:01:21	71812	0	0	0	0	0	0	0	0	0	0	0	0	0	0	0	0	0	0	0	0	0	0		1	0	0	0	0	0	0	0
010513	16:01:21	1	pm.simpleEngLeft	pm.simpleEng	2	57	221	0	0	16:01:21	72095	0	0	0	0	0	0	0	0	0	0	0	0	0	0	0	0	0	0	0	0	0	0		1	0	0	0	0	0	0	0
010513	16:01:21	1	pm.simpleEngLeft	blank.simpleEng	2	0	2000	1	0	16:01:21	74143	0	0	0	0	0	0	0	0	0	0	0	0	0	0	0	0	0	0	0	0	0	0		1	0	0	0	0	0	0	0
010513	16:01:21	1	pm.simpleEngLeft	pm.simpleEng	2	57	198	0	0	16:01:21	74393	0	0	0	0	0	0	0	0	0	0	0	0	0	0	0	0	0	0	0	0	0	0		1	0	0	0	0	0	0	0
010513	16:01:21	1	pm.simpleEngLeft	blank.simpleEng	2	0	2100	1	0	16:01:21	76540	0	0	0	0	0	0	0	0	0	0	0	0	0	0	0	0	0	0	0	0	0	0		1	0	0	0	0	0	0	0
010513	16:01:21	1	pm.simpleEngLeft	pm.simpleEng	2	57	188	0	0	16:01:21	76790	0	0	0	0	0	0	0	0	0	0	0	0	0	0	0	0	0	0	0	0	0	0		1	0	0	0	0	0	0	0
010513	16:01:21	1	pm.simpleEngLeft	blank.simpleEng	2	0	1700	1	0	16:01:21	78538	0	0	0	0	0	0	0	0	0	0	0	0	0	0	0	0	0	0	0	0	0	0		1	0	0	0	0	0	0	0
010513	16:01:21	1	pm.simpleEngLeft	pm.simpleEng	2	57	247	0	0	16:01:21	78838	0	0	0	0	0	0	0	0	0	0	0	0	0	0	0	0	0	0	0	0	0	0		1	0	0	0	0	0	0	0
010513	16:01:21	1	pm.simpleEngLeft	blank.simpleEng	2	0	1900	1	0	16:01:21	80786	0	0	0	0	0	0	0	0	0	0	0	0	0	0	0	0	0	0	0	0	0	0		1	0	0	0	0	0	0	0
010513	16:01:21	1	pm.simpleEngLeft	pm.simpleEng	2	57	209	0	0	16:01:21	81053	0	0	0	0	0	0	0	0	0	0	0	0	0	0	0	0	0	0	0	0	0	0		1	0	0	0	0	0	0	0
010513	16:01:21	1	pm.simpleEngLeft	blank.simpleEng	2	0	1600	1	0	16:01:21	82701	0	0	0	0	0	0	0	0	0	0	0	0	0	0	0	0	0	0	0	0	0	0		1	0	0	0	0	0	0	0
010513	16:01:21	1	pm.simpleEngLeft	pm.simpleEng	2	57	197	0	0	16:01:21	82951	0	0	0	0	0	0	0	0	0	0	0	0	0	0	0	0	0	0	0	0	0	0		1	0	0	0	0	0	0	0
010513	16:01:21	1	pm.simpleEngLeft	blank.simpleEng	2	0	1500	1	0	16:01:21	84499	0	0	0	0	0	0	0	0	0	0	0	0	0	0	0	0	0	0	0	0	0	0		1	0	0	0	0	0	0	0
010513	16:01:21	1	pm.simpleEngLeft	pm.simpleEng	2	57	248	0	0	16:01:21	84799	0	0	0	0	0	0	0	0	0	0	0	0	0	0	0	0	0	0	0	0	0	0		1	0	0	0	0	0	0	0
010513	16:01:21	1	pm.simpleEngLeft	blank.simpleEng	2	0	2500	1	0	16:01:21	87346	0	0	0	0	0	0	0	0	0	0	0	0	0	0	0	0	0	0	0	0	0	0		1	0	0	0	0	0	0	0
010513	16:01:21	1	pm.simpleEngLeft	pm.simpleEng	2	57	239	0	0	16:01:21	87646	0	0	0	0	0	0	0	0	0	0	0	0	0	0	0	0	0	0	0	0	0	0		1	0	0	0	0	0	0	0
010513	16:01:21	1	pm.simpleEngLeft	blank.simpleEng	2	0	2300	1	0	16:01:21	89994	0	0	0	0	0	0	0	0	0	0	0	0	0	0	0	0	0	0	0	0	0	0		1	0	0	0	0	0	0	0
010513	16:01:21	1	pm.simpleEngLeft	pm.simpleEng	2	57	236	0	0	16:01:21	90293	0	0	0	0	0	0	0	0	0	0	0	0	0	0	0	0	0	0	0	0	0	0		1	0	0	0	0	0	0	0
010513	16:01:21	1	pm.simpleEngLeft	blank.simpleEng	2	0	1800	1	0	16:01:21	92141	0	0	0	0	0	0	0	0	0	0	0	0	0	0	0	0	0	0	0	0	0	0		1	0	0	0	0	0	0	0
010513	16:01:21	1	pm.simpleEngLeft	pm.simpleEng	2	57	248	0	0	16:01:21	92441	0	0	0	0	0	0	0	0	0	0	0	0	0	0	0	0	0	0	0	0	0	0		1	0	0	0	0	0	0	0
010513	16:01:21	1	pm.simpleEngLeft	blank.simpleEng	2	0	2200	1	0	16:01:21	94689	0	0	0	0	0	0	0	0	0	0	0	0	0	0	0	0	0	0	0	0	0	0		1	0	0	0	0	0	0	0
010513	16:01:21	1	pm.simpleEngLeft	pm.simpleEng	2	57	187	0	0	16:01:21	94939	0	0	0	0	0	0	0	0	0	0	0	0	0	0	0	0	0	0	0	0	0	0		1	0	0	0	0	0	0	0
010513	16:01:21	1	pm.simpleEngLeft	blank.simpleEng	2	0	2400	1	0	16:01:21	97386	0	0	0	0	0	0	0	0	0	0	0	0	0	0	0	0	0	0	0	0	0	0		1	0	0	0	0	0	0	0
010513	16:01:21	1	pm.simpleEngLeft	pm.simpleEng	2	57	258	0	0	16:01:21	97703	0	0	0	0	0	0	0	0	0	0	0	0	0	0	0	0	0	0	0	0	0	0		1	0	0	0	0	0	0	0
010513	16:01:21	1	pm.simpleEngLeft	blank.simpleEng	2	0	2000	1	0	16:01:21	99751	0	0	0	0	0	0	0	0	0	0	0	0	0	0	0	0	0	0	0	0	0	0		1	0	0	0	0	0	0	0
010513	16:01:21	1	pm.simpleEngLeft	pm.simpleEng	2	57	217	0	0	16:01:21	100034	0	0	0	0	0	0	0	0	0	0	0	0	0	0	0	0	0	0	0	0	0	0		1	0	0	0	0	0	0	0
010513	16:01:21	1	pm.simpleEngLeft	blank.simpleEng	2	0	2300	1	0	16:01:21	102381	0	0	0	0	0	0	0	0	0	0	0	0	0	0	0	0	0	0	0	0	0	0		1	0	0	0	0	0	0	0
010513	16:01:21	1	pm.simpleEngLeft	pm.simpleEng	2	57	220	0	0	16:01:21	102664	0	0	0	0	0	0	0	0	0	0	0	0	0	0	0	0	0	0	0	0	0	0		1	0	0	0	0	0	0	0
010513	16:01:21	1	pm.simpleEngLeft	blank.simpleEng	2	0	1700	1	0	16:01:21	104413	0	0	0	0	0	0	0	0	0	0	0	0	0	0	0	0	0	0	0	0	0	0		1	0	0	0	0	0	0	0
010513	16:01:21	1	pm.simpleEngLeft	pm.simpleEng	2	57	275	0	0	16:01:21	104746	0	0	0	0	0	0	0	0	0	0	0	0	0	0	0	0	0	0	0	0	0	0		1	0	0	0	0	0	0	0
010513	16:01:21	1	pm.simpleEngLeft	blank.simpleEng	2	0	1900	1	0	16:01:21	106694	0	0	0	0	0	0	0	0	0	0	0	0	0	0	0	0	0	0	0	0	0	0		1	0	0	0	0	0	0	0
010513	16:01:21	1	pm.simpleEngLeft	pm.simpleEng	2	57	193	0	0	16:01:21	106943	0	0	0	0	0	0	0	0	0	0	0	0	0	0	0	0	0	0	0	0	0	0		1	0	0	0	0	0	0	0
010513	16:01:21	1	pm.simpleEngLeft	blank.simpleEng	2	0	2500	1	0	16:01:21	109491	0	0	0	0	0	0	0	0	0	0	0	0	0	0	0	0	0	0	0	0	0	0		1	0	0	0	0	0	0	0
010513	16:01:21	1	pm.simpleEngLeft	pm.simpleEng	2	57	268	0	0	16:01:21	109824	0	0	0	0	0	0	0	0	0	0	0	0	0	0	0	0	0	0	0	0	0	0		1	0	0	0	0	0	0	0
010513	16:01:21	1	pm.simpleEngLeft	blank.simpleEng	2	0	1800	1	0	16:01:21	111672	0	0	0	0	0	0	0	0	0	0	0	0	0	0	0	0	0	0	0	0	0	0		1	0	0	0	0	0	0	0
010513	16:01:21	1	pm.simpleEngLeft	pm.simpleEng	2	57	237	0	0	16:01:21	111972	0	0	0	0	0	0	0	0	0	0	0	0	0	0	0	0	0	0	0	0	0	0		1	0	0	0	0	0	0	0
010513	16:01:21	1	pm.simpleEngLeft	blank.simpleEng	2	0	1500	1	0	16:01:21	113520	0	0	0	0	0	0	0	0	0	0	0	0	0	0	0	0	0	0	0	0	0	0		1	0	0	0	0	0	0	0
010513	16:01:21	1	pm.simpleEngLeft	pm.simpleEng	2	57	268	0	0	16:01:21	113853	0	0	0	0	0	0	0	0	0	0	0	0	0	0	0	0	0	0	0	0	0	0		1	0	0	0	0	0	0	0
010513	16:01:21	1	Trial2BackEng	N	3	0	1000	1	1	16:01:21	134782	0	0	0	0	0	0	0	0	0	0	0	0	0	0	0	0	0	0	0	0	0	0		1	0	0	0	0	0	0	0
010513	16:01:21	1	Trial2BackEng	N	3	0	1000	1	2	16:01:21	136297	0	0	0	0	0	0	0	0	0	0	0	0	0	0	0	0	0	0	0	0	0	0		1	0	0	0	0	0	0	0
010513	16:01:21	1	Trial2BackEng	N	3	0	1000	1	3	16:01:21	137813	0	0	0	0	0	0	0	0	0	0	0	0	0	0	0	0	0	0	0	0	0	0		1	0	0	0	0	0	0	0
010513	16:01:21	1	Trial2BackEng	N	3	0	1000	1	4	16:01:21	139328	0	0	0	0	0	0	0	0	0	0	0	0	0	0	0	0	0	0	0	0	0	0		1	0	0	0	0	0	0	0
010513	16:01:21	1	Trial2BackEng	N	3	0	1000	1	5	16:01:21	140843	0	0	0	0	0	0	0	0	0	0	0	0	0	0	0	0	0	0	0	0	0	0		1	0	0	0	0	0	0	0
010513	16:01:21	1	Trial2BackEng	N	3	0	1000	1	6	16:01:21	142358	0	0	0	0	0	0	0	0	0	0	0	0	0	0	0	0	0	0	0	0	0	0		1	0	0	0	0	0	0	0
010513	16:01:21	1	Trial2BackEng	N	3	0	1000	1	7	16:01:21	143873	0	0	0	0	0	0	0	0	0	0	0	0	0	0	0	0	0	0	0	0	0	0		1	0	0	0	0	0	0	0
010513	16:01:21	1	Trial2BackEng	N	3	0	1000	1	8	16:01:21	145388	0	0	0	0	0	0	0	0	0	0	0	0	0	0	0	0	0	0	0	0	0	0		1	0	0	0	0	0	0	0
010513	16:01:21	1	Trial2BackEng	Y	3	0	1000	0	8	16:01:21	146903	0	0	0	0	0	0	0	0	0	0	0	0	0	0	0	0	0	0	0	0	0	0		1	0	0	0	0	0	0	0
010513	16:01:21	1	Trial2BackEng	N	3	0	1000	1	9	16:01:21	148419	0	0	0	0	0	0	0	0	0	0	0	0	0	0	0	0	0	0	0	0	0	0		1	0	0	0	0	0	0	0
010513	16:01:21	1	Trial2BackEng	N	3	0	1000	1	10	16:01:21	149934	0	0	0	0	0	0	0	0	0	0	0	0	0	0	0	0	0	0	0	0	0	0		1	0	0	0	0	0	0	0
010513	16:01:21	1	Trial2BackEng	N	3	0	1000	1	11	16:01:21	151449	0	0	0	0	0	0	0	0	0	0	0	0	0	0	0	0	0	0	0	0	0	0		1	0	0	0	0	0	0	0
010513	16:01:21	1	Trial2BackEng	Y	3	0	1000	0	11	16:01:21	152964	0	0	0	0	0	0	0	0	0	0	0	0	0	0	0	0	0	0	0	0	0	0		1	0	0	0	0	0	0	0
010513	16:01:21	1	Trial2BackEng	N	3	0	1000	1	12	16:01:21	154479	0	0	0	0	0	0	0	0	0	0	0	0	0	0	0	0	0	0	0	0	0	0		1	0	0	0	0	0	0	0
010513	16:01:21	1	Trial2BackEng	N	3	0	1000	1	13	16:01:21	155994	0	0	0	0	0	0	0	0	0	0	0	0	0	0	0	0	0	0	0	0	0	0		1	0	0	0	0	0	0	0
010513	16:01:21	1	Trial2BackEng	N	3	0	1000	1	14	16:01:21	157510	0	0	0	0	0	0	0	0	0	0	0	0	0	0	0	0	0	0	0	0	0	0		1	0	0	0	0	0	0	0
010513	16:01:21	1	Trial2BackEng	N	3	0	1000	1	15	16:01:21	159025	0	0	0	0	0	0	0	0	0	0	0	0	0	0	0	0	0	0	0	0	0	0		1	0	0	0	0	0	0	0
010513	16:01:21	1	Trial2BackEng	N	3	0	1000	1	16	16:01:21	160540	0	0	0	0	0	0	0	0	0	0	0	0	0	0	0	0	0	0	0	0	0	0		1	0	0	0	0	0	0	0
010513	16:01:21	1	Trial2BackEng	Y	3	0	1000	0	16	16:01:21	162055	0	0	0	0	0	0	0	0	0	0	0	0	0	0	0	0	0	0	0	0	0	0		1	0	0	0	0	0	0	0
010513	16:01:21	1	Trial2BackEng	N	3	0	1000	1	17	16:01:21	163570	0	0	0	0	0	0	0	0	0	0	0	0	0	0	0	0	0	0	0	0	0	0		1	0	0	0	0	0	0	0
010513	16:01:21	1	Trial2BackEng	N	3	0	1000	1	18	16:01:21	165085	0	0	0	0	0	0	0	0	0	0	0	0	0	0	0	0	0	0	0	0	0	0		1	0	0	0	0	0	0	0
010513	16:01:21	1	Trial2BackEng	N	3	0	1000	1	19	16:01:21	166600	0	0	0	0	0	0	0	0	0	0	0	0	0	0	0	0	0	0	0	0	0	0		1	0	0	0	0	0	0	0
010513	16:01:21	1	Trial2BackEng	N	3	0	1000	1	20	16:01:21	168116	0	0	0	0	0	0	0	0	0	0	0	0	0	0	0	0	0	0	0	0	0	0		1	0	0	0	0	0	0	0
010513	16:01:21	1	Trial2BackEng	Y	3	0	1000	0	20	16:01:21	169631	0	0	0	0	0	0	0	0	0	0	0	0	0	0	0	0	0	0	0	0	0	0		1	0	0	0	0	0	0	0
010513	16:01:21	1	Trial2BackEng	N	3	0	1000	1	21	16:01:21	171146	0	0	0	0	0	0	0	0	0	0	0	0	0	0	0	0	0	0	0	0	0	0		1	0	0	0	0	0	0	0
010513	16:01:21	1	Trial2BackEng	N	3	0	1000	1	22	16:01:21	172661	0	0	0	0	0	0	0	0	0	0	0	0	0	0	0	0	0	0	0	0	0	0		1	0	0	0	0	0	0	0
010513	16:01:21	1	Trial2BackEng	N	3	0	1000	1	23	16:01:21	174176	0	0	0	0	0	0	0	0	0	0	0	0	0	0	0	0	0	0	0	0	0	0		1	0	0	0	0	0	0	0
010513	16:01:21	1	Trial2BackEng	N	3	0	1000	1	24	16:01:21	175691	0	0	0	0	0	0	0	0	0	0	0	0	0	0	0	0	0	0	0	0	0	0		1	0	0	0	0	0	0	0
010513	16:01:21	1	Trial2BackEng	N	3	0	1000	1	25	16:01:21	177207	0	0	0	0	0	0	0	0	0	0	0	0	0	0	0	0	0	0	0	0	0	0		1	0	0	0	0	0	0	0
010513	16:01:21	1	Trial2BackEng	N	3	0	1000	1	26	16:01:21	178722	0	0	0	0	0	0	0	0	0	0	0	0	0	0	0	0	0	0	0	0	0	0		1	0	0	0	0	0	0	0
010513	16:01:21	1	Trial2BackEng	Y	3	0	1000	0	26	16:01:21	180237	0	0	0	0	0	0	0	0	0	0	0	0	0	0	0	0	0	0	0	0	0	0		1	0	0	0	0	0	0	0
010513	16:01:21	1	Trial2BackEng	N	3	0	1000	1	27	16:01:21	181752	0	0	0	0	0	0	0	0	0	0	0	0	0	0	0	0	0	0	0	0	0	0		1	0	0	0	0	0	0	0
010513	16:01:21	1	Trial2BackEng	N	3	0	1000	1	28	16:01:21	183267	0	0	0	0	0	0	0	0	0	0	0	0	0	0	0	0	0	0	0	0	0	0		1	0	0	0	0	0	0	0
010513	16:01:21	1	Trial2BackEng	N	3	0	1000	1	29	16:01:21	184782	0	0	0	0	0	0	0	0	0	0	0	0	0	0	0	0	0	0	0	0	0	0		1	0	0	0	0	0	0	0
010513	16:01:21	1	Trial2BackEng	Y	3	0	1000	0	29	16:01:21	186297	0	0	0	0	0	0	0	0	0	0	0	0	0	0	0	0	0	0	0	0	0	0		1	0	0	0	0	0	0	0
010513	16:01:21	1	Trial2BackEng	N	3	0	1000	1	30	16:01:21	187813	0	0	0	0	0	0	0	0	0	0	0	0	0	0	0	0	0	0	0	0	0	0		1	0	0	0	0	0	0	0
010513	16:01:21	1	Trial2BackEng	N	3	0	1000	1	31	16:01:21	189328	0	0	0	0	0	0	0	0	0	0	0	0	0	0	0	0	0	0	0	0	0	0		1	0	0	0	0	0	0	0
010513	16:01:21	1	Trial2BackEng	N	3	0	1000	1	32	16:01:21	190843	0	0	0	0	0	0	0	0	0	0	0	0	0	0	0	0	0	0	0	0	0	0		1	0	0	0	0	0	0	0
010513	16:01:21	1	Trial2BackEng	N	3	0	1000	1	33	16:01:21	192358	0	0	0	0	0	0	0	0	0	0	0	0	0	0	0	0	0	0	0	0	0	0		1	0	0	0	0	0	0	0
010513	16:01:21	1	Trial2BackEng	N	3	0	1000	1	34	16:01:21	193873	0	0	0	0	0	0	0	0	0	0	0	0	0	0	0	0	0	0	0	0	0	0		1	0	0	0	0	0	0	0
010513	16:01:21	1	Trial2BackEng	N	3	0	1000	1	35	16:01:21	195388	0	0	0	0	0	0	0	0	0	0	0	0	0	0	0	0	0	0	0	0	0	0		1	0	0	0	0	0	0	0
010513	16:01:21	1	Trial2BackEng	Y	3	0	1000	0	35	16:01:21	196904	0	0	0	0	0	0	0	0	0	0	0	0	0	0	0	0	0	0	0	0	0	0		1	0	0	0	0	0	0	0
010513	16:01:21	1	Trial2BackEng	N	3	0	1000	1	36	16:01:21	198419	0	0	0	0	0	0	0	0	0	0	0	0	0	0	0	0	0	0	0	0	0	0		1	0	0	0	0	0	0	0
010513	16:01:21	1	Trial2BackEng	N	3	0	1000	1	37	16:01:21	199934	0	0	0	0	0	0	0	0	0	0	0	0	0	0	0	0	0	0	0	0	0	0		1	0	0	0	0	0	0	0
010513	16:01:21	1	Trial2BackEng	N	3	0	1000	1	38	16:01:21	201449	0	0	0	0	0	0	0	0	0	0	0	0	0	0	0	0	0	0	0	0	0	0		1	0	0	0	0	0	0	0
010513	16:01:21	1	Trial2BackEng	N	3	0	1000	1	39	16:01:21	202964	0	0	0	0	0	0	0	0	0	0	0	0	0	0	0	0	0	0	0	0	0	0		1	0	0	0	0	0	0	0
010513	16:01:21	1	Trial2BackEng	Y	3	0	1000	0	39	16:01:21	204479	0	0	0	0	0	0	0	0	0	0	0	0	0	0	0	0	0	0	0	0	0	0		1	0	0	0	0	0	0	0
010513	16:01:21	1	Trial2BackEng	N	3	0	1000	1	40	16:01:21	205994	0	0	0	0	0	0	0	0	0	0	0	0	0	0	0	0	0	0	0	0	0	0		1	0	0	0	0	0	0	0
010513	16:01:21	1	Trial2BackEng	N	3	0	1000	1	41	16:01:21	207510	0	0	0	0	0	0	0	0	0	0	0	0	0	0	0	0	0	0	0	0	0	0		1	0	0	0	0	0	0	0
010513	16:01:21	1	Trial2BackEng	N	3	0	1000	1	42	16:01:21	209025	0	0	0	0	0	0	0	0	0	0	0	0	0	0	0	0	0	0	0	0	0	0		1	0	0	0	0	0	0	0
010513	16:01:21	1	Trial2BackEng	N	3	0	1000	1	43	16:01:21	210540	0	0	0	0	0	0	0	0	0	0	0	0	0	0	0	0	0	0	0	0	0	0		1	0	0	0	0	0	0	0
010513	16:01:21	1	Trial2BackEng	N	3	0	1000	1	44	16:01:21	212055	0	0	0	0	0	0	0	0	0	0	0	0	0	0	0	0	0	0	0	0	0	0		1	0	0	0	0	0	0	0
010513	16:01:21	1	Trial2BackEng	Y	3	0	1000	0	44	16:01:21	213570	0	0	0	0	0	0	0	0	0	0	0	0	0	0	0	0	0	0	0	0	0	0		1	0	0	0	0	0	0	0
010513	16:01:21	1	Trial2BackEng	N	3	0	1000	1	45	16:01:21	215085	0	0	0	0	0	0	0	0	0	0	0	0	0	0	0	0	0	0	0	0	0	0		1	0	0	0	0	0	0	0
010513	16:01:21	1	Trial2BackEng	N	3	0	1000	1	46	16:01:21	216601	0	0	0	0	0	0	0	0	0	0	0	0	0	0	0	0	0	0	0	0	0	0		1	0	0	0	0	0	0	0
010513	16:01:21	1	Trial2BackEng	N	3	0	1000	1	47	16:01:21	218116	0	0	0	0	0	0	0	0	0	0	0	0	0	0	0	0	0	0	0	0	0	0		1	0	0	0	0	0	0	0
010513	16:01:21	1	Trial2BackEng	N	3	0	1000	1	48	16:01:21	219631	0	0	0	0	0	0	0	0	0	0	0	0	0	0	0	0	0	0	0	0	0	0		1	0	0	0	0	0	0	0
010513	16:01:21	1	Trial2BackEng	N	3	0	1000	1	49	16:01:21	221146	0	0	0	0	0	0	0	0	0	0	0	0	0	0	0	0	0	0	0	0	0	0		1	0	0	0	0	0	0	0
010513	16:01:21	1	Trial2BackEng	N	3	0	1000	1	50	16:01:21	222661	0	0	0	0	0	0	0	0	0	0	0	0	0	0	0	0	0	0	0	0	0	0		1	0	0	0	0	0	0	0
010513	16:01:21	1	Trial2BackEng	Y	3	0	1000	0	50	16:01:21	224176	0	0	0	0	0	0	0	0	0	0	0	0	0	0	0	0	0	0	0	0	0	0		1	0	0	0	0	0	0	0
010513	16:01:21	1	Trial2BackEng	N	3	0	1000	1	51	16:01:21	225691	0	0	0	0	0	0	0	0	0	0	0	0	0	0	0	0	0	0	0	0	0	0		1	0	0	0	0	0	0	0
010513	16:01:21	1	Trial2BackEng	N	3	0	1000	1	52	16:01:21	227207	0	0	0	0	0	0	0	0	0	0	0	0	0	0	0	0	0	0	0	0	0	0		1	0	0	0	0	0	0	0
010513	16:01:21	1	Trial2BackEng	Y	3	0	1000	0	52	16:01:21	228722	0	0	0	0	0	0	0	0	0	0	0	0	0	0	0	0	0	0	0	0	0	0		1	0	0	0	0	0	0	0
010513	16:01:21	1	Trial2BackEng	N	3	0	1000	1	53	16:01:21	230237	0	0	0	0	0	0	0	0	0	0	0	0	0	0	0	0	0	0	0	0	0	0		1	0	0	0	0	0	0	0
010513	16:01:21	1	Trial2BackEng	N	3	0	1000	1	54	16:01:21	231752	0	0	0	0	0	0	0	0	0	0	0	0	0	0	0	0	0	0	0	0	0	0		1	0	0	0	0	0	0	0
010513	16:01:21	1	Trial2BackEng	N	3	0	1000	1	55	16:01:21	233267	0	0	0	0	0	0	0	0	0	0	0	0	0	0	0	0	0	0	0	0	0	0		1	0	0	0	0	0	0	0
010513	16:01:21	1	Trial2BackEng	N	3	0	1000	1	56	16:01:21	234782	0	0	0	0	0	0	0	0	0	0	0	0	0	0	0	0	0	0	0	0	0	0		1	0	0	0	0	0	0	0
010513	16:01:21	1	Trial2BackEng	N	3	0	1000	1	57	16:01:21	236298	0	0	0	0	0	0	0	0	0	0	0	0	0	0	0	0	0	0	0	0	0	0		1	0	0	0	0	0	0	0
010513	16:01:21	1	Trial2BackEng	N	3	0	1000	1	58	16:01:21	237813	0	0	0	0	0	0	0	0	0	0	0	0	0	0	0	0	0	0	0	0	0	0		1	0	0	0	0	0	0	0
010513	16:01:21	1	Trial2BackEng	N	3	0	1000	1	59	16:01:21	239328	0	0	0	0	0	0	0	0	0	0	0	0	0	0	0	0	0	0	0	0	0	0		1	0	0	0	0	0	0	0
010513	16:01:21	1	Trial2BackEng	N	3	0	1000	1	60	16:01:21	240843	0	0	0	0	0	0	0	0	0	0	0	0	0	0	0	0	0	0	0	0	0	0		1	0	0	0	0	0	0	0
010513	16:01:21	1	Trial2BackEng	N	3	0	1000	1	61	16:01:21	242358	0	0	0	0	0	0	0	0	0	0	0	0	0	0	0	0	0	0	0	0	0	0		1	0	0	0	0	0	0	0
010513	16:01:21	1	Trial2BackEng	N	3	0	1000	1	62	16:01:21	243873	0	0	0	0	0	0	0	0	0	0	0	0	0	0	0	0	0	0	0	0	0	0		1	0	0	0	0	0	0	0
010513	16:01:21	1	Trial2BackEng	Y	3	0	1000	0	62	16:01:21	245388	0	0	0	0	0	0	0	0	0	0	0	0	0	0	0	0	0	0	0	0	0	0		1	0	0	0	0	0	0	0
010513	16:01:21	1	Trial2BackEng	N	3	0	1000	1	63	16:01:21	246904	0	0	0	0	0	0	0	0	0	0	0	0	0	0	0	0	0	0	0	0	0	0		1	0	0	0	0	0	0	0
010513	16:01:21	1	Trial2BackEng	N	3	0	1000	1	64	16:01:21	248419	0	0	0	0	0	0	0	0	0	0	0	0	0	0	0	0	0	0	0	0	0	0		1	0	0	0	0	0	0	0
010513	16:01:21	1	Trial2BackEng	N	3	0	1000	1	65	16:01:21	249934	0	0	0	0	0	0	0	0	0	0	0	0	0	0	0	0	0	0	0	0	0	0		1	0	0	0	0	0	0	0
010513	16:01:21	1	Trial2BackEng	Y	3	0	1000	0	65	16:01:21	251449	0	0	0	0	0	0	0	0	0	0	0	0	0	0	0	0	0	0	0	0	0	0		1	0	0	0	0	0	0	0
010513	16:01:21	1	Trial2BackEng	N	3	0	1000	1	66	16:01:21	252964	0	0	0	0	0	0	0	0	0	0	0	0	0	0	0	0	0	0	0	0	0	0		1	0	0	0	0	0	0	0
010513	16:01:21	1	Trial2BackEng	N	3	0	1000	1	67	16:01:21	254479	0	0	0	0	0	0	0	0	0	0	0	0	0	0	0	0	0	0	0	0	0	0		1	0	0	0	0	0	0	0
010513	16:01:21	1	Trial2BackEng	N	3	0	1000	1	68	16:01:21	255995	0	0	0	0	0	0	0	0	0	0	0	0	0	0	0	0	0	0	0	0	0	0		1	0	0	0	0	0	0	0
010513	16:01:21	1	Trial2BackEng	N	3	0	1000	1	69	16:01:21	257510	0	0	0	0	0	0	0	0	0	0	0	0	0	0	0	0	0	0	0	0	0	0		1	0	0	0	0	0	0	0
010513	16:01:21	1	Trial2BackEng	N	3	0	1000	1	70	16:01:21	259025	0	0	0	0	0	0	0	0	0	0	0	0	0	0	0	0	0	0	0	0	0	0		1	0	0	0	0	0	0	0
010513	16:01:21	1	Trial2BackEng	Y	3	0	1000	0	70	16:01:21	260540	0	0	0	0	0	0	0	0	0	0	0	0	0	0	0	0	0	0	0	0	0	0		1	0	0	0	0	0	0	0
010513	16:01:21	1	Trial2BackEng	N	3	0	1000	1	71	16:01:21	262055	0	0	0	0	0	0	0	0	0	0	0	0	0	0	0	0	0	0	0	0	0	0		1	0	0	0	0	0	0	0
010513	16:01:21	1	Trial2BackEng	N	3	0	1000	1	72	16:01:21	263570	0	0	0	0	0	0	0	0	0	0	0	0	0	0	0	0	0	0	0	0	0	0		1	0	0	0	0	0	0	0
010513	16:01:21	1	Trial2BackEng	N	3	0	1000	1	73	16:01:21	265085	0	0	0	0	0	0	0	0	0	0	0	0	0	0	0	0	0	0	0	0	0	0		1	0	0	0	0	0	0	0
010513	16:01:21	1	Trial2BackEng	N	3	0	1000	1	74	16:01:21	266601	0	0	0	0	0	0	0	0	0	0	0	0	0	0	0	0	0	0	0	0	0	0		1	0	0	0	0	0	0	0
010513	16:01:21	1	Trial2BackEng	N	3	0	1000	1	75	16:01:21	268116	0	0	0	0	0	0	0	0	0	0	0	0	0	0	0	0	0	0	0	0	0	0		1	0	0	0	0	0	0	0
010513	16:01:21	1	Trial2BackEng	N	3	0	1000	1	76	16:01:21	269631	0	0	0	0	0	0	0	0	0	0	0	0	0	0	0	0	0	0	0	0	0	0		1	0	0	0	0	0	0	0
010513	16:01:21	1	Trial2BackEng	N	3	0	1000	1	77	16:01:21	271146	0	0	0	0	0	0	0	0	0	0	0	0	0	0	0	0	0	0	0	0	0	0		1	0	0	0	0	0	0	0
010513	16:01:21	1	Trial2BackEng	N	3	0	1000	1	78	16:01:21	272661	0	0	0	0	0	0	0	0	0	0	0	0	0	0	0	0	0	0	0	0	0	0		1	0	0	0	0	0	0	0
010513	16:01:21	1	Trial2BackEng	N	3	0	1000	1	79	16:01:21	274176	0	0	0	0	0	0	0	0	0	0	0	0	0	0	0	0	0	0	0	0	0	0		1	0	0	0	0	0	0	0
010513	16:01:21	1	Trial2BackEng	Y	3	0	1000	0	79	16:01:21	275692	0	0	0	0	0	0	0	0	0	0	0	0	0	0	0	0	0	0	0	0	0	0		1	0	0	0	0	0	0	0
010513	16:01:21	1	Trial2BackEng	N	3	0	1000	1	80	16:01:21	277207	0	0	0	0	0	0	0	0	0	0	0	0	0	0	0	0	0	0	0	0	0	0		1	0	0	0	0	0	0	0
010513	16:01:21	1	Trial2BackEng	N	3	0	1000	1	81	16:01:21	278722	0	0	0	0	0	0	0	0	0	0	0	0	0	0	0	0	0	0	0	0	0	0		1	0	0	0	0	0	0	0
010513	16:01:21	1	Trial2BackEng	N	3	0	1000	1	82	16:01:21	280237	0	0	0	0	0	0	0	0	0	0	0	0	0	0	0	0	0	0	0	0	0	0		1	0	0	0	0	0	0	0
010513	16:01:21	1	Trial2BackEng	N	3	0	1000	1	83	16:01:21	281752	0	0	0	0	0	0	0	0	0	0	0	0	0	0	0	0	0	0	0	0	0	0		1	0	0	0	0	0	0	0
010513	16:01:21	1	Trial2BackEng	N	3	0	1000	1	84	16:01:21	283267	0	0	0	0	0	0	0	0	0	0	0	0	0	0	0	0	0	0	0	0	0	0		1	0	0	0	0	0	0	0
010513	16:01:21	1	Trial2BackEng	N	3	0	1000	1	85	16:01:21	284782	0	0	0	0	0	0	0	0	0	0	0	0	0	0	0	0	0	0	0	0	0	0		1	0	0	0	0	0	0	0
010513	16:01:21	1	Trial2BackEng	N	3	0	1000	1	86	16:01:21	286298	0	0	0	0	0	0	0	0	0	0	0	0	0	0	0	0	0	0	0	0	0	0		1	0	0	0	0	0	0	0
010513	16:01:21	1	Trial2BackEng	N	3	0	1000	1	87	16:01:21	287813	0	0	0	0	0	0	0	0	0	0	0	0	0	0	0	0	0	0	0	0	0	0		1	0	0	0	0	0	0	0
010513	16:01:21	1	Trial2BackEng	Y	3	0	1000	0	87	16:01:21	289328	0	0	0	0	0	0	0	0	0	0	0	0	0	0	0	0	0	0	0	0	0	0		1	0	0	0	0	0	0	0
010513	16:01:21	1	Trial2BackEng	N	3	0	1000	1	88	16:01:21	290843	0	0	0	0	0	0	0	0	0	0	0	0	0	0	0	0	0	0	0	0	0	0		1	0	0	0	0	0	0	0
010513	16:01:21	1	Trial2BackEng	N	3	0	1000	1	89	16:01:21	292358	0	0	0	0	0	0	0	0	0	0	0	0	0	0	0	0	0	0	0	0	0	0		1	0	0	0	0	0	0	0
010513	16:01:21	1	Trial2BackEng	N	3	0	1000	1	90	16:01:21	293873	0	0	0	0	0	0	0	0	0	0	0	0	0	0	0	0	0	0	0	0	0	0		1	0	0	0	0	0	0	0
010513	16:01:21	1	Trial2BackEng	N	3	0	1000	1	91	16:01:21	295388	0	0	0	0	0	0	0	0	0	0	0	0	0	0	0	0	0	0	0	0	0	0		1	0	0	0	0	0	0	0
010513	16:01:21	1	Trial2BackEng	Y	3	0	1000	0	91	16:01:21	296904	0	0	0	0	0	0	0	0	0	0	0	0	0	0	0	0	0	0	0	0	0	0		1	0	0	0	0	0	0	0
010513	16:01:21	1	Trial2BackEng	N	3	0	1000	1	92	16:01:21	298419	0	0	0	0	0	0	0	0	0	0	0	0	0	0	0	0	0	0	0	0	0	0		1	0	0	0	0	0	0	0
010513	16:01:21	1	Trial2BackEng	N	3	0	1000	1	93	16:01:21	299934	0	0	0	0	0	0	0	0	0	0	0	0	0	0	0	0	0	0	0	0	0	0		1	0	0	0	0	0	0	0
010513	16:01:21	1	Trial2BackEng	N	3	0	1000	1	94	16:01:21	301449	0	0	0	0	0	0	0	0	0	0	0	0	0	0	0	0	0	0	0	0	0	0		1	0	0	0	0	0	0	0
010513	16:01:21	1	Trial2BackEng	Y	3	0	1000	0	94	16:01:21	302964	0	0	0	0	0	0	0	0	0	0	0	0	0	0	0	0	0	0	0	0	0	0		1	0	0	0	0	0	0	0
010513	16:01:21	1	Trial2BackEng	N	3	0	1000	1	95	16:01:21	304479	0	0	0	0	0	0	0	0	0	0	0	0	0	0	0	0	0	0	0	0	0	0		1	0	0	0	0	0	0	0
010513	16:01:21	1	Trial2BackEng	N	3	0	1000	1	96	16:01:21	305995	0	0	0	0	0	0	0	0	0	0	0	0	0	0	0	0	0	0	0	0	0	0		1	0	0	0	0	0	0	0
010513	16:01:21	1	Trial2BackEng	N	3	0	1000	1	97	16:01:21	307510	0	0	0	0	0	0	0	0	0	0	0	0	0	0	0	0	0	0	0	0	0	0		1	0	0	0	0	0	0	0
010513	16:01:21	1	Trial2BackEng	N	3	0	1000	1	98	16:01:21	309025	0	0	0	0	0	0	0	0	0	0	0	0	0	0	0	0	0	0	0	0	0	0		1	0	0	0	0	0	0	0
010513	16:01:21	1	Trial2BackEng	N	3	0	1000	1	99	16:01:21	310540	0	0	0	0	0	0	0	0	0	0	0	0	0	0	0	0	0	0	0	0	0	0		1	0	0	0	0	0	0	0
010513	16:01:21	1	Trial2BackEng	Y	3	0	1000	0	99	16:01:21	312055	0	0	0	0	0	0	0	0	0	0	0	0	0	0	0	0	0	0	0	0	0	0		1	0	0	0	0	0	0	0
010513	16:01:21	1	Trial2BackEng	N	3	0	1000	1	100	16:01:21	313570	0	0	0	0	0	0	0	0	0	0	0	0	0	0	0	0	0	0	0	0	0	0		1	0	0	0	0	0	0	0
010513	16:01:21	1	Trial2BackEng	N	3	0	1000	1	101	16:01:21	315085	0	0	0	0	0	0	0	0	0	0	0	0	0	0	0	0	0	0	0	0	0	0		1	0	0	0	0	0	0	0
010513	16:01:21	1	Trial2BackEng	N	3	0	1000	1	102	16:01:21	316601	0	0	0	0	0	0	0	0	0	0	0	0	0	0	0	0	0	0	0	0	0	0		1	0	0	0	0	0	0	0
010513	16:01:21	1	Trial2BackEng	Y	3	0	1000	0	102	16:01:21	318116	0	0	0	0	0	0	0	0	0	0	0	0	0	0	0	0	0	0	0	0	0	0		1	0	0	0	0	0	0	0
010513	16:01:21	1	Memory1R6mo	Score	5	Done	2811	0	102	16:01:21	335415	0	0	0	0	0	0	0	0	0	0	0	0	0	0	0	0	0	0	0	0	0	0		1	0	0	0	0	0	0	0
010513	16:01:21	1	Memory2R6mo	Score2	5	Done	2062	0	102	16:01:21	350667	0	0	0	0	0	0	0	0	0	0	0	0	0	0	0	0	0	0	0	0	0	0		1	0	0	0	0	0	0	0
010513	16:01:21	1	Memory3R6mo	Score3	5	Done	2388	0	102	16:01:21	365635	0	0	0	0	0	0	0	0	0	0	0	0	0	0	0	0	0	0	0	0	0	0		1	0	0	0	0	0	0	0
010513	16:01:21	1	LoriaEngRH3	Stop	6	8	4347	0	102	16:01:21	414953	0	0	0	0	0	0	0	0	0	0	0	0	0	0	0	0	0	0	0	0	0	0		1	0	0	0	0	0	0	0
010513	16:01:21	1	EngTrail	Trails	7	1Trails	1712	0	102	16:01:21	420031	0	0	0	0	0	0	0	0	0	0	0	0	0	0	0	0	0	0	0	0	0	0		1	0	0	0	0	0	0	0
010513	16:01:21	1	Serial7Eng6mo	Serial7Eng6mo	8	73	4315	0	102	16:01:21	427908	1	0	0	0	0	0	0	0	0	0	0	0	0	0	0	0	0	0	0	0	0	0		1	0	0	0	0	0	0	0
010513	16:01:21	1	Serial7Eng6mo	Serial7Eng6mo	8	66	2690	0	102	16:01:21	430621	2	0	0	0	0	0	0	0	0	0	0	0	0	0	0	0	0	0	0	0	0	0		1	0	0	0	0	0	0	0
010513	16:01:21	1	Serial7Eng6mo	Serial7Eng6mo	8	59	3023	0	102	16:01:21	433668	3	0	0	0	0	0	0	0	0	0	0	0	0	0	0	0	0	0	0	0	0	0		1	0	0	0	0	0	0	0
010513	16:01:21	1	Serial7Eng6mo	Serial7Eng6mo	8	52	1708	0	102	16:01:21	435399	4	0	0	0	0	0	0	0	0	0	0	0	0	0	0	0	0	0	0	0	0	0		1	0	0	0	0	0	0	0
010513	16:01:21	1	Serial7Eng6mo	Serial7Eng6mo	8	45	1998	0	102	16:01:21	437414	5	0	0	0	0	0	0	0	0	0	0	0	0	0	0	0	0	0	0	0	0	0		1	0	0	0	0	0	0	0
010513	16:01:21	1	corsiblockEngFwrd	recallseqEngFwrd	9	6	796	0	102	16:01:21	445405	5	0	0	0	0	0	0	0	0	0	0	0	0	0	0	0	0	0	0	0	0	0		1	0	0	0	0	0	0	0
010513	16:01:21	1	corsiblockEngFwrd	recallseqEngFwrd	9	5	1137	0	102	16:01:21	446604	5	0	0	0	0	0	0	0	0	0	0	0	0	0	0	0	0	0	0	0	0	0		1	0	0	0	0	0	0	0
010513	16:01:21	1	corsiblockEngFwrd	recallseqEngFwrd	9	doneCorsiEng	1518	0	102	16:01:21	448186	5	0	0	0	0	0	0	0	0	0	0	0	0	0	0	0	0	0	0	0	0	0		1	0	0	0	0	0	0	0
010513	16:01:21	1	corsiblockEngFwrd	recallseqEngFwrd	9	6	856	0	102	16:01:21	454180	5	0	0	0	0	0	0	0	0	0	0	0	0	0	0	0	0	0	0	0	0	0		1	0	0	0	0	0	0	0
010513	16:01:21	1	corsiblockEngFwrd	recallseqEngFwrd	9	5	864	0	102	16:01:21	455096	5	0	0	0	0	0	0	0	0	0	0	0	0	0	0	0	0	0	0	0	0	0		1	0	0	0	0	0	0	0
010513	16:01:21	1	corsiblockEngFwrd	recallseqEngFwrd	9	doneCorsiEng	944	0	102	16:01:21	456095	5	0	0	0	0	0	0	0	0	0	0	0	0	0	0	0	0	0	0	0	0	0		1	0	0	0	0	0	0	0
010513	16:01:21	1	corsiblockEngRev	recallseqEngRev	10	5	796	0	102	16:01:21	464137	5	0	0	0	0	0	0	0	0	0	0	0	0	0	0	0	0	0	0	0	0	0		1	0	0	0	0	0	0	0
010513	16:01:21	1	corsiblockEngRev	recallseqEngRev	10	6	571	0	102	16:01:21	464886	5	0	0	0	0	0	0	0	0	0	0	0	0	0	0	0	0	0	0	0	0	0		1	0	0	0	0	0	0	0
010513	16:01:21	1	corsiblockEngRev	recallseqEngRev	10	doneCorsiEng	1249	0	102	16:01:21	466201	5	0	0	0	0	0	0	0	0	0	0	0	0	0	0	0	0	0	0	0	0	0		1	0	0	0	0	0	0	0
010513	16:01:21	1	corsiblockEngRev	recallseqEngRev	10	5	765	0	102	16:01:21	472129	5	0	0	0	0	0	0	0	0	0	0	0	0	0	0	0	0	0	0	0	0	0		1	0	0	0	0	0	0	0
010513	16:01:21	1	corsiblockEngRev	recallseqEngRev	10	6	831	0	102	16:01:21	473028	5	0	0	0	0	0	0	0	0	0	0	0	0	0	0	0	0	0	0	0	0	0		1	0	0	0	0	0	0	0
010513	16:01:21	1	corsiblockEngRev	recallseqEngRev	10	doneCorsiEng	928	0	102	16:01:21	474010	5	0	0	0	0	0	0	0	0	0	0	0	0	0	0	0	0	0	0	0	0	0		1	0	0	0	0	0	0	0
010513	16:01:21	1	testEng6mo	WordsEng6mo	11	1Eng6mo	1465	0	102	16:01:21	477873	5	3	0	0	0	0	0	0	0	0	0	0	0	0	0	0	0	0	0	0	0	0		1	0	0	0	0	0	0	0
010513	16:01:21	1	testEng6mo	WordsEng6mo	11	2Eng6mo	508	0	102	16:01:21	478556	5	3	3	0	0	0	0	0	0	0	0	0	0	0	0	0	0	0	0	0	0	0		1	0	0	0	0	0	0	0
010513	16:01:21	1	testEng6mo	WordsEng6mo	11	3Eng6mo	525	0	102	16:01:21	479138	5	3	3	3	0	0	0	0	0	0	0	0	0	0	0	0	0	0	0	0	0	0		1	0	0	0	0	0	0	0
010513	16:01:21	1	testEng6mo	WordsEng6mo	11	4Eng6mo	684	0	102	16:01:21	479888	5	3	3	3	3	0	0	0	0	0	0	0	0	0	0	0	0	0	0	0	0	0		1	0	0	0	0	0	0	0
010513	16:01:21	1	testEng6mo	WordsEng6mo	11	5Eng6mo	603	0	102	16:01:21	480554	5	3	3	3	3	3	0	0	0	0	0	0	0	0	0	0	0	0	0	0	0	0		1	0	0	0	0	0	0	0
010513	16:01:21	1	testEng6mo	WordsEng6mo	11	6Eng6mo	628	0	102	16:01:21	481236	5	3	3	3	3	3	3	0	0	0	0	0	0	0	0	0	0	0	0	0	0	0		1	0	0	0	0	0	0	0
010513	16:01:21	1	testEng6mo	WordsEng6mo	11	7Eng6mo	457	0	102	16:01:21	481752	5	3	3	3	3	3	3	3	0	0	0	0	0	0	0	0	0	0	0	0	0	0		1	0	0	0	0	0	0	0
010513	16:01:21	1	testEng6mo	WordsEng6mo	11	8Eng6mo	936	0	102	16:01:21	482751	5	3	3	3	3	3	3	3	3	0	0	0	0	0	0	0	0	0	0	0	0	0		1	0	0	0	0	0	0	0
010513	16:01:21	1	testEng6mo	WordsEng6mo	11	DoneEng6mo	956	0	102	16:01:21	483767	5	3	3	3	3	3	3	3	3	0	0	0	0	0	0	0	0	0	0	0	0	0		1	0	0	0	0	0	0	0
010513	16:01:21	1	DigitSpanFwrdEng6mo	Score1FwrdEng6mo	12	DS2	1364	0	102	16:01:21	492275	5	3	3	3	3	3	3	3	3	0	0	0	0	0	0	0	0	0	0	0	0	0		1	0	0	0	0	0	0	0
010513	16:01:21	1	DigitSpanFwrdEng6mo	Gate1FwrdEng6mo	12	0	1	0	102	16:01:21	492279	5	3	3	3	3	3	3	3	3	0	0	0	0	0	0	0	0	0	0	0	0	0		1	0	0	0	0	0	0	0
010513	16:01:21	1	DigitSpanFwrdEng6mo	Score11FwrdEng6mo	12	DS2	379	0	102	16:01:21	496371	5	3	3	3	3	3	3	3	3	0	0	0	0	0	0	0	0	0	0	0	0	0		1	0	0	0	0	0	0	0
010513	16:01:21	1	DigitSpanEng6mo	Score1Eng6mo	13	DS2	1274	0	102	16:01:21	502898	5	3	3	3	3	3	3	3	3	0	0	0	0	0	0	0	0	0	0	0	0	0		1	0	0	0	0	0	0	0
010513	16:01:21	1	DigitSpanEng6mo	Gate1Eng6mo	13	0	1	0	102	16:01:21	502902	5	3	3	3	3	3	3	3	3	0	0	0	0	0	0	0	0	0	0	0	0	0		1	0	0	0	0	0	0	0
010513	16:01:21	1	DigitSpanEng6mo	Score11Eng6mo	13	DS2	701	0	102	16:01:21	506061	5	3	3	3	3	3	3	3	3	0	0	0	0	0	0	0	0	0	0	0	0	0		1	0	0	0	0	0	0	0
010513	16:01:21	1	Trial	ResponseIL	14	0	175	0	102	16:01:21	558959	5	3	3	3	3	3	3	3	3	0	0	0	0	0	0	0	0	0	0	0	0	0		1	0	0	0	0	0	0	0
010513	16:01:21	1	Trial	IncongruentLeft	14	0	1000	0	102	16:01:21	560008	5	3	3	3	3	3	3	3	3	0	0	0	0	0	0	0	0	0	0	0	0	0		1	0	0	0	0	0	0	0
010513	16:01:21	1	Trial	ResponseCR	14	0	175	0	102	16:01:21	560774	5	3	3	3	3	3	3	3	3	0	0	0	0	0	0	0	0	0	0	0	0	0		1	0	0	0	0	0	0	0
010513	16:01:21	1	Trial	CongruentRight	14	0	1000	0	102	16:01:21	561822	5	3	3	3	3	3	3	3	3	0	0	0	0	0	0	0	0	0	0	0	0	0		1	0	0	0	0	0	0	0
010513	16:01:21	1	Trial	ResponseIR	14	0	175	0	102	16:01:21	562588	5	3	3	3	3	3	3	3	3	0	0	0	0	0	0	0	0	0	0	0	0	0		1	0	0	0	0	0	0	0
010513	16:01:21	1	Trial	IncongruentRight	14	0	1000	0	102	16:01:21	563637	5	3	3	3	3	3	3	3	3	0	0	0	0	0	0	0	0	0	0	0	0	0		1	0	0	0	0	0	0	0
010513	16:01:21	1	Trial	ResponseCL	14	0	175	0	102	16:01:21	564403	5	3	3	3	3	3	3	3	3	0	0	0	0	0	0	0	0	0	0	0	0	0		1	0	0	0	0	0	0	0
010513	16:01:21	1	Trial	CongruentLeft	14	0	1000	0	102	16:01:21	565452	5	3	3	3	3	3	3	3	3	0	0	0	0	0	0	0	0	0	0	0	0	0		1	0	0	0	0	0	0	0
010513	16:01:21	1	Trial	ResponseCR	14	0	175	0	102	16:01:21	566218	5	3	3	3	3	3	3	3	3	0	0	0	0	0	0	0	0	0	0	0	0	0		1	0	0	0	0	0	0	0
010513	16:01:21	1	Trial	CongruentRight	14	0	1000	0	102	16:01:21	567267	5	3	3	3	3	3	3	3	3	0	0	0	0	0	0	0	0	0	0	0	0	0		1	0	0	0	0	0	0	0
010513	16:01:21	1	Trial	ResponseIR	14	0	175	0	102	16:01:21	568033	5	3	3	3	3	3	3	3	3	0	0	0	0	0	0	0	0	0	0	0	0	0		1	0	0	0	0	0	0	0
010513	16:01:21	1	Trial	IncongruentRight	14	0	1000	0	102	16:01:21	569082	5	3	3	3	3	3	3	3	3	0	0	0	0	0	0	0	0	0	0	0	0	0		1	0	0	0	0	0	0	0
010513	16:01:21	1	Trial	ResponseCL	14	0	175	0	102	16:01:21	569848	5	3	3	3	3	3	3	3	3	0	0	0	0	0	0	0	0	0	0	0	0	0		1	0	0	0	0	0	0	0
010513	16:01:21	1	Trial	CongruentLeft	14	0	1000	0	102	16:01:21	570897	5	3	3	3	3	3	3	3	3	0	0	0	0	0	0	0	0	0	0	0	0	0		1	0	0	0	0	0	0	0
010513	16:01:21	1	Trial	ResponseIL	14	0	175	0	102	16:01:21	571663	5	3	3	3	3	3	3	3	3	0	0	0	0	0	0	0	0	0	0	0	0	0		1	0	0	0	0	0	0	0
010513	16:01:21	1	Trial	IncongruentLeft	14	0	1000	0	102	16:01:21	572712	5	3	3	3	3	3	3	3	3	0	0	0	0	0	0	0	0	0	0	0	0	0		1	0	0	0	0	0	0	0
010513	16:01:21	1	Trial	ResponseIL	14	0	175	0	102	16:01:21	573477	5	3	3	3	3	3	3	3	3	0	0	0	0	0	0	0	0	0	0	0	0	0		1	0	0	0	0	0	0	0
010513	16:01:21	1	Trial	IncongruentLeft	14	0	1000	0	102	16:01:21	574526	5	3	3	3	3	3	3	3	3	0	0	0	0	0	0	0	0	0	0	0	0	0		1	0	0	0	0	0	0	0
010513	16:01:21	1	Trial	ResponseCR	14	0	175	0	102	16:01:21	575292	5	3	3	3	3	3	3	3	3	0	0	0	0	0	0	0	0	0	0	0	0	0		1	0	0	0	0	0	0	0
010513	16:01:21	1	Trial	CongruentRight	14	0	1000	0	102	16:01:21	576341	5	3	3	3	3	3	3	3	3	0	0	0	0	0	0	0	0	0	0	0	0	0		1	0	0	0	0	0	0	0
010513	16:01:21	1	Trial	ResponseIR	14	0	175	0	102	16:01:21	577107	5	3	3	3	3	3	3	3	3	0	0	0	0	0	0	0	0	0	0	0	0	0		1	0	0	0	0	0	0	0
010513	16:01:21	1	Trial	IncongruentRight	14	0	1000	0	102	16:01:21	578156	5	3	3	3	3	3	3	3	3	0	0	0	0	0	0	0	0	0	0	0	0	0		1	0	0	0	0	0	0	0
010513	16:01:21	1	Trial	ResponseCL	14	0	175	0	102	16:01:21	578922	5	3	3	3	3	3	3	3	3	0	0	0	0	0	0	0	0	0	0	0	0	0		1	0	0	0	0	0	0	0
010513	16:01:21	1	Trial	CongruentLeft	14	0	1000	0	102	16:01:21	579971	5	3	3	3	3	3	3	3	3	0	0	0	0	0	0	0	0	0	0	0	0	0		1	0	0	0	0	0	0	0
010513	16:01:21	1	Trial	ResponseCR	14	0	175	0	102	16:01:21	580737	5	3	3	3	3	3	3	3	3	0	0	0	0	0	0	0	0	0	0	0	0	0		1	0	0	0	0	0	0	0
010513	16:01:21	1	Trial	CongruentRight	14	0	1000	0	102	16:01:21	581786	5	3	3	3	3	3	3	3	3	0	0	0	0	0	0	0	0	0	0	0	0	0		1	0	0	0	0	0	0	0
010513	16:01:21	1	Trial	ResponseIL	14	0	175	0	102	16:01:21	582552	5	3	3	3	3	3	3	3	3	0	0	0	0	0	0	0	0	0	0	0	0	0		1	0	0	0	0	0	0	0
010513	16:01:21	1	Trial	IncongruentLeft	14	0	1000	0	102	16:01:21	583601	5	3	3	3	3	3	3	3	3	0	0	0	0	0	0	0	0	0	0	0	0	0		1	0	0	0	0	0	0	0
010513	16:01:21	1	Trial	ResponseIR	14	0	175	0	102	16:01:21	584367	5	3	3	3	3	3	3	3	3	0	0	0	0	0	0	0	0	0	0	0	0	0		1	0	0	0	0	0	0	0
010513	16:01:21	1	Trial	IncongruentRight	14	0	1000	0	102	16:01:21	585415	5	3	3	3	3	3	3	3	3	0	0	0	0	0	0	0	0	0	0	0	0	0		1	0	0	0	0	0	0	0
010513	16:01:21	1	Trial	ResponseCR	14	0	175	0	102	16:01:21	586182	5	3	3	3	3	3	3	3	3	0	0	0	0	0	0	0	0	0	0	0	0	0		1	0	0	0	0	0	0	0
010513	16:01:21	1	Trial	CongruentRight	14	0	1000	0	102	16:01:21	587230	5	3	3	3	3	3	3	3	3	0	0	0	0	0	0	0	0	0	0	0	0	0		1	0	0	0	0	0	0	0
010513	16:01:21	1	Trial	ResponseCL	14	0	175	0	102	16:01:21	587996	5	3	3	3	3	3	3	3	3	0	0	0	0	0	0	0	0	0	0	0	0	0		1	0	0	0	0	0	0	0
010513	16:01:21	1	Trial	CongruentLeft	14	0	1000	0	102	16:01:21	589045	5	3	3	3	3	3	3	3	3	0	0	0	0	0	0	0	0	0	0	0	0	0		1	0	0	0	0	0	0	0
010513	16:01:21	1	Trial	ResponseCR	14	0	175	0	102	16:01:21	589811	5	3	3	3	3	3	3	3	3	0	0	0	0	0	0	0	0	0	0	0	0	0		1	0	0	0	0	0	0	0
010513	16:01:21	1	Trial	CongruentRight	14	0	1000	0	102	16:01:21	590860	5	3	3	3	3	3	3	3	3	0	0	0	0	0	0	0	0	0	0	0	0	0		1	0	0	0	0	0	0	0
010513	16:01:21	1	Trial	ResponseIR	14	0	175	0	102	16:01:21	591626	5	3	3	3	3	3	3	3	3	0	0	0	0	0	0	0	0	0	0	0	0	0		1	0	0	0	0	0	0	0
010513	16:01:21	1	Trial	IncongruentRight	14	0	1000	0	102	16:01:21	592675	5	3	3	3	3	3	3	3	3	0	0	0	0	0	0	0	0	0	0	0	0	0		1	0	0	0	0	0	0	0
010513	16:01:21	1	Trial	ResponseIL	14	0	175	0	102	16:01:21	593441	5	3	3	3	3	3	3	3	3	0	0	0	0	0	0	0	0	0	0	0	0	0		1	0	0	0	0	0	0	0
010513	16:01:21	1	Trial	IncongruentLeft	14	0	1000	0	102	16:01:21	594490	5	3	3	3	3	3	3	3	3	0	0	0	0	0	0	0	0	0	0	0	0	0		1	0	0	0	0	0	0	0
010513	16:01:21	1	Trial	ResponseIL	14	0	175	0	102	16:01:21	595256	5	3	3	3	3	3	3	3	3	0	0	0	0	0	0	0	0	0	0	0	0	0		1	0	0	0	0	0	0	0
010513	16:01:21	1	Trial	IncongruentLeft	14	0	1000	0	102	16:01:21	596305	5	3	3	3	3	3	3	3	3	0	0	0	0	0	0	0	0	0	0	0	0	0		1	0	0	0	0	0	0	0
010513	16:01:21	1	Trial	ResponseCL	14	0	175	0	102	16:01:21	597071	5	3	3	3	3	3	3	3	3	0	0	0	0	0	0	0	0	0	0	0	0	0		1	0	0	0	0	0	0	0
010513	16:01:21	1	Trial	CongruentLeft	14	0	1000	0	102	16:01:21	598120	5	3	3	3	3	3	3	3	3	0	0	0	0	0	0	0	0	0	0	0	0	0		1	0	0	0	0	0	0	0
010513	16:01:21	1	Trial	ResponseCR	14	0	175	0	102	16:01:21	598885	5	3	3	3	3	3	3	3	3	0	0	0	0	0	0	0	0	0	0	0	0	0		1	0	0	0	0	0	0	0
010513	16:01:21	1	Trial	CongruentRight	14	0	1000	0	102	16:01:21	599934	5	3	3	3	3	3	3	3	3	0	0	0	0	0	0	0	0	0	0	0	0	0		1	0	0	0	0	0	0	0
010513	16:01:21	1	Trial	ResponseIL	14	0	175	0	102	16:01:21	600700	5	3	3	3	3	3	3	3	3	0	0	0	0	0	0	0	0	0	0	0	0	0		1	0	0	0	0	0	0	0
010513	16:01:21	1	Trial	IncongruentLeft	14	0	1000	0	102	16:01:21	601749	5	3	3	3	3	3	3	3	3	0	0	0	0	0	0	0	0	0	0	0	0	0		1	0	0	0	0	0	0	0
010513	16:01:21	1	Trial	ResponseIR	14	0	175	0	102	16:01:21	602515	5	3	3	3	3	3	3	3	3	0	0	0	0	0	0	0	0	0	0	0	0	0		1	0	0	0	0	0	0	0
010513	16:01:21	1	Trial	IncongruentRight	14	0	1000	0	102	16:01:21	603564	5	3	3	3	3	3	3	3	3	0	0	0	0	0	0	0	0	0	0	0	0	0		1	0	0	0	0	0	0	0
010513	16:01:21	1	Trial	ResponseCR	14	0	175	0	102	16:01:21	604330	5	3	3	3	3	3	3	3	3	0	0	0	0	0	0	0	0	0	0	0	0	0		1	0	0	0	0	0	0	0
010513	16:01:21	1	Trial	CongruentRight	14	0	1000	0	102	16:01:21	605379	5	3	3	3	3	3	3	3	3	0	0	0	0	0	0	0	0	0	0	0	0	0		1	0	0	0	0	0	0	0
010513	16:01:21	1	Trial	ResponseCL	14	0	175	0	102	16:01:21	606145	5	3	3	3	3	3	3	3	3	0	0	0	0	0	0	0	0	0	0	0	0	0		1	0	0	0	0	0	0	0
010513	16:01:21	1	Trial	CongruentLeft	14	0	1000	0	102	16:01:21	607194	5	3	3	3	3	3	3	3	3	0	0	0	0	0	0	0	0	0	0	0	0	0		1	0	0	0	0	0	0	0
010513	16:01:21	1	Trial	ResponseIR	14	0	175	0	102	16:01:21	607960	5	3	3	3	3	3	3	3	3	0	0	0	0	0	0	0	0	0	0	0	0	0		1	0	0	0	0	0	0	0
010513	16:01:21	1	Trial	IncongruentRight	14	0	1000	0	102	16:01:21	609009	5	3	3	3	3	3	3	3	3	0	0	0	0	0	0	0	0	0	0	0	0	0		1	0	0	0	0	0	0	0
010513	16:01:21	1	Trial	ResponseIL	14	0	175	0	102	16:01:21	609774	5	3	3	3	3	3	3	3	3	0	0	0	0	0	0	0	0	0	0	0	0	0		1	0	0	0	0	0	0	0
010513	16:01:21	1	Trial	IncongruentLeft	14	0	1000	0	102	16:01:21	610823	5	3	3	3	3	3	3	3	3	0	0	0	0	0	0	0	0	0	0	0	0	0		1	0	0	0	0	0	0	0
010513	16:01:21	1	Trial	ResponseIR	14	0	175	0	102	16:01:21	611590	5	3	3	3	3	3	3	3	3	0	0	0	0	0	0	0	0	0	0	0	0	0		1	0	0	0	0	0	0	0
010513	16:01:21	1	Trial	IncongruentRight	14	0	1000	0	102	16:01:21	612638	5	3	3	3	3	3	3	3	3	0	0	0	0	0	0	0	0	0	0	0	0	0		1	0	0	0	0	0	0	0
010513	16:01:21	1	Trial	ResponseCR	14	0	175	0	102	16:01:21	613404	5	3	3	3	3	3	3	3	3	0	0	0	0	0	0	0	0	0	0	0	0	0		1	0	0	0	0	0	0	0
010513	16:01:21	1	Trial	CongruentRight	14	0	1000	0	102	16:01:21	614453	5	3	3	3	3	3	3	3	3	0	0	0	0	0	0	0	0	0	0	0	0	0		1	0	0	0	0	0	0	0
010513	16:01:21	1	Trial	ResponseIL	14	0	175	0	102	16:01:21	615219	5	3	3	3	3	3	3	3	3	0	0	0	0	0	0	0	0	0	0	0	0	0		1	0	0	0	0	0	0	0
010513	16:01:21	1	Trial	IncongruentLeft	14	0	1000	0	102	16:01:21	616268	5	3	3	3	3	3	3	3	3	0	0	0	0	0	0	0	0	0	0	0	0	0		1	0	0	0	0	0	0	0
010513	16:01:21	1	Trial	ResponseCL	14	0	175	0	102	16:01:21	617034	5	3	3	3	3	3	3	3	3	0	0	0	0	0	0	0	0	0	0	0	0	0		1	0	0	0	0	0	0	0
010513	16:01:21	1	Trial	CongruentLeft	14	0	1000	0	102	16:01:21	618083	5	3	3	3	3	3	3	3	3	0	0	0	0	0	0	0	0	0	0	0	0	0		1	0	0	0	0	0	0	0
010513	16:01:21	1	Trial	ResponseCR	14	0	175	0	102	16:01:21	618849	5	3	3	3	3	3	3	3	3	0	0	0	0	0	0	0	0	0	0	0	0	0		1	0	0	0	0	0	0	0
010513	16:01:21	1	Trial	CongruentRight	14	0	1000	0	102	16:01:21	619898	5	3	3	3	3	3	3	3	3	0	0	0	0	0	0	0	0	0	0	0	0	0		1	0	0	0	0	0	0	0
010513	16:01:21	1	Trial	ResponseIL	14	0	175	0	102	16:01:21	620664	5	3	3	3	3	3	3	3	3	0	0	0	0	0	0	0	0	0	0	0	0	0		1	0	0	0	0	0	0	0
010513	16:01:21	1	Trial	IncongruentLeft	14	0	1000	0	102	16:01:21	621713	5	3	3	3	3	3	3	3	3	0	0	0	0	0	0	0	0	0	0	0	0	0		1	0	0	0	0	0	0	0
010513	16:01:21	1	Trial	ResponseIR	14	0	175	0	102	16:01:21	622479	5	3	3	3	3	3	3	3	3	0	0	0	0	0	0	0	0	0	0	0	0	0		1	0	0	0	0	0	0	0
010513	16:01:21	1	Trial	IncongruentRight	14	0	1000	0	102	16:01:21	623527	5	3	3	3	3	3	3	3	3	0	0	0	0	0	0	0	0	0	0	0	0	0		1	0	0	0	0	0	0	0
010513	16:01:21	1	Trial	ResponseIR	14	0	175	0	102	16:01:21	624293	5	3	3	3	3	3	3	3	3	0	0	0	0	0	0	0	0	0	0	0	0	0		1	0	0	0	0	0	0	0
010513	16:01:21	1	Trial	IncongruentRight	14	0	1000	0	102	16:01:21	625342	5	3	3	3	3	3	3	3	3	0	0	0	0	0	0	0	0	0	0	0	0	0		1	0	0	0	0	0	0	0
010513	16:01:21	1	Trial	ResponseCL	14	0	175	0	102	16:01:21	626108	5	3	3	3	3	3	3	3	3	0	0	0	0	0	0	0	0	0	0	0	0	0		1	0	0	0	0	0	0	0
010513	16:01:21	1	Trial	CongruentLeft	14	0	1000	0	102	16:01:21	627157	5	3	3	3	3	3	3	3	3	0	0	0	0	0	0	0	0	0	0	0	0	0		1	0	0	0	0	0	0	0
010513	16:01:21	1	Trial	ResponseIL	14	0	175	0	102	16:01:21	627923	5	3	3	3	3	3	3	3	3	0	0	0	0	0	0	0	0	0	0	0	0	0		1	0	0	0	0	0	0	0
010513	16:01:21	1	Trial	IncongruentLeft	14	0	1000	0	102	16:01:21	628972	5	3	3	3	3	3	3	3	3	0	0	0	0	0	0	0	0	0	0	0	0	0		1	0	0	0	0	0	0	0
010513	16:01:21	1	Trial	ResponseCR	14	0	175	0	102	16:01:21	629738	5	3	3	3	3	3	3	3	3	0	0	0	0	0	0	0	0	0	0	0	0	0		1	0	0	0	0	0	0	0
010513	16:01:21	1	Trial	CongruentRight	14	0	1000	0	102	16:01:21	630787	5	3	3	3	3	3	3	3	3	0	0	0	0	0	0	0	0	0	0	0	0	0		1	0	0	0	0	0	0	0
010513	16:01:21	1	Trial	ResponseCL	14	0	175	0	102	16:01:21	631553	5	3	3	3	3	3	3	3	3	0	0	0	0	0	0	0	0	0	0	0	0	0		1	0	0	0	0	0	0	0
010513	16:01:21	1	Trial	CongruentLeft	14	0	1000	0	102	16:01:21	632602	5	3	3	3	3	3	3	3	3	0	0	0	0	0	0	0	0	0	0	0	0	0		1	0	0	0	0	0	0	0
010513	16:01:21	1	Trial	ResponseIR	14	0	175	0	102	16:01:21	633368	5	3	3	3	3	3	3	3	3	0	0	0	0	0	0	0	0	0	0	0	0	0		1	0	0	0	0	0	0	0
010513	16:01:21	1	Trial	IncongruentRight	14	0	1000	0	102	16:01:21	634417	5	3	3	3	3	3	3	3	3	0	0	0	0	0	0	0	0	0	0	0	0	0		1	0	0	0	0	0	0	0
010513	16:01:21	1	Trial	ResponseCR	14	0	175	0	102	16:01:21	635182	5	3	3	3	3	3	3	3	3	0	0	0	0	0	0	0	0	0	0	0	0	0		1	0	0	0	0	0	0	0
010513	16:01:21	1	Trial	CongruentRight	14	0	1000	0	102	16:01:21	636232	5	3	3	3	3	3	3	3	3	0	0	0	0	0	0	0	0	0	0	0	0	0		1	0	0	0	0	0	0	0
010513	16:01:21	1	Trial	ResponseIL	14	0	175	0	102	16:01:21	636998	5	3	3	3	3	3	3	3	3	0	0	0	0	0	0	0	0	0	0	0	0	0		1	0	0	0	0	0	0	0
010513	16:01:21	1	Trial	IncongruentLeft	14	0	1000	0	102	16:01:21	638047	5	3	3	3	3	3	3	3	3	0	0	0	0	0	0	0	0	0	0	0	0	0		1	0	0	0	0	0	0	0
010513	16:01:21	1	Trial	ResponseCL	14	0	175	0	102	16:01:21	638812	5	3	3	3	3	3	3	3	3	0	0	0	0	0	0	0	0	0	0	0	0	0		1	0	0	0	0	0	0	0
010513	16:01:21	1	Trial	CongruentLeft	14	0	1000	0	102	16:01:21	639861	5	3	3	3	3	3	3	3	3	0	0	0	0	0	0	0	0	0	0	0	0	0		1	0	0	0	0	0	0	0
010513	16:01:21	1	Trial	ResponseIL	14	0	175	0	102	16:01:21	640627	5	3	3	3	3	3	3	3	3	0	0	0	0	0	0	0	0	0	0	0	0	0		1	0	0	0	0	0	0	0
010513	16:01:21	1	Trial	IncongruentLeft	14	0	1000	0	102	16:01:21	641676	5	3	3	3	3	3	3	3	3	0	0	0	0	0	0	0	0	0	0	0	0	0		1	0	0	0	0	0	0	0
010513	16:01:21	1	Trial	ResponseIR	14	0	175	0	102	16:01:21	642442	5	3	3	3	3	3	3	3	3	0	0	0	0	0	0	0	0	0	0	0	0	0		1	0	0	0	0	0	0	0
010513	16:01:21	1	Trial	IncongruentRight	14	0	1000	0	102	16:01:21	643491	5	3	3	3	3	3	3	3	3	0	0	0	0	0	0	0	0	0	0	0	0	0		1	0	0	0	0	0	0	0
010513	16:01:21	1	Trial	ResponseCR	14	0	175	0	102	16:01:21	644257	5	3	3	3	3	3	3	3	3	0	0	0	0	0	0	0	0	0	0	0	0	0		1	0	0	0	0	0	0	0
010513	16:01:21	1	Trial	CongruentRight	14	0	1000	0	102	16:01:21	645306	5	3	3	3	3	3	3	3	3	0	0	0	0	0	0	0	0	0	0	0	0	0		1	0	0	0	0	0	0	0
010513	16:01:21	1	Trial	ResponseCL	14	0	175	0	102	16:01:21	646072	5	3	3	3	3	3	3	3	3	0	0	0	0	0	0	0	0	0	0	0	0	0		1	0	0	0	0	0	0	0
010513	16:01:21	1	Trial	CongruentLeft	14	0	1000	0	102	16:01:21	647120	5	3	3	3	3	3	3	3	3	0	0	0	0	0	0	0	0	0	0	0	0	0		1	0	0	0	0	0	0	0
010513	16:01:21	1	Trial	ResponseCL	14	0	175	0	102	16:01:21	647887	5	3	3	3	3	3	3	3	3	0	0	0	0	0	0	0	0	0	0	0	0	0		1	0	0	0	0	0	0	0
010513	16:01:21	1	Trial	CongruentLeft	14	0	1000	0	102	16:01:21	648935	5	3	3	3	3	3	3	3	3	0	0	0	0	0	0	0	0	0	0	0	0	0		1	0	0	0	0	0	0	0
010513	16:01:21	1	Trial	ResponseIR	14	0	175	0	102	16:01:21	649701	5	3	3	3	3	3	3	3	3	0	0	0	0	0	0	0	0	0	0	0	0	0		1	0	0	0	0	0	0	0
010513	16:01:21	1	Trial	IncongruentRight	14	0	1000	0	102	16:01:21	650750	5	3	3	3	3	3	3	3	3	0	0	0	0	0	0	0	0	0	0	0	0	0		1	0	0	0	0	0	0	0
010513	16:01:21	1	Trial	ResponseIL	14	0	175	0	102	16:01:21	651516	5	3	3	3	3	3	3	3	3	0	0	0	0	0	0	0	0	0	0	0	0	0		1	0	0	0	0	0	0	0
010513	16:01:21	1	Trial	IncongruentLeft	14	0	1000	0	102	16:01:21	652565	5	3	3	3	3	3	3	3	3	0	0	0	0	0	0	0	0	0	0	0	0	0		1	0	0	0	0	0	0	0
010513	16:01:21	1	Trial	ResponseIR	14	0	175	0	102	16:01:21	653331	5	3	3	3	3	3	3	3	3	0	0	0	0	0	0	0	0	0	0	0	0	0		1	0	0	0	0	0	0	0
010513	16:01:21	1	Trial	IncongruentRight	14	0	1000	0	102	16:01:21	654380	5	3	3	3	3	3	3	3	3	0	0	0	0	0	0	0	0	0	0	0	0	0		1	0	0	0	0	0	0	0
010513	16:01:21	1	Trial	ResponseCR	14	0	175	0	102	16:01:21	655146	5	3	3	3	3	3	3	3	3	0	0	0	0	0	0	0	0	0	0	0	0	0		1	0	0	0	0	0	0	0
010513	16:01:21	1	Trial	CongruentRight	14	0	1000	0	102	16:01:21	656195	5	3	3	3	3	3	3	3	3	0	0	0	0	0	0	0	0	0	0	0	0	0		1	0	0	0	0	0	0	0
010513	16:01:21	1	Trial	ResponseCR	14	0	175	0	102	16:01:21	656961	5	3	3	3	3	3	3	3	3	0	0	0	0	0	0	0	0	0	0	0	0	0		1	0	0	0	0	0	0	0
010513	16:01:21	1	Trial	CongruentRight	14	0	1000	0	102	16:01:21	658010	5	3	3	3	3	3	3	3	3	0	0	0	0	0	0	0	0	0	0	0	0	0		1	0	0	0	0	0	0	0
010513	16:01:21	1	Trial	ResponseIL	14	0	175	0	102	16:01:21	658776	5	3	3	3	3	3	3	3	3	0	0	0	0	0	0	0	0	0	0	0	0	0		1	0	0	0	0	0	0	0
010513	16:01:21	1	Trial	IncongruentLeft	14	0	1000	0	102	16:01:21	659824	5	3	3	3	3	3	3	3	3	0	0	0	0	0	0	0	0	0	0	0	0	0		1	0	0	0	0	0	0	0
010513	16:01:21	1	Trial	ResponseCL	14	0	175	0	102	16:01:21	660590	5	3	3	3	3	3	3	3	3	0	0	0	0	0	0	0	0	0	0	0	0	0		1	0	0	0	0	0	0	0
010513	16:01:21	1	Trial	CongruentLeft	14	0	1000	0	102	16:01:21	661639	5	3	3	3	3	3	3	3	3	0	0	0	0	0	0	0	0	0	0	0	0	0		1	0	0	0	0	0	0	0
010513	16:01:21	1	Trial	ResponseCR	14	0	175	0	102	16:01:21	662406	5	3	3	3	3	3	3	3	3	0	0	0	0	0	0	0	0	0	0	0	0	0		1	0	0	0	0	0	0	0
010513	16:01:21	1	Trial	CongruentRight	14	0	1000	0	102	16:01:21	663454	5	3	3	3	3	3	3	3	3	0	0	0	0	0	0	0	0	0	0	0	0	0		1	0	0	0	0	0	0	0
010513	16:01:21	1	Trial	ResponseCL	14	0	175	0	102	16:01:21	664220	5	3	3	3	3	3	3	3	3	0	0	0	0	0	0	0	0	0	0	0	0	0		1	0	0	0	0	0	0	0
010513	16:01:21	1	Trial	CongruentLeft	14	0	1000	0	102	16:01:21	665269	5	3	3	3	3	3	3	3	3	0	0	0	0	0	0	0	0	0	0	0	0	0		1	0	0	0	0	0	0	0
010513	16:01:21	1	Trial	ResponseIR	14	0	175	0	102	16:01:21	666035	5	3	3	3	3	3	3	3	3	0	0	0	0	0	0	0	0	0	0	0	0	0		1	0	0	0	0	0	0	0
010513	16:01:21	1	Trial	IncongruentRight	14	0	1000	0	102	16:01:21	667084	5	3	3	3	3	3	3	3	3	0	0	0	0	0	0	0	0	0	0	0	0	0		1	0	0	0	0	0	0	0
010513	16:01:21	1	Trial	ResponseCR	14	0	175	0	102	16:01:21	667850	5	3	3	3	3	3	3	3	3	0	0	0	0	0	0	0	0	0	0	0	0	0		1	0	0	0	0	0	0	0
010513	16:01:21	1	Trial	CongruentRight	14	0	1000	0	102	16:01:21	668899	5	3	3	3	3	3	3	3	3	0	0	0	0	0	0	0	0	0	0	0	0	0		1	0	0	0	0	0	0	0
010513	16:01:21	1	Trial	ResponseCL	14	0	175	0	102	16:01:21	669665	5	3	3	3	3	3	3	3	3	0	0	0	0	0	0	0	0	0	0	0	0	0		1	0	0	0	0	0	0	0
010513	16:01:21	1	Trial	CongruentLeft	14	0	1000	0	102	16:01:21	670714	5	3	3	3	3	3	3	3	3	0	0	0	0	0	0	0	0	0	0	0	0	0		1	0	0	0	0	0	0	0
010513	16:01:21	1	Trial	ResponseIL	14	0	175	0	102	16:01:21	671480	5	3	3	3	3	3	3	3	3	0	0	0	0	0	0	0	0	0	0	0	0	0		1	0	0	0	0	0	0	0
010513	16:01:21	1	Trial	IncongruentLeft	14	0	1000	0	102	16:01:21	672529	5	3	3	3	3	3	3	3	3	0	0	0	0	0	0	0	0	0	0	0	0	0		1	0	0	0	0	0	0	0
010513	16:01:21	1	Trial	ResponseIL	14	0	175	0	102	16:01:21	673294	5	3	3	3	3	3	3	3	3	0	0	0	0	0	0	0	0	0	0	0	0	0		1	0	0	0	0	0	0	0
010513	16:01:21	1	Trial	IncongruentLeft	14	0	1000	0	102	16:01:21	674343	5	3	3	3	3	3	3	3	3	0	0	0	0	0	0	0	0	0	0	0	0	0		1	0	0	0	0	0	0	0
010513	16:01:21	1	Trial	ResponseCR	14	0	175	0	102	16:01:21	675109	5	3	3	3	3	3	3	3	3	0	0	0	0	0	0	0	0	0	0	0	0	0		1	0	0	0	0	0	0	0
010513	16:01:21	1	Trial	CongruentRight	14	0	1000	0	102	16:01:21	676158	5	3	3	3	3	3	3	3	3	0	0	0	0	0	0	0	0	0	0	0	0	0		1	0	0	0	0	0	0	0
010513	16:01:21	1	Trial	ResponseIR	14	0	175	0	102	16:01:21	676924	5	3	3	3	3	3	3	3	3	0	0	0	0	0	0	0	0	0	0	0	0	0		1	0	0	0	0	0	0	0
010513	16:01:21	1	Trial	IncongruentRight	14	0	1000	0	102	16:01:21	677973	5	3	3	3	3	3	3	3	3	0	0	0	0	0	0	0	0	0	0	0	0	0		1	0	0	0	0	0	0	0
010513	16:01:21	1	Trial	ResponseCL	14	0	175	0	102	16:01:21	678739	5	3	3	3	3	3	3	3	3	0	0	0	0	0	0	0	0	0	0	0	0	0		1	0	0	0	0	0	0	0
010513	16:01:21	1	Trial	CongruentLeft	14	0	1000	0	102	16:01:21	679788	5	3	3	3	3	3	3	3	3	0	0	0	0	0	0	0	0	0	0	0	0	0		1	0	0	0	0	0	0	0
010513	16:01:21	1	Trial	ResponseIR	14	0	175	0	102	16:01:21	680554	5	3	3	3	3	3	3	3	3	0	0	0	0	0	0	0	0	0	0	0	0	0		1	0	0	0	0	0	0	0
010513	16:01:21	1	Trial	IncongruentRight	14	0	1000	0	102	16:01:21	681603	5	3	3	3	3	3	3	3	3	0	0	0	0	0	0	0	0	0	0	0	0	0		1	0	0	0	0	0	0	0
010513	16:01:21	1	Trial	ResponseCR	14	0	175	0	102	16:01:21	682369	5	3	3	3	3	3	3	3	3	0	0	0	0	0	0	0	0	0	0	0	0	0		1	0	0	0	0	0	0	0
010513	16:01:21	1	Trial	CongruentRight	14	0	1000	0	102	16:01:21	683418	5	3	3	3	3	3	3	3	3	0	0	0	0	0	0	0	0	0	0	0	0	0		1	0	0	0	0	0	0	0
010513	16:01:21	1	Trial	ResponseIL	14	0	175	0	102	16:01:21	684184	5	3	3	3	3	3	3	3	3	0	0	0	0	0	0	0	0	0	0	0	0	0		1	0	0	0	0	0	0	0
010513	16:01:21	1	Trial	IncongruentLeft	14	0	1000	0	102	16:01:21	685233	5	3	3	3	3	3	3	3	3	0	0	0	0	0	0	0	0	0	0	0	0	0		1	0	0	0	0	0	0	0
010513	16:01:21	1	Trial	ResponseCL	14	0	175	0	102	16:01:21	685998	5	3	3	3	3	3	3	3	3	0	0	0	0	0	0	0	0	0	0	0	0	0		1	0	0	0	0	0	0	0
010513	16:01:21	1	Trial	CongruentLeft	14	0	1000	0	102	16:01:21	687047	5	3	3	3	3	3	3	3	3	0	0	0	0	0	0	0	0	0	0	0	0	0		1	0	0	0	0	0	0	0
010513	16:01:21	1	Trial	ResponseCR	14	0	175	0	102	16:01:21	687813	5	3	3	3	3	3	3	3	3	0	0	0	0	0	0	0	0	0	0	0	0	0		1	0	0	0	0	0	0	0
010513	16:01:21	1	Trial	CongruentRight	14	0	1000	0	102	16:01:21	688862	5	3	3	3	3	3	3	3	3	0	0	0	0	0	0	0	0	0	0	0	0	0		1	0	0	0	0	0	0	0
010513	16:01:21	1	Trial	ResponseIL	14	0	175	0	102	16:01:21	689628	5	3	3	3	3	3	3	3	3	0	0	0	0	0	0	0	0	0	0	0	0	0		1	0	0	0	0	0	0	0
010513	16:01:21	1	Trial	IncongruentLeft	14	0	1000	0	102	16:01:21	690677	5	3	3	3	3	3	3	3	3	0	0	0	0	0	0	0	0	0	0	0	0	0		1	0	0	0	0	0	0	0
010513	16:01:21	1	Trial	ResponseCR	14	0	175	0	102	16:01:21	691443	5	3	3	3	3	3	3	3	3	0	0	0	0	0	0	0	0	0	0	0	0	0		1	0	0	0	0	0	0	0
010513	16:01:21	1	Trial	CongruentRight	14	0	1000	0	102	16:01:21	692492	5	3	3	3	3	3	3	3	3	0	0	0	0	0	0	0	0	0	0	0	0	0		1	0	0	0	0	0	0	0
010513	16:01:21	1	Trial	ResponseCR	14	0	175	0	102	16:01:21	693258	5	3	3	3	3	3	3	3	3	0	0	0	0	0	0	0	0	0	0	0	0	0		1	0	0	0	0	0	0	0
010513	16:01:21	1	Trial	CongruentRight	14	0	1000	0	102	16:01:21	694307	5	3	3	3	3	3	3	3	3	0	0	0	0	0	0	0	0	0	0	0	0	0		1	0	0	0	0	0	0	0
010513	16:01:21	1	Trial	ResponseIR	14	0	175	0	102	16:01:21	695073	5	3	3	3	3	3	3	3	3	0	0	0	0	0	0	0	0	0	0	0	0	0		1	0	0	0	0	0	0	0
010513	16:01:21	1	Trial	IncongruentRight	14	0	1000	0	102	16:01:21	696122	5	3	3	3	3	3	3	3	3	0	0	0	0	0	0	0	0	0	0	0	0	0		1	0	0	0	0	0	0	0
010513	16:01:21	1	Trial	ResponseCL	14	0	175	0	102	16:01:21	696887	5	3	3	3	3	3	3	3	3	0	0	0	0	0	0	0	0	0	0	0	0	0		1	0	0	0	0	0	0	0
010513	16:01:21	1	Trial	CongruentLeft	14	0	1000	0	102	16:01:21	697936	5	3	3	3	3	3	3	3	3	0	0	0	0	0	0	0	0	0	0	0	0	0		1	0	0	0	0	0	0	0
010513	16:01:21	1	Trial	ResponseIL	14	0	175	0	102	16:01:21	698702	5	3	3	3	3	3	3	3	3	0	0	0	0	0	0	0	0	0	0	0	0	0		1	0	0	0	0	0	0	0
010513	16:01:21	1	Trial	IncongruentLeft	14	0	1000	0	102	16:01:21	699751	5	3	3	3	3	3	3	3	3	0	0	0	0	0	0	0	0	0	0	0	0	0		1	0	0	0	0	0	0	0
010513	16:01:21	1	Trial	ResponseCL	14	0	175	0	102	16:01:21	700517	5	3	3	3	3	3	3	3	3	0	0	0	0	0	0	0	0	0	0	0	0	0		1	0	0	0	0	0	0	0
010513	16:01:21	1	Trial	CongruentLeft	14	0	1000	0	102	16:01:21	701566	5	3	3	3	3	3	3	3	3	0	0	0	0	0	0	0	0	0	0	0	0	0		1	0	0	0	0	0	0	0
010513	16:01:21	1	Trial	ResponseIR	14	0	175	0	102	16:01:21	702332	5	3	3	3	3	3	3	3	3	0	0	0	0	0	0	0	0	0	0	0	0	0		1	0	0	0	0	0	0	0
010513	16:01:21	1	Trial	IncongruentRight	14	0	1000	0	102	16:01:21	703381	5	3	3	3	3	3	3	3	3	0	0	0	0	0	0	0	0	0	0	0	0	0		1	0	0	0	0	0	0	0
010513	16:01:21	1	Trial	ResponseIL	14	0	175	0	102	16:01:21	704147	5	3	3	3	3	3	3	3	3	0	0	0	0	0	0	0	0	0	0	0	0	0		1	0	0	0	0	0	0	0
010513	16:01:21	1	Trial	IncongruentLeft	14	0	1000	0	102	16:01:21	705196	5	3	3	3	3	3	3	3	3	0	0	0	0	0	0	0	0	0	0	0	0	0		1	0	0	0	0	0	0	0
010513	16:01:21	1	Trial	ResponseCR	14	0	175	0	102	16:01:21	705962	5	3	3	3	3	3	3	3	3	0	0	0	0	0	0	0	0	0	0	0	0	0		1	0	0	0	0	0	0	0
010513	16:01:21	1	Trial	CongruentRight	14	0	1000	0	102	16:01:21	707011	5	3	3	3	3	3	3	3	3	0	0	0	0	0	0	0	0	0	0	0	0	0		1	0	0	0	0	0	0	0
010513	16:01:21	1	Trial	ResponseCL	14	0	175	0	102	16:01:21	707777	5	3	3	3	3	3	3	3	3	0	0	0	0	0	0	0	0	0	0	0	0	0		1	0	0	0	0	0	0	0
010513	16:01:21	1	Trial	CongruentLeft	14	0	1000	0	102	16:01:21	708826	5	3	3	3	3	3	3	3	3	0	0	0	0	0	0	0	0	0	0	0	0	0		1	0	0	0	0	0	0	0
010513	16:01:21	1	Trial	ResponseIL	14	0	175	0	102	16:01:21	709591	5	3	3	3	3	3	3	3	3	0	0	0	0	0	0	0	0	0	0	0	0	0		1	0	0	0	0	0	0	0
010513	16:01:21	1	Trial	IncongruentLeft	14	0	1000	0	102	16:01:21	710640	5	3	3	3	3	3	3	3	3	0	0	0	0	0	0	0	0	0	0	0	0	0		1	0	0	0	0	0	0	0
010513	16:01:21	1	Trial	ResponseCL	14	0	175	0	102	16:01:21	711407	5	3	3	3	3	3	3	3	3	0	0	0	0	0	0	0	0	0	0	0	0	0		1	0	0	0	0	0	0	0
010513	16:01:21	1	Trial	CongruentLeft	14	0	1000	0	102	16:01:21	712455	5	3	3	3	3	3	3	3	3	0	0	0	0	0	0	0	0	0	0	0	0	0		1	0	0	0	0	0	0	0
010513	16:01:21	1	Trial	ResponseIR	14	0	175	0	102	16:01:21	713221	5	3	3	3	3	3	3	3	3	0	0	0	0	0	0	0	0	0	0	0	0	0		1	0	0	0	0	0	0	0
010513	16:01:21	1	Trial	IncongruentRight	14	0	1000	0	102	16:01:21	714270	5	3	3	3	3	3	3	3	3	0	0	0	0	0	0	0	0	0	0	0	0	0		1	0	0	0	0	0	0	0
010513	16:01:21	1	Trial	ResponseCR	14	0	175	0	102	16:01:21	715036	5	3	3	3	3	3	3	3	3	0	0	0	0	0	0	0	0	0	0	0	0	0		1	0	0	0	0	0	0	0
010513	16:01:21	1	Trial	CongruentRight	14	0	1000	0	102	16:01:21	716085	5	3	3	3	3	3	3	3	3	0	0	0	0	0	0	0	0	0	0	0	0	0		1	0	0	0	0	0	0	0
010513	16:01:21	1	Trial	ResponseIL	14	0	175	0	102	16:01:21	716851	5	3	3	3	3	3	3	3	3	0	0	0	0	0	0	0	0	0	0	0	0	0		1	0	0	0	0	0	0	0
010513	16:01:21	1	Trial	IncongruentLeft	14	0	1000	0	102	16:01:21	717900	5	3	3	3	3	3	3	3	3	0	0	0	0	0	0	0	0	0	0	0	0	0		1	0	0	0	0	0	0	0
010513	16:01:21	1	Trial	ResponseCL	14	0	175	0	102	16:01:21	718666	5	3	3	3	3	3	3	3	3	0	0	0	0	0	0	0	0	0	0	0	0	0		1	0	0	0	0	0	0	0
010513	16:01:21	1	Trial	CongruentLeft	14	0	1000	0	102	16:01:21	719715	5	3	3	3	3	3	3	3	3	0	0	0	0	0	0	0	0	0	0	0	0	0		1	0	0	0	0	0	0	0
010513	16:01:21	1	Trial	ResponseIR	14	0	175	0	102	16:01:21	720481	5	3	3	3	3	3	3	3	3	0	0	0	0	0	0	0	0	0	0	0	0	0		1	0	0	0	0	0	0	0
010513	16:01:21	1	Trial	IncongruentRight	14	0	1000	0	102	16:01:21	721530	5	3	3	3	3	3	3	3	3	0	0	0	0	0	0	0	0	0	0	0	0	0		1	0	0	0	0	0	0	0
010513	16:01:21	1	Trial	ResponseIL	14	0	175	0	102	16:01:21	722295	5	3	3	3	3	3	3	3	3	0	0	0	0	0	0	0	0	0	0	0	0	0		1	0	0	0	0	0	0	0
010513	16:01:21	1	Trial	IncongruentLeft	14	0	1000	0	102	16:01:21	723344	5	3	3	3	3	3	3	3	3	0	0	0	0	0	0	0	0	0	0	0	0	0		1	0	0	0	0	0	0	0
010513	16:01:21	1	Trial	ResponseCL	14	0	175	0	102	16:01:21	724110	5	3	3	3	3	3	3	3	3	0	0	0	0	0	0	0	0	0	0	0	0	0		1	0	0	0	0	0	0	0
010513	16:01:21	1	Trial	CongruentLeft	14	0	1000	0	102	16:01:21	725159	5	3	3	3	3	3	3	3	3	0	0	0	0	0	0	0	0	0	0	0	0	0		1	0	0	0	0	0	0	0
010513	16:01:21	1	Trial	ResponseIL	14	0	175	0	102	16:01:21	725925	5	3	3	3	3	3	3	3	3	0	0	0	0	0	0	0	0	0	0	0	0	0		1	0	0	0	0	0	0	0
010513	16:01:21	1	Trial	IncongruentLeft	14	0	1000	0	102	16:01:21	726974	5	3	3	3	3	3	3	3	3	0	0	0	0	0	0	0	0	0	0	0	0	0		1	0	0	0	0	0	0	0
010513	16:01:21	1	Trial	ResponseCR	14	0	175	0	102	16:01:21	727740	5	3	3	3	3	3	3	3	3	0	0	0	0	0	0	0	0	0	0	0	0	0		1	0	0	0	0	0	0	0
010513	16:01:21	1	Trial	CongruentRight	14	0	1000	0	102	16:01:21	728789	5	3	3	3	3	3	3	3	3	0	0	0	0	0	0	0	0	0	0	0	0	0		1	0	0	0	0	0	0	0
010513	16:01:21	1	Trial	ResponseCL	14	0	175	0	102	16:01:21	729555	5	3	3	3	3	3	3	3	3	0	0	0	0	0	0	0	0	0	0	0	0	0		1	0	0	0	0	0	0	0
010513	16:01:21	1	Trial	CongruentLeft	14	0	1000	0	102	16:01:21	730604	5	3	3	3	3	3	3	3	3	0	0	0	0	0	0	0	0	0	0	0	0	0		1	0	0	0	0	0	0	0
010513	16:01:21	1	Trial	ResponseIR	14	0	175	0	102	16:01:21	731370	5	3	3	3	3	3	3	3	3	0	0	0	0	0	0	0	0	0	0	0	0	0		1	0	0	0	0	0	0	0
010513	16:01:21	1	Trial	IncongruentRight	14	0	1000	0	102	16:01:21	732419	5	3	3	3	3	3	3	3	3	0	0	0	0	0	0	0	0	0	0	0	0	0		1	0	0	0	0	0	0	0
010513	16:01:21	1	Trial	ResponseCL	14	0	175	0	102	16:01:21	733185	5	3	3	3	3	3	3	3	3	0	0	0	0	0	0	0	0	0	0	0	0	0		1	0	0	0	0	0	0	0
010513	16:01:21	1	Trial	CongruentLeft	14	0	1000	0	102	16:01:21	734234	5	3	3	3	3	3	3	3	3	0	0	0	0	0	0	0	0	0	0	0	0	0		1	0	0	0	0	0	0	0
010513	16:01:21	1	Trial	ResponseCR	14	0	175	0	102	16:01:21	734999	5	3	3	3	3	3	3	3	3	0	0	0	0	0	0	0	0	0	0	0	0	0		1	0	0	0	0	0	0	0
010513	16:01:21	1	Trial	CongruentRight	14	0	1000	0	102	16:01:21	736048	5	3	3	3	3	3	3	3	3	0	0	0	0	0	0	0	0	0	0	0	0	0		1	0	0	0	0	0	0	0
010513	16:01:21	1	Trial	ResponseIL	14	0	175	0	102	16:01:21	736815	5	3	3	3	3	3	3	3	3	0	0	0	0	0	0	0	0	0	0	0	0	0		1	0	0	0	0	0	0	0
010513	16:01:21	1	Trial	IncongruentLeft	14	0	1000	0	102	16:01:21	737864	5	3	3	3	3	3	3	3	3	0	0	0	0	0	0	0	0	0	0	0	0	0		1	0	0	0	0	0	0	0
010513	16:01:21	1	WordsAbsEng6mo	PAbsEng6mo1	16	Abs1	1934	0	102	16:01:21	746371	5	3	3	3	3	3	3	3	3	0	0	0	0	0	0	0	0	0	0	0	0	0		1	0	0	0	0	0	0	0
010513	16:01:21	1	WordsAbsEng6mo	AbsEng6mo1	16	Abs1	678	0	102	16:01:21	747104	5	3	3	3	3	3	3	3	3	0	0	1	0	0	0	0	0	0	0	0	0	0		1	0	0	0	0	0	0	0
010513	16:01:21	1	WordsAbsEng6mo	AbsEng6mo2	16	Abs1	819	0	102	16:01:21	747987	5	3	3	3	3	3	3	3	3	0	0	2	0	0	0	0	0	0	0	0	0	0		1	0	0	0	0	0	0	0
010513	16:01:21	1	WordsAbsEng6mo	AbsEng6mo3	16	Abs1	957	0	102	16:01:21	749002	5	3	3	3	3	3	3	3	3	0	0	3	0	0	0	0	0	0	0	0	0	0		1	0	0	0	0	0	0	0
010513	16:01:21	1	Trial2BackEngS	NS	17	0	1000	1	102	16:01:21	779355	5	3	3	3	3	3	3	3	3	0	0	3	0	0	0	0	0	0	0	0	0	0		1	0	0	0	0	0	0	0
010513	16:01:21	1	Trial2BackEngS	NS	17	0	1000	1	102	16:01:21	780870	5	3	3	3	3	3	3	3	3	0	0	3	0	0	0	0	0	0	0	0	0	0		1	0	0	0	0	0	0	0
010513	16:01:21	1	Trial2BackEngS	NS	17	0	1000	1	102	16:01:21	782385	5	3	3	3	3	3	3	3	3	0	0	3	0	0	0	0	0	0	0	0	0	0		1	0	0	0	0	0	0	0
010513	16:01:21	1	Trial2BackEngS	YS	17	0	1000	0	102	16:01:21	783901	5	3	3	3	3	3	3	3	3	0	0	3	0	0	0	0	0	0	0	0	0	0		1	0	0	0	0	0	0	0
010513	16:01:21	1	Trial2BackEngS	NS	17	0	1000	1	102	16:01:21	785416	5	3	3	3	3	3	3	3	3	0	0	3	0	0	0	0	0	0	0	0	0	0		1	0	0	0	0	0	0	0
010513	16:01:21	1	Trial2BackEngS	NS	17	0	1000	1	102	16:01:21	786931	5	3	3	3	3	3	3	3	3	0	0	3	0	0	0	0	0	0	0	0	0	0		1	0	0	0	0	0	0	0
010513	16:01:21	1	Trial2BackEngS	NS	17	0	1000	1	102	16:01:21	788446	5	3	3	3	3	3	3	3	3	0	0	3	0	0	0	0	0	0	0	0	0	0		1	0	0	0	0	0	0	0
010513	16:01:21	1	Trial2BackEngS	NS	17	0	1000	1	102	16:01:21	789961	5	3	3	3	3	3	3	3	3	0	0	3	0	0	0	0	0	0	0	0	0	0		1	0	0	0	0	0	0	0
010513	16:01:21	1	Trial2BackEngS	YS	17	0	1000	0	102	16:01:21	791476	5	3	3	3	3	3	3	3	3	0	0	3	0	0	0	0	0	0	0	0	0	0		1	0	0	0	0	0	0	0
010513	16:01:21	1	Trial2BackEngS	NS	17	0	1000	1	102	16:01:21	792992	5	3	3	3	3	3	3	3	3	0	0	3	0	0	0	0	0	0	0	0	0	0		1	0	0	0	0	0	0	0
010513	16:01:21	1	Trial2BackEngS	NS	17	0	1000	1	102	16:01:21	794507	5	3	3	3	3	3	3	3	3	0	0	3	0	0	0	0	0	0	0	0	0	0		1	0	0	0	0	0	0	0
010513	16:01:21	1	Trial2BackEngS	YS	17	0	1000	0	102	16:01:21	796022	5	3	3	3	3	3	3	3	3	0	0	3	0	0	0	0	0	0	0	0	0	0		1	0	0	0	0	0	0	0
010513	16:01:21	1	Trial2BackEngS	NS	17	0	1000	1	102	16:01:21	797537	5	3	3	3	3	3	3	3	3	0	0	3	0	0	0	0	0	0	0	0	0	0		1	0	0	0	0	0	0	0
010513	16:01:21	1	Trial2BackEngS	NS	17	0	1000	1	102	16:01:21	799052	5	3	3	3	3	3	3	3	3	0	0	3	0	0	0	0	0	0	0	0	0	0		1	0	0	0	0	0	0	0
010513	16:01:21	1	Trial2BackEngS	NS	17	0	1000	1	102	16:01:21	800567	5	3	3	3	3	3	3	3	3	0	0	3	0	0	0	0	0	0	0	0	0	0		1	0	0	0	0	0	0	0
010513	16:01:21	1	Trial2BackEngS	YS	17	0	1000	0	102	16:01:21	802082	5	3	3	3	3	3	3	3	3	0	0	3	0	0	0	0	0	0	0	0	0	0		1	0	0	0	0	0	0	0
010513	16:01:21	1	Trial2BackEngS	NS	17	0	1000	1	102	16:01:21	803598	5	3	3	3	3	3	3	3	3	0	0	3	0	0	0	0	0	0	0	0	0	0		1	0	0	0	0	0	0	0
010513	16:01:21	1	Trial2BackEngS	NS	17	0	1000	1	102	16:01:21	805113	5	3	3	3	3	3	3	3	3	0	0	3	0	0	0	0	0	0	0	0	0	0		1	0	0	0	0	0	0	0
010513	16:01:21	1	Trial2BackEngS	NS	17	0	1000	1	102	16:01:21	806628	5	3	3	3	3	3	3	3	3	0	0	3	0	0	0	0	0	0	0	0	0	0		1	0	0	0	0	0	0	0
010513	16:01:21	1	Trial2BackEngS	NS	17	0	1000	1	102	16:01:21	808143	5	3	3	3	3	3	3	3	3	0	0	3	0	0	0	0	0	0	0	0	0	0		1	0	0	0	0	0	0	0
010513	16:01:21	1	Trial2BackEngS	YS	17	0	1000	0	102	16:01:21	809658	5	3	3	3	3	3	3	3	3	0	0	3	0	0	0	0	0	0	0	0	0	0		1	0	0	0	0	0	0	0
010513	16:01:21	1	Trial2BackEngS	NS	17	0	1000	1	102	16:01:21	811173	5	3	3	3	3	3	3	3	3	0	0	3	0	0	0	0	0	0	0	0	0	0		1	0	0	0	0	0	0	0
010513	16:01:21	1	Trial2BackEngS	NS	17	0	1000	1	102	16:01:21	812688	5	3	3	3	3	3	3	3	3	0	0	3	0	0	0	0	0	0	0	0	0	0		1	0	0	0	0	0	0	0
010513	16:01:21	1	Trial2BackEngS	NS	17	0	1000	1	102	16:01:21	814204	5	3	3	3	3	3	3	3	3	0	0	3	0	0	0	0	0	0	0	0	0	0		1	0	0	0	0	0	0	0
010513	16:01:21	1	Trial2BackEngS	NS	17	0	1000	1	102	16:01:21	815719	5	3	3	3	3	3	3	3	3	0	0	3	0	0	0	0	0	0	0	0	0	0		1	0	0	0	0	0	0	0
010513	16:01:21	1	Trial2BackEngS	NS	17	0	1000	1	102	16:01:21	817234	5	3	3	3	3	3	3	3	3	0	0	3	0	0	0	0	0	0	0	0	0	0		1	0	0	0	0	0	0	0
010513	16:01:21	1	Trial2BackEngS	NS	17	0	1000	1	102	16:01:21	818749	5	3	3	3	3	3	3	3	3	0	0	3	0	0	0	0	0	0	0	0	0	0		1	0	0	0	0	0	0	0
010513	16:01:21	1	Trial2BackEngS	NS	17	0	1000	1	102	16:01:21	820264	5	3	3	3	3	3	3	3	3	0	0	3	0	0	0	0	0	0	0	0	0	0		1	0	0	0	0	0	0	0
010513	16:01:21	1	Trial2BackEngS	NS	17	0	1000	1	102	16:01:21	821779	5	3	3	3	3	3	3	3	3	0	0	3	0	0	0	0	0	0	0	0	0	0		1	0	0	0	0	0	0	0
010513	16:01:21	1	Trial2BackEngS	NS	17	0	1000	1	102	16:01:21	823295	5	3	3	3	3	3	3	3	3	0	0	3	0	0	0	0	0	0	0	0	0	0		1	0	0	0	0	0	0	0
010513	16:01:21	1	Trial2BackEngS	NS	17	0	1000	1	102	16:01:21	824810	5	3	3	3	3	3	3	3	3	0	0	3	0	0	0	0	0	0	0	0	0	0		1	0	0	0	0	0	0	0
010513	16:01:21	1	Trial2BackEngS	YS	17	0	1000	0	102	16:01:21	826325	5	3	3	3	3	3	3	3	3	0	0	3	0	0	0	0	0	0	0	0	0	0		1	0	0	0	0	0	0	0
010513	16:01:21	1	Trial2BackEngS	NS	17	0	1000	1	102	16:01:21	827840	5	3	3	3	3	3	3	3	3	0	0	3	0	0	0	0	0	0	0	0	0	0		1	0	0	0	0	0	0	0
010513	16:01:21	1	Trial2BackEngS	NS	17	0	1000	1	102	16:01:21	829355	5	3	3	3	3	3	3	3	3	0	0	3	0	0	0	0	0	0	0	0	0	0		1	0	0	0	0	0	0	0
010513	16:01:21	1	Trial2BackEngS	NS	17	0	1000	1	102	16:01:21	830870	5	3	3	3	3	3	3	3	3	0	0	3	0	0	0	0	0	0	0	0	0	0		1	0	0	0	0	0	0	0
010513	16:01:21	1	Trial2BackEngS	YS	17	0	1000	0	102	16:01:21	832385	5	3	3	3	3	3	3	3	3	0	0	3	0	0	0	0	0	0	0	0	0	0		1	0	0	0	0	0	0	0
010513	16:01:21	1	Trial2BackEngS	NS	17	0	1000	1	102	16:01:21	833901	5	3	3	3	3	3	3	3	3	0	0	3	0	0	0	0	0	0	0	0	0	0		1	0	0	0	0	0	0	0
010513	16:01:21	1	Trial2BackEngS	NS	17	0	1000	1	102	16:01:21	835416	5	3	3	3	3	3	3	3	3	0	0	3	0	0	0	0	0	0	0	0	0	0		1	0	0	0	0	0	0	0
010513	16:01:21	1	Trial2BackEngS	NS	17	0	1000	1	102	16:01:21	836931	5	3	3	3	3	3	3	3	3	0	0	3	0	0	0	0	0	0	0	0	0	0		1	0	0	0	0	0	0	0
010513	16:01:21	1	Trial2BackEngS	NS	17	0	1000	1	102	16:01:21	838446	5	3	3	3	3	3	3	3	3	0	0	3	0	0	0	0	0	0	0	0	0	0		1	0	0	0	0	0	0	0
010513	16:01:21	1	Trial2BackEngS	NS	17	0	1000	1	102	16:01:21	839961	5	3	3	3	3	3	3	3	3	0	0	3	0	0	0	0	0	0	0	0	0	0		1	0	0	0	0	0	0	0
010513	16:01:21	1	Trial2BackEngS	NS	17	0	1000	1	102	16:01:21	841476	5	3	3	3	3	3	3	3	3	0	0	3	0	0	0	0	0	0	0	0	0	0		1	0	0	0	0	0	0	0
010513	16:01:21	1	Trial2BackEngS	NS	17	0	1000	1	102	16:01:21	842992	5	3	3	3	3	3	3	3	3	0	0	3	0	0	0	0	0	0	0	0	0	0		1	0	0	0	0	0	0	0
010513	16:01:21	1	Trial2BackEngS	YS	17	0	1000	0	102	16:01:21	844507	5	3	3	3	3	3	3	3	3	0	0	3	0	0	0	0	0	0	0	0	0	0		1	0	0	0	0	0	0	0
010513	16:01:21	1	Trial2BackEngS	NS	17	0	1000	1	102	16:01:21	846022	5	3	3	3	3	3	3	3	3	0	0	3	0	0	0	0	0	0	0	0	0	0		1	0	0	0	0	0	0	0
010513	16:01:21	1	Trial2BackEngS	NS	17	0	1000	1	102	16:01:21	847537	5	3	3	3	3	3	3	3	3	0	0	3	0	0	0	0	0	0	0	0	0	0		1	0	0	0	0	0	0	0
010513	16:01:21	1	Trial2BackEngS	NS	17	0	1000	1	102	16:01:21	849052	5	3	3	3	3	3	3	3	3	0	0	3	0	0	0	0	0	0	0	0	0	0		1	0	0	0	0	0	0	0
010513	16:01:21	1	Trial2BackEngS	NS	17	0	1000	1	102	16:01:21	850567	5	3	3	3	3	3	3	3	3	0	0	3	0	0	0	0	0	0	0	0	0	0		1	0	0	0	0	0	0	0
010513	16:01:21	1	Trial2BackEngS	YS	17	0	1000	0	102	16:01:21	852083	5	3	3	3	3	3	3	3	3	0	0	3	0	0	0	0	0	0	0	0	0	0		1	0	0	0	0	0	0	0
010513	16:01:21	1	Trial2BackEngS	NS	17	0	1000	1	102	16:01:21	853598	5	3	3	3	3	3	3	3	3	0	0	3	0	0	0	0	0	0	0	0	0	0		1	0	0	0	0	0	0	0
010513	16:01:21	1	Trial2BackEngS	NS	17	0	1000	1	102	16:01:21	855113	5	3	3	3	3	3	3	3	3	0	0	3	0	0	0	0	0	0	0	0	0	0		1	0	0	0	0	0	0	0
010513	16:01:21	1	Trial2BackEngS	NS	17	0	1000	1	102	16:01:21	856628	5	3	3	3	3	3	3	3	3	0	0	3	0	0	0	0	0	0	0	0	0	0		1	0	0	0	0	0	0	0
010513	16:01:21	1	Trial2BackEngS	NS	17	0	1000	1	102	16:01:21	858143	5	3	3	3	3	3	3	3	3	0	0	3	0	0	0	0	0	0	0	0	0	0		1	0	0	0	0	0	0	0
010513	16:01:21	1	Trial2BackEngS	NS	17	0	1000	1	102	16:01:21	859658	5	3	3	3	3	3	3	3	3	0	0	3	0	0	0	0	0	0	0	0	0	0		1	0	0	0	0	0	0	0
010513	16:01:21	1	Trial2BackEngS	NS	17	0	1000	1	102	16:01:21	861173	5	3	3	3	3	3	3	3	3	0	0	3	0	0	0	0	0	0	0	0	0	0		1	0	0	0	0	0	0	0
010513	16:01:21	1	Trial2BackEngS	YS	17	0	1000	0	102	16:01:21	862689	5	3	3	3	3	3	3	3	3	0	0	3	0	0	0	0	0	0	0	0	0	0		1	0	0	0	0	0	0	0
010513	16:01:21	1	Trial2BackEngS	NS	17	0	1000	1	102	16:01:21	864204	5	3	3	3	3	3	3	3	3	0	0	3	0	0	0	0	0	0	0	0	0	0		1	0	0	0	0	0	0	0
010513	16:01:21	1	Trial2BackEngS	NS	17	0	1000	1	102	16:01:21	865719	5	3	3	3	3	3	3	3	3	0	0	3	0	0	0	0	0	0	0	0	0	0		1	0	0	0	0	0	0	0
010513	16:01:21	1	Trial2BackEngS	NS	17	0	1000	1	102	16:01:21	867234	5	3	3	3	3	3	3	3	3	0	0	3	0	0	0	0	0	0	0	0	0	0		1	0	0	0	0	0	0	0
010513	16:01:21	1	Trial2BackEngS	NS	17	0	1000	1	102	16:01:21	868749	5	3	3	3	3	3	3	3	3	0	0	3	0	0	0	0	0	0	0	0	0	0		1	0	0	0	0	0	0	0
010513	16:01:21	1	Trial2BackEngS	NS	17	0	1000	1	102	16:01:21	870264	5	3	3	3	3	3	3	3	3	0	0	3	0	0	0	0	0	0	0	0	0	0		1	0	0	0	0	0	0	0
010513	16:01:21	1	Trial2BackEngS	NS	17	0	1000	1	102	16:01:21	871779	5	3	3	3	3	3	3	3	3	0	0	3	0	0	0	0	0	0	0	0	0	0		1	0	0	0	0	0	0	0
010513	16:01:21	1	Trial2BackEngS	NS	17	0	1000	1	102	16:01:21	873295	5	3	3	3	3	3	3	3	3	0	0	3	0	0	0	0	0	0	0	0	0	0		1	0	0	0	0	0	0	0
010513	16:01:21	1	Trial2BackEngS	YS	17	0	1000	0	102	16:01:21	874810	5	3	3	3	3	3	3	3	3	0	0	3	0	0	0	0	0	0	0	0	0	0		1	0	0	0	0	0	0	0
010513	16:01:21	1	Trial2BackEngS	NS	17	0	1000	1	102	16:01:21	876325	5	3	3	3	3	3	3	3	3	0	0	3	0	0	0	0	0	0	0	0	0	0		1	0	0	0	0	0	0	0
010513	16:01:21	1	Trial2BackEngS	NS	17	0	1000	1	102	16:01:21	877840	5	3	3	3	3	3	3	3	3	0	0	3	0	0	0	0	0	0	0	0	0	0		1	0	0	0	0	0	0	0
010513	16:01:21	1	Trial2BackEngS	NS	17	0	1000	1	102	16:01:21	879355	5	3	3	3	3	3	3	3	3	0	0	3	0	0	0	0	0	0	0	0	0	0		1	0	0	0	0	0	0	0
010513	16:01:21	1	Trial2BackEngS	NS	17	0	1000	1	102	16:01:21	880870	5	3	3	3	3	3	3	3	3	0	0	3	0	0	0	0	0	0	0	0	0	0		1	0	0	0	0	0	0	0
010513	16:01:21	1	Trial2BackEngS	YS	17	0	1000	0	102	16:01:21	882386	5	3	3	3	3	3	3	3	3	0	0	3	0	0	0	0	0	0	0	0	0	0		1	0	0	0	0	0	0	0
010513	16:01:21	1	Trial2BackEngS	NS	17	0	1000	1	102	16:01:21	883901	5	3	3	3	3	3	3	3	3	0	0	3	0	0	0	0	0	0	0	0	0	0		1	0	0	0	0	0	0	0
010513	16:01:21	1	Trial2BackEngS	NS	17	0	1000	1	102	16:01:21	885416	5	3	3	3	3	3	3	3	3	0	0	3	0	0	0	0	0	0	0	0	0	0		1	0	0	0	0	0	0	0
010513	16:01:21	1	Trial2BackEngS	YS	17	0	1000	0	102	16:01:21	886931	5	3	3	3	3	3	3	3	3	0	0	3	0	0	0	0	0	0	0	0	0	0		1	0	0	0	0	0	0	0
010513	16:01:21	1	Trial2BackEngS	NS	17	0	1000	1	102	16:01:21	888446	5	3	3	3	3	3	3	3	3	0	0	3	0	0	0	0	0	0	0	0	0	0		1	0	0	0	0	0	0	0
010513	16:01:21	1	Trial2BackEngS	NS	17	0	1000	1	102	16:01:21	889961	5	3	3	3	3	3	3	3	3	0	0	3	0	0	0	0	0	0	0	0	0	0		1	0	0	0	0	0	0	0
010513	16:01:21	1	Trial2BackEngS	NS	17	0	1000	1	102	16:01:21	891476	5	3	3	3	3	3	3	3	3	0	0	3	0	0	0	0	0	0	0	0	0	0		1	0	0	0	0	0	0	0
010513	16:01:21	1	Trial2BackEngS	NS	17	0	1000	1	102	16:01:21	892992	5	3	3	3	3	3	3	3	3	0	0	3	0	0	0	0	0	0	0	0	0	0		1	0	0	0	0	0	0	0
010513	16:01:21	1	Trial2BackEngS	NS	17	0	1000	1	102	16:01:21	894507	5	3	3	3	3	3	3	3	3	0	0	3	0	0	0	0	0	0	0	0	0	0		1	0	0	0	0	0	0	0
010513	16:01:21	1	Trial2BackEngS	NS	17	0	1000	1	102	16:01:21	896022	5	3	3	3	3	3	3	3	3	0	0	3	0	0	0	0	0	0	0	0	0	0		1	0	0	0	0	0	0	0
010513	16:01:21	1	Trial2BackEngS	YS	17	0	1000	0	102	16:01:21	897537	5	3	3	3	3	3	3	3	3	0	0	3	0	0	0	0	0	0	0	0	0	0		1	0	0	0	0	0	0	0
010513	16:01:21	1	Trial2BackEngS	NS	17	0	1000	1	102	16:01:21	899052	5	3	3	3	3	3	3	3	3	0	0	3	0	0	0	0	0	0	0	0	0	0		1	0	0	0	0	0	0	0
010513	16:01:21	1	Trial2BackEngS	NS	17	0	1000	1	102	16:01:21	900567	5	3	3	3	3	3	3	3	3	0	0	3	0	0	0	0	0	0	0	0	0	0		1	0	0	0	0	0	0	0
010513	16:01:21	1	Trial2BackEngS	NS	17	0	1000	1	102	16:01:21	902083	5	3	3	3	3	3	3	3	3	0	0	3	0	0	0	0	0	0	0	0	0	0		1	0	0	0	0	0	0	0
010513	16:01:21	1	Trial2BackEngS	NS	17	0	1000	1	102	16:01:21	903598	5	3	3	3	3	3	3	3	3	0	0	3	0	0	0	0	0	0	0	0	0	0		1	0	0	0	0	0	0	0
010513	16:01:21	1	Trial2BackEngS	YS	17	0	1000	0	102	16:01:21	905113	5	3	3	3	3	3	3	3	3	0	0	3	0	0	0	0	0	0	0	0	0	0		1	0	0	0	0	0	0	0
010513	16:01:21	1	Trial2BackEngS	NS	17	0	1000	1	102	16:01:21	906628	5	3	3	3	3	3	3	3	3	0	0	3	0	0	0	0	0	0	0	0	0	0		1	0	0	0	0	0	0	0
010513	16:01:21	1	Trial2BackEngS	NS	17	0	1000	1	102	16:01:21	908143	5	3	3	3	3	3	3	3	3	0	0	3	0	0	0	0	0	0	0	0	0	0		1	0	0	0	0	0	0	0
010513	16:01:21	1	Trial2BackEngS	NS	17	0	1000	1	102	16:01:21	909658	5	3	3	3	3	3	3	3	3	0	0	3	0	0	0	0	0	0	0	0	0	0		1	0	0	0	0	0	0	0
010513	16:01:21	1	Trial2BackEngS	NS	17	0	1000	1	102	16:01:21	911174	5	3	3	3	3	3	3	3	3	0	0	3	0	0	0	0	0	0	0	0	0	0		1	0	0	0	0	0	0	0
010513	16:01:21	1	Trial2BackEngS	YS	17	0	1000	0	102	16:01:21	912689	5	3	3	3	3	3	3	3	3	0	0	3	0	0	0	0	0	0	0	0	0	0		1	0	0	0	0	0	0	0
010513	16:01:21	1	Trial2BackEngS	NS	17	0	1000	1	102	16:01:21	914204	5	3	3	3	3	3	3	3	3	0	0	3	0	0	0	0	0	0	0	0	0	0		1	0	0	0	0	0	0	0
010513	16:01:21	1	Trial2BackEngS	NS	17	0	1000	1	102	16:01:21	915719	5	3	3	3	3	3	3	3	3	0	0	3	0	0	0	0	0	0	0	0	0	0		1	0	0	0	0	0	0	0
010513	16:01:21	1	Trial2BackEngS	YS	17	0	1000	0	102	16:01:21	917234	5	3	3	3	3	3	3	3	3	0	0	3	0	0	0	0	0	0	0	0	0	0		1	0	0	0	0	0	0	0
010513	16:01:21	1	Trial2BackEngS	NS	17	0	1000	1	102	16:01:21	918749	5	3	3	3	3	3	3	3	3	0	0	3	0	0	0	0	0	0	0	0	0	0		1	0	0	0	0	0	0	0
010513	16:01:21	1	Trial2BackEngS	NS	17	0	1000	1	102	16:01:21	920264	5	3	3	3	3	3	3	3	3	0	0	3	0	0	0	0	0	0	0	0	0	0		1	0	0	0	0	0	0	0
010513	16:01:21	1	Trial2BackEngS	NS	17	0	1000	1	102	16:01:21	921780	5	3	3	3	3	3	3	3	3	0	0	3	0	0	0	0	0	0	0	0	0	0		1	0	0	0	0	0	0	0
010513	16:01:21	1	Trial2BackEngS	NS	17	0	1000	1	102	16:01:21	923295	5	3	3	3	3	3	3	3	3	0	0	3	0	0	0	0	0	0	0	0	0	0		1	0	0	0	0	0	0	0
010513	16:01:21	1	Trial2BackEngS	NS	17	0	1000	1	102	16:01:21	924810	5	3	3	3	3	3	3	3	3	0	0	3	0	0	0	0	0	0	0	0	0	0		1	0	0	0	0	0	0	0
010513	16:01:21	1	Trial2BackEngS	NS	17	0	1000	1	102	16:01:21	926325	5	3	3	3	3	3	3	3	3	0	0	3	0	0	0	0	0	0	0	0	0	0		1	0	0	0	0	0	0	0
010513	16:01:21	1	Trial2BackEngS	NS	17	0	1000	1	102	16:01:21	927840	5	3	3	3	3	3	3	3	3	0	0	3	0	0	0	0	0	0	0	0	0	0		1	0	0	0	0	0	0	0
010513	16:01:21	1	Trial2BackEngS	NS	17	0	1000	1	102	16:01:21	929355	5	3	3	3	3	3	3	3	3	0	0	3	0	0	0	0	0	0	0	0	0	0		1	0	0	0	0	0	0	0
010513	16:01:21	1	Trial2BackEngS	YS	17	0	1000	0	102	16:01:21	930871	5	3	3	3	3	3	3	3	3	0	0	3	0	0	0	0	0	0	0	0	0	0		1	0	0	0	0	0	0	0
010513	16:01:21	1	Trial2BackEngS	NS	17	0	1000	1	102	16:01:21	932386	5	3	3	3	3	3	3	3	3	0	0	3	0	0	0	0	0	0	0	0	0	0		1	0	0	0	0	0	0	0
010513	16:01:21	1	Trial2BackEngS	NS	17	0	1000	1	102	16:01:21	933901	5	3	3	3	3	3	3	3	3	0	0	3	0	0	0	0	0	0	0	0	0	0		1	0	0	0	0	0	0	0
010513	16:01:21	1	Trial2BackEngS	NS	17	0	1000	1	102	16:01:21	935416	5	3	3	3	3	3	3	3	3	0	0	3	0	0	0	0	0	0	0	0	0	0		1	0	0	0	0	0	0	0
010513	16:01:21	1	Trial2BackEngS	NS	17	0	1000	1	102	16:01:21	936931	5	3	3	3	3	3	3	3	3	0	0	3	0	0	0	0	0	0	0	0	0	0		1	0	0	0	0	0	0	0
010513	16:01:21	1	Trial2BackEngS	NS	17	0	1000	1	102	16:01:21	938446	5	3	3	3	3	3	3	3	3	0	0	3	0	0	0	0	0	0	0	0	0	0		1	0	0	0	0	0	0	0
010513	16:01:21	1	Trial2BackEngS	NS	17	0	1000	1	102	16:01:21	939961	5	3	3	3	3	3	3	3	3	0	0	3	0	0	0	0	0	0	0	0	0	0		1	0	0	0	0	0	0	0
010513	16:01:21	1	Trial2BackEngS	NS	17	0	1000	1	102	16:01:21	941477	5	3	3	3	3	3	3	3	3	0	0	3	0	0	0	0	0	0	0	0	0	0		1	0	0	0	0	0	0	0
010513	16:01:21	1	Trial2BackEngS	YS	17	0	1000	0	102	16:01:21	942992	5	3	3	3	3	3	3	3	3	0	0	3	0	0	0	0	0	0	0	0	0	0		1	0	0	0	0	0	0	0
010513	16:01:21	1	Trial2BackEngS	NS	17	0	1000	1	102	16:01:21	944507	5	3	3	3	3	3	3	3	3	0	0	3	0	0	0	0	0	0	0	0	0	0		1	0	0	0	0	0	0	0
010513	16:01:21	1	Trial2BackEngS	NS	17	0	1000	1	102	16:01:21	946022	5	3	3	3	3	3	3	3	3	0	0	3	0	0	0	0	0	0	0	0	0	0		1	0	0	0	0	0	0	0
010513	16:01:21	1	Trial2BackEngS	NS	17	0	1000	1	102	16:01:21	947537	5	3	3	3	3	3	3	3	3	0	0	3	0	0	0	0	0	0	0	0	0	0		1	0	0	0	0	0	0	0
010513	16:01:21	1	Trial2BackEngS	NS	17	0	1000	1	102	16:01:21	949053	5	3	3	3	3	3	3	3	3	0	0	3	0	0	0	0	0	0	0	0	0	0		1	0	0	0	0	0	0	0
010513	16:01:21	1	Trial2BackEngS	NS	17	0	1000	1	102	16:01:21	950568	5	3	3	3	3	3	3	3	3	0	0	3	0	0	0	0	0	0	0	0	0	0		1	0	0	0	0	0	0	0
010513	16:01:21	1	Trial2BackEngS	NS	17	0	1000	1	102	16:01:21	952083	5	3	3	3	3	3	3	3	3	0	0	3	0	0	0	0	0	0	0	0	0	0		1	0	0	0	0	0	0	0
010513	16:01:21	1	Trial2BackEngS	NS	17	0	1000	1	102	16:01:21	953598	5	3	3	3	3	3	3	3	3	0	0	3	0	0	0	0	0	0	0	0	0	0		1	0	0	0	0	0	0	0
010513	16:01:21	1	Trial2BackEngS	NS	17	0	1000	1	102	16:01:21	955113	5	3	3	3	3	3	3	3	3	0	0	3	0	0	0	0	0	0	0	0	0	0		1	0	0	0	0	0	0	0
010513	16:01:21	1	Trial2BackEngS	NS	17	0	1000	1	102	16:01:21	956628	5	3	3	3	3	3	3	3	3	0	0	3	0	0	0	0	0	0	0	0	0	0		1	0	0	0	0	0	0	0
010513	16:01:21	1	Trial2BackEngS	YS	17	0	1000	0	102	16:01:21	958143	5	3	3	3	3	3	3	3	3	0	0	3	0	0	0	0	0	0	0	0	0	0		1	0	0	0	0	0	0	0
010513	16:01:21	1	Trial2BackEngS	NS	17	0	1000	1	102	16:01:21	959658	5	3	3	3	3	3	3	3	3	0	0	3	0	0	0	0	0	0	0	0	0	0		1	0	0	0	0	0	0	0
010513	16:01:21	1	ClockEng6mo	ClockEng6mo	19	Clock1	2224	0	102	16:01:21	962039	5	3	3	3	3	3	3	3	3	0	0	3	1	0	0	0	0	0	0	0	0	0		1	0	0	0	0	0	0	0
010513	16:01:21	1	ClockEng6mo	ClockEng6mo	19	Clock11	1012	0	102	16:01:21	963105	5	3	3	3	3	3	3	3	3	0	0	3	1	1	0	0	0	0	0	0	0	0		1	0	0	0	0	0	0	0
010513	16:01:21	1	ClockEng6mo	ClockEng6mo	19	Clock111	1319	0	102	16:01:21	964487	5	3	3	3	3	3	3	3	3	0	0	3	1	1	1	0	0	0	0	0	0	0		1	0	0	0	0	0	0	0
010513	16:01:21	1	ClockEng6mo	ClockEng6mo	19	Clockdone	1187	0	102	16:01:21	965736	5	3	3	3	3	3	3	3	3	0	0	3	1	1	1	0	0	0	0	0	0	0		1	0	0	0	0	0	0	0
010513	16:01:21	1	FASEngVF6mo	StopEngVF6mo	20	8	3786	0	102	16:01:21	1041177	5	3	3	3	3	3	3	3	3	0	0	3	1	1	1	0	0	0	0	0	0	0		1	0	0	0	0	0	0	0
010513	16:01:21	1	practiceTOLENG	choice	20	R	2703	0	102	16:01:21	1050540	5	3	3	3	3	3	3	3	3	0	0	3	1	1	1	0	0	0	1	2	0	-2	R	0	0	0	2798	0	0	1047742	1050540
010513	16:01:21	1	practiceTOLENG	choice	20	B	1159	0	102	16:01:21	1055740	5	3	3	3	3	3	3	3	3	0	0	3	1	1	1	0	0	0	1	2	1	-1	R3B	0	0	0	2798	0	0	1054501	1055739
010513	16:01:21	1	practiceTOLENG	feedbackENG	20	0	2000	0	102	16:01:21	1059506	5	3	3	3	3	3	3	3	3	0	0	3	1	1	1	0	0	0	1	2	2	0	R3B1	1	3	3	2798	6901	9699	1054501	1055739
010513	16:01:21	1	testTOLENG	choice	20	B	2943	0	102	16:01:21	1075073	5	3	3	3	3	3	3	3	3	0	0	3	1	1	1	0	0	2	1	2	0	-2	B	0	0	0	3023	0	0	1072050	1075073
010513	16:01:21	1	testTOLENG	choice	20	R	1867	0	102	16:01:21	1078609	5	3	3	3	3	3	3	3	3	0	0	3	1	1	1	0	0	2	1	2	1	-1	B3R	0	0	0	3023	0	0	1076666	1078609
010513	16:01:21	1	testTOLENG	feedbackENG	20	0	2000	0	102	16:01:21	1082183	5	3	3	3	3	3	3	3	3	0	0	3	1	1	1	0	0	2	1	2	2	0	B3R2	1	3	3	3023	5044	8067	1076666	1078609
010513	16:01:21	1	testTOLENG	choice	20	B	6459	0	102	16:01:21	1089761	5	3	3	3	3	3	3	3	3	0	0	3	1	1	1	0	0	4	1	3	0	-3	B	0	0	3	6538	0	0	1083223	1089761
010513	16:01:21	1	testTOLENG	choice	20	R	1264	0	102	16:01:21	1092325	5	3	3	3	3	3	3	3	3	0	0	3	1	1	1	0	0	4	1	3	1	-2	B3R	0	0	3	6538	0	0	1090977	1092324
010513	16:01:21	1	testTOLENG	choice	20	B	1170	0	102	16:01:21	1094596	5	3	3	3	3	3	3	3	3	0	0	3	1	1	1	0	0	4	1	3	2	-1	B3R2B	0	0	3	6538	0	0	1093346	1094596
010513	16:01:21	1	testTOLENG	feedbackENG	20	0	2000	0	102	16:01:21	1097888	5	3	3	3	3	3	3	3	3	0	0	3	1	1	1	0	0	4	1	3	3	0	B3R2B2	1	3	6	6538	6063	12601	1093346	1094596
010513	16:01:21	1	testTOLENG	choice	20	R	3328	0	102	16:01:21	1102348	5	3	3	3	3	3	3	3	3	0	0	3	1	1	1	0	0	7	1	4	0	-4	R	0	0	6	3411	0	0	1098937	1102348
010513	16:01:21	1	testTOLENG	choice	20	G	1286	0	102	16:01:21	1104485	5	3	3	3	3	3	3	3	3	0	0	3	1	1	1	0	0	7	1	4	1	-3	R2G	0	0	6	3411	0	0	1103125	1104485
010513	16:01:21	1	testTOLENG	choice	20	R	1545	0	102	16:01:21	1107109	5	3	3	3	3	3	3	3	3	0	0	3	1	1	1	0	0	7	1	4	2	-2	R2G3R	0	0	6	3411	0	0	1105494	1107109
010513	16:01:21	1	testTOLENG	choice	20	B	1039	0	102	16:01:21	1110049	5	3	3	3	3	3	3	3	3	0	0	3	1	1	1	0	0	7	1	4	3	-1	R2G3R1B	0	0	6	3411	0	0	1108932	1110049
010513	16:01:21	1	testTOLENG	feedbackENG	20	0	2000	0	102	16:01:21	1112978	5	3	3	3	3	3	3	3	3	0	0	3	1	1	1	0	0	7	1	4	4	0	R2G3R1B1	1	3	9	3411	8565	11976	1108932	1110049
010513	16:01:21	1	testTOLENG	choice	20	R	9914	0	102	16:01:21	1124019	5	3	3	3	3	3	3	3	3	0	0	3	1	1	1	0	0	10	1	5	0	-5	R	0	0	9	9992	0	0	1114026	1124018
010513	16:01:21	1	testTOLENG	choice	20	G	1700	0	102	16:01:21	1126727	5	3	3	3	3	3	3	3	3	0	0	3	1	1	1	0	0	10	1	5	1	-4	R2G	0	0	9	9992	0	0	1124955	1126727
010513	16:01:21	1	testTOLENG	choice	20	R	2263	0	102	16:01:21	1130287	5	3	3	3	3	3	3	3	3	0	0	3	1	1	1	0	0	10	1	5	2	-3	R2G3R	0	0	9	9992	0	0	1127955	1130287
010513	16:01:21	1	testTOLENG	choice	20	B	1058	0	102	16:01:21	1133095	5	3	3	3	3	3	3	3	3	0	0	3	1	1	1	0	0	10	1	5	3	-2	R2G3R1B	0	0	9	9992	0	0	1131953	1133094
010513	16:01:21	1	testTOLENG	choice	20	G	1626	0	102	16:01:21	1135694	5	3	3	3	3	3	3	3	3	0	0	3	1	1	1	0	0	10	1	5	4	-1	R2G3R1B1G	0	0	9	9992	0	0	1133995	1135694
010513	16:01:21	1	testTOLENG	feedbackENG	20	0	2000	0	102	16:01:21	1139220	5	3	3	3	3	3	3	3	3	0	0	3	1	1	1	0	0	10	1	5	5	0	R2G3R1B1G1	1	3	12	9992	13135	23127	1133995	1135694
