date	time	subject	blockcode	trialcode	values.TaskNumber	response	latency	correct	values.Score	script.starttime	script.elapsedtime	values.ScoreS7	values.Word1	values.Word2	values.Word3	values.Word4	values.Word5	values.Word6	values.Word7	values.Word8	values.DigitSpanFwrd	values.DigitSpanBack	values.ScoreAbs	values.Contour	values.Numbers	values.Hands	values.corsiblockspanFwrd	values.corsiblockspanRev	values.problemnumber	values.subjectattempts	values.targetmoves	values.subjectmoves	expressions.excessmoves	values.movestring	expressions.targetachieved	values.problemscore	values.totalscoreTOL	expressions.firstmovetime	expressions.executiontime	expressions.solutiontime	values.t_choicestart	values.t_choiceend
010513	15:35:18	1	Language	Language	0	French	4040	0	0	15:35:18	4164	0	0	0	0	0	0	0	0	0	0	0	0	0	0	0	0	0	0	0	0	0	0		1	0	0	0	0	0	0	0
010513	15:35:18	1	Session	Session	0	6mo	878	0	0	15:35:18	5146	0	0	0	0	0	0	0	0	0	0	0	0	0	0	0	0	0	0	0	0	0	0		1	0	0	0	0	0	0	0
010513	15:35:18	1	HandFr	HandFr	0	LeftFr	1914	0	0	15:35:18	7178	0	0	0	0	0	0	0	0	0	0	0	0	0	0	0	0	0	0	0	0	0	0		1	0	0	0	0	0	0	0
010513	15:35:18	1	AudioCheckFr	WordsFr	0	0	0	0	0	15:35:18	15993	0	0	0	0	0	0	0	0	0	0	0	0	0	0	0	0	0	0	0	0	0	0		1	0	0	0	0	0	0	0
010513	15:35:18	1	CubeFr	CubeFr	1	1Cube	19328	0	0	15:35:18	37448	0	0	0	0	0	0	0	0	0	0	0	0	0	0	0	0	0	0	0	0	0	0		1	0	0	0	0	0	0	0
010513	15:35:18	1	pm.simpleFrLeft	blank.simpleFr	2	0	2200	1	0	15:35:18	45256	0	0	0	0	0	0	0	0	0	0	0	0	0	0	0	0	0	0	0	0	0	0		1	0	0	0	0	0	0	0
010513	15:35:18	1	pm.simpleFrLeft	pm.simpleFr	2	57	464	0	0	15:35:18	45773	0	0	0	0	0	0	0	0	0	0	0	0	0	0	0	0	0	0	0	0	0	0		1	0	0	0	0	0	0	0
010513	15:35:18	1	pm.simpleFrLeft	blank.simpleFr	2	0	1700	1	0	15:35:18	47521	0	0	0	0	0	0	0	0	0	0	0	0	0	0	0	0	0	0	0	0	0	0		1	0	0	0	0	0	0	0
010513	15:35:18	1	pm.simpleFrLeft	pm.simpleFr	2	57	295	0	0	15:35:18	47871	0	0	0	0	0	0	0	0	0	0	0	0	0	0	0	0	0	0	0	0	0	0		1	0	0	0	0	0	0	0
010513	15:35:18	1	pm.simpleFrLeft	blank.simpleFr	2	0	1800	1	0	15:35:18	49719	0	0	0	0	0	0	0	0	0	0	0	0	0	0	0	0	0	0	0	0	0	0		1	0	0	0	0	0	0	0
010513	15:35:18	1	pm.simpleFrLeft	pm.simpleFr	2	57	277	0	0	15:35:18	50052	0	0	0	0	0	0	0	0	0	0	0	0	0	0	0	0	0	0	0	0	0	0		1	0	0	0	0	0	0	0
010513	15:35:18	1	pm.simpleFrLeft	blank.simpleFr	2	0	1500	1	0	15:35:18	51600	0	0	0	0	0	0	0	0	0	0	0	0	0	0	0	0	0	0	0	0	0	0		1	0	0	0	0	0	0	0
010513	15:35:18	1	pm.simpleFrLeft	pm.simpleFr	2	57	254	0	0	15:35:18	51917	0	0	0	0	0	0	0	0	0	0	0	0	0	0	0	0	0	0	0	0	0	0		1	0	0	0	0	0	0	0
010513	15:35:18	1	pm.simpleFrLeft	blank.simpleFr	2	0	2500	1	0	15:35:18	54464	0	0	0	0	0	0	0	0	0	0	0	0	0	0	0	0	0	0	0	0	0	0		1	0	0	0	0	0	0	0
010513	15:35:18	1	pm.simpleFrLeft	pm.simpleFr	2	57	218	0	0	15:35:18	54747	0	0	0	0	0	0	0	0	0	0	0	0	0	0	0	0	0	0	0	0	0	0		1	0	0	0	0	0	0	0
010513	15:35:18	1	pm.simpleFrLeft	blank.simpleFr	2	0	2000	1	0	15:35:18	56795	0	0	0	0	0	0	0	0	0	0	0	0	0	0	0	0	0	0	0	0	0	0		1	0	0	0	0	0	0	0
010513	15:35:18	1	pm.simpleFrLeft	pm.simpleFr	2	57	255	0	0	15:35:18	57111	0	0	0	0	0	0	0	0	0	0	0	0	0	0	0	0	0	0	0	0	0	0		1	0	0	0	0	0	0	0
010513	15:35:18	1	pm.simpleFrLeft	blank.simpleFr	2	0	1900	1	0	15:35:18	59059	0	0	0	0	0	0	0	0	0	0	0	0	0	0	0	0	0	0	0	0	0	0		1	0	0	0	0	0	0	0
010513	15:35:18	1	pm.simpleFrLeft	pm.simpleFr	2	57	255	0	0	15:35:18	59376	0	0	0	0	0	0	0	0	0	0	0	0	0	0	0	0	0	0	0	0	0	0		1	0	0	0	0	0	0	0
010513	15:35:18	1	pm.simpleFrLeft	blank.simpleFr	2	0	2400	1	0	15:35:18	61823	0	0	0	0	0	0	0	0	0	0	0	0	0	0	0	0	0	0	0	0	0	0		1	0	0	0	0	0	0	0
010513	15:35:18	1	pm.simpleFrLeft	pm.simpleFr	2	57	226	0	0	15:35:18	62106	0	0	0	0	0	0	0	0	0	0	0	0	0	0	0	0	0	0	0	0	0	0		1	0	0	0	0	0	0	0
010513	15:35:18	1	pm.simpleFrLeft	blank.simpleFr	2	0	2100	1	0	15:35:18	64254	0	0	0	0	0	0	0	0	0	0	0	0	0	0	0	0	0	0	0	0	0	0		1	0	0	0	0	0	0	0
010513	15:35:18	1	pm.simpleFrLeft	pm.simpleFr	2	57	281	0	0	15:35:18	64587	0	0	0	0	0	0	0	0	0	0	0	0	0	0	0	0	0	0	0	0	0	0		1	0	0	0	0	0	0	0
010513	15:35:18	1	pm.simpleFrLeft	blank.simpleFr	2	0	1600	1	0	15:35:18	66235	0	0	0	0	0	0	0	0	0	0	0	0	0	0	0	0	0	0	0	0	0	0		1	0	0	0	0	0	0	0
010513	15:35:18	1	pm.simpleFrLeft	pm.simpleFr	2	57	263	0	0	15:35:18	66552	0	0	0	0	0	0	0	0	0	0	0	0	0	0	0	0	0	0	0	0	0	0		1	0	0	0	0	0	0	0
010513	15:35:18	1	pm.simpleFrLeft	blank.simpleFr	2	0	2300	1	0	15:35:18	68899	0	0	0	0	0	0	0	0	0	0	0	0	0	0	0	0	0	0	0	0	0	0		1	0	0	0	0	0	0	0
010513	15:35:18	1	pm.simpleFrLeft	pm.simpleFr	2	57	229	0	0	15:35:18	69182	0	0	0	0	0	0	0	0	0	0	0	0	0	0	0	0	0	0	0	0	0	0		1	0	0	0	0	0	0	0
010513	15:35:18	1	pm.simpleFrLeft	blank.simpleFr	2	0	1600	1	0	15:35:18	70831	0	0	0	0	0	0	0	0	0	0	0	0	0	0	0	0	0	0	0	0	0	0		1	0	0	0	0	0	0	0
010513	15:35:18	1	pm.simpleFrLeft	pm.simpleFr	2	57	241	0	0	15:35:18	71131	0	0	0	0	0	0	0	0	0	0	0	0	0	0	0	0	0	0	0	0	0	0		1	0	0	0	0	0	0	0
010513	15:35:18	1	pm.simpleFrLeft	blank.simpleFr	2	0	1800	1	0	15:35:18	72979	0	0	0	0	0	0	0	0	0	0	0	0	0	0	0	0	0	0	0	0	0	0		1	0	0	0	0	0	0	0
010513	15:35:18	1	pm.simpleFrLeft	pm.simpleFr	2	57	159	0	0	15:35:18	73195	0	0	0	0	0	0	0	0	0	0	0	0	0	0	0	0	0	0	0	0	0	0		1	0	0	0	0	0	0	0
010513	15:35:18	1	pm.simpleFrLeft	blank.simpleFr	2	0	2300	1	0	15:35:18	75543	0	0	0	0	0	0	0	0	0	0	0	0	0	0	0	0	0	0	0	0	0	0		1	0	0	0	0	0	0	0
010513	15:35:18	1	pm.simpleFrLeft	pm.simpleFr	2	57	255	0	0	15:35:18	75859	0	0	0	0	0	0	0	0	0	0	0	0	0	0	0	0	0	0	0	0	0	0		1	0	0	0	0	0	0	0
010513	15:35:18	1	pm.simpleFrLeft	blank.simpleFr	2	57	829	0	0	15:35:18	77741	0	0	0	0	0	0	0	0	0	0	0	0	0	0	0	0	0	0	0	0	0	0		1	0	0	0	0	0	0	0
010513	15:35:18	1	pm.simpleFrLeft	blank.simpleFr	2	0	1900	1	0	15:35:18	80305	0	0	0	0	0	0	0	0	0	0	0	0	0	0	0	0	0	0	0	0	0	0		1	0	0	0	0	0	0	0
010513	15:35:18	1	pm.simpleFrLeft	pm.simpleFr	2	57	214	0	0	15:35:18	80571	0	0	0	0	0	0	0	0	0	0	0	0	0	0	0	0	0	0	0	0	0	0		1	0	0	0	0	0	0	0
010513	15:35:18	1	pm.simpleFrLeft	blank.simpleFr	2	0	2200	1	0	15:35:18	82819	0	0	0	0	0	0	0	0	0	0	0	0	0	0	0	0	0	0	0	0	0	0		1	0	0	0	0	0	0	0
010513	15:35:18	1	pm.simpleFrLeft	pm.simpleFr	2	57	231	0	0	15:35:18	83102	0	0	0	0	0	0	0	0	0	0	0	0	0	0	0	0	0	0	0	0	0	0		1	0	0	0	0	0	0	0
010513	15:35:18	1	pm.simpleFrLeft	blank.simpleFr	2	0	1700	1	0	15:35:18	84850	0	0	0	0	0	0	0	0	0	0	0	0	0	0	0	0	0	0	0	0	0	0		1	0	0	0	0	0	0	0
010513	15:35:18	1	pm.simpleFrLeft	pm.simpleFr	2	57	257	0	0	15:35:18	85167	0	0	0	0	0	0	0	0	0	0	0	0	0	0	0	0	0	0	0	0	0	0		1	0	0	0	0	0	0	0
010513	15:35:18	1	pm.simpleFrLeft	blank.simpleFr	2	0	2000	1	0	15:35:18	87214	0	0	0	0	0	0	0	0	0	0	0	0	0	0	0	0	0	0	0	0	0	0		1	0	0	0	0	0	0	0
010513	15:35:18	1	pm.simpleFrLeft	pm.simpleFr	2	57	296	0	0	15:35:18	87564	0	0	0	0	0	0	0	0	0	0	0	0	0	0	0	0	0	0	0	0	0	0		1	0	0	0	0	0	0	0
010513	15:35:18	1	pm.simpleFrLeft	blank.simpleFr	2	0	2100	1	0	15:35:18	89712	0	0	0	0	0	0	0	0	0	0	0	0	0	0	0	0	0	0	0	0	0	0		1	0	0	0	0	0	0	0
010513	15:35:18	1	pm.simpleFrLeft	pm.simpleFr	2	57	266	0	0	15:35:18	90045	0	0	0	0	0	0	0	0	0	0	0	0	0	0	0	0	0	0	0	0	0	0		1	0	0	0	0	0	0	0
010513	15:35:18	1	pm.simpleFrLeft	blank.simpleFr	2	0	1500	1	0	15:35:18	91593	0	0	0	0	0	0	0	0	0	0	0	0	0	0	0	0	0	0	0	0	0	0		1	0	0	0	0	0	0	0
010513	15:35:18	1	pm.simpleFrLeft	pm.simpleFr	2	57	327	0	0	15:35:18	91976	0	0	0	0	0	0	0	0	0	0	0	0	0	0	0	0	0	0	0	0	0	0		1	0	0	0	0	0	0	0
010513	15:35:18	1	pm.simpleFrLeft	blank.simpleFr	2	0	2400	1	0	15:35:18	94424	0	0	0	0	0	0	0	0	0	0	0	0	0	0	0	0	0	0	0	0	0	0		1	0	0	0	0	0	0	0
010513	15:35:18	1	pm.simpleFrLeft	pm.simpleFr	2	57	237	0	0	15:35:18	94724	0	0	0	0	0	0	0	0	0	0	0	0	0	0	0	0	0	0	0	0	0	0		1	0	0	0	0	0	0	0
010513	15:35:18	1	pm.simpleFrLeft	blank.simpleFr	2	0	2500	1	0	15:35:18	97271	0	0	0	0	0	0	0	0	0	0	0	0	0	0	0	0	0	0	0	0	0	0		1	0	0	0	0	0	0	0
010513	15:35:18	1	pm.simpleFrLeft	pm.simpleFr	2	57	253	0	0	15:35:18	97587	0	0	0	0	0	0	0	0	0	0	0	0	0	0	0	0	0	0	0	0	0	0		1	0	0	0	0	0	0	0
010513	15:35:18	1	pm.simpleFrLeft	blank.simpleFr	2	0	2100	1	0	15:35:18	99735	0	0	0	0	0	0	0	0	0	0	0	0	0	0	0	0	0	0	0	0	0	0		1	0	0	0	0	0	0	0
010513	15:35:18	1	pm.simpleFrLeft	pm.simpleFr	2	57	315	0	0	15:35:18	100102	0	0	0	0	0	0	0	0	0	0	0	0	0	0	0	0	0	0	0	0	0	0		1	0	0	0	0	0	0	0
010513	15:35:18	1	pm.simpleFrLeft	blank.simpleFr	2	0	2400	1	0	15:35:18	102549	0	0	0	0	0	0	0	0	0	0	0	0	0	0	0	0	0	0	0	0	0	0		1	0	0	0	0	0	0	0
010513	15:35:18	1	pm.simpleFrLeft	pm.simpleFr	2	57	310	0	0	15:35:18	102915	0	0	0	0	0	0	0	0	0	0	0	0	0	0	0	0	0	0	0	0	0	0		1	0	0	0	0	0	0	0
010513	15:35:18	1	pm.simpleFrLeft	blank.simpleFr	2	0	1900	1	0	15:35:18	104864	0	0	0	0	0	0	0	0	0	0	0	0	0	0	0	0	0	0	0	0	0	0		1	0	0	0	0	0	0	0
010513	15:35:18	1	pm.simpleFrLeft	pm.simpleFr	2	57	473	0	0	15:35:18	105396	0	0	0	0	0	0	0	0	0	0	0	0	0	0	0	0	0	0	0	0	0	0		1	0	0	0	0	0	0	0
010513	15:35:18	1	pm.simpleFrLeft	blank.simpleFr	2	0	1500	1	0	15:35:18	106945	0	0	0	0	0	0	0	0	0	0	0	0	0	0	0	0	0	0	0	0	0	0		1	0	0	0	0	0	0	0
010513	15:35:18	1	pm.simpleFrLeft	pm.simpleFr	2	57	370	0	0	15:35:18	107378	0	0	0	0	0	0	0	0	0	0	0	0	0	0	0	0	0	0	0	0	0	0		1	0	0	0	0	0	0	0
010513	15:35:18	1	pm.simpleFrLeft	blank.simpleFr	2	0	1800	1	0	15:35:18	109226	0	0	0	0	0	0	0	0	0	0	0	0	0	0	0	0	0	0	0	0	0	0		1	0	0	0	0	0	0	0
010513	15:35:18	1	pm.simpleFrLeft	pm.simpleFr	2	57	300	0	0	15:35:18	109592	0	0	0	0	0	0	0	0	0	0	0	0	0	0	0	0	0	0	0	0	0	0		1	0	0	0	0	0	0	0
010513	15:35:18	1	pm.simpleFrLeft	blank.simpleFr	2	0	2000	1	0	15:35:18	111640	0	0	0	0	0	0	0	0	0	0	0	0	0	0	0	0	0	0	0	0	0	0		1	0	0	0	0	0	0	0
010513	15:35:18	1	pm.simpleFrLeft	pm.simpleFr	2	57	265	0	0	15:35:18	111956	0	0	0	0	0	0	0	0	0	0	0	0	0	0	0	0	0	0	0	0	0	0		1	0	0	0	0	0	0	0
010513	15:35:18	1	pm.simpleFrLeft	blank.simpleFr	2	0	2200	1	0	15:35:18	114204	0	0	0	0	0	0	0	0	0	0	0	0	0	0	0	0	0	0	0	0	0	0		1	0	0	0	0	0	0	0
010513	15:35:18	1	pm.simpleFrLeft	pm.simpleFr	2	57	272	0	0	15:35:18	114537	0	0	0	0	0	0	0	0	0	0	0	0	0	0	0	0	0	0	0	0	0	0		1	0	0	0	0	0	0	0
010513	15:35:18	1	pm.simpleFrLeft	blank.simpleFr	2	0	1700	1	0	15:35:18	116285	0	0	0	0	0	0	0	0	0	0	0	0	0	0	0	0	0	0	0	0	0	0		1	0	0	0	0	0	0	0
010513	15:35:18	1	pm.simpleFrLeft	pm.simpleFr	2	57	278	0	0	15:35:18	116618	0	0	0	0	0	0	0	0	0	0	0	0	0	0	0	0	0	0	0	0	0	0		1	0	0	0	0	0	0	0
010513	15:35:18	1	pm.simpleFrLeft	blank.simpleFr	2	0	2300	1	0	15:35:18	118966	0	0	0	0	0	0	0	0	0	0	0	0	0	0	0	0	0	0	0	0	0	0		1	0	0	0	0	0	0	0
010513	15:35:18	1	pm.simpleFrLeft	pm.simpleFr	2	57	382	0	0	15:35:18	119416	0	0	0	0	0	0	0	0	0	0	0	0	0	0	0	0	0	0	0	0	0	0		1	0	0	0	0	0	0	0
010513	15:35:18	1	pm.simpleFrLeft	blank.simpleFr	2	0	1600	1	0	15:35:18	121064	0	0	0	0	0	0	0	0	0	0	0	0	0	0	0	0	0	0	0	0	0	0		1	0	0	0	0	0	0	0
010513	15:35:18	1	pm.simpleFrLeft	pm.simpleFr	2	57	267	0	0	15:35:18	121397	0	0	0	0	0	0	0	0	0	0	0	0	0	0	0	0	0	0	0	0	0	0		1	0	0	0	0	0	0	0
010513	15:35:18	1	pm.simpleFrLeft	blank.simpleFr	2	0	2500	1	0	15:35:18	123944	0	0	0	0	0	0	0	0	0	0	0	0	0	0	0	0	0	0	0	0	0	0		1	0	0	0	0	0	0	0
010513	15:35:18	1	pm.simpleFrLeft	pm.simpleFr	2	57	226	0	0	15:35:18	124227	0	0	0	0	0	0	0	0	0	0	0	0	0	0	0	0	0	0	0	0	0	0		1	0	0	0	0	0	0	0
010513	15:35:18	1	pm.simpleFrLeft	blank.simpleFr	2	0	1600	1	0	15:35:18	125876	0	0	0	0	0	0	0	0	0	0	0	0	0	0	0	0	0	0	0	0	0	0		1	0	0	0	0	0	0	0
010513	15:35:18	1	pm.simpleFrLeft	pm.simpleFr	2	57	278	0	0	15:35:18	126209	0	0	0	0	0	0	0	0	0	0	0	0	0	0	0	0	0	0	0	0	0	0		1	0	0	0	0	0	0	0
010513	15:35:18	1	pm.simpleFrLeft	blank.simpleFr	2	0	2400	1	0	15:35:18	128657	0	0	0	0	0	0	0	0	0	0	0	0	0	0	0	0	0	0	0	0	0	0		1	0	0	0	0	0	0	0
010513	15:35:18	1	pm.simpleFrLeft	pm.simpleFr	2	57	237	0	0	15:35:18	128956	0	0	0	0	0	0	0	0	0	0	0	0	0	0	0	0	0	0	0	0	0	0		1	0	0	0	0	0	0	0
010513	15:35:18	1	pm.simpleFrLeft	blank.simpleFr	2	0	1900	1	0	15:35:18	130904	0	0	0	0	0	0	0	0	0	0	0	0	0	0	0	0	0	0	0	0	0	0		1	0	0	0	0	0	0	0
010513	15:35:18	1	pm.simpleFrLeft	pm.simpleFr	2	57	313	0	0	15:35:18	131270	0	0	0	0	0	0	0	0	0	0	0	0	0	0	0	0	0	0	0	0	0	0		1	0	0	0	0	0	0	0
010513	15:35:18	1	pm.simpleFrLeft	blank.simpleFr	2	0	2300	1	0	15:35:18	133618	0	0	0	0	0	0	0	0	0	0	0	0	0	0	0	0	0	0	0	0	0	0		1	0	0	0	0	0	0	0
010513	15:35:18	1	pm.simpleFrLeft	pm.simpleFr	2	57	310	0	0	15:35:18	133984	0	0	0	0	0	0	0	0	0	0	0	0	0	0	0	0	0	0	0	0	0	0		1	0	0	0	0	0	0	0
010513	15:35:18	1	pm.simpleFrLeft	blank.simpleFr	2	0	2100	1	0	15:35:18	136133	0	0	0	0	0	0	0	0	0	0	0	0	0	0	0	0	0	0	0	0	0	0		1	0	0	0	0	0	0	0
010513	15:35:18	1	pm.simpleFrLeft	pm.simpleFr	2	57	314	0	0	15:35:18	136499	0	0	0	0	0	0	0	0	0	0	0	0	0	0	0	0	0	0	0	0	0	0		1	0	0	0	0	0	0	0
010513	15:35:18	1	pm.simpleFrLeft	blank.simpleFr	2	0	2000	1	0	15:35:18	138547	0	0	0	0	0	0	0	0	0	0	0	0	0	0	0	0	0	0	0	0	0	0		1	0	0	0	0	0	0	0
010513	15:35:18	1	pm.simpleFrLeft	pm.simpleFr	2	57	308	0	0	15:35:18	138913	0	0	0	0	0	0	0	0	0	0	0	0	0	0	0	0	0	0	0	0	0	0		1	0	0	0	0	0	0	0
010513	15:35:18	1	pm.simpleFrLeft	blank.simpleFr	2	0	1800	1	0	15:35:18	140761	0	0	0	0	0	0	0	0	0	0	0	0	0	0	0	0	0	0	0	0	0	0		1	0	0	0	0	0	0	0
010513	15:35:18	1	pm.simpleFrLeft	pm.simpleFr	2	57	284	0	0	15:35:18	141111	0	0	0	0	0	0	0	0	0	0	0	0	0	0	0	0	0	0	0	0	0	0		1	0	0	0	0	0	0	0
010513	15:35:18	1	Trial2BackFr	N	3	0	1000	1	1	15:35:18	164021	0	0	0	0	0	0	0	0	0	0	0	0	0	0	0	0	0	0	0	0	0	0		1	0	0	0	0	0	0	0
010513	15:35:18	1	Trial2BackFr	N	3	0	1000	1	2	15:35:18	165536	0	0	0	0	0	0	0	0	0	0	0	0	0	0	0	0	0	0	0	0	0	0		1	0	0	0	0	0	0	0
010513	15:35:18	1	Trial2BackFr	N	3	0	1000	1	3	15:35:18	167051	0	0	0	0	0	0	0	0	0	0	0	0	0	0	0	0	0	0	0	0	0	0		1	0	0	0	0	0	0	0
010513	15:35:18	1	Trial2BackFr	N	3	0	1000	1	4	15:35:18	168567	0	0	0	0	0	0	0	0	0	0	0	0	0	0	0	0	0	0	0	0	0	0		1	0	0	0	0	0	0	0
010513	15:35:18	1	Trial2BackFr	N	3	0	1000	1	5	15:35:18	170082	0	0	0	0	0	0	0	0	0	0	0	0	0	0	0	0	0	0	0	0	0	0		1	0	0	0	0	0	0	0
010513	15:35:18	1	Trial2BackFr	N	3	0	1000	1	6	15:35:18	171597	0	0	0	0	0	0	0	0	0	0	0	0	0	0	0	0	0	0	0	0	0	0		1	0	0	0	0	0	0	0
010513	15:35:18	1	Trial2BackFr	N	3	0	1000	1	7	15:35:18	173112	0	0	0	0	0	0	0	0	0	0	0	0	0	0	0	0	0	0	0	0	0	0		1	0	0	0	0	0	0	0
010513	15:35:18	1	Trial2BackFr	N	3	0	1000	1	8	15:35:18	174627	0	0	0	0	0	0	0	0	0	0	0	0	0	0	0	0	0	0	0	0	0	0		1	0	0	0	0	0	0	0
010513	15:35:18	1	Trial2BackFr	Y	3	0	1000	0	8	15:35:18	176142	0	0	0	0	0	0	0	0	0	0	0	0	0	0	0	0	0	0	0	0	0	0		1	0	0	0	0	0	0	0
010513	15:35:18	1	Trial2BackFr	N	3	0	1000	1	9	15:35:18	177658	0	0	0	0	0	0	0	0	0	0	0	0	0	0	0	0	0	0	0	0	0	0		1	0	0	0	0	0	0	0
010513	15:35:18	1	Trial2BackFr	N	3	0	1000	1	10	15:35:18	179173	0	0	0	0	0	0	0	0	0	0	0	0	0	0	0	0	0	0	0	0	0	0		1	0	0	0	0	0	0	0
010513	15:35:18	1	Trial2BackFr	N	3	0	1000	1	11	15:35:18	180688	0	0	0	0	0	0	0	0	0	0	0	0	0	0	0	0	0	0	0	0	0	0		1	0	0	0	0	0	0	0
010513	15:35:18	1	Trial2BackFr	Y	3	0	1000	0	11	15:35:18	182203	0	0	0	0	0	0	0	0	0	0	0	0	0	0	0	0	0	0	0	0	0	0		1	0	0	0	0	0	0	0
010513	15:35:18	1	Trial2BackFr	N	3	0	1000	1	12	15:35:18	183718	0	0	0	0	0	0	0	0	0	0	0	0	0	0	0	0	0	0	0	0	0	0		1	0	0	0	0	0	0	0
010513	15:35:18	1	Trial2BackFr	N	3	0	1000	1	13	15:35:18	185233	0	0	0	0	0	0	0	0	0	0	0	0	0	0	0	0	0	0	0	0	0	0		1	0	0	0	0	0	0	0
010513	15:35:18	1	Trial2BackFr	N	3	0	1000	1	14	15:35:18	186748	0	0	0	0	0	0	0	0	0	0	0	0	0	0	0	0	0	0	0	0	0	0		1	0	0	0	0	0	0	0
010513	15:35:18	1	Trial2BackFr	N	3	0	1000	1	15	15:35:18	188264	0	0	0	0	0	0	0	0	0	0	0	0	0	0	0	0	0	0	0	0	0	0		1	0	0	0	0	0	0	0
010513	15:35:18	1	Trial2BackFr	N	3	0	1000	1	16	15:35:18	189779	0	0	0	0	0	0	0	0	0	0	0	0	0	0	0	0	0	0	0	0	0	0		1	0	0	0	0	0	0	0
010513	15:35:18	1	Trial2BackFr	Y	3	0	1000	0	16	15:35:18	191294	0	0	0	0	0	0	0	0	0	0	0	0	0	0	0	0	0	0	0	0	0	0		1	0	0	0	0	0	0	0
010513	15:35:18	1	Trial2BackFr	N	3	0	1000	1	17	15:35:18	192809	0	0	0	0	0	0	0	0	0	0	0	0	0	0	0	0	0	0	0	0	0	0		1	0	0	0	0	0	0	0
010513	15:35:18	1	Trial2BackFr	N	3	0	1000	1	18	15:35:18	194324	0	0	0	0	0	0	0	0	0	0	0	0	0	0	0	0	0	0	0	0	0	0		1	0	0	0	0	0	0	0
010513	15:35:18	1	Trial2BackFr	N	3	0	1000	1	19	15:35:18	195839	0	0	0	0	0	0	0	0	0	0	0	0	0	0	0	0	0	0	0	0	0	0		1	0	0	0	0	0	0	0
010513	15:35:18	1	Trial2BackFr	N	3	0	1000	1	20	15:35:18	197354	0	0	0	0	0	0	0	0	0	0	0	0	0	0	0	0	0	0	0	0	0	0		1	0	0	0	0	0	0	0
010513	15:35:18	1	Trial2BackFr	Y	3	0	1000	0	20	15:35:18	198870	0	0	0	0	0	0	0	0	0	0	0	0	0	0	0	0	0	0	0	0	0	0		1	0	0	0	0	0	0	0
010513	15:35:18	1	Trial2BackFr	N	3	0	1000	1	21	15:35:18	200385	0	0	0	0	0	0	0	0	0	0	0	0	0	0	0	0	0	0	0	0	0	0		1	0	0	0	0	0	0	0
010513	15:35:18	1	Trial2BackFr	N	3	0	1000	1	22	15:35:18	201900	0	0	0	0	0	0	0	0	0	0	0	0	0	0	0	0	0	0	0	0	0	0		1	0	0	0	0	0	0	0
010513	15:35:18	1	Trial2BackFr	N	3	0	1000	1	23	15:35:18	203415	0	0	0	0	0	0	0	0	0	0	0	0	0	0	0	0	0	0	0	0	0	0		1	0	0	0	0	0	0	0
010513	15:35:18	1	Trial2BackFr	N	3	0	1000	1	24	15:35:18	204930	0	0	0	0	0	0	0	0	0	0	0	0	0	0	0	0	0	0	0	0	0	0		1	0	0	0	0	0	0	0
010513	15:35:18	1	Trial2BackFr	N	3	0	1000	1	25	15:35:18	206445	0	0	0	0	0	0	0	0	0	0	0	0	0	0	0	0	0	0	0	0	0	0		1	0	0	0	0	0	0	0
010513	15:35:18	1	Trial2BackFr	N	3	0	1000	1	26	15:35:18	207961	0	0	0	0	0	0	0	0	0	0	0	0	0	0	0	0	0	0	0	0	0	0		1	0	0	0	0	0	0	0
010513	15:35:18	1	Trial2BackFr	Y	3	0	1000	0	26	15:35:18	209476	0	0	0	0	0	0	0	0	0	0	0	0	0	0	0	0	0	0	0	0	0	0		1	0	0	0	0	0	0	0
010513	15:35:18	1	Trial2BackFr	N	3	0	1000	1	27	15:35:18	210991	0	0	0	0	0	0	0	0	0	0	0	0	0	0	0	0	0	0	0	0	0	0		1	0	0	0	0	0	0	0
010513	15:35:18	1	Trial2BackFr	N	3	0	1000	1	28	15:35:18	212506	0	0	0	0	0	0	0	0	0	0	0	0	0	0	0	0	0	0	0	0	0	0		1	0	0	0	0	0	0	0
010513	15:35:18	1	Trial2BackFr	N	3	0	1000	1	29	15:35:18	214021	0	0	0	0	0	0	0	0	0	0	0	0	0	0	0	0	0	0	0	0	0	0		1	0	0	0	0	0	0	0
010513	15:35:18	1	Trial2BackFr	Y	3	0	1000	0	29	15:35:18	215536	0	0	0	0	0	0	0	0	0	0	0	0	0	0	0	0	0	0	0	0	0	0		1	0	0	0	0	0	0	0
010513	15:35:18	1	Trial2BackFr	N	3	0	1000	1	30	15:35:18	217051	0	0	0	0	0	0	0	0	0	0	0	0	0	0	0	0	0	0	0	0	0	0		1	0	0	0	0	0	0	0
010513	15:35:18	1	Trial2BackFr	N	3	0	1000	1	31	15:35:18	218567	0	0	0	0	0	0	0	0	0	0	0	0	0	0	0	0	0	0	0	0	0	0		1	0	0	0	0	0	0	0
010513	15:35:18	1	Trial2BackFr	N	3	0	1000	1	32	15:35:18	220082	0	0	0	0	0	0	0	0	0	0	0	0	0	0	0	0	0	0	0	0	0	0		1	0	0	0	0	0	0	0
010513	15:35:18	1	Trial2BackFr	N	3	0	1000	1	33	15:35:18	221597	0	0	0	0	0	0	0	0	0	0	0	0	0	0	0	0	0	0	0	0	0	0		1	0	0	0	0	0	0	0
010513	15:35:18	1	Trial2BackFr	N	3	0	1000	1	34	15:35:18	223112	0	0	0	0	0	0	0	0	0	0	0	0	0	0	0	0	0	0	0	0	0	0		1	0	0	0	0	0	0	0
010513	15:35:18	1	Trial2BackFr	N	3	0	1000	1	35	15:35:18	224627	0	0	0	0	0	0	0	0	0	0	0	0	0	0	0	0	0	0	0	0	0	0		1	0	0	0	0	0	0	0
010513	15:35:18	1	Trial2BackFr	Y	3	0	1000	0	35	15:35:18	226142	0	0	0	0	0	0	0	0	0	0	0	0	0	0	0	0	0	0	0	0	0	0		1	0	0	0	0	0	0	0
010513	15:35:18	1	Trial2BackFr	N	3	0	1000	1	36	15:35:18	227658	0	0	0	0	0	0	0	0	0	0	0	0	0	0	0	0	0	0	0	0	0	0		1	0	0	0	0	0	0	0
010513	15:35:18	1	Trial2BackFr	N	3	0	1000	1	37	15:35:18	229173	0	0	0	0	0	0	0	0	0	0	0	0	0	0	0	0	0	0	0	0	0	0		1	0	0	0	0	0	0	0
010513	15:35:18	1	Trial2BackFr	N	3	0	1000	1	38	15:35:18	230688	0	0	0	0	0	0	0	0	0	0	0	0	0	0	0	0	0	0	0	0	0	0		1	0	0	0	0	0	0	0
010513	15:35:18	1	Trial2BackFr	N	3	0	1000	1	39	15:35:18	232203	0	0	0	0	0	0	0	0	0	0	0	0	0	0	0	0	0	0	0	0	0	0		1	0	0	0	0	0	0	0
010513	15:35:18	1	Trial2BackFr	Y	3	0	1000	0	39	15:35:18	233718	0	0	0	0	0	0	0	0	0	0	0	0	0	0	0	0	0	0	0	0	0	0		1	0	0	0	0	0	0	0
010513	15:35:18	1	Trial2BackFr	N	3	0	1000	1	40	15:35:18	235233	0	0	0	0	0	0	0	0	0	0	0	0	0	0	0	0	0	0	0	0	0	0		1	0	0	0	0	0	0	0
010513	15:35:18	1	Trial2BackFr	N	3	0	1000	1	41	15:35:18	236748	0	0	0	0	0	0	0	0	0	0	0	0	0	0	0	0	0	0	0	0	0	0		1	0	0	0	0	0	0	0
010513	15:35:18	1	Trial2BackFr	N	3	0	1000	1	42	15:35:18	238264	0	0	0	0	0	0	0	0	0	0	0	0	0	0	0	0	0	0	0	0	0	0		1	0	0	0	0	0	0	0
010513	15:35:18	1	Trial2BackFr	N	3	0	1000	1	43	15:35:18	239779	0	0	0	0	0	0	0	0	0	0	0	0	0	0	0	0	0	0	0	0	0	0		1	0	0	0	0	0	0	0
010513	15:35:18	1	Trial2BackFr	N	3	0	1000	1	44	15:35:18	241294	0	0	0	0	0	0	0	0	0	0	0	0	0	0	0	0	0	0	0	0	0	0		1	0	0	0	0	0	0	0
010513	15:35:18	1	Trial2BackFr	Y	3	0	1000	0	44	15:35:18	242809	0	0	0	0	0	0	0	0	0	0	0	0	0	0	0	0	0	0	0	0	0	0		1	0	0	0	0	0	0	0
010513	15:35:18	1	Trial2BackFr	N	3	0	1000	1	45	15:35:18	244324	0	0	0	0	0	0	0	0	0	0	0	0	0	0	0	0	0	0	0	0	0	0		1	0	0	0	0	0	0	0
010513	15:35:18	1	Trial2BackFr	N	3	0	1000	1	46	15:35:18	245839	0	0	0	0	0	0	0	0	0	0	0	0	0	0	0	0	0	0	0	0	0	0		1	0	0	0	0	0	0	0
010513	15:35:18	1	Trial2BackFr	N	3	0	1000	1	47	15:35:18	247355	0	0	0	0	0	0	0	0	0	0	0	0	0	0	0	0	0	0	0	0	0	0		1	0	0	0	0	0	0	0
010513	15:35:18	1	Trial2BackFr	N	3	0	1000	1	48	15:35:18	248870	0	0	0	0	0	0	0	0	0	0	0	0	0	0	0	0	0	0	0	0	0	0		1	0	0	0	0	0	0	0
010513	15:35:18	1	Trial2BackFr	N	3	0	1000	1	49	15:35:18	250385	0	0	0	0	0	0	0	0	0	0	0	0	0	0	0	0	0	0	0	0	0	0		1	0	0	0	0	0	0	0
010513	15:35:18	1	Trial2BackFr	N	3	0	1000	1	50	15:35:18	251900	0	0	0	0	0	0	0	0	0	0	0	0	0	0	0	0	0	0	0	0	0	0		1	0	0	0	0	0	0	0
010513	15:35:18	1	Trial2BackFr	Y	3	0	1000	0	50	15:35:18	253415	0	0	0	0	0	0	0	0	0	0	0	0	0	0	0	0	0	0	0	0	0	0		1	0	0	0	0	0	0	0
010513	15:35:18	1	Trial2BackFr	N	3	0	1000	1	51	15:35:18	254930	0	0	0	0	0	0	0	0	0	0	0	0	0	0	0	0	0	0	0	0	0	0		1	0	0	0	0	0	0	0
010513	15:35:18	1	Trial2BackFr	N	3	0	1000	1	52	15:35:18	256445	0	0	0	0	0	0	0	0	0	0	0	0	0	0	0	0	0	0	0	0	0	0		1	0	0	0	0	0	0	0
010513	15:35:18	1	Trial2BackFr	Y	3	0	1000	0	52	15:35:18	257961	0	0	0	0	0	0	0	0	0	0	0	0	0	0	0	0	0	0	0	0	0	0		1	0	0	0	0	0	0	0
010513	15:35:18	1	Trial2BackFr	N	3	0	1000	1	53	15:35:18	259476	0	0	0	0	0	0	0	0	0	0	0	0	0	0	0	0	0	0	0	0	0	0		1	0	0	0	0	0	0	0
010513	15:35:18	1	Trial2BackFr	N	3	0	1000	1	54	15:35:18	260991	0	0	0	0	0	0	0	0	0	0	0	0	0	0	0	0	0	0	0	0	0	0		1	0	0	0	0	0	0	0
010513	15:35:18	1	Trial2BackFr	N	3	0	1000	1	55	15:35:18	262506	0	0	0	0	0	0	0	0	0	0	0	0	0	0	0	0	0	0	0	0	0	0		1	0	0	0	0	0	0	0
010513	15:35:18	1	Trial2BackFr	N	3	0	1000	1	56	15:35:18	264021	0	0	0	0	0	0	0	0	0	0	0	0	0	0	0	0	0	0	0	0	0	0		1	0	0	0	0	0	0	0
010513	15:35:18	1	Trial2BackFr	N	3	0	1000	1	57	15:35:18	265536	0	0	0	0	0	0	0	0	0	0	0	0	0	0	0	0	0	0	0	0	0	0		1	0	0	0	0	0	0	0
010513	15:35:18	1	Trial2BackFr	N	3	0	1000	1	58	15:35:18	267052	0	0	0	0	0	0	0	0	0	0	0	0	0	0	0	0	0	0	0	0	0	0		1	0	0	0	0	0	0	0
010513	15:35:18	1	Trial2BackFr	N	3	0	1000	1	59	15:35:18	268567	0	0	0	0	0	0	0	0	0	0	0	0	0	0	0	0	0	0	0	0	0	0		1	0	0	0	0	0	0	0
010513	15:35:18	1	Trial2BackFr	N	3	0	1000	1	60	15:35:18	270082	0	0	0	0	0	0	0	0	0	0	0	0	0	0	0	0	0	0	0	0	0	0		1	0	0	0	0	0	0	0
010513	15:35:18	1	Trial2BackFr	N	3	0	1000	1	61	15:35:18	271597	0	0	0	0	0	0	0	0	0	0	0	0	0	0	0	0	0	0	0	0	0	0		1	0	0	0	0	0	0	0
010513	15:35:18	1	Trial2BackFr	N	3	0	1000	1	62	15:35:18	273112	0	0	0	0	0	0	0	0	0	0	0	0	0	0	0	0	0	0	0	0	0	0		1	0	0	0	0	0	0	0
010513	15:35:18	1	Trial2BackFr	Y	3	0	1000	0	62	15:35:18	274627	0	0	0	0	0	0	0	0	0	0	0	0	0	0	0	0	0	0	0	0	0	0		1	0	0	0	0	0	0	0
010513	15:35:18	1	Trial2BackFr	N	3	0	1000	1	63	15:35:18	276142	0	0	0	0	0	0	0	0	0	0	0	0	0	0	0	0	0	0	0	0	0	0		1	0	0	0	0	0	0	0
010513	15:35:18	1	Trial2BackFr	N	3	0	1000	1	64	15:35:18	277658	0	0	0	0	0	0	0	0	0	0	0	0	0	0	0	0	0	0	0	0	0	0		1	0	0	0	0	0	0	0
010513	15:35:18	1	Trial2BackFr	N	3	0	1000	1	65	15:35:18	279173	0	0	0	0	0	0	0	0	0	0	0	0	0	0	0	0	0	0	0	0	0	0		1	0	0	0	0	0	0	0
010513	15:35:18	1	Trial2BackFr	Y	3	0	1000	0	65	15:35:18	280688	0	0	0	0	0	0	0	0	0	0	0	0	0	0	0	0	0	0	0	0	0	0		1	0	0	0	0	0	0	0
010513	15:35:18	1	Trial2BackFr	N	3	0	1000	1	66	15:35:18	282203	0	0	0	0	0	0	0	0	0	0	0	0	0	0	0	0	0	0	0	0	0	0		1	0	0	0	0	0	0	0
010513	15:35:18	1	Trial2BackFr	N	3	0	1000	1	67	15:35:18	283718	0	0	0	0	0	0	0	0	0	0	0	0	0	0	0	0	0	0	0	0	0	0		1	0	0	0	0	0	0	0
010513	15:35:18	1	Trial2BackFr	N	3	0	1000	1	68	15:35:18	285233	0	0	0	0	0	0	0	0	0	0	0	0	0	0	0	0	0	0	0	0	0	0		1	0	0	0	0	0	0	0
010513	15:35:18	1	Trial2BackFr	N	3	0	1000	1	69	15:35:18	286749	0	0	0	0	0	0	0	0	0	0	0	0	0	0	0	0	0	0	0	0	0	0		1	0	0	0	0	0	0	0
010513	15:35:18	1	Trial2BackFr	N	3	0	1000	1	70	15:35:18	288264	0	0	0	0	0	0	0	0	0	0	0	0	0	0	0	0	0	0	0	0	0	0		1	0	0	0	0	0	0	0
010513	15:35:18	1	Trial2BackFr	Y	3	0	1000	0	70	15:35:18	289779	0	0	0	0	0	0	0	0	0	0	0	0	0	0	0	0	0	0	0	0	0	0		1	0	0	0	0	0	0	0
010513	15:35:18	1	Trial2BackFr	N	3	0	1000	1	71	15:35:18	291294	0	0	0	0	0	0	0	0	0	0	0	0	0	0	0	0	0	0	0	0	0	0		1	0	0	0	0	0	0	0
010513	15:35:18	1	Trial2BackFr	N	3	0	1000	1	72	15:35:18	292809	0	0	0	0	0	0	0	0	0	0	0	0	0	0	0	0	0	0	0	0	0	0		1	0	0	0	0	0	0	0
010513	15:35:18	1	Trial2BackFr	N	3	0	1000	1	73	15:35:18	294324	0	0	0	0	0	0	0	0	0	0	0	0	0	0	0	0	0	0	0	0	0	0		1	0	0	0	0	0	0	0
010513	15:35:18	1	Trial2BackFr	N	3	0	1000	1	74	15:35:18	295839	0	0	0	0	0	0	0	0	0	0	0	0	0	0	0	0	0	0	0	0	0	0		1	0	0	0	0	0	0	0
010513	15:35:18	1	Trial2BackFr	N	3	0	1000	1	75	15:35:18	297355	0	0	0	0	0	0	0	0	0	0	0	0	0	0	0	0	0	0	0	0	0	0		1	0	0	0	0	0	0	0
010513	15:35:18	1	Trial2BackFr	N	3	0	1000	1	76	15:35:18	298870	0	0	0	0	0	0	0	0	0	0	0	0	0	0	0	0	0	0	0	0	0	0		1	0	0	0	0	0	0	0
010513	15:35:18	1	Trial2BackFr	N	3	0	1000	1	77	15:35:18	300385	0	0	0	0	0	0	0	0	0	0	0	0	0	0	0	0	0	0	0	0	0	0		1	0	0	0	0	0	0	0
010513	15:35:18	1	Trial2BackFr	N	3	0	1000	1	78	15:35:18	301900	0	0	0	0	0	0	0	0	0	0	0	0	0	0	0	0	0	0	0	0	0	0		1	0	0	0	0	0	0	0
010513	15:35:18	1	Trial2BackFr	N	3	0	1000	1	79	15:35:18	303415	0	0	0	0	0	0	0	0	0	0	0	0	0	0	0	0	0	0	0	0	0	0		1	0	0	0	0	0	0	0
010513	15:35:18	1	Trial2BackFr	Y	3	0	1000	0	79	15:35:18	304930	0	0	0	0	0	0	0	0	0	0	0	0	0	0	0	0	0	0	0	0	0	0		1	0	0	0	0	0	0	0
010513	15:35:18	1	Trial2BackFr	N	3	0	1000	1	80	15:35:18	306446	0	0	0	0	0	0	0	0	0	0	0	0	0	0	0	0	0	0	0	0	0	0		1	0	0	0	0	0	0	0
010513	15:35:18	1	Trial2BackFr	N	3	0	1000	1	81	15:35:18	307961	0	0	0	0	0	0	0	0	0	0	0	0	0	0	0	0	0	0	0	0	0	0		1	0	0	0	0	0	0	0
010513	15:35:18	1	Trial2BackFr	N	3	0	1000	1	82	15:35:18	309476	0	0	0	0	0	0	0	0	0	0	0	0	0	0	0	0	0	0	0	0	0	0		1	0	0	0	0	0	0	0
010513	15:35:18	1	Trial2BackFr	N	3	0	1000	1	83	15:35:18	310991	0	0	0	0	0	0	0	0	0	0	0	0	0	0	0	0	0	0	0	0	0	0		1	0	0	0	0	0	0	0
010513	15:35:18	1	Trial2BackFr	N	3	0	1000	1	84	15:35:18	312506	0	0	0	0	0	0	0	0	0	0	0	0	0	0	0	0	0	0	0	0	0	0		1	0	0	0	0	0	0	0
010513	15:35:18	1	Trial2BackFr	N	3	0	1000	1	85	15:35:18	314021	0	0	0	0	0	0	0	0	0	0	0	0	0	0	0	0	0	0	0	0	0	0		1	0	0	0	0	0	0	0
010513	15:35:18	1	Trial2BackFr	N	3	0	1000	1	86	15:35:18	315536	0	0	0	0	0	0	0	0	0	0	0	0	0	0	0	0	0	0	0	0	0	0		1	0	0	0	0	0	0	0
010513	15:35:18	1	Trial2BackFr	N	3	0	1000	1	87	15:35:18	317052	0	0	0	0	0	0	0	0	0	0	0	0	0	0	0	0	0	0	0	0	0	0		1	0	0	0	0	0	0	0
010513	15:35:18	1	Trial2BackFr	Y	3	0	1000	0	87	15:35:18	318567	0	0	0	0	0	0	0	0	0	0	0	0	0	0	0	0	0	0	0	0	0	0		1	0	0	0	0	0	0	0
010513	15:35:18	1	Trial2BackFr	N	3	0	1000	1	88	15:35:18	320082	0	0	0	0	0	0	0	0	0	0	0	0	0	0	0	0	0	0	0	0	0	0		1	0	0	0	0	0	0	0
010513	15:35:18	1	Trial2BackFr	N	3	0	1000	1	89	15:35:18	321597	0	0	0	0	0	0	0	0	0	0	0	0	0	0	0	0	0	0	0	0	0	0		1	0	0	0	0	0	0	0
010513	15:35:18	1	Trial2BackFr	N	3	0	1000	1	90	15:35:18	323112	0	0	0	0	0	0	0	0	0	0	0	0	0	0	0	0	0	0	0	0	0	0		1	0	0	0	0	0	0	0
010513	15:35:18	1	Trial2BackFr	N	3	0	1000	1	91	15:35:18	324627	0	0	0	0	0	0	0	0	0	0	0	0	0	0	0	0	0	0	0	0	0	0		1	0	0	0	0	0	0	0
010513	15:35:18	1	Trial2BackFr	Y	3	0	1000	0	91	15:35:18	326143	0	0	0	0	0	0	0	0	0	0	0	0	0	0	0	0	0	0	0	0	0	0		1	0	0	0	0	0	0	0
010513	15:35:18	1	Trial2BackFr	N	3	0	1000	1	92	15:35:18	327658	0	0	0	0	0	0	0	0	0	0	0	0	0	0	0	0	0	0	0	0	0	0		1	0	0	0	0	0	0	0
010513	15:35:18	1	Trial2BackFr	N	3	0	1000	1	93	15:35:18	329173	0	0	0	0	0	0	0	0	0	0	0	0	0	0	0	0	0	0	0	0	0	0		1	0	0	0	0	0	0	0
010513	15:35:18	1	Trial2BackFr	N	3	0	1000	1	94	15:35:18	330688	0	0	0	0	0	0	0	0	0	0	0	0	0	0	0	0	0	0	0	0	0	0		1	0	0	0	0	0	0	0
010513	15:35:18	1	Trial2BackFr	Y	3	0	1000	0	94	15:35:18	332203	0	0	0	0	0	0	0	0	0	0	0	0	0	0	0	0	0	0	0	0	0	0		1	0	0	0	0	0	0	0
010513	15:35:18	1	Trial2BackFr	N	3	0	1000	1	95	15:35:18	333718	0	0	0	0	0	0	0	0	0	0	0	0	0	0	0	0	0	0	0	0	0	0		1	0	0	0	0	0	0	0
010513	15:35:18	1	Trial2BackFr	N	3	0	1000	1	96	15:35:18	335233	0	0	0	0	0	0	0	0	0	0	0	0	0	0	0	0	0	0	0	0	0	0		1	0	0	0	0	0	0	0
010513	15:35:18	1	Trial2BackFr	N	3	0	1000	1	97	15:35:18	336749	0	0	0	0	0	0	0	0	0	0	0	0	0	0	0	0	0	0	0	0	0	0		1	0	0	0	0	0	0	0
010513	15:35:18	1	Trial2BackFr	N	3	0	1000	1	98	15:35:18	338264	0	0	0	0	0	0	0	0	0	0	0	0	0	0	0	0	0	0	0	0	0	0		1	0	0	0	0	0	0	0
010513	15:35:18	1	Trial2BackFr	N	3	0	1000	1	99	15:35:18	339779	0	0	0	0	0	0	0	0	0	0	0	0	0	0	0	0	0	0	0	0	0	0		1	0	0	0	0	0	0	0
010513	15:35:18	1	Trial2BackFr	Y	3	0	1000	0	99	15:35:18	341294	0	0	0	0	0	0	0	0	0	0	0	0	0	0	0	0	0	0	0	0	0	0		1	0	0	0	0	0	0	0
010513	15:35:18	1	Trial2BackFr	N	3	0	1000	1	100	15:35:18	342809	0	0	0	0	0	0	0	0	0	0	0	0	0	0	0	0	0	0	0	0	0	0		1	0	0	0	0	0	0	0
010513	15:35:18	1	Trial2BackFr	N	3	0	1000	1	101	15:35:18	344324	0	0	0	0	0	0	0	0	0	0	0	0	0	0	0	0	0	0	0	0	0	0		1	0	0	0	0	0	0	0
010513	15:35:18	1	Trial2BackFr	N	3	0	1000	1	102	15:35:18	345840	0	0	0	0	0	0	0	0	0	0	0	0	0	0	0	0	0	0	0	0	0	0		1	0	0	0	0	0	0	0
010513	15:35:18	1	Trial2BackFr	Y	3	0	1000	0	102	15:35:18	347355	0	0	0	0	0	0	0	0	0	0	0	0	0	0	0	0	0	0	0	0	0	0		1	0	0	0	0	0	0	0
010513	15:35:18	1	Memory1R6moFr	ScoreFr	5	Done	7098	0	102	15:35:18	367418	0	0	0	0	0	0	0	0	0	0	0	0	0	0	0	0	0	0	0	0	0	0		1	0	0	0	0	0	0	0
010513	15:35:18	1	Memory2R6moFr	ScoreFr2	5	Done	4952	0	102	15:35:18	384717	0	0	0	0	0	0	0	0	0	0	0	0	0	0	0	0	0	0	0	0	0	0		1	0	0	0	0	0	0	0
010513	15:35:18	1	Memory3R6moFr	ScoreFr3	5	Done	2831	0	102	15:35:18	399553	0	0	0	0	0	0	0	0	0	0	0	0	0	0	0	0	0	0	0	0	0	0		1	0	0	0	0	0	0	0
010513	15:35:18	1	LoriaFrRH3	Stop	6	7	4382	0	102	15:35:18	448121	0	0	0	0	0	0	0	0	0	0	0	0	0	0	0	0	0	0	0	0	0	0		1	0	0	0	0	0	0	0
010513	15:35:18	1	FrTrail	Trails	7	1Trails	2167	0	102	15:35:18	454914	0	0	0	0	0	0	0	0	0	0	0	0	0	0	0	0	0	0	0	0	0	0		1	0	0	0	0	0	0	0
010513	15:35:18	1	Serial7Fr6mo	Serial7Fr6mo	8	73	5105	0	102	15:35:18	463956	1	0	0	0	0	0	0	0	0	0	0	0	0	0	0	0	0	0	0	0	0	0		1	0	0	0	0	0	0	0
010513	15:35:18	1	Serial7Fr6mo	Serial7Fr6mo	8	66	3004	0	102	15:35:18	466969	2	0	0	0	0	0	0	0	0	0	0	0	0	0	0	0	0	0	0	0	0	0		1	0	0	0	0	0	0	0
010513	15:35:18	1	Serial7Fr6mo	Serial7Fr6mo	8	59	2518	0	102	15:35:18	469518	3	0	0	0	0	0	0	0	0	0	0	0	0	0	0	0	0	0	0	0	0	0		1	0	0	0	0	0	0	0
010513	15:35:18	1	Serial7Fr6mo	Serial7Fr6mo	8	52	2425	0	102	15:35:18	471964	4	0	0	0	0	0	0	0	0	0	0	0	0	0	0	0	0	0	0	0	0	0		1	0	0	0	0	0	0	0
010513	15:35:18	1	Serial7Fr6mo	Serial7Fr6mo	8	45	4165	0	102	15:35:18	476160	5	0	0	0	0	0	0	0	0	0	0	0	0	0	0	0	0	0	0	0	0	0		1	0	0	0	0	0	0	0
010513	15:35:18	1	corsiblockFrFwrd	recallseqFrFwrd	9	6	1882	0	102	15:35:18	486865	5	0	0	0	0	0	0	0	0	0	0	0	0	0	0	0	0	0	0	0	0	0		1	0	0	0	0	0	0	0
010513	15:35:18	1	corsiblockFrFwrd	recallseqFrFwrd	9	5	1233	0	102	15:35:18	488164	5	0	0	0	0	0	0	0	0	0	0	0	0	0	0	0	0	0	0	0	0	0		1	0	0	0	0	0	0	0
010513	15:35:18	1	corsiblockFrFwrd	recallseqFrFwrd	9	doneCorsiFr	1768	0	102	15:35:18	489996	5	0	0	0	0	0	0	0	0	0	0	0	0	0	0	0	0	0	0	0	0	0		1	0	0	0	0	0	0	0
010513	15:35:18	1	corsiblockFrFwrd	recallseqFrFwrd	9	6	1035	0	102	15:35:18	496189	5	0	0	0	0	0	0	0	0	0	0	0	0	0	0	0	0	0	0	0	0	0		1	0	0	0	0	0	0	0
010513	15:35:18	1	corsiblockFrFwrd	recallseqFrFwrd	9	5	1236	0	102	15:35:18	497488	5	0	0	0	0	0	0	0	0	0	0	0	0	0	0	0	0	0	0	0	0	0		1	0	0	0	0	0	0	0
010513	15:35:18	1	corsiblockFrFwrd	recallseqFrFwrd	9	doneCorsiFr	1395	0	102	15:35:18	498937	5	0	0	0	0	0	0	0	0	0	0	0	0	0	0	0	0	0	0	0	0	0		1	0	0	0	0	0	0	0
010513	15:35:18	1	corsiblockFrRev	recallseqFrRev	10	5	1099	0	102	15:35:18	507994	5	0	0	0	0	0	0	0	0	0	0	0	0	0	0	0	0	0	0	0	0	0		1	0	0	0	0	0	0	0
010513	15:35:18	1	corsiblockFrRev	recallseqFrRev	10	6	1356	0	102	15:35:18	509410	5	0	0	0	0	0	0	0	0	0	0	0	0	0	0	0	0	0	0	0	0	0		1	0	0	0	0	0	0	0
010513	15:35:18	1	corsiblockFrRev	recallseqFrRev	10	doneCorsiFr	1081	0	102	15:35:18	510558	5	0	0	0	0	0	0	0	0	0	0	0	0	0	0	0	0	0	0	0	0	0		1	0	0	0	0	0	0	0
010513	15:35:18	1	corsiblockFrRev	recallseqFrRev	10	5	843	0	102	15:35:18	516552	5	0	0	0	0	0	0	0	0	0	0	0	0	0	0	0	0	0	0	0	0	0		1	0	0	0	0	0	0	0
010513	15:35:18	1	corsiblockFrRev	recallseqFrRev	10	4	878	0	102	15:35:18	517485	5	0	0	0	0	0	0	0	0	0	0	0	0	0	0	0	0	0	0	0	0	0		1	0	0	0	0	0	0	0
010513	15:35:18	1	corsiblockFrRev	recallseqFrRev	10	doneCorsiFr	2532	0	102	15:35:18	520082	5	0	0	0	0	0	0	0	0	0	0	0	0	0	0	0	0	0	0	0	0	0		1	0	0	0	0	0	0	0
010513	15:35:18	1	testFr6mo	WordsFr6mo	11	1Fr6mo	2149	0	102	15:35:18	534385	5	3	0	0	0	0	0	0	0	0	0	0	0	0	0	0	0	0	0	0	0	0		1	0	0	0	0	0	0	0
010513	15:35:18	1	testFr6mo	WordsFr6mo	11	2Fr6mo	797	0	102	15:35:18	535234	5	3	3	0	0	0	0	0	0	0	0	0	0	0	0	0	0	0	0	0	0	0		1	0	0	0	0	0	0	0
010513	15:35:18	1	testFr6mo	WordsFr6mo	11	3Fr6mo	859	0	102	15:35:18	536150	5	3	3	3	0	0	0	0	0	0	0	0	0	0	0	0	0	0	0	0	0	0		1	0	0	0	0	0	0	0
010513	15:35:18	1	testFr6mo	WordsFr6mo	11	4Fr6mo	842	0	102	15:35:18	537049	5	3	3	3	3	0	0	0	0	0	0	0	0	0	0	0	0	0	0	0	0	0		1	0	0	0	0	0	0	0
010513	15:35:18	1	testFr6mo	WordsFr6mo	11	5Fr6mo	891	0	102	15:35:18	537998	5	3	3	3	3	3	0	0	0	0	0	0	0	0	0	0	0	0	0	0	0	0		1	0	0	0	0	0	0	0
010513	15:35:18	1	testFr6mo	WordsFr6mo	11	6Fr6mo	889	0	102	15:35:18	538947	5	3	3	3	3	3	3	0	0	0	0	0	0	0	0	0	0	0	0	0	0	0		1	0	0	0	0	0	0	0
010513	15:35:18	1	testFr6mo	WordsFr6mo	11	7Fr6mo	1155	0	102	15:35:18	540162	5	3	3	3	3	3	3	3	0	0	0	0	0	0	0	0	0	0	0	0	0	0		1	0	0	0	0	0	0	0
010513	15:35:18	1	testFr6mo	WordsFr6mo	11	8Fr6mo	1215	0	102	15:35:18	541444	5	3	3	3	3	3	3	3	3	0	0	0	0	0	0	0	0	0	0	0	0	0		1	0	0	0	0	0	0	0
010513	15:35:18	1	testFr6mo	WordsFr6mo	11	DoneFr6mo	2569	0	102	15:35:18	544075	5	3	3	3	3	3	3	3	3	0	0	0	0	0	0	0	0	0	0	0	0	0		1	0	0	0	0	0	0	0
010513	15:35:18	1	DigitSpanFwrdFr6mo	Score1FwrdFr6mo	12	DS2	2305	0	102	15:35:18	561141	5	3	3	3	3	3	3	3	3	0	0	0	0	0	0	0	0	0	0	0	0	0		1	0	0	0	0	0	0	0
010513	15:35:18	1	DigitSpanFwrdFr6mo	Gate1FwrdFr6mo	12	0	1	0	102	15:35:18	561145	5	3	3	3	3	3	3	3	3	0	0	0	0	0	0	0	0	0	0	0	0	0		1	0	0	0	0	0	0	0
010513	15:35:18	1	DigitSpanFwrdFr6mo	Score11FwrdFr6mo	12	DS2	2207	0	102	15:35:18	567452	5	3	3	3	3	3	3	3	3	0	0	0	0	0	0	0	0	0	0	0	0	0		1	0	0	0	0	0	0	0
010513	15:35:18	1	DigitSpanFr6mo	Score1Fr6mo	13	DS2	1821	0	102	15:35:18	574411	5	3	3	3	3	3	3	3	3	0	0	0	0	0	0	0	0	0	0	0	0	0		1	0	0	0	0	0	0	0
010513	15:35:18	1	DigitSpanFr6mo	Gate1Fr6mo	13	0	1	0	102	15:35:18	574415	5	3	3	3	3	3	3	3	3	0	0	0	0	0	0	0	0	0	0	0	0	0		1	0	0	0	0	0	0	0
010513	15:35:18	1	DigitSpanFr6mo	Score11Fr6mo	13	DS2	1391	0	102	15:35:18	578258	5	3	3	3	3	3	3	3	3	0	0	0	0	0	0	0	0	0	0	0	0	0		1	0	0	0	0	0	0	0
010513	15:35:18	1	Trial	ResponseIL	14	0	175	0	102	15:35:18	615270	5	3	3	3	3	3	3	3	3	0	0	0	0	0	0	0	0	0	0	0	0	0		1	0	0	0	0	0	0	0
010513	15:35:18	1	Trial	IncongruentLeft	14	0	1000	0	102	15:35:18	616319	5	3	3	3	3	3	3	3	3	0	0	0	0	0	0	0	0	0	0	0	0	0		1	0	0	0	0	0	0	0
010513	15:35:18	1	Trial	ResponseCR	14	0	175	0	102	15:35:18	617085	5	3	3	3	3	3	3	3	3	0	0	0	0	0	0	0	0	0	0	0	0	0		1	0	0	0	0	0	0	0
010513	15:35:18	1	Trial	CongruentRight	14	0	1000	0	102	15:35:18	618134	5	3	3	3	3	3	3	3	3	0	0	0	0	0	0	0	0	0	0	0	0	0		1	0	0	0	0	0	0	0
010513	15:35:18	1	Trial	ResponseIR	14	0	175	0	102	15:35:18	618900	5	3	3	3	3	3	3	3	3	0	0	0	0	0	0	0	0	0	0	0	0	0		1	0	0	0	0	0	0	0
010513	15:35:18	1	Trial	IncongruentRight	14	0	1000	0	102	15:35:18	619949	5	3	3	3	3	3	3	3	3	0	0	0	0	0	0	0	0	0	0	0	0	0		1	0	0	0	0	0	0	0
010513	15:35:18	1	Trial	ResponseCL	14	0	175	0	102	15:35:18	620715	5	3	3	3	3	3	3	3	3	0	0	0	0	0	0	0	0	0	0	0	0	0		1	0	0	0	0	0	0	0
010513	15:35:18	1	Trial	CongruentLeft	14	0	1000	0	102	15:35:18	621764	5	3	3	3	3	3	3	3	3	0	0	0	0	0	0	0	0	0	0	0	0	0		1	0	0	0	0	0	0	0
010513	15:35:18	1	Trial	ResponseCR	14	0	175	0	102	15:35:18	622530	5	3	3	3	3	3	3	3	3	0	0	0	0	0	0	0	0	0	0	0	0	0		1	0	0	0	0	0	0	0
010513	15:35:18	1	Trial	CongruentRight	14	0	1000	0	102	15:35:18	623579	5	3	3	3	3	3	3	3	3	0	0	0	0	0	0	0	0	0	0	0	0	0		1	0	0	0	0	0	0	0
010513	15:35:18	1	Trial	ResponseIR	14	0	175	0	102	15:35:18	624345	5	3	3	3	3	3	3	3	3	0	0	0	0	0	0	0	0	0	0	0	0	0		1	0	0	0	0	0	0	0
010513	15:35:18	1	Trial	IncongruentRight	14	0	1000	0	102	15:35:18	625394	5	3	3	3	3	3	3	3	3	0	0	0	0	0	0	0	0	0	0	0	0	0		1	0	0	0	0	0	0	0
010513	15:35:18	1	Trial	ResponseCL	14	0	175	0	102	15:35:18	626160	5	3	3	3	3	3	3	3	3	0	0	0	0	0	0	0	0	0	0	0	0	0		1	0	0	0	0	0	0	0
010513	15:35:18	1	Trial	CongruentLeft	14	0	1000	0	102	15:35:18	627208	5	3	3	3	3	3	3	3	3	0	0	0	0	0	0	0	0	0	0	0	0	0		1	0	0	0	0	0	0	0
010513	15:35:18	1	Trial	ResponseIL	14	0	175	0	102	15:35:18	627974	5	3	3	3	3	3	3	3	3	0	0	0	0	0	0	0	0	0	0	0	0	0		1	0	0	0	0	0	0	0
010513	15:35:18	1	Trial	IncongruentLeft	14	0	1000	0	102	15:35:18	629023	5	3	3	3	3	3	3	3	3	0	0	0	0	0	0	0	0	0	0	0	0	0		1	0	0	0	0	0	0	0
010513	15:35:18	1	Trial	ResponseIL	14	0	175	0	102	15:35:18	629789	5	3	3	3	3	3	3	3	3	0	0	0	0	0	0	0	0	0	0	0	0	0		1	0	0	0	0	0	0	0
010513	15:35:18	1	Trial	IncongruentLeft	14	0	1000	0	102	15:35:18	630838	5	3	3	3	3	3	3	3	3	0	0	0	0	0	0	0	0	0	0	0	0	0		1	0	0	0	0	0	0	0
010513	15:35:18	1	Trial	ResponseCR	14	0	175	0	102	15:35:18	631604	5	3	3	3	3	3	3	3	3	0	0	0	0	0	0	0	0	0	0	0	0	0		1	0	0	0	0	0	0	0
010513	15:35:18	1	Trial	CongruentRight	14	0	1000	0	102	15:35:18	632653	5	3	3	3	3	3	3	3	3	0	0	0	0	0	0	0	0	0	0	0	0	0		1	0	0	0	0	0	0	0
010513	15:35:18	1	Trial	ResponseIR	14	0	175	0	102	15:35:18	633419	5	3	3	3	3	3	3	3	3	0	0	0	0	0	0	0	0	0	0	0	0	0		1	0	0	0	0	0	0	0
010513	15:35:18	1	Trial	IncongruentRight	14	0	1000	0	102	15:35:18	634468	5	3	3	3	3	3	3	3	3	0	0	0	0	0	0	0	0	0	0	0	0	0		1	0	0	0	0	0	0	0
010513	15:35:18	1	Trial	ResponseCL	14	0	175	0	102	15:35:18	635234	5	3	3	3	3	3	3	3	3	0	0	0	0	0	0	0	0	0	0	0	0	0		1	0	0	0	0	0	0	0
010513	15:35:18	1	Trial	CongruentLeft	14	0	1000	0	102	15:35:18	636283	5	3	3	3	3	3	3	3	3	0	0	0	0	0	0	0	0	0	0	0	0	0		1	0	0	0	0	0	0	0
010513	15:35:18	1	Trial	ResponseCR	14	0	175	0	102	15:35:18	637049	5	3	3	3	3	3	3	3	3	0	0	0	0	0	0	0	0	0	0	0	0	0		1	0	0	0	0	0	0	0
010513	15:35:18	1	Trial	CongruentRight	14	0	1000	0	102	15:35:18	638098	5	3	3	3	3	3	3	3	3	0	0	0	0	0	0	0	0	0	0	0	0	0		1	0	0	0	0	0	0	0
010513	15:35:18	1	Trial	ResponseIL	14	0	175	0	102	15:35:18	638864	5	3	3	3	3	3	3	3	3	0	0	0	0	0	0	0	0	0	0	0	0	0		1	0	0	0	0	0	0	0
010513	15:35:18	1	Trial	IncongruentLeft	14	0	1000	0	102	15:35:18	639913	5	3	3	3	3	3	3	3	3	0	0	0	0	0	0	0	0	0	0	0	0	0		1	0	0	0	0	0	0	0
010513	15:35:18	1	Trial	ResponseIR	14	0	175	0	102	15:35:18	640678	5	3	3	3	3	3	3	3	3	0	0	0	0	0	0	0	0	0	0	0	0	0		1	0	0	0	0	0	0	0
010513	15:35:18	1	Trial	IncongruentRight	14	0	1000	0	102	15:35:18	641727	5	3	3	3	3	3	3	3	3	0	0	0	0	0	0	0	0	0	0	0	0	0		1	0	0	0	0	0	0	0
010513	15:35:18	1	Trial	ResponseCR	14	0	175	0	102	15:35:18	642493	5	3	3	3	3	3	3	3	3	0	0	0	0	0	0	0	0	0	0	0	0	0		1	0	0	0	0	0	0	0
010513	15:35:18	1	Trial	CongruentRight	14	0	1000	0	102	15:35:18	643542	5	3	3	3	3	3	3	3	3	0	0	0	0	0	0	0	0	0	0	0	0	0		1	0	0	0	0	0	0	0
010513	15:35:18	1	Trial	ResponseCL	14	0	175	0	102	15:35:18	644308	5	3	3	3	3	3	3	3	3	0	0	0	0	0	0	0	0	0	0	0	0	0		1	0	0	0	0	0	0	0
010513	15:35:18	1	Trial	CongruentLeft	14	0	1000	0	102	15:35:18	645357	5	3	3	3	3	3	3	3	3	0	0	0	0	0	0	0	0	0	0	0	0	0		1	0	0	0	0	0	0	0
010513	15:35:18	1	Trial	ResponseCR	14	0	175	0	102	15:35:18	646123	5	3	3	3	3	3	3	3	3	0	0	0	0	0	0	0	0	0	0	0	0	0		1	0	0	0	0	0	0	0
010513	15:35:18	1	Trial	CongruentRight	14	0	1000	0	102	15:35:18	647172	5	3	3	3	3	3	3	3	3	0	0	0	0	0	0	0	0	0	0	0	0	0		1	0	0	0	0	0	0	0
010513	15:35:18	1	Trial	ResponseIR	14	0	175	0	102	15:35:18	647938	5	3	3	3	3	3	3	3	3	0	0	0	0	0	0	0	0	0	0	0	0	0		1	0	0	0	0	0	0	0
010513	15:35:18	1	Trial	IncongruentRight	14	0	1000	0	102	15:35:18	648987	5	3	3	3	3	3	3	3	3	0	0	0	0	0	0	0	0	0	0	0	0	0		1	0	0	0	0	0	0	0
010513	15:35:18	1	Trial	ResponseIL	14	0	175	0	102	15:35:18	649753	5	3	3	3	3	3	3	3	3	0	0	0	0	0	0	0	0	0	0	0	0	0		1	0	0	0	0	0	0	0
010513	15:35:18	1	Trial	IncongruentLeft	14	0	1000	0	102	15:35:18	650802	5	3	3	3	3	3	3	3	3	0	0	0	0	0	0	0	0	0	0	0	0	0		1	0	0	0	0	0	0	0
010513	15:35:18	1	Trial	ResponseIL	14	0	175	0	102	15:35:18	651568	5	3	3	3	3	3	3	3	3	0	0	0	0	0	0	0	0	0	0	0	0	0		1	0	0	0	0	0	0	0
010513	15:35:18	1	Trial	IncongruentLeft	14	0	1000	0	102	15:35:18	652616	5	3	3	3	3	3	3	3	3	0	0	0	0	0	0	0	0	0	0	0	0	0		1	0	0	0	0	0	0	0
010513	15:35:18	1	Trial	ResponseCL	14	0	175	0	102	15:35:18	653382	5	3	3	3	3	3	3	3	3	0	0	0	0	0	0	0	0	0	0	0	0	0		1	0	0	0	0	0	0	0
010513	15:35:18	1	Trial	CongruentLeft	14	0	1000	0	102	15:35:18	654431	5	3	3	3	3	3	3	3	3	0	0	0	0	0	0	0	0	0	0	0	0	0		1	0	0	0	0	0	0	0
010513	15:35:18	1	Trial	ResponseCR	14	0	175	0	102	15:35:18	655197	5	3	3	3	3	3	3	3	3	0	0	0	0	0	0	0	0	0	0	0	0	0		1	0	0	0	0	0	0	0
010513	15:35:18	1	Trial	CongruentRight	14	0	1000	0	102	15:35:18	656246	5	3	3	3	3	3	3	3	3	0	0	0	0	0	0	0	0	0	0	0	0	0		1	0	0	0	0	0	0	0
010513	15:35:18	1	Trial	ResponseIL	14	0	175	0	102	15:35:18	657012	5	3	3	3	3	3	3	3	3	0	0	0	0	0	0	0	0	0	0	0	0	0		1	0	0	0	0	0	0	0
010513	15:35:18	1	Trial	IncongruentLeft	14	0	1000	0	102	15:35:18	658061	5	3	3	3	3	3	3	3	3	0	0	0	0	0	0	0	0	0	0	0	0	0		1	0	0	0	0	0	0	0
010513	15:35:18	1	Trial	ResponseIR	14	0	175	0	102	15:35:18	658827	5	3	3	3	3	3	3	3	3	0	0	0	0	0	0	0	0	0	0	0	0	0		1	0	0	0	0	0	0	0
010513	15:35:18	1	Trial	IncongruentRight	14	0	1000	0	102	15:35:18	659876	5	3	3	3	3	3	3	3	3	0	0	0	0	0	0	0	0	0	0	0	0	0		1	0	0	0	0	0	0	0
010513	15:35:18	1	Trial	ResponseCR	14	0	175	0	102	15:35:18	660642	5	3	3	3	3	3	3	3	3	0	0	0	0	0	0	0	0	0	0	0	0	0		1	0	0	0	0	0	0	0
010513	15:35:18	1	Trial	CongruentRight	14	0	1000	0	102	15:35:18	661691	5	3	3	3	3	3	3	3	3	0	0	0	0	0	0	0	0	0	0	0	0	0		1	0	0	0	0	0	0	0
010513	15:35:18	1	Trial	ResponseCL	14	0	175	0	102	15:35:18	662457	5	3	3	3	3	3	3	3	3	0	0	0	0	0	0	0	0	0	0	0	0	0		1	0	0	0	0	0	0	0
010513	15:35:18	1	Trial	CongruentLeft	14	0	1000	0	102	15:35:18	663506	5	3	3	3	3	3	3	3	3	0	0	0	0	0	0	0	0	0	0	0	0	0		1	0	0	0	0	0	0	0
010513	15:35:18	1	Trial	ResponseIR	14	0	175	0	102	15:35:18	664271	5	3	3	3	3	3	3	3	3	0	0	0	0	0	0	0	0	0	0	0	0	0		1	0	0	0	0	0	0	0
010513	15:35:18	1	Trial	IncongruentRight	14	0	1000	0	102	15:35:18	665320	5	3	3	3	3	3	3	3	3	0	0	0	0	0	0	0	0	0	0	0	0	0		1	0	0	0	0	0	0	0
010513	15:35:18	1	Trial	ResponseIL	14	0	175	0	102	15:35:18	666086	5	3	3	3	3	3	3	3	3	0	0	0	0	0	0	0	0	0	0	0	0	0		1	0	0	0	0	0	0	0
010513	15:35:18	1	Trial	IncongruentLeft	14	0	1000	0	102	15:35:18	667135	5	3	3	3	3	3	3	3	3	0	0	0	0	0	0	0	0	0	0	0	0	0		1	0	0	0	0	0	0	0
010513	15:35:18	1	Trial	ResponseIR	14	0	175	0	102	15:35:18	667901	5	3	3	3	3	3	3	3	3	0	0	0	0	0	0	0	0	0	0	0	0	0		1	0	0	0	0	0	0	0
010513	15:35:18	1	Trial	IncongruentRight	14	0	1000	0	102	15:35:18	668950	5	3	3	3	3	3	3	3	3	0	0	0	0	0	0	0	0	0	0	0	0	0		1	0	0	0	0	0	0	0
010513	15:35:18	1	Trial	ResponseCR	14	0	175	0	102	15:35:18	669716	5	3	3	3	3	3	3	3	3	0	0	0	0	0	0	0	0	0	0	0	0	0		1	0	0	0	0	0	0	0
010513	15:35:18	1	Trial	CongruentRight	14	0	1000	0	102	15:35:18	670765	5	3	3	3	3	3	3	3	3	0	0	0	0	0	0	0	0	0	0	0	0	0		1	0	0	0	0	0	0	0
010513	15:35:18	1	Trial	ResponseIL	14	0	175	0	102	15:35:18	671531	5	3	3	3	3	3	3	3	3	0	0	0	0	0	0	0	0	0	0	0	0	0		1	0	0	0	0	0	0	0
010513	15:35:18	1	Trial	IncongruentLeft	14	0	1000	0	102	15:35:18	672580	5	3	3	3	3	3	3	3	3	0	0	0	0	0	0	0	0	0	0	0	0	0		1	0	0	0	0	0	0	0
010513	15:35:18	1	Trial	ResponseCL	14	0	175	0	102	15:35:18	673346	5	3	3	3	3	3	3	3	3	0	0	0	0	0	0	0	0	0	0	0	0	0		1	0	0	0	0	0	0	0
010513	15:35:18	1	Trial	CongruentLeft	14	0	1000	0	102	15:35:18	674395	5	3	3	3	3	3	3	3	3	0	0	0	0	0	0	0	0	0	0	0	0	0		1	0	0	0	0	0	0	0
010513	15:35:18	1	Trial	ResponseCR	14	0	175	0	102	15:35:18	675161	5	3	3	3	3	3	3	3	3	0	0	0	0	0	0	0	0	0	0	0	0	0		1	0	0	0	0	0	0	0
010513	15:35:18	1	Trial	CongruentRight	14	0	1000	0	102	15:35:18	676210	5	3	3	3	3	3	3	3	3	0	0	0	0	0	0	0	0	0	0	0	0	0		1	0	0	0	0	0	0	0
010513	15:35:18	1	Trial	ResponseIL	14	0	175	0	102	15:35:18	676976	5	3	3	3	3	3	3	3	3	0	0	0	0	0	0	0	0	0	0	0	0	0		1	0	0	0	0	0	0	0
010513	15:35:18	1	Trial	IncongruentLeft	14	0	1000	0	102	15:35:18	678024	5	3	3	3	3	3	3	3	3	0	0	0	0	0	0	0	0	0	0	0	0	0		1	0	0	0	0	0	0	0
010513	15:35:18	1	Trial	ResponseIR	14	0	175	0	102	15:35:18	678790	5	3	3	3	3	3	3	3	3	0	0	0	0	0	0	0	0	0	0	0	0	0		1	0	0	0	0	0	0	0
010513	15:35:18	1	Trial	IncongruentRight	14	0	1000	0	102	15:35:18	679839	5	3	3	3	3	3	3	3	3	0	0	0	0	0	0	0	0	0	0	0	0	0		1	0	0	0	0	0	0	0
010513	15:35:18	1	Trial	ResponseIR	14	0	175	0	102	15:35:18	680605	5	3	3	3	3	3	3	3	3	0	0	0	0	0	0	0	0	0	0	0	0	0		1	0	0	0	0	0	0	0
010513	15:35:18	1	Trial	IncongruentRight	14	0	1000	0	102	15:35:18	681654	5	3	3	3	3	3	3	3	3	0	0	0	0	0	0	0	0	0	0	0	0	0		1	0	0	0	0	0	0	0
010513	15:35:18	1	Trial	ResponseCL	14	0	175	0	102	15:35:18	682420	5	3	3	3	3	3	3	3	3	0	0	0	0	0	0	0	0	0	0	0	0	0		1	0	0	0	0	0	0	0
010513	15:35:18	1	Trial	CongruentLeft	14	0	1000	0	102	15:35:18	683469	5	3	3	3	3	3	3	3	3	0	0	0	0	0	0	0	0	0	0	0	0	0		1	0	0	0	0	0	0	0
010513	15:35:18	1	Trial	ResponseIL	14	0	175	0	102	15:35:18	684235	5	3	3	3	3	3	3	3	3	0	0	0	0	0	0	0	0	0	0	0	0	0		1	0	0	0	0	0	0	0
010513	15:35:18	1	Trial	IncongruentLeft	14	0	1000	0	102	15:35:18	685284	5	3	3	3	3	3	3	3	3	0	0	0	0	0	0	0	0	0	0	0	0	0		1	0	0	0	0	0	0	0
010513	15:35:18	1	Trial	ResponseCR	14	0	175	0	102	15:35:18	686050	5	3	3	3	3	3	3	3	3	0	0	0	0	0	0	0	0	0	0	0	0	0		1	0	0	0	0	0	0	0
010513	15:35:18	1	Trial	CongruentRight	14	0	1000	0	102	15:35:18	687099	5	3	3	3	3	3	3	3	3	0	0	0	0	0	0	0	0	0	0	0	0	0		1	0	0	0	0	0	0	0
010513	15:35:18	1	Trial	ResponseCL	14	0	175	0	102	15:35:18	687865	5	3	3	3	3	3	3	3	3	0	0	0	0	0	0	0	0	0	0	0	0	0		1	0	0	0	0	0	0	0
010513	15:35:18	1	Trial	CongruentLeft	14	0	1000	0	102	15:35:18	688914	5	3	3	3	3	3	3	3	3	0	0	0	0	0	0	0	0	0	0	0	0	0		1	0	0	0	0	0	0	0
010513	15:35:18	1	Trial	ResponseIR	14	0	175	0	102	15:35:18	689679	5	3	3	3	3	3	3	3	3	0	0	0	0	0	0	0	0	0	0	0	0	0		1	0	0	0	0	0	0	0
010513	15:35:18	1	Trial	IncongruentRight	14	0	1000	0	102	15:35:18	690728	5	3	3	3	3	3	3	3	3	0	0	0	0	0	0	0	0	0	0	0	0	0		1	0	0	0	0	0	0	0
010513	15:35:18	1	Trial	ResponseCR	14	0	175	0	102	15:35:18	691494	5	3	3	3	3	3	3	3	3	0	0	0	0	0	0	0	0	0	0	0	0	0		1	0	0	0	0	0	0	0
010513	15:35:18	1	Trial	CongruentRight	14	0	1000	0	102	15:35:18	692543	5	3	3	3	3	3	3	3	3	0	0	0	0	0	0	0	0	0	0	0	0	0		1	0	0	0	0	0	0	0
010513	15:35:18	1	Trial	ResponseIL	14	0	175	0	102	15:35:18	693309	5	3	3	3	3	3	3	3	3	0	0	0	0	0	0	0	0	0	0	0	0	0		1	0	0	0	0	0	0	0
010513	15:35:18	1	Trial	IncongruentLeft	14	0	1000	0	102	15:35:18	694358	5	3	3	3	3	3	3	3	3	0	0	0	0	0	0	0	0	0	0	0	0	0		1	0	0	0	0	0	0	0
010513	15:35:18	1	Trial	ResponseCL	14	0	175	0	102	15:35:18	695124	5	3	3	3	3	3	3	3	3	0	0	0	0	0	0	0	0	0	0	0	0	0		1	0	0	0	0	0	0	0
010513	15:35:18	1	Trial	CongruentLeft	14	0	1000	0	102	15:35:18	696173	5	3	3	3	3	3	3	3	3	0	0	0	0	0	0	0	0	0	0	0	0	0		1	0	0	0	0	0	0	0
010513	15:35:18	1	Trial	ResponseIL	14	0	175	0	102	15:35:18	696939	5	3	3	3	3	3	3	3	3	0	0	0	0	0	0	0	0	0	0	0	0	0		1	0	0	0	0	0	0	0
010513	15:35:18	1	Trial	IncongruentLeft	14	0	1000	0	102	15:35:18	697988	5	3	3	3	3	3	3	3	3	0	0	0	0	0	0	0	0	0	0	0	0	0		1	0	0	0	0	0	0	0
010513	15:35:18	1	Trial	ResponseIR	14	0	175	0	102	15:35:18	698754	5	3	3	3	3	3	3	3	3	0	0	0	0	0	0	0	0	0	0	0	0	0		1	0	0	0	0	0	0	0
010513	15:35:18	1	Trial	IncongruentRight	14	0	1000	0	102	15:35:18	699803	5	3	3	3	3	3	3	3	3	0	0	0	0	0	0	0	0	0	0	0	0	0		1	0	0	0	0	0	0	0
010513	15:35:18	1	Trial	ResponseCR	14	0	175	0	102	15:35:18	700569	5	3	3	3	3	3	3	3	3	0	0	0	0	0	0	0	0	0	0	0	0	0		1	0	0	0	0	0	0	0
010513	15:35:18	1	Trial	CongruentRight	14	0	1000	0	102	15:35:18	701617	5	3	3	3	3	3	3	3	3	0	0	0	0	0	0	0	0	0	0	0	0	0		1	0	0	0	0	0	0	0
010513	15:35:18	1	Trial	ResponseCL	14	0	175	0	102	15:35:18	702383	5	3	3	3	3	3	3	3	3	0	0	0	0	0	0	0	0	0	0	0	0	0		1	0	0	0	0	0	0	0
010513	15:35:18	1	Trial	CongruentLeft	14	0	1000	0	102	15:35:18	703432	5	3	3	3	3	3	3	3	3	0	0	0	0	0	0	0	0	0	0	0	0	0		1	0	0	0	0	0	0	0
010513	15:35:18	1	Trial	ResponseCL	14	0	175	0	102	15:35:18	704198	5	3	3	3	3	3	3	3	3	0	0	0	0	0	0	0	0	0	0	0	0	0		1	0	0	0	0	0	0	0
010513	15:35:18	1	Trial	CongruentLeft	14	0	1000	0	102	15:35:18	705247	5	3	3	3	3	3	3	3	3	0	0	0	0	0	0	0	0	0	0	0	0	0		1	0	0	0	0	0	0	0
010513	15:35:18	1	Trial	ResponseIR	14	0	175	0	102	15:35:18	706013	5	3	3	3	3	3	3	3	3	0	0	0	0	0	0	0	0	0	0	0	0	0		1	0	0	0	0	0	0	0
010513	15:35:18	1	Trial	IncongruentRight	14	0	1000	0	102	15:35:18	707062	5	3	3	3	3	3	3	3	3	0	0	0	0	0	0	0	0	0	0	0	0	0		1	0	0	0	0	0	0	0
010513	15:35:18	1	Trial	ResponseIL	14	0	175	0	102	15:35:18	707828	5	3	3	3	3	3	3	3	3	0	0	0	0	0	0	0	0	0	0	0	0	0		1	0	0	0	0	0	0	0
010513	15:35:18	1	Trial	IncongruentLeft	14	0	1000	0	102	15:35:18	708877	5	3	3	3	3	3	3	3	3	0	0	0	0	0	0	0	0	0	0	0	0	0		1	0	0	0	0	0	0	0
010513	15:35:18	1	Trial	ResponseIR	14	0	175	0	102	15:35:18	709643	5	3	3	3	3	3	3	3	3	0	0	0	0	0	0	0	0	0	0	0	0	0		1	0	0	0	0	0	0	0
010513	15:35:18	1	Trial	IncongruentRight	14	0	1000	0	102	15:35:18	710692	5	3	3	3	3	3	3	3	3	0	0	0	0	0	0	0	0	0	0	0	0	0		1	0	0	0	0	0	0	0
010513	15:35:18	1	Trial	ResponseCR	14	0	175	0	102	15:35:18	711458	5	3	3	3	3	3	3	3	3	0	0	0	0	0	0	0	0	0	0	0	0	0		1	0	0	0	0	0	0	0
010513	15:35:18	1	Trial	CongruentRight	14	0	1000	0	102	15:35:18	712507	5	3	3	3	3	3	3	3	3	0	0	0	0	0	0	0	0	0	0	0	0	0		1	0	0	0	0	0	0	0
010513	15:35:18	1	Trial	ResponseCR	14	0	175	0	102	15:35:18	713272	5	3	3	3	3	3	3	3	3	0	0	0	0	0	0	0	0	0	0	0	0	0		1	0	0	0	0	0	0	0
010513	15:35:18	1	Trial	CongruentRight	14	0	1000	0	102	15:35:18	714321	5	3	3	3	3	3	3	3	3	0	0	0	0	0	0	0	0	0	0	0	0	0		1	0	0	0	0	0	0	0
010513	15:35:18	1	Trial	ResponseIL	14	0	175	0	102	15:35:18	715087	5	3	3	3	3	3	3	3	3	0	0	0	0	0	0	0	0	0	0	0	0	0		1	0	0	0	0	0	0	0
010513	15:35:18	1	Trial	IncongruentLeft	14	0	1000	0	102	15:35:18	716136	5	3	3	3	3	3	3	3	3	0	0	0	0	0	0	0	0	0	0	0	0	0		1	0	0	0	0	0	0	0
010513	15:35:18	1	Trial	ResponseCL	14	0	175	0	102	15:35:18	716902	5	3	3	3	3	3	3	3	3	0	0	0	0	0	0	0	0	0	0	0	0	0		1	0	0	0	0	0	0	0
010513	15:35:18	1	Trial	CongruentLeft	14	0	1000	0	102	15:35:18	717951	5	3	3	3	3	3	3	3	3	0	0	0	0	0	0	0	0	0	0	0	0	0		1	0	0	0	0	0	0	0
010513	15:35:18	1	Trial	ResponseCR	14	0	175	0	102	15:35:18	718717	5	3	3	3	3	3	3	3	3	0	0	0	0	0	0	0	0	0	0	0	0	0		1	0	0	0	0	0	0	0
010513	15:35:18	1	Trial	CongruentRight	14	0	1000	0	102	15:35:18	719766	5	3	3	3	3	3	3	3	3	0	0	0	0	0	0	0	0	0	0	0	0	0		1	0	0	0	0	0	0	0
010513	15:35:18	1	Trial	ResponseCL	14	0	175	0	102	15:35:18	720532	5	3	3	3	3	3	3	3	3	0	0	0	0	0	0	0	0	0	0	0	0	0		1	0	0	0	0	0	0	0
010513	15:35:18	1	Trial	CongruentLeft	14	0	1000	0	102	15:35:18	721581	5	3	3	3	3	3	3	3	3	0	0	0	0	0	0	0	0	0	0	0	0	0		1	0	0	0	0	0	0	0
010513	15:35:18	1	Trial	ResponseIR	14	0	175	0	102	15:35:18	722347	5	3	3	3	3	3	3	3	3	0	0	0	0	0	0	0	0	0	0	0	0	0		1	0	0	0	0	0	0	0
010513	15:35:18	1	Trial	IncongruentRight	14	0	1000	0	102	15:35:18	723396	5	3	3	3	3	3	3	3	3	0	0	0	0	0	0	0	0	0	0	0	0	0		1	0	0	0	0	0	0	0
010513	15:35:18	1	Trial	ResponseCR	14	0	175	0	102	15:35:18	724162	5	3	3	3	3	3	3	3	3	0	0	0	0	0	0	0	0	0	0	0	0	0		1	0	0	0	0	0	0	0
010513	15:35:18	1	Trial	CongruentRight	14	0	1000	0	102	15:35:18	725211	5	3	3	3	3	3	3	3	3	0	0	0	0	0	0	0	0	0	0	0	0	0		1	0	0	0	0	0	0	0
010513	15:35:18	1	Trial	ResponseCL	14	0	175	0	102	15:35:18	725977	5	3	3	3	3	3	3	3	3	0	0	0	0	0	0	0	0	0	0	0	0	0		1	0	0	0	0	0	0	0
010513	15:35:18	1	Trial	CongruentLeft	14	0	1000	0	102	15:35:18	727026	5	3	3	3	3	3	3	3	3	0	0	0	0	0	0	0	0	0	0	0	0	0		1	0	0	0	0	0	0	0
010513	15:35:18	1	Trial	ResponseIL	14	0	175	0	102	15:35:18	727791	5	3	3	3	3	3	3	3	3	0	0	0	0	0	0	0	0	0	0	0	0	0		1	0	0	0	0	0	0	0
010513	15:35:18	1	Trial	IncongruentLeft	14	0	1000	0	102	15:35:18	728840	5	3	3	3	3	3	3	3	3	0	0	0	0	0	0	0	0	0	0	0	0	0		1	0	0	0	0	0	0	0
010513	15:35:18	1	Trial	ResponseIL	14	0	175	0	102	15:35:18	729606	5	3	3	3	3	3	3	3	3	0	0	0	0	0	0	0	0	0	0	0	0	0		1	0	0	0	0	0	0	0
010513	15:35:18	1	Trial	IncongruentLeft	14	0	1000	0	102	15:35:18	730655	5	3	3	3	3	3	3	3	3	0	0	0	0	0	0	0	0	0	0	0	0	0		1	0	0	0	0	0	0	0
010513	15:35:18	1	Trial	ResponseCR	14	0	175	0	102	15:35:18	731421	5	3	3	3	3	3	3	3	3	0	0	0	0	0	0	0	0	0	0	0	0	0		1	0	0	0	0	0	0	0
010513	15:35:18	1	Trial	CongruentRight	14	0	1000	0	102	15:35:18	732470	5	3	3	3	3	3	3	3	3	0	0	0	0	0	0	0	0	0	0	0	0	0		1	0	0	0	0	0	0	0
010513	15:35:18	1	Trial	ResponseIR	14	0	175	0	102	15:35:18	733236	5	3	3	3	3	3	3	3	3	0	0	0	0	0	0	0	0	0	0	0	0	0		1	0	0	0	0	0	0	0
010513	15:35:18	1	Trial	IncongruentRight	14	0	1000	0	102	15:35:18	734285	5	3	3	3	3	3	3	3	3	0	0	0	0	0	0	0	0	0	0	0	0	0		1	0	0	0	0	0	0	0
010513	15:35:18	1	Trial	ResponseCL	14	0	175	0	102	15:35:18	735051	5	3	3	3	3	3	3	3	3	0	0	0	0	0	0	0	0	0	0	0	0	0		1	0	0	0	0	0	0	0
010513	15:35:18	1	Trial	CongruentLeft	14	0	1000	0	102	15:35:18	736100	5	3	3	3	3	3	3	3	3	0	0	0	0	0	0	0	0	0	0	0	0	0		1	0	0	0	0	0	0	0
010513	15:35:18	1	Trial	ResponseIR	14	0	175	0	102	15:35:18	736866	5	3	3	3	3	3	3	3	3	0	0	0	0	0	0	0	0	0	0	0	0	0		1	0	0	0	0	0	0	0
010513	15:35:18	1	Trial	IncongruentRight	14	0	1000	0	102	15:35:18	737915	5	3	3	3	3	3	3	3	3	0	0	0	0	0	0	0	0	0	0	0	0	0		1	0	0	0	0	0	0	0
010513	15:35:18	1	Trial	ResponseCR	14	0	175	0	102	15:35:18	738680	5	3	3	3	3	3	3	3	3	0	0	0	0	0	0	0	0	0	0	0	0	0		1	0	0	0	0	0	0	0
010513	15:35:18	1	Trial	CongruentRight	14	0	1000	0	102	15:35:18	739729	5	3	3	3	3	3	3	3	3	0	0	0	0	0	0	0	0	0	0	0	0	0		1	0	0	0	0	0	0	0
010513	15:35:18	1	Trial	ResponseIL	14	0	175	0	102	15:35:18	740495	5	3	3	3	3	3	3	3	3	0	0	0	0	0	0	0	0	0	0	0	0	0		1	0	0	0	0	0	0	0
010513	15:35:18	1	Trial	IncongruentLeft	14	0	1000	0	102	15:35:18	741544	5	3	3	3	3	3	3	3	3	0	0	0	0	0	0	0	0	0	0	0	0	0		1	0	0	0	0	0	0	0
010513	15:35:18	1	Trial	ResponseCL	14	0	175	0	102	15:35:18	742310	5	3	3	3	3	3	3	3	3	0	0	0	0	0	0	0	0	0	0	0	0	0		1	0	0	0	0	0	0	0
010513	15:35:18	1	Trial	CongruentLeft	14	0	1000	0	102	15:35:18	743359	5	3	3	3	3	3	3	3	3	0	0	0	0	0	0	0	0	0	0	0	0	0		1	0	0	0	0	0	0	0
010513	15:35:18	1	Trial	ResponseCR	14	0	175	0	102	15:35:18	744125	5	3	3	3	3	3	3	3	3	0	0	0	0	0	0	0	0	0	0	0	0	0		1	0	0	0	0	0	0	0
010513	15:35:18	1	Trial	CongruentRight	14	0	1000	0	102	15:35:18	745174	5	3	3	3	3	3	3	3	3	0	0	0	0	0	0	0	0	0	0	0	0	0		1	0	0	0	0	0	0	0
010513	15:35:18	1	Trial	ResponseIL	14	0	175	0	102	15:35:18	745940	5	3	3	3	3	3	3	3	3	0	0	0	0	0	0	0	0	0	0	0	0	0		1	0	0	0	0	0	0	0
010513	15:35:18	1	Trial	IncongruentLeft	14	0	1000	0	102	15:35:18	746989	5	3	3	3	3	3	3	3	3	0	0	0	0	0	0	0	0	0	0	0	0	0		1	0	0	0	0	0	0	0
010513	15:35:18	1	Trial	ResponseCR	14	0	175	0	102	15:35:18	747755	5	3	3	3	3	3	3	3	3	0	0	0	0	0	0	0	0	0	0	0	0	0		1	0	0	0	0	0	0	0
010513	15:35:18	1	Trial	CongruentRight	14	0	1000	0	102	15:35:18	748804	5	3	3	3	3	3	3	3	3	0	0	0	0	0	0	0	0	0	0	0	0	0		1	0	0	0	0	0	0	0
010513	15:35:18	1	Trial	ResponseCR	14	0	175	0	102	15:35:18	749570	5	3	3	3	3	3	3	3	3	0	0	0	0	0	0	0	0	0	0	0	0	0		1	0	0	0	0	0	0	0
010513	15:35:18	1	Trial	CongruentRight	14	0	1000	0	102	15:35:18	750619	5	3	3	3	3	3	3	3	3	0	0	0	0	0	0	0	0	0	0	0	0	0		1	0	0	0	0	0	0	0
010513	15:35:18	1	Trial	ResponseIR	14	0	175	0	102	15:35:18	751385	5	3	3	3	3	3	3	3	3	0	0	0	0	0	0	0	0	0	0	0	0	0		1	0	0	0	0	0	0	0
010513	15:35:18	1	Trial	IncongruentRight	14	0	1000	0	102	15:35:18	752433	5	3	3	3	3	3	3	3	3	0	0	0	0	0	0	0	0	0	0	0	0	0		1	0	0	0	0	0	0	0
010513	15:35:18	1	Trial	ResponseCL	14	0	175	0	102	15:35:18	753199	5	3	3	3	3	3	3	3	3	0	0	0	0	0	0	0	0	0	0	0	0	0		1	0	0	0	0	0	0	0
010513	15:35:18	1	Trial	CongruentLeft	14	0	1000	0	102	15:35:18	754248	5	3	3	3	3	3	3	3	3	0	0	0	0	0	0	0	0	0	0	0	0	0		1	0	0	0	0	0	0	0
010513	15:35:18	1	Trial	ResponseIL	14	0	175	0	102	15:35:18	755014	5	3	3	3	3	3	3	3	3	0	0	0	0	0	0	0	0	0	0	0	0	0		1	0	0	0	0	0	0	0
010513	15:35:18	1	Trial	IncongruentLeft	14	0	1000	0	102	15:35:18	756063	5	3	3	3	3	3	3	3	3	0	0	0	0	0	0	0	0	0	0	0	0	0		1	0	0	0	0	0	0	0
010513	15:35:18	1	Trial	ResponseCL	14	0	175	0	102	15:35:18	756829	5	3	3	3	3	3	3	3	3	0	0	0	0	0	0	0	0	0	0	0	0	0		1	0	0	0	0	0	0	0
010513	15:35:18	1	Trial	CongruentLeft	14	0	1000	0	102	15:35:18	757878	5	3	3	3	3	3	3	3	3	0	0	0	0	0	0	0	0	0	0	0	0	0		1	0	0	0	0	0	0	0
010513	15:35:18	1	Trial	ResponseIR	14	0	175	0	102	15:35:18	758644	5	3	3	3	3	3	3	3	3	0	0	0	0	0	0	0	0	0	0	0	0	0		1	0	0	0	0	0	0	0
010513	15:35:18	1	Trial	IncongruentRight	14	0	1000	0	102	15:35:18	759693	5	3	3	3	3	3	3	3	3	0	0	0	0	0	0	0	0	0	0	0	0	0		1	0	0	0	0	0	0	0
010513	15:35:18	1	Trial	ResponseIL	14	0	175	0	102	15:35:18	760459	5	3	3	3	3	3	3	3	3	0	0	0	0	0	0	0	0	0	0	0	0	0		1	0	0	0	0	0	0	0
010513	15:35:18	1	Trial	IncongruentLeft	14	0	1000	0	102	15:35:18	761508	5	3	3	3	3	3	3	3	3	0	0	0	0	0	0	0	0	0	0	0	0	0		1	0	0	0	0	0	0	0
010513	15:35:18	1	Trial	ResponseCR	14	0	175	0	102	15:35:18	762274	5	3	3	3	3	3	3	3	3	0	0	0	0	0	0	0	0	0	0	0	0	0		1	0	0	0	0	0	0	0
010513	15:35:18	1	Trial	CongruentRight	14	0	1000	0	102	15:35:18	763323	5	3	3	3	3	3	3	3	3	0	0	0	0	0	0	0	0	0	0	0	0	0		1	0	0	0	0	0	0	0
010513	15:35:18	1	Trial	ResponseCL	14	0	175	0	102	15:35:18	764088	5	3	3	3	3	3	3	3	3	0	0	0	0	0	0	0	0	0	0	0	0	0		1	0	0	0	0	0	0	0
010513	15:35:18	1	Trial	CongruentLeft	14	0	1000	0	102	15:35:18	765137	5	3	3	3	3	3	3	3	3	0	0	0	0	0	0	0	0	0	0	0	0	0		1	0	0	0	0	0	0	0
010513	15:35:18	1	Trial	ResponseIL	14	0	175	0	102	15:35:18	765903	5	3	3	3	3	3	3	3	3	0	0	0	0	0	0	0	0	0	0	0	0	0		1	0	0	0	0	0	0	0
010513	15:35:18	1	Trial	IncongruentLeft	14	0	1000	0	102	15:35:18	766952	5	3	3	3	3	3	3	3	3	0	0	0	0	0	0	0	0	0	0	0	0	0		1	0	0	0	0	0	0	0
010513	15:35:18	1	Trial	ResponseCL	14	0	175	0	102	15:35:18	767718	5	3	3	3	3	3	3	3	3	0	0	0	0	0	0	0	0	0	0	0	0	0		1	0	0	0	0	0	0	0
010513	15:35:18	1	Trial	CongruentLeft	14	0	1000	0	102	15:35:18	768767	5	3	3	3	3	3	3	3	3	0	0	0	0	0	0	0	0	0	0	0	0	0		1	0	0	0	0	0	0	0
010513	15:35:18	1	Trial	ResponseIR	14	0	175	0	102	15:35:18	769533	5	3	3	3	3	3	3	3	3	0	0	0	0	0	0	0	0	0	0	0	0	0		1	0	0	0	0	0	0	0
010513	15:35:18	1	Trial	IncongruentRight	14	0	1000	0	102	15:35:18	770582	5	3	3	3	3	3	3	3	3	0	0	0	0	0	0	0	0	0	0	0	0	0		1	0	0	0	0	0	0	0
010513	15:35:18	1	Trial	ResponseCR	14	0	175	0	102	15:35:18	771348	5	3	3	3	3	3	3	3	3	0	0	0	0	0	0	0	0	0	0	0	0	0		1	0	0	0	0	0	0	0
010513	15:35:18	1	Trial	CongruentRight	14	0	1000	0	102	15:35:18	772397	5	3	3	3	3	3	3	3	3	0	0	0	0	0	0	0	0	0	0	0	0	0		1	0	0	0	0	0	0	0
010513	15:35:18	1	Trial	ResponseIL	14	0	175	0	102	15:35:18	773163	5	3	3	3	3	3	3	3	3	0	0	0	0	0	0	0	0	0	0	0	0	0		1	0	0	0	0	0	0	0
010513	15:35:18	1	Trial	IncongruentLeft	14	0	1000	0	102	15:35:18	774212	5	3	3	3	3	3	3	3	3	0	0	0	0	0	0	0	0	0	0	0	0	0		1	0	0	0	0	0	0	0
010513	15:35:18	1	Trial	ResponseCL	14	0	175	0	102	15:35:18	774978	5	3	3	3	3	3	3	3	3	0	0	0	0	0	0	0	0	0	0	0	0	0		1	0	0	0	0	0	0	0
010513	15:35:18	1	Trial	CongruentLeft	14	0	1000	0	102	15:35:18	776027	5	3	3	3	3	3	3	3	3	0	0	0	0	0	0	0	0	0	0	0	0	0		1	0	0	0	0	0	0	0
010513	15:35:18	1	Trial	ResponseIR	14	0	175	0	102	15:35:18	776793	5	3	3	3	3	3	3	3	3	0	0	0	0	0	0	0	0	0	0	0	0	0		1	0	0	0	0	0	0	0
010513	15:35:18	1	Trial	IncongruentRight	14	0	1000	0	102	15:35:18	777841	5	3	3	3	3	3	3	3	3	0	0	0	0	0	0	0	0	0	0	0	0	0		1	0	0	0	0	0	0	0
010513	15:35:18	1	Trial	ResponseIL	14	0	175	0	102	15:35:18	778607	5	3	3	3	3	3	3	3	3	0	0	0	0	0	0	0	0	0	0	0	0	0		1	0	0	0	0	0	0	0
010513	15:35:18	1	Trial	IncongruentLeft	14	0	1000	0	102	15:35:18	779656	5	3	3	3	3	3	3	3	3	0	0	0	0	0	0	0	0	0	0	0	0	0		1	0	0	0	0	0	0	0
010513	15:35:18	1	Trial	ResponseCL	14	0	175	0	102	15:35:18	780422	5	3	3	3	3	3	3	3	3	0	0	0	0	0	0	0	0	0	0	0	0	0		1	0	0	0	0	0	0	0
010513	15:35:18	1	Trial	CongruentLeft	14	0	1000	0	102	15:35:18	781471	5	3	3	3	3	3	3	3	3	0	0	0	0	0	0	0	0	0	0	0	0	0		1	0	0	0	0	0	0	0
010513	15:35:18	1	Trial	ResponseIL	14	0	175	0	102	15:35:18	782237	5	3	3	3	3	3	3	3	3	0	0	0	0	0	0	0	0	0	0	0	0	0		1	0	0	0	0	0	0	0
010513	15:35:18	1	Trial	IncongruentLeft	14	0	1000	0	102	15:35:18	783286	5	3	3	3	3	3	3	3	3	0	0	0	0	0	0	0	0	0	0	0	0	0		1	0	0	0	0	0	0	0
010513	15:35:18	1	Trial	ResponseCR	14	0	175	0	102	15:35:18	784052	5	3	3	3	3	3	3	3	3	0	0	0	0	0	0	0	0	0	0	0	0	0		1	0	0	0	0	0	0	0
010513	15:35:18	1	Trial	CongruentRight	14	0	1000	0	102	15:35:18	785101	5	3	3	3	3	3	3	3	3	0	0	0	0	0	0	0	0	0	0	0	0	0		1	0	0	0	0	0	0	0
010513	15:35:18	1	Trial	ResponseCL	14	0	175	0	102	15:35:18	785867	5	3	3	3	3	3	3	3	3	0	0	0	0	0	0	0	0	0	0	0	0	0		1	0	0	0	0	0	0	0
010513	15:35:18	1	Trial	CongruentLeft	14	0	1000	0	102	15:35:18	786916	5	3	3	3	3	3	3	3	3	0	0	0	0	0	0	0	0	0	0	0	0	0		1	0	0	0	0	0	0	0
010513	15:35:18	1	Trial	ResponseIR	14	0	175	0	102	15:35:18	787682	5	3	3	3	3	3	3	3	3	0	0	0	0	0	0	0	0	0	0	0	0	0		1	0	0	0	0	0	0	0
010513	15:35:18	1	Trial	IncongruentRight	14	0	1000	0	102	15:35:18	788731	5	3	3	3	3	3	3	3	3	0	0	0	0	0	0	0	0	0	0	0	0	0		1	0	0	0	0	0	0	0
010513	15:35:18	1	Trial	ResponseCL	14	0	175	0	102	15:35:18	789496	5	3	3	3	3	3	3	3	3	0	0	0	0	0	0	0	0	0	0	0	0	0		1	0	0	0	0	0	0	0
010513	15:35:18	1	Trial	CongruentLeft	14	0	1000	0	102	15:35:18	790545	5	3	3	3	3	3	3	3	3	0	0	0	0	0	0	0	0	0	0	0	0	0		1	0	0	0	0	0	0	0
010513	15:35:18	1	Trial	ResponseCR	14	0	175	0	102	15:35:18	791311	5	3	3	3	3	3	3	3	3	0	0	0	0	0	0	0	0	0	0	0	0	0		1	0	0	0	0	0	0	0
010513	15:35:18	1	Trial	CongruentRight	14	0	1000	0	102	15:35:18	792360	5	3	3	3	3	3	3	3	3	0	0	0	0	0	0	0	0	0	0	0	0	0		1	0	0	0	0	0	0	0
010513	15:35:18	1	Trial	ResponseIL	14	0	175	0	102	15:35:18	793126	5	3	3	3	3	3	3	3	3	0	0	0	0	0	0	0	0	0	0	0	0	0		1	0	0	0	0	0	0	0
010513	15:35:18	1	Trial	IncongruentLeft	14	0	1000	0	102	15:35:18	794175	5	3	3	3	3	3	3	3	3	0	0	0	0	0	0	0	0	0	0	0	0	0		1	0	0	0	0	0	0	0
010513	15:35:18	1	WordsAbsFr6mo	PAbsFr6mo1	16	Abs1	2673	0	102	15:35:18	802117	5	3	3	3	3	3	3	3	3	0	0	0	0	0	0	0	0	0	0	0	0	0		1	0	0	0	0	0	0	0
010513	15:35:18	1	WordsAbsFr6mo	AbsFr6mo1	16	Abs1	858	0	102	15:35:18	803149	5	3	3	3	3	3	3	3	3	0	0	1	0	0	0	0	0	0	0	0	0	0		1	0	0	0	0	0	0	0
010513	15:35:18	1	WordsAbsFr6mo	AbsFr6mo2	16	Abs1	549	0	102	15:35:18	803765	5	3	3	3	3	3	3	3	3	0	0	2	0	0	0	0	0	0	0	0	0	0		1	0	0	0	0	0	0	0
010513	15:35:18	1	WordsAbsFr6mo	AbsFr6mo3	16	Abs1	480	0	102	15:35:18	804298	5	3	3	3	3	3	3	3	3	0	0	3	0	0	0	0	0	0	0	0	0	0		1	0	0	0	0	0	0	0
010513	15:35:18	1	Trial2BackFrS	NS	17	0	1000	1	102	15:35:18	825843	5	3	3	3	3	3	3	3	3	0	0	3	0	0	0	0	0	0	0	0	0	0		1	0	0	0	0	0	0	0
010513	15:35:18	1	Trial2BackFrS	NS	17	0	1000	1	102	15:35:18	827359	5	3	3	3	3	3	3	3	3	0	0	3	0	0	0	0	0	0	0	0	0	0		1	0	0	0	0	0	0	0
010513	15:35:18	1	Trial2BackFrS	NS	17	0	1000	1	102	15:35:18	828874	5	3	3	3	3	3	3	3	3	0	0	3	0	0	0	0	0	0	0	0	0	0		1	0	0	0	0	0	0	0
010513	15:35:18	1	Trial2BackFrS	YS	17	0	1000	0	102	15:35:18	830389	5	3	3	3	3	3	3	3	3	0	0	3	0	0	0	0	0	0	0	0	0	0		1	0	0	0	0	0	0	0
010513	15:35:18	1	Trial2BackFrS	NS	17	0	1000	1	102	15:35:18	831904	5	3	3	3	3	3	3	3	3	0	0	3	0	0	0	0	0	0	0	0	0	0		1	0	0	0	0	0	0	0
010513	15:35:18	1	Trial2BackFrS	NS	17	0	1000	1	102	15:35:18	833419	5	3	3	3	3	3	3	3	3	0	0	3	0	0	0	0	0	0	0	0	0	0		1	0	0	0	0	0	0	0
010513	15:35:18	1	Trial2BackFrS	NS	17	0	1000	1	102	15:35:18	834935	5	3	3	3	3	3	3	3	3	0	0	3	0	0	0	0	0	0	0	0	0	0		1	0	0	0	0	0	0	0
010513	15:35:18	1	Trial2BackFrS	NS	17	0	1000	1	102	15:35:18	836449	5	3	3	3	3	3	3	3	3	0	0	3	0	0	0	0	0	0	0	0	0	0		1	0	0	0	0	0	0	0
010513	15:35:18	1	Trial2BackFrS	YS	17	0	1000	0	102	15:35:18	837965	5	3	3	3	3	3	3	3	3	0	0	3	0	0	0	0	0	0	0	0	0	0		1	0	0	0	0	0	0	0
010513	15:35:18	1	Trial2BackFrS	NS	17	0	1000	1	102	15:35:18	839480	5	3	3	3	3	3	3	3	3	0	0	3	0	0	0	0	0	0	0	0	0	0		1	0	0	0	0	0	0	0
010513	15:35:18	1	Trial2BackFrS	NS	17	0	1000	1	102	15:35:18	840995	5	3	3	3	3	3	3	3	3	0	0	3	0	0	0	0	0	0	0	0	0	0		1	0	0	0	0	0	0	0
010513	15:35:18	1	Trial2BackFrS	YS	17	0	1000	0	102	15:35:18	842510	5	3	3	3	3	3	3	3	3	0	0	3	0	0	0	0	0	0	0	0	0	0		1	0	0	0	0	0	0	0
010513	15:35:18	1	Trial2BackFrS	NS	17	0	1000	1	102	15:35:18	844025	5	3	3	3	3	3	3	3	3	0	0	3	0	0	0	0	0	0	0	0	0	0		1	0	0	0	0	0	0	0
010513	15:35:18	1	Trial2BackFrS	NS	17	0	1000	1	102	15:35:18	845540	5	3	3	3	3	3	3	3	3	0	0	3	0	0	0	0	0	0	0	0	0	0		1	0	0	0	0	0	0	0
010513	15:35:18	1	Trial2BackFrS	NS	17	0	1000	1	102	15:35:18	847056	5	3	3	3	3	3	3	3	3	0	0	3	0	0	0	0	0	0	0	0	0	0		1	0	0	0	0	0	0	0
010513	15:35:18	1	Trial2BackFrS	YS	17	0	1000	0	102	15:35:18	848571	5	3	3	3	3	3	3	3	3	0	0	3	0	0	0	0	0	0	0	0	0	0		1	0	0	0	0	0	0	0
010513	15:35:18	1	Trial2BackFrS	NS	17	0	1000	1	102	15:35:18	850086	5	3	3	3	3	3	3	3	3	0	0	3	0	0	0	0	0	0	0	0	0	0		1	0	0	0	0	0	0	0
010513	15:35:18	1	Trial2BackFrS	NS	17	0	1000	1	102	15:35:18	851601	5	3	3	3	3	3	3	3	3	0	0	3	0	0	0	0	0	0	0	0	0	0		1	0	0	0	0	0	0	0
010513	15:35:18	1	Trial2BackFrS	NS	17	0	1000	1	102	15:35:18	853116	5	3	3	3	3	3	3	3	3	0	0	3	0	0	0	0	0	0	0	0	0	0		1	0	0	0	0	0	0	0
010513	15:35:18	1	Trial2BackFrS	NS	17	0	1000	1	102	15:35:18	854631	5	3	3	3	3	3	3	3	3	0	0	3	0	0	0	0	0	0	0	0	0	0		1	0	0	0	0	0	0	0
010513	15:35:18	1	Trial2BackFrS	YS	17	0	1000	0	102	15:35:18	856146	5	3	3	3	3	3	3	3	3	0	0	3	0	0	0	0	0	0	0	0	0	0		1	0	0	0	0	0	0	0
010513	15:35:18	1	Trial2BackFrS	NS	17	0	1000	1	102	15:35:18	857662	5	3	3	3	3	3	3	3	3	0	0	3	0	0	0	0	0	0	0	0	0	0		1	0	0	0	0	0	0	0
010513	15:35:18	1	Trial2BackFrS	NS	17	0	1000	1	102	15:35:18	859177	5	3	3	3	3	3	3	3	3	0	0	3	0	0	0	0	0	0	0	0	0	0		1	0	0	0	0	0	0	0
010513	15:35:18	1	Trial2BackFrS	NS	17	0	1000	1	102	15:35:18	860692	5	3	3	3	3	3	3	3	3	0	0	3	0	0	0	0	0	0	0	0	0	0		1	0	0	0	0	0	0	0
010513	15:35:18	1	Trial2BackFrS	NS	17	0	1000	1	102	15:35:18	862207	5	3	3	3	3	3	3	3	3	0	0	3	0	0	0	0	0	0	0	0	0	0		1	0	0	0	0	0	0	0
010513	15:35:18	1	Trial2BackFrS	NS	17	0	1000	1	102	15:35:18	863722	5	3	3	3	3	3	3	3	3	0	0	3	0	0	0	0	0	0	0	0	0	0		1	0	0	0	0	0	0	0
010513	15:35:18	1	Trial2BackFrS	NS	17	0	1000	1	102	15:35:18	865237	5	3	3	3	3	3	3	3	3	0	0	3	0	0	0	0	0	0	0	0	0	0		1	0	0	0	0	0	0	0
010513	15:35:18	1	Trial2BackFrS	NS	17	0	1000	1	102	15:35:18	866753	5	3	3	3	3	3	3	3	3	0	0	3	0	0	0	0	0	0	0	0	0	0		1	0	0	0	0	0	0	0
010513	15:35:18	1	Trial2BackFrS	NS	17	0	1000	1	102	15:35:18	868268	5	3	3	3	3	3	3	3	3	0	0	3	0	0	0	0	0	0	0	0	0	0		1	0	0	0	0	0	0	0
010513	15:35:18	1	Trial2BackFrS	NS	17	0	1000	1	102	15:35:18	869783	5	3	3	3	3	3	3	3	3	0	0	3	0	0	0	0	0	0	0	0	0	0		1	0	0	0	0	0	0	0
010513	15:35:18	1	Trial2BackFrS	NS	17	0	1000	1	102	15:35:18	871298	5	3	3	3	3	3	3	3	3	0	0	3	0	0	0	0	0	0	0	0	0	0		1	0	0	0	0	0	0	0
010513	15:35:18	1	Trial2BackFrS	YS	17	0	1000	0	102	15:35:18	872813	5	3	3	3	3	3	3	3	3	0	0	3	0	0	0	0	0	0	0	0	0	0		1	0	0	0	0	0	0	0
010513	15:35:18	1	Trial2BackFrS	NS	17	0	1000	1	102	15:35:18	874328	5	3	3	3	3	3	3	3	3	0	0	3	0	0	0	0	0	0	0	0	0	0		1	0	0	0	0	0	0	0
010513	15:35:18	1	Trial2BackFrS	NS	17	0	1000	1	102	15:35:18	875844	5	3	3	3	3	3	3	3	3	0	0	3	0	0	0	0	0	0	0	0	0	0		1	0	0	0	0	0	0	0
010513	15:35:18	1	Trial2BackFrS	NS	17	0	1000	1	102	15:35:18	877359	5	3	3	3	3	3	3	3	3	0	0	3	0	0	0	0	0	0	0	0	0	0		1	0	0	0	0	0	0	0
010513	15:35:18	1	Trial2BackFrS	YS	17	0	1000	0	102	15:35:18	878874	5	3	3	3	3	3	3	3	3	0	0	3	0	0	0	0	0	0	0	0	0	0		1	0	0	0	0	0	0	0
010513	15:35:18	1	Trial2BackFrS	NS	17	0	1000	1	102	15:35:18	880389	5	3	3	3	3	3	3	3	3	0	0	3	0	0	0	0	0	0	0	0	0	0		1	0	0	0	0	0	0	0
010513	15:35:18	1	Trial2BackFrS	NS	17	0	1000	1	102	15:35:18	881904	5	3	3	3	3	3	3	3	3	0	0	3	0	0	0	0	0	0	0	0	0	0		1	0	0	0	0	0	0	0
010513	15:35:18	1	Trial2BackFrS	NS	17	0	1000	1	102	15:35:18	883419	5	3	3	3	3	3	3	3	3	0	0	3	0	0	0	0	0	0	0	0	0	0		1	0	0	0	0	0	0	0
010513	15:35:18	1	Trial2BackFrS	NS	17	0	1000	1	102	15:35:18	884934	5	3	3	3	3	3	3	3	3	0	0	3	0	0	0	0	0	0	0	0	0	0		1	0	0	0	0	0	0	0
010513	15:35:18	1	Trial2BackFrS	NS	17	0	1000	1	102	15:35:18	886450	5	3	3	3	3	3	3	3	3	0	0	3	0	0	0	0	0	0	0	0	0	0		1	0	0	0	0	0	0	0
010513	15:35:18	1	Trial2BackFrS	NS	17	0	1000	1	102	15:35:18	887965	5	3	3	3	3	3	3	3	3	0	0	3	0	0	0	0	0	0	0	0	0	0		1	0	0	0	0	0	0	0
010513	15:35:18	1	Trial2BackFrS	NS	17	0	1000	1	102	15:35:18	889480	5	3	3	3	3	3	3	3	3	0	0	3	0	0	0	0	0	0	0	0	0	0		1	0	0	0	0	0	0	0
010513	15:35:18	1	Trial2BackFrS	YS	17	0	1000	0	102	15:35:18	890995	5	3	3	3	3	3	3	3	3	0	0	3	0	0	0	0	0	0	0	0	0	0		1	0	0	0	0	0	0	0
010513	15:35:18	1	Trial2BackFrS	NS	17	0	1000	1	102	15:35:18	892510	5	3	3	3	3	3	3	3	3	0	0	3	0	0	0	0	0	0	0	0	0	0		1	0	0	0	0	0	0	0
010513	15:35:18	1	Trial2BackFrS	NS	17	0	1000	1	102	15:35:18	894025	5	3	3	3	3	3	3	3	3	0	0	3	0	0	0	0	0	0	0	0	0	0		1	0	0	0	0	0	0	0
010513	15:35:18	1	Trial2BackFrS	NS	17	0	1000	1	102	15:35:18	895540	5	3	3	3	3	3	3	3	3	0	0	3	0	0	0	0	0	0	0	0	0	0		1	0	0	0	0	0	0	0
010513	15:35:18	1	Trial2BackFrS	NS	17	0	1000	1	102	15:35:18	897056	5	3	3	3	3	3	3	3	3	0	0	3	0	0	0	0	0	0	0	0	0	0		1	0	0	0	0	0	0	0
010513	15:35:18	1	Trial2BackFrS	YS	17	0	1000	0	102	15:35:18	898571	5	3	3	3	3	3	3	3	3	0	0	3	0	0	0	0	0	0	0	0	0	0		1	0	0	0	0	0	0	0
010513	15:35:18	1	Trial2BackFrS	NS	17	0	1000	1	102	15:35:18	900086	5	3	3	3	3	3	3	3	3	0	0	3	0	0	0	0	0	0	0	0	0	0		1	0	0	0	0	0	0	0
010513	15:35:18	1	Trial2BackFrS	NS	17	0	1000	1	102	15:35:18	901601	5	3	3	3	3	3	3	3	3	0	0	3	0	0	0	0	0	0	0	0	0	0		1	0	0	0	0	0	0	0
010513	15:35:18	1	Trial2BackFrS	NS	17	0	1000	1	102	15:35:18	903116	5	3	3	3	3	3	3	3	3	0	0	3	0	0	0	0	0	0	0	0	0	0		1	0	0	0	0	0	0	0
010513	15:35:18	1	Trial2BackFrS	NS	17	0	1000	1	102	15:35:18	904631	5	3	3	3	3	3	3	3	3	0	0	3	0	0	0	0	0	0	0	0	0	0		1	0	0	0	0	0	0	0
010513	15:35:18	1	Trial2BackFrS	NS	17	0	1000	1	102	15:35:18	906147	5	3	3	3	3	3	3	3	3	0	0	3	0	0	0	0	0	0	0	0	0	0		1	0	0	0	0	0	0	0
010513	15:35:18	1	Trial2BackFrS	NS	17	0	1000	1	102	15:35:18	907662	5	3	3	3	3	3	3	3	3	0	0	3	0	0	0	0	0	0	0	0	0	0		1	0	0	0	0	0	0	0
010513	15:35:18	1	Trial2BackFrS	YS	17	0	1000	0	102	15:35:18	909177	5	3	3	3	3	3	3	3	3	0	0	3	0	0	0	0	0	0	0	0	0	0		1	0	0	0	0	0	0	0
010513	15:35:18	1	Trial2BackFrS	NS	17	0	1000	1	102	15:35:18	910692	5	3	3	3	3	3	3	3	3	0	0	3	0	0	0	0	0	0	0	0	0	0		1	0	0	0	0	0	0	0
010513	15:35:18	1	Trial2BackFrS	NS	17	0	1000	1	102	15:35:18	912207	5	3	3	3	3	3	3	3	3	0	0	3	0	0	0	0	0	0	0	0	0	0		1	0	0	0	0	0	0	0
010513	15:35:18	1	Trial2BackFrS	NS	17	0	1000	1	102	15:35:18	913722	5	3	3	3	3	3	3	3	3	0	0	3	0	0	0	0	0	0	0	0	0	0		1	0	0	0	0	0	0	0
010513	15:35:18	1	Trial2BackFrS	NS	17	0	1000	1	102	15:35:18	915238	5	3	3	3	3	3	3	3	3	0	0	3	0	0	0	0	0	0	0	0	0	0		1	0	0	0	0	0	0	0
010513	15:35:18	1	Trial2BackFrS	NS	17	0	1000	1	102	15:35:18	916753	5	3	3	3	3	3	3	3	3	0	0	3	0	0	0	0	0	0	0	0	0	0		1	0	0	0	0	0	0	0
010513	15:35:18	1	Trial2BackFrS	NS	17	0	1000	1	102	15:35:18	918268	5	3	3	3	3	3	3	3	3	0	0	3	0	0	0	0	0	0	0	0	0	0		1	0	0	0	0	0	0	0
010513	15:35:18	1	Trial2BackFrS	NS	17	0	1000	1	102	15:35:18	919783	5	3	3	3	3	3	3	3	3	0	0	3	0	0	0	0	0	0	0	0	0	0		1	0	0	0	0	0	0	0
010513	15:35:18	1	Trial2BackFrS	YS	17	0	1000	0	102	15:35:18	921298	5	3	3	3	3	3	3	3	3	0	0	3	0	0	0	0	0	0	0	0	0	0		1	0	0	0	0	0	0	0
010513	15:35:18	1	Trial2BackFrS	NS	17	0	1000	1	102	15:35:18	922813	5	3	3	3	3	3	3	3	3	0	0	3	0	0	0	0	0	0	0	0	0	0		1	0	0	0	0	0	0	0
010513	15:35:18	1	Trial2BackFrS	NS	17	0	1000	1	102	15:35:18	924329	5	3	3	3	3	3	3	3	3	0	0	3	0	0	0	0	0	0	0	0	0	0		1	0	0	0	0	0	0	0
010513	15:35:18	1	Trial2BackFrS	NS	17	0	1000	1	102	15:35:18	925844	5	3	3	3	3	3	3	3	3	0	0	3	0	0	0	0	0	0	0	0	0	0		1	0	0	0	0	0	0	0
010513	15:35:18	1	Trial2BackFrS	NS	17	0	1000	1	102	15:35:18	927359	5	3	3	3	3	3	3	3	3	0	0	3	0	0	0	0	0	0	0	0	0	0		1	0	0	0	0	0	0	0
010513	15:35:18	1	Trial2BackFrS	YS	17	0	1000	0	102	15:35:18	928874	5	3	3	3	3	3	3	3	3	0	0	3	0	0	0	0	0	0	0	0	0	0		1	0	0	0	0	0	0	0
010513	15:35:18	1	Trial2BackFrS	NS	17	0	1000	1	102	15:35:18	930389	5	3	3	3	3	3	3	3	3	0	0	3	0	0	0	0	0	0	0	0	0	0		1	0	0	0	0	0	0	0
010513	15:35:18	1	Trial2BackFrS	NS	17	0	1000	1	102	15:35:18	931904	5	3	3	3	3	3	3	3	3	0	0	3	0	0	0	0	0	0	0	0	0	0		1	0	0	0	0	0	0	0
010513	15:35:18	1	Trial2BackFrS	YS	17	0	1000	0	102	15:35:18	933419	5	3	3	3	3	3	3	3	3	0	0	3	0	0	0	0	0	0	0	0	0	0		1	0	0	0	0	0	0	0
010513	15:35:18	1	Trial2BackFrS	NS	17	0	1000	1	102	15:35:18	934935	5	3	3	3	3	3	3	3	3	0	0	3	0	0	0	0	0	0	0	0	0	0		1	0	0	0	0	0	0	0
010513	15:35:18	1	Trial2BackFrS	NS	17	0	1000	1	102	15:35:18	936450	5	3	3	3	3	3	3	3	3	0	0	3	0	0	0	0	0	0	0	0	0	0		1	0	0	0	0	0	0	0
010513	15:35:18	1	Trial2BackFrS	NS	17	0	1000	1	102	15:35:18	937965	5	3	3	3	3	3	3	3	3	0	0	3	0	0	0	0	0	0	0	0	0	0		1	0	0	0	0	0	0	0
010513	15:35:18	1	Trial2BackFrS	NS	17	0	1000	1	102	15:35:18	939480	5	3	3	3	3	3	3	3	3	0	0	3	0	0	0	0	0	0	0	0	0	0		1	0	0	0	0	0	0	0
010513	15:35:18	1	Trial2BackFrS	NS	17	0	1000	1	102	15:35:18	940995	5	3	3	3	3	3	3	3	3	0	0	3	0	0	0	0	0	0	0	0	0	0		1	0	0	0	0	0	0	0
010513	15:35:18	1	Trial2BackFrS	NS	17	0	1000	1	102	15:35:18	942510	5	3	3	3	3	3	3	3	3	0	0	3	0	0	0	0	0	0	0	0	0	0		1	0	0	0	0	0	0	0
010513	15:35:18	1	Trial2BackFrS	YS	17	0	1000	0	102	15:35:18	944025	5	3	3	3	3	3	3	3	3	0	0	3	0	0	0	0	0	0	0	0	0	0		1	0	0	0	0	0	0	0
010513	15:35:18	1	Trial2BackFrS	NS	17	0	1000	1	102	15:35:18	945541	5	3	3	3	3	3	3	3	3	0	0	3	0	0	0	0	0	0	0	0	0	0		1	0	0	0	0	0	0	0
010513	15:35:18	1	Trial2BackFrS	NS	17	0	1000	1	102	15:35:18	947056	5	3	3	3	3	3	3	3	3	0	0	3	0	0	0	0	0	0	0	0	0	0		1	0	0	0	0	0	0	0
010513	15:35:18	1	Trial2BackFrS	NS	17	0	1000	1	102	15:35:18	948571	5	3	3	3	3	3	3	3	3	0	0	3	0	0	0	0	0	0	0	0	0	0		1	0	0	0	0	0	0	0
010513	15:35:18	1	Trial2BackFrS	NS	17	0	1000	1	102	15:35:18	950086	5	3	3	3	3	3	3	3	3	0	0	3	0	0	0	0	0	0	0	0	0	0		1	0	0	0	0	0	0	0
010513	15:35:18	1	Trial2BackFrS	YS	17	0	1000	0	102	15:35:18	951601	5	3	3	3	3	3	3	3	3	0	0	3	0	0	0	0	0	0	0	0	0	0		1	0	0	0	0	0	0	0
010513	15:35:18	1	Trial2BackFrS	NS	17	0	1000	1	102	15:35:18	953116	5	3	3	3	3	3	3	3	3	0	0	3	0	0	0	0	0	0	0	0	0	0		1	0	0	0	0	0	0	0
010513	15:35:18	1	Trial2BackFrS	NS	17	0	1000	1	102	15:35:18	954631	5	3	3	3	3	3	3	3	3	0	0	3	0	0	0	0	0	0	0	0	0	0		1	0	0	0	0	0	0	0
010513	15:35:18	1	Trial2BackFrS	NS	17	0	1000	1	102	15:35:18	956147	5	3	3	3	3	3	3	3	3	0	0	3	0	0	0	0	0	0	0	0	0	0		1	0	0	0	0	0	0	0
010513	15:35:18	1	Trial2BackFrS	NS	17	0	1000	1	102	15:35:18	957662	5	3	3	3	3	3	3	3	3	0	0	3	0	0	0	0	0	0	0	0	0	0		1	0	0	0	0	0	0	0
010513	15:35:18	1	Trial2BackFrS	YS	17	0	1000	0	102	15:35:18	959177	5	3	3	3	3	3	3	3	3	0	0	3	0	0	0	0	0	0	0	0	0	0		1	0	0	0	0	0	0	0
010513	15:35:18	1	Trial2BackFrS	NS	17	0	1000	1	102	15:35:18	960692	5	3	3	3	3	3	3	3	3	0	0	3	0	0	0	0	0	0	0	0	0	0		1	0	0	0	0	0	0	0
010513	15:35:18	1	Trial2BackFrS	NS	17	0	1000	1	102	15:35:18	962207	5	3	3	3	3	3	3	3	3	0	0	3	0	0	0	0	0	0	0	0	0	0		1	0	0	0	0	0	0	0
010513	15:35:18	1	Trial2BackFrS	YS	17	0	1000	0	102	15:35:18	963723	5	3	3	3	3	3	3	3	3	0	0	3	0	0	0	0	0	0	0	0	0	0		1	0	0	0	0	0	0	0
010513	15:35:18	1	Trial2BackFrS	NS	17	0	1000	1	102	15:35:18	965238	5	3	3	3	3	3	3	3	3	0	0	3	0	0	0	0	0	0	0	0	0	0		1	0	0	0	0	0	0	0
010513	15:35:18	1	Trial2BackFrS	NS	17	0	1000	1	102	15:35:18	966753	5	3	3	3	3	3	3	3	3	0	0	3	0	0	0	0	0	0	0	0	0	0		1	0	0	0	0	0	0	0
010513	15:35:18	1	Trial2BackFrS	NS	17	0	1000	1	102	15:35:18	968268	5	3	3	3	3	3	3	3	3	0	0	3	0	0	0	0	0	0	0	0	0	0		1	0	0	0	0	0	0	0
010513	15:35:18	1	Trial2BackFrS	NS	17	0	1000	1	102	15:35:18	969783	5	3	3	3	3	3	3	3	3	0	0	3	0	0	0	0	0	0	0	0	0	0		1	0	0	0	0	0	0	0
010513	15:35:18	1	Trial2BackFrS	NS	17	0	1000	1	102	15:35:18	971298	5	3	3	3	3	3	3	3	3	0	0	3	0	0	0	0	0	0	0	0	0	0		1	0	0	0	0	0	0	0
010513	15:35:18	1	Trial2BackFrS	NS	17	0	1000	1	102	15:35:18	972813	5	3	3	3	3	3	3	3	3	0	0	3	0	0	0	0	0	0	0	0	0	0		1	0	0	0	0	0	0	0
010513	15:35:18	1	Trial2BackFrS	NS	17	0	1000	1	102	15:35:18	974328	5	3	3	3	3	3	3	3	3	0	0	3	0	0	0	0	0	0	0	0	0	0		1	0	0	0	0	0	0	0
010513	15:35:18	1	Trial2BackFrS	NS	17	0	1000	1	102	15:35:18	975844	5	3	3	3	3	3	3	3	3	0	0	3	0	0	0	0	0	0	0	0	0	0		1	0	0	0	0	0	0	0
010513	15:35:18	1	Trial2BackFrS	YS	17	0	1000	0	102	15:35:18	977359	5	3	3	3	3	3	3	3	3	0	0	3	0	0	0	0	0	0	0	0	0	0		1	0	0	0	0	0	0	0
010513	15:35:18	1	Trial2BackFrS	NS	17	0	1000	1	102	15:35:18	978874	5	3	3	3	3	3	3	3	3	0	0	3	0	0	0	0	0	0	0	0	0	0		1	0	0	0	0	0	0	0
010513	15:35:18	1	Trial2BackFrS	NS	17	0	1000	1	102	15:35:18	980389	5	3	3	3	3	3	3	3	3	0	0	3	0	0	0	0	0	0	0	0	0	0		1	0	0	0	0	0	0	0
010513	15:35:18	1	Trial2BackFrS	NS	17	0	1000	1	102	15:35:18	981904	5	3	3	3	3	3	3	3	3	0	0	3	0	0	0	0	0	0	0	0	0	0		1	0	0	0	0	0	0	0
010513	15:35:18	1	Trial2BackFrS	NS	17	0	1000	1	102	15:35:18	983419	5	3	3	3	3	3	3	3	3	0	0	3	0	0	0	0	0	0	0	0	0	0		1	0	0	0	0	0	0	0
010513	15:35:18	1	Trial2BackFrS	NS	17	0	1000	1	102	15:35:18	984935	5	3	3	3	3	3	3	3	3	0	0	3	0	0	0	0	0	0	0	0	0	0		1	0	0	0	0	0	0	0
010513	15:35:18	1	Trial2BackFrS	NS	17	0	1000	1	102	15:35:18	986450	5	3	3	3	3	3	3	3	3	0	0	3	0	0	0	0	0	0	0	0	0	0		1	0	0	0	0	0	0	0
010513	15:35:18	1	Trial2BackFrS	NS	17	0	1000	1	102	15:35:18	987965	5	3	3	3	3	3	3	3	3	0	0	3	0	0	0	0	0	0	0	0	0	0		1	0	0	0	0	0	0	0
010513	15:35:18	1	Trial2BackFrS	YS	17	0	1000	0	102	15:35:18	989480	5	3	3	3	3	3	3	3	3	0	0	3	0	0	0	0	0	0	0	0	0	0		1	0	0	0	0	0	0	0
010513	15:35:18	1	Trial2BackFrS	NS	17	0	1000	1	102	15:35:18	990995	5	3	3	3	3	3	3	3	3	0	0	3	0	0	0	0	0	0	0	0	0	0		1	0	0	0	0	0	0	0
010513	15:35:18	1	Trial2BackFrS	NS	17	0	1000	1	102	15:35:18	992510	5	3	3	3	3	3	3	3	3	0	0	3	0	0	0	0	0	0	0	0	0	0		1	0	0	0	0	0	0	0
010513	15:35:18	1	Trial2BackFrS	NS	17	0	1000	1	102	15:35:18	994025	5	3	3	3	3	3	3	3	3	0	0	3	0	0	0	0	0	0	0	0	0	0		1	0	0	0	0	0	0	0
010513	15:35:18	1	Trial2BackFrS	NS	17	0	1000	1	102	15:35:18	995541	5	3	3	3	3	3	3	3	3	0	0	3	0	0	0	0	0	0	0	0	0	0		1	0	0	0	0	0	0	0
010513	15:35:18	1	Trial2BackFrS	NS	17	0	1000	1	102	15:35:18	997056	5	3	3	3	3	3	3	3	3	0	0	3	0	0	0	0	0	0	0	0	0	0		1	0	0	0	0	0	0	0
010513	15:35:18	1	Trial2BackFrS	NS	17	0	1000	1	102	15:35:18	998571	5	3	3	3	3	3	3	3	3	0	0	3	0	0	0	0	0	0	0	0	0	0		1	0	0	0	0	0	0	0
010513	15:35:18	1	Trial2BackFrS	NS	17	0	1000	1	102	15:35:18	1000086	5	3	3	3	3	3	3	3	3	0	0	3	0	0	0	0	0	0	0	0	0	0		1	0	0	0	0	0	0	0
010513	15:35:18	1	Trial2BackFrS	NS	17	0	1000	1	102	15:35:18	1001601	5	3	3	3	3	3	3	3	3	0	0	3	0	0	0	0	0	0	0	0	0	0		1	0	0	0	0	0	0	0
010513	15:35:18	1	Trial2BackFrS	NS	17	0	1000	1	102	15:35:18	1003116	5	3	3	3	3	3	3	3	3	0	0	3	0	0	0	0	0	0	0	0	0	0		1	0	0	0	0	0	0	0
010513	15:35:18	1	Trial2BackFrS	YS	17	0	1000	0	102	15:35:18	1004632	5	3	3	3	3	3	3	3	3	0	0	3	0	0	0	0	0	0	0	0	0	0		1	0	0	0	0	0	0	0
010513	15:35:18	1	Trial2BackFrS	NS	17	0	1000	1	102	15:35:18	1006147	5	3	3	3	3	3	3	3	3	0	0	3	0	0	0	0	0	0	0	0	0	0		1	0	0	0	0	0	0	0
010513	15:35:18	1	ClockFr6mo	ClockFr6mo	19	Clock1	4657	0	102	15:35:18	1010959	5	3	3	3	3	3	3	3	3	0	0	3	1	0	0	0	0	0	0	0	0	0		1	0	0	0	0	0	0	0
010513	15:35:18	1	ClockFr6mo	ClockFr6mo	19	Clock11	1669	0	102	15:35:18	1012690	5	3	3	3	3	3	3	3	3	0	0	3	1	1	0	0	0	0	0	0	0	0		1	0	0	0	0	0	0	0
010513	15:35:18	1	ClockFr6mo	ClockFr6mo	19	Clock111	1334	0	102	15:35:18	1014089	5	3	3	3	3	3	3	3	3	0	0	3	1	1	1	0	0	0	0	0	0	0		1	0	0	0	0	0	0	0
010513	15:35:18	1	ClockFr6mo	ClockFr6mo	19	Clockdone	1149	0	102	15:35:18	1015304	5	3	3	3	3	3	3	3	3	0	0	3	1	1	1	0	0	0	0	0	0	0		1	0	0	0	0	0	0	0
010513	15:35:18	1	FASFrVF6mo	StopFrVF6mo	20	9	5619	0	102	15:35:18	1085767	5	3	3	3	3	3	3	3	3	0	0	3	1	1	1	0	0	0	0	0	0	0		1	0	0	0	0	0	0	0
010513	15:35:18	1	practiceTOLFR	choice	20	R	3330	0	102	15:35:18	1097989	5	3	3	3	3	3	3	3	3	0	0	3	1	1	1	0	0	0	1	2	0	-2	R	0	0	0	3425	0	0	1094564	1097989
010513	15:35:18	1	practiceTOLFR	choice	20	B	1283	0	102	15:35:18	1101803	5	3	3	3	3	3	3	3	3	0	0	3	1	1	1	0	0	0	1	2	1	-1	R3B	0	0	0	3425	0	0	1100455	1101803
010513	15:35:18	1	practiceTOLFR	feedbackFR	20	0	2000	0	102	15:35:18	1105579	5	3	3	3	3	3	3	3	3	0	0	3	1	1	1	0	0	0	1	2	2	0	R3B1	1	3	3	3425	5527	8952	1100455	1101803
010513	15:35:18	1	testTOLFR	choice	20	B	4207	0	102	15:35:18	1113718	5	3	3	3	3	3	3	3	3	0	0	3	1	1	1	0	0	2	1	2	0	-2	B	0	0	0	4288	0	0	1109430	1113718
010513	15:35:18	1	testTOLFR	choice	20	R	1829	0	102	15:35:18	1116534	5	3	3	3	3	3	3	3	3	0	0	3	1	1	1	0	0	2	1	2	1	-1	B3R	0	0	0	4288	0	0	1114629	1116534
010513	15:35:18	1	testTOLFR	feedbackFR	20	0	2000	0	102	15:35:18	1119475	5	3	3	3	3	3	3	3	3	0	0	3	1	1	1	0	0	2	1	2	2	0	B3R2	1	3	3	4288	3693	7981	1114629	1116534
010513	15:35:18	1	testTOLFR	choice	20	B	4755	0	102	15:35:18	1125355	5	3	3	3	3	3	3	3	3	0	0	3	1	1	1	0	0	4	1	3	0	-3	B	0	0	3	4832	0	0	1120523	1125355
010513	15:35:18	1	testTOLFR	choice	20	R	1156	0	102	15:35:18	1128016	5	3	3	3	3	3	3	3	3	0	0	3	1	1	1	0	0	4	1	3	1	-2	B3R	0	0	3	4832	0	0	1126789	1128016
010513	15:35:18	1	testTOLFR	choice	20	B	3109	0	102	15:35:18	1132133	5	3	3	3	3	3	3	3	3	0	0	3	1	1	1	0	0	4	1	3	2	-1	B3R2B	0	0	3	4832	0	0	1128951	1132133
010513	15:35:18	1	testTOLFR	feedbackFR	20	0	2000	0	102	15:35:18	1135291	5	3	3	3	3	3	3	3	3	0	0	3	1	1	1	0	0	4	1	3	3	0	B3R2B2	1	3	6	4832	7871	12703	1128951	1132133
010513	15:35:18	1	testTOLFR	choice	20	R	3543	0	102	15:35:18	1140077	5	3	3	3	3	3	3	3	3	0	0	3	1	1	1	0	0	7	1	4	0	-4	R	0	0	6	3616	0	0	1136461	1140077
010513	15:35:18	1	testTOLFR	choice	20	G	1234	0	102	15:35:18	1142396	5	3	3	3	3	3	3	3	3	0	0	3	1	1	1	0	0	7	1	4	1	-3	R2G	0	0	6	3616	0	0	1141085	1142396
010513	15:35:18	1	testTOLFR	choice	20	R	1750	0	102	15:35:18	1145360	5	3	3	3	3	3	3	3	3	0	0	3	1	1	1	0	0	7	1	4	2	-2	R2G3R	0	0	6	3616	0	0	1143538	1145360
010513	15:35:18	1	testTOLFR	choice	20	B	1014	0	102	15:35:18	1147887	5	3	3	3	3	3	3	3	3	0	0	3	1	1	1	0	0	7	1	4	3	-1	R2G3R1B	0	0	6	3616	0	0	1146806	1147887
010513	15:35:18	1	testTOLFR	feedbackFR	20	0	2000	0	102	15:35:18	1150812	5	3	3	3	3	3	3	3	3	0	0	3	1	1	1	0	0	7	1	4	4	0	R2G3R1B1	1	3	9	3616	8672	12288	1146806	1147887
010513	15:35:18	1	testTOLFR	choice	20	R	3907	0	102	15:35:18	1155842	5	3	3	3	3	3	3	3	3	0	0	3	1	1	1	0	0	10	1	5	0	-5	R	0	0	9	3984	0	0	1151858	1155842
010513	15:35:18	1	testTOLFR	choice	20	G	979	0	102	15:35:18	1157992	5	3	3	3	3	3	3	3	3	0	0	3	1	1	1	0	0	10	1	5	1	-4	R2G	0	0	9	3984	0	0	1156948	1157992
010513	15:35:18	1	testTOLFR	choice	20	R	2004	0	102	15:35:18	1161332	5	3	3	3	3	3	3	3	3	0	0	3	1	1	1	0	0	10	1	5	2	-3	R2G3R	0	0	9	3984	0	0	1159256	1161332
010513	15:35:18	1	testTOLFR	choice	20	B	1405	0	102	15:35:18	1164029	5	3	3	3	3	3	3	3	3	0	0	3	1	1	1	0	0	10	1	5	3	-2	R2G3R1B	0	0	9	3984	0	0	1162547	1164029
010513	15:35:18	1	testTOLFR	choice	20	G	1916	0	102	15:35:18	1166955	5	3	3	3	3	3	3	3	3	0	0	3	1	1	1	0	0	10	1	5	4	-1	R2G3R1B1G	0	0	9	3984	0	0	1164965	1166955
010513	15:35:18	1	testTOLFR	feedbackFR	20	0	2000	0	102	15:35:18	1170805	5	3	3	3	3	3	3	3	3	0	0	3	1	1	1	0	0	10	1	5	5	0	R2G3R1B1G1	1	3	12	3984	12900	16884	1164965	1166955
