date	time	subject	blockcode	trialcode	values.TaskNumber	response	latency	correct	values.Score	script.starttime	script.elapsedtime	values.ScoreS7	values.Word1	values.Word2	values.Word3	values.Word4	values.Word5	values.Word6	values.Word7	values.Word8	values.DigitSpanFwrd	values.DigitSpanBack	values.ScoreAbs	values.Contour	values.Numbers	values.Hands	values.corsiblockspanFwrd	values.corsiblockspanRev
091812	18:12:01	10016	Language	Language	0	English	2086	0	0	18:12:01	2196	0	0	0	0	0	0	0	0	0	0	0	0	0	0	0	0	0
091812	18:12:01	10016	Session	Session	0	3mo	653	0	0	18:12:01	2929	0	0	0	0	0	0	0	0	0	0	0	0	0	0	0	0	0
091812	18:12:01	10016	HandEng	HandEng	0	Right	2741	0	0	18:12:01	5755	0	0	0	0	0	0	0	0	0	0	0	0	0	0	0	0	0
091812	18:12:01	10016	CubeEng	CubeEng	1	1Cube	31298	0	0	18:12:01	737839	0	0	0	0	0	0	0	0	0	0	0	0	0	0	0	0	0
091812	18:12:01	10016	pm.simpleEngRight	blank.simpleEng	2	0	2387	1	0	18:12:01	761709	0	0	0	0	0	0	0	0	0	0	0	0	0	0	0	0	0
091812	18:12:01	10016	pm.simpleEngRight	pm.simpleEng	2	57	309	0	0	18:12:01	762056	0	0	0	0	0	0	0	0	0	0	0	0	0	0	0	0	0
091812	18:12:01	10016	pm.simpleEngRight	blank.simpleEng	2	0	2487	1	0	18:12:01	764575	0	0	0	0	0	0	0	0	0	0	0	0	0	0	0	0	0
091812	18:12:01	10016	pm.simpleEngRight	pm.simpleEng	2	57	229	0	0	18:12:01	764855	0	0	0	0	0	0	0	0	0	0	0	0	0	0	0	0	0
091812	18:12:01	10016	pm.simpleEngRight	blank.simpleEng	2	0	2187	1	0	18:12:01	767067	0	0	0	0	0	0	0	0	0	0	0	0	0	0	0	0	0
091812	18:12:01	10016	pm.simpleEngRight	pm.simpleEng	2	57	294	0	0	18:12:01	767400	0	0	0	0	0	0	0	0	0	0	0	0	0	0	0	0	0
091812	18:12:01	10016	pm.simpleEngRight	blank.simpleEng	2	0	2287	1	0	18:12:01	769706	0	0	0	0	0	0	0	0	0	0	0	0	0	0	0	0	0
091812	18:12:01	10016	pm.simpleEngRight	pm.simpleEng	2	57	277	0	0	18:12:01	770026	0	0	0	0	0	0	0	0	0	0	0	0	0	0	0	0	0
091812	18:12:01	10016	pm.simpleEngRight	blank.simpleEng	2	0	1687	1	0	18:12:01	771732	0	0	0	0	0	0	0	0	0	0	0	0	0	0	0	0	0
091812	18:12:01	10016	pm.simpleEngRight	pm.simpleEng	2	57	286	0	0	18:12:01	772052	0	0	0	0	0	0	0	0	0	0	0	0	0	0	0	0	0
091812	18:12:01	10016	pm.simpleEngRight	blank.simpleEng	2	0	1487	1	0	18:12:01	773571	0	0	0	0	0	0	0	0	0	0	0	0	0	0	0	0	0
091812	18:12:01	10016	pm.simpleEngRight	pm.simpleEng	2	57	271	0	0	18:12:01	773877	0	0	0	0	0	0	0	0	0	0	0	0	0	0	0	0	0
091812	18:12:01	10016	pm.simpleEngRight	blank.simpleEng	2	0	1587	1	0	18:12:01	775490	0	0	0	0	0	0	0	0	0	0	0	0	0	0	0	0	0
091812	18:12:01	10016	pm.simpleEngRight	pm.simpleEng	2	57	320	0	0	18:12:01	775850	0	0	0	0	0	0	0	0	0	0	0	0	0	0	0	0	0
091812	18:12:01	10016	pm.simpleEngRight	blank.simpleEng	2	0	1887	1	0	18:12:01	777769	0	0	0	0	0	0	0	0	0	0	0	0	0	0	0	0	0
091812	18:12:01	10016	pm.simpleEngRight	pm.simpleEng	2	57	313	0	0	18:12:01	778116	0	0	0	0	0	0	0	0	0	0	0	0	0	0	0	0	0
091812	18:12:01	10016	pm.simpleEngRight	blank.simpleEng	2	0	2087	1	0	18:12:01	780235	0	0	0	0	0	0	0	0	0	0	0	0	0	0	0	0	0
091812	18:12:01	10016	pm.simpleEngRight	pm.simpleEng	2	57	260	0	0	18:12:01	780528	0	0	0	0	0	0	0	0	0	0	0	0	0	0	0	0	0
091812	18:12:01	10016	pm.simpleEngRight	blank.simpleEng	2	0	1787	1	0	18:12:01	782341	0	0	0	0	0	0	0	0	0	0	0	0	0	0	0	0	0
091812	18:12:01	10016	pm.simpleEngRight	pm.simpleEng	2	57	285	0	0	18:12:01	782661	0	0	0	0	0	0	0	0	0	0	0	0	0	0	0	0	0
091812	18:12:01	10016	pm.simpleEngRight	blank.simpleEng	2	0	1987	1	0	18:12:01	784673	0	0	0	0	0	0	0	0	0	0	0	0	0	0	0	0	0
091812	18:12:01	10016	pm.simpleEngRight	pm.simpleEng	2	57	304	0	0	18:12:01	785020	0	0	0	0	0	0	0	0	0	0	0	0	0	0	0	0	0
091812	18:12:01	10016	pm.simpleEngRight	blank.simpleEng	2	0	2387	1	0	18:12:01	787459	0	0	0	0	0	0	0	0	0	0	0	0	0	0	0	0	0
091812	18:12:01	10016	pm.simpleEngRight	pm.simpleEng	2	57	287	0	0	18:12:01	787779	0	0	0	0	0	0	0	0	0	0	0	0	0	0	0	0	0
091812	18:12:01	10016	pm.simpleEngRight	blank.simpleEng	2	0	2287	1	0	18:12:01	790098	0	0	0	0	0	0	0	0	0	0	0	0	0	0	0	0	0
091812	18:12:01	10016	pm.simpleEngRight	pm.simpleEng	2	57	288	0	0	18:12:01	790418	0	0	0	0	0	0	0	0	0	0	0	0	0	0	0	0	0
091812	18:12:01	10016	pm.simpleEngRight	blank.simpleEng	2	0	1687	1	0	18:12:01	792124	0	0	0	0	0	0	0	0	0	0	0	0	0	0	0	0	0
091812	18:12:01	10016	pm.simpleEngRight	pm.simpleEng	2	57	310	0	0	18:12:01	792470	0	0	0	0	0	0	0	0	0	0	0	0	0	0	0	0	0
091812	18:12:01	10016	pm.simpleEngRight	blank.simpleEng	2	0	1987	1	0	18:12:01	794483	0	0	0	0	0	0	0	0	0	0	0	0	0	0	0	0	0
091812	18:12:01	10016	pm.simpleEngRight	pm.simpleEng	2	57	255	0	0	18:12:01	794776	0	0	0	0	0	0	0	0	0	0	0	0	0	0	0	0	0
091812	18:12:01	10016	pm.simpleEngRight	blank.simpleEng	2	0	2087	1	0	18:12:01	796895	0	0	0	0	0	0	0	0	0	0	0	0	0	0	0	0	0
091812	18:12:01	10016	pm.simpleEngRight	pm.simpleEng	2	57	242	0	0	18:12:01	797175	0	0	0	0	0	0	0	0	0	0	0	0	0	0	0	0	0
091812	18:12:01	10016	pm.simpleEngRight	blank.simpleEng	2	0	1587	1	0	18:12:01	798788	0	0	0	0	0	0	0	0	0	0	0	0	0	0	0	0	0
091812	18:12:01	10016	pm.simpleEngRight	pm.simpleEng	2	57	350	0	0	18:12:01	799174	0	0	0	0	0	0	0	0	0	0	0	0	0	0	0	0	0
091812	18:12:01	10016	pm.simpleEngRight	blank.simpleEng	2	0	1787	1	0	18:12:01	800987	0	0	0	0	0	0	0	0	0	0	0	0	0	0	0	0	0
091812	18:12:01	10016	pm.simpleEngRight	pm.simpleEng	2	57	279	0	0	18:12:01	801307	0	0	0	0	0	0	0	0	0	0	0	0	0	0	0	0	0
091812	18:12:01	10016	pm.simpleEngRight	blank.simpleEng	2	0	1487	1	0	18:12:01	802826	0	0	0	0	0	0	0	0	0	0	0	0	0	0	0	0	0
091812	18:12:01	10016	pm.simpleEngRight	pm.simpleEng	2	57	327	0	0	18:12:01	803186	0	0	0	0	0	0	0	0	0	0	0	0	0	0	0	0	0
091812	18:12:01	10016	pm.simpleEngRight	blank.simpleEng	2	0	2487	1	0	18:12:01	805692	0	0	0	0	0	0	0	0	0	0	0	0	0	0	0	0	0
091812	18:12:01	10016	pm.simpleEngRight	pm.simpleEng	2	57	262	0	0	18:12:01	805985	0	0	0	0	0	0	0	0	0	0	0	0	0	0	0	0	0
091812	18:12:01	10016	pm.simpleEngRight	blank.simpleEng	2	0	1887	1	0	18:12:01	807891	0	0	0	0	0	0	0	0	0	0	0	0	0	0	0	0	0
091812	18:12:01	10016	pm.simpleEngRight	pm.simpleEng	2	57	287	0	0	18:12:01	808211	0	0	0	0	0	0	0	0	0	0	0	0	0	0	0	0	0
091812	18:12:01	10016	pm.simpleEngRight	blank.simpleEng	2	0	2187	1	0	18:12:01	810424	0	0	0	0	0	0	0	0	0	0	0	0	0	0	0	0	0
091812	18:12:01	10016	pm.simpleEngRight	pm.simpleEng	2	57	314	0	0	18:12:01	810770	0	0	0	0	0	0	0	0	0	0	0	0	0	0	0	0	0
091812	18:12:01	10016	pm.simpleEngRight	blank.simpleEng	2	0	1487	1	0	18:12:01	812289	0	0	0	0	0	0	0	0	0	0	0	0	0	0	0	0	0
091812	18:12:01	10016	pm.simpleEngRight	pm.simpleEng	2	57	335	0	0	18:12:01	812662	0	0	0	0	0	0	0	0	0	0	0	0	0	0	0	0	0
091812	18:12:01	10016	pm.simpleEngRight	blank.simpleEng	2	0	2287	1	0	18:12:01	814968	0	0	0	0	0	0	0	0	0	0	0	0	0	0	0	0	0
091812	18:12:01	10016	pm.simpleEngRight	pm.simpleEng	2	57	281	0	0	18:12:01	815288	0	0	0	0	0	0	0	0	0	0	0	0	0	0	0	0	0
091812	18:12:01	10016	pm.simpleEngRight	blank.simpleEng	2	0	1587	1	0	18:12:01	816901	0	0	0	0	0	0	0	0	0	0	0	0	0	0	0	0	0
091812	18:12:01	10016	pm.simpleEngRight	pm.simpleEng	2	57	301	0	0	18:12:01	817234	0	0	0	0	0	0	0	0	0	0	0	0	0	0	0	0	0
091812	18:12:01	10016	pm.simpleEngRight	blank.simpleEng	2	0	1987	1	0	18:12:01	819246	0	0	0	0	0	0	0	0	0	0	0	0	0	0	0	0	0
091812	18:12:01	10016	pm.simpleEngRight	pm.simpleEng	2	57	275	0	0	18:12:01	819553	0	0	0	0	0	0	0	0	0	0	0	0	0	0	0	0	0
091812	18:12:01	10016	pm.simpleEngRight	blank.simpleEng	2	0	2387	1	0	18:12:01	821965	0	0	0	0	0	0	0	0	0	0	0	0	0	0	0	0	0
091812	18:12:01	10016	pm.simpleEngRight	pm.simpleEng	2	57	276	0	0	18:12:01	822272	0	0	0	0	0	0	0	0	0	0	0	0	0	0	0	0	0
091812	18:12:01	10016	pm.simpleEngRight	blank.simpleEng	2	0	1787	1	0	18:12:01	824084	0	0	0	0	0	0	0	0	0	0	0	0	0	0	0	0	0
091812	18:12:01	10016	pm.simpleEngRight	pm.simpleEng	2	57	317	0	0	18:12:01	824431	0	0	0	0	0	0	0	0	0	0	0	0	0	0	0	0	0
091812	18:12:01	10016	pm.simpleEngRight	blank.simpleEng	2	0	2487	1	0	18:12:01	826950	0	0	0	0	0	0	0	0	0	0	0	0	0	0	0	0	0
091812	18:12:01	10016	pm.simpleEngRight	pm.simpleEng	2	57	267	0	0	18:12:01	827257	0	0	0	0	0	0	0	0	0	0	0	0	0	0	0	0	0
091812	18:12:01	10016	pm.simpleEngRight	blank.simpleEng	2	0	1887	1	0	18:12:01	829162	0	0	0	0	0	0	0	0	0	0	0	0	0	0	0	0	0
091812	18:12:01	10016	pm.simpleEngRight	pm.simpleEng	2	57	327	0	0	18:12:01	829522	0	0	0	0	0	0	0	0	0	0	0	0	0	0	0	0	0
091812	18:12:01	10016	pm.simpleEngRight	blank.simpleEng	2	0	1687	1	0	18:12:01	831242	0	0	0	0	0	0	0	0	0	0	0	0	0	0	0	0	0
091812	18:12:01	10016	pm.simpleEngRight	pm.simpleEng	2	57	292	0	0	18:12:01	831575	0	0	0	0	0	0	0	0	0	0	0	0	0	0	0	0	0
091812	18:12:01	10016	pm.simpleEngRight	blank.simpleEng	2	0	2187	1	0	18:12:01	833787	0	0	0	0	0	0	0	0	0	0	0	0	0	0	0	0	0
091812	18:12:01	10016	pm.simpleEngRight	pm.simpleEng	2	57	230	0	0	18:12:01	834054	0	0	0	0	0	0	0	0	0	0	0	0	0	0	0	0	0
091812	18:12:01	10016	pm.simpleEngRight	blank.simpleEng	2	0	2087	1	0	18:12:01	836173	0	0	0	0	0	0	0	0	0	0	0	0	0	0	0	0	0
091812	18:12:01	10016	pm.simpleEngRight	pm.simpleEng	2	57	239	0	0	18:12:01	836466	0	0	0	0	0	0	0	0	0	0	0	0	0	0	0	0	0
091812	18:12:01	10016	pm.simpleEngRight	blank.simpleEng	2	0	1987	1	0	18:12:01	838479	0	0	0	0	0	0	0	0	0	0	0	0	0	0	0	0	0
091812	18:12:01	10016	pm.simpleEngRight	pm.simpleEng	2	57	242	0	0	18:12:01	838758	0	0	0	0	0	0	0	0	0	0	0	0	0	0	0	0	0
091812	18:12:01	10016	pm.simpleEngRight	blank.simpleEng	2	0	1587	1	0	18:12:01	840372	0	0	0	0	0	0	0	0	0	0	0	0	0	0	0	0	0
091812	18:12:01	10016	pm.simpleEngRight	pm.simpleEng	2	57	301	0	0	18:12:01	840705	0	0	0	0	0	0	0	0	0	0	0	0	0	0	0	0	0
091812	18:12:01	10016	pm.simpleEngRight	blank.simpleEng	2	0	1487	1	0	18:12:01	842224	0	0	0	0	0	0	0	0	0	0	0	0	0	0	0	0	0
091812	18:12:01	10016	pm.simpleEngRight	pm.simpleEng	2	57	241	0	0	18:12:01	842504	0	0	0	0	0	0	0	0	0	0	0	0	0	0	0	0	0
091812	18:12:01	10016	pm.simpleEngRight	blank.simpleEng	2	0	1787	1	0	18:12:01	844316	0	0	0	0	0	0	0	0	0	0	0	0	0	0	0	0	0
091812	18:12:01	10016	pm.simpleEngRight	pm.simpleEng	2	57	277	0	0	18:12:01	844623	0	0	0	0	0	0	0	0	0	0	0	0	0	0	0	0	0
091812	18:12:01	10016	pm.simpleEngRight	blank.simpleEng	2	0	1887	1	0	18:12:01	846529	0	0	0	0	0	0	0	0	0	0	0	0	0	0	0	0	0
091812	18:12:01	10016	pm.simpleEngRight	pm.simpleEng	2	57	288	0	0	18:12:01	846849	0	0	0	0	0	0	0	0	0	0	0	0	0	0	0	0	0
091812	18:12:01	10016	pm.simpleEngRight	blank.simpleEng	2	0	2087	1	0	18:12:01	848954	0	0	0	0	0	0	0	0	0	0	0	0	0	0	0	0	0
091812	18:12:01	10016	pm.simpleEngRight	pm.simpleEng	2	57	259	0	0	18:12:01	849248	0	0	0	0	0	0	0	0	0	0	0	0	0	0	0	0	0
091812	18:12:01	10016	pm.simpleEngRight	blank.simpleEng	2	0	2287	1	0	18:12:01	851554	0	0	0	0	0	0	0	0	0	0	0	0	0	0	0	0	0
091812	18:12:01	10016	pm.simpleEngRight	pm.simpleEng	2	57	335	0	0	18:12:01	851927	0	0	0	0	0	0	0	0	0	0	0	0	0	0	0	0	0
091812	18:12:01	10016	Trial2BackEng	N	3	0	1000	1	1	18:12:01	892804	0	0	0	0	0	0	0	0	0	0	0	0	0	0	0	0	0
091812	18:12:01	10016	Trial2BackEng	N	3	0	1000	1	2	18:12:01	894323	0	0	0	0	0	0	0	0	0	0	0	0	0	0	0	0	0
091812	18:12:01	10016	Trial2BackEng	N	3	0	1000	1	3	18:12:01	895869	0	0	0	0	0	0	0	0	0	0	0	0	0	0	0	0	0
091812	18:12:01	10016	Trial2BackEng	N	3	0	1000	1	4	18:12:01	897389	0	0	0	0	0	0	0	0	0	0	0	0	0	0	0	0	0
091812	18:12:01	10016	Trial2BackEng	N	3	0	1000	1	5	18:12:01	898921	0	0	0	0	0	0	0	0	0	0	0	0	0	0	0	0	0
091812	18:12:01	10016	Trial2BackEng	N	3	0	1000	1	6	18:12:01	900441	0	0	0	0	0	0	0	0	0	0	0	0	0	0	0	0	0
091812	18:12:01	10016	Trial2BackEng	N	3	0	1000	1	7	18:12:01	901960	0	0	0	0	0	0	0	0	0	0	0	0	0	0	0	0	0
091812	18:12:01	10016	Trial2BackEng	N	3	0	1000	1	8	18:12:01	903480	0	0	0	0	0	0	0	0	0	0	0	0	0	0	0	0	0
091812	18:12:01	10016	Trial2BackEng	Y	3	57	316	1	9	18:12:01	904319	0	0	0	0	0	0	0	0	0	0	0	0	0	0	0	0	0
091812	18:12:01	10016	Trial2BackEng	N	3	0	1000	1	10	18:12:01	906505	0	0	0	0	0	0	0	0	0	0	0	0	0	0	0	0	0
091812	18:12:01	10016	Trial2BackEng	N	3	0	1000	1	11	18:12:01	908038	0	0	0	0	0	0	0	0	0	0	0	0	0	0	0	0	0
091812	18:12:01	10016	Trial2BackEng	N	3	0	1000	1	12	18:12:01	909557	0	0	0	0	0	0	0	0	0	0	0	0	0	0	0	0	0
091812	18:12:01	10016	Trial2BackEng	Y	3	57	623	1	13	18:12:01	910703	0	0	0	0	0	0	0	0	0	0	0	0	0	0	0	0	0
091812	18:12:01	10016	Trial2BackEng	N	3	0	1000	1	14	18:12:01	912583	0	0	0	0	0	0	0	0	0	0	0	0	0	0	0	0	0
091812	18:12:01	10016	Trial2BackEng	N	3	0	1000	1	15	18:12:01	914102	0	0	0	0	0	0	0	0	0	0	0	0	0	0	0	0	0
091812	18:12:01	10016	Trial2BackEng	N	3	0	1000	1	16	18:12:01	915622	0	0	0	0	0	0	0	0	0	0	0	0	0	0	0	0	0
091812	18:12:01	10016	Trial2BackEng	N	3	0	1000	1	17	18:12:01	917141	0	0	0	0	0	0	0	0	0	0	0	0	0	0	0	0	0
091812	18:12:01	10016	Trial2BackEng	N	3	0	1000	1	18	18:12:01	918660	0	0	0	0	0	0	0	0	0	0	0	0	0	0	0	0	0
091812	18:12:01	10016	Trial2BackEng	Y	3	57	448	1	19	18:12:01	919633	0	0	0	0	0	0	0	0	0	0	0	0	0	0	0	0	0
091812	18:12:01	10016	Trial2BackEng	N	3	0	1000	1	20	18:12:01	921686	0	0	0	0	0	0	0	0	0	0	0	0	0	0	0	0	0
091812	18:12:01	10016	Trial2BackEng	N	3	0	1000	1	21	18:12:01	923205	0	0	0	0	0	0	0	0	0	0	0	0	0	0	0	0	0
091812	18:12:01	10016	Trial2BackEng	N	3	0	1000	1	22	18:12:01	924725	0	0	0	0	0	0	0	0	0	0	0	0	0	0	0	0	0
091812	18:12:01	10016	Trial2BackEng	N	3	0	1000	1	23	18:12:01	926257	0	0	0	0	0	0	0	0	0	0	0	0	0	0	0	0	0
091812	18:12:01	10016	Trial2BackEng	Y	3	57	530	1	24	18:12:01	927310	0	0	0	0	0	0	0	0	0	0	0	0	0	0	0	0	0
091812	18:12:01	10016	Trial2BackEng	N	3	0	1000	1	25	18:12:01	929283	0	0	0	0	0	0	0	0	0	0	0	0	0	0	0	0	0
091812	18:12:01	10016	Trial2BackEng	N	3	0	1000	1	26	18:12:01	930802	0	0	0	0	0	0	0	0	0	0	0	0	0	0	0	0	0
091812	18:12:01	10016	Trial2BackEng	N	3	0	1000	1	27	18:12:01	932322	0	0	0	0	0	0	0	0	0	0	0	0	0	0	0	0	0
091812	18:12:01	10016	Trial2BackEng	N	3	0	1000	1	28	18:12:01	933854	0	0	0	0	0	0	0	0	0	0	0	0	0	0	0	0	0
091812	18:12:01	10016	Trial2BackEng	N	3	0	1000	1	29	18:12:01	935374	0	0	0	0	0	0	0	0	0	0	0	0	0	0	0	0	0
091812	18:12:01	10016	Trial2BackEng	N	3	0	1000	1	30	18:12:01	936893	0	0	0	0	0	0	0	0	0	0	0	0	0	0	0	0	0
091812	18:12:01	10016	Trial2BackEng	Y	3	57	359	1	31	18:12:01	937786	0	0	0	0	0	0	0	0	0	0	0	0	0	0	0	0	0
091812	18:12:01	10016	Trial2BackEng	N	3	0	1000	1	32	18:12:01	939918	0	0	0	0	0	0	0	0	0	0	0	0	0	0	0	0	0
091812	18:12:01	10016	Trial2BackEng	N	3	0	1000	1	33	18:12:01	941438	0	0	0	0	0	0	0	0	0	0	0	0	0	0	0	0	0
091812	18:12:01	10016	Trial2BackEng	N	3	0	1000	1	34	18:12:01	942957	0	0	0	0	0	0	0	0	0	0	0	0	0	0	0	0	0
091812	18:12:01	10016	Trial2BackEng	Y	3	57	727	1	35	18:12:01	944210	0	0	0	0	0	0	0	0	0	0	0	0	0	0	0	0	0
091812	18:12:01	10016	Trial2BackEng	N	3	0	1000	1	36	18:12:01	945983	0	0	0	0	0	0	0	0	0	0	0	0	0	0	0	0	0
091812	18:12:01	10016	Trial2BackEng	N	3	0	1000	1	37	18:12:01	947502	0	0	0	0	0	0	0	0	0	0	0	0	0	0	0	0	0
091812	18:12:01	10016	Trial2BackEng	N	3	0	1000	1	38	18:12:01	949022	0	0	0	0	0	0	0	0	0	0	0	0	0	0	0	0	0
091812	18:12:01	10016	Trial2BackEng	N	3	0	1000	1	39	18:12:01	950541	0	0	0	0	0	0	0	0	0	0	0	0	0	0	0	0	0
091812	18:12:01	10016	Trial2BackEng	N	3	0	1000	1	40	18:12:01	952060	0	0	0	0	0	0	0	0	0	0	0	0	0	0	0	0	0
091812	18:12:01	10016	Trial2BackEng	N	3	0	1000	1	41	18:12:01	953580	0	0	0	0	0	0	0	0	0	0	0	0	0	0	0	0	0
091812	18:12:01	10016	Trial2BackEng	Y	3	57	390	1	42	18:12:01	954500	0	0	0	0	0	0	0	0	0	0	0	0	0	0	0	0	0
091812	18:12:01	10016	Trial2BackEng	N	3	0	1000	1	43	18:12:01	956605	0	0	0	0	0	0	0	0	0	0	0	0	0	0	0	0	0
091812	18:12:01	10016	Trial2BackEng	N	3	0	1000	1	44	18:12:01	958125	0	0	0	0	0	0	0	0	0	0	0	0	0	0	0	0	0
091812	18:12:01	10016	Trial2BackEng	N	3	0	1000	1	45	18:12:01	959644	0	0	0	0	0	0	0	0	0	0	0	0	0	0	0	0	0
091812	18:12:01	10016	Trial2BackEng	N	3	0	1000	1	46	18:12:01	961164	0	0	0	0	0	0	0	0	0	0	0	0	0	0	0	0	0
091812	18:12:01	10016	Trial2BackEng	Y	3	57	315	1	47	18:12:01	962016	0	0	0	0	0	0	0	0	0	0	0	0	0	0	0	0	0
091812	18:12:01	10016	Trial2BackEng	N	3	0	1000	1	48	18:12:01	964202	0	0	0	0	0	0	0	0	0	0	0	0	0	0	0	0	0
091812	18:12:01	10016	Trial2BackEng	N	3	0	1000	1	49	18:12:01	965722	0	0	0	0	0	0	0	0	0	0	0	0	0	0	0	0	0
091812	18:12:01	10016	Trial2BackEng	N	3	0	1000	1	50	18:12:01	967241	0	0	0	0	0	0	0	0	0	0	0	0	0	0	0	0	0
091812	18:12:01	10016	Trial2BackEng	N	3	0	1000	1	51	18:12:01	968761	0	0	0	0	0	0	0	0	0	0	0	0	0	0	0	0	0
091812	18:12:01	10016	Trial2BackEng	N	3	0	1000	1	52	18:12:01	970280	0	0	0	0	0	0	0	0	0	0	0	0	0	0	0	0	0
091812	18:12:01	10016	Trial2BackEng	Y	3	57	332	1	53	18:12:01	971146	0	0	0	0	0	0	0	0	0	0	0	0	0	0	0	0	0
091812	18:12:01	10016	Trial2BackEng	N	3	0	1000	1	54	18:12:01	973306	0	0	0	0	0	0	0	0	0	0	0	0	0	0	0	0	0
091812	18:12:01	10016	Trial2BackEng	N	3	0	1000	1	55	18:12:01	974825	0	0	0	0	0	0	0	0	0	0	0	0	0	0	0	0	0
091812	18:12:01	10016	Trial2BackEng	N	3	0	1000	1	56	18:12:01	976344	0	0	0	0	0	0	0	0	0	0	0	0	0	0	0	0	0
091812	18:12:01	10016	Trial2BackEng	N	3	0	1000	1	57	18:12:01	977864	0	0	0	0	0	0	0	0	0	0	0	0	0	0	0	0	0
091812	18:12:01	10016	Trial2BackEng	N	3	0	1000	1	58	18:12:01	979383	0	0	0	0	0	0	0	0	0	0	0	0	0	0	0	0	0
091812	18:12:01	10016	Trial2BackEng	N	3	0	1000	1	59	18:12:01	980903	0	0	0	0	0	0	0	0	0	0	0	0	0	0	0	0	0
091812	18:12:01	10016	Trial2BackEng	Y	3	0	1000	0	59	18:12:01	982422	0	0	0	0	0	0	0	0	0	0	0	0	0	0	0	0	0
091812	18:12:01	10016	Trial2BackEng	N	3	0	1000	1	60	18:12:01	983941	0	0	0	0	0	0	0	0	0	0	0	0	0	0	0	0	0
091812	18:12:01	10016	Trial2BackEng	N	3	0	1000	1	61	18:12:01	985461	0	0	0	0	0	0	0	0	0	0	0	0	0	0	0	0	0
091812	18:12:01	10016	Trial2BackEng	Y	3	57	557	1	62	18:12:01	986554	0	0	0	0	0	0	0	0	0	0	0	0	0	0	0	0	0
091812	18:12:01	10016	Trial2BackEng	N	3	0	1000	1	63	18:12:01	988486	0	0	0	0	0	0	0	0	0	0	0	0	0	0	0	0	0
091812	18:12:01	10016	Trial2BackEng	N	3	0	1000	1	64	18:12:01	990006	0	0	0	0	0	0	0	0	0	0	0	0	0	0	0	0	0
091812	18:12:01	10016	Trial2BackEng	N	3	0	1000	1	65	18:12:01	991525	0	0	0	0	0	0	0	0	0	0	0	0	0	0	0	0	0
091812	18:12:01	10016	Trial2BackEng	N	3	0	1000	1	66	18:12:01	993044	0	0	0	0	0	0	0	0	0	0	0	0	0	0	0	0	0
091812	18:12:01	10016	Trial2BackEng	N	3	0	1000	1	67	18:12:01	994577	0	0	0	0	0	0	0	0	0	0	0	0	0	0	0	0	0
091812	18:12:01	10016	Trial2BackEng	N	3	0	1000	1	68	18:12:01	996110	0	0	0	0	0	0	0	0	0	0	0	0	0	0	0	0	0
091812	18:12:01	10016	Trial2BackEng	N	3	0	1000	1	69	18:12:01	997629	0	0	0	0	0	0	0	0	0	0	0	0	0	0	0	0	0
091812	18:12:01	10016	Trial2BackEng	N	3	0	1000	1	70	18:12:01	999149	0	0	0	0	0	0	0	0	0	0	0	0	0	0	0	0	0
091812	18:12:01	10016	Trial2BackEng	N	3	0	1000	1	71	18:12:01	1000681	0	0	0	0	0	0	0	0	0	0	0	0	0	0	0	0	0
091812	18:12:01	10016	Trial2BackEng	N	3	0	1000	1	72	18:12:01	1002201	0	0	0	0	0	0	0	0	0	0	0	0	0	0	0	0	0
091812	18:12:01	10016	Trial2BackEng	Y	3	57	507	1	73	18:12:01	1003240	0	0	0	0	0	0	0	0	0	0	0	0	0	0	0	0	0
091812	18:12:01	10016	Trial2BackEng	N	3	0	1000	1	74	18:12:01	1005226	0	0	0	0	0	0	0	0	0	0	0	0	0	0	0	0	0
091812	18:12:01	10016	Trial2BackEng	N	3	0	1000	1	75	18:12:01	1006746	0	0	0	0	0	0	0	0	0	0	0	0	0	0	0	0	0
091812	18:12:01	10016	Trial2BackEng	N	3	0	1000	1	76	18:12:01	1008265	0	0	0	0	0	0	0	0	0	0	0	0	0	0	0	0	0
091812	18:12:01	10016	Trial2BackEng	Y	3	57	666	1	77	18:12:01	1009465	0	0	0	0	0	0	0	0	0	0	0	0	0	0	0	0	0
091812	18:12:01	10016	Trial2BackEng	N	3	0	1000	1	78	18:12:01	1011291	0	0	0	0	0	0	0	0	0	0	0	0	0	0	0	0	0
091812	18:12:01	10016	Trial2BackEng	N	3	0	1000	1	79	18:12:01	1012823	0	0	0	0	0	0	0	0	0	0	0	0	0	0	0	0	0
091812	18:12:01	10016	Trial2BackEng	N	3	0	1000	1	80	18:12:01	1014343	0	0	0	0	0	0	0	0	0	0	0	0	0	0	0	0	0
091812	18:12:01	10016	Trial2BackEng	N	3	0	1000	1	81	18:12:01	1015862	0	0	0	0	0	0	0	0	0	0	0	0	0	0	0	0	0
091812	18:12:01	10016	Trial2BackEng	N	3	0	1000	1	82	18:12:01	1017381	0	0	0	0	0	0	0	0	0	0	0	0	0	0	0	0	0
091812	18:12:01	10016	Trial2BackEng	Y	3	57	638	1	83	18:12:01	1018541	0	0	0	0	0	0	0	0	0	0	0	0	0	0	0	0	0
091812	18:12:01	10016	Trial2BackEng	N	3	0	1000	1	84	18:12:01	1020407	0	0	0	0	0	0	0	0	0	0	0	0	0	0	0	0	0
091812	18:12:01	10016	Trial2BackEng	N	3	0	1000	1	85	18:12:01	1021926	0	0	0	0	0	0	0	0	0	0	0	0	0	0	0	0	0
091812	18:12:01	10016	Trial2BackEng	N	3	0	1000	1	86	18:12:01	1023446	0	0	0	0	0	0	0	0	0	0	0	0	0	0	0	0	0
091812	18:12:01	10016	Trial2BackEng	N	3	0	1000	1	87	18:12:01	1024965	0	0	0	0	0	0	0	0	0	0	0	0	0	0	0	0	0
091812	18:12:01	10016	Trial2BackEng	N	3	0	1000	1	88	18:12:01	1026485	0	0	0	0	0	0	0	0	0	0	0	0	0	0	0	0	0
091812	18:12:01	10016	Trial2BackEng	N	3	0	1000	1	89	18:12:01	1028004	0	0	0	0	0	0	0	0	0	0	0	0	0	0	0	0	0
091812	18:12:01	10016	Trial2BackEng	N	3	0	1000	1	90	18:12:01	1029523	0	0	0	0	0	0	0	0	0	0	0	0	0	0	0	0	0
091812	18:12:01	10016	Trial2BackEng	N	3	0	1000	1	91	18:12:01	1031043	0	0	0	0	0	0	0	0	0	0	0	0	0	0	0	0	0
091812	18:12:01	10016	Trial2BackEng	N	3	0	1000	1	92	18:12:01	1032562	0	0	0	0	0	0	0	0	0	0	0	0	0	0	0	0	0
091812	18:12:01	10016	Trial2BackEng	Y	3	57	529	1	93	18:12:01	1033615	0	0	0	0	0	0	0	0	0	0	0	0	0	0	0	0	0
091812	18:12:01	10016	Trial2BackEng	N	3	0	1000	1	94	18:12:01	1035587	0	0	0	0	0	0	0	0	0	0	0	0	0	0	0	0	0
091812	18:12:01	10016	Trial2BackEng	N	3	0	1000	1	95	18:12:01	1037107	0	0	0	0	0	0	0	0	0	0	0	0	0	0	0	0	0
091812	18:12:01	10016	Trial2BackEng	N	3	0	1000	1	96	18:12:01	1038626	0	0	0	0	0	0	0	0	0	0	0	0	0	0	0	0	0
091812	18:12:01	10016	Trial2BackEng	N	3	0	1000	1	97	18:12:01	1040146	0	0	0	0	0	0	0	0	0	0	0	0	0	0	0	0	0
091812	18:12:01	10016	Trial2BackEng	N	3	0	1000	1	98	18:12:01	1041665	0	0	0	0	0	0	0	0	0	0	0	0	0	0	0	0	0
091812	18:12:01	10016	Trial2BackEng	N	3	0	1000	1	99	18:12:01	1043185	0	0	0	0	0	0	0	0	0	0	0	0	0	0	0	0	0
091812	18:12:01	10016	Trial2BackEng	N	3	0	1000	1	100	18:12:01	1044704	0	0	0	0	0	0	0	0	0	0	0	0	0	0	0	0	0
091812	18:12:01	10016	Trial2BackEng	N	3	0	1000	1	101	18:12:01	1046223	0	0	0	0	0	0	0	0	0	0	0	0	0	0	0	0	0
091812	18:12:01	10016	Trial2BackEng	Y	3	57	548	1	102	18:12:01	1047303	0	0	0	0	0	0	0	0	0	0	0	0	0	0	0	0	0
091812	18:12:01	10016	Trial2BackEng	N	3	0	1000	1	103	18:12:01	1049262	0	0	0	0	0	0	0	0	0	0	0	0	0	0	0	0	0
091812	18:12:01	10016	Trial2BackEng	N	3	0	1000	1	104	18:12:01	1050781	0	0	0	0	0	0	0	0	0	0	0	0	0	0	0	0	0
091812	18:12:01	10016	Trial2BackEng	N	3	0	1000	1	105	18:12:01	1052301	0	0	0	0	0	0	0	0	0	0	0	0	0	0	0	0	0
091812	18:12:01	10016	Trial2BackEng	N	3	0	1000	1	106	18:12:01	1053820	0	0	0	0	0	0	0	0	0	0	0	0	0	0	0	0	0
091812	18:12:01	10016	Trial2BackEng	Y	3	57	726	1	107	18:12:01	1055073	0	0	0	0	0	0	0	0	0	0	0	0	0	0	0	0	0
091812	18:12:01	10016	Trial2BackEng	N	3	0	1000	1	108	18:12:01	1056846	0	0	0	0	0	0	0	0	0	0	0	0	0	0	0	0	0
091812	18:12:01	10016	Trial2BackEng	N	3	0	1000	1	109	18:12:01	1058365	0	0	0	0	0	0	0	0	0	0	0	0	0	0	0	0	0
091812	18:12:01	10016	Trial2BackEng	N	3	0	1000	1	110	18:12:01	1059885	0	0	0	0	0	0	0	0	0	0	0	0	0	0	0	0	0
091812	18:12:01	10016	Trial2BackEng	Y	3	57	549	1	111	18:12:01	1060964	0	0	0	0	0	0	0	0	0	0	0	0	0	0	0	0	0
091812	18:12:01	10016	Trial2BackEng	N	3	0	1000	1	112	18:12:01	1062910	0	0	0	0	0	0	0	0	0	0	0	0	0	0	0	0	0
091812	18:12:01	10016	Trial2BackEng	N	3	0	1000	1	113	18:12:01	1064456	0	0	0	0	0	0	0	0	0	0	0	0	0	0	0	0	0
091812	18:12:01	10016	Trial2BackEng	N	3	0	1000	1	114	18:12:01	1065975	0	0	0	0	0	0	0	0	0	0	0	0	0	0	0	0	0
091812	18:12:01	10016	Trial2BackEng	N	3	0	1000	1	115	18:12:01	1067495	0	0	0	0	0	0	0	0	0	0	0	0	0	0	0	0	0
091812	18:12:01	10016	Trial2BackEng	N	3	0	1000	1	116	18:12:01	1069014	0	0	0	0	0	0	0	0	0	0	0	0	0	0	0	0	0
091812	18:12:01	10016	Trial2BackEng	Y	3	57	429	1	117	18:12:01	1069987	0	0	0	0	0	0	0	0	0	0	0	0	0	0	0	0	0
091812	18:12:01	10016	Trial2BackEng	N	3	0	1000	1	118	18:12:01	1072053	0	0	0	0	0	0	0	0	0	0	0	0	0	0	0	0	0
091812	18:12:01	10016	Trial2BackEng	N	3	0	1000	1	119	18:12:01	1073573	0	0	0	0	0	0	0	0	0	0	0	0	0	0	0	0	0
091812	18:12:01	10016	Trial2BackEng	N	3	0	1000	1	120	18:12:01	1075092	0	0	0	0	0	0	0	0	0	0	0	0	0	0	0	0	0
091812	18:12:01	10016	Trial2BackEng	Y	3	57	494	1	121	18:12:01	1076118	0	0	0	0	0	0	0	0	0	0	0	0	0	0	0	0	0
091812	18:12:01	10016	Trial3BackEng	NN	4	0	1000	1	121	18:12:01	1088807	0	0	0	0	0	0	0	0	0	0	0	0	0	0	0	0	0
091812	18:12:01	10016	Trial3BackEng	NN	4	0	1000	1	121	18:12:01	1090326	0	0	0	0	0	0	0	0	0	0	0	0	0	0	0	0	0
091812	18:12:01	10016	Trial3BackEng	NN	4	0	1000	1	121	18:12:01	1091845	0	0	0	0	0	0	0	0	0	0	0	0	0	0	0	0	0
091812	18:12:01	10016	Trial3BackEng	YY	4	57	621	1	121	18:12:01	1092992	0	0	0	0	0	0	0	0	0	0	0	0	0	0	0	0	0
091812	18:12:01	10016	Trial3BackEng	NN	4	0	1000	1	121	18:12:01	1094871	0	0	0	0	0	0	0	0	0	0	0	0	0	0	0	0	0
091812	18:12:01	10016	Trial3BackEng	NN	4	0	1000	1	121	18:12:01	1096390	0	0	0	0	0	0	0	0	0	0	0	0	0	0	0	0	0
091812	18:12:01	10016	Trial3BackEng	NN	4	0	1000	1	121	18:12:01	1097910	0	0	0	0	0	0	0	0	0	0	0	0	0	0	0	0	0
091812	18:12:01	10016	Trial3BackEng	NN	4	0	1000	1	121	18:12:01	1099429	0	0	0	0	0	0	0	0	0	0	0	0	0	0	0	0	0
091812	18:12:01	10016	Trial3BackEng	YY	4	0	1000	0	121	18:12:01	1100948	0	0	0	0	0	0	0	0	0	0	0	0	0	0	0	0	0
091812	18:12:01	10016	Trial3BackEng	NN	4	57	125	0	121	18:12:01	1101601	0	0	0	0	0	0	0	0	0	0	0	0	0	0	0	0	0
091812	18:12:01	10016	Trial3BackEng	NN	4	0	1000	1	121	18:12:01	1103974	0	0	0	0	0	0	0	0	0	0	0	0	0	0	0	0	0
091812	18:12:01	10016	Trial3BackEng	NN	4	0	1000	1	121	18:12:01	1105493	0	0	0	0	0	0	0	0	0	0	0	0	0	0	0	0	0
091812	18:12:01	10016	Trial3BackEng	NN	4	0	1000	1	121	18:12:01	1107013	0	0	0	0	0	0	0	0	0	0	0	0	0	0	0	0	0
091812	18:12:01	10016	Trial3BackEng	NN	4	0	1000	1	121	18:12:01	1108532	0	0	0	0	0	0	0	0	0	0	0	0	0	0	0	0	0
091812	18:12:01	10016	Trial3BackEng	NN	4	57	431	0	121	18:12:01	1109505	0	0	0	0	0	0	0	0	0	0	0	0	0	0	0	0	0
091812	18:12:01	10016	Trial3BackEng	NN	4	0	1000	1	121	18:12:01	1111557	0	0	0	0	0	0	0	0	0	0	0	0	0	0	0	0	0
091812	18:12:01	10016	Trial3BackEng	YY	4	0	1000	0	121	18:12:01	1113077	0	0	0	0	0	0	0	0	0	0	0	0	0	0	0	0	0
091812	18:12:01	10016	Trial3BackEng	NN	4	0	1000	1	121	18:12:01	1114596	0	0	0	0	0	0	0	0	0	0	0	0	0	0	0	0	0
091812	18:12:01	10016	Trial3BackEng	NN	4	0	1000	1	121	18:12:01	1116116	0	0	0	0	0	0	0	0	0	0	0	0	0	0	0	0	0
091812	18:12:01	10016	Trial3BackEng	NN	4	0	1000	1	121	18:12:01	1117635	0	0	0	0	0	0	0	0	0	0	0	0	0	0	0	0	0
091812	18:12:01	10016	Trial3BackEng	NN	4	0	1000	1	121	18:12:01	1119155	0	0	0	0	0	0	0	0	0	0	0	0	0	0	0	0	0
091812	18:12:01	10016	Trial3BackEng	NN	4	0	1000	1	121	18:12:01	1120674	0	0	0	0	0	0	0	0	0	0	0	0	0	0	0	0	0
091812	18:12:01	10016	Trial3BackEng	YY	4	57	576	1	121	18:12:01	1121780	0	0	0	0	0	0	0	0	0	0	0	0	0	0	0	0	0
091812	18:12:01	10016	Trial3BackEng	NN	4	0	1000	1	121	18:12:01	1123699	0	0	0	0	0	0	0	0	0	0	0	0	0	0	0	0	0
091812	18:12:01	10016	Trial3BackEng	NN	4	0	1000	1	121	18:12:01	1125219	0	0	0	0	0	0	0	0	0	0	0	0	0	0	0	0	0
091812	18:12:01	10016	Trial3BackEng	NN	4	0	1000	1	121	18:12:01	1126738	0	0	0	0	0	0	0	0	0	0	0	0	0	0	0	0	0
091812	18:12:01	10016	Trial3BackEng	YY	4	57	543	1	121	18:12:01	1127804	0	0	0	0	0	0	0	0	0	0	0	0	0	0	0	0	0
091812	18:12:01	10016	Trial3BackEng	NN	4	0	1000	1	121	18:12:01	1129764	0	0	0	0	0	0	0	0	0	0	0	0	0	0	0	0	0
091812	18:12:01	10016	Trial3BackEng	NN	4	0	1000	1	121	18:12:01	1131283	0	0	0	0	0	0	0	0	0	0	0	0	0	0	0	0	0
091812	18:12:01	10016	Trial3BackEng	NN	4	0	1000	1	121	18:12:01	1132816	0	0	0	0	0	0	0	0	0	0	0	0	0	0	0	0	0
091812	18:12:01	10016	Trial3BackEng	YY	4	57	533	1	121	18:12:01	1133895	0	0	0	0	0	0	0	0	0	0	0	0	0	0	0	0	0
091812	18:12:01	10016	Trial3BackEng	NN	4	0	1000	1	121	18:12:01	1135841	0	0	0	0	0	0	0	0	0	0	0	0	0	0	0	0	0
091812	18:12:01	10016	Trial3BackEng	NN	4	0	1000	1	121	18:12:01	1137361	0	0	0	0	0	0	0	0	0	0	0	0	0	0	0	0	0
091812	18:12:01	10016	Trial3BackEng	NN	4	0	1000	1	121	18:12:01	1138880	0	0	0	0	0	0	0	0	0	0	0	0	0	0	0	0	0
091812	18:12:01	10016	Trial3BackEng	NN	4	0	1000	1	121	18:12:01	1140399	0	0	0	0	0	0	0	0	0	0	0	0	0	0	0	0	0
091812	18:12:01	10016	Trial3BackEng	NN	4	0	1000	1	121	18:12:01	1141919	0	0	0	0	0	0	0	0	0	0	0	0	0	0	0	0	0
091812	18:12:01	10016	Trial3BackEng	NN	4	0	1000	1	121	18:12:01	1143438	0	0	0	0	0	0	0	0	0	0	0	0	0	0	0	0	0
091812	18:12:01	10016	Trial3BackEng	NN	4	0	1000	1	121	18:12:01	1144958	0	0	0	0	0	0	0	0	0	0	0	0	0	0	0	0	0
091812	18:12:01	10016	Trial3BackEng	NN	4	0	1000	1	121	18:12:01	1146477	0	0	0	0	0	0	0	0	0	0	0	0	0	0	0	0	0
091812	18:12:01	10016	Trial3BackEng	NN	4	0	1000	1	121	18:12:01	1147996	0	0	0	0	0	0	0	0	0	0	0	0	0	0	0	0	0
091812	18:12:01	10016	Trial3BackEng	NN	4	0	1000	1	121	18:12:01	1149516	0	0	0	0	0	0	0	0	0	0	0	0	0	0	0	0	0
091812	18:12:01	10016	Trial3BackEng	YY	4	57	614	1	121	18:12:01	1150662	0	0	0	0	0	0	0	0	0	0	0	0	0	0	0	0	0
091812	18:12:01	10016	Trial3BackEng	NN	4	0	1000	1	121	18:12:01	1152541	0	0	0	0	0	0	0	0	0	0	0	0	0	0	0	0	0
091812	18:12:01	10016	Trial3BackEng	NN	4	0	1000	1	121	18:12:01	1154061	0	0	0	0	0	0	0	0	0	0	0	0	0	0	0	0	0
091812	18:12:01	10016	Trial3BackEng	NN	4	0	1000	1	121	18:12:01	1155580	0	0	0	0	0	0	0	0	0	0	0	0	0	0	0	0	0
091812	18:12:01	10016	Trial3BackEng	NN	4	0	1000	1	121	18:12:01	1157100	0	0	0	0	0	0	0	0	0	0	0	0	0	0	0	0	0
091812	18:12:01	10016	Trial3BackEng	YY	4	57	902	1	121	18:12:01	1158525	0	0	0	0	0	0	0	0	0	0	0	0	0	0	0	0	0
091812	18:12:01	10016	Trial3BackEng	NN	4	0	1000	1	121	18:12:01	1160125	0	0	0	0	0	0	0	0	0	0	0	0	0	0	0	0	0
091812	18:12:01	10016	Trial3BackEng	NN	4	0	1000	1	121	18:12:01	1161644	0	0	0	0	0	0	0	0	0	0	0	0	0	0	0	0	0
091812	18:12:01	10016	Trial3BackEng	NN	4	0	1000	1	121	18:12:01	1163164	0	0	0	0	0	0	0	0	0	0	0	0	0	0	0	0	0
091812	18:12:01	10016	Trial3BackEng	NN	4	0	1000	1	121	18:12:01	1164683	0	0	0	0	0	0	0	0	0	0	0	0	0	0	0	0	0
091812	18:12:01	10016	Trial3BackEng	NN	4	0	1000	1	121	18:12:01	1166203	0	0	0	0	0	0	0	0	0	0	0	0	0	0	0	0	0
091812	18:12:01	10016	Trial3BackEng	YY	4	57	614	1	121	18:12:01	1167349	0	0	0	0	0	0	0	0	0	0	0	0	0	0	0	0	0
091812	18:12:01	10016	Trial3BackEng	NN	4	0	1000	1	121	18:12:01	1169228	0	0	0	0	0	0	0	0	0	0	0	0	0	0	0	0	0
091812	18:12:01	10016	Trial3BackEng	NN	4	0	1000	1	121	18:12:01	1170748	0	0	0	0	0	0	0	0	0	0	0	0	0	0	0	0	0
091812	18:12:01	10016	Trial3BackEng	NN	4	0	1000	1	121	18:12:01	1172267	0	0	0	0	0	0	0	0	0	0	0	0	0	0	0	0	0
091812	18:12:01	10016	Trial3BackEng	NN	4	0	1000	1	121	18:12:01	1173786	0	0	0	0	0	0	0	0	0	0	0	0	0	0	0	0	0
091812	18:12:01	10016	Trial3BackEng	NN	4	0	1000	1	121	18:12:01	1175306	0	0	0	0	0	0	0	0	0	0	0	0	0	0	0	0	0
091812	18:12:01	10016	Trial3BackEng	NN	4	0	1000	1	121	18:12:01	1176825	0	0	0	0	0	0	0	0	0	0	0	0	0	0	0	0	0
091812	18:12:01	10016	Trial3BackEng	YY	4	57	632	1	121	18:12:01	1177984	0	0	0	0	0	0	0	0	0	0	0	0	0	0	0	0	0
091812	18:12:01	10016	Trial3BackEng	NN	4	0	1000	1	121	18:12:01	1179850	0	0	0	0	0	0	0	0	0	0	0	0	0	0	0	0	0
091812	18:12:01	10016	Trial3BackEng	NN	4	0	1000	1	121	18:12:01	1181370	0	0	0	0	0	0	0	0	0	0	0	0	0	0	0	0	0
091812	18:12:01	10016	Trial3BackEng	NN	4	0	1000	1	121	18:12:01	1182903	0	0	0	0	0	0	0	0	0	0	0	0	0	0	0	0	0
091812	18:12:01	10016	Trial3BackEng	YY	4	57	698	1	121	18:12:01	1184129	0	0	0	0	0	0	0	0	0	0	0	0	0	0	0	0	0
091812	18:12:01	10016	Trial3BackEng	NN	4	0	1000	1	121	18:12:01	1185928	0	0	0	0	0	0	0	0	0	0	0	0	0	0	0	0	0
091812	18:12:01	10016	Trial3BackEng	NN	4	0	1000	1	121	18:12:01	1187448	0	0	0	0	0	0	0	0	0	0	0	0	0	0	0	0	0
091812	18:12:01	10016	Trial3BackEng	NN	4	0	1000	1	121	18:12:01	1188980	0	0	0	0	0	0	0	0	0	0	0	0	0	0	0	0	0
091812	18:12:01	10016	Trial3BackEng	NN	4	0	1000	1	121	18:12:01	1190500	0	0	0	0	0	0	0	0	0	0	0	0	0	0	0	0	0
091812	18:12:01	10016	Trial3BackEng	NN	4	0	1000	1	121	18:12:01	1192019	0	0	0	0	0	0	0	0	0	0	0	0	0	0	0	0	0
091812	18:12:01	10016	Trial3BackEng	NN	4	0	1000	1	121	18:12:01	1193538	0	0	0	0	0	0	0	0	0	0	0	0	0	0	0	0	0
091812	18:12:01	10016	Trial3BackEng	NN	4	0	1000	1	121	18:12:01	1195058	0	0	0	0	0	0	0	0	0	0	0	0	0	0	0	0	0
091812	18:12:01	10016	Trial3BackEng	NN	4	0	1000	1	121	18:12:01	1196577	0	0	0	0	0	0	0	0	0	0	0	0	0	0	0	0	0
091812	18:12:01	10016	Trial3BackEng	NN	4	0	1000	1	121	18:12:01	1198097	0	0	0	0	0	0	0	0	0	0	0	0	0	0	0	0	0
091812	18:12:01	10016	Trial3BackEng	YY	4	57	687	1	121	18:12:01	1199309	0	0	0	0	0	0	0	0	0	0	0	0	0	0	0	0	0
091812	18:12:01	10016	Trial3BackEng	NN	4	0	1000	1	121	18:12:01	1201122	0	0	0	0	0	0	0	0	0	0	0	0	0	0	0	0	0
091812	18:12:01	10016	Trial3BackEng	NN	4	0	1000	1	121	18:12:01	1202642	0	0	0	0	0	0	0	0	0	0	0	0	0	0	0	0	0
091812	18:12:01	10016	Trial3BackEng	NN	4	0	1000	1	121	18:12:01	1204161	0	0	0	0	0	0	0	0	0	0	0	0	0	0	0	0	0
091812	18:12:01	10016	Trial3BackEng	YY	4	57	704	1	121	18:12:01	1205387	0	0	0	0	0	0	0	0	0	0	0	0	0	0	0	0	0
091812	18:12:01	10016	Trial3BackEng	NN	4	0	1000	1	121	18:12:01	1207186	0	0	0	0	0	0	0	0	0	0	0	0	0	0	0	0	0
091812	18:12:01	10016	Trial3BackEng	NN	4	0	1000	1	121	18:12:01	1208706	0	0	0	0	0	0	0	0	0	0	0	0	0	0	0	0	0
091812	18:12:01	10016	Trial3BackEng	NN	4	0	1000	1	121	18:12:01	1210225	0	0	0	0	0	0	0	0	0	0	0	0	0	0	0	0	0
091812	18:12:01	10016	Trial3BackEng	NN	4	0	1000	1	121	18:12:01	1211745	0	0	0	0	0	0	0	0	0	0	0	0	0	0	0	0	0
091812	18:12:01	10016	Trial3BackEng	NN	4	0	1000	1	121	18:12:01	1213264	0	0	0	0	0	0	0	0	0	0	0	0	0	0	0	0	0
091812	18:12:01	10016	Trial3BackEng	YY	4	57	564	1	121	18:12:01	1214383	0	0	0	0	0	0	0	0	0	0	0	0	0	0	0	0	0
091812	18:12:01	10016	Trial3BackEng	NN	4	0	1000	1	121	18:12:01	1216303	0	0	0	0	0	0	0	0	0	0	0	0	0	0	0	0	0
091812	18:12:01	10016	Trial3BackEng	NN	4	0	1000	1	121	18:12:01	1217836	0	0	0	0	0	0	0	0	0	0	0	0	0	0	0	0	0
091812	18:12:01	10016	Trial3BackEng	NN	4	0	1000	1	121	18:12:01	1219355	0	0	0	0	0	0	0	0	0	0	0	0	0	0	0	0	0
091812	18:12:01	10016	Trial3BackEng	NN	4	0	1000	1	121	18:12:01	1220874	0	0	0	0	0	0	0	0	0	0	0	0	0	0	0	0	0
091812	18:12:01	10016	Trial3BackEng	NN	4	0	1000	1	121	18:12:01	1222394	0	0	0	0	0	0	0	0	0	0	0	0	0	0	0	0	0
091812	18:12:01	10016	Trial3BackEng	NN	4	0	1000	1	121	18:12:01	1223913	0	0	0	0	0	0	0	0	0	0	0	0	0	0	0	0	0
091812	18:12:01	10016	Trial3BackEng	NN	4	0	1000	1	121	18:12:01	1225433	0	0	0	0	0	0	0	0	0	0	0	0	0	0	0	0	0
091812	18:12:01	10016	Trial3BackEng	NN	4	0	1000	1	121	18:12:01	1226952	0	0	0	0	0	0	0	0	0	0	0	0	0	0	0	0	0
091812	18:12:01	10016	Trial3BackEng	NN	4	0	1000	1	121	18:12:01	1228471	0	0	0	0	0	0	0	0	0	0	0	0	0	0	0	0	0
091812	18:12:01	10016	Trial3BackEng	YY	4	57	633	1	121	18:12:01	1229631	0	0	0	0	0	0	0	0	0	0	0	0	0	0	0	0	0
091812	18:12:01	10016	Trial3BackEng	NN	4	0	1000	1	121	18:12:01	1231497	0	0	0	0	0	0	0	0	0	0	0	0	0	0	0	0	0
091812	18:12:01	10016	Trial3BackEng	NN	4	0	1000	1	121	18:12:01	1233016	0	0	0	0	0	0	0	0	0	0	0	0	0	0	0	0	0
091812	18:12:01	10016	Trial3BackEng	NN	4	0	1000	1	121	18:12:01	1234536	0	0	0	0	0	0	0	0	0	0	0	0	0	0	0	0	0
091812	18:12:01	10016	Trial3BackEng	NN	4	0	1000	1	121	18:12:01	1236055	0	0	0	0	0	0	0	0	0	0	0	0	0	0	0	0	0
091812	18:12:01	10016	Trial3BackEng	NN	4	0	1000	1	121	18:12:01	1237574	0	0	0	0	0	0	0	0	0	0	0	0	0	0	0	0	0
091812	18:12:01	10016	Trial3BackEng	NN	4	0	1000	1	121	18:12:01	1239094	0	0	0	0	0	0	0	0	0	0	0	0	0	0	0	0	0
091812	18:12:01	10016	Trial3BackEng	NN	4	0	1000	1	121	18:12:01	1240613	0	0	0	0	0	0	0	0	0	0	0	0	0	0	0	0	0
091812	18:12:01	10016	Trial3BackEng	NN	4	0	1000	1	121	18:12:01	1242133	0	0	0	0	0	0	0	0	0	0	0	0	0	0	0	0	0
091812	18:12:01	10016	Trial3BackEng	YY	4	57	459	1	121	18:12:01	1243119	0	0	0	0	0	0	0	0	0	0	0	0	0	0	0	0	0
091812	18:12:01	10016	Trial3BackEng	NN	4	0	1000	1	121	18:12:01	1245158	0	0	0	0	0	0	0	0	0	0	0	0	0	0	0	0	0
091812	18:12:01	10016	Trial3BackEng	NN	4	0	1000	1	121	18:12:01	1246677	0	0	0	0	0	0	0	0	0	0	0	0	0	0	0	0	0
091812	18:12:01	10016	Trial3BackEng	NN	4	0	1000	1	121	18:12:01	1248197	0	0	0	0	0	0	0	0	0	0	0	0	0	0	0	0	0
091812	18:12:01	10016	Trial3BackEng	NN	4	0	1000	1	121	18:12:01	1249716	0	0	0	0	0	0	0	0	0	0	0	0	0	0	0	0	0
091812	18:12:01	10016	Trial3BackEng	YY	4	0	1000	0	121	18:12:01	1251236	0	0	0	0	0	0	0	0	0	0	0	0	0	0	0	0	0
091812	18:12:01	10016	Trial3BackEng	NN	4	0	1000	1	121	18:12:01	1252756	0	0	0	0	0	0	0	0	0	0	0	0	0	0	0	0	0
091812	18:12:01	10016	Trial3BackEng	NN	4	0	1000	1	121	18:12:01	1254288	0	0	0	0	0	0	0	0	0	0	0	0	0	0	0	0	0
091812	18:12:01	10016	Trial3BackEng	NN	4	0	1000	1	121	18:12:01	1255807	0	0	0	0	0	0	0	0	0	0	0	0	0	0	0	0	0
091812	18:12:01	10016	Trial3BackEng	YY	4	57	386	1	121	18:12:01	1256727	0	0	0	0	0	0	0	0	0	0	0	0	0	0	0	0	0
091812	18:12:01	10016	Trial3BackEng	NN	4	0	1000	1	121	18:12:01	1258846	0	0	0	0	0	0	0	0	0	0	0	0	0	0	0	0	0
091812	18:12:01	10016	Trial3BackEng	NN	4	0	1000	1	121	18:12:01	1260365	0	0	0	0	0	0	0	0	0	0	0	0	0	0	0	0	0
091812	18:12:01	10016	Trial3BackEng	NN	4	0	1000	1	121	18:12:01	1261885	0	0	0	0	0	0	0	0	0	0	0	0	0	0	0	0	0
091812	18:12:01	10016	Trial3BackEng	NN	4	0	1000	1	121	18:12:01	1263404	0	0	0	0	0	0	0	0	0	0	0	0	0	0	0	0	0
091812	18:12:01	10016	Trial3BackEng	NN	4	0	1000	1	121	18:12:01	1264924	0	0	0	0	0	0	0	0	0	0	0	0	0	0	0	0	0
091812	18:12:01	10016	Trial3BackEng	YY	4	57	468	1	121	18:12:01	1265923	0	0	0	0	0	0	0	0	0	0	0	0	0	0	0	0	0
091812	18:12:01	10016	Trial3BackEng	NN	4	0	1000	1	121	18:12:01	1267949	0	0	0	0	0	0	0	0	0	0	0	0	0	0	0	0	0
091812	18:12:01	10016	Trial3BackEng	NN	4	0	1000	1	121	18:12:01	1269469	0	0	0	0	0	0	0	0	0	0	0	0	0	0	0	0	0
091812	18:12:01	10016	Trial3BackEng	NN	4	0	1000	1	121	18:12:01	1271001	0	0	0	0	0	0	0	0	0	0	0	0	0	0	0	0	0
091812	18:12:01	10016	Trial3BackEng	YY	4	57	582	1	121	18:12:01	1272107	0	0	0	0	0	0	0	0	0	0	0	0	0	0	0	0	0
091812	18:12:01	10016	Memory1R3mo	Score	5	M1	17296	0	121	18:12:01	1318982	0	0	0	0	0	0	0	0	0	0	0	0	0	0	0	0	0
091812	18:12:01	10016	Memory1R3mo	Score	5	M2	764	0	121	18:12:01	1319782	0	0	0	0	0	0	0	0	0	0	0	0	0	0	0	0	0
091812	18:12:01	10016	Memory1R3mo	Score	5	M5	2236	0	121	18:12:01	1322061	0	0	0	0	0	0	0	0	0	0	0	0	0	0	0	0	0
091812	18:12:01	10016	Memory1R3mo	Score	5	M6	317	0	121	18:12:01	1322421	0	0	0	0	0	0	0	0	0	0	0	0	0	0	0	0	0
091812	18:12:01	10016	Memory1R3mo	Score	5	M7	291	0	121	18:12:01	1322754	0	0	0	0	0	0	0	0	0	0	0	0	0	0	0	0	0
091812	18:12:01	10016	Memory1R3mo	Score	5	M8	289	0	121	18:12:01	1323088	0	0	0	0	0	0	0	0	0	0	0	0	0	0	0	0	0
091812	18:12:01	10016	Memory1R3mo	Score	5	M4	12876	0	121	18:12:01	1336016	0	0	0	0	0	0	0	0	0	0	0	0	0	0	0	0	0
091812	18:12:01	10016	Memory1R3mo	Score	5	Done	8299	0	121	18:12:01	1344359	0	0	0	0	0	0	0	0	0	0	0	0	0	0	0	0	0
091812	18:12:01	10016	Memory2R3mo	Score2	5	77	18074	0	121	18:12:01	1381745	0	0	0	0	0	0	0	0	0	0	0	0	0	0	0	0	0
091812	18:12:01	10016	Memory2R3mo	Score2	5	88	265	0	121	18:12:01	1382051	0	0	0	0	0	0	0	0	0	0	0	0	0	0	0	0	0
091812	18:12:01	10016	Memory2R3mo	Score2	5	55	951	0	121	18:12:01	1383037	0	0	0	0	0	0	0	0	0	0	0	0	0	0	0	0	0
091812	18:12:01	10016	Memory2R3mo	Score2	5	44	875	0	121	18:12:01	1383970	0	0	0	0	0	0	0	0	0	0	0	0	0	0	0	0	0
091812	18:12:01	10016	Memory2R3mo	Score2	5	33	375	0	121	18:12:01	1384384	0	0	0	0	0	0	0	0	0	0	0	0	0	0	0	0	0
091812	18:12:01	10016	Memory2R3mo	Score2	5	22	360	0	121	18:12:01	1384783	0	0	0	0	0	0	0	0	0	0	0	0	0	0	0	0	0
091812	18:12:01	10016	Memory2R3mo	Score2	5	11	346	0	121	18:12:01	1385170	0	0	0	0	0	0	0	0	0	0	0	0	0	0	0	0	0
091812	18:12:01	10016	Memory2R3mo	Score2	5	66	582	0	121	18:12:01	1385823	0	0	0	0	0	0	0	0	0	0	0	0	0	0	0	0	0
091812	18:12:01	10016	Memory2R3mo	Score2	5	Done	1398	0	121	18:12:01	1387316	0	0	0	0	0	0	0	0	0	0	0	0	0	0	0	0	0
091812	18:12:01	10016	Memory3R3mo	Score3	5	111	15266	0	121	18:12:01	1422755	0	0	0	0	0	0	0	0	0	0	0	0	0	0	0	0	0
091812	18:12:01	10016	Memory3R3mo	Score3	5	222	286	0	121	18:12:01	1423075	0	0	0	0	0	0	0	0	0	0	0	0	0	0	0	0	0
091812	18:12:01	10016	Memory3R3mo	Score3	5	444	420	0	121	18:12:01	1423541	0	0	0	0	0	0	0	0	0	0	0	0	0	0	0	0	0
091812	18:12:01	10016	Memory3R3mo	Score3	5	333	472	0	121	18:12:01	1424048	0	0	0	0	0	0	0	0	0	0	0	0	0	0	0	0	0
091812	18:12:01	10016	Memory3R3mo	Score3	5	555	353	0	121	18:12:01	1424448	0	0	0	0	0	0	0	0	0	0	0	0	0	0	0	0	0
091812	18:12:01	10016	Memory3R3mo	Score3	5	666	422	0	121	18:12:01	1424914	0	0	0	0	0	0	0	0	0	0	0	0	0	0	0	0	0
091812	18:12:01	10016	Memory3R3mo	Score3	5	777	567	0	121	18:12:01	1425528	0	0	0	0	0	0	0	0	0	0	0	0	0	0	0	0	0
091812	18:12:01	10016	Memory3R3mo	Score3	5	888	266	0	121	18:12:01	1425834	0	0	0	0	0	0	0	0	0	0	0	0	0	0	0	0	0
091812	18:12:01	10016	Memory3R3mo	Score3	5	Done	590	0	121	18:12:01	1426460	0	0	0	0	0	0	0	0	0	0	0	0	0	0	0	0	0
091812	18:12:01	10016	LoriaEngLH3	Stop	6	7	4173	0	121	18:12:01	1492256	0	0	0	0	0	0	0	0	0	0	0	0	0	0	0	0	0
091812	18:12:01	10016	EngTrail	Trails	7	1Trails	965	0	121	18:12:01	1513546	0	0	0	0	0	0	0	0	0	0	0	0	0	0	0	0	0
091812	18:12:01	10016	Serial7Eng3mo	Serial7Eng3mo	8	83	21649	0	121	18:12:01	1540938	1	0	0	0	0	0	0	0	0	0	0	0	0	0	0	0	0
091812	18:12:01	10016	Serial7Eng3mo	Serial7Eng3mo	8	76	3144	0	121	18:12:01	1544110	2	0	0	0	0	0	0	0	0	0	0	0	0	0	0	0	0
091812	18:12:01	10016	Serial7Eng3mo	Serial7Eng3mo	8	69	3989	0	121	18:12:01	1548122	3	0	0	0	0	0	0	0	0	0	0	0	0	0	0	0	0
091812	18:12:01	10016	Serial7Eng3mo	Serial7Eng3mo	8	62	2804	0	121	18:12:01	1550948	4	0	0	0	0	0	0	0	0	0	0	0	0	0	0	0	0
091812	18:12:01	10016	Serial7Eng3mo	Serial7Eng3mo	8	55	13188	0	121	18:12:01	1564171	5	0	0	0	0	0	0	0	0	0	0	0	0	0	0	0	0
091812	18:12:01	10016	corsiblockEngFwrd	recallseqEngFwrd	9	4	1389	0	121	18:12:01	1624520	5	0	0	0	0	0	0	0	0	0	0	0	0	0	0	0	0
091812	18:12:01	10016	corsiblockEngFwrd	recallseqEngFwrd	9	9	1402	0	121	18:12:01	1625973	5	0	0	0	0	0	0	0	0	0	0	0	0	0	0	0	0
091812	18:12:01	10016	corsiblockEngFwrd	recallseqEngFwrd	9	doneCorsiEng	2543	0	121	18:12:01	1628571	5	0	0	0	0	0	0	0	0	0	0	0	0	0	0	2	0
091812	18:12:01	10016	corsiblockEngFwrd	recallseqEngFwrd	9	6	933	0	121	18:12:01	1635609	5	0	0	0	0	0	0	0	0	0	0	0	0	0	0	2	0
091812	18:12:01	10016	corsiblockEngFwrd	recallseqEngFwrd	9	1	995	0	121	18:12:01	1636648	5	0	0	0	0	0	0	0	0	0	0	0	0	0	0	2	0
091812	18:12:01	10016	corsiblockEngFwrd	recallseqEngFwrd	9	3	659	0	121	18:12:01	1637354	5	0	0	0	0	0	0	0	0	0	0	0	0	0	0	2	0
091812	18:12:01	10016	corsiblockEngFwrd	recallseqEngFwrd	9	doneCorsiEng	1270	0	121	18:12:01	1638661	5	0	0	0	0	0	0	0	0	0	0	0	0	0	0	3	0
091812	18:12:01	10016	corsiblockEngFwrd	recallseqEngFwrd	9	2	1427	0	121	18:12:01	1647178	5	0	0	0	0	0	0	0	0	0	0	0	0	0	0	3	0
091812	18:12:01	10016	corsiblockEngFwrd	recallseqEngFwrd	9	8	819	0	121	18:12:01	1648071	5	0	0	0	0	0	0	0	0	0	0	0	0	0	0	3	0
091812	18:12:01	10016	corsiblockEngFwrd	recallseqEngFwrd	9	7	612	0	121	18:12:01	1648737	5	0	0	0	0	0	0	0	0	0	0	0	0	0	0	3	0
091812	18:12:01	10016	corsiblockEngFwrd	recallseqEngFwrd	9	5	827	0	121	18:12:01	1649630	5	0	0	0	0	0	0	0	0	0	0	0	0	0	0	3	0
091812	18:12:01	10016	corsiblockEngFwrd	recallseqEngFwrd	9	doneCorsiEng	1135	0	121	18:12:01	1650816	5	0	0	0	0	0	0	0	0	0	0	0	0	0	0	4	0
091812	18:12:01	10016	corsiblockEngFwrd	recallseqEngFwrd	9	9	1429	0	121	18:12:01	1660359	5	0	0	0	0	0	0	0	0	0	0	0	0	0	0	4	0
091812	18:12:01	10016	corsiblockEngFwrd	recallseqEngFwrd	9	7	940	0	121	18:12:01	1661359	5	0	0	0	0	0	0	0	0	0	0	0	0	0	0	4	0
091812	18:12:01	10016	corsiblockEngFwrd	recallseqEngFwrd	9	2	727	0	121	18:12:01	1662158	5	0	0	0	0	0	0	0	0	0	0	0	0	0	0	4	0
091812	18:12:01	10016	corsiblockEngFwrd	recallseqEngFwrd	9	3	748	0	121	18:12:01	1662958	5	0	0	0	0	0	0	0	0	0	0	0	0	0	0	4	0
091812	18:12:01	10016	corsiblockEngFwrd	recallseqEngFwrd	9	1	606	0	121	18:12:01	1663624	5	0	0	0	0	0	0	0	0	0	0	0	0	0	0	4	0
091812	18:12:01	10016	corsiblockEngFwrd	recallseqEngFwrd	9	doneCorsiEng	2081	0	121	18:12:01	1665757	5	0	0	0	0	0	0	0	0	0	0	0	0	0	0	5	0
091812	18:12:01	10016	corsiblockEngFwrd	recallseqEngFwrd	9	4	806	0	121	18:12:01	1675660	5	0	0	0	0	0	0	0	0	0	0	0	0	0	0	5	0
091812	18:12:01	10016	corsiblockEngFwrd	recallseqEngFwrd	9	6	682	0	121	18:12:01	1676379	5	0	0	0	0	0	0	0	0	0	0	0	0	0	0	5	0
091812	18:12:01	10016	corsiblockEngFwrd	recallseqEngFwrd	9	5	558	0	121	18:12:01	1676995	5	0	0	0	0	0	0	0	0	0	0	0	0	0	0	5	0
091812	18:12:01	10016	corsiblockEngFwrd	recallseqEngFwrd	9	8	608	0	121	18:12:01	1677648	5	0	0	0	0	0	0	0	0	0	0	0	0	0	0	5	0
091812	18:12:01	10016	corsiblockEngFwrd	recallseqEngFwrd	9	3	783	0	121	18:12:01	1678485	5	0	0	0	0	0	0	0	0	0	0	0	0	0	0	5	0
091812	18:12:01	10016	corsiblockEngFwrd	recallseqEngFwrd	9	7	682	0	121	18:12:01	1679205	5	0	0	0	0	0	0	0	0	0	0	0	0	0	0	5	0
091812	18:12:01	10016	corsiblockEngFwrd	recallseqEngFwrd	9	doneCorsiEng	1237	0	121	18:12:01	1680485	5	0	0	0	0	0	0	0	0	0	0	0	0	0	0	6	0
091812	18:12:01	10016	corsiblockEngFwrd	recallseqEngFwrd	9	8	892	0	121	18:12:01	1691467	5	0	0	0	0	0	0	0	0	0	0	0	0	0	0	6	0
091812	18:12:01	10016	corsiblockEngFwrd	recallseqEngFwrd	9	2	711	0	121	18:12:01	1692227	5	0	0	0	0	0	0	0	0	0	0	0	0	0	0	6	0
091812	18:12:01	10016	corsiblockEngFwrd	recallseqEngFwrd	9	9	775	0	121	18:12:01	1693053	5	0	0	0	0	0	0	0	0	0	0	0	0	0	0	6	0
091812	18:12:01	10016	corsiblockEngFwrd	recallseqEngFwrd	9	6	789	0	121	18:12:01	1693892	5	0	0	0	0	0	0	0	0	0	0	0	0	0	0	6	0
091812	18:12:01	10016	corsiblockEngFwrd	recallseqEngFwrd	9	4	856	0	121	18:12:01	1694812	5	0	0	0	0	0	0	0	0	0	0	0	0	0	0	6	0
091812	18:12:01	10016	corsiblockEngFwrd	recallseqEngFwrd	9	5	623	0	121	18:12:01	1695480	5	0	0	0	0	0	0	0	0	0	0	0	0	0	0	6	0
091812	18:12:01	10016	corsiblockEngFwrd	recallseqEngFwrd	9	1	915	0	121	18:12:01	1696438	5	0	0	0	0	0	0	0	0	0	0	0	0	0	0	6	0
091812	18:12:01	10016	corsiblockEngFwrd	recallseqEngFwrd	9	doneCorsiEng	1333	0	121	18:12:01	1697811	5	0	0	0	0	0	0	0	0	0	0	0	0	0	0	7	0
091812	18:12:01	10016	corsiblockEngFwrd	recallseqEngFwrd	9	1	2699	0	121	18:12:01	1711619	5	0	0	0	0	0	0	0	0	0	0	0	0	0	0	7	0
091812	18:12:01	10016	corsiblockEngFwrd	recallseqEngFwrd	9	8	854	0	121	18:12:01	1712525	5	0	0	0	0	0	0	0	0	0	0	0	0	0	0	7	0
091812	18:12:01	10016	corsiblockEngFwrd	recallseqEngFwrd	9	7	835	0	121	18:12:01	1713418	5	0	0	0	0	0	0	0	0	0	0	0	0	0	0	7	0
091812	18:12:01	10016	corsiblockEngFwrd	recallseqEngFwrd	9	9	695	0	121	18:12:01	1714152	5	0	0	0	0	0	0	0	0	0	0	0	0	0	0	7	0
091812	18:12:01	10016	corsiblockEngFwrd	recallseqEngFwrd	9	6	713	0	121	18:12:01	1714911	5	0	0	0	0	0	0	0	0	0	0	0	0	0	0	7	0
091812	18:12:01	10016	corsiblockEngFwrd	recallseqEngFwrd	9	4	757	0	121	18:12:01	1715737	5	0	0	0	0	0	0	0	0	0	0	0	0	0	0	7	0
091812	18:12:01	10016	corsiblockEngFwrd	recallseqEngFwrd	9	5	521	0	121	18:12:01	1716312	5	0	0	0	0	0	0	0	0	0	0	0	0	0	0	7	0
091812	18:12:01	10016	corsiblockEngFwrd	recallseqEngFwrd	9	3	584	0	121	18:12:01	1716937	5	0	0	0	0	0	0	0	0	0	0	0	0	0	0	7	0
091812	18:12:01	10016	corsiblockEngFwrd	recallseqEngFwrd	9	doneCorsiEng	848	0	121	18:12:01	1717830	5	0	0	0	0	0	0	0	0	0	0	0	0	0	0	7	0
091812	18:12:01	10016	corsiblockEngFwrd	recallseqEngFwrd	9	2	799	0	121	18:12:01	1729705	5	0	0	0	0	0	0	0	0	0	0	0	0	0	0	7	0
091812	18:12:01	10016	corsiblockEngFwrd	recallseqEngFwrd	9	7	632	0	121	18:12:01	1730372	5	0	0	0	0	0	0	0	0	0	0	0	0	0	0	7	0
091812	18:12:01	10016	corsiblockEngFwrd	recallseqEngFwrd	9	resetCorsiEng	1901	0	121	18:12:01	1732318	5	0	0	0	0	0	0	0	0	0	0	0	0	0	0	7	0
091812	18:12:01	10016	corsiblockEngFwrd	recallseqEngFwrd	9	resetCorsiEng	2883	0	121	18:12:01	1735250	5	0	0	0	0	0	0	0	0	0	0	0	0	0	0	7	0
091812	18:12:01	10016	corsiblockEngFwrd	recallseqEngFwrd	9	2	2663	0	121	18:12:01	1737969	5	0	0	0	0	0	0	0	0	0	0	0	0	0	0	7	0
091812	18:12:01	10016	corsiblockEngFwrd	recallseqEngFwrd	9	7	991	0	121	18:12:01	1738995	5	0	0	0	0	0	0	0	0	0	0	0	0	0	0	7	0
091812	18:12:01	10016	corsiblockEngFwrd	recallseqEngFwrd	9	8	693	0	121	18:12:01	1739728	5	0	0	0	0	0	0	0	0	0	0	0	0	0	0	7	0
091812	18:12:01	10016	corsiblockEngFwrd	recallseqEngFwrd	9	2	1258	0	121	18:12:01	1741061	5	0	0	0	0	0	0	0	0	0	0	0	0	0	0	7	0
091812	18:12:01	10016	corsiblockEngFwrd	recallseqEngFwrd	9	9	812	0	121	18:12:01	1741927	5	0	0	0	0	0	0	0	0	0	0	0	0	0	0	7	0
091812	18:12:01	10016	corsiblockEngFwrd	recallseqEngFwrd	9	5	615	0	121	18:12:01	1742580	5	0	0	0	0	0	0	0	0	0	0	0	0	0	0	7	0
091812	18:12:01	10016	corsiblockEngFwrd	recallseqEngFwrd	9	3	570	0	121	18:12:01	1743220	5	0	0	0	0	0	0	0	0	0	0	0	0	0	0	7	0
091812	18:12:01	10016	corsiblockEngFwrd	recallseqEngFwrd	9	1	707	0	121	18:12:01	1743980	5	0	0	0	0	0	0	0	0	0	0	0	0	0	0	7	0
091812	18:12:01	10016	corsiblockEngFwrd	recallseqEngFwrd	9	doneCorsiEng	874	0	121	18:12:01	1744899	5	0	0	0	0	0	0	0	0	0	0	0	0	0	0	7	0
091812	18:12:01	10016	corsiblockEngRev	recallseqEngRev	10	1	748	0	121	18:12:01	1754855	5	0	0	0	0	0	0	0	0	0	0	0	0	0	0	7	0
091812	18:12:01	10016	corsiblockEngRev	recallseqEngRev	10	5	786	0	121	18:12:01	1755695	5	0	0	0	0	0	0	0	0	0	0	0	0	0	0	7	0
091812	18:12:01	10016	corsiblockEngRev	recallseqEngRev	10	doneCorsiEng	1546	0	121	18:12:01	1757294	5	0	0	0	0	0	0	0	0	0	0	0	0	0	0	7	2
091812	18:12:01	10016	corsiblockEngRev	recallseqEngRev	10	7	607	0	121	18:12:01	1763998	5	0	0	0	0	0	0	0	0	0	0	0	0	0	0	7	2
091812	18:12:01	10016	corsiblockEngRev	recallseqEngRev	10	4	619	0	121	18:12:01	1764678	5	0	0	0	0	0	0	0	0	0	0	0	0	0	0	7	2
091812	18:12:01	10016	corsiblockEngRev	recallseqEngRev	10	6	532	0	121	18:12:01	1765253	5	0	0	0	0	0	0	0	0	0	0	0	0	0	0	7	2
091812	18:12:01	10016	corsiblockEngRev	recallseqEngRev	10	doneCorsiEng	651	0	121	18:12:01	1765944	5	0	0	0	0	0	0	0	0	0	0	0	0	0	0	7	3
091812	18:12:01	10016	corsiblockEngRev	recallseqEngRev	10	9	1203	0	121	18:12:01	1774261	5	0	0	0	0	0	0	0	0	0	0	0	0	0	0	7	3
091812	18:12:01	10016	corsiblockEngRev	recallseqEngRev	10	3	874	0	121	18:12:01	1775180	5	0	0	0	0	0	0	0	0	0	0	0	0	0	0	7	3
091812	18:12:01	10016	corsiblockEngRev	recallseqEngRev	10	2	677	0	121	18:12:01	1775900	5	0	0	0	0	0	0	0	0	0	0	0	0	0	0	7	3
091812	18:12:01	10016	corsiblockEngRev	recallseqEngRev	10	8	647	0	121	18:12:01	1776593	5	0	0	0	0	0	0	0	0	0	0	0	0	0	0	7	3
091812	18:12:01	10016	corsiblockEngRev	recallseqEngRev	10	doneCorsiEng	781	0	121	18:12:01	1777433	5	0	0	0	0	0	0	0	0	0	0	0	0	0	0	7	4
091812	18:12:01	10016	corsiblockEngRev	recallseqEngRev	10	3	882	0	121	18:12:01	1786429	5	0	0	0	0	0	0	0	0	0	0	0	0	0	0	7	4
091812	18:12:01	10016	corsiblockEngRev	recallseqEngRev	10	5	536	0	121	18:12:01	1787003	5	0	0	0	0	0	0	0	0	0	0	0	0	0	0	7	4
091812	18:12:01	10016	corsiblockEngRev	recallseqEngRev	10	9	804	0	121	18:12:01	1787869	5	0	0	0	0	0	0	0	0	0	0	0	0	0	0	7	4
091812	18:12:01	10016	corsiblockEngRev	recallseqEngRev	10	7	520	0	121	18:12:01	1788459	5	0	0	0	0	0	0	0	0	0	0	0	0	0	0	7	4
091812	18:12:01	10016	corsiblockEngRev	recallseqEngRev	10	8	456	0	121	18:12:01	1788991	5	0	0	0	0	0	0	0	0	0	0	0	0	0	0	7	4
091812	18:12:01	10016	corsiblockEngRev	recallseqEngRev	10	doneCorsiEng	1162	0	121	18:12:01	1790188	5	0	0	0	0	0	0	0	0	0	0	0	0	0	0	7	4
091812	18:12:01	10016	corsiblockEngRev	recallseqEngRev	10	4	2261	0	121	18:12:01	1800517	5	0	0	0	0	0	0	0	0	0	0	0	0	0	0	7	4
091812	18:12:01	10016	corsiblockEngRev	recallseqEngRev	10	1	675	0	121	18:12:01	1801250	5	0	0	0	0	0	0	0	0	0	0	0	0	0	0	7	4
091812	18:12:01	10016	corsiblockEngRev	recallseqEngRev	10	2	695	0	121	18:12:01	1801983	5	0	0	0	0	0	0	0	0	0	0	0	0	0	0	7	4
091812	18:12:01	10016	corsiblockEngRev	recallseqEngRev	10	4	682	0	121	18:12:01	1802716	5	0	0	0	0	0	0	0	0	0	0	0	0	0	0	7	4
091812	18:12:01	10016	corsiblockEngRev	recallseqEngRev	10	6	604	0	121	18:12:01	1803382	5	0	0	0	0	0	0	0	0	0	0	0	0	0	0	7	4
091812	18:12:01	10016	corsiblockEngRev	recallseqEngRev	10	doneCorsiEng	1010	0	121	18:12:01	1804449	5	0	0	0	0	0	0	0	0	0	0	0	0	0	0	7	4
091812	18:12:01	10016	testEng3mo	WordsEng3mo	11	8Eng3mo	914	0	121	18:12:01	1828013	5	0	0	0	0	0	0	0	1	0	0	0	0	0	0	7	4
091812	18:12:01	10016	testEng3mo	WordsEng3mo	11	6Eng3mo	298	0	121	18:12:01	1828360	5	0	0	0	0	0	1	0	1	0	0	0	0	0	0	7	4
091812	18:12:01	10016	testEng3mo	WordsEng3mo	11	7Eng3mo	269	0	121	18:12:01	1828666	5	0	0	0	0	0	1	1	1	0	0	0	0	0	0	7	4
091812	18:12:01	10016	testEng3mo	WordsEng3mo	11	6Eng3mo	334	0	121	18:12:01	1829053	5	0	0	0	0	0	1	1	1	0	0	0	0	0	0	7	4
091812	18:12:01	10016	testEng3mo	WordsEng3mo	11	5Eng3mo	372	0	121	18:12:01	1829466	5	0	0	0	0	1	1	1	1	0	0	0	0	0	0	7	4
091812	18:12:01	10016	testEng3mo	WordsEng3mo	11	6Eng3mo	225	0	121	18:12:01	1829776	5	0	0	0	0	1	1	1	1	0	0	0	0	0	0	7	4
091812	18:12:01	10016	testEng3mo	WordsEng3mo	11	4Eng3mo	559	0	121	18:12:01	1830401	5	0	0	0	1	1	1	1	1	0	0	0	0	0	0	7	4
091812	18:12:01	10016	testEng3mo	WordsEng3mo	11	3Eng3mo	281	0	121	18:12:01	1830719	5	0	0	1	1	1	1	1	1	0	0	0	0	0	0	7	4
091812	18:12:01	10016	testEng3mo	WordsEng3mo	11	2Eng3mo	364	0	121	18:12:01	1831132	5	0	1	1	1	1	1	1	1	0	0	0	0	0	0	7	4
091812	18:12:01	10016	testEng3mo	WordsEng3mo	11	1Eng3mo	291	0	121	18:12:01	1831466	5	1	1	1	1	1	1	1	1	0	0	0	0	0	0	7	4
091812	18:12:01	10016	testEng3mo	WordsEng3mo	11	DoneEng3mo	15823	0	121	18:12:01	1847325	5	1	1	1	1	1	1	1	1	0	0	0	0	0	0	7	4
091812	18:12:01	10016	DigitSpanFwrdEng3mo	Score1FwrdEng3mo	12	DS1	4164	0	121	18:12:01	1862666	5	1	1	1	1	1	1	1	1	0	0	0	0	0	0	7	4
091812	18:12:01	10016	DigitSpanFwrdEng3mo	Gate1FwrdEng3mo	12	0	1	0	121	18:12:01	1862703	5	1	1	1	1	1	1	1	1	3	0	0	0	0	0	7	4
091812	18:12:01	10016	DigitSpanFwrdEng3mo	Score2FwrdEng3mo	12	DS1	3091	0	121	18:12:01	1872369	5	1	1	1	1	1	1	1	1	3	0	0	0	0	0	7	4
091812	18:12:01	10016	DigitSpanFwrdEng3mo	Gate3FwrdEng3mo	12	0	1	0	121	18:12:01	1872406	5	1	1	1	1	1	1	1	1	4	0	0	0	0	0	7	4
091812	18:12:01	10016	DigitSpanFwrdEng3mo	Score3FwrdEng3mo	12	DS1	4826	0	121	18:12:01	1885270	5	1	1	1	1	1	1	1	1	4	0	0	0	0	0	7	4
091812	18:12:01	10016	DigitSpanFwrdEng3mo	Gate5FwrdEng3mo	12	0	1	0	121	18:12:01	1885308	5	1	1	1	1	1	1	1	1	5	0	0	0	0	0	7	4
091812	18:12:01	10016	DigitSpanFwrdEng3mo	Score4FwrdEng3mo	12	DS1	4643	0	121	18:12:01	1899491	5	1	1	1	1	1	1	1	1	5	0	0	0	0	0	7	4
091812	18:12:01	10016	DigitSpanFwrdEng3mo	Gate7FwrdEng3mo	12	0	1	0	121	18:12:01	1899520	5	1	1	1	1	1	1	1	1	6	0	0	0	0	0	7	4
091812	18:12:01	10016	DigitSpanFwrdEng3mo	Score5FwrdEng3mo	12	DS1	4744	0	121	18:12:01	1915312	5	1	1	1	1	1	1	1	1	6	0	0	0	0	0	7	4
091812	18:12:01	10016	DigitSpanFwrdEng3mo	Gate9FwrdEng3mo	12	0	1	0	121	18:12:01	1915342	5	1	1	1	1	1	1	1	1	7	0	0	0	0	0	7	4
091812	18:12:01	10016	DigitSpanFwrdEng3mo	Score6FwrdEng3mo	12	DS1	4984	0	121	18:12:01	1933664	5	1	1	1	1	1	1	1	1	8	0	0	0	0	0	7	4
091812	18:12:01	10016	DigitSpanEng3mo	Score1Eng3mo	13	DS1	3648	0	121	18:12:01	1946899	5	1	1	1	1	1	1	1	1	8	0	0	0	0	0	7	4
091812	18:12:01	10016	DigitSpanEng3mo	Gate1Eng3mo	13	0	1	0	121	18:12:01	1946917	5	1	1	1	1	1	1	1	1	8	2	0	0	0	0	7	4
091812	18:12:01	10016	DigitSpanEng3mo	Score2Eng3mo	13	DS1	2979	0	121	18:12:01	1954843	5	1	1	1	1	1	1	1	1	8	2	0	0	0	0	7	4
091812	18:12:01	10016	DigitSpanEng3mo	Gate3Eng3mo	13	0	1	0	121	18:12:01	1954881	5	1	1	1	1	1	1	1	1	8	3	0	0	0	0	7	4
091812	18:12:01	10016	DigitSpanEng3mo	Score3Eng3mo	13	DS1	5626	0	121	18:12:01	1967078	5	1	1	1	1	1	1	1	1	8	3	0	0	0	0	7	4
091812	18:12:01	10016	DigitSpanEng3mo	Gate5Eng3mo	13	0	1	0	121	18:12:01	1967106	5	1	1	1	1	1	1	1	1	8	4	0	0	0	0	7	4
091812	18:12:01	10016	DigitSpanEng3mo	Score4Eng3mo	13	DS1	8559	0	121	18:12:01	1983725	5	1	1	1	1	1	1	1	1	8	4	0	0	0	0	7	4
091812	18:12:01	10016	DigitSpanEng3mo	Gate7Eng3mo	13	0	1	0	121	18:12:01	1983740	5	1	1	1	1	1	1	1	1	8	5	0	0	0	0	7	4
091812	18:12:01	10016	DigitSpanEng3mo	Score5Eng3mo	13	DS2	14646	0	121	18:12:01	2007928	5	1	1	1	1	1	1	1	1	8	5	0	0	0	0	7	4
091812	18:12:01	10016	DigitSpanEng3mo	Gate9Eng3mo	13	0	1	0	121	18:12:01	2007944	5	1	1	1	1	1	1	1	1	8	5	0	0	0	0	7	4
091812	18:12:01	10016	DigitSpanEng3mo	Score55Eng3mo	13	DS2	8895	0	121	18:12:01	2026441	5	1	1	1	1	1	1	1	1	8	5	0	0	0	0	7	4
091812	18:12:01	10016	Trial	ResponseIL	14	0	162	0	121	18:12:01	2139197	5	1	1	1	1	1	1	1	1	8	5	0	0	0	0	7	4
091812	18:12:01	10016	Trial	IncongruentLeft	14	203	296	1	121	18:12:01	2139520	5	1	1	1	1	1	1	1	1	8	5	0	0	0	0	7	4
091812	18:12:01	10016	Trial	ResponseCR	14	0	162	0	121	18:12:01	2140903	5	1	1	1	1	1	1	1	1	8	5	0	0	0	0	7	4
091812	18:12:01	10016	Trial	CongruentRight	14	205	189	1	121	18:12:01	2141120	5	1	1	1	1	1	1	1	1	8	5	0	0	0	0	7	4
091812	18:12:01	10016	Trial	ResponseIR	14	0	162	0	121	18:12:01	2142609	5	1	1	1	1	1	1	1	1	8	5	0	0	0	0	7	4
091812	18:12:01	10016	Trial	IncongruentRight	14	205	277	1	121	18:12:01	2142928	5	1	1	1	1	1	1	1	1	8	5	0	0	0	0	7	4
091812	18:12:01	10016	Trial	ResponseCL	14	0	162	0	121	18:12:01	2144315	5	1	1	1	1	1	1	1	1	8	5	0	0	0	0	7	4
091812	18:12:01	10016	Trial	CongruentLeft	14	203	122	1	121	18:12:01	2144464	5	1	1	1	1	1	1	1	1	8	5	0	0	0	0	7	4
091812	18:12:01	10016	Trial	ResponseCR	14	0	162	0	121	18:12:01	2146007	5	1	1	1	1	1	1	1	1	8	5	0	0	0	0	7	4
091812	18:12:01	10016	Trial	CongruentRight	14	205	304	1	121	18:12:01	2146352	5	1	1	1	1	1	1	1	1	8	5	0	0	0	0	7	4
091812	18:12:01	10016	Trial	ResponseIR	14	0	162	0	121	18:12:01	2147713	5	1	1	1	1	1	1	1	1	8	5	0	0	0	0	7	4
091812	18:12:01	10016	Trial	IncongruentRight	14	203	132	0	121	18:12:01	2147888	5	1	1	1	1	1	1	1	1	8	5	0	0	0	0	7	4
091812	18:12:01	10016	Trial	ResponseCL	14	0	162	0	121	18:12:01	2149433	5	1	1	1	1	1	1	1	1	8	5	0	0	0	0	7	4
091812	18:12:01	10016	Trial	CongruentLeft	14	203	186	1	121	18:12:01	2149648	5	1	1	1	1	1	1	1	1	8	5	0	0	0	0	7	4
091812	18:12:01	10016	Trial	ResponseIL	14	0	162	0	121	18:12:01	2151125	5	1	1	1	1	1	1	1	1	8	5	0	0	0	0	7	4
091812	18:12:01	10016	Trial	IncongruentLeft	14	203	318	1	121	18:12:01	2151472	5	1	1	1	1	1	1	1	1	8	5	0	0	0	0	7	4
091812	18:12:01	10016	Trial	ResponseIL	14	0	162	0	121	18:12:01	2152831	5	1	1	1	1	1	1	1	1	8	5	0	0	0	0	7	4
091812	18:12:01	10016	Trial	IncongruentLeft	14	203	295	1	121	18:12:01	2153168	5	1	1	1	1	1	1	1	1	8	5	0	0	0	0	7	4
091812	18:12:01	10016	Trial	ResponseCR	14	0	162	0	121	18:12:01	2154551	5	1	1	1	1	1	1	1	1	8	5	0	0	0	0	7	4
091812	18:12:01	10016	Trial	CongruentRight	14	205	136	1	121	18:12:01	2154720	5	1	1	1	1	1	1	1	1	8	5	0	0	0	0	7	4
091812	18:12:01	10016	Trial	ResponseIR	14	0	162	0	121	18:12:01	2156257	5	1	1	1	1	1	1	1	1	8	5	0	0	0	0	7	4
091812	18:12:01	10016	Trial	IncongruentRight	14	205	293	1	121	18:12:01	2156592	5	1	1	1	1	1	1	1	1	8	5	0	0	0	0	7	4
091812	18:12:01	10016	Trial	ResponseCL	14	0	162	0	121	18:12:01	2157963	5	1	1	1	1	1	1	1	1	8	5	0	0	0	0	7	4
091812	18:12:01	10016	Trial	CongruentLeft	14	203	197	1	121	18:12:01	2158192	5	1	1	1	1	1	1	1	1	8	5	0	0	0	0	7	4
091812	18:12:01	10016	Trial	ResponseCR	14	0	162	0	121	18:12:01	2159668	5	1	1	1	1	1	1	1	1	8	5	0	0	0	0	7	4
091812	18:12:01	10016	Trial	CongruentRight	14	205	175	1	121	18:12:01	2159872	5	1	1	1	1	1	1	1	1	8	5	0	0	0	0	7	4
091812	18:12:01	10016	Trial	ResponseIL	14	0	162	0	121	18:12:01	2161361	5	1	1	1	1	1	1	1	1	8	5	0	0	0	0	7	4
091812	18:12:01	10016	Trial	IncongruentLeft	14	203	220	1	121	18:12:01	2161616	5	1	1	1	1	1	1	1	1	8	5	0	0	0	0	7	4
091812	18:12:01	10016	Trial	ResponseIR	14	0	162	0	121	18:12:01	2163067	5	1	1	1	1	1	1	1	1	8	5	0	0	0	0	7	4
091812	18:12:01	10016	Trial	IncongruentRight	14	205	262	1	121	18:12:01	2163360	5	1	1	1	1	1	1	1	1	8	5	0	0	0	0	7	4
091812	18:12:01	10016	Trial	ResponseCR	14	0	162	0	121	18:12:01	2164773	5	1	1	1	1	1	1	1	1	8	5	0	0	0	0	7	4
091812	18:12:01	10016	Trial	CongruentRight	14	205	164	1	121	18:12:01	2164976	5	1	1	1	1	1	1	1	1	8	5	0	0	0	0	7	4
091812	18:12:01	10016	Trial	ResponseCL	14	0	162	0	121	18:12:01	2166479	5	1	1	1	1	1	1	1	1	8	5	0	0	0	0	7	4
091812	18:12:01	10016	Trial	CongruentLeft	14	203	166	1	121	18:12:01	2166688	5	1	1	1	1	1	1	1	1	8	5	0	0	0	0	7	4
091812	18:12:01	10016	Trial	ResponseCR	14	0	162	0	121	18:12:01	2168185	5	1	1	1	1	1	1	1	1	8	5	0	0	0	0	7	4
091812	18:12:01	10016	Trial	CongruentRight	14	205	159	1	121	18:12:01	2168384	5	1	1	1	1	1	1	1	1	8	5	0	0	0	0	7	4
091812	18:12:01	10016	Trial	ResponseIR	14	0	162	0	121	18:12:01	2169904	5	1	1	1	1	1	1	1	1	8	5	0	0	0	0	7	4
091812	18:12:01	10016	Trial	IncongruentRight	14	205	261	1	121	18:12:01	2170208	5	1	1	1	1	1	1	1	1	8	5	0	0	0	0	7	4
091812	18:12:01	10016	Trial	ResponseIL	14	0	162	0	121	18:12:01	2171610	5	1	1	1	1	1	1	1	1	8	5	0	0	0	0	7	4
091812	18:12:01	10016	Trial	IncongruentLeft	14	203	235	1	121	18:12:01	2171872	5	1	1	1	1	1	1	1	1	8	5	0	0	0	0	7	4
091812	18:12:01	10016	Trial	ResponseIL	14	0	162	0	121	18:12:01	2173317	5	1	1	1	1	1	1	1	1	8	5	0	0	0	0	7	4
091812	18:12:01	10016	Trial	IncongruentLeft	14	203	221	1	121	18:12:01	2173568	5	1	1	1	1	1	1	1	1	8	5	0	0	0	0	7	4
091812	18:12:01	10016	Trial	ResponseCL	14	0	162	0	121	18:12:01	2175009	5	1	1	1	1	1	1	1	1	8	5	0	0	0	0	7	4
091812	18:12:01	10016	Trial	CongruentLeft	14	203	128	1	121	18:12:01	2175169	5	1	1	1	1	1	1	1	1	8	5	0	0	0	0	7	4
091812	18:12:01	10016	Trial	ResponseCR	14	0	162	0	121	18:12:01	2176715	5	1	1	1	1	1	1	1	1	8	5	0	0	0	0	7	4
091812	18:12:01	10016	Trial	CongruentRight	14	205	183	1	121	18:12:01	2176928	5	1	1	1	1	1	1	1	1	8	5	0	0	0	0	7	4
091812	18:12:01	10016	Trial	ResponseIL	14	0	162	0	121	18:12:01	2178421	5	1	1	1	1	1	1	1	1	8	5	0	0	0	0	7	4
091812	18:12:01	10016	Trial	IncongruentLeft	14	203	243	1	121	18:12:01	2178704	5	1	1	1	1	1	1	1	1	8	5	0	0	0	0	7	4
091812	18:12:01	10016	Trial	ResponseIR	14	0	162	0	121	18:12:01	2180140	5	1	1	1	1	1	1	1	1	8	5	0	0	0	0	7	4
091812	18:12:01	10016	Trial	IncongruentRight	14	203	131	0	121	18:12:01	2180304	5	1	1	1	1	1	1	1	1	8	5	0	0	0	0	7	4
091812	18:12:01	10016	Trial	ResponseCR	14	0	162	0	121	18:12:01	2181846	5	1	1	1	1	1	1	1	1	8	5	0	0	0	0	7	4
091812	18:12:01	10016	Trial	CongruentRight	14	205	102	1	121	18:12:01	2181984	5	1	1	1	1	1	1	1	1	8	5	0	0	0	0	7	4
091812	18:12:01	10016	Trial	ResponseCL	14	0	162	0	121	18:12:01	2183552	5	1	1	1	1	1	1	1	1	8	5	0	0	0	0	7	4
091812	18:12:01	10016	Trial	CongruentLeft	14	203	165	1	121	18:12:01	2183759	5	1	1	1	1	1	1	1	1	8	5	0	0	0	0	7	4
091812	18:12:01	10016	Trial	ResponseIR	14	0	162	0	121	18:12:01	2185272	5	1	1	1	1	1	1	1	1	8	5	0	0	0	0	7	4
091812	18:12:01	10016	Trial	IncongruentRight	14	205	270	1	121	18:12:01	2185584	5	1	1	1	1	1	1	1	1	8	5	0	0	0	0	7	4
091812	18:12:01	10016	Trial	ResponseIL	14	0	162	0	121	18:12:01	2186991	5	1	1	1	1	1	1	1	1	8	5	0	0	0	0	7	4
091812	18:12:01	10016	Trial	IncongruentLeft	14	203	179	1	121	18:12:01	2187199	5	1	1	1	1	1	1	1	1	8	5	0	0	0	0	7	4
091812	18:12:01	10016	Trial	ResponseIR	14	0	162	0	121	18:12:01	2188684	5	1	1	1	1	1	1	1	1	8	5	0	0	0	0	7	4
091812	18:12:01	10016	Trial	IncongruentRight	14	205	281	1	121	18:12:01	2188992	5	1	1	1	1	1	1	1	1	8	5	0	0	0	0	7	4
091812	18:12:01	10016	Trial	ResponseCR	14	0	162	0	121	18:12:01	2190390	5	1	1	1	1	1	1	1	1	8	5	0	0	0	0	7	4
091812	18:12:01	10016	Trial	CongruentRight	14	205	142	1	121	18:12:01	2190559	5	1	1	1	1	1	1	1	1	8	5	0	0	0	0	7	4
091812	18:12:01	10016	Trial	ResponseIL	14	0	162	0	121	18:12:01	2192082	5	1	1	1	1	1	1	1	1	8	5	0	0	0	0	7	4
091812	18:12:01	10016	Trial	IncongruentLeft	14	203	214	1	121	18:12:01	2192336	5	1	1	1	1	1	1	1	1	8	5	0	0	0	0	7	4
091812	18:12:01	10016	Trial	ResponseCL	14	0	162	0	121	18:12:01	2193802	5	1	1	1	1	1	1	1	1	8	5	0	0	0	0	7	4
091812	18:12:01	10016	Trial	CongruentLeft	14	203	153	1	121	18:12:01	2193999	5	1	1	1	1	1	1	1	1	8	5	0	0	0	0	7	4
091812	18:12:01	10016	Trial	ResponseCR	14	0	162	0	121	18:12:01	2195508	5	1	1	1	1	1	1	1	1	8	5	0	0	0	0	7	4
091812	18:12:01	10016	Trial	CongruentRight	14	205	119	1	121	18:12:01	2195663	5	1	1	1	1	1	1	1	1	8	5	0	0	0	0	7	4
091812	18:12:01	10016	Trial	ResponseIL	14	0	162	0	121	18:12:01	2197214	5	1	1	1	1	1	1	1	1	8	5	0	0	0	0	7	4
091812	18:12:01	10016	Trial	IncongruentLeft	14	205	166	0	121	18:12:01	2197407	5	1	1	1	1	1	1	1	1	8	5	0	0	0	0	7	4
091812	18:12:01	10016	Trial	ResponseIR	14	0	162	0	121	18:12:01	2198906	5	1	1	1	1	1	1	1	1	8	5	0	0	0	0	7	4
091812	18:12:01	10016	Trial	IncongruentRight	14	205	307	1	121	18:12:01	2199247	5	1	1	1	1	1	1	1	1	8	5	0	0	0	0	7	4
091812	18:12:01	10016	Trial	ResponseIR	14	0	162	0	121	18:12:01	2200612	5	1	1	1	1	1	1	1	1	8	5	0	0	0	0	7	4
091812	18:12:01	10016	Trial	IncongruentRight	14	205	275	1	121	18:12:01	2200913	5	1	1	1	1	1	1	1	1	8	5	0	0	0	0	7	4
091812	18:12:01	10016	Trial	ResponseCL	14	0	162	0	121	18:12:01	2202305	5	1	1	1	1	1	1	1	1	8	5	0	0	0	0	7	4
091812	18:12:01	10016	Trial	CongruentLeft	14	203	103	1	121	18:12:01	2202447	5	1	1	1	1	1	1	1	1	8	5	0	0	0	0	7	4
091812	18:12:01	10016	Trial	ResponseIL	14	0	162	0	121	18:12:01	2204011	5	1	1	1	1	1	1	1	1	8	5	0	0	0	0	7	4
091812	18:12:01	10016	Trial	IncongruentLeft	14	203	222	1	121	18:12:01	2204271	5	1	1	1	1	1	1	1	1	8	5	0	0	0	0	7	4
091812	18:12:01	10016	Trial	ResponseCR	14	0	162	0	121	18:12:01	2205717	5	1	1	1	1	1	1	1	1	8	5	0	0	0	0	7	4
091812	18:12:01	10016	Trial	CongruentRight	14	205	181	1	121	18:12:01	2205935	5	1	1	1	1	1	1	1	1	8	5	0	0	0	0	7	4
091812	18:12:01	10016	Trial	ResponseCL	14	0	162	0	121	18:12:01	2207423	5	1	1	1	1	1	1	1	1	8	5	0	0	0	0	7	4
091812	18:12:01	10016	Trial	CongruentLeft	14	203	118	1	121	18:12:01	2207567	5	1	1	1	1	1	1	1	1	8	5	0	0	0	0	7	4
091812	18:12:01	10016	Trial	ResponseIR	14	0	162	0	121	18:12:01	2209116	5	1	1	1	1	1	1	1	1	8	5	0	0	0	0	7	4
091812	18:12:01	10016	Trial	IncongruentRight	14	203	205	0	121	18:12:01	2209359	5	1	1	1	1	1	1	1	1	8	5	0	0	0	0	7	4
091812	18:12:01	10016	Trial	ResponseCR	14	0	162	0	121	18:12:01	2210822	5	1	1	1	1	1	1	1	1	8	5	0	0	0	0	7	4
091812	18:12:01	10016	Trial	CongruentRight	14	205	175	1	121	18:12:01	2211023	5	1	1	1	1	1	1	1	1	8	5	0	0	0	0	7	4
091812	18:12:01	10016	Trial	ResponseIL	14	0	162	0	121	18:12:01	2212528	5	1	1	1	1	1	1	1	1	8	5	0	0	0	0	7	4
091812	18:12:01	10016	Trial	IncongruentLeft	14	203	213	1	121	18:12:01	2212783	5	1	1	1	1	1	1	1	1	8	5	0	0	0	0	7	4
091812	18:12:01	10016	Trial	ResponseCL	14	0	162	0	121	18:12:01	2214247	5	1	1	1	1	1	1	1	1	8	5	0	0	0	0	7	4
091812	18:12:01	10016	Trial	CongruentLeft	14	203	190	1	121	18:12:01	2214463	5	1	1	1	1	1	1	1	1	8	5	0	0	0	0	7	4
091812	18:12:01	10016	Trial	ResponseIL	14	0	162	0	121	18:12:01	2215953	5	1	1	1	1	1	1	1	1	8	5	0	0	0	0	7	4
091812	18:12:01	10016	Trial	IncongruentLeft	14	203	433	1	121	18:12:01	2216414	5	1	1	1	1	1	1	1	1	8	5	0	0	0	0	7	4
091812	18:12:01	10016	Trial	ResponseIR	14	0	162	0	121	18:12:01	2217672	5	1	1	1	1	1	1	1	1	8	5	0	0	0	0	7	4
091812	18:12:01	10016	Trial	IncongruentRight	14	205	176	1	121	18:12:01	2217887	5	1	1	1	1	1	1	1	1	8	5	0	0	0	0	7	4
091812	18:12:01	10016	Trial	ResponseCR	14	0	162	0	121	18:12:01	2219379	5	1	1	1	1	1	1	1	1	8	5	0	0	0	0	7	4
091812	18:12:01	10016	Trial	CongruentRight	14	205	147	1	121	18:12:01	2219567	5	1	1	1	1	1	1	1	1	8	5	0	0	0	0	7	4
091812	18:12:01	10016	Trial	ResponseCL	14	0	162	0	121	18:12:01	2221098	5	1	1	1	1	1	1	1	1	8	5	0	0	0	0	7	4
091812	18:12:01	10016	Trial	CongruentLeft	14	203	117	1	121	18:12:01	2221247	5	1	1	1	1	1	1	1	1	8	5	0	0	0	0	7	4
091812	18:12:01	10016	Trial	ResponseCL	14	0	162	0	121	18:12:01	2222804	5	1	1	1	1	1	1	1	1	8	5	0	0	0	0	7	4
091812	18:12:01	10016	Trial	CongruentLeft	14	203	89	1	121	18:12:01	2222927	5	1	1	1	1	1	1	1	1	8	5	0	0	0	0	7	4
091812	18:12:01	10016	Trial	ResponseIR	14	0	162	0	121	18:12:01	2224497	5	1	1	1	1	1	1	1	1	8	5	0	0	0	0	7	4
091812	18:12:01	10016	Trial	IncongruentRight	14	205	210	1	121	18:12:01	2224735	5	1	1	1	1	1	1	1	1	8	5	0	0	0	0	7	4
091812	18:12:01	10016	Trial	ResponseIL	14	0	162	0	121	18:12:01	2226189	5	1	1	1	1	1	1	1	1	8	5	0	0	0	0	7	4
091812	18:12:01	10016	Trial	IncongruentLeft	14	203	267	1	121	18:12:01	2226495	5	1	1	1	1	1	1	1	1	8	5	0	0	0	0	7	4
091812	18:12:01	10016	Trial	ResponseIR	14	0	162	0	121	18:12:01	2227895	5	1	1	1	1	1	1	1	1	8	5	0	0	0	0	7	4
091812	18:12:01	10016	Trial	IncongruentRight	14	205	172	1	121	18:12:01	2228095	5	1	1	1	1	1	1	1	1	8	5	0	0	0	0	7	4
091812	18:12:01	10016	Trial	ResponseCR	14	0	162	0	121	18:12:01	2229601	5	1	1	1	1	1	1	1	1	8	5	0	0	0	0	7	4
091812	18:12:01	10016	Trial	CongruentRight	14	205	127	1	121	18:12:01	2229775	5	1	1	1	1	1	1	1	1	8	5	0	0	0	0	7	4
091812	18:12:01	10016	Trial	ResponseCR	14	0	162	0	121	18:12:01	2231307	5	1	1	1	1	1	1	1	1	8	5	0	0	0	0	7	4
091812	18:12:01	10016	Trial	CongruentRight	14	205	204	1	121	18:12:01	2231551	5	1	1	1	1	1	1	1	1	8	5	0	0	0	0	7	4
091812	18:12:01	10016	Trial	ResponseIL	14	0	162	0	121	18:12:01	2233027	5	1	1	1	1	1	1	1	1	8	5	0	0	0	0	7	4
091812	18:12:01	10016	Trial	IncongruentLeft	14	203	163	1	121	18:12:01	2233231	5	1	1	1	1	1	1	1	1	8	5	0	0	0	0	7	4
091812	18:12:01	10016	Trial	ResponseCL	14	0	162	0	121	18:12:01	2234746	5	1	1	1	1	1	1	1	1	8	5	0	0	0	0	7	4
091812	18:12:01	10016	Trial	CongruentLeft	14	203	137	1	121	18:12:01	2234911	5	1	1	1	1	1	1	1	1	8	5	0	0	0	0	7	4
091812	18:12:01	10016	Trial	ResponseCR	14	0	162	0	121	18:12:01	2236452	5	1	1	1	1	1	1	1	1	8	5	0	0	0	0	7	4
091812	18:12:01	10016	Trial	CongruentRight	14	205	145	1	121	18:12:01	2236623	5	1	1	1	1	1	1	1	1	8	5	0	0	0	0	7	4
091812	18:12:01	10016	Trial	ResponseCL	14	0	162	0	121	18:12:01	2238144	5	1	1	1	1	1	1	1	1	8	5	0	0	0	0	7	4
091812	18:12:01	10016	Trial	CongruentLeft	14	203	126	1	121	18:12:01	2238303	5	1	1	1	1	1	1	1	1	8	5	0	0	0	0	7	4
091812	18:12:01	10016	Trial	ResponseIR	14	0	162	0	121	18:12:01	2239850	5	1	1	1	1	1	1	1	1	8	5	0	0	0	0	7	4
091812	18:12:01	10016	Trial	IncongruentRight	14	203	136	0	121	18:12:01	2240015	5	1	1	1	1	1	1	1	1	8	5	0	0	0	0	7	4
091812	18:12:01	10016	Trial	ResponseCR	14	0	162	0	121	18:12:01	2241543	5	1	1	1	1	1	1	1	1	8	5	0	0	0	0	7	4
091812	18:12:01	10016	Trial	CongruentRight	14	205	173	1	121	18:12:01	2241743	5	1	1	1	1	1	1	1	1	8	5	0	0	0	0	7	4
091812	18:12:01	10016	Trial	ResponseCL	14	0	162	0	121	18:12:01	2243249	5	1	1	1	1	1	1	1	1	8	5	0	0	0	0	7	4
091812	18:12:01	10016	Trial	CongruentLeft	14	203	176	1	121	18:12:01	2243455	5	1	1	1	1	1	1	1	1	8	5	0	0	0	0	7	4
091812	18:12:01	10016	Trial	ResponseIL	14	0	162	0	121	18:12:01	2244955	5	1	1	1	1	1	1	1	1	8	5	0	0	0	0	7	4
091812	18:12:01	10016	Trial	IncongruentLeft	14	205	113	0	121	18:12:01	2245103	5	1	1	1	1	1	1	1	1	8	5	0	0	0	0	7	4
091812	18:12:01	10016	Trial	ResponseIL	14	0	162	0	121	18:12:01	2246661	5	1	1	1	1	1	1	1	1	8	5	0	0	0	0	7	4
091812	18:12:01	10016	Trial	IncongruentLeft	14	205	112	0	121	18:12:01	2246815	5	1	1	1	1	1	1	1	1	8	5	0	0	0	0	7	4
091812	18:12:01	10016	Trial	ResponseCR	14	0	162	0	121	18:12:01	2248367	5	1	1	1	1	1	1	1	1	8	5	0	0	0	0	7	4
091812	18:12:01	10016	Trial	CongruentRight	14	205	90	1	121	18:12:01	2248495	5	1	1	1	1	1	1	1	1	8	5	0	0	0	0	7	4
091812	18:12:01	10016	Trial	ResponseIR	14	0	162	0	121	18:12:01	2250073	5	1	1	1	1	1	1	1	1	8	5	0	0	0	0	7	4
091812	18:12:01	10016	Trial	IncongruentRight	14	203	111	0	121	18:12:01	2250223	5	1	1	1	1	1	1	1	1	8	5	0	0	0	0	7	4
091812	18:12:01	10016	Trial	ResponseCL	14	0	162	0	121	18:12:01	2251779	5	1	1	1	1	1	1	1	1	8	5	0	0	0	0	7	4
091812	18:12:01	10016	Trial	CongruentLeft	14	203	124	1	121	18:12:01	2251935	5	1	1	1	1	1	1	1	1	8	5	0	0	0	0	7	4
091812	18:12:01	10016	Trial	ResponseIR	14	0	162	0	121	18:12:01	2253485	5	1	1	1	1	1	1	1	1	8	5	0	0	0	0	7	4
091812	18:12:01	10016	Trial	IncongruentRight	14	205	278	1	121	18:12:01	2253791	5	1	1	1	1	1	1	1	1	8	5	0	0	0	0	7	4
091812	18:12:01	10016	Trial	ResponseCR	14	0	162	0	121	18:12:01	2255191	5	1	1	1	1	1	1	1	1	8	5	0	0	0	0	7	4
091812	18:12:01	10016	Trial	CongruentRight	14	205	161	1	121	18:12:01	2255391	5	1	1	1	1	1	1	1	1	8	5	0	0	0	0	7	4
091812	18:12:01	10016	Trial	ResponseIL	14	0	162	0	121	18:12:01	2256897	5	1	1	1	1	1	1	1	1	8	5	0	0	0	0	7	4
091812	18:12:01	10016	Trial	IncongruentLeft	14	203	208	1	121	18:12:01	2257135	5	1	1	1	1	1	1	1	1	8	5	0	0	0	0	7	4
091812	18:12:01	10016	Trial	ResponseCL	14	0	162	0	121	18:12:01	2258603	5	1	1	1	1	1	1	1	1	8	5	0	0	0	0	7	4
091812	18:12:01	10016	Trial	CongruentLeft	14	203	200	1	121	18:12:01	2258831	5	1	1	1	1	1	1	1	1	8	5	0	0	0	0	7	4
091812	18:12:01	10016	Trial	ResponseCR	14	0	162	0	121	18:12:01	2260296	5	1	1	1	1	1	1	1	1	8	5	0	0	0	0	7	4
091812	18:12:01	10016	Trial	CongruentRight	14	205	122	1	121	18:12:01	2260447	5	1	1	1	1	1	1	1	1	8	5	0	0	0	0	7	4
091812	18:12:01	10016	Trial	ResponseIL	14	0	162	0	121	18:12:01	2261988	5	1	1	1	1	1	1	1	1	8	5	0	0	0	0	7	4
091812	18:12:01	10016	Trial	IncongruentLeft	14	203	256	1	121	18:12:01	2262287	5	1	1	1	1	1	1	1	1	8	5	0	0	0	0	7	4
091812	18:12:01	10016	Trial	ResponseCR	14	0	162	0	121	18:12:01	2263694	5	1	1	1	1	1	1	1	1	8	5	0	0	0	0	7	4
091812	18:12:01	10016	Trial	CongruentRight	14	205	160	1	121	18:12:01	2263887	5	1	1	1	1	1	1	1	1	8	5	0	0	0	0	7	4
091812	18:12:01	10016	Trial	ResponseCR	14	0	162	0	121	18:12:01	2265400	5	1	1	1	1	1	1	1	1	8	5	0	0	0	0	7	4
091812	18:12:01	10016	Trial	CongruentRight	14	205	174	1	121	18:12:01	2265615	5	1	1	1	1	1	1	1	1	8	5	0	0	0	0	7	4
091812	18:12:01	10016	Trial	ResponseIR	14	0	162	0	121	18:12:01	2267106	5	1	1	1	1	1	1	1	1	8	5	0	0	0	0	7	4
091812	18:12:01	10016	Trial	IncongruentRight	14	203	128	0	121	18:12:01	2267279	5	1	1	1	1	1	1	1	1	8	5	0	0	0	0	7	4
091812	18:12:01	10016	Trial	ResponseCL	14	0	162	0	121	18:12:01	2268826	5	1	1	1	1	1	1	1	1	8	5	0	0	0	0	7	4
091812	18:12:01	10016	Trial	CongruentLeft	14	203	105	1	121	18:12:01	2268958	5	1	1	1	1	1	1	1	1	8	5	0	0	0	0	7	4
091812	18:12:01	10016	Trial	ResponseIL	14	0	162	0	121	18:12:01	2270532	5	1	1	1	1	1	1	1	1	8	5	0	0	0	0	7	4
091812	18:12:01	10016	Trial	IncongruentLeft	14	205	156	0	121	18:12:01	2270719	5	1	1	1	1	1	1	1	1	8	5	0	0	0	0	7	4
091812	18:12:01	10016	Trial	ResponseCL	14	0	162	0	121	18:12:01	2272224	5	1	1	1	1	1	1	1	1	8	5	0	0	0	0	7	4
091812	18:12:01	10016	Trial	CongruentLeft	14	203	179	1	121	18:12:01	2272431	5	1	1	1	1	1	1	1	1	8	5	0	0	0	0	7	4
091812	18:12:01	10016	Trial	ResponseIR	14	0	162	0	121	18:12:01	2273917	5	1	1	1	1	1	1	1	1	8	5	0	0	0	0	7	4
091812	18:12:01	10016	Trial	IncongruentRight	14	205	215	1	121	18:12:01	2274175	5	1	1	1	1	1	1	1	1	8	5	0	0	0	0	7	4
091812	18:12:01	10016	Trial	ResponseIL	14	0	162	0	121	18:12:01	2275636	5	1	1	1	1	1	1	1	1	8	5	0	0	0	0	7	4
091812	18:12:01	10016	Trial	IncongruentLeft	14	203	234	1	121	18:12:01	2275902	5	1	1	1	1	1	1	1	1	8	5	0	0	0	0	7	4
091812	18:12:01	10016	Trial	ResponseCR	14	0	162	0	121	18:12:01	2277329	5	1	1	1	1	1	1	1	1	8	5	0	0	0	0	7	4
091812	18:12:01	10016	Trial	CongruentRight	14	205	144	1	121	18:12:01	2277503	5	1	1	1	1	1	1	1	1	8	5	0	0	0	0	7	4
091812	18:12:01	10016	Trial	ResponseCL	14	0	162	0	121	18:12:01	2279022	5	1	1	1	1	1	1	1	1	8	5	0	0	0	0	7	4
091812	18:12:01	10016	Trial	CongruentLeft	14	203	155	1	121	18:12:01	2279214	5	1	1	1	1	1	1	1	1	8	5	0	0	0	0	7	4
091812	18:12:01	10016	Trial	ResponseIL	14	0	162	0	121	18:12:01	2280728	5	1	1	1	1	1	1	1	1	8	5	0	0	0	0	7	4
091812	18:12:01	10016	Trial	IncongruentLeft	14	203	284	1	121	18:12:01	2281038	5	1	1	1	1	1	1	1	1	8	5	0	0	0	0	7	4
091812	18:12:01	10016	Trial	ResponseCL	14	0	162	0	121	18:12:01	2282420	5	1	1	1	1	1	1	1	1	8	5	0	0	0	0	7	4
091812	18:12:01	10016	Trial	CongruentLeft	14	203	172	1	121	18:12:01	2282622	5	1	1	1	1	1	1	1	1	8	5	0	0	0	0	7	4
091812	18:12:01	10016	Trial	ResponseIR	14	0	162	0	121	18:12:01	2284113	5	1	1	1	1	1	1	1	1	8	5	0	0	0	0	7	4
091812	18:12:01	10016	Trial	IncongruentRight	14	205	205	1	121	18:12:01	2284350	5	1	1	1	1	1	1	1	1	8	5	0	0	0	0	7	4
091812	18:12:01	10016	Trial	ResponseCR	14	0	162	0	121	18:12:01	2285819	5	1	1	1	1	1	1	1	1	8	5	0	0	0	0	7	4
091812	18:12:01	10016	Trial	CongruentRight	14	205	168	1	121	18:12:01	2286030	5	1	1	1	1	1	1	1	1	8	5	0	0	0	0	7	4
091812	18:12:01	10016	Trial	ResponseIL	14	0	162	0	121	18:12:01	2287525	5	1	1	1	1	1	1	1	1	8	5	0	0	0	0	7	4
091812	18:12:01	10016	Trial	IncongruentLeft	14	203	236	1	121	18:12:01	2287790	5	1	1	1	1	1	1	1	1	8	5	0	0	0	0	7	4
091812	18:12:01	10016	Trial	ResponseCL	14	0	162	0	121	18:12:01	2289231	5	1	1	1	1	1	1	1	1	8	5	0	0	0	0	7	4
091812	18:12:01	10016	Trial	CongruentLeft	14	203	205	1	121	18:12:01	2289470	5	1	1	1	1	1	1	1	1	8	5	0	0	0	0	7	4
091812	18:12:01	10016	Trial	ResponseIR	14	0	162	0	121	18:12:01	2290924	5	1	1	1	1	1	1	1	1	8	5	0	0	0	0	7	4
091812	18:12:01	10016	Trial	IncongruentRight	14	205	232	1	121	18:12:01	2291182	5	1	1	1	1	1	1	1	1	8	5	0	0	0	0	7	4
091812	18:12:01	10016	Trial	ResponseIL	14	0	162	0	121	18:12:01	2292630	5	1	1	1	1	1	1	1	1	8	5	0	0	0	0	7	4
091812	18:12:01	10016	Trial	IncongruentLeft	14	203	188	1	121	18:12:01	2292862	5	1	1	1	1	1	1	1	1	8	5	0	0	0	0	7	4
091812	18:12:01	10016	Trial	ResponseCL	14	0	162	0	121	18:12:01	2294349	5	1	1	1	1	1	1	1	1	8	5	0	0	0	0	7	4
091812	18:12:01	10016	Trial	CongruentLeft	14	203	196	1	121	18:12:01	2294574	5	1	1	1	1	1	1	1	1	8	5	0	0	0	0	7	4
091812	18:12:01	10016	Trial	ResponseIL	14	0	162	0	121	18:12:01	2296042	5	1	1	1	1	1	1	1	1	8	5	0	0	0	0	7	4
091812	18:12:01	10016	Trial	IncongruentLeft	14	205	153	0	121	18:12:01	2296238	5	1	1	1	1	1	1	1	1	8	5	0	0	0	0	7	4
091812	18:12:01	10016	Trial	ResponseCR	14	0	162	0	121	18:12:01	2297761	5	1	1	1	1	1	1	1	1	8	5	0	0	0	0	7	4
091812	18:12:01	10016	Trial	CongruentRight	14	205	129	1	121	18:12:01	2297918	5	1	1	1	1	1	1	1	1	8	5	0	0	0	0	7	4
091812	18:12:01	10016	Trial	ResponseCL	14	0	162	0	121	18:12:01	2299454	5	1	1	1	1	1	1	1	1	8	5	0	0	0	0	7	4
091812	18:12:01	10016	Trial	CongruentLeft	14	203	141	1	121	18:12:01	2299630	5	1	1	1	1	1	1	1	1	8	5	0	0	0	0	7	4
091812	18:12:01	10016	Trial	ResponseIR	14	0	162	0	121	18:12:01	2301160	5	1	1	1	1	1	1	1	1	8	5	0	0	0	0	7	4
091812	18:12:01	10016	Trial	IncongruentRight	14	205	272	1	121	18:12:01	2301470	5	1	1	1	1	1	1	1	1	8	5	0	0	0	0	7	4
091812	18:12:01	10016	Trial	ResponseCL	14	0	162	0	121	18:12:01	2302866	5	1	1	1	1	1	1	1	1	8	5	0	0	0	0	7	4
091812	18:12:01	10016	Trial	CongruentLeft	14	203	163	1	121	18:12:01	2303070	5	1	1	1	1	1	1	1	1	8	5	0	0	0	0	7	4
091812	18:12:01	10016	Trial	ResponseCR	14	0	162	0	121	18:12:01	2304585	5	1	1	1	1	1	1	1	1	8	5	0	0	0	0	7	4
091812	18:12:01	10016	Trial	CongruentRight	14	205	149	1	121	18:12:01	2304766	5	1	1	1	1	1	1	1	1	8	5	0	0	0	0	7	4
091812	18:12:01	10016	Trial	ResponseIL	14	0	162	0	121	18:12:01	2306291	5	1	1	1	1	1	1	1	1	8	5	0	0	0	0	7	4
091812	18:12:01	10016	Trial	IncongruentLeft	14	203	269	1	121	18:12:01	2306590	5	1	1	1	1	1	1	1	1	8	5	0	0	0	0	7	4
091812	18:12:01	10016	WordsAbsEng3mo	PAbsEng3mo1	16	Abs1	4655	0	121	18:12:01	2319446	5	1	1	1	1	1	1	1	1	8	5	0	0	0	0	7	4
091812	18:12:01	10016	WordsAbsEng3mo	AbsEng3mo1	16	Abs1	3027	0	121	18:12:01	2322511	5	1	1	1	1	1	1	1	1	8	5	1	0	0	0	7	4
091812	18:12:01	10016	WordsAbsEng3mo	AbsEng3mo2	16	Abs1	5955	0	121	18:12:01	2328522	5	1	1	1	1	1	1	1	1	8	5	2	0	0	0	7	4
091812	18:12:01	10016	WordsAbsEng3mo	AbsEng3mo3	16	Abs1	4759	0	121	18:12:01	2333334	5	1	1	1	1	1	1	1	1	8	5	3	0	0	0	7	4
091812	18:12:01	10016	Trial2BackEngS	NS	17	0	1000	1	121	18:12:01	2369786	5	1	1	1	1	1	1	1	1	8	5	3	0	0	0	7	4
091812	18:12:01	10016	Trial2BackEngS	NS	17	0	1000	1	121	18:12:01	2371305	5	1	1	1	1	1	1	1	1	8	5	3	0	0	0	7	4
091812	18:12:01	10016	Trial2BackEngS	NS	17	0	1000	1	121	18:12:01	2372825	5	1	1	1	1	1	1	1	1	8	5	3	0	0	0	7	4
091812	18:12:01	10016	Trial2BackEngS	YS	17	57	985	1	121	18:12:01	2374357	5	1	1	1	1	1	1	1	1	8	5	3	0	0	0	7	4
091812	18:12:01	10016	Trial2BackEngS	NS	17	0	1000	1	121	18:12:01	2375877	5	1	1	1	1	1	1	1	1	8	5	3	0	0	0	7	4
091812	18:12:01	10016	Trial2BackEngS	NS	17	0	1000	1	121	18:12:01	2377396	5	1	1	1	1	1	1	1	1	8	5	3	0	0	0	7	4
091812	18:12:01	10016	Trial2BackEngS	NS	17	0	1000	1	121	18:12:01	2378942	5	1	1	1	1	1	1	1	1	8	5	3	0	0	0	7	4
091812	18:12:01	10016	Trial2BackEngS	NS	17	0	1000	1	121	18:12:01	2380475	5	1	1	1	1	1	1	1	1	8	5	3	0	0	0	7	4
091812	18:12:01	10016	Trial2BackEngS	YS	17	57	682	1	121	18:12:01	2381688	5	1	1	1	1	1	1	1	1	8	5	3	0	0	0	7	4
091812	18:12:01	10016	Trial2BackEngS	NS	17	0	1000	1	121	18:12:01	2383500	5	1	1	1	1	1	1	1	1	8	5	3	0	0	0	7	4
091812	18:12:01	10016	Trial2BackEngS	NS	17	0	1000	1	121	18:12:01	2385020	5	1	1	1	1	1	1	1	1	8	5	3	0	0	0	7	4
091812	18:12:01	10016	Trial2BackEngS	YS	17	0	1000	0	121	18:12:01	2386539	5	1	1	1	1	1	1	1	1	8	5	3	0	0	0	7	4
091812	18:12:01	10016	Trial2BackEngS	NS	17	0	1000	1	121	18:12:01	2388085	5	1	1	1	1	1	1	1	1	8	5	3	0	0	0	7	4
091812	18:12:01	10016	Trial2BackEngS	NS	17	0	1000	1	121	18:12:01	2389605	5	1	1	1	1	1	1	1	1	8	5	3	0	0	0	7	4
091812	18:12:01	10016	Trial2BackEngS	NS	17	0	1000	1	121	18:12:01	2391137	5	1	1	1	1	1	1	1	1	8	5	3	0	0	0	7	4
091812	18:12:01	10016	Trial2BackEngS	YS	17	0	1000	0	121	18:12:01	2392657	5	1	1	1	1	1	1	1	1	8	5	3	0	0	0	7	4
091812	18:12:01	10016	Trial2BackEngS	NS	17	0	1000	1	121	18:12:01	2394189	5	1	1	1	1	1	1	1	1	8	5	3	0	0	0	7	4
091812	18:12:01	10016	Trial2BackEngS	NS	17	0	1000	1	121	18:12:01	2395709	5	1	1	1	1	1	1	1	1	8	5	3	0	0	0	7	4
091812	18:12:01	10016	Trial2BackEngS	NS	17	0	1000	1	121	18:12:01	2397231	5	1	1	1	1	1	1	1	1	8	5	3	0	0	0	7	4
091812	18:12:01	10016	Trial2BackEngS	NS	17	0	1000	1	121	18:12:01	2398748	5	1	1	1	1	1	1	1	1	8	5	3	0	0	0	7	4
091812	18:12:01	10016	Trial2BackEngS	YS	17	57	537	1	121	18:12:01	2399841	5	1	1	1	1	1	1	1	1	8	5	3	0	0	0	7	4
091812	18:12:01	10016	Trial2BackEngS	NS	17	0	1000	1	121	18:12:01	2401813	5	1	1	1	1	1	1	1	1	8	5	3	0	0	0	7	4
091812	18:12:01	10016	Trial2BackEngS	NS	17	0	1000	1	121	18:12:01	2403346	5	1	1	1	1	1	1	1	1	8	5	3	0	0	0	7	4
091812	18:12:01	10016	Trial2BackEngS	NS	17	0	1000	1	121	18:12:01	2404865	5	1	1	1	1	1	1	1	1	8	5	3	0	0	0	7	4
091812	18:12:01	10016	Trial2BackEngS	NS	17	57	563	0	121	18:12:01	2405972	5	1	1	1	1	1	1	1	1	8	5	3	0	0	0	7	4
091812	18:12:01	10016	Trial2BackEngS	NS	17	0	1000	1	121	18:12:01	2407904	5	1	1	1	1	1	1	1	1	8	5	3	0	0	0	7	4
091812	18:12:01	10016	Trial2BackEngS	NS	17	0	1000	1	121	18:12:01	2409423	5	1	1	1	1	1	1	1	1	8	5	3	0	0	0	7	4
091812	18:12:01	10016	Trial2BackEngS	NS	17	0	1000	1	121	18:12:01	2410970	5	1	1	1	1	1	1	1	1	8	5	3	0	0	0	7	4
091812	18:12:01	10016	Trial2BackEngS	NS	17	0	1000	1	121	18:12:01	2412489	5	1	1	1	1	1	1	1	1	8	5	3	0	0	0	7	4
091812	18:12:01	10016	Trial2BackEngS	NS	17	0	1000	1	121	18:12:01	2414008	5	1	1	1	1	1	1	1	1	8	5	3	0	0	0	7	4
091812	18:12:01	10016	Trial2BackEngS	NS	17	0	1000	1	121	18:12:01	2415541	5	1	1	1	1	1	1	1	1	8	5	3	0	0	0	7	4
091812	18:12:01	10016	Trial2BackEngS	YS	17	57	314	1	121	18:12:01	2416394	5	1	1	1	1	1	1	1	1	8	5	3	0	0	0	7	4
091812	18:12:01	10016	Trial2BackEngS	NS	17	0	1000	1	121	18:12:01	2418580	5	1	1	1	1	1	1	1	1	8	5	3	0	0	0	7	4
091812	18:12:01	10016	Trial2BackEngS	NS	17	0	1000	1	121	18:12:01	2420099	5	1	1	1	1	1	1	1	1	8	5	3	0	0	0	7	4
091812	18:12:01	10016	Trial2BackEngS	NS	17	0	1000	1	121	18:12:01	2421619	5	1	1	1	1	1	1	1	1	8	5	3	0	0	0	7	4
091812	18:12:01	10016	Trial2BackEngS	YS	17	57	690	1	121	18:12:01	2422858	5	1	1	1	1	1	1	1	1	8	5	3	0	0	0	7	4
091812	18:12:01	10016	Trial2BackEngS	NS	17	0	1000	1	121	18:12:01	2424658	5	1	1	1	1	1	1	1	1	8	5	3	0	0	0	7	4
091812	18:12:01	10016	Trial2BackEngS	NS	17	0	1000	1	121	18:12:01	2426177	5	1	1	1	1	1	1	1	1	8	5	3	0	0	0	7	4
091812	18:12:01	10016	Trial2BackEngS	NS	17	0	1000	1	121	18:12:01	2427696	5	1	1	1	1	1	1	1	1	8	5	3	0	0	0	7	4
091812	18:12:01	10016	Trial2BackEngS	NS	17	0	1000	1	121	18:12:01	2429229	5	1	1	1	1	1	1	1	1	8	5	3	0	0	0	7	4
091812	18:12:01	10016	Trial2BackEngS	NS	17	0	1000	1	121	18:12:01	2430748	5	1	1	1	1	1	1	1	1	8	5	3	0	0	0	7	4
091812	18:12:01	10016	Trial2BackEngS	NS	17	0	1000	1	121	18:12:01	2432268	5	1	1	1	1	1	1	1	1	8	5	3	0	0	0	7	4
091812	18:12:01	10016	Trial2BackEngS	NS	17	0	1000	1	121	18:12:01	2433787	5	1	1	1	1	1	1	1	1	8	5	3	0	0	0	7	4
091812	18:12:01	10016	Trial2BackEngS	YS	17	57	440	1	121	18:12:01	2434760	5	1	1	1	1	1	1	1	1	8	5	3	0	0	0	7	4
091812	18:12:01	10016	Trial2BackEngS	NS	17	0	1000	1	121	18:12:01	2436813	5	1	1	1	1	1	1	1	1	8	5	3	0	0	0	7	4
091812	18:12:01	10016	Trial2BackEngS	NS	17	0	1000	1	121	18:12:01	2438345	5	1	1	1	1	1	1	1	1	8	5	3	0	0	0	7	4
091812	18:12:01	10016	Trial2BackEngS	NS	17	0	1000	1	121	18:12:01	2439865	5	1	1	1	1	1	1	1	1	8	5	3	0	0	0	7	4
091812	18:12:01	10016	Trial2BackEngS	NS	17	0	1000	1	121	18:12:01	2441384	5	1	1	1	1	1	1	1	1	8	5	3	0	0	0	7	4
091812	18:12:01	10016	Trial2BackEngS	YS	17	57	553	1	121	18:12:01	2442464	5	1	1	1	1	1	1	1	1	8	5	3	0	0	0	7	4
091812	18:12:01	10016	Trial2BackEngS	NS	17	0	1000	1	121	18:12:01	2444410	5	1	1	1	1	1	1	1	1	8	5	3	0	0	0	7	4
091812	18:12:01	10016	Trial2BackEngS	NS	17	0	1000	1	121	18:12:01	2445929	5	1	1	1	1	1	1	1	1	8	5	3	0	0	0	7	4
091812	18:12:01	10016	Trial2BackEngS	NS	17	0	1000	1	121	18:12:01	2447475	5	1	1	1	1	1	1	1	1	8	5	3	0	0	0	7	4
091812	18:12:01	10016	Trial2BackEngS	NS	17	0	1000	1	121	18:12:01	2448995	5	1	1	1	1	1	1	1	1	8	5	3	0	0	0	7	4
091812	18:12:01	10016	Trial2BackEngS	NS	17	0	1000	1	121	18:12:01	2450514	5	1	1	1	1	1	1	1	1	8	5	3	0	0	0	7	4
091812	18:12:01	10016	Trial2BackEngS	NS	17	57	419	0	121	18:12:01	2451474	5	1	1	1	1	1	1	1	1	8	5	3	0	0	0	7	4
091812	18:12:01	10016	Trial2BackEngS	YS	17	0	1000	0	121	18:12:01	2453553	5	1	1	1	1	1	1	1	1	8	5	3	0	0	0	7	4
091812	18:12:01	10016	Trial2BackEngS	NS	17	0	1000	1	121	18:12:01	2455072	5	1	1	1	1	1	1	1	1	8	5	3	0	0	0	7	4
091812	18:12:01	10016	Trial2BackEngS	NS	17	0	1000	1	121	18:12:01	2456592	5	1	1	1	1	1	1	1	1	8	5	3	0	0	0	7	4
091812	18:12:01	10016	Trial2BackEngS	NS	17	0	1000	1	121	18:12:01	2458111	5	1	1	1	1	1	1	1	1	8	5	3	0	0	0	7	4
091812	18:12:01	10016	Trial2BackEngS	NS	17	0	1000	1	121	18:12:01	2459630	5	1	1	1	1	1	1	1	1	8	5	3	0	0	0	7	4
091812	18:12:01	10016	Trial2BackEngS	NS	17	0	1000	1	121	18:12:01	2461163	5	1	1	1	1	1	1	1	1	8	5	3	0	0	0	7	4
091812	18:12:01	10016	Trial2BackEngS	NS	17	0	1000	1	121	18:12:01	2462696	5	1	1	1	1	1	1	1	1	8	5	3	0	0	0	7	4
091812	18:12:01	10016	Trial2BackEngS	NS	17	0	1000	1	121	18:12:01	2464242	5	1	1	1	1	1	1	1	1	8	5	3	0	0	0	7	4
091812	18:12:01	10016	Trial2BackEngS	YS	17	0	1000	0	121	18:12:01	2465761	5	1	1	1	1	1	1	1	1	8	5	3	0	0	0	7	4
091812	18:12:01	10016	Trial2BackEngS	NS	17	0	1000	1	121	18:12:01	2467281	5	1	1	1	1	1	1	1	1	8	5	3	0	0	0	7	4
091812	18:12:01	10016	Trial2BackEngS	NS	17	0	1000	1	121	18:12:01	2468813	5	1	1	1	1	1	1	1	1	8	5	3	0	0	0	7	4
091812	18:12:01	10016	Trial2BackEngS	NS	17	0	1000	1	121	18:12:01	2470359	5	1	1	1	1	1	1	1	1	8	5	3	0	0	0	7	4
091812	18:12:01	10016	Trial2BackEngS	NS	17	0	1000	1	121	18:12:01	2471879	5	1	1	1	1	1	1	1	1	8	5	3	0	0	0	7	4
091812	18:12:01	10016	Trial2BackEngS	YS	17	57	746	1	121	18:12:01	2473158	5	1	1	1	1	1	1	1	1	8	5	3	0	0	0	7	4
091812	18:12:01	10016	Trial2BackEngS	NS	17	0	1000	1	121	18:12:01	2474904	5	1	1	1	1	1	1	1	1	8	5	3	0	0	0	7	4
091812	18:12:01	10016	Trial2BackEngS	NS	17	0	1000	1	121	18:12:01	2476424	5	1	1	1	1	1	1	1	1	8	5	3	0	0	0	7	4
091812	18:12:01	10016	Trial2BackEngS	YS	17	57	455	1	121	18:12:01	2477410	5	1	1	1	1	1	1	1	1	8	5	3	0	0	0	7	4
091812	18:12:01	10016	Trial2BackEngS	NS	17	0	1000	1	121	18:12:01	2479449	5	1	1	1	1	1	1	1	1	8	5	3	0	0	0	7	4
091812	18:12:01	10016	Trial2BackEngS	NS	17	0	1000	1	121	18:12:01	2480982	5	1	1	1	1	1	1	1	1	8	5	3	0	0	0	7	4
091812	18:12:01	10016	Trial2BackEngS	NS	17	0	1000	1	121	18:12:01	2482528	5	1	1	1	1	1	1	1	1	8	5	3	0	0	0	7	4
091812	18:12:01	10016	Trial2BackEngS	NS	17	0	1000	1	121	18:12:01	2484074	5	1	1	1	1	1	1	1	1	8	5	3	0	0	0	7	4
091812	18:12:01	10016	Trial2BackEngS	NS	17	0	1000	1	121	18:12:01	2485593	5	1	1	1	1	1	1	1	1	8	5	3	0	0	0	7	4
091812	18:12:01	10016	Trial2BackEngS	NS	17	0	1000	1	121	18:12:01	2487140	5	1	1	1	1	1	1	1	1	8	5	3	0	0	0	7	4
091812	18:12:01	10016	Trial2BackEngS	YS	17	57	422	1	121	18:12:01	2488112	5	1	1	1	1	1	1	1	1	8	5	3	0	0	0	7	4
091812	18:12:01	10016	Trial2BackEngS	NS	17	0	1000	1	121	18:12:01	2490191	5	1	1	1	1	1	1	1	1	8	5	3	0	0	0	7	4
091812	18:12:01	10016	Trial2BackEngS	NS	17	0	1000	1	121	18:12:01	2491738	5	1	1	1	1	1	1	1	1	8	5	3	0	0	0	7	4
091812	18:12:01	10016	Trial2BackEngS	NS	17	0	1000	1	121	18:12:01	2493257	5	1	1	1	1	1	1	1	1	8	5	3	0	0	0	7	4
091812	18:12:01	10016	Trial2BackEngS	NS	17	0	1000	1	121	18:12:01	2494790	5	1	1	1	1	1	1	1	1	8	5	3	0	0	0	7	4
091812	18:12:01	10016	Trial2BackEngS	YS	17	0	1000	0	121	18:12:01	2496309	5	1	1	1	1	1	1	1	1	8	5	3	0	0	0	7	4
091812	18:12:01	10016	Trial2BackEngS	NS	17	57	751	0	121	18:12:01	2497602	5	1	1	1	1	1	1	1	1	8	5	3	0	0	0	7	4
091812	18:12:01	10016	Trial2BackEngS	NS	17	0	1000	1	121	18:12:01	2499335	5	1	1	1	1	1	1	1	1	8	5	3	0	0	0	7	4
091812	18:12:01	10016	Trial2BackEngS	NS	17	0	1000	1	121	18:12:01	2500854	5	1	1	1	1	1	1	1	1	8	5	3	0	0	0	7	4
091812	18:12:01	10016	Trial2BackEngS	NS	17	57	506	0	121	18:12:01	2501894	5	1	1	1	1	1	1	1	1	8	5	3	0	0	0	7	4
091812	18:12:01	10016	Trial2BackEngS	YS	17	0	1000	0	121	18:12:01	2503893	5	1	1	1	1	1	1	1	1	8	5	3	0	0	0	7	4
091812	18:12:01	10016	Trial2BackEngS	NS	17	0	1000	1	121	18:12:01	2505412	5	1	1	1	1	1	1	1	1	8	5	3	0	0	0	7	4
091812	18:12:01	10016	Trial2BackEngS	NS	17	0	1000	1	121	18:12:01	2506932	5	1	1	1	1	1	1	1	1	8	5	3	0	0	0	7	4
091812	18:12:01	10016	Trial2BackEngS	YS	17	57	365	1	121	18:12:01	2507825	5	1	1	1	1	1	1	1	1	8	5	3	0	0	0	7	4
091812	18:12:01	10016	Trial2BackEngS	NS	17	0	1000	1	121	18:12:01	2509957	5	1	1	1	1	1	1	1	1	8	5	3	0	0	0	7	4
091812	18:12:01	10016	Trial2BackEngS	NS	17	0	1000	1	121	18:12:01	2511490	5	1	1	1	1	1	1	1	1	8	5	3	0	0	0	7	4
091812	18:12:01	10016	Trial2BackEngS	NS	17	0	1000	1	121	18:12:01	2513023	5	1	1	1	1	1	1	1	1	8	5	3	0	0	0	7	4
091812	18:12:01	10016	Trial2BackEngS	NS	17	0	1000	1	121	18:12:01	2514542	5	1	1	1	1	1	1	1	1	8	5	3	0	0	0	7	4
091812	18:12:01	10016	Trial2BackEngS	NS	17	0	1000	1	121	18:12:01	2516088	5	1	1	1	1	1	1	1	1	8	5	3	0	0	0	7	4
091812	18:12:01	10016	Trial2BackEngS	NS	17	0	1000	1	121	18:12:01	2517607	5	1	1	1	1	1	1	1	1	8	5	3	0	0	0	7	4
091812	18:12:01	10016	Trial2BackEngS	NS	17	0	1000	1	121	18:12:01	2519167	5	1	1	1	1	1	1	1	1	8	5	3	0	0	0	7	4
091812	18:12:01	10016	Trial2BackEngS	NS	17	0	1000	1	121	18:12:01	2520686	5	1	1	1	1	1	1	1	1	8	5	3	0	0	0	7	4
091812	18:12:01	10016	Trial2BackEngS	YS	17	57	626	1	121	18:12:01	2521846	5	1	1	1	1	1	1	1	1	8	5	3	0	0	0	7	4
091812	18:12:01	10016	Trial2BackEngS	NS	17	0	1000	1	121	18:12:01	2523712	5	1	1	1	1	1	1	1	1	8	5	3	0	0	0	7	4
091812	18:12:01	10016	Trial2BackEngS	NS	17	0	1000	1	121	18:12:01	2525231	5	1	1	1	1	1	1	1	1	8	5	3	0	0	0	7	4
091812	18:12:01	10016	Trial2BackEngS	NS	17	0	1000	1	121	18:12:01	2526751	5	1	1	1	1	1	1	1	1	8	5	3	0	0	0	7	4
091812	18:12:01	10016	Trial2BackEngS	NS	17	0	1000	1	121	18:12:01	2528270	5	1	1	1	1	1	1	1	1	8	5	3	0	0	0	7	4
091812	18:12:01	10016	Trial2BackEngS	NS	17	0	1000	1	121	18:12:01	2529789	5	1	1	1	1	1	1	1	1	8	5	3	0	0	0	7	4
091812	18:12:01	10016	Trial2BackEngS	NS	17	0	1000	1	121	18:12:01	2531309	5	1	1	1	1	1	1	1	1	8	5	3	0	0	0	7	4
091812	18:12:01	10016	Trial2BackEngS	NS	17	0	1000	1	121	18:12:01	2532828	5	1	1	1	1	1	1	1	1	8	5	3	0	0	0	7	4
091812	18:12:01	10016	Trial2BackEngS	YS	17	57	579	1	121	18:12:01	2533934	5	1	1	1	1	1	1	1	1	8	5	3	0	0	0	7	4
091812	18:12:01	10016	Trial2BackEngS	NS	17	0	1000	1	121	18:12:01	2535854	5	1	1	1	1	1	1	1	1	8	5	3	0	0	0	7	4
091812	18:12:01	10016	Trial2BackEngS	NS	17	0	1000	1	121	18:12:01	2537386	5	1	1	1	1	1	1	1	1	8	5	3	0	0	0	7	4
091812	18:12:01	10016	Trial2BackEngS	NS	17	0	1000	1	121	18:12:01	2538906	5	1	1	1	1	1	1	1	1	8	5	3	0	0	0	7	4
091812	18:12:01	10016	Trial2BackEngS	NS	17	0	1000	1	121	18:12:01	2540438	5	1	1	1	1	1	1	1	1	8	5	3	0	0	0	7	4
091812	18:12:01	10016	Trial2BackEngS	NS	17	0	1000	1	121	18:12:01	2541971	5	1	1	1	1	1	1	1	1	8	5	3	0	0	0	7	4
091812	18:12:01	10016	Trial2BackEngS	NS	17	0	1000	1	121	18:12:01	2543491	5	1	1	1	1	1	1	1	1	8	5	3	0	0	0	7	4
091812	18:12:01	10016	Trial2BackEngS	NS	17	0	1000	1	121	18:12:01	2545023	5	1	1	1	1	1	1	1	1	8	5	3	0	0	0	7	4
091812	18:12:01	10016	Trial2BackEngS	NS	17	0	1000	1	121	18:12:01	2546556	5	1	1	1	1	1	1	1	1	8	5	3	0	0	0	7	4
091812	18:12:01	10016	Trial2BackEngS	NS	17	0	1000	1	121	18:12:01	2548075	5	1	1	1	1	1	1	1	1	8	5	3	0	0	0	7	4
091812	18:12:01	10016	Trial2BackEngS	YS	17	57	534	1	121	18:12:01	2549142	5	1	1	1	1	1	1	1	1	8	5	3	0	0	0	7	4
091812	18:12:01	10016	Trial2BackEngS	NS	17	0	1000	1	121	18:12:01	2551101	5	1	1	1	1	1	1	1	1	8	5	3	0	0	0	7	4
091812	18:12:01	10016	ClockEng3mo	ClockEng3mo	19	Clock1	95957	0	121	18:12:01	2647170	5	1	1	1	1	1	1	1	1	8	5	3	1	0	0	7	4
091812	18:12:01	10016	ClockEng3mo	ClockEng3mo	19	Clock11	594	0	121	18:12:01	2647812	5	1	1	1	1	1	1	1	1	8	5	3	1	1	0	7	4
091812	18:12:01	10016	ClockEng3mo	ClockEng3mo	19	Clock111	542	0	121	18:12:01	2648398	5	1	1	1	1	1	1	1	1	8	5	3	1	1	1	7	4
091812	18:12:01	10016	ClockEng3mo	ClockEng3mo	19	Clockdone	474	0	121	18:12:01	2648921	5	1	1	1	1	1	1	1	1	8	5	3	1	1	1	7	4
091812	18:12:01	10016	FASEngVF3mo	StopEngVF3mo	20	14	32654	0	121	18:12:01	2771178	5	1	1	1	1	1	1	1	1	8	5	3	1	1	1	7	4
