date	time	subject	blockcode	trialcode	values.TaskNumber	response	latency	correct	values.Score	script.starttime	script.elapsedtime	values.ScoreS7	values.Word1	values.Word2	values.Word3	values.Word4	values.Word5	values.Word6	values.Word7	values.Word8	values.DigitSpanFwrd	values.DigitSpanBack	values.ScoreAbs	values.Contour	values.Numbers	values.Hands	values.corsiblockspanFwrd	values.corsiblockspanRev	values.problemnumber	values.subjectattempts	values.targetmoves	values.subjectmoves	expressions.excessmoves	values.movestring	expressions.targetachieved	values.problemscore	values.totalscoreTOL	expressions.firstmovetime	expressions.executiontime	expressions.solutiontime	values.t_choicestart	values.t_choiceend
010213	11:27:30	1	Language	Language	0	French	1730	0	0	11:27:30	1820	0	0	0	0	0	0	0	0	0	0	0	0	0	0	0	0	0	0	0	0	0	0		1	0	0	0	0	0	0	0
010213	11:27:30	1	Session	Session	0	6mo	660	0	0	11:27:30	2603	0	0	0	0	0	0	0	0	0	0	0	0	0	0	0	0	0	0	0	0	0	0		1	0	0	0	0	0	0	0
010213	11:27:30	1	HandFr	HandFr	0	LeftFr	666	0	0	11:27:30	3402	0	0	0	0	0	0	0	0	0	0	0	0	0	0	0	0	0	0	0	0	0	0		1	0	0	0	0	0	0	0
010213	11:27:30	1	AudioCheckFr	WordsFr	0	0	0	0	0	11:27:30	10695	0	0	0	0	0	0	0	0	0	0	0	0	0	0	0	0	0	0	0	0	0	0		1	0	0	0	0	0	0	0
010213	11:27:30	1	CubeFr	CubeFr	1	1Cube	1846	0	0	11:27:30	13508	0	0	0	0	0	0	0	0	0	0	0	0	0	0	0	0	0	0	0	0	0	0		1	0	0	0	0	0	0	0
010213	11:27:30	1	pm.simpleFrLeft	blank.simpleFr	2	0	2500	1	0	11:27:30	20651	0	0	0	0	0	0	0	0	0	0	0	0	0	0	0	0	0	0	0	0	0	0		1	0	0	0	0	0	0	0
010213	11:27:30	1	pm.simpleFrLeft	pm.simpleFr	2	57	230	0	0	11:27:30	20934	0	0	0	0	0	0	0	0	0	0	0	0	0	0	0	0	0	0	0	0	0	0		1	0	0	0	0	0	0	0
010213	11:27:30	1	pm.simpleFrLeft	blank.simpleFr	2	0	1700	1	0	11:27:30	22682	0	0	0	0	0	0	0	0	0	0	0	0	0	0	0	0	0	0	0	0	0	0		1	0	0	0	0	0	0	0
010213	11:27:30	1	pm.simpleFrLeft	pm.simpleFr	2	57	196	0	0	11:27:30	22932	0	0	0	0	0	0	0	0	0	0	0	0	0	0	0	0	0	0	0	0	0	0		1	0	0	0	0	0	0	0
010213	11:27:30	1	pm.simpleFrLeft	blank.simpleFr	2	0	2400	1	0	11:27:30	25380	0	0	0	0	0	0	0	0	0	0	0	0	0	0	0	0	0	0	0	0	0	0		1	0	0	0	0	0	0	0
010213	11:27:30	1	pm.simpleFrLeft	pm.simpleFr	2	57	189	0	0	11:27:30	25629	0	0	0	0	0	0	0	0	0	0	0	0	0	0	0	0	0	0	0	0	0	0		1	0	0	0	0	0	0	0
010213	11:27:30	1	pm.simpleFrLeft	blank.simpleFr	2	0	2300	1	0	11:27:30	27977	0	0	0	0	0	0	0	0	0	0	0	0	0	0	0	0	0	0	0	0	0	0		1	0	0	0	0	0	0	0
010213	11:27:30	1	pm.simpleFrLeft	pm.simpleFr	2	57	193	0	0	11:27:30	28227	0	0	0	0	0	0	0	0	0	0	0	0	0	0	0	0	0	0	0	0	0	0		1	0	0	0	0	0	0	0
010213	11:27:30	1	pm.simpleFrLeft	blank.simpleFr	2	0	1500	1	0	11:27:30	29775	0	0	0	0	0	0	0	0	0	0	0	0	0	0	0	0	0	0	0	0	0	0		1	0	0	0	0	0	0	0
010213	11:27:30	1	pm.simpleFrLeft	pm.simpleFr	2	57	220	0	0	11:27:30	30058	0	0	0	0	0	0	0	0	0	0	0	0	0	0	0	0	0	0	0	0	0	0		1	0	0	0	0	0	0	0
010213	11:27:30	1	pm.simpleFrLeft	blank.simpleFr	2	0	2100	1	0	11:27:30	32206	0	0	0	0	0	0	0	0	0	0	0	0	0	0	0	0	0	0	0	0	0	0		1	0	0	0	0	0	0	0
010213	11:27:30	1	pm.simpleFrLeft	pm.simpleFr	2	57	202	0	0	11:27:30	32473	0	0	0	0	0	0	0	0	0	0	0	0	0	0	0	0	0	0	0	0	0	0		1	0	0	0	0	0	0	0
010213	11:27:30	1	pm.simpleFrLeft	blank.simpleFr	2	0	1600	1	0	11:27:30	34121	0	0	0	0	0	0	0	0	0	0	0	0	0	0	0	0	0	0	0	0	0	0		1	0	0	0	0	0	0	0
010213	11:27:30	1	pm.simpleFrLeft	pm.simpleFr	2	57	202	0	0	11:27:30	34387	0	0	0	0	0	0	0	0	0	0	0	0	0	0	0	0	0	0	0	0	0	0		1	0	0	0	0	0	0	0
010213	11:27:30	1	pm.simpleFrLeft	blank.simpleFr	2	0	2200	1	0	11:27:30	36635	0	0	0	0	0	0	0	0	0	0	0	0	0	0	0	0	0	0	0	0	0	0		1	0	0	0	0	0	0	0
010213	11:27:30	1	pm.simpleFrLeft	pm.simpleFr	2	57	185	0	0	11:27:30	36885	0	0	0	0	0	0	0	0	0	0	0	0	0	0	0	0	0	0	0	0	0	0		1	0	0	0	0	0	0	0
010213	11:27:30	1	pm.simpleFrLeft	blank.simpleFr	2	0	1900	1	0	11:27:30	38833	0	0	0	0	0	0	0	0	0	0	0	0	0	0	0	0	0	0	0	0	0	0		1	0	0	0	0	0	0	0
010213	11:27:30	1	pm.simpleFrLeft	pm.simpleFr	2	57	192	0	0	11:27:30	39083	0	0	0	0	0	0	0	0	0	0	0	0	0	0	0	0	0	0	0	0	0	0		1	0	0	0	0	0	0	0
010213	11:27:30	1	pm.simpleFrLeft	blank.simpleFr	2	0	1800	1	0	11:27:30	40931	0	0	0	0	0	0	0	0	0	0	0	0	0	0	0	0	0	0	0	0	0	0		1	0	0	0	0	0	0	0
010213	11:27:30	1	pm.simpleFrLeft	pm.simpleFr	2	57	206	0	0	11:27:30	41197	0	0	0	0	0	0	0	0	0	0	0	0	0	0	0	0	0	0	0	0	0	0		1	0	0	0	0	0	0	0
010213	11:27:30	1	pm.simpleFrLeft	blank.simpleFr	2	0	2000	1	0	11:27:30	43245	0	0	0	0	0	0	0	0	0	0	0	0	0	0	0	0	0	0	0	0	0	0		1	0	0	0	0	0	0	0
010213	11:27:30	1	pm.simpleFrLeft	pm.simpleFr	2	57	202	0	0	11:27:30	43511	0	0	0	0	0	0	0	0	0	0	0	0	0	0	0	0	0	0	0	0	0	0		1	0	0	0	0	0	0	0
010213	11:27:30	1	pm.simpleFrLeft	blank.simpleFr	2	0	1900	1	0	11:27:30	45460	0	0	0	0	0	0	0	0	0	0	0	0	0	0	0	0	0	0	0	0	0	0		1	0	0	0	0	0	0	0
010213	11:27:30	1	pm.simpleFrLeft	pm.simpleFr	2	57	188	0	0	11:27:30	45709	0	0	0	0	0	0	0	0	0	0	0	0	0	0	0	0	0	0	0	0	0	0		1	0	0	0	0	0	0	0
010213	11:27:30	1	pm.simpleFrLeft	blank.simpleFr	2	0	2500	1	0	11:27:30	48257	0	0	0	0	0	0	0	0	0	0	0	0	0	0	0	0	0	0	0	0	0	0		1	0	0	0	0	0	0	0
010213	11:27:30	1	pm.simpleFrLeft	pm.simpleFr	2	57	131	0	0	11:27:30	48440	0	0	0	0	0	0	0	0	0	0	0	0	0	0	0	0	0	0	0	0	0	0		1	0	0	0	0	0	0	0
010213	11:27:30	1	pm.simpleFrLeft	blank.simpleFr	2	0	1600	1	0	11:27:30	50088	0	0	0	0	0	0	0	0	0	0	0	0	0	0	0	0	0	0	0	0	0	0		1	0	0	0	0	0	0	0
010213	11:27:30	1	pm.simpleFrLeft	pm.simpleFr	2	57	446	0	0	11:27:30	50588	0	0	0	0	0	0	0	0	0	0	0	0	0	0	0	0	0	0	0	0	0	0		1	0	0	0	0	0	0	0
010213	11:27:30	1	pm.simpleFrLeft	blank.simpleFr	2	0	2100	1	0	11:27:30	52736	0	0	0	0	0	0	0	0	0	0	0	0	0	0	0	0	0	0	0	0	0	0		1	0	0	0	0	0	0	0
010213	11:27:30	1	pm.simpleFrLeft	pm.simpleFr	2	57	193	0	0	11:27:30	52985	0	0	0	0	0	0	0	0	0	0	0	0	0	0	0	0	0	0	0	0	0	0		1	0	0	0	0	0	0	0
010213	11:27:30	1	pm.simpleFrLeft	blank.simpleFr	2	0	2000	1	0	11:27:30	55033	0	0	0	0	0	0	0	0	0	0	0	0	0	0	0	0	0	0	0	0	0	0		1	0	0	0	0	0	0	0
010213	11:27:30	1	pm.simpleFrLeft	pm.simpleFr	2	57	185	0	0	11:27:30	55283	0	0	0	0	0	0	0	0	0	0	0	0	0	0	0	0	0	0	0	0	0	0		1	0	0	0	0	0	0	0
010213	11:27:30	1	pm.simpleFrLeft	blank.simpleFr	2	0	1500	1	0	11:27:30	56831	0	0	0	0	0	0	0	0	0	0	0	0	0	0	0	0	0	0	0	0	0	0		1	0	0	0	0	0	0	0
010213	11:27:30	1	pm.simpleFrLeft	pm.simpleFr	2	57	202	0	0	11:27:30	57098	0	0	0	0	0	0	0	0	0	0	0	0	0	0	0	0	0	0	0	0	0	0		1	0	0	0	0	0	0	0
010213	11:27:30	1	pm.simpleFrLeft	blank.simpleFr	2	0	2400	1	0	11:27:30	59545	0	0	0	0	0	0	0	0	0	0	0	0	0	0	0	0	0	0	0	0	0	0		1	0	0	0	0	0	0	0
010213	11:27:30	1	pm.simpleFrLeft	pm.simpleFr	2	57	203	0	0	11:27:30	59812	0	0	0	0	0	0	0	0	0	0	0	0	0	0	0	0	0	0	0	0	0	0		1	0	0	0	0	0	0	0
010213	11:27:30	1	pm.simpleFrLeft	blank.simpleFr	2	0	1800	1	0	11:27:30	61660	0	0	0	0	0	0	0	0	0	0	0	0	0	0	0	0	0	0	0	0	0	0		1	0	0	0	0	0	0	0
010213	11:27:30	1	pm.simpleFrLeft	pm.simpleFr	2	57	185	0	0	11:27:30	61910	0	0	0	0	0	0	0	0	0	0	0	0	0	0	0	0	0	0	0	0	0	0		1	0	0	0	0	0	0	0
010213	11:27:30	1	pm.simpleFrLeft	blank.simpleFr	2	0	2200	1	0	11:27:30	64157	0	0	0	0	0	0	0	0	0	0	0	0	0	0	0	0	0	0	0	0	0	0		1	0	0	0	0	0	0	0
010213	11:27:30	1	pm.simpleFrLeft	pm.simpleFr	2	57	185	0	0	11:27:30	64407	0	0	0	0	0	0	0	0	0	0	0	0	0	0	0	0	0	0	0	0	0	0		1	0	0	0	0	0	0	0
010213	11:27:30	1	pm.simpleFrLeft	blank.simpleFr	2	0	1700	1	0	11:27:30	66155	0	0	0	0	0	0	0	0	0	0	0	0	0	0	0	0	0	0	0	0	0	0		1	0	0	0	0	0	0	0
010213	11:27:30	1	pm.simpleFrLeft	pm.simpleFr	2	57	190	0	0	11:27:30	66405	0	0	0	0	0	0	0	0	0	0	0	0	0	0	0	0	0	0	0	0	0	0		1	0	0	0	0	0	0	0
010213	11:27:30	1	pm.simpleFrLeft	blank.simpleFr	2	0	2300	1	0	11:27:30	68753	0	0	0	0	0	0	0	0	0	0	0	0	0	0	0	0	0	0	0	0	0	0		1	0	0	0	0	0	0	0
010213	11:27:30	1	pm.simpleFrLeft	pm.simpleFr	2	57	190	0	0	11:27:30	69002	0	0	0	0	0	0	0	0	0	0	0	0	0	0	0	0	0	0	0	0	0	0		1	0	0	0	0	0	0	0
010213	11:27:30	1	pm.simpleFrLeft	blank.simpleFr	2	0	1500	1	0	11:27:30	70551	0	0	0	0	0	0	0	0	0	0	0	0	0	0	0	0	0	0	0	0	0	0		1	0	0	0	0	0	0	0
010213	11:27:30	1	pm.simpleFrLeft	pm.simpleFr	2	57	216	0	0	11:27:30	70834	0	0	0	0	0	0	0	0	0	0	0	0	0	0	0	0	0	0	0	0	0	0		1	0	0	0	0	0	0	0
010213	11:27:30	1	pm.simpleFrLeft	blank.simpleFr	2	0	2500	1	0	11:27:30	73382	0	0	0	0	0	0	0	0	0	0	0	0	0	0	0	0	0	0	0	0	0	0		1	0	0	0	0	0	0	0
010213	11:27:30	1	pm.simpleFrLeft	pm.simpleFr	2	57	200	0	0	11:27:30	73648	0	0	0	0	0	0	0	0	0	0	0	0	0	0	0	0	0	0	0	0	0	0		1	0	0	0	0	0	0	0
010213	11:27:30	1	pm.simpleFrLeft	blank.simpleFr	2	0	1700	1	0	11:27:30	75396	0	0	0	0	0	0	0	0	0	0	0	0	0	0	0	0	0	0	0	0	0	0		1	0	0	0	0	0	0	0
010213	11:27:30	1	pm.simpleFrLeft	pm.simpleFr	2	57	213	0	0	11:27:30	75662	0	0	0	0	0	0	0	0	0	0	0	0	0	0	0	0	0	0	0	0	0	0		1	0	0	0	0	0	0	0
010213	11:27:30	1	pm.simpleFrLeft	blank.simpleFr	2	0	2100	1	0	11:27:30	77810	0	0	0	0	0	0	0	0	0	0	0	0	0	0	0	0	0	0	0	0	0	0		1	0	0	0	0	0	0	0
010213	11:27:30	1	pm.simpleFrLeft	pm.simpleFr	2	57	193	0	0	11:27:30	78060	0	0	0	0	0	0	0	0	0	0	0	0	0	0	0	0	0	0	0	0	0	0		1	0	0	0	0	0	0	0
010213	11:27:30	1	pm.simpleFrLeft	blank.simpleFr	2	0	2000	1	0	11:27:30	80108	0	0	0	0	0	0	0	0	0	0	0	0	0	0	0	0	0	0	0	0	0	0		1	0	0	0	0	0	0	0
010213	11:27:30	1	pm.simpleFrLeft	pm.simpleFr	2	57	200	0	0	11:27:30	80374	0	0	0	0	0	0	0	0	0	0	0	0	0	0	0	0	0	0	0	0	0	0		1	0	0	0	0	0	0	0
010213	11:27:30	1	pm.simpleFrLeft	blank.simpleFr	2	0	1600	1	0	11:27:30	82023	0	0	0	0	0	0	0	0	0	0	0	0	0	0	0	0	0	0	0	0	0	0		1	0	0	0	0	0	0	0
010213	11:27:30	1	pm.simpleFrLeft	pm.simpleFr	2	57	204	0	0	11:27:30	82289	0	0	0	0	0	0	0	0	0	0	0	0	0	0	0	0	0	0	0	0	0	0		1	0	0	0	0	0	0	0
010213	11:27:30	1	pm.simpleFrLeft	blank.simpleFr	2	0	1900	1	0	11:27:30	84237	0	0	0	0	0	0	0	0	0	0	0	0	0	0	0	0	0	0	0	0	0	0		1	0	0	0	0	0	0	0
010213	11:27:30	1	pm.simpleFrLeft	pm.simpleFr	2	57	225	0	0	11:27:30	84520	0	0	0	0	0	0	0	0	0	0	0	0	0	0	0	0	0	0	0	0	0	0		1	0	0	0	0	0	0	0
010213	11:27:30	1	pm.simpleFrLeft	blank.simpleFr	2	0	2300	1	0	11:27:30	86868	0	0	0	0	0	0	0	0	0	0	0	0	0	0	0	0	0	0	0	0	0	0		1	0	0	0	0	0	0	0
010213	11:27:30	1	pm.simpleFrLeft	pm.simpleFr	2	57	206	0	0	11:27:30	87134	0	0	0	0	0	0	0	0	0	0	0	0	0	0	0	0	0	0	0	0	0	0		1	0	0	0	0	0	0	0
010213	11:27:30	1	pm.simpleFrLeft	blank.simpleFr	2	0	2200	1	0	11:27:30	89382	0	0	0	0	0	0	0	0	0	0	0	0	0	0	0	0	0	0	0	0	0	0		1	0	0	0	0	0	0	0
010213	11:27:30	1	pm.simpleFrLeft	pm.simpleFr	2	57	190	0	0	11:27:30	89632	0	0	0	0	0	0	0	0	0	0	0	0	0	0	0	0	0	0	0	0	0	0		1	0	0	0	0	0	0	0
010213	11:27:30	1	pm.simpleFrLeft	blank.simpleFr	2	0	1800	1	0	11:27:30	91480	0	0	0	0	0	0	0	0	0	0	0	0	0	0	0	0	0	0	0	0	0	0		1	0	0	0	0	0	0	0
010213	11:27:30	1	pm.simpleFrLeft	pm.simpleFr	2	57	214	0	0	11:27:30	91746	0	0	0	0	0	0	0	0	0	0	0	0	0	0	0	0	0	0	0	0	0	0		1	0	0	0	0	0	0	0
010213	11:27:30	1	pm.simpleFrLeft	blank.simpleFr	2	0	2400	1	0	11:27:30	94194	0	0	0	0	0	0	0	0	0	0	0	0	0	0	0	0	0	0	0	0	0	0		1	0	0	0	0	0	0	0
010213	11:27:30	1	pm.simpleFrLeft	pm.simpleFr	2	57	225	0	0	11:27:30	94477	0	0	0	0	0	0	0	0	0	0	0	0	0	0	0	0	0	0	0	0	0	0		1	0	0	0	0	0	0	0
010213	11:27:30	1	pm.simpleFrLeft	blank.simpleFr	2	0	1900	1	0	11:27:30	96425	0	0	0	0	0	0	0	0	0	0	0	0	0	0	0	0	0	0	0	0	0	0		1	0	0	0	0	0	0	0
010213	11:27:30	1	pm.simpleFrLeft	pm.simpleFr	2	57	269	0	0	11:27:30	96758	0	0	0	0	0	0	0	0	0	0	0	0	0	0	0	0	0	0	0	0	0	0		1	0	0	0	0	0	0	0
010213	11:27:30	1	pm.simpleFrLeft	blank.simpleFr	2	0	2300	1	0	11:27:30	99106	0	0	0	0	0	0	0	0	0	0	0	0	0	0	0	0	0	0	0	0	0	0		1	0	0	0	0	0	0	0
010213	11:27:30	1	pm.simpleFrLeft	pm.simpleFr	2	57	185	0	0	11:27:30	99355	0	0	0	0	0	0	0	0	0	0	0	0	0	0	0	0	0	0	0	0	0	0		1	0	0	0	0	0	0	0
010213	11:27:30	1	pm.simpleFrLeft	blank.simpleFr	2	0	2400	1	0	11:27:30	101803	0	0	0	0	0	0	0	0	0	0	0	0	0	0	0	0	0	0	0	0	0	0		1	0	0	0	0	0	0	0
010213	11:27:30	1	pm.simpleFrLeft	pm.simpleFr	2	57	198	0	0	11:27:30	102053	0	0	0	0	0	0	0	0	0	0	0	0	0	0	0	0	0	0	0	0	0	0		1	0	0	0	0	0	0	0
010213	11:27:30	1	pm.simpleFrLeft	blank.simpleFr	2	0	2100	1	0	11:27:30	104201	0	0	0	0	0	0	0	0	0	0	0	0	0	0	0	0	0	0	0	0	0	0		1	0	0	0	0	0	0	0
010213	11:27:30	1	pm.simpleFrLeft	pm.simpleFr	2	57	238	0	0	11:27:30	104500	0	0	0	0	0	0	0	0	0	0	0	0	0	0	0	0	0	0	0	0	0	0		1	0	0	0	0	0	0	0
010213	11:27:30	1	pm.simpleFrLeft	blank.simpleFr	2	0	1500	1	0	11:27:30	106049	0	0	0	0	0	0	0	0	0	0	0	0	0	0	0	0	0	0	0	0	0	0		1	0	0	0	0	0	0	0
010213	11:27:30	1	pm.simpleFrLeft	pm.simpleFr	2	57	255	0	0	11:27:30	106365	0	0	0	0	0	0	0	0	0	0	0	0	0	0	0	0	0	0	0	0	0	0		1	0	0	0	0	0	0	0
010213	11:27:30	1	pm.simpleFrLeft	blank.simpleFr	2	0	2500	1	0	11:27:30	108912	0	0	0	0	0	0	0	0	0	0	0	0	0	0	0	0	0	0	0	0	0	0		1	0	0	0	0	0	0	0
010213	11:27:30	1	pm.simpleFrLeft	pm.simpleFr	2	57	210	0	0	11:27:30	109179	0	0	0	0	0	0	0	0	0	0	0	0	0	0	0	0	0	0	0	0	0	0		1	0	0	0	0	0	0	0
010213	11:27:30	1	pm.simpleFrLeft	blank.simpleFr	2	0	2000	1	0	11:27:30	111227	0	0	0	0	0	0	0	0	0	0	0	0	0	0	0	0	0	0	0	0	0	0		1	0	0	0	0	0	0	0
010213	11:27:30	1	pm.simpleFrLeft	pm.simpleFr	2	57	255	0	0	11:27:30	111543	0	0	0	0	0	0	0	0	0	0	0	0	0	0	0	0	0	0	0	0	0	0		1	0	0	0	0	0	0	0
010213	11:27:30	1	Trial2BackFr	N	3	0	1000	1	1	11:27:30	152868	0	0	0	0	0	0	0	0	0	0	0	0	0	0	0	0	0	0	0	0	0	0		1	0	0	0	0	0	0	0
010213	11:27:30	1	Trial2BackFr	N	3	0	1000	1	2	11:27:30	154383	0	0	0	0	0	0	0	0	0	0	0	0	0	0	0	0	0	0	0	0	0	0		1	0	0	0	0	0	0	0
010213	11:27:30	1	Trial2BackFr	N	3	0	1000	1	3	11:27:30	155899	0	0	0	0	0	0	0	0	0	0	0	0	0	0	0	0	0	0	0	0	0	0		1	0	0	0	0	0	0	0
010213	11:27:30	1	Trial2BackFr	N	3	0	1000	1	4	11:27:30	157414	0	0	0	0	0	0	0	0	0	0	0	0	0	0	0	0	0	0	0	0	0	0		1	0	0	0	0	0	0	0
010213	11:27:30	1	Trial2BackFr	N	3	0	1000	1	5	11:27:30	158929	0	0	0	0	0	0	0	0	0	0	0	0	0	0	0	0	0	0	0	0	0	0		1	0	0	0	0	0	0	0
010213	11:27:30	1	Trial2BackFr	N	3	0	1000	1	6	11:27:30	160444	0	0	0	0	0	0	0	0	0	0	0	0	0	0	0	0	0	0	0	0	0	0		1	0	0	0	0	0	0	0
010213	11:27:30	1	Trial2BackFr	N	3	0	1000	1	7	11:27:30	161959	0	0	0	0	0	0	0	0	0	0	0	0	0	0	0	0	0	0	0	0	0	0		1	0	0	0	0	0	0	0
010213	11:27:30	1	Trial2BackFr	N	3	0	1000	1	8	11:27:30	163474	0	0	0	0	0	0	0	0	0	0	0	0	0	0	0	0	0	0	0	0	0	0		1	0	0	0	0	0	0	0
010213	11:27:30	1	Trial2BackFr	Y	3	0	1000	0	8	11:27:30	164989	0	0	0	0	0	0	0	0	0	0	0	0	0	0	0	0	0	0	0	0	0	0		1	0	0	0	0	0	0	0
010213	11:27:30	1	Trial2BackFr	N	3	0	1000	1	9	11:27:30	166505	0	0	0	0	0	0	0	0	0	0	0	0	0	0	0	0	0	0	0	0	0	0		1	0	0	0	0	0	0	0
010213	11:27:30	1	Trial2BackFr	N	3	0	1000	1	10	11:27:30	168020	0	0	0	0	0	0	0	0	0	0	0	0	0	0	0	0	0	0	0	0	0	0		1	0	0	0	0	0	0	0
010213	11:27:30	1	Trial2BackFr	N	3	0	1000	1	11	11:27:30	169535	0	0	0	0	0	0	0	0	0	0	0	0	0	0	0	0	0	0	0	0	0	0		1	0	0	0	0	0	0	0
010213	11:27:30	1	Trial2BackFr	Y	3	0	1000	0	11	11:27:30	171050	0	0	0	0	0	0	0	0	0	0	0	0	0	0	0	0	0	0	0	0	0	0		1	0	0	0	0	0	0	0
010213	11:27:30	1	Trial2BackFr	N	3	0	1000	1	12	11:27:30	172565	0	0	0	0	0	0	0	0	0	0	0	0	0	0	0	0	0	0	0	0	0	0		1	0	0	0	0	0	0	0
010213	11:27:30	1	Trial2BackFr	N	3	0	1000	1	13	11:27:30	174080	0	0	0	0	0	0	0	0	0	0	0	0	0	0	0	0	0	0	0	0	0	0		1	0	0	0	0	0	0	0
010213	11:27:30	1	Trial2BackFr	N	3	0	1000	1	14	11:27:30	175595	0	0	0	0	0	0	0	0	0	0	0	0	0	0	0	0	0	0	0	0	0	0		1	0	0	0	0	0	0	0
010213	11:27:30	1	Trial2BackFr	N	3	0	1000	1	15	11:27:30	177111	0	0	0	0	0	0	0	0	0	0	0	0	0	0	0	0	0	0	0	0	0	0		1	0	0	0	0	0	0	0
010213	11:27:30	1	Trial2BackFr	N	3	0	1000	1	16	11:27:30	178626	0	0	0	0	0	0	0	0	0	0	0	0	0	0	0	0	0	0	0	0	0	0		1	0	0	0	0	0	0	0
010213	11:27:30	1	Trial2BackFr	Y	3	0	1000	0	16	11:27:30	180141	0	0	0	0	0	0	0	0	0	0	0	0	0	0	0	0	0	0	0	0	0	0		1	0	0	0	0	0	0	0
010213	11:27:30	1	Trial2BackFr	N	3	0	1000	1	17	11:27:30	181656	0	0	0	0	0	0	0	0	0	0	0	0	0	0	0	0	0	0	0	0	0	0		1	0	0	0	0	0	0	0
010213	11:27:30	1	Trial2BackFr	N	3	0	1000	1	18	11:27:30	183171	0	0	0	0	0	0	0	0	0	0	0	0	0	0	0	0	0	0	0	0	0	0		1	0	0	0	0	0	0	0
010213	11:27:30	1	Trial2BackFr	N	3	0	1000	1	19	11:27:30	184686	0	0	0	0	0	0	0	0	0	0	0	0	0	0	0	0	0	0	0	0	0	0		1	0	0	0	0	0	0	0
010213	11:27:30	1	Trial2BackFr	N	3	0	1000	1	20	11:27:30	186202	0	0	0	0	0	0	0	0	0	0	0	0	0	0	0	0	0	0	0	0	0	0		1	0	0	0	0	0	0	0
010213	11:27:30	1	Trial2BackFr	Y	3	0	1000	0	20	11:27:30	187717	0	0	0	0	0	0	0	0	0	0	0	0	0	0	0	0	0	0	0	0	0	0		1	0	0	0	0	0	0	0
010213	11:27:30	1	Trial2BackFr	N	3	0	1000	1	21	11:27:30	189232	0	0	0	0	0	0	0	0	0	0	0	0	0	0	0	0	0	0	0	0	0	0		1	0	0	0	0	0	0	0
010213	11:27:30	1	Trial2BackFr	N	3	0	1000	1	22	11:27:30	190747	0	0	0	0	0	0	0	0	0	0	0	0	0	0	0	0	0	0	0	0	0	0		1	0	0	0	0	0	0	0
010213	11:27:30	1	Trial2BackFr	N	3	0	1000	1	23	11:27:30	192262	0	0	0	0	0	0	0	0	0	0	0	0	0	0	0	0	0	0	0	0	0	0		1	0	0	0	0	0	0	0
010213	11:27:30	1	Trial2BackFr	N	3	0	1000	1	24	11:27:30	193777	0	0	0	0	0	0	0	0	0	0	0	0	0	0	0	0	0	0	0	0	0	0		1	0	0	0	0	0	0	0
010213	11:27:30	1	Trial2BackFr	N	3	0	1000	1	25	11:27:30	195292	0	0	0	0	0	0	0	0	0	0	0	0	0	0	0	0	0	0	0	0	0	0		1	0	0	0	0	0	0	0
010213	11:27:30	1	Trial2BackFr	N	3	0	1000	1	26	11:27:30	196807	0	0	0	0	0	0	0	0	0	0	0	0	0	0	0	0	0	0	0	0	0	0		1	0	0	0	0	0	0	0
010213	11:27:30	1	Trial2BackFr	Y	3	0	1000	0	26	11:27:30	198323	0	0	0	0	0	0	0	0	0	0	0	0	0	0	0	0	0	0	0	0	0	0		1	0	0	0	0	0	0	0
010213	11:27:30	1	Trial2BackFr	N	3	0	1000	1	27	11:27:30	199838	0	0	0	0	0	0	0	0	0	0	0	0	0	0	0	0	0	0	0	0	0	0		1	0	0	0	0	0	0	0
010213	11:27:30	1	Trial2BackFr	N	3	0	1000	1	28	11:27:30	201353	0	0	0	0	0	0	0	0	0	0	0	0	0	0	0	0	0	0	0	0	0	0		1	0	0	0	0	0	0	0
010213	11:27:30	1	Trial2BackFr	N	3	0	1000	1	29	11:27:30	202868	0	0	0	0	0	0	0	0	0	0	0	0	0	0	0	0	0	0	0	0	0	0		1	0	0	0	0	0	0	0
010213	11:27:30	1	Trial2BackFr	Y	3	0	1000	0	29	11:27:30	204383	0	0	0	0	0	0	0	0	0	0	0	0	0	0	0	0	0	0	0	0	0	0		1	0	0	0	0	0	0	0
010213	11:27:30	1	Trial2BackFr	N	3	0	1000	1	30	11:27:30	205898	0	0	0	0	0	0	0	0	0	0	0	0	0	0	0	0	0	0	0	0	0	0		1	0	0	0	0	0	0	0
010213	11:27:30	1	Trial2BackFr	N	3	0	1000	1	31	11:27:30	207413	0	0	0	0	0	0	0	0	0	0	0	0	0	0	0	0	0	0	0	0	0	0		1	0	0	0	0	0	0	0
010213	11:27:30	1	Trial2BackFr	N	3	0	1000	1	32	11:27:30	208929	0	0	0	0	0	0	0	0	0	0	0	0	0	0	0	0	0	0	0	0	0	0		1	0	0	0	0	0	0	0
010213	11:27:30	1	Trial2BackFr	N	3	0	1000	1	33	11:27:30	210444	0	0	0	0	0	0	0	0	0	0	0	0	0	0	0	0	0	0	0	0	0	0		1	0	0	0	0	0	0	0
010213	11:27:30	1	Trial2BackFr	N	3	0	1000	1	34	11:27:30	211959	0	0	0	0	0	0	0	0	0	0	0	0	0	0	0	0	0	0	0	0	0	0		1	0	0	0	0	0	0	0
010213	11:27:30	1	Trial2BackFr	N	3	0	1000	1	35	11:27:30	213474	0	0	0	0	0	0	0	0	0	0	0	0	0	0	0	0	0	0	0	0	0	0		1	0	0	0	0	0	0	0
010213	11:27:30	1	Trial2BackFr	Y	3	0	1000	0	35	11:27:30	214989	0	0	0	0	0	0	0	0	0	0	0	0	0	0	0	0	0	0	0	0	0	0		1	0	0	0	0	0	0	0
010213	11:27:30	1	Trial2BackFr	N	3	0	1000	1	36	11:27:30	216504	0	0	0	0	0	0	0	0	0	0	0	0	0	0	0	0	0	0	0	0	0	0		1	0	0	0	0	0	0	0
010213	11:27:30	1	Trial2BackFr	N	3	0	1000	1	37	11:27:30	218019	0	0	0	0	0	0	0	0	0	0	0	0	0	0	0	0	0	0	0	0	0	0		1	0	0	0	0	0	0	0
010213	11:27:30	1	Trial2BackFr	N	3	0	1000	1	38	11:27:30	219535	0	0	0	0	0	0	0	0	0	0	0	0	0	0	0	0	0	0	0	0	0	0		1	0	0	0	0	0	0	0
010213	11:27:30	1	Trial2BackFr	N	3	0	1000	1	39	11:27:30	221050	0	0	0	0	0	0	0	0	0	0	0	0	0	0	0	0	0	0	0	0	0	0		1	0	0	0	0	0	0	0
010213	11:27:30	1	Trial2BackFr	Y	3	0	1000	0	39	11:27:30	222565	0	0	0	0	0	0	0	0	0	0	0	0	0	0	0	0	0	0	0	0	0	0		1	0	0	0	0	0	0	0
010213	11:27:30	1	Trial2BackFr	N	3	0	1000	1	40	11:27:30	224080	0	0	0	0	0	0	0	0	0	0	0	0	0	0	0	0	0	0	0	0	0	0		1	0	0	0	0	0	0	0
010213	11:27:30	1	Trial2BackFr	N	3	0	1000	1	41	11:27:30	225595	0	0	0	0	0	0	0	0	0	0	0	0	0	0	0	0	0	0	0	0	0	0		1	0	0	0	0	0	0	0
010213	11:27:30	1	Trial2BackFr	N	3	0	1000	1	42	11:27:30	227110	0	0	0	0	0	0	0	0	0	0	0	0	0	0	0	0	0	0	0	0	0	0		1	0	0	0	0	0	0	0
010213	11:27:30	1	Trial2BackFr	N	3	0	1000	1	43	11:27:30	228625	0	0	0	0	0	0	0	0	0	0	0	0	0	0	0	0	0	0	0	0	0	0		1	0	0	0	0	0	0	0
010213	11:27:30	1	Trial2BackFr	N	3	0	1000	1	44	11:27:30	230141	0	0	0	0	0	0	0	0	0	0	0	0	0	0	0	0	0	0	0	0	0	0		1	0	0	0	0	0	0	0
010213	11:27:30	1	Trial2BackFr	Y	3	0	1000	0	44	11:27:30	231656	0	0	0	0	0	0	0	0	0	0	0	0	0	0	0	0	0	0	0	0	0	0		1	0	0	0	0	0	0	0
010213	11:27:30	1	Trial2BackFr	N	3	0	1000	1	45	11:27:30	233171	0	0	0	0	0	0	0	0	0	0	0	0	0	0	0	0	0	0	0	0	0	0		1	0	0	0	0	0	0	0
010213	11:27:30	1	Trial2BackFr	N	3	0	1000	1	46	11:27:30	234686	0	0	0	0	0	0	0	0	0	0	0	0	0	0	0	0	0	0	0	0	0	0		1	0	0	0	0	0	0	0
010213	11:27:30	1	Trial2BackFr	N	3	0	1000	1	47	11:27:30	236201	0	0	0	0	0	0	0	0	0	0	0	0	0	0	0	0	0	0	0	0	0	0		1	0	0	0	0	0	0	0
010213	11:27:30	1	Trial2BackFr	N	3	0	1000	1	48	11:27:30	237716	0	0	0	0	0	0	0	0	0	0	0	0	0	0	0	0	0	0	0	0	0	0		1	0	0	0	0	0	0	0
010213	11:27:30	1	Trial2BackFr	N	3	0	1000	1	49	11:27:30	239231	0	0	0	0	0	0	0	0	0	0	0	0	0	0	0	0	0	0	0	0	0	0		1	0	0	0	0	0	0	0
010213	11:27:30	1	Trial2BackFr	N	3	0	1000	1	50	11:27:30	240747	0	0	0	0	0	0	0	0	0	0	0	0	0	0	0	0	0	0	0	0	0	0		1	0	0	0	0	0	0	0
010213	11:27:30	1	Trial2BackFr	Y	3	0	1000	0	50	11:27:30	242262	0	0	0	0	0	0	0	0	0	0	0	0	0	0	0	0	0	0	0	0	0	0		1	0	0	0	0	0	0	0
010213	11:27:30	1	Trial2BackFr	N	3	0	1000	1	51	11:27:30	243777	0	0	0	0	0	0	0	0	0	0	0	0	0	0	0	0	0	0	0	0	0	0		1	0	0	0	0	0	0	0
010213	11:27:30	1	Trial2BackFr	N	3	0	1000	1	52	11:27:30	245292	0	0	0	0	0	0	0	0	0	0	0	0	0	0	0	0	0	0	0	0	0	0		1	0	0	0	0	0	0	0
010213	11:27:30	1	Trial2BackFr	Y	3	0	1000	0	52	11:27:30	246807	0	0	0	0	0	0	0	0	0	0	0	0	0	0	0	0	0	0	0	0	0	0		1	0	0	0	0	0	0	0
010213	11:27:30	1	Trial2BackFr	N	3	0	1000	1	53	11:27:30	248322	0	0	0	0	0	0	0	0	0	0	0	0	0	0	0	0	0	0	0	0	0	0		1	0	0	0	0	0	0	0
010213	11:27:30	1	Trial2BackFr	N	3	0	1000	1	54	11:27:30	249837	0	0	0	0	0	0	0	0	0	0	0	0	0	0	0	0	0	0	0	0	0	0		1	0	0	0	0	0	0	0
010213	11:27:30	1	Trial2BackFr	N	3	0	1000	1	55	11:27:30	251353	0	0	0	0	0	0	0	0	0	0	0	0	0	0	0	0	0	0	0	0	0	0		1	0	0	0	0	0	0	0
010213	11:27:30	1	Trial2BackFr	N	3	0	1000	1	56	11:27:30	252868	0	0	0	0	0	0	0	0	0	0	0	0	0	0	0	0	0	0	0	0	0	0		1	0	0	0	0	0	0	0
010213	11:27:30	1	Trial2BackFr	N	3	0	1000	1	57	11:27:30	254383	0	0	0	0	0	0	0	0	0	0	0	0	0	0	0	0	0	0	0	0	0	0		1	0	0	0	0	0	0	0
010213	11:27:30	1	Trial2BackFr	N	3	0	1000	1	58	11:27:30	255898	0	0	0	0	0	0	0	0	0	0	0	0	0	0	0	0	0	0	0	0	0	0		1	0	0	0	0	0	0	0
010213	11:27:30	1	Trial2BackFr	N	3	0	1000	1	59	11:27:30	257413	0	0	0	0	0	0	0	0	0	0	0	0	0	0	0	0	0	0	0	0	0	0		1	0	0	0	0	0	0	0
010213	11:27:30	1	Trial2BackFr	N	3	0	1000	1	60	11:27:30	258928	0	0	0	0	0	0	0	0	0	0	0	0	0	0	0	0	0	0	0	0	0	0		1	0	0	0	0	0	0	0
010213	11:27:30	1	Trial2BackFr	N	3	0	1000	1	61	11:27:30	260444	0	0	0	0	0	0	0	0	0	0	0	0	0	0	0	0	0	0	0	0	0	0		1	0	0	0	0	0	0	0
010213	11:27:30	1	Trial2BackFr	N	3	0	1000	1	62	11:27:30	261959	0	0	0	0	0	0	0	0	0	0	0	0	0	0	0	0	0	0	0	0	0	0		1	0	0	0	0	0	0	0
010213	11:27:30	1	Trial2BackFr	Y	3	0	1000	0	62	11:27:30	263474	0	0	0	0	0	0	0	0	0	0	0	0	0	0	0	0	0	0	0	0	0	0		1	0	0	0	0	0	0	0
010213	11:27:30	1	Trial2BackFr	N	3	0	1000	1	63	11:27:30	264989	0	0	0	0	0	0	0	0	0	0	0	0	0	0	0	0	0	0	0	0	0	0		1	0	0	0	0	0	0	0
010213	11:27:30	1	Trial2BackFr	N	3	0	1000	1	64	11:27:30	266504	0	0	0	0	0	0	0	0	0	0	0	0	0	0	0	0	0	0	0	0	0	0		1	0	0	0	0	0	0	0
010213	11:27:30	1	Trial2BackFr	N	3	0	1000	1	65	11:27:30	268019	0	0	0	0	0	0	0	0	0	0	0	0	0	0	0	0	0	0	0	0	0	0		1	0	0	0	0	0	0	0
010213	11:27:30	1	Trial2BackFr	Y	3	0	1000	0	65	11:27:30	269534	0	0	0	0	0	0	0	0	0	0	0	0	0	0	0	0	0	0	0	0	0	0		1	0	0	0	0	0	0	0
010213	11:27:30	1	Trial2BackFr	N	3	0	1000	1	66	11:27:30	271050	0	0	0	0	0	0	0	0	0	0	0	0	0	0	0	0	0	0	0	0	0	0		1	0	0	0	0	0	0	0
010213	11:27:30	1	Trial2BackFr	N	3	0	1000	1	67	11:27:30	272565	0	0	0	0	0	0	0	0	0	0	0	0	0	0	0	0	0	0	0	0	0	0		1	0	0	0	0	0	0	0
010213	11:27:30	1	Trial2BackFr	N	3	0	1000	1	68	11:27:30	274080	0	0	0	0	0	0	0	0	0	0	0	0	0	0	0	0	0	0	0	0	0	0		1	0	0	0	0	0	0	0
010213	11:27:30	1	Trial2BackFr	N	3	0	1000	1	69	11:27:30	275595	0	0	0	0	0	0	0	0	0	0	0	0	0	0	0	0	0	0	0	0	0	0		1	0	0	0	0	0	0	0
010213	11:27:30	1	Trial2BackFr	N	3	0	1000	1	70	11:27:30	277110	0	0	0	0	0	0	0	0	0	0	0	0	0	0	0	0	0	0	0	0	0	0		1	0	0	0	0	0	0	0
010213	11:27:30	1	Trial2BackFr	Y	3	0	1000	0	70	11:27:30	278625	0	0	0	0	0	0	0	0	0	0	0	0	0	0	0	0	0	0	0	0	0	0		1	0	0	0	0	0	0	0
010213	11:27:30	1	Trial2BackFr	N	3	0	1000	1	71	11:27:30	280140	0	0	0	0	0	0	0	0	0	0	0	0	0	0	0	0	0	0	0	0	0	0		1	0	0	0	0	0	0	0
010213	11:27:30	1	Trial2BackFr	N	3	0	1000	1	72	11:27:30	281656	0	0	0	0	0	0	0	0	0	0	0	0	0	0	0	0	0	0	0	0	0	0		1	0	0	0	0	0	0	0
010213	11:27:30	1	Trial2BackFr	N	3	0	1000	1	73	11:27:30	283171	0	0	0	0	0	0	0	0	0	0	0	0	0	0	0	0	0	0	0	0	0	0		1	0	0	0	0	0	0	0
010213	11:27:30	1	Trial2BackFr	N	3	0	1000	1	74	11:27:30	284686	0	0	0	0	0	0	0	0	0	0	0	0	0	0	0	0	0	0	0	0	0	0		1	0	0	0	0	0	0	0
010213	11:27:30	1	Trial2BackFr	N	3	0	1000	1	75	11:27:30	286201	0	0	0	0	0	0	0	0	0	0	0	0	0	0	0	0	0	0	0	0	0	0		1	0	0	0	0	0	0	0
010213	11:27:30	1	Trial2BackFr	N	3	0	1000	1	76	11:27:30	287716	0	0	0	0	0	0	0	0	0	0	0	0	0	0	0	0	0	0	0	0	0	0		1	0	0	0	0	0	0	0
010213	11:27:30	1	Trial2BackFr	N	3	0	1000	1	77	11:27:30	289231	0	0	0	0	0	0	0	0	0	0	0	0	0	0	0	0	0	0	0	0	0	0		1	0	0	0	0	0	0	0
010213	11:27:30	1	Trial2BackFr	N	3	0	1000	1	78	11:27:30	290746	0	0	0	0	0	0	0	0	0	0	0	0	0	0	0	0	0	0	0	0	0	0		1	0	0	0	0	0	0	0
010213	11:27:30	1	Trial2BackFr	N	3	0	1000	1	79	11:27:30	292262	0	0	0	0	0	0	0	0	0	0	0	0	0	0	0	0	0	0	0	0	0	0		1	0	0	0	0	0	0	0
010213	11:27:30	1	Trial2BackFr	Y	3	0	1000	0	79	11:27:30	293777	0	0	0	0	0	0	0	0	0	0	0	0	0	0	0	0	0	0	0	0	0	0		1	0	0	0	0	0	0	0
010213	11:27:30	1	Trial2BackFr	N	3	0	1000	1	80	11:27:30	295292	0	0	0	0	0	0	0	0	0	0	0	0	0	0	0	0	0	0	0	0	0	0		1	0	0	0	0	0	0	0
010213	11:27:30	1	Trial2BackFr	N	3	0	1000	1	81	11:27:30	296807	0	0	0	0	0	0	0	0	0	0	0	0	0	0	0	0	0	0	0	0	0	0		1	0	0	0	0	0	0	0
010213	11:27:30	1	Trial2BackFr	N	3	0	1000	1	82	11:27:30	298322	0	0	0	0	0	0	0	0	0	0	0	0	0	0	0	0	0	0	0	0	0	0		1	0	0	0	0	0	0	0
010213	11:27:30	1	Trial2BackFr	N	3	0	1000	1	83	11:27:30	299837	0	0	0	0	0	0	0	0	0	0	0	0	0	0	0	0	0	0	0	0	0	0		1	0	0	0	0	0	0	0
010213	11:27:30	1	Trial2BackFr	N	3	0	1000	1	84	11:27:30	301352	0	0	0	0	0	0	0	0	0	0	0	0	0	0	0	0	0	0	0	0	0	0		1	0	0	0	0	0	0	0
010213	11:27:30	1	Trial2BackFr	N	3	0	1000	1	85	11:27:30	302868	0	0	0	0	0	0	0	0	0	0	0	0	0	0	0	0	0	0	0	0	0	0		1	0	0	0	0	0	0	0
010213	11:27:30	1	Trial2BackFr	N	3	0	1000	1	86	11:27:30	304383	0	0	0	0	0	0	0	0	0	0	0	0	0	0	0	0	0	0	0	0	0	0		1	0	0	0	0	0	0	0
010213	11:27:30	1	Trial2BackFr	N	3	0	1000	1	87	11:27:30	305898	0	0	0	0	0	0	0	0	0	0	0	0	0	0	0	0	0	0	0	0	0	0		1	0	0	0	0	0	0	0
010213	11:27:30	1	Trial2BackFr	Y	3	0	1000	0	87	11:27:30	307413	0	0	0	0	0	0	0	0	0	0	0	0	0	0	0	0	0	0	0	0	0	0		1	0	0	0	0	0	0	0
010213	11:27:30	1	Trial2BackFr	N	3	0	1000	1	88	11:27:30	308928	0	0	0	0	0	0	0	0	0	0	0	0	0	0	0	0	0	0	0	0	0	0		1	0	0	0	0	0	0	0
010213	11:27:30	1	Trial2BackFr	N	3	0	1000	1	89	11:27:30	310443	0	0	0	0	0	0	0	0	0	0	0	0	0	0	0	0	0	0	0	0	0	0		1	0	0	0	0	0	0	0
010213	11:27:30	1	Trial2BackFr	N	3	0	1000	1	90	11:27:30	311958	0	0	0	0	0	0	0	0	0	0	0	0	0	0	0	0	0	0	0	0	0	0		1	0	0	0	0	0	0	0
010213	11:27:30	1	Trial2BackFr	N	3	0	1000	1	91	11:27:30	313474	0	0	0	0	0	0	0	0	0	0	0	0	0	0	0	0	0	0	0	0	0	0		1	0	0	0	0	0	0	0
010213	11:27:30	1	Trial2BackFr	Y	3	0	1000	0	91	11:27:30	314989	0	0	0	0	0	0	0	0	0	0	0	0	0	0	0	0	0	0	0	0	0	0		1	0	0	0	0	0	0	0
010213	11:27:30	1	Trial2BackFr	N	3	0	1000	1	92	11:27:30	316504	0	0	0	0	0	0	0	0	0	0	0	0	0	0	0	0	0	0	0	0	0	0		1	0	0	0	0	0	0	0
010213	11:27:30	1	Trial2BackFr	N	3	0	1000	1	93	11:27:30	318019	0	0	0	0	0	0	0	0	0	0	0	0	0	0	0	0	0	0	0	0	0	0		1	0	0	0	0	0	0	0
010213	11:27:30	1	Trial2BackFr	N	3	0	1000	1	94	11:27:30	319534	0	0	0	0	0	0	0	0	0	0	0	0	0	0	0	0	0	0	0	0	0	0		1	0	0	0	0	0	0	0
010213	11:27:30	1	Trial2BackFr	Y	3	0	1000	0	94	11:27:30	321049	0	0	0	0	0	0	0	0	0	0	0	0	0	0	0	0	0	0	0	0	0	0		1	0	0	0	0	0	0	0
010213	11:27:30	1	Trial2BackFr	N	3	0	1000	1	95	11:27:30	322564	0	0	0	0	0	0	0	0	0	0	0	0	0	0	0	0	0	0	0	0	0	0		1	0	0	0	0	0	0	0
010213	11:27:30	1	Trial2BackFr	N	3	0	1000	1	96	11:27:30	324080	0	0	0	0	0	0	0	0	0	0	0	0	0	0	0	0	0	0	0	0	0	0		1	0	0	0	0	0	0	0
010213	11:27:30	1	Trial2BackFr	N	3	0	1000	1	97	11:27:30	325595	0	0	0	0	0	0	0	0	0	0	0	0	0	0	0	0	0	0	0	0	0	0		1	0	0	0	0	0	0	0
010213	11:27:30	1	Trial2BackFr	N	3	0	1000	1	98	11:27:30	327110	0	0	0	0	0	0	0	0	0	0	0	0	0	0	0	0	0	0	0	0	0	0		1	0	0	0	0	0	0	0
010213	11:27:30	1	Trial2BackFr	N	3	0	1000	1	99	11:27:30	328625	0	0	0	0	0	0	0	0	0	0	0	0	0	0	0	0	0	0	0	0	0	0		1	0	0	0	0	0	0	0
010213	11:27:30	1	Trial2BackFr	Y	3	0	1000	0	99	11:27:30	330140	0	0	0	0	0	0	0	0	0	0	0	0	0	0	0	0	0	0	0	0	0	0		1	0	0	0	0	0	0	0
010213	11:27:30	1	Trial2BackFr	N	3	0	1000	1	100	11:27:30	331655	0	0	0	0	0	0	0	0	0	0	0	0	0	0	0	0	0	0	0	0	0	0		1	0	0	0	0	0	0	0
010213	11:27:30	1	Trial2BackFr	N	3	0	1000	1	101	11:27:30	333170	0	0	0	0	0	0	0	0	0	0	0	0	0	0	0	0	0	0	0	0	0	0		1	0	0	0	0	0	0	0
010213	11:27:30	1	Trial2BackFr	N	3	0	1000	1	102	11:27:30	334686	0	0	0	0	0	0	0	0	0	0	0	0	0	0	0	0	0	0	0	0	0	0		1	0	0	0	0	0	0	0
010213	11:27:30	1	Trial2BackFr	Y	3	0	1000	0	102	11:27:30	336201	0	0	0	0	0	0	0	0	0	0	0	0	0	0	0	0	0	0	0	0	0	0		1	0	0	0	0	0	0	0
010213	11:27:30	1	Memory1R6moFr	ScoreFr	5	Done	2701	0	102	11:27:30	352668	0	0	0	0	0	0	0	0	0	0	0	0	0	0	0	0	0	0	0	0	0	0		1	0	0	0	0	0	0	0
010213	11:27:30	1	Memory2R6moFr	ScoreFr2	5	Done	2814	0	102	11:27:30	366154	0	0	0	0	0	0	0	0	0	0	0	0	0	0	0	0	0	0	0	0	0	0		1	0	0	0	0	0	0	0
010213	11:27:30	1	Memory3R6moFr	ScoreFr3	5	Done	1641	0	102	11:27:30	379224	0	0	0	0	0	0	0	0	0	0	0	0	0	0	0	0	0	0	0	0	0	0		1	0	0	0	0	0	0	0
010213	11:27:30	1	LoriaFrRH3	Stop	6	7	4460	0	102	11:27:30	429940	0	0	0	0	0	0	0	0	0	0	0	0	0	0	0	0	0	0	0	0	0	0		1	0	0	0	0	0	0	0
010213	11:27:30	1	FrTrail	Trails	7	1Trails	1354	0	102	11:27:30	434885	0	0	0	0	0	0	0	0	0	0	0	0	0	0	0	0	0	0	0	0	0	0		1	0	0	0	0	0	0	0
010213	11:27:30	1	Serial7Fr6mo	Serial7Fr6mo	8	73	3789	0	102	11:27:30	442862	1	0	0	0	0	0	0	0	0	0	0	0	0	0	0	0	0	0	0	0	0	0		1	0	0	0	0	0	0	0
010213	11:27:30	1	Serial7Fr6mo	Serial7Fr6mo	8	66	3432	0	102	11:27:30	446324	2	0	0	0	0	0	0	0	0	0	0	0	0	0	0	0	0	0	0	0	0	0		1	0	0	0	0	0	0	0
010213	11:27:30	1	Serial7Fr6mo	Serial7Fr6mo	8	59	3134	0	102	11:27:30	449488	3	0	0	0	0	0	0	0	0	0	0	0	0	0	0	0	0	0	0	0	0	0		1	0	0	0	0	0	0	0
010213	11:27:30	1	Serial7Fr6mo	Serial7Fr6mo	8	52	2746	0	102	11:27:30	452269	4	0	0	0	0	0	0	0	0	0	0	0	0	0	0	0	0	0	0	0	0	0		1	0	0	0	0	0	0	0
010213	11:27:30	1	Serial7Fr6mo	Serial7Fr6mo	8	45	4165	0	102	11:27:30	456464	5	0	0	0	0	0	0	0	0	0	0	0	0	0	0	0	0	0	0	0	0	0		1	0	0	0	0	0	0	0
010213	11:27:30	1	corsiblockFrFwrd	recallseqFrFwrd	9	6	1532	0	102	11:27:30	465138	5	0	0	0	0	0	0	0	0	0	0	0	0	0	0	0	0	0	0	0	0	0		1	0	0	0	0	0	0	0
010213	11:27:30	1	corsiblockFrFwrd	recallseqFrFwrd	9	5	1186	0	102	11:27:30	466387	5	0	0	0	0	0	0	0	0	0	0	0	0	0	0	0	0	0	0	0	0	0		1	0	0	0	0	0	0	0
010213	11:27:30	1	corsiblockFrFwrd	recallseqFrFwrd	9	doneCorsiFr	1468	0	102	11:27:30	467918	5	0	0	0	0	0	0	0	0	0	0	0	0	0	0	0	0	0	0	0	0	0		1	0	0	0	0	0	0	0
010213	11:27:30	1	corsiblockFrFwrd	recallseqFrFwrd	9	6	1659	0	102	11:27:30	474712	5	0	0	0	0	0	0	0	0	0	0	0	0	0	0	0	0	0	0	0	0	0		1	0	0	0	0	0	0	0
010213	11:27:30	1	corsiblockFrFwrd	recallseqFrFwrd	9	5	964	0	102	11:27:30	475727	5	0	0	0	0	0	0	0	0	0	0	0	0	0	0	0	0	0	0	0	0	0		1	0	0	0	0	0	0	0
010213	11:27:30	1	corsiblockFrFwrd	recallseqFrFwrd	9	doneCorsiFr	1480	0	102	11:27:30	477259	5	0	0	0	0	0	0	0	0	0	0	0	0	0	0	0	0	0	0	0	0	0		1	0	0	0	0	0	0	0
010213	11:27:30	1	corsiblockFrRev	recallseqFrRev	10	5	2561	0	102	11:27:30	487033	5	0	0	0	0	0	0	0	0	0	0	0	0	0	0	0	0	0	0	0	0	0		1	0	0	0	0	0	0	0
010213	11:27:30	1	corsiblockFrRev	recallseqFrRev	10	6	1041	0	102	11:27:30	488131	5	0	0	0	0	0	0	0	0	0	0	0	0	0	0	0	0	0	0	0	0	0		1	0	0	0	0	0	0	0
010213	11:27:30	1	corsiblockFrRev	recallseqFrRev	10	doneCorsiFr	1449	0	102	11:27:30	489647	5	0	0	0	0	0	0	0	0	0	0	0	0	0	0	0	0	0	0	0	0	0		1	0	0	0	0	0	0	0
010213	11:27:30	1	corsiblockFrRev	recallseqFrRev	10	5	1073	0	102	11:27:30	495857	5	0	0	0	0	0	0	0	0	0	0	0	0	0	0	0	0	0	0	0	0	0		1	0	0	0	0	0	0	0
010213	11:27:30	1	corsiblockFrRev	recallseqFrRev	10	6	925	0	102	11:27:30	496839	5	0	0	0	0	0	0	0	0	0	0	0	0	0	0	0	0	0	0	0	0	0		1	0	0	0	0	0	0	0
010213	11:27:30	1	corsiblockFrRev	recallseqFrRev	10	doneCorsiFr	1279	0	102	11:27:30	498171	5	0	0	0	0	0	0	0	0	0	0	0	0	0	0	0	0	0	0	0	0	0		1	0	0	0	0	0	0	0
010213	11:27:30	1	testFr6mo	WordsFr6mo	11	1Fr6mo	2069	0	102	11:27:30	503066	5	3	0	0	0	0	0	0	0	0	0	0	0	0	0	0	0	0	0	0	0	0		1	0	0	0	0	0	0	0
010213	11:27:30	1	testFr6mo	WordsFr6mo	11	2Fr6mo	812	0	102	11:27:30	503932	5	3	3	0	0	0	0	0	0	0	0	0	0	0	0	0	0	0	0	0	0	0		1	0	0	0	0	0	0	0
010213	11:27:30	1	testFr6mo	WordsFr6mo	11	3Fr6mo	822	0	102	11:27:30	504815	5	3	3	3	0	0	0	0	0	0	0	0	0	0	0	0	0	0	0	0	0	0		1	0	0	0	0	0	0	0
010213	11:27:30	1	testFr6mo	WordsFr6mo	11	4Fr6mo	1130	0	102	11:27:30	505997	5	3	3	3	3	0	0	0	0	0	0	0	0	0	0	0	0	0	0	0	0	0		1	0	0	0	0	0	0	0
010213	11:27:30	1	testFr6mo	WordsFr6mo	11	5Fr6mo	1066	0	102	11:27:30	507129	5	3	3	3	3	3	0	0	0	0	0	0	0	0	0	0	0	0	0	0	0	0		1	0	0	0	0	0	0	0
010213	11:27:30	1	testFr6mo	WordsFr6mo	11	6Fr6mo	870	0	102	11:27:30	508061	5	3	3	3	3	3	3	0	0	0	0	0	0	0	0	0	0	0	0	0	0	0		1	0	0	0	0	0	0	0
010213	11:27:30	1	testFr6mo	WordsFr6mo	11	7Fr6mo	776	0	102	11:27:30	508894	5	3	3	3	3	3	3	3	0	0	0	0	0	0	0	0	0	0	0	0	0	0		1	0	0	0	0	0	0	0
010213	11:27:30	1	testFr6mo	WordsFr6mo	11	8Fr6mo	1060	0	102	11:27:30	510009	5	3	3	3	3	3	3	3	3	0	0	0	0	0	0	0	0	0	0	0	0	0		1	0	0	0	0	0	0	0
010213	11:27:30	1	testFr6mo	WordsFr6mo	11	DoneFr6mo	991	0	102	11:27:30	511058	5	3	3	3	3	3	3	3	3	0	0	0	0	0	0	0	0	0	0	0	0	0		1	0	0	0	0	0	0	0
010213	11:27:30	1	DigitSpanFwrdFr6mo	Score1FwrdFr6mo	12	DS2	1495	0	102	11:27:30	520432	5	3	3	3	3	3	3	3	3	0	0	0	0	0	0	0	0	0	0	0	0	0		1	0	0	0	0	0	0	0
010213	11:27:30	1	DigitSpanFwrdFr6mo	Gate1FwrdFr6mo	12	0	1	0	102	11:27:30	520534	5	3	3	3	3	3	3	3	3	0	0	0	0	0	0	0	0	0	0	0	0	0		1	0	0	0	0	0	0	0
010213	11:27:30	1	DigitSpanFwrdFr6mo	Score11FwrdFr6mo	12	DS2	1166	0	102	11:27:30	525810	5	3	3	3	3	3	3	3	3	0	0	0	0	0	0	0	0	0	0	0	0	0		1	0	0	0	0	0	0	0
010213	11:27:30	1	DigitSpanFr6mo	Score1Fr6mo	13	DS2	1566	0	102	11:27:30	531921	5	3	3	3	3	3	3	3	3	0	0	0	0	0	0	0	0	0	0	0	0	0		1	0	0	0	0	0	0	0
010213	11:27:30	1	DigitSpanFr6mo	Gate1Fr6mo	13	0	1	0	102	11:27:30	531923	5	3	3	3	3	3	3	3	3	0	0	0	0	0	0	0	0	0	0	0	0	0		1	0	0	0	0	0	0	0
010213	11:27:30	1	DigitSpanFr6mo	Score11Fr6mo	13	DS2	687	0	102	11:27:30	535068	5	3	3	3	3	3	3	3	3	0	0	0	0	0	0	0	0	0	0	0	0	0		1	0	0	0	0	0	0	0
010213	11:27:30	1	Trial	ResponseIL	14	0	175	0	102	11:27:30	562274	5	3	3	3	3	3	3	3	3	0	0	0	0	0	0	0	0	0	0	0	0	0		1	0	0	0	0	0	0	0
010213	11:27:30	1	Trial	IncongruentLeft	14	0	1000	0	102	11:27:30	563322	5	3	3	3	3	3	3	3	3	0	0	0	0	0	0	0	0	0	0	0	0	0		1	0	0	0	0	0	0	0
010213	11:27:30	1	Trial	ResponseCR	14	0	175	0	102	11:27:30	564088	5	3	3	3	3	3	3	3	3	0	0	0	0	0	0	0	0	0	0	0	0	0		1	0	0	0	0	0	0	0
010213	11:27:30	1	Trial	CongruentRight	14	0	1000	0	102	11:27:30	565137	5	3	3	3	3	3	3	3	3	0	0	0	0	0	0	0	0	0	0	0	0	0		1	0	0	0	0	0	0	0
010213	11:27:30	1	Trial	ResponseIR	14	0	175	0	102	11:27:30	565903	5	3	3	3	3	3	3	3	3	0	0	0	0	0	0	0	0	0	0	0	0	0		1	0	0	0	0	0	0	0
010213	11:27:30	1	Trial	IncongruentRight	14	0	1000	0	102	11:27:30	566952	5	3	3	3	3	3	3	3	3	0	0	0	0	0	0	0	0	0	0	0	0	0		1	0	0	0	0	0	0	0
010213	11:27:30	1	Trial	ResponseCL	14	0	175	0	102	11:27:30	567718	5	3	3	3	3	3	3	3	3	0	0	0	0	0	0	0	0	0	0	0	0	0		1	0	0	0	0	0	0	0
010213	11:27:30	1	Trial	CongruentLeft	14	0	1000	0	102	11:27:30	568767	5	3	3	3	3	3	3	3	3	0	0	0	0	0	0	0	0	0	0	0	0	0		1	0	0	0	0	0	0	0
010213	11:27:30	1	Trial	ResponseCR	14	0	175	0	102	11:27:30	569533	5	3	3	3	3	3	3	3	3	0	0	0	0	0	0	0	0	0	0	0	0	0		1	0	0	0	0	0	0	0
010213	11:27:30	1	Trial	CongruentRight	14	0	1000	0	102	11:27:30	570582	5	3	3	3	3	3	3	3	3	0	0	0	0	0	0	0	0	0	0	0	0	0		1	0	0	0	0	0	0	0
010213	11:27:30	1	Trial	ResponseIR	14	0	175	0	102	11:27:30	571348	5	3	3	3	3	3	3	3	3	0	0	0	0	0	0	0	0	0	0	0	0	0		1	0	0	0	0	0	0	0
010213	11:27:30	1	Trial	IncongruentRight	14	0	1000	0	102	11:27:30	572397	5	3	3	3	3	3	3	3	3	0	0	0	0	0	0	0	0	0	0	0	0	0		1	0	0	0	0	0	0	0
010213	11:27:30	1	Trial	ResponseCL	14	0	175	0	102	11:27:30	573163	5	3	3	3	3	3	3	3	3	0	0	0	0	0	0	0	0	0	0	0	0	0		1	0	0	0	0	0	0	0
010213	11:27:30	1	Trial	CongruentLeft	14	0	1000	0	102	11:27:30	574212	5	3	3	3	3	3	3	3	3	0	0	0	0	0	0	0	0	0	0	0	0	0		1	0	0	0	0	0	0	0
010213	11:27:30	1	Trial	ResponseIL	14	0	175	0	102	11:27:30	574977	5	3	3	3	3	3	3	3	3	0	0	0	0	0	0	0	0	0	0	0	0	0		1	0	0	0	0	0	0	0
010213	11:27:30	1	Trial	IncongruentLeft	14	0	1000	0	102	11:27:30	576026	5	3	3	3	3	3	3	3	3	0	0	0	0	0	0	0	0	0	0	0	0	0		1	0	0	0	0	0	0	0
010213	11:27:30	1	Trial	ResponseIL	14	0	175	0	102	11:27:30	576792	5	3	3	3	3	3	3	3	3	0	0	0	0	0	0	0	0	0	0	0	0	0		1	0	0	0	0	0	0	0
010213	11:27:30	1	Trial	IncongruentLeft	14	0	1000	0	102	11:27:30	577841	5	3	3	3	3	3	3	3	3	0	0	0	0	0	0	0	0	0	0	0	0	0		1	0	0	0	0	0	0	0
010213	11:27:30	1	Trial	ResponseCR	14	0	175	0	102	11:27:30	578607	5	3	3	3	3	3	3	3	3	0	0	0	0	0	0	0	0	0	0	0	0	0		1	0	0	0	0	0	0	0
010213	11:27:30	1	Trial	CongruentRight	14	0	1000	0	102	11:27:30	579656	5	3	3	3	3	3	3	3	3	0	0	0	0	0	0	0	0	0	0	0	0	0		1	0	0	0	0	0	0	0
010213	11:27:30	1	Trial	ResponseIR	14	0	175	0	102	11:27:30	580422	5	3	3	3	3	3	3	3	3	0	0	0	0	0	0	0	0	0	0	0	0	0		1	0	0	0	0	0	0	0
010213	11:27:30	1	Trial	IncongruentRight	14	0	1000	0	102	11:27:30	581471	5	3	3	3	3	3	3	3	3	0	0	0	0	0	0	0	0	0	0	0	0	0		1	0	0	0	0	0	0	0
010213	11:27:30	1	Trial	ResponseCL	14	0	175	0	102	11:27:30	582237	5	3	3	3	3	3	3	3	3	0	0	0	0	0	0	0	0	0	0	0	0	0		1	0	0	0	0	0	0	0
010213	11:27:30	1	Trial	CongruentLeft	14	0	1000	0	102	11:27:30	583286	5	3	3	3	3	3	3	3	3	0	0	0	0	0	0	0	0	0	0	0	0	0		1	0	0	0	0	0	0	0
010213	11:27:30	1	Trial	ResponseCR	14	0	175	0	102	11:27:30	584052	5	3	3	3	3	3	3	3	3	0	0	0	0	0	0	0	0	0	0	0	0	0		1	0	0	0	0	0	0	0
010213	11:27:30	1	Trial	CongruentRight	14	0	1000	0	102	11:27:30	585101	5	3	3	3	3	3	3	3	3	0	0	0	0	0	0	0	0	0	0	0	0	0		1	0	0	0	0	0	0	0
010213	11:27:30	1	Trial	ResponseIL	14	0	175	0	102	11:27:30	585867	5	3	3	3	3	3	3	3	3	0	0	0	0	0	0	0	0	0	0	0	0	0		1	0	0	0	0	0	0	0
010213	11:27:30	1	Trial	IncongruentLeft	14	0	1000	0	102	11:27:30	586915	5	3	3	3	3	3	3	3	3	0	0	0	0	0	0	0	0	0	0	0	0	0		1	0	0	0	0	0	0	0
010213	11:27:30	1	Trial	ResponseIR	14	0	175	0	102	11:27:30	587681	5	3	3	3	3	3	3	3	3	0	0	0	0	0	0	0	0	0	0	0	0	0		1	0	0	0	0	0	0	0
010213	11:27:30	1	Trial	IncongruentRight	14	0	1000	0	102	11:27:30	588730	5	3	3	3	3	3	3	3	3	0	0	0	0	0	0	0	0	0	0	0	0	0		1	0	0	0	0	0	0	0
010213	11:27:30	1	Trial	ResponseCR	14	0	175	0	102	11:27:30	589496	5	3	3	3	3	3	3	3	3	0	0	0	0	0	0	0	0	0	0	0	0	0		1	0	0	0	0	0	0	0
010213	11:27:30	1	Trial	CongruentRight	14	0	1000	0	102	11:27:30	590545	5	3	3	3	3	3	3	3	3	0	0	0	0	0	0	0	0	0	0	0	0	0		1	0	0	0	0	0	0	0
010213	11:27:30	1	Trial	ResponseCL	14	0	175	0	102	11:27:30	591311	5	3	3	3	3	3	3	3	3	0	0	0	0	0	0	0	0	0	0	0	0	0		1	0	0	0	0	0	0	0
010213	11:27:30	1	Trial	CongruentLeft	14	0	1000	0	102	11:27:30	592360	5	3	3	3	3	3	3	3	3	0	0	0	0	0	0	0	0	0	0	0	0	0		1	0	0	0	0	0	0	0
010213	11:27:30	1	Trial	ResponseCR	14	0	175	0	102	11:27:30	593126	5	3	3	3	3	3	3	3	3	0	0	0	0	0	0	0	0	0	0	0	0	0		1	0	0	0	0	0	0	0
010213	11:27:30	1	Trial	CongruentRight	14	0	1000	0	102	11:27:30	594175	5	3	3	3	3	3	3	3	3	0	0	0	0	0	0	0	0	0	0	0	0	0		1	0	0	0	0	0	0	0
010213	11:27:30	1	Trial	ResponseIR	14	0	175	0	102	11:27:30	594941	5	3	3	3	3	3	3	3	3	0	0	0	0	0	0	0	0	0	0	0	0	0		1	0	0	0	0	0	0	0
010213	11:27:30	1	Trial	IncongruentRight	14	0	1000	0	102	11:27:30	595990	5	3	3	3	3	3	3	3	3	0	0	0	0	0	0	0	0	0	0	0	0	0		1	0	0	0	0	0	0	0
010213	11:27:30	1	Trial	ResponseIL	14	0	175	0	102	11:27:30	596756	5	3	3	3	3	3	3	3	3	0	0	0	0	0	0	0	0	0	0	0	0	0		1	0	0	0	0	0	0	0
010213	11:27:30	1	Trial	IncongruentLeft	14	0	1000	0	102	11:27:30	597804	5	3	3	3	3	3	3	3	3	0	0	0	0	0	0	0	0	0	0	0	0	0		1	0	0	0	0	0	0	0
010213	11:27:30	1	Trial	ResponseIL	14	0	175	0	102	11:27:30	598570	5	3	3	3	3	3	3	3	3	0	0	0	0	0	0	0	0	0	0	0	0	0		1	0	0	0	0	0	0	0
010213	11:27:30	1	Trial	IncongruentLeft	14	0	1000	0	102	11:27:30	599619	5	3	3	3	3	3	3	3	3	0	0	0	0	0	0	0	0	0	0	0	0	0		1	0	0	0	0	0	0	0
010213	11:27:30	1	Trial	ResponseCL	14	0	175	0	102	11:27:30	600385	5	3	3	3	3	3	3	3	3	0	0	0	0	0	0	0	0	0	0	0	0	0		1	0	0	0	0	0	0	0
010213	11:27:30	1	Trial	CongruentLeft	14	0	1000	0	102	11:27:30	601434	5	3	3	3	3	3	3	3	3	0	0	0	0	0	0	0	0	0	0	0	0	0		1	0	0	0	0	0	0	0
010213	11:27:30	1	Trial	ResponseCR	14	0	175	0	102	11:27:30	602200	5	3	3	3	3	3	3	3	3	0	0	0	0	0	0	0	0	0	0	0	0	0		1	0	0	0	0	0	0	0
010213	11:27:30	1	Trial	CongruentRight	14	0	1000	0	102	11:27:30	603249	5	3	3	3	3	3	3	3	3	0	0	0	0	0	0	0	0	0	0	0	0	0		1	0	0	0	0	0	0	0
010213	11:27:30	1	Trial	ResponseIL	14	0	175	0	102	11:27:30	604015	5	3	3	3	3	3	3	3	3	0	0	0	0	0	0	0	0	0	0	0	0	0		1	0	0	0	0	0	0	0
010213	11:27:30	1	Trial	IncongruentLeft	14	0	1000	0	102	11:27:30	605064	5	3	3	3	3	3	3	3	3	0	0	0	0	0	0	0	0	0	0	0	0	0		1	0	0	0	0	0	0	0
010213	11:27:30	1	Trial	ResponseIR	14	0	175	0	102	11:27:30	605830	5	3	3	3	3	3	3	3	3	0	0	0	0	0	0	0	0	0	0	0	0	0		1	0	0	0	0	0	0	0
010213	11:27:30	1	Trial	IncongruentRight	14	0	1000	0	102	11:27:30	606879	5	3	3	3	3	3	3	3	3	0	0	0	0	0	0	0	0	0	0	0	0	0		1	0	0	0	0	0	0	0
010213	11:27:30	1	Trial	ResponseCR	14	0	175	0	102	11:27:30	607645	5	3	3	3	3	3	3	3	3	0	0	0	0	0	0	0	0	0	0	0	0	0		1	0	0	0	0	0	0	0
010213	11:27:30	1	Trial	CongruentRight	14	0	1000	0	102	11:27:30	608694	5	3	3	3	3	3	3	3	3	0	0	0	0	0	0	0	0	0	0	0	0	0		1	0	0	0	0	0	0	0
010213	11:27:30	1	Trial	ResponseCL	14	0	175	0	102	11:27:30	609459	5	3	3	3	3	3	3	3	3	0	0	0	0	0	0	0	0	0	0	0	0	0		1	0	0	0	0	0	0	0
010213	11:27:30	1	Trial	CongruentLeft	14	0	1000	0	102	11:27:30	610508	5	3	3	3	3	3	3	3	3	0	0	0	0	0	0	0	0	0	0	0	0	0		1	0	0	0	0	0	0	0
010213	11:27:30	1	Trial	ResponseIR	14	0	175	0	102	11:27:30	611274	5	3	3	3	3	3	3	3	3	0	0	0	0	0	0	0	0	0	0	0	0	0		1	0	0	0	0	0	0	0
010213	11:27:30	1	Trial	IncongruentRight	14	0	1000	0	102	11:27:30	612323	5	3	3	3	3	3	3	3	3	0	0	0	0	0	0	0	0	0	0	0	0	0		1	0	0	0	0	0	0	0
010213	11:27:30	1	Trial	ResponseIL	14	0	175	0	102	11:27:30	613089	5	3	3	3	3	3	3	3	3	0	0	0	0	0	0	0	0	0	0	0	0	0		1	0	0	0	0	0	0	0
010213	11:27:30	1	Trial	IncongruentLeft	14	0	1000	0	102	11:27:30	614138	5	3	3	3	3	3	3	3	3	0	0	0	0	0	0	0	0	0	0	0	0	0		1	0	0	0	0	0	0	0
010213	11:27:30	1	Trial	ResponseIR	14	0	175	0	102	11:27:30	614904	5	3	3	3	3	3	3	3	3	0	0	0	0	0	0	0	0	0	0	0	0	0		1	0	0	0	0	0	0	0
010213	11:27:30	1	Trial	IncongruentRight	14	0	1000	0	102	11:27:30	615953	5	3	3	3	3	3	3	3	3	0	0	0	0	0	0	0	0	0	0	0	0	0		1	0	0	0	0	0	0	0
010213	11:27:30	1	Trial	ResponseCR	14	0	175	0	102	11:27:30	616719	5	3	3	3	3	3	3	3	3	0	0	0	0	0	0	0	0	0	0	0	0	0		1	0	0	0	0	0	0	0
010213	11:27:30	1	Trial	CongruentRight	14	0	1000	0	102	11:27:30	617768	5	3	3	3	3	3	3	3	3	0	0	0	0	0	0	0	0	0	0	0	0	0		1	0	0	0	0	0	0	0
010213	11:27:30	1	Trial	ResponseIL	14	0	175	0	102	11:27:30	618534	5	3	3	3	3	3	3	3	3	0	0	0	0	0	0	0	0	0	0	0	0	0		1	0	0	0	0	0	0	0
010213	11:27:30	1	Trial	IncongruentLeft	14	0	1000	0	102	11:27:30	619583	5	3	3	3	3	3	3	3	3	0	0	0	0	0	0	0	0	0	0	0	0	0		1	0	0	0	0	0	0	0
010213	11:27:30	1	Trial	ResponseCL	14	0	175	0	102	11:27:30	620348	5	3	3	3	3	3	3	3	3	0	0	0	0	0	0	0	0	0	0	0	0	0		1	0	0	0	0	0	0	0
010213	11:27:30	1	Trial	CongruentLeft	14	0	1000	0	102	11:27:30	621397	5	3	3	3	3	3	3	3	3	0	0	0	0	0	0	0	0	0	0	0	0	0		1	0	0	0	0	0	0	0
010213	11:27:30	1	Trial	ResponseCR	14	0	175	0	102	11:27:30	622163	5	3	3	3	3	3	3	3	3	0	0	0	0	0	0	0	0	0	0	0	0	0		1	0	0	0	0	0	0	0
010213	11:27:30	1	Trial	CongruentRight	14	0	1000	0	102	11:27:30	623212	5	3	3	3	3	3	3	3	3	0	0	0	0	0	0	0	0	0	0	0	0	0		1	0	0	0	0	0	0	0
010213	11:27:30	1	Trial	ResponseIL	14	0	175	0	102	11:27:30	623978	5	3	3	3	3	3	3	3	3	0	0	0	0	0	0	0	0	0	0	0	0	0		1	0	0	0	0	0	0	0
010213	11:27:30	1	Trial	IncongruentLeft	14	0	1000	0	102	11:27:30	625027	5	3	3	3	3	3	3	3	3	0	0	0	0	0	0	0	0	0	0	0	0	0		1	0	0	0	0	0	0	0
010213	11:27:30	1	Trial	ResponseIR	14	0	175	0	102	11:27:30	625793	5	3	3	3	3	3	3	3	3	0	0	0	0	0	0	0	0	0	0	0	0	0		1	0	0	0	0	0	0	0
010213	11:27:30	1	Trial	IncongruentRight	14	0	1000	0	102	11:27:30	626842	5	3	3	3	3	3	3	3	3	0	0	0	0	0	0	0	0	0	0	0	0	0		1	0	0	0	0	0	0	0
010213	11:27:30	1	Trial	ResponseIR	14	0	175	0	102	11:27:30	627608	5	3	3	3	3	3	3	3	3	0	0	0	0	0	0	0	0	0	0	0	0	0		1	0	0	0	0	0	0	0
010213	11:27:30	1	Trial	IncongruentRight	14	0	1000	0	102	11:27:30	628657	5	3	3	3	3	3	3	3	3	0	0	0	0	0	0	0	0	0	0	0	0	0		1	0	0	0	0	0	0	0
010213	11:27:30	1	Trial	ResponseCL	14	0	175	0	102	11:27:30	629423	5	3	3	3	3	3	3	3	3	0	0	0	0	0	0	0	0	0	0	0	0	0		1	0	0	0	0	0	0	0
010213	11:27:30	1	Trial	CongruentLeft	14	0	1000	0	102	11:27:30	630472	5	3	3	3	3	3	3	3	3	0	0	0	0	0	0	0	0	0	0	0	0	0		1	0	0	0	0	0	0	0
010213	11:27:30	1	Trial	ResponseIL	14	0	175	0	102	11:27:30	631238	5	3	3	3	3	3	3	3	3	0	0	0	0	0	0	0	0	0	0	0	0	0		1	0	0	0	0	0	0	0
010213	11:27:30	1	Trial	IncongruentLeft	14	0	1000	0	102	11:27:30	632286	5	3	3	3	3	3	3	3	3	0	0	0	0	0	0	0	0	0	0	0	0	0		1	0	0	0	0	0	0	0
010213	11:27:30	1	Trial	ResponseCR	14	0	175	0	102	11:27:30	633052	5	3	3	3	3	3	3	3	3	0	0	0	0	0	0	0	0	0	0	0	0	0		1	0	0	0	0	0	0	0
010213	11:27:30	1	Trial	CongruentRight	14	0	1000	0	102	11:27:30	634101	5	3	3	3	3	3	3	3	3	0	0	0	0	0	0	0	0	0	0	0	0	0		1	0	0	0	0	0	0	0
010213	11:27:30	1	Trial	ResponseCL	14	0	175	0	102	11:27:30	634867	5	3	3	3	3	3	3	3	3	0	0	0	0	0	0	0	0	0	0	0	0	0		1	0	0	0	0	0	0	0
010213	11:27:30	1	Trial	CongruentLeft	14	0	1000	0	102	11:27:30	635916	5	3	3	3	3	3	3	3	3	0	0	0	0	0	0	0	0	0	0	0	0	0		1	0	0	0	0	0	0	0
010213	11:27:30	1	Trial	ResponseIR	14	0	175	0	102	11:27:30	636682	5	3	3	3	3	3	3	3	3	0	0	0	0	0	0	0	0	0	0	0	0	0		1	0	0	0	0	0	0	0
010213	11:27:30	1	Trial	IncongruentRight	14	0	1000	0	102	11:27:30	637731	5	3	3	3	3	3	3	3	3	0	0	0	0	0	0	0	0	0	0	0	0	0		1	0	0	0	0	0	0	0
010213	11:27:30	1	Trial	ResponseCR	14	0	175	0	102	11:27:30	638497	5	3	3	3	3	3	3	3	3	0	0	0	0	0	0	0	0	0	0	0	0	0		1	0	0	0	0	0	0	0
010213	11:27:30	1	Trial	CongruentRight	14	0	1000	0	102	11:27:30	639546	5	3	3	3	3	3	3	3	3	0	0	0	0	0	0	0	0	0	0	0	0	0		1	0	0	0	0	0	0	0
010213	11:27:30	1	Trial	ResponseIL	14	0	175	0	102	11:27:30	640312	5	3	3	3	3	3	3	3	3	0	0	0	0	0	0	0	0	0	0	0	0	0		1	0	0	0	0	0	0	0
010213	11:27:30	1	Trial	IncongruentLeft	14	0	1000	0	102	11:27:30	641361	5	3	3	3	3	3	3	3	3	0	0	0	0	0	0	0	0	0	0	0	0	0		1	0	0	0	0	0	0	0
010213	11:27:30	1	Trial	ResponseCL	14	0	175	0	102	11:27:30	642127	5	3	3	3	3	3	3	3	3	0	0	0	0	0	0	0	0	0	0	0	0	0		1	0	0	0	0	0	0	0
010213	11:27:30	1	Trial	CongruentLeft	14	0	1000	0	102	11:27:30	643176	5	3	3	3	3	3	3	3	3	0	0	0	0	0	0	0	0	0	0	0	0	0		1	0	0	0	0	0	0	0
010213	11:27:30	1	Trial	ResponseIL	14	0	175	0	102	11:27:30	643941	5	3	3	3	3	3	3	3	3	0	0	0	0	0	0	0	0	0	0	0	0	0		1	0	0	0	0	0	0	0
010213	11:27:30	1	Trial	IncongruentLeft	14	0	1000	0	102	11:27:30	644990	5	3	3	3	3	3	3	3	3	0	0	0	0	0	0	0	0	0	0	0	0	0		1	0	0	0	0	0	0	0
010213	11:27:30	1	Trial	ResponseIR	14	0	175	0	102	11:27:30	645756	5	3	3	3	3	3	3	3	3	0	0	0	0	0	0	0	0	0	0	0	0	0		1	0	0	0	0	0	0	0
010213	11:27:30	1	Trial	IncongruentRight	14	0	1000	0	102	11:27:30	646805	5	3	3	3	3	3	3	3	3	0	0	0	0	0	0	0	0	0	0	0	0	0		1	0	0	0	0	0	0	0
010213	11:27:30	1	Trial	ResponseCR	14	0	175	0	102	11:27:30	647571	5	3	3	3	3	3	3	3	3	0	0	0	0	0	0	0	0	0	0	0	0	0		1	0	0	0	0	0	0	0
010213	11:27:30	1	Trial	CongruentRight	14	0	1000	0	102	11:27:30	648620	5	3	3	3	3	3	3	3	3	0	0	0	0	0	0	0	0	0	0	0	0	0		1	0	0	0	0	0	0	0
010213	11:27:30	1	Trial	ResponseCL	14	0	175	0	102	11:27:30	649386	5	3	3	3	3	3	3	3	3	0	0	0	0	0	0	0	0	0	0	0	0	0		1	0	0	0	0	0	0	0
010213	11:27:30	1	Trial	CongruentLeft	14	0	1000	0	102	11:27:30	650435	5	3	3	3	3	3	3	3	3	0	0	0	0	0	0	0	0	0	0	0	0	0		1	0	0	0	0	0	0	0
010213	11:27:30	1	Trial	ResponseCL	14	0	175	0	102	11:27:30	651201	5	3	3	3	3	3	3	3	3	0	0	0	0	0	0	0	0	0	0	0	0	0		1	0	0	0	0	0	0	0
010213	11:27:30	1	Trial	CongruentLeft	14	0	1000	0	102	11:27:30	652250	5	3	3	3	3	3	3	3	3	0	0	0	0	0	0	0	0	0	0	0	0	0		1	0	0	0	0	0	0	0
010213	11:27:30	1	Trial	ResponseIR	14	0	175	0	102	11:27:30	653016	5	3	3	3	3	3	3	3	3	0	0	0	0	0	0	0	0	0	0	0	0	0		1	0	0	0	0	0	0	0
010213	11:27:30	1	Trial	IncongruentRight	14	0	1000	0	102	11:27:30	654065	5	3	3	3	3	3	3	3	3	0	0	0	0	0	0	0	0	0	0	0	0	0		1	0	0	0	0	0	0	0
010213	11:27:30	1	Trial	ResponseIL	14	0	175	0	102	11:27:30	654831	5	3	3	3	3	3	3	3	3	0	0	0	0	0	0	0	0	0	0	0	0	0		1	0	0	0	0	0	0	0
010213	11:27:30	1	Trial	IncongruentLeft	14	0	1000	0	102	11:27:30	655879	5	3	3	3	3	3	3	3	3	0	0	0	0	0	0	0	0	0	0	0	0	0		1	0	0	0	0	0	0	0
010213	11:27:30	1	Trial	ResponseIR	14	0	175	0	102	11:27:30	656645	5	3	3	3	3	3	3	3	3	0	0	0	0	0	0	0	0	0	0	0	0	0		1	0	0	0	0	0	0	0
010213	11:27:30	1	Trial	IncongruentRight	14	0	1000	0	102	11:27:30	657694	5	3	3	3	3	3	3	3	3	0	0	0	0	0	0	0	0	0	0	0	0	0		1	0	0	0	0	0	0	0
010213	11:27:30	1	Trial	ResponseCR	14	0	175	0	102	11:27:30	658460	5	3	3	3	3	3	3	3	3	0	0	0	0	0	0	0	0	0	0	0	0	0		1	0	0	0	0	0	0	0
010213	11:27:30	1	Trial	CongruentRight	14	0	1000	0	102	11:27:30	659509	5	3	3	3	3	3	3	3	3	0	0	0	0	0	0	0	0	0	0	0	0	0		1	0	0	0	0	0	0	0
010213	11:27:30	1	Trial	ResponseCR	14	0	175	0	102	11:27:30	660275	5	3	3	3	3	3	3	3	3	0	0	0	0	0	0	0	0	0	0	0	0	0		1	0	0	0	0	0	0	0
010213	11:27:30	1	Trial	CongruentRight	14	0	1000	0	102	11:27:30	661324	5	3	3	3	3	3	3	3	3	0	0	0	0	0	0	0	0	0	0	0	0	0		1	0	0	0	0	0	0	0
010213	11:27:30	1	Trial	ResponseIL	14	0	175	0	102	11:27:30	662090	5	3	3	3	3	3	3	3	3	0	0	0	0	0	0	0	0	0	0	0	0	0		1	0	0	0	0	0	0	0
010213	11:27:30	1	Trial	IncongruentLeft	14	0	1000	0	102	11:27:30	663139	5	3	3	3	3	3	3	3	3	0	0	0	0	0	0	0	0	0	0	0	0	0		1	0	0	0	0	0	0	0
010213	11:27:30	1	Trial	ResponseCL	14	0	175	0	102	11:27:30	663905	5	3	3	3	3	3	3	3	3	0	0	0	0	0	0	0	0	0	0	0	0	0		1	0	0	0	0	0	0	0
010213	11:27:30	1	Trial	CongruentLeft	14	0	1000	0	102	11:27:30	664954	5	3	3	3	3	3	3	3	3	0	0	0	0	0	0	0	0	0	0	0	0	0		1	0	0	0	0	0	0	0
010213	11:27:30	1	Trial	ResponseCR	14	0	175	0	102	11:27:30	665720	5	3	3	3	3	3	3	3	3	0	0	0	0	0	0	0	0	0	0	0	0	0		1	0	0	0	0	0	0	0
010213	11:27:30	1	Trial	CongruentRight	14	0	1000	0	102	11:27:30	666769	5	3	3	3	3	3	3	3	3	0	0	0	0	0	0	0	0	0	0	0	0	0		1	0	0	0	0	0	0	0
010213	11:27:30	1	Trial	ResponseCL	14	0	175	0	102	11:27:30	667534	5	3	3	3	3	3	3	3	3	0	0	0	0	0	0	0	0	0	0	0	0	0		1	0	0	0	0	0	0	0
010213	11:27:30	1	Trial	CongruentLeft	14	0	1000	0	102	11:27:30	668583	5	3	3	3	3	3	3	3	3	0	0	0	0	0	0	0	0	0	0	0	0	0		1	0	0	0	0	0	0	0
010213	11:27:30	1	Trial	ResponseIR	14	0	175	0	102	11:27:30	669349	5	3	3	3	3	3	3	3	3	0	0	0	0	0	0	0	0	0	0	0	0	0		1	0	0	0	0	0	0	0
010213	11:27:30	1	Trial	IncongruentRight	14	0	1000	0	102	11:27:30	670398	5	3	3	3	3	3	3	3	3	0	0	0	0	0	0	0	0	0	0	0	0	0		1	0	0	0	0	0	0	0
010213	11:27:30	1	Trial	ResponseCR	14	0	175	0	102	11:27:30	671164	5	3	3	3	3	3	3	3	3	0	0	0	0	0	0	0	0	0	0	0	0	0		1	0	0	0	0	0	0	0
010213	11:27:30	1	Trial	CongruentRight	14	0	1000	0	102	11:27:30	672213	5	3	3	3	3	3	3	3	3	0	0	0	0	0	0	0	0	0	0	0	0	0		1	0	0	0	0	0	0	0
010213	11:27:30	1	Trial	ResponseCL	14	0	175	0	102	11:27:30	672979	5	3	3	3	3	3	3	3	3	0	0	0	0	0	0	0	0	0	0	0	0	0		1	0	0	0	0	0	0	0
010213	11:27:30	1	Trial	CongruentLeft	14	0	1000	0	102	11:27:30	674028	5	3	3	3	3	3	3	3	3	0	0	0	0	0	0	0	0	0	0	0	0	0		1	0	0	0	0	0	0	0
010213	11:27:30	1	Trial	ResponseIL	14	0	175	0	102	11:27:30	674794	5	3	3	3	3	3	3	3	3	0	0	0	0	0	0	0	0	0	0	0	0	0		1	0	0	0	0	0	0	0
010213	11:27:30	1	Trial	IncongruentLeft	14	0	1000	0	102	11:27:30	675843	5	3	3	3	3	3	3	3	3	0	0	0	0	0	0	0	0	0	0	0	0	0		1	0	0	0	0	0	0	0
010213	11:27:30	1	Trial	ResponseIL	14	0	175	0	102	11:27:30	676609	5	3	3	3	3	3	3	3	3	0	0	0	0	0	0	0	0	0	0	0	0	0		1	0	0	0	0	0	0	0
010213	11:27:30	1	Trial	IncongruentLeft	14	0	1000	0	102	11:27:30	677658	5	3	3	3	3	3	3	3	3	0	0	0	0	0	0	0	0	0	0	0	0	0		1	0	0	0	0	0	0	0
010213	11:27:30	1	Trial	ResponseCR	14	0	175	0	102	11:27:30	678424	5	3	3	3	3	3	3	3	3	0	0	0	0	0	0	0	0	0	0	0	0	0		1	0	0	0	0	0	0	0
010213	11:27:30	1	Trial	CongruentRight	14	0	1000	0	102	11:27:30	679472	5	3	3	3	3	3	3	3	3	0	0	0	0	0	0	0	0	0	0	0	0	0		1	0	0	0	0	0	0	0
010213	11:27:30	1	Trial	ResponseIR	14	0	175	0	102	11:27:30	680238	5	3	3	3	3	3	3	3	3	0	0	0	0	0	0	0	0	0	0	0	0	0		1	0	0	0	0	0	0	0
010213	11:27:30	1	Trial	IncongruentRight	14	0	1000	0	102	11:27:30	681287	5	3	3	3	3	3	3	3	3	0	0	0	0	0	0	0	0	0	0	0	0	0		1	0	0	0	0	0	0	0
010213	11:27:30	1	Trial	ResponseCL	14	0	175	0	102	11:27:30	682053	5	3	3	3	3	3	3	3	3	0	0	0	0	0	0	0	0	0	0	0	0	0		1	0	0	0	0	0	0	0
010213	11:27:30	1	Trial	CongruentLeft	14	0	1000	0	102	11:27:30	683102	5	3	3	3	3	3	3	3	3	0	0	0	0	0	0	0	0	0	0	0	0	0		1	0	0	0	0	0	0	0
010213	11:27:30	1	Trial	ResponseIR	14	0	175	0	102	11:27:30	683868	5	3	3	3	3	3	3	3	3	0	0	0	0	0	0	0	0	0	0	0	0	0		1	0	0	0	0	0	0	0
010213	11:27:30	1	Trial	IncongruentRight	14	0	1000	0	102	11:27:30	684917	5	3	3	3	3	3	3	3	3	0	0	0	0	0	0	0	0	0	0	0	0	0		1	0	0	0	0	0	0	0
010213	11:27:30	1	Trial	ResponseCR	14	0	175	0	102	11:27:30	685683	5	3	3	3	3	3	3	3	3	0	0	0	0	0	0	0	0	0	0	0	0	0		1	0	0	0	0	0	0	0
010213	11:27:30	1	Trial	CongruentRight	14	0	1000	0	102	11:27:30	686732	5	3	3	3	3	3	3	3	3	0	0	0	0	0	0	0	0	0	0	0	0	0		1	0	0	0	0	0	0	0
010213	11:27:30	1	Trial	ResponseIL	14	0	175	0	102	11:27:30	687498	5	3	3	3	3	3	3	3	3	0	0	0	0	0	0	0	0	0	0	0	0	0		1	0	0	0	0	0	0	0
010213	11:27:30	1	Trial	IncongruentLeft	14	0	1000	0	102	11:27:30	688547	5	3	3	3	3	3	3	3	3	0	0	0	0	0	0	0	0	0	0	0	0	0		1	0	0	0	0	0	0	0
010213	11:27:30	1	Trial	ResponseCL	14	0	175	0	102	11:27:30	689313	5	3	3	3	3	3	3	3	3	0	0	0	0	0	0	0	0	0	0	0	0	0		1	0	0	0	0	0	0	0
010213	11:27:30	1	Trial	CongruentLeft	14	0	1000	0	102	11:27:30	690361	5	3	3	3	3	3	3	3	3	0	0	0	0	0	0	0	0	0	0	0	0	0		1	0	0	0	0	0	0	0
010213	11:27:30	1	Trial	ResponseCR	14	0	175	0	102	11:27:30	691127	5	3	3	3	3	3	3	3	3	0	0	0	0	0	0	0	0	0	0	0	0	0		1	0	0	0	0	0	0	0
010213	11:27:30	1	Trial	CongruentRight	14	0	1000	0	102	11:27:30	692176	5	3	3	3	3	3	3	3	3	0	0	0	0	0	0	0	0	0	0	0	0	0		1	0	0	0	0	0	0	0
010213	11:27:30	1	Trial	ResponseIL	14	0	175	0	102	11:27:30	692942	5	3	3	3	3	3	3	3	3	0	0	0	0	0	0	0	0	0	0	0	0	0		1	0	0	0	0	0	0	0
010213	11:27:30	1	Trial	IncongruentLeft	14	0	1000	0	102	11:27:30	693991	5	3	3	3	3	3	3	3	3	0	0	0	0	0	0	0	0	0	0	0	0	0		1	0	0	0	0	0	0	0
010213	11:27:30	1	Trial	ResponseCR	14	0	175	0	102	11:27:30	694757	5	3	3	3	3	3	3	3	3	0	0	0	0	0	0	0	0	0	0	0	0	0		1	0	0	0	0	0	0	0
010213	11:27:30	1	Trial	CongruentRight	14	0	1000	0	102	11:27:30	695806	5	3	3	3	3	3	3	3	3	0	0	0	0	0	0	0	0	0	0	0	0	0		1	0	0	0	0	0	0	0
010213	11:27:30	1	Trial	ResponseCR	14	0	175	0	102	11:27:30	696572	5	3	3	3	3	3	3	3	3	0	0	0	0	0	0	0	0	0	0	0	0	0		1	0	0	0	0	0	0	0
010213	11:27:30	1	Trial	CongruentRight	14	0	1000	0	102	11:27:30	697621	5	3	3	3	3	3	3	3	3	0	0	0	0	0	0	0	0	0	0	0	0	0		1	0	0	0	0	0	0	0
010213	11:27:30	1	Trial	ResponseIR	14	0	175	0	102	11:27:30	698387	5	3	3	3	3	3	3	3	3	0	0	0	0	0	0	0	0	0	0	0	0	0		1	0	0	0	0	0	0	0
010213	11:27:30	1	Trial	IncongruentRight	14	0	1000	0	102	11:27:30	699436	5	3	3	3	3	3	3	3	3	0	0	0	0	0	0	0	0	0	0	0	0	0		1	0	0	0	0	0	0	0
010213	11:27:30	1	Trial	ResponseCL	14	0	175	0	102	11:27:30	700202	5	3	3	3	3	3	3	3	3	0	0	0	0	0	0	0	0	0	0	0	0	0		1	0	0	0	0	0	0	0
010213	11:27:30	1	Trial	CongruentLeft	14	0	1000	0	102	11:27:30	701251	5	3	3	3	3	3	3	3	3	0	0	0	0	0	0	0	0	0	0	0	0	0		1	0	0	0	0	0	0	0
010213	11:27:30	1	Trial	ResponseIL	14	0	175	0	102	11:27:30	702016	5	3	3	3	3	3	3	3	3	0	0	0	0	0	0	0	0	0	0	0	0	0		1	0	0	0	0	0	0	0
010213	11:27:30	1	Trial	IncongruentLeft	14	0	1000	0	102	11:27:30	703065	5	3	3	3	3	3	3	3	3	0	0	0	0	0	0	0	0	0	0	0	0	0		1	0	0	0	0	0	0	0
010213	11:27:30	1	Trial	ResponseCL	14	0	175	0	102	11:27:30	703831	5	3	3	3	3	3	3	3	3	0	0	0	0	0	0	0	0	0	0	0	0	0		1	0	0	0	0	0	0	0
010213	11:27:30	1	Trial	CongruentLeft	14	0	1000	0	102	11:27:30	704880	5	3	3	3	3	3	3	3	3	0	0	0	0	0	0	0	0	0	0	0	0	0		1	0	0	0	0	0	0	0
010213	11:27:30	1	Trial	ResponseIR	14	0	175	0	102	11:27:30	705646	5	3	3	3	3	3	3	3	3	0	0	0	0	0	0	0	0	0	0	0	0	0		1	0	0	0	0	0	0	0
010213	11:27:30	1	Trial	IncongruentRight	14	0	1000	0	102	11:27:30	706695	5	3	3	3	3	3	3	3	3	0	0	0	0	0	0	0	0	0	0	0	0	0		1	0	0	0	0	0	0	0
010213	11:27:30	1	Trial	ResponseIL	14	0	175	0	102	11:27:30	707461	5	3	3	3	3	3	3	3	3	0	0	0	0	0	0	0	0	0	0	0	0	0		1	0	0	0	0	0	0	0
010213	11:27:30	1	Trial	IncongruentLeft	14	0	1000	0	102	11:27:30	708510	5	3	3	3	3	3	3	3	3	0	0	0	0	0	0	0	0	0	0	0	0	0		1	0	0	0	0	0	0	0
010213	11:27:30	1	Trial	ResponseCR	14	0	175	0	102	11:27:30	709276	5	3	3	3	3	3	3	3	3	0	0	0	0	0	0	0	0	0	0	0	0	0		1	0	0	0	0	0	0	0
010213	11:27:30	1	Trial	CongruentRight	14	0	1000	0	102	11:27:30	710325	5	3	3	3	3	3	3	3	3	0	0	0	0	0	0	0	0	0	0	0	0	0		1	0	0	0	0	0	0	0
010213	11:27:30	1	Trial	ResponseCL	14	0	175	0	102	11:27:30	711091	5	3	3	3	3	3	3	3	3	0	0	0	0	0	0	0	0	0	0	0	0	0		1	0	0	0	0	0	0	0
010213	11:27:30	1	Trial	CongruentLeft	14	0	1000	0	102	11:27:30	712140	5	3	3	3	3	3	3	3	3	0	0	0	0	0	0	0	0	0	0	0	0	0		1	0	0	0	0	0	0	0
010213	11:27:30	1	Trial	ResponseIL	14	0	175	0	102	11:27:30	712906	5	3	3	3	3	3	3	3	3	0	0	0	0	0	0	0	0	0	0	0	0	0		1	0	0	0	0	0	0	0
010213	11:27:30	1	Trial	IncongruentLeft	14	0	1000	0	102	11:27:30	713954	5	3	3	3	3	3	3	3	3	0	0	0	0	0	0	0	0	0	0	0	0	0		1	0	0	0	0	0	0	0
010213	11:27:30	1	Trial	ResponseCL	14	0	175	0	102	11:27:30	714720	5	3	3	3	3	3	3	3	3	0	0	0	0	0	0	0	0	0	0	0	0	0		1	0	0	0	0	0	0	0
010213	11:27:30	1	Trial	CongruentLeft	14	0	1000	0	102	11:27:30	715769	5	3	3	3	3	3	3	3	3	0	0	0	0	0	0	0	0	0	0	0	0	0		1	0	0	0	0	0	0	0
010213	11:27:30	1	Trial	ResponseIR	14	0	175	0	102	11:27:30	716535	5	3	3	3	3	3	3	3	3	0	0	0	0	0	0	0	0	0	0	0	0	0		1	0	0	0	0	0	0	0
010213	11:27:30	1	Trial	IncongruentRight	14	0	1000	0	102	11:27:30	717584	5	3	3	3	3	3	3	3	3	0	0	0	0	0	0	0	0	0	0	0	0	0		1	0	0	0	0	0	0	0
010213	11:27:30	1	Trial	ResponseCR	14	0	175	0	102	11:27:30	718350	5	3	3	3	3	3	3	3	3	0	0	0	0	0	0	0	0	0	0	0	0	0		1	0	0	0	0	0	0	0
010213	11:27:30	1	Trial	CongruentRight	14	0	1000	0	102	11:27:30	719399	5	3	3	3	3	3	3	3	3	0	0	0	0	0	0	0	0	0	0	0	0	0		1	0	0	0	0	0	0	0
010213	11:27:30	1	Trial	ResponseIL	14	0	175	0	102	11:27:30	720165	5	3	3	3	3	3	3	3	3	0	0	0	0	0	0	0	0	0	0	0	0	0		1	0	0	0	0	0	0	0
010213	11:27:30	1	Trial	IncongruentLeft	14	0	1000	0	102	11:27:30	721214	5	3	3	3	3	3	3	3	3	0	0	0	0	0	0	0	0	0	0	0	0	0		1	0	0	0	0	0	0	0
010213	11:27:30	1	Trial	ResponseCL	14	0	175	0	102	11:27:30	721980	5	3	3	3	3	3	3	3	3	0	0	0	0	0	0	0	0	0	0	0	0	0		1	0	0	0	0	0	0	0
010213	11:27:30	1	Trial	CongruentLeft	14	0	1000	0	102	11:27:30	723029	5	3	3	3	3	3	3	3	3	0	0	0	0	0	0	0	0	0	0	0	0	0		1	0	0	0	0	0	0	0
010213	11:27:30	1	Trial	ResponseIR	14	0	175	0	102	11:27:30	723795	5	3	3	3	3	3	3	3	3	0	0	0	0	0	0	0	0	0	0	0	0	0		1	0	0	0	0	0	0	0
010213	11:27:30	1	Trial	IncongruentRight	14	0	1000	0	102	11:27:30	724843	5	3	3	3	3	3	3	3	3	0	0	0	0	0	0	0	0	0	0	0	0	0		1	0	0	0	0	0	0	0
010213	11:27:30	1	Trial	ResponseIL	14	0	175	0	102	11:27:30	725609	5	3	3	3	3	3	3	3	3	0	0	0	0	0	0	0	0	0	0	0	0	0		1	0	0	0	0	0	0	0
010213	11:27:30	1	Trial	IncongruentLeft	14	0	1000	0	102	11:27:30	726658	5	3	3	3	3	3	3	3	3	0	0	0	0	0	0	0	0	0	0	0	0	0		1	0	0	0	0	0	0	0
010213	11:27:30	1	Trial	ResponseCL	14	0	175	0	102	11:27:30	727424	5	3	3	3	3	3	3	3	3	0	0	0	0	0	0	0	0	0	0	0	0	0		1	0	0	0	0	0	0	0
010213	11:27:30	1	Trial	CongruentLeft	14	0	1000	0	102	11:27:30	728473	5	3	3	3	3	3	3	3	3	0	0	0	0	0	0	0	0	0	0	0	0	0		1	0	0	0	0	0	0	0
010213	11:27:30	1	Trial	ResponseIL	14	0	175	0	102	11:27:30	729239	5	3	3	3	3	3	3	3	3	0	0	0	0	0	0	0	0	0	0	0	0	0		1	0	0	0	0	0	0	0
010213	11:27:30	1	Trial	IncongruentLeft	14	0	1000	0	102	11:27:30	730288	5	3	3	3	3	3	3	3	3	0	0	0	0	0	0	0	0	0	0	0	0	0		1	0	0	0	0	0	0	0
010213	11:27:30	1	Trial	ResponseCR	14	0	175	0	102	11:27:30	731054	5	3	3	3	3	3	3	3	3	0	0	0	0	0	0	0	0	0	0	0	0	0		1	0	0	0	0	0	0	0
010213	11:27:30	1	Trial	CongruentRight	14	0	1000	0	102	11:27:30	732103	5	3	3	3	3	3	3	3	3	0	0	0	0	0	0	0	0	0	0	0	0	0		1	0	0	0	0	0	0	0
010213	11:27:30	1	Trial	ResponseCL	14	0	175	0	102	11:27:30	732869	5	3	3	3	3	3	3	3	3	0	0	0	0	0	0	0	0	0	0	0	0	0		1	0	0	0	0	0	0	0
010213	11:27:30	1	Trial	CongruentLeft	14	0	1000	0	102	11:27:30	733918	5	3	3	3	3	3	3	3	3	0	0	0	0	0	0	0	0	0	0	0	0	0		1	0	0	0	0	0	0	0
010213	11:27:30	1	Trial	ResponseIR	14	0	175	0	102	11:27:30	734684	5	3	3	3	3	3	3	3	3	0	0	0	0	0	0	0	0	0	0	0	0	0		1	0	0	0	0	0	0	0
010213	11:27:30	1	Trial	IncongruentRight	14	0	1000	0	102	11:27:30	735733	5	3	3	3	3	3	3	3	3	0	0	0	0	0	0	0	0	0	0	0	0	0		1	0	0	0	0	0	0	0
010213	11:27:30	1	Trial	ResponseCL	14	0	175	0	102	11:27:30	736498	5	3	3	3	3	3	3	3	3	0	0	0	0	0	0	0	0	0	0	0	0	0		1	0	0	0	0	0	0	0
010213	11:27:30	1	Trial	CongruentLeft	14	0	1000	0	102	11:27:30	737547	5	3	3	3	3	3	3	3	3	0	0	0	0	0	0	0	0	0	0	0	0	0		1	0	0	0	0	0	0	0
010213	11:27:30	1	Trial	ResponseCR	14	0	175	0	102	11:27:30	738313	5	3	3	3	3	3	3	3	3	0	0	0	0	0	0	0	0	0	0	0	0	0		1	0	0	0	0	0	0	0
010213	11:27:30	1	Trial	CongruentRight	14	0	1000	0	102	11:27:30	739362	5	3	3	3	3	3	3	3	3	0	0	0	0	0	0	0	0	0	0	0	0	0		1	0	0	0	0	0	0	0
010213	11:27:30	1	Trial	ResponseIL	14	0	175	0	102	11:27:30	740128	5	3	3	3	3	3	3	3	3	0	0	0	0	0	0	0	0	0	0	0	0	0		1	0	0	0	0	0	0	0
010213	11:27:30	1	Trial	IncongruentLeft	14	0	1000	0	102	11:27:30	741177	5	3	3	3	3	3	3	3	3	0	0	0	0	0	0	0	0	0	0	0	0	0		1	0	0	0	0	0	0	0
010213	11:27:30	1	WordsAbsFr6mo	PAbsFr6mo1	16	Abs2	2723	0	102	11:27:30	749852	5	3	3	3	3	3	3	3	3	0	0	0	0	0	0	0	0	0	0	0	0	0		1	0	0	0	0	0	0	0
010213	11:27:30	1	WordsAbsFr6mo	PAbsFr6mo2	16	Abs2	1599	0	102	11:27:30	751517	5	3	3	3	3	3	3	3	3	0	0	0	0	0	0	0	0	0	0	0	0	0		1	0	0	0	0	0	0	0
010213	11:27:30	1	WordsAbsFr6mo	PAbsFr6mo3	16	AbsContinue	1779	0	102	11:27:30	753348	5	3	3	3	3	3	3	3	3	0	0	0	0	0	0	0	0	0	0	0	0	0		1	0	0	0	0	0	0	0
010213	11:27:30	1	WordsAbsFr6mo	AbsFr6mo1	16	Abs1	2316	0	102	11:27:30	755729	5	3	3	3	3	3	3	3	3	0	0	1	0	0	0	0	0	0	0	0	0	0		1	0	0	0	0	0	0	0
010213	11:27:30	1	WordsAbsFr6mo	AbsFr6mo2	16	Abs1	822	0	102	11:27:30	756612	5	3	3	3	3	3	3	3	3	0	0	2	0	0	0	0	0	0	0	0	0	0		1	0	0	0	0	0	0	0
010213	11:27:30	1	WordsAbsFr6mo	AbsFr6mo3	16	Abs1	596	0	102	11:27:30	757261	5	3	3	3	3	3	3	3	3	0	0	3	0	0	0	0	0	0	0	0	0	0		1	0	0	0	0	0	0	0
010213	11:27:30	1	Trial2BackFrS	NS	17	0	1000	1	102	11:27:30	780571	5	3	3	3	3	3	3	3	3	0	0	3	0	0	0	0	0	0	0	0	0	0		1	0	0	0	0	0	0	0
010213	11:27:30	1	Trial2BackFrS	NS	17	0	1000	1	102	11:27:30	782086	5	3	3	3	3	3	3	3	3	0	0	3	0	0	0	0	0	0	0	0	0	0		1	0	0	0	0	0	0	0
010213	11:27:30	1	Trial2BackFrS	NS	17	0	1000	1	102	11:27:30	783601	5	3	3	3	3	3	3	3	3	0	0	3	0	0	0	0	0	0	0	0	0	0		1	0	0	0	0	0	0	0
010213	11:27:30	1	Trial2BackFrS	YS	17	0	1000	0	102	11:27:30	785116	5	3	3	3	3	3	3	3	3	0	0	3	0	0	0	0	0	0	0	0	0	0		1	0	0	0	0	0	0	0
010213	11:27:30	1	Trial2BackFrS	NS	17	0	1000	1	102	11:27:30	786631	5	3	3	3	3	3	3	3	3	0	0	3	0	0	0	0	0	0	0	0	0	0		1	0	0	0	0	0	0	0
010213	11:27:30	1	Trial2BackFrS	NS	17	0	1000	1	102	11:27:30	788147	5	3	3	3	3	3	3	3	3	0	0	3	0	0	0	0	0	0	0	0	0	0		1	0	0	0	0	0	0	0
010213	11:27:30	1	Trial2BackFrS	NS	17	0	1000	1	102	11:27:30	789662	5	3	3	3	3	3	3	3	3	0	0	3	0	0	0	0	0	0	0	0	0	0		1	0	0	0	0	0	0	0
010213	11:27:30	1	Trial2BackFrS	NS	17	0	1000	1	102	11:27:30	791177	5	3	3	3	3	3	3	3	3	0	0	3	0	0	0	0	0	0	0	0	0	0		1	0	0	0	0	0	0	0
010213	11:27:30	1	Trial2BackFrS	YS	17	0	1000	0	102	11:27:30	792692	5	3	3	3	3	3	3	3	3	0	0	3	0	0	0	0	0	0	0	0	0	0		1	0	0	0	0	0	0	0
010213	11:27:30	1	Trial2BackFrS	NS	17	0	1000	1	102	11:27:30	794207	5	3	3	3	3	3	3	3	3	0	0	3	0	0	0	0	0	0	0	0	0	0		1	0	0	0	0	0	0	0
010213	11:27:30	1	Trial2BackFrS	NS	17	0	1000	1	102	11:27:30	795722	5	3	3	3	3	3	3	3	3	0	0	3	0	0	0	0	0	0	0	0	0	0		1	0	0	0	0	0	0	0
010213	11:27:30	1	Trial2BackFrS	YS	17	0	1000	0	102	11:27:30	797237	5	3	3	3	3	3	3	3	3	0	0	3	0	0	0	0	0	0	0	0	0	0		1	0	0	0	0	0	0	0
010213	11:27:30	1	Trial2BackFrS	NS	17	0	1000	1	102	11:27:30	798753	5	3	3	3	3	3	3	3	3	0	0	3	0	0	0	0	0	0	0	0	0	0		1	0	0	0	0	0	0	0
010213	11:27:30	1	Trial2BackFrS	NS	17	0	1000	1	102	11:27:30	800268	5	3	3	3	3	3	3	3	3	0	0	3	0	0	0	0	0	0	0	0	0	0		1	0	0	0	0	0	0	0
010213	11:27:30	1	Trial2BackFrS	NS	17	0	1000	1	102	11:27:30	801783	5	3	3	3	3	3	3	3	3	0	0	3	0	0	0	0	0	0	0	0	0	0		1	0	0	0	0	0	0	0
010213	11:27:30	1	Trial2BackFrS	YS	17	0	1000	0	102	11:27:30	803298	5	3	3	3	3	3	3	3	3	0	0	3	0	0	0	0	0	0	0	0	0	0		1	0	0	0	0	0	0	0
010213	11:27:30	1	Trial2BackFrS	NS	17	0	1000	1	102	11:27:30	804813	5	3	3	3	3	3	3	3	3	0	0	3	0	0	0	0	0	0	0	0	0	0		1	0	0	0	0	0	0	0
010213	11:27:30	1	Trial2BackFrS	NS	17	0	1000	1	102	11:27:30	806328	5	3	3	3	3	3	3	3	3	0	0	3	0	0	0	0	0	0	0	0	0	0		1	0	0	0	0	0	0	0
010213	11:27:30	1	Trial2BackFrS	NS	17	0	1000	1	102	11:27:30	807844	5	3	3	3	3	3	3	3	3	0	0	3	0	0	0	0	0	0	0	0	0	0		1	0	0	0	0	0	0	0
010213	11:27:30	1	Trial2BackFrS	NS	17	0	1000	1	102	11:27:30	809359	5	3	3	3	3	3	3	3	3	0	0	3	0	0	0	0	0	0	0	0	0	0		1	0	0	0	0	0	0	0
010213	11:27:30	1	Trial2BackFrS	YS	17	0	1000	0	102	11:27:30	810874	5	3	3	3	3	3	3	3	3	0	0	3	0	0	0	0	0	0	0	0	0	0		1	0	0	0	0	0	0	0
010213	11:27:30	1	Trial2BackFrS	NS	17	0	1000	1	102	11:27:30	812389	5	3	3	3	3	3	3	3	3	0	0	3	0	0	0	0	0	0	0	0	0	0		1	0	0	0	0	0	0	0
010213	11:27:30	1	Trial2BackFrS	NS	17	0	1000	1	102	11:27:30	813904	5	3	3	3	3	3	3	3	3	0	0	3	0	0	0	0	0	0	0	0	0	0		1	0	0	0	0	0	0	0
010213	11:27:30	1	Trial2BackFrS	NS	17	0	1000	1	102	11:27:30	815419	5	3	3	3	3	3	3	3	3	0	0	3	0	0	0	0	0	0	0	0	0	0		1	0	0	0	0	0	0	0
010213	11:27:30	1	Trial2BackFrS	NS	17	0	1000	1	102	11:27:30	816934	5	3	3	3	3	3	3	3	3	0	0	3	0	0	0	0	0	0	0	0	0	0		1	0	0	0	0	0	0	0
010213	11:27:30	1	Trial2BackFrS	NS	17	0	1000	1	102	11:27:30	818449	5	3	3	3	3	3	3	3	3	0	0	3	0	0	0	0	0	0	0	0	0	0		1	0	0	0	0	0	0	0
010213	11:27:30	1	Trial2BackFrS	NS	17	0	1000	1	102	11:27:30	819965	5	3	3	3	3	3	3	3	3	0	0	3	0	0	0	0	0	0	0	0	0	0		1	0	0	0	0	0	0	0
010213	11:27:30	1	Trial2BackFrS	NS	17	0	1000	1	102	11:27:30	821480	5	3	3	3	3	3	3	3	3	0	0	3	0	0	0	0	0	0	0	0	0	0		1	0	0	0	0	0	0	0
010213	11:27:30	1	Trial2BackFrS	NS	17	0	1000	1	102	11:27:30	822995	5	3	3	3	3	3	3	3	3	0	0	3	0	0	0	0	0	0	0	0	0	0		1	0	0	0	0	0	0	0
010213	11:27:30	1	Trial2BackFrS	NS	17	0	1000	1	102	11:27:30	824510	5	3	3	3	3	3	3	3	3	0	0	3	0	0	0	0	0	0	0	0	0	0		1	0	0	0	0	0	0	0
010213	11:27:30	1	Trial2BackFrS	NS	17	0	1000	1	102	11:27:30	826025	5	3	3	3	3	3	3	3	3	0	0	3	0	0	0	0	0	0	0	0	0	0		1	0	0	0	0	0	0	0
010213	11:27:30	1	Trial2BackFrS	YS	17	0	1000	0	102	11:27:30	827540	5	3	3	3	3	3	3	3	3	0	0	3	0	0	0	0	0	0	0	0	0	0		1	0	0	0	0	0	0	0
010213	11:27:30	1	Trial2BackFrS	NS	17	0	1000	1	102	11:27:30	829055	5	3	3	3	3	3	3	3	3	0	0	3	0	0	0	0	0	0	0	0	0	0		1	0	0	0	0	0	0	0
010213	11:27:30	1	Trial2BackFrS	NS	17	0	1000	1	102	11:27:30	830571	5	3	3	3	3	3	3	3	3	0	0	3	0	0	0	0	0	0	0	0	0	0		1	0	0	0	0	0	0	0
010213	11:27:30	1	Trial2BackFrS	NS	17	0	1000	1	102	11:27:30	832086	5	3	3	3	3	3	3	3	3	0	0	3	0	0	0	0	0	0	0	0	0	0		1	0	0	0	0	0	0	0
010213	11:27:30	1	Trial2BackFrS	YS	17	0	1000	0	102	11:27:30	833601	5	3	3	3	3	3	3	3	3	0	0	3	0	0	0	0	0	0	0	0	0	0		1	0	0	0	0	0	0	0
010213	11:27:30	1	Trial2BackFrS	NS	17	0	1000	1	102	11:27:30	835116	5	3	3	3	3	3	3	3	3	0	0	3	0	0	0	0	0	0	0	0	0	0		1	0	0	0	0	0	0	0
010213	11:27:30	1	Trial2BackFrS	NS	17	0	1000	1	102	11:27:30	836631	5	3	3	3	3	3	3	3	3	0	0	3	0	0	0	0	0	0	0	0	0	0		1	0	0	0	0	0	0	0
010213	11:27:30	1	Trial2BackFrS	NS	17	0	1000	1	102	11:27:30	838146	5	3	3	3	3	3	3	3	3	0	0	3	0	0	0	0	0	0	0	0	0	0		1	0	0	0	0	0	0	0
010213	11:27:30	1	Trial2BackFrS	NS	17	0	1000	1	102	11:27:30	839661	5	3	3	3	3	3	3	3	3	0	0	3	0	0	0	0	0	0	0	0	0	0		1	0	0	0	0	0	0	0
010213	11:27:30	1	Trial2BackFrS	NS	17	0	1000	1	102	11:27:30	841177	5	3	3	3	3	3	3	3	3	0	0	3	0	0	0	0	0	0	0	0	0	0		1	0	0	0	0	0	0	0
010213	11:27:30	1	Trial2BackFrS	NS	17	0	1000	1	102	11:27:30	842692	5	3	3	3	3	3	3	3	3	0	0	3	0	0	0	0	0	0	0	0	0	0		1	0	0	0	0	0	0	0
010213	11:27:30	1	Trial2BackFrS	NS	17	0	1000	1	102	11:27:30	844207	5	3	3	3	3	3	3	3	3	0	0	3	0	0	0	0	0	0	0	0	0	0		1	0	0	0	0	0	0	0
010213	11:27:30	1	Trial2BackFrS	YS	17	0	1000	0	102	11:27:30	845722	5	3	3	3	3	3	3	3	3	0	0	3	0	0	0	0	0	0	0	0	0	0		1	0	0	0	0	0	0	0
010213	11:27:30	1	Trial2BackFrS	NS	17	0	1000	1	102	11:27:30	847237	5	3	3	3	3	3	3	3	3	0	0	3	0	0	0	0	0	0	0	0	0	0		1	0	0	0	0	0	0	0
010213	11:27:30	1	Trial2BackFrS	NS	17	0	1000	1	102	11:27:30	848752	5	3	3	3	3	3	3	3	3	0	0	3	0	0	0	0	0	0	0	0	0	0		1	0	0	0	0	0	0	0
010213	11:27:30	1	Trial2BackFrS	NS	17	0	1000	1	102	11:27:30	850267	5	3	3	3	3	3	3	3	3	0	0	3	0	0	0	0	0	0	0	0	0	0		1	0	0	0	0	0	0	0
010213	11:27:30	1	Trial2BackFrS	NS	17	0	1000	1	102	11:27:30	851783	5	3	3	3	3	3	3	3	3	0	0	3	0	0	0	0	0	0	0	0	0	0		1	0	0	0	0	0	0	0
010213	11:27:30	1	Trial2BackFrS	YS	17	0	1000	0	102	11:27:30	853298	5	3	3	3	3	3	3	3	3	0	0	3	0	0	0	0	0	0	0	0	0	0		1	0	0	0	0	0	0	0
010213	11:27:30	1	Trial2BackFrS	NS	17	0	1000	1	102	11:27:30	854813	5	3	3	3	3	3	3	3	3	0	0	3	0	0	0	0	0	0	0	0	0	0		1	0	0	0	0	0	0	0
010213	11:27:30	1	Trial2BackFrS	NS	17	0	1000	1	102	11:27:30	856328	5	3	3	3	3	3	3	3	3	0	0	3	0	0	0	0	0	0	0	0	0	0		1	0	0	0	0	0	0	0
010213	11:27:30	1	Trial2BackFrS	NS	17	0	1000	1	102	11:27:30	857843	5	3	3	3	3	3	3	3	3	0	0	3	0	0	0	0	0	0	0	0	0	0		1	0	0	0	0	0	0	0
010213	11:27:30	1	Trial2BackFrS	NS	17	0	1000	1	102	11:27:30	859358	5	3	3	3	3	3	3	3	3	0	0	3	0	0	0	0	0	0	0	0	0	0		1	0	0	0	0	0	0	0
010213	11:27:30	1	Trial2BackFrS	NS	17	0	1000	1	102	11:27:30	860873	5	3	3	3	3	3	3	3	3	0	0	3	0	0	0	0	0	0	0	0	0	0		1	0	0	0	0	0	0	0
010213	11:27:30	1	Trial2BackFrS	NS	17	0	1000	1	102	11:27:30	862389	5	3	3	3	3	3	3	3	3	0	0	3	0	0	0	0	0	0	0	0	0	0		1	0	0	0	0	0	0	0
010213	11:27:30	1	Trial2BackFrS	YS	17	0	1000	0	102	11:27:30	863904	5	3	3	3	3	3	3	3	3	0	0	3	0	0	0	0	0	0	0	0	0	0		1	0	0	0	0	0	0	0
010213	11:27:30	1	Trial2BackFrS	NS	17	0	1000	1	102	11:27:30	865419	5	3	3	3	3	3	3	3	3	0	0	3	0	0	0	0	0	0	0	0	0	0		1	0	0	0	0	0	0	0
010213	11:27:30	1	Trial2BackFrS	NS	17	0	1000	1	102	11:27:30	866934	5	3	3	3	3	3	3	3	3	0	0	3	0	0	0	0	0	0	0	0	0	0		1	0	0	0	0	0	0	0
010213	11:27:30	1	Trial2BackFrS	NS	17	0	1000	1	102	11:27:30	868449	5	3	3	3	3	3	3	3	3	0	0	3	0	0	0	0	0	0	0	0	0	0		1	0	0	0	0	0	0	0
010213	11:27:30	1	Trial2BackFrS	NS	17	0	1000	1	102	11:27:30	869964	5	3	3	3	3	3	3	3	3	0	0	3	0	0	0	0	0	0	0	0	0	0		1	0	0	0	0	0	0	0
010213	11:27:30	1	Trial2BackFrS	NS	17	0	1000	1	102	11:27:30	871479	5	3	3	3	3	3	3	3	3	0	0	3	0	0	0	0	0	0	0	0	0	0		1	0	0	0	0	0	0	0
010213	11:27:30	1	Trial2BackFrS	NS	17	0	1000	1	102	11:27:30	872995	5	3	3	3	3	3	3	3	3	0	0	3	0	0	0	0	0	0	0	0	0	0		1	0	0	0	0	0	0	0
010213	11:27:30	1	Trial2BackFrS	NS	17	0	1000	1	102	11:27:30	874510	5	3	3	3	3	3	3	3	3	0	0	3	0	0	0	0	0	0	0	0	0	0		1	0	0	0	0	0	0	0
010213	11:27:30	1	Trial2BackFrS	YS	17	0	1000	0	102	11:27:30	876025	5	3	3	3	3	3	3	3	3	0	0	3	0	0	0	0	0	0	0	0	0	0		1	0	0	0	0	0	0	0
010213	11:27:30	1	Trial2BackFrS	NS	17	0	1000	1	102	11:27:30	877540	5	3	3	3	3	3	3	3	3	0	0	3	0	0	0	0	0	0	0	0	0	0		1	0	0	0	0	0	0	0
010213	11:27:30	1	Trial2BackFrS	NS	17	0	1000	1	102	11:27:30	879055	5	3	3	3	3	3	3	3	3	0	0	3	0	0	0	0	0	0	0	0	0	0		1	0	0	0	0	0	0	0
010213	11:27:30	1	Trial2BackFrS	NS	17	0	1000	1	102	11:27:30	880570	5	3	3	3	3	3	3	3	3	0	0	3	0	0	0	0	0	0	0	0	0	0		1	0	0	0	0	0	0	0
010213	11:27:30	1	Trial2BackFrS	NS	17	0	1000	1	102	11:27:30	882085	5	3	3	3	3	3	3	3	3	0	0	3	0	0	0	0	0	0	0	0	0	0		1	0	0	0	0	0	0	0
010213	11:27:30	1	Trial2BackFrS	YS	17	0	1000	0	102	11:27:30	883601	5	3	3	3	3	3	3	3	3	0	0	3	0	0	0	0	0	0	0	0	0	0		1	0	0	0	0	0	0	0
010213	11:27:30	1	Trial2BackFrS	NS	17	0	1000	1	102	11:27:30	885116	5	3	3	3	3	3	3	3	3	0	0	3	0	0	0	0	0	0	0	0	0	0		1	0	0	0	0	0	0	0
010213	11:27:30	1	Trial2BackFrS	NS	17	0	1000	1	102	11:27:30	886631	5	3	3	3	3	3	3	3	3	0	0	3	0	0	0	0	0	0	0	0	0	0		1	0	0	0	0	0	0	0
010213	11:27:30	1	Trial2BackFrS	YS	17	0	1000	0	102	11:27:30	888146	5	3	3	3	3	3	3	3	3	0	0	3	0	0	0	0	0	0	0	0	0	0		1	0	0	0	0	0	0	0
010213	11:27:30	1	Trial2BackFrS	NS	17	0	1000	1	102	11:27:30	889661	5	3	3	3	3	3	3	3	3	0	0	3	0	0	0	0	0	0	0	0	0	0		1	0	0	0	0	0	0	0
010213	11:27:30	1	Trial2BackFrS	NS	17	0	1000	1	102	11:27:30	891176	5	3	3	3	3	3	3	3	3	0	0	3	0	0	0	0	0	0	0	0	0	0		1	0	0	0	0	0	0	0
010213	11:27:30	1	Trial2BackFrS	NS	17	0	1000	1	102	11:27:30	892692	5	3	3	3	3	3	3	3	3	0	0	3	0	0	0	0	0	0	0	0	0	0		1	0	0	0	0	0	0	0
010213	11:27:30	1	Trial2BackFrS	NS	17	0	1000	1	102	11:27:30	894207	5	3	3	3	3	3	3	3	3	0	0	3	0	0	0	0	0	0	0	0	0	0		1	0	0	0	0	0	0	0
010213	11:27:30	1	Trial2BackFrS	NS	17	0	1000	1	102	11:27:30	895722	5	3	3	3	3	3	3	3	3	0	0	3	0	0	0	0	0	0	0	0	0	0		1	0	0	0	0	0	0	0
010213	11:27:30	1	Trial2BackFrS	NS	17	0	1000	1	102	11:27:30	897237	5	3	3	3	3	3	3	3	3	0	0	3	0	0	0	0	0	0	0	0	0	0		1	0	0	0	0	0	0	0
010213	11:27:30	1	Trial2BackFrS	YS	17	0	1000	0	102	11:27:30	898752	5	3	3	3	3	3	3	3	3	0	0	3	0	0	0	0	0	0	0	0	0	0		1	0	0	0	0	0	0	0
010213	11:27:30	1	Trial2BackFrS	NS	17	0	1000	1	102	11:27:30	900267	5	3	3	3	3	3	3	3	3	0	0	3	0	0	0	0	0	0	0	0	0	0		1	0	0	0	0	0	0	0
010213	11:27:30	1	Trial2BackFrS	NS	17	0	1000	1	102	11:27:30	901782	5	3	3	3	3	3	3	3	3	0	0	3	0	0	0	0	0	0	0	0	0	0		1	0	0	0	0	0	0	0
010213	11:27:30	1	Trial2BackFrS	NS	17	0	1000	1	102	11:27:30	903298	5	3	3	3	3	3	3	3	3	0	0	3	0	0	0	0	0	0	0	0	0	0		1	0	0	0	0	0	0	0
010213	11:27:30	1	Trial2BackFrS	NS	17	0	1000	1	102	11:27:30	904813	5	3	3	3	3	3	3	3	3	0	0	3	0	0	0	0	0	0	0	0	0	0		1	0	0	0	0	0	0	0
010213	11:27:30	1	Trial2BackFrS	YS	17	0	1000	0	102	11:27:30	906328	5	3	3	3	3	3	3	3	3	0	0	3	0	0	0	0	0	0	0	0	0	0		1	0	0	0	0	0	0	0
010213	11:27:30	1	Trial2BackFrS	NS	17	0	1000	1	102	11:27:30	907843	5	3	3	3	3	3	3	3	3	0	0	3	0	0	0	0	0	0	0	0	0	0		1	0	0	0	0	0	0	0
010213	11:27:30	1	Trial2BackFrS	NS	17	0	1000	1	102	11:27:30	909358	5	3	3	3	3	3	3	3	3	0	0	3	0	0	0	0	0	0	0	0	0	0		1	0	0	0	0	0	0	0
010213	11:27:30	1	Trial2BackFrS	NS	17	0	1000	1	102	11:27:30	910873	5	3	3	3	3	3	3	3	3	0	0	3	0	0	0	0	0	0	0	0	0	0		1	0	0	0	0	0	0	0
010213	11:27:30	1	Trial2BackFrS	NS	17	0	1000	1	102	11:27:30	912388	5	3	3	3	3	3	3	3	3	0	0	3	0	0	0	0	0	0	0	0	0	0		1	0	0	0	0	0	0	0
010213	11:27:30	1	Trial2BackFrS	YS	17	0	1000	0	102	11:27:30	913904	5	3	3	3	3	3	3	3	3	0	0	3	0	0	0	0	0	0	0	0	0	0		1	0	0	0	0	0	0	0
010213	11:27:30	1	Trial2BackFrS	NS	17	0	1000	1	102	11:27:30	915419	5	3	3	3	3	3	3	3	3	0	0	3	0	0	0	0	0	0	0	0	0	0		1	0	0	0	0	0	0	0
010213	11:27:30	1	Trial2BackFrS	NS	17	0	1000	1	102	11:27:30	916934	5	3	3	3	3	3	3	3	3	0	0	3	0	0	0	0	0	0	0	0	0	0		1	0	0	0	0	0	0	0
010213	11:27:30	1	Trial2BackFrS	YS	17	0	1000	0	102	11:27:30	918449	5	3	3	3	3	3	3	3	3	0	0	3	0	0	0	0	0	0	0	0	0	0		1	0	0	0	0	0	0	0
010213	11:27:30	1	Trial2BackFrS	NS	17	0	1000	1	102	11:27:30	919964	5	3	3	3	3	3	3	3	3	0	0	3	0	0	0	0	0	0	0	0	0	0		1	0	0	0	0	0	0	0
010213	11:27:30	1	Trial2BackFrS	NS	17	0	1000	1	102	11:27:30	921479	5	3	3	3	3	3	3	3	3	0	0	3	0	0	0	0	0	0	0	0	0	0		1	0	0	0	0	0	0	0
010213	11:27:30	1	Trial2BackFrS	NS	17	0	1000	1	102	11:27:30	922994	5	3	3	3	3	3	3	3	3	0	0	3	0	0	0	0	0	0	0	0	0	0		1	0	0	0	0	0	0	0
010213	11:27:30	1	Trial2BackFrS	NS	17	0	1000	1	102	11:27:30	924510	5	3	3	3	3	3	3	3	3	0	0	3	0	0	0	0	0	0	0	0	0	0		1	0	0	0	0	0	0	0
010213	11:27:30	1	Trial2BackFrS	NS	17	0	1000	1	102	11:27:30	926025	5	3	3	3	3	3	3	3	3	0	0	3	0	0	0	0	0	0	0	0	0	0		1	0	0	0	0	0	0	0
010213	11:27:30	1	Trial2BackFrS	NS	17	0	1000	1	102	11:27:30	927540	5	3	3	3	3	3	3	3	3	0	0	3	0	0	0	0	0	0	0	0	0	0		1	0	0	0	0	0	0	0
010213	11:27:30	1	Trial2BackFrS	NS	17	0	1000	1	102	11:27:30	929055	5	3	3	3	3	3	3	3	3	0	0	3	0	0	0	0	0	0	0	0	0	0		1	0	0	0	0	0	0	0
010213	11:27:30	1	Trial2BackFrS	NS	17	0	1000	1	102	11:27:30	930570	5	3	3	3	3	3	3	3	3	0	0	3	0	0	0	0	0	0	0	0	0	0		1	0	0	0	0	0	0	0
010213	11:27:30	1	Trial2BackFrS	YS	17	0	1000	0	102	11:27:30	932085	5	3	3	3	3	3	3	3	3	0	0	3	0	0	0	0	0	0	0	0	0	0		1	0	0	0	0	0	0	0
010213	11:27:30	1	Trial2BackFrS	NS	17	0	1000	1	102	11:27:30	933600	5	3	3	3	3	3	3	3	3	0	0	3	0	0	0	0	0	0	0	0	0	0		1	0	0	0	0	0	0	0
010213	11:27:30	1	Trial2BackFrS	NS	17	0	1000	1	102	11:27:30	935116	5	3	3	3	3	3	3	3	3	0	0	3	0	0	0	0	0	0	0	0	0	0		1	0	0	0	0	0	0	0
010213	11:27:30	1	Trial2BackFrS	NS	17	0	1000	1	102	11:27:30	936631	5	3	3	3	3	3	3	3	3	0	0	3	0	0	0	0	0	0	0	0	0	0		1	0	0	0	0	0	0	0
010213	11:27:30	1	Trial2BackFrS	NS	17	0	1000	1	102	11:27:30	938146	5	3	3	3	3	3	3	3	3	0	0	3	0	0	0	0	0	0	0	0	0	0		1	0	0	0	0	0	0	0
010213	11:27:30	1	Trial2BackFrS	NS	17	0	1000	1	102	11:27:30	939661	5	3	3	3	3	3	3	3	3	0	0	3	0	0	0	0	0	0	0	0	0	0		1	0	0	0	0	0	0	0
010213	11:27:30	1	Trial2BackFrS	NS	17	0	1000	1	102	11:27:30	941176	5	3	3	3	3	3	3	3	3	0	0	3	0	0	0	0	0	0	0	0	0	0		1	0	0	0	0	0	0	0
010213	11:27:30	1	Trial2BackFrS	NS	17	0	1000	1	102	11:27:30	942691	5	3	3	3	3	3	3	3	3	0	0	3	0	0	0	0	0	0	0	0	0	0		1	0	0	0	0	0	0	0
010213	11:27:30	1	Trial2BackFrS	YS	17	0	1000	0	102	11:27:30	944206	5	3	3	3	3	3	3	3	3	0	0	3	0	0	0	0	0	0	0	0	0	0		1	0	0	0	0	0	0	0
010213	11:27:30	1	Trial2BackFrS	NS	17	0	1000	1	102	11:27:30	945722	5	3	3	3	3	3	3	3	3	0	0	3	0	0	0	0	0	0	0	0	0	0		1	0	0	0	0	0	0	0
010213	11:27:30	1	Trial2BackFrS	NS	17	0	1000	1	102	11:27:30	947237	5	3	3	3	3	3	3	3	3	0	0	3	0	0	0	0	0	0	0	0	0	0		1	0	0	0	0	0	0	0
010213	11:27:30	1	Trial2BackFrS	NS	17	0	1000	1	102	11:27:30	948752	5	3	3	3	3	3	3	3	3	0	0	3	0	0	0	0	0	0	0	0	0	0		1	0	0	0	0	0	0	0
010213	11:27:30	1	Trial2BackFrS	NS	17	0	1000	1	102	11:27:30	950267	5	3	3	3	3	3	3	3	3	0	0	3	0	0	0	0	0	0	0	0	0	0		1	0	0	0	0	0	0	0
010213	11:27:30	1	Trial2BackFrS	NS	17	0	1000	1	102	11:27:30	951782	5	3	3	3	3	3	3	3	3	0	0	3	0	0	0	0	0	0	0	0	0	0		1	0	0	0	0	0	0	0
010213	11:27:30	1	Trial2BackFrS	NS	17	0	1000	1	102	11:27:30	953297	5	3	3	3	3	3	3	3	3	0	0	3	0	0	0	0	0	0	0	0	0	0		1	0	0	0	0	0	0	0
010213	11:27:30	1	Trial2BackFrS	NS	17	0	1000	1	102	11:27:30	954812	5	3	3	3	3	3	3	3	3	0	0	3	0	0	0	0	0	0	0	0	0	0		1	0	0	0	0	0	0	0
010213	11:27:30	1	Trial2BackFrS	NS	17	0	1000	1	102	11:27:30	956328	5	3	3	3	3	3	3	3	3	0	0	3	0	0	0	0	0	0	0	0	0	0		1	0	0	0	0	0	0	0
010213	11:27:30	1	Trial2BackFrS	NS	17	0	1000	1	102	11:27:30	957843	5	3	3	3	3	3	3	3	3	0	0	3	0	0	0	0	0	0	0	0	0	0		1	0	0	0	0	0	0	0
010213	11:27:30	1	Trial2BackFrS	YS	17	0	1000	0	102	11:27:30	959358	5	3	3	3	3	3	3	3	3	0	0	3	0	0	0	0	0	0	0	0	0	0		1	0	0	0	0	0	0	0
010213	11:27:30	1	Trial2BackFrS	NS	17	0	1000	1	102	11:27:30	960873	5	3	3	3	3	3	3	3	3	0	0	3	0	0	0	0	0	0	0	0	0	0		1	0	0	0	0	0	0	0
010213	11:27:30	1	ClockFr6mo	ClockFr6mo	19	Clock1	3687	0	102	11:27:30	964719	5	3	3	3	3	3	3	3	3	0	0	3	1	0	0	0	0	0	0	0	0	0		1	0	0	0	0	0	0	0
010213	11:27:30	1	ClockFr6mo	ClockFr6mo	19	Clock11	912	0	102	11:27:30	965685	5	3	3	3	3	3	3	3	3	0	0	3	1	1	0	0	0	0	0	0	0	0		1	0	0	0	0	0	0	0
010213	11:27:30	1	ClockFr6mo	ClockFr6mo	19	Clock111	2304	0	102	11:27:30	968049	5	3	3	3	3	3	3	3	3	0	0	3	1	1	1	0	0	0	0	0	0	0		1	0	0	0	0	0	0	0
010213	11:27:30	1	ClockFr6mo	ClockFr6mo	19	Clockdone	996	0	102	11:27:30	969098	5	3	3	3	3	3	3	3	3	0	0	3	1	1	1	0	0	0	0	0	0	0		1	0	0	0	0	0	0	0
010213	11:27:30	1	FASFrVF6mo	StopFrVF6mo	20	3	3437	0	102	11:27:30	1037532	5	3	3	3	3	3	3	3	3	0	0	3	1	1	1	0	0	0	0	0	0	0		1	0	0	0	0	0	0	0
010213	11:27:30	1	practiceTOLFR	choice	20	R	2701	0	102	11:27:30	1047724	5	3	3	3	3	3	3	3	3	0	0	3	1	1	1	0	0	0	1	2	0	-2	R	0	0	0	2795	0	0	1044928	1047723
010213	11:27:30	1	practiceTOLFR	choice	20	B	1547	0	102	11:27:30	1050882	5	3	3	3	3	3	3	3	3	0	0	3	1	1	1	0	0	0	1	2	1	-1	R3B	0	0	0	2795	0	0	1049255	1050882
010213	11:27:30	1	practiceTOLFR	feedbackFR	20	0	2000	0	102	11:27:30	1054196	5	3	3	3	3	3	3	3	3	0	0	3	1	1	1	0	0	0	1	2	2	0	R3B1	1	3	3	2795	4400	7195	1049255	1050882
010213	11:27:30	1	testTOLFR	choice	20	B	3051	0	102	11:27:30	1061826	5	3	3	3	3	3	3	3	3	0	0	3	1	1	1	0	0	2	1	2	0	-2	B	0	0	0	3129	0	0	1058697	1061826
010213	11:27:30	1	testTOLFR	choice	20	R	1207	0	102	11:27:30	1065810	5	3	3	3	3	3	3	3	3	0	0	3	1	1	1	0	0	2	1	2	1	-1	B3R	0	0	0	3129	0	0	1064524	1065810
010213	11:27:30	1	testTOLFR	feedbackFR	20	0	2000	0	102	11:27:30	1068960	5	3	3	3	3	3	3	3	3	0	0	3	1	1	1	0	0	2	1	2	2	0	B3R2	1	3	3	3129	5066	8195	1064524	1065810
010213	11:27:30	1	testTOLFR	choice	20	B	2085	0	102	11:27:30	1072165	5	3	3	3	3	3	3	3	3	0	0	3	1	1	1	0	0	4	1	3	0	-3	B	0	0	3	2160	0	0	1070005	1072165
010213	11:27:30	1	testTOLFR	choice	20	R	1878	0	102	11:27:30	1078119	5	3	3	3	3	3	3	3	3	0	0	3	1	1	1	0	0	4	1	3	1	-2	B3R	0	0	3	2160	0	0	1076152	1078119
010213	11:27:30	1	testTOLFR	choice	20	B	1128	0	102	11:27:30	1080865	5	3	3	3	3	3	3	3	3	0	0	3	1	1	1	0	0	4	1	3	2	-1	B3R2B	0	0	3	2160	0	0	1079664	1080865
010213	11:27:30	1	testTOLFR	feedbackFR	20	0	2000	0	102	11:27:30	1085959	5	3	3	3	3	3	3	3	3	0	0	3	1	1	1	0	0	4	1	3	3	0	B3R2B2	1	3	6	2160	11727	13887	1079664	1080865
010213	11:27:30	1	testTOLFR	choice	20	R	2662	0	102	11:27:30	1089742	5	3	3	3	3	3	3	3	3	0	0	3	1	1	1	0	0	7	1	4	0	-4	R	0	0	6	2738	0	0	1087004	1089742
010213	11:27:30	1	testTOLFR	choice	20	G	1767	0	102	11:27:30	1092744	5	3	3	3	3	3	3	3	3	0	0	3	1	1	1	0	0	7	1	4	1	-3	R2G	0	0	6	2738	0	0	1090898	1092743
010213	11:27:30	1	testTOLFR	choice	20	R	1292	0	102	11:27:30	1096231	5	3	3	3	3	3	3	3	3	0	0	3	1	1	1	0	0	7	1	4	2	-2	R2G3R	0	0	6	2738	0	0	1094859	1096231
010213	11:27:30	1	testTOLFR	choice	20	B	1189	0	102	11:27:30	1099208	5	3	3	3	3	3	3	3	3	0	0	3	1	1	1	0	0	7	1	4	3	-1	R2G3R1B	0	0	6	2738	0	0	1097945	1099208
010213	11:27:30	1	testTOLFR	feedbackFR	20	0	2000	0	102	11:27:30	1102754	5	3	3	3	3	3	3	3	3	0	0	3	1	1	1	0	0	7	1	4	4	0	R2G3R1B1	1	3	9	2738	10950	13688	1097945	1099208
010213	11:27:30	1	testTOLFR	choice	20	R	3855	0	102	11:27:30	1107718	5	3	3	3	3	3	3	3	3	0	0	3	1	1	1	0	0	10	1	5	0	-5	R	0	0	9	3926	0	0	1103792	1107718
010213	11:27:30	1	testTOLFR	choice	20	G	1132	0	102	11:27:30	1110173	5	3	3	3	3	3	3	3	3	0	0	3	1	1	1	0	0	10	1	5	1	-4	R2G	0	0	9	3926	0	0	1108970	1110173
010213	11:27:30	1	testTOLFR	choice	20	R	882	0	102	11:27:30	1112737	5	3	3	3	3	3	3	3	3	0	0	3	1	1	1	0	0	10	1	5	2	-3	R2G3R	0	0	9	3926	0	0	1111790	1112737
010213	11:27:30	1	testTOLFR	choice	20	B	1900	0	102	11:27:30	1115787	5	3	3	3	3	3	3	3	3	0	0	3	1	1	1	0	0	10	1	5	3	-2	R2G3R1B	0	0	9	3926	0	0	1113819	1115787
010213	11:27:30	1	testTOLFR	choice	20	G	1702	0	102	11:27:30	1118619	5	3	3	3	3	3	3	3	3	0	0	3	1	1	1	0	0	10	1	5	4	-1	R2G3R1B1G	0	0	9	3926	0	0	1116845	1118619
010213	11:27:30	1	testTOLFR	feedbackFR	20	0	2000	0	102	11:27:30	1121903	5	3	3	3	3	3	3	3	3	0	0	3	1	1	1	0	0	10	1	5	5	0	R2G3R1B1G1	1	3	12	3926	12129	16055	1116845	1118619
