date	time	subject	blockcode	trialcode	values.TaskNumber	response	latency	correct	values.Score	script.starttime	script.elapsedtime	values.ScoreS7	values.Word1	values.Word2	values.Word3	values.Word4	values.Word5	values.Word6	values.Word7	values.Word8	values.DigitSpanFwrd	values.DigitSpanBack	values.ScoreAbs	values.Contour	values.Numbers	values.Hands	values.corsiblockspanFwrd	values.corsiblockspanRev
100212	17:28:20	10025	Language	Language	0	English	1301015	0	0	17:28:20	1301114	0	0	0	0	0	0	0	0	0	0	0	0	0	0	0	0	0
100212	17:28:20	10025	Session	Session	0	3mo	992	0	0	17:28:20	1302181	0	0	0	0	0	0	0	0	0	0	0	0	0	0	0	0	0
100212	17:28:20	10025	HandEng	HandEng	0	Right	3150	0	0	17:28:20	1305406	0	0	0	0	0	0	0	0	0	0	0	0	0	0	0	0	0
100212	17:28:20	10025	CubeEng	CubeEng	1	1Cube	13604	0	0	17:28:20	1334181	0	0	0	0	0	0	0	0	0	0	0	0	0	0	0	0	0
100212	17:28:20	10025	pm.simpleEngRight	blank.simpleEng	2	0	1787	1	0	17:28:20	1348681	0	0	0	0	0	0	0	0	0	0	0	0	0	0	0	0	0
100212	17:28:20	10025	pm.simpleEngRight	pm.simpleEng	2	57	491	0	0	17:28:20	1349214	0	0	0	0	0	0	0	0	0	0	0	0	0	0	0	0	0
100212	17:28:20	10025	pm.simpleEngRight	blank.simpleEng	2	0	2487	1	0	17:28:20	1351733	0	0	0	0	0	0	0	0	0	0	0	0	0	0	0	0	0
100212	17:28:20	10025	pm.simpleEngRight	pm.simpleEng	2	57	383	0	0	17:28:20	1352160	0	0	0	0	0	0	0	0	0	0	0	0	0	0	0	0	0
100212	17:28:20	10025	pm.simpleEngRight	blank.simpleEng	2	0	1887	1	0	17:28:20	1354079	0	0	0	0	0	0	0	0	0	0	0	0	0	0	0	0	0
100212	17:28:20	10025	pm.simpleEngRight	pm.simpleEng	2	57	325	0	0	17:28:20	1354439	0	0	0	0	0	0	0	0	0	0	0	0	0	0	0	0	0
100212	17:28:20	10025	pm.simpleEngRight	blank.simpleEng	2	0	2187	1	0	17:28:20	1356651	0	0	0	0	0	0	0	0	0	0	0	0	0	0	0	0	0
100212	17:28:20	10025	pm.simpleEngRight	pm.simpleEng	2	57	313	0	0	17:28:20	1356998	0	0	0	0	0	0	0	0	0	0	0	0	0	0	0	0	0
100212	17:28:20	10025	pm.simpleEngRight	blank.simpleEng	2	0	2387	1	0	17:28:20	1359410	0	0	0	0	0	0	0	0	0	0	0	0	0	0	0	0	0
100212	17:28:20	10025	pm.simpleEngRight	pm.simpleEng	2	57	354	0	0	17:28:20	1359797	0	0	0	0	0	0	0	0	0	0	0	0	0	0	0	0	0
100212	17:28:20	10025	pm.simpleEngRight	blank.simpleEng	2	0	1987	1	0	17:28:20	1361809	0	0	0	0	0	0	0	0	0	0	0	0	0	0	0	0	0
100212	17:28:20	10025	pm.simpleEngRight	pm.simpleEng	2	57	323	0	0	17:28:20	1362169	0	0	0	0	0	0	0	0	0	0	0	0	0	0	0	0	0
100212	17:28:20	10025	pm.simpleEngRight	blank.simpleEng	2	0	2087	1	0	17:28:20	1364288	0	0	0	0	0	0	0	0	0	0	0	0	0	0	0	0	0
100212	17:28:20	10025	pm.simpleEngRight	pm.simpleEng	2	57	276	0	0	17:28:20	1364594	0	0	0	0	0	0	0	0	0	0	0	0	0	0	0	0	0
100212	17:28:20	10025	pm.simpleEngRight	blank.simpleEng	2	0	1687	1	0	17:28:20	1366300	0	0	0	0	0	0	0	0	0	0	0	0	0	0	0	0	0
100212	17:28:20	10025	pm.simpleEngRight	pm.simpleEng	2	57	456	0	0	17:28:20	1366794	0	0	0	0	0	0	0	0	0	0	0	0	0	0	0	0	0
100212	17:28:20	10025	pm.simpleEngRight	blank.simpleEng	2	0	2287	1	0	17:28:20	1369113	0	0	0	0	0	0	0	0	0	0	0	0	0	0	0	0	0
100212	17:28:20	10025	pm.simpleEngRight	pm.simpleEng	2	57	251	0	0	17:28:20	1369406	0	0	0	0	0	0	0	0	0	0	0	0	0	0	0	0	0
100212	17:28:20	10025	pm.simpleEngRight	blank.simpleEng	2	0	1487	1	0	17:28:20	1370925	0	0	0	0	0	0	0	0	0	0	0	0	0	0	0	0	0
100212	17:28:20	10025	pm.simpleEngRight	pm.simpleEng	2	57	390	0	0	17:28:20	1371352	0	0	0	0	0	0	0	0	0	0	0	0	0	0	0	0	0
100212	17:28:20	10025	pm.simpleEngRight	blank.simpleEng	2	0	1587	1	0	17:28:20	1372964	0	0	0	0	0	0	0	0	0	0	0	0	0	0	0	0	0
100212	17:28:20	10025	pm.simpleEngRight	pm.simpleEng	2	57	351	0	0	17:28:20	1373351	0	0	0	0	0	0	0	0	0	0	0	0	0	0	0	0	0
100212	17:28:20	10025	pm.simpleEngRight	blank.simpleEng	2	0	1687	1	0	17:28:20	1375070	0	0	0	0	0	0	0	0	0	0	0	0	0	0	0	0	0
100212	17:28:20	10025	pm.simpleEngRight	pm.simpleEng	2	57	246	0	0	17:28:20	1375350	0	0	0	0	0	0	0	0	0	0	0	0	0	0	0	0	0
100212	17:28:20	10025	pm.simpleEngRight	blank.simpleEng	2	0	1887	1	0	17:28:20	1377269	0	0	0	0	0	0	0	0	0	0	0	0	0	0	0	0	0
100212	17:28:20	10025	pm.simpleEngRight	pm.simpleEng	2	57	318	0	0	17:28:20	1377629	0	0	0	0	0	0	0	0	0	0	0	0	0	0	0	0	0
100212	17:28:20	10025	pm.simpleEngRight	blank.simpleEng	2	0	2187	1	0	17:28:20	1379842	0	0	0	0	0	0	0	0	0	0	0	0	0	0	0	0	0
100212	17:28:20	10025	pm.simpleEngRight	pm.simpleEng	2	57	274	0	0	17:28:20	1380148	0	0	0	0	0	0	0	0	0	0	0	0	0	0	0	0	0
100212	17:28:20	10025	pm.simpleEngRight	blank.simpleEng	2	0	1587	1	0	17:28:20	1381761	0	0	0	0	0	0	0	0	0	0	0	0	0	0	0	0	0
100212	17:28:20	10025	pm.simpleEngRight	pm.simpleEng	2	57	323	0	0	17:28:20	1382121	0	0	0	0	0	0	0	0	0	0	0	0	0	0	0	0	0
100212	17:28:20	10025	pm.simpleEngRight	blank.simpleEng	2	0	1987	1	0	17:28:20	1384133	0	0	0	0	0	0	0	0	0	0	0	0	0	0	0	0	0
100212	17:28:20	10025	pm.simpleEngRight	pm.simpleEng	2	57	302	0	0	17:28:20	1384466	0	0	0	0	0	0	0	0	0	0	0	0	0	0	0	0	0
100212	17:28:20	10025	pm.simpleEngRight	blank.simpleEng	2	0	1487	1	0	17:28:20	1385986	0	0	0	0	0	0	0	0	0	0	0	0	0	0	0	0	0
100212	17:28:20	10025	pm.simpleEngRight	pm.simpleEng	2	57	338	0	0	17:28:20	1386359	0	0	0	0	0	0	0	0	0	0	0	0	0	0	0	0	0
100212	17:28:20	10025	pm.simpleEngRight	blank.simpleEng	2	0	2487	1	0	17:28:20	1388878	0	0	0	0	0	0	0	0	0	0	0	0	0	0	0	0	0
100212	17:28:20	10025	pm.simpleEngRight	pm.simpleEng	2	57	342	0	0	17:28:20	1389251	0	0	0	0	0	0	0	0	0	0	0	0	0	0	0	0	0
100212	17:28:20	10025	pm.simpleEngRight	blank.simpleEng	2	0	2087	1	0	17:28:20	1391370	0	0	0	0	0	0	0	0	0	0	0	0	0	0	0	0	0
100212	17:28:20	10025	pm.simpleEngRight	pm.simpleEng	2	57	312	0	0	17:28:20	1391717	0	0	0	0	0	0	0	0	0	0	0	0	0	0	0	0	0
100212	17:28:20	10025	pm.simpleEngRight	blank.simpleEng	2	0	2287	1	0	17:28:20	1394036	0	0	0	0	0	0	0	0	0	0	0	0	0	0	0	0	0
100212	17:28:20	10025	pm.simpleEngRight	pm.simpleEng	2	57	335	0	0	17:28:20	1394409	0	0	0	0	0	0	0	0	0	0	0	0	0	0	0	0	0
100212	17:28:20	10025	pm.simpleEngRight	blank.simpleEng	2	0	2387	1	0	17:28:20	1396821	0	0	0	0	0	0	0	0	0	0	0	0	0	0	0	0	0
100212	17:28:20	10025	pm.simpleEngRight	pm.simpleEng	2	57	318	0	0	17:28:20	1397181	0	0	0	0	0	0	0	0	0	0	0	0	0	0	0	0	0
100212	17:28:20	10025	pm.simpleEngRight	blank.simpleEng	2	0	1787	1	0	17:28:20	1398994	0	0	0	0	0	0	0	0	0	0	0	0	0	0	0	0	0
100212	17:28:20	10025	pm.simpleEngRight	pm.simpleEng	2	57	273	0	0	17:28:20	1399300	0	0	0	0	0	0	0	0	0	0	0	0	0	0	0	0	0
100212	17:28:20	10025	pm.simpleEngRight	blank.simpleEng	2	0	1687	1	0	17:28:20	1401006	0	0	0	0	0	0	0	0	0	0	0	0	0	0	0	0	0
100212	17:28:20	10025	pm.simpleEngRight	pm.simpleEng	2	57	341	0	0	17:28:20	1401379	0	0	0	0	0	0	0	0	0	0	0	0	0	0	0	0	0
100212	17:28:20	10025	pm.simpleEngRight	blank.simpleEng	2	0	2287	1	0	17:28:20	1403698	0	0	0	0	0	0	0	0	0	0	0	0	0	0	0	0	0
100212	17:28:20	10025	pm.simpleEngRight	pm.simpleEng	2	57	288	0	0	17:28:20	1404018	0	0	0	0	0	0	0	0	0	0	0	0	0	0	0	0	0
100212	17:28:20	10025	pm.simpleEngRight	blank.simpleEng	2	0	2387	1	0	17:28:20	1406431	0	0	0	0	0	0	0	0	0	0	0	0	0	0	0	0	0
100212	17:28:20	10025	pm.simpleEngRight	pm.simpleEng	2	57	308	0	0	17:28:20	1406777	0	0	0	0	0	0	0	0	0	0	0	0	0	0	0	0	0
100212	17:28:20	10025	pm.simpleEngRight	blank.simpleEng	2	0	1587	1	0	17:28:20	1408390	0	0	0	0	0	0	0	0	0	0	0	0	0	0	0	0	0
100212	17:28:20	10025	pm.simpleEngRight	pm.simpleEng	2	57	365	0	0	17:28:20	1408789	0	0	0	0	0	0	0	0	0	0	0	0	0	0	0	0	0
100212	17:28:20	10025	pm.simpleEngRight	blank.simpleEng	2	0	2187	1	0	17:28:20	1411002	0	0	0	0	0	0	0	0	0	0	0	0	0	0	0	0	0
100212	17:28:20	10025	pm.simpleEngRight	pm.simpleEng	2	57	280	0	0	17:28:20	1411322	0	0	0	0	0	0	0	0	0	0	0	0	0	0	0	0	0
100212	17:28:20	10025	pm.simpleEngRight	blank.simpleEng	2	0	1987	1	0	17:28:20	1413334	0	0	0	0	0	0	0	0	0	0	0	0	0	0	0	0	0
100212	17:28:20	10025	pm.simpleEngRight	pm.simpleEng	2	57	268	0	0	17:28:20	1413641	0	0	0	0	0	0	0	0	0	0	0	0	0	0	0	0	0
100212	17:28:20	10025	pm.simpleEngRight	blank.simpleEng	2	0	1787	1	0	17:28:20	1415453	0	0	0	0	0	0	0	0	0	0	0	0	0	0	0	0	0
100212	17:28:20	10025	pm.simpleEngRight	pm.simpleEng	2	57	341	0	0	17:28:20	1415827	0	0	0	0	0	0	0	0	0	0	0	0	0	0	0	0	0
100212	17:28:20	10025	pm.simpleEngRight	blank.simpleEng	2	0	1487	1	0	17:28:20	1417346	0	0	0	0	0	0	0	0	0	0	0	0	0	0	0	0	0
100212	17:28:20	10025	pm.simpleEngRight	pm.simpleEng	2	57	320	0	0	17:28:20	1417706	0	0	0	0	0	0	0	0	0	0	0	0	0	0	0	0	0
100212	17:28:20	10025	pm.simpleEngRight	blank.simpleEng	2	0	1887	1	0	17:28:20	1419625	0	0	0	0	0	0	0	0	0	0	0	0	0	0	0	0	0
100212	17:28:20	10025	pm.simpleEngRight	pm.simpleEng	2	57	248	0	0	17:28:20	1419905	0	0	0	0	0	0	0	0	0	0	0	0	0	0	0	0	0
100212	17:28:20	10025	pm.simpleEngRight	blank.simpleEng	2	0	2087	1	0	17:28:20	1422024	0	0	0	0	0	0	0	0	0	0	0	0	0	0	0	0	0
100212	17:28:20	10025	pm.simpleEngRight	pm.simpleEng	2	57	266	0	0	17:28:20	1422331	0	0	0	0	0	0	0	0	0	0	0	0	0	0	0	0	0
100212	17:28:20	10025	pm.simpleEngRight	blank.simpleEng	2	0	2487	1	0	17:28:20	1424850	0	0	0	0	0	0	0	0	0	0	0	0	0	0	0	0	0
100212	17:28:20	10025	pm.simpleEngRight	pm.simpleEng	2	57	289	0	0	17:28:20	1425169	0	0	0	0	0	0	0	0	0	0	0	0	0	0	0	0	0
100212	17:28:20	10025	pm.simpleEngRight	blank.simpleEng	2	0	2187	1	0	17:28:20	1427382	0	0	0	0	0	0	0	0	0	0	0	0	0	0	0	0	0
100212	17:28:20	10025	pm.simpleEngRight	pm.simpleEng	2	57	268	0	0	17:28:20	1427688	0	0	0	0	0	0	0	0	0	0	0	0	0	0	0	0	0
100212	17:28:20	10025	pm.simpleEngRight	blank.simpleEng	2	0	1987	1	0	17:28:20	1429701	0	0	0	0	0	0	0	0	0	0	0	0	0	0	0	0	0
100212	17:28:20	10025	pm.simpleEngRight	pm.simpleEng	2	57	333	0	0	17:28:20	1430074	0	0	0	0	0	0	0	0	0	0	0	0	0	0	0	0	0
100212	17:28:20	10025	pm.simpleEngRight	blank.simpleEng	2	0	2287	1	0	17:28:20	1432393	0	0	0	0	0	0	0	0	0	0	0	0	0	0	0	0	0
100212	17:28:20	10025	pm.simpleEngRight	pm.simpleEng	2	57	249	0	0	17:28:20	1432673	0	0	0	0	0	0	0	0	0	0	0	0	0	0	0	0	0
100212	17:28:20	10025	pm.simpleEngRight	blank.simpleEng	2	0	2387	1	0	17:28:20	1435085	0	0	0	0	0	0	0	0	0	0	0	0	0	0	0	0	0
100212	17:28:20	10025	pm.simpleEngRight	pm.simpleEng	2	57	324	0	0	17:28:20	1435445	0	0	0	0	0	0	0	0	0	0	0	0	0	0	0	0	0
100212	17:28:20	10025	pm.simpleEngRight	blank.simpleEng	2	0	2087	1	0	17:28:20	1437564	0	0	0	0	0	0	0	0	0	0	0	0	0	0	0	0	0
100212	17:28:20	10025	pm.simpleEngRight	pm.simpleEng	2	57	277	0	0	17:28:20	1437884	0	0	0	0	0	0	0	0	0	0	0	0	0	0	0	0	0
100212	17:28:20	10025	pm.simpleEngRight	blank.simpleEng	2	0	1487	1	0	17:28:20	1439404	0	0	0	0	0	0	0	0	0	0	0	0	0	0	0	0	0
100212	17:28:20	10025	pm.simpleEngRight	pm.simpleEng	2	57	358	0	0	17:28:20	1439803	0	0	0	0	0	0	0	0	0	0	0	0	0	0	0	0	0
100212	17:28:20	10025	pm.simpleEngRight	blank.simpleEng	2	0	1687	1	0	17:28:20	1441523	0	0	0	0	0	0	0	0	0	0	0	0	0	0	0	0	0
100212	17:28:20	10025	pm.simpleEngRight	pm.simpleEng	2	57	383	0	0	17:28:20	1441936	0	0	0	0	0	0	0	0	0	0	0	0	0	0	0	0	0
100212	17:28:20	10025	Trial2BackEng	N	3	0	1000	1	1	17:28:20	1485518	0	0	0	0	0	0	0	0	0	0	0	0	0	0	0	0	0
100212	17:28:20	10025	Trial2BackEng	N	3	0	1000	1	2	17:28:20	1487037	0	0	0	0	0	0	0	0	0	0	0	0	0	0	0	0	0
100212	17:28:20	10025	Trial2BackEng	N	3	0	1000	1	3	17:28:20	1488557	0	0	0	0	0	0	0	0	0	0	0	0	0	0	0	0	0
100212	17:28:20	10025	Trial2BackEng	N	3	0	1000	1	4	17:28:20	1490076	0	0	0	0	0	0	0	0	0	0	0	0	0	0	0	0	0
100212	17:28:20	10025	Trial2BackEng	N	3	0	1000	1	5	17:28:20	1491595	0	0	0	0	0	0	0	0	0	0	0	0	0	0	0	0	0
100212	17:28:20	10025	Trial2BackEng	N	3	0	1000	1	6	17:28:20	1493115	0	0	0	0	0	0	0	0	0	0	0	0	0	0	0	0	0
100212	17:28:20	10025	Trial2BackEng	N	3	0	1000	1	7	17:28:20	1494634	0	0	0	0	0	0	0	0	0	0	0	0	0	0	0	0	0
100212	17:28:20	10025	Trial2BackEng	N	3	0	1000	1	8	17:28:20	1496153	0	0	0	0	0	0	0	0	0	0	0	0	0	0	0	0	0
100212	17:28:20	10025	Trial2BackEng	Y	3	57	427	1	9	17:28:20	1497113	0	0	0	0	0	0	0	0	0	0	0	0	0	0	0	0	0
100212	17:28:20	10025	Trial2BackEng	N	3	0	1000	1	10	17:28:20	1499179	0	0	0	0	0	0	0	0	0	0	0	0	0	0	0	0	0
100212	17:28:20	10025	Trial2BackEng	N	3	0	1000	1	11	17:28:20	1500698	0	0	0	0	0	0	0	0	0	0	0	0	0	0	0	0	0
100212	17:28:20	10025	Trial2BackEng	N	3	0	1000	1	12	17:28:20	1502218	0	0	0	0	0	0	0	0	0	0	0	0	0	0	0	0	0
100212	17:28:20	10025	Trial2BackEng	Y	3	57	634	1	13	17:28:20	1503377	0	0	0	0	0	0	0	0	0	0	0	0	0	0	0	0	0
100212	17:28:20	10025	Trial2BackEng	N	3	0	1000	1	14	17:28:20	1505243	0	0	0	0	0	0	0	0	0	0	0	0	0	0	0	0	0
100212	17:28:20	10025	Trial2BackEng	N	3	0	1000	1	15	17:28:20	1506762	0	0	0	0	0	0	0	0	0	0	0	0	0	0	0	0	0
100212	17:28:20	10025	Trial2BackEng	N	3	0	1000	1	16	17:28:20	1508282	0	0	0	0	0	0	0	0	0	0	0	0	0	0	0	0	0
100212	17:28:20	10025	Trial2BackEng	N	3	0	1000	1	17	17:28:20	1509801	0	0	0	0	0	0	0	0	0	0	0	0	0	0	0	0	0
100212	17:28:20	10025	Trial2BackEng	N	3	0	1000	1	18	17:28:20	1511320	0	0	0	0	0	0	0	0	0	0	0	0	0	0	0	0	0
100212	17:28:20	10025	Trial2BackEng	Y	3	57	411	1	19	17:28:20	1512253	0	0	0	0	0	0	0	0	0	0	0	0	0	0	0	0	0
100212	17:28:20	10025	Trial2BackEng	N	3	0	1000	1	20	17:28:20	1514346	0	0	0	0	0	0	0	0	0	0	0	0	0	0	0	0	0
100212	17:28:20	10025	Trial2BackEng	N	3	0	1000	1	21	17:28:20	1515865	0	0	0	0	0	0	0	0	0	0	0	0	0	0	0	0	0
100212	17:28:20	10025	Trial2BackEng	N	3	0	1000	1	22	17:28:20	1517385	0	0	0	0	0	0	0	0	0	0	0	0	0	0	0	0	0
100212	17:28:20	10025	Trial2BackEng	N	3	0	1000	1	23	17:28:20	1518904	0	0	0	0	0	0	0	0	0	0	0	0	0	0	0	0	0
100212	17:28:20	10025	Trial2BackEng	Y	3	57	395	1	24	17:28:20	1519824	0	0	0	0	0	0	0	0	0	0	0	0	0	0	0	0	0
100212	17:28:20	10025	Trial2BackEng	N	3	0	1000	1	25	17:28:20	1521929	0	0	0	0	0	0	0	0	0	0	0	0	0	0	0	0	0
100212	17:28:20	10025	Trial2BackEng	N	3	0	1000	1	26	17:28:20	1523449	0	0	0	0	0	0	0	0	0	0	0	0	0	0	0	0	0
100212	17:28:20	10025	Trial2BackEng	N	3	0	1000	1	27	17:28:20	1524968	0	0	0	0	0	0	0	0	0	0	0	0	0	0	0	0	0
100212	17:28:20	10025	Trial2BackEng	N	3	0	1000	1	28	17:28:20	1526488	0	0	0	0	0	0	0	0	0	0	0	0	0	0	0	0	0
100212	17:28:20	10025	Trial2BackEng	N	3	0	1000	1	29	17:28:20	1528007	0	0	0	0	0	0	0	0	0	0	0	0	0	0	0	0	0
100212	17:28:20	10025	Trial2BackEng	N	3	0	1000	1	30	17:28:20	1529526	0	0	0	0	0	0	0	0	0	0	0	0	0	0	0	0	0
100212	17:28:20	10025	Trial2BackEng	Y	3	57	381	1	31	17:28:20	1530432	0	0	0	0	0	0	0	0	0	0	0	0	0	0	0	0	0
100212	17:28:20	10025	Trial2BackEng	N	3	0	1000	1	32	17:28:20	1532552	0	0	0	0	0	0	0	0	0	0	0	0	0	0	0	0	0
100212	17:28:20	10025	Trial2BackEng	N	3	0	1000	1	33	17:28:20	1534071	0	0	0	0	0	0	0	0	0	0	0	0	0	0	0	0	0
100212	17:28:20	10025	Trial2BackEng	N	3	0	1000	1	34	17:28:20	1535590	0	0	0	0	0	0	0	0	0	0	0	0	0	0	0	0	0
100212	17:28:20	10025	Trial2BackEng	Y	3	57	620	1	35	17:28:20	1536736	0	0	0	0	0	0	0	0	0	0	0	0	0	0	0	0	0
100212	17:28:20	10025	Trial2BackEng	N	3	0	1000	1	36	17:28:20	1538616	0	0	0	0	0	0	0	0	0	0	0	0	0	0	0	0	0
100212	17:28:20	10025	Trial2BackEng	N	3	0	1000	1	37	17:28:20	1540135	0	0	0	0	0	0	0	0	0	0	0	0	0	0	0	0	0
100212	17:28:20	10025	Trial2BackEng	N	3	0	1000	1	38	17:28:20	1541655	0	0	0	0	0	0	0	0	0	0	0	0	0	0	0	0	0
100212	17:28:20	10025	Trial2BackEng	N	3	0	1000	1	39	17:28:20	1543174	0	0	0	0	0	0	0	0	0	0	0	0	0	0	0	0	0
100212	17:28:20	10025	Trial2BackEng	N	3	0	1000	1	40	17:28:20	1544693	0	0	0	0	0	0	0	0	0	0	0	0	0	0	0	0	0
100212	17:28:20	10025	Trial2BackEng	N	3	0	1000	1	41	17:28:20	1546213	0	0	0	0	0	0	0	0	0	0	0	0	0	0	0	0	0
100212	17:28:20	10025	Trial2BackEng	Y	3	57	350	1	42	17:28:20	1547092	0	0	0	0	0	0	0	0	0	0	0	0	0	0	0	0	0
100212	17:28:20	10025	Trial2BackEng	N	3	0	1000	1	43	17:28:20	1549238	0	0	0	0	0	0	0	0	0	0	0	0	0	0	0	0	0
100212	17:28:20	10025	Trial2BackEng	N	3	0	1000	1	44	17:28:20	1550757	0	0	0	0	0	0	0	0	0	0	0	0	0	0	0	0	0
100212	17:28:20	10025	Trial2BackEng	N	3	0	1000	1	45	17:28:20	1552277	0	0	0	0	0	0	0	0	0	0	0	0	0	0	0	0	0
100212	17:28:20	10025	Trial2BackEng	N	3	0	1000	1	46	17:28:20	1553796	0	0	0	0	0	0	0	0	0	0	0	0	0	0	0	0	0
100212	17:28:20	10025	Trial2BackEng	Y	3	57	510	1	47	17:28:20	1554836	0	0	0	0	0	0	0	0	0	0	0	0	0	0	0	0	0
100212	17:28:20	10025	Trial2BackEng	N	3	0	1000	1	48	17:28:20	1556822	0	0	0	0	0	0	0	0	0	0	0	0	0	0	0	0	0
100212	17:28:20	10025	Trial2BackEng	N	3	0	1000	1	49	17:28:20	1558341	0	0	0	0	0	0	0	0	0	0	0	0	0	0	0	0	0
100212	17:28:20	10025	Trial2BackEng	N	3	0	1000	1	50	17:28:20	1559860	0	0	0	0	0	0	0	0	0	0	0	0	0	0	0	0	0
100212	17:28:20	10025	Trial2BackEng	N	3	0	1000	1	51	17:28:20	1561380	0	0	0	0	0	0	0	0	0	0	0	0	0	0	0	0	0
100212	17:28:20	10025	Trial2BackEng	N	3	0	1000	1	52	17:28:20	1562899	0	0	0	0	0	0	0	0	0	0	0	0	0	0	0	0	0
100212	17:28:20	10025	Trial2BackEng	Y	3	57	368	1	53	17:28:20	1563792	0	0	0	0	0	0	0	0	0	0	0	0	0	0	0	0	0
100212	17:28:20	10025	Trial2BackEng	N	3	0	1000	1	54	17:28:20	1565925	0	0	0	0	0	0	0	0	0	0	0	0	0	0	0	0	0
100212	17:28:20	10025	Trial2BackEng	N	3	0	1000	1	55	17:28:20	1567444	0	0	0	0	0	0	0	0	0	0	0	0	0	0	0	0	0
100212	17:28:20	10025	Trial2BackEng	N	3	0	1000	1	56	17:28:20	1568963	0	0	0	0	0	0	0	0	0	0	0	0	0	0	0	0	0
100212	17:28:20	10025	Trial2BackEng	N	3	0	1000	1	57	17:28:20	1570483	0	0	0	0	0	0	0	0	0	0	0	0	0	0	0	0	0
100212	17:28:20	10025	Trial2BackEng	N	3	0	1000	1	58	17:28:20	1572002	0	0	0	0	0	0	0	0	0	0	0	0	0	0	0	0	0
100212	17:28:20	10025	Trial2BackEng	N	3	0	1000	1	59	17:28:20	1573521	0	0	0	0	0	0	0	0	0	0	0	0	0	0	0	0	0
100212	17:28:20	10025	Trial2BackEng	Y	3	57	304	1	60	17:28:20	1574348	0	0	0	0	0	0	0	0	0	0	0	0	0	0	0	0	0
100212	17:28:20	10025	Trial2BackEng	N	3	0	1000	1	61	17:28:20	1576547	0	0	0	0	0	0	0	0	0	0	0	0	0	0	0	0	0
100212	17:28:20	10025	Trial2BackEng	N	3	0	1000	1	62	17:28:20	1578066	0	0	0	0	0	0	0	0	0	0	0	0	0	0	0	0	0
100212	17:28:20	10025	Trial2BackEng	Y	3	0	1000	0	62	17:28:20	1579586	0	0	0	0	0	0	0	0	0	0	0	0	0	0	0	0	0
100212	17:28:20	10025	Trial2BackEng	N	3	0	1000	1	63	17:28:20	1581105	0	0	0	0	0	0	0	0	0	0	0	0	0	0	0	0	0
100212	17:28:20	10025	Trial2BackEng	N	3	0	1000	1	64	17:28:20	1582624	0	0	0	0	0	0	0	0	0	0	0	0	0	0	0	0	0
100212	17:28:20	10025	Trial2BackEng	N	3	0	1000	1	65	17:28:20	1584144	0	0	0	0	0	0	0	0	0	0	0	0	0	0	0	0	0
100212	17:28:20	10025	Trial2BackEng	N	3	0	1000	1	66	17:28:20	1585663	0	0	0	0	0	0	0	0	0	0	0	0	0	0	0	0	0
100212	17:28:20	10025	Trial2BackEng	N	3	0	1000	1	67	17:28:20	1587182	0	0	0	0	0	0	0	0	0	0	0	0	0	0	0	0	0
100212	17:28:20	10025	Trial2BackEng	N	3	0	1000	1	68	17:28:20	1588702	0	0	0	0	0	0	0	0	0	0	0	0	0	0	0	0	0
100212	17:28:20	10025	Trial2BackEng	N	3	57	691	0	68	17:28:20	1589928	0	0	0	0	0	0	0	0	0	0	0	0	0	0	0	0	0
100212	17:28:20	10025	Trial2BackEng	N	3	0	1000	1	69	17:28:20	1591727	0	0	0	0	0	0	0	0	0	0	0	0	0	0	0	0	0
100212	17:28:20	10025	Trial2BackEng	N	3	0	1000	1	70	17:28:20	1593247	0	0	0	0	0	0	0	0	0	0	0	0	0	0	0	0	0
100212	17:28:20	10025	Trial2BackEng	N	3	0	1000	1	71	17:28:20	1594766	0	0	0	0	0	0	0	0	0	0	0	0	0	0	0	0	0
100212	17:28:20	10025	Trial2BackEng	Y	3	57	675	1	72	17:28:20	1595965	0	0	0	0	0	0	0	0	0	0	0	0	0	0	0	0	0
100212	17:28:20	10025	Trial2BackEng	N	3	0	1000	1	73	17:28:20	1597792	0	0	0	0	0	0	0	0	0	0	0	0	0	0	0	0	0
100212	17:28:20	10025	Trial2BackEng	N	3	0	1000	1	74	17:28:20	1599311	0	0	0	0	0	0	0	0	0	0	0	0	0	0	0	0	0
100212	17:28:20	10025	Trial2BackEng	N	3	0	1000	1	75	17:28:20	1600830	0	0	0	0	0	0	0	0	0	0	0	0	0	0	0	0	0
100212	17:28:20	10025	Trial2BackEng	Y	3	57	419	1	76	17:28:20	1601776	0	0	0	0	0	0	0	0	0	0	0	0	0	0	0	0	0
100212	17:28:20	10025	Trial2BackEng	N	3	0	1000	1	77	17:28:20	1603855	0	0	0	0	0	0	0	0	0	0	0	0	0	0	0	0	0
100212	17:28:20	10025	Trial2BackEng	N	3	0	1000	1	78	17:28:20	1605375	0	0	0	0	0	0	0	0	0	0	0	0	0	0	0	0	0
100212	17:28:20	10025	Trial2BackEng	N	3	0	1000	1	79	17:28:20	1606894	0	0	0	0	0	0	0	0	0	0	0	0	0	0	0	0	0
100212	17:28:20	10025	Trial2BackEng	N	3	0	1000	1	80	17:28:20	1608414	0	0	0	0	0	0	0	0	0	0	0	0	0	0	0	0	0
100212	17:28:20	10025	Trial2BackEng	N	3	0	1000	1	81	17:28:20	1609933	0	0	0	0	0	0	0	0	0	0	0	0	0	0	0	0	0
100212	17:28:20	10025	Trial2BackEng	Y	3	57	339	1	82	17:28:20	1610799	0	0	0	0	0	0	0	0	0	0	0	0	0	0	0	0	0
100212	17:28:20	10025	Trial2BackEng	N	3	0	1000	1	83	17:28:20	1612958	0	0	0	0	0	0	0	0	0	0	0	0	0	0	0	0	0
100212	17:28:20	10025	Trial2BackEng	N	3	0	1000	1	84	17:28:20	1614478	0	0	0	0	0	0	0	0	0	0	0	0	0	0	0	0	0
100212	17:28:20	10025	Trial2BackEng	N	3	0	1000	1	85	17:28:20	1615997	0	0	0	0	0	0	0	0	0	0	0	0	0	0	0	0	0
100212	17:28:20	10025	Trial2BackEng	N	3	0	1000	1	86	17:28:20	1617517	0	0	0	0	0	0	0	0	0	0	0	0	0	0	0	0	0
100212	17:28:20	10025	Trial2BackEng	N	3	0	1000	1	87	17:28:20	1619036	0	0	0	0	0	0	0	0	0	0	0	0	0	0	0	0	0
100212	17:28:20	10025	Trial2BackEng	N	3	0	1000	1	88	17:28:20	1620555	0	0	0	0	0	0	0	0	0	0	0	0	0	0	0	0	0
100212	17:28:20	10025	Trial2BackEng	N	3	0	1000	1	89	17:28:20	1622075	0	0	0	0	0	0	0	0	0	0	0	0	0	0	0	0	0
100212	17:28:20	10025	Trial2BackEng	N	3	0	1000	1	90	17:28:20	1623594	0	0	0	0	0	0	0	0	0	0	0	0	0	0	0	0	0
100212	17:28:20	10025	Trial2BackEng	N	3	0	1000	1	91	17:28:20	1625113	0	0	0	0	0	0	0	0	0	0	0	0	0	0	0	0	0
100212	17:28:20	10025	Trial2BackEng	Y	3	57	646	1	92	17:28:20	1626286	0	0	0	0	0	0	0	0	0	0	0	0	0	0	0	0	0
100212	17:28:20	10025	Trial2BackEng	N	3	0	1000	1	93	17:28:20	1628139	0	0	0	0	0	0	0	0	0	0	0	0	0	0	0	0	0
100212	17:28:20	10025	Trial2BackEng	N	3	0	1000	1	94	17:28:20	1629658	0	0	0	0	0	0	0	0	0	0	0	0	0	0	0	0	0
100212	17:28:20	10025	Trial2BackEng	N	3	0	1000	1	95	17:28:20	1631191	0	0	0	0	0	0	0	0	0	0	0	0	0	0	0	0	0
100212	17:28:20	10025	Trial2BackEng	N	3	0	1000	1	96	17:28:20	1632710	0	0	0	0	0	0	0	0	0	0	0	0	0	0	0	0	0
100212	17:28:20	10025	Trial2BackEng	N	3	0	1000	1	97	17:28:20	1634230	0	0	0	0	0	0	0	0	0	0	0	0	0	0	0	0	0
100212	17:28:20	10025	Trial2BackEng	N	3	0	1000	1	98	17:28:20	1635749	0	0	0	0	0	0	0	0	0	0	0	0	0	0	0	0	0
100212	17:28:20	10025	Trial2BackEng	N	3	0	1000	1	99	17:28:20	1637268	0	0	0	0	0	0	0	0	0	0	0	0	0	0	0	0	0
100212	17:28:20	10025	Trial2BackEng	N	3	0	1000	1	100	17:28:20	1638788	0	0	0	0	0	0	0	0	0	0	0	0	0	0	0	0	0
100212	17:28:20	10025	Trial2BackEng	Y	3	57	572	1	101	17:28:20	1639894	0	0	0	0	0	0	0	0	0	0	0	0	0	0	0	0	0
100212	17:28:20	10025	Trial2BackEng	N	3	0	1000	1	102	17:28:20	1641813	0	0	0	0	0	0	0	0	0	0	0	0	0	0	0	0	0
100212	17:28:20	10025	Trial2BackEng	N	3	0	1000	1	103	17:28:20	1643333	0	0	0	0	0	0	0	0	0	0	0	0	0	0	0	0	0
100212	17:28:20	10025	Trial2BackEng	N	3	0	1000	1	104	17:28:20	1644852	0	0	0	0	0	0	0	0	0	0	0	0	0	0	0	0	0
100212	17:28:20	10025	Trial2BackEng	N	3	0	1000	1	105	17:28:20	1646371	0	0	0	0	0	0	0	0	0	0	0	0	0	0	0	0	0
100212	17:28:20	10025	Trial2BackEng	Y	3	57	444	1	106	17:28:20	1647344	0	0	0	0	0	0	0	0	0	0	0	0	0	0	0	0	0
100212	17:28:20	10025	Trial2BackEng	N	3	0	1000	1	107	17:28:20	1649397	0	0	0	0	0	0	0	0	0	0	0	0	0	0	0	0	0
100212	17:28:20	10025	Trial2BackEng	N	3	0	1000	1	108	17:28:20	1650916	0	0	0	0	0	0	0	0	0	0	0	0	0	0	0	0	0
100212	17:28:20	10025	Trial2BackEng	N	3	0	1000	1	109	17:28:20	1652435	0	0	0	0	0	0	0	0	0	0	0	0	0	0	0	0	0
100212	17:28:20	10025	Trial2BackEng	Y	3	57	380	1	110	17:28:20	1653342	0	0	0	0	0	0	0	0	0	0	0	0	0	0	0	0	0
100212	17:28:20	10025	Trial2BackEng	N	3	0	1000	1	111	17:28:20	1655461	0	0	0	0	0	0	0	0	0	0	0	0	0	0	0	0	0
100212	17:28:20	10025	Trial2BackEng	N	3	0	1000	1	112	17:28:20	1656980	0	0	0	0	0	0	0	0	0	0	0	0	0	0	0	0	0
100212	17:28:20	10025	Trial2BackEng	N	3	0	1000	1	113	17:28:20	1658499	0	0	0	0	0	0	0	0	0	0	0	0	0	0	0	0	0
100212	17:28:20	10025	Trial2BackEng	N	3	0	1000	1	114	17:28:20	1660019	0	0	0	0	0	0	0	0	0	0	0	0	0	0	0	0	0
100212	17:28:20	10025	Trial2BackEng	N	3	0	1000	1	115	17:28:20	1661538	0	0	0	0	0	0	0	0	0	0	0	0	0	0	0	0	0
100212	17:28:20	10025	Trial2BackEng	Y	3	57	492	1	116	17:28:20	1662565	0	0	0	0	0	0	0	0	0	0	0	0	0	0	0	0	0
100212	17:28:20	10025	Trial2BackEng	N	3	0	1000	1	117	17:28:20	1664564	0	0	0	0	0	0	0	0	0	0	0	0	0	0	0	0	0
100212	17:28:20	10025	Trial2BackEng	N	3	0	1000	1	118	17:28:20	1666083	0	0	0	0	0	0	0	0	0	0	0	0	0	0	0	0	0
100212	17:28:20	10025	Trial2BackEng	N	3	0	1000	1	119	17:28:20	1667602	0	0	0	0	0	0	0	0	0	0	0	0	0	0	0	0	0
100212	17:28:20	10025	Trial2BackEng	Y	3	57	508	1	120	17:28:20	1668642	0	0	0	0	0	0	0	0	0	0	0	0	0	0	0	0	0
100212	17:28:20	10025	Trial3BackEng	NN	4	0	1000	1	120	17:28:20	1825523	0	0	0	0	0	0	0	0	0	0	0	0	0	0	0	0	0
100212	17:28:20	10025	Trial3BackEng	NN	4	0	1000	1	120	17:28:20	1827043	0	0	0	0	0	0	0	0	0	0	0	0	0	0	0	0	0
100212	17:28:20	10025	Trial3BackEng	NN	4	0	1000	1	120	17:28:20	1828562	0	0	0	0	0	0	0	0	0	0	0	0	0	0	0	0	0
100212	17:28:20	10025	Trial3BackEng	YY	4	57	551	1	120	17:28:20	1829642	0	0	0	0	0	0	0	0	0	0	0	0	0	0	0	0	0
100212	17:28:20	10025	Trial3BackEng	NN	4	0	1000	1	120	17:28:20	1831587	0	0	0	0	0	0	0	0	0	0	0	0	0	0	0	0	0
100212	17:28:20	10025	Trial3BackEng	NN	4	0	1000	1	120	17:28:20	1833107	0	0	0	0	0	0	0	0	0	0	0	0	0	0	0	0	0
100212	17:28:20	10025	Trial3BackEng	NN	4	0	1000	1	120	17:28:20	1834626	0	0	0	0	0	0	0	0	0	0	0	0	0	0	0	0	0
100212	17:28:20	10025	Trial3BackEng	NN	4	0	1000	1	120	17:28:20	1836146	0	0	0	0	0	0	0	0	0	0	0	0	0	0	0	0	0
100212	17:28:20	10025	Trial3BackEng	YY	4	57	407	1	120	17:28:20	1837079	0	0	0	0	0	0	0	0	0	0	0	0	0	0	0	0	0
100212	17:28:20	10025	Trial3BackEng	NN	4	0	1000	1	120	17:28:20	1839171	0	0	0	0	0	0	0	0	0	0	0	0	0	0	0	0	0
100212	17:28:20	10025	Trial3BackEng	NN	4	0	1000	1	120	17:28:20	1840690	0	0	0	0	0	0	0	0	0	0	0	0	0	0	0	0	0
100212	17:28:20	10025	Trial3BackEng	NN	4	0	1000	1	120	17:28:20	1842210	0	0	0	0	0	0	0	0	0	0	0	0	0	0	0	0	0
100212	17:28:20	10025	Trial3BackEng	NN	4	0	1000	1	120	17:28:20	1843729	0	0	0	0	0	0	0	0	0	0	0	0	0	0	0	0	0
100212	17:28:20	10025	Trial3BackEng	NN	4	57	759	0	120	17:28:20	1845022	0	0	0	0	0	0	0	0	0	0	0	0	0	0	0	0	0
100212	17:28:20	10025	Trial3BackEng	NN	4	0	1000	1	120	17:28:20	1846755	0	0	0	0	0	0	0	0	0	0	0	0	0	0	0	0	0
100212	17:28:20	10025	Trial3BackEng	NN	4	0	1000	1	120	17:28:20	1848274	0	0	0	0	0	0	0	0	0	0	0	0	0	0	0	0	0
100212	17:28:20	10025	Trial3BackEng	YY	4	0	1000	0	120	17:28:20	1849793	0	0	0	0	0	0	0	0	0	0	0	0	0	0	0	0	0
100212	17:28:20	10025	Trial3BackEng	NN	4	0	1000	1	120	17:28:20	1851313	0	0	0	0	0	0	0	0	0	0	0	0	0	0	0	0	0
100212	17:28:20	10025	Trial3BackEng	NN	4	0	1000	1	120	17:28:20	1852832	0	0	0	0	0	0	0	0	0	0	0	0	0	0	0	0	0
100212	17:28:20	10025	Trial3BackEng	NN	4	0	1000	1	120	17:28:20	1854351	0	0	0	0	0	0	0	0	0	0	0	0	0	0	0	0	0
100212	17:28:20	10025	Trial3BackEng	NN	4	0	1000	1	120	17:28:20	1855871	0	0	0	0	0	0	0	0	0	0	0	0	0	0	0	0	0
100212	17:28:20	10025	Trial3BackEng	NN	4	0	1000	1	120	17:28:20	1857390	0	0	0	0	0	0	0	0	0	0	0	0	0	0	0	0	0
100212	17:28:20	10025	Trial3BackEng	YY	4	57	586	1	120	17:28:20	1858510	0	0	0	0	0	0	0	0	0	0	0	0	0	0	0	0	0
100212	17:28:20	10025	Trial3BackEng	NN	4	0	1000	1	120	17:28:20	1860416	0	0	0	0	0	0	0	0	0	0	0	0	0	0	0	0	0
100212	17:28:20	10025	Trial3BackEng	NN	4	0	1000	1	120	17:28:20	1861935	0	0	0	0	0	0	0	0	0	0	0	0	0	0	0	0	0
100212	17:28:20	10025	Trial3BackEng	NN	4	0	1000	1	120	17:28:20	1863454	0	0	0	0	0	0	0	0	0	0	0	0	0	0	0	0	0
100212	17:28:20	10025	Trial3BackEng	YY	4	57	409	1	120	17:28:20	1864387	0	0	0	0	0	0	0	0	0	0	0	0	0	0	0	0	0
100212	17:28:20	10025	Trial3BackEng	NN	4	0	1000	1	120	17:28:20	1866480	0	0	0	0	0	0	0	0	0	0	0	0	0	0	0	0	0
100212	17:28:20	10025	Trial3BackEng	NN	4	0	1000	1	120	17:28:20	1867999	0	0	0	0	0	0	0	0	0	0	0	0	0	0	0	0	0
100212	17:28:20	10025	Trial3BackEng	NN	4	0	1000	1	120	17:28:20	1869518	0	0	0	0	0	0	0	0	0	0	0	0	0	0	0	0	0
100212	17:28:20	10025	Trial3BackEng	YY	4	57	665	1	120	17:28:20	1870718	0	0	0	0	0	0	0	0	0	0	0	0	0	0	0	0	0
100212	17:28:20	10025	Trial3BackEng	NN	4	0	1000	1	120	17:28:20	1872544	0	0	0	0	0	0	0	0	0	0	0	0	0	0	0	0	0
100212	17:28:20	10025	Trial3BackEng	NN	4	0	1000	1	120	17:28:20	1874063	0	0	0	0	0	0	0	0	0	0	0	0	0	0	0	0	0
100212	17:28:20	10025	Trial3BackEng	NN	4	0	1000	1	120	17:28:20	1875583	0	0	0	0	0	0	0	0	0	0	0	0	0	0	0	0	0
100212	17:28:20	10025	Trial3BackEng	NN	4	0	1000	1	120	17:28:20	1877102	0	0	0	0	0	0	0	0	0	0	0	0	0	0	0	0	0
100212	17:28:20	10025	Trial3BackEng	NN	4	0	1000	1	120	17:28:20	1878621	0	0	0	0	0	0	0	0	0	0	0	0	0	0	0	0	0
100212	17:28:20	10025	Trial3BackEng	NN	4	0	1000	1	120	17:28:20	1880141	0	0	0	0	0	0	0	0	0	0	0	0	0	0	0	0	0
100212	17:28:20	10025	Trial3BackEng	NN	4	0	1000	1	120	17:28:20	1881660	0	0	0	0	0	0	0	0	0	0	0	0	0	0	0	0	0
100212	17:28:20	10025	Trial3BackEng	NN	4	0	1000	1	120	17:28:20	1883179	0	0	0	0	0	0	0	0	0	0	0	0	0	0	0	0	0
100212	17:28:20	10025	Trial3BackEng	NN	4	0	1000	1	120	17:28:20	1884699	0	0	0	0	0	0	0	0	0	0	0	0	0	0	0	0	0
100212	17:28:20	10025	Trial3BackEng	NN	4	0	1000	1	120	17:28:20	1886218	0	0	0	0	0	0	0	0	0	0	0	0	0	0	0	0	0
100212	17:28:20	10025	Trial3BackEng	YY	4	57	605	1	120	17:28:20	1887351	0	0	0	0	0	0	0	0	0	0	0	0	0	0	0	0	0
100212	17:28:20	10025	Trial3BackEng	NN	4	0	1000	1	120	17:28:20	1889244	0	0	0	0	0	0	0	0	0	0	0	0	0	0	0	0	0
100212	17:28:20	10025	Trial3BackEng	NN	4	0	1000	1	120	17:28:20	1890763	0	0	0	0	0	0	0	0	0	0	0	0	0	0	0	0	0
100212	17:28:20	10025	Trial3BackEng	NN	4	0	1000	1	120	17:28:20	1892282	0	0	0	0	0	0	0	0	0	0	0	0	0	0	0	0	0
100212	17:28:20	10025	Trial3BackEng	NN	4	0	1000	1	120	17:28:20	1893815	0	0	0	0	0	0	0	0	0	0	0	0	0	0	0	0	0
100212	17:28:20	10025	Trial3BackEng	YY	4	57	464	1	120	17:28:20	1894801	0	0	0	0	0	0	0	0	0	0	0	0	0	0	0	0	0
100212	17:28:20	10025	Trial3BackEng	NN	4	0	1000	1	120	17:28:20	1896840	0	0	0	0	0	0	0	0	0	0	0	0	0	0	0	0	0
100212	17:28:20	10025	Trial3BackEng	NN	4	0	1000	1	120	17:28:20	1898360	0	0	0	0	0	0	0	0	0	0	0	0	0	0	0	0	0
100212	17:28:20	10025	Trial3BackEng	NN	4	0	1000	1	120	17:28:20	1899879	0	0	0	0	0	0	0	0	0	0	0	0	0	0	0	0	0
100212	17:28:20	10025	Trial3BackEng	NN	4	0	1000	1	120	17:28:20	1901399	0	0	0	0	0	0	0	0	0	0	0	0	0	0	0	0	0
100212	17:28:20	10025	Trial3BackEng	NN	4	0	1000	1	120	17:28:20	1902918	0	0	0	0	0	0	0	0	0	0	0	0	0	0	0	0	0
100212	17:28:20	10025	Trial3BackEng	YY	4	57	496	1	120	17:28:20	1903944	0	0	0	0	0	0	0	0	0	0	0	0	0	0	0	0	0
100212	17:28:20	10025	Trial3BackEng	NN	4	0	1000	1	120	17:28:20	1905943	0	0	0	0	0	0	0	0	0	0	0	0	0	0	0	0	0
100212	17:28:20	10025	Trial3BackEng	NN	4	0	1000	1	120	17:28:20	1907463	0	0	0	0	0	0	0	0	0	0	0	0	0	0	0	0	0
100212	17:28:20	10025	Trial3BackEng	NN	4	0	1000	1	120	17:28:20	1908982	0	0	0	0	0	0	0	0	0	0	0	0	0	0	0	0	0
100212	17:28:20	10025	Trial3BackEng	NN	4	0	1000	1	120	17:28:20	1910501	0	0	0	0	0	0	0	0	0	0	0	0	0	0	0	0	0
100212	17:28:20	10025	Trial3BackEng	NN	4	0	1000	1	120	17:28:20	1912021	0	0	0	0	0	0	0	0	0	0	0	0	0	0	0	0	0
100212	17:28:20	10025	Trial3BackEng	NN	4	0	1000	1	120	17:28:20	1913540	0	0	0	0	0	0	0	0	0	0	0	0	0	0	0	0	0
100212	17:28:20	10025	Trial3BackEng	YY	4	57	642	1	120	17:28:20	1914713	0	0	0	0	0	0	0	0	0	0	0	0	0	0	0	0	0
100212	17:28:20	10025	Trial3BackEng	NN	4	0	1000	1	120	17:28:20	1916566	0	0	0	0	0	0	0	0	0	0	0	0	0	0	0	0	0
100212	17:28:20	10025	Trial3BackEng	NN	4	0	1000	1	120	17:28:20	1918085	0	0	0	0	0	0	0	0	0	0	0	0	0	0	0	0	0
100212	17:28:20	10025	Trial3BackEng	NN	4	0	1000	1	120	17:28:20	1919605	0	0	0	0	0	0	0	0	0	0	0	0	0	0	0	0	0
100212	17:28:20	10025	Trial3BackEng	YY	4	57	577	1	120	17:28:20	1920710	0	0	0	0	0	0	0	0	0	0	0	0	0	0	0	0	0
100212	17:28:20	10025	Trial3BackEng	NN	4	0	1000	1	120	17:28:20	1922630	0	0	0	0	0	0	0	0	0	0	0	0	0	0	0	0	0
100212	17:28:20	10025	Trial3BackEng	NN	4	0	1000	1	120	17:28:20	1924149	0	0	0	0	0	0	0	0	0	0	0	0	0	0	0	0	0
100212	17:28:20	10025	Trial3BackEng	NN	4	0	1000	1	120	17:28:20	1925669	0	0	0	0	0	0	0	0	0	0	0	0	0	0	0	0	0
100212	17:28:20	10025	Trial3BackEng	NN	4	0	1000	1	120	17:28:20	1927188	0	0	0	0	0	0	0	0	0	0	0	0	0	0	0	0	0
100212	17:28:20	10025	Trial3BackEng	NN	4	0	1000	1	120	17:28:20	1928707	0	0	0	0	0	0	0	0	0	0	0	0	0	0	0	0	0
100212	17:28:20	10025	Trial3BackEng	NN	4	0	1000	1	120	17:28:20	1930227	0	0	0	0	0	0	0	0	0	0	0	0	0	0	0	0	0
100212	17:28:20	10025	Trial3BackEng	NN	4	0	1000	1	120	17:28:20	1931746	0	0	0	0	0	0	0	0	0	0	0	0	0	0	0	0	0
100212	17:28:20	10025	Trial3BackEng	NN	4	0	1000	1	120	17:28:20	1933265	0	0	0	0	0	0	0	0	0	0	0	0	0	0	0	0	0
100212	17:28:20	10025	Trial3BackEng	NN	4	0	1000	1	120	17:28:20	1934785	0	0	0	0	0	0	0	0	0	0	0	0	0	0	0	0	0
100212	17:28:20	10025	Trial3BackEng	YY	4	57	516	1	120	17:28:20	1935824	0	0	0	0	0	0	0	0	0	0	0	0	0	0	0	0	0
100212	17:28:20	10025	Trial3BackEng	NN	4	0	1000	1	120	17:28:20	1937810	0	0	0	0	0	0	0	0	0	0	0	0	0	0	0	0	0
100212	17:28:20	10025	Trial3BackEng	NN	4	0	1000	1	120	17:28:20	1939330	0	0	0	0	0	0	0	0	0	0	0	0	0	0	0	0	0
100212	17:28:20	10025	Trial3BackEng	NN	4	0	1000	1	120	17:28:20	1940849	0	0	0	0	0	0	0	0	0	0	0	0	0	0	0	0	0
100212	17:28:20	10025	Trial3BackEng	YY	4	0	1000	0	120	17:28:20	1942368	0	0	0	0	0	0	0	0	0	0	0	0	0	0	0	0	0
100212	17:28:20	10025	Trial3BackEng	NN	4	0	1000	1	120	17:28:20	1943888	0	0	0	0	0	0	0	0	0	0	0	0	0	0	0	0	0
100212	17:28:20	10025	Trial3BackEng	NN	4	0	1000	1	120	17:28:20	1945407	0	0	0	0	0	0	0	0	0	0	0	0	0	0	0	0	0
100212	17:28:20	10025	Trial3BackEng	NN	4	0	1000	1	120	17:28:20	1946926	0	0	0	0	0	0	0	0	0	0	0	0	0	0	0	0	0
100212	17:28:20	10025	Trial3BackEng	NN	4	0	1000	1	120	17:28:20	1948446	0	0	0	0	0	0	0	0	0	0	0	0	0	0	0	0	0
100212	17:28:20	10025	Trial3BackEng	NN	4	0	1000	1	120	17:28:20	1949965	0	0	0	0	0	0	0	0	0	0	0	0	0	0	0	0	0
100212	17:28:20	10025	Trial3BackEng	YY	4	57	728	1	120	17:28:20	1951218	0	0	0	0	0	0	0	0	0	0	0	0	0	0	0	0	0
100212	17:28:20	10025	Trial3BackEng	NN	4	0	1000	1	120	17:28:20	1952991	0	0	0	0	0	0	0	0	0	0	0	0	0	0	0	0	0
100212	17:28:20	10025	Trial3BackEng	NN	4	0	1000	1	120	17:28:20	1954510	0	0	0	0	0	0	0	0	0	0	0	0	0	0	0	0	0
100212	17:28:20	10025	Trial3BackEng	NN	4	0	1000	1	120	17:28:20	1956029	0	0	0	0	0	0	0	0	0	0	0	0	0	0	0	0	0
100212	17:28:20	10025	Trial3BackEng	NN	4	0	1000	1	120	17:28:20	1957549	0	0	0	0	0	0	0	0	0	0	0	0	0	0	0	0	0
100212	17:28:20	10025	Trial3BackEng	NN	4	0	1000	1	120	17:28:20	1959068	0	0	0	0	0	0	0	0	0	0	0	0	0	0	0	0	0
100212	17:28:20	10025	Trial3BackEng	NN	4	0	1000	1	120	17:28:20	1960587	0	0	0	0	0	0	0	0	0	0	0	0	0	0	0	0	0
100212	17:28:20	10025	Trial3BackEng	NN	4	0	1000	1	120	17:28:20	1962107	0	0	0	0	0	0	0	0	0	0	0	0	0	0	0	0	0
100212	17:28:20	10025	Trial3BackEng	NN	4	0	1000	1	120	17:28:20	1963626	0	0	0	0	0	0	0	0	0	0	0	0	0	0	0	0	0
100212	17:28:20	10025	Trial3BackEng	NN	4	0	1000	1	120	17:28:20	1965145	0	0	0	0	0	0	0	0	0	0	0	0	0	0	0	0	0
100212	17:28:20	10025	Trial3BackEng	YY	4	57	651	1	120	17:28:20	1966318	0	0	0	0	0	0	0	0	0	0	0	0	0	0	0	0	0
100212	17:28:20	10025	Trial3BackEng	NN	4	0	1000	1	120	17:28:20	1968171	0	0	0	0	0	0	0	0	0	0	0	0	0	0	0	0	0
100212	17:28:20	10025	Trial3BackEng	NN	4	0	1000	1	120	17:28:20	1969690	0	0	0	0	0	0	0	0	0	0	0	0	0	0	0	0	0
100212	17:28:20	10025	Trial3BackEng	NN	4	0	1000	1	120	17:28:20	1971210	0	0	0	0	0	0	0	0	0	0	0	0	0	0	0	0	0
100212	17:28:20	10025	Trial3BackEng	NN	4	0	1000	1	120	17:28:20	1972729	0	0	0	0	0	0	0	0	0	0	0	0	0	0	0	0	0
100212	17:28:20	10025	Trial3BackEng	NN	4	0	1000	1	120	17:28:20	1974248	0	0	0	0	0	0	0	0	0	0	0	0	0	0	0	0	0
100212	17:28:20	10025	Trial3BackEng	NN	4	0	1000	1	120	17:28:20	1975768	0	0	0	0	0	0	0	0	0	0	0	0	0	0	0	0	0
100212	17:28:20	10025	Trial3BackEng	NN	4	0	1000	1	120	17:28:20	1977287	0	0	0	0	0	0	0	0	0	0	0	0	0	0	0	0	0
100212	17:28:20	10025	Trial3BackEng	NN	4	0	1000	1	120	17:28:20	1978807	0	0	0	0	0	0	0	0	0	0	0	0	0	0	0	0	0
100212	17:28:20	10025	Trial3BackEng	YY	4	0	1000	0	120	17:28:20	1980326	0	0	0	0	0	0	0	0	0	0	0	0	0	0	0	0	0
100212	17:28:20	10025	Trial3BackEng	NN	4	0	1000	1	120	17:28:20	1981845	0	0	0	0	0	0	0	0	0	0	0	0	0	0	0	0	0
100212	17:28:20	10025	Trial3BackEng	NN	4	0	1000	1	120	17:28:20	1983365	0	0	0	0	0	0	0	0	0	0	0	0	0	0	0	0	0
100212	17:28:20	10025	Trial3BackEng	NN	4	0	1000	1	120	17:28:20	1984884	0	0	0	0	0	0	0	0	0	0	0	0	0	0	0	0	0
100212	17:28:20	10025	Trial3BackEng	NN	4	0	1000	1	120	17:28:20	1986403	0	0	0	0	0	0	0	0	0	0	0	0	0	0	0	0	0
100212	17:28:20	10025	Trial3BackEng	YY	4	57	624	1	120	17:28:20	1987563	0	0	0	0	0	0	0	0	0	0	0	0	0	0	0	0	0
100212	17:28:20	10025	Trial3BackEng	NN	4	0	1000	1	120	17:28:20	1989429	0	0	0	0	0	0	0	0	0	0	0	0	0	0	0	0	0
100212	17:28:20	10025	Trial3BackEng	NN	4	0	1000	1	120	17:28:20	1990948	0	0	0	0	0	0	0	0	0	0	0	0	0	0	0	0	0
100212	17:28:20	10025	Trial3BackEng	NN	4	0	1000	1	120	17:28:20	1992467	0	0	0	0	0	0	0	0	0	0	0	0	0	0	0	0	0
100212	17:28:20	10025	Trial3BackEng	YY	4	57	816	1	120	17:28:20	1993813	0	0	0	0	0	0	0	0	0	0	0	0	0	0	0	0	0
100212	17:28:20	10025	Trial3BackEng	NN	4	0	1000	1	120	17:28:20	1995493	0	0	0	0	0	0	0	0	0	0	0	0	0	0	0	0	0
100212	17:28:20	10025	Trial3BackEng	NN	4	0	1000	1	120	17:28:20	1997012	0	0	0	0	0	0	0	0	0	0	0	0	0	0	0	0	0
100212	17:28:20	10025	Trial3BackEng	NN	4	0	1000	1	120	17:28:20	1998532	0	0	0	0	0	0	0	0	0	0	0	0	0	0	0	0	0
100212	17:28:20	10025	Trial3BackEng	NN	4	0	1000	1	120	17:28:20	2000051	0	0	0	0	0	0	0	0	0	0	0	0	0	0	0	0	0
100212	17:28:20	10025	Trial3BackEng	NN	4	0	1000	1	120	17:28:20	2001570	0	0	0	0	0	0	0	0	0	0	0	0	0	0	0	0	0
100212	17:28:20	10025	Trial3BackEng	YY	4	57	417	1	120	17:28:20	2002517	0	0	0	0	0	0	0	0	0	0	0	0	0	0	0	0	0
100212	17:28:20	10025	Trial3BackEng	NN	4	0	1000	1	120	17:28:20	2004596	0	0	0	0	0	0	0	0	0	0	0	0	0	0	0	0	0
100212	17:28:20	10025	Trial3BackEng	NN	4	0	1000	1	120	17:28:20	2006115	0	0	0	0	0	0	0	0	0	0	0	0	0	0	0	0	0
100212	17:28:20	10025	Trial3BackEng	NN	4	0	1000	1	120	17:28:20	2007635	0	0	0	0	0	0	0	0	0	0	0	0	0	0	0	0	0
100212	17:28:20	10025	Trial3BackEng	YY	4	57	544	1	120	17:28:20	2008701	0	0	0	0	0	0	0	0	0	0	0	0	0	0	0	0	0
100212	17:28:20	10025	Memory1R3mo	Score	5	M1	28374	0	120	17:28:20	2146750	0	0	0	0	0	0	0	0	0	0	0	0	0	0	0	0	0
100212	17:28:20	10025	Memory1R3mo	Score	5	M2	296	0	120	17:28:20	2147083	0	0	0	0	0	0	0	0	0	0	0	0	0	0	0	0	0
100212	17:28:20	10025	Memory1R3mo	Score	5	M4	586	0	120	17:28:20	2147710	0	0	0	0	0	0	0	0	0	0	0	0	0	0	0	0	0
100212	17:28:20	10025	Memory1R3mo	Score	5	M5	304	0	120	17:28:20	2148056	0	0	0	0	0	0	0	0	0	0	0	0	0	0	0	0	0
100212	17:28:20	10025	Memory1R3mo	Score	5	M6	341	0	120	17:28:20	2148443	0	0	0	0	0	0	0	0	0	0	0	0	0	0	0	0	0
100212	17:28:20	10025	Memory1R3mo	Score	5	M7	307	0	120	17:28:20	2148789	0	0	0	0	0	0	0	0	0	0	0	0	0	0	0	0	0
100212	17:28:20	10025	Memory1R3mo	Score	5	M8	328	0	120	17:28:20	2149163	0	0	0	0	0	0	0	0	0	0	0	0	0	0	0	0	0
100212	17:28:20	10025	Memory1R3mo	Score	5	Done	16506	0	120	17:28:20	2165716	0	0	0	0	0	0	0	0	0	0	0	0	0	0	0	0	0
100212	17:28:20	10025	Memory2R3mo	Score2	5	11	10003	0	120	17:28:20	2197569	0	0	0	0	0	0	0	0	0	0	0	0	0	0	0	0	0
100212	17:28:20	10025	Memory2R3mo	Score2	5	22	403	0	120	17:28:20	2198009	0	0	0	0	0	0	0	0	0	0	0	0	0	0	0	0	0
100212	17:28:20	10025	Memory2R3mo	Score2	5	33	267	0	120	17:28:20	2198316	0	0	0	0	0	0	0	0	0	0	0	0	0	0	0	0	0
100212	17:28:20	10025	Memory2R3mo	Score2	5	44	248	0	120	17:28:20	2198609	0	0	0	0	0	0	0	0	0	0	0	0	0	0	0	0	0
100212	17:28:20	10025	Memory2R3mo	Score2	5	55	283	0	120	17:28:20	2198928	0	0	0	0	0	0	0	0	0	0	0	0	0	0	0	0	0
100212	17:28:20	10025	Memory2R3mo	Score2	5	66	267	0	120	17:28:20	2199235	0	0	0	0	0	0	0	0	0	0	0	0	0	0	0	0	0
100212	17:28:20	10025	Memory2R3mo	Score2	5	77	257	0	120	17:28:20	2199528	0	0	0	0	0	0	0	0	0	0	0	0	0	0	0	0	0
100212	17:28:20	10025	Memory2R3mo	Score2	5	88	284	0	120	17:28:20	2199848	0	0	0	0	0	0	0	0	0	0	0	0	0	0	0	0	0
100212	17:28:20	10025	Memory2R3mo	Score2	5	Done	460	0	120	17:28:20	2200355	0	0	0	0	0	0	0	0	0	0	0	0	0	0	0	0	0
100212	17:28:20	10025	Memory3R3mo	Score3	5	111	23811	0	120	17:28:20	2243857	0	0	0	0	0	0	0	0	0	0	0	0	0	0	0	0	0
100212	17:28:20	10025	Memory3R3mo	Score3	5	222	418	0	120	17:28:20	2244310	0	0	0	0	0	0	0	0	0	0	0	0	0	0	0	0	0
100212	17:28:20	10025	Memory3R3mo	Score3	5	333	269	0	120	17:28:20	2244616	0	0	0	0	0	0	0	0	0	0	0	0	0	0	0	0	0
100212	17:28:20	10025	Memory3R3mo	Score3	5	444	290	0	120	17:28:20	2244949	0	0	0	0	0	0	0	0	0	0	0	0	0	0	0	0	0
100212	17:28:20	10025	Memory3R3mo	Score3	5	555	253	0	120	17:28:20	2245243	0	0	0	0	0	0	0	0	0	0	0	0	0	0	0	0	0
100212	17:28:20	10025	Memory3R3mo	Score3	5	666	256	0	120	17:28:20	2245536	0	0	0	0	0	0	0	0	0	0	0	0	0	0	0	0	0
100212	17:28:20	10025	Memory3R3mo	Score3	5	777	266	0	120	17:28:20	2245843	0	0	0	0	0	0	0	0	0	0	0	0	0	0	0	0	0
100212	17:28:20	10025	Memory3R3mo	Score3	5	888	1119	0	120	17:28:20	2247002	0	0	0	0	0	0	0	0	0	0	0	0	0	0	0	0	0
100212	17:28:20	10025	Memory3R3mo	Score3	5	Done	528	0	120	17:28:20	2247575	0	0	0	0	0	0	0	0	0	0	0	0	0	0	0	0	0
100212	17:28:20	10025	LoriaEngLH3	Stop	6	8	5881	0	120	17:28:20	2331955	0	0	0	0	0	0	0	0	0	0	0	0	0	0	0	0	0
100212	17:28:20	10025	EngTrail	Trails	7	1Trails	21364	0	120	17:28:20	2597470	0	0	0	0	0	0	0	0	0	0	0	0	0	0	0	0	0
100212	17:28:20	10025	Serial7Eng3mo	Serial7Eng3mo	8	83	4385	0	120	17:28:20	2640826	1	0	0	0	0	0	0	0	0	0	0	0	0	0	0	0	0
100212	17:28:20	10025	Serial7Eng3mo	Serial7Eng3mo	8	76	5171	0	120	17:28:20	2646011	2	0	0	0	0	0	0	0	0	0	0	0	0	0	0	0	0
100212	17:28:20	10025	Serial7Eng3mo	Serial7Eng3mo	8	69	3904	0	120	17:28:20	2649930	3	0	0	0	0	0	0	0	0	0	0	0	0	0	0	0	0
100212	17:28:20	10025	Serial7Eng3mo	Serial7Eng3mo	8	62	2968	0	120	17:28:20	2652916	4	0	0	0	0	0	0	0	0	0	0	0	0	0	0	0	0
100212	17:28:20	10025	Serial7Eng3mo	Serial7Eng3mo	8	55	6175	0	120	17:28:20	2659114	5	0	0	0	0	0	0	0	0	0	0	0	0	0	0	0	0
100212	17:28:20	10025	corsiblockEngFwrd	recallseqEngFwrd	9	4	2080	0	120	17:28:20	2745411	5	0	0	0	0	0	0	0	0	0	0	0	0	0	0	0	0
100212	17:28:20	10025	corsiblockEngFwrd	recallseqEngFwrd	9	8	1121	0	120	17:28:20	2746571	5	0	0	0	0	0	0	0	0	0	0	0	0	0	0	0	0
100212	17:28:20	10025	corsiblockEngFwrd	recallseqEngFwrd	9	doneCorsiEng	2641	0	120	17:28:20	2749250	5	0	0	0	0	0	0	0	0	0	0	0	0	0	0	2	0
100212	17:28:20	10025	corsiblockEngFwrd	recallseqEngFwrd	9	1	1455	0	120	17:28:20	2756793	5	0	0	0	0	0	0	0	0	0	0	0	0	0	0	2	0
100212	17:28:20	10025	corsiblockEngFwrd	recallseqEngFwrd	9	5	1418	0	120	17:28:20	2758246	5	0	0	0	0	0	0	0	0	0	0	0	0	0	0	2	0
100212	17:28:20	10025	corsiblockEngFwrd	recallseqEngFwrd	9	9	1086	0	120	17:28:20	2759365	5	0	0	0	0	0	0	0	0	0	0	0	0	0	0	2	0
100212	17:28:20	10025	corsiblockEngFwrd	recallseqEngFwrd	9	doneCorsiEng	1262	0	120	17:28:20	2760671	5	0	0	0	0	0	0	0	0	0	0	0	0	0	0	3	0
100212	17:28:20	10025	corsiblockEngFwrd	recallseqEngFwrd	9	2	921	0	120	17:28:20	2768682	5	0	0	0	0	0	0	0	0	0	0	0	0	0	0	3	0
100212	17:28:20	10025	corsiblockEngFwrd	recallseqEngFwrd	9	6	921	0	120	17:28:20	2769641	5	0	0	0	0	0	0	0	0	0	0	0	0	0	0	3	0
100212	17:28:20	10025	corsiblockEngFwrd	recallseqEngFwrd	9	7	938	0	120	17:28:20	2770614	5	0	0	0	0	0	0	0	0	0	0	0	0	0	0	3	0
100212	17:28:20	10025	corsiblockEngFwrd	recallseqEngFwrd	9	3	581	0	120	17:28:20	2771241	5	0	0	0	0	0	0	0	0	0	0	0	0	0	0	3	0
100212	17:28:20	10025	corsiblockEngFwrd	recallseqEngFwrd	9	doneCorsiEng	1035	0	120	17:28:20	2772320	5	0	0	0	0	0	0	0	0	0	0	0	0	0	0	4	0
100212	17:28:20	10025	corsiblockEngFwrd	recallseqEngFwrd	9	4	937	0	120	17:28:20	2781343	5	0	0	0	0	0	0	0	0	0	0	0	0	0	0	4	0
100212	17:28:20	10025	corsiblockEngFwrd	recallseqEngFwrd	9	2	532	0	120	17:28:20	2781916	5	0	0	0	0	0	0	0	0	0	0	0	0	0	0	4	0
100212	17:28:20	10025	corsiblockEngFwrd	recallseqEngFwrd	9	8	551	0	120	17:28:20	2782503	5	0	0	0	0	0	0	0	0	0	0	0	0	0	0	4	0
100212	17:28:20	10025	corsiblockEngFwrd	recallseqEngFwrd	9	6	628	0	120	17:28:20	2783169	5	0	0	0	0	0	0	0	0	0	0	0	0	0	0	4	0
100212	17:28:20	10025	corsiblockEngFwrd	recallseqEngFwrd	9	5	338	0	120	17:28:20	2783542	5	0	0	0	0	0	0	0	0	0	0	0	0	0	0	4	0
100212	17:28:20	10025	corsiblockEngFwrd	recallseqEngFwrd	9	doneCorsiEng	1013	0	120	17:28:20	2784595	5	0	0	0	0	0	0	0	0	0	0	0	0	0	0	5	0
100212	17:28:20	10025	corsiblockEngFwrd	recallseqEngFwrd	9	9	957	0	120	17:28:20	2794644	5	0	0	0	0	0	0	0	0	0	0	0	0	0	0	5	0
100212	17:28:20	10025	corsiblockEngFwrd	recallseqEngFwrd	9	3	662	0	120	17:28:20	2795351	5	0	0	0	0	0	0	0	0	0	0	0	0	0	0	5	0
100212	17:28:20	10025	corsiblockEngFwrd	recallseqEngFwrd	9	1	652	0	120	17:28:20	2796044	5	0	0	0	0	0	0	0	0	0	0	0	0	0	0	5	0
100212	17:28:20	10025	corsiblockEngFwrd	recallseqEngFwrd	9	7	863	0	120	17:28:20	2796950	5	0	0	0	0	0	0	0	0	0	0	0	0	0	0	5	0
100212	17:28:20	10025	corsiblockEngFwrd	recallseqEngFwrd	9	6	732	0	120	17:28:20	2797723	5	0	0	0	0	0	0	0	0	0	0	0	0	0	0	5	0
100212	17:28:20	10025	corsiblockEngFwrd	recallseqEngFwrd	9	7	775	0	120	17:28:20	2798536	5	0	0	0	0	0	0	0	0	0	0	0	0	0	0	5	0
100212	17:28:20	10025	corsiblockEngFwrd	recallseqEngFwrd	9	doneCorsiEng	1418	0	120	17:28:20	2799989	5	0	0	0	0	0	0	0	0	0	0	0	0	0	0	6	0
100212	17:28:20	10025	corsiblockEngFwrd	recallseqEngFwrd	9	5	771	0	120	17:28:20	2810851	5	0	0	0	0	0	0	0	0	0	0	0	0	0	0	6	0
100212	17:28:20	10025	corsiblockEngFwrd	recallseqEngFwrd	9	1	759	0	120	17:28:20	2811650	5	0	0	0	0	0	0	0	0	0	0	0	0	0	0	6	0
100212	17:28:20	10025	corsiblockEngFwrd	recallseqEngFwrd	9	9	959	0	120	17:28:20	2812650	5	0	0	0	0	0	0	0	0	0	0	0	0	0	0	6	0
100212	17:28:20	10025	corsiblockEngFwrd	recallseqEngFwrd	9	3	615	0	120	17:28:20	2813303	5	0	0	0	0	0	0	0	0	0	0	0	0	0	0	6	0
100212	17:28:20	10025	corsiblockEngFwrd	recallseqEngFwrd	9	8	1163	0	120	17:28:20	2814503	5	0	0	0	0	0	0	0	0	0	0	0	0	0	0	6	0
100212	17:28:20	10025	corsiblockEngFwrd	recallseqEngFwrd	9	2	803	0	120	17:28:20	2815342	5	0	0	0	0	0	0	0	0	0	0	0	0	0	0	6	0
100212	17:28:20	10025	corsiblockEngFwrd	recallseqEngFwrd	9	doneCorsiEng	739	0	120	17:28:20	2816115	5	0	0	0	0	0	0	0	0	0	0	0	0	0	0	6	0
100212	17:28:20	10025	corsiblockEngFwrd	recallseqEngFwrd	9	5	685	0	120	17:28:20	2826844	5	0	0	0	0	0	0	0	0	0	0	0	0	0	0	6	0
100212	17:28:20	10025	corsiblockEngFwrd	recallseqEngFwrd	9	7	622	0	120	17:28:20	2827510	5	0	0	0	0	0	0	0	0	0	0	0	0	0	0	6	0
100212	17:28:20	10025	corsiblockEngFwrd	recallseqEngFwrd	9	1	875	0	120	17:28:20	2828430	5	0	0	0	0	0	0	0	0	0	0	0	0	0	0	6	0
100212	17:28:20	10025	corsiblockEngFwrd	recallseqEngFwrd	9	6	1140	0	120	17:28:20	2829603	5	0	0	0	0	0	0	0	0	0	0	0	0	0	0	6	0
100212	17:28:20	10025	corsiblockEngFwrd	recallseqEngFwrd	9	9	765	0	120	17:28:20	2830403	5	0	0	0	0	0	0	0	0	0	0	0	0	0	0	6	0
100212	17:28:20	10025	corsiblockEngFwrd	recallseqEngFwrd	9	3	670	0	120	17:28:20	2831109	5	0	0	0	0	0	0	0	0	0	0	0	0	0	0	6	0
100212	17:28:20	10025	corsiblockEngFwrd	recallseqEngFwrd	9	8	781	0	120	17:28:20	2831922	5	0	0	0	0	0	0	0	0	0	0	0	0	0	0	6	0
100212	17:28:20	10025	corsiblockEngFwrd	recallseqEngFwrd	9	doneCorsiEng	1031	0	120	17:28:20	2832988	5	0	0	0	0	0	0	0	0	0	0	0	0	0	0	7	0
100212	17:28:20	10025	corsiblockEngFwrd	recallseqEngFwrd	9	4	1107	0	120	17:28:20	2844184	5	0	0	0	0	0	0	0	0	0	0	0	0	0	0	7	0
100212	17:28:20	10025	corsiblockEngFwrd	recallseqEngFwrd	9	2	945	0	120	17:28:20	2845170	5	0	0	0	0	0	0	0	0	0	0	0	0	0	0	7	0
100212	17:28:20	10025	corsiblockEngFwrd	recallseqEngFwrd	9	5	775	0	120	17:28:20	2845983	5	0	0	0	0	0	0	0	0	0	0	0	0	0	0	7	0
100212	17:28:20	10025	corsiblockEngFwrd	recallseqEngFwrd	9	2	802	0	120	17:28:20	2846823	5	0	0	0	0	0	0	0	0	0	0	0	0	0	0	7	0
100212	17:28:20	10025	corsiblockEngFwrd	recallseqEngFwrd	9	8	842	0	120	17:28:20	2847702	5	0	0	0	0	0	0	0	0	0	0	0	0	0	0	7	0
100212	17:28:20	10025	corsiblockEngFwrd	recallseqEngFwrd	9	6	546	0	120	17:28:20	2848289	5	0	0	0	0	0	0	0	0	0	0	0	0	0	0	7	0
100212	17:28:20	10025	corsiblockEngFwrd	recallseqEngFwrd	9	3	632	0	120	17:28:20	2848955	5	0	0	0	0	0	0	0	0	0	0	0	0	0	0	7	0
100212	17:28:20	10025	corsiblockEngFwrd	recallseqEngFwrd	9	9	981	0	120	17:28:20	2849981	5	0	0	0	0	0	0	0	0	0	0	0	0	0	0	7	0
100212	17:28:20	10025	corsiblockEngFwrd	recallseqEngFwrd	9	doneCorsiEng	1611	0	120	17:28:20	2851634	5	0	0	0	0	0	0	0	0	0	0	0	0	0	0	8	0
100212	17:28:20	10025	corsiblockEngFwrd	recallseqEngFwrd	9	4	1478	0	120	17:28:20	2865202	5	0	0	0	0	0	0	0	0	0	0	0	0	0	0	8	0
100212	17:28:20	10025	corsiblockEngFwrd	recallseqEngFwrd	9	2	735	0	120	17:28:20	2865975	5	0	0	0	0	0	0	0	0	0	0	0	0	0	0	8	0
100212	17:28:20	10025	corsiblockEngFwrd	recallseqEngFwrd	9	7	2177	0	120	17:28:20	2868187	5	0	0	0	0	0	0	0	0	0	0	0	0	0	0	8	0
100212	17:28:20	10025	corsiblockEngFwrd	recallseqEngFwrd	9	1	1469	0	120	17:28:20	2869693	5	0	0	0	0	0	0	0	0	0	0	0	0	0	0	8	0
100212	17:28:20	10025	corsiblockEngFwrd	recallseqEngFwrd	9	9	771	0	120	17:28:20	2870506	5	0	0	0	0	0	0	0	0	0	0	0	0	0	0	8	0
100212	17:28:20	10025	corsiblockEngFwrd	recallseqEngFwrd	9	8	902	0	120	17:28:20	2871452	5	0	0	0	0	0	0	0	0	0	0	0	0	0	0	8	0
100212	17:28:20	10025	corsiblockEngFwrd	recallseqEngFwrd	9	6	1068	0	120	17:28:20	2872559	5	0	0	0	0	0	0	0	0	0	0	0	0	0	0	8	0
100212	17:28:20	10025	corsiblockEngFwrd	recallseqEngFwrd	9	9	657	0	120	17:28:20	2873252	5	0	0	0	0	0	0	0	0	0	0	0	0	0	0	8	0
100212	17:28:20	10025	corsiblockEngFwrd	recallseqEngFwrd	9	doneCorsiEng	796	0	120	17:28:20	2874092	5	0	0	0	0	0	0	0	0	0	0	0	0	0	0	8	0
100212	17:28:20	10025	corsiblockEngFwrd	recallseqEngFwrd	9	4	972	0	120	17:28:20	2887113	5	0	0	0	0	0	0	0	0	0	0	0	0	0	0	8	0
100212	17:28:20	10025	corsiblockEngFwrd	recallseqEngFwrd	9	3	703	0	120	17:28:20	2887859	5	0	0	0	0	0	0	0	0	0	0	0	0	0	0	8	0
100212	17:28:20	10025	corsiblockEngFwrd	recallseqEngFwrd	9	2	460	0	120	17:28:20	2888352	5	0	0	0	0	0	0	0	0	0	0	0	0	0	0	8	0
100212	17:28:20	10025	corsiblockEngFwrd	recallseqEngFwrd	9	7	807	0	120	17:28:20	2889205	5	0	0	0	0	0	0	0	0	0	0	0	0	0	0	8	0
100212	17:28:20	10025	corsiblockEngFwrd	recallseqEngFwrd	9	4	522	0	120	17:28:20	2889765	5	0	0	0	0	0	0	0	0	0	0	0	0	0	0	8	0
100212	17:28:20	10025	corsiblockEngFwrd	recallseqEngFwrd	9	9	736	0	120	17:28:20	2890538	5	0	0	0	0	0	0	0	0	0	0	0	0	0	0	8	0
100212	17:28:20	10025	corsiblockEngFwrd	recallseqEngFwrd	9	1	613	0	120	17:28:20	2891191	5	0	0	0	0	0	0	0	0	0	0	0	0	0	0	8	0
100212	17:28:20	10025	corsiblockEngFwrd	recallseqEngFwrd	9	8	713	0	120	17:28:20	2891937	5	0	0	0	0	0	0	0	0	0	0	0	0	0	0	8	0
100212	17:28:20	10025	corsiblockEngFwrd	recallseqEngFwrd	9	3	2382	0	120	17:28:20	2894363	5	0	0	0	0	0	0	0	0	0	0	0	0	0	0	8	0
100212	17:28:20	10025	corsiblockEngFwrd	recallseqEngFwrd	9	doneCorsiEng	1108	0	120	17:28:20	2895509	5	0	0	0	0	0	0	0	0	0	0	0	0	0	0	8	0
100212	17:28:20	10025	corsiblockEngRev	recallseqEngRev	10	3	1978	0	120	17:28:20	2917233	5	0	0	0	0	0	0	0	0	0	0	0	0	0	0	8	0
100212	17:28:20	10025	corsiblockEngRev	recallseqEngRev	10	4	525	0	120	17:28:20	2917793	5	0	0	0	0	0	0	0	0	0	0	0	0	0	0	8	0
100212	17:28:20	10025	corsiblockEngRev	recallseqEngRev	10	doneCorsiEng	1317	0	120	17:28:20	2919153	5	0	0	0	0	0	0	0	0	0	0	0	0	0	0	8	2
100212	17:28:20	10025	corsiblockEngRev	recallseqEngRev	10	6	938	0	120	17:28:20	2926176	5	0	0	0	0	0	0	0	0	0	0	0	0	0	0	8	2
100212	17:28:20	10025	corsiblockEngRev	recallseqEngRev	10	1	661	0	120	17:28:20	2926883	5	0	0	0	0	0	0	0	0	0	0	0	0	0	0	8	2
100212	17:28:20	10025	corsiblockEngRev	recallseqEngRev	10	8	795	0	120	17:28:20	2927723	5	0	0	0	0	0	0	0	0	0	0	0	0	0	0	8	2
100212	17:28:20	10025	corsiblockEngRev	recallseqEngRev	10	doneCorsiEng	1196	0	120	17:28:20	2928962	5	0	0	0	0	0	0	0	0	0	0	0	0	0	0	8	3
100212	17:28:20	10025	corsiblockEngRev	recallseqEngRev	10	2	705	0	120	17:28:20	2936759	5	0	0	0	0	0	0	0	0	0	0	0	0	0	0	8	3
100212	17:28:20	10025	corsiblockEngRev	recallseqEngRev	10	5	502	0	120	17:28:20	2937305	5	0	0	0	0	0	0	0	0	0	0	0	0	0	0	8	3
100212	17:28:20	10025	corsiblockEngRev	recallseqEngRev	10	7	653	0	120	17:28:20	2937998	5	0	0	0	0	0	0	0	0	0	0	0	0	0	0	8	3
100212	17:28:20	10025	corsiblockEngRev	recallseqEngRev	10	9	551	0	120	17:28:20	2938585	5	0	0	0	0	0	0	0	0	0	0	0	0	0	0	8	3
100212	17:28:20	10025	corsiblockEngRev	recallseqEngRev	10	doneCorsiEng	757	0	120	17:28:20	2939384	5	0	0	0	0	0	0	0	0	0	0	0	0	0	0	8	4
100212	17:28:20	10025	corsiblockEngRev	recallseqEngRev	10	3	851	0	120	17:28:20	2948327	5	0	0	0	0	0	0	0	0	0	0	0	0	0	0	8	4
100212	17:28:20	10025	corsiblockEngRev	recallseqEngRev	10	9	998	0	120	17:28:20	2949367	5	0	0	0	0	0	0	0	0	0	0	0	0	0	0	8	4
100212	17:28:20	10025	corsiblockEngRev	recallseqEngRev	10	5	719	0	120	17:28:20	2950126	5	0	0	0	0	0	0	0	0	0	0	0	0	0	0	8	4
100212	17:28:20	10025	corsiblockEngRev	recallseqEngRev	10	2	774	0	120	17:28:20	2950940	5	0	0	0	0	0	0	0	0	0	0	0	0	0	0	8	4
100212	17:28:20	10025	corsiblockEngRev	recallseqEngRev	10	7	538	0	120	17:28:20	2951513	5	0	0	0	0	0	0	0	0	0	0	0	0	0	0	8	4
100212	17:28:20	10025	corsiblockEngRev	recallseqEngRev	10	doneCorsiEng	909	0	120	17:28:20	2952459	5	0	0	0	0	0	0	0	0	0	0	0	0	0	0	8	5
100212	17:28:20	10025	corsiblockEngRev	recallseqEngRev	10	6	799	0	120	17:28:20	2962348	5	0	0	0	0	0	0	0	0	0	0	0	0	0	0	8	5
100212	17:28:20	10025	corsiblockEngRev	recallseqEngRev	10	5	745	0	120	17:28:20	2963135	5	0	0	0	0	0	0	0	0	0	0	0	0	0	0	8	5
100212	17:28:20	10025	corsiblockEngRev	recallseqEngRev	10	6	798	0	120	17:28:20	2963974	5	0	0	0	0	0	0	0	0	0	0	0	0	0	0	8	5
100212	17:28:20	10025	corsiblockEngRev	recallseqEngRev	10	4	1582	0	120	17:28:20	2965600	5	0	0	0	0	0	0	0	0	0	0	0	0	0	0	8	5
100212	17:28:20	10025	corsiblockEngRev	recallseqEngRev	10	8	861	0	120	17:28:20	2966506	5	0	0	0	0	0	0	0	0	0	0	0	0	0	0	8	5
100212	17:28:20	10025	corsiblockEngRev	recallseqEngRev	10	1	818	0	120	17:28:20	2967359	5	0	0	0	0	0	0	0	0	0	0	0	0	0	0	8	5
100212	17:28:20	10025	corsiblockEngRev	recallseqEngRev	10	doneCorsiEng	1013	0	120	17:28:20	2968412	5	0	0	0	0	0	0	0	0	0	0	0	0	0	0	8	5
100212	17:28:20	10025	corsiblockEngRev	recallseqEngRev	10	4	1271	0	120	17:28:20	2978728	5	0	0	0	0	0	0	0	0	0	0	0	0	0	0	8	5
100212	17:28:20	10025	corsiblockEngRev	recallseqEngRev	10	3	389	0	120	17:28:20	2979154	5	0	0	0	0	0	0	0	0	0	0	0	0	0	0	8	5
100212	17:28:20	10025	corsiblockEngRev	recallseqEngRev	10	7	737	0	120	17:28:20	2979928	5	0	0	0	0	0	0	0	0	0	0	0	0	0	0	8	5
100212	17:28:20	10025	corsiblockEngRev	recallseqEngRev	10	9	486	0	120	17:28:20	2980447	5	0	0	0	0	0	0	0	0	0	0	0	0	0	0	8	5
100212	17:28:20	10025	corsiblockEngRev	recallseqEngRev	10	2	493	0	120	17:28:20	2980981	5	0	0	0	0	0	0	0	0	0	0	0	0	0	0	8	5
100212	17:28:20	10025	corsiblockEngRev	recallseqEngRev	10	1	584	0	120	17:28:20	2981607	5	0	0	0	0	0	0	0	0	0	0	0	0	0	0	8	5
100212	17:28:20	10025	corsiblockEngRev	recallseqEngRev	10	doneCorsiEng	990	0	120	17:28:20	2982633	5	0	0	0	0	0	0	0	0	0	0	0	0	0	0	8	5
100212	17:28:20	10025	testEng3mo	WordsEng3mo	11	1Eng3mo	649	0	120	17:28:20	3005464	5	3	0	0	0	0	0	0	0	0	0	0	0	0	0	8	5
100212	17:28:20	10025	testEng3mo	WordsEng3mo	11	2Eng3mo	172	0	120	17:28:20	3005677	5	3	3	0	0	0	0	0	0	0	0	0	0	0	0	8	5
100212	17:28:20	10025	testEng3mo	WordsEng3mo	11	4Eng3mo	269	0	120	17:28:20	3005984	5	3	3	0	3	0	0	0	0	0	0	0	0	0	0	8	5
100212	17:28:20	10025	testEng3mo	WordsEng3mo	11	3Eng3mo	291	0	120	17:28:20	3006317	5	3	3	3	3	0	0	0	0	0	0	0	0	0	0	8	5
100212	17:28:20	10025	testEng3mo	WordsEng3mo	11	5Eng3mo	445	0	120	17:28:20	3006810	5	3	3	3	3	3	0	0	0	0	0	0	0	0	0	8	5
100212	17:28:20	10025	testEng3mo	WordsEng3mo	11	6Eng3mo	529	0	120	17:28:20	3007383	5	3	3	3	3	3	3	0	0	0	0	0	0	0	0	8	5
100212	17:28:20	10025	testEng3mo	WordsEng3mo	11	7Eng3mo	195	0	120	17:28:20	3007623	5	3	3	3	3	3	3	3	0	0	0	0	0	0	0	8	5
100212	17:28:20	10025	testEng3mo	WordsEng3mo	11	8Eng3mo	269	0	120	17:28:20	3007930	5	3	3	3	3	3	3	3	3	0	0	0	0	0	0	8	5
100212	17:28:20	10025	testEng3mo	WordsEng3mo	11	DoneEng3mo	322	0	120	17:28:20	3008289	5	3	3	3	3	3	3	3	3	0	0	0	0	0	0	8	5
100212	17:28:20	10025	DigitSpanFwrdEng3mo	Score1FwrdEng3mo	12	DS1	2560	0	120	17:28:20	3023802	5	3	3	3	3	3	3	3	3	0	0	0	0	0	0	8	5
100212	17:28:20	10025	DigitSpanFwrdEng3mo	Gate1FwrdEng3mo	12	0	1	0	120	17:28:20	3023818	5	3	3	3	3	3	3	3	3	3	0	0	0	0	0	8	5
100212	17:28:20	10025	DigitSpanFwrdEng3mo	Score2FwrdEng3mo	12	DS1	3164	0	120	17:28:20	3033558	5	3	3	3	3	3	3	3	3	3	0	0	0	0	0	8	5
100212	17:28:20	10025	DigitSpanFwrdEng3mo	Gate3FwrdEng3mo	12	0	1	0	120	17:28:20	3033574	5	3	3	3	3	3	3	3	3	4	0	0	0	0	0	8	5
100212	17:28:20	10025	DigitSpanFwrdEng3mo	Score3FwrdEng3mo	12	DS1	3470	0	120	17:28:20	3045087	5	3	3	3	3	3	3	3	3	4	0	0	0	0	0	8	5
100212	17:28:20	10025	DigitSpanFwrdEng3mo	Gate5FwrdEng3mo	12	0	1	0	120	17:28:20	3045102	5	3	3	3	3	3	3	3	3	5	0	0	0	0	0	8	5
100212	17:28:20	10025	DigitSpanFwrdEng3mo	Score4FwrdEng3mo	12	DS1	2679	0	120	17:28:20	3057322	5	3	3	3	3	3	3	3	3	5	0	0	0	0	0	8	5
100212	17:28:20	10025	DigitSpanFwrdEng3mo	Gate7FwrdEng3mo	12	0	1	0	120	17:28:20	3057337	5	3	3	3	3	3	3	3	3	6	0	0	0	0	0	8	5
100212	17:28:20	10025	DigitSpanFwrdEng3mo	Score5FwrdEng3mo	12	DS1	3146	0	120	17:28:20	3071529	5	3	3	3	3	3	3	3	3	6	0	0	0	0	0	8	5
100212	17:28:20	10025	DigitSpanFwrdEng3mo	Gate9FwrdEng3mo	12	0	1	0	120	17:28:20	3071545	5	3	3	3	3	3	3	3	3	7	0	0	0	0	0	8	5
100212	17:28:20	10025	DigitSpanFwrdEng3mo	Score6FwrdEng3mo	12	DS2	8750	0	120	17:28:20	3093627	5	3	3	3	3	3	3	3	3	7	0	0	0	0	0	8	5
100212	17:28:20	10025	DigitSpanFwrdEng3mo	Gate11FwrdEng3mo	12	0	1	0	120	17:28:20	3093642	5	3	3	3	3	3	3	3	3	7	0	0	0	0	0	8	5
100212	17:28:20	10025	DigitSpanFwrdEng3mo	Score66FwrdEng3mo	12	DS2	6169	0	120	17:28:20	3112819	5	3	3	3	3	3	3	3	3	7	0	0	0	0	0	8	5
100212	17:28:20	10025	DigitSpanEng3mo	Score1Eng3mo	13	DS1	3014	0	120	17:28:20	3133197	5	3	3	3	3	3	3	3	3	7	0	0	0	0	0	8	5
100212	17:28:20	10025	DigitSpanEng3mo	Gate1Eng3mo	13	0	1	0	120	17:28:20	3133212	5	3	3	3	3	3	3	3	3	7	2	0	0	0	0	8	5
100212	17:28:20	10025	DigitSpanEng3mo	Score2Eng3mo	13	DS1	2858	0	120	17:28:20	3141034	5	3	3	3	3	3	3	3	3	7	2	0	0	0	0	8	5
100212	17:28:20	10025	DigitSpanEng3mo	Gate3Eng3mo	13	0	1	0	120	17:28:20	3141049	5	3	3	3	3	3	3	3	3	7	3	0	0	0	0	8	5
100212	17:28:20	10025	DigitSpanEng3mo	Score3Eng3mo	13	DS1	6118	0	120	17:28:20	3153735	5	3	3	3	3	3	3	3	3	7	3	0	0	0	0	8	5
100212	17:28:20	10025	DigitSpanEng3mo	Gate5Eng3mo	13	0	1	0	120	17:28:20	3153750	5	3	3	3	3	3	3	3	3	7	4	0	0	0	0	8	5
100212	17:28:20	10025	DigitSpanEng3mo	Score4Eng3mo	13	DS1	8718	0	120	17:28:20	3170501	5	3	3	3	3	3	3	3	3	7	4	0	0	0	0	8	5
100212	17:28:20	10025	DigitSpanEng3mo	Gate7Eng3mo	13	0	1	0	120	17:28:20	3170517	5	3	3	3	3	3	3	3	3	7	5	0	0	0	0	8	5
100212	17:28:20	10025	DigitSpanEng3mo	Score5Eng3mo	13	DS2	24676	0	120	17:28:20	3204727	5	3	3	3	3	3	3	3	3	7	5	0	0	0	0	8	5
100212	17:28:20	10025	DigitSpanEng3mo	Gate9Eng3mo	13	0	1	0	120	17:28:20	3204743	5	3	3	3	3	3	3	3	3	7	5	0	0	0	0	8	5
100212	17:28:20	10025	DigitSpanEng3mo	Score55Eng3mo	13	DS1	10962	0	120	17:28:20	3225358	5	3	3	3	3	3	3	3	3	7	5	0	0	0	0	8	5
100212	17:28:20	10025	DigitSpanEng3mo	Gate10Eng3mo	13	0	1	0	120	17:28:20	3225374	5	3	3	3	3	3	3	3	3	7	6	0	0	0	0	8	5
100212	17:28:20	10025	DigitSpanEng3mo	Score6Eng3mo	13	DS2	14012	0	120	17:28:20	3251334	5	3	3	3	3	3	3	3	3	7	6	0	0	0	0	8	5
100212	17:28:20	10025	DigitSpanEng3mo	Gate11Eng3mo	13	0	1	0	120	17:28:20	3251350	5	3	3	3	3	3	3	3	3	7	6	0	0	0	0	8	5
100212	17:28:20	10025	DigitSpanEng3mo	Score66Eng3mo	13	DS2	43709	0	120	17:28:20	3305859	5	3	3	3	3	3	3	3	3	7	6	0	0	0	0	8	5
100212	17:28:20	10025	Trial	ResponseIL	14	0	162	0	120	17:28:20	3364634	5	3	3	3	3	3	3	3	3	7	6	0	0	0	0	8	5
100212	17:28:20	10025	Trial	IncongruentLeft	14	203	267	1	120	17:28:20	3364927	5	3	3	3	3	3	3	3	3	7	6	0	0	0	0	8	5
100212	17:28:20	10025	Trial	ResponseCR	14	0	162	0	120	17:28:20	3366327	5	3	3	3	3	3	3	3	3	7	6	0	0	0	0	8	5
100212	17:28:20	10025	Trial	CongruentRight	14	205	190	1	120	17:28:20	3366543	5	3	3	3	3	3	3	3	3	7	6	0	0	0	0	8	5
100212	17:28:20	10025	Trial	ResponseIR	14	0	162	0	120	17:28:20	3368019	5	3	3	3	3	3	3	3	3	7	6	0	0	0	0	8	5
100212	17:28:20	10025	Trial	IncongruentRight	14	205	305	1	120	17:28:20	3368351	5	3	3	3	3	3	3	3	3	7	6	0	0	0	0	8	5
100212	17:28:20	10025	Trial	ResponseCL	14	0	162	0	120	17:28:20	3369712	5	3	3	3	3	3	3	3	3	7	6	0	0	0	0	8	5
100212	17:28:20	10025	Trial	CongruentLeft	14	203	181	1	120	17:28:20	3369919	5	3	3	3	3	3	3	3	3	7	6	0	0	0	0	8	5
100212	17:28:20	10025	Trial	ResponseCR	14	0	162	0	120	17:28:20	3371405	5	3	3	3	3	3	3	3	3	7	6	0	0	0	0	8	5
100212	17:28:20	10025	Trial	CongruentRight	14	205	168	1	120	17:28:20	3371599	5	3	3	3	3	3	3	3	3	7	6	0	0	0	0	8	5
100212	17:28:20	10025	Trial	ResponseIR	14	0	162	0	120	17:28:20	3373097	5	3	3	3	3	3	3	3	3	7	6	0	0	0	0	8	5
100212	17:28:20	10025	Trial	IncongruentRight	14	205	331	1	120	17:28:20	3373455	5	3	3	3	3	3	3	3	3	7	6	0	0	0	0	8	5
100212	17:28:20	10025	Trial	ResponseCL	14	0	162	0	120	17:28:20	3374790	5	3	3	3	3	3	3	3	3	7	6	0	0	0	0	8	5
100212	17:28:20	10025	Trial	CongruentLeft	14	203	146	1	120	17:28:20	3374963	5	3	3	3	3	3	3	3	3	7	6	0	0	0	0	8	5
100212	17:28:20	10025	Trial	ResponseIL	14	0	162	0	120	17:28:20	3376483	5	3	3	3	3	3	3	3	3	7	6	0	0	0	0	8	5
100212	17:28:20	10025	Trial	IncongruentLeft	14	205	130	0	120	17:28:20	3376639	5	3	3	3	3	3	3	3	3	7	6	0	0	0	0	8	5
100212	17:28:20	10025	Trial	ResponseIL	14	0	162	0	120	17:28:20	3378175	5	3	3	3	3	3	3	3	3	7	6	0	0	0	0	8	5
100212	17:28:20	10025	Trial	IncongruentLeft	14	203	261	1	120	17:28:20	3378463	5	3	3	3	3	3	3	3	3	7	6	0	0	0	0	8	5
100212	17:28:20	10025	Trial	ResponseCR	14	0	162	0	120	17:28:20	3379868	5	3	3	3	3	3	3	3	3	7	6	0	0	0	0	8	5
100212	17:28:20	10025	Trial	CongruentRight	14	205	168	1	120	17:28:20	3380063	5	3	3	3	3	3	3	3	3	7	6	0	0	0	0	8	5
100212	17:28:20	10025	Trial	ResponseIR	14	0	162	0	120	17:28:20	3381561	5	3	3	3	3	3	3	3	3	7	6	0	0	0	0	8	5
100212	17:28:20	10025	Trial	IncongruentRight	14	205	316	1	120	17:28:20	3381903	5	3	3	3	3	3	3	3	3	7	6	0	0	0	0	8	5
100212	17:28:20	10025	Trial	ResponseCL	14	0	162	0	120	17:28:20	3383253	5	3	3	3	3	3	3	3	3	7	6	0	0	0	0	8	5
100212	17:28:20	10025	Trial	CongruentLeft	14	203	143	1	120	17:28:20	3383423	5	3	3	3	3	3	3	3	3	7	6	0	0	0	0	8	5
100212	17:28:20	10025	Trial	ResponseCR	14	0	162	0	120	17:28:20	3384946	5	3	3	3	3	3	3	3	3	7	6	0	0	0	0	8	5
100212	17:28:20	10025	Trial	CongruentRight	14	205	114	1	120	17:28:20	3385087	5	3	3	3	3	3	3	3	3	7	6	0	0	0	0	8	5
100212	17:28:20	10025	Trial	ResponseIL	14	0	162	0	120	17:28:20	3386638	5	3	3	3	3	3	3	3	3	7	6	0	0	0	0	8	5
100212	17:28:20	10025	Trial	IncongruentLeft	14	203	294	1	120	17:28:20	3386959	5	3	3	3	3	3	3	3	3	7	6	0	0	0	0	8	5
100212	17:28:20	10025	Trial	ResponseIR	14	0	162	0	120	17:28:20	3388331	5	3	3	3	3	3	3	3	3	7	6	0	0	0	0	8	5
100212	17:28:20	10025	Trial	IncongruentRight	14	205	361	1	120	17:28:20	3388719	5	3	3	3	3	3	3	3	3	7	6	0	0	0	0	8	5
100212	17:28:20	10025	Trial	ResponseCR	14	0	162	0	120	17:28:20	3390024	5	3	3	3	3	3	3	3	3	7	6	0	0	0	0	8	5
100212	17:28:20	10025	Trial	CongruentRight	14	205	332	1	120	17:28:20	3390382	5	3	3	3	3	3	3	3	3	7	6	0	0	0	0	8	5
100212	17:28:20	10025	Trial	ResponseCL	14	0	162	0	120	17:28:20	3391730	5	3	3	3	3	3	3	3	3	7	6	0	0	0	0	8	5
100212	17:28:20	10025	Trial	CongruentLeft	14	203	146	1	120	17:28:20	3391903	5	3	3	3	3	3	3	3	3	7	6	0	0	0	0	8	5
100212	17:28:20	10025	Trial	ResponseCR	14	0	162	0	120	17:28:20	3393422	5	3	3	3	3	3	3	3	3	7	6	0	0	0	0	8	5
100212	17:28:20	10025	Trial	CongruentRight	14	205	166	1	120	17:28:20	3393615	5	3	3	3	3	3	3	3	3	7	6	0	0	0	0	8	5
100212	17:28:20	10025	Trial	ResponseIR	14	0	162	0	120	17:28:20	3395115	5	3	3	3	3	3	3	3	3	7	6	0	0	0	0	8	5
100212	17:28:20	10025	Trial	IncongruentRight	14	203	137	0	120	17:28:20	3395278	5	3	3	3	3	3	3	3	3	7	6	0	0	0	0	8	5
100212	17:28:20	10025	Trial	ResponseIL	14	0	162	0	120	17:28:20	3396808	5	3	3	3	3	3	3	3	3	7	6	0	0	0	0	8	5
100212	17:28:20	10025	Trial	IncongruentLeft	14	203	348	1	120	17:28:20	3397182	5	3	3	3	3	3	3	3	3	7	6	0	0	0	0	8	5
100212	17:28:20	10025	Trial	ResponseIL	14	0	162	0	120	17:28:20	3398500	5	3	3	3	3	3	3	3	3	7	6	0	0	0	0	8	5
100212	17:28:20	10025	Trial	IncongruentLeft	14	203	352	1	120	17:28:20	3398878	5	3	3	3	3	3	3	3	3	7	6	0	0	0	0	8	5
100212	17:28:20	10025	Trial	ResponseCL	14	0	162	0	120	17:28:20	3400206	5	3	3	3	3	3	3	3	3	7	6	0	0	0	0	8	5
100212	17:28:20	10025	Trial	CongruentLeft	14	203	230	1	120	17:28:20	3400462	5	3	3	3	3	3	3	3	3	7	6	0	0	0	0	8	5
100212	17:28:20	10025	Trial	ResponseCR	14	0	162	0	120	17:28:20	3401899	5	3	3	3	3	3	3	3	3	7	6	0	0	0	0	8	5
100212	17:28:20	10025	Trial	CongruentRight	14	205	233	1	120	17:28:20	3402158	5	3	3	3	3	3	3	3	3	7	6	0	0	0	0	8	5
100212	17:28:20	10025	Trial	ResponseIL	14	0	162	0	120	17:28:20	3403591	5	3	3	3	3	3	3	3	3	7	6	0	0	0	0	8	5
100212	17:28:20	10025	Trial	IncongruentLeft	14	203	300	1	120	17:28:20	3403918	5	3	3	3	3	3	3	3	3	7	6	0	0	0	0	8	5
100212	17:28:20	10025	Trial	ResponseIR	14	0	162	0	120	17:28:20	3405284	5	3	3	3	3	3	3	3	3	7	6	0	0	0	0	8	5
100212	17:28:20	10025	Trial	IncongruentRight	14	205	287	1	120	17:28:20	3405598	5	3	3	3	3	3	3	3	3	7	6	0	0	0	0	8	5
100212	17:28:20	10025	Trial	ResponseCR	14	0	162	0	120	17:28:20	3406977	5	3	3	3	3	3	3	3	3	7	6	0	0	0	0	8	5
100212	17:28:20	10025	Trial	CongruentRight	14	205	211	1	120	17:28:20	3407214	5	3	3	3	3	3	3	3	3	7	6	0	0	0	0	8	5
100212	17:28:20	10025	Trial	ResponseCL	14	0	162	0	120	17:28:20	3408683	5	3	3	3	3	3	3	3	3	7	6	0	0	0	0	8	5
100212	17:28:20	10025	Trial	CongruentLeft	14	203	185	1	120	17:28:20	3408894	5	3	3	3	3	3	3	3	3	7	6	0	0	0	0	8	5
100212	17:28:20	10025	Trial	ResponseIR	14	0	162	0	120	17:28:20	3410375	5	3	3	3	3	3	3	3	3	7	6	0	0	0	0	8	5
100212	17:28:20	10025	Trial	IncongruentRight	14	205	252	1	120	17:28:20	3410654	5	3	3	3	3	3	3	3	3	7	6	0	0	0	0	8	5
100212	17:28:20	10025	Trial	ResponseIL	14	0	162	0	120	17:28:20	3412068	5	3	3	3	3	3	3	3	3	7	6	0	0	0	0	8	5
100212	17:28:20	10025	Trial	IncongruentLeft	14	203	303	1	120	17:28:20	3412398	5	3	3	3	3	3	3	3	3	7	6	0	0	0	0	8	5
100212	17:28:20	10025	Trial	ResponseIR	14	0	162	0	120	17:28:20	3413761	5	3	3	3	3	3	3	3	3	7	6	0	0	0	0	8	5
100212	17:28:20	10025	Trial	IncongruentRight	14	205	227	1	120	17:28:20	3414014	5	3	3	3	3	3	3	3	3	7	6	0	0	0	0	8	5
100212	17:28:20	10025	Trial	ResponseCR	14	0	162	0	120	17:28:20	3415453	5	3	3	3	3	3	3	3	3	7	6	0	0	0	0	8	5
100212	17:28:20	10025	Trial	CongruentRight	14	205	246	1	120	17:28:20	3415726	5	3	3	3	3	3	3	3	3	7	6	0	0	0	0	8	5
100212	17:28:20	10025	Trial	ResponseIL	14	0	162	0	120	17:28:20	3417146	5	3	3	3	3	3	3	3	3	7	6	0	0	0	0	8	5
100212	17:28:20	10025	Trial	IncongruentLeft	14	203	296	1	120	17:28:20	3417470	5	3	3	3	3	3	3	3	3	7	6	0	0	0	0	8	5
100212	17:28:20	10025	Trial	ResponseCL	14	0	162	0	120	17:28:20	3418839	5	3	3	3	3	3	3	3	3	7	6	0	0	0	0	8	5
100212	17:28:20	10025	Trial	CongruentLeft	14	203	253	1	120	17:28:20	3419118	5	3	3	3	3	3	3	3	3	7	6	0	0	0	0	8	5
100212	17:28:20	10025	Trial	ResponseCR	14	0	162	0	120	17:28:20	3420531	5	3	3	3	3	3	3	3	3	7	6	0	0	0	0	8	5
100212	17:28:20	10025	Trial	CongruentRight	14	205	224	1	120	17:28:20	3420782	5	3	3	3	3	3	3	3	3	7	6	0	0	0	0	8	5
100212	17:28:20	10025	Trial	ResponseIL	14	0	162	0	120	17:28:20	3422224	5	3	3	3	3	3	3	3	3	7	6	0	0	0	0	8	5
100212	17:28:20	10025	Trial	IncongruentLeft	14	203	339	1	120	17:28:20	3422590	5	3	3	3	3	3	3	3	3	7	6	0	0	0	0	8	5
100212	17:28:20	10025	Trial	ResponseIR	14	0	162	0	120	17:28:20	3423916	5	3	3	3	3	3	3	3	3	7	6	0	0	0	0	8	5
100212	17:28:20	10025	Trial	IncongruentRight	14	205	278	1	120	17:28:20	3424222	5	3	3	3	3	3	3	3	3	7	6	0	0	0	0	8	5
100212	17:28:20	10025	Trial	ResponseIR	14	0	162	0	120	17:28:20	3425609	5	3	3	3	3	3	3	3	3	7	6	0	0	0	0	8	5
100212	17:28:20	10025	Trial	IncongruentRight	14	205	298	1	120	17:28:20	3425934	5	3	3	3	3	3	3	3	3	7	6	0	0	0	0	8	5
100212	17:28:20	10025	Trial	ResponseCL	14	0	162	0	120	17:28:20	3427302	5	3	3	3	3	3	3	3	3	7	6	0	0	0	0	8	5
100212	17:28:20	10025	Trial	CongruentLeft	14	203	173	1	120	17:28:20	3427502	5	3	3	3	3	3	3	3	3	7	6	0	0	0	0	8	5
100212	17:28:20	10025	Trial	ResponseIL	14	0	162	0	120	17:28:20	3428994	5	3	3	3	3	3	3	3	3	7	6	0	0	0	0	8	5
100212	17:28:20	10025	Trial	IncongruentLeft	14	203	321	1	120	17:28:20	3429342	5	3	3	3	3	3	3	3	3	7	6	0	0	0	0	8	5
100212	17:28:20	10025	Trial	ResponseCR	14	0	162	0	120	17:28:20	3430687	5	3	3	3	3	3	3	3	3	7	6	0	0	0	0	8	5
100212	17:28:20	10025	Trial	CongruentRight	14	205	180	1	120	17:28:20	3430893	5	3	3	3	3	3	3	3	3	7	6	0	0	0	0	8	5
100212	17:28:20	10025	Trial	ResponseCL	14	0	162	0	120	17:28:20	3432380	5	3	3	3	3	3	3	3	3	7	6	0	0	0	0	8	5
100212	17:28:20	10025	Trial	CongruentLeft	14	203	183	1	120	17:28:20	3432589	5	3	3	3	3	3	3	3	3	7	6	0	0	0	0	8	5
100212	17:28:20	10025	Trial	ResponseIR	14	0	162	0	120	17:28:20	3434072	5	3	3	3	3	3	3	3	3	7	6	0	0	0	0	8	5
100212	17:28:20	10025	Trial	IncongruentRight	14	205	219	1	120	17:28:20	3434317	5	3	3	3	3	3	3	3	3	7	6	0	0	0	0	8	5
100212	17:28:20	10025	Trial	ResponseCR	14	0	162	0	120	17:28:20	3435765	5	3	3	3	3	3	3	3	3	7	6	0	0	0	0	8	5
100212	17:28:20	10025	Trial	CongruentRight	14	205	206	1	120	17:28:20	3435997	5	3	3	3	3	3	3	3	3	7	6	0	0	0	0	8	5
100212	17:28:20	10025	Trial	ResponseIL	14	0	162	0	120	17:28:20	3437471	5	3	3	3	3	3	3	3	3	7	6	0	0	0	0	8	5
100212	17:28:20	10025	Trial	IncongruentLeft	14	203	260	1	120	17:28:20	3437758	5	3	3	3	3	3	3	3	3	7	6	0	0	0	0	8	5
100212	17:28:20	10025	Trial	ResponseCL	14	0	162	0	120	17:28:20	3439163	5	3	3	3	3	3	3	3	3	7	6	0	0	0	0	8	5
100212	17:28:20	10025	Trial	CongruentLeft	14	203	215	1	120	17:28:20	3439405	5	3	3	3	3	3	3	3	3	7	6	0	0	0	0	8	5
100212	17:28:20	10025	Trial	ResponseIL	14	0	162	0	120	17:28:20	3440856	5	3	3	3	3	3	3	3	3	7	6	0	0	0	0	8	5
100212	17:28:20	10025	Trial	IncongruentLeft	14	203	282	1	120	17:28:20	3441165	5	3	3	3	3	3	3	3	3	7	6	0	0	0	0	8	5
100212	17:28:20	10025	Trial	ResponseIR	14	0	162	0	120	17:28:20	3442549	5	3	3	3	3	3	3	3	3	7	6	0	0	0	0	8	5
100212	17:28:20	10025	Trial	IncongruentRight	14	205	222	1	120	17:28:20	3442797	5	3	3	3	3	3	3	3	3	7	6	0	0	0	0	8	5
100212	17:28:20	10025	Trial	ResponseCR	14	0	162	0	120	17:28:20	3444241	5	3	3	3	3	3	3	3	3	7	6	0	0	0	0	8	5
100212	17:28:20	10025	Trial	CongruentRight	14	205	209	1	120	17:28:20	3444477	5	3	3	3	3	3	3	3	3	7	6	0	0	0	0	8	5
100212	17:28:20	10025	Trial	ResponseCL	14	0	162	0	120	17:28:20	3445934	5	3	3	3	3	3	3	3	3	7	6	0	0	0	0	8	5
100212	17:28:20	10025	Trial	CongruentLeft	14	203	292	1	120	17:28:20	3446253	5	3	3	3	3	3	3	3	3	7	6	0	0	0	0	8	5
100212	17:28:20	10025	Trial	ResponseCL	14	0	162	0	120	17:28:20	3447640	5	3	3	3	3	3	3	3	3	7	6	0	0	0	0	8	5
100212	17:28:20	10025	Trial	CongruentLeft	14	203	282	1	120	17:28:20	3447949	5	3	3	3	3	3	3	3	3	7	6	0	0	0	0	8	5
100212	17:28:20	10025	Trial	ResponseIR	14	0	162	0	120	17:28:20	3449333	5	3	3	3	3	3	3	3	3	7	6	0	0	0	0	8	5
100212	17:28:20	10025	Trial	IncongruentRight	14	203	238	0	120	17:28:20	3449597	5	3	3	3	3	3	3	3	3	7	6	0	0	0	0	8	5
100212	17:28:20	10025	Trial	ResponseIL	14	0	162	0	120	17:28:20	3451025	5	3	3	3	3	3	3	3	3	7	6	0	0	0	0	8	5
100212	17:28:20	10025	Trial	IncongruentLeft	14	203	321	1	120	17:28:20	3451373	5	3	3	3	3	3	3	3	3	7	6	0	0	0	0	8	5
100212	17:28:20	10025	Trial	ResponseIR	14	0	162	0	120	17:28:20	3452718	5	3	3	3	3	3	3	3	3	7	6	0	0	0	0	8	5
100212	17:28:20	10025	Trial	IncongruentRight	14	205	228	1	120	17:28:20	3452973	5	3	3	3	3	3	3	3	3	7	6	0	0	0	0	8	5
100212	17:28:20	10025	Trial	ResponseCR	14	0	162	0	120	17:28:20	3454411	5	3	3	3	3	3	3	3	3	7	6	0	0	0	0	8	5
100212	17:28:20	10025	Trial	CongruentRight	14	205	263	1	120	17:28:20	3454701	5	3	3	3	3	3	3	3	3	7	6	0	0	0	0	8	5
100212	17:28:20	10025	Trial	ResponseCR	14	0	162	0	120	17:28:20	3456103	5	3	3	3	3	3	3	3	3	7	6	0	0	0	0	8	5
100212	17:28:20	10025	Trial	CongruentRight	14	205	235	1	120	17:28:20	3456364	5	3	3	3	3	3	3	3	3	7	6	0	0	0	0	8	5
100212	17:28:20	10025	Trial	ResponseIL	14	0	162	0	120	17:28:20	3457796	5	3	3	3	3	3	3	3	3	7	6	0	0	0	0	8	5
100212	17:28:20	10025	Trial	IncongruentLeft	14	203	254	1	120	17:28:20	3458076	5	3	3	3	3	3	3	3	3	7	6	0	0	0	0	8	5
100212	17:28:20	10025	Trial	ResponseCL	14	0	162	0	120	17:28:20	3459488	5	3	3	3	3	3	3	3	3	7	6	0	0	0	0	8	5
100212	17:28:20	10025	Trial	CongruentLeft	14	203	289	1	120	17:28:20	3459804	5	3	3	3	3	3	3	3	3	7	6	0	0	0	0	8	5
100212	17:28:20	10025	Trial	ResponseCR	14	0	162	0	120	17:28:20	3461194	5	3	3	3	3	3	3	3	3	7	6	0	0	0	0	8	5
100212	17:28:20	10025	Trial	CongruentRight	14	205	120	1	120	17:28:20	3461340	5	3	3	3	3	3	3	3	3	7	6	0	0	0	0	8	5
100212	17:28:20	10025	Trial	ResponseCL	14	0	162	0	120	17:28:20	3462887	5	3	3	3	3	3	3	3	3	7	6	0	0	0	0	8	5
100212	17:28:20	10025	Trial	CongruentLeft	14	203	139	1	120	17:28:20	3463052	5	3	3	3	3	3	3	3	3	7	6	0	0	0	0	8	5
100212	17:28:20	10025	Trial	ResponseIR	14	0	162	0	120	17:28:20	3464580	5	3	3	3	3	3	3	3	3	7	6	0	0	0	0	8	5
100212	17:28:20	10025	Trial	IncongruentRight	14	205	190	1	120	17:28:20	3464796	5	3	3	3	3	3	3	3	3	7	6	0	0	0	0	8	5
100212	17:28:20	10025	Trial	ResponseCR	14	0	162	0	120	17:28:20	3466272	5	3	3	3	3	3	3	3	3	7	6	0	0	0	0	8	5
100212	17:28:20	10025	Trial	CongruentRight	14	205	273	1	120	17:28:20	3466572	5	3	3	3	3	3	3	3	3	7	6	0	0	0	0	8	5
100212	17:28:20	10025	Trial	ResponseCL	14	0	162	0	120	17:28:20	3467965	5	3	3	3	3	3	3	3	3	7	6	0	0	0	0	8	5
100212	17:28:20	10025	Trial	CongruentLeft	14	203	197	1	120	17:28:20	3468188	5	3	3	3	3	3	3	3	3	7	6	0	0	0	0	8	5
100212	17:28:20	10025	Trial	ResponseIL	14	0	162	0	120	17:28:20	3469658	5	3	3	3	3	3	3	3	3	7	6	0	0	0	0	8	5
100212	17:28:20	10025	Trial	IncongruentLeft	14	203	279	1	120	17:28:20	3469964	5	3	3	3	3	3	3	3	3	7	6	0	0	0	0	8	5
100212	17:28:20	10025	Trial	ResponseIL	14	0	162	0	120	17:28:20	3471350	5	3	3	3	3	3	3	3	3	7	6	0	0	0	0	8	5
100212	17:28:20	10025	Trial	IncongruentLeft	14	203	299	1	120	17:28:20	3471676	5	3	3	3	3	3	3	3	3	7	6	0	0	0	0	8	5
100212	17:28:20	10025	Trial	ResponseCR	14	0	162	0	120	17:28:20	3473043	5	3	3	3	3	3	3	3	3	7	6	0	0	0	0	8	5
100212	17:28:20	10025	Trial	CongruentRight	14	205	159	1	120	17:28:20	3473228	5	3	3	3	3	3	3	3	3	7	6	0	0	0	0	8	5
100212	17:28:20	10025	Trial	ResponseIR	14	0	162	0	120	17:28:20	3474735	5	3	3	3	3	3	3	3	3	7	6	0	0	0	0	8	5
100212	17:28:20	10025	Trial	IncongruentRight	14	205	322	1	120	17:28:20	3475084	5	3	3	3	3	3	3	3	3	7	6	0	0	0	0	8	5
100212	17:28:20	10025	Trial	ResponseCL	14	0	162	0	120	17:28:20	3476428	5	3	3	3	3	3	3	3	3	7	6	0	0	0	0	8	5
100212	17:28:20	10025	Trial	CongruentLeft	14	203	197	1	120	17:28:20	3476652	5	3	3	3	3	3	3	3	3	7	6	0	0	0	0	8	5
100212	17:28:20	10025	Trial	ResponseIR	14	0	162	0	120	17:28:20	3478121	5	3	3	3	3	3	3	3	3	7	6	0	0	0	0	8	5
100212	17:28:20	10025	Trial	IncongruentRight	14	205	231	1	120	17:28:20	3478380	5	3	3	3	3	3	3	3	3	7	6	0	0	0	0	8	5
100212	17:28:20	10025	Trial	ResponseCR	14	0	162	0	120	17:28:20	3479827	5	3	3	3	3	3	3	3	3	7	6	0	0	0	0	8	5
100212	17:28:20	10025	Trial	CongruentRight	14	205	191	1	120	17:28:20	3480044	5	3	3	3	3	3	3	3	3	7	6	0	0	0	0	8	5
100212	17:28:20	10025	Trial	ResponseIL	14	0	162	0	120	17:28:20	3481519	5	3	3	3	3	3	3	3	3	7	6	0	0	0	0	8	5
100212	17:28:20	10025	Trial	IncongruentLeft	14	203	322	1	120	17:28:20	3481868	5	3	3	3	3	3	3	3	3	7	6	0	0	0	0	8	5
100212	17:28:20	10025	Trial	ResponseCL	14	0	162	0	120	17:28:20	3483212	5	3	3	3	3	3	3	3	3	7	6	0	0	0	0	8	5
100212	17:28:20	10025	Trial	CongruentLeft	14	203	197	1	120	17:28:20	3483436	5	3	3	3	3	3	3	3	3	7	6	0	0	0	0	8	5
100212	17:28:20	10025	Trial	ResponseCR	14	0	162	0	120	17:28:20	3484905	5	3	3	3	3	3	3	3	3	7	6	0	0	0	0	8	5
100212	17:28:20	10025	Trial	CongruentRight	14	205	120	1	120	17:28:20	3485052	5	3	3	3	3	3	3	3	3	7	6	0	0	0	0	8	5
100212	17:28:20	10025	Trial	ResponseIL	14	0	162	0	120	17:28:20	3486597	5	3	3	3	3	3	3	3	3	7	6	0	0	0	0	8	5
100212	17:28:20	10025	Trial	IncongruentLeft	14	203	252	1	120	17:28:20	3486876	5	3	3	3	3	3	3	3	3	7	6	0	0	0	0	8	5
100212	17:28:20	10025	Trial	ResponseCR	14	0	162	0	120	17:28:20	3488290	5	3	3	3	3	3	3	3	3	7	6	0	0	0	0	8	5
100212	17:28:20	10025	Trial	CongruentRight	14	205	191	1	120	17:28:20	3488508	5	3	3	3	3	3	3	3	3	7	6	0	0	0	0	8	5
100212	17:28:20	10025	Trial	ResponseCR	14	0	162	0	120	17:28:20	3489983	5	3	3	3	3	3	3	3	3	7	6	0	0	0	0	8	5
100212	17:28:20	10025	Trial	CongruentRight	14	205	243	1	120	17:28:20	3490252	5	3	3	3	3	3	3	3	3	7	6	0	0	0	0	8	5
100212	17:28:20	10025	Trial	ResponseIR	14	0	162	0	120	17:28:20	3491675	5	3	3	3	3	3	3	3	3	7	6	0	0	0	0	8	5
100212	17:28:20	10025	Trial	IncongruentRight	14	205	325	1	120	17:28:20	3492027	5	3	3	3	3	3	3	3	3	7	6	0	0	0	0	8	5
100212	17:28:20	10025	Trial	ResponseCL	14	0	162	0	120	17:28:20	3493368	5	3	3	3	3	3	3	3	3	7	6	0	0	0	0	8	5
100212	17:28:20	10025	Trial	CongruentLeft	14	203	169	1	120	17:28:20	3493563	5	3	3	3	3	3	3	3	3	7	6	0	0	0	0	8	5
100212	17:28:20	10025	Trial	ResponseIL	14	0	162	0	120	17:28:20	3495061	5	3	3	3	3	3	3	3	3	7	6	0	0	0	0	8	5
100212	17:28:20	10025	Trial	IncongruentLeft	14	203	316	1	120	17:28:20	3495403	5	3	3	3	3	3	3	3	3	7	6	0	0	0	0	8	5
100212	17:28:20	10025	Trial	ResponseCL	14	0	162	0	120	17:28:20	3496753	5	3	3	3	3	3	3	3	3	7	6	0	0	0	0	8	5
100212	17:28:20	10025	Trial	CongruentLeft	14	203	208	1	120	17:28:20	3496987	5	3	3	3	3	3	3	3	3	7	6	0	0	0	0	8	5
100212	17:28:20	10025	Trial	ResponseIR	14	0	162	0	120	17:28:20	3498446	5	3	3	3	3	3	3	3	3	7	6	0	0	0	0	8	5
100212	17:28:20	10025	Trial	IncongruentRight	14	205	323	1	120	17:28:20	3498795	5	3	3	3	3	3	3	3	3	7	6	0	0	0	0	8	5
100212	17:28:20	10025	Trial	ResponseIL	14	0	162	0	120	17:28:20	3500138	5	3	3	3	3	3	3	3	3	7	6	0	0	0	0	8	5
100212	17:28:20	10025	Trial	IncongruentLeft	14	203	230	1	120	17:28:20	3500395	5	3	3	3	3	3	3	3	3	7	6	0	0	0	0	8	5
100212	17:28:20	10025	Trial	ResponseCR	14	0	162	0	120	17:28:20	3501831	5	3	3	3	3	3	3	3	3	7	6	0	0	0	0	8	5
100212	17:28:20	10025	Trial	CongruentRight	14	205	249	1	120	17:28:20	3502107	5	3	3	3	3	3	3	3	3	7	6	0	0	0	0	8	5
100212	17:28:20	10025	Trial	ResponseCL	14	0	162	0	120	17:28:20	3503524	5	3	3	3	3	3	3	3	3	7	6	0	0	0	0	8	5
100212	17:28:20	10025	Trial	CongruentLeft	14	203	221	1	120	17:28:20	3503771	5	3	3	3	3	3	3	3	3	7	6	0	0	0	0	8	5
100212	17:28:20	10025	Trial	ResponseIL	14	0	162	0	120	17:28:20	3505216	5	3	3	3	3	3	3	3	3	7	6	0	0	0	0	8	5
100212	17:28:20	10025	Trial	IncongruentLeft	14	203	272	1	120	17:28:20	3505515	5	3	3	3	3	3	3	3	3	7	6	0	0	0	0	8	5
100212	17:28:20	10025	Trial	ResponseCL	14	0	162	0	120	17:28:20	3506909	5	3	3	3	3	3	3	3	3	7	6	0	0	0	0	8	5
100212	17:28:20	10025	Trial	CongruentLeft	14	203	179	1	120	17:28:20	3507115	5	3	3	3	3	3	3	3	3	7	6	0	0	0	0	8	5
100212	17:28:20	10025	Trial	ResponseIR	14	0	162	0	120	17:28:20	3508602	5	3	3	3	3	3	3	3	3	7	6	0	0	0	0	8	5
100212	17:28:20	10025	Trial	IncongruentRight	14	205	263	1	120	17:28:20	3508891	5	3	3	3	3	3	3	3	3	7	6	0	0	0	0	8	5
100212	17:28:20	10025	Trial	ResponseCR	14	0	162	0	120	17:28:20	3510308	5	3	3	3	3	3	3	3	3	7	6	0	0	0	0	8	5
100212	17:28:20	10025	Trial	CongruentRight	14	205	205	1	120	17:28:20	3510539	5	3	3	3	3	3	3	3	3	7	6	0	0	0	0	8	5
100212	17:28:20	10025	Trial	ResponseIL	14	0	162	0	120	17:28:20	3512000	5	3	3	3	3	3	3	3	3	7	6	0	0	0	0	8	5
100212	17:28:20	10025	Trial	IncongruentLeft	14	203	224	1	120	17:28:20	3512251	5	3	3	3	3	3	3	3	3	7	6	0	0	0	0	8	5
100212	17:28:20	10025	Trial	ResponseCL	14	0	162	0	120	17:28:20	3513693	5	3	3	3	3	3	3	3	3	7	6	0	0	0	0	8	5
100212	17:28:20	10025	Trial	CongruentLeft	14	203	228	1	120	17:28:20	3513947	5	3	3	3	3	3	3	3	3	7	6	0	0	0	0	8	5
100212	17:28:20	10025	Trial	ResponseIR	14	0	162	0	120	17:28:20	3515385	5	3	3	3	3	3	3	3	3	7	6	0	0	0	0	8	5
100212	17:28:20	10025	Trial	IncongruentRight	14	205	311	1	120	17:28:20	3515723	5	3	3	3	3	3	3	3	3	7	6	0	0	0	0	8	5
100212	17:28:20	10025	Trial	ResponseIL	14	0	162	0	120	17:28:20	3517078	5	3	3	3	3	3	3	3	3	7	6	0	0	0	0	8	5
100212	17:28:20	10025	Trial	IncongruentLeft	14	203	314	1	120	17:28:20	3517419	5	3	3	3	3	3	3	3	3	7	6	0	0	0	0	8	5
100212	17:28:20	10025	Trial	ResponseCL	14	0	162	0	120	17:28:20	3518771	5	3	3	3	3	3	3	3	3	7	6	0	0	0	0	8	5
100212	17:28:20	10025	Trial	CongruentLeft	14	203	222	1	120	17:28:20	3519019	5	3	3	3	3	3	3	3	3	7	6	0	0	0	0	8	5
100212	17:28:20	10025	Trial	ResponseIL	14	0	162	0	120	17:28:20	3520463	5	3	3	3	3	3	3	3	3	7	6	0	0	0	0	8	5
100212	17:28:20	10025	Trial	IncongruentLeft	14	203	368	1	120	17:28:20	3520859	5	3	3	3	3	3	3	3	3	7	6	0	0	0	0	8	5
100212	17:28:20	10025	Trial	ResponseCR	14	0	162	0	120	17:28:20	3522156	5	3	3	3	3	3	3	3	3	7	6	0	0	0	0	8	5
100212	17:28:20	10025	Trial	CongruentRight	14	205	196	1	120	17:28:20	3522379	5	3	3	3	3	3	3	3	3	7	6	0	0	0	0	8	5
100212	17:28:20	10025	Trial	ResponseCL	14	0	162	0	120	17:28:20	3523849	5	3	3	3	3	3	3	3	3	7	6	0	0	0	0	8	5
100212	17:28:20	10025	Trial	CongruentLeft	14	203	167	1	120	17:28:20	3524043	5	3	3	3	3	3	3	3	3	7	6	0	0	0	0	8	5
100212	17:28:20	10025	Trial	ResponseIR	14	0	162	0	120	17:28:20	3525541	5	3	3	3	3	3	3	3	3	7	6	0	0	0	0	8	5
100212	17:28:20	10025	Trial	IncongruentRight	14	205	234	1	120	17:28:20	3525802	5	3	3	3	3	3	3	3	3	7	6	0	0	0	0	8	5
100212	17:28:20	10025	Trial	ResponseCL	14	0	162	0	120	17:28:20	3527234	5	3	3	3	3	3	3	3	3	7	6	0	0	0	0	8	5
100212	17:28:20	10025	Trial	CongruentLeft	14	203	206	1	120	17:28:20	3527466	5	3	3	3	3	3	3	3	3	7	6	0	0	0	0	8	5
100212	17:28:20	10025	Trial	ResponseCR	14	0	162	0	120	17:28:20	3528927	5	3	3	3	3	3	3	3	3	7	6	0	0	0	0	8	5
100212	17:28:20	10025	Trial	CongruentRight	14	205	146	1	120	17:28:20	3529099	5	3	3	3	3	3	3	3	3	7	6	0	0	0	0	8	5
100212	17:28:20	10025	Trial	ResponseIL	14	0	162	0	120	17:28:20	3530619	5	3	3	3	3	3	3	3	3	7	6	0	0	0	0	8	5
100212	17:28:20	10025	Trial	IncongruentLeft	14	203	244	1	120	17:28:20	3530890	5	3	3	3	3	3	3	3	3	7	6	0	0	0	0	8	5
100212	17:28:20	10025	WordsAbsEngThreemo	PAbsEngThreemo1	16	Abs1	5253	0	120	17:28:20	3574628	5	3	3	3	3	3	3	3	3	7	6	0	0	0	0	8	5
100212	17:28:20	10025	WordsAbsEngThreemo	AbsEngThreemo1	16	Abs1	4285	0	120	17:28:20	3578946	5	3	3	3	3	3	3	3	3	7	6	1	0	0	0	8	5
100212	17:28:20	10025	WordsAbsEngThreemo	AbsEngThreemo2	16	Abs1	11135	0	120	17:28:20	3590114	5	3	3	3	3	3	3	3	3	7	6	2	0	0	0	8	5
100212	17:28:20	10025	WordsAbsEngThreemo	AbsEngThreemo3	16	Abs1	42508	0	120	17:28:20	3632657	5	3	3	3	3	3	3	3	3	7	6	3	0	0	0	8	5
100212	17:28:20	10025	Trial2BackEngS	NS	17	0	1000	1	120	17:28:20	3934371	5	3	3	3	3	3	3	3	3	7	6	3	0	0	0	8	5
100212	17:28:20	10025	Trial2BackEngS	NS	17	0	1000	1	120	17:28:20	3935891	5	3	3	3	3	3	3	3	3	7	6	3	0	0	0	8	5
100212	17:28:20	10025	Trial2BackEngS	NS	17	0	1000	1	120	17:28:20	3937410	5	3	3	3	3	3	3	3	3	7	6	3	0	0	0	8	5
100212	17:28:20	10025	Trial2BackEngS	YS	17	57	738	1	120	17:28:20	3938676	5	3	3	3	3	3	3	3	3	7	6	3	0	0	0	8	5
100212	17:28:20	10025	Trial2BackEngS	NS	17	0	1000	1	120	17:28:20	3940435	5	3	3	3	3	3	3	3	3	7	6	3	0	0	0	8	5
100212	17:28:20	10025	Trial2BackEngS	NS	17	0	1000	1	120	17:28:20	3941955	5	3	3	3	3	3	3	3	3	7	6	3	0	0	0	8	5
100212	17:28:20	10025	Trial2BackEngS	NS	17	0	1000	1	120	17:28:20	3943474	5	3	3	3	3	3	3	3	3	7	6	3	0	0	0	8	5
100212	17:28:20	10025	Trial2BackEngS	NS	17	0	1000	1	120	17:28:20	3944994	5	3	3	3	3	3	3	3	3	7	6	3	0	0	0	8	5
100212	17:28:20	10025	Trial2BackEngS	YS	17	57	403	1	120	17:28:20	3945927	5	3	3	3	3	3	3	3	3	7	6	3	0	0	0	8	5
100212	17:28:20	10025	Trial2BackEngS	NS	17	0	1000	1	120	17:28:20	3948019	5	3	3	3	3	3	3	3	3	7	6	3	0	0	0	8	5
100212	17:28:20	10025	Trial2BackEngS	NS	17	0	1000	1	120	17:28:20	3949538	5	3	3	3	3	3	3	3	3	7	6	3	0	0	0	8	5
100212	17:28:20	10025	Trial2BackEngS	YS	17	0	1000	0	120	17:28:20	3951058	5	3	3	3	3	3	3	3	3	7	6	3	0	0	0	8	5
100212	17:28:20	10025	Trial2BackEngS	NS	17	0	1000	1	120	17:28:20	3952577	5	3	3	3	3	3	3	3	3	7	6	3	0	0	0	8	5
100212	17:28:20	10025	Trial2BackEngS	NS	17	0	1000	1	120	17:28:20	3954096	5	3	3	3	3	3	3	3	3	7	6	3	0	0	0	8	5
100212	17:28:20	10025	Trial2BackEngS	NS	17	0	1000	1	120	17:28:20	3955616	5	3	3	3	3	3	3	3	3	7	6	3	0	0	0	8	5
100212	17:28:20	10025	Trial2BackEngS	YS	17	57	580	1	120	17:28:20	3956722	5	3	3	3	3	3	3	3	3	7	6	3	0	0	0	8	5
100212	17:28:20	10025	Trial2BackEngS	NS	17	0	1000	1	120	17:28:20	3958641	5	3	3	3	3	3	3	3	3	7	6	3	0	0	0	8	5
100212	17:28:20	10025	Trial2BackEngS	NS	17	0	1000	1	120	17:28:20	3960160	5	3	3	3	3	3	3	3	3	7	6	3	0	0	0	8	5
100212	17:28:20	10025	Trial2BackEngS	NS	17	0	1000	1	120	17:28:20	3961680	5	3	3	3	3	3	3	3	3	7	6	3	0	0	0	8	5
100212	17:28:20	10025	Trial2BackEngS	NS	17	0	1000	1	120	17:28:20	3963199	5	3	3	3	3	3	3	3	3	7	6	3	0	0	0	8	5
100212	17:28:20	10025	Trial2BackEngS	YS	17	57	372	1	120	17:28:20	3964106	5	3	3	3	3	3	3	3	3	7	6	3	0	0	0	8	5
100212	17:28:20	10025	Trial2BackEngS	NS	17	0	1000	1	120	17:28:20	3966225	5	3	3	3	3	3	3	3	3	7	6	3	0	0	0	8	5
100212	17:28:20	10025	Trial2BackEngS	NS	17	0	1000	1	120	17:28:20	3967744	5	3	3	3	3	3	3	3	3	7	6	3	0	0	0	8	5
100212	17:28:20	10025	Trial2BackEngS	NS	17	0	1000	1	120	17:28:20	3969264	5	3	3	3	3	3	3	3	3	7	6	3	0	0	0	8	5
100212	17:28:20	10025	Trial2BackEngS	NS	17	57	420	0	120	17:28:20	3970210	5	3	3	3	3	3	3	3	3	7	6	3	0	0	0	8	5
100212	17:28:20	10025	Trial2BackEngS	NS	17	0	1000	1	120	17:28:20	3972289	5	3	3	3	3	3	3	3	3	7	6	3	0	0	0	8	5
100212	17:28:20	10025	Trial2BackEngS	NS	17	0	1000	1	120	17:28:20	3973808	5	3	3	3	3	3	3	3	3	7	6	3	0	0	0	8	5
100212	17:28:20	10025	Trial2BackEngS	NS	17	0	1000	1	120	17:28:20	3975328	5	3	3	3	3	3	3	3	3	7	6	3	0	0	0	8	5
100212	17:28:20	10025	Trial2BackEngS	NS	17	0	1000	1	120	17:28:20	3976847	5	3	3	3	3	3	3	3	3	7	6	3	0	0	0	8	5
100212	17:28:20	10025	Trial2BackEngS	NS	17	0	1000	1	120	17:28:20	3978366	5	3	3	3	3	3	3	3	3	7	6	3	0	0	0	8	5
100212	17:28:20	10025	Trial2BackEngS	NS	17	0	1000	1	120	17:28:20	3979886	5	3	3	3	3	3	3	3	3	7	6	3	0	0	0	8	5
100212	17:28:20	10025	Trial2BackEngS	YS	17	57	357	1	120	17:28:20	3980765	5	3	3	3	3	3	3	3	3	7	6	3	0	0	0	8	5
100212	17:28:20	10025	Trial2BackEngS	NS	17	0	1000	1	120	17:28:20	3982911	5	3	3	3	3	3	3	3	3	7	6	3	0	0	0	8	5
100212	17:28:20	10025	Trial2BackEngS	NS	17	0	1000	1	120	17:28:20	3984431	5	3	3	3	3	3	3	3	3	7	6	3	0	0	0	8	5
100212	17:28:20	10025	Trial2BackEngS	NS	17	0	1000	1	120	17:28:20	3985950	5	3	3	3	3	3	3	3	3	7	6	3	0	0	0	8	5
100212	17:28:20	10025	Trial2BackEngS	YS	17	57	421	1	120	17:28:20	3986896	5	3	3	3	3	3	3	3	3	7	6	3	0	0	0	8	5
100212	17:28:20	10025	Trial2BackEngS	NS	17	0	1000	1	120	17:28:20	3988975	5	3	3	3	3	3	3	3	3	7	6	3	0	0	0	8	5
100212	17:28:20	10025	Trial2BackEngS	NS	17	0	1000	1	120	17:28:20	3990495	5	3	3	3	3	3	3	3	3	7	6	3	0	0	0	8	5
100212	17:28:20	10025	Trial2BackEngS	NS	17	0	1000	1	120	17:28:20	3992014	5	3	3	3	3	3	3	3	3	7	6	3	0	0	0	8	5
100212	17:28:20	10025	Trial2BackEngS	NS	17	0	1000	1	120	17:28:20	3993533	5	3	3	3	3	3	3	3	3	7	6	3	0	0	0	8	5
100212	17:28:20	10025	Trial2BackEngS	NS	17	0	1000	1	120	17:28:20	3995053	5	3	3	3	3	3	3	3	3	7	6	3	0	0	0	8	5
100212	17:28:20	10025	Trial2BackEngS	NS	17	0	1000	1	120	17:28:20	3996572	5	3	3	3	3	3	3	3	3	7	6	3	0	0	0	8	5
100212	17:28:20	10025	Trial2BackEngS	NS	17	0	1000	1	120	17:28:20	3998092	5	3	3	3	3	3	3	3	3	7	6	3	0	0	0	8	5
100212	17:28:20	10025	Trial2BackEngS	YS	17	57	487	1	120	17:28:20	3999104	5	3	3	3	3	3	3	3	3	7	6	3	0	0	0	8	5
100212	17:28:20	10025	Trial2BackEngS	NS	17	0	1000	1	120	17:28:20	4001117	5	3	3	3	3	3	3	3	3	7	6	3	0	0	0	8	5
100212	17:28:20	10025	Trial2BackEngS	NS	17	0	1000	1	120	17:28:20	4002636	5	3	3	3	3	3	3	3	3	7	6	3	0	0	0	8	5
100212	17:28:20	10025	Trial2BackEngS	NS	17	0	1000	1	120	17:28:20	4004156	5	3	3	3	3	3	3	3	3	7	6	3	0	0	0	8	5
100212	17:28:20	10025	Trial2BackEngS	NS	17	0	1000	1	120	17:28:20	4005675	5	3	3	3	3	3	3	3	3	7	6	3	0	0	0	8	5
100212	17:28:20	10025	Trial2BackEngS	YS	17	57	327	1	120	17:28:20	4006528	5	3	3	3	3	3	3	3	3	7	6	3	0	0	0	8	5
100212	17:28:20	10025	Trial2BackEngS	NS	17	0	1000	1	120	17:28:20	4008700	5	3	3	3	3	3	3	3	3	7	6	3	0	0	0	8	5
100212	17:28:20	10025	Trial2BackEngS	NS	17	0	1000	1	120	17:28:20	4010220	5	3	3	3	3	3	3	3	3	7	6	3	0	0	0	8	5
100212	17:28:20	10025	Trial2BackEngS	NS	17	0	1000	1	120	17:28:20	4011739	5	3	3	3	3	3	3	3	3	7	6	3	0	0	0	8	5
100212	17:28:20	10025	Trial2BackEngS	NS	17	0	1000	1	120	17:28:20	4013259	5	3	3	3	3	3	3	3	3	7	6	3	0	0	0	8	5
100212	17:28:20	10025	Trial2BackEngS	NS	17	0	1000	1	120	17:28:20	4014778	5	3	3	3	3	3	3	3	3	7	6	3	0	0	0	8	5
100212	17:28:20	10025	Trial2BackEngS	NS	17	0	1000	1	120	17:28:20	4016297	5	3	3	3	3	3	3	3	3	7	6	3	0	0	0	8	5
100212	17:28:20	10025	Trial2BackEngS	YS	17	57	456	1	120	17:28:20	4017284	5	3	3	3	3	3	3	3	3	7	6	3	0	0	0	8	5
100212	17:28:20	10025	Trial2BackEngS	NS	17	0	1000	1	120	17:28:20	4019323	5	3	3	3	3	3	3	3	3	7	6	3	0	0	0	8	5
100212	17:28:20	10025	Trial2BackEngS	NS	17	0	1000	1	120	17:28:20	4020842	5	3	3	3	3	3	3	3	3	7	6	3	0	0	0	8	5
100212	17:28:20	10025	Trial2BackEngS	NS	17	0	1000	1	120	17:28:20	4022362	5	3	3	3	3	3	3	3	3	7	6	3	0	0	0	8	5
100212	17:28:20	10025	Trial2BackEngS	NS	17	0	1000	1	120	17:28:20	4023881	5	3	3	3	3	3	3	3	3	7	6	3	0	0	0	8	5
100212	17:28:20	10025	Trial2BackEngS	NS	17	0	1000	1	120	17:28:20	4025400	5	3	3	3	3	3	3	3	3	7	6	3	0	0	0	8	5
100212	17:28:20	10025	Trial2BackEngS	NS	17	0	1000	1	120	17:28:20	4026920	5	3	3	3	3	3	3	3	3	7	6	3	0	0	0	8	5
100212	17:28:20	10025	Trial2BackEngS	NS	17	0	1000	1	120	17:28:20	4028439	5	3	3	3	3	3	3	3	3	7	6	3	0	0	0	8	5
100212	17:28:20	10025	Trial2BackEngS	YS	17	57	458	1	120	17:28:20	4029425	5	3	3	3	3	3	3	3	3	7	6	3	0	0	0	8	5
100212	17:28:20	10025	Trial2BackEngS	NS	17	0	1000	1	120	17:28:20	4031464	5	3	3	3	3	3	3	3	3	7	6	3	0	0	0	8	5
100212	17:28:20	10025	Trial2BackEngS	NS	17	0	1000	1	120	17:28:20	4032984	5	3	3	3	3	3	3	3	3	7	6	3	0	0	0	8	5
100212	17:28:20	10025	Trial2BackEngS	NS	17	0	1000	1	120	17:28:20	4034503	5	3	3	3	3	3	3	3	3	7	6	3	0	0	0	8	5
100212	17:28:20	10025	Trial2BackEngS	NS	17	0	1000	1	120	17:28:20	4036023	5	3	3	3	3	3	3	3	3	7	6	3	0	0	0	8	5
100212	17:28:20	10025	Trial2BackEngS	YS	17	0	1000	0	120	17:28:20	4037542	5	3	3	3	3	3	3	3	3	7	6	3	0	0	0	8	5
100212	17:28:20	10025	Trial2BackEngS	NS	17	0	1000	1	120	17:28:20	4039061	5	3	3	3	3	3	3	3	3	7	6	3	0	0	0	8	5
100212	17:28:20	10025	Trial2BackEngS	NS	17	0	1000	1	120	17:28:20	4040581	5	3	3	3	3	3	3	3	3	7	6	3	0	0	0	8	5
100212	17:28:20	10025	Trial2BackEngS	YS	17	57	364	1	120	17:28:20	4041474	5	3	3	3	3	3	3	3	3	7	6	3	0	0	0	8	5
100212	17:28:20	10025	Trial2BackEngS	NS	17	0	1000	1	120	17:28:20	4043606	5	3	3	3	3	3	3	3	3	7	6	3	0	0	0	8	5
100212	17:28:20	10025	Trial2BackEngS	NS	17	0	1000	1	120	17:28:20	4045125	5	3	3	3	3	3	3	3	3	7	6	3	0	0	0	8	5
100212	17:28:20	10025	Trial2BackEngS	NS	17	0	1000	1	120	17:28:20	4046645	5	3	3	3	3	3	3	3	3	7	6	3	0	0	0	8	5
100212	17:28:20	10025	Trial2BackEngS	NS	17	0	1000	1	120	17:28:20	4048164	5	3	3	3	3	3	3	3	3	7	6	3	0	0	0	8	5
100212	17:28:20	10025	Trial2BackEngS	NS	17	0	1000	1	120	17:28:20	4049684	5	3	3	3	3	3	3	3	3	7	6	3	0	0	0	8	5
100212	17:28:20	10025	Trial2BackEngS	NS	17	0	1000	1	120	17:28:20	4051203	5	3	3	3	3	3	3	3	3	7	6	3	0	0	0	8	5
100212	17:28:20	10025	Trial2BackEngS	YS	17	57	398	1	120	17:28:20	4052123	5	3	3	3	3	3	3	3	3	7	6	3	0	0	0	8	5
100212	17:28:20	10025	Trial2BackEngS	NS	17	0	1000	1	120	17:28:20	4054228	5	3	3	3	3	3	3	3	3	7	6	3	0	0	0	8	5
100212	17:28:20	10025	Trial2BackEngS	NS	17	0	1000	1	120	17:28:20	4055748	5	3	3	3	3	3	3	3	3	7	6	3	0	0	0	8	5
100212	17:28:20	10025	Trial2BackEngS	NS	17	0	1000	1	120	17:28:20	4057267	5	3	3	3	3	3	3	3	3	7	6	3	0	0	0	8	5
100212	17:28:20	10025	Trial2BackEngS	NS	17	0	1000	1	120	17:28:20	4058786	5	3	3	3	3	3	3	3	3	7	6	3	0	0	0	8	5
100212	17:28:20	10025	Trial2BackEngS	YS	17	57	574	1	120	17:28:20	4059893	5	3	3	3	3	3	3	3	3	7	6	3	0	0	0	8	5
100212	17:28:20	10025	Trial2BackEngS	NS	17	0	1000	1	120	17:28:20	4061812	5	3	3	3	3	3	3	3	3	7	6	3	0	0	0	8	5
100212	17:28:20	10025	Trial2BackEngS	NS	17	0	1000	1	120	17:28:20	4063331	5	3	3	3	3	3	3	3	3	7	6	3	0	0	0	8	5
100212	17:28:20	10025	Trial2BackEngS	NS	17	0	1000	1	120	17:28:20	4064851	5	3	3	3	3	3	3	3	3	7	6	3	0	0	0	8	5
100212	17:28:20	10025	Trial2BackEngS	NS	17	0	1000	1	120	17:28:20	4066370	5	3	3	3	3	3	3	3	3	7	6	3	0	0	0	8	5
100212	17:28:20	10025	Trial2BackEngS	YS	17	0	1000	0	120	17:28:20	4067889	5	3	3	3	3	3	3	3	3	7	6	3	0	0	0	8	5
100212	17:28:20	10025	Trial2BackEngS	NS	17	0	1000	1	120	17:28:20	4069409	5	3	3	3	3	3	3	3	3	7	6	3	0	0	0	8	5
100212	17:28:20	10025	Trial2BackEngS	NS	17	0	1000	1	120	17:28:20	4070928	5	3	3	3	3	3	3	3	3	7	6	3	0	0	0	8	5
100212	17:28:20	10025	Trial2BackEngS	YS	17	57	368	1	120	17:28:20	4071821	5	3	3	3	3	3	3	3	3	7	6	3	0	0	0	8	5
100212	17:28:20	10025	Trial2BackEngS	NS	17	0	1000	1	120	17:28:20	4073953	5	3	3	3	3	3	3	3	3	7	6	3	0	0	0	8	5
100212	17:28:20	10025	Trial2BackEngS	NS	17	0	1000	1	120	17:28:20	4075473	5	3	3	3	3	3	3	3	3	7	6	3	0	0	0	8	5
100212	17:28:20	10025	Trial2BackEngS	NS	17	0	1000	1	120	17:28:20	4076992	5	3	3	3	3	3	3	3	3	7	6	3	0	0	0	8	5
100212	17:28:20	10025	Trial2BackEngS	NS	17	0	1000	1	120	17:28:20	4078512	5	3	3	3	3	3	3	3	3	7	6	3	0	0	0	8	5
100212	17:28:20	10025	Trial2BackEngS	NS	17	0	1000	1	120	17:28:20	4080031	5	3	3	3	3	3	3	3	3	7	6	3	0	0	0	8	5
100212	17:28:20	10025	Trial2BackEngS	NS	17	0	1000	1	120	17:28:20	4081550	5	3	3	3	3	3	3	3	3	7	6	3	0	0	0	8	5
100212	17:28:20	10025	Trial2BackEngS	NS	17	0	1000	1	120	17:28:20	4083070	5	3	3	3	3	3	3	3	3	7	6	3	0	0	0	8	5
100212	17:28:20	10025	Trial2BackEngS	NS	17	0	1000	1	120	17:28:20	4084589	5	3	3	3	3	3	3	3	3	7	6	3	0	0	0	8	5
100212	17:28:20	10025	Trial2BackEngS	YS	17	57	370	1	120	17:28:20	4085482	5	3	3	3	3	3	3	3	3	7	6	3	0	0	0	8	5
100212	17:28:20	10025	Trial2BackEngS	NS	17	0	1000	1	120	17:28:20	4087614	5	3	3	3	3	3	3	3	3	7	6	3	0	0	0	8	5
100212	17:28:20	10025	Trial2BackEngS	NS	17	0	1000	1	120	17:28:20	4089134	5	3	3	3	3	3	3	3	3	7	6	3	0	0	0	8	5
100212	17:28:20	10025	Trial2BackEngS	NS	17	0	1000	1	120	17:28:20	4090653	5	3	3	3	3	3	3	3	3	7	6	3	0	0	0	8	5
100212	17:28:20	10025	Trial2BackEngS	NS	17	0	1000	1	120	17:28:20	4092173	5	3	3	3	3	3	3	3	3	7	6	3	0	0	0	8	5
100212	17:28:20	10025	Trial2BackEngS	NS	17	0	1000	1	120	17:28:20	4093692	5	3	3	3	3	3	3	3	3	7	6	3	0	0	0	8	5
100212	17:28:20	10025	Trial2BackEngS	NS	17	0	1000	1	120	17:28:20	4095211	5	3	3	3	3	3	3	3	3	7	6	3	0	0	0	8	5
100212	17:28:20	10025	Trial2BackEngS	NS	17	0	1000	1	120	17:28:20	4096731	5	3	3	3	3	3	3	3	3	7	6	3	0	0	0	8	5
100212	17:28:20	10025	Trial2BackEngS	YS	17	57	532	1	120	17:28:20	4097797	5	3	3	3	3	3	3	3	3	7	6	3	0	0	0	8	5
100212	17:28:20	10025	Trial2BackEngS	NS	17	0	1000	1	120	17:28:20	4099756	5	3	3	3	3	3	3	3	3	7	6	3	0	0	0	8	5
100212	17:28:20	10025	Trial2BackEngS	NS	17	0	1000	1	120	17:28:20	4101275	5	3	3	3	3	3	3	3	3	7	6	3	0	0	0	8	5
100212	17:28:20	10025	Trial2BackEngS	NS	17	0	1000	1	120	17:28:20	4102795	5	3	3	3	3	3	3	3	3	7	6	3	0	0	0	8	5
100212	17:28:20	10025	Trial2BackEngS	NS	17	0	1000	1	120	17:28:20	4104314	5	3	3	3	3	3	3	3	3	7	6	3	0	0	0	8	5
100212	17:28:20	10025	Trial2BackEngS	NS	17	0	1000	1	120	17:28:20	4105833	5	3	3	3	3	3	3	3	3	7	6	3	0	0	0	8	5
100212	17:28:20	10025	Trial2BackEngS	NS	17	0	1000	1	120	17:28:20	4107353	5	3	3	3	3	3	3	3	3	7	6	3	0	0	0	8	5
100212	17:28:20	10025	Trial2BackEngS	NS	17	0	1000	1	120	17:28:20	4108872	5	3	3	3	3	3	3	3	3	7	6	3	0	0	0	8	5
100212	17:28:20	10025	Trial2BackEngS	NS	17	0	1000	1	120	17:28:20	4110392	5	3	3	3	3	3	3	3	3	7	6	3	0	0	0	8	5
100212	17:28:20	10025	Trial2BackEngS	NS	17	0	1000	1	120	17:28:20	4111911	5	3	3	3	3	3	3	3	3	7	6	3	0	0	0	8	5
100212	17:28:20	10025	Trial2BackEngS	YS	17	57	568	1	120	17:28:20	4113004	5	3	3	3	3	3	3	3	3	7	6	3	0	0	0	8	5
100212	17:28:20	10025	Trial2BackEngS	NS	17	0	1000	1	120	17:28:20	4114936	5	3	3	3	3	3	3	3	3	7	6	3	0	0	0	8	5
100212	17:28:20	10025	Trial3BackEngS	NNS	18	0	1000	1	120	17:28:20	4442360	5	3	3	3	3	3	3	3	3	7	6	3	0	0	0	8	5
100212	17:28:20	10025	Trial3BackEngS	NNS	18	0	1000	1	120	17:28:20	4443880	5	3	3	3	3	3	3	3	3	7	6	3	0	0	0	8	5
100212	17:28:20	10025	Trial3BackEngS	NNS	18	0	1000	1	120	17:28:20	4445399	5	3	3	3	3	3	3	3	3	7	6	3	0	0	0	8	5
100212	17:28:20	10025	Trial3BackEngS	YYS	18	57	700	1	120	17:28:20	4446625	5	3	3	3	3	3	3	3	3	7	6	3	0	0	0	8	5
100212	17:28:20	10025	Trial3BackEngS	NNS	18	0	1000	1	120	17:28:20	4448425	5	3	3	3	3	3	3	3	3	7	6	3	0	0	0	8	5
100212	17:28:20	10025	Trial3BackEngS	NNS	18	0	1000	1	120	17:28:20	4449944	5	3	3	3	3	3	3	3	3	7	6	3	0	0	0	8	5
100212	17:28:20	10025	Trial3BackEngS	NNS	18	0	1000	1	120	17:28:20	4451463	5	3	3	3	3	3	3	3	3	7	6	3	0	0	0	8	5
100212	17:28:20	10025	Trial3BackEngS	NNS	18	0	1000	1	120	17:28:20	4452983	5	3	3	3	3	3	3	3	3	7	6	3	0	0	0	8	5
100212	17:28:20	10025	Trial3BackEngS	YYS	18	57	476	1	120	17:28:20	4453982	5	3	3	3	3	3	3	3	3	7	6	3	0	0	0	8	5
100212	17:28:20	10025	Trial3BackEngS	NNS	18	0	1000	1	120	17:28:20	4456008	5	3	3	3	3	3	3	3	3	7	6	3	0	0	0	8	5
100212	17:28:20	10025	Trial3BackEngS	NNS	18	0	1000	1	120	17:28:20	4457527	5	3	3	3	3	3	3	3	3	7	6	3	0	0	0	8	5
100212	17:28:20	10025	Trial3BackEngS	NNS	18	0	1000	1	120	17:28:20	4459047	5	3	3	3	3	3	3	3	3	7	6	3	0	0	0	8	5
100212	17:28:20	10025	Trial3BackEngS	NNS	18	0	1000	1	120	17:28:20	4460566	5	3	3	3	3	3	3	3	3	7	6	3	0	0	0	8	5
100212	17:28:20	10025	Trial3BackEngS	NNS	18	57	572	0	120	17:28:20	4461672	5	3	3	3	3	3	3	3	3	7	6	3	0	0	0	8	5
100212	17:28:20	10025	Trial3BackEngS	NNS	18	0	1000	1	120	17:28:20	4463592	5	3	3	3	3	3	3	3	3	7	6	3	0	0	0	8	5
100212	17:28:20	10025	Trial3BackEngS	NNS	18	0	1000	1	120	17:28:20	4465111	5	3	3	3	3	3	3	3	3	7	6	3	0	0	0	8	5
100212	17:28:20	10025	Trial3BackEngS	YYS	18	0	1000	0	120	17:28:20	4466630	5	3	3	3	3	3	3	3	3	7	6	3	0	0	0	8	5
100212	17:28:20	10025	Trial3BackEngS	NNS	18	0	1000	1	120	17:28:20	4468150	5	3	3	3	3	3	3	3	3	7	6	3	0	0	0	8	5
100212	17:28:20	10025	Trial3BackEngS	NNS	18	0	1000	1	120	17:28:20	4469669	5	3	3	3	3	3	3	3	3	7	6	3	0	0	0	8	5
100212	17:28:20	10025	Trial3BackEngS	NNS	18	57	653	0	120	17:28:20	4470855	5	3	3	3	3	3	3	3	3	7	6	3	0	0	0	8	5
100212	17:28:20	10025	Trial3BackEngS	NNS	18	0	1000	1	120	17:28:20	4472694	5	3	3	3	3	3	3	3	3	7	6	3	0	0	0	8	5
100212	17:28:20	10025	Trial3BackEngS	NNS	18	0	1000	1	120	17:28:20	4474214	5	3	3	3	3	3	3	3	3	7	6	3	0	0	0	8	5
100212	17:28:20	10025	Trial3BackEngS	YYS	18	0	1000	0	120	17:28:20	4475733	5	3	3	3	3	3	3	3	3	7	6	3	0	0	0	8	5
100212	17:28:20	10025	Trial3BackEngS	NNS	18	0	1000	1	120	17:28:20	4477252	5	3	3	3	3	3	3	3	3	7	6	3	0	0	0	8	5
100212	17:28:20	10025	Trial3BackEngS	NNS	18	0	1000	1	120	17:28:20	4478772	5	3	3	3	3	3	3	3	3	7	6	3	0	0	0	8	5
100212	17:28:20	10025	Trial3BackEngS	NNS	18	0	1000	1	120	17:28:20	4480291	5	3	3	3	3	3	3	3	3	7	6	3	0	0	0	8	5
100212	17:28:20	10025	Trial3BackEngS	YYS	18	57	607	1	120	17:28:20	4481424	5	3	3	3	3	3	3	3	3	7	6	3	0	0	0	8	5
100212	17:28:20	10025	Trial3BackEngS	NNS	18	0	1000	1	120	17:28:20	4483317	5	3	3	3	3	3	3	3	3	7	6	3	0	0	0	8	5
100212	17:28:20	10025	Trial3BackEngS	NNS	18	0	1000	1	120	17:28:20	4484836	5	3	3	3	3	3	3	3	3	7	6	3	0	0	0	8	5
100212	17:28:20	10025	Trial3BackEngS	NNS	18	0	1000	1	120	17:28:20	4486355	5	3	3	3	3	3	3	3	3	7	6	3	0	0	0	8	5
100212	17:28:20	10025	Trial3BackEngS	YYS	18	57	510	1	120	17:28:20	4487395	5	3	3	3	3	3	3	3	3	7	6	3	0	0	0	8	5
100212	17:28:20	10025	Trial3BackEngS	NNS	18	0	1000	1	120	17:28:20	4489381	5	3	3	3	3	3	3	3	3	7	6	3	0	0	0	8	5
100212	17:28:20	10025	Trial3BackEngS	NNS	18	0	1000	1	120	17:28:20	4490900	5	3	3	3	3	3	3	3	3	7	6	3	0	0	0	8	5
100212	17:28:20	10025	Trial3BackEngS	NNS	18	0	1000	1	120	17:28:20	4492420	5	3	3	3	3	3	3	3	3	7	6	3	0	0	0	8	5
100212	17:28:20	10025	Trial3BackEngS	NNS	18	0	1000	1	120	17:28:20	4493939	5	3	3	3	3	3	3	3	3	7	6	3	0	0	0	8	5
100212	17:28:20	10025	Trial3BackEngS	NNS	18	0	1000	1	120	17:28:20	4495458	5	3	3	3	3	3	3	3	3	7	6	3	0	0	0	8	5
100212	17:28:20	10025	Trial3BackEngS	NNS	18	57	495	0	120	17:28:20	4496485	5	3	3	3	3	3	3	3	3	7	6	3	0	0	0	8	5
100212	17:28:20	10025	Trial3BackEngS	NNS	18	0	1000	1	120	17:28:20	4498484	5	3	3	3	3	3	3	3	3	7	6	3	0	0	0	8	5
100212	17:28:20	10025	Trial3BackEngS	NNS	18	0	1000	1	120	17:28:20	4500003	5	3	3	3	3	3	3	3	3	7	6	3	0	0	0	8	5
100212	17:28:20	10025	Trial3BackEngS	NNS	18	0	1000	1	120	17:28:20	4501522	5	3	3	3	3	3	3	3	3	7	6	3	0	0	0	8	5
100212	17:28:20	10025	Trial3BackEngS	NNS	18	0	1000	1	120	17:28:20	4503042	5	3	3	3	3	3	3	3	3	7	6	3	0	0	0	8	5
100212	17:28:20	10025	Trial3BackEngS	YYS	18	57	591	1	120	17:28:20	4504161	5	3	3	3	3	3	3	3	3	7	6	3	0	0	0	8	5
100212	17:28:20	10025	Trial3BackEngS	NNS	18	0	1000	1	120	17:28:20	4506067	5	3	3	3	3	3	3	3	3	7	6	3	0	0	0	8	5
100212	17:28:20	10025	Trial3BackEngS	NNS	18	0	1000	1	120	17:28:20	4507587	5	3	3	3	3	3	3	3	3	7	6	3	0	0	0	8	5
100212	17:28:20	10025	Trial3BackEngS	NNS	18	0	1000	1	120	17:28:20	4509106	5	3	3	3	3	3	3	3	3	7	6	3	0	0	0	8	5
100212	17:28:20	10025	Trial3BackEngS	NNS	18	0	1000	1	120	17:28:20	4510625	5	3	3	3	3	3	3	3	3	7	6	3	0	0	0	8	5
100212	17:28:20	10025	Trial3BackEngS	YYS	18	57	591	1	120	17:28:20	4511745	5	3	3	3	3	3	3	3	3	7	6	3	0	0	0	8	5
100212	17:28:20	10025	Trial3BackEngS	NNS	18	0	1000	1	120	17:28:20	4513651	5	3	3	3	3	3	3	3	3	7	6	3	0	0	0	8	5
100212	17:28:20	10025	Trial3BackEngS	NNS	18	0	1000	1	120	17:28:20	4515170	5	3	3	3	3	3	3	3	3	7	6	3	0	0	0	8	5
100212	17:28:20	10025	Trial3BackEngS	NNS	18	0	1000	1	120	17:28:20	4516689	5	3	3	3	3	3	3	3	3	7	6	3	0	0	0	8	5
100212	17:28:20	10025	Trial3BackEngS	NNS	18	0	1000	1	120	17:28:20	4518209	5	3	3	3	3	3	3	3	3	7	6	3	0	0	0	8	5
100212	17:28:20	10025	Trial3BackEngS	NNS	18	0	1000	1	120	17:28:20	4519728	5	3	3	3	3	3	3	3	3	7	6	3	0	0	0	8	5
100212	17:28:20	10025	Trial3BackEngS	YYS	18	57	432	1	120	17:28:20	4520688	5	3	3	3	3	3	3	3	3	7	6	3	0	0	0	8	5
100212	17:28:20	10025	Trial3BackEngS	NNS	18	0	1000	1	120	17:28:20	4522754	5	3	3	3	3	3	3	3	3	7	6	3	0	0	0	8	5
100212	17:28:20	10025	Trial3BackEngS	NNS	18	0	1000	1	120	17:28:20	4524273	5	3	3	3	3	3	3	3	3	7	6	3	0	0	0	8	5
100212	17:28:20	10025	Trial3BackEngS	NNS	18	0	1000	1	120	17:28:20	4525792	5	3	3	3	3	3	3	3	3	7	6	3	0	0	0	8	5
100212	17:28:20	10025	Trial3BackEngS	NNS	18	0	1000	1	120	17:28:20	4527312	5	3	3	3	3	3	3	3	3	7	6	3	0	0	0	8	5
100212	17:28:20	10025	Trial3BackEngS	NNS	18	0	1000	1	120	17:28:20	4528831	5	3	3	3	3	3	3	3	3	7	6	3	0	0	0	8	5
100212	17:28:20	10025	Trial3BackEngS	NNS	18	0	1000	1	120	17:28:20	4530350	5	3	3	3	3	3	3	3	3	7	6	3	0	0	0	8	5
100212	17:28:20	10025	Trial3BackEngS	YYS	18	0	1000	0	120	17:28:20	4531870	5	3	3	3	3	3	3	3	3	7	6	3	0	0	0	8	5
100212	17:28:20	10025	Trial3BackEngS	NNS	18	57	642	0	120	17:28:20	4533043	5	3	3	3	3	3	3	3	3	7	6	3	0	0	0	8	5
100212	17:28:20	10025	Trial3BackEngS	NNS	18	0	1000	1	120	17:28:20	4534895	5	3	3	3	3	3	3	3	3	7	6	3	0	0	0	8	5
100212	17:28:20	10025	Trial3BackEngS	NNS	18	0	1000	1	120	17:28:20	4536415	5	3	3	3	3	3	3	3	3	7	6	3	0	0	0	8	5
100212	17:28:20	10025	Trial3BackEngS	YYS	18	0	1000	0	120	17:28:20	4537934	5	3	3	3	3	3	3	3	3	7	6	3	0	0	0	8	5
100212	17:28:20	10025	Trial3BackEngS	NNS	18	0	1000	1	120	17:28:20	4539454	5	3	3	3	3	3	3	3	3	7	6	3	0	0	0	8	5
100212	17:28:20	10025	Trial3BackEngS	NNS	18	0	1000	1	120	17:28:20	4540973	5	3	3	3	3	3	3	3	3	7	6	3	0	0	0	8	5
100212	17:28:20	10025	Trial3BackEngS	NNS	18	0	1000	1	120	17:28:20	4542492	5	3	3	3	3	3	3	3	3	7	6	3	0	0	0	8	5
100212	17:28:20	10025	Trial3BackEngS	NNS	18	0	1000	1	120	17:28:20	4544012	5	3	3	3	3	3	3	3	3	7	6	3	0	0	0	8	5
100212	17:28:20	10025	Trial3BackEngS	NNS	18	0	1000	1	120	17:28:20	4545531	5	3	3	3	3	3	3	3	3	7	6	3	0	0	0	8	5
100212	17:28:20	10025	Trial3BackEngS	NNS	18	57	437	0	120	17:28:20	4546490	5	3	3	3	3	3	3	3	3	7	6	3	0	0	0	8	5
100212	17:28:20	10025	Trial3BackEngS	NNS	18	0	1000	1	120	17:28:20	4548556	5	3	3	3	3	3	3	3	3	7	6	3	0	0	0	8	5
100212	17:28:20	10025	Trial3BackEngS	NNS	18	0	1000	1	120	17:28:20	4550075	5	3	3	3	3	3	3	3	3	7	6	3	0	0	0	8	5
100212	17:28:20	10025	Trial3BackEngS	NNS	18	0	1000	1	120	17:28:20	4551595	5	3	3	3	3	3	3	3	3	7	6	3	0	0	0	8	5
100212	17:28:20	10025	Trial3BackEngS	YYS	18	0	1000	0	120	17:28:20	4553114	5	3	3	3	3	3	3	3	3	7	6	3	0	0	0	8	5
100212	17:28:20	10025	Trial3BackEngS	NNS	18	0	1000	1	120	17:28:20	4554634	5	3	3	3	3	3	3	3	3	7	6	3	0	0	0	8	5
100212	17:28:20	10025	Trial3BackEngS	NNS	18	0	1000	1	120	17:28:20	4556153	5	3	3	3	3	3	3	3	3	7	6	3	0	0	0	8	5
100212	17:28:20	10025	Trial3BackEngS	NNS	18	57	886	0	120	17:28:20	4557566	5	3	3	3	3	3	3	3	3	7	6	3	0	0	0	8	5
100212	17:28:20	10025	Trial3BackEngS	YYS	18	0	1000	0	120	17:28:20	4559179	5	3	3	3	3	3	3	3	3	7	6	3	0	0	0	8	5
100212	17:28:20	10025	Trial3BackEngS	NNS	18	0	1000	1	120	17:28:20	4560698	5	3	3	3	3	3	3	3	3	7	6	3	0	0	0	8	5
100212	17:28:20	10025	Trial3BackEngS	NNS	18	0	1000	1	120	17:28:20	4562217	5	3	3	3	3	3	3	3	3	7	6	3	0	0	0	8	5
100212	17:28:20	10025	Trial3BackEngS	NNS	18	0	1000	1	120	17:28:20	4563737	5	3	3	3	3	3	3	3	3	7	6	3	0	0	0	8	5
100212	17:28:20	10025	Trial3BackEngS	NNS	18	0	1000	1	120	17:28:20	4565256	5	3	3	3	3	3	3	3	3	7	6	3	0	0	0	8	5
100212	17:28:20	10025	Trial3BackEngS	NNS	18	0	1000	1	120	17:28:20	4566775	5	3	3	3	3	3	3	3	3	7	6	3	0	0	0	8	5
100212	17:28:20	10025	Trial3BackEngS	YYS	18	0	1000	0	120	17:28:20	4568295	5	3	3	3	3	3	3	3	3	7	6	3	0	0	0	8	5
