date	time	subject	blockcode	trialcode	values.TaskNumber	response	latency	correct	values.Score	script.starttime	script.elapsedtime	values.ScoreS7	values.Word1	values.Word2	values.Word3	values.Word4	values.Word5	values.Word6	values.Word7	values.Word8	values.DigitSpanFwrd	values.DigitSpanBack	values.ScoreAbs	values.Contour	values.Numbers	values.Hands	values.corsiblockspanFwrd	values.corsiblockspanRev	values.problemnumber	values.subjectattempts	values.targetmoves	values.subjectmoves	expressions.excessmoves	values.movestring	expressions.targetachieved	values.problemscore	values.totalscoreTOL	expressions.firstmovetime	expressions.executiontime	expressions.solutiontime	values.t_choicestart	values.t_choiceend
122412	14:36:11	1	Language	Language	0	English	2623	0	0	14:36:11	2691	0	0	0	0	0	0	0	0	0	0	0	0	0	0	0	0	0	0	0	0	0	0		1	0	0	0	0	0	0	0
122412	14:36:11	1	Session	Session	0	3mo	2496	0	0	14:36:11	5260	0	0	0	0	0	0	0	0	0	0	0	0	0	0	0	0	0	0	0	0	0	0		1	0	0	0	0	0	0	0
122412	14:36:11	1	HandEng	HandEng	0	Right	1108	0	0	14:36:11	6444	0	0	0	0	0	0	0	0	0	0	0	0	0	0	0	0	0	0	0	0	0	0		1	0	0	0	0	0	0	0
122412	14:36:11	1	practiceTOLENG	choice	0	R	7625	0	0	14:36:11	33556	0	0	0	0	0	0	0	0	0	0	0	0	0	0	0	0	0	0	1	2	0	-2	R	0	0	0	7673	0	0	25883	33556
122412	14:36:11	1	practiceTOLENG	choice	0	R	761	0	0	14:36:11	35984	0	0	0	0	0	0	0	0	0	0	0	0	0	0	0	0	0	0	1	2	1	-1	R2R	0	0	0	7673	0	0	35213	35984
122412	14:36:11	1	practiceTOLENG	choice	0	R	938	0	0	14:36:11	37979	0	0	0	0	0	0	0	0	0	0	0	0	0	0	0	0	0	0	1	2	2	0	R2R1R	0	0	0	7673	0	0	37029	37979
122412	14:36:11	1	practiceTOLENG	choice	0	R	6424	0	0	14:36:11	45268	0	0	0	0	0	0	0	0	0	0	0	0	0	0	0	0	0	0	1	2	3	1	R2R1R2R	0	0	0	7673	0	0	38823	45268
122412	14:36:11	1	practiceTOLENG	choice	0	B	1326	0	0	14:36:11	48045	0	0	0	0	0	0	0	0	0	0	0	0	0	0	0	0	0	0	1	2	4	2	R2R1R2R3B	0	0	0	7673	0	0	46690	48045
122412	14:36:11	1	practiceTOLENG	feedbackENG	0	0	2000	0	0	14:36:11	51222	0	0	0	0	0	0	0	0	0	0	0	0	0	0	0	0	0	0	1	2	5	3	R2R1R2R3B1	1	0	0	7673	15656	23329	46690	48045
122412	14:36:11	1	practiceTOLENG	choice	0	R	9984	0	0	14:36:11	62241	0	0	0	0	0	0	0	0	0	0	0	0	0	0	0	0	0	0	2	2	0	-2	R	0	0	0	10012	0	0	52228	62240
122412	14:36:11	1	practiceTOLENG	choice	0	R	4164	0	0	14:36:11	69200	0	0	0	0	0	0	0	0	0	0	0	0	0	0	0	0	0	0	2	2	1	-1	R1R	0	0	0	10012	0	0	65010	69200
122412	14:36:11	1	practiceTOLENG	choice	0	B	5595	0	0	14:36:11	76487	0	0	0	0	0	0	0	0	0	0	0	0	0	0	0	0	0	0	2	2	2	0	R1R3B	0	0	0	10012	0	0	70862	76486
122412	14:36:11	1	practiceTOLENG	feedbackENG	0	0	2000	0	0	14:36:11	80314	0	0	0	0	0	0	0	0	0	0	0	0	0	0	0	0	0	0	2	2	3	1	R1R3B1	1	0	0	10012	16063	26075	70862	76486
122412	14:36:11	1	practiceTOLENG	choice	0	R	6269	0	0	14:36:11	87621	0	0	0	0	0	0	0	0	0	0	0	0	0	0	0	0	0	0	3	2	0	-2	R	0	0	0	6300	0	0	81321	87621
122412	14:36:11	1	practiceTOLENG	choice	0	B	2213	0	0	14:36:11	91323	0	0	0	0	0	0	0	0	0	0	0	0	0	0	0	0	0	0	3	2	1	-1	R3B	0	0	0	6300	0	0	89083	91323
122412	14:36:11	1	practiceTOLENG	feedbackENG	0	0	2000	0	0	14:36:11	95042	0	0	0	0	0	0	0	0	0	0	0	0	0	0	0	0	0	0	3	2	2	0	R3B1	1	1	1	6300	5412	11712	89083	91323
122412	14:36:11	1	testTOLENG	choice	0	R	18407	0	0	14:36:11	129122	0	0	0	0	0	0	0	0	0	0	0	0	0	0	0	0	0	1	1	2	0	-2	R	0	0	0	18453	0	0	110668	129121
122412	14:36:11	1	testTOLENG	choice	0	G	3976	0	0	14:36:11	135411	0	0	0	0	0	0	0	0	0	0	0	0	0	0	0	0	0	1	1	2	1	-1	R3G	0	0	0	18453	0	0	131414	135411
122412	14:36:11	1	testTOLENG	feedbackENG	0	0	2000	0	0	14:36:11	139101	0	0	0	0	0	0	0	0	0	0	0	0	0	0	0	0	0	1	1	2	2	0	R3G2	1	3	3	18453	7971	26424	131414	135411
122412	14:36:11	1	testTOLENG	choice	0	R	4260	0	0	14:36:11	144404	0	0	0	0	0	0	0	0	0	0	0	0	0	0	0	0	0	3	1	3	0	-3	R	0	0	3	4298	0	0	140106	144404
122412	14:36:11	1	testTOLENG	choice	0	B	1159	0	0	14:36:11	147209	0	0	0	0	0	0	0	0	0	0	0	0	0	0	0	0	0	3	1	3	1	-2	R3B	0	0	3	4298	0	0	146022	147209
122412	14:36:11	1	testTOLENG	choice	0	R	2859	0	0	14:36:11	151495	0	0	0	0	0	0	0	0	0	0	0	0	0	0	0	0	0	3	1	3	2	-1	R3B1R	0	0	3	4298	0	0	148620	151495
122412	14:36:11	1	testTOLENG	feedbackENG	0	0	2000	0	0	14:36:11	154930	0	0	0	0	0	0	0	0	0	0	0	0	0	0	0	0	0	3	1	3	3	0	R3B1R2	1	3	6	4298	8517	12815	148620	151495
122412	14:36:11	1	testTOLENG	choice	0	R	9895	0	0	14:36:11	165855	0	0	0	0	0	0	0	0	0	0	0	0	0	0	0	0	0	5	1	4	0	-4	R	0	0	6	9920	0	0	155935	165855
122412	14:36:11	1	testTOLENG	choice	0	G	1248	0	0	14:36:11	168052	0	0	0	0	0	0	0	0	0	0	0	0	0	0	0	0	0	5	1	4	1	-3	R2G	0	0	6	9920	0	0	166775	168052
122412	14:36:11	1	testTOLENG	choice	0	R	1262	0	0	14:36:11	171102	0	0	0	0	0	0	0	0	0	0	0	0	0	0	0	0	0	5	1	4	2	-2	R2G3R	0	0	6	9920	0	0	169821	171102
122412	14:36:11	1	testTOLENG	choice	0	G	1332	0	0	14:36:11	173625	0	0	0	0	0	0	0	0	0	0	0	0	0	0	0	0	0	5	1	4	3	-1	R2G3R1G	0	0	6	9920	0	0	172264	173625
122412	14:36:11	1	testTOLENG	feedbackENG	0	0	2000	0	0	14:36:11	176729	0	0	0	0	0	0	0	0	0	0	0	0	0	0	0	0	0	5	1	4	4	0	R2G3R1G1	1	3	9	9920	8864	18784	172264	173625
122412	14:36:11	1	testTOLENG	choice	0	R	4669	0	0	14:36:11	182434	0	0	0	0	0	0	0	0	0	0	0	0	0	0	0	0	0	9	1	5	0	-5	R	0	0	9	4699	0	0	177735	182434
122412	14:36:11	1	testTOLENG	choice	0	G	1349	0	0	14:36:11	185153	0	0	0	0	0	0	0	0	0	0	0	0	0	0	0	0	0	9	1	5	1	-4	R2G	0	0	9	4699	0	0	183793	185153
122412	14:36:11	1	testTOLENG	choice	0	R	1193	0	0	14:36:11	187749	0	0	0	0	0	0	0	0	0	0	0	0	0	0	0	0	0	9	1	5	2	-3	R2G3R	0	0	9	4699	0	0	186542	187749
122412	14:36:11	1	testTOLENG	choice	0	G	1180	0	0	14:36:11	189989	0	0	0	0	0	0	0	0	0	0	0	0	0	0	0	0	0	9	1	5	3	-2	R2G3R1G	0	0	9	4699	0	0	188788	189989
122412	14:36:11	1	testTOLENG	choice	0	B	1118	0	0	14:36:11	192346	0	0	0	0	0	0	0	0	0	0	0	0	0	0	0	0	0	9	1	5	4	-1	R2G3R1G1B	0	0	9	4699	0	0	191203	192346
122412	14:36:11	1	testTOLENG	feedbackENG	0	0	2000	0	0	14:36:11	195420	0	0	0	0	0	0	0	0	0	0	0	0	0	0	0	0	0	9	1	5	5	0	R2G3R1G1B1	1	3	12	4699	10974	15673	191203	192346
