date	time	subject	blockcode	trialcode	values.TaskNumber	response	latency	correct	values.Score	script.starttime	script.elapsedtime	values.ScoreS7	values.Word1	values.Word2	values.Word3	values.Word4	values.Word5	values.Word6	values.Word7	values.Word8	values.DigitSpanFwrd	values.DigitSpanBack	values.ScoreAbs	values.Contour	values.Numbers	values.Hands	values.corsiblockspanFwrd	values.corsiblockspanRev
092812	14:46:42	10013	Language	Language	0	English	1307	0	0	14:46:42	1721	0	0	0	0	0	0	0	0	0	0	0	0	0	0	0	0	0
092812	14:46:42	10013	Session	Session	0	3mo	908	0	0	14:46:42	2717	0	0	0	0	0	0	0	0	0	0	0	0	0	0	0	0	0
092812	14:46:42	10013	HandEng	HandEng	0	Right	790117	0	0	14:46:42	792912	0	0	0	0	0	0	0	0	0	0	0	0	0	0	0	0	0
092812	14:46:42	10013	CubeEng	CubeEng	1	1Cube	24255	0	0	14:46:42	959139	0	0	0	0	0	0	0	0	0	0	0	0	0	0	0	0	0
092812	14:46:42	10013	pm.simpleEngRight	blank.simpleEng	2	0	2387	1	0	14:46:42	985635	0	0	0	0	0	0	0	0	0	0	0	0	0	0	0	0	0
092812	14:46:42	10013	pm.simpleEngRight	pm.simpleEng	2	57	941	0	0	14:46:42	986608	0	0	0	0	0	0	0	0	0	0	0	0	0	0	0	0	0
092812	14:46:42	10013	pm.simpleEngRight	blank.simpleEng	2	0	1487	1	0	14:46:42	988127	0	0	0	0	0	0	0	0	0	0	0	0	0	0	0	0	0
092812	14:46:42	10013	pm.simpleEngRight	pm.simpleEng	2	57	400	0	0	14:46:42	988567	0	0	0	0	0	0	0	0	0	0	0	0	0	0	0	0	0
092812	14:46:42	10013	pm.simpleEngRight	blank.simpleEng	2	0	1787	1	0	14:46:42	990380	0	0	0	0	0	0	0	0	0	0	0	0	0	0	0	0	0
092812	14:46:42	10013	pm.simpleEngRight	pm.simpleEng	2	57	323	0	0	14:46:42	990739	0	0	0	0	0	0	0	0	0	0	0	0	0	0	0	0	0
092812	14:46:42	10013	pm.simpleEngRight	blank.simpleEng	2	0	2487	1	0	14:46:42	993259	0	0	0	0	0	0	0	0	0	0	0	0	0	0	0	0	0
092812	14:46:42	10013	pm.simpleEngRight	pm.simpleEng	2	57	325	0	0	14:46:42	993618	0	0	0	0	0	0	0	0	0	0	0	0	0	0	0	0	0
092812	14:46:42	10013	pm.simpleEngRight	blank.simpleEng	2	0	1887	1	0	14:46:42	995525	0	0	0	0	0	0	0	0	0	0	0	0	0	0	0	0	0
092812	14:46:42	10013	pm.simpleEngRight	pm.simpleEng	2	57	267	0	0	14:46:42	995831	0	0	0	0	0	0	0	0	0	0	0	0	0	0	0	0	0
092812	14:46:42	10013	pm.simpleEngRight	blank.simpleEng	2	0	2187	1	0	14:46:42	998043	0	0	0	0	0	0	0	0	0	0	0	0	0	0	0	0	0
092812	14:46:42	10013	pm.simpleEngRight	pm.simpleEng	2	57	293	0	0	14:46:42	998377	0	0	0	0	0	0	0	0	0	0	0	0	0	0	0	0	0
092812	14:46:42	10013	pm.simpleEngRight	blank.simpleEng	2	0	1587	1	0	14:46:42	999989	0	0	0	0	0	0	0	0	0	0	0	0	0	0	0	0	0
092812	14:46:42	10013	pm.simpleEngRight	pm.simpleEng	2	57	298	0	0	14:46:42	1000322	0	0	0	0	0	0	0	0	0	0	0	0	0	0	0	0	0
092812	14:46:42	10013	pm.simpleEngRight	blank.simpleEng	2	0	2087	1	0	14:46:42	1002428	0	0	0	0	0	0	0	0	0	0	0	0	0	0	0	0	0
092812	14:46:42	10013	pm.simpleEngRight	pm.simpleEng	2	57	275	0	0	14:46:42	1002735	0	0	0	0	0	0	0	0	0	0	0	0	0	0	0	0	0
092812	14:46:42	10013	pm.simpleEngRight	blank.simpleEng	2	0	1987	1	0	14:46:42	1004747	0	0	0	0	0	0	0	0	0	0	0	0	0	0	0	0	0
092812	14:46:42	10013	pm.simpleEngRight	pm.simpleEng	2	57	260	0	0	14:46:42	1005041	0	0	0	0	0	0	0	0	0	0	0	0	0	0	0	0	0
092812	14:46:42	10013	pm.simpleEngRight	blank.simpleEng	2	0	2287	1	0	14:46:42	1007346	0	0	0	0	0	0	0	0	0	0	0	0	0	0	0	0	0
092812	14:46:42	10013	pm.simpleEngRight	pm.simpleEng	2	57	268	0	0	14:46:42	1007653	0	0	0	0	0	0	0	0	0	0	0	0	0	0	0	0	0
092812	14:46:42	10013	pm.simpleEngRight	blank.simpleEng	2	0	1687	1	0	14:46:42	1009359	0	0	0	0	0	0	0	0	0	0	0	0	0	0	0	0	0
092812	14:46:42	10013	pm.simpleEngRight	pm.simpleEng	2	57	273	0	0	14:46:42	1009666	0	0	0	0	0	0	0	0	0	0	0	0	0	0	0	0	0
092812	14:46:42	10013	pm.simpleEngRight	blank.simpleEng	2	0	2187	1	0	14:46:42	1011878	0	0	0	0	0	0	0	0	0	0	0	0	0	0	0	0	0
092812	14:46:42	10013	pm.simpleEngRight	pm.simpleEng	2	57	281	0	0	14:46:42	1012198	0	0	0	0	0	0	0	0	0	0	0	0	0	0	0	0	0
092812	14:46:42	10013	pm.simpleEngRight	blank.simpleEng	2	0	2487	1	0	14:46:42	1014717	0	0	0	0	0	0	0	0	0	0	0	0	0	0	0	0	0
092812	14:46:42	10013	pm.simpleEngRight	pm.simpleEng	2	57	354	0	0	14:46:42	1015103	0	0	0	0	0	0	0	0	0	0	0	0	0	0	0	0	0
092812	14:46:42	10013	pm.simpleEngRight	blank.simpleEng	2	0	1587	1	0	14:46:42	1016716	0	0	0	0	0	0	0	0	0	0	0	0	0	0	0	0	0
092812	14:46:42	10013	pm.simpleEngRight	pm.simpleEng	2	57	387	0	0	14:46:42	1017143	0	0	0	0	0	0	0	0	0	0	0	0	0	0	0	0	0
092812	14:46:42	10013	pm.simpleEngRight	blank.simpleEng	2	0	1487	1	0	14:46:42	1018649	0	0	0	0	0	0	0	0	0	0	0	0	0	0	0	0	0
092812	14:46:42	10013	pm.simpleEngRight	pm.simpleEng	2	57	246	0	0	14:46:42	1018928	0	0	0	0	0	0	0	0	0	0	0	0	0	0	0	0	0
092812	14:46:42	10013	pm.simpleEngRight	blank.simpleEng	2	0	2387	1	0	14:46:42	1021341	0	0	0	0	0	0	0	0	0	0	0	0	0	0	0	0	0
092812	14:46:42	10013	pm.simpleEngRight	pm.simpleEng	2	57	274	0	0	14:46:42	1021647	0	0	0	0	0	0	0	0	0	0	0	0	0	0	0	0	0
092812	14:46:42	10013	pm.simpleEngRight	blank.simpleEng	2	0	1887	1	0	14:46:42	1023553	0	0	0	0	0	0	0	0	0	0	0	0	0	0	0	0	0
092812	14:46:42	10013	pm.simpleEngRight	pm.simpleEng	2	57	318	0	0	14:46:42	1023913	0	0	0	0	0	0	0	0	0	0	0	0	0	0	0	0	0
092812	14:46:42	10013	pm.simpleEngRight	blank.simpleEng	2	0	1687	1	0	14:46:42	1025619	0	0	0	0	0	0	0	0	0	0	0	0	0	0	0	0	0
092812	14:46:42	10013	pm.simpleEngRight	pm.simpleEng	2	57	252	0	0	14:46:42	1025913	0	0	0	0	0	0	0	0	0	0	0	0	0	0	0	0	0
092812	14:46:42	10013	pm.simpleEngRight	blank.simpleEng	2	0	1787	1	0	14:46:42	1027725	0	0	0	0	0	0	0	0	0	0	0	0	0	0	0	0	0
092812	14:46:42	10013	pm.simpleEngRight	pm.simpleEng	2	57	274	0	0	14:46:42	1028032	0	0	0	0	0	0	0	0	0	0	0	0	0	0	0	0	0
092812	14:46:42	10013	pm.simpleEngRight	blank.simpleEng	2	0	2087	1	0	14:46:42	1030151	0	0	0	0	0	0	0	0	0	0	0	0	0	0	0	0	0
092812	14:46:42	10013	pm.simpleEngRight	pm.simpleEng	2	57	249	0	0	14:46:42	1030431	0	0	0	0	0	0	0	0	0	0	0	0	0	0	0	0	0
092812	14:46:42	10013	pm.simpleEngRight	blank.simpleEng	2	0	1987	1	0	14:46:42	1032443	0	0	0	0	0	0	0	0	0	0	0	0	0	0	0	0	0
092812	14:46:42	10013	pm.simpleEngRight	pm.simpleEng	2	57	308	0	0	14:46:42	1032790	0	0	0	0	0	0	0	0	0	0	0	0	0	0	0	0	0
092812	14:46:42	10013	pm.simpleEngRight	blank.simpleEng	2	0	2287	1	0	14:46:42	1035109	0	0	0	0	0	0	0	0	0	0	0	0	0	0	0	0	0
092812	14:46:42	10013	pm.simpleEngRight	pm.simpleEng	2	57	266	0	0	14:46:42	1035415	0	0	0	0	0	0	0	0	0	0	0	0	0	0	0	0	0
092812	14:46:42	10013	pm.simpleEngRight	blank.simpleEng	2	0	1587	1	0	14:46:42	1037028	0	0	0	0	0	0	0	0	0	0	0	0	0	0	0	0	0
092812	14:46:42	10013	pm.simpleEngRight	pm.simpleEng	2	57	299	0	0	14:46:42	1037361	0	0	0	0	0	0	0	0	0	0	0	0	0	0	0	0	0
092812	14:46:42	10013	pm.simpleEngRight	blank.simpleEng	2	0	2487	1	0	14:46:42	1039880	0	0	0	0	0	0	0	0	0	0	0	0	0	0	0	0	0
092812	14:46:42	10013	pm.simpleEngRight	pm.simpleEng	2	57	263	0	0	14:46:42	1040174	0	0	0	0	0	0	0	0	0	0	0	0	0	0	0	0	0
092812	14:46:42	10013	pm.simpleEngRight	blank.simpleEng	2	0	1687	1	0	14:46:42	1041880	0	0	0	0	0	0	0	0	0	0	0	0	0	0	0	0	0
092812	14:46:42	10013	pm.simpleEngRight	pm.simpleEng	2	57	279	0	0	14:46:42	1042199	0	0	0	0	0	0	0	0	0	0	0	0	0	0	0	0	0
092812	14:46:42	10013	pm.simpleEngRight	blank.simpleEng	2	0	1787	1	0	14:46:42	1044012	0	0	0	0	0	0	0	0	0	0	0	0	0	0	0	0	0
092812	14:46:42	10013	pm.simpleEngRight	pm.simpleEng	2	57	259	0	0	14:46:42	1044305	0	0	0	0	0	0	0	0	0	0	0	0	0	0	0	0	0
092812	14:46:42	10013	pm.simpleEngRight	blank.simpleEng	2	0	1887	1	0	14:46:42	1046211	0	0	0	0	0	0	0	0	0	0	0	0	0	0	0	0	0
092812	14:46:42	10013	pm.simpleEngRight	pm.simpleEng	2	57	252	0	0	14:46:42	1046504	0	0	0	0	0	0	0	0	0	0	0	0	0	0	0	0	0
092812	14:46:42	10013	pm.simpleEngRight	blank.simpleEng	2	0	1487	1	0	14:46:42	1048010	0	0	0	0	0	0	0	0	0	0	0	0	0	0	0	0	0
092812	14:46:42	10013	pm.simpleEngRight	pm.simpleEng	2	57	261	0	0	14:46:42	1048304	0	0	0	0	0	0	0	0	0	0	0	0	0	0	0	0	0
092812	14:46:42	10013	pm.simpleEngRight	blank.simpleEng	2	0	2187	1	0	14:46:42	1050516	0	0	0	0	0	0	0	0	0	0	0	0	0	0	0	0	0
092812	14:46:42	10013	pm.simpleEngRight	pm.simpleEng	2	57	251	0	0	14:46:42	1050809	0	0	0	0	0	0	0	0	0	0	0	0	0	0	0	0	0
092812	14:46:42	10013	pm.simpleEngRight	blank.simpleEng	2	0	2387	1	0	14:46:42	1053222	0	0	0	0	0	0	0	0	0	0	0	0	0	0	0	0	0
092812	14:46:42	10013	pm.simpleEngRight	pm.simpleEng	2	57	249	0	0	14:46:42	1053502	0	0	0	0	0	0	0	0	0	0	0	0	0	0	0	0	0
092812	14:46:42	10013	pm.simpleEngRight	blank.simpleEng	2	0	2087	1	0	14:46:42	1055607	0	0	0	0	0	0	0	0	0	0	0	0	0	0	0	0	0
092812	14:46:42	10013	pm.simpleEngRight	pm.simpleEng	2	57	279	0	0	14:46:42	1055927	0	0	0	0	0	0	0	0	0	0	0	0	0	0	0	0	0
092812	14:46:42	10013	pm.simpleEngRight	blank.simpleEng	2	0	1987	1	0	14:46:42	1057940	0	0	0	0	0	0	0	0	0	0	0	0	0	0	0	0	0
092812	14:46:42	10013	pm.simpleEngRight	pm.simpleEng	2	57	251	0	0	14:46:42	1058233	0	0	0	0	0	0	0	0	0	0	0	0	0	0	0	0	0
092812	14:46:42	10013	pm.simpleEngRight	blank.simpleEng	2	0	2287	1	0	14:46:42	1060552	0	0	0	0	0	0	0	0	0	0	0	0	0	0	0	0	0
092812	14:46:42	10013	pm.simpleEngRight	pm.simpleEng	2	57	246	0	0	14:46:42	1060832	0	0	0	0	0	0	0	0	0	0	0	0	0	0	0	0	0
092812	14:46:42	10013	pm.simpleEngRight	blank.simpleEng	2	0	2387	1	0	14:46:42	1063244	0	0	0	0	0	0	0	0	0	0	0	0	0	0	0	0	0
092812	14:46:42	10013	pm.simpleEngRight	pm.simpleEng	2	57	258	0	0	14:46:42	1063538	0	0	0	0	0	0	0	0	0	0	0	0	0	0	0	0	0
092812	14:46:42	10013	pm.simpleEngRight	blank.simpleEng	2	0	2287	1	0	14:46:42	1065857	0	0	0	0	0	0	0	0	0	0	0	0	0	0	0	0	0
092812	14:46:42	10013	pm.simpleEngRight	pm.simpleEng	2	57	254	0	0	14:46:42	1066150	0	0	0	0	0	0	0	0	0	0	0	0	0	0	0	0	0
092812	14:46:42	10013	pm.simpleEngRight	blank.simpleEng	2	0	1687	1	0	14:46:42	1067869	0	0	0	0	0	0	0	0	0	0	0	0	0	0	0	0	0
092812	14:46:42	10013	pm.simpleEngRight	pm.simpleEng	2	57	337	0	0	14:46:42	1068242	0	0	0	0	0	0	0	0	0	0	0	0	0	0	0	0	0
092812	14:46:42	10013	pm.simpleEngRight	blank.simpleEng	2	0	1787	1	0	14:46:42	1070055	0	0	0	0	0	0	0	0	0	0	0	0	0	0	0	0	0
092812	14:46:42	10013	pm.simpleEngRight	pm.simpleEng	2	57	264	0	0	14:46:42	1070348	0	0	0	0	0	0	0	0	0	0	0	0	0	0	0	0	0
092812	14:46:42	10013	pm.simpleEngRight	blank.simpleEng	2	0	2187	1	0	14:46:42	1072561	0	0	0	0	0	0	0	0	0	0	0	0	0	0	0	0	0
092812	14:46:42	10013	pm.simpleEngRight	pm.simpleEng	2	57	254	0	0	14:46:42	1072854	0	0	0	0	0	0	0	0	0	0	0	0	0	0	0	0	0
092812	14:46:42	10013	pm.simpleEngRight	blank.simpleEng	2	0	1887	1	0	14:46:42	1074773	0	0	0	0	0	0	0	0	0	0	0	0	0	0	0	0	0
092812	14:46:42	10013	pm.simpleEngRight	pm.simpleEng	2	57	313	0	0	14:46:42	1075120	0	0	0	0	0	0	0	0	0	0	0	0	0	0	0	0	0
092812	14:46:42	10013	pm.simpleEngRight	blank.simpleEng	2	0	1587	1	0	14:46:42	1076732	0	0	0	0	0	0	0	0	0	0	0	0	0	0	0	0	0
092812	14:46:42	10013	pm.simpleEngRight	pm.simpleEng	2	57	290	0	0	14:46:42	1077052	0	0	0	0	0	0	0	0	0	0	0	0	0	0	0	0	0
092812	14:46:42	10013	Trial2BackEng	N	3	0	1000	1	1	14:46:42	1179172	0	0	0	0	0	0	0	0	0	0	0	0	0	0	0	0	0
092812	14:46:42	10013	Trial2BackEng	N	3	0	1000	1	2	14:46:42	1180692	0	0	0	0	0	0	0	0	0	0	0	0	0	0	0	0	0
092812	14:46:42	10013	Trial2BackEng	N	3	0	1000	1	3	14:46:42	1182211	0	0	0	0	0	0	0	0	0	0	0	0	0	0	0	0	0
092812	14:46:42	10013	Trial2BackEng	N	3	0	1000	1	4	14:46:42	1183730	0	0	0	0	0	0	0	0	0	0	0	0	0	0	0	0	0
092812	14:46:42	10013	Trial2BackEng	N	3	0	1000	1	5	14:46:42	1185250	0	0	0	0	0	0	0	0	0	0	0	0	0	0	0	0	0
092812	14:46:42	10013	Trial2BackEng	N	3	0	1000	1	6	14:46:42	1186769	0	0	0	0	0	0	0	0	0	0	0	0	0	0	0	0	0
092812	14:46:42	10013	Trial2BackEng	N	3	0	1000	1	7	14:46:42	1188289	0	0	0	0	0	0	0	0	0	0	0	0	0	0	0	0	0
092812	14:46:42	10013	Trial2BackEng	N	3	0	1000	1	8	14:46:42	1189808	0	0	0	0	0	0	0	0	0	0	0	0	0	0	0	0	0
092812	14:46:42	10013	Trial2BackEng	Y	3	57	658	1	9	14:46:42	1190994	0	0	0	0	0	0	0	0	0	0	0	0	0	0	0	0	0
092812	14:46:42	10013	Trial2BackEng	N	3	0	1000	1	10	14:46:42	1192833	0	0	0	0	0	0	0	0	0	0	0	0	0	0	0	0	0
092812	14:46:42	10013	Trial2BackEng	N	3	0	1000	1	11	14:46:42	1194353	0	0	0	0	0	0	0	0	0	0	0	0	0	0	0	0	0
092812	14:46:42	10013	Trial2BackEng	N	3	0	1000	1	12	14:46:42	1195872	0	0	0	0	0	0	0	0	0	0	0	0	0	0	0	0	0
092812	14:46:42	10013	Trial2BackEng	Y	3	57	545	1	13	14:46:42	1196952	0	0	0	0	0	0	0	0	0	0	0	0	0	0	0	0	0
092812	14:46:42	10013	Trial2BackEng	N	3	0	1000	1	14	14:46:42	1198898	0	0	0	0	0	0	0	0	0	0	0	0	0	0	0	0	0
092812	14:46:42	10013	Trial2BackEng	N	3	0	1000	1	15	14:46:42	1200417	0	0	0	0	0	0	0	0	0	0	0	0	0	0	0	0	0
092812	14:46:42	10013	Trial2BackEng	N	3	0	1000	1	16	14:46:42	1201936	0	0	0	0	0	0	0	0	0	0	0	0	0	0	0	0	0
092812	14:46:42	10013	Trial2BackEng	N	3	0	1000	1	17	14:46:42	1203456	0	0	0	0	0	0	0	0	0	0	0	0	0	0	0	0	0
092812	14:46:42	10013	Trial2BackEng	N	3	0	1000	1	18	14:46:42	1204975	0	0	0	0	0	0	0	0	0	0	0	0	0	0	0	0	0
092812	14:46:42	10013	Trial2BackEng	Y	3	57	546	1	19	14:46:42	1206055	0	0	0	0	0	0	0	0	0	0	0	0	0	0	0	0	0
092812	14:46:42	10013	Trial2BackEng	N	3	0	1000	1	20	14:46:42	1208001	0	0	0	0	0	0	0	0	0	0	0	0	0	0	0	0	0
092812	14:46:42	10013	Trial2BackEng	N	3	0	1000	1	21	14:46:42	1209520	0	0	0	0	0	0	0	0	0	0	0	0	0	0	0	0	0
092812	14:46:42	10013	Trial2BackEng	N	3	0	1000	1	22	14:46:42	1211040	0	0	0	0	0	0	0	0	0	0	0	0	0	0	0	0	0
092812	14:46:42	10013	Trial2BackEng	N	3	0	1000	1	23	14:46:42	1212559	0	0	0	0	0	0	0	0	0	0	0	0	0	0	0	0	0
092812	14:46:42	10013	Trial2BackEng	Y	3	57	418	1	24	14:46:42	1213505	0	0	0	0	0	0	0	0	0	0	0	0	0	0	0	0	0
092812	14:46:42	10013	Trial2BackEng	N	3	0	1000	1	25	14:46:42	1215585	0	0	0	0	0	0	0	0	0	0	0	0	0	0	0	0	0
092812	14:46:42	10013	Trial2BackEng	N	3	0	1000	1	26	14:46:42	1217104	0	0	0	0	0	0	0	0	0	0	0	0	0	0	0	0	0
092812	14:46:42	10013	Trial2BackEng	N	3	0	1000	1	27	14:46:42	1218623	0	0	0	0	0	0	0	0	0	0	0	0	0	0	0	0	0
092812	14:46:42	10013	Trial2BackEng	N	3	0	1000	1	28	14:46:42	1220143	0	0	0	0	0	0	0	0	0	0	0	0	0	0	0	0	0
092812	14:46:42	10013	Trial2BackEng	N	3	0	1000	1	29	14:46:42	1221662	0	0	0	0	0	0	0	0	0	0	0	0	0	0	0	0	0
092812	14:46:42	10013	Trial2BackEng	N	3	0	1000	1	30	14:46:42	1223181	0	0	0	0	0	0	0	0	0	0	0	0	0	0	0	0	0
092812	14:46:42	10013	Trial2BackEng	Y	3	57	388	1	31	14:46:42	1224101	0	0	0	0	0	0	0	0	0	0	0	0	0	0	0	0	0
092812	14:46:42	10013	Trial2BackEng	N	3	0	1000	1	32	14:46:42	1226207	0	0	0	0	0	0	0	0	0	0	0	0	0	0	0	0	0
092812	14:46:42	10013	Trial2BackEng	N	3	0	1000	1	33	14:46:42	1227726	0	0	0	0	0	0	0	0	0	0	0	0	0	0	0	0	0
092812	14:46:42	10013	Trial2BackEng	N	3	0	1000	1	34	14:46:42	1229246	0	0	0	0	0	0	0	0	0	0	0	0	0	0	0	0	0
092812	14:46:42	10013	Trial2BackEng	Y	3	57	452	1	35	14:46:42	1230232	0	0	0	0	0	0	0	0	0	0	0	0	0	0	0	0	0
092812	14:46:42	10013	Trial2BackEng	N	3	0	1000	1	36	14:46:42	1232271	0	0	0	0	0	0	0	0	0	0	0	0	0	0	0	0	0
092812	14:46:42	10013	Trial2BackEng	N	3	0	1000	1	37	14:46:42	1233791	0	0	0	0	0	0	0	0	0	0	0	0	0	0	0	0	0
092812	14:46:42	10013	Trial2BackEng	N	3	0	1000	1	38	14:46:42	1235310	0	0	0	0	0	0	0	0	0	0	0	0	0	0	0	0	0
092812	14:46:42	10013	Trial2BackEng	N	3	0	1000	1	39	14:46:42	1236829	0	0	0	0	0	0	0	0	0	0	0	0	0	0	0	0	0
092812	14:46:42	10013	Trial2BackEng	N	3	0	1000	1	40	14:46:42	1238349	0	0	0	0	0	0	0	0	0	0	0	0	0	0	0	0	0
092812	14:46:42	10013	Trial2BackEng	N	3	57	772	0	40	14:46:42	1239655	0	0	0	0	0	0	0	0	0	0	0	0	0	0	0	0	0
092812	14:46:42	10013	Trial2BackEng	Y	3	0	1000	0	40	14:46:42	1241374	0	0	0	0	0	0	0	0	0	0	0	0	0	0	0	0	0
092812	14:46:42	10013	Trial2BackEng	N	3	0	1000	1	41	14:46:42	1242894	0	0	0	0	0	0	0	0	0	0	0	0	0	0	0	0	0
092812	14:46:42	10013	Trial2BackEng	N	3	0	1000	1	42	14:46:42	1244413	0	0	0	0	0	0	0	0	0	0	0	0	0	0	0	0	0
092812	14:46:42	10013	Trial2BackEng	N	3	57	580	0	42	14:46:42	1245519	0	0	0	0	0	0	0	0	0	0	0	0	0	0	0	0	0
092812	14:46:42	10013	Trial2BackEng	N	3	0	1000	1	43	14:46:42	1247439	0	0	0	0	0	0	0	0	0	0	0	0	0	0	0	0	0
092812	14:46:42	10013	Trial2BackEng	Y	3	57	530	1	44	14:46:42	1248491	0	0	0	0	0	0	0	0	0	0	0	0	0	0	0	0	0
092812	14:46:42	10013	Trial2BackEng	N	3	0	1000	1	45	14:46:42	1250464	0	0	0	0	0	0	0	0	0	0	0	0	0	0	0	0	0
092812	14:46:42	10013	Trial2BackEng	N	3	0	1000	1	46	14:46:42	1251983	0	0	0	0	0	0	0	0	0	0	0	0	0	0	0	0	0
092812	14:46:42	10013	Trial2BackEng	N	3	0	1000	1	47	14:46:42	1253503	0	0	0	0	0	0	0	0	0	0	0	0	0	0	0	0	0
092812	14:46:42	10013	Trial2BackEng	N	3	0	1000	1	48	14:46:42	1255022	0	0	0	0	0	0	0	0	0	0	0	0	0	0	0	0	0
092812	14:46:42	10013	Trial2BackEng	N	3	0	1000	1	49	14:46:42	1256542	0	0	0	0	0	0	0	0	0	0	0	0	0	0	0	0	0
092812	14:46:42	10013	Trial2BackEng	Y	3	57	595	1	50	14:46:42	1257661	0	0	0	0	0	0	0	0	0	0	0	0	0	0	0	0	0
092812	14:46:42	10013	Trial2BackEng	N	3	0	1000	1	51	14:46:42	1259567	0	0	0	0	0	0	0	0	0	0	0	0	0	0	0	0	0
092812	14:46:42	10013	Trial2BackEng	N	3	0	1000	1	52	14:46:42	1261087	0	0	0	0	0	0	0	0	0	0	0	0	0	0	0	0	0
092812	14:46:42	10013	Trial2BackEng	N	3	0	1000	1	53	14:46:42	1262606	0	0	0	0	0	0	0	0	0	0	0	0	0	0	0	0	0
092812	14:46:42	10013	Trial2BackEng	N	3	0	1000	1	54	14:46:42	1264125	0	0	0	0	0	0	0	0	0	0	0	0	0	0	0	0	0
092812	14:46:42	10013	Trial2BackEng	N	3	0	1000	1	55	14:46:42	1265645	0	0	0	0	0	0	0	0	0	0	0	0	0	0	0	0	0
092812	14:46:42	10013	Trial2BackEng	N	3	57	535	0	55	14:46:42	1266724	0	0	0	0	0	0	0	0	0	0	0	0	0	0	0	0	0
092812	14:46:42	10013	Trial2BackEng	Y	3	57	548	1	56	14:46:42	1268244	0	0	0	0	0	0	0	0	0	0	0	0	0	0	0	0	0
092812	14:46:42	10013	Trial2BackEng	N	3	0	1000	1	57	14:46:42	1270176	0	0	0	0	0	0	0	0	0	0	0	0	0	0	0	0	0
092812	14:46:42	10013	Trial2BackEng	N	3	0	1000	1	58	14:46:42	1271696	0	0	0	0	0	0	0	0	0	0	0	0	0	0	0	0	0
092812	14:46:42	10013	Trial2BackEng	Y	3	0	1000	0	58	14:46:42	1273215	0	0	0	0	0	0	0	0	0	0	0	0	0	0	0	0	0
092812	14:46:42	10013	Trial2BackEng	N	3	0	1000	1	59	14:46:42	1274734	0	0	0	0	0	0	0	0	0	0	0	0	0	0	0	0	0
092812	14:46:42	10013	Trial2BackEng	N	3	0	1000	1	60	14:46:42	1276254	0	0	0	0	0	0	0	0	0	0	0	0	0	0	0	0	0
092812	14:46:42	10013	Trial2BackEng	N	3	0	1000	1	61	14:46:42	1277773	0	0	0	0	0	0	0	0	0	0	0	0	0	0	0	0	0
092812	14:46:42	10013	Trial2BackEng	N	3	0	1000	1	62	14:46:42	1279293	0	0	0	0	0	0	0	0	0	0	0	0	0	0	0	0	0
092812	14:46:42	10013	Trial2BackEng	N	3	0	1000	1	63	14:46:42	1280812	0	0	0	0	0	0	0	0	0	0	0	0	0	0	0	0	0
092812	14:46:42	10013	Trial2BackEng	N	3	0	1000	1	64	14:46:42	1282332	0	0	0	0	0	0	0	0	0	0	0	0	0	0	0	0	0
092812	14:46:42	10013	Trial2BackEng	N	3	0	1000	1	65	14:46:42	1283851	0	0	0	0	0	0	0	0	0	0	0	0	0	0	0	0	0
092812	14:46:42	10013	Trial2BackEng	N	3	0	1000	1	66	14:46:42	1285370	0	0	0	0	0	0	0	0	0	0	0	0	0	0	0	0	0
092812	14:46:42	10013	Trial2BackEng	N	3	0	1000	1	67	14:46:42	1286890	0	0	0	0	0	0	0	0	0	0	0	0	0	0	0	0	0
092812	14:46:42	10013	Trial2BackEng	N	3	0	1000	1	68	14:46:42	1288409	0	0	0	0	0	0	0	0	0	0	0	0	0	0	0	0	0
092812	14:46:42	10013	Trial2BackEng	Y	3	57	727	1	69	14:46:42	1289662	0	0	0	0	0	0	0	0	0	0	0	0	0	0	0	0	0
092812	14:46:42	10013	Trial2BackEng	N	3	0	1000	1	70	14:46:42	1291435	0	0	0	0	0	0	0	0	0	0	0	0	0	0	0	0	0
092812	14:46:42	10013	Trial2BackEng	N	3	0	1000	1	71	14:46:42	1292954	0	0	0	0	0	0	0	0	0	0	0	0	0	0	0	0	0
092812	14:46:42	10013	Trial2BackEng	N	3	0	1000	1	72	14:46:42	1294473	0	0	0	0	0	0	0	0	0	0	0	0	0	0	0	0	0
092812	14:46:42	10013	Trial2BackEng	Y	3	0	1000	0	72	14:46:42	1295993	0	0	0	0	0	0	0	0	0	0	0	0	0	0	0	0	0
092812	14:46:42	10013	Trial2BackEng	N	3	0	1000	1	73	14:46:42	1297512	0	0	0	0	0	0	0	0	0	0	0	0	0	0	0	0	0
092812	14:46:42	10013	Trial2BackEng	N	3	0	1000	1	74	14:46:42	1299032	0	0	0	0	0	0	0	0	0	0	0	0	0	0	0	0	0
092812	14:46:42	10013	Trial2BackEng	N	3	0	1000	1	75	14:46:42	1300551	0	0	0	0	0	0	0	0	0	0	0	0	0	0	0	0	0
092812	14:46:42	10013	Trial2BackEng	N	3	0	1000	1	76	14:46:42	1302070	0	0	0	0	0	0	0	0	0	0	0	0	0	0	0	0	0
092812	14:46:42	10013	Trial2BackEng	N	3	0	1000	1	77	14:46:42	1303590	0	0	0	0	0	0	0	0	0	0	0	0	0	0	0	0	0
092812	14:46:42	10013	Trial2BackEng	Y	3	57	426	1	78	14:46:42	1304549	0	0	0	0	0	0	0	0	0	0	0	0	0	0	0	0	0
092812	14:46:42	10013	Trial2BackEng	N	3	0	1000	1	79	14:46:42	1306615	0	0	0	0	0	0	0	0	0	0	0	0	0	0	0	0	0
092812	14:46:42	10013	Trial2BackEng	N	3	0	1000	1	80	14:46:42	1308135	0	0	0	0	0	0	0	0	0	0	0	0	0	0	0	0	0
092812	14:46:42	10013	Trial2BackEng	N	3	0	1000	1	81	14:46:42	1309654	0	0	0	0	0	0	0	0	0	0	0	0	0	0	0	0	0
092812	14:46:42	10013	Trial2BackEng	N	3	0	1000	1	82	14:46:42	1311173	0	0	0	0	0	0	0	0	0	0	0	0	0	0	0	0	0
092812	14:46:42	10013	Trial2BackEng	N	3	0	1000	1	83	14:46:42	1312693	0	0	0	0	0	0	0	0	0	0	0	0	0	0	0	0	0
092812	14:46:42	10013	Trial2BackEng	N	3	0	1000	1	84	14:46:42	1314212	0	0	0	0	0	0	0	0	0	0	0	0	0	0	0	0	0
092812	14:46:42	10013	Trial2BackEng	N	3	0	1000	1	85	14:46:42	1315732	0	0	0	0	0	0	0	0	0	0	0	0	0	0	0	0	0
092812	14:46:42	10013	Trial2BackEng	N	3	0	1000	1	86	14:46:42	1317251	0	0	0	0	0	0	0	0	0	0	0	0	0	0	0	0	0
092812	14:46:42	10013	Trial2BackEng	N	3	0	1000	1	87	14:46:42	1318770	0	0	0	0	0	0	0	0	0	0	0	0	0	0	0	0	0
092812	14:46:42	10013	Trial2BackEng	Y	3	57	670	1	88	14:46:42	1319970	0	0	0	0	0	0	0	0	0	0	0	0	0	0	0	0	0
092812	14:46:42	10013	Trial2BackEng	N	3	0	1000	1	89	14:46:42	1321796	0	0	0	0	0	0	0	0	0	0	0	0	0	0	0	0	0
092812	14:46:42	10013	Trial2BackEng	N	3	0	1000	1	90	14:46:42	1323315	0	0	0	0	0	0	0	0	0	0	0	0	0	0	0	0	0
092812	14:46:42	10013	Trial2BackEng	N	3	0	1000	1	91	14:46:42	1324835	0	0	0	0	0	0	0	0	0	0	0	0	0	0	0	0	0
092812	14:46:42	10013	Trial2BackEng	N	3	0	1000	1	92	14:46:42	1326354	0	0	0	0	0	0	0	0	0	0	0	0	0	0	0	0	0
092812	14:46:42	10013	Trial2BackEng	N	3	0	1000	1	93	14:46:42	1327874	0	0	0	0	0	0	0	0	0	0	0	0	0	0	0	0	0
092812	14:46:42	10013	Trial2BackEng	N	3	0	1000	1	94	14:46:42	1329393	0	0	0	0	0	0	0	0	0	0	0	0	0	0	0	0	0
092812	14:46:42	10013	Trial2BackEng	N	3	0	1000	1	95	14:46:42	1330912	0	0	0	0	0	0	0	0	0	0	0	0	0	0	0	0	0
092812	14:46:42	10013	Trial2BackEng	N	3	0	1000	1	96	14:46:42	1332432	0	0	0	0	0	0	0	0	0	0	0	0	0	0	0	0	0
092812	14:46:42	10013	Trial2BackEng	Y	3	0	1000	0	96	14:46:42	1333951	0	0	0	0	0	0	0	0	0	0	0	0	0	0	0	0	0
092812	14:46:42	10013	Trial2BackEng	N	3	0	1000	1	97	14:46:42	1335471	0	0	0	0	0	0	0	0	0	0	0	0	0	0	0	0	0
092812	14:46:42	10013	Trial2BackEng	N	3	0	1000	1	98	14:46:42	1336990	0	0	0	0	0	0	0	0	0	0	0	0	0	0	0	0	0
092812	14:46:42	10013	Trial2BackEng	N	3	0	1000	1	99	14:46:42	1338509	0	0	0	0	0	0	0	0	0	0	0	0	0	0	0	0	0
092812	14:46:42	10013	Trial2BackEng	N	3	0	1000	1	100	14:46:42	1340029	0	0	0	0	0	0	0	0	0	0	0	0	0	0	0	0	0
092812	14:46:42	10013	Trial2BackEng	Y	3	57	387	1	101	14:46:42	1340948	0	0	0	0	0	0	0	0	0	0	0	0	0	0	0	0	0
092812	14:46:42	10013	Trial2BackEng	N	3	0	1000	1	102	14:46:42	1343054	0	0	0	0	0	0	0	0	0	0	0	0	0	0	0	0	0
092812	14:46:42	10013	Trial2BackEng	N	3	57	657	0	102	14:46:42	1344240	0	0	0	0	0	0	0	0	0	0	0	0	0	0	0	0	0
092812	14:46:42	10013	Trial2BackEng	N	3	0	1000	1	103	14:46:42	1346080	0	0	0	0	0	0	0	0	0	0	0	0	0	0	0	0	0
092812	14:46:42	10013	Trial2BackEng	Y	3	0	1000	0	103	14:46:42	1347599	0	0	0	0	0	0	0	0	0	0	0	0	0	0	0	0	0
092812	14:46:42	10013	Trial2BackEng	N	3	0	1000	1	104	14:46:42	1349118	0	0	0	0	0	0	0	0	0	0	0	0	0	0	0	0	0
092812	14:46:42	10013	Trial2BackEng	N	3	0	1000	1	105	14:46:42	1350638	0	0	0	0	0	0	0	0	0	0	0	0	0	0	0	0	0
092812	14:46:42	10013	Trial2BackEng	N	3	0	1000	1	106	14:46:42	1352157	0	0	0	0	0	0	0	0	0	0	0	0	0	0	0	0	0
092812	14:46:42	10013	Trial2BackEng	N	3	0	1000	1	107	14:46:42	1353677	0	0	0	0	0	0	0	0	0	0	0	0	0	0	0	0	0
092812	14:46:42	10013	Trial2BackEng	N	3	0	1000	1	108	14:46:42	1355196	0	0	0	0	0	0	0	0	0	0	0	0	0	0	0	0	0
092812	14:46:42	10013	Trial2BackEng	Y	3	57	883	1	109	14:46:42	1356609	0	0	0	0	0	0	0	0	0	0	0	0	0	0	0	0	0
092812	14:46:42	10013	Trial2BackEng	N	3	0	1000	1	110	14:46:42	1358222	0	0	0	0	0	0	0	0	0	0	0	0	0	0	0	0	0
092812	14:46:42	10013	Trial2BackEng	N	3	0	1000	1	111	14:46:42	1359741	0	0	0	0	0	0	0	0	0	0	0	0	0	0	0	0	0
092812	14:46:42	10013	Trial2BackEng	N	3	0	1000	1	112	14:46:42	1361260	0	0	0	0	0	0	0	0	0	0	0	0	0	0	0	0	0
092812	14:46:42	10013	Trial2BackEng	Y	3	57	803	1	113	14:46:42	1362593	0	0	0	0	0	0	0	0	0	0	0	0	0	0	0	0	0
092812	14:46:42	10013	Memory1R3mo	Score	5	M2	14122	0	113	14:46:42	1412520	0	0	0	0	0	0	0	0	0	0	0	0	0	0	0	0	0
092812	14:46:42	10013	Memory1R3mo	Score	5	M7	1811	0	113	14:46:42	1414373	0	0	0	0	0	0	0	0	0	0	0	0	0	0	0	0	0
092812	14:46:42	10013	Memory1R3mo	Score	5	Done	3158	0	113	14:46:42	1417572	0	0	0	0	0	0	0	0	0	0	0	0	0	0	0	0	0
092812	14:46:42	10013	Memory2R3mo	Score2	5	11	17794	0	113	14:46:42	1456890	0	0	0	0	0	0	0	0	0	0	0	0	0	0	0	0	0
092812	14:46:42	10013	Memory2R3mo	Score2	5	22	425	0	113	14:46:42	1457356	0	0	0	0	0	0	0	0	0	0	0	0	0	0	0	0	0
092812	14:46:42	10013	Memory2R3mo	Score2	5	55	2223	0	113	14:46:42	1459622	0	0	0	0	0	0	0	0	0	0	0	0	0	0	0	0	0
092812	14:46:42	10013	Memory2R3mo	Score2	5	77	836	0	113	14:46:42	1460501	0	0	0	0	0	0	0	0	0	0	0	0	0	0	0	0	0
092812	14:46:42	10013	Memory2R3mo	Score2	5	88	438	0	113	14:46:42	1460981	0	0	0	0	0	0	0	0	0	0	0	0	0	0	0	0	0
092812	14:46:42	10013	Memory2R3mo	Score2	5	Done	678	0	113	14:46:42	1461701	0	0	0	0	0	0	0	0	0	0	0	0	0	0	0	0	0
092812	14:46:42	10013	Memory3R3mo	Score3	5	111	24509	0	113	14:46:42	1506883	0	0	0	0	0	0	0	0	0	0	0	0	0	0	0	0	0
092812	14:46:42	10013	Memory3R3mo	Score3	5	222	767	0	113	14:46:42	1507696	0	0	0	0	0	0	0	0	0	0	0	0	0	0	0	0	0
092812	14:46:42	10013	Memory3R3mo	Score3	5	333	282	0	113	14:46:42	1508016	0	0	0	0	0	0	0	0	0	0	0	0	0	0	0	0	0
092812	14:46:42	10013	Memory3R3mo	Score3	5	444	354	0	113	14:46:42	1508416	0	0	0	0	0	0	0	0	0	0	0	0	0	0	0	0	0
092812	14:46:42	10013	Memory3R3mo	Score3	5	555	290	0	113	14:46:42	1508749	0	0	0	0	0	0	0	0	0	0	0	0	0	0	0	0	0
092812	14:46:42	10013	Memory3R3mo	Score3	5	666	652	0	113	14:46:42	1509442	0	0	0	0	0	0	0	0	0	0	0	0	0	0	0	0	0
092812	14:46:42	10013	Memory3R3mo	Score3	5	777	304	0	113	14:46:42	1509789	0	0	0	0	0	0	0	0	0	0	0	0	0	0	0	0	0
092812	14:46:42	10013	Memory3R3mo	Score3	5	888	293	0	113	14:46:42	1510122	0	0	0	0	0	0	0	0	0	0	0	0	0	0	0	0	0
092812	14:46:42	10013	Memory3R3mo	Score3	5	Done	792	0	113	14:46:42	1510962	0	0	0	0	0	0	0	0	0	0	0	0	0	0	0	0	0
092812	14:46:42	10013	LoriaEngLH3	Stop	6	4	5183	0	113	14:46:42	1637700	0	0	0	0	0	0	0	0	0	0	0	0	0	0	0	0	0
092812	14:46:42	10013	EngTrail	Trails	7	1Trails	1331	0	113	14:46:42	1660369	0	0	0	0	0	0	0	0	0	0	0	0	0	0	0	0	0
092812	14:46:42	10013	Serial7Eng3mo	Serial7Eng3mo	8	83	4161	0	113	14:46:42	1691305	1	0	0	0	0	0	0	0	0	0	0	0	0	0	0	0	0
092812	14:46:42	10013	Serial7Eng3mo	Serial7Eng3mo	8	76	2738	0	113	14:46:42	1694064	2	0	0	0	0	0	0	0	0	0	0	0	0	0	0	0	0
092812	14:46:42	10013	Serial7Eng3mo	Serial7Eng3mo	8	69	3460	0	113	14:46:42	1697543	3	0	0	0	0	0	0	0	0	0	0	0	0	0	0	0	0
092812	14:46:42	10013	Serial7Eng3mo	Serial7Eng3mo	8	62	3414	0	113	14:46:42	1700982	4	0	0	0	0	0	0	0	0	0	0	0	0	0	0	0	0
092812	14:46:42	10013	Serial7Eng3mo	Serial7Eng3mo	8	55	2567	0	113	14:46:42	1703568	5	0	0	0	0	0	0	0	0	0	0	0	0	0	0	0	0
092812	14:46:42	10013	corsiblockEngFwrd	recallseqEngFwrd	9	4	1488	0	113	14:46:42	1749310	5	0	0	0	0	0	0	0	0	0	0	0	0	0	0	0	0
092812	14:46:42	10013	corsiblockEngFwrd	recallseqEngFwrd	9	3	1579	0	113	14:46:42	1750922	5	0	0	0	0	0	0	0	0	0	0	0	0	0	0	0	0
092812	14:46:42	10013	corsiblockEngFwrd	recallseqEngFwrd	9	doneCorsiEng	1726	0	113	14:46:42	1752695	5	0	0	0	0	0	0	0	0	0	0	0	0	0	0	2	0
092812	14:46:42	10013	corsiblockEngFwrd	recallseqEngFwrd	9	1	1726	0	113	14:46:42	1760518	5	0	0	0	0	0	0	0	0	0	0	0	0	0	0	2	0
092812	14:46:42	10013	corsiblockEngFwrd	recallseqEngFwrd	9	8	1354	0	113	14:46:42	1761918	5	0	0	0	0	0	0	0	0	0	0	0	0	0	0	2	0
092812	14:46:42	10013	corsiblockEngFwrd	recallseqEngFwrd	9	2	1314	0	113	14:46:42	1763277	5	0	0	0	0	0	0	0	0	0	0	0	0	0	0	2	0
092812	14:46:42	10013	corsiblockEngFwrd	recallseqEngFwrd	9	doneCorsiEng	2675	0	113	14:46:42	1765996	5	0	0	0	0	0	0	0	0	0	0	0	0	0	0	3	0
092812	14:46:42	10013	corsiblockEngFwrd	recallseqEngFwrd	9	5	865	0	113	14:46:42	1773953	5	0	0	0	0	0	0	0	0	0	0	0	0	0	0	3	0
092812	14:46:42	10013	corsiblockEngFwrd	recallseqEngFwrd	9	7	943	0	113	14:46:42	1774939	5	0	0	0	0	0	0	0	0	0	0	0	0	0	0	3	0
092812	14:46:42	10013	corsiblockEngFwrd	recallseqEngFwrd	9	6	4276	0	113	14:46:42	1779258	5	0	0	0	0	0	0	0	0	0	0	0	0	0	0	3	0
092812	14:46:42	10013	corsiblockEngFwrd	recallseqEngFwrd	9	9	918	0	113	14:46:42	1780217	5	0	0	0	0	0	0	0	0	0	0	0	0	0	0	3	0
092812	14:46:42	10013	corsiblockEngFwrd	recallseqEngFwrd	9	doneCorsiEng	1167	0	113	14:46:42	1781430	5	0	0	0	0	0	0	0	0	0	0	0	0	0	0	4	0
092812	14:46:42	10013	corsiblockEngFwrd	recallseqEngFwrd	9	1	1087	0	113	14:46:42	1790613	5	0	0	0	0	0	0	0	0	0	0	0	0	0	0	4	0
092812	14:46:42	10013	corsiblockEngFwrd	recallseqEngFwrd	9	6	1163	0	113	14:46:42	1791813	5	0	0	0	0	0	0	0	0	0	0	0	0	0	0	4	0
092812	14:46:42	10013	corsiblockEngFwrd	recallseqEngFwrd	9	9	995	0	113	14:46:42	1792852	5	0	0	0	0	0	0	0	0	0	0	0	0	0	0	4	0
092812	14:46:42	10013	corsiblockEngFwrd	recallseqEngFwrd	9	2	803	0	113	14:46:42	1793692	5	0	0	0	0	0	0	0	0	0	0	0	0	0	0	4	0
092812	14:46:42	10013	corsiblockEngFwrd	recallseqEngFwrd	9	4	844	0	113	14:46:42	1794572	5	0	0	0	0	0	0	0	0	0	0	0	0	0	0	4	0
092812	14:46:42	10013	corsiblockEngFwrd	recallseqEngFwrd	9	doneCorsiEng	1036	0	113	14:46:42	1795651	5	0	0	0	0	0	0	0	0	0	0	0	0	0	0	4	0
092812	14:46:42	10013	corsiblockEngFwrd	recallseqEngFwrd	9	3	1282	0	113	14:46:42	1804981	5	0	0	0	0	0	0	0	0	0	0	0	0	0	0	4	0
092812	14:46:42	10013	corsiblockEngFwrd	recallseqEngFwrd	9	8	1483	0	113	14:46:42	1806500	5	0	0	0	0	0	0	0	0	0	0	0	0	0	0	4	0
092812	14:46:42	10013	corsiblockEngFwrd	recallseqEngFwrd	9	7	507	0	113	14:46:42	1807047	5	0	0	0	0	0	0	0	0	0	0	0	0	0	0	4	0
092812	14:46:42	10013	corsiblockEngFwrd	recallseqEngFwrd	9	4	513	0	113	14:46:42	1807593	5	0	0	0	0	0	0	0	0	0	0	0	0	0	0	4	0
092812	14:46:42	10013	corsiblockEngFwrd	recallseqEngFwrd	9	doneCorsiEng	870	0	113	14:46:42	1808500	5	0	0	0	0	0	0	0	0	0	0	0	0	0	0	4	0
092812	14:46:42	10013	corsiblockEngRev	recallseqEngRev	10	1	1426	0	113	14:46:42	1819735	5	0	0	0	0	0	0	0	0	0	0	0	0	0	0	4	0
092812	14:46:42	10013	corsiblockEngRev	recallseqEngRev	10	7	1040	0	113	14:46:42	1820815	5	0	0	0	0	0	0	0	0	0	0	0	0	0	0	4	0
092812	14:46:42	10013	corsiblockEngRev	recallseqEngRev	10	doneCorsiEng	785	0	113	14:46:42	1821641	5	0	0	0	0	0	0	0	0	0	0	0	0	0	0	4	0
092812	14:46:42	10013	corsiblockEngRev	recallseqEngRev	10	2	2395	0	113	14:46:42	1829091	5	0	0	0	0	0	0	0	0	0	0	0	0	0	0	4	0
092812	14:46:42	10013	corsiblockEngRev	recallseqEngRev	10	3	780	0	113	14:46:42	1829918	5	0	0	0	0	0	0	0	0	0	0	0	0	0	0	4	0
092812	14:46:42	10013	corsiblockEngRev	recallseqEngRev	10	doneCorsiEng	1753	0	113	14:46:42	1831717	5	0	0	0	0	0	0	0	0	0	0	0	0	0	0	4	2
092812	14:46:42	10013	corsiblockEngRev	recallseqEngRev	10	6	2663	0	113	14:46:42	1839474	5	0	0	0	0	0	0	0	0	0	0	0	0	0	0	4	2
092812	14:46:42	10013	corsiblockEngRev	recallseqEngRev	10	4	469	0	113	14:46:42	1839981	5	0	0	0	0	0	0	0	0	0	0	0	0	0	0	4	2
092812	14:46:42	10013	corsiblockEngRev	recallseqEngRev	10	9	1363	0	113	14:46:42	1841380	5	0	0	0	0	0	0	0	0	0	0	0	0	0	0	4	2
092812	14:46:42	10013	corsiblockEngRev	recallseqEngRev	10	doneCorsiEng	891	0	113	14:46:42	1842313	5	0	0	0	0	0	0	0	0	0	0	0	0	0	0	4	2
092812	14:46:42	10013	corsiblockEngRev	recallseqEngRev	10	9	4915	0	113	14:46:42	1853282	5	0	0	0	0	0	0	0	0	0	0	0	0	0	0	4	2
092812	14:46:42	10013	corsiblockEngRev	recallseqEngRev	10	5	1053	0	113	14:46:42	1854375	5	0	0	0	0	0	0	0	0	0	0	0	0	0	0	4	2
092812	14:46:42	10013	corsiblockEngRev	recallseqEngRev	10	8	560	0	113	14:46:42	1854975	5	0	0	0	0	0	0	0	0	0	0	0	0	0	0	4	2
092812	14:46:42	10013	corsiblockEngRev	recallseqEngRev	10	doneCorsiEng	928	0	113	14:46:42	1855948	5	0	0	0	0	0	0	0	0	0	0	0	0	0	0	4	3
092812	14:46:42	10013	corsiblockEngRev	recallseqEngRev	10	6	4464	0	113	14:46:42	1866503	5	0	0	0	0	0	0	0	0	0	0	0	0	0	0	4	3
092812	14:46:42	10013	corsiblockEngRev	recallseqEngRev	10	4	623	0	113	14:46:42	1867170	5	0	0	0	0	0	0	0	0	0	0	0	0	0	0	4	3
092812	14:46:42	10013	corsiblockEngRev	recallseqEngRev	10	5	701	0	113	14:46:42	1867916	5	0	0	0	0	0	0	0	0	0	0	0	0	0	0	4	3
092812	14:46:42	10013	corsiblockEngRev	recallseqEngRev	10	1	819	0	113	14:46:42	1868769	5	0	0	0	0	0	0	0	0	0	0	0	0	0	0	4	3
092812	14:46:42	10013	corsiblockEngRev	recallseqEngRev	10	doneCorsiEng	1126	0	113	14:46:42	1869929	5	0	0	0	0	0	0	0	0	0	0	0	0	0	0	4	3
092812	14:46:42	10013	corsiblockEngRev	recallseqEngRev	10	8	1915	0	113	14:46:42	1878899	5	0	0	0	0	0	0	0	0	0	0	0	0	0	0	4	3
092812	14:46:42	10013	corsiblockEngRev	recallseqEngRev	10	7	772	0	113	14:46:42	1879711	5	0	0	0	0	0	0	0	0	0	0	0	0	0	0	4	3
092812	14:46:42	10013	corsiblockEngRev	recallseqEngRev	10	2	1799	0	113	14:46:42	1881551	5	0	0	0	0	0	0	0	0	0	0	0	0	0	0	4	3
092812	14:46:42	10013	corsiblockEngRev	recallseqEngRev	10	3	688	0	113	14:46:42	1882284	5	0	0	0	0	0	0	0	0	0	0	0	0	0	0	4	3
092812	14:46:42	10013	corsiblockEngRev	recallseqEngRev	10	doneCorsiEng	1299	0	113	14:46:42	1883617	5	0	0	0	0	0	0	0	0	0	0	0	0	0	0	4	3
092812	14:46:42	10013	testEng3mo	WordsEng3mo	11	1Eng3mo	669	0	113	14:46:42	1904915	5	3	0	0	0	0	0	0	0	0	0	0	0	0	0	4	3
092812	14:46:42	10013	testEng3mo	WordsEng3mo	11	2Eng3mo	235	0	113	14:46:42	1905195	5	3	3	0	0	0	0	0	0	0	0	0	0	0	0	4	3
092812	14:46:42	10013	testEng3mo	WordsEng3mo	11	3Eng3mo	3052	0	113	14:46:42	1908287	5	3	3	3	0	0	0	0	0	0	0	0	0	0	0	4	3
092812	14:46:42	10013	testEng3mo	WordsEng3mo	11	4Eng3mo	352	0	113	14:46:42	1908674	5	3	3	3	3	0	0	0	0	0	0	0	0	0	0	4	3
092812	14:46:42	10013	testEng3mo	WordsEng3mo	11	6Eng3mo	2565	0	113	14:46:42	1911286	5	3	3	3	3	0	3	0	0	0	0	0	0	0	0	4	3
092812	14:46:42	10013	testEng3mo	WordsEng3mo	11	7Eng3mo	481	0	113	14:46:42	1911806	5	3	3	3	3	0	3	3	0	0	0	0	0	0	0	4	3
092812	14:46:42	10013	testEng3mo	WordsEng3mo	11	8Eng3mo	385	0	113	14:46:42	1912232	5	3	3	3	3	0	3	3	3	0	0	0	0	0	0	4	3
092812	14:46:42	10013	testEng3mo	WordsEng3mo	11	DoneEng3mo	8654	0	113	14:46:42	1920922	5	3	3	3	3	0	3	3	3	0	0	0	0	0	0	4	3
092812	14:46:42	10013	testEng3mo	Cat5Eng3mo	11	W5Eng3mo	16525	0	113	14:46:42	1937489	5	3	3	3	3	0	3	3	3	0	0	0	0	0	0	4	3
092812	14:46:42	10013	testEng3mo	Ch5Eng3mo	11	RR5Eng3mo	4566	0	113	14:46:42	1942087	5	3	3	3	3	1	3	3	3	0	0	0	0	0	0	4	3
092812	14:46:42	10013	DigitSpanFwrdEng3mo	Score1FwrdEng3mo	12	DS1	3554	0	113	14:46:42	1958094	5	3	3	3	3	1	3	3	3	0	0	0	0	0	0	4	3
092812	14:46:42	10013	DigitSpanFwrdEng3mo	Gate1FwrdEng3mo	12	0	1	0	113	14:46:42	1958109	5	3	3	3	3	1	3	3	3	3	0	0	0	0	0	4	3
092812	14:46:42	10013	DigitSpanFwrdEng3mo	Score2FwrdEng3mo	12	DS1	3227	0	113	14:46:42	1967917	5	3	3	3	3	1	3	3	3	3	0	0	0	0	0	4	3
092812	14:46:42	10013	DigitSpanFwrdEng3mo	Gate3FwrdEng3mo	12	0	1	0	113	14:46:42	1967932	5	3	3	3	3	1	3	3	3	4	0	0	0	0	0	4	3
092812	14:46:42	10013	DigitSpanFwrdEng3mo	Score3FwrdEng3mo	12	DS2	8077	0	113	14:46:42	1984070	5	3	3	3	3	1	3	3	3	4	0	0	0	0	0	4	3
092812	14:46:42	10013	DigitSpanFwrdEng3mo	Gate5FwrdEng3mo	12	0	1	0	113	14:46:42	1984086	5	3	3	3	3	1	3	3	3	4	0	0	0	0	0	4	3
092812	14:46:42	10013	DigitSpanFwrdEng3mo	Score33FwrdEng3mo	12	DS1	3611	0	113	14:46:42	1995959	5	3	3	3	3	1	3	3	3	4	0	0	0	0	0	4	3
092812	14:46:42	10013	DigitSpanFwrdEng3mo	Gate6FwrdEng3mo	12	0	1	0	113	14:46:42	1995974	5	3	3	3	3	1	3	3	3	5	0	0	0	0	0	4	3
092812	14:46:42	10013	DigitSpanFwrdEng3mo	Score4FwrdEng3mo	12	DS1	4216	0	113	14:46:42	2009753	5	3	3	3	3	1	3	3	3	5	0	0	0	0	0	4	3
092812	14:46:42	10013	DigitSpanFwrdEng3mo	Gate7FwrdEng3mo	12	0	1	0	113	14:46:42	2009782	5	3	3	3	3	1	3	3	3	6	0	0	0	0	0	4	3
092812	14:46:42	10013	DigitSpanFwrdEng3mo	Score5FwrdEng3mo	12	DS2	7401	0	113	14:46:42	2028226	5	3	3	3	3	1	3	3	3	6	0	0	0	0	0	4	3
092812	14:46:42	10013	DigitSpanFwrdEng3mo	Gate9FwrdEng3mo	12	0	1	0	113	14:46:42	2028242	5	3	3	3	3	1	3	3	3	6	0	0	0	0	0	4	3
092812	14:46:42	10013	DigitSpanFwrdEng3mo	Score55FwrdEng3mo	12	DS1	5192	0	113	14:46:42	2044846	5	3	3	3	3	1	3	3	3	6	0	0	0	0	0	4	3
092812	14:46:42	10013	DigitSpanFwrdEng3mo	Gate10FwrdEng3mo	12	0	1	0	113	14:46:42	2044862	5	3	3	3	3	1	3	3	3	7	0	0	0	0	0	4	3
092812	14:46:42	10013	DigitSpanFwrdEng3mo	Score6FwrdEng3mo	12	DS2	8615	0	113	14:46:42	2066824	5	3	3	3	3	1	3	3	3	7	0	0	0	0	0	4	3
092812	14:46:42	10013	DigitSpanFwrdEng3mo	Gate11FwrdEng3mo	12	0	1	0	113	14:46:42	2066839	5	3	3	3	3	1	3	3	3	7	0	0	0	0	0	4	3
092812	14:46:42	10013	DigitSpanFwrdEng3mo	Score66FwrdEng3mo	12	DS2	5001	0	113	14:46:42	2084857	5	3	3	3	3	1	3	3	3	7	0	0	0	0	0	4	3
092812	14:46:42	10013	DigitSpanEng3mo	Score1Eng3mo	13	DS1	1451	0	113	14:46:42	2098878	5	3	3	3	3	1	3	3	3	7	0	0	0	0	0	4	3
092812	14:46:42	10013	DigitSpanEng3mo	Gate1Eng3mo	13	0	1	0	113	14:46:42	2098893	5	3	3	3	3	1	3	3	3	7	2	0	0	0	0	4	3
092812	14:46:42	10013	DigitSpanEng3mo	Score2Eng3mo	13	DS1	2403	0	113	14:46:42	2106248	5	3	3	3	3	1	3	3	3	7	2	0	0	0	0	4	3
092812	14:46:42	10013	DigitSpanEng3mo	Gate3Eng3mo	13	0	1	0	113	14:46:42	2106264	5	3	3	3	3	1	3	3	3	7	3	0	0	0	0	4	3
092812	14:46:42	10013	DigitSpanEng3mo	Score3Eng3mo	13	DS1	4387	0	113	14:46:42	2117217	5	3	3	3	3	1	3	3	3	7	3	0	0	0	0	4	3
092812	14:46:42	10013	DigitSpanEng3mo	Gate5Eng3mo	13	0	1	0	113	14:46:42	2117233	5	3	3	3	3	1	3	3	3	7	4	0	0	0	0	4	3
092812	14:46:42	10013	DigitSpanEng3mo	Score4Eng3mo	13	DS2	8960	0	113	14:46:42	2134224	5	3	3	3	3	1	3	3	3	7	4	0	0	0	0	4	3
092812	14:46:42	10013	DigitSpanEng3mo	Gate7Eng3mo	13	0	1	0	113	14:46:42	2134240	5	3	3	3	3	1	3	3	3	7	4	0	0	0	0	4	3
092812	14:46:42	10013	DigitSpanEng3mo	Score44Eng3mo	13	DS2	14111	0	113	14:46:42	2156616	5	3	3	3	3	1	3	3	3	7	4	0	0	0	0	4	3
092812	14:46:42	10013	Trial	ResponseIL	14	0	162	0	113	14:46:42	2242875	5	3	3	3	3	1	3	3	3	7	4	0	0	0	0	4	3
092812	14:46:42	10013	Trial	IncongruentLeft	14	203	456	1	113	14:46:42	2243357	5	3	3	3	3	1	3	3	3	7	4	0	0	0	0	4	3
092812	14:46:42	10013	Trial	ResponseCR	14	0	162	0	113	14:46:42	2244581	5	3	3	3	3	1	3	3	3	7	4	0	0	0	0	4	3
092812	14:46:42	10013	Trial	CongruentRight	14	205	254	1	113	14:46:42	2244861	5	3	3	3	3	1	3	3	3	7	4	0	0	0	0	4	3
092812	14:46:42	10013	Trial	ResponseIR	14	0	162	0	113	14:46:42	2246273	5	3	3	3	3	1	3	3	3	7	4	0	0	0	0	4	3
092812	14:46:42	10013	Trial	IncongruentRight	14	205	386	1	113	14:46:42	2246685	5	3	3	3	3	1	3	3	3	7	4	0	0	0	0	4	3
092812	14:46:42	10013	Trial	ResponseCL	14	0	162	0	113	14:46:42	2247966	5	3	3	3	3	1	3	3	3	7	4	0	0	0	0	4	3
092812	14:46:42	10013	Trial	CongruentLeft	14	203	245	1	113	14:46:42	2248237	5	3	3	3	3	1	3	3	3	7	4	0	0	0	0	4	3
092812	14:46:42	10013	Trial	ResponseCR	14	0	162	0	113	14:46:42	2249659	5	3	3	3	3	1	3	3	3	7	4	0	0	0	0	4	3
092812	14:46:42	10013	Trial	CongruentRight	14	205	216	1	113	14:46:42	2249901	5	3	3	3	3	1	3	3	3	7	4	0	0	0	0	4	3
092812	14:46:42	10013	Trial	ResponseIR	14	0	162	0	113	14:46:42	2251352	5	3	3	3	3	1	3	3	3	7	4	0	0	0	0	4	3
092812	14:46:42	10013	Trial	IncongruentRight	14	205	395	1	113	14:46:42	2251773	5	3	3	3	3	1	3	3	3	7	4	0	0	0	0	4	3
092812	14:46:42	10013	Trial	ResponseCL	14	0	162	0	113	14:46:42	2253044	5	3	3	3	3	1	3	3	3	7	4	0	0	0	0	4	3
092812	14:46:42	10013	Trial	CongruentLeft	14	203	207	1	113	14:46:42	2253277	5	3	3	3	3	1	3	3	3	7	4	0	0	0	0	4	3
092812	14:46:42	10013	Trial	ResponseIL	14	0	162	0	113	14:46:42	2254737	5	3	3	3	3	1	3	3	3	7	4	0	0	0	0	4	3
092812	14:46:42	10013	Trial	IncongruentLeft	14	203	354	1	113	14:46:42	2255117	5	3	3	3	3	1	3	3	3	7	4	0	0	0	0	4	3
092812	14:46:42	10013	Trial	ResponseIL	14	0	162	0	113	14:46:42	2256429	5	3	3	3	3	1	3	3	3	7	4	0	0	0	0	4	3
092812	14:46:42	10013	Trial	IncongruentLeft	14	203	373	1	113	14:46:42	2256829	5	3	3	3	3	1	3	3	3	7	4	0	0	0	0	4	3
092812	14:46:42	10013	Trial	ResponseCR	14	0	162	0	113	14:46:42	2258122	5	3	3	3	3	1	3	3	3	7	4	0	0	0	0	4	3
092812	14:46:42	10013	Trial	CongruentRight	14	205	233	1	113	14:46:42	2258381	5	3	3	3	3	1	3	3	3	7	4	0	0	0	0	4	3
092812	14:46:42	10013	Trial	ResponseIR	14	0	162	0	113	14:46:42	2259815	5	3	3	3	3	1	3	3	3	7	4	0	0	0	0	4	3
092812	14:46:42	10013	Trial	IncongruentRight	14	205	348	1	113	14:46:42	2260189	5	3	3	3	3	1	3	3	3	7	4	0	0	0	0	4	3
092812	14:46:42	10013	Trial	ResponseCL	14	0	162	0	113	14:46:42	2261507	5	3	3	3	3	1	3	3	3	7	4	0	0	0	0	4	3
092812	14:46:42	10013	Trial	CongruentLeft	14	203	271	1	113	14:46:42	2261805	5	3	3	3	3	1	3	3	3	7	4	0	0	0	0	4	3
092812	14:46:42	10013	Trial	ResponseCR	14	0	162	0	113	14:46:42	2263200	5	3	3	3	3	1	3	3	3	7	4	0	0	0	0	4	3
092812	14:46:42	10013	Trial	CongruentRight	14	205	195	1	113	14:46:42	2263421	5	3	3	3	3	1	3	3	3	7	4	0	0	0	0	4	3
092812	14:46:42	10013	Trial	ResponseIL	14	0	162	0	113	14:46:42	2264893	5	3	3	3	3	1	3	3	3	7	4	0	0	0	0	4	3
092812	14:46:42	10013	Trial	IncongruentLeft	14	203	230	1	113	14:46:42	2265149	5	3	3	3	3	1	3	3	3	7	4	0	0	0	0	4	3
092812	14:46:42	10013	Trial	ResponseIR	14	0	162	0	113	14:46:42	2266585	5	3	3	3	3	1	3	3	3	7	4	0	0	0	0	4	3
092812	14:46:42	10013	Trial	IncongruentRight	14	205	281	1	113	14:46:42	2266893	5	3	3	3	3	1	3	3	3	7	4	0	0	0	0	4	3
092812	14:46:42	10013	Trial	ResponseCR	14	0	162	0	113	14:46:42	2268278	5	3	3	3	3	1	3	3	3	7	4	0	0	0	0	4	3
092812	14:46:42	10013	Trial	CongruentRight	14	205	318	1	113	14:46:42	2268623	5	3	3	3	3	1	3	3	3	7	4	0	0	0	0	4	3
092812	14:46:42	10013	Trial	ResponseCL	14	0	162	0	113	14:46:42	2269971	5	3	3	3	3	1	3	3	3	7	4	0	0	0	0	4	3
092812	14:46:42	10013	Trial	CongruentLeft	14	203	256	1	113	14:46:42	2270253	5	3	3	3	3	1	3	3	3	7	4	0	0	0	0	4	3
092812	14:46:42	10013	Trial	ResponseCR	14	0	162	0	113	14:46:42	2271663	5	3	3	3	3	1	3	3	3	7	4	0	0	0	0	4	3
092812	14:46:42	10013	Trial	CongruentRight	14	205	180	1	113	14:46:42	2271869	5	3	3	3	3	1	3	3	3	7	4	0	0	0	0	4	3
092812	14:46:42	10013	Trial	ResponseIR	14	0	162	0	113	14:46:42	2273356	5	3	3	3	3	1	3	3	3	7	4	0	0	0	0	4	3
092812	14:46:42	10013	Trial	IncongruentRight	14	205	327	1	113	14:46:42	2273709	5	3	3	3	3	1	3	3	3	7	4	0	0	0	0	4	3
092812	14:46:42	10013	Trial	ResponseIL	14	0	162	0	113	14:46:42	2275049	5	3	3	3	3	1	3	3	3	7	4	0	0	0	0	4	3
092812	14:46:42	10013	Trial	IncongruentLeft	14	203	378	1	113	14:46:42	2275453	5	3	3	3	3	1	3	3	3	7	4	0	0	0	0	4	3
092812	14:46:42	10013	Trial	ResponseIL	14	0	162	0	113	14:46:42	2276741	5	3	3	3	3	1	3	3	3	7	4	0	0	0	0	4	3
092812	14:46:42	10013	Trial	IncongruentLeft	14	203	365	1	113	14:46:42	2277133	5	3	3	3	3	1	3	3	3	7	4	0	0	0	0	4	3
092812	14:46:42	10013	Trial	ResponseCL	14	0	162	0	113	14:46:42	2278434	5	3	3	3	3	1	3	3	3	7	4	0	0	0	0	4	3
092812	14:46:42	10013	Trial	CongruentLeft	14	203	273	1	113	14:46:42	2278733	5	3	3	3	3	1	3	3	3	7	4	0	0	0	0	4	3
092812	14:46:42	10013	Trial	ResponseCR	14	0	162	0	113	14:46:42	2280127	5	3	3	3	3	1	3	3	3	7	4	0	0	0	0	4	3
092812	14:46:42	10013	Trial	CongruentRight	14	205	308	1	113	14:46:42	2280461	5	3	3	3	3	1	3	3	3	7	4	0	0	0	0	4	3
092812	14:46:42	10013	Trial	ResponseIL	14	0	162	0	113	14:46:42	2281819	5	3	3	3	3	1	3	3	3	7	4	0	0	0	0	4	3
092812	14:46:42	10013	Trial	IncongruentLeft	14	203	279	1	113	14:46:42	2282125	5	3	3	3	3	1	3	3	3	7	4	0	0	0	0	4	3
092812	14:46:42	10013	Trial	ResponseIR	14	0	162	0	113	14:46:42	2283512	5	3	3	3	3	1	3	3	3	7	4	0	0	0	0	4	3
092812	14:46:42	10013	Trial	IncongruentRight	14	203	314	0	113	14:46:42	2283853	5	3	3	3	3	1	3	3	3	7	4	0	0	0	0	4	3
092812	14:46:42	10013	Trial	ResponseCR	14	0	162	0	113	14:46:42	2285205	5	3	3	3	3	1	3	3	3	7	4	0	0	0	0	4	3
092812	14:46:42	10013	Trial	CongruentRight	14	205	254	1	113	14:46:42	2285485	5	3	3	3	3	1	3	3	3	7	4	0	0	0	0	4	3
092812	14:46:42	10013	Trial	ResponseCL	14	0	162	0	113	14:46:42	2286897	5	3	3	3	3	1	3	3	3	7	4	0	0	0	0	4	3
092812	14:46:42	10013	Trial	CongruentLeft	14	203	209	1	113	14:46:42	2287133	5	3	3	3	3	1	3	3	3	7	4	0	0	0	0	4	3
092812	14:46:42	10013	Trial	ResponseIR	14	0	162	0	113	14:46:42	2288590	5	3	3	3	3	1	3	3	3	7	4	0	0	0	0	4	3
092812	14:46:42	10013	Trial	IncongruentRight	14	205	292	1	113	14:46:42	2288909	5	3	3	3	3	1	3	3	3	7	4	0	0	0	0	4	3
092812	14:46:42	10013	Trial	ResponseIL	14	0	162	0	113	14:46:42	2290283	5	3	3	3	3	1	3	3	3	7	4	0	0	0	0	4	3
092812	14:46:42	10013	Trial	IncongruentLeft	14	203	264	1	113	14:46:42	2290573	5	3	3	3	3	1	3	3	3	7	4	0	0	0	0	4	3
092812	14:46:42	10013	Trial	ResponseIR	14	0	162	0	113	14:46:42	2291975	5	3	3	3	3	1	3	3	3	7	4	0	0	0	0	4	3
092812	14:46:42	10013	Trial	IncongruentRight	14	205	283	1	113	14:46:42	2292285	5	3	3	3	3	1	3	3	3	7	4	0	0	0	0	4	3
092812	14:46:42	10013	Trial	ResponseCR	14	0	162	0	113	14:46:42	2293668	5	3	3	3	3	1	3	3	3	7	4	0	0	0	0	4	3
092812	14:46:42	10013	Trial	CongruentRight	14	205	318	1	113	14:46:42	2294013	5	3	3	3	3	1	3	3	3	7	4	0	0	0	0	4	3
092812	14:46:42	10013	Trial	ResponseIL	14	0	162	0	113	14:46:42	2295361	5	3	3	3	3	1	3	3	3	7	4	0	0	0	0	4	3
092812	14:46:42	10013	Trial	IncongruentLeft	14	203	305	1	113	14:46:42	2295693	5	3	3	3	3	1	3	3	3	7	4	0	0	0	0	4	3
092812	14:46:42	10013	Trial	ResponseCL	14	0	162	0	113	14:46:42	2297054	5	3	3	3	3	1	3	3	3	7	4	0	0	0	0	4	3
092812	14:46:42	10013	Trial	CongruentLeft	14	203	421	1	113	14:46:42	2297501	5	3	3	3	3	1	3	3	3	7	4	0	0	0	0	4	3
092812	14:46:42	10013	Trial	ResponseCR	14	0	162	0	113	14:46:42	2298746	5	3	3	3	3	1	3	3	3	7	4	0	0	0	0	4	3
092812	14:46:42	10013	Trial	CongruentRight	14	205	232	1	113	14:46:42	2299005	5	3	3	3	3	1	3	3	3	7	4	0	0	0	0	4	3
092812	14:46:42	10013	Trial	ResponseIL	14	0	162	0	113	14:46:42	2300439	5	3	3	3	3	1	3	3	3	7	4	0	0	0	0	4	3
092812	14:46:42	10013	Trial	IncongruentLeft	14	203	283	1	113	14:46:42	2300749	5	3	3	3	3	1	3	3	3	7	4	0	0	0	0	4	3
092812	14:46:42	10013	Trial	ResponseIR	14	0	162	0	113	14:46:42	2302145	5	3	3	3	3	1	3	3	3	7	4	0	0	0	0	4	3
092812	14:46:42	10013	Trial	IncongruentRight	14	205	337	1	113	14:46:42	2302509	5	3	3	3	3	1	3	3	3	7	4	0	0	0	0	4	3
092812	14:46:42	10013	Trial	ResponseIR	14	0	162	0	113	14:46:42	2303837	5	3	3	3	3	1	3	3	3	7	4	0	0	0	0	4	3
092812	14:46:42	10013	Trial	IncongruentRight	14	205	373	1	113	14:46:42	2304237	5	3	3	3	3	1	3	3	3	7	4	0	0	0	0	4	3
092812	14:46:42	10013	Trial	ResponseCL	14	0	162	0	113	14:46:42	2305530	5	3	3	3	3	1	3	3	3	7	4	0	0	0	0	4	3
092812	14:46:42	10013	Trial	CongruentLeft	14	203	280	1	113	14:46:42	2305837	5	3	3	3	3	1	3	3	3	7	4	0	0	0	0	4	3
092812	14:46:42	10013	Trial	ResponseIL	14	0	162	0	113	14:46:42	2307223	5	3	3	3	3	1	3	3	3	7	4	0	0	0	0	4	3
092812	14:46:42	10013	Trial	IncongruentLeft	14	203	411	1	113	14:46:42	2307661	5	3	3	3	3	1	3	3	3	7	4	0	0	0	0	4	3
092812	14:46:42	10013	Trial	ResponseCR	14	0	162	0	113	14:46:42	2308915	5	3	3	3	3	1	3	3	3	7	4	0	0	0	0	4	3
092812	14:46:42	10013	Trial	CongruentRight	14	205	271	1	113	14:46:42	2309213	5	3	3	3	3	1	3	3	3	7	4	0	0	0	0	4	3
092812	14:46:42	10013	Trial	ResponseCL	14	0	162	0	113	14:46:42	2310608	5	3	3	3	3	1	3	3	3	7	4	0	0	0	0	4	3
092812	14:46:42	10013	Trial	CongruentLeft	14	203	194	1	113	14:46:42	2310829	5	3	3	3	3	1	3	3	3	7	4	0	0	0	0	4	3
092812	14:46:42	10013	Trial	ResponseIR	14	0	162	0	113	14:46:42	2312301	5	3	3	3	3	1	3	3	3	7	4	0	0	0	0	4	3
092812	14:46:42	10013	Trial	IncongruentRight	14	205	374	1	113	14:46:42	2312701	5	3	3	3	3	1	3	3	3	7	4	0	0	0	0	4	3
092812	14:46:42	10013	Trial	ResponseCR	14	0	162	0	113	14:46:42	2313993	5	3	3	3	3	1	3	3	3	7	4	0	0	0	0	4	3
092812	14:46:42	10013	Trial	CongruentRight	14	205	329	1	113	14:46:42	2314349	5	3	3	3	3	1	3	3	3	7	4	0	0	0	0	4	3
092812	14:46:42	10013	Trial	ResponseIL	14	0	162	0	113	14:46:42	2315686	5	3	3	3	3	1	3	3	3	7	4	0	0	0	0	4	3
092812	14:46:42	10013	Trial	IncongruentLeft	14	203	284	1	113	14:46:42	2315997	5	3	3	3	3	1	3	3	3	7	4	0	0	0	0	4	3
092812	14:46:42	10013	Trial	ResponseCL	14	0	162	0	113	14:46:42	2317379	5	3	3	3	3	1	3	3	3	7	4	0	0	0	0	4	3
092812	14:46:42	10013	Trial	CongruentLeft	14	203	415	1	113	14:46:42	2317821	5	3	3	3	3	1	3	3	3	7	4	0	0	0	0	4	3
092812	14:46:42	10013	Trial	ResponseIL	14	0	162	0	113	14:46:42	2319071	5	3	3	3	3	1	3	3	3	7	4	0	0	0	0	4	3
092812	14:46:42	10013	Trial	IncongruentLeft	14	203	435	1	113	14:46:42	2319533	5	3	3	3	3	1	3	3	3	7	4	0	0	0	0	4	3
092812	14:46:42	10013	Trial	ResponseIR	14	0	162	0	113	14:46:42	2320764	5	3	3	3	3	1	3	3	3	7	4	0	0	0	0	4	3
092812	14:46:42	10013	Trial	IncongruentRight	14	205	358	1	113	14:46:42	2321149	5	3	3	3	3	1	3	3	3	7	4	0	0	0	0	4	3
092812	14:46:42	10013	Trial	ResponseCR	14	0	162	0	113	14:46:42	2322457	5	3	3	3	3	1	3	3	3	7	4	0	0	0	0	4	3
092812	14:46:42	10013	Trial	CongruentRight	14	205	329	1	113	14:46:42	2322813	5	3	3	3	3	1	3	3	3	7	4	0	0	0	0	4	3
092812	14:46:42	10013	Trial	ResponseCL	14	0	162	0	113	14:46:42	2324150	5	3	3	3	3	1	3	3	3	7	4	0	0	0	0	4	3
092812	14:46:42	10013	Trial	CongruentLeft	14	203	252	1	113	14:46:42	2324428	5	3	3	3	3	1	3	3	3	7	4	0	0	0	0	4	3
092812	14:46:42	10013	Trial	ResponseCL	14	0	162	0	113	14:46:42	2325842	5	3	3	3	3	1	3	3	3	7	4	0	0	0	0	4	3
092812	14:46:42	10013	Trial	CongruentLeft	14	203	352	1	113	14:46:42	2326221	5	3	3	3	3	1	3	3	3	7	4	0	0	0	0	4	3
092812	14:46:42	10013	Trial	ResponseIR	14	0	162	0	113	14:46:42	2327535	5	3	3	3	3	1	3	3	3	7	4	0	0	0	0	4	3
092812	14:46:42	10013	Trial	IncongruentRight	14	205	339	1	113	14:46:42	2327901	5	3	3	3	3	1	3	3	3	7	4	0	0	0	0	4	3
092812	14:46:42	10013	Trial	ResponseIL	14	0	162	0	113	14:46:42	2329227	5	3	3	3	3	1	3	3	3	7	4	0	0	0	0	4	3
092812	14:46:42	10013	Trial	IncongruentLeft	14	203	311	1	113	14:46:42	2329564	5	3	3	3	3	1	3	3	3	7	4	0	0	0	0	4	3
092812	14:46:42	10013	Trial	ResponseIR	14	0	162	0	113	14:46:42	2330920	5	3	3	3	3	1	3	3	3	7	4	0	0	0	0	4	3
092812	14:46:42	10013	Trial	IncongruentRight	14	205	362	1	113	14:46:42	2331309	5	3	3	3	3	1	3	3	3	7	4	0	0	0	0	4	3
092812	14:46:42	10013	Trial	ResponseCR	14	0	162	0	113	14:46:42	2332626	5	3	3	3	3	1	3	3	3	7	4	0	0	0	0	4	3
092812	14:46:42	10013	Trial	CongruentRight	14	205	304	1	113	14:46:42	2332956	5	3	3	3	3	1	3	3	3	7	4	0	0	0	0	4	3
092812	14:46:42	10013	Trial	ResponseCR	14	0	162	0	113	14:46:42	2334319	5	3	3	3	3	1	3	3	3	7	4	0	0	0	0	4	3
092812	14:46:42	10013	Trial	CongruentRight	14	205	291	1	113	14:46:42	2334636	5	3	3	3	3	1	3	3	3	7	4	0	0	0	0	4	3
092812	14:46:42	10013	Trial	ResponseIL	14	0	162	0	113	14:46:42	2336011	5	3	3	3	3	1	3	3	3	7	4	0	0	0	0	4	3
092812	14:46:42	10013	Trial	IncongruentLeft	14	203	454	1	113	14:46:42	2336492	5	3	3	3	3	1	3	3	3	7	4	0	0	0	0	4	3
092812	14:46:42	10013	Trial	ResponseCL	14	0	162	0	113	14:46:42	2337704	5	3	3	3	3	1	3	3	3	7	4	0	0	0	0	4	3
092812	14:46:42	10013	Trial	CongruentLeft	14	203	394	1	113	14:46:42	2338124	5	3	3	3	3	1	3	3	3	7	4	0	0	0	0	4	3
092812	14:46:42	10013	Trial	ResponseCR	14	0	162	0	113	14:46:42	2339410	5	3	3	3	3	1	3	3	3	7	4	0	0	0	0	4	3
092812	14:46:42	10013	Trial	CongruentRight	14	205	304	1	113	14:46:42	2339740	5	3	3	3	3	1	3	3	3	7	4	0	0	0	0	4	3
092812	14:46:42	10013	Trial	ResponseCL	14	0	162	0	113	14:46:42	2341116	5	3	3	3	3	1	3	3	3	7	4	0	0	0	0	4	3
092812	14:46:42	10013	Trial	CongruentLeft	14	203	278	1	113	14:46:42	2341420	5	3	3	3	3	1	3	3	3	7	4	0	0	0	0	4	3
092812	14:46:42	10013	Trial	ResponseIR	14	0	162	0	113	14:46:42	2342809	5	3	3	3	3	1	3	3	3	7	4	0	0	0	0	4	3
092812	14:46:42	10013	Trial	IncongruentRight	14	205	313	1	113	14:46:42	2343148	5	3	3	3	3	1	3	3	3	7	4	0	0	0	0	4	3
092812	14:46:42	10013	Trial	ResponseCR	14	0	162	0	113	14:46:42	2344501	5	3	3	3	3	1	3	3	3	7	4	0	0	0	0	4	3
092812	14:46:42	10013	Trial	CongruentRight	14	205	268	1	113	14:46:42	2344796	5	3	3	3	3	1	3	3	3	7	4	0	0	0	0	4	3
092812	14:46:42	10013	Trial	ResponseCL	14	0	162	0	113	14:46:42	2346194	5	3	3	3	3	1	3	3	3	7	4	0	0	0	0	4	3
092812	14:46:42	10013	Trial	CongruentLeft	14	203	255	1	113	14:46:42	2346476	5	3	3	3	3	1	3	3	3	7	4	0	0	0	0	4	3
092812	14:46:42	10013	Trial	ResponseIL	14	0	162	0	113	14:46:42	2347887	5	3	3	3	3	1	3	3	3	7	4	0	0	0	0	4	3
092812	14:46:42	10013	Trial	IncongruentLeft	14	203	451	1	113	14:46:42	2348364	5	3	3	3	3	1	3	3	3	7	4	0	0	0	0	4	3
092812	14:46:42	10013	Trial	ResponseIL	14	0	162	0	113	14:46:42	2349580	5	3	3	3	3	1	3	3	3	7	4	0	0	0	0	4	3
092812	14:46:42	10013	Trial	IncongruentLeft	14	203	422	1	113	14:46:42	2350028	5	3	3	3	3	1	3	3	3	7	4	0	0	0	0	4	3
092812	14:46:42	10013	Trial	ResponseCR	14	0	162	0	113	14:46:42	2351272	5	3	3	3	3	1	3	3	3	7	4	0	0	0	0	4	3
092812	14:46:42	10013	Trial	CongruentRight	14	205	233	1	113	14:46:42	2351532	5	3	3	3	3	1	3	3	3	7	4	0	0	0	0	4	3
092812	14:46:42	10013	Trial	ResponseIR	14	0	162	0	113	14:46:42	2352965	5	3	3	3	3	1	3	3	3	7	4	0	0	0	0	4	3
092812	14:46:42	10013	Trial	IncongruentRight	14	205	397	1	113	14:46:42	2353388	5	3	3	3	3	1	3	3	3	7	4	0	0	0	0	4	3
092812	14:46:42	10013	Trial	ResponseCL	14	0	162	0	113	14:46:42	2354658	5	3	3	3	3	1	3	3	3	7	4	0	0	0	0	4	3
092812	14:46:42	10013	Trial	CongruentLeft	14	203	304	1	113	14:46:42	2354988	5	3	3	3	3	1	3	3	3	7	4	0	0	0	0	4	3
092812	14:46:42	10013	Trial	ResponseIR	14	0	162	0	113	14:46:42	2356350	5	3	3	3	3	1	3	3	3	7	4	0	0	0	0	4	3
092812	14:46:42	10013	Trial	IncongruentRight	14	205	291	1	113	14:46:42	2356668	5	3	3	3	3	1	3	3	3	7	4	0	0	0	0	4	3
092812	14:46:42	10013	Trial	ResponseCR	14	0	162	0	113	14:46:42	2358043	5	3	3	3	3	1	3	3	3	7	4	0	0	0	0	4	3
092812	14:46:42	10013	Trial	CongruentRight	14	205	391	1	113	14:46:42	2358460	5	3	3	3	3	1	3	3	3	7	4	0	0	0	0	4	3
092812	14:46:42	10013	Trial	ResponseIL	14	0	162	0	113	14:46:42	2359736	5	3	3	3	3	1	3	3	3	7	4	0	0	0	0	4	3
092812	14:46:42	10013	Trial	IncongruentLeft	14	203	330	1	113	14:46:42	2360092	5	3	3	3	3	1	3	3	3	7	4	0	0	0	0	4	3
092812	14:46:42	10013	Trial	ResponseCL	14	0	162	0	113	14:46:42	2361428	5	3	3	3	3	1	3	3	3	7	4	0	0	0	0	4	3
092812	14:46:42	10013	Trial	CongruentLeft	14	203	445	1	113	14:46:42	2361900	5	3	3	3	3	1	3	3	3	7	4	0	0	0	0	4	3
092812	14:46:42	10013	Trial	ResponseCR	14	0	162	0	113	14:46:42	2363134	5	3	3	3	3	1	3	3	3	7	4	0	0	0	0	4	3
092812	14:46:42	10013	Trial	CongruentRight	14	205	275	1	113	14:46:42	2363436	5	3	3	3	3	1	3	3	3	7	4	0	0	0	0	4	3
092812	14:46:42	10013	Trial	ResponseIL	14	0	162	0	113	14:46:42	2364827	5	3	3	3	3	1	3	3	3	7	4	0	0	0	0	4	3
092812	14:46:42	10013	Trial	IncongruentLeft	14	203	263	1	113	14:46:42	2365116	5	3	3	3	3	1	3	3	3	7	4	0	0	0	0	4	3
092812	14:46:42	10013	Trial	ResponseCR	14	0	162	0	113	14:46:42	2366520	5	3	3	3	3	1	3	3	3	7	4	0	0	0	0	4	3
092812	14:46:42	10013	Trial	CongruentRight	14	205	218	1	113	14:46:42	2366764	5	3	3	3	3	1	3	3	3	7	4	0	0	0	0	4	3
092812	14:46:42	10013	Trial	ResponseCR	14	0	162	0	113	14:46:42	2368212	5	3	3	3	3	1	3	3	3	7	4	0	0	0	0	4	3
092812	14:46:42	10013	Trial	CongruentRight	14	205	333	1	113	14:46:42	2368572	5	3	3	3	3	1	3	3	3	7	4	0	0	0	0	4	3
092812	14:46:42	10013	Trial	ResponseIR	14	0	162	0	113	14:46:42	2369905	5	3	3	3	3	1	3	3	3	7	4	0	0	0	0	4	3
092812	14:46:42	10013	Trial	IncongruentRight	14	205	497	1	113	14:46:42	2370428	5	3	3	3	3	1	3	3	3	7	4	0	0	0	0	4	3
092812	14:46:42	10013	Trial	ResponseCL	14	0	162	0	113	14:46:42	2371611	5	3	3	3	3	1	3	3	3	7	4	0	0	0	0	4	3
092812	14:46:42	10013	Trial	CongruentLeft	14	203	263	1	113	14:46:42	2371900	5	3	3	3	3	1	3	3	3	7	4	0	0	0	0	4	3
092812	14:46:42	10013	Trial	ResponseIL	14	0	162	0	113	14:46:42	2373304	5	3	3	3	3	1	3	3	3	7	4	0	0	0	0	4	3
092812	14:46:42	10013	Trial	IncongruentLeft	14	203	490	1	113	14:46:42	2373820	5	3	3	3	3	1	3	3	3	7	4	0	0	0	0	4	3
092812	14:46:42	10013	Trial	ResponseCL	14	0	162	0	113	14:46:42	2374996	5	3	3	3	3	1	3	3	3	7	4	0	0	0	0	4	3
092812	14:46:42	10013	Trial	CongruentLeft	14	203	477	1	113	14:46:42	2375500	5	3	3	3	3	1	3	3	3	7	4	0	0	0	0	4	3
092812	14:46:42	10013	Trial	ResponseIR	14	0	162	0	113	14:46:42	2376689	5	3	3	3	3	1	3	3	3	7	4	0	0	0	0	4	3
092812	14:46:42	10013	Trial	IncongruentRight	14	205	385	1	113	14:46:42	2377100	5	3	3	3	3	1	3	3	3	7	4	0	0	0	0	4	3
092812	14:46:42	10013	Trial	ResponseIL	14	0	162	0	113	14:46:42	2378382	5	3	3	3	3	1	3	3	3	7	4	0	0	0	0	4	3
092812	14:46:42	10013	Trial	IncongruentLeft	14	203	292	1	113	14:46:42	2378700	5	3	3	3	3	1	3	3	3	7	4	0	0	0	0	4	3
092812	14:46:42	10013	Trial	ResponseCR	14	0	162	0	113	14:46:42	2380074	5	3	3	3	3	1	3	3	3	7	4	0	0	0	0	4	3
092812	14:46:42	10013	Trial	CongruentRight	14	205	231	1	113	14:46:42	2380332	5	3	3	3	3	1	3	3	3	7	4	0	0	0	0	4	3
092812	14:46:42	10013	Trial	ResponseCL	14	0	162	0	113	14:46:42	2381767	5	3	3	3	3	1	3	3	3	7	4	0	0	0	0	4	3
092812	14:46:42	10013	Trial	CongruentLeft	14	203	298	1	113	14:46:42	2382092	5	3	3	3	3	1	3	3	3	7	4	0	0	0	0	4	3
092812	14:46:42	10013	Trial	ResponseIL	14	0	162	0	113	14:46:42	2383459	5	3	3	3	3	1	3	3	3	7	4	0	0	0	0	4	3
092812	14:46:42	10013	Trial	IncongruentLeft	14	203	494	1	113	14:46:42	2383980	5	3	3	3	3	1	3	3	3	7	4	0	0	0	0	4	3
092812	14:46:42	10013	Trial	ResponseCL	14	0	162	0	113	14:46:42	2385152	5	3	3	3	3	1	3	3	3	7	4	0	0	0	0	4	3
092812	14:46:42	10013	Trial	CongruentLeft	14	203	401	1	113	14:46:42	2385580	5	3	3	3	3	1	3	3	3	7	4	0	0	0	0	4	3
092812	14:46:42	10013	Trial	ResponseIR	14	0	162	0	113	14:46:42	2386845	5	3	3	3	3	1	3	3	3	7	4	0	0	0	0	4	3
092812	14:46:42	10013	Trial	IncongruentRight	14	205	324	1	113	14:46:42	2387196	5	3	3	3	3	1	3	3	3	7	4	0	0	0	0	4	3
092812	14:46:42	10013	Trial	ResponseCR	14	0	162	0	113	14:46:42	2388538	5	3	3	3	3	1	3	3	3	7	4	0	0	0	0	4	3
092812	14:46:42	10013	Trial	CongruentRight	14	205	296	1	113	14:46:42	2388860	5	3	3	3	3	1	3	3	3	7	4	0	0	0	0	4	3
092812	14:46:42	10013	Trial	ResponseIL	14	0	162	0	113	14:46:42	2390230	5	3	3	3	3	1	3	3	3	7	4	0	0	0	0	4	3
092812	14:46:42	10013	Trial	IncongruentLeft	14	203	251	1	113	14:46:42	2390508	5	3	3	3	3	1	3	3	3	7	4	0	0	0	0	4	3
092812	14:46:42	10013	Trial	ResponseCL	14	0	162	0	113	14:46:42	2391923	5	3	3	3	3	1	3	3	3	7	4	0	0	0	0	4	3
092812	14:46:42	10013	Trial	CongruentLeft	14	203	334	1	113	14:46:42	2392284	5	3	3	3	3	1	3	3	3	7	4	0	0	0	0	4	3
092812	14:46:42	10013	Trial	ResponseIR	14	0	162	0	113	14:46:42	2393629	5	3	3	3	3	1	3	3	3	7	4	0	0	0	0	4	3
092812	14:46:42	10013	Trial	IncongruentRight	14	205	356	1	113	14:46:42	2394012	5	3	3	3	3	1	3	3	3	7	4	0	0	0	0	4	3
092812	14:46:42	10013	Trial	ResponseIL	14	0	162	0	113	14:46:42	2395322	5	3	3	3	3	1	3	3	3	7	4	0	0	0	0	4	3
092812	14:46:42	10013	Trial	IncongruentLeft	14	203	280	1	113	14:46:42	2395628	5	3	3	3	3	1	3	3	3	7	4	0	0	0	0	4	3
092812	14:46:42	10013	Trial	ResponseCL	14	0	162	0	113	14:46:42	2397014	5	3	3	3	3	1	3	3	3	7	4	0	0	0	0	4	3
092812	14:46:42	10013	Trial	CongruentLeft	14	203	331	1	113	14:46:42	2397372	5	3	3	3	3	1	3	3	3	7	4	0	0	0	0	4	3
092812	14:46:42	10013	Trial	ResponseIL	14	0	162	0	113	14:46:42	2398707	5	3	3	3	3	1	3	3	3	7	4	0	0	0	0	4	3
092812	14:46:42	10013	Trial	IncongruentLeft	14	203	430	1	113	14:46:42	2399164	5	3	3	3	3	1	3	3	3	7	4	0	0	0	0	4	3
092812	14:46:42	10013	Trial	ResponseCR	14	0	162	0	113	14:46:42	2400400	5	3	3	3	3	1	3	3	3	7	4	0	0	0	0	4	3
092812	14:46:42	10013	Trial	CongruentRight	14	205	242	1	113	14:46:42	2400668	5	3	3	3	3	1	3	3	3	7	4	0	0	0	0	4	3
092812	14:46:42	10013	Trial	ResponseCL	14	0	162	0	113	14:46:42	2402105	5	3	3	3	3	1	3	3	3	7	4	0	0	0	0	4	3
092812	14:46:42	10013	Trial	CongruentLeft	14	203	345	1	113	14:46:42	2402477	5	3	3	3	3	1	3	3	3	7	4	0	0	0	0	4	3
092812	14:46:42	10013	Trial	ResponseIR	14	0	162	0	113	14:46:42	2403812	5	3	3	3	3	1	3	3	3	7	4	0	0	0	0	4	3
092812	14:46:42	10013	Trial	IncongruentRight	14	205	349	1	113	14:46:42	2404188	5	3	3	3	3	1	3	3	3	7	4	0	0	0	0	4	3
092812	14:46:42	10013	Trial	ResponseCL	14	0	162	0	113	14:46:42	2405504	5	3	3	3	3	1	3	3	3	7	4	0	0	0	0	4	3
092812	14:46:42	10013	Trial	CongruentLeft	14	203	289	1	113	14:46:42	2405820	5	3	3	3	3	1	3	3	3	7	4	0	0	0	0	4	3
092812	14:46:42	10013	Trial	ResponseCR	14	0	162	0	113	14:46:42	2407197	5	3	3	3	3	1	3	3	3	7	4	0	0	0	0	4	3
092812	14:46:42	10013	Trial	CongruentRight	14	205	164	1	113	14:46:42	2407388	5	3	3	3	3	1	3	3	3	7	4	0	0	0	0	4	3
092812	14:46:42	10013	Trial	ResponseIL	14	0	162	0	113	14:46:42	2408890	5	3	3	3	3	1	3	3	3	7	4	0	0	0	0	4	3
092812	14:46:42	10013	Trial	IncongruentLeft	14	203	279	1	113	14:46:42	2409195	5	3	3	3	3	1	3	3	3	7	4	0	0	0	0	4	3
092812	14:46:42	10013	WordsAbsEngThreemo	PAbsEngThreemo1	16	Abs1	3034	0	113	14:46:42	2421605	5	3	3	3	3	1	3	3	3	7	4	0	0	0	0	4	3
092812	14:46:42	10013	WordsAbsEngThreemo	AbsEngThreemo1	16	Abs1	2667	0	113	14:46:42	2424310	5	3	3	3	3	1	3	3	3	7	4	1	0	0	0	4	3
092812	14:46:42	10013	WordsAbsEngThreemo	AbsEngThreemo2	16	Abs1	7674	0	113	14:46:42	2432027	5	3	3	3	3	1	3	3	3	7	4	2	0	0	0	4	3
092812	14:46:42	10013	WordsAbsEngThreemo	AbsEngThreemo3	16	Abs2	28365	0	113	14:46:42	2460429	5	3	3	3	3	1	3	3	3	7	4	2	0	0	0	4	3
092812	14:46:42	10013	Trial2BackEngS	NS	17	0	1000	1	113	14:46:42	2571399	5	3	3	3	3	1	3	3	3	7	4	2	0	0	0	4	3
092812	14:46:42	10013	Trial2BackEngS	NS	17	0	1000	1	113	14:46:42	2572918	5	3	3	3	3	1	3	3	3	7	4	2	0	0	0	4	3
092812	14:46:42	10013	Trial2BackEngS	NS	17	0	1000	1	113	14:46:42	2574438	5	3	3	3	3	1	3	3	3	7	4	2	0	0	0	4	3
092812	14:46:42	10013	Trial2BackEngS	YS	17	57	508	1	113	14:46:42	2575477	5	3	3	3	3	1	3	3	3	7	4	2	0	0	0	4	3
092812	14:46:42	10013	Trial2BackEngS	NS	17	0	1000	1	113	14:46:42	2577463	5	3	3	3	3	1	3	3	3	7	4	2	0	0	0	4	3
092812	14:46:42	10013	Trial2BackEngS	NS	17	57	443	0	113	14:46:42	2578436	5	3	3	3	3	1	3	3	3	7	4	2	0	0	0	4	3
092812	14:46:42	10013	Trial2BackEngS	NS	17	0	1000	1	113	14:46:42	2580489	5	3	3	3	3	1	3	3	3	7	4	2	0	0	0	4	3
092812	14:46:42	10013	Trial2BackEngS	NS	17	0	1000	1	113	14:46:42	2582008	5	3	3	3	3	1	3	3	3	7	4	2	0	0	0	4	3
092812	14:46:42	10013	Trial2BackEngS	YS	17	57	426	1	113	14:46:42	2582968	5	3	3	3	3	1	3	3	3	7	4	2	0	0	0	4	3
092812	14:46:42	10013	Trial2BackEngS	NS	17	0	1000	1	113	14:46:42	2585033	5	3	3	3	3	1	3	3	3	7	4	2	0	0	0	4	3
092812	14:46:42	10013	Trial2BackEngS	NS	17	0	1000	1	113	14:46:42	2586553	5	3	3	3	3	1	3	3	3	7	4	2	0	0	0	4	3
092812	14:46:42	10013	Trial2BackEngS	YS	17	0	1000	0	113	14:46:42	2588072	5	3	3	3	3	1	3	3	3	7	4	2	0	0	0	4	3
092812	14:46:42	10013	Trial2BackEngS	NS	17	0	1000	1	113	14:46:42	2589592	5	3	3	3	3	1	3	3	3	7	4	2	0	0	0	4	3
092812	14:46:42	10013	Trial2BackEngS	NS	17	0	1000	1	113	14:46:42	2591111	5	3	3	3	3	1	3	3	3	7	4	2	0	0	0	4	3
092812	14:46:42	10013	Trial2BackEngS	NS	17	57	923	0	113	14:46:42	2592564	5	3	3	3	3	1	3	3	3	7	4	2	0	0	0	4	3
092812	14:46:42	10013	Trial2BackEngS	YS	17	57	936	1	113	14:46:42	2594083	5	3	3	3	3	1	3	3	3	7	4	2	0	0	0	4	3
092812	14:46:42	10013	Trial2BackEngS	NS	17	0	1000	1	113	14:46:42	2595629	5	3	3	3	3	1	3	3	3	7	4	2	0	0	0	4	3
092812	14:46:42	10013	Trial2BackEngS	NS	17	0	1000	1	113	14:46:42	2597149	5	3	3	3	3	1	3	3	3	7	4	2	0	0	0	4	3
092812	14:46:42	10013	Trial2BackEngS	NS	17	0	1000	1	113	14:46:42	2598668	5	3	3	3	3	1	3	3	3	7	4	2	0	0	0	4	3
092812	14:46:42	10013	Trial2BackEngS	NS	17	0	1000	1	113	14:46:42	2600187	5	3	3	3	3	1	3	3	3	7	4	2	0	0	0	4	3
092812	14:46:42	10013	Trial2BackEngS	YS	17	57	470	1	113	14:46:42	2601187	5	3	3	3	3	1	3	3	3	7	4	2	0	0	0	4	3
092812	14:46:42	10013	Trial2BackEngS	NS	17	0	1000	1	113	14:46:42	2603213	5	3	3	3	3	1	3	3	3	7	4	2	0	0	0	4	3
092812	14:46:42	10013	Trial2BackEngS	NS	17	0	1000	1	113	14:46:42	2604732	5	3	3	3	3	1	3	3	3	7	4	2	0	0	0	4	3
092812	14:46:42	10013	Trial2BackEngS	NS	17	0	1000	1	113	14:46:42	2606252	5	3	3	3	3	1	3	3	3	7	4	2	0	0	0	4	3
092812	14:46:42	10013	Trial2BackEngS	NS	17	0	1000	1	113	14:46:42	2607771	5	3	3	3	3	1	3	3	3	7	4	2	0	0	0	4	3
092812	14:46:42	10013	Trial2BackEngS	NS	17	0	1000	1	113	14:46:42	2609290	5	3	3	3	3	1	3	3	3	7	4	2	0	0	0	4	3
092812	14:46:42	10013	Trial2BackEngS	NS	17	0	1000	1	113	14:46:42	2610824	5	3	3	3	3	1	3	3	3	7	4	2	0	0	0	4	3
092812	14:46:42	10013	Trial2BackEngS	NS	17	0	1000	1	113	14:46:42	2612343	5	3	3	3	3	1	3	3	3	7	4	2	0	0	0	4	3
092812	14:46:42	10013	Trial2BackEngS	NS	17	57	714	0	113	14:46:42	2613582	5	3	3	3	3	1	3	3	3	7	4	2	0	0	0	4	3
092812	14:46:42	10013	Trial2BackEngS	NS	17	0	1000	1	113	14:46:42	2615368	5	3	3	3	3	1	3	3	3	7	4	2	0	0	0	4	3
092812	14:46:42	10013	Trial2BackEngS	NS	17	0	1000	1	113	14:46:42	2616888	5	3	3	3	3	1	3	3	3	7	4	2	0	0	0	4	3
092812	14:46:42	10013	Trial2BackEngS	YS	17	0	1000	0	113	14:46:42	2618407	5	3	3	3	3	1	3	3	3	7	4	2	0	0	0	4	3
092812	14:46:42	10013	Trial2BackEngS	NS	17	0	1000	1	113	14:46:42	2619926	5	3	3	3	3	1	3	3	3	7	4	2	0	0	0	4	3
092812	14:46:42	10013	Trial2BackEngS	NS	17	57	507	0	113	14:46:42	2620966	5	3	3	3	3	1	3	3	3	7	4	2	0	0	0	4	3
092812	14:46:42	10013	Trial2BackEngS	NS	17	0	1000	1	113	14:46:42	2622952	5	3	3	3	3	1	3	3	3	7	4	2	0	0	0	4	3
092812	14:46:42	10013	Trial2BackEngS	YS	17	57	777	1	113	14:46:42	2624258	5	3	3	3	3	1	3	3	3	7	4	2	0	0	0	4	3
092812	14:46:42	10013	Trial2BackEngS	NS	17	0	1000	1	113	14:46:42	2625977	5	3	3	3	3	1	3	3	3	7	4	2	0	0	0	4	3
092812	14:46:42	10013	Trial2BackEngS	NS	17	0	1000	1	113	14:46:42	2627497	5	3	3	3	3	1	3	3	3	7	4	2	0	0	0	4	3
092812	14:46:42	10013	Trial2BackEngS	NS	17	0	1000	1	113	14:46:42	2629016	5	3	3	3	3	1	3	3	3	7	4	2	0	0	0	4	3
092812	14:46:42	10013	Trial2BackEngS	NS	17	0	1000	1	113	14:46:42	2630535	5	3	3	3	3	1	3	3	3	7	4	2	0	0	0	4	3
092812	14:46:42	10013	Trial2BackEngS	NS	17	0	1000	1	113	14:46:42	2632055	5	3	3	3	3	1	3	3	3	7	4	2	0	0	0	4	3
092812	14:46:42	10013	Trial2BackEngS	NS	17	0	1000	1	113	14:46:42	2633574	5	3	3	3	3	1	3	3	3	7	4	2	0	0	0	4	3
092812	14:46:42	10013	Trial2BackEngS	NS	17	57	507	0	113	14:46:42	2634614	5	3	3	3	3	1	3	3	3	7	4	2	0	0	0	4	3
092812	14:46:42	10013	Trial2BackEngS	YS	17	57	904	1	113	14:46:42	2636506	5	3	3	3	3	1	3	3	3	7	4	2	0	0	0	4	3
092812	14:46:42	10013	Trial2BackEngS	NS	17	0	1000	1	113	14:46:42	2638106	5	3	3	3	3	1	3	3	3	7	4	2	0	0	0	4	3
092812	14:46:42	10013	Trial2BackEngS	NS	17	0	1000	1	113	14:46:42	2639625	5	3	3	3	3	1	3	3	3	7	4	2	0	0	0	4	3
092812	14:46:42	10013	Trial2BackEngS	NS	17	0	1000	1	113	14:46:42	2641145	5	3	3	3	3	1	3	3	3	7	4	2	0	0	0	4	3
092812	14:46:42	10013	Trial2BackEngS	NS	17	0	1000	1	113	14:46:42	2642664	5	3	3	3	3	1	3	3	3	7	4	2	0	0	0	4	3
092812	14:46:42	10013	Trial2BackEngS	YS	17	57	425	1	113	14:46:42	2643610	5	3	3	3	3	1	3	3	3	7	4	2	0	0	0	4	3
092812	14:46:42	10013	Trial2BackEngS	NS	17	0	1000	1	113	14:46:42	2645689	5	3	3	3	3	1	3	3	3	7	4	2	0	0	0	4	3
092812	14:46:42	10013	Trial2BackEngS	NS	17	0	1000	1	113	14:46:42	2647209	5	3	3	3	3	1	3	3	3	7	4	2	0	0	0	4	3
092812	14:46:42	10013	Trial2BackEngS	NS	17	0	1000	1	113	14:46:42	2648728	5	3	3	3	3	1	3	3	3	7	4	2	0	0	0	4	3
092812	14:46:42	10013	Trial2BackEngS	NS	17	0	1000	1	113	14:46:42	2650248	5	3	3	3	3	1	3	3	3	7	4	2	0	0	0	4	3
092812	14:46:42	10013	Trial2BackEngS	NS	17	0	1000	1	113	14:46:42	2651767	5	3	3	3	3	1	3	3	3	7	4	2	0	0	0	4	3
092812	14:46:42	10013	Trial2BackEngS	NS	17	0	1000	1	113	14:46:42	2653286	5	3	3	3	3	1	3	3	3	7	4	2	0	0	0	4	3
092812	14:46:42	10013	Trial2BackEngS	YS	17	57	762	1	113	14:46:42	2654579	5	3	3	3	3	1	3	3	3	7	4	2	0	0	0	4	3
092812	14:46:42	10013	Trial2BackEngS	NS	17	0	1000	1	113	14:46:42	2656312	5	3	3	3	3	1	3	3	3	7	4	2	0	0	0	4	3
092812	14:46:42	10013	Trial2BackEngS	NS	17	0	1000	1	113	14:46:42	2657831	5	3	3	3	3	1	3	3	3	7	4	2	0	0	0	4	3
092812	14:46:42	10013	Trial2BackEngS	NS	17	0	1000	1	113	14:46:42	2659351	5	3	3	3	3	1	3	3	3	7	4	2	0	0	0	4	3
092812	14:46:42	10013	Trial2BackEngS	NS	17	0	1000	1	113	14:46:42	2660870	5	3	3	3	3	1	3	3	3	7	4	2	0	0	0	4	3
092812	14:46:42	10013	Trial2BackEngS	NS	17	0	1000	1	113	14:46:42	2662390	5	3	3	3	3	1	3	3	3	7	4	2	0	0	0	4	3
092812	14:46:42	10013	Trial2BackEngS	NS	17	0	1000	1	113	14:46:42	2663909	5	3	3	3	3	1	3	3	3	7	4	2	0	0	0	4	3
092812	14:46:42	10013	Trial2BackEngS	NS	17	0	1000	1	113	14:46:42	2665429	5	3	3	3	3	1	3	3	3	7	4	2	0	0	0	4	3
092812	14:46:42	10013	Trial2BackEngS	YS	17	57	540	1	113	14:46:42	2666495	5	3	3	3	3	1	3	3	3	7	4	2	0	0	0	4	3
092812	14:46:42	10013	Trial2BackEngS	NS	17	0	1000	1	113	14:46:42	2668454	5	3	3	3	3	1	3	3	3	7	4	2	0	0	0	4	3
092812	14:46:42	10013	Trial2BackEngS	NS	17	0	1000	1	113	14:46:42	2669973	5	3	3	3	3	1	3	3	3	7	4	2	0	0	0	4	3
092812	14:46:42	10013	Trial2BackEngS	NS	17	0	1000	1	113	14:46:42	2671493	5	3	3	3	3	1	3	3	3	7	4	2	0	0	0	4	3
092812	14:46:42	10013	Trial2BackEngS	NS	17	0	1000	1	113	14:46:42	2673012	5	3	3	3	3	1	3	3	3	7	4	2	0	0	0	4	3
092812	14:46:42	10013	Trial2BackEngS	YS	17	57	716	1	113	14:46:42	2674252	5	3	3	3	3	1	3	3	3	7	4	2	0	0	0	4	3
092812	14:46:42	10013	Trial2BackEngS	NS	17	0	1000	1	113	14:46:42	2676038	5	3	3	3	3	1	3	3	3	7	4	2	0	0	0	4	3
092812	14:46:42	10013	Trial2BackEngS	NS	17	0	1000	1	113	14:46:42	2677557	5	3	3	3	3	1	3	3	3	7	4	2	0	0	0	4	3
092812	14:46:42	10013	Trial2BackEngS	YS	17	57	411	1	113	14:46:42	2678490	5	3	3	3	3	1	3	3	3	7	4	2	0	0	0	4	3
092812	14:46:42	10013	Trial2BackEngS	NS	17	0	1000	1	113	14:46:42	2680582	5	3	3	3	3	1	3	3	3	7	4	2	0	0	0	4	3
092812	14:46:42	10013	Trial2BackEngS	NS	17	0	1000	1	113	14:46:42	2682102	5	3	3	3	3	1	3	3	3	7	4	2	0	0	0	4	3
092812	14:46:42	10013	Trial2BackEngS	NS	17	0	1000	1	113	14:46:42	2683621	5	3	3	3	3	1	3	3	3	7	4	2	0	0	0	4	3
092812	14:46:42	10013	Trial2BackEngS	NS	17	0	1000	1	113	14:46:42	2685141	5	3	3	3	3	1	3	3	3	7	4	2	0	0	0	4	3
092812	14:46:42	10013	Trial2BackEngS	NS	17	0	1000	1	113	14:46:42	2686660	5	3	3	3	3	1	3	3	3	7	4	2	0	0	0	4	3
092812	14:46:42	10013	Trial2BackEngS	NS	17	0	1000	1	113	14:46:42	2688179	5	3	3	3	3	1	3	3	3	7	4	2	0	0	0	4	3
092812	14:46:42	10013	Trial2BackEngS	YS	17	57	541	1	113	14:46:42	2689245	5	3	3	3	3	1	3	3	3	7	4	2	0	0	0	4	3
092812	14:46:42	10013	Trial2BackEngS	NS	17	0	1000	1	113	14:46:42	2691205	5	3	3	3	3	1	3	3	3	7	4	2	0	0	0	4	3
092812	14:46:42	10013	Trial2BackEngS	NS	17	0	1000	1	113	14:46:42	2692724	5	3	3	3	3	1	3	3	3	7	4	2	0	0	0	4	3
092812	14:46:42	10013	Trial2BackEngS	NS	17	0	1000	1	113	14:46:42	2694244	5	3	3	3	3	1	3	3	3	7	4	2	0	0	0	4	3
092812	14:46:42	10013	Trial2BackEngS	NS	17	0	1000	1	113	14:46:42	2695763	5	3	3	3	3	1	3	3	3	7	4	2	0	0	0	4	3
092812	14:46:42	10013	Trial2BackEngS	YS	17	57	397	1	113	14:46:42	2696683	5	3	3	3	3	1	3	3	3	7	4	2	0	0	0	4	3
092812	14:46:42	10013	Trial2BackEngS	NS	17	0	1000	1	113	14:46:42	2698789	5	3	3	3	3	1	3	3	3	7	4	2	0	0	0	4	3
092812	14:46:42	10013	Trial2BackEngS	NS	17	0	1000	1	113	14:46:42	2700308	5	3	3	3	3	1	3	3	3	7	4	2	0	0	0	4	3
092812	14:46:42	10013	Trial2BackEngS	NS	17	0	1000	1	113	14:46:42	2701827	5	3	3	3	3	1	3	3	3	7	4	2	0	0	0	4	3
092812	14:46:42	10013	Trial2BackEngS	NS	17	57	525	0	113	14:46:42	2702880	5	3	3	3	3	1	3	3	3	7	4	2	0	0	0	4	3
092812	14:46:42	10013	Trial2BackEngS	YS	17	0	1000	0	113	14:46:42	2704853	5	3	3	3	3	1	3	3	3	7	4	2	0	0	0	4	3
092812	14:46:42	10013	Trial2BackEngS	NS	17	0	1000	1	113	14:46:42	2706372	5	3	3	3	3	1	3	3	3	7	4	2	0	0	0	4	3
092812	14:46:42	10013	Trial2BackEngS	NS	17	0	1000	1	113	14:46:42	2707892	5	3	3	3	3	1	3	3	3	7	4	2	0	0	0	4	3
092812	14:46:42	10013	Trial2BackEngS	YS	17	57	428	1	113	14:46:42	2708851	5	3	3	3	3	1	3	3	3	7	4	2	0	0	0	4	3
092812	14:46:42	10013	Trial2BackEngS	NS	17	0	1000	1	113	14:46:42	2710917	5	3	3	3	3	1	3	3	3	7	4	2	0	0	0	4	3
092812	14:46:42	10013	Trial2BackEngS	NS	17	0	1000	1	113	14:46:42	2712436	5	3	3	3	3	1	3	3	3	7	4	2	0	0	0	4	3
092812	14:46:42	10013	Trial2BackEngS	NS	17	0	1000	1	113	14:46:42	2713956	5	3	3	3	3	1	3	3	3	7	4	2	0	0	0	4	3
092812	14:46:42	10013	Trial2BackEngS	NS	17	0	1000	1	113	14:46:42	2715475	5	3	3	3	3	1	3	3	3	7	4	2	0	0	0	4	3
092812	14:46:42	10013	Trial2BackEngS	NS	17	0	1000	1	113	14:46:42	2716995	5	3	3	3	3	1	3	3	3	7	4	2	0	0	0	4	3
092812	14:46:42	10013	Trial2BackEngS	NS	17	0	1000	1	113	14:46:42	2718514	5	3	3	3	3	1	3	3	3	7	4	2	0	0	0	4	3
092812	14:46:42	10013	Trial2BackEngS	NS	17	0	1000	1	113	14:46:42	2720034	5	3	3	3	3	1	3	3	3	7	4	2	0	0	0	4	3
092812	14:46:42	10013	Trial2BackEngS	NS	17	0	1000	1	113	14:46:42	2721553	5	3	3	3	3	1	3	3	3	7	4	2	0	0	0	4	3
092812	14:46:42	10013	Trial2BackEngS	YS	17	57	642	1	113	14:46:42	2722726	5	3	3	3	3	1	3	3	3	7	4	2	0	0	0	4	3
092812	14:46:42	10013	Trial2BackEngS	NS	17	0	1000	1	113	14:46:42	2724578	5	3	3	3	3	1	3	3	3	7	4	2	0	0	0	4	3
092812	14:46:42	10013	Trial2BackEngS	NS	17	0	1000	1	113	14:46:42	2726098	5	3	3	3	3	1	3	3	3	7	4	2	0	0	0	4	3
092812	14:46:42	10013	Trial2BackEngS	NS	17	0	1000	1	113	14:46:42	2727617	5	3	3	3	3	1	3	3	3	7	4	2	0	0	0	4	3
092812	14:46:42	10013	Trial2BackEngS	NS	17	0	1000	1	113	14:46:42	2729136	5	3	3	3	3	1	3	3	3	7	4	2	0	0	0	4	3
092812	14:46:42	10013	Trial2BackEngS	NS	17	0	1000	1	113	14:46:42	2730656	5	3	3	3	3	1	3	3	3	7	4	2	0	0	0	4	3
092812	14:46:42	10013	Trial2BackEngS	NS	17	0	1000	1	113	14:46:42	2732176	5	3	3	3	3	1	3	3	3	7	4	2	0	0	0	4	3
092812	14:46:42	10013	Trial2BackEngS	NS	17	0	1000	1	113	14:46:42	2733695	5	3	3	3	3	1	3	3	3	7	4	2	0	0	0	4	3
092812	14:46:42	10013	Trial2BackEngS	YS	17	57	817	1	113	14:46:42	2735041	5	3	3	3	3	1	3	3	3	7	4	2	0	0	0	4	3
092812	14:46:42	10013	Trial2BackEngS	NS	17	0	1000	1	113	14:46:42	2736720	5	3	3	3	3	1	3	3	3	7	4	2	0	0	0	4	3
092812	14:46:42	10013	Trial2BackEngS	NS	17	0	1000	1	113	14:46:42	2738240	5	3	3	3	3	1	3	3	3	7	4	2	0	0	0	4	3
092812	14:46:42	10013	Trial2BackEngS	NS	17	0	1000	1	113	14:46:42	2739759	5	3	3	3	3	1	3	3	3	7	4	2	0	0	0	4	3
092812	14:46:42	10013	Trial2BackEngS	NS	17	0	1000	1	113	14:46:42	2741278	5	3	3	3	3	1	3	3	3	7	4	2	0	0	0	4	3
092812	14:46:42	10013	Trial2BackEngS	NS	17	0	1000	1	113	14:46:42	2742798	5	3	3	3	3	1	3	3	3	7	4	2	0	0	0	4	3
092812	14:46:42	10013	Trial2BackEngS	NS	17	0	1000	1	113	14:46:42	2744317	5	3	3	3	3	1	3	3	3	7	4	2	0	0	0	4	3
092812	14:46:42	10013	Trial2BackEngS	NS	17	0	1000	1	113	14:46:42	2745837	5	3	3	3	3	1	3	3	3	7	4	2	0	0	0	4	3
092812	14:46:42	10013	Trial2BackEngS	NS	17	0	1000	1	113	14:46:42	2747356	5	3	3	3	3	1	3	3	3	7	4	2	0	0	0	4	3
092812	14:46:42	10013	Trial2BackEngS	NS	17	0	1000	1	113	14:46:42	2748875	5	3	3	3	3	1	3	3	3	7	4	2	0	0	0	4	3
092812	14:46:42	10013	Trial2BackEngS	YS	17	57	692	1	113	14:46:42	2750102	5	3	3	3	3	1	3	3	3	7	4	2	0	0	0	4	3
092812	14:46:42	10013	Trial2BackEngS	NS	17	0	1000	1	113	14:46:42	2751901	5	3	3	3	3	1	3	3	3	7	4	2	0	0	0	4	3
092812	14:46:42	10013	Trial3BackEngS	NNS	18	0	1000	1	113	14:46:42	2778930	5	3	3	3	3	1	3	3	3	7	4	2	0	0	0	4	3
092812	14:46:42	10013	Trial3BackEngS	NNS	18	0	1000	1	113	14:46:42	2780450	5	3	3	3	3	1	3	3	3	7	4	2	0	0	0	4	3
092812	14:46:42	10013	Trial3BackEngS	NNS	18	0	1000	1	113	14:46:42	2781969	5	3	3	3	3	1	3	3	3	7	4	2	0	0	0	4	3
092812	14:46:42	10013	Trial3BackEngS	YYS	18	57	814	1	113	14:46:42	2783315	5	3	3	3	3	1	3	3	3	7	4	2	0	0	0	4	3
092812	14:46:42	10013	Trial3BackEngS	NNS	18	0	1000	1	113	14:46:42	2784995	5	3	3	3	3	1	3	3	3	7	4	2	0	0	0	4	3
092812	14:46:42	10013	Trial3BackEngS	NNS	18	0	1000	1	113	14:46:42	2786514	5	3	3	3	3	1	3	3	3	7	4	2	0	0	0	4	3
092812	14:46:42	10013	Trial3BackEngS	NNS	18	0	1000	1	113	14:46:42	2788033	5	3	3	3	3	1	3	3	3	7	4	2	0	0	0	4	3
092812	14:46:42	10013	Trial3BackEngS	NNS	18	0	1000	1	113	14:46:42	2789553	5	3	3	3	3	1	3	3	3	7	4	2	0	0	0	4	3
092812	14:46:42	10013	Trial3BackEngS	YYS	18	57	430	1	113	14:46:42	2790512	5	3	3	3	3	1	3	3	3	7	4	2	0	0	0	4	3
092812	14:46:42	10013	Trial3BackEngS	NNS	18	0	1000	1	113	14:46:42	2792578	5	3	3	3	3	1	3	3	3	7	4	2	0	0	0	4	3
092812	14:46:42	10013	Trial3BackEngS	NNS	18	0	1000	1	113	14:46:42	2794098	5	3	3	3	3	1	3	3	3	7	4	2	0	0	0	4	3
092812	14:46:42	10013	Trial3BackEngS	NNS	18	0	1000	1	113	14:46:42	2795617	5	3	3	3	3	1	3	3	3	7	4	2	0	0	0	4	3
092812	14:46:42	10013	Trial3BackEngS	NNS	18	0	1000	1	113	14:46:42	2797137	5	3	3	3	3	1	3	3	3	7	4	2	0	0	0	4	3
092812	14:46:42	10013	Trial3BackEngS	NNS	18	0	1000	1	113	14:46:42	2798656	5	3	3	3	3	1	3	3	3	7	4	2	0	0	0	4	3
092812	14:46:42	10013	Trial3BackEngS	NNS	18	0	1000	1	113	14:46:42	2800175	5	3	3	3	3	1	3	3	3	7	4	2	0	0	0	4	3
092812	14:46:42	10013	Trial3BackEngS	NNS	18	0	1000	1	113	14:46:42	2801695	5	3	3	3	3	1	3	3	3	7	4	2	0	0	0	4	3
092812	14:46:42	10013	Trial3BackEngS	YYS	18	0	1000	0	113	14:46:42	2803214	5	3	3	3	3	1	3	3	3	7	4	2	0	0	0	4	3
092812	14:46:42	10013	Trial3BackEngS	NNS	18	0	1000	1	113	14:46:42	2804733	5	3	3	3	3	1	3	3	3	7	4	2	0	0	0	4	3
092812	14:46:42	10013	Trial3BackEngS	NNS	18	0	1000	1	113	14:46:42	2806253	5	3	3	3	3	1	3	3	3	7	4	2	0	0	0	4	3
092812	14:46:42	10013	Trial3BackEngS	NNS	18	57	658	0	113	14:46:42	2807439	5	3	3	3	3	1	3	3	3	7	4	2	0	0	0	4	3
092812	14:46:42	10013	Trial3BackEngS	NNS	18	0	1000	1	113	14:46:42	2809278	5	3	3	3	3	1	3	3	3	7	4	2	0	0	0	4	3
092812	14:46:42	10013	Trial3BackEngS	NNS	18	0	1000	1	113	14:46:42	2810798	5	3	3	3	3	1	3	3	3	7	4	2	0	0	0	4	3
092812	14:46:42	10013	Trial3BackEngS	YYS	18	0	1000	0	113	14:46:42	2812317	5	3	3	3	3	1	3	3	3	7	4	2	0	0	0	4	3
092812	14:46:42	10013	Trial3BackEngS	NNS	18	0	1000	1	113	14:46:42	2813836	5	3	3	3	3	1	3	3	3	7	4	2	0	0	0	4	3
092812	14:46:42	10013	Trial3BackEngS	NNS	18	0	1000	1	113	14:46:42	2815356	5	3	3	3	3	1	3	3	3	7	4	2	0	0	0	4	3
092812	14:46:42	10013	Trial3BackEngS	NNS	18	0	1000	1	113	14:46:42	2816875	5	3	3	3	3	1	3	3	3	7	4	2	0	0	0	4	3
092812	14:46:42	10013	Trial3BackEngS	YYS	18	0	1000	0	113	14:46:42	2818395	5	3	3	3	3	1	3	3	3	7	4	2	0	0	0	4	3
092812	14:46:42	10013	Trial3BackEngS	NNS	18	0	1000	1	113	14:46:42	2819914	5	3	3	3	3	1	3	3	3	7	4	2	0	0	0	4	3
092812	14:46:42	10013	Trial3BackEngS	NNS	18	0	1000	1	113	14:46:42	2821433	5	3	3	3	3	1	3	3	3	7	4	2	0	0	0	4	3
092812	14:46:42	10013	Trial3BackEngS	NNS	18	0	1000	1	113	14:46:42	2822953	5	3	3	3	3	1	3	3	3	7	4	2	0	0	0	4	3
092812	14:46:42	10013	Trial3BackEngS	YYS	18	0	1000	0	113	14:46:42	2824472	5	3	3	3	3	1	3	3	3	7	4	2	0	0	0	4	3
092812	14:46:42	10013	Trial3BackEngS	NNS	18	0	1000	1	113	14:46:42	2825992	5	3	3	3	3	1	3	3	3	7	4	2	0	0	0	4	3
092812	14:46:42	10013	Trial3BackEngS	NNS	18	0	1000	1	113	14:46:42	2827511	5	3	3	3	3	1	3	3	3	7	4	2	0	0	0	4	3
092812	14:46:42	10013	Trial3BackEngS	NNS	18	0	1000	1	113	14:46:42	2829031	5	3	3	3	3	1	3	3	3	7	4	2	0	0	0	4	3
092812	14:46:42	10013	Trial3BackEngS	NNS	18	57	920	0	113	14:46:42	2830483	5	3	3	3	3	1	3	3	3	7	4	2	0	0	0	4	3
092812	14:46:42	10013	Trial3BackEngS	NNS	18	0	1000	1	113	14:46:42	2832056	5	3	3	3	3	1	3	3	3	7	4	2	0	0	0	4	3
092812	14:46:42	10013	Trial3BackEngS	NNS	18	0	1000	1	113	14:46:42	2833575	5	3	3	3	3	1	3	3	3	7	4	2	0	0	0	4	3
092812	14:46:42	10013	Trial3BackEngS	NNS	18	0	1000	1	113	14:46:42	2835095	5	3	3	3	3	1	3	3	3	7	4	2	0	0	0	4	3
092812	14:46:42	10013	Trial3BackEngS	NNS	18	0	1000	1	113	14:46:42	2836614	5	3	3	3	3	1	3	3	3	7	4	2	0	0	0	4	3
092812	14:46:42	10013	Trial3BackEngS	NNS	18	0	1000	1	113	14:46:42	2838134	5	3	3	3	3	1	3	3	3	7	4	2	0	0	0	4	3
092812	14:46:42	10013	Trial3BackEngS	NNS	18	57	665	0	113	14:46:42	2839320	5	3	3	3	3	1	3	3	3	7	4	2	0	0	0	4	3
092812	14:46:42	10013	Trial3BackEngS	YYS	18	0	1000	0	113	14:46:42	2841159	5	3	3	3	3	1	3	3	3	7	4	2	0	0	0	4	3
092812	14:46:42	10013	Trial3BackEngS	NNS	18	0	1000	1	113	14:46:42	2842678	5	3	3	3	3	1	3	3	3	7	4	2	0	0	0	4	3
092812	14:46:42	10013	Trial3BackEngS	NNS	18	0	1000	1	113	14:46:42	2844198	5	3	3	3	3	1	3	3	3	7	4	2	0	0	0	4	3
092812	14:46:42	10013	Trial3BackEngS	NNS	18	0	1000	1	113	14:46:42	2845717	5	3	3	3	3	1	3	3	3	7	4	2	0	0	0	4	3
092812	14:46:42	10013	Trial3BackEngS	NNS	18	0	1000	1	113	14:46:42	2847237	5	3	3	3	3	1	3	3	3	7	4	2	0	0	0	4	3
092812	14:46:42	10013	Trial3BackEngS	YYS	18	0	1000	0	113	14:46:42	2848756	5	3	3	3	3	1	3	3	3	7	4	2	0	0	0	4	3
092812	14:46:42	10013	Trial3BackEngS	NNS	18	0	1000	1	113	14:46:42	2850275	5	3	3	3	3	1	3	3	3	7	4	2	0	0	0	4	3
092812	14:46:42	10013	Trial3BackEngS	NNS	18	57	731	0	113	14:46:42	2851528	5	3	3	3	3	1	3	3	3	7	4	2	0	0	0	4	3
092812	14:46:42	10013	Trial3BackEngS	NNS	18	0	1000	1	113	14:46:42	2853301	5	3	3	3	3	1	3	3	3	7	4	2	0	0	0	4	3
092812	14:46:42	10013	Trial3BackEngS	NNS	18	0	1000	1	113	14:46:42	2854821	5	3	3	3	3	1	3	3	3	7	4	2	0	0	0	4	3
092812	14:46:42	10013	Trial3BackEngS	NNS	18	0	1000	1	113	14:46:42	2856340	5	3	3	3	3	1	3	3	3	7	4	2	0	0	0	4	3
092812	14:46:42	10013	Trial3BackEngS	YYS	18	0	1000	0	113	14:46:42	2857859	5	3	3	3	3	1	3	3	3	7	4	2	0	0	0	4	3
092812	14:46:42	10013	Trial3BackEngS	NNS	18	0	1000	1	113	14:46:42	2859379	5	3	3	3	3	1	3	3	3	7	4	2	0	0	0	4	3
092812	14:46:42	10013	Trial3BackEngS	NNS	18	0	1000	1	113	14:46:42	2860898	5	3	3	3	3	1	3	3	3	7	4	2	0	0	0	4	3
092812	14:46:42	10013	Trial3BackEngS	NNS	18	57	572	0	113	14:46:42	2862004	5	3	3	3	3	1	3	3	3	7	4	2	0	0	0	4	3
092812	14:46:42	10013	Trial3BackEngS	NNS	18	0	1000	1	113	14:46:42	2863923	5	3	3	3	3	1	3	3	3	7	4	2	0	0	0	4	3
092812	14:46:42	10013	Trial3BackEngS	NNS	18	0	1000	1	113	14:46:42	2865443	5	3	3	3	3	1	3	3	3	7	4	2	0	0	0	4	3
092812	14:46:42	10013	Trial3BackEngS	NNS	18	0	1000	1	113	14:46:42	2866962	5	3	3	3	3	1	3	3	3	7	4	2	0	0	0	4	3
092812	14:46:42	10013	Trial3BackEngS	YYS	18	57	859	1	113	14:46:42	2868349	5	3	3	3	3	1	3	3	3	7	4	2	0	0	0	4	3
092812	14:46:42	10013	Trial3BackEngS	NNS	18	0	1000	1	113	14:46:42	2869988	5	3	3	3	3	1	3	3	3	7	4	2	0	0	0	4	3
092812	14:46:42	10013	Trial3BackEngS	NNS	18	0	1000	1	113	14:46:42	2871507	5	3	3	3	3	1	3	3	3	7	4	2	0	0	0	4	3
092812	14:46:42	10013	Trial3BackEngS	NNS	18	0	1000	1	113	14:46:42	2873027	5	3	3	3	3	1	3	3	3	7	4	2	0	0	0	4	3
092812	14:46:42	10013	Trial3BackEngS	YYS	18	57	379	1	113	14:46:42	2873933	5	3	3	3	3	1	3	3	3	7	4	2	0	0	0	4	3
092812	14:46:42	10013	Trial3BackEngS	NNS	18	0	1000	1	113	14:46:42	2876052	5	3	3	3	3	1	3	3	3	7	4	2	0	0	0	4	3
092812	14:46:42	10013	Trial3BackEngS	NNS	18	0	1000	1	113	14:46:42	2877571	5	3	3	3	3	1	3	3	3	7	4	2	0	0	0	4	3
092812	14:46:42	10013	Trial3BackEngS	NNS	18	0	1000	1	113	14:46:42	2879091	5	3	3	3	3	1	3	3	3	7	4	2	0	0	0	4	3
092812	14:46:42	10013	Trial3BackEngS	NNS	18	0	1000	1	113	14:46:42	2880610	5	3	3	3	3	1	3	3	3	7	4	2	0	0	0	4	3
092812	14:46:42	10013	Trial3BackEngS	NNS	18	0	1000	1	113	14:46:42	2882130	5	3	3	3	3	1	3	3	3	7	4	2	0	0	0	4	3
092812	14:46:42	10013	Trial3BackEngS	NNS	18	57	828	0	113	14:46:42	2883489	5	3	3	3	3	1	3	3	3	7	4	2	0	0	0	4	3
092812	14:46:42	10013	Trial3BackEngS	NNS	18	0	1000	1	113	14:46:42	2885155	5	3	3	3	3	1	3	3	3	7	4	2	0	0	0	4	3
092812	14:46:42	10013	Trial3BackEngS	NNS	18	0	1000	1	113	14:46:42	2886674	5	3	3	3	3	1	3	3	3	7	4	2	0	0	0	4	3
092812	14:46:42	10013	Trial3BackEngS	NNS	18	0	1000	1	113	14:46:42	2888194	5	3	3	3	3	1	3	3	3	7	4	2	0	0	0	4	3
092812	14:46:42	10013	Trial3BackEngS	YYS	18	0	1000	0	113	14:46:42	2889713	5	3	3	3	3	1	3	3	3	7	4	2	0	0	0	4	3
092812	14:46:42	10013	Trial3BackEngS	NNS	18	0	1000	1	113	14:46:42	2891233	5	3	3	3	3	1	3	3	3	7	4	2	0	0	0	4	3
092812	14:46:42	10013	Trial3BackEngS	NNS	18	0	1000	1	113	14:46:42	2892752	5	3	3	3	3	1	3	3	3	7	4	2	0	0	0	4	3
092812	14:46:42	10013	Trial3BackEngS	NNS	18	0	1000	1	113	14:46:42	2894271	5	3	3	3	3	1	3	3	3	7	4	2	0	0	0	4	3
092812	14:46:42	10013	Trial3BackEngS	YYS	18	57	558	1	113	14:46:42	2895351	5	3	3	3	3	1	3	3	3	7	4	2	0	0	0	4	3
092812	14:46:42	10013	Trial3BackEngS	NNS	18	0	1000	1	113	14:46:42	2897297	5	3	3	3	3	1	3	3	3	7	4	2	0	0	0	4	3
092812	14:46:42	10013	Trial3BackEngS	NNS	18	0	1000	1	113	14:46:42	2898816	5	3	3	3	3	1	3	3	3	7	4	2	0	0	0	4	3
092812	14:46:42	10013	Trial3BackEngS	NNS	18	0	1000	1	113	14:46:42	2900336	5	3	3	3	3	1	3	3	3	7	4	2	0	0	0	4	3
092812	14:46:42	10013	Trial3BackEngS	NNS	18	0	1000	1	113	14:46:42	2901855	5	3	3	3	3	1	3	3	3	7	4	2	0	0	0	4	3
092812	14:46:42	10013	Trial3BackEngS	NNS	18	57	430	0	113	14:46:42	2902815	5	3	3	3	3	1	3	3	3	7	4	2	0	0	0	4	3
092812	14:46:42	10013	Trial3BackEngS	YYS	18	0	1000	0	113	14:46:42	2904881	5	3	3	3	3	1	3	3	3	7	4	2	0	0	0	4	3
092812	14:46:42	10013	Trial3BackEngS	NNS	18	0	1000	1	113	14:46:42	2906400	5	3	3	3	3	1	3	3	3	7	4	2	0	0	0	4	3
092812	14:46:42	10013	Trial3BackEngS	NNS	18	0	1000	1	113	14:46:42	2907919	5	3	3	3	3	1	3	3	3	7	4	2	0	0	0	4	3
092812	14:46:42	10013	Trial3BackEngS	NNS	18	0	1000	1	113	14:46:42	2909439	5	3	3	3	3	1	3	3	3	7	4	2	0	0	0	4	3
092812	14:46:42	10013	Trial3BackEngS	NNS	18	0	1000	1	113	14:46:42	2910958	5	3	3	3	3	1	3	3	3	7	4	2	0	0	0	4	3
092812	14:46:42	10013	Trial3BackEngS	NNS	18	0	1000	1	113	14:46:42	2912478	5	3	3	3	3	1	3	3	3	7	4	2	0	0	0	4	3
092812	14:46:42	10013	Trial3BackEngS	NNS	18	57	960	0	113	14:46:42	2913970	5	3	3	3	3	1	3	3	3	7	4	2	0	0	0	4	3
092812	14:46:42	10013	Trial3BackEngS	NNS	18	0	1000	1	113	14:46:42	2915504	5	3	3	3	3	1	3	3	3	7	4	2	0	0	0	4	3
092812	14:46:42	10013	Trial3BackEngS	NNS	18	0	1000	1	113	14:46:42	2917023	5	3	3	3	3	1	3	3	3	7	4	2	0	0	0	4	3
092812	14:46:42	10013	Trial3BackEngS	NNS	18	0	1000	1	113	14:46:42	2918542	5	3	3	3	3	1	3	3	3	7	4	2	0	0	0	4	3
092812	14:46:42	10013	Trial3BackEngS	YYS	18	57	735	1	113	14:46:42	2919808	5	3	3	3	3	1	3	3	3	7	4	2	0	0	0	4	3
092812	14:46:42	10013	Trial3BackEngS	NNS	18	0	1000	1	113	14:46:42	2921567	5	3	3	3	3	1	3	3	3	7	4	2	0	0	0	4	3
092812	14:46:42	10013	Trial3BackEngS	NNS	18	0	1000	1	113	14:46:42	2923087	5	3	3	3	3	1	3	3	3	7	4	2	0	0	0	4	3
092812	14:46:42	10013	Trial3BackEngS	NNS	18	0	1000	1	113	14:46:42	2924606	5	3	3	3	3	1	3	3	3	7	4	2	0	0	0	4	3
092812	14:46:42	10013	Trial3BackEngS	NNS	18	0	1000	1	113	14:46:42	2926126	5	3	3	3	3	1	3	3	3	7	4	2	0	0	0	4	3
092812	14:46:42	10013	Trial3BackEngS	NNS	18	57	528	0	113	14:46:42	2927178	5	3	3	3	3	1	3	3	3	7	4	2	0	0	0	4	3
092812	14:46:42	10013	Trial3BackEngS	NNS	18	0	1000	1	113	14:46:42	2929151	5	3	3	3	3	1	3	3	3	7	4	2	0	0	0	4	3
092812	14:46:42	10013	Trial3BackEngS	NNS	18	0	1000	1	113	14:46:42	2930670	5	3	3	3	3	1	3	3	3	7	4	2	0	0	0	4	3
092812	14:46:42	10013	Trial3BackEngS	NNS	18	0	1000	1	113	14:46:42	2932190	5	3	3	3	3	1	3	3	3	7	4	2	0	0	0	4	3
092812	14:46:42	10013	Trial3BackEngS	YYS	18	57	431	1	113	14:46:42	2933149	5	3	3	3	3	1	3	3	3	7	4	2	0	0	0	4	3
092812	14:46:42	10013	Trial3BackEngS	NNS	18	0	1000	1	113	14:46:42	2935215	5	3	3	3	3	1	3	3	3	7	4	2	0	0	0	4	3
092812	14:46:42	10013	Trial3BackEngS	NNS	18	0	1000	1	113	14:46:42	2936735	5	3	3	3	3	1	3	3	3	7	4	2	0	0	0	4	3
092812	14:46:42	10013	Trial3BackEngS	NNS	18	0	1000	1	113	14:46:42	2938254	5	3	3	3	3	1	3	3	3	7	4	2	0	0	0	4	3
092812	14:46:42	10013	Trial3BackEngS	NNS	18	0	1000	1	113	14:46:42	2939774	5	3	3	3	3	1	3	3	3	7	4	2	0	0	0	4	3
092812	14:46:42	10013	Trial3BackEngS	YYS	18	0	1000	0	113	14:46:42	2941293	5	3	3	3	3	1	3	3	3	7	4	2	0	0	0	4	3
092812	14:46:42	10013	Trial3BackEngS	NNS	18	57	768	0	113	14:46:42	2942586	5	3	3	3	3	1	3	3	3	7	4	2	0	0	0	4	3
092812	14:46:42	10013	Trial3BackEngS	NNS	18	0	1000	1	113	14:46:42	2944318	5	3	3	3	3	1	3	3	3	7	4	2	0	0	0	4	3
092812	14:46:42	10013	Trial3BackEngS	NNS	18	0	1000	1	113	14:46:42	2945838	5	3	3	3	3	1	3	3	3	7	4	2	0	0	0	4	3
092812	14:46:42	10013	Trial3BackEngS	YYS	18	0	1000	0	113	14:46:42	2947357	5	3	3	3	3	1	3	3	3	7	4	2	0	0	0	4	3
092812	14:46:42	10013	Trial3BackEngS	NNS	18	57	240	0	113	14:46:42	2948130	5	3	3	3	3	1	3	3	3	7	4	2	0	0	0	4	3
092812	14:46:42	10013	Trial3BackEngS	NNS	18	0	1000	1	113	14:46:42	2950383	5	3	3	3	3	1	3	3	3	7	4	2	0	0	0	4	3
092812	14:46:42	10013	Trial3BackEngS	NNS	18	0	1000	1	113	14:46:42	2951902	5	3	3	3	3	1	3	3	3	7	4	2	0	0	0	4	3
092812	14:46:42	10013	Trial3BackEngS	NNS	18	0	1000	1	113	14:46:42	2953422	5	3	3	3	3	1	3	3	3	7	4	2	0	0	0	4	3
092812	14:46:42	10013	Trial3BackEngS	NNS	18	0	1000	1	113	14:46:42	2954941	5	3	3	3	3	1	3	3	3	7	4	2	0	0	0	4	3
092812	14:46:42	10013	Trial3BackEngS	YYS	18	0	1000	0	113	14:46:42	2956460	5	3	3	3	3	1	3	3	3	7	4	2	0	0	0	4	3
092812	14:46:42	10013	Trial3BackEngS	NNS	18	0	1000	1	113	14:46:42	2958006	5	3	3	3	3	1	3	3	3	7	4	2	0	0	0	4	3
092812	14:46:42	10013	Trial3BackEngS	NNS	18	0	1000	1	113	14:46:42	2959526	5	3	3	3	3	1	3	3	3	7	4	2	0	0	0	4	3
092812	14:46:42	10013	Trial3BackEngS	NNS	18	0	1000	1	113	14:46:42	2961045	5	3	3	3	3	1	3	3	3	7	4	2	0	0	0	4	3
092812	14:46:42	10013	Trial3BackEngS	YYS	18	0	1000	0	113	14:46:42	2962565	5	3	3	3	3	1	3	3	3	7	4	2	0	0	0	4	3
092812	14:46:42	10013	ClockEng3mo	ClockEng3mo	19	Clock11	48351	0	113	14:46:42	3011026	5	3	3	3	3	1	3	3	3	7	4	2	0	1	0	4	3
092812	14:46:42	10013	ClockEng3mo	ClockEng3mo	19	Clock1	486	0	113	14:46:42	3011559	5	3	3	3	3	1	3	3	3	7	4	2	1	1	0	4	3
092812	14:46:42	10013	ClockEng3mo	ClockEng3mo	19	Clock222	705	0	113	14:46:42	3012305	5	3	3	3	3	1	3	3	3	7	4	2	1	1	0	4	3
092812	14:46:42	10013	ClockEng3mo	ClockEng3mo	19	Clockdone	542	0	113	14:46:42	3012892	5	3	3	3	3	1	3	3	3	7	4	2	1	1	0	4	3
092812	14:46:42	10013	FASEngVF3mo	StopEngVF3mo	20	12	10874	0	113	14:46:42	3182253	5	3	3	3	3	1	3	3	3	7	4	2	1	1	0	4	3
