date	time	subject	blockcode	trialcode	values.TaskNumber	response	latency	correct	values.Score	script.starttime	script.elapsedtime	values.ScoreS7	values.Word1	values.Word2	values.Word3	values.Word4	values.Word5	values.Word6	values.Word7	values.Word8	values.DigitSpanFwrd	values.DigitSpanBack	values.ScoreAbs	values.Contour	values.Numbers	values.Hands	values.corsiblockspanFwrd	values.corsiblockspanRev	values.problemnumber	values.subjectattempts	values.targetmoves	values.subjectmoves	expressions.excessmoves	values.movestring	expressions.targetachieved	values.problemscore	values.totalscoreTOL	expressions.firstmovetime	expressions.executiontime	expressions.solutiontime	values.t_choicestart	values.t_choiceend
010713	10:20:51	11111	Language	Language	0	French	949	0	0	10:20:51	1176	0	0	0	0	0	0	0	0	0	0	0	0	0	0	0	0	0	0	0	0	0	0		1	0	0	0	0	0	0	0
010713	10:20:51	11111	Session	Session	0	6mo	1982	0	0	10:20:51	3228	0	0	0	0	0	0	0	0	0	0	0	0	0	0	0	0	0	0	0	0	0	0		1	0	0	0	0	0	0	0
010713	10:20:51	11111	HandFr	HandFr	0	RightFr	3379	0	0	10:20:51	6667	0	0	0	0	0	0	0	0	0	0	0	0	0	0	0	0	0	0	0	0	0	0		1	0	0	0	0	0	0	0
010713	10:20:51	11111	AudioCheckFr	WordsFr	0	0	0	0	0	10:20:51	15182	0	0	0	0	0	0	0	0	0	0	0	0	0	0	0	0	0	0	0	0	0	0		1	0	0	0	0	0	0	0
010713	10:20:51	11111	CubeFr	CubeFr	1	1Cube	4619	0	0	10:20:51	21754	0	0	0	0	0	0	0	0	0	0	0	0	0	0	0	0	0	0	0	0	0	0		1	0	0	0	0	0	0	0
010713	10:20:51	11111	pm.simpleFrRight	blank.simpleFr	2	0	2400	1	0	10:20:51	26326	0	0	0	0	0	0	0	0	0	0	0	0	0	0	0	0	0	0	0	0	0	0		1	0	0	0	0	0	0	0
010713	10:20:51	11111	pm.simpleFrRight	pm.simpleFr	2	57	32556	0	0	10:20:51	58899	0	0	0	0	0	0	0	0	0	0	0	0	0	0	0	0	0	0	0	0	0	0		1	0	0	0	0	0	0	0
010713	10:20:51	11111	pm.simpleFrRight	blank.simpleFr	2	0	2200	1	0	10:20:51	61111	0	0	0	0	0	0	0	0	0	0	0	0	0	0	0	0	0	0	0	0	0	0		1	0	0	0	0	0	0	0
010713	10:20:51	11111	pm.simpleFrRight	pm.simpleFr	2	57	298	0	0	10:20:51	61431	0	0	0	0	0	0	0	0	0	0	0	0	0	0	0	0	0	0	0	0	0	0		1	0	0	0	0	0	0	0
010713	10:20:51	11111	pm.simpleFrRight	blank.simpleFr	2	0	2100	1	0	10:20:51	63550	0	0	0	0	0	0	0	0	0	0	0	0	0	0	0	0	0	0	0	0	0	0		1	0	0	0	0	0	0	0
010713	10:20:51	11111	pm.simpleFrRight	pm.simpleFr	2	57	292	0	0	10:20:51	63871	0	0	0	0	0	0	0	0	0	0	0	0	0	0	0	0	0	0	0	0	0	0		1	0	0	0	0	0	0	0
010713	10:20:51	11111	pm.simpleFrRight	blank.simpleFr	2	0	1700	1	0	10:20:51	65590	0	0	0	0	0	0	0	0	0	0	0	0	0	0	0	0	0	0	0	0	0	0		1	0	0	0	0	0	0	0
010713	10:20:51	11111	pm.simpleFrRight	pm.simpleFr	2	57	365	0	0	10:20:51	65976	0	0	0	0	0	0	0	0	0	0	0	0	0	0	0	0	0	0	0	0	0	0		1	0	0	0	0	0	0	0
010713	10:20:51	11111	pm.simpleFrRight	blank.simpleFr	2	0	1500	1	0	10:20:51	67495	0	0	0	0	0	0	0	0	0	0	0	0	0	0	0	0	0	0	0	0	0	0		1	0	0	0	0	0	0	0
010713	10:20:51	11111	pm.simpleFrRight	pm.simpleFr	2	57	395	0	0	10:20:51	67909	0	0	0	0	0	0	0	0	0	0	0	0	0	0	0	0	0	0	0	0	0	0		1	0	0	0	0	0	0	0
010713	10:20:51	11111	pm.simpleFrRight	blank.simpleFr	2	0	1800	1	0	10:20:51	69735	0	0	0	0	0	0	0	0	0	0	0	0	0	0	0	0	0	0	0	0	0	0		1	0	0	0	0	0	0	0
010713	10:20:51	11111	pm.simpleFrRight	pm.simpleFr	2	57	779	0	0	10:20:51	70534	0	0	0	0	0	0	0	0	0	0	0	0	0	0	0	0	0	0	0	0	0	0		1	0	0	0	0	0	0	0
010713	10:20:51	11111	pm.simpleFrRight	blank.simpleFr	2	0	2500	1	0	10:20:51	73053	0	0	0	0	0	0	0	0	0	0	0	0	0	0	0	0	0	0	0	0	0	0		1	0	0	0	0	0	0	0
010713	10:20:51	11111	pm.simpleFrRight	pm.simpleFr	2	57	325	0	0	10:20:51	73400	0	0	0	0	0	0	0	0	0	0	0	0	0	0	0	0	0	0	0	0	0	0		1	0	0	0	0	0	0	0
010713	10:20:51	11111	pm.simpleFrRight	blank.simpleFr	2	0	2300	1	0	10:20:51	75719	0	0	0	0	0	0	0	0	0	0	0	0	0	0	0	0	0	0	0	0	0	0		1	0	0	0	0	0	0	0
010713	10:20:51	11111	pm.simpleFrRight	pm.simpleFr	2	57	1595	0	0	10:20:51	77331	0	0	0	0	0	0	0	0	0	0	0	0	0	0	0	0	0	0	0	0	0	0		1	0	0	0	0	0	0	0
010713	10:20:51	11111	pm.simpleFrRight	blank.simpleFr	2	0	1600	1	0	10:20:51	78944	0	0	0	0	0	0	0	0	0	0	0	0	0	0	0	0	0	0	0	0	0	0		1	0	0	0	0	0	0	0
010713	10:20:51	11111	pm.simpleFrRight	pm.simpleFr	2	57	338	0	0	10:20:51	79304	0	0	0	0	0	0	0	0	0	0	0	0	0	0	0	0	0	0	0	0	0	0		1	0	0	0	0	0	0	0
010713	10:20:51	11111	pm.simpleFrRight	blank.simpleFr	2	0	1900	1	0	10:20:51	81223	0	0	0	0	0	0	0	0	0	0	0	0	0	0	0	0	0	0	0	0	0	0		1	0	0	0	0	0	0	0
010713	10:20:51	11111	pm.simpleFrRight	pm.simpleFr	2	57	4091	0	0	10:20:51	85341	0	0	0	0	0	0	0	0	0	0	0	0	0	0	0	0	0	0	0	0	0	0		1	0	0	0	0	0	0	0
010713	10:20:51	11111	pm.simpleFrRight	blank.simpleFr	2	0	2000	1	0	10:20:51	87367	0	0	0	0	0	0	0	0	0	0	0	0	0	0	0	0	0	0	0	0	0	0		1	0	0	0	0	0	0	0
010713	10:20:51	11111	pm.simpleFrRight	pm.simpleFr	2	57	4506	0	0	10:20:51	91899	0	0	0	0	0	0	0	0	0	0	0	0	0	0	0	0	0	0	0	0	0	0		1	0	0	0	0	0	0	0
010713	10:20:51	11111	pm.simpleFrRight	blank.simpleFr	2	0	2300	1	0	10:20:51	94218	0	0	0	0	0	0	0	0	0	0	0	0	0	0	0	0	0	0	0	0	0	0		1	0	0	0	0	0	0	0
010713	10:20:51	11111	pm.simpleFrRight	pm.simpleFr	2	57	4168	0	0	10:20:51	98403	0	0	0	0	0	0	0	0	0	0	0	0	0	0	0	0	0	0	0	0	0	0		1	0	0	0	0	0	0	0
010713	10:20:51	11111	pm.simpleFrRight	blank.simpleFr	2	0	1700	1	0	10:20:51	100122	0	0	0	0	0	0	0	0	0	0	0	0	0	0	0	0	0	0	0	0	0	0		1	0	0	0	0	0	0	0
010713	10:20:51	11111	pm.simpleFrRight	pm.simpleFr	2	57	679	0	0	10:20:51	100829	0	0	0	0	0	0	0	0	0	0	0	0	0	0	0	0	0	0	0	0	0	0		1	0	0	0	0	0	0	0
010713	10:20:51	11111	pm.simpleFrRight	blank.simpleFr	2	0	2100	1	0	10:20:51	102948	0	0	0	0	0	0	0	0	0	0	0	0	0	0	0	0	0	0	0	0	0	0		1	0	0	0	0	0	0	0
010713	10:20:51	11111	pm.simpleFrRight	pm.simpleFr	2	57	1197	0	0	10:20:51	104174	0	0	0	0	0	0	0	0	0	0	0	0	0	0	0	0	0	0	0	0	0	0		1	0	0	0	0	0	0	0
010713	10:20:51	11111	pm.simpleFrRight	blank.simpleFr	2	0	1500	1	0	10:20:51	105693	0	0	0	0	0	0	0	0	0	0	0	0	0	0	0	0	0	0	0	0	0	0		1	0	0	0	0	0	0	0
010713	10:20:51	11111	pm.simpleFrRight	pm.simpleFr	2	57	6435	0	0	10:20:51	112157	0	0	0	0	0	0	0	0	0	0	0	0	0	0	0	0	0	0	0	0	0	0		1	0	0	0	0	0	0	0
010713	10:20:51	11111	pm.simpleFrRight	blank.simpleFr	2	0	2000	1	0	10:20:51	114170	0	0	0	0	0	0	0	0	0	0	0	0	0	0	0	0	0	0	0	0	0	0		1	0	0	0	0	0	0	0
010713	10:20:51	11111	pm.simpleFrRight	pm.simpleFr	2	57	3031	0	0	10:20:51	117222	0	0	0	0	0	0	0	0	0	0	0	0	0	0	0	0	0	0	0	0	0	0		1	0	0	0	0	0	0	0
010713	10:20:51	11111	pm.simpleFrRight	blank.simpleFr	2	0	1900	1	0	10:20:51	119141	0	0	0	0	0	0	0	0	0	0	0	0	0	0	0	0	0	0	0	0	0	0		1	0	0	0	0	0	0	0
010713	10:20:51	11111	pm.simpleFrRight	pm.simpleFr	2	57	363	0	0	10:20:51	119527	0	0	0	0	0	0	0	0	0	0	0	0	0	0	0	0	0	0	0	0	0	0		1	0	0	0	0	0	0	0
010713	10:20:51	11111	pm.simpleFrRight	blank.simpleFr	2	0	1800	1	0	10:20:51	121340	0	0	0	0	0	0	0	0	0	0	0	0	0	0	0	0	0	0	0	0	0	0		1	0	0	0	0	0	0	0
010713	10:20:51	11111	pm.simpleFrRight	pm.simpleFr	2	57	1348	0	0	10:20:51	122713	0	0	0	0	0	0	0	0	0	0	0	0	0	0	0	0	0	0	0	0	0	0		1	0	0	0	0	0	0	0
010713	10:20:51	11111	pm.simpleFrRight	blank.simpleFr	2	0	2500	1	0	10:20:51	125232	0	0	0	0	0	0	0	0	0	0	0	0	0	0	0	0	0	0	0	0	0	0		1	0	0	0	0	0	0	0
010713	10:20:51	11111	pm.simpleFrRight	pm.simpleFr	2	57	1617	0	0	10:20:51	126871	0	0	0	0	0	0	0	0	0	0	0	0	0	0	0	0	0	0	0	0	0	0		1	0	0	0	0	0	0	0
010713	10:20:51	11111	pm.simpleFrRight	blank.simpleFr	2	0	2400	1	0	10:20:51	129297	0	0	0	0	0	0	0	0	0	0	0	0	0	0	0	0	0	0	0	0	0	0		1	0	0	0	0	0	0	0
010713	10:20:51	11111	pm.simpleFrRight	pm.simpleFr	2	57	2445	0	0	10:20:51	131763	0	0	0	0	0	0	0	0	0	0	0	0	0	0	0	0	0	0	0	0	0	0		1	0	0	0	0	0	0	0
010713	10:20:51	11111	pm.simpleFrRight	blank.simpleFr	2	0	2200	1	0	10:20:51	133988	0	0	0	0	0	0	0	0	0	0	0	0	0	0	0	0	0	0	0	0	0	0		1	0	0	0	0	0	0	0
010713	10:20:51	11111	pm.simpleFrRight	pm.simpleFr	2	57	3900	0	0	10:20:51	137907	0	0	0	0	0	0	0	0	0	0	0	0	0	0	0	0	0	0	0	0	0	0		1	0	0	0	0	0	0	0
010713	10:20:51	11111	pm.simpleFrRight	blank.simpleFr	2	0	1600	1	0	10:20:51	139520	0	0	0	0	0	0	0	0	0	0	0	0	0	0	0	0	0	0	0	0	0	0		1	0	0	0	0	0	0	0
010713	10:20:51	11111	pm.simpleFrRight	pm.simpleFr	2	57	2449	0	0	10:20:51	141985	0	0	0	0	0	0	0	0	0	0	0	0	0	0	0	0	0	0	0	0	0	0		1	0	0	0	0	0	0	0
010713	10:20:51	11111	pm.simpleFrRight	blank.simpleFr	2	0	2200	1	0	10:20:51	144211	0	0	0	0	0	0	0	0	0	0	0	0	0	0	0	0	0	0	0	0	0	0		1	0	0	0	0	0	0	0
010713	10:20:51	11111	pm.simpleFrRight	pm.simpleFr	2	57	2973	0	0	10:20:51	147210	0	0	0	0	0	0	0	0	0	0	0	0	0	0	0	0	0	0	0	0	0	0		1	0	0	0	0	0	0	0
010713	10:20:51	11111	pm.simpleFrRight	blank.simpleFr	2	0	1800	1	0	10:20:51	149036	0	0	0	0	0	0	0	0	0	0	0	0	0	0	0	0	0	0	0	0	0	0		1	0	0	0	0	0	0	0
010713	10:20:51	11111	pm.simpleFrRight	pm.simpleFr	2	57	1205	0	0	10:20:51	150262	0	0	0	0	0	0	0	0	0	0	0	0	0	0	0	0	0	0	0	0	0	0		1	0	0	0	0	0	0	0
010713	10:20:51	11111	pm.simpleFrRight	blank.simpleFr	2	0	1700	1	0	10:20:51	151981	0	0	0	0	0	0	0	0	0	0	0	0	0	0	0	0	0	0	0	0	0	0		1	0	0	0	0	0	0	0
010713	10:20:51	11111	pm.simpleFrRight	pm.simpleFr	2	57	387	0	0	10:20:51	152394	0	0	0	0	0	0	0	0	0	0	0	0	0	0	0	0	0	0	0	0	0	0		1	0	0	0	0	0	0	0
010713	10:20:51	11111	pm.simpleFrRight	blank.simpleFr	2	0	2400	1	0	10:20:51	154807	0	0	0	0	0	0	0	0	0	0	0	0	0	0	0	0	0	0	0	0	0	0		1	0	0	0	0	0	0	0
010713	10:20:51	11111	pm.simpleFrRight	pm.simpleFr	2	57	404	0	0	10:20:51	155234	0	0	0	0	0	0	0	0	0	0	0	0	0	0	0	0	0	0	0	0	0	0		1	0	0	0	0	0	0	0
010713	10:20:51	11111	pm.simpleFrRight	blank.simpleFr	2	0	2000	1	0	10:20:51	157259	0	0	0	0	0	0	0	0	0	0	0	0	0	0	0	0	0	0	0	0	0	0		1	0	0	0	0	0	0	0
010713	10:20:51	11111	pm.simpleFrRight	pm.simpleFr	2	57	677	0	0	10:20:51	157965	0	0	0	0	0	0	0	0	0	0	0	0	0	0	0	0	0	0	0	0	0	0		1	0	0	0	0	0	0	0
010713	10:20:51	11111	pm.simpleFrRight	blank.simpleFr	2	0	1500	1	0	10:20:51	159485	0	0	0	0	0	0	0	0	0	0	0	0	0	0	0	0	0	0	0	0	0	0		1	0	0	0	0	0	0	0
010713	10:20:51	11111	pm.simpleFrRight	pm.simpleFr	2	57	487	0	0	10:20:51	159991	0	0	0	0	0	0	0	0	0	0	0	0	0	0	0	0	0	0	0	0	0	0		1	0	0	0	0	0	0	0
010713	10:20:51	11111	pm.simpleFrRight	blank.simpleFr	2	0	1900	1	0	10:20:51	161910	0	0	0	0	0	0	0	0	0	0	0	0	0	0	0	0	0	0	0	0	0	0		1	0	0	0	0	0	0	0
010713	10:20:51	11111	pm.simpleFrRight	pm.simpleFr	2	57	4185	0	0	10:20:51	166122	0	0	0	0	0	0	0	0	0	0	0	0	0	0	0	0	0	0	0	0	0	0		1	0	0	0	0	0	0	0
010713	10:20:51	11111	pm.simpleFrRight	blank.simpleFr	2	0	2100	1	0	10:20:51	168241	0	0	0	0	0	0	0	0	0	0	0	0	0	0	0	0	0	0	0	0	0	0		1	0	0	0	0	0	0	0
010713	10:20:51	11111	pm.simpleFrRight	pm.simpleFr	2	57	1470	0	0	10:20:51	169734	0	0	0	0	0	0	0	0	0	0	0	0	0	0	0	0	0	0	0	0	0	0		1	0	0	0	0	0	0	0
010713	10:20:51	11111	pm.simpleFrRight	blank.simpleFr	2	0	1600	1	0	10:20:51	171346	0	0	0	0	0	0	0	0	0	0	0	0	0	0	0	0	0	0	0	0	0	0		1	0	0	0	0	0	0	0
010713	10:20:51	11111	pm.simpleFrRight	pm.simpleFr	2	57	1325	0	0	10:20:51	172693	0	0	0	0	0	0	0	0	0	0	0	0	0	0	0	0	0	0	0	0	0	0		1	0	0	0	0	0	0	0
010713	10:20:51	11111	pm.simpleFrRight	blank.simpleFr	2	0	2300	1	0	10:20:51	175012	0	0	0	0	0	0	0	0	0	0	0	0	0	0	0	0	0	0	0	0	0	0		1	0	0	0	0	0	0	0
010713	10:20:51	11111	pm.simpleFrRight	pm.simpleFr	2	57	300	0	0	10:20:51	175332	0	0	0	0	0	0	0	0	0	0	0	0	0	0	0	0	0	0	0	0	0	0		1	0	0	0	0	0	0	0
010713	10:20:51	11111	pm.simpleFrRight	blank.simpleFr	2	0	2500	1	0	10:20:51	177851	0	0	0	0	0	0	0	0	0	0	0	0	0	0	0	0	0	0	0	0	0	0		1	0	0	0	0	0	0	0
010713	10:20:51	11111	pm.simpleFrRight	pm.simpleFr	2	57	212	0	0	10:20:51	178091	0	0	0	0	0	0	0	0	0	0	0	0	0	0	0	0	0	0	0	0	0	0		1	0	0	0	0	0	0	0
010713	10:20:51	11111	pm.simpleFrRight	blank.simpleFr	2	0	2100	1	0	10:20:51	180210	0	0	0	0	0	0	0	0	0	0	0	0	0	0	0	0	0	0	0	0	0	0		1	0	0	0	0	0	0	0
010713	10:20:51	11111	pm.simpleFrRight	pm.simpleFr	2	57	291	0	0	10:20:51	180530	0	0	0	0	0	0	0	0	0	0	0	0	0	0	0	0	0	0	0	0	0	0		1	0	0	0	0	0	0	0
010713	10:20:51	11111	pm.simpleFrRight	blank.simpleFr	2	0	1700	1	0	10:20:51	182249	0	0	0	0	0	0	0	0	0	0	0	0	0	0	0	0	0	0	0	0	0	0		1	0	0	0	0	0	0	0
010713	10:20:51	11111	pm.simpleFrRight	pm.simpleFr	2	57	326	0	0	10:20:51	182595	0	0	0	0	0	0	0	0	0	0	0	0	0	0	0	0	0	0	0	0	0	0		1	0	0	0	0	0	0	0
010713	10:20:51	11111	pm.simpleFrRight	blank.simpleFr	2	0	1500	1	0	10:20:51	184115	0	0	0	0	0	0	0	0	0	0	0	0	0	0	0	0	0	0	0	0	0	0		1	0	0	0	0	0	0	0
010713	10:20:51	11111	pm.simpleFrRight	pm.simpleFr	2	57	1612	0	0	10:20:51	185754	0	0	0	0	0	0	0	0	0	0	0	0	0	0	0	0	0	0	0	0	0	0		1	0	0	0	0	0	0	0
010713	10:20:51	11111	pm.simpleFrRight	blank.simpleFr	2	0	2000	1	0	10:20:51	187767	0	0	0	0	0	0	0	0	0	0	0	0	0	0	0	0	0	0	0	0	0	0		1	0	0	0	0	0	0	0
010713	10:20:51	11111	pm.simpleFrRight	pm.simpleFr	2	57	344	0	0	10:20:51	188140	0	0	0	0	0	0	0	0	0	0	0	0	0	0	0	0	0	0	0	0	0	0		1	0	0	0	0	0	0	0
010713	10:20:51	11111	pm.simpleFrRight	blank.simpleFr	2	0	2400	1	0	10:20:51	190566	0	0	0	0	0	0	0	0	0	0	0	0	0	0	0	0	0	0	0	0	0	0		1	0	0	0	0	0	0	0
010713	10:20:51	11111	pm.simpleFrRight	pm.simpleFr	2	57	266	0	0	10:20:51	190859	0	0	0	0	0	0	0	0	0	0	0	0	0	0	0	0	0	0	0	0	0	0		1	0	0	0	0	0	0	0
010713	10:20:51	11111	pm.simpleFrRight	blank.simpleFr	2	0	2300	1	0	10:20:51	193178	0	0	0	0	0	0	0	0	0	0	0	0	0	0	0	0	0	0	0	0	0	0		1	0	0	0	0	0	0	0
010713	10:20:51	11111	pm.simpleFrRight	pm.simpleFr	2	57	325	0	0	10:20:51	193524	0	0	0	0	0	0	0	0	0	0	0	0	0	0	0	0	0	0	0	0	0	0		1	0	0	0	0	0	0	0
010713	10:20:51	11111	pm.simpleFrRight	blank.simpleFr	2	0	2500	1	0	10:20:51	196043	0	0	0	0	0	0	0	0	0	0	0	0	0	0	0	0	0	0	0	0	0	0		1	0	0	0	0	0	0	0
010713	10:20:51	11111	pm.simpleFrRight	pm.simpleFr	2	57	1796	0	0	10:20:51	197856	0	0	0	0	0	0	0	0	0	0	0	0	0	0	0	0	0	0	0	0	0	0		1	0	0	0	0	0	0	0
010713	10:20:51	11111	Trial2BackFr	N	3	0	1000	1	1	10:20:51	225485	0	0	0	0	0	0	0	0	0	0	0	0	0	0	0	0	0	0	0	0	0	0		1	0	0	0	0	0	0	0
010713	10:20:51	11111	Trial2BackFr	N	3	0	1000	1	2	10:20:51	226991	0	0	0	0	0	0	0	0	0	0	0	0	0	0	0	0	0	0	0	0	0	0		1	0	0	0	0	0	0	0
010713	10:20:51	11111	Trial2BackFr	N	3	0	1000	1	3	10:20:51	228497	0	0	0	0	0	0	0	0	0	0	0	0	0	0	0	0	0	0	0	0	0	0		1	0	0	0	0	0	0	0
010713	10:20:51	11111	Trial2BackFr	N	3	0	1000	1	4	10:20:51	230003	0	0	0	0	0	0	0	0	0	0	0	0	0	0	0	0	0	0	0	0	0	0		1	0	0	0	0	0	0	0
010713	10:20:51	11111	Trial2BackFr	N	3	0	1000	1	5	10:20:51	231522	0	0	0	0	0	0	0	0	0	0	0	0	0	0	0	0	0	0	0	0	0	0		1	0	0	0	0	0	0	0
010713	10:20:51	11111	Trial2BackFr	N	3	0	1000	1	6	10:20:51	233028	0	0	0	0	0	0	0	0	0	0	0	0	0	0	0	0	0	0	0	0	0	0		1	0	0	0	0	0	0	0
010713	10:20:51	11111	Trial2BackFr	N	3	0	1000	1	7	10:20:51	234534	0	0	0	0	0	0	0	0	0	0	0	0	0	0	0	0	0	0	0	0	0	0		1	0	0	0	0	0	0	0
010713	10:20:51	11111	Trial2BackFr	N	3	0	1000	1	8	10:20:51	236067	0	0	0	0	0	0	0	0	0	0	0	0	0	0	0	0	0	0	0	0	0	0		1	0	0	0	0	0	0	0
010713	10:20:51	11111	Trial2BackFr	Y	3	0	1000	0	8	10:20:51	237587	0	0	0	0	0	0	0	0	0	0	0	0	0	0	0	0	0	0	0	0	0	0		1	0	0	0	0	0	0	0
010713	10:20:51	11111	Trial2BackFr	N	3	0	1000	1	9	10:20:51	239106	0	0	0	0	0	0	0	0	0	0	0	0	0	0	0	0	0	0	0	0	0	0		1	0	0	0	0	0	0	0
010713	10:20:51	11111	Trial2BackFr	N	3	0	1000	1	10	10:20:51	240625	0	0	0	0	0	0	0	0	0	0	0	0	0	0	0	0	0	0	0	0	0	0		1	0	0	0	0	0	0	0
010713	10:20:51	11111	Trial2BackFr	N	3	0	1000	1	11	10:20:51	242145	0	0	0	0	0	0	0	0	0	0	0	0	0	0	0	0	0	0	0	0	0	0		1	0	0	0	0	0	0	0
010713	10:20:51	11111	Trial2BackFr	Y	3	0	1000	0	11	10:20:51	243664	0	0	0	0	0	0	0	0	0	0	0	0	0	0	0	0	0	0	0	0	0	0		1	0	0	0	0	0	0	0
010713	10:20:51	11111	Trial2BackFr	N	3	0	1000	1	12	10:20:51	245184	0	0	0	0	0	0	0	0	0	0	0	0	0	0	0	0	0	0	0	0	0	0		1	0	0	0	0	0	0	0
010713	10:20:51	11111	Trial2BackFr	N	3	0	1000	1	13	10:20:51	246703	0	0	0	0	0	0	0	0	0	0	0	0	0	0	0	0	0	0	0	0	0	0		1	0	0	0	0	0	0	0
010713	10:20:51	11111	Trial2BackFr	N	3	0	1000	1	14	10:20:51	248222	0	0	0	0	0	0	0	0	0	0	0	0	0	0	0	0	0	0	0	0	0	0		1	0	0	0	0	0	0	0
010713	10:20:51	11111	Trial2BackFr	N	3	0	1000	1	15	10:20:51	249728	0	0	0	0	0	0	0	0	0	0	0	0	0	0	0	0	0	0	0	0	0	0		1	0	0	0	0	0	0	0
010713	10:20:51	11111	Trial2BackFr	N	3	0	1000	1	16	10:20:51	251234	0	0	0	0	0	0	0	0	0	0	0	0	0	0	0	0	0	0	0	0	0	0		1	0	0	0	0	0	0	0
010713	10:20:51	11111	Trial2BackFr	Y	3	0	1000	0	16	10:20:51	252740	0	0	0	0	0	0	0	0	0	0	0	0	0	0	0	0	0	0	0	0	0	0		1	0	0	0	0	0	0	0
010713	10:20:51	11111	Trial2BackFr	N	3	0	1000	1	17	10:20:51	254247	0	0	0	0	0	0	0	0	0	0	0	0	0	0	0	0	0	0	0	0	0	0		1	0	0	0	0	0	0	0
010713	10:20:51	11111	Trial2BackFr	N	3	0	1000	1	18	10:20:51	255752	0	0	0	0	0	0	0	0	0	0	0	0	0	0	0	0	0	0	0	0	0	0		1	0	0	0	0	0	0	0
010713	10:20:51	11111	Trial2BackFr	N	3	0	1000	1	19	10:20:51	257259	0	0	0	0	0	0	0	0	0	0	0	0	0	0	0	0	0	0	0	0	0	0		1	0	0	0	0	0	0	0
010713	10:20:51	11111	Trial2BackFr	N	3	0	1000	1	20	10:20:51	258778	0	0	0	0	0	0	0	0	0	0	0	0	0	0	0	0	0	0	0	0	0	0		1	0	0	0	0	0	0	0
010713	10:20:51	11111	Trial2BackFr	Y	3	0	1000	0	20	10:20:51	260297	0	0	0	0	0	0	0	0	0	0	0	0	0	0	0	0	0	0	0	0	0	0		1	0	0	0	0	0	0	0
010713	10:20:51	11111	Trial2BackFr	N	3	0	1000	1	21	10:20:51	261803	0	0	0	0	0	0	0	0	0	0	0	0	0	0	0	0	0	0	0	0	0	0		1	0	0	0	0	0	0	0
010713	10:20:51	11111	Trial2BackFr	N	3	0	1000	1	22	10:20:51	263323	0	0	0	0	0	0	0	0	0	0	0	0	0	0	0	0	0	0	0	0	0	0		1	0	0	0	0	0	0	0
010713	10:20:51	11111	Trial2BackFr	N	3	0	1000	1	23	10:20:51	264829	0	0	0	0	0	0	0	0	0	0	0	0	0	0	0	0	0	0	0	0	0	0		1	0	0	0	0	0	0	0
010713	10:20:51	11111	Trial2BackFr	N	3	0	1000	1	24	10:20:51	266335	0	0	0	0	0	0	0	0	0	0	0	0	0	0	0	0	0	0	0	0	0	0		1	0	0	0	0	0	0	0
010713	10:20:51	11111	Trial2BackFr	N	3	0	1000	1	25	10:20:51	267841	0	0	0	0	0	0	0	0	0	0	0	0	0	0	0	0	0	0	0	0	0	0		1	0	0	0	0	0	0	0
010713	10:20:51	11111	Trial2BackFr	N	3	0	1000	1	26	10:20:51	269347	0	0	0	0	0	0	0	0	0	0	0	0	0	0	0	0	0	0	0	0	0	0		1	0	0	0	0	0	0	0
010713	10:20:51	11111	Trial2BackFr	Y	3	0	1000	0	26	10:20:51	270853	0	0	0	0	0	0	0	0	0	0	0	0	0	0	0	0	0	0	0	0	0	0		1	0	0	0	0	0	0	0
010713	10:20:51	11111	Trial2BackFr	N	3	0	1000	1	27	10:20:51	272359	0	0	0	0	0	0	0	0	0	0	0	0	0	0	0	0	0	0	0	0	0	0		1	0	0	0	0	0	0	0
010713	10:20:51	11111	Trial2BackFr	N	3	0	1000	1	28	10:20:51	273865	0	0	0	0	0	0	0	0	0	0	0	0	0	0	0	0	0	0	0	0	0	0		1	0	0	0	0	0	0	0
010713	10:20:51	11111	Trial2BackFr	N	3	0	1000	1	29	10:20:51	275371	0	0	0	0	0	0	0	0	0	0	0	0	0	0	0	0	0	0	0	0	0	0		1	0	0	0	0	0	0	0
010713	10:20:51	11111	Trial2BackFr	Y	3	0	1000	0	29	10:20:51	276877	0	0	0	0	0	0	0	0	0	0	0	0	0	0	0	0	0	0	0	0	0	0		1	0	0	0	0	0	0	0
010713	10:20:51	11111	Trial2BackFr	N	3	0	1000	1	30	10:20:51	278383	0	0	0	0	0	0	0	0	0	0	0	0	0	0	0	0	0	0	0	0	0	0		1	0	0	0	0	0	0	0
010713	10:20:51	11111	Trial2BackFr	N	3	0	1000	1	31	10:20:51	279889	0	0	0	0	0	0	0	0	0	0	0	0	0	0	0	0	0	0	0	0	0	0		1	0	0	0	0	0	0	0
010713	10:20:51	11111	Trial2BackFr	N	3	0	1000	1	32	10:20:51	281396	0	0	0	0	0	0	0	0	0	0	0	0	0	0	0	0	0	0	0	0	0	0		1	0	0	0	0	0	0	0
010713	10:20:51	11111	Trial2BackFr	N	3	0	1000	1	33	10:20:51	282901	0	0	0	0	0	0	0	0	0	0	0	0	0	0	0	0	0	0	0	0	0	0		1	0	0	0	0	0	0	0
010713	10:20:51	11111	Trial2BackFr	N	3	0	1000	1	34	10:20:51	284408	0	0	0	0	0	0	0	0	0	0	0	0	0	0	0	0	0	0	0	0	0	0		1	0	0	0	0	0	0	0
010713	10:20:51	11111	Trial2BackFr	N	3	0	1000	1	35	10:20:51	285913	0	0	0	0	0	0	0	0	0	0	0	0	0	0	0	0	0	0	0	0	0	0		1	0	0	0	0	0	0	0
010713	10:20:51	11111	Trial2BackFr	Y	3	0	1000	0	35	10:20:51	287420	0	0	0	0	0	0	0	0	0	0	0	0	0	0	0	0	0	0	0	0	0	0		1	0	0	0	0	0	0	0
010713	10:20:51	11111	Trial2BackFr	N	3	0	1000	1	36	10:20:51	288926	0	0	0	0	0	0	0	0	0	0	0	0	0	0	0	0	0	0	0	0	0	0		1	0	0	0	0	0	0	0
010713	10:20:51	11111	Trial2BackFr	N	3	0	1000	1	37	10:20:51	290432	0	0	0	0	0	0	0	0	0	0	0	0	0	0	0	0	0	0	0	0	0	0		1	0	0	0	0	0	0	0
010713	10:20:51	11111	Trial2BackFr	N	3	0	1000	1	38	10:20:51	291951	0	0	0	0	0	0	0	0	0	0	0	0	0	0	0	0	0	0	0	0	0	0		1	0	0	0	0	0	0	0
010713	10:20:51	11111	Trial2BackFr	N	3	0	1000	1	39	10:20:51	293457	0	0	0	0	0	0	0	0	0	0	0	0	0	0	0	0	0	0	0	0	0	0		1	0	0	0	0	0	0	0
010713	10:20:51	11111	Trial2BackFr	Y	3	0	1000	0	39	10:20:51	294963	0	0	0	0	0	0	0	0	0	0	0	0	0	0	0	0	0	0	0	0	0	0		1	0	0	0	0	0	0	0
010713	10:20:51	11111	Trial2BackFr	N	3	0	1000	1	40	10:20:51	296469	0	0	0	0	0	0	0	0	0	0	0	0	0	0	0	0	0	0	0	0	0	0		1	0	0	0	0	0	0	0
010713	10:20:51	11111	Trial2BackFr	N	3	0	1000	1	41	10:20:51	297975	0	0	0	0	0	0	0	0	0	0	0	0	0	0	0	0	0	0	0	0	0	0		1	0	0	0	0	0	0	0
010713	10:20:51	11111	Trial2BackFr	N	3	0	1000	1	42	10:20:51	299481	0	0	0	0	0	0	0	0	0	0	0	0	0	0	0	0	0	0	0	0	0	0		1	0	0	0	0	0	0	0
010713	10:20:51	11111	Trial2BackFr	N	3	0	1000	1	43	10:20:51	300988	0	0	0	0	0	0	0	0	0	0	0	0	0	0	0	0	0	0	0	0	0	0		1	0	0	0	0	0	0	0
010713	10:20:51	11111	Trial2BackFr	N	3	0	1000	1	44	10:20:51	302493	0	0	0	0	0	0	0	0	0	0	0	0	0	0	0	0	0	0	0	0	0	0		1	0	0	0	0	0	0	0
010713	10:20:51	11111	Trial2BackFr	Y	3	0	1000	0	44	10:20:51	304000	0	0	0	0	0	0	0	0	0	0	0	0	0	0	0	0	0	0	0	0	0	0		1	0	0	0	0	0	0	0
010713	10:20:51	11111	Trial2BackFr	N	3	0	1000	1	45	10:20:51	305519	0	0	0	0	0	0	0	0	0	0	0	0	0	0	0	0	0	0	0	0	0	0		1	0	0	0	0	0	0	0
010713	10:20:51	11111	Trial2BackFr	N	3	0	1000	1	46	10:20:51	307025	0	0	0	0	0	0	0	0	0	0	0	0	0	0	0	0	0	0	0	0	0	0		1	0	0	0	0	0	0	0
010713	10:20:51	11111	Trial2BackFr	N	3	0	1000	1	47	10:20:51	308531	0	0	0	0	0	0	0	0	0	0	0	0	0	0	0	0	0	0	0	0	0	0		1	0	0	0	0	0	0	0
010713	10:20:51	11111	Trial2BackFr	N	3	0	1000	1	48	10:20:51	310037	0	0	0	0	0	0	0	0	0	0	0	0	0	0	0	0	0	0	0	0	0	0		1	0	0	0	0	0	0	0
010713	10:20:51	11111	Trial2BackFr	N	3	0	1000	1	49	10:20:51	311543	0	0	0	0	0	0	0	0	0	0	0	0	0	0	0	0	0	0	0	0	0	0		1	0	0	0	0	0	0	0
010713	10:20:51	11111	Trial2BackFr	N	3	0	1000	1	50	10:20:51	313049	0	0	0	0	0	0	0	0	0	0	0	0	0	0	0	0	0	0	0	0	0	0		1	0	0	0	0	0	0	0
010713	10:20:51	11111	Trial2BackFr	Y	3	0	1000	0	50	10:20:51	314569	0	0	0	0	0	0	0	0	0	0	0	0	0	0	0	0	0	0	0	0	0	0		1	0	0	0	0	0	0	0
010713	10:20:51	11111	Trial2BackFr	N	3	0	1000	1	51	10:20:51	316088	0	0	0	0	0	0	0	0	0	0	0	0	0	0	0	0	0	0	0	0	0	0		1	0	0	0	0	0	0	0
010713	10:20:51	11111	Trial2BackFr	N	3	0	1000	1	52	10:20:51	317594	0	0	0	0	0	0	0	0	0	0	0	0	0	0	0	0	0	0	0	0	0	0		1	0	0	0	0	0	0	0
010713	10:20:51	11111	Trial2BackFr	Y	3	0	1000	0	52	10:20:51	319100	0	0	0	0	0	0	0	0	0	0	0	0	0	0	0	0	0	0	0	0	0	0		1	0	0	0	0	0	0	0
010713	10:20:51	11111	Trial2BackFr	N	3	0	1000	1	53	10:20:51	320606	0	0	0	0	0	0	0	0	0	0	0	0	0	0	0	0	0	0	0	0	0	0		1	0	0	0	0	0	0	0
010713	10:20:51	11111	Trial2BackFr	N	3	0	1000	1	54	10:20:51	322112	0	0	0	0	0	0	0	0	0	0	0	0	0	0	0	0	0	0	0	0	0	0		1	0	0	0	0	0	0	0
010713	10:20:51	11111	Trial2BackFr	N	3	0	1000	1	55	10:20:51	323618	0	0	0	0	0	0	0	0	0	0	0	0	0	0	0	0	0	0	0	0	0	0		1	0	0	0	0	0	0	0
010713	10:20:51	11111	Trial2BackFr	N	3	0	1000	1	56	10:20:51	325124	0	0	0	0	0	0	0	0	0	0	0	0	0	0	0	0	0	0	0	0	0	0		1	0	0	0	0	0	0	0
010713	10:20:51	11111	Trial2BackFr	N	3	0	1000	1	57	10:20:51	326630	0	0	0	0	0	0	0	0	0	0	0	0	0	0	0	0	0	0	0	0	0	0		1	0	0	0	0	0	0	0
010713	10:20:51	11111	Trial2BackFr	N	3	0	1000	1	58	10:20:51	328137	0	0	0	0	0	0	0	0	0	0	0	0	0	0	0	0	0	0	0	0	0	0		1	0	0	0	0	0	0	0
010713	10:20:51	11111	Trial2BackFr	N	3	0	1000	1	59	10:20:51	329643	0	0	0	0	0	0	0	0	0	0	0	0	0	0	0	0	0	0	0	0	0	0		1	0	0	0	0	0	0	0
010713	10:20:51	11111	Trial2BackFr	N	3	0	1000	1	60	10:20:51	331149	0	0	0	0	0	0	0	0	0	0	0	0	0	0	0	0	0	0	0	0	0	0		1	0	0	0	0	0	0	0
010713	10:20:51	11111	Trial2BackFr	N	3	0	1000	1	61	10:20:51	332668	0	0	0	0	0	0	0	0	0	0	0	0	0	0	0	0	0	0	0	0	0	0		1	0	0	0	0	0	0	0
010713	10:20:51	11111	Trial2BackFr	N	3	0	1000	1	62	10:20:51	334187	0	0	0	0	0	0	0	0	0	0	0	0	0	0	0	0	0	0	0	0	0	0		1	0	0	0	0	0	0	0
010713	10:20:51	11111	Trial2BackFr	Y	3	0	1000	0	62	10:20:51	335693	0	0	0	0	0	0	0	0	0	0	0	0	0	0	0	0	0	0	0	0	0	0		1	0	0	0	0	0	0	0
010713	10:20:51	11111	Trial2BackFr	N	3	0	1000	1	63	10:20:51	337200	0	0	0	0	0	0	0	0	0	0	0	0	0	0	0	0	0	0	0	0	0	0		1	0	0	0	0	0	0	0
010713	10:20:51	11111	Trial2BackFr	N	3	0	1000	1	64	10:20:51	338719	0	0	0	0	0	0	0	0	0	0	0	0	0	0	0	0	0	0	0	0	0	0		1	0	0	0	0	0	0	0
010713	10:20:51	11111	Trial2BackFr	N	3	0	1000	1	65	10:20:51	340238	0	0	0	0	0	0	0	0	0	0	0	0	0	0	0	0	0	0	0	0	0	0		1	0	0	0	0	0	0	0
010713	10:20:51	11111	Trial2BackFr	Y	3	0	1000	0	65	10:20:51	341744	0	0	0	0	0	0	0	0	0	0	0	0	0	0	0	0	0	0	0	0	0	0		1	0	0	0	0	0	0	0
010713	10:20:51	11111	Trial2BackFr	N	3	0	1000	1	66	10:20:51	343250	0	0	0	0	0	0	0	0	0	0	0	0	0	0	0	0	0	0	0	0	0	0		1	0	0	0	0	0	0	0
010713	10:20:51	11111	Trial2BackFr	N	3	0	1000	1	67	10:20:51	344756	0	0	0	0	0	0	0	0	0	0	0	0	0	0	0	0	0	0	0	0	0	0		1	0	0	0	0	0	0	0
010713	10:20:51	11111	Trial2BackFr	N	3	0	1000	1	68	10:20:51	346263	0	0	0	0	0	0	0	0	0	0	0	0	0	0	0	0	0	0	0	0	0	0		1	0	0	0	0	0	0	0
010713	10:20:51	11111	Trial2BackFr	N	3	0	1000	1	69	10:20:51	347768	0	0	0	0	0	0	0	0	0	0	0	0	0	0	0	0	0	0	0	0	0	0		1	0	0	0	0	0	0	0
010713	10:20:51	11111	Trial2BackFr	N	3	0	1000	1	70	10:20:51	349275	0	0	0	0	0	0	0	0	0	0	0	0	0	0	0	0	0	0	0	0	0	0		1	0	0	0	0	0	0	0
010713	10:20:51	11111	Trial2BackFr	Y	3	0	1000	0	70	10:20:51	350781	0	0	0	0	0	0	0	0	0	0	0	0	0	0	0	0	0	0	0	0	0	0		1	0	0	0	0	0	0	0
010713	10:20:51	11111	Trial2BackFr	N	3	0	1000	1	71	10:20:51	352287	0	0	0	0	0	0	0	0	0	0	0	0	0	0	0	0	0	0	0	0	0	0		1	0	0	0	0	0	0	0
010713	10:20:51	11111	Trial2BackFr	N	3	0	1000	1	72	10:20:51	353793	0	0	0	0	0	0	0	0	0	0	0	0	0	0	0	0	0	0	0	0	0	0		1	0	0	0	0	0	0	0
010713	10:20:51	11111	Trial2BackFr	N	3	0	1000	1	73	10:20:51	355299	0	0	0	0	0	0	0	0	0	0	0	0	0	0	0	0	0	0	0	0	0	0		1	0	0	0	0	0	0	0
010713	10:20:51	11111	Trial2BackFr	N	3	0	1000	1	74	10:20:51	356805	0	0	0	0	0	0	0	0	0	0	0	0	0	0	0	0	0	0	0	0	0	0		1	0	0	0	0	0	0	0
010713	10:20:51	11111	Trial2BackFr	N	3	0	1000	1	75	10:20:51	358311	0	0	0	0	0	0	0	0	0	0	0	0	0	0	0	0	0	0	0	0	0	0		1	0	0	0	0	0	0	0
010713	10:20:51	11111	Trial2BackFr	N	3	0	1000	1	76	10:20:51	359817	0	0	0	0	0	0	0	0	0	0	0	0	0	0	0	0	0	0	0	0	0	0		1	0	0	0	0	0	0	0
010713	10:20:51	11111	Trial2BackFr	N	3	0	1000	1	77	10:20:51	361323	0	0	0	0	0	0	0	0	0	0	0	0	0	0	0	0	0	0	0	0	0	0		1	0	0	0	0	0	0	0
010713	10:20:51	11111	Trial2BackFr	N	3	0	1000	1	78	10:20:51	362842	0	0	0	0	0	0	0	0	0	0	0	0	0	0	0	0	0	0	0	0	0	0		1	0	0	0	0	0	0	0
010713	10:20:51	11111	Trial2BackFr	N	3	0	1000	1	79	10:20:51	364362	0	0	0	0	0	0	0	0	0	0	0	0	0	0	0	0	0	0	0	0	0	0		1	0	0	0	0	0	0	0
010713	10:20:51	11111	Trial2BackFr	Y	3	0	1000	0	79	10:20:51	365868	0	0	0	0	0	0	0	0	0	0	0	0	0	0	0	0	0	0	0	0	0	0		1	0	0	0	0	0	0	0
010713	10:20:51	11111	Trial2BackFr	N	3	0	1000	1	80	10:20:51	367374	0	0	0	0	0	0	0	0	0	0	0	0	0	0	0	0	0	0	0	0	0	0		1	0	0	0	0	0	0	0
010713	10:20:51	11111	Trial2BackFr	N	3	0	1000	1	81	10:20:51	368880	0	0	0	0	0	0	0	0	0	0	0	0	0	0	0	0	0	0	0	0	0	0		1	0	0	0	0	0	0	0
010713	10:20:51	11111	Trial2BackFr	N	3	0	1000	1	82	10:20:51	370386	0	0	0	0	0	0	0	0	0	0	0	0	0	0	0	0	0	0	0	0	0	0		1	0	0	0	0	0	0	0
010713	10:20:51	11111	Trial2BackFr	N	3	0	1000	1	83	10:20:51	371892	0	0	0	0	0	0	0	0	0	0	0	0	0	0	0	0	0	0	0	0	0	0		1	0	0	0	0	0	0	0
010713	10:20:51	11111	Trial2BackFr	N	3	0	1000	1	84	10:20:51	373398	0	0	0	0	0	0	0	0	0	0	0	0	0	0	0	0	0	0	0	0	0	0		1	0	0	0	0	0	0	0
010713	10:20:51	11111	Trial2BackFr	N	3	0	1000	1	85	10:20:51	374904	0	0	0	0	0	0	0	0	0	0	0	0	0	0	0	0	0	0	0	0	0	0		1	0	0	0	0	0	0	0
010713	10:20:51	11111	Trial2BackFr	N	3	0	1000	1	86	10:20:51	376410	0	0	0	0	0	0	0	0	0	0	0	0	0	0	0	0	0	0	0	0	0	0		1	0	0	0	0	0	0	0
010713	10:20:51	11111	Trial2BackFr	N	3	0	1000	1	87	10:20:51	377930	0	0	0	0	0	0	0	0	0	0	0	0	0	0	0	0	0	0	0	0	0	0		1	0	0	0	0	0	0	0
010713	10:20:51	11111	Trial2BackFr	Y	3	0	1000	0	87	10:20:51	379436	0	0	0	0	0	0	0	0	0	0	0	0	0	0	0	0	0	0	0	0	0	0		1	0	0	0	0	0	0	0
010713	10:20:51	11111	Trial2BackFr	N	3	0	1000	1	88	10:20:51	380942	0	0	0	0	0	0	0	0	0	0	0	0	0	0	0	0	0	0	0	0	0	0		1	0	0	0	0	0	0	0
010713	10:20:51	11111	Trial2BackFr	N	3	0	1000	1	89	10:20:51	382448	0	0	0	0	0	0	0	0	0	0	0	0	0	0	0	0	0	0	0	0	0	0		1	0	0	0	0	0	0	0
010713	10:20:51	11111	Trial2BackFr	N	3	0	1000	1	90	10:20:51	383954	0	0	0	0	0	0	0	0	0	0	0	0	0	0	0	0	0	0	0	0	0	0		1	0	0	0	0	0	0	0
010713	10:20:51	11111	Trial2BackFr	N	3	0	1000	1	91	10:20:51	385460	0	0	0	0	0	0	0	0	0	0	0	0	0	0	0	0	0	0	0	0	0	0		1	0	0	0	0	0	0	0
010713	10:20:51	11111	Trial2BackFr	Y	3	0	1000	0	91	10:20:51	386966	0	0	0	0	0	0	0	0	0	0	0	0	0	0	0	0	0	0	0	0	0	0		1	0	0	0	0	0	0	0
010713	10:20:51	11111	Trial2BackFr	N	3	0	1000	1	92	10:20:51	388472	0	0	0	0	0	0	0	0	0	0	0	0	0	0	0	0	0	0	0	0	0	0		1	0	0	0	0	0	0	0
010713	10:20:51	11111	Trial2BackFr	N	3	0	1000	1	93	10:20:51	389978	0	0	0	0	0	0	0	0	0	0	0	0	0	0	0	0	0	0	0	0	0	0		1	0	0	0	0	0	0	0
010713	10:20:51	11111	Trial2BackFr	N	3	0	1000	1	94	10:20:51	391484	0	0	0	0	0	0	0	0	0	0	0	0	0	0	0	0	0	0	0	0	0	0		1	0	0	0	0	0	0	0
010713	10:20:51	11111	Trial2BackFr	Y	3	0	1000	0	94	10:20:51	392990	0	0	0	0	0	0	0	0	0	0	0	0	0	0	0	0	0	0	0	0	0	0		1	0	0	0	0	0	0	0
010713	10:20:51	11111	Trial2BackFr	N	3	0	1000	1	95	10:20:51	394536	0	0	0	0	0	0	0	0	0	0	0	0	0	0	0	0	0	0	0	0	0	0		1	0	0	0	0	0	0	0
010713	10:20:51	11111	Trial2BackFr	N	3	0	1000	1	96	10:20:51	396042	0	0	0	0	0	0	0	0	0	0	0	0	0	0	0	0	0	0	0	0	0	0		1	0	0	0	0	0	0	0
010713	10:20:51	11111	Trial2BackFr	N	3	0	1000	1	97	10:20:51	397548	0	0	0	0	0	0	0	0	0	0	0	0	0	0	0	0	0	0	0	0	0	0		1	0	0	0	0	0	0	0
010713	10:20:51	11111	Trial2BackFr	N	3	0	1000	1	98	10:20:51	399054	0	0	0	0	0	0	0	0	0	0	0	0	0	0	0	0	0	0	0	0	0	0		1	0	0	0	0	0	0	0
010713	10:20:51	11111	Trial2BackFr	N	3	0	1000	1	99	10:20:51	400561	0	0	0	0	0	0	0	0	0	0	0	0	0	0	0	0	0	0	0	0	0	0		1	0	0	0	0	0	0	0
010713	10:20:51	11111	Trial2BackFr	Y	3	0	1000	0	99	10:20:51	402067	0	0	0	0	0	0	0	0	0	0	0	0	0	0	0	0	0	0	0	0	0	0		1	0	0	0	0	0	0	0
010713	10:20:51	11111	Trial2BackFr	N	3	0	1000	1	100	10:20:51	403573	0	0	0	0	0	0	0	0	0	0	0	0	0	0	0	0	0	0	0	0	0	0		1	0	0	0	0	0	0	0
010713	10:20:51	11111	Trial2BackFr	N	3	0	1000	1	101	10:20:51	405079	0	0	0	0	0	0	0	0	0	0	0	0	0	0	0	0	0	0	0	0	0	0		1	0	0	0	0	0	0	0
010713	10:20:51	11111	Trial2BackFr	N	3	0	1000	1	102	10:20:51	406585	0	0	0	0	0	0	0	0	0	0	0	0	0	0	0	0	0	0	0	0	0	0		1	0	0	0	0	0	0	0
010713	10:20:51	11111	Trial2BackFr	Y	3	0	1000	0	102	10:20:51	408091	0	0	0	0	0	0	0	0	0	0	0	0	0	0	0	0	0	0	0	0	0	0		1	0	0	0	0	0	0	0
010713	10:20:51	11111	Memory1R6moFr	ScoreFr	5	Done	2712	0	102	10:20:51	431321	0	0	0	0	0	0	0	0	0	0	0	0	0	0	0	0	0	0	0	0	0	0		1	0	0	0	0	0	0	0
010713	10:20:51	11111	Memory2R6moFr	ScoreFr2	5	Done	2629	0	102	10:20:51	453899	0	0	0	0	0	0	0	0	0	0	0	0	0	0	0	0	0	0	0	0	0	0		1	0	0	0	0	0	0	0
010713	10:20:51	11111	Memory3R6moFr	ScoreFr3	5	Done	3301	0	102	10:20:51	476397	0	0	0	0	0	0	0	0	0	0	0	0	0	0	0	0	0	0	0	0	0	0		1	0	0	0	0	0	0	0
010713	10:20:51	11111	LoriaFrLH3	Stop	6	0	3060	0	102	10:20:51	526484	0	0	0	0	0	0	0	0	0	0	0	0	0	0	0	0	0	0	0	0	0	0		1	0	0	0	0	0	0	0
010713	10:20:51	11111	FrTrail	Trails	7	1Trails	1051	0	102	10:20:51	529975	0	0	0	0	0	0	0	0	0	0	0	0	0	0	0	0	0	0	0	0	0	0		1	0	0	0	0	0	0	0
010713	10:20:51	11111	Serial7Fr6mo	Serial7Fr6mo	8		4315	0	102	10:20:51	536853	0	0	0	0	0	0	0	0	0	0	0	0	0	0	0	0	0	0	0	0	0	0		1	0	0	0	0	0	0	0
010713	10:20:51	11111	Serial7Fr6mo	Serial7Fr6mo	8		366	0	102	10:20:51	537240	0	0	0	0	0	0	0	0	0	0	0	0	0	0	0	0	0	0	0	0	0	0		1	0	0	0	0	0	0	0
010713	10:20:51	11111	Serial7Fr6mo	Serial7Fr6mo	8		171	0	102	10:20:51	537426	0	0	0	0	0	0	0	0	0	0	0	0	0	0	0	0	0	0	0	0	0	0		1	0	0	0	0	0	0	0
010713	10:20:51	11111	Serial7Fr6mo	Serial7Fr6mo	8		158	0	102	10:20:51	537600	0	0	0	0	0	0	0	0	0	0	0	0	0	0	0	0	0	0	0	0	0	0		1	0	0	0	0	0	0	0
010713	10:20:51	11111	Serial7Fr6mo	Serial7Fr6mo	8		161	0	102	10:20:51	537786	0	0	0	0	0	0	0	0	0	0	0	0	0	0	0	0	0	0	0	0	0	0		1	0	0	0	0	0	0	0
010713	10:20:51	11111	corsiblockFrFwrd	recallseqFrFwrd	9	doneCorsiFr	1915	0	102	10:20:51	546436	0	0	0	0	0	0	0	0	0	0	0	0	0	0	0	0	0	0	0	0	0	0		1	0	0	0	0	0	0	0
010713	10:20:51	11111	corsiblockFrFwrd	recallseqFrFwrd	9	doneCorsiFr	1710	0	102	10:20:51	553233	0	0	0	0	0	0	0	0	0	0	0	0	0	0	0	0	0	0	0	0	0	0		1	0	0	0	0	0	0	0
010713	10:20:51	11111	corsiblockFrRev	recallseqFrRev	10	doneCorsiFr	2446	0	102	10:20:51	562229	0	0	0	0	0	0	0	0	0	0	0	0	0	0	0	0	0	0	0	0	0	0		1	0	0	0	0	0	0	0
010713	10:20:51	11111	corsiblockFrRev	recallseqFrRev	10	doneCorsiFr	1764	0	102	10:20:51	569080	0	0	0	0	0	0	0	0	0	0	0	0	0	0	0	0	0	0	0	0	0	0		1	0	0	0	0	0	0	0
010713	10:20:51	11111	testFr6mo	WordsFr6mo	11	1Fr6mo	881	0	102	10:20:51	573252	0	3	0	0	0	0	0	0	0	0	0	0	0	0	0	0	0	0	0	0	0	0		1	0	0	0	0	0	0	0
010713	10:20:51	11111	testFr6mo	WordsFr6mo	11	2Fr6mo	151	0	102	10:20:51	573465	0	3	3	0	0	0	0	0	0	0	0	0	0	0	0	0	0	0	0	0	0	0		1	0	0	0	0	0	0	0
010713	10:20:51	11111	testFr6mo	WordsFr6mo	11	4Fr6mo	353	0	102	10:20:51	573881	0	3	3	0	3	0	0	0	0	0	0	0	0	0	0	0	0	0	0	0	0	0		1	0	0	0	0	0	0	0
010713	10:20:51	11111	testFr6mo	WordsFr6mo	11	3Fr6mo	318	0	102	10:20:51	574278	0	3	3	3	3	0	0	0	0	0	0	0	0	0	0	0	0	0	0	0	0	0		1	0	0	0	0	0	0	0
010713	10:20:51	11111	testFr6mo	WordsFr6mo	11	5Fr6mo	284	0	102	10:20:51	574625	0	3	3	3	3	3	0	0	0	0	0	0	0	0	0	0	0	0	0	0	0	0		1	0	0	0	0	0	0	0
010713	10:20:51	11111	testFr6mo	WordsFr6mo	11	6Fr6mo	226	0	102	10:20:51	574918	0	3	3	3	3	3	3	0	0	0	0	0	0	0	0	0	0	0	0	0	0	0		1	0	0	0	0	0	0	0
010713	10:20:51	11111	testFr6mo	WordsFr6mo	11	7Fr6mo	180	0	102	10:20:51	575158	0	3	3	3	3	3	3	3	0	0	0	0	0	0	0	0	0	0	0	0	0	0		1	0	0	0	0	0	0	0
010713	10:20:51	11111	testFr6mo	WordsFr6mo	11	8Fr6mo	236	0	102	10:20:51	575464	0	3	3	3	3	3	3	3	3	0	0	0	0	0	0	0	0	0	0	0	0	0		1	0	0	0	0	0	0	0
010713	10:20:51	11111	testFr6mo	WordsFr6mo	11	DoneFr6mo	281	0	102	10:20:51	575811	0	3	3	3	3	3	3	3	3	0	0	0	0	0	0	0	0	0	0	0	0	0		1	0	0	0	0	0	0	0
010713	10:20:51	11111	DigitSpanFwrdFr6mo	Score1FwrdFr6mo	12	DS2	1625	0	102	10:20:51	604838	0	3	3	3	3	3	3	3	3	0	0	0	0	0	0	0	0	0	0	0	0	0		1	0	0	0	0	0	0	0
010713	10:20:51	11111	DigitSpanFwrdFr6mo	Gate1FwrdFr6mo	12	0	1	0	102	10:20:51	604844	0	3	3	3	3	3	3	3	3	0	0	0	0	0	0	0	0	0	0	0	0	0		1	0	0	0	0	0	0	0
010713	10:20:51	11111	DigitSpanFwrdFr6mo	Score11FwrdFr6mo	12	DS2	1555	0	102	10:20:51	611396	0	3	3	3	3	3	3	3	3	0	0	0	0	0	0	0	0	0	0	0	0	0		1	0	0	0	0	0	0	0
010713	10:20:51	11111	DigitSpanFr6mo	Score1Fr6mo	13	DS2	2729	0	102	10:20:51	621578	0	3	3	3	3	3	3	3	3	0	0	0	0	0	0	0	0	0	0	0	0	0		1	0	0	0	0	0	0	0
010713	10:20:51	11111	DigitSpanFr6mo	Gate1Fr6mo	13	0	1	0	102	10:20:51	621584	0	3	3	3	3	3	3	3	3	0	0	0	0	0	0	0	0	0	0	0	0	0		1	0	0	0	0	0	0	0
010713	10:20:51	11111	DigitSpanFr6mo	Score11Fr6mo	13	DS2	2395	0	102	10:20:51	627323	0	3	3	3	3	3	3	3	3	0	0	0	0	0	0	0	0	0	0	0	0	0		1	0	0	0	0	0	0	0
010713	10:20:51	11111	Trial	ResponseIL	14	0	175	0	102	10:20:51	658204	0	3	3	3	3	3	3	3	3	0	0	0	0	0	0	0	0	0	0	0	0	0		1	0	0	0	0	0	0	0
010713	10:20:51	11111	Trial	IncongruentLeft	14	0	1000	0	102	10:20:51	659217	0	3	3	3	3	3	3	3	3	0	0	0	0	0	0	0	0	0	0	0	0	0		1	0	0	0	0	0	0	0
010713	10:20:51	11111	Trial	ResponseCR	14	0	175	0	102	10:20:51	659923	0	3	3	3	3	3	3	3	3	0	0	0	0	0	0	0	0	0	0	0	0	0		1	0	0	0	0	0	0	0
010713	10:20:51	11111	Trial	CongruentRight	14	0	1000	0	102	10:20:51	660936	0	3	3	3	3	3	3	3	3	0	0	0	0	0	0	0	0	0	0	0	0	0		1	0	0	0	0	0	0	0
010713	10:20:51	11111	Trial	ResponseIR	14	0	175	0	102	10:20:51	661642	0	3	3	3	3	3	3	3	3	0	0	0	0	0	0	0	0	0	0	0	0	0		1	0	0	0	0	0	0	0
010713	10:20:51	11111	Trial	IncongruentRight	14	0	1000	0	102	10:20:51	662655	0	3	3	3	3	3	3	3	3	0	0	0	0	0	0	0	0	0	0	0	0	0		1	0	0	0	0	0	0	0
010713	10:20:51	11111	Trial	ResponseCL	14	0	175	0	102	10:20:51	663362	0	3	3	3	3	3	3	3	3	0	0	0	0	0	0	0	0	0	0	0	0	0		1	0	0	0	0	0	0	0
010713	10:20:51	11111	Trial	CongruentLeft	14	0	1000	0	102	10:20:51	664374	0	3	3	3	3	3	3	3	3	0	0	0	0	0	0	0	0	0	0	0	0	0		1	0	0	0	0	0	0	0
010713	10:20:51	11111	Trial	ResponseCR	14	0	175	0	102	10:20:51	665081	0	3	3	3	3	3	3	3	3	0	0	0	0	0	0	0	0	0	0	0	0	0		1	0	0	0	0	0	0	0
010713	10:20:51	11111	Trial	CongruentRight	14	0	1000	0	102	10:20:51	666094	0	3	3	3	3	3	3	3	3	0	0	0	0	0	0	0	0	0	0	0	0	0		1	0	0	0	0	0	0	0
010713	10:20:51	11111	Trial	ResponseIR	14	0	175	0	102	10:20:51	666800	0	3	3	3	3	3	3	3	3	0	0	0	0	0	0	0	0	0	0	0	0	0		1	0	0	0	0	0	0	0
010713	10:20:51	11111	Trial	IncongruentRight	14	0	1000	0	102	10:20:51	667813	0	3	3	3	3	3	3	3	3	0	0	0	0	0	0	0	0	0	0	0	0	0		1	0	0	0	0	0	0	0
010713	10:20:51	11111	Trial	ResponseCL	14	0	175	0	102	10:20:51	668520	0	3	3	3	3	3	3	3	3	0	0	0	0	0	0	0	0	0	0	0	0	0		1	0	0	0	0	0	0	0
010713	10:20:51	11111	Trial	CongruentLeft	14	0	1000	0	102	10:20:51	669546	0	3	3	3	3	3	3	3	3	0	0	0	0	0	0	0	0	0	0	0	0	0		1	0	0	0	0	0	0	0
010713	10:20:51	11111	Trial	ResponseIL	14	0	175	0	102	10:20:51	670252	0	3	3	3	3	3	3	3	3	0	0	0	0	0	0	0	0	0	0	0	0	0		1	0	0	0	0	0	0	0
010713	10:20:51	11111	Trial	IncongruentLeft	14	0	1000	0	102	10:20:51	671265	0	3	3	3	3	3	3	3	3	0	0	0	0	0	0	0	0	0	0	0	0	0		1	0	0	0	0	0	0	0
010713	10:20:51	11111	Trial	ResponseIL	14	0	175	0	102	10:20:51	671971	0	3	3	3	3	3	3	3	3	0	0	0	0	0	0	0	0	0	0	0	0	0		1	0	0	0	0	0	0	0
010713	10:20:51	11111	Trial	IncongruentLeft	14	0	1000	0	102	10:20:51	672984	0	3	3	3	3	3	3	3	3	0	0	0	0	0	0	0	0	0	0	0	0	0		1	0	0	0	0	0	0	0
010713	10:20:51	11111	Trial	ResponseCR	14	0	175	0	102	10:20:51	673691	0	3	3	3	3	3	3	3	3	0	0	0	0	0	0	0	0	0	0	0	0	0		1	0	0	0	0	0	0	0
010713	10:20:51	11111	Trial	CongruentRight	14	0	1000	0	102	10:20:51	674704	0	3	3	3	3	3	3	3	3	0	0	0	0	0	0	0	0	0	0	0	0	0		1	0	0	0	0	0	0	0
010713	10:20:51	11111	Trial	ResponseIR	14	0	175	0	102	10:20:51	675410	0	3	3	3	3	3	3	3	3	0	0	0	0	0	0	0	0	0	0	0	0	0		1	0	0	0	0	0	0	0
010713	10:20:51	11111	Trial	IncongruentRight	14	0	1000	0	102	10:20:51	676423	0	3	3	3	3	3	3	3	3	0	0	0	0	0	0	0	0	0	0	0	0	0		1	0	0	0	0	0	0	0
010713	10:20:51	11111	Trial	ResponseCL	14	0	175	0	102	10:20:51	677129	0	3	3	3	3	3	3	3	3	0	0	0	0	0	0	0	0	0	0	0	0	0		1	0	0	0	0	0	0	0
010713	10:20:51	11111	Trial	CongruentLeft	14	0	1000	0	102	10:20:51	678142	0	3	3	3	3	3	3	3	3	0	0	0	0	0	0	0	0	0	0	0	0	0		1	0	0	0	0	0	0	0
010713	10:20:51	11111	Trial	ResponseCR	14	0	175	0	102	10:20:51	678849	0	3	3	3	3	3	3	3	3	0	0	0	0	0	0	0	0	0	0	0	0	0		1	0	0	0	0	0	0	0
010713	10:20:51	11111	Trial	CongruentRight	14	0	1000	0	102	10:20:51	679862	0	3	3	3	3	3	3	3	3	0	0	0	0	0	0	0	0	0	0	0	0	0		1	0	0	0	0	0	0	0
010713	10:20:51	11111	Trial	ResponseIL	14	0	175	0	102	10:20:51	680568	0	3	3	3	3	3	3	3	3	0	0	0	0	0	0	0	0	0	0	0	0	0		1	0	0	0	0	0	0	0
010713	10:20:51	11111	Trial	IncongruentLeft	14	0	1000	0	102	10:20:51	681581	0	3	3	3	3	3	3	3	3	0	0	0	0	0	0	0	0	0	0	0	0	0		1	0	0	0	0	0	0	0
010713	10:20:51	11111	Trial	ResponseIR	14	0	175	0	102	10:20:51	682288	0	3	3	3	3	3	3	3	3	0	0	0	0	0	0	0	0	0	0	0	0	0		1	0	0	0	0	0	0	0
010713	10:20:51	11111	Trial	IncongruentRight	14	0	1000	0	102	10:20:51	683300	0	3	3	3	3	3	3	3	3	0	0	0	0	0	0	0	0	0	0	0	0	0		1	0	0	0	0	0	0	0
010713	10:20:51	11111	Trial	ResponseCR	14	0	175	0	102	10:20:51	684007	0	3	3	3	3	3	3	3	3	0	0	0	0	0	0	0	0	0	0	0	0	0		1	0	0	0	0	0	0	0
010713	10:20:51	11111	Trial	CongruentRight	14	0	1000	0	102	10:20:51	685020	0	3	3	3	3	3	3	3	3	0	0	0	0	0	0	0	0	0	0	0	0	0		1	0	0	0	0	0	0	0
010713	10:20:51	11111	Trial	ResponseCL	14	0	175	0	102	10:20:51	685726	0	3	3	3	3	3	3	3	3	0	0	0	0	0	0	0	0	0	0	0	0	0		1	0	0	0	0	0	0	0
010713	10:20:51	11111	Trial	CongruentLeft	14	0	1000	0	102	10:20:51	686739	0	3	3	3	3	3	3	3	3	0	0	0	0	0	0	0	0	0	0	0	0	0		1	0	0	0	0	0	0	0
010713	10:20:51	11111	Trial	ResponseCR	14	0	175	0	102	10:20:51	687445	0	3	3	3	3	3	3	3	3	0	0	0	0	0	0	0	0	0	0	0	0	0		1	0	0	0	0	0	0	0
010713	10:20:51	11111	Trial	CongruentRight	14	0	1000	0	102	10:20:51	688458	0	3	3	3	3	3	3	3	3	0	0	0	0	0	0	0	0	0	0	0	0	0		1	0	0	0	0	0	0	0
010713	10:20:51	11111	Trial	ResponseIR	14	0	175	0	102	10:20:51	689164	0	3	3	3	3	3	3	3	3	0	0	0	0	0	0	0	0	0	0	0	0	0		1	0	0	0	0	0	0	0
010713	10:20:51	11111	Trial	IncongruentRight	14	0	1000	0	102	10:20:51	690177	0	3	3	3	3	3	3	3	3	0	0	0	0	0	0	0	0	0	0	0	0	0		1	0	0	0	0	0	0	0
010713	10:20:51	11111	Trial	ResponseIL	14	0	175	0	102	10:20:51	690884	0	3	3	3	3	3	3	3	3	0	0	0	0	0	0	0	0	0	0	0	0	0		1	0	0	0	0	0	0	0
010713	10:20:51	11111	Trial	IncongruentLeft	14	0	1000	0	102	10:20:51	691897	0	3	3	3	3	3	3	3	3	0	0	0	0	0	0	0	0	0	0	0	0	0		1	0	0	0	0	0	0	0
010713	10:20:51	11111	Trial	ResponseIL	14	0	175	0	102	10:20:51	692603	0	3	3	3	3	3	3	3	3	0	0	0	0	0	0	0	0	0	0	0	0	0		1	0	0	0	0	0	0	0
010713	10:20:51	11111	Trial	IncongruentLeft	14	0	1000	0	102	10:20:51	693616	0	3	3	3	3	3	3	3	3	0	0	0	0	0	0	0	0	0	0	0	0	0		1	0	0	0	0	0	0	0
010713	10:20:51	11111	Trial	ResponseCL	14	0	175	0	102	10:20:51	694322	0	3	3	3	3	3	3	3	3	0	0	0	0	0	0	0	0	0	0	0	0	0		1	0	0	0	0	0	0	0
010713	10:20:51	11111	Trial	CongruentLeft	14	0	1000	0	102	10:20:51	695335	0	3	3	3	3	3	3	3	3	0	0	0	0	0	0	0	0	0	0	0	0	0		1	0	0	0	0	0	0	0
010713	10:20:51	11111	Trial	ResponseCR	14	0	175	0	102	10:20:51	696042	0	3	3	3	3	3	3	3	3	0	0	0	0	0	0	0	0	0	0	0	0	0		1	0	0	0	0	0	0	0
010713	10:20:51	11111	Trial	CongruentRight	14	0	1000	0	102	10:20:51	697055	0	3	3	3	3	3	3	3	3	0	0	0	0	0	0	0	0	0	0	0	0	0		1	0	0	0	0	0	0	0
010713	10:20:51	11111	Trial	ResponseIL	14	0	175	0	102	10:20:51	697761	0	3	3	3	3	3	3	3	3	0	0	0	0	0	0	0	0	0	0	0	0	0		1	0	0	0	0	0	0	0
010713	10:20:51	11111	Trial	IncongruentLeft	14	0	1000	0	102	10:20:51	698774	0	3	3	3	3	3	3	3	3	0	0	0	0	0	0	0	0	0	0	0	0	0		1	0	0	0	0	0	0	0
010713	10:20:51	11111	Trial	ResponseIR	14	0	175	0	102	10:20:51	699481	0	3	3	3	3	3	3	3	3	0	0	0	0	0	0	0	0	0	0	0	0	0		1	0	0	0	0	0	0	0
010713	10:20:51	11111	Trial	IncongruentRight	14	0	1000	0	102	10:20:51	700493	0	3	3	3	3	3	3	3	3	0	0	0	0	0	0	0	0	0	0	0	0	0		1	0	0	0	0	0	0	0
010713	10:20:51	11111	Trial	ResponseCR	14	0	175	0	102	10:20:51	701200	0	3	3	3	3	3	3	3	3	0	0	0	0	0	0	0	0	0	0	0	0	0		1	0	0	0	0	0	0	0
010713	10:20:51	11111	Trial	CongruentRight	14	0	1000	0	102	10:20:51	702213	0	3	3	3	3	3	3	3	3	0	0	0	0	0	0	0	0	0	0	0	0	0		1	0	0	0	0	0	0	0
010713	10:20:51	11111	Trial	ResponseCL	14	0	175	0	102	10:20:51	702919	0	3	3	3	3	3	3	3	3	0	0	0	0	0	0	0	0	0	0	0	0	0		1	0	0	0	0	0	0	0
010713	10:20:51	11111	Trial	CongruentLeft	14	0	1000	0	102	10:20:51	703932	0	3	3	3	3	3	3	3	3	0	0	0	0	0	0	0	0	0	0	0	0	0		1	0	0	0	0	0	0	0
010713	10:20:51	11111	Trial	ResponseIR	14	0	175	0	102	10:20:51	704638	0	3	3	3	3	3	3	3	3	0	0	0	0	0	0	0	0	0	0	0	0	0		1	0	0	0	0	0	0	0
010713	10:20:51	11111	Trial	IncongruentRight	14	0	1000	0	102	10:20:51	705651	0	3	3	3	3	3	3	3	3	0	0	0	0	0	0	0	0	0	0	0	0	0		1	0	0	0	0	0	0	0
010713	10:20:51	11111	Trial	ResponseIL	14	0	175	0	102	10:20:51	706358	0	3	3	3	3	3	3	3	3	0	0	0	0	0	0	0	0	0	0	0	0	0		1	0	0	0	0	0	0	0
010713	10:20:51	11111	Trial	IncongruentLeft	14	0	1000	0	102	10:20:51	707370	0	3	3	3	3	3	3	3	3	0	0	0	0	0	0	0	0	0	0	0	0	0		1	0	0	0	0	0	0	0
010713	10:20:51	11111	Trial	ResponseIR	14	0	175	0	102	10:20:51	708077	0	3	3	3	3	3	3	3	3	0	0	0	0	0	0	0	0	0	0	0	0	0		1	0	0	0	0	0	0	0
010713	10:20:51	11111	Trial	IncongruentRight	14	0	1000	0	102	10:20:51	709090	0	3	3	3	3	3	3	3	3	0	0	0	0	0	0	0	0	0	0	0	0	0		1	0	0	0	0	0	0	0
010713	10:20:51	11111	Trial	ResponseCR	14	0	175	0	102	10:20:51	709796	0	3	3	3	3	3	3	3	3	0	0	0	0	0	0	0	0	0	0	0	0	0		1	0	0	0	0	0	0	0
010713	10:20:51	11111	Trial	CongruentRight	14	0	1000	0	102	10:20:51	710809	0	3	3	3	3	3	3	3	3	0	0	0	0	0	0	0	0	0	0	0	0	0		1	0	0	0	0	0	0	0
010713	10:20:51	11111	Trial	ResponseIL	14	0	175	0	102	10:20:51	711515	0	3	3	3	3	3	3	3	3	0	0	0	0	0	0	0	0	0	0	0	0	0		1	0	0	0	0	0	0	0
010713	10:20:51	11111	Trial	IncongruentLeft	14	0	1000	0	102	10:20:51	712528	0	3	3	3	3	3	3	3	3	0	0	0	0	0	0	0	0	0	0	0	0	0		1	0	0	0	0	0	0	0
010713	10:20:51	11111	Trial	ResponseCL	14	0	175	0	102	10:20:51	713235	0	3	3	3	3	3	3	3	3	0	0	0	0	0	0	0	0	0	0	0	0	0		1	0	0	0	0	0	0	0
010713	10:20:51	11111	Trial	CongruentLeft	14	0	1000	0	102	10:20:51	714248	0	3	3	3	3	3	3	3	3	0	0	0	0	0	0	0	0	0	0	0	0	0		1	0	0	0	0	0	0	0
010713	10:20:51	11111	Trial	ResponseCR	14	0	175	0	102	10:20:51	714954	0	3	3	3	3	3	3	3	3	0	0	0	0	0	0	0	0	0	0	0	0	0		1	0	0	0	0	0	0	0
010713	10:20:51	11111	Trial	CongruentRight	14	0	1000	0	102	10:20:51	715967	0	3	3	3	3	3	3	3	3	0	0	0	0	0	0	0	0	0	0	0	0	0		1	0	0	0	0	0	0	0
010713	10:20:51	11111	Trial	ResponseIL	14	0	175	0	102	10:20:51	716674	0	3	3	3	3	3	3	3	3	0	0	0	0	0	0	0	0	0	0	0	0	0		1	0	0	0	0	0	0	0
010713	10:20:51	11111	Trial	IncongruentLeft	14	0	1000	0	102	10:20:51	717686	0	3	3	3	3	3	3	3	3	0	0	0	0	0	0	0	0	0	0	0	0	0		1	0	0	0	0	0	0	0
010713	10:20:51	11111	Trial	ResponseIR	14	0	175	0	102	10:20:51	718393	0	3	3	3	3	3	3	3	3	0	0	0	0	0	0	0	0	0	0	0	0	0		1	0	0	0	0	0	0	0
010713	10:20:51	11111	Trial	IncongruentRight	14	0	1000	0	102	10:20:51	719406	0	3	3	3	3	3	3	3	3	0	0	0	0	0	0	0	0	0	0	0	0	0		1	0	0	0	0	0	0	0
010713	10:20:51	11111	Trial	ResponseIR	14	0	175	0	102	10:20:51	720112	0	3	3	3	3	3	3	3	3	0	0	0	0	0	0	0	0	0	0	0	0	0		1	0	0	0	0	0	0	0
010713	10:20:51	11111	Trial	IncongruentRight	14	0	1000	0	102	10:20:51	721125	0	3	3	3	3	3	3	3	3	0	0	0	0	0	0	0	0	0	0	0	0	0		1	0	0	0	0	0	0	0
010713	10:20:51	11111	Trial	ResponseCL	14	0	175	0	102	10:20:51	721831	0	3	3	3	3	3	3	3	3	0	0	0	0	0	0	0	0	0	0	0	0	0		1	0	0	0	0	0	0	0
010713	10:20:51	11111	Trial	CongruentLeft	14	0	1000	0	102	10:20:51	722844	0	3	3	3	3	3	3	3	3	0	0	0	0	0	0	0	0	0	0	0	0	0		1	0	0	0	0	0	0	0
010713	10:20:51	11111	Trial	ResponseIL	14	0	175	0	102	10:20:51	723551	0	3	3	3	3	3	3	3	3	0	0	0	0	0	0	0	0	0	0	0	0	0		1	0	0	0	0	0	0	0
010713	10:20:51	11111	Trial	IncongruentLeft	14	0	1000	0	102	10:20:51	724564	0	3	3	3	3	3	3	3	3	0	0	0	0	0	0	0	0	0	0	0	0	0		1	0	0	0	0	0	0	0
010713	10:20:51	11111	Trial	ResponseCR	14	0	175	0	102	10:20:51	725270	0	3	3	3	3	3	3	3	3	0	0	0	0	0	0	0	0	0	0	0	0	0		1	0	0	0	0	0	0	0
010713	10:20:51	11111	Trial	CongruentRight	14	0	1000	0	102	10:20:51	726283	0	3	3	3	3	3	3	3	3	0	0	0	0	0	0	0	0	0	0	0	0	0		1	0	0	0	0	0	0	0
010713	10:20:51	11111	Trial	ResponseCL	14	0	175	0	102	10:20:51	726989	0	3	3	3	3	3	3	3	3	0	0	0	0	0	0	0	0	0	0	0	0	0		1	0	0	0	0	0	0	0
010713	10:20:51	11111	Trial	CongruentLeft	14	0	1000	0	102	10:20:51	728002	0	3	3	3	3	3	3	3	3	0	0	0	0	0	0	0	0	0	0	0	0	0		1	0	0	0	0	0	0	0
010713	10:20:51	11111	Trial	ResponseIR	14	0	175	0	102	10:20:51	728709	0	3	3	3	3	3	3	3	3	0	0	0	0	0	0	0	0	0	0	0	0	0		1	0	0	0	0	0	0	0
010713	10:20:51	11111	Trial	IncongruentRight	14	0	1000	0	102	10:20:51	729721	0	3	3	3	3	3	3	3	3	0	0	0	0	0	0	0	0	0	0	0	0	0		1	0	0	0	0	0	0	0
010713	10:20:51	11111	Trial	ResponseCR	14	0	175	0	102	10:20:51	730428	0	3	3	3	3	3	3	3	3	0	0	0	0	0	0	0	0	0	0	0	0	0		1	0	0	0	0	0	0	0
010713	10:20:51	11111	Trial	CongruentRight	14	0	1000	0	102	10:20:51	731441	0	3	3	3	3	3	3	3	3	0	0	0	0	0	0	0	0	0	0	0	0	0		1	0	0	0	0	0	0	0
010713	10:20:51	11111	Trial	ResponseIL	14	0	175	0	102	10:20:51	732147	0	3	3	3	3	3	3	3	3	0	0	0	0	0	0	0	0	0	0	0	0	0		1	0	0	0	0	0	0	0
010713	10:20:51	11111	Trial	IncongruentLeft	14	0	1000	0	102	10:20:51	733160	0	3	3	3	3	3	3	3	3	0	0	0	0	0	0	0	0	0	0	0	0	0		1	0	0	0	0	0	0	0
010713	10:20:51	11111	Trial	ResponseCL	14	0	175	0	102	10:20:51	733867	0	3	3	3	3	3	3	3	3	0	0	0	0	0	0	0	0	0	0	0	0	0		1	0	0	0	0	0	0	0
010713	10:20:51	11111	Trial	CongruentLeft	14	0	1000	0	102	10:20:51	734879	0	3	3	3	3	3	3	3	3	0	0	0	0	0	0	0	0	0	0	0	0	0		1	0	0	0	0	0	0	0
010713	10:20:51	11111	Trial	ResponseIL	14	0	175	0	102	10:20:51	735586	0	3	3	3	3	3	3	3	3	0	0	0	0	0	0	0	0	0	0	0	0	0		1	0	0	0	0	0	0	0
010713	10:20:51	11111	Trial	IncongruentLeft	14	0	1000	0	102	10:20:51	736599	0	3	3	3	3	3	3	3	3	0	0	0	0	0	0	0	0	0	0	0	0	0		1	0	0	0	0	0	0	0
010713	10:20:51	11111	Trial	ResponseIR	14	0	175	0	102	10:20:51	737305	0	3	3	3	3	3	3	3	3	0	0	0	0	0	0	0	0	0	0	0	0	0		1	0	0	0	0	0	0	0
010713	10:20:51	11111	Trial	IncongruentRight	14	0	1000	0	102	10:20:51	738318	0	3	3	3	3	3	3	3	3	0	0	0	0	0	0	0	0	0	0	0	0	0		1	0	0	0	0	0	0	0
010713	10:20:51	11111	Trial	ResponseCR	14	0	175	0	102	10:20:51	739024	0	3	3	3	3	3	3	3	3	0	0	0	0	0	0	0	0	0	0	0	0	0		1	0	0	0	0	0	0	0
010713	10:20:51	11111	Trial	CongruentRight	14	0	1000	0	102	10:20:51	740037	0	3	3	3	3	3	3	3	3	0	0	0	0	0	0	0	0	0	0	0	0	0		1	0	0	0	0	0	0	0
010713	10:20:51	11111	Trial	ResponseCL	14	0	175	0	102	10:20:51	740744	0	3	3	3	3	3	3	3	3	0	0	0	0	0	0	0	0	0	0	0	0	0		1	0	0	0	0	0	0	0
010713	10:20:51	11111	Trial	CongruentLeft	14	0	1000	0	102	10:20:51	741757	0	3	3	3	3	3	3	3	3	0	0	0	0	0	0	0	0	0	0	0	0	0		1	0	0	0	0	0	0	0
010713	10:20:51	11111	Trial	ResponseCL	14	0	175	0	102	10:20:51	742463	0	3	3	3	3	3	3	3	3	0	0	0	0	0	0	0	0	0	0	0	0	0		1	0	0	0	0	0	0	0
010713	10:20:51	11111	Trial	CongruentLeft	14	0	1000	0	102	10:20:51	743476	0	3	3	3	3	3	3	3	3	0	0	0	0	0	0	0	0	0	0	0	0	0		1	0	0	0	0	0	0	0
010713	10:20:51	11111	Trial	ResponseIR	14	0	175	0	102	10:20:51	744182	0	3	3	3	3	3	3	3	3	0	0	0	0	0	0	0	0	0	0	0	0	0		1	0	0	0	0	0	0	0
010713	10:20:51	11111	Trial	IncongruentRight	14	0	1000	0	102	10:20:51	745195	0	3	3	3	3	3	3	3	3	0	0	0	0	0	0	0	0	0	0	0	0	0		1	0	0	0	0	0	0	0
010713	10:20:51	11111	Trial	ResponseIL	14	0	175	0	102	10:20:51	745902	0	3	3	3	3	3	3	3	3	0	0	0	0	0	0	0	0	0	0	0	0	0		1	0	0	0	0	0	0	0
010713	10:20:51	11111	Trial	IncongruentLeft	14	0	1000	0	102	10:20:51	746915	0	3	3	3	3	3	3	3	3	0	0	0	0	0	0	0	0	0	0	0	0	0		1	0	0	0	0	0	0	0
010713	10:20:51	11111	Trial	ResponseIR	14	0	175	0	102	10:20:51	747621	0	3	3	3	3	3	3	3	3	0	0	0	0	0	0	0	0	0	0	0	0	0		1	0	0	0	0	0	0	0
010713	10:20:51	11111	Trial	IncongruentRight	14	0	1000	0	102	10:20:51	748634	0	3	3	3	3	3	3	3	3	0	0	0	0	0	0	0	0	0	0	0	0	0		1	0	0	0	0	0	0	0
010713	10:20:51	11111	Trial	ResponseCR	14	0	175	0	102	10:20:51	749340	0	3	3	3	3	3	3	3	3	0	0	0	0	0	0	0	0	0	0	0	0	0		1	0	0	0	0	0	0	0
010713	10:20:51	11111	Trial	CongruentRight	14	0	1000	0	102	10:20:51	750353	0	3	3	3	3	3	3	3	3	0	0	0	0	0	0	0	0	0	0	0	0	0		1	0	0	0	0	0	0	0
010713	10:20:51	11111	Trial	ResponseCR	14	0	175	0	102	10:20:51	751060	0	3	3	3	3	3	3	3	3	0	0	0	0	0	0	0	0	0	0	0	0	0		1	0	0	0	0	0	0	0
010713	10:20:51	11111	Trial	CongruentRight	14	0	1000	0	102	10:20:51	752072	0	3	3	3	3	3	3	3	3	0	0	0	0	0	0	0	0	0	0	0	0	0		1	0	0	0	0	0	0	0
010713	10:20:51	11111	Trial	ResponseIL	14	0	175	0	102	10:20:51	752779	0	3	3	3	3	3	3	3	3	0	0	0	0	0	0	0	0	0	0	0	0	0		1	0	0	0	0	0	0	0
010713	10:20:51	11111	Trial	IncongruentLeft	14	0	1000	0	102	10:20:51	753792	0	3	3	3	3	3	3	3	3	0	0	0	0	0	0	0	0	0	0	0	0	0		1	0	0	0	0	0	0	0
010713	10:20:51	11111	Trial	ResponseCL	14	0	175	0	102	10:20:51	754498	0	3	3	3	3	3	3	3	3	0	0	0	0	0	0	0	0	0	0	0	0	0		1	0	0	0	0	0	0	0
010713	10:20:51	11111	Trial	CongruentLeft	14	0	1000	0	102	10:20:51	755511	0	3	3	3	3	3	3	3	3	0	0	0	0	0	0	0	0	0	0	0	0	0		1	0	0	0	0	0	0	0
010713	10:20:51	11111	Trial	ResponseCR	14	0	175	0	102	10:20:51	756217	0	3	3	3	3	3	3	3	3	0	0	0	0	0	0	0	0	0	0	0	0	0		1	0	0	0	0	0	0	0
010713	10:20:51	11111	Trial	CongruentRight	14	0	1000	0	102	10:20:51	757230	0	3	3	3	3	3	3	3	3	0	0	0	0	0	0	0	0	0	0	0	0	0		1	0	0	0	0	0	0	0
010713	10:20:51	11111	Trial	ResponseCL	14	0	175	0	102	10:20:51	757937	0	3	3	3	3	3	3	3	3	0	0	0	0	0	0	0	0	0	0	0	0	0		1	0	0	0	0	0	0	0
010713	10:20:51	11111	Trial	CongruentLeft	14	0	1000	0	102	10:20:51	758950	0	3	3	3	3	3	3	3	3	0	0	0	0	0	0	0	0	0	0	0	0	0		1	0	0	0	0	0	0	0
010713	10:20:51	11111	Trial	ResponseIR	14	0	175	0	102	10:20:51	759656	0	3	3	3	3	3	3	3	3	0	0	0	0	0	0	0	0	0	0	0	0	0		1	0	0	0	0	0	0	0
010713	10:20:51	11111	Trial	IncongruentRight	14	0	1000	0	102	10:20:51	760669	0	3	3	3	3	3	3	3	3	0	0	0	0	0	0	0	0	0	0	0	0	0		1	0	0	0	0	0	0	0
010713	10:20:51	11111	Trial	ResponseCR	14	0	175	0	102	10:20:51	761375	0	3	3	3	3	3	3	3	3	0	0	0	0	0	0	0	0	0	0	0	0	0		1	0	0	0	0	0	0	0
010713	10:20:51	11111	Trial	CongruentRight	14	0	1000	0	102	10:20:51	762388	0	3	3	3	3	3	3	3	3	0	0	0	0	0	0	0	0	0	0	0	0	0		1	0	0	0	0	0	0	0
010713	10:20:51	11111	Trial	ResponseCL	14	0	175	0	102	10:20:51	763095	0	3	3	3	3	3	3	3	3	0	0	0	0	0	0	0	0	0	0	0	0	0		1	0	0	0	0	0	0	0
010713	10:20:51	11111	Trial	CongruentLeft	14	0	1000	0	102	10:20:51	764108	0	3	3	3	3	3	3	3	3	0	0	0	0	0	0	0	0	0	0	0	0	0		1	0	0	0	0	0	0	0
010713	10:20:51	11111	Trial	ResponseIL	14	0	175	0	102	10:20:51	764814	0	3	3	3	3	3	3	3	3	0	0	0	0	0	0	0	0	0	0	0	0	0		1	0	0	0	0	0	0	0
010713	10:20:51	11111	Trial	IncongruentLeft	14	0	1000	0	102	10:20:51	765827	0	3	3	3	3	3	3	3	3	0	0	0	0	0	0	0	0	0	0	0	0	0		1	0	0	0	0	0	0	0
010713	10:20:51	11111	Trial	ResponseIL	14	0	175	0	102	10:20:51	766533	0	3	3	3	3	3	3	3	3	0	0	0	0	0	0	0	0	0	0	0	0	0		1	0	0	0	0	0	0	0
010713	10:20:51	11111	Trial	IncongruentLeft	14	0	1000	0	102	10:20:51	767546	0	3	3	3	3	3	3	3	3	0	0	0	0	0	0	0	0	0	0	0	0	0		1	0	0	0	0	0	0	0
010713	10:20:51	11111	Trial	ResponseCR	14	0	175	0	102	10:20:51	768253	0	3	3	3	3	3	3	3	3	0	0	0	0	0	0	0	0	0	0	0	0	0		1	0	0	0	0	0	0	0
010713	10:20:51	11111	Trial	CongruentRight	14	0	1000	0	102	10:20:51	769265	0	3	3	3	3	3	3	3	3	0	0	0	0	0	0	0	0	0	0	0	0	0		1	0	0	0	0	0	0	0
010713	10:20:51	11111	Trial	ResponseIR	14	0	175	0	102	10:20:51	769972	0	3	3	3	3	3	3	3	3	0	0	0	0	0	0	0	0	0	0	0	0	0		1	0	0	0	0	0	0	0
010713	10:20:51	11111	Trial	IncongruentRight	14	0	1000	0	102	10:20:51	770985	0	3	3	3	3	3	3	3	3	0	0	0	0	0	0	0	0	0	0	0	0	0		1	0	0	0	0	0	0	0
010713	10:20:51	11111	Trial	ResponseCL	14	0	175	0	102	10:20:51	771691	0	3	3	3	3	3	3	3	3	0	0	0	0	0	0	0	0	0	0	0	0	0		1	0	0	0	0	0	0	0
010713	10:20:51	11111	Trial	CongruentLeft	14	0	1000	0	102	10:20:51	772704	0	3	3	3	3	3	3	3	3	0	0	0	0	0	0	0	0	0	0	0	0	0		1	0	0	0	0	0	0	0
010713	10:20:51	11111	Trial	ResponseIR	14	0	175	0	102	10:20:51	773410	0	3	3	3	3	3	3	3	3	0	0	0	0	0	0	0	0	0	0	0	0	0		1	0	0	0	0	0	0	0
010713	10:20:51	11111	Trial	IncongruentRight	14	0	1000	0	102	10:20:51	774423	0	3	3	3	3	3	3	3	3	0	0	0	0	0	0	0	0	0	0	0	0	0		1	0	0	0	0	0	0	0
010713	10:20:51	11111	Trial	ResponseCR	14	0	175	0	102	10:20:51	775130	0	3	3	3	3	3	3	3	3	0	0	0	0	0	0	0	0	0	0	0	0	0		1	0	0	0	0	0	0	0
010713	10:20:51	11111	Trial	CongruentRight	14	0	1000	0	102	10:20:51	776143	0	3	3	3	3	3	3	3	3	0	0	0	0	0	0	0	0	0	0	0	0	0		1	0	0	0	0	0	0	0
010713	10:20:51	11111	Trial	ResponseIL	14	0	175	0	102	10:20:51	776849	0	3	3	3	3	3	3	3	3	0	0	0	0	0	0	0	0	0	0	0	0	0		1	0	0	0	0	0	0	0
010713	10:20:51	11111	Trial	IncongruentLeft	14	0	1000	0	102	10:20:51	777862	0	3	3	3	3	3	3	3	3	0	0	0	0	0	0	0	0	0	0	0	0	0		1	0	0	0	0	0	0	0
010713	10:20:51	11111	Trial	ResponseCL	14	0	175	0	102	10:20:51	778568	0	3	3	3	3	3	3	3	3	0	0	0	0	0	0	0	0	0	0	0	0	0		1	0	0	0	0	0	0	0
010713	10:20:51	11111	Trial	CongruentLeft	14	0	1000	0	102	10:20:51	779581	0	3	3	3	3	3	3	3	3	0	0	0	0	0	0	0	0	0	0	0	0	0		1	0	0	0	0	0	0	0
010713	10:20:51	11111	Trial	ResponseCR	14	0	175	0	102	10:20:51	780288	0	3	3	3	3	3	3	3	3	0	0	0	0	0	0	0	0	0	0	0	0	0		1	0	0	0	0	0	0	0
010713	10:20:51	11111	Trial	CongruentRight	14	0	1000	0	102	10:20:51	781301	0	3	3	3	3	3	3	3	3	0	0	0	0	0	0	0	0	0	0	0	0	0		1	0	0	0	0	0	0	0
010713	10:20:51	11111	Trial	ResponseIL	14	0	175	0	102	10:20:51	782007	0	3	3	3	3	3	3	3	3	0	0	0	0	0	0	0	0	0	0	0	0	0		1	0	0	0	0	0	0	0
010713	10:20:51	11111	Trial	IncongruentLeft	14	0	1000	0	102	10:20:51	783020	0	3	3	3	3	3	3	3	3	0	0	0	0	0	0	0	0	0	0	0	0	0		1	0	0	0	0	0	0	0
010713	10:20:51	11111	Trial	ResponseCR	14	0	175	0	102	10:20:51	783726	0	3	3	3	3	3	3	3	3	0	0	0	0	0	0	0	0	0	0	0	0	0		1	0	0	0	0	0	0	0
010713	10:20:51	11111	Trial	CongruentRight	14	0	1000	0	102	10:20:51	784739	0	3	3	3	3	3	3	3	3	0	0	0	0	0	0	0	0	0	0	0	0	0		1	0	0	0	0	0	0	0
010713	10:20:51	11111	Trial	ResponseCR	14	0	175	0	102	10:20:51	785446	0	3	3	3	3	3	3	3	3	0	0	0	0	0	0	0	0	0	0	0	0	0		1	0	0	0	0	0	0	0
010713	10:20:51	11111	Trial	CongruentRight	14	0	1000	0	102	10:20:51	786458	0	3	3	3	3	3	3	3	3	0	0	0	0	0	0	0	0	0	0	0	0	0		1	0	0	0	0	0	0	0
010713	10:20:51	11111	Trial	ResponseIR	14	0	175	0	102	10:20:51	787165	0	3	3	3	3	3	3	3	3	0	0	0	0	0	0	0	0	0	0	0	0	0		1	0	0	0	0	0	0	0
010713	10:20:51	11111	Trial	IncongruentRight	14	0	1000	0	102	10:20:51	788178	0	3	3	3	3	3	3	3	3	0	0	0	0	0	0	0	0	0	0	0	0	0		1	0	0	0	0	0	0	0
010713	10:20:51	11111	Trial	ResponseCL	14	0	175	0	102	10:20:51	788884	0	3	3	3	3	3	3	3	3	0	0	0	0	0	0	0	0	0	0	0	0	0		1	0	0	0	0	0	0	0
010713	10:20:51	11111	Trial	CongruentLeft	14	0	1000	0	102	10:20:51	789897	0	3	3	3	3	3	3	3	3	0	0	0	0	0	0	0	0	0	0	0	0	0		1	0	0	0	0	0	0	0
010713	10:20:51	11111	Trial	ResponseIL	14	0	175	0	102	10:20:51	790603	0	3	3	3	3	3	3	3	3	0	0	0	0	0	0	0	0	0	0	0	0	0		1	0	0	0	0	0	0	0
010713	10:20:51	11111	Trial	IncongruentLeft	14	0	1000	0	102	10:20:51	791616	0	3	3	3	3	3	3	3	3	0	0	0	0	0	0	0	0	0	0	0	0	0		1	0	0	0	0	0	0	0
010713	10:20:51	11111	Trial	ResponseCL	14	0	175	0	102	10:20:51	792323	0	3	3	3	3	3	3	3	3	0	0	0	0	0	0	0	0	0	0	0	0	0		1	0	0	0	0	0	0	0
010713	10:20:51	11111	Trial	CongruentLeft	14	0	1000	0	102	10:20:51	793336	0	3	3	3	3	3	3	3	3	0	0	0	0	0	0	0	0	0	0	0	0	0		1	0	0	0	0	0	0	0
010713	10:20:51	11111	Trial	ResponseIR	14	0	175	0	102	10:20:51	794042	0	3	3	3	3	3	3	3	3	0	0	0	0	0	0	0	0	0	0	0	0	0		1	0	0	0	0	0	0	0
010713	10:20:51	11111	Trial	IncongruentRight	14	0	1000	0	102	10:20:51	795055	0	3	3	3	3	3	3	3	3	0	0	0	0	0	0	0	0	0	0	0	0	0		1	0	0	0	0	0	0	0
010713	10:20:51	11111	Trial	ResponseIL	14	0	175	0	102	10:20:51	795761	0	3	3	3	3	3	3	3	3	0	0	0	0	0	0	0	0	0	0	0	0	0		1	0	0	0	0	0	0	0
010713	10:20:51	11111	Trial	IncongruentLeft	14	0	1000	0	102	10:20:51	796774	0	3	3	3	3	3	3	3	3	0	0	0	0	0	0	0	0	0	0	0	0	0		1	0	0	0	0	0	0	0
010713	10:20:51	11111	Trial	ResponseCR	14	0	175	0	102	10:20:51	797481	0	3	3	3	3	3	3	3	3	0	0	0	0	0	0	0	0	0	0	0	0	0		1	0	0	0	0	0	0	0
010713	10:20:51	11111	Trial	CongruentRight	14	0	1000	0	102	10:20:51	798494	0	3	3	3	3	3	3	3	3	0	0	0	0	0	0	0	0	0	0	0	0	0		1	0	0	0	0	0	0	0
010713	10:20:51	11111	Trial	ResponseCL	14	0	175	0	102	10:20:51	799200	0	3	3	3	3	3	3	3	3	0	0	0	0	0	0	0	0	0	0	0	0	0		1	0	0	0	0	0	0	0
010713	10:20:51	11111	Trial	CongruentLeft	14	0	1000	0	102	10:20:51	800213	0	3	3	3	3	3	3	3	3	0	0	0	0	0	0	0	0	0	0	0	0	0		1	0	0	0	0	0	0	0
010713	10:20:51	11111	Trial	ResponseIL	14	0	175	0	102	10:20:51	800919	0	3	3	3	3	3	3	3	3	0	0	0	0	0	0	0	0	0	0	0	0	0		1	0	0	0	0	0	0	0
010713	10:20:51	11111	Trial	IncongruentLeft	14	0	1000	0	102	10:20:51	801932	0	3	3	3	3	3	3	3	3	0	0	0	0	0	0	0	0	0	0	0	0	0		1	0	0	0	0	0	0	0
010713	10:20:51	11111	Trial	ResponseCL	14	0	175	0	102	10:20:51	802639	0	3	3	3	3	3	3	3	3	0	0	0	0	0	0	0	0	0	0	0	0	0		1	0	0	0	0	0	0	0
010713	10:20:51	11111	Trial	CongruentLeft	14	0	1000	0	102	10:20:51	803652	0	3	3	3	3	3	3	3	3	0	0	0	0	0	0	0	0	0	0	0	0	0		1	0	0	0	0	0	0	0
010713	10:20:51	11111	Trial	ResponseIR	14	0	175	0	102	10:20:51	804358	0	3	3	3	3	3	3	3	3	0	0	0	0	0	0	0	0	0	0	0	0	0		1	0	0	0	0	0	0	0
010713	10:20:51	11111	Trial	IncongruentRight	14	0	1000	0	102	10:20:51	805371	0	3	3	3	3	3	3	3	3	0	0	0	0	0	0	0	0	0	0	0	0	0		1	0	0	0	0	0	0	0
010713	10:20:51	11111	Trial	ResponseCR	14	0	175	0	102	10:20:51	806077	0	3	3	3	3	3	3	3	3	0	0	0	0	0	0	0	0	0	0	0	0	0		1	0	0	0	0	0	0	0
010713	10:20:51	11111	Trial	CongruentRight	14	0	1000	0	102	10:20:51	807090	0	3	3	3	3	3	3	3	3	0	0	0	0	0	0	0	0	0	0	0	0	0		1	0	0	0	0	0	0	0
010713	10:20:51	11111	Trial	ResponseIL	14	0	175	0	102	10:20:51	807797	0	3	3	3	3	3	3	3	3	0	0	0	0	0	0	0	0	0	0	0	0	0		1	0	0	0	0	0	0	0
010713	10:20:51	11111	Trial	IncongruentLeft	14	0	1000	0	102	10:20:51	808823	0	3	3	3	3	3	3	3	3	0	0	0	0	0	0	0	0	0	0	0	0	0		1	0	0	0	0	0	0	0
010713	10:20:51	11111	Trial	ResponseCL	14	0	175	0	102	10:20:51	809529	0	3	3	3	3	3	3	3	3	0	0	0	0	0	0	0	0	0	0	0	0	0		1	0	0	0	0	0	0	0
010713	10:20:51	11111	Trial	CongruentLeft	14	0	1000	0	102	10:20:51	810542	0	3	3	3	3	3	3	3	3	0	0	0	0	0	0	0	0	0	0	0	0	0		1	0	0	0	0	0	0	0
010713	10:20:51	11111	Trial	ResponseIR	14	0	175	0	102	10:20:51	811249	0	3	3	3	3	3	3	3	3	0	0	0	0	0	0	0	0	0	0	0	0	0		1	0	0	0	0	0	0	0
010713	10:20:51	11111	Trial	IncongruentRight	14	0	1000	0	102	10:20:51	812261	0	3	3	3	3	3	3	3	3	0	0	0	0	0	0	0	0	0	0	0	0	0		1	0	0	0	0	0	0	0
010713	10:20:51	11111	Trial	ResponseIL	14	0	175	0	102	10:20:51	812968	0	3	3	3	3	3	3	3	3	0	0	0	0	0	0	0	0	0	0	0	0	0		1	0	0	0	0	0	0	0
010713	10:20:51	11111	Trial	IncongruentLeft	14	0	1000	0	102	10:20:51	813981	0	3	3	3	3	3	3	3	3	0	0	0	0	0	0	0	0	0	0	0	0	0		1	0	0	0	0	0	0	0
010713	10:20:51	11111	Trial	ResponseCL	14	0	175	0	102	10:20:51	814687	0	3	3	3	3	3	3	3	3	0	0	0	0	0	0	0	0	0	0	0	0	0		1	0	0	0	0	0	0	0
010713	10:20:51	11111	Trial	CongruentLeft	14	0	1000	0	102	10:20:51	815700	0	3	3	3	3	3	3	3	3	0	0	0	0	0	0	0	0	0	0	0	0	0		1	0	0	0	0	0	0	0
010713	10:20:51	11111	Trial	ResponseIL	14	0	175	0	102	10:20:51	816406	0	3	3	3	3	3	3	3	3	0	0	0	0	0	0	0	0	0	0	0	0	0		1	0	0	0	0	0	0	0
010713	10:20:51	11111	Trial	IncongruentLeft	14	0	1000	0	102	10:20:51	817419	0	3	3	3	3	3	3	3	3	0	0	0	0	0	0	0	0	0	0	0	0	0		1	0	0	0	0	0	0	0
010713	10:20:51	11111	Trial	ResponseCR	14	0	175	0	102	10:20:51	818126	0	3	3	3	3	3	3	3	3	0	0	0	0	0	0	0	0	0	0	0	0	0		1	0	0	0	0	0	0	0
010713	10:20:51	11111	Trial	CongruentRight	14	0	1000	0	102	10:20:51	819139	0	3	3	3	3	3	3	3	3	0	0	0	0	0	0	0	0	0	0	0	0	0		1	0	0	0	0	0	0	0
010713	10:20:51	11111	Trial	ResponseCL	14	0	175	0	102	10:20:51	819845	0	3	3	3	3	3	3	3	3	0	0	0	0	0	0	0	0	0	0	0	0	0		1	0	0	0	0	0	0	0
010713	10:20:51	11111	Trial	CongruentLeft	14	0	1000	0	102	10:20:51	820858	0	3	3	3	3	3	3	3	3	0	0	0	0	0	0	0	0	0	0	0	0	0		1	0	0	0	0	0	0	0
010713	10:20:51	11111	Trial	ResponseIR	14	0	175	0	102	10:20:51	821564	0	3	3	3	3	3	3	3	3	0	0	0	0	0	0	0	0	0	0	0	0	0		1	0	0	0	0	0	0	0
010713	10:20:51	11111	Trial	IncongruentRight	14	0	1000	0	102	10:20:51	822577	0	3	3	3	3	3	3	3	3	0	0	0	0	0	0	0	0	0	0	0	0	0		1	0	0	0	0	0	0	0
010713	10:20:51	11111	Trial	ResponseCL	14	0	175	0	102	10:20:51	823284	0	3	3	3	3	3	3	3	3	0	0	0	0	0	0	0	0	0	0	0	0	0		1	0	0	0	0	0	0	0
010713	10:20:51	11111	Trial	CongruentLeft	14	0	1000	0	102	10:20:51	824297	0	3	3	3	3	3	3	3	3	0	0	0	0	0	0	0	0	0	0	0	0	0		1	0	0	0	0	0	0	0
010713	10:20:51	11111	Trial	ResponseCR	14	0	175	0	102	10:20:51	825003	0	3	3	3	3	3	3	3	3	0	0	0	0	0	0	0	0	0	0	0	0	0		1	0	0	0	0	0	0	0
010713	10:20:51	11111	Trial	CongruentRight	14	0	1000	0	102	10:20:51	826016	0	3	3	3	3	3	3	3	3	0	0	0	0	0	0	0	0	0	0	0	0	0		1	0	0	0	0	0	0	0
010713	10:20:51	11111	Trial	ResponseIL	14	0	175	0	102	10:20:51	826722	0	3	3	3	3	3	3	3	3	0	0	0	0	0	0	0	0	0	0	0	0	0		1	0	0	0	0	0	0	0
010713	10:20:51	11111	Trial	IncongruentLeft	14	0	1000	0	102	10:20:51	827735	0	3	3	3	3	3	3	3	3	0	0	0	0	0	0	0	0	0	0	0	0	0		1	0	0	0	0	0	0	0
010713	10:20:51	11111	WordsAbsFr6mo	PAbsFr6mo1	16	Abs1	1673	0	102	10:20:51	833759	0	3	3	3	3	3	3	3	3	0	0	0	0	0	0	0	0	0	0	0	0	0		1	0	0	0	0	0	0	0
010713	10:20:51	11111	WordsAbsFr6mo	AbsFr6mo1	16	Abs1	1320	0	102	10:20:51	835119	0	3	3	3	3	3	3	3	3	0	0	1	0	0	0	0	0	0	0	0	0	0		1	0	0	0	0	0	0	0
010713	10:20:51	11111	WordsAbsFr6mo	AbsFr6mo2	16	Abs1	929	0	102	10:20:51	836078	0	3	3	3	3	3	3	3	3	0	0	2	0	0	0	0	0	0	0	0	0	0		1	0	0	0	0	0	0	0
010713	10:20:51	11111	WordsAbsFr6mo	AbsFr6mo3	16	Abs1	977	0	102	10:20:51	837091	0	3	3	3	3	3	3	3	3	0	0	3	0	0	0	0	0	0	0	0	0	0		1	0	0	0	0	0	0	0
010713	10:20:51	11111	Trial2BackFrS	NS	17	0	1000	1	102	10:20:51	878688	0	3	3	3	3	3	3	3	3	0	0	3	0	0	0	0	0	0	0	0	0	0		1	0	0	0	0	0	0	0
010713	10:20:51	11111	Trial2BackFrS	NS	17	0	1000	1	102	10:20:51	880194	0	3	3	3	3	3	3	3	3	0	0	3	0	0	0	0	0	0	0	0	0	0		1	0	0	0	0	0	0	0
010713	10:20:51	11111	Trial2BackFrS	NS	17	0	1000	1	102	10:20:51	881700	0	3	3	3	3	3	3	3	3	0	0	3	0	0	0	0	0	0	0	0	0	0		1	0	0	0	0	0	0	0
010713	10:20:51	11111	Trial2BackFrS	YS	17	0	1000	0	102	10:20:51	883206	0	3	3	3	3	3	3	3	3	0	0	3	0	0	0	0	0	0	0	0	0	0		1	0	0	0	0	0	0	0
010713	10:20:51	11111	Trial2BackFrS	NS	17	0	1000	1	102	10:20:51	884725	0	3	3	3	3	3	3	3	3	0	0	3	0	0	0	0	0	0	0	0	0	0		1	0	0	0	0	0	0	0
010713	10:20:51	11111	Trial2BackFrS	NS	17	0	1000	1	102	10:20:51	886231	0	3	3	3	3	3	3	3	3	0	0	3	0	0	0	0	0	0	0	0	0	0		1	0	0	0	0	0	0	0
010713	10:20:51	11111	Trial2BackFrS	NS	17	0	1000	1	102	10:20:51	887738	0	3	3	3	3	3	3	3	3	0	0	3	0	0	0	0	0	0	0	0	0	0		1	0	0	0	0	0	0	0
010713	10:20:51	11111	Trial2BackFrS	NS	17	0	1000	1	102	10:20:51	889244	0	3	3	3	3	3	3	3	3	0	0	3	0	0	0	0	0	0	0	0	0	0		1	0	0	0	0	0	0	0
010713	10:20:51	11111	Trial2BackFrS	YS	17	0	1000	0	102	10:20:51	890763	0	3	3	3	3	3	3	3	3	0	0	3	0	0	0	0	0	0	0	0	0	0		1	0	0	0	0	0	0	0
010713	10:20:51	11111	Trial2BackFrS	NS	17	0	1000	1	102	10:20:51	892269	0	3	3	3	3	3	3	3	3	0	0	3	0	0	0	0	0	0	0	0	0	0		1	0	0	0	0	0	0	0
010713	10:20:51	11111	Trial2BackFrS	NS	17	0	1000	1	102	10:20:51	893775	0	3	3	3	3	3	3	3	3	0	0	3	0	0	0	0	0	0	0	0	0	0		1	0	0	0	0	0	0	0
010713	10:20:51	11111	Trial2BackFrS	YS	17	0	1000	0	102	10:20:51	895281	0	3	3	3	3	3	3	3	3	0	0	3	0	0	0	0	0	0	0	0	0	0		1	0	0	0	0	0	0	0
010713	10:20:51	11111	Trial2BackFrS	NS	17	0	1000	1	102	10:20:51	896787	0	3	3	3	3	3	3	3	3	0	0	3	0	0	0	0	0	0	0	0	0	0		1	0	0	0	0	0	0	0
010713	10:20:51	11111	Trial2BackFrS	NS	17	0	1000	1	102	10:20:51	898307	0	3	3	3	3	3	3	3	3	0	0	3	0	0	0	0	0	0	0	0	0	0		1	0	0	0	0	0	0	0
010713	10:20:51	11111	Trial2BackFrS	NS	17	0	1000	1	102	10:20:51	899813	0	3	3	3	3	3	3	3	3	0	0	3	0	0	0	0	0	0	0	0	0	0		1	0	0	0	0	0	0	0
010713	10:20:51	11111	Trial2BackFrS	YS	17	0	1000	0	102	10:20:51	901332	0	3	3	3	3	3	3	3	3	0	0	3	0	0	0	0	0	0	0	0	0	0		1	0	0	0	0	0	0	0
010713	10:20:51	11111	Trial2BackFrS	NS	17	0	1000	1	102	10:20:51	902838	0	3	3	3	3	3	3	3	3	0	0	3	0	0	0	0	0	0	0	0	0	0		1	0	0	0	0	0	0	0
010713	10:20:51	11111	Trial2BackFrS	NS	17	0	1000	1	102	10:20:51	904357	0	3	3	3	3	3	3	3	3	0	0	3	0	0	0	0	0	0	0	0	0	0		1	0	0	0	0	0	0	0
010713	10:20:51	11111	Trial2BackFrS	NS	17	0	1000	1	102	10:20:51	905863	0	3	3	3	3	3	3	3	3	0	0	3	0	0	0	0	0	0	0	0	0	0		1	0	0	0	0	0	0	0
010713	10:20:51	11111	Trial2BackFrS	NS	17	0	1000	1	102	10:20:51	907370	0	3	3	3	3	3	3	3	3	0	0	3	0	0	0	0	0	0	0	0	0	0		1	0	0	0	0	0	0	0
010713	10:20:51	11111	Trial2BackFrS	YS	17	0	1000	0	102	10:20:51	908876	0	3	3	3	3	3	3	3	3	0	0	3	0	0	0	0	0	0	0	0	0	0		1	0	0	0	0	0	0	0
010713	10:20:51	11111	Trial2BackFrS	NS	17	0	1000	1	102	10:20:51	910382	0	3	3	3	3	3	3	3	3	0	0	3	0	0	0	0	0	0	0	0	0	0		1	0	0	0	0	0	0	0
010713	10:20:51	11111	Trial2BackFrS	NS	17	0	1000	1	102	10:20:51	911901	0	3	3	3	3	3	3	3	3	0	0	3	0	0	0	0	0	0	0	0	0	0		1	0	0	0	0	0	0	0
010713	10:20:51	11111	Trial2BackFrS	NS	17	0	1000	1	102	10:20:51	913407	0	3	3	3	3	3	3	3	3	0	0	3	0	0	0	0	0	0	0	0	0	0		1	0	0	0	0	0	0	0
010713	10:20:51	11111	Trial2BackFrS	NS	17	0	1000	1	102	10:20:51	914927	0	3	3	3	3	3	3	3	3	0	0	3	0	0	0	0	0	0	0	0	0	0		1	0	0	0	0	0	0	0
010713	10:20:51	11111	Trial2BackFrS	NS	17	0	1000	1	102	10:20:51	916446	0	3	3	3	3	3	3	3	3	0	0	3	0	0	0	0	0	0	0	0	0	0		1	0	0	0	0	0	0	0
010713	10:20:51	11111	Trial2BackFrS	NS	17	0	1000	1	102	10:20:51	917952	0	3	3	3	3	3	3	3	3	0	0	3	0	0	0	0	0	0	0	0	0	0		1	0	0	0	0	0	0	0
010713	10:20:51	11111	Trial2BackFrS	NS	17	0	1000	1	102	10:20:51	919458	0	3	3	3	3	3	3	3	3	0	0	3	0	0	0	0	0	0	0	0	0	0		1	0	0	0	0	0	0	0
010713	10:20:51	11111	Trial2BackFrS	NS	17	0	1000	1	102	10:20:51	920964	0	3	3	3	3	3	3	3	3	0	0	3	0	0	0	0	0	0	0	0	0	0		1	0	0	0	0	0	0	0
010713	10:20:51	11111	Trial2BackFrS	NS	17	0	1000	1	102	10:20:51	922470	0	3	3	3	3	3	3	3	3	0	0	3	0	0	0	0	0	0	0	0	0	0		1	0	0	0	0	0	0	0
010713	10:20:51	11111	Trial2BackFrS	NS	17	0	1000	1	102	10:20:51	923990	0	3	3	3	3	3	3	3	3	0	0	3	0	0	0	0	0	0	0	0	0	0		1	0	0	0	0	0	0	0
010713	10:20:51	11111	Trial2BackFrS	YS	17	0	1000	0	102	10:20:51	925496	0	3	3	3	3	3	3	3	3	0	0	3	0	0	0	0	0	0	0	0	0	0		1	0	0	0	0	0	0	0
010713	10:20:51	11111	Trial2BackFrS	NS	17	0	1000	1	102	10:20:51	927002	0	3	3	3	3	3	3	3	3	0	0	3	0	0	0	0	0	0	0	0	0	0		1	0	0	0	0	0	0	0
010713	10:20:51	11111	Trial2BackFrS	NS	17	0	1000	1	102	10:20:51	928508	0	3	3	3	3	3	3	3	3	0	0	3	0	0	0	0	0	0	0	0	0	0		1	0	0	0	0	0	0	0
010713	10:20:51	11111	Trial2BackFrS	NS	17	0	1000	1	102	10:20:51	930014	0	3	3	3	3	3	3	3	3	0	0	3	0	0	0	0	0	0	0	0	0	0		1	0	0	0	0	0	0	0
010713	10:20:51	11111	Trial2BackFrS	YS	17	0	1000	0	102	10:20:51	931533	0	3	3	3	3	3	3	3	3	0	0	3	0	0	0	0	0	0	0	0	0	0		1	0	0	0	0	0	0	0
010713	10:20:51	11111	Trial2BackFrS	NS	17	0	1000	1	102	10:20:51	933052	0	3	3	3	3	3	3	3	3	0	0	3	0	0	0	0	0	0	0	0	0	0		1	0	0	0	0	0	0	0
010713	10:20:51	11111	Trial2BackFrS	NS	17	0	1000	1	102	10:20:51	934558	0	3	3	3	3	3	3	3	3	0	0	3	0	0	0	0	0	0	0	0	0	0		1	0	0	0	0	0	0	0
010713	10:20:51	11111	Trial2BackFrS	NS	17	0	1000	1	102	10:20:51	936065	0	3	3	3	3	3	3	3	3	0	0	3	0	0	0	0	0	0	0	0	0	0		1	0	0	0	0	0	0	0
010713	10:20:51	11111	Trial2BackFrS	NS	17	0	1000	1	102	10:20:51	937571	0	3	3	3	3	3	3	3	3	0	0	3	0	0	0	0	0	0	0	0	0	0		1	0	0	0	0	0	0	0
010713	10:20:51	11111	Trial2BackFrS	NS	17	0	1000	1	102	10:20:51	939077	0	3	3	3	3	3	3	3	3	0	0	3	0	0	0	0	0	0	0	0	0	0		1	0	0	0	0	0	0	0
010713	10:20:51	11111	Trial2BackFrS	NS	17	0	1000	1	102	10:20:51	940583	0	3	3	3	3	3	3	3	3	0	0	3	0	0	0	0	0	0	0	0	0	0		1	0	0	0	0	0	0	0
010713	10:20:51	11111	Trial2BackFrS	NS	17	0	1000	1	102	10:20:51	942102	0	3	3	3	3	3	3	3	3	0	0	3	0	0	0	0	0	0	0	0	0	0		1	0	0	0	0	0	0	0
010713	10:20:51	11111	Trial2BackFrS	YS	17	0	1000	0	102	10:20:51	943608	0	3	3	3	3	3	3	3	3	0	0	3	0	0	0	0	0	0	0	0	0	0		1	0	0	0	0	0	0	0
010713	10:20:51	11111	Trial2BackFrS	NS	17	0	1000	1	102	10:20:51	945114	0	3	3	3	3	3	3	3	3	0	0	3	0	0	0	0	0	0	0	0	0	0		1	0	0	0	0	0	0	0
010713	10:20:51	11111	Trial2BackFrS	NS	17	0	1000	1	102	10:20:51	946620	0	3	3	3	3	3	3	3	3	0	0	3	0	0	0	0	0	0	0	0	0	0		1	0	0	0	0	0	0	0
010713	10:20:51	11111	Trial2BackFrS	NS	17	0	1000	1	102	10:20:51	948127	0	3	3	3	3	3	3	3	3	0	0	3	0	0	0	0	0	0	0	0	0	0		1	0	0	0	0	0	0	0
010713	10:20:51	11111	Trial2BackFrS	NS	17	0	1000	1	102	10:20:51	949646	0	3	3	3	3	3	3	3	3	0	0	3	0	0	0	0	0	0	0	0	0	0		1	0	0	0	0	0	0	0
010713	10:20:51	11111	Trial2BackFrS	YS	17	0	1000	0	102	10:20:51	951152	0	3	3	3	3	3	3	3	3	0	0	3	0	0	0	0	0	0	0	0	0	0		1	0	0	0	0	0	0	0
010713	10:20:51	11111	Trial2BackFrS	NS	17	0	1000	1	102	10:20:51	952671	0	3	3	3	3	3	3	3	3	0	0	3	0	0	0	0	0	0	0	0	0	0		1	0	0	0	0	0	0	0
010713	10:20:51	11111	Trial2BackFrS	NS	17	0	1000	1	102	10:20:51	954177	0	3	3	3	3	3	3	3	3	0	0	3	0	0	0	0	0	0	0	0	0	0		1	0	0	0	0	0	0	0
010713	10:20:51	11111	Trial2BackFrS	NS	17	0	1000	1	102	10:20:51	955683	0	3	3	3	3	3	3	3	3	0	0	3	0	0	0	0	0	0	0	0	0	0		1	0	0	0	0	0	0	0
010713	10:20:51	11111	Trial2BackFrS	NS	17	0	1000	1	102	10:20:51	957189	0	3	3	3	3	3	3	3	3	0	0	3	0	0	0	0	0	0	0	0	0	0		1	0	0	0	0	0	0	0
010713	10:20:51	11111	Trial2BackFrS	NS	17	0	1000	1	102	10:20:51	958709	0	3	3	3	3	3	3	3	3	0	0	3	0	0	0	0	0	0	0	0	0	0		1	0	0	0	0	0	0	0
010713	10:20:51	11111	Trial2BackFrS	NS	17	0	1000	1	102	10:20:51	960215	0	3	3	3	3	3	3	3	3	0	0	3	0	0	0	0	0	0	0	0	0	0		1	0	0	0	0	0	0	0
010713	10:20:51	11111	Trial2BackFrS	YS	17	0	1000	0	102	10:20:51	961721	0	3	3	3	3	3	3	3	3	0	0	3	0	0	0	0	0	0	0	0	0	0		1	0	0	0	0	0	0	0
010713	10:20:51	11111	Trial2BackFrS	NS	17	0	1000	1	102	10:20:51	963227	0	3	3	3	3	3	3	3	3	0	0	3	0	0	0	0	0	0	0	0	0	0		1	0	0	0	0	0	0	0
010713	10:20:51	11111	Trial2BackFrS	NS	17	0	1000	1	102	10:20:51	964733	0	3	3	3	3	3	3	3	3	0	0	3	0	0	0	0	0	0	0	0	0	0		1	0	0	0	0	0	0	0
010713	10:20:51	11111	Trial2BackFrS	NS	17	0	1000	1	102	10:20:51	966252	0	3	3	3	3	3	3	3	3	0	0	3	0	0	0	0	0	0	0	0	0	0		1	0	0	0	0	0	0	0
010713	10:20:51	11111	Trial2BackFrS	NS	17	0	1000	1	102	10:20:51	967758	0	3	3	3	3	3	3	3	3	0	0	3	0	0	0	0	0	0	0	0	0	0		1	0	0	0	0	0	0	0
010713	10:20:51	11111	Trial2BackFrS	NS	17	0	1000	1	102	10:20:51	969265	0	3	3	3	3	3	3	3	3	0	0	3	0	0	0	0	0	0	0	0	0	0		1	0	0	0	0	0	0	0
010713	10:20:51	11111	Trial2BackFrS	NS	17	0	1000	1	102	10:20:51	970771	0	3	3	3	3	3	3	3	3	0	0	3	0	0	0	0	0	0	0	0	0	0		1	0	0	0	0	0	0	0
010713	10:20:51	11111	Trial2BackFrS	NS	17	0	1000	1	102	10:20:51	972276	0	3	3	3	3	3	3	3	3	0	0	3	0	0	0	0	0	0	0	0	0	0		1	0	0	0	0	0	0	0
010713	10:20:51	11111	Trial2BackFrS	YS	17	0	1000	0	102	10:20:51	973796	0	3	3	3	3	3	3	3	3	0	0	3	0	0	0	0	0	0	0	0	0	0		1	0	0	0	0	0	0	0
010713	10:20:51	11111	Trial2BackFrS	NS	17	0	1000	1	102	10:20:51	975302	0	3	3	3	3	3	3	3	3	0	0	3	0	0	0	0	0	0	0	0	0	0		1	0	0	0	0	0	0	0
010713	10:20:51	11111	Trial2BackFrS	NS	17	0	1000	1	102	10:20:51	976808	0	3	3	3	3	3	3	3	3	0	0	3	0	0	0	0	0	0	0	0	0	0		1	0	0	0	0	0	0	0
010713	10:20:51	11111	Trial2BackFrS	NS	17	0	1000	1	102	10:20:51	978314	0	3	3	3	3	3	3	3	3	0	0	3	0	0	0	0	0	0	0	0	0	0		1	0	0	0	0	0	0	0
010713	10:20:51	11111	Trial2BackFrS	NS	17	0	1000	1	102	10:20:51	979820	0	3	3	3	3	3	3	3	3	0	0	3	0	0	0	0	0	0	0	0	0	0		1	0	0	0	0	0	0	0
010713	10:20:51	11111	Trial2BackFrS	YS	17	0	1000	0	102	10:20:51	981326	0	3	3	3	3	3	3	3	3	0	0	3	0	0	0	0	0	0	0	0	0	0		1	0	0	0	0	0	0	0
010713	10:20:51	11111	Trial2BackFrS	NS	17	0	1000	1	102	10:20:51	982832	0	3	3	3	3	3	3	3	3	0	0	3	0	0	0	0	0	0	0	0	0	0		1	0	0	0	0	0	0	0
010713	10:20:51	11111	Trial2BackFrS	NS	17	0	1000	1	102	10:20:51	984339	0	3	3	3	3	3	3	3	3	0	0	3	0	0	0	0	0	0	0	0	0	0		1	0	0	0	0	0	0	0
010713	10:20:51	11111	Trial2BackFrS	YS	17	0	1000	0	102	10:20:51	985844	0	3	3	3	3	3	3	3	3	0	0	3	0	0	0	0	0	0	0	0	0	0		1	0	0	0	0	0	0	0
010713	10:20:51	11111	Trial2BackFrS	NS	17	0	1000	1	102	10:20:51	987350	0	3	3	3	3	3	3	3	3	0	0	3	0	0	0	0	0	0	0	0	0	0		1	0	0	0	0	0	0	0
010713	10:20:51	11111	Trial2BackFrS	NS	17	0	1000	1	102	10:20:51	988870	0	3	3	3	3	3	3	3	3	0	0	3	0	0	0	0	0	0	0	0	0	0		1	0	0	0	0	0	0	0
010713	10:20:51	11111	Trial2BackFrS	NS	17	0	1000	1	102	10:20:51	990376	0	3	3	3	3	3	3	3	3	0	0	3	0	0	0	0	0	0	0	0	0	0		1	0	0	0	0	0	0	0
010713	10:20:51	11111	Trial2BackFrS	NS	17	0	1000	1	102	10:20:51	991882	0	3	3	3	3	3	3	3	3	0	0	3	0	0	0	0	0	0	0	0	0	0		1	0	0	0	0	0	0	0
010713	10:20:51	11111	Trial2BackFrS	NS	17	0	1000	1	102	10:20:51	993388	0	3	3	3	3	3	3	3	3	0	0	3	0	0	0	0	0	0	0	0	0	0		1	0	0	0	0	0	0	0
010713	10:20:51	11111	Trial2BackFrS	NS	17	0	1000	1	102	10:20:51	994907	0	3	3	3	3	3	3	3	3	0	0	3	0	0	0	0	0	0	0	0	0	0		1	0	0	0	0	0	0	0
010713	10:20:51	11111	Trial2BackFrS	YS	17	0	1000	0	102	10:20:51	996413	0	3	3	3	3	3	3	3	3	0	0	3	0	0	0	0	0	0	0	0	0	0		1	0	0	0	0	0	0	0
010713	10:20:51	11111	Trial2BackFrS	NS	17	0	1000	1	102	10:20:51	997919	0	3	3	3	3	3	3	3	3	0	0	3	0	0	0	0	0	0	0	0	0	0		1	0	0	0	0	0	0	0
010713	10:20:51	11111	Trial2BackFrS	NS	17	0	1000	1	102	10:20:51	999426	0	3	3	3	3	3	3	3	3	0	0	3	0	0	0	0	0	0	0	0	0	0		1	0	0	0	0	0	0	0
010713	10:20:51	11111	Trial2BackFrS	NS	17	0	1000	1	102	10:20:51	1000932	0	3	3	3	3	3	3	3	3	0	0	3	0	0	0	0	0	0	0	0	0	0		1	0	0	0	0	0	0	0
010713	10:20:51	11111	Trial2BackFrS	NS	17	0	1000	1	102	10:20:51	1002451	0	3	3	3	3	3	3	3	3	0	0	3	0	0	0	0	0	0	0	0	0	0		1	0	0	0	0	0	0	0
010713	10:20:51	11111	Trial2BackFrS	YS	17	0	1000	0	102	10:20:51	1003957	0	3	3	3	3	3	3	3	3	0	0	3	0	0	0	0	0	0	0	0	0	0		1	0	0	0	0	0	0	0
010713	10:20:51	11111	Trial2BackFrS	NS	17	0	1000	1	102	10:20:51	1005476	0	3	3	3	3	3	3	3	3	0	0	3	0	0	0	0	0	0	0	0	0	0		1	0	0	0	0	0	0	0
010713	10:20:51	11111	Trial2BackFrS	NS	17	0	1000	1	102	10:20:51	1006983	0	3	3	3	3	3	3	3	3	0	0	3	0	0	0	0	0	0	0	0	0	0		1	0	0	0	0	0	0	0
010713	10:20:51	11111	Trial2BackFrS	NS	17	0	1000	1	102	10:20:51	1008489	0	3	3	3	3	3	3	3	3	0	0	3	0	0	0	0	0	0	0	0	0	0		1	0	0	0	0	0	0	0
010713	10:20:51	11111	Trial2BackFrS	NS	17	0	1000	1	102	10:20:51	1009995	0	3	3	3	3	3	3	3	3	0	0	3	0	0	0	0	0	0	0	0	0	0		1	0	0	0	0	0	0	0
010713	10:20:51	11111	Trial2BackFrS	YS	17	0	1000	0	102	10:20:51	1011500	0	3	3	3	3	3	3	3	3	0	0	3	0	0	0	0	0	0	0	0	0	0		1	0	0	0	0	0	0	0
010713	10:20:51	11111	Trial2BackFrS	NS	17	0	1000	1	102	10:20:51	1013007	0	3	3	3	3	3	3	3	3	0	0	3	0	0	0	0	0	0	0	0	0	0		1	0	0	0	0	0	0	0
010713	10:20:51	11111	Trial2BackFrS	NS	17	0	1000	1	102	10:20:51	1014513	0	3	3	3	3	3	3	3	3	0	0	3	0	0	0	0	0	0	0	0	0	0		1	0	0	0	0	0	0	0
010713	10:20:51	11111	Trial2BackFrS	YS	17	0	1000	0	102	10:20:51	1016019	0	3	3	3	3	3	3	3	3	0	0	3	0	0	0	0	0	0	0	0	0	0		1	0	0	0	0	0	0	0
010713	10:20:51	11111	Trial2BackFrS	NS	17	0	1000	1	102	10:20:51	1017525	0	3	3	3	3	3	3	3	3	0	0	3	0	0	0	0	0	0	0	0	0	0		1	0	0	0	0	0	0	0
010713	10:20:51	11111	Trial2BackFrS	NS	17	0	1000	1	102	10:20:51	1019044	0	3	3	3	3	3	3	3	3	0	0	3	0	0	0	0	0	0	0	0	0	0		1	0	0	0	0	0	0	0
010713	10:20:51	11111	Trial2BackFrS	NS	17	0	1000	1	102	10:20:51	1020564	0	3	3	3	3	3	3	3	3	0	0	3	0	0	0	0	0	0	0	0	0	0		1	0	0	0	0	0	0	0
010713	10:20:51	11111	Trial2BackFrS	NS	17	0	1000	1	102	10:20:51	1022070	0	3	3	3	3	3	3	3	3	0	0	3	0	0	0	0	0	0	0	0	0	0		1	0	0	0	0	0	0	0
010713	10:20:51	11111	Trial2BackFrS	NS	17	0	1000	1	102	10:20:51	1023589	0	3	3	3	3	3	3	3	3	0	0	3	0	0	0	0	0	0	0	0	0	0		1	0	0	0	0	0	0	0
010713	10:20:51	11111	Trial2BackFrS	NS	17	0	1000	1	102	10:20:51	1025095	0	3	3	3	3	3	3	3	3	0	0	3	0	0	0	0	0	0	0	0	0	0		1	0	0	0	0	0	0	0
010713	10:20:51	11111	Trial2BackFrS	NS	17	0	1000	1	102	10:20:51	1026614	0	3	3	3	3	3	3	3	3	0	0	3	0	0	0	0	0	0	0	0	0	0		1	0	0	0	0	0	0	0
010713	10:20:51	11111	Trial2BackFrS	NS	17	0	1000	1	102	10:20:51	1028134	0	3	3	3	3	3	3	3	3	0	0	3	0	0	0	0	0	0	0	0	0	0		1	0	0	0	0	0	0	0
010713	10:20:51	11111	Trial2BackFrS	YS	17	0	1000	0	102	10:20:51	1029640	0	3	3	3	3	3	3	3	3	0	0	3	0	0	0	0	0	0	0	0	0	0		1	0	0	0	0	0	0	0
010713	10:20:51	11111	Trial2BackFrS	NS	17	0	1000	1	102	10:20:51	1031159	0	3	3	3	3	3	3	3	3	0	0	3	0	0	0	0	0	0	0	0	0	0		1	0	0	0	0	0	0	0
010713	10:20:51	11111	Trial2BackFrS	NS	17	0	1000	1	102	10:20:51	1032679	0	3	3	3	3	3	3	3	3	0	0	3	0	0	0	0	0	0	0	0	0	0		1	0	0	0	0	0	0	0
010713	10:20:51	11111	Trial2BackFrS	NS	17	0	1000	1	102	10:20:51	1034185	0	3	3	3	3	3	3	3	3	0	0	3	0	0	0	0	0	0	0	0	0	0		1	0	0	0	0	0	0	0
010713	10:20:51	11111	Trial2BackFrS	NS	17	0	1000	1	102	10:20:51	1035691	0	3	3	3	3	3	3	3	3	0	0	3	0	0	0	0	0	0	0	0	0	0		1	0	0	0	0	0	0	0
010713	10:20:51	11111	Trial2BackFrS	NS	17	0	1000	1	102	10:20:51	1037197	0	3	3	3	3	3	3	3	3	0	0	3	0	0	0	0	0	0	0	0	0	0		1	0	0	0	0	0	0	0
010713	10:20:51	11111	Trial2BackFrS	NS	17	0	1000	1	102	10:20:51	1038716	0	3	3	3	3	3	3	3	3	0	0	3	0	0	0	0	0	0	0	0	0	0		1	0	0	0	0	0	0	0
010713	10:20:51	11111	Trial2BackFrS	NS	17	0	1000	1	102	10:20:51	1040222	0	3	3	3	3	3	3	3	3	0	0	3	0	0	0	0	0	0	0	0	0	0		1	0	0	0	0	0	0	0
010713	10:20:51	11111	Trial2BackFrS	YS	17	0	1000	0	102	10:20:51	1041742	0	3	3	3	3	3	3	3	3	0	0	3	0	0	0	0	0	0	0	0	0	0		1	0	0	0	0	0	0	0
010713	10:20:51	11111	Trial2BackFrS	NS	17	0	1000	1	102	10:20:51	1043261	0	3	3	3	3	3	3	3	3	0	0	3	0	0	0	0	0	0	0	0	0	0		1	0	0	0	0	0	0	0
010713	10:20:51	11111	Trial2BackFrS	NS	17	0	1000	1	102	10:20:51	1044780	0	3	3	3	3	3	3	3	3	0	0	3	0	0	0	0	0	0	0	0	0	0		1	0	0	0	0	0	0	0
010713	10:20:51	11111	Trial2BackFrS	NS	17	0	1000	1	102	10:20:51	1046287	0	3	3	3	3	3	3	3	3	0	0	3	0	0	0	0	0	0	0	0	0	0		1	0	0	0	0	0	0	0
010713	10:20:51	11111	Trial2BackFrS	NS	17	0	1000	1	102	10:20:51	1047793	0	3	3	3	3	3	3	3	3	0	0	3	0	0	0	0	0	0	0	0	0	0		1	0	0	0	0	0	0	0
010713	10:20:51	11111	Trial2BackFrS	NS	17	0	1000	1	102	10:20:51	1049299	0	3	3	3	3	3	3	3	3	0	0	3	0	0	0	0	0	0	0	0	0	0		1	0	0	0	0	0	0	0
010713	10:20:51	11111	Trial2BackFrS	NS	17	0	1000	1	102	10:20:51	1050805	0	3	3	3	3	3	3	3	3	0	0	3	0	0	0	0	0	0	0	0	0	0		1	0	0	0	0	0	0	0
010713	10:20:51	11111	Trial2BackFrS	NS	17	0	1000	1	102	10:20:51	1052311	0	3	3	3	3	3	3	3	3	0	0	3	0	0	0	0	0	0	0	0	0	0		1	0	0	0	0	0	0	0
010713	10:20:51	11111	Trial2BackFrS	NS	17	0	1000	1	102	10:20:51	1053817	0	3	3	3	3	3	3	3	3	0	0	3	0	0	0	0	0	0	0	0	0	0		1	0	0	0	0	0	0	0
010713	10:20:51	11111	Trial2BackFrS	NS	17	0	1000	1	102	10:20:51	1055323	0	3	3	3	3	3	3	3	3	0	0	3	0	0	0	0	0	0	0	0	0	0		1	0	0	0	0	0	0	0
010713	10:20:51	11111	Trial2BackFrS	YS	17	0	1000	0	102	10:20:51	1056842	0	3	3	3	3	3	3	3	3	0	0	3	0	0	0	0	0	0	0	0	0	0		1	0	0	0	0	0	0	0
010713	10:20:51	11111	Trial2BackFrS	NS	17	0	1000	1	102	10:20:51	1058362	0	3	3	3	3	3	3	3	3	0	0	3	0	0	0	0	0	0	0	0	0	0		1	0	0	0	0	0	0	0
010713	10:20:51	11111	ClockFr6mo	ClockFr6mo	19	Clock1	11703	0	102	10:20:51	1070184	0	3	3	3	3	3	3	3	3	0	0	3	1	0	0	0	0	0	0	0	0	0		1	0	0	0	0	0	0	0
010713	10:20:51	11111	ClockFr6mo	ClockFr6mo	19	Clock11	494	0	102	10:20:51	1070744	0	3	3	3	3	3	3	3	3	0	0	3	1	1	0	0	0	0	0	0	0	0		1	0	0	0	0	0	0	0
010713	10:20:51	11111	ClockFr6mo	ClockFr6mo	19	Clock111	446	0	102	10:20:51	1071250	0	3	3	3	3	3	3	3	3	0	0	3	1	1	1	0	0	0	0	0	0	0		1	0	0	0	0	0	0	0
010713	10:20:51	11111	ClockFr6mo	ClockFr6mo	19	Clockdone	484	0	102	10:20:51	1071796	0	3	3	3	3	3	3	3	3	0	0	3	1	1	1	0	0	0	0	0	0	0		1	0	0	0	0	0	0	0
010713	10:20:51	11111	FASFrVF6mo	StopFrVF6mo	20		2867	0	102	10:20:51	1138184	0	3	3	3	3	3	3	3	3	0	0	3	1	1	1	0	0	0	0	0	0	0		1	0	0	0	0	0	0	0
010713	10:20:51	11111	practiceTOLFR	choice	20	R	2053	0	102	10:20:51	1158750	0	3	3	3	3	3	3	3	3	0	0	3	1	1	1	0	0	0	1	2	0	-2	R	0	0	0	2151	0	0	1156599	1158750
010713	10:20:51	11111	practiceTOLFR	choice	20	B	894	0	102	10:20:51	1160804	0	3	3	3	3	3	3	3	3	0	0	3	1	1	1	0	0	0	1	2	1	-1	R3B	0	0	0	2151	0	0	1159856	1160804
010713	10:20:51	11111	practiceTOLFR	feedbackFR	20	0	2000	0	102	10:20:51	1163458	0	3	3	3	3	3	3	3	3	0	0	3	1	1	1	0	0	0	1	2	2	0	R3B1	1	3	3	2151	2674	4825	1159856	1160804
010713	10:20:51	11111	testTOLFR	choice	20	B	2846	0	102	10:20:51	1169060	0	3	3	3	3	3	3	3	3	0	0	3	1	1	1	0	0	2	1	2	0	-2	B	0	0	0	2907	0	0	1166153	1169059
010713	10:20:51	11111	testTOLFR	choice	20	R	866	0	102	10:20:51	1171252	0	3	3	3	3	3	3	3	3	0	0	3	1	1	1	0	0	2	1	2	1	-1	B3R	0	0	0	2907	0	0	1170336	1171251
010713	10:20:51	11111	testTOLFR	feedbackFR	20	0	2000	0	102	10:20:51	1174696	0	3	3	3	3	3	3	3	3	0	0	3	1	1	1	0	0	2	1	2	2	0	B3R2	1	3	3	2907	3603	6510	1170336	1171251
010713	10:20:51	11111	testTOLFR	choice	20	B	1700	0	102	10:20:51	1177484	0	3	3	3	3	3	3	3	3	0	0	3	1	1	1	0	0	4	1	3	0	-3	B	0	0	3	1769	0	0	1175714	1177483
010713	10:20:51	11111	testTOLFR	choice	20	R	752	0	102	10:20:51	1180227	0	3	3	3	3	3	3	3	3	0	0	3	1	1	1	0	0	4	1	3	1	-2	B3R	0	0	3	1769	0	0	1179431	1180227
010713	10:20:51	11111	testTOLFR	choice	20	B	676	0	102	10:20:51	1182164	0	3	3	3	3	3	3	3	3	0	0	3	1	1	1	0	0	4	1	3	2	-1	B3R2B	0	0	3	1769	0	0	1181439	1182163
010713	10:20:51	11111	testTOLFR	feedbackFR	20	0	2000	0	102	10:20:51	1185259	0	3	3	3	3	3	3	3	3	0	0	3	1	1	1	0	0	4	1	3	3	0	B3R2B2	1	3	6	1769	5741	7510	1181439	1182163
010713	10:20:51	11111	testTOLFR	choice	20	R	4049	0	102	10:20:51	1190387	0	3	3	3	3	3	3	3	3	0	0	3	1	1	1	0	0	7	1	4	0	-4	R	0	0	6	4113	0	0	1186274	1190387
010713	10:20:51	11111	testTOLFR	choice	20	G	721	0	102	10:20:51	1194323	0	3	3	3	3	3	3	3	3	0	0	3	1	1	1	0	0	7	1	4	1	-3	R2G	0	0	6	4113	0	0	1193559	1194323
010713	10:20:51	11111	testTOLFR	choice	20	R	1484	0	102	10:20:51	1197099	0	3	3	3	3	3	3	3	3	0	0	3	1	1	1	0	0	7	1	4	2	-2	R2G3R	0	0	6	4113	0	0	1195567	1197099
010713	10:20:51	11111	testTOLFR	choice	20	B	656	0	102	10:20:51	1199683	0	3	3	3	3	3	3	3	3	0	0	3	1	1	1	0	0	7	1	4	3	-1	R2G3R1B	0	0	6	4113	0	0	1198975	1199683
010713	10:20:51	11111	testTOLFR	feedbackFR	20	0	2000	0	102	10:20:51	1202730	0	3	3	3	3	3	3	3	3	0	0	3	1	1	1	0	0	7	1	4	4	0	R2G3R1B1	1	3	9	4113	10308	14421	1198975	1199683
010713	10:20:51	11111	testTOLFR	choice	20	nextround	1399	0	102	10:20:51	1205464	0	3	3	3	3	3	3	3	3	0	0	3	1	1	1	0	0	10	1	5	0	-5	nextround	0	0	9	1718	0	0	1203746	1205464
