date	time	subject	blockcode	trialcode	values.TaskNumber	response	latency	correct	values.Score	script.starttime	script.elapsedtime	values.ScoreS7	values.Word1	values.Word2	values.Word3	values.Word4	values.Word5	values.Word6	values.Word7	values.Word8	values.DigitSpanFwrd	values.DigitSpanBack	values.ScoreAbs	values.Contour	values.Numbers	values.Hands	values.corsiblockspanFwrd	values.corsiblockspanRev
100212	12:17:23	99887	Language	Language	0	French	2027	0	0	12:17:23	2352	0	0	0	0	0	0	0	0	0	0	0	0	0	0	0	0	0
100212	12:17:23	99887	Session	Session	0	6mo	891	0	0	12:17:23	3335	0	0	0	0	0	0	0	0	0	0	0	0	0	0	0	0	0
100212	12:17:23	99887	HandFr	HandFr	0	RightFr	2290	0	0	12:17:23	5717	0	0	0	0	0	0	0	0	0	0	0	0	0	0	0	0	0
100212	12:17:23	99887	AudioCheckFr	WordsFr	0	0	0	0	0	12:17:23	15961	0	0	0	0	0	0	0	0	0	0	0	0	0	0	0	0	0
100212	12:17:23	99887	CubeFr	CubeFr	1	1Cube	83406	0	0	12:17:23	106414	0	0	0	0	0	0	0	0	0	0	0	0	0	0	0	0	0
100212	12:17:23	99887	pm.simpleFrRight	blank.simpleFr	2	0	1784	1	0	12:17:23	158177	0	0	0	0	0	0	0	0	0	0	0	0	0	0	0	0	0
100212	12:17:23	99887	pm.simpleFrRight	pm.simpleFr	2	57	308	0	0	12:17:23	158527	0	0	0	0	0	0	0	0	0	0	0	0	0	0	0	0	0
100212	12:17:23	99887	pm.simpleFrRight	blank.simpleFr	2	0	2184	1	0	12:17:23	160743	0	0	0	0	0	0	0	0	0	0	0	0	0	0	0	0	0
100212	12:17:23	99887	pm.simpleFrRight	pm.simpleFr	2	57	252	0	0	12:17:23	161043	0	0	0	0	0	0	0	0	0	0	0	0	0	0	0	0	0
100212	12:17:23	99887	pm.simpleFrRight	blank.simpleFr	2	0	1484	1	0	12:17:23	162559	0	0	0	0	0	0	0	0	0	0	0	0	0	0	0	0	0
100212	12:17:23	99887	pm.simpleFrRight	pm.simpleFr	2	57	334	0	0	12:17:23	162942	0	0	0	0	0	0	0	0	0	0	0	0	0	0	0	0	0
100212	12:17:23	99887	pm.simpleFrRight	blank.simpleFr	2	0	2084	1	0	12:17:23	165058	0	0	0	0	0	0	0	0	0	0	0	0	0	0	0	0	0
100212	12:17:23	99887	pm.simpleFrRight	pm.simpleFr	2	57	257	0	0	12:17:23	165358	0	0	0	0	0	0	0	0	0	0	0	0	0	0	0	0	0
100212	12:17:23	99887	pm.simpleFrRight	blank.simpleFr	2	0	2284	1	0	12:17:23	167673	0	0	0	0	0	0	0	0	0	0	0	0	0	0	0	0	0
100212	12:17:23	99887	pm.simpleFrRight	pm.simpleFr	2	57	287	0	0	12:17:23	168007	0	0	0	0	0	0	0	0	0	0	0	0	0	0	0	0	0
100212	12:17:23	99887	pm.simpleFrRight	blank.simpleFr	2	0	2384	1	0	12:17:23	170423	0	0	0	0	0	0	0	0	0	0	0	0	0	0	0	0	0
100212	12:17:23	99887	pm.simpleFrRight	pm.simpleFr	2	57	234	0	0	12:17:23	170706	0	0	0	0	0	0	0	0	0	0	0	0	0	0	0	0	0
100212	12:17:23	99887	pm.simpleFrRight	blank.simpleFr	2	0	1984	1	0	12:17:23	172722	0	0	0	0	0	0	0	0	0	0	0	0	0	0	0	0	0
100212	12:17:23	99887	pm.simpleFrRight	pm.simpleFr	2	57	353	0	0	12:17:23	173121	0	0	0	0	0	0	0	0	0	0	0	0	0	0	0	0	0
100212	12:17:23	99887	pm.simpleFrRight	blank.simpleFr	2	0	1884	1	0	12:17:23	175037	0	0	0	0	0	0	0	0	0	0	0	0	0	0	0	0	0
100212	12:17:23	99887	pm.simpleFrRight	pm.simpleFr	2	57	218	0	0	12:17:23	175304	0	0	0	0	0	0	0	0	0	0	0	0	0	0	0	0	0
100212	12:17:23	99887	pm.simpleFrRight	blank.simpleFr	2	0	1684	1	0	12:17:23	177020	0	0	0	0	0	0	0	0	0	0	0	0	0	0	0	0	0
100212	12:17:23	99887	pm.simpleFrRight	pm.simpleFr	2	57	4266	0	0	12:17:23	181335	0	0	0	0	0	0	0	0	0	0	0	0	0	0	0	0	0
100212	12:17:23	99887	pm.simpleFrRight	blank.simpleFr	2	0	2484	1	0	12:17:23	183851	0	0	0	0	0	0	0	0	0	0	0	0	0	0	0	0	0
100212	12:17:23	99887	pm.simpleFrRight	pm.simpleFr	2	57	255	0	0	12:17:23	184150	0	0	0	0	0	0	0	0	0	0	0	0	0	0	0	0	0
100212	12:17:23	99887	pm.simpleFrRight	blank.simpleFr	2	0	1584	1	0	12:17:23	185767	0	0	0	0	0	0	0	0	0	0	0	0	0	0	0	0	0
100212	12:17:23	99887	pm.simpleFrRight	pm.simpleFr	2	57	567	0	0	12:17:23	186383	0	0	0	0	0	0	0	0	0	0	0	0	0	0	0	0	0
100212	12:17:23	99887	pm.simpleFrRight	blank.simpleFr	2	0	1784	1	0	12:17:23	188199	0	0	0	0	0	0	0	0	0	0	0	0	0	0	0	0	0
100212	12:17:23	99887	pm.simpleFrRight	pm.simpleFr	2	57	251	0	0	12:17:23	188499	0	0	0	0	0	0	0	0	0	0	0	0	0	0	0	0	0
100212	12:17:23	99887	pm.simpleFrRight	blank.simpleFr	2	0	1484	1	0	12:17:23	190015	0	0	0	0	0	0	0	0	0	0	0	0	0	0	0	0	0
100212	12:17:23	99887	pm.simpleFrRight	pm.simpleFr	2	57	388	0	0	12:17:23	190448	0	0	0	0	0	0	0	0	0	0	0	0	0	0	0	0	0
100212	12:17:23	99887	pm.simpleFrRight	blank.simpleFr	2	0	1984	1	0	12:17:23	192464	0	0	0	0	0	0	0	0	0	0	0	0	0	0	0	0	0
100212	12:17:23	99887	pm.simpleFrRight	pm.simpleFr	2	57	2205	0	0	12:17:23	194713	0	0	0	0	0	0	0	0	0	0	0	0	0	0	0	0	0
100212	12:17:23	99887	pm.simpleFrRight	blank.simpleFr	2	0	2484	1	0	12:17:23	197229	0	0	0	0	0	0	0	0	0	0	0	0	0	0	0	0	0
100212	12:17:23	99887	pm.simpleFrRight	pm.simpleFr	2	57	432	0	0	12:17:23	197712	0	0	0	0	0	0	0	0	0	0	0	0	0	0	0	0	0
100212	12:17:23	99887	pm.simpleFrRight	blank.simpleFr	2	0	1684	1	0	12:17:23	199428	0	0	0	0	0	0	0	0	0	0	0	0	0	0	0	0	0
100212	12:17:23	99887	pm.simpleFrRight	pm.simpleFr	2	57	243	0	0	12:17:23	199711	0	0	0	0	0	0	0	0	0	0	0	0	0	0	0	0	0
100212	12:17:23	99887	pm.simpleFrRight	blank.simpleFr	2	57	1799	0	0	12:17:23	202560	0	0	0	0	0	0	0	0	0	0	0	0	0	0	0	0	0
100212	12:17:23	99887	pm.simpleFrRight	blank.simpleFr	2	57	384	0	0	12:17:23	203993	0	0	0	0	0	0	0	0	0	0	0	0	0	0	0	0	0
100212	12:17:23	99887	pm.simpleFrRight	blank.simpleFr	2	0	1584	1	0	12:17:23	206076	0	0	0	0	0	0	0	0	0	0	0	0	0	0	0	0	0
100212	12:17:23	99887	pm.simpleFrRight	pm.simpleFr	2	57	1392	0	0	12:17:23	207508	0	0	0	0	0	0	0	0	0	0	0	0	0	0	0	0	0
100212	12:17:23	99887	pm.simpleFrRight	blank.simpleFr	2	0	2284	1	0	12:17:23	209825	0	0	0	0	0	0	0	0	0	0	0	0	0	0	0	0	0
100212	12:17:23	99887	pm.simpleFrRight	pm.simpleFr	2	57	288	0	0	12:17:23	210158	0	0	0	0	0	0	0	0	0	0	0	0	0	0	0	0	0
100212	12:17:23	99887	pm.simpleFrRight	blank.simpleFr	2	0	2384	1	0	12:17:23	212573	0	0	0	0	0	0	0	0	0	0	0	0	0	0	0	0	0
100212	12:17:23	99887	pm.simpleFrRight	pm.simpleFr	2	57	352	0	0	12:17:23	212973	0	0	0	0	0	0	0	0	0	0	0	0	0	0	0	0	0
100212	12:17:23	99887	pm.simpleFrRight	blank.simpleFr	2	0	2184	1	0	12:17:23	215189	0	0	0	0	0	0	0	0	0	0	0	0	0	0	0	0	0
100212	12:17:23	99887	pm.simpleFrRight	pm.simpleFr	2	57	1290	0	0	12:17:23	216522	0	0	0	0	0	0	0	0	0	0	0	0	0	0	0	0	0
100212	12:17:23	99887	pm.simpleFrRight	blank.simpleFr	2	0	2384	1	0	12:17:23	218938	0	0	0	0	0	0	0	0	0	0	0	0	0	0	0	0	0
100212	12:17:23	99887	pm.simpleFrRight	pm.simpleFr	2	57	255	0	0	12:17:23	219238	0	0	0	0	0	0	0	0	0	0	0	0	0	0	0	0	0
100212	12:17:23	99887	pm.simpleFrRight	blank.simpleFr	2	0	2184	1	0	12:17:23	221453	0	0	0	0	0	0	0	0	0	0	0	0	0	0	0	0	0
100212	12:17:23	99887	pm.simpleFrRight	pm.simpleFr	2	57	436	0	0	12:17:23	221937	0	0	0	0	0	0	0	0	0	0	0	0	0	0	0	0	0
100212	12:17:23	99887	pm.simpleFrRight	blank.simpleFr	2	0	2084	1	0	12:17:23	224053	0	0	0	0	0	0	0	0	0	0	0	0	0	0	0	0	0
100212	12:17:23	99887	pm.simpleFrRight	pm.simpleFr	2	57	369	0	0	12:17:23	224469	0	0	0	0	0	0	0	0	0	0	0	0	0	0	0	0	0
100212	12:17:23	99887	pm.simpleFrRight	blank.simpleFr	2	0	1984	1	0	12:17:23	226485	0	0	0	0	0	0	0	0	0	0	0	0	0	0	0	0	0
100212	12:17:23	99887	pm.simpleFrRight	pm.simpleFr	2	57	322	0	0	12:17:23	226852	0	0	0	0	0	0	0	0	0	0	0	0	0	0	0	0	0
100212	12:17:23	99887	pm.simpleFrRight	blank.simpleFr	2	0	1684	1	0	12:17:23	228568	0	0	0	0	0	0	0	0	0	0	0	0	0	0	0	0	0
100212	12:17:23	99887	pm.simpleFrRight	pm.simpleFr	2	57	317	0	0	12:17:23	228934	0	0	0	0	0	0	0	0	0	0	0	0	0	0	0	0	0
100212	12:17:23	99887	pm.simpleFrRight	blank.simpleFr	2	0	2284	1	0	12:17:23	231250	0	0	0	0	0	0	0	0	0	0	0	0	0	0	0	0	0
100212	12:17:23	99887	pm.simpleFrRight	pm.simpleFr	2	57	246	0	0	12:17:23	231533	0	0	0	0	0	0	0	0	0	0	0	0	0	0	0	0	0
100212	12:17:23	99887	pm.simpleFrRight	blank.simpleFr	2	0	1884	1	0	12:17:23	233449	0	0	0	0	0	0	0	0	0	0	0	0	0	0	0	0	0
100212	12:17:23	99887	pm.simpleFrRight	pm.simpleFr	2	57	258	0	0	12:17:23	233749	0	0	0	0	0	0	0	0	0	0	0	0	0	0	0	0	0
100212	12:17:23	99887	pm.simpleFrRight	blank.simpleFr	2	0	2484	1	0	12:17:23	236265	0	0	0	0	0	0	0	0	0	0	0	0	0	0	0	0	0
100212	12:17:23	99887	pm.simpleFrRight	pm.simpleFr	2	57	290	0	0	12:17:23	236598	0	0	0	0	0	0	0	0	0	0	0	0	0	0	0	0	0
100212	12:17:23	99887	pm.simpleFrRight	blank.simpleFr	2	0	1784	1	0	12:17:23	238414	0	0	0	0	0	0	0	0	0	0	0	0	0	0	0	0	0
100212	12:17:23	99887	pm.simpleFrRight	pm.simpleFr	2	57	292	0	0	12:17:23	238747	0	0	0	0	0	0	0	0	0	0	0	0	0	0	0	0	0
100212	12:17:23	99887	pm.simpleFrRight	blank.simpleFr	2	0	1584	1	0	12:17:23	240363	0	0	0	0	0	0	0	0	0	0	0	0	0	0	0	0	0
100212	12:17:23	99887	pm.simpleFrRight	pm.simpleFr	2	57	343	0	0	12:17:23	240746	0	0	0	0	0	0	0	0	0	0	0	0	0	0	0	0	0
100212	12:17:23	99887	pm.simpleFrRight	blank.simpleFr	2	0	1484	1	0	12:17:23	242262	0	0	0	0	0	0	0	0	0	0	0	0	0	0	0	0	0
100212	12:17:23	99887	pm.simpleFrRight	pm.simpleFr	2	57	259	0	0	12:17:23	242562	0	0	0	0	0	0	0	0	0	0	0	0	0	0	0	0	0
100212	12:17:23	99887	pm.simpleFrRight	blank.simpleFr	2	0	1884	1	0	12:17:23	244478	0	0	0	0	0	0	0	0	0	0	0	0	0	0	0	0	0
100212	12:17:23	99887	pm.simpleFrRight	pm.simpleFr	2	57	493	0	0	12:17:23	245011	0	0	0	0	0	0	0	0	0	0	0	0	0	0	0	0	0
100212	12:17:23	99887	pm.simpleFrRight	blank.simpleFr	2	0	1484	1	0	12:17:23	246527	0	0	0	0	0	0	0	0	0	0	0	0	0	0	0	0	0
100212	12:17:23	99887	pm.simpleFrRight	pm.simpleFr	2	57	264	0	0	12:17:23	246844	0	0	0	0	0	0	0	0	0	0	0	0	0	0	0	0	0
100212	12:17:23	99887	pm.simpleFrRight	blank.simpleFr	2	0	1984	1	0	12:17:23	248860	0	0	0	0	0	0	0	0	0	0	0	0	0	0	0	0	0
100212	12:17:23	99887	pm.simpleFrRight	pm.simpleFr	2	57	557	0	0	12:17:23	249459	0	0	0	0	0	0	0	0	0	0	0	0	0	0	0	0	0
100212	12:17:23	99887	pm.simpleFrRight	blank.simpleFr	2	0	2384	1	0	12:17:23	251875	0	0	0	0	0	0	0	0	0	0	0	0	0	0	0	0	0
100212	12:17:23	99887	pm.simpleFrRight	pm.simpleFr	2	57	253	0	0	12:17:23	252175	0	0	0	0	0	0	0	0	0	0	0	0	0	0	0	0	0
100212	12:17:23	99887	pm.simpleFrRight	blank.simpleFr	2	0	2484	1	0	12:17:23	254691	0	0	0	0	0	0	0	0	0	0	0	0	0	0	0	0	0
100212	12:17:23	99887	pm.simpleFrRight	pm.simpleFr	2	57	489	0	0	12:17:23	255224	0	0	0	0	0	0	0	0	0	0	0	0	0	0	0	0	0
100212	12:17:23	99887	pm.simpleFrRight	blank.simpleFr	2	0	2184	1	0	12:17:23	257440	0	0	0	0	0	0	0	0	0	0	0	0	0	0	0	0	0
100212	12:17:23	99887	pm.simpleFrRight	pm.simpleFr	2	57	492	0	0	12:17:23	257973	0	0	0	0	0	0	0	0	0	0	0	0	0	0	0	0	0
100212	12:17:23	99887	pm.simpleFrRight	blank.simpleFr	2	0	1784	1	0	12:17:23	259789	0	0	0	0	0	0	0	0	0	0	0	0	0	0	0	0	0
100212	12:17:23	99887	pm.simpleFrRight	pm.simpleFr	2	57	289	0	0	12:17:23	260122	0	0	0	0	0	0	0	0	0	0	0	0	0	0	0	0	0
100212	12:17:23	99887	pm.simpleFrRight	blank.simpleFr	2	0	2084	1	0	12:17:23	262238	0	0	0	0	0	0	0	0	0	0	0	0	0	0	0	0	0
100212	12:17:23	99887	pm.simpleFrRight	pm.simpleFr	2	57	238	0	0	12:17:23	262522	0	0	0	0	0	0	0	0	0	0	0	0	0	0	0	0	0
100212	12:17:23	99887	pm.simpleFrRight	blank.simpleFr	2	0	1684	1	0	12:17:23	264254	0	0	0	0	0	0	0	0	0	0	0	0	0	0	0	0	0
100212	12:17:23	99887	pm.simpleFrRight	pm.simpleFr	2	57	1713	0	0	12:17:23	266020	0	0	0	0	0	0	0	0	0	0	0	0	0	0	0	0	0
100212	12:17:23	99887	Trial2BackFr	N	3	0	1000	1	1	12:17:23	286662	0	0	0	0	0	0	0	0	0	0	0	0	0	0	0	0	0
100212	12:17:23	99887	Trial2BackFr	N	3	0	1000	1	2	12:17:23	288195	0	0	0	0	0	0	0	0	0	0	0	0	0	0	0	0	0
100212	12:17:23	99887	Trial2BackFr	N	3	0	1000	1	3	12:17:23	289728	0	0	0	0	0	0	0	0	0	0	0	0	0	0	0	0	0
100212	12:17:23	99887	Trial2BackFr	N	3	0	1000	1	4	12:17:23	291261	0	0	0	0	0	0	0	0	0	0	0	0	0	0	0	0	0
100212	12:17:23	99887	Trial2BackFr	N	3	0	1000	1	5	12:17:23	292793	0	0	0	0	0	0	0	0	0	0	0	0	0	0	0	0	0
100212	12:17:23	99887	Trial2BackFr	N	3	0	1000	1	6	12:17:23	294326	0	0	0	0	0	0	0	0	0	0	0	0	0	0	0	0	0
100212	12:17:23	99887	Trial2BackFr	N	3	0	1000	1	7	12:17:23	295859	0	0	0	0	0	0	0	0	0	0	0	0	0	0	0	0	0
100212	12:17:23	99887	Trial2BackFr	N	3	0	1000	1	8	12:17:23	297392	0	0	0	0	0	0	0	0	0	0	0	0	0	0	0	0	0
100212	12:17:23	99887	Trial2BackFr	Y	3	57	480	1	9	12:17:23	298408	0	0	0	0	0	0	0	0	0	0	0	0	0	0	0	0	0
100212	12:17:23	99887	Trial2BackFr	N	3	0	1000	1	10	12:17:23	300424	0	0	0	0	0	0	0	0	0	0	0	0	0	0	0	0	0
100212	12:17:23	99887	Trial2BackFr	N	3	0	1000	1	11	12:17:23	301957	0	0	0	0	0	0	0	0	0	0	0	0	0	0	0	0	0
100212	12:17:23	99887	Trial2BackFr	N	3	0	1000	1	12	12:17:23	303490	0	0	0	0	0	0	0	0	0	0	0	0	0	0	0	0	0
100212	12:17:23	99887	Trial2BackFr	Y	3	57	854	1	13	12:17:23	304889	0	0	0	0	0	0	0	0	0	0	0	0	0	0	0	0	0
100212	12:17:23	99887	Trial2BackFr	N	3	0	1000	1	14	12:17:23	306522	0	0	0	0	0	0	0	0	0	0	0	0	0	0	0	0	0
100212	12:17:23	99887	Trial2BackFr	N	3	0	1000	1	15	12:17:23	308054	0	0	0	0	0	0	0	0	0	0	0	0	0	0	0	0	0
100212	12:17:23	99887	Trial2BackFr	N	3	0	1000	1	16	12:17:23	309587	0	0	0	0	0	0	0	0	0	0	0	0	0	0	0	0	0
100212	12:17:23	99887	Trial2BackFr	N	3	0	1000	1	17	12:17:23	311120	0	0	0	0	0	0	0	0	0	0	0	0	0	0	0	0	0
100212	12:17:23	99887	Trial2BackFr	N	3	0	1000	1	18	12:17:23	312653	0	0	0	0	0	0	0	0	0	0	0	0	0	0	0	0	0
100212	12:17:23	99887	Trial2BackFr	Y	3	57	678	1	19	12:17:23	313869	0	0	0	0	0	0	0	0	0	0	0	0	0	0	0	0	0
100212	12:17:23	99887	Trial2BackFr	N	3	0	1000	1	20	12:17:23	315685	0	0	0	0	0	0	0	0	0	0	0	0	0	0	0	0	0
100212	12:17:23	99887	Trial2BackFr	N	3	0	1000	1	21	12:17:23	317218	0	0	0	0	0	0	0	0	0	0	0	0	0	0	0	0	0
100212	12:17:23	99887	Trial2BackFr	N	3	0	1000	1	22	12:17:23	318751	0	0	0	0	0	0	0	0	0	0	0	0	0	0	0	0	0
100212	12:17:23	99887	Trial2BackFr	N	3	0	1000	1	23	12:17:23	320283	0	0	0	0	0	0	0	0	0	0	0	0	0	0	0	0	0
100212	12:17:23	99887	Trial2BackFr	Y	3	57	659	1	24	12:17:23	321483	0	0	0	0	0	0	0	0	0	0	0	0	0	0	0	0	0
100212	12:17:23	99887	Trial2BackFr	N	3	0	1000	1	25	12:17:23	323316	0	0	0	0	0	0	0	0	0	0	0	0	0	0	0	0	0
100212	12:17:23	99887	Trial2BackFr	N	3	0	1000	1	26	12:17:23	324848	0	0	0	0	0	0	0	0	0	0	0	0	0	0	0	0	0
100212	12:17:23	99887	Trial2BackFr	N	3	0	1000	1	27	12:17:23	326381	0	0	0	0	0	0	0	0	0	0	0	0	0	0	0	0	0
100212	12:17:23	99887	Trial2BackFr	N	3	0	1000	1	28	12:17:23	327914	0	0	0	0	0	0	0	0	0	0	0	0	0	0	0	0	0
100212	12:17:23	99887	Trial2BackFr	N	3	0	1000	1	29	12:17:23	329447	0	0	0	0	0	0	0	0	0	0	0	0	0	0	0	0	0
100212	12:17:23	99887	Trial2BackFr	N	3	0	1000	1	30	12:17:23	330979	0	0	0	0	0	0	0	0	0	0	0	0	0	0	0	0	0
100212	12:17:23	99887	Trial2BackFr	Y	3	57	871	1	31	12:17:23	332395	0	0	0	0	0	0	0	0	0	0	0	0	0	0	0	0	0
100212	12:17:23	99887	Trial2BackFr	N	3	0	1000	1	32	12:17:23	334012	0	0	0	0	0	0	0	0	0	0	0	0	0	0	0	0	0
100212	12:17:23	99887	Trial2BackFr	N	3	0	1000	1	33	12:17:23	335544	0	0	0	0	0	0	0	0	0	0	0	0	0	0	0	0	0
100212	12:17:23	99887	Trial2BackFr	N	3	0	1000	1	34	12:17:23	337077	0	0	0	0	0	0	0	0	0	0	0	0	0	0	0	0	0
100212	12:17:23	99887	Trial2BackFr	Y	3	0	1000	0	34	12:17:23	338610	0	0	0	0	0	0	0	0	0	0	0	0	0	0	0	0	0
100212	12:17:23	99887	Trial2BackFr	N	3	0	1000	1	35	12:17:23	340142	0	0	0	0	0	0	0	0	0	0	0	0	0	0	0	0	0
100212	12:17:23	99887	Trial2BackFr	N	3	0	1000	1	36	12:17:23	341675	0	0	0	0	0	0	0	0	0	0	0	0	0	0	0	0	0
100212	12:17:23	99887	Trial2BackFr	N	3	0	1000	1	37	12:17:23	343208	0	0	0	0	0	0	0	0	0	0	0	0	0	0	0	0	0
100212	12:17:23	99887	Trial2BackFr	N	3	0	1000	1	38	12:17:23	344741	0	0	0	0	0	0	0	0	0	0	0	0	0	0	0	0	0
100212	12:17:23	99887	Trial2BackFr	N	3	0	1000	1	39	12:17:23	346274	0	0	0	0	0	0	0	0	0	0	0	0	0	0	0	0	0
100212	12:17:23	99887	Trial2BackFr	N	3	0	1000	1	40	12:17:23	347807	0	0	0	0	0	0	0	0	0	0	0	0	0	0	0	0	0
100212	12:17:23	99887	Trial2BackFr	Y	3	0	1000	0	40	12:17:23	349339	0	0	0	0	0	0	0	0	0	0	0	0	0	0	0	0	0
100212	12:17:23	99887	Trial2BackFr	N	3	0	1000	1	41	12:17:23	350872	0	0	0	0	0	0	0	0	0	0	0	0	0	0	0	0	0
100212	12:17:23	99887	Trial2BackFr	N	3	0	1000	1	42	12:17:23	352405	0	0	0	0	0	0	0	0	0	0	0	0	0	0	0	0	0
100212	12:17:23	99887	Trial2BackFr	N	3	0	1000	1	43	12:17:23	353937	0	0	0	0	0	0	0	0	0	0	0	0	0	0	0	0	0
100212	12:17:23	99887	Trial2BackFr	N	3	0	1000	1	44	12:17:23	355470	0	0	0	0	0	0	0	0	0	0	0	0	0	0	0	0	0
100212	12:17:23	99887	Trial2BackFr	Y	3	0	1000	0	44	12:17:23	357003	0	0	0	0	0	0	0	0	0	0	0	0	0	0	0	0	0
100212	12:17:23	99887	Trial2BackFr	N	3	0	1000	1	45	12:17:23	358536	0	0	0	0	0	0	0	0	0	0	0	0	0	0	0	0	0
100212	12:17:23	99887	Trial2BackFr	N	3	0	1000	1	46	12:17:23	360068	0	0	0	0	0	0	0	0	0	0	0	0	0	0	0	0	0
100212	12:17:23	99887	Trial2BackFr	N	3	0	1000	1	47	12:17:23	361601	0	0	0	0	0	0	0	0	0	0	0	0	0	0	0	0	0
100212	12:17:23	99887	Trial2BackFr	N	3	0	1000	1	48	12:17:23	363134	0	0	0	0	0	0	0	0	0	0	0	0	0	0	0	0	0
100212	12:17:23	99887	Trial2BackFr	N	3	0	1000	1	49	12:17:23	364667	0	0	0	0	0	0	0	0	0	0	0	0	0	0	0	0	0
100212	12:17:23	99887	Trial2BackFr	Y	3	57	584	1	50	12:17:23	365800	0	0	0	0	0	0	0	0	0	0	0	0	0	0	0	0	0
100212	12:17:23	99887	Trial2BackFr	N	3	0	1000	1	51	12:17:23	367699	0	0	0	0	0	0	0	0	0	0	0	0	0	0	0	0	0
100212	12:17:23	99887	Trial2BackFr	N	3	0	1000	1	52	12:17:23	369232	0	0	0	0	0	0	0	0	0	0	0	0	0	0	0	0	0
100212	12:17:23	99887	Trial2BackFr	N	3	0	1000	1	53	12:17:23	370765	0	0	0	0	0	0	0	0	0	0	0	0	0	0	0	0	0
100212	12:17:23	99887	Trial2BackFr	N	3	0	1000	1	54	12:17:23	372297	0	0	0	0	0	0	0	0	0	0	0	0	0	0	0	0	0
100212	12:17:23	99887	Trial2BackFr	N	3	57	735	0	54	12:17:23	373580	0	0	0	0	0	0	0	0	0	0	0	0	0	0	0	0	0
100212	12:17:23	99887	Trial2BackFr	N	3	0	1000	1	55	12:17:23	375329	0	0	0	0	0	0	0	0	0	0	0	0	0	0	0	0	0
100212	12:17:23	99887	Trial2BackFr	Y	3	57	655	1	56	12:17:23	376529	0	0	0	0	0	0	0	0	0	0	0	0	0	0	0	0	0
100212	12:17:23	99887	Trial2BackFr	N	3	0	1000	1	57	12:17:23	378362	0	0	0	0	0	0	0	0	0	0	0	0	0	0	0	0	0
100212	12:17:23	99887	Trial2BackFr	N	3	0	1000	1	58	12:17:23	379894	0	0	0	0	0	0	0	0	0	0	0	0	0	0	0	0	0
100212	12:17:23	99887	Trial2BackFr	Y	3	57	667	1	59	12:17:23	381111	0	0	0	0	0	0	0	0	0	0	0	0	0	0	0	0	0
100212	12:17:23	99887	Trial2BackFr	N	3	0	1000	1	60	12:17:23	382927	0	0	0	0	0	0	0	0	0	0	0	0	0	0	0	0	0
100212	12:17:23	99887	Trial2BackFr	N	3	0	1000	1	61	12:17:23	384460	0	0	0	0	0	0	0	0	0	0	0	0	0	0	0	0	0
100212	12:17:23	99887	Trial2BackFr	N	3	0	1000	1	62	12:17:23	385992	0	0	0	0	0	0	0	0	0	0	0	0	0	0	0	0	0
100212	12:17:23	99887	Trial2BackFr	N	3	0	1000	1	63	12:17:23	387525	0	0	0	0	0	0	0	0	0	0	0	0	0	0	0	0	0
100212	12:17:23	99887	Trial2BackFr	N	3	0	1000	1	64	12:17:23	389058	0	0	0	0	0	0	0	0	0	0	0	0	0	0	0	0	0
100212	12:17:23	99887	Trial2BackFr	N	3	0	1000	1	65	12:17:23	390591	0	0	0	0	0	0	0	0	0	0	0	0	0	0	0	0	0
100212	12:17:23	99887	Trial2BackFr	N	3	0	1000	1	66	12:17:23	392123	0	0	0	0	0	0	0	0	0	0	0	0	0	0	0	0	0
100212	12:17:23	99887	Trial2BackFr	N	3	0	1000	1	67	12:17:23	393656	0	0	0	0	0	0	0	0	0	0	0	0	0	0	0	0	0
100212	12:17:23	99887	Trial2BackFr	N	3	0	1000	1	68	12:17:23	395189	0	0	0	0	0	0	0	0	0	0	0	0	0	0	0	0	0
100212	12:17:23	99887	Trial2BackFr	N	3	0	1000	1	69	12:17:23	396721	0	0	0	0	0	0	0	0	0	0	0	0	0	0	0	0	0
100212	12:17:23	99887	Trial2BackFr	Y	3	57	503	1	70	12:17:23	397771	0	0	0	0	0	0	0	0	0	0	0	0	0	0	0	0	0
100212	12:17:23	99887	Trial2BackFr	N	3	0	1000	1	71	12:17:23	399754	0	0	0	0	0	0	0	0	0	0	0	0	0	0	0	0	0
100212	12:17:23	99887	Trial2BackFr	N	3	0	1000	1	72	12:17:23	401287	0	0	0	0	0	0	0	0	0	0	0	0	0	0	0	0	0
100212	12:17:23	99887	Trial2BackFr	N	3	0	1000	1	73	12:17:23	402819	0	0	0	0	0	0	0	0	0	0	0	0	0	0	0	0	0
100212	12:17:23	99887	Trial2BackFr	Y	3	57	595	1	74	12:17:23	403952	0	0	0	0	0	0	0	0	0	0	0	0	0	0	0	0	0
100212	12:17:23	99887	Trial2BackFr	N	3	0	1000	1	75	12:17:23	405851	0	0	0	0	0	0	0	0	0	0	0	0	0	0	0	0	0
100212	12:17:23	99887	Trial2BackFr	N	3	0	1000	1	76	12:17:23	407384	0	0	0	0	0	0	0	0	0	0	0	0	0	0	0	0	0
100212	12:17:23	99887	Trial2BackFr	N	3	0	1000	1	77	12:17:23	408917	0	0	0	0	0	0	0	0	0	0	0	0	0	0	0	0	0
100212	12:17:23	99887	Trial2BackFr	N	3	0	1000	1	78	12:17:23	410450	0	0	0	0	0	0	0	0	0	0	0	0	0	0	0	0	0
100212	12:17:23	99887	Trial2BackFr	N	3	0	1000	1	79	12:17:23	411982	0	0	0	0	0	0	0	0	0	0	0	0	0	0	0	0	0
100212	12:17:23	99887	Trial2BackFr	Y	3	57	380	1	80	12:17:23	412899	0	0	0	0	0	0	0	0	0	0	0	0	0	0	0	0	0
100212	12:17:23	99887	Trial2BackFr	N	3	0	1000	1	81	12:17:23	415015	0	0	0	0	0	0	0	0	0	0	0	0	0	0	0	0	0
100212	12:17:23	99887	Trial2BackFr	N	3	0	1000	1	82	12:17:23	416547	0	0	0	0	0	0	0	0	0	0	0	0	0	0	0	0	0
100212	12:17:23	99887	Trial2BackFr	N	3	0	1000	1	83	12:17:23	418080	0	0	0	0	0	0	0	0	0	0	0	0	0	0	0	0	0
100212	12:17:23	99887	Trial2BackFr	N	3	0	1000	1	84	12:17:23	419613	0	0	0	0	0	0	0	0	0	0	0	0	0	0	0	0	0
100212	12:17:23	99887	Trial2BackFr	N	3	0	1000	1	85	12:17:23	421146	0	0	0	0	0	0	0	0	0	0	0	0	0	0	0	0	0
100212	12:17:23	99887	Trial2BackFr	N	3	0	1000	1	86	12:17:23	422679	0	0	0	0	0	0	0	0	0	0	0	0	0	0	0	0	0
100212	12:17:23	99887	Trial2BackFr	N	3	0	1000	1	87	12:17:23	424211	0	0	0	0	0	0	0	0	0	0	0	0	0	0	0	0	0
100212	12:17:23	99887	Trial2BackFr	N	3	0	1000	1	88	12:17:23	425744	0	0	0	0	0	0	0	0	0	0	0	0	0	0	0	0	0
100212	12:17:23	99887	Trial2BackFr	N	3	0	1000	1	89	12:17:23	427277	0	0	0	0	0	0	0	0	0	0	0	0	0	0	0	0	0
100212	12:17:23	99887	Trial2BackFr	Y	3	57	524	1	90	12:17:23	428343	0	0	0	0	0	0	0	0	0	0	0	0	0	0	0	0	0
100212	12:17:23	99887	Trial2BackFr	N	3	0	1000	1	91	12:17:23	430309	0	0	0	0	0	0	0	0	0	0	0	0	0	0	0	0	0
100212	12:17:23	99887	Trial2BackFr	N	3	0	1000	1	92	12:17:23	431842	0	0	0	0	0	0	0	0	0	0	0	0	0	0	0	0	0
100212	12:17:23	99887	Trial2BackFr	N	3	0	1000	1	93	12:17:23	433374	0	0	0	0	0	0	0	0	0	0	0	0	0	0	0	0	0
100212	12:17:23	99887	Trial2BackFr	N	3	0	1000	1	94	12:17:23	434907	0	0	0	0	0	0	0	0	0	0	0	0	0	0	0	0	0
100212	12:17:23	99887	Trial2BackFr	N	3	0	1000	1	95	12:17:23	436440	0	0	0	0	0	0	0	0	0	0	0	0	0	0	0	0	0
100212	12:17:23	99887	Trial2BackFr	N	3	0	1000	1	96	12:17:23	437973	0	0	0	0	0	0	0	0	0	0	0	0	0	0	0	0	0
100212	12:17:23	99887	Trial2BackFr	N	3	0	1000	1	97	12:17:23	439506	0	0	0	0	0	0	0	0	0	0	0	0	0	0	0	0	0
100212	12:17:23	99887	Trial2BackFr	N	3	0	1000	1	98	12:17:23	441038	0	0	0	0	0	0	0	0	0	0	0	0	0	0	0	0	0
100212	12:17:23	99887	Trial2BackFr	Y	3	57	319	1	99	12:17:23	441905	0	0	0	0	0	0	0	0	0	0	0	0	0	0	0	0	0
100212	12:17:23	99887	Trial2BackFr	N	3	0	1000	1	100	12:17:23	444070	0	0	0	0	0	0	0	0	0	0	0	0	0	0	0	0	0
100212	12:17:23	99887	Trial2BackFr	N	3	0	1000	1	101	12:17:23	445604	0	0	0	0	0	0	0	0	0	0	0	0	0	0	0	0	0
100212	12:17:23	99887	Trial2BackFr	N	3	0	1000	1	102	12:17:23	447136	0	0	0	0	0	0	0	0	0	0	0	0	0	0	0	0	0
100212	12:17:23	99887	Trial2BackFr	N	3	0	1000	1	103	12:17:23	448669	0	0	0	0	0	0	0	0	0	0	0	0	0	0	0	0	0
100212	12:17:23	99887	Trial2BackFr	Y	3	0	1000	0	103	12:17:23	450202	0	0	0	0	0	0	0	0	0	0	0	0	0	0	0	0	0
100212	12:17:23	99887	Trial2BackFr	N	3	0	1000	1	104	12:17:23	451734	0	0	0	0	0	0	0	0	0	0	0	0	0	0	0	0	0
100212	12:17:23	99887	Trial2BackFr	N	3	0	1000	1	105	12:17:23	453267	0	0	0	0	0	0	0	0	0	0	0	0	0	0	0	0	0
100212	12:17:23	99887	Trial2BackFr	N	3	0	1000	1	106	12:17:23	454800	0	0	0	0	0	0	0	0	0	0	0	0	0	0	0	0	0
100212	12:17:23	99887	Trial2BackFr	Y	3	57	846	1	107	12:17:23	456183	0	0	0	0	0	0	0	0	0	0	0	0	0	0	0	0	0
100212	12:17:23	99887	Trial2BackFr	N	3	0	1000	1	108	12:17:23	457832	0	0	0	0	0	0	0	0	0	0	0	0	0	0	0	0	0
100212	12:17:23	99887	Trial2BackFr	N	3	0	1000	1	109	12:17:23	459365	0	0	0	0	0	0	0	0	0	0	0	0	0	0	0	0	0
100212	12:17:23	99887	Trial2BackFr	N	3	0	1000	1	110	12:17:23	460898	0	0	0	0	0	0	0	0	0	0	0	0	0	0	0	0	0
100212	12:17:23	99887	Trial2BackFr	N	3	0	1000	1	111	12:17:23	462430	0	0	0	0	0	0	0	0	0	0	0	0	0	0	0	0	0
100212	12:17:23	99887	Trial2BackFr	N	3	0	1000	1	112	12:17:23	463963	0	0	0	0	0	0	0	0	0	0	0	0	0	0	0	0	0
100212	12:17:23	99887	Trial2BackFr	Y	3	0	1000	0	112	12:17:23	465496	0	0	0	0	0	0	0	0	0	0	0	0	0	0	0	0	0
100212	12:17:23	99887	Trial2BackFr	N	3	0	1000	1	113	12:17:23	467029	0	0	0	0	0	0	0	0	0	0	0	0	0	0	0	0	0
100212	12:17:23	99887	Trial2BackFr	N	3	0	1000	1	114	12:17:23	468562	0	0	0	0	0	0	0	0	0	0	0	0	0	0	0	0	0
100212	12:17:23	99887	Trial2BackFr	N	3	0	1000	1	115	12:17:23	470111	0	0	0	0	0	0	0	0	0	0	0	0	0	0	0	0	0
100212	12:17:23	99887	Trial2BackFr	Y	3	0	1000	0	115	12:17:23	471644	0	0	0	0	0	0	0	0	0	0	0	0	0	0	0	0	0
100212	12:17:23	99887	Memory1R6moFr	ScoreFr	5	Done	4285	0	115	12:17:23	498517	0	0	0	0	0	0	0	0	0	0	0	0	0	0	0	0	0
100212	12:17:23	99887	Memory2R6moFr	ScoreFr2	5	Done	4346	0	115	12:17:23	529389	0	0	0	0	0	0	0	0	0	0	0	0	0	0	0	0	0
100212	12:17:23	99887	Memory3R6moFr	ScoreFr3	5	Done	12868	0	115	12:17:23	560760	0	0	0	0	0	0	0	0	0	0	0	0	0	0	0	0	0
100212	12:17:23	99887	LoriaFrLH3	Stop	6		5353	0	115	12:17:23	619507	0	0	0	0	0	0	0	0	0	0	0	0	0	0	0	0	0
100212	12:17:23	99887	FrTrail	Trails	7	1Trails	1647	0	115	12:17:23	623404	0	0	0	0	0	0	0	0	0	0	0	0	0	0	0	0	0
100212	12:17:23	99887	Serial7Fr6mo	Serial7Fr6mo	8		1573	0	115	12:17:23	627386	0	0	0	0	0	0	0	0	0	0	0	0	0	0	0	0	0
100212	12:17:23	99887	Serial7Fr6mo	Serial7Fr6mo	8		751	0	115	12:17:23	628169	0	0	0	0	0	0	0	0	0	0	0	0	0	0	0	0	0
100212	12:17:23	99887	Serial7Fr6mo	Serial7Fr6mo	8		222	0	115	12:17:23	628419	0	0	0	0	0	0	0	0	0	0	0	0	0	0	0	0	0
100212	12:17:23	99887	Serial7Fr6mo	Serial7Fr6mo	8		207	0	115	12:17:23	628653	0	0	0	0	0	0	0	0	0	0	0	0	0	0	0	0	0
100212	12:17:23	99887	Serial7Fr6mo	Serial7Fr6mo	8		195	0	115	12:17:23	628870	0	0	0	0	0	0	0	0	0	0	0	0	0	0	0	0	0
100212	12:17:23	99887	corsiblockFrFwrd	recallseqFrFwrd	9	doneCorsiFr	2302	0	115	12:17:23	639582	0	0	0	0	0	0	0	0	0	0	0	0	0	0	0	0	0
100212	12:17:23	99887	corsiblockFrFwrd	recallseqFrFwrd	9	doneCorsiFr	13037	0	115	12:17:23	657692	0	0	0	0	0	0	0	0	0	0	0	0	0	0	0	0	0
100212	12:17:23	99887	corsiblockFrRev	recallseqFrRev	10	doneCorsiFr	5784	0	115	12:17:23	682666	0	0	0	0	0	0	0	0	0	0	0	0	0	0	0	0	0
100212	12:17:23	99887	corsiblockFrRev	recallseqFrRev	10	doneCorsiFr	1339	0	115	12:17:23	689063	0	0	0	0	0	0	0	0	0	0	0	0	0	0	0	0	0
100212	12:17:23	99887	testFr6mo	WordsFr6mo	11	1Fr6mo	2109	0	115	12:17:23	695078	0	3	0	0	0	0	0	0	0	0	0	0	0	0	0	0	0
100212	12:17:23	99887	testFr6mo	WordsFr6mo	11	2Fr6mo	1797	0	115	12:17:23	696927	0	3	3	0	0	0	0	0	0	0	0	0	0	0	0	0	0
100212	12:17:23	99887	testFr6mo	WordsFr6mo	11	3Fr6mo	663	0	115	12:17:23	697643	0	3	3	3	0	0	0	0	0	0	0	0	0	0	0	0	0
100212	12:17:23	99887	testFr6mo	WordsFr6mo	11	4Fr6mo	677	0	115	12:17:23	698377	0	3	3	3	3	0	0	0	0	0	0	0	0	0	0	0	0
100212	12:17:23	99887	testFr6mo	WordsFr6mo	11	5Fr6mo	712	0	115	12:17:23	699143	0	3	3	3	3	3	0	0	0	0	0	0	0	0	0	0	0
100212	12:17:23	99887	testFr6mo	WordsFr6mo	11	6Fr6mo	716	0	115	12:17:23	699909	0	3	3	3	3	3	3	0	0	0	0	0	0	0	0	0	0
100212	12:17:23	99887	testFr6mo	WordsFr6mo	11	1Fr6mo	2173	0	115	12:17:23	702125	0	3	3	3	3	3	3	0	0	0	0	0	0	0	0	0	0
100212	12:17:23	99887	testFr6mo	WordsFr6mo	11	2Fr6mo	547	0	115	12:17:23	702725	0	3	3	3	3	3	3	0	0	0	0	0	0	0	0	0	0
100212	12:17:23	99887	testFr6mo	WordsFr6mo	11	3Fr6mo	1119	0	115	12:17:23	703891	0	3	3	3	3	3	3	0	0	0	0	0	0	0	0	0	0
100212	12:17:23	99887	testFr6mo	WordsFr6mo	11	4Fr6mo	644	0	115	12:17:23	704591	0	3	3	3	3	3	3	0	0	0	0	0	0	0	0	0	0
100212	12:17:23	99887	testFr6mo	WordsFr6mo	11	5Fr6mo	616	0	115	12:17:23	705257	0	3	3	3	3	3	3	0	0	0	0	0	0	0	0	0	0
100212	12:17:23	99887	testFr6mo	WordsFr6mo	11	6Fr6mo	632	0	115	12:17:23	705940	0	3	3	3	3	3	3	0	0	0	0	0	0	0	0	0	0
100212	12:17:23	99887	testFr6mo	WordsFr6mo	11	DoneFr6mo	908	0	115	12:17:23	706890	0	3	3	3	3	3	3	0	0	0	0	0	0	0	0	0	0
100212	12:17:23	99887	testFr6mo	Cat1Fr6mo	11	W1Fr6mo	3427	0	115	12:17:23	710355	0	3	3	3	3	3	3	0	0	0	0	0	0	0	0	0	0
100212	12:17:23	99887	testFr6mo	Ch1Fr6mo	11	RR1Fr6mo	1261	0	115	12:17:23	711671	0	1	3	3	3	3	3	0	0	0	0	0	0	0	0	0	0
100212	12:17:23	99887	testFr6mo	Cat2Fr6mo	11	W2Fr6mo	5909	0	115	12:17:23	717635	0	1	3	3	3	3	3	0	0	0	0	0	0	0	0	0	0
100212	12:17:23	99887	testFr6mo	Ch2Fr6mo	11	RR2Fr6mo	2533	0	115	12:17:23	720218	0	1	1	3	3	3	3	0	0	0	0	0	0	0	0	0	0
100212	12:17:23	99887	testFr6mo	Cat3Fr6mo	11	W3Fr6mo	2844	0	115	12:17:23	723117	0	1	1	3	3	3	3	0	0	0	0	0	0	0	0	0	0
100212	12:17:23	99887	testFr6mo	Ch3Fr6mo	11	RR3Fr6mo	3047	0	115	12:17:23	726216	0	1	1	1	3	3	3	0	0	0	0	0	0	0	0	0	0
100212	12:17:23	99887	testFr6mo	Cat4Fr6mo	11	0	1	0	115	12:17:23	726235	0	1	1	1	3	3	3	0	0	0	0	0	0	0	0	0	0
100212	12:17:23	99887	testFr6mo	Ch4Fr6mo	11	RR4Fr6mo	85312	0	115	12:17:23	811584	0	1	1	1	1	3	3	0	0	0	0	0	0	0	0	0	0
100212	12:17:23	99887	testFr6mo	Cat5Fr6mo	11	W5Fr6mo	5253	0	115	12:17:23	816882	0	1	1	1	1	3	3	0	0	0	0	0	0	0	0	0	0
100212	12:17:23	99887	testFr6mo	Ch5Fr6mo	11	RR5Fr6mo	1322	0	115	12:17:23	818248	0	1	1	1	1	1	3	0	0	0	0	0	0	0	0	0	0
100212	12:17:23	99887	testFr6mo	Cat6Fr6mo	11	0	1	0	115	12:17:23	818268	0	1	1	1	1	1	3	0	0	0	0	0	0	0	0	0	0
100212	12:17:23	99887	testFr6mo	Ch6Fr6mo	11	RR6Fr6mo	3138	0	115	12:17:23	821430	0	1	1	1	1	1	1	0	0	0	0	0	0	0	0	0	0
100212	12:17:23	99887	testFr6mo	Cat7Fr6mo	11	W7Fr6mo	3095	0	115	12:17:23	824579	0	1	1	1	1	1	1	0	0	0	0	0	0	0	0	0	0
100212	12:17:23	99887	testFr6mo	Ch7Fr6mo	11	RR7Fr6mo	2692	0	115	12:17:23	827328	0	1	1	1	1	1	1	1	0	0	0	0	0	0	0	0	0
100212	12:17:23	99887	testFr6mo	Cat8Fr6mo	11	W8Fr6mo	63774	0	115	12:17:23	891154	0	1	1	1	1	1	1	1	0	0	0	0	0	0	0	0	0
100212	12:17:23	99887	testFr6mo	Ch8Fr6mo	11	RR8Fr6mo	1666	0	115	12:17:23	892870	0	1	1	1	1	1	1	1	1	0	0	0	0	0	0	0	0
100212	12:17:23	99887	DigitSpanFwrdFr6mo	Score1FwrdFr6mo	12	DS2	1643	0	115	12:17:23	902816	0	1	1	1	1	1	1	1	1	0	0	0	0	0	0	0	0
100212	12:17:23	99887	DigitSpanFwrdFr6mo	Gate1FwrdFr6mo	12	0	1	0	115	12:17:23	902835	0	1	1	1	1	1	1	1	1	0	0	0	0	0	0	0	0
100212	12:17:23	99887	DigitSpanFwrdFr6mo	Score11FwrdFr6mo	12	DS2	4072	0	115	12:17:23	912163	0	1	1	1	1	1	1	1	1	0	0	0	0	0	0	0	0
100212	12:17:23	99887	DigitSpanFr6mo	Score1Fr6mo	13	DS2	14292	0	115	12:17:23	934705	0	1	1	1	1	1	1	1	1	0	0	0	0	0	0	0	0
100212	12:17:23	99887	DigitSpanFr6mo	Gate1Fr6mo	13	0	1	0	115	12:17:23	934723	0	1	1	1	1	1	1	1	1	0	0	0	0	0	0	0	0
100212	12:17:23	99887	DigitSpanFr6mo	Score11Fr6mo	13	DS1	750	0	115	12:17:23	938836	0	1	1	1	1	1	1	1	1	0	0	0	0	0	0	0	0
100212	12:17:23	99887	DigitSpanFr6mo	Gate2Fr6mo	13	0	1	0	115	12:17:23	938855	0	1	1	1	1	1	1	1	1	0	2	0	0	0	0	0	0
100212	12:17:23	99887	DigitSpanFr6mo	Score2Fr6mo	13	DS2	2714	0	115	12:17:23	946167	0	1	1	1	1	1	1	1	1	0	2	0	0	0	0	0	0
100212	12:17:23	99887	DigitSpanFr6mo	Gate3Fr6mo	13	0	1	0	115	12:17:23	946185	0	1	1	1	1	1	1	1	1	0	2	0	0	0	0	0	0
100212	12:17:23	99887	DigitSpanFr6mo	Score22Fr6mo	13	DS1	978	0	115	12:17:23	951415	0	1	1	1	1	1	1	1	1	0	2	0	0	0	0	0	0
100212	12:17:23	99887	DigitSpanFr6mo	Gate4Fr6mo	13	0	1	0	115	12:17:23	951434	0	1	1	1	1	1	1	1	1	0	3	0	0	0	0	0	0
100212	12:17:23	99887	DigitSpanFr6mo	Score3Fr6mo	13	DS2	2851	0	115	12:17:23	959995	0	1	1	1	1	1	1	1	1	0	3	0	0	0	0	0	0
100212	12:17:23	99887	DigitSpanFr6mo	Gate5Fr6mo	13	0	1	0	115	12:17:23	960013	0	1	1	1	1	1	1	1	1	0	3	0	0	0	0	0	0
100212	12:17:23	99887	DigitSpanFr6mo	Score33Fr6mo	13	DS2	1167	0	115	12:17:23	967259	0	1	1	1	1	1	1	1	1	0	3	0	0	0	0	0	0
100212	12:17:23	99887	Trial	ResponseIL	14	0	159	0	115	12:17:23	1010609	0	1	1	1	1	1	1	1	1	0	3	0	0	0	0	0	0
100212	12:17:23	99887	Trial	IncongruentLeft	14	0	984	0	115	12:17:23	1011612	0	1	1	1	1	1	1	1	1	0	3	0	0	0	0	0	0
100212	12:17:23	99887	Trial	ResponseCR	14	0	159	0	115	12:17:23	1012325	0	1	1	1	1	1	1	1	1	0	3	0	0	0	0	0	0
100212	12:17:23	99887	Trial	CongruentRight	14	0	984	0	115	12:17:23	1013328	0	1	1	1	1	1	1	1	1	0	3	0	0	0	0	0	0
100212	12:17:23	99887	Trial	ResponseIR	14	0	159	0	115	12:17:23	1014041	0	1	1	1	1	1	1	1	1	0	3	0	0	0	0	0	0
100212	12:17:23	99887	Trial	IncongruentRight	14	0	984	0	115	12:17:23	1015043	0	1	1	1	1	1	1	1	1	0	3	0	0	0	0	0	0
100212	12:17:23	99887	Trial	ResponseCL	14	0	159	0	115	12:17:23	1015741	0	1	1	1	1	1	1	1	1	0	3	0	0	0	0	0	0
100212	12:17:23	99887	Trial	CongruentLeft	14	0	984	0	115	12:17:23	1016744	0	1	1	1	1	1	1	1	1	0	3	0	0	0	0	0	0
100212	12:17:23	99887	Trial	ResponseCR	14	0	159	0	115	12:17:23	1017440	0	1	1	1	1	1	1	1	1	0	3	0	0	0	0	0	0
100212	12:17:23	99887	Trial	CongruentRight	14	0	984	0	115	12:17:23	1018443	0	1	1	1	1	1	1	1	1	0	3	0	0	0	0	0	0
100212	12:17:23	99887	Trial	ResponseIR	14	0	159	0	115	12:17:23	1019140	0	1	1	1	1	1	1	1	1	0	3	0	0	0	0	0	0
100212	12:17:23	99887	Trial	IncongruentRight	14	0	984	0	115	12:17:23	1020141	0	1	1	1	1	1	1	1	1	0	3	0	0	0	0	0	0
100212	12:17:23	99887	Trial	ResponseCL	14	0	159	0	115	12:17:23	1020839	0	1	1	1	1	1	1	1	1	0	3	0	0	0	0	0	0
100212	12:17:23	99887	Trial	CongruentLeft	14	0	984	0	115	12:17:23	1021842	0	1	1	1	1	1	1	1	1	0	3	0	0	0	0	0	0
100212	12:17:23	99887	Trial	ResponseIL	14	0	159	0	115	12:17:23	1022555	0	1	1	1	1	1	1	1	1	0	3	0	0	0	0	0	0
100212	12:17:23	99887	Trial	IncongruentLeft	14	0	984	0	115	12:17:23	1023558	0	1	1	1	1	1	1	1	1	0	3	0	0	0	0	0	0
100212	12:17:23	99887	Trial	ResponseIL	14	0	159	0	115	12:17:23	1024254	0	1	1	1	1	1	1	1	1	0	3	0	0	0	0	0	0
100212	12:17:23	99887	Trial	IncongruentLeft	14	0	984	0	115	12:17:23	1025256	0	1	1	1	1	1	1	1	1	0	3	0	0	0	0	0	0
100212	12:17:23	99887	Trial	ResponseCR	14	0	159	0	115	12:17:23	1025970	0	1	1	1	1	1	1	1	1	0	3	0	0	0	0	0	0
100212	12:17:23	99887	Trial	CongruentRight	14	0	984	0	115	12:17:23	1026973	0	1	1	1	1	1	1	1	1	0	3	0	0	0	0	0	0
100212	12:17:23	99887	Trial	ResponseIR	14	0	159	0	115	12:17:23	1027670	0	1	1	1	1	1	1	1	1	0	3	0	0	0	0	0	0
100212	12:17:23	99887	Trial	IncongruentRight	14	0	984	0	115	12:17:23	1028672	0	1	1	1	1	1	1	1	1	0	3	0	0	0	0	0	0
100212	12:17:23	99887	Trial	ResponseCL	14	0	159	0	115	12:17:23	1029369	0	1	1	1	1	1	1	1	1	0	3	0	0	0	0	0	0
100212	12:17:23	99887	Trial	CongruentLeft	14	0	984	0	115	12:17:23	1030371	0	1	1	1	1	1	1	1	1	0	3	0	0	0	0	0	0
100212	12:17:23	99887	Trial	ResponseCR	14	0	159	0	115	12:17:23	1031068	0	1	1	1	1	1	1	1	1	0	3	0	0	0	0	0	0
100212	12:17:23	99887	Trial	CongruentRight	14	0	984	0	115	12:17:23	1032070	0	1	1	1	1	1	1	1	1	0	3	0	0	0	0	0	0
100212	12:17:23	99887	Trial	ResponseIL	14	0	159	0	115	12:17:23	1032768	0	1	1	1	1	1	1	1	1	0	3	0	0	0	0	0	0
100212	12:17:23	99887	Trial	IncongruentLeft	14	0	984	0	115	12:17:23	1033770	0	1	1	1	1	1	1	1	1	0	3	0	0	0	0	0	0
100212	12:17:23	99887	Trial	ResponseIR	14	0	159	0	115	12:17:23	1034467	0	1	1	1	1	1	1	1	1	0	3	0	0	0	0	0	0
100212	12:17:23	99887	Trial	IncongruentRight	14	0	984	0	115	12:17:23	1035470	0	1	1	1	1	1	1	1	1	0	3	0	0	0	0	0	0
100212	12:17:23	99887	Trial	ResponseCR	14	0	159	0	115	12:17:23	1036167	0	1	1	1	1	1	1	1	1	0	3	0	0	0	0	0	0
100212	12:17:23	99887	Trial	CongruentRight	14	0	984	0	115	12:17:23	1037168	0	1	1	1	1	1	1	1	1	0	3	0	0	0	0	0	0
100212	12:17:23	99887	Trial	ResponseCL	14	0	159	0	115	12:17:23	1037866	0	1	1	1	1	1	1	1	1	0	3	0	0	0	0	0	0
100212	12:17:23	99887	Trial	CongruentLeft	14	0	984	0	115	12:17:23	1038868	0	1	1	1	1	1	1	1	1	0	3	0	0	0	0	0	0
100212	12:17:23	99887	Trial	ResponseCR	14	0	159	0	115	12:17:23	1039565	0	1	1	1	1	1	1	1	1	0	3	0	0	0	0	0	0
100212	12:17:23	99887	Trial	CongruentRight	14	0	984	0	115	12:17:23	1040568	0	1	1	1	1	1	1	1	1	0	3	0	0	0	0	0	0
100212	12:17:23	99887	Trial	ResponseIR	14	0	159	0	115	12:17:23	1041265	0	1	1	1	1	1	1	1	1	0	3	0	0	0	0	0	0
100212	12:17:23	99887	Trial	IncongruentRight	14	0	984	0	115	12:17:23	1042267	0	1	1	1	1	1	1	1	1	0	3	0	0	0	0	0	0
100212	12:17:23	99887	Trial	ResponseIL	14	0	159	0	115	12:17:23	1042964	0	1	1	1	1	1	1	1	1	0	3	0	0	0	0	0	0
100212	12:17:23	99887	Trial	IncongruentLeft	14	0	984	0	115	12:17:23	1043966	0	1	1	1	1	1	1	1	1	0	3	0	0	0	0	0	0
100212	12:17:23	99887	Trial	ResponseIL	14	0	159	0	115	12:17:23	1044663	0	1	1	1	1	1	1	1	1	0	3	0	0	0	0	0	0
100212	12:17:23	99887	Trial	IncongruentLeft	14	0	984	0	115	12:17:23	1045665	0	1	1	1	1	1	1	1	1	0	3	0	0	0	0	0	0
100212	12:17:23	99887	Trial	ResponseCL	14	0	159	0	115	12:17:23	1046363	0	1	1	1	1	1	1	1	1	0	3	0	0	0	0	0	0
100212	12:17:23	99887	Trial	CongruentLeft	14	0	984	0	115	12:17:23	1047366	0	1	1	1	1	1	1	1	1	0	3	0	0	0	0	0	0
100212	12:17:23	99887	Trial	ResponseCR	14	0	159	0	115	12:17:23	1048062	0	1	1	1	1	1	1	1	1	0	3	0	0	0	0	0	0
100212	12:17:23	99887	Trial	CongruentRight	14	0	984	0	115	12:17:23	1049064	0	1	1	1	1	1	1	1	1	0	3	0	0	0	0	0	0
100212	12:17:23	99887	Trial	ResponseIL	14	0	159	0	115	12:17:23	1049762	0	1	1	1	1	1	1	1	1	0	3	0	0	0	0	0	0
100212	12:17:23	99887	Trial	IncongruentLeft	14	0	984	0	115	12:17:23	1050764	0	1	1	1	1	1	1	1	1	0	3	0	0	0	0	0	0
100212	12:17:23	99887	Trial	ResponseIR	14	0	159	0	115	12:17:23	1051461	0	1	1	1	1	1	1	1	1	0	3	0	0	0	0	0	0
100212	12:17:23	99887	Trial	IncongruentRight	14	0	984	0	115	12:17:23	1052464	0	1	1	1	1	1	1	1	1	0	3	0	0	0	0	0	0
100212	12:17:23	99887	Trial	ResponseCR	14	0	159	0	115	12:17:23	1053177	0	1	1	1	1	1	1	1	1	0	3	0	0	0	0	0	0
100212	12:17:23	99887	Trial	CongruentRight	14	0	984	0	115	12:17:23	1054180	0	1	1	1	1	1	1	1	1	0	3	0	0	0	0	0	0
100212	12:17:23	99887	Trial	ResponseCL	14	0	159	0	115	12:17:23	1054876	0	1	1	1	1	1	1	1	1	0	3	0	0	0	0	0	0
100212	12:17:23	99887	Trial	CongruentLeft	14	0	984	0	115	12:17:23	1055879	0	1	1	1	1	1	1	1	1	0	3	0	0	0	0	0	0
100212	12:17:23	99887	Trial	ResponseIR	14	0	159	0	115	12:17:23	1056576	0	1	1	1	1	1	1	1	1	0	3	0	0	0	0	0	0
100212	12:17:23	99887	Trial	IncongruentRight	14	0	984	0	115	12:17:23	1057577	0	1	1	1	1	1	1	1	1	0	3	0	0	0	0	0	0
100212	12:17:23	99887	Trial	ResponseIL	14	0	159	0	115	12:17:23	1058275	0	1	1	1	1	1	1	1	1	0	3	0	0	0	0	0	0
100212	12:17:23	99887	Trial	IncongruentLeft	14	0	984	0	115	12:17:23	1059277	0	1	1	1	1	1	1	1	1	0	3	0	0	0	0	0	0
100212	12:17:23	99887	Trial	ResponseIR	14	0	159	0	115	12:17:23	1059991	0	1	1	1	1	1	1	1	1	0	3	0	0	0	0	0	0
100212	12:17:23	99887	Trial	IncongruentRight	14	0	984	0	115	12:17:23	1060994	0	1	1	1	1	1	1	1	1	0	3	0	0	0	0	0	0
100212	12:17:23	99887	Trial	ResponseCR	14	0	159	0	115	12:17:23	1061690	0	1	1	1	1	1	1	1	1	0	3	0	0	0	0	0	0
100212	12:17:23	99887	Trial	CongruentRight	14	0	984	0	115	12:17:23	1062693	0	1	1	1	1	1	1	1	1	0	3	0	0	0	0	0	0
100212	12:17:23	99887	Trial	ResponseIL	14	0	159	0	115	12:17:23	1063406	0	1	1	1	1	1	1	1	1	0	3	0	0	0	0	0	0
100212	12:17:23	99887	Trial	IncongruentLeft	14	0	984	0	115	12:17:23	1064408	0	1	1	1	1	1	1	1	1	0	3	0	0	0	0	0	0
100212	12:17:23	99887	Trial	ResponseCL	14	0	159	0	115	12:17:23	1065123	0	1	1	1	1	1	1	1	1	0	3	0	0	0	0	0	0
100212	12:17:23	99887	Trial	CongruentLeft	14	0	984	0	115	12:17:23	1066125	0	1	1	1	1	1	1	1	1	0	3	0	0	0	0	0	0
100212	12:17:23	99887	Trial	ResponseCR	14	0	159	0	115	12:17:23	1066839	0	1	1	1	1	1	1	1	1	0	3	0	0	0	0	0	0
100212	12:17:23	99887	Trial	CongruentRight	14	0	984	0	115	12:17:23	1067841	0	1	1	1	1	1	1	1	1	0	3	0	0	0	0	0	0
100212	12:17:23	99887	Trial	ResponseIL	14	0	159	0	115	12:17:23	1068538	0	1	1	1	1	1	1	1	1	0	3	0	0	0	0	0	0
100212	12:17:23	99887	Trial	IncongruentLeft	14	0	984	0	115	12:17:23	1069541	0	1	1	1	1	1	1	1	1	0	3	0	0	0	0	0	0
100212	12:17:23	99887	Trial	ResponseIR	14	0	159	0	115	12:17:23	1070237	0	1	1	1	1	1	1	1	1	0	3	0	0	0	0	0	0
100212	12:17:23	99887	Trial	IncongruentRight	14	0	984	0	115	12:17:23	1071240	0	1	1	1	1	1	1	1	1	0	3	0	0	0	0	0	0
100212	12:17:23	99887	Trial	ResponseIR	14	0	159	0	115	12:17:23	1071954	0	1	1	1	1	1	1	1	1	0	3	0	0	0	0	0	0
100212	12:17:23	99887	Trial	IncongruentRight	14	0	984	0	115	12:17:23	1072955	0	1	1	1	1	1	1	1	1	0	3	0	0	0	0	0	0
100212	12:17:23	99887	Trial	ResponseCL	14	0	159	0	115	12:17:23	1073653	0	1	1	1	1	1	1	1	1	0	3	0	0	0	0	0	0
100212	12:17:23	99887	Trial	CongruentLeft	14	0	984	0	115	12:17:23	1074654	0	1	1	1	1	1	1	1	1	0	3	0	0	0	0	0	0
100212	12:17:23	99887	Trial	ResponseIL	14	0	159	0	115	12:17:23	1075352	0	1	1	1	1	1	1	1	1	0	3	0	0	0	0	0	0
100212	12:17:23	99887	Trial	IncongruentLeft	14	0	984	0	115	12:17:23	1076355	0	1	1	1	1	1	1	1	1	0	3	0	0	0	0	0	0
100212	12:17:23	99887	Trial	ResponseCR	14	0	159	0	115	12:17:23	1077051	0	1	1	1	1	1	1	1	1	0	3	0	0	0	0	0	0
100212	12:17:23	99887	Trial	CongruentRight	14	0	984	0	115	12:17:23	1078053	0	1	1	1	1	1	1	1	1	0	3	0	0	0	0	0	0
100212	12:17:23	99887	Trial	ResponseCL	14	0	159	0	115	12:17:23	1078751	0	1	1	1	1	1	1	1	1	0	3	0	0	0	0	0	0
100212	12:17:23	99887	Trial	CongruentLeft	14	0	984	0	115	12:17:23	1079754	0	1	1	1	1	1	1	1	1	0	3	0	0	0	0	0	0
100212	12:17:23	99887	Trial	ResponseIR	14	0	159	0	115	12:17:23	1080450	0	1	1	1	1	1	1	1	1	0	3	0	0	0	0	0	0
100212	12:17:23	99887	Trial	IncongruentRight	14	0	984	0	115	12:17:23	1081453	0	1	1	1	1	1	1	1	1	0	3	0	0	0	0	0	0
100212	12:17:23	99887	Trial	ResponseCR	14	0	159	0	115	12:17:23	1082150	0	1	1	1	1	1	1	1	1	0	3	0	0	0	0	0	0
100212	12:17:23	99887	Trial	CongruentRight	14	0	984	0	115	12:17:23	1083151	0	1	1	1	1	1	1	1	1	0	3	0	0	0	0	0	0
100212	12:17:23	99887	Trial	ResponseIL	14	0	159	0	115	12:17:23	1083866	0	1	1	1	1	1	1	1	1	0	3	0	0	0	0	0	0
100212	12:17:23	99887	Trial	IncongruentLeft	14	0	984	0	115	12:17:23	1084868	0	1	1	1	1	1	1	1	1	0	3	0	0	0	0	0	0
100212	12:17:23	99887	Trial	ResponseCL	14	0	159	0	115	12:17:23	1085565	0	1	1	1	1	1	1	1	1	0	3	0	0	0	0	0	0
100212	12:17:23	99887	Trial	CongruentLeft	14	0	984	0	115	12:17:23	1086567	0	1	1	1	1	1	1	1	1	0	3	0	0	0	0	0	0
100212	12:17:23	99887	Trial	ResponseIL	14	0	159	0	115	12:17:23	1087264	0	1	1	1	1	1	1	1	1	0	3	0	0	0	0	0	0
100212	12:17:23	99887	Trial	IncongruentLeft	14	0	984	0	115	12:17:23	1088266	0	1	1	1	1	1	1	1	1	0	3	0	0	0	0	0	0
100212	12:17:23	99887	Trial	ResponseIR	14	0	159	0	115	12:17:23	1088964	0	1	1	1	1	1	1	1	1	0	3	0	0	0	0	0	0
100212	12:17:23	99887	Trial	IncongruentRight	14	0	984	0	115	12:17:23	1089967	0	1	1	1	1	1	1	1	1	0	3	0	0	0	0	0	0
100212	12:17:23	99887	Trial	ResponseCR	14	0	159	0	115	12:17:23	1090680	0	1	1	1	1	1	1	1	1	0	3	0	0	0	0	0	0
100212	12:17:23	99887	Trial	CongruentRight	14	0	984	0	115	12:17:23	1091683	0	1	1	1	1	1	1	1	1	0	3	0	0	0	0	0	0
100212	12:17:23	99887	Trial	ResponseCL	14	0	159	0	115	12:17:23	1092379	0	1	1	1	1	1	1	1	1	0	3	0	0	0	0	0	0
100212	12:17:23	99887	Trial	CongruentLeft	14	0	984	0	115	12:17:23	1093381	0	1	1	1	1	1	1	1	1	0	3	0	0	0	0	0	0
100212	12:17:23	99887	Trial	ResponseCL	14	0	159	0	115	12:17:23	1094078	0	1	1	1	1	1	1	1	1	0	3	0	0	0	0	0	0
100212	12:17:23	99887	Trial	CongruentLeft	14	0	984	0	115	12:17:23	1095081	0	1	1	1	1	1	1	1	1	0	3	0	0	0	0	0	0
100212	12:17:23	99887	Trial	ResponseIR	14	0	159	0	115	12:17:23	1095778	0	1	1	1	1	1	1	1	1	0	3	0	0	0	0	0	0
100212	12:17:23	99887	Trial	IncongruentRight	14	0	984	0	115	12:17:23	1096781	0	1	1	1	1	1	1	1	1	0	3	0	0	0	0	0	0
100212	12:17:23	99887	Trial	ResponseIL	14	0	159	0	115	12:17:23	1097477	0	1	1	1	1	1	1	1	1	0	3	0	0	0	0	0	0
100212	12:17:23	99887	Trial	IncongruentLeft	14	0	984	0	115	12:17:23	1098479	0	1	1	1	1	1	1	1	1	0	3	0	0	0	0	0	0
100212	12:17:23	99887	Trial	ResponseIR	14	0	159	0	115	12:17:23	1099177	0	1	1	1	1	1	1	1	1	0	3	0	0	0	0	0	0
100212	12:17:23	99887	Trial	IncongruentRight	14	0	984	0	115	12:17:23	1100179	0	1	1	1	1	1	1	1	1	0	3	0	0	0	0	0	0
100212	12:17:23	99887	Trial	ResponseCR	14	0	159	0	115	12:17:23	1100876	0	1	1	1	1	1	1	1	1	0	3	0	0	0	0	0	0
100212	12:17:23	99887	Trial	CongruentRight	14	0	984	0	115	12:17:23	1101879	0	1	1	1	1	1	1	1	1	0	3	0	0	0	0	0	0
100212	12:17:23	99887	Trial	ResponseCR	14	0	159	0	115	12:17:23	1102575	0	1	1	1	1	1	1	1	1	0	3	0	0	0	0	0	0
100212	12:17:23	99887	Trial	CongruentRight	14	0	984	0	115	12:17:23	1103577	0	1	1	1	1	1	1	1	1	0	3	0	0	0	0	0	0
100212	12:17:23	99887	Trial	ResponseIL	14	0	159	0	115	12:17:23	1104274	0	1	1	1	1	1	1	1	1	0	3	0	0	0	0	0	0
100212	12:17:23	99887	Trial	IncongruentLeft	14	0	984	0	115	12:17:23	1105277	0	1	1	1	1	1	1	1	1	0	3	0	0	0	0	0	0
100212	12:17:23	99887	Trial	ResponseCL	14	0	159	0	115	12:17:23	1105974	0	1	1	1	1	1	1	1	1	0	3	0	0	0	0	0	0
100212	12:17:23	99887	Trial	CongruentLeft	14	0	984	0	115	12:17:23	1106977	0	1	1	1	1	1	1	1	1	0	3	0	0	0	0	0	0
100212	12:17:23	99887	Trial	ResponseCR	14	0	159	0	115	12:17:23	1107673	0	1	1	1	1	1	1	1	1	0	3	0	0	0	0	0	0
100212	12:17:23	99887	Trial	CongruentRight	14	0	984	0	115	12:17:23	1108676	0	1	1	1	1	1	1	1	1	0	3	0	0	0	0	0	0
100212	12:17:23	99887	Trial	ResponseCL	14	0	159	0	115	12:17:23	1109373	0	1	1	1	1	1	1	1	1	0	3	0	0	0	0	0	0
100212	12:17:23	99887	Trial	CongruentLeft	14	0	984	0	115	12:17:23	1110375	0	1	1	1	1	1	1	1	1	0	3	0	0	0	0	0	0
100212	12:17:23	99887	Trial	ResponseIR	14	0	159	0	115	12:17:23	1111072	0	1	1	1	1	1	1	1	1	0	3	0	0	0	0	0	0
100212	12:17:23	99887	Trial	IncongruentRight	14	0	984	0	115	12:17:23	1112074	0	1	1	1	1	1	1	1	1	0	3	0	0	0	0	0	0
100212	12:17:23	99887	Trial	ResponseCR	14	0	159	0	115	12:17:23	1112772	0	1	1	1	1	1	1	1	1	0	3	0	0	0	0	0	0
100212	12:17:23	99887	Trial	CongruentRight	14	0	984	0	115	12:17:23	1113773	0	1	1	1	1	1	1	1	1	0	3	0	0	0	0	0	0
100212	12:17:23	99887	Trial	ResponseCL	14	0	159	0	115	12:17:23	1114471	0	1	1	1	1	1	1	1	1	0	3	0	0	0	0	0	0
100212	12:17:23	99887	Trial	CongruentLeft	14	0	984	0	115	12:17:23	1115474	0	1	1	1	1	1	1	1	1	0	3	0	0	0	0	0	0
100212	12:17:23	99887	Trial	ResponseIL	14	0	159	0	115	12:17:23	1116170	0	1	1	1	1	1	1	1	1	0	3	0	0	0	0	0	0
100212	12:17:23	99887	Trial	IncongruentLeft	14	0	984	0	115	12:17:23	1117172	0	1	1	1	1	1	1	1	1	0	3	0	0	0	0	0	0
100212	12:17:23	99887	Trial	ResponseIL	14	0	159	0	115	12:17:23	1117886	0	1	1	1	1	1	1	1	1	0	3	0	0	0	0	0	0
100212	12:17:23	99887	Trial	IncongruentLeft	14	0	984	0	115	12:17:23	1118888	0	1	1	1	1	1	1	1	1	0	3	0	0	0	0	0	0
100212	12:17:23	99887	Trial	ResponseCR	14	0	159	0	115	12:17:23	1119586	0	1	1	1	1	1	1	1	1	0	3	0	0	0	0	0	0
100212	12:17:23	99887	Trial	CongruentRight	14	0	984	0	115	12:17:23	1120587	0	1	1	1	1	1	1	1	1	0	3	0	0	0	0	0	0
100212	12:17:23	99887	Trial	ResponseIR	14	0	159	0	115	12:17:23	1121285	0	1	1	1	1	1	1	1	1	0	3	0	0	0	0	0	0
100212	12:17:23	99887	Trial	IncongruentRight	14	0	984	0	115	12:17:23	1122287	0	1	1	1	1	1	1	1	1	0	3	0	0	0	0	0	0
100212	12:17:23	99887	Trial	ResponseCL	14	0	159	0	115	12:17:23	1122984	0	1	1	1	1	1	1	1	1	0	3	0	0	0	0	0	0
100212	12:17:23	99887	Trial	CongruentLeft	14	0	984	0	115	12:17:23	1123987	0	1	1	1	1	1	1	1	1	0	3	0	0	0	0	0	0
100212	12:17:23	99887	Trial	ResponseIR	14	0	159	0	115	12:17:23	1124700	0	1	1	1	1	1	1	1	1	0	3	0	0	0	0	0	0
100212	12:17:23	99887	Trial	IncongruentRight	14	0	984	0	115	12:17:23	1125703	0	1	1	1	1	1	1	1	1	0	3	0	0	0	0	0	0
100212	12:17:23	99887	Trial	ResponseCR	14	0	159	0	115	12:17:23	1126400	0	1	1	1	1	1	1	1	1	0	3	0	0	0	0	0	0
100212	12:17:23	99887	Trial	CongruentRight	14	0	984	0	115	12:17:23	1127402	0	1	1	1	1	1	1	1	1	0	3	0	0	0	0	0	0
100212	12:17:23	99887	Trial	ResponseIL	14	0	159	0	115	12:17:23	1128099	0	1	1	1	1	1	1	1	1	0	3	0	0	0	0	0	0
100212	12:17:23	99887	Trial	IncongruentLeft	14	0	984	0	115	12:17:23	1129101	0	1	1	1	1	1	1	1	1	0	3	0	0	0	0	0	0
100212	12:17:23	99887	Trial	ResponseCL	14	0	159	0	115	12:17:23	1129799	0	1	1	1	1	1	1	1	1	0	3	0	0	0	0	0	0
100212	12:17:23	99887	Trial	CongruentLeft	14	0	984	0	115	12:17:23	1130800	0	1	1	1	1	1	1	1	1	0	3	0	0	0	0	0	0
100212	12:17:23	99887	Trial	ResponseCR	14	0	159	0	115	12:17:23	1131498	0	1	1	1	1	1	1	1	1	0	3	0	0	0	0	0	0
100212	12:17:23	99887	Trial	CongruentRight	14	0	984	0	115	12:17:23	1132501	0	1	1	1	1	1	1	1	1	0	3	0	0	0	0	0	0
100212	12:17:23	99887	Trial	ResponseIL	14	0	159	0	115	12:17:23	1133214	0	1	1	1	1	1	1	1	1	0	3	0	0	0	0	0	0
100212	12:17:23	99887	Trial	IncongruentLeft	14	0	984	0	115	12:17:23	1134217	0	1	1	1	1	1	1	1	1	0	3	0	0	0	0	0	0
100212	12:17:23	99887	Trial	ResponseCR	14	0	159	0	115	12:17:23	1134914	0	1	1	1	1	1	1	1	1	0	3	0	0	0	0	0	0
100212	12:17:23	99887	Trial	CongruentRight	14	0	984	0	115	12:17:23	1135915	0	1	1	1	1	1	1	1	1	0	3	0	0	0	0	0	0
100212	12:17:23	99887	Trial	ResponseCR	14	0	159	0	115	12:17:23	1136613	0	1	1	1	1	1	1	1	1	0	3	0	0	0	0	0	0
100212	12:17:23	99887	Trial	CongruentRight	14	0	984	0	115	12:17:23	1137616	0	1	1	1	1	1	1	1	1	0	3	0	0	0	0	0	0
100212	12:17:23	99887	Trial	ResponseIR	14	0	159	0	115	12:17:23	1138312	0	1	1	1	1	1	1	1	1	0	3	0	0	0	0	0	0
100212	12:17:23	99887	Trial	IncongruentRight	14	0	984	0	115	12:17:23	1139315	0	1	1	1	1	1	1	1	1	0	3	0	0	0	0	0	0
100212	12:17:23	99887	Trial	ResponseCL	14	0	159	0	115	12:17:23	1140012	0	1	1	1	1	1	1	1	1	0	3	0	0	0	0	0	0
100212	12:17:23	99887	Trial	CongruentLeft	14	0	984	0	115	12:17:23	1141013	0	1	1	1	1	1	1	1	1	0	3	0	0	0	0	0	0
100212	12:17:23	99887	Trial	ResponseIL	14	0	159	0	115	12:17:23	1141711	0	1	1	1	1	1	1	1	1	0	3	0	0	0	0	0	0
100212	12:17:23	99887	Trial	IncongruentLeft	14	0	984	0	115	12:17:23	1142714	0	1	1	1	1	1	1	1	1	0	3	0	0	0	0	0	0
100212	12:17:23	99887	Trial	ResponseCL	14	0	159	0	115	12:17:23	1143410	0	1	1	1	1	1	1	1	1	0	3	0	0	0	0	0	0
100212	12:17:23	99887	Trial	CongruentLeft	14	0	984	0	115	12:17:23	1144413	0	1	1	1	1	1	1	1	1	0	3	0	0	0	0	0	0
100212	12:17:23	99887	Trial	ResponseIR	14	0	159	0	115	12:17:23	1145110	0	1	1	1	1	1	1	1	1	0	3	0	0	0	0	0	0
100212	12:17:23	99887	Trial	IncongruentRight	14	0	984	0	115	12:17:23	1146111	0	1	1	1	1	1	1	1	1	0	3	0	0	0	0	0	0
100212	12:17:23	99887	Trial	ResponseIL	14	0	159	0	115	12:17:23	1146809	0	1	1	1	1	1	1	1	1	0	3	0	0	0	0	0	0
100212	12:17:23	99887	Trial	IncongruentLeft	14	0	984	0	115	12:17:23	1147812	0	1	1	1	1	1	1	1	1	0	3	0	0	0	0	0	0
100212	12:17:23	99887	Trial	ResponseCR	14	0	159	0	115	12:17:23	1148525	0	1	1	1	1	1	1	1	1	0	3	0	0	0	0	0	0
100212	12:17:23	99887	Trial	CongruentRight	14	0	984	0	115	12:17:23	1149528	0	1	1	1	1	1	1	1	1	0	3	0	0	0	0	0	0
100212	12:17:23	99887	Trial	ResponseCL	14	0	159	0	115	12:17:23	1150224	0	1	1	1	1	1	1	1	1	0	3	0	0	0	0	0	0
100212	12:17:23	99887	Trial	CongruentLeft	14	0	984	0	115	12:17:23	1151226	0	1	1	1	1	1	1	1	1	0	3	0	0	0	0	0	0
100212	12:17:23	99887	Trial	ResponseIL	14	0	159	0	115	12:17:23	1151924	0	1	1	1	1	1	1	1	1	0	3	0	0	0	0	0	0
100212	12:17:23	99887	Trial	IncongruentLeft	14	0	984	0	115	12:17:23	1152926	0	1	1	1	1	1	1	1	1	0	3	0	0	0	0	0	0
100212	12:17:23	99887	Trial	ResponseCL	14	0	159	0	115	12:17:23	1153623	0	1	1	1	1	1	1	1	1	0	3	0	0	0	0	0	0
100212	12:17:23	99887	Trial	CongruentLeft	14	0	984	0	115	12:17:23	1154626	0	1	1	1	1	1	1	1	1	0	3	0	0	0	0	0	0
100212	12:17:23	99887	Trial	ResponseIR	14	0	159	0	115	12:17:23	1155322	0	1	1	1	1	1	1	1	1	0	3	0	0	0	0	0	0
100212	12:17:23	99887	Trial	IncongruentRight	14	0	984	0	115	12:17:23	1156324	0	1	1	1	1	1	1	1	1	0	3	0	0	0	0	0	0
100212	12:17:23	99887	Trial	ResponseCR	14	0	159	0	115	12:17:23	1157038	0	1	1	1	1	1	1	1	1	0	3	0	0	0	0	0	0
100212	12:17:23	99887	Trial	CongruentRight	14	0	984	0	115	12:17:23	1158041	0	1	1	1	1	1	1	1	1	0	3	0	0	0	0	0	0
100212	12:17:23	99887	Trial	ResponseIL	14	0	159	0	115	12:17:23	1158738	0	1	1	1	1	1	1	1	1	0	3	0	0	0	0	0	0
100212	12:17:23	99887	Trial	IncongruentLeft	14	0	984	0	115	12:17:23	1159741	0	1	1	1	1	1	1	1	1	0	3	0	0	0	0	0	0
100212	12:17:23	99887	Trial	ResponseCL	14	0	159	0	115	12:17:23	1160437	0	1	1	1	1	1	1	1	1	0	3	0	0	0	0	0	0
100212	12:17:23	99887	Trial	CongruentLeft	14	0	984	0	115	12:17:23	1161440	0	1	1	1	1	1	1	1	1	0	3	0	0	0	0	0	0
100212	12:17:23	99887	Trial	ResponseIR	14	0	159	0	115	12:17:23	1162137	0	1	1	1	1	1	1	1	1	0	3	0	0	0	0	0	0
100212	12:17:23	99887	Trial	IncongruentRight	14	0	984	0	115	12:17:23	1163139	0	1	1	1	1	1	1	1	1	0	3	0	0	0	0	0	0
100212	12:17:23	99887	Trial	ResponseIL	14	0	159	0	115	12:17:23	1163836	0	1	1	1	1	1	1	1	1	0	3	0	0	0	0	0	0
100212	12:17:23	99887	Trial	IncongruentLeft	14	0	984	0	115	12:17:23	1164839	0	1	1	1	1	1	1	1	1	0	3	0	0	0	0	0	0
100212	12:17:23	99887	Trial	ResponseCL	14	0	159	0	115	12:17:23	1165552	0	1	1	1	1	1	1	1	1	0	3	0	0	0	0	0	0
100212	12:17:23	99887	Trial	CongruentLeft	14	0	984	0	115	12:17:23	1166555	0	1	1	1	1	1	1	1	1	0	3	0	0	0	0	0	0
100212	12:17:23	99887	Trial	ResponseIL	14	0	159	0	115	12:17:23	1167268	0	1	1	1	1	1	1	1	1	0	3	0	0	0	0	0	0
100212	12:17:23	99887	Trial	IncongruentLeft	14	0	984	0	115	12:17:23	1168271	0	1	1	1	1	1	1	1	1	0	3	0	0	0	0	0	0
100212	12:17:23	99887	Trial	ResponseCR	14	0	159	0	115	12:17:23	1168968	0	1	1	1	1	1	1	1	1	0	3	0	0	0	0	0	0
100212	12:17:23	99887	Trial	CongruentRight	14	0	984	0	115	12:17:23	1169969	0	1	1	1	1	1	1	1	1	0	3	0	0	0	0	0	0
100212	12:17:23	99887	Trial	ResponseCL	14	0	159	0	115	12:17:23	1170667	0	1	1	1	1	1	1	1	1	0	3	0	0	0	0	0	0
100212	12:17:23	99887	Trial	CongruentLeft	14	0	984	0	115	12:17:23	1171670	0	1	1	1	1	1	1	1	1	0	3	0	0	0	0	0	0
100212	12:17:23	99887	Trial	ResponseIR	14	0	159	0	115	12:17:23	1172366	0	1	1	1	1	1	1	1	1	0	3	0	0	0	0	0	0
100212	12:17:23	99887	Trial	IncongruentRight	14	0	984	0	115	12:17:23	1173368	0	1	1	1	1	1	1	1	1	0	3	0	0	0	0	0	0
100212	12:17:23	99887	Trial	ResponseCL	14	0	159	0	115	12:17:23	1174066	0	1	1	1	1	1	1	1	1	0	3	0	0	0	0	0	0
100212	12:17:23	99887	Trial	CongruentLeft	14	0	984	0	115	12:17:23	1175068	0	1	1	1	1	1	1	1	1	0	3	0	0	0	0	0	0
100212	12:17:23	99887	Trial	ResponseCR	14	0	159	0	115	12:17:23	1175765	0	1	1	1	1	1	1	1	1	0	3	0	0	0	0	0	0
100212	12:17:23	99887	Trial	CongruentRight	14	0	984	0	115	12:17:23	1176768	0	1	1	1	1	1	1	1	1	0	3	0	0	0	0	0	0
100212	12:17:23	99887	Trial	ResponseIL	14	0	159	0	115	12:17:23	1177481	0	1	1	1	1	1	1	1	1	0	3	0	0	0	0	0	0
100212	12:17:23	99887	Trial	IncongruentLeft	14	0	984	0	115	12:17:23	1178483	0	1	1	1	1	1	1	1	1	0	3	0	0	0	0	0	0
100212	12:17:23	99887	WordsAbsFr6mo	PAbsFr6mo1	16	Abs1	6134	0	115	12:17:23	1261766	0	1	1	1	1	1	1	1	1	0	3	0	0	0	0	0	0
100212	12:17:23	99887	WordsAbsFr6mo	AbsFr6mo1	16	Abs1	2367	0	115	12:17:23	1264182	0	1	1	1	1	1	1	1	1	0	3	1	0	0	0	0	0
100212	12:17:23	99887	WordsAbsFr6mo	AbsFr6mo2	16	Abs1	2964	0	115	12:17:23	1267197	0	1	1	1	1	1	1	1	1	0	3	2	0	0	0	0	0
100212	12:17:23	99887	WordsAbsFr6mo	AbsFr6mo3	16	Abs1	910	0	115	12:17:23	1268164	0	1	1	1	1	1	1	1	1	0	3	3	0	0	0	0	0
100212	12:17:23	99887	Trial2BackFrS	NS	17	0	1000	1	115	12:17:23	1416375	0	1	1	1	1	1	1	1	1	0	3	3	0	0	0	0	0
100212	12:17:23	99887	Trial2BackFrS	NS	17	0	1000	1	115	12:17:23	1417908	0	1	1	1	1	1	1	1	1	0	3	3	0	0	0	0	0
100212	12:17:23	99887	Trial2BackFrS	NS	17	0	1000	1	115	12:17:23	1419440	0	1	1	1	1	1	1	1	1	0	3	3	0	0	0	0	0
100212	12:17:23	99887	Trial2BackFrS	YS	17	0	1000	0	115	12:17:23	1420973	0	1	1	1	1	1	1	1	1	0	3	3	0	0	0	0	0
100212	12:17:23	99887	Trial2BackFrS	NS	17	0	1000	1	115	12:17:23	1422506	0	1	1	1	1	1	1	1	1	0	3	3	0	0	0	0	0
100212	12:17:23	99887	Trial2BackFrS	NS	17	0	1000	1	115	12:17:23	1424039	0	1	1	1	1	1	1	1	1	0	3	3	0	0	0	0	0
100212	12:17:23	99887	Trial2BackFrS	NS	17	0	1000	1	115	12:17:23	1425571	0	1	1	1	1	1	1	1	1	0	3	3	0	0	0	0	0
100212	12:17:23	99887	Trial2BackFrS	NS	17	0	1000	1	115	12:17:23	1427104	0	1	1	1	1	1	1	1	1	0	3	3	0	0	0	0	0
100212	12:17:23	99887	Trial2BackFrS	YS	17	0	1000	0	115	12:17:23	1428637	0	1	1	1	1	1	1	1	1	0	3	3	0	0	0	0	0
100212	12:17:23	99887	Trial2BackFrS	NS	17	0	1000	1	115	12:17:23	1430170	0	1	1	1	1	1	1	1	1	0	3	3	0	0	0	0	0
100212	12:17:23	99887	Trial2BackFrS	NS	17	0	1000	1	115	12:17:23	1431702	0	1	1	1	1	1	1	1	1	0	3	3	0	0	0	0	0
100212	12:17:23	99887	Trial2BackFrS	YS	17	0	1000	0	115	12:17:23	1433235	0	1	1	1	1	1	1	1	1	0	3	3	0	0	0	0	0
100212	12:17:23	99887	Trial2BackFrS	NS	17	0	1000	1	115	12:17:23	1434768	0	1	1	1	1	1	1	1	1	0	3	3	0	0	0	0	0
100212	12:17:23	99887	Trial2BackFrS	NS	17	0	1000	1	115	12:17:23	1436301	0	1	1	1	1	1	1	1	1	0	3	3	0	0	0	0	0
100212	12:17:23	99887	Trial2BackFrS	NS	17	0	1000	1	115	12:17:23	1437833	0	1	1	1	1	1	1	1	1	0	3	3	0	0	0	0	0
100212	12:17:23	99887	Trial2BackFrS	YS	17	0	1000	0	115	12:17:23	1439366	0	1	1	1	1	1	1	1	1	0	3	3	0	0	0	0	0
100212	12:17:23	99887	Trial2BackFrS	NS	17	0	1000	1	115	12:17:23	1440899	0	1	1	1	1	1	1	1	1	0	3	3	0	0	0	0	0
100212	12:17:23	99887	Trial2BackFrS	NS	17	0	1000	1	115	12:17:23	1442432	0	1	1	1	1	1	1	1	1	0	3	3	0	0	0	0	0
100212	12:17:23	99887	Trial2BackFrS	NS	17	0	1000	1	115	12:17:23	1443965	0	1	1	1	1	1	1	1	1	0	3	3	0	0	0	0	0
100212	12:17:23	99887	Trial2BackFrS	NS	17	0	1000	1	115	12:17:23	1445497	0	1	1	1	1	1	1	1	1	0	3	3	0	0	0	0	0
100212	12:17:23	99887	Trial2BackFrS	YS	17	0	1000	0	115	12:17:23	1447030	0	1	1	1	1	1	1	1	1	0	3	3	0	0	0	0	0
100212	12:17:23	99887	Trial2BackFrS	NS	17	0	1000	1	115	12:17:23	1448563	0	1	1	1	1	1	1	1	1	0	3	3	0	0	0	0	0
100212	12:17:23	99887	Trial2BackFrS	NS	17	0	1000	1	115	12:17:23	1450096	0	1	1	1	1	1	1	1	1	0	3	3	0	0	0	0	0
100212	12:17:23	99887	Trial2BackFrS	NS	17	0	1000	1	115	12:17:23	1451628	0	1	1	1	1	1	1	1	1	0	3	3	0	0	0	0	0
100212	12:17:23	99887	Trial2BackFrS	NS	17	0	1000	1	115	12:17:23	1453161	0	1	1	1	1	1	1	1	1	0	3	3	0	0	0	0	0
100212	12:17:23	99887	Trial2BackFrS	NS	17	0	1000	1	115	12:17:23	1454694	0	1	1	1	1	1	1	1	1	0	3	3	0	0	0	0	0
100212	12:17:23	99887	Trial2BackFrS	NS	17	0	1000	1	115	12:17:23	1456227	0	1	1	1	1	1	1	1	1	0	3	3	0	0	0	0	0
100212	12:17:23	99887	Trial2BackFrS	NS	17	0	1000	1	115	12:17:23	1457759	0	1	1	1	1	1	1	1	1	0	3	3	0	0	0	0	0
100212	12:17:23	99887	Trial2BackFrS	NS	17	0	1000	1	115	12:17:23	1459292	0	1	1	1	1	1	1	1	1	0	3	3	0	0	0	0	0
100212	12:17:23	99887	Trial2BackFrS	NS	17	0	1000	1	115	12:17:23	1460825	0	1	1	1	1	1	1	1	1	0	3	3	0	0	0	0	0
100212	12:17:23	99887	Trial2BackFrS	NS	17	0	1000	1	115	12:17:23	1462358	0	1	1	1	1	1	1	1	1	0	3	3	0	0	0	0	0
100212	12:17:23	99887	Trial2BackFrS	YS	17	0	1000	0	115	12:17:23	1463890	0	1	1	1	1	1	1	1	1	0	3	3	0	0	0	0	0
100212	12:17:23	99887	Trial2BackFrS	NS	17	0	1000	1	115	12:17:23	1465423	0	1	1	1	1	1	1	1	1	0	3	3	0	0	0	0	0
100212	12:17:23	99887	Trial2BackFrS	NS	17	0	1000	1	115	12:17:23	1466956	0	1	1	1	1	1	1	1	1	0	3	3	0	0	0	0	0
100212	12:17:23	99887	Trial2BackFrS	NS	17	0	1000	1	115	12:17:23	1468489	0	1	1	1	1	1	1	1	1	0	3	3	0	0	0	0	0
100212	12:17:23	99887	Trial2BackFrS	YS	17	0	1000	0	115	12:17:23	1470022	0	1	1	1	1	1	1	1	1	0	3	3	0	0	0	0	0
100212	12:17:23	99887	Trial2BackFrS	NS	17	0	1000	1	115	12:17:23	1471554	0	1	1	1	1	1	1	1	1	0	3	3	0	0	0	0	0
100212	12:17:23	99887	Trial2BackFrS	NS	17	0	1000	1	115	12:17:23	1473087	0	1	1	1	1	1	1	1	1	0	3	3	0	0	0	0	0
100212	12:17:23	99887	Trial2BackFrS	NS	17	0	1000	1	115	12:17:23	1474620	0	1	1	1	1	1	1	1	1	0	3	3	0	0	0	0	0
100212	12:17:23	99887	Trial2BackFrS	NS	17	0	1000	1	115	12:17:23	1476153	0	1	1	1	1	1	1	1	1	0	3	3	0	0	0	0	0
100212	12:17:23	99887	Trial2BackFrS	NS	17	0	1000	1	115	12:17:23	1477685	0	1	1	1	1	1	1	1	1	0	3	3	0	0	0	0	0
100212	12:17:23	99887	Trial2BackFrS	NS	17	0	1000	1	115	12:17:23	1479218	0	1	1	1	1	1	1	1	1	0	3	3	0	0	0	0	0
100212	12:17:23	99887	Trial2BackFrS	NS	17	0	1000	1	115	12:17:23	1480751	0	1	1	1	1	1	1	1	1	0	3	3	0	0	0	0	0
100212	12:17:23	99887	Trial2BackFrS	YS	17	0	1000	0	115	12:17:23	1482284	0	1	1	1	1	1	1	1	1	0	3	3	0	0	0	0	0
100212	12:17:23	99887	Trial2BackFrS	NS	17	0	1000	1	115	12:17:23	1483816	0	1	1	1	1	1	1	1	1	0	3	3	0	0	0	0	0
100212	12:17:23	99887	Trial2BackFrS	NS	17	0	1000	1	115	12:17:23	1485349	0	1	1	1	1	1	1	1	1	0	3	3	0	0	0	0	0
100212	12:17:23	99887	Trial2BackFrS	NS	17	0	1000	1	115	12:17:23	1486882	0	1	1	1	1	1	1	1	1	0	3	3	0	0	0	0	0
100212	12:17:23	99887	Trial2BackFrS	NS	17	0	1000	1	115	12:17:23	1488415	0	1	1	1	1	1	1	1	1	0	3	3	0	0	0	0	0
100212	12:17:23	99887	Trial2BackFrS	YS	17	0	1000	0	115	12:17:23	1489947	0	1	1	1	1	1	1	1	1	0	3	3	0	0	0	0	0
100212	12:17:23	99887	Trial2BackFrS	NS	17	0	1000	1	115	12:17:23	1491480	0	1	1	1	1	1	1	1	1	0	3	3	0	0	0	0	0
100212	12:17:23	99887	Trial2BackFrS	NS	17	0	1000	1	115	12:17:23	1493013	0	1	1	1	1	1	1	1	1	0	3	3	0	0	0	0	0
100212	12:17:23	99887	Trial2BackFrS	NS	17	0	1000	1	115	12:17:23	1494546	0	1	1	1	1	1	1	1	1	0	3	3	0	0	0	0	0
100212	12:17:23	99887	Trial2BackFrS	NS	17	0	1000	1	115	12:17:23	1496078	0	1	1	1	1	1	1	1	1	0	3	3	0	0	0	0	0
100212	12:17:23	99887	Trial2BackFrS	NS	17	0	1000	1	115	12:17:23	1497611	0	1	1	1	1	1	1	1	1	0	3	3	0	0	0	0	0
100212	12:17:23	99887	Trial2BackFrS	NS	17	0	1000	1	115	12:17:23	1499144	0	1	1	1	1	1	1	1	1	0	3	3	0	0	0	0	0
100212	12:17:23	99887	Trial2BackFrS	YS	17	0	1000	0	115	12:17:23	1500677	0	1	1	1	1	1	1	1	1	0	3	3	0	0	0	0	0
100212	12:17:23	99887	Trial2BackFrS	NS	17	0	1000	1	115	12:17:23	1502210	0	1	1	1	1	1	1	1	1	0	3	3	0	0	0	0	0
100212	12:17:23	99887	Trial2BackFrS	NS	17	0	1000	1	115	12:17:23	1503742	0	1	1	1	1	1	1	1	1	0	3	3	0	0	0	0	0
100212	12:17:23	99887	Trial2BackFrS	NS	17	0	1000	1	115	12:17:23	1505275	0	1	1	1	1	1	1	1	1	0	3	3	0	0	0	0	0
100212	12:17:23	99887	Trial2BackFrS	NS	17	0	1000	1	115	12:17:23	1506808	0	1	1	1	1	1	1	1	1	0	3	3	0	0	0	0	0
100212	12:17:23	99887	Trial2BackFrS	NS	17	0	1000	1	115	12:17:23	1508341	0	1	1	1	1	1	1	1	1	0	3	3	0	0	0	0	0
100212	12:17:23	99887	Trial2BackFrS	NS	17	0	1000	1	115	12:17:23	1509873	0	1	1	1	1	1	1	1	1	0	3	3	0	0	0	0	0
100212	12:17:23	99887	Trial2BackFrS	NS	17	0	1000	1	115	12:17:23	1511406	0	1	1	1	1	1	1	1	1	0	3	3	0	0	0	0	0
100212	12:17:23	99887	Trial2BackFrS	YS	17	0	1000	0	115	12:17:23	1512939	0	1	1	1	1	1	1	1	1	0	3	3	0	0	0	0	0
100212	12:17:23	99887	Trial2BackFrS	NS	17	0	1000	1	115	12:17:23	1514472	0	1	1	1	1	1	1	1	1	0	3	3	0	0	0	0	0
100212	12:17:23	99887	Trial2BackFrS	NS	17	0	1000	1	115	12:17:23	1516004	0	1	1	1	1	1	1	1	1	0	3	3	0	0	0	0	0
100212	12:17:23	99887	Trial2BackFrS	NS	17	0	1000	1	115	12:17:23	1517537	0	1	1	1	1	1	1	1	1	0	3	3	0	0	0	0	0
100212	12:17:23	99887	Trial2BackFrS	NS	17	0	1000	1	115	12:17:23	1519070	0	1	1	1	1	1	1	1	1	0	3	3	0	0	0	0	0
100212	12:17:23	99887	Trial2BackFrS	YS	17	0	1000	0	115	12:17:23	1520603	0	1	1	1	1	1	1	1	1	0	3	3	0	0	0	0	0
100212	12:17:23	99887	Trial2BackFrS	NS	17	0	1000	1	115	12:17:23	1522135	0	1	1	1	1	1	1	1	1	0	3	3	0	0	0	0	0
100212	12:17:23	99887	Trial2BackFrS	NS	17	0	1000	1	115	12:17:23	1523668	0	1	1	1	1	1	1	1	1	0	3	3	0	0	0	0	0
100212	12:17:23	99887	Trial2BackFrS	YS	17	0	1000	0	115	12:17:23	1525201	0	1	1	1	1	1	1	1	1	0	3	3	0	0	0	0	0
100212	12:17:23	99887	Trial2BackFrS	NS	17	0	1000	1	115	12:17:23	1526734	0	1	1	1	1	1	1	1	1	0	3	3	0	0	0	0	0
100212	12:17:23	99887	Trial2BackFrS	NS	17	0	1000	1	115	12:17:23	1528266	0	1	1	1	1	1	1	1	1	0	3	3	0	0	0	0	0
100212	12:17:23	99887	Trial2BackFrS	NS	17	0	1000	1	115	12:17:23	1529799	0	1	1	1	1	1	1	1	1	0	3	3	0	0	0	0	0
100212	12:17:23	99887	Trial2BackFrS	NS	17	0	1000	1	115	12:17:23	1531332	0	1	1	1	1	1	1	1	1	0	3	3	0	0	0	0	0
100212	12:17:23	99887	Trial2BackFrS	NS	17	0	1000	1	115	12:17:23	1532865	0	1	1	1	1	1	1	1	1	0	3	3	0	0	0	0	0
100212	12:17:23	99887	Trial2BackFrS	NS	17	0	1000	1	115	12:17:23	1534398	0	1	1	1	1	1	1	1	1	0	3	3	0	0	0	0	0
100212	12:17:23	99887	Trial2BackFrS	YS	17	0	1000	0	115	12:17:23	1535931	0	1	1	1	1	1	1	1	1	0	3	3	0	0	0	0	0
100212	12:17:23	99887	Trial2BackFrS	NS	17	0	1000	1	115	12:17:23	1537463	0	1	1	1	1	1	1	1	1	0	3	3	0	0	0	0	0
100212	12:17:23	99887	Trial2BackFrS	NS	17	0	1000	1	115	12:17:23	1538996	0	1	1	1	1	1	1	1	1	0	3	3	0	0	0	0	0
100212	12:17:23	99887	Trial2BackFrS	NS	17	0	1000	1	115	12:17:23	1540529	0	1	1	1	1	1	1	1	1	0	3	3	0	0	0	0	0
100212	12:17:23	99887	Trial2BackFrS	NS	17	0	1000	1	115	12:17:23	1542061	0	1	1	1	1	1	1	1	1	0	3	3	0	0	0	0	0
100212	12:17:23	99887	Trial2BackFrS	YS	17	0	1000	0	115	12:17:23	1543594	0	1	1	1	1	1	1	1	1	0	3	3	0	0	0	0	0
100212	12:17:23	99887	Trial2BackFrS	NS	17	0	1000	1	115	12:17:23	1545127	0	1	1	1	1	1	1	1	1	0	3	3	0	0	0	0	0
100212	12:17:23	99887	Trial2BackFrS	NS	17	0	1000	1	115	12:17:23	1546660	0	1	1	1	1	1	1	1	1	0	3	3	0	0	0	0	0
100212	12:17:23	99887	Trial2BackFrS	NS	17	0	1000	1	115	12:17:23	1548192	0	1	1	1	1	1	1	1	1	0	3	3	0	0	0	0	0
100212	12:17:23	99887	Trial2BackFrS	NS	17	0	1000	1	115	12:17:23	1549725	0	1	1	1	1	1	1	1	1	0	3	3	0	0	0	0	0
100212	12:17:23	99887	Trial2BackFrS	YS	17	0	1000	0	115	12:17:23	1551258	0	1	1	1	1	1	1	1	1	0	3	3	0	0	0	0	0
100212	12:17:23	99887	Trial2BackFrS	NS	17	0	1000	1	115	12:17:23	1552791	0	1	1	1	1	1	1	1	1	0	3	3	0	0	0	0	0
100212	12:17:23	99887	Trial2BackFrS	NS	17	0	1000	1	115	12:17:23	1554323	0	1	1	1	1	1	1	1	1	0	3	3	0	0	0	0	0
100212	12:17:23	99887	Trial2BackFrS	YS	17	0	1000	0	115	12:17:23	1555856	0	1	1	1	1	1	1	1	1	0	3	3	0	0	0	0	0
100212	12:17:23	99887	Trial2BackFrS	NS	17	0	1000	1	115	12:17:23	1557389	0	1	1	1	1	1	1	1	1	0	3	3	0	0	0	0	0
100212	12:17:23	99887	Trial2BackFrS	NS	17	0	1000	1	115	12:17:23	1558922	0	1	1	1	1	1	1	1	1	0	3	3	0	0	0	0	0
100212	12:17:23	99887	Trial2BackFrS	NS	17	0	1000	1	115	12:17:23	1560454	0	1	1	1	1	1	1	1	1	0	3	3	0	0	0	0	0
100212	12:17:23	99887	Trial2BackFrS	NS	17	0	1000	1	115	12:17:23	1561987	0	1	1	1	1	1	1	1	1	0	3	3	0	0	0	0	0
100212	12:17:23	99887	Trial2BackFrS	NS	17	0	1000	1	115	12:17:23	1563520	0	1	1	1	1	1	1	1	1	0	3	3	0	0	0	0	0
100212	12:17:23	99887	Trial2BackFrS	NS	17	0	1000	1	115	12:17:23	1565053	0	1	1	1	1	1	1	1	1	0	3	3	0	0	0	0	0
100212	12:17:23	99887	Trial2BackFrS	NS	17	0	1000	1	115	12:17:23	1566586	0	1	1	1	1	1	1	1	1	0	3	3	0	0	0	0	0
100212	12:17:23	99887	Trial2BackFrS	NS	17	0	1000	1	115	12:17:23	1568118	0	1	1	1	1	1	1	1	1	0	3	3	0	0	0	0	0
100212	12:17:23	99887	Trial2BackFrS	YS	17	0	1000	0	115	12:17:23	1569651	0	1	1	1	1	1	1	1	1	0	3	3	0	0	0	0	0
100212	12:17:23	99887	Trial2BackFrS	NS	17	0	1000	1	115	12:17:23	1571184	0	1	1	1	1	1	1	1	1	0	3	3	0	0	0	0	0
100212	12:17:23	99887	Trial2BackFrS	NS	17	0	1000	1	115	12:17:23	1572717	0	1	1	1	1	1	1	1	1	0	3	3	0	0	0	0	0
100212	12:17:23	99887	Trial2BackFrS	NS	17	0	1000	1	115	12:17:23	1574249	0	1	1	1	1	1	1	1	1	0	3	3	0	0	0	0	0
100212	12:17:23	99887	Trial2BackFrS	NS	17	0	1000	1	115	12:17:23	1575782	0	1	1	1	1	1	1	1	1	0	3	3	0	0	0	0	0
100212	12:17:23	99887	Trial2BackFrS	NS	17	0	1000	1	115	12:17:23	1577315	0	1	1	1	1	1	1	1	1	0	3	3	0	0	0	0	0
100212	12:17:23	99887	Trial2BackFrS	NS	17	0	1000	1	115	12:17:23	1578848	0	1	1	1	1	1	1	1	1	0	3	3	0	0	0	0	0
100212	12:17:23	99887	Trial2BackFrS	NS	17	0	1000	1	115	12:17:23	1580380	0	1	1	1	1	1	1	1	1	0	3	3	0	0	0	0	0
100212	12:17:23	99887	Trial2BackFrS	YS	17	0	1000	0	115	12:17:23	1581913	0	1	1	1	1	1	1	1	1	0	3	3	0	0	0	0	0
100212	12:17:23	99887	Trial2BackFrS	NS	17	0	1000	1	115	12:17:23	1583446	0	1	1	1	1	1	1	1	1	0	3	3	0	0	0	0	0
100212	12:17:23	99887	Trial2BackFrS	NS	17	0	1000	1	115	12:17:23	1584979	0	1	1	1	1	1	1	1	1	0	3	3	0	0	0	0	0
100212	12:17:23	99887	Trial2BackFrS	NS	17	0	1000	1	115	12:17:23	1586512	0	1	1	1	1	1	1	1	1	0	3	3	0	0	0	0	0
100212	12:17:23	99887	Trial2BackFrS	NS	17	0	1000	1	115	12:17:23	1588044	0	1	1	1	1	1	1	1	1	0	3	3	0	0	0	0	0
100212	12:17:23	99887	Trial2BackFrS	NS	17	0	1000	1	115	12:17:23	1589577	0	1	1	1	1	1	1	1	1	0	3	3	0	0	0	0	0
100212	12:17:23	99887	Trial2BackFrS	NS	17	0	1000	1	115	12:17:23	1591110	0	1	1	1	1	1	1	1	1	0	3	3	0	0	0	0	0
100212	12:17:23	99887	Trial2BackFrS	NS	17	0	1000	1	115	12:17:23	1592642	0	1	1	1	1	1	1	1	1	0	3	3	0	0	0	0	0
100212	12:17:23	99887	Trial2BackFrS	NS	17	0	1000	1	115	12:17:23	1594175	0	1	1	1	1	1	1	1	1	0	3	3	0	0	0	0	0
100212	12:17:23	99887	Trial2BackFrS	NS	17	0	1000	1	115	12:17:23	1595708	0	1	1	1	1	1	1	1	1	0	3	3	0	0	0	0	0
100212	12:17:23	99887	Trial2BackFrS	YS	17	0	1000	0	115	12:17:23	1597241	0	1	1	1	1	1	1	1	1	0	3	3	0	0	0	0	0
100212	12:17:23	99887	Trial2BackFrS	NS	17	0	1000	1	115	12:17:23	1598774	0	1	1	1	1	1	1	1	1	0	3	3	0	0	0	0	0
100212	12:17:23	99887	ClockFr6mo	ClockFr6mo	19	Clock1	19037	0	115	12:17:23	1617950	0	1	1	1	1	1	1	1	1	0	3	3	1	0	0	0	0
100212	12:17:23	99887	ClockFr6mo	ClockFr6mo	19	Clock11	1085	0	115	12:17:23	1619083	0	1	1	1	1	1	1	1	1	0	3	3	1	1	0	0	0
100212	12:17:23	99887	ClockFr6mo	ClockFr6mo	19	Clock111	1043	0	115	12:17:23	1620183	0	1	1	1	1	1	1	1	1	0	3	3	1	1	1	0	0
100212	12:17:23	99887	ClockFr6mo	ClockFr6mo	19	Clockdone	883	0	115	12:17:23	1621116	0	1	1	1	1	1	1	1	1	0	3	3	1	1	1	0	0
100212	12:17:23	99887	FASFrVF6mo	StopFrVF6mo	20		43167	0	115	12:17:23	1728729	0	1	1	1	1	1	1	1	1	0	3	3	1	1	1	0	0
