date	time	subject	blockcode	trialcode	values.TaskNumber	response	latency	correct	values.Score	script.starttime	script.elapsedtime	values.ScoreS7	values.Word1	values.Word2	values.Word3	values.Word4	values.Word5	values.Word6	values.Word7	values.Word8	values.DigitSpanFwrd	values.DigitSpanBack	values.ScoreAbs	values.Contour	values.Numbers	values.Hands	values.corsiblockspanFwrd	values.corsiblockspanRev	values.problemnumber	values.subjectattempts	values.targetmoves	values.subjectmoves	expressions.excessmoves	values.movestring	expressions.targetachieved	values.problemscore	values.totalscoreTOL	expressions.firstmovetime	expressions.executiontime	expressions.solutiontime	values.t_choicestart	values.t_choiceend
020713	12:06:55	1	Language	Language	0	English	13158	0	0	12:06:55	13438	0	0	0	0	0	0	0	0	0	0	0	0	0	0	0	0	0	0	0	0	0	0		1	0	0	0	0	0	0	0
020713	12:06:55	1	Session	Session	0	Baseline	1422	0	0	12:06:55	14987	0	0	0	0	0	0	0	0	0	0	0	0	0	0	0	0	0	0	0	0	0	0		1	0	0	0	0	0	0	0
020713	12:06:55	1	HandEng	HandEng	0	Right	1509	0	0	12:06:55	16603	0	0	0	0	0	0	0	0	0	0	0	0	0	0	0	0	0	0	0	0	0	0		1	0	0	0	0	0	0	0
020713	12:06:55	1	CubeEng	CubeEng	1	1Cube	1646	0	0	12:06:55	28132	0	0	0	0	0	0	0	0	0	0	0	0	0	0	0	0	0	0	0	0	0	0		1	0	0	0	0	0	0	0
020713	12:06:55	1	pm.simpleEngRight	blank.simpleEng	2	0	1900	1	0	12:06:55	32448	0	0	0	0	0	0	0	0	0	0	0	0	0	0	0	0	0	0	0	0	0	0		1	0	0	0	0	0	0	0
020713	12:06:55	1	pm.simpleEngRight	pm.simpleEng	2	57	334	0	0	12:06:55	32847	0	0	0	0	0	0	0	0	0	0	0	0	0	0	0	0	0	0	0	0	0	0		1	0	0	0	0	0	0	0
020713	12:06:55	1	pm.simpleEngRight	blank.simpleEng	2	0	2400	1	0	12:06:55	35297	0	0	0	0	0	0	0	0	0	0	0	0	0	0	0	0	0	0	0	0	0	0		1	0	0	0	0	0	0	0
020713	12:06:55	1	pm.simpleEngRight	pm.simpleEng	2	57	292	0	0	12:06:55	35647	0	0	0	0	0	0	0	0	0	0	0	0	0	0	0	0	0	0	0	0	0	0		1	0	0	0	0	0	0	0
020713	12:06:55	1	pm.simpleEngRight	blank.simpleEng	2	0	1800	1	0	12:06:55	37496	0	0	0	0	0	0	0	0	0	0	0	0	0	0	0	0	0	0	0	0	0	0		1	0	0	0	0	0	0	0
020713	12:06:55	1	pm.simpleEngRight	pm.simpleEng	2	57	245	0	0	12:06:55	37795	0	0	0	0	0	0	0	0	0	0	0	0	0	0	0	0	0	0	0	0	0	0		1	0	0	0	0	0	0	0
020713	12:06:55	1	pm.simpleEngRight	blank.simpleEng	2	0	2200	1	0	12:06:55	40045	0	0	0	0	0	0	0	0	0	0	0	0	0	0	0	0	0	0	0	0	0	0		1	0	0	0	0	0	0	0
020713	12:06:55	1	pm.simpleEngRight	pm.simpleEng	2	57	256	0	0	12:06:55	40361	0	0	0	0	0	0	0	0	0	0	0	0	0	0	0	0	0	0	0	0	0	0		1	0	0	0	0	0	0	0
020713	12:06:55	1	pm.simpleEngRight	blank.simpleEng	2	0	2100	1	0	12:06:55	42511	0	0	0	0	0	0	0	0	0	0	0	0	0	0	0	0	0	0	0	0	0	0		1	0	0	0	0	0	0	0
020713	12:06:55	1	pm.simpleEngRight	pm.simpleEng	2	57	222	0	0	12:06:55	42794	0	0	0	0	0	0	0	0	0	0	0	0	0	0	0	0	0	0	0	0	0	0		1	0	0	0	0	0	0	0
020713	12:06:55	1	pm.simpleEngRight	blank.simpleEng	2	0	1600	1	0	12:06:55	44443	0	0	0	0	0	0	0	0	0	0	0	0	0	0	0	0	0	0	0	0	0	0		1	0	0	0	0	0	0	0
020713	12:06:55	1	pm.simpleEngRight	pm.simpleEng	2	57	229	0	0	12:06:55	44727	0	0	0	0	0	0	0	0	0	0	0	0	0	0	0	0	0	0	0	0	0	0		1	0	0	0	0	0	0	0
020713	12:06:55	1	pm.simpleEngRight	blank.simpleEng	2	0	2500	1	0	12:06:55	47276	0	0	0	0	0	0	0	0	0	0	0	0	0	0	0	0	0	0	0	0	0	0		1	0	0	0	0	0	0	0
020713	12:06:55	1	pm.simpleEngRight	pm.simpleEng	2	57	319	0	0	12:06:55	47659	0	0	0	0	0	0	0	0	0	0	0	0	0	0	0	0	0	0	0	0	0	0		1	0	0	0	0	0	0	0
020713	12:06:55	1	pm.simpleEngRight	blank.simpleEng	2	0	2000	1	0	12:06:55	49708	0	0	0	0	0	0	0	0	0	0	0	0	0	0	0	0	0	0	0	0	0	0		1	0	0	0	0	0	0	0
020713	12:06:55	1	pm.simpleEngRight	pm.simpleEng	2	57	455	0	0	12:06:55	50224	0	0	0	0	0	0	0	0	0	0	0	0	0	0	0	0	0	0	0	0	0	0		1	0	0	0	0	0	0	0
020713	12:06:55	1	pm.simpleEngRight	blank.simpleEng	2	0	1500	1	0	12:06:55	51774	0	0	0	0	0	0	0	0	0	0	0	0	0	0	0	0	0	0	0	0	0	0		1	0	0	0	0	0	0	0
020713	12:06:55	1	pm.simpleEngRight	pm.simpleEng	2	57	507	0	0	12:06:55	52340	0	0	0	0	0	0	0	0	0	0	0	0	0	0	0	0	0	0	0	0	0	0		1	0	0	0	0	0	0	0
020713	12:06:55	1	pm.simpleEngRight	blank.simpleEng	2	0	1700	1	0	12:06:55	54090	0	0	0	0	0	0	0	0	0	0	0	0	0	0	0	0	0	0	0	0	0	0		1	0	0	0	0	0	0	0
020713	12:06:55	1	pm.simpleEngRight	pm.simpleEng	2	57	466	0	0	12:06:55	54623	0	0	0	0	0	0	0	0	0	0	0	0	0	0	0	0	0	0	0	0	0	0		1	0	0	0	0	0	0	0
020713	12:06:55	1	pm.simpleEngRight	blank.simpleEng	2	0	2300	1	0	12:06:55	56972	0	0	0	0	0	0	0	0	0	0	0	0	0	0	0	0	0	0	0	0	0	0		1	0	0	0	0	0	0	0
020713	12:06:55	1	pm.simpleEngRight	pm.simpleEng	2	57	245	0	0	12:06:55	57272	0	0	0	0	0	0	0	0	0	0	0	0	0	0	0	0	0	0	0	0	0	0		1	0	0	0	0	0	0	0
020713	12:06:55	1	pm.simpleEngRight	blank.simpleEng	2	0	2100	1	0	12:06:55	59421	0	0	0	0	0	0	0	0	0	0	0	0	0	0	0	0	0	0	0	0	0	0		1	0	0	0	0	0	0	0
020713	12:06:55	1	pm.simpleEngRight	pm.simpleEng	2	57	75	0	0	12:06:55	59554	0	0	0	0	0	0	0	0	0	0	0	0	0	0	0	0	0	0	0	0	0	0		1	0	0	0	0	0	0	0
020713	12:06:55	1	pm.simpleEngRight	blank.simpleEng	2	0	1700	1	0	12:06:55	61304	0	0	0	0	0	0	0	0	0	0	0	0	0	0	0	0	0	0	0	0	0	0		1	0	0	0	0	0	0	0
020713	12:06:55	1	pm.simpleEngRight	pm.simpleEng	2	57	194	0	0	12:06:55	61554	0	0	0	0	0	0	0	0	0	0	0	0	0	0	0	0	0	0	0	0	0	0		1	0	0	0	0	0	0	0
020713	12:06:55	1	pm.simpleEngRight	blank.simpleEng	2	0	2300	1	0	12:06:55	63903	0	0	0	0	0	0	0	0	0	0	0	0	0	0	0	0	0	0	0	0	0	0		1	0	0	0	0	0	0	0
020713	12:06:55	1	pm.simpleEngRight	pm.simpleEng	2	57	29	0	0	12:06:55	63986	0	0	0	0	0	0	0	0	0	0	0	0	0	0	0	0	0	0	0	0	0	0		1	0	0	0	0	0	0	0
020713	12:06:55	1	pm.simpleEngRight	blank.simpleEng	2	0	2000	1	0	12:06:55	66035	0	0	0	0	0	0	0	0	0	0	0	0	0	0	0	0	0	0	0	0	0	0		1	0	0	0	0	0	0	0
020713	12:06:55	1	pm.simpleEngRight	pm.simpleEng	2	57	207	0	0	12:06:55	66302	0	0	0	0	0	0	0	0	0	0	0	0	0	0	0	0	0	0	0	0	0	0		1	0	0	0	0	0	0	0
020713	12:06:55	1	pm.simpleEngRight	blank.simpleEng	2	0	1800	1	0	12:06:55	68151	0	0	0	0	0	0	0	0	0	0	0	0	0	0	0	0	0	0	0	0	0	0		1	0	0	0	0	0	0	0
020713	12:06:55	1	pm.simpleEngRight	pm.simpleEng	2	57	286	0	0	12:06:55	68501	0	0	0	0	0	0	0	0	0	0	0	0	0	0	0	0	0	0	0	0	0	0		1	0	0	0	0	0	0	0
020713	12:06:55	1	pm.simpleEngRight	blank.simpleEng	2	0	1600	1	0	12:06:55	70151	0	0	0	0	0	0	0	0	0	0	0	0	0	0	0	0	0	0	0	0	0	0		1	0	0	0	0	0	0	0
020713	12:06:55	1	pm.simpleEngRight	pm.simpleEng	2	57	1511	0	0	12:06:55	71716	0	0	0	0	0	0	0	0	0	0	0	0	0	0	0	0	0	0	0	0	0	0		1	0	0	0	0	0	0	0
020713	12:06:55	1	pm.simpleEngRight	blank.simpleEng	2	0	2400	1	0	12:06:55	74166	0	0	0	0	0	0	0	0	0	0	0	0	0	0	0	0	0	0	0	0	0	0		1	0	0	0	0	0	0	0
020713	12:06:55	1	pm.simpleEngRight	pm.simpleEng	2	57	283	0	0	12:06:55	74516	0	0	0	0	0	0	0	0	0	0	0	0	0	0	0	0	0	0	0	0	0	0		1	0	0	0	0	0	0	0
020713	12:06:55	1	pm.simpleEngRight	blank.simpleEng	2	57	2305	0	0	12:06:55	77881	0	0	0	0	0	0	0	0	0	0	0	0	0	0	0	0	0	0	0	0	0	0		1	0	0	0	0	0	0	0
020713	12:06:55	1	pm.simpleEngRight	blank.simpleEng	2	0	1900	1	0	12:06:55	79830	0	0	0	0	0	0	0	0	0	0	0	0	0	0	0	0	0	0	0	0	0	0		1	0	0	0	0	0	0	0
020713	12:06:55	1	pm.simpleEngRight	pm.simpleEng	2	57	7304	0	0	12:06:55	87194	0	0	0	0	0	0	0	0	0	0	0	0	0	0	0	0	0	0	0	0	0	0		1	0	0	0	0	0	0	0
020713	12:06:55	1	pm.simpleEngRight	blank.simpleEng	2	0	1500	1	0	12:06:55	88744	0	0	0	0	0	0	0	0	0	0	0	0	0	0	0	0	0	0	0	0	0	0		1	0	0	0	0	0	0	0
020713	12:06:55	1	pm.simpleEngRight	pm.simpleEng	2	57	2179	0	0	12:06:55	90976	0	0	0	0	0	0	0	0	0	0	0	0	0	0	0	0	0	0	0	0	0	0		1	0	0	0	0	0	0	0
020713	12:06:55	1	pm.simpleEngRight	blank.simpleEng	2	0	2200	1	0	12:06:55	93225	0	0	0	0	0	0	0	0	0	0	0	0	0	0	0	0	0	0	0	0	0	0		1	0	0	0	0	0	0	0
020713	12:06:55	1	pm.simpleEngRight	pm.simpleEng	2	57	738	0	0	12:06:55	94025	0	0	0	0	0	0	0	0	0	0	0	0	0	0	0	0	0	0	0	0	0	0		1	0	0	0	0	0	0	0
020713	12:06:55	1	pm.simpleEngRight	blank.simpleEng	2	0	1700	1	0	12:06:55	95775	0	0	0	0	0	0	0	0	0	0	0	0	0	0	0	0	0	0	0	0	0	0		1	0	0	0	0	0	0	0
020713	12:06:55	1	pm.simpleEngRight	pm.simpleEng	2	57	1551	0	0	12:06:55	97391	0	0	0	0	0	0	0	0	0	0	0	0	0	0	0	0	0	0	0	0	0	0		1	0	0	0	0	0	0	0
020713	12:06:55	1	pm.simpleEngRight	blank.simpleEng	2	0	1800	1	0	12:06:55	99240	0	0	0	0	0	0	0	0	0	0	0	0	0	0	0	0	0	0	0	0	0	0		1	0	0	0	0	0	0	0
020713	12:06:55	1	pm.simpleEngRight	pm.simpleEng	2	57	2454	0	0	12:06:55	101756	0	0	0	0	0	0	0	0	0	0	0	0	0	0	0	0	0	0	0	0	0	0		1	0	0	0	0	0	0	0
020713	12:06:55	1	pm.simpleEngRight	blank.simpleEng	2	0	2200	1	0	12:06:55	104005	0	0	0	0	0	0	0	0	0	0	0	0	0	0	0	0	0	0	0	0	0	0		1	0	0	0	0	0	0	0
020713	12:06:55	1	pm.simpleEngRight	pm.simpleEng	2	57	2570	0	0	12:06:55	106637	0	0	0	0	0	0	0	0	0	0	0	0	0	0	0	0	0	0	0	0	0	0		1	0	0	0	0	0	0	0
020713	12:06:55	1	pm.simpleEngRight	blank.simpleEng	2	0	2300	1	0	12:06:55	108987	0	0	0	0	0	0	0	0	0	0	0	0	0	0	0	0	0	0	0	0	0	0		1	0	0	0	0	0	0	0
020713	12:06:55	1	pm.simpleEngRight	pm.simpleEng	2	57	4553	0	0	12:06:55	113601	0	0	0	0	0	0	0	0	0	0	0	0	0	0	0	0	0	0	0	0	0	0		1	0	0	0	0	0	0	0
020713	12:06:55	1	pm.simpleEngRight	blank.simpleEng	2	0	2100	1	0	12:06:55	115751	0	0	0	0	0	0	0	0	0	0	0	0	0	0	0	0	0	0	0	0	0	0		1	0	0	0	0	0	0	0
020713	12:06:55	1	pm.simpleEngRight	pm.simpleEng	2	57	3716	0	0	12:06:55	119533	0	0	0	0	0	0	0	0	0	0	0	0	0	0	0	0	0	0	0	0	0	0		1	0	0	0	0	0	0	0
020713	12:06:55	1	pm.simpleEngRight	blank.simpleEng	2	0	2400	1	0	12:06:55	121982	0	0	0	0	0	0	0	0	0	0	0	0	0	0	0	0	0	0	0	0	0	0		1	0	0	0	0	0	0	0
020713	12:06:55	1	pm.simpleEngRight	pm.simpleEng	2	57	469	0	0	12:06:55	122515	0	0	0	0	0	0	0	0	0	0	0	0	0	0	0	0	0	0	0	0	0	0		1	0	0	0	0	0	0	0
020713	12:06:55	1	pm.simpleEngRight	blank.simpleEng	2	0	1600	1	0	12:06:55	124164	0	0	0	0	0	0	0	0	0	0	0	0	0	0	0	0	0	0	0	0	0	0		1	0	0	0	0	0	0	0
020713	12:06:55	1	pm.simpleEngRight	pm.simpleEng	2	57	382	0	0	12:06:55	124614	0	0	0	0	0	0	0	0	0	0	0	0	0	0	0	0	0	0	0	0	0	0		1	0	0	0	0	0	0	0
020713	12:06:55	1	pm.simpleEngRight	blank.simpleEng	2	0	2500	1	0	12:06:55	127163	0	0	0	0	0	0	0	0	0	0	0	0	0	0	0	0	0	0	0	0	0	0		1	0	0	0	0	0	0	0
020713	12:06:55	1	pm.simpleEngRight	pm.simpleEng	2	57	1209	0	0	12:06:55	128429	0	0	0	0	0	0	0	0	0	0	0	0	0	0	0	0	0	0	0	0	0	0		1	0	0	0	0	0	0	0
020713	12:06:55	1	pm.simpleEngRight	blank.simpleEng	2	0	2000	1	0	12:06:55	130479	0	0	0	0	0	0	0	0	0	0	0	0	0	0	0	0	0	0	0	0	0	0		1	0	0	0	0	0	0	0
020713	12:06:55	1	pm.simpleEngRight	pm.simpleEng	2	57	628	0	0	12:06:55	131162	0	0	0	0	0	0	0	0	0	0	0	0	0	0	0	0	0	0	0	0	0	0		1	0	0	0	0	0	0	0
020713	12:06:55	1	pm.simpleEngRight	blank.simpleEng	2	0	1500	1	0	12:06:55	132711	0	0	0	0	0	0	0	0	0	0	0	0	0	0	0	0	0	0	0	0	0	0		1	0	0	0	0	0	0	0
020713	12:06:55	1	pm.simpleEngRight	pm.simpleEng	2	57	529	0	0	12:06:55	133294	0	0	0	0	0	0	0	0	0	0	0	0	0	0	0	0	0	0	0	0	0	0		1	0	0	0	0	0	0	0
020713	12:06:55	1	pm.simpleEngRight	blank.simpleEng	2	0	1900	1	0	12:06:55	135244	0	0	0	0	0	0	0	0	0	0	0	0	0	0	0	0	0	0	0	0	0	0		1	0	0	0	0	0	0	0
020713	12:06:55	1	pm.simpleEngRight	pm.simpleEng	2	57	4423	0	0	12:06:55	139725	0	0	0	0	0	0	0	0	0	0	0	0	0	0	0	0	0	0	0	0	0	0		1	0	0	0	0	0	0	0
020713	12:06:55	1	pm.simpleEngRight	blank.simpleEng	2	0	1700	1	0	12:06:55	141475	0	0	0	0	0	0	0	0	0	0	0	0	0	0	0	0	0	0	0	0	0	0		1	0	0	0	0	0	0	0
020713	12:06:55	1	pm.simpleEngRight	pm.simpleEng	2	57	5604	0	0	12:06:55	147139	0	0	0	0	0	0	0	0	0	0	0	0	0	0	0	0	0	0	0	0	0	0		1	0	0	0	0	0	0	0
020713	12:06:55	1	pm.simpleEngRight	blank.simpleEng	2	57	2080	0	0	12:06:55	150272	0	0	0	0	0	0	0	0	0	0	0	0	0	0	0	0	0	0	0	0	0	0		1	0	0	0	0	0	0	0
020713	12:06:55	1	pm.simpleEngRight	blank.simpleEng	2	0	1500	1	0	12:06:55	151821	0	0	0	0	0	0	0	0	0	0	0	0	0	0	0	0	0	0	0	0	0	0		1	0	0	0	0	0	0	0
020713	12:06:55	1	pm.simpleEngRight	pm.simpleEng	2	57	438	0	0	12:06:55	152321	0	0	0	0	0	0	0	0	0	0	0	0	0	0	0	0	0	0	0	0	0	0		1	0	0	0	0	0	0	0
020713	12:06:55	1	pm.simpleEngRight	blank.simpleEng	2	0	2000	1	0	12:06:55	154370	0	0	0	0	0	0	0	0	0	0	0	0	0	0	0	0	0	0	0	0	0	0		1	0	0	0	0	0	0	0
020713	12:06:55	1	pm.simpleEngRight	pm.simpleEng	2	57	342	0	0	12:06:55	154770	0	0	0	0	0	0	0	0	0	0	0	0	0	0	0	0	0	0	0	0	0	0		1	0	0	0	0	0	0	0
020713	12:06:55	1	pm.simpleEngRight	blank.simpleEng	2	0	2100	1	0	12:06:55	156919	0	0	0	0	0	0	0	0	0	0	0	0	0	0	0	0	0	0	0	0	0	0		1	0	0	0	0	0	0	0
020713	12:06:55	1	pm.simpleEngRight	pm.simpleEng	2	57	328	0	0	12:06:55	157302	0	0	0	0	0	0	0	0	0	0	0	0	0	0	0	0	0	0	0	0	0	0		1	0	0	0	0	0	0	0
020713	12:06:55	1	pm.simpleEngRight	blank.simpleEng	2	0	2500	1	0	12:06:55	159851	0	0	0	0	0	0	0	0	0	0	0	0	0	0	0	0	0	0	0	0	0	0		1	0	0	0	0	0	0	0
020713	12:06:55	1	pm.simpleEngRight	pm.simpleEng	2	57	164	0	0	12:06:55	160068	0	0	0	0	0	0	0	0	0	0	0	0	0	0	0	0	0	0	0	0	0	0		1	0	0	0	0	0	0	0
020713	12:06:55	1	pm.simpleEngRight	blank.simpleEng	2	0	2200	1	0	12:06:55	162317	0	0	0	0	0	0	0	0	0	0	0	0	0	0	0	0	0	0	0	0	0	0		1	0	0	0	0	0	0	0
020713	12:06:55	1	pm.simpleEngRight	pm.simpleEng	2	57	418	0	0	12:06:55	162801	0	0	0	0	0	0	0	0	0	0	0	0	0	0	0	0	0	0	0	0	0	0		1	0	0	0	0	0	0	0
020713	12:06:55	1	pm.simpleEngRight	blank.simpleEng	2	0	1600	1	0	12:06:55	164450	0	0	0	0	0	0	0	0	0	0	0	0	0	0	0	0	0	0	0	0	0	0		1	0	0	0	0	0	0	0
020713	12:06:55	1	pm.simpleEngRight	pm.simpleEng	2	57	272	0	0	12:06:55	164783	0	0	0	0	0	0	0	0	0	0	0	0	0	0	0	0	0	0	0	0	0	0		1	0	0	0	0	0	0	0
020713	12:06:55	1	pm.simpleEngRight	blank.simpleEng	2	0	1800	1	0	12:06:55	166632	0	0	0	0	0	0	0	0	0	0	0	0	0	0	0	0	0	0	0	0	0	0		1	0	0	0	0	0	0	0
020713	12:06:55	1	pm.simpleEngRight	pm.simpleEng	2	57	523	0	0	12:06:55	167215	0	0	0	0	0	0	0	0	0	0	0	0	0	0	0	0	0	0	0	0	0	0		1	0	0	0	0	0	0	0
020713	12:06:55	1	Trial2BackEng	N	3	0	1000	1	1	12:06:55	192007	0	0	0	0	0	0	0	0	0	0	0	0	0	0	0	0	0	0	0	0	0	0		1	0	0	0	0	0	0	0
020713	12:06:55	1	Trial2BackEng	N	3	0	1000	1	2	12:06:55	193523	0	0	0	0	0	0	0	0	0	0	0	0	0	0	0	0	0	0	0	0	0	0		1	0	0	0	0	0	0	0
020713	12:06:55	1	Trial2BackEng	N	3	0	1000	1	3	12:06:55	195039	0	0	0	0	0	0	0	0	0	0	0	0	0	0	0	0	0	0	0	0	0	0		1	0	0	0	0	0	0	0
020713	12:06:55	1	Trial2BackEng	N	3	0	1000	1	4	12:06:55	196555	0	0	0	0	0	0	0	0	0	0	0	0	0	0	0	0	0	0	0	0	0	0		1	0	0	0	0	0	0	0
020713	12:06:55	1	Trial2BackEng	N	3	0	1000	1	5	12:06:55	198071	0	0	0	0	0	0	0	0	0	0	0	0	0	0	0	0	0	0	0	0	0	0		1	0	0	0	0	0	0	0
020713	12:06:55	1	Trial2BackEng	N	3	0	1000	1	6	12:06:55	199587	0	0	0	0	0	0	0	0	0	0	0	0	0	0	0	0	0	0	0	0	0	0		1	0	0	0	0	0	0	0
020713	12:06:55	1	Trial2BackEng	N	3	0	1000	1	7	12:06:55	201103	0	0	0	0	0	0	0	0	0	0	0	0	0	0	0	0	0	0	0	0	0	0		1	0	0	0	0	0	0	0
020713	12:06:55	1	Trial2BackEng	N	3	0	1000	1	8	12:06:55	202619	0	0	0	0	0	0	0	0	0	0	0	0	0	0	0	0	0	0	0	0	0	0		1	0	0	0	0	0	0	0
020713	12:06:55	1	Trial2BackEng	Y	3	0	1000	0	8	12:06:55	204135	0	0	0	0	0	0	0	0	0	0	0	0	0	0	0	0	0	0	0	0	0	0		1	0	0	0	0	0	0	0
020713	12:06:55	1	Trial2BackEng	N	3	0	1000	1	9	12:06:55	205652	0	0	0	0	0	0	0	0	0	0	0	0	0	0	0	0	0	0	0	0	0	0		1	0	0	0	0	0	0	0
020713	12:06:55	1	Trial2BackEng	N	3	0	1000	1	10	12:06:55	207168	0	0	0	0	0	0	0	0	0	0	0	0	0	0	0	0	0	0	0	0	0	0		1	0	0	0	0	0	0	0
020713	12:06:55	1	Trial2BackEng	N	3	0	1000	1	11	12:06:55	208684	0	0	0	0	0	0	0	0	0	0	0	0	0	0	0	0	0	0	0	0	0	0		1	0	0	0	0	0	0	0
020713	12:06:55	1	Trial2BackEng	Y	3	0	1000	0	11	12:06:55	210200	0	0	0	0	0	0	0	0	0	0	0	0	0	0	0	0	0	0	0	0	0	0		1	0	0	0	0	0	0	0
020713	12:06:55	1	Trial2BackEng	N	3	0	1000	1	12	12:06:55	211716	0	0	0	0	0	0	0	0	0	0	0	0	0	0	0	0	0	0	0	0	0	0		1	0	0	0	0	0	0	0
020713	12:06:55	1	Trial2BackEng	N	3	0	1000	1	13	12:06:55	213232	0	0	0	0	0	0	0	0	0	0	0	0	0	0	0	0	0	0	0	0	0	0		1	0	0	0	0	0	0	0
020713	12:06:55	1	Trial2BackEng	N	3	0	1000	1	14	12:06:55	214748	0	0	0	0	0	0	0	0	0	0	0	0	0	0	0	0	0	0	0	0	0	0		1	0	0	0	0	0	0	0
020713	12:06:55	1	Trial2BackEng	N	3	0	1000	1	15	12:06:55	216264	0	0	0	0	0	0	0	0	0	0	0	0	0	0	0	0	0	0	0	0	0	0		1	0	0	0	0	0	0	0
020713	12:06:55	1	Trial2BackEng	N	3	0	1000	1	16	12:06:55	217781	0	0	0	0	0	0	0	0	0	0	0	0	0	0	0	0	0	0	0	0	0	0		1	0	0	0	0	0	0	0
020713	12:06:55	1	Trial2BackEng	Y	3	0	1000	0	16	12:06:55	219297	0	0	0	0	0	0	0	0	0	0	0	0	0	0	0	0	0	0	0	0	0	0		1	0	0	0	0	0	0	0
020713	12:06:55	1	Trial2BackEng	N	3	0	1000	1	17	12:06:55	220813	0	0	0	0	0	0	0	0	0	0	0	0	0	0	0	0	0	0	0	0	0	0		1	0	0	0	0	0	0	0
020713	12:06:55	1	Trial2BackEng	N	3	0	1000	1	18	12:06:55	222329	0	0	0	0	0	0	0	0	0	0	0	0	0	0	0	0	0	0	0	0	0	0		1	0	0	0	0	0	0	0
020713	12:06:55	1	Trial2BackEng	N	3	0	1000	1	19	12:06:55	223845	0	0	0	0	0	0	0	0	0	0	0	0	0	0	0	0	0	0	0	0	0	0		1	0	0	0	0	0	0	0
020713	12:06:55	1	Trial2BackEng	N	3	0	1000	1	20	12:06:55	225361	0	0	0	0	0	0	0	0	0	0	0	0	0	0	0	0	0	0	0	0	0	0		1	0	0	0	0	0	0	0
020713	12:06:55	1	Trial2BackEng	Y	3	0	1000	0	20	12:06:55	226877	0	0	0	0	0	0	0	0	0	0	0	0	0	0	0	0	0	0	0	0	0	0		1	0	0	0	0	0	0	0
020713	12:06:55	1	Trial2BackEng	N	3	0	1000	1	21	12:06:55	228393	0	0	0	0	0	0	0	0	0	0	0	0	0	0	0	0	0	0	0	0	0	0		1	0	0	0	0	0	0	0
020713	12:06:55	1	Trial2BackEng	N	3	0	1000	1	22	12:06:55	229909	0	0	0	0	0	0	0	0	0	0	0	0	0	0	0	0	0	0	0	0	0	0		1	0	0	0	0	0	0	0
020713	12:06:55	1	Trial2BackEng	N	3	0	1000	1	23	12:06:55	231426	0	0	0	0	0	0	0	0	0	0	0	0	0	0	0	0	0	0	0	0	0	0		1	0	0	0	0	0	0	0
020713	12:06:55	1	Trial2BackEng	N	3	0	1000	1	24	12:06:55	232942	0	0	0	0	0	0	0	0	0	0	0	0	0	0	0	0	0	0	0	0	0	0		1	0	0	0	0	0	0	0
020713	12:06:55	1	Trial2BackEng	N	3	0	1000	1	25	12:06:55	234458	0	0	0	0	0	0	0	0	0	0	0	0	0	0	0	0	0	0	0	0	0	0		1	0	0	0	0	0	0	0
020713	12:06:55	1	Trial2BackEng	N	3	0	1000	1	26	12:06:55	235974	0	0	0	0	0	0	0	0	0	0	0	0	0	0	0	0	0	0	0	0	0	0		1	0	0	0	0	0	0	0
020713	12:06:55	1	Trial2BackEng	Y	3	0	1000	0	26	12:06:55	237490	0	0	0	0	0	0	0	0	0	0	0	0	0	0	0	0	0	0	0	0	0	0		1	0	0	0	0	0	0	0
020713	12:06:55	1	Trial2BackEng	N	3	0	1000	1	27	12:06:55	239007	0	0	0	0	0	0	0	0	0	0	0	0	0	0	0	0	0	0	0	0	0	0		1	0	0	0	0	0	0	0
020713	12:06:55	1	Trial2BackEng	N	3	0	1000	1	28	12:06:55	240522	0	0	0	0	0	0	0	0	0	0	0	0	0	0	0	0	0	0	0	0	0	0		1	0	0	0	0	0	0	0
020713	12:06:55	1	Trial2BackEng	N	3	0	1000	1	29	12:06:55	242038	0	0	0	0	0	0	0	0	0	0	0	0	0	0	0	0	0	0	0	0	0	0		1	0	0	0	0	0	0	0
020713	12:06:55	1	Trial2BackEng	Y	3	0	1000	0	29	12:06:55	243555	0	0	0	0	0	0	0	0	0	0	0	0	0	0	0	0	0	0	0	0	0	0		1	0	0	0	0	0	0	0
020713	12:06:55	1	Trial2BackEng	N	3	0	1000	1	30	12:06:55	245071	0	0	0	0	0	0	0	0	0	0	0	0	0	0	0	0	0	0	0	0	0	0		1	0	0	0	0	0	0	0
020713	12:06:55	1	Trial2BackEng	N	3	0	1000	1	31	12:06:55	246587	0	0	0	0	0	0	0	0	0	0	0	0	0	0	0	0	0	0	0	0	0	0		1	0	0	0	0	0	0	0
020713	12:06:55	1	Trial2BackEng	N	3	0	1000	1	32	12:06:55	248103	0	0	0	0	0	0	0	0	0	0	0	0	0	0	0	0	0	0	0	0	0	0		1	0	0	0	0	0	0	0
020713	12:06:55	1	Trial2BackEng	N	3	0	1000	1	33	12:06:55	249619	0	0	0	0	0	0	0	0	0	0	0	0	0	0	0	0	0	0	0	0	0	0		1	0	0	0	0	0	0	0
020713	12:06:55	1	Trial2BackEng	N	3	0	1000	1	34	12:06:55	251135	0	0	0	0	0	0	0	0	0	0	0	0	0	0	0	0	0	0	0	0	0	0		1	0	0	0	0	0	0	0
020713	12:06:55	1	Trial2BackEng	N	3	0	1000	1	35	12:06:55	252651	0	0	0	0	0	0	0	0	0	0	0	0	0	0	0	0	0	0	0	0	0	0		1	0	0	0	0	0	0	0
020713	12:06:55	1	Trial2BackEng	Y	3	0	1000	0	35	12:06:55	254167	0	0	0	0	0	0	0	0	0	0	0	0	0	0	0	0	0	0	0	0	0	0		1	0	0	0	0	0	0	0
020713	12:06:55	1	Trial2BackEng	N	3	0	1000	1	36	12:06:55	255683	0	0	0	0	0	0	0	0	0	0	0	0	0	0	0	0	0	0	0	0	0	0		1	0	0	0	0	0	0	0
020713	12:06:55	1	Trial2BackEng	N	3	0	1000	1	37	12:06:55	257200	0	0	0	0	0	0	0	0	0	0	0	0	0	0	0	0	0	0	0	0	0	0		1	0	0	0	0	0	0	0
020713	12:06:55	1	Trial2BackEng	N	3	0	1000	1	38	12:06:55	258716	0	0	0	0	0	0	0	0	0	0	0	0	0	0	0	0	0	0	0	0	0	0		1	0	0	0	0	0	0	0
020713	12:06:55	1	Trial2BackEng	N	3	0	1000	1	39	12:06:55	260232	0	0	0	0	0	0	0	0	0	0	0	0	0	0	0	0	0	0	0	0	0	0		1	0	0	0	0	0	0	0
020713	12:06:55	1	Trial2BackEng	Y	3	0	1000	0	39	12:06:55	261748	0	0	0	0	0	0	0	0	0	0	0	0	0	0	0	0	0	0	0	0	0	0		1	0	0	0	0	0	0	0
020713	12:06:55	1	Trial2BackEng	N	3	0	1000	1	40	12:06:55	263264	0	0	0	0	0	0	0	0	0	0	0	0	0	0	0	0	0	0	0	0	0	0		1	0	0	0	0	0	0	0
020713	12:06:55	1	Trial2BackEng	N	3	0	1000	1	41	12:06:55	264780	0	0	0	0	0	0	0	0	0	0	0	0	0	0	0	0	0	0	0	0	0	0		1	0	0	0	0	0	0	0
020713	12:06:55	1	Trial2BackEng	N	3	0	1000	1	42	12:06:55	266296	0	0	0	0	0	0	0	0	0	0	0	0	0	0	0	0	0	0	0	0	0	0		1	0	0	0	0	0	0	0
020713	12:06:55	1	Trial2BackEng	N	3	0	1000	1	43	12:06:55	267812	0	0	0	0	0	0	0	0	0	0	0	0	0	0	0	0	0	0	0	0	0	0		1	0	0	0	0	0	0	0
020713	12:06:55	1	Trial2BackEng	N	3	0	1000	1	44	12:06:55	269328	0	0	0	0	0	0	0	0	0	0	0	0	0	0	0	0	0	0	0	0	0	0		1	0	0	0	0	0	0	0
020713	12:06:55	1	Trial2BackEng	Y	3	0	1000	0	44	12:06:55	270845	0	0	0	0	0	0	0	0	0	0	0	0	0	0	0	0	0	0	0	0	0	0		1	0	0	0	0	0	0	0
020713	12:06:55	1	Trial2BackEng	N	3	0	1000	1	45	12:06:55	272361	0	0	0	0	0	0	0	0	0	0	0	0	0	0	0	0	0	0	0	0	0	0		1	0	0	0	0	0	0	0
020713	12:06:55	1	Trial2BackEng	N	3	0	1000	1	46	12:06:55	273877	0	0	0	0	0	0	0	0	0	0	0	0	0	0	0	0	0	0	0	0	0	0		1	0	0	0	0	0	0	0
020713	12:06:55	1	Trial2BackEng	N	3	0	1000	1	47	12:06:55	275393	0	0	0	0	0	0	0	0	0	0	0	0	0	0	0	0	0	0	0	0	0	0		1	0	0	0	0	0	0	0
020713	12:06:55	1	Trial2BackEng	N	3	0	1000	1	48	12:06:55	276909	0	0	0	0	0	0	0	0	0	0	0	0	0	0	0	0	0	0	0	0	0	0		1	0	0	0	0	0	0	0
020713	12:06:55	1	Trial2BackEng	N	3	0	1000	1	49	12:06:55	278425	0	0	0	0	0	0	0	0	0	0	0	0	0	0	0	0	0	0	0	0	0	0		1	0	0	0	0	0	0	0
020713	12:06:55	1	Trial2BackEng	N	3	0	1000	1	50	12:06:55	279941	0	0	0	0	0	0	0	0	0	0	0	0	0	0	0	0	0	0	0	0	0	0		1	0	0	0	0	0	0	0
020713	12:06:55	1	Trial2BackEng	Y	3	0	1000	0	50	12:06:55	281457	0	0	0	0	0	0	0	0	0	0	0	0	0	0	0	0	0	0	0	0	0	0		1	0	0	0	0	0	0	0
020713	12:06:55	1	Trial2BackEng	N	3	0	1000	1	51	12:06:55	282974	0	0	0	0	0	0	0	0	0	0	0	0	0	0	0	0	0	0	0	0	0	0		1	0	0	0	0	0	0	0
020713	12:06:55	1	Trial2BackEng	N	3	0	1000	1	52	12:06:55	284490	0	0	0	0	0	0	0	0	0	0	0	0	0	0	0	0	0	0	0	0	0	0		1	0	0	0	0	0	0	0
020713	12:06:55	1	Trial2BackEng	Y	3	0	1000	0	52	12:06:55	286006	0	0	0	0	0	0	0	0	0	0	0	0	0	0	0	0	0	0	0	0	0	0		1	0	0	0	0	0	0	0
020713	12:06:55	1	Trial2BackEng	N	3	0	1000	1	53	12:06:55	287522	0	0	0	0	0	0	0	0	0	0	0	0	0	0	0	0	0	0	0	0	0	0		1	0	0	0	0	0	0	0
020713	12:06:55	1	Trial2BackEng	N	3	0	1000	1	54	12:06:55	289038	0	0	0	0	0	0	0	0	0	0	0	0	0	0	0	0	0	0	0	0	0	0		1	0	0	0	0	0	0	0
020713	12:06:55	1	Trial2BackEng	N	3	0	1000	1	55	12:06:55	290554	0	0	0	0	0	0	0	0	0	0	0	0	0	0	0	0	0	0	0	0	0	0		1	0	0	0	0	0	0	0
020713	12:06:55	1	Trial2BackEng	N	3	0	1000	1	56	12:06:55	292070	0	0	0	0	0	0	0	0	0	0	0	0	0	0	0	0	0	0	0	0	0	0		1	0	0	0	0	0	0	0
020713	12:06:55	1	Trial2BackEng	N	3	0	1000	1	57	12:06:55	293586	0	0	0	0	0	0	0	0	0	0	0	0	0	0	0	0	0	0	0	0	0	0		1	0	0	0	0	0	0	0
020713	12:06:55	1	Trial2BackEng	N	3	0	1000	1	58	12:06:55	295102	0	0	0	0	0	0	0	0	0	0	0	0	0	0	0	0	0	0	0	0	0	0		1	0	0	0	0	0	0	0
020713	12:06:55	1	Trial2BackEng	N	3	0	1000	1	59	12:06:55	296619	0	0	0	0	0	0	0	0	0	0	0	0	0	0	0	0	0	0	0	0	0	0		1	0	0	0	0	0	0	0
020713	12:06:55	1	Trial2BackEng	N	3	0	1000	1	60	12:06:55	298135	0	0	0	0	0	0	0	0	0	0	0	0	0	0	0	0	0	0	0	0	0	0		1	0	0	0	0	0	0	0
020713	12:06:55	1	Trial2BackEng	N	3	0	1000	1	61	12:06:55	299651	0	0	0	0	0	0	0	0	0	0	0	0	0	0	0	0	0	0	0	0	0	0		1	0	0	0	0	0	0	0
020713	12:06:55	1	Trial2BackEng	N	3	0	1000	1	62	12:06:55	301167	0	0	0	0	0	0	0	0	0	0	0	0	0	0	0	0	0	0	0	0	0	0		1	0	0	0	0	0	0	0
020713	12:06:55	1	Trial2BackEng	Y	3	0	1000	0	62	12:06:55	302683	0	0	0	0	0	0	0	0	0	0	0	0	0	0	0	0	0	0	0	0	0	0		1	0	0	0	0	0	0	0
020713	12:06:55	1	Trial2BackEng	N	3	0	1000	1	63	12:06:55	304199	0	0	0	0	0	0	0	0	0	0	0	0	0	0	0	0	0	0	0	0	0	0		1	0	0	0	0	0	0	0
020713	12:06:55	1	Trial2BackEng	N	3	0	1000	1	64	12:06:55	305715	0	0	0	0	0	0	0	0	0	0	0	0	0	0	0	0	0	0	0	0	0	0		1	0	0	0	0	0	0	0
020713	12:06:55	1	Trial2BackEng	N	3	0	1000	1	65	12:06:55	307231	0	0	0	0	0	0	0	0	0	0	0	0	0	0	0	0	0	0	0	0	0	0		1	0	0	0	0	0	0	0
020713	12:06:55	1	Trial2BackEng	Y	3	0	1000	0	65	12:06:55	308748	0	0	0	0	0	0	0	0	0	0	0	0	0	0	0	0	0	0	0	0	0	0		1	0	0	0	0	0	0	0
020713	12:06:55	1	Trial2BackEng	N	3	0	1000	1	66	12:06:55	310264	0	0	0	0	0	0	0	0	0	0	0	0	0	0	0	0	0	0	0	0	0	0		1	0	0	0	0	0	0	0
020713	12:06:55	1	Trial2BackEng	N	3	0	1000	1	67	12:06:55	311780	0	0	0	0	0	0	0	0	0	0	0	0	0	0	0	0	0	0	0	0	0	0		1	0	0	0	0	0	0	0
020713	12:06:55	1	Trial2BackEng	N	3	0	1000	1	68	12:06:55	313296	0	0	0	0	0	0	0	0	0	0	0	0	0	0	0	0	0	0	0	0	0	0		1	0	0	0	0	0	0	0
020713	12:06:55	1	Trial2BackEng	N	3	0	1000	1	69	12:06:55	314812	0	0	0	0	0	0	0	0	0	0	0	0	0	0	0	0	0	0	0	0	0	0		1	0	0	0	0	0	0	0
020713	12:06:55	1	Trial2BackEng	N	3	0	1000	1	70	12:06:55	316328	0	0	0	0	0	0	0	0	0	0	0	0	0	0	0	0	0	0	0	0	0	0		1	0	0	0	0	0	0	0
020713	12:06:55	1	Trial2BackEng	Y	3	0	1000	0	70	12:06:55	317844	0	0	0	0	0	0	0	0	0	0	0	0	0	0	0	0	0	0	0	0	0	0		1	0	0	0	0	0	0	0
020713	12:06:55	1	Trial2BackEng	N	3	0	1000	1	71	12:06:55	319360	0	0	0	0	0	0	0	0	0	0	0	0	0	0	0	0	0	0	0	0	0	0		1	0	0	0	0	0	0	0
020713	12:06:55	1	Trial2BackEng	N	3	0	1000	1	72	12:06:55	320876	0	0	0	0	0	0	0	0	0	0	0	0	0	0	0	0	0	0	0	0	0	0		1	0	0	0	0	0	0	0
020713	12:06:55	1	Trial2BackEng	N	3	0	1000	1	73	12:06:55	322393	0	0	0	0	0	0	0	0	0	0	0	0	0	0	0	0	0	0	0	0	0	0		1	0	0	0	0	0	0	0
020713	12:06:55	1	Trial2BackEng	N	3	0	1000	1	74	12:06:55	323909	0	0	0	0	0	0	0	0	0	0	0	0	0	0	0	0	0	0	0	0	0	0		1	0	0	0	0	0	0	0
020713	12:06:55	1	Trial2BackEng	N	3	0	1000	1	75	12:06:55	325425	0	0	0	0	0	0	0	0	0	0	0	0	0	0	0	0	0	0	0	0	0	0		1	0	0	0	0	0	0	0
020713	12:06:55	1	Trial2BackEng	N	3	0	1000	1	76	12:06:55	326941	0	0	0	0	0	0	0	0	0	0	0	0	0	0	0	0	0	0	0	0	0	0		1	0	0	0	0	0	0	0
020713	12:06:55	1	Trial2BackEng	N	3	0	1000	1	77	12:06:55	328457	0	0	0	0	0	0	0	0	0	0	0	0	0	0	0	0	0	0	0	0	0	0		1	0	0	0	0	0	0	0
020713	12:06:55	1	Trial2BackEng	N	3	0	1000	1	78	12:06:55	329973	0	0	0	0	0	0	0	0	0	0	0	0	0	0	0	0	0	0	0	0	0	0		1	0	0	0	0	0	0	0
020713	12:06:55	1	Trial2BackEng	N	3	0	1000	1	79	12:06:55	331489	0	0	0	0	0	0	0	0	0	0	0	0	0	0	0	0	0	0	0	0	0	0		1	0	0	0	0	0	0	0
020713	12:06:55	1	Trial2BackEng	Y	3	0	1000	0	79	12:06:55	333005	0	0	0	0	0	0	0	0	0	0	0	0	0	0	0	0	0	0	0	0	0	0		1	0	0	0	0	0	0	0
020713	12:06:55	1	Trial2BackEng	N	3	0	1000	1	80	12:06:55	334521	0	0	0	0	0	0	0	0	0	0	0	0	0	0	0	0	0	0	0	0	0	0		1	0	0	0	0	0	0	0
020713	12:06:55	1	Trial2BackEng	N	3	0	1000	1	81	12:06:55	336038	0	0	0	0	0	0	0	0	0	0	0	0	0	0	0	0	0	0	0	0	0	0		1	0	0	0	0	0	0	0
020713	12:06:55	1	Trial2BackEng	N	3	0	1000	1	82	12:06:55	337554	0	0	0	0	0	0	0	0	0	0	0	0	0	0	0	0	0	0	0	0	0	0		1	0	0	0	0	0	0	0
020713	12:06:55	1	Trial2BackEng	N	3	0	1000	1	83	12:06:55	339070	0	0	0	0	0	0	0	0	0	0	0	0	0	0	0	0	0	0	0	0	0	0		1	0	0	0	0	0	0	0
020713	12:06:55	1	Trial2BackEng	N	3	0	1000	1	84	12:06:55	340586	0	0	0	0	0	0	0	0	0	0	0	0	0	0	0	0	0	0	0	0	0	0		1	0	0	0	0	0	0	0
020713	12:06:55	1	Trial2BackEng	N	3	0	1000	1	85	12:06:55	342102	0	0	0	0	0	0	0	0	0	0	0	0	0	0	0	0	0	0	0	0	0	0		1	0	0	0	0	0	0	0
020713	12:06:55	1	Trial2BackEng	N	3	0	1000	1	86	12:06:55	343618	0	0	0	0	0	0	0	0	0	0	0	0	0	0	0	0	0	0	0	0	0	0		1	0	0	0	0	0	0	0
020713	12:06:55	1	Trial2BackEng	N	3	0	1000	1	87	12:06:55	345134	0	0	0	0	0	0	0	0	0	0	0	0	0	0	0	0	0	0	0	0	0	0		1	0	0	0	0	0	0	0
020713	12:06:55	1	Trial2BackEng	Y	3	0	1000	0	87	12:06:55	346650	0	0	0	0	0	0	0	0	0	0	0	0	0	0	0	0	0	0	0	0	0	0		1	0	0	0	0	0	0	0
020713	12:06:55	1	Trial2BackEng	N	3	0	1000	1	88	12:06:55	348167	0	0	0	0	0	0	0	0	0	0	0	0	0	0	0	0	0	0	0	0	0	0		1	0	0	0	0	0	0	0
020713	12:06:55	1	Trial2BackEng	N	3	0	1000	1	89	12:06:55	349683	0	0	0	0	0	0	0	0	0	0	0	0	0	0	0	0	0	0	0	0	0	0		1	0	0	0	0	0	0	0
020713	12:06:55	1	Trial2BackEng	N	3	0	1000	1	90	12:06:55	351199	0	0	0	0	0	0	0	0	0	0	0	0	0	0	0	0	0	0	0	0	0	0		1	0	0	0	0	0	0	0
020713	12:06:55	1	Trial2BackEng	N	3	0	1000	1	91	12:06:55	352715	0	0	0	0	0	0	0	0	0	0	0	0	0	0	0	0	0	0	0	0	0	0		1	0	0	0	0	0	0	0
020713	12:06:55	1	Trial2BackEng	Y	3	0	1000	0	91	12:06:55	354231	0	0	0	0	0	0	0	0	0	0	0	0	0	0	0	0	0	0	0	0	0	0		1	0	0	0	0	0	0	0
020713	12:06:55	1	Trial2BackEng	N	3	0	1000	1	92	12:06:55	355747	0	0	0	0	0	0	0	0	0	0	0	0	0	0	0	0	0	0	0	0	0	0		1	0	0	0	0	0	0	0
020713	12:06:55	1	Trial2BackEng	N	3	0	1000	1	93	12:06:55	357263	0	0	0	0	0	0	0	0	0	0	0	0	0	0	0	0	0	0	0	0	0	0		1	0	0	0	0	0	0	0
020713	12:06:55	1	Trial2BackEng	N	3	0	1000	1	94	12:06:55	358779	0	0	0	0	0	0	0	0	0	0	0	0	0	0	0	0	0	0	0	0	0	0		1	0	0	0	0	0	0	0
020713	12:06:55	1	Trial2BackEng	Y	3	0	1000	0	94	12:06:55	360295	0	0	0	0	0	0	0	0	0	0	0	0	0	0	0	0	0	0	0	0	0	0		1	0	0	0	0	0	0	0
020713	12:06:55	1	Trial2BackEng	N	3	0	1000	1	95	12:06:55	361812	0	0	0	0	0	0	0	0	0	0	0	0	0	0	0	0	0	0	0	0	0	0		1	0	0	0	0	0	0	0
020713	12:06:55	1	Trial2BackEng	N	3	0	1000	1	96	12:06:55	363328	0	0	0	0	0	0	0	0	0	0	0	0	0	0	0	0	0	0	0	0	0	0		1	0	0	0	0	0	0	0
020713	12:06:55	1	Trial2BackEng	N	3	0	1000	1	97	12:06:55	364844	0	0	0	0	0	0	0	0	0	0	0	0	0	0	0	0	0	0	0	0	0	0		1	0	0	0	0	0	0	0
020713	12:06:55	1	Trial2BackEng	N	3	0	1000	1	98	12:06:55	366360	0	0	0	0	0	0	0	0	0	0	0	0	0	0	0	0	0	0	0	0	0	0		1	0	0	0	0	0	0	0
020713	12:06:55	1	Trial2BackEng	N	3	0	1000	1	99	12:06:55	367876	0	0	0	0	0	0	0	0	0	0	0	0	0	0	0	0	0	0	0	0	0	0		1	0	0	0	0	0	0	0
020713	12:06:55	1	Trial2BackEng	Y	3	0	1000	0	99	12:06:55	369392	0	0	0	0	0	0	0	0	0	0	0	0	0	0	0	0	0	0	0	0	0	0		1	0	0	0	0	0	0	0
020713	12:06:55	1	Trial2BackEng	N	3	0	1000	1	100	12:06:55	370908	0	0	0	0	0	0	0	0	0	0	0	0	0	0	0	0	0	0	0	0	0	0		1	0	0	0	0	0	0	0
020713	12:06:55	1	Trial2BackEng	N	3	0	1000	1	101	12:06:55	372424	0	0	0	0	0	0	0	0	0	0	0	0	0	0	0	0	0	0	0	0	0	0		1	0	0	0	0	0	0	0
020713	12:06:55	1	Trial2BackEng	N	3	0	1000	1	102	12:06:55	373941	0	0	0	0	0	0	0	0	0	0	0	0	0	0	0	0	0	0	0	0	0	0		1	0	0	0	0	0	0	0
020713	12:06:55	1	Trial2BackEng	Y	3	0	1000	0	102	12:06:55	375457	0	0	0	0	0	0	0	0	0	0	0	0	0	0	0	0	0	0	0	0	0	0		1	0	0	0	0	0	0	0
020713	12:06:55	1	Memory1RBaseline	Score	5	Done	5390	0	102	12:06:55	424222	0	0	0	0	0	0	0	0	0	0	0	0	0	0	0	0	0	0	0	0	0	0		1	0	0	0	0	0	0	0
020713	12:06:55	1	Memory2RBaseline	Score2	5	Done	4269265	0	102	12:06:55	4722590	0	0	0	0	0	0	0	0	0	0	0	0	0	0	0	0	0	0	0	0	0	0		1	0	0	0	0	0	0	0
020713	12:06:55	1	Memory3RBaseline	Score3	5	Done	8436	0	102	12:06:55	4782801	0	0	0	0	0	0	0	0	0	0	0	0	0	0	0	0	0	0	0	0	0	0		1	0	0	0	0	0	0	0
020713	12:06:55	1	LoriaEngLH3	Stop	6		2803	0	102	12:06:55	5021413	0	0	0	0	0	0	0	0	0	0	0	0	0	0	0	0	0	0	0	0	0	0		1	0	0	0	0	0	0	0
020713	12:06:55	1	EngTrail	Trails	7	1Trails	1521	0	102	12:06:55	5025811	0	0	0	0	0	0	0	0	0	0	0	0	0	0	0	0	0	0	0	0	0	0		1	0	0	0	0	0	0	0
020713	12:06:55	1	Serial7EngBaseline	Serial7EngBaseline	8		1378	0	102	12:06:55	5031892	0	0	0	0	0	0	0	0	0	0	0	0	0	0	0	0	0	0	0	0	0	0		1	0	0	0	0	0	0	0
020713	12:06:55	1	Serial7EngBaseline	Serial7EngBaseline	8		877	0	102	12:06:55	5032792	0	0	0	0	0	0	0	0	0	0	0	0	0	0	0	0	0	0	0	0	0	0		1	0	0	0	0	0	0	0
020713	12:06:55	1	Serial7EngBaseline	Serial7EngBaseline	8		478	0	102	12:06:55	5033292	0	0	0	0	0	0	0	0	0	0	0	0	0	0	0	0	0	0	0	0	0	0		1	0	0	0	0	0	0	0
020713	12:06:55	1	Serial7EngBaseline	Serial7EngBaseline	8		416	0	102	12:06:55	5033725	0	0	0	0	0	0	0	0	0	0	0	0	0	0	0	0	0	0	0	0	0	0		1	0	0	0	0	0	0	0
020713	12:06:55	1	Serial7EngBaseline	Serial7EngBaseline	8		468	0	102	12:06:55	5034209	0	0	0	0	0	0	0	0	0	0	0	0	0	0	0	0	0	0	0	0	0	0		1	0	0	0	0	0	0	0
020713	12:06:55	1	corsiblockEngFwrd	recallseqEngFwrd	9	doneCorsiEng	4802	0	102	12:06:55	5045621	0	0	0	0	0	0	0	0	0	0	0	0	0	0	0	0	0	0	0	0	0	0		1	0	0	0	0	0	0	0
020713	12:06:55	1	corsiblockEngFwrd	recallseqEngFwrd	9	doneCorsiEng	2451	0	102	12:06:55	5053269	0	0	0	0	0	0	0	0	0	0	0	0	0	0	0	0	0	0	0	0	0	0		1	0	0	0	0	0	0	0
020713	12:06:55	1	corsiblockEngRev	recallseqEngRev	10	doneCorsiEng	1924	0	102	12:06:55	5085007	0	0	0	0	0	0	0	0	0	0	0	0	0	0	0	0	0	0	0	0	0	0		1	0	0	0	0	0	0	0
020713	12:06:55	1	corsiblockEngRev	recallseqEngRev	10	doneCorsiEng	2324	0	102	12:06:55	5092522	0	0	0	0	0	0	0	0	0	0	0	0	0	0	0	0	0	0	0	0	0	0		1	0	0	0	0	0	0	0
020713	12:06:55	1	testEngBaseline	WordsEngBaseline	11	1EngBaseline	3380	0	102	12:06:55	5100936	0	1	0	0	0	0	0	0	0	0	0	0	0	0	0	0	0	0	0	0	0	0		1	0	0	0	0	0	0	0
020713	12:06:55	1	testEngBaseline	WordsEngBaseline	11	2EngBaseline	542	0	102	12:06:55	5101569	0	1	1	0	0	0	0	0	0	0	0	0	0	0	0	0	0	0	0	0	0	0		1	0	0	0	0	0	0	0
020713	12:06:55	1	testEngBaseline	WordsEngBaseline	11	3EngBaseline	606	0	102	12:06:55	5102267	0	1	1	1	0	0	0	0	0	0	0	0	0	0	0	0	0	0	0	0	0	0		1	0	0	0	0	0	0	0
020713	12:06:55	1	testEngBaseline	WordsEngBaseline	11	4EngBaseline	592	0	102	12:06:55	5102950	0	1	1	1	1	0	0	0	0	0	0	0	0	0	0	0	0	0	0	0	0	0		1	0	0	0	0	0	0	0
020713	12:06:55	1	testEngBaseline	WordsEngBaseline	11	5EngBaseline	452	0	102	12:06:55	5103500	0	1	1	1	1	1	0	0	0	0	0	0	0	0	0	0	0	0	0	0	0	0		1	0	0	0	0	0	0	0
020713	12:06:55	1	testEngBaseline	WordsEngBaseline	11	6EngBaseline	621	0	102	12:06:55	5104216	0	1	1	1	1	1	1	0	0	0	0	0	0	0	0	0	0	0	0	0	0	0		1	0	0	0	0	0	0	0
020713	12:06:55	1	testEngBaseline	WordsEngBaseline	11	7EngBaseline	462	0	102	12:06:55	5104766	0	1	1	1	1	1	1	1	0	0	0	0	0	0	0	0	0	0	0	0	0	0		1	0	0	0	0	0	0	0
020713	12:06:55	1	testEngBaseline	WordsEngBaseline	11	8EngBaseline	426	0	102	12:06:55	5105283	0	1	1	1	1	1	1	1	1	0	0	0	0	0	0	0	0	0	0	0	0	0		1	0	0	0	0	0	0	0
020713	12:06:55	1	testEngBaseline	WordsEngBaseline	11	DoneEngBaseline	632	0	102	12:06:55	5106016	0	1	1	1	1	1	1	1	1	0	0	0	0	0	0	0	0	0	0	0	0	0		1	0	0	0	0	0	0	0
020713	12:06:55	1	DigitSpanFwrdEngBaseline	Score1FwrdEngBaseline	12	DS1	7598	0	102	12:06:55	5176607	0	1	1	1	1	1	1	1	1	0	0	0	0	0	0	0	0	0	0	0	0	0		1	0	0	0	0	0	0	0
020713	12:06:55	1	DigitSpanFwrdEngBaseline	Gate1FwrdEngBaseline	12	0	1	0	102	12:06:55	5176612	0	1	1	1	1	1	1	1	1	3	0	0	0	0	0	0	0	0	0	0	0	0		1	0	0	0	0	0	0	0
020713	12:06:55	1	DigitSpanFwrdEngBaseline	Score2FwrdEngBaseline	12	DS1	1468	0	102	12:06:55	5182938	0	1	1	1	1	1	1	1	1	3	0	0	0	0	0	0	0	0	0	0	0	0		1	0	0	0	0	0	0	0
020713	12:06:55	1	DigitSpanFwrdEngBaseline	Gate3FwrdEngBaseline	12	0	1	0	102	12:06:55	5182942	0	1	1	1	1	1	1	1	1	4	0	0	0	0	0	0	0	0	0	0	0	0		1	0	0	0	0	0	0	0
020713	12:06:55	1	DigitSpanFwrdEngBaseline	Score3FwrdEngBaseline	12	DS1	1948	0	102	12:06:55	5191768	0	1	1	1	1	1	1	1	1	4	0	0	0	0	0	0	0	0	0	0	0	0		1	0	0	0	0	0	0	0
020713	12:06:55	1	DigitSpanFwrdEngBaseline	Gate5FwrdEngBaseline	12	0	1	0	102	12:06:55	5191772	0	1	1	1	1	1	1	1	1	5	0	0	0	0	0	0	0	0	0	0	0	0		1	0	0	0	0	0	0	0
020713	12:06:55	1	DigitSpanFwrdEngBaseline	Score4FwrdEngBaseline	12	DS2	1707	0	102	12:06:55	5202097	0	1	1	1	1	1	1	1	1	5	0	0	0	0	0	0	0	0	0	0	0	0		1	0	0	0	0	0	0	0
020713	12:06:55	1	DigitSpanFwrdEngBaseline	Gate7FwrdEngBaseline	12	0	1	0	102	12:06:55	5202102	0	1	1	1	1	1	1	1	1	5	0	0	0	0	0	0	0	0	0	0	0	0		1	0	0	0	0	0	0	0
020713	12:06:55	1	DigitSpanFwrdEngBaseline	Score44FwrdEngBaseline	12	DS2	2555	0	102	12:06:55	5213360	0	1	1	1	1	1	1	1	1	5	0	0	0	0	0	0	0	0	0	0	0	0		1	0	0	0	0	0	0	0
020713	12:06:55	1	DigitSpanEngBaseline	Score1EngBaseline	13	DS2	8572	0	102	12:06:55	5226639	0	1	1	1	1	1	1	1	1	5	0	0	0	0	0	0	0	0	0	0	0	0		1	0	0	0	0	0	0	0
020713	12:06:55	1	DigitSpanEngBaseline	Gate1EngBaseline	13	0	1	0	102	12:06:55	5226643	0	1	1	1	1	1	1	1	1	5	0	0	0	0	0	0	0	0	0	0	0	0		1	0	0	0	0	0	0	0
020713	12:06:55	1	DigitSpanEngBaseline	Score11EngBaseline	13	DS2	5292	0	102	12:06:55	5234519	0	1	1	1	1	1	1	1	1	5	0	0	0	0	0	0	0	0	0	0	0	0		1	0	0	0	0	0	0	0
020713	12:06:55	1	Trial	ResponseIL	14	0	175	0	102	12:06:55	5271555	0	1	1	1	1	1	1	1	1	5	0	0	0	0	0	0	0	0	0	0	0	0		1	0	0	0	0	0	0	0
020713	12:06:55	1	Trial	IncongruentLeft	14	0	1000	0	102	12:06:55	5272605	0	1	1	1	1	1	1	1	1	5	0	0	0	0	0	0	0	0	0	0	0	0		1	0	0	0	0	0	0	0
020713	12:06:55	1	Trial	ResponseCR	14	0	175	0	102	12:06:55	5273371	0	1	1	1	1	1	1	1	1	5	0	0	0	0	0	0	0	0	0	0	0	0		1	0	0	0	0	0	0	0
020713	12:06:55	1	Trial	CongruentRight	14	0	1000	0	102	12:06:55	5274421	0	1	1	1	1	1	1	1	1	5	0	0	0	0	0	0	0	0	0	0	0	0		1	0	0	0	0	0	0	0
020713	12:06:55	1	Trial	ResponseIR	14	0	175	0	102	12:06:55	5275187	0	1	1	1	1	1	1	1	1	5	0	0	0	0	0	0	0	0	0	0	0	0		1	0	0	0	0	0	0	0
020713	12:06:55	1	Trial	IncongruentRight	14	0	1000	0	102	12:06:55	5276238	0	1	1	1	1	1	1	1	1	5	0	0	0	0	0	0	0	0	0	0	0	0		1	0	0	0	0	0	0	0
020713	12:06:55	1	Trial	ResponseCL	14	0	175	0	102	12:06:55	5277003	0	1	1	1	1	1	1	1	1	5	0	0	0	0	0	0	0	0	0	0	0	0		1	0	0	0	0	0	0	0
020713	12:06:55	1	Trial	CongruentLeft	14	0	1000	0	102	12:06:55	5278053	0	1	1	1	1	1	1	1	1	5	0	0	0	0	0	0	0	0	0	0	0	0		1	0	0	0	0	0	0	0
020713	12:06:55	1	Trial	ResponseCR	14	0	175	0	102	12:06:55	5278819	0	1	1	1	1	1	1	1	1	5	0	0	0	0	0	0	0	0	0	0	0	0		1	0	0	0	0	0	0	0
020713	12:06:55	1	Trial	CongruentRight	14	0	1000	0	102	12:06:55	5279885	0	1	1	1	1	1	1	1	1	5	0	0	0	0	0	0	0	0	0	0	0	0		1	0	0	0	0	0	0	0
020713	12:06:55	1	Trial	ResponseIR	14	0	175	0	102	12:06:55	5280652	0	1	1	1	1	1	1	1	1	5	0	0	0	0	0	0	0	0	0	0	0	0		1	0	0	0	0	0	0	0
020713	12:06:55	1	Trial	IncongruentRight	14	0	1000	0	102	12:06:55	5281701	0	1	1	1	1	1	1	1	1	5	0	0	0	0	0	0	0	0	0	0	0	0		1	0	0	0	0	0	0	0
020713	12:06:55	1	Trial	ResponseCL	14	0	175	0	102	12:06:55	5282468	0	1	1	1	1	1	1	1	1	5	0	0	0	0	0	0	0	0	0	0	0	0		1	0	0	0	0	0	0	0
020713	12:06:55	1	Trial	CongruentLeft	14	0	1000	0	102	12:06:55	5283517	0	1	1	1	1	1	1	1	1	5	0	0	0	0	0	0	0	0	0	0	0	0		1	0	0	0	0	0	0	0
020713	12:06:55	1	Trial	ResponseIL	14	0	175	0	102	12:06:55	5284284	0	1	1	1	1	1	1	1	1	5	0	0	0	0	0	0	0	0	0	0	0	0		1	0	0	0	0	0	0	0
020713	12:06:55	1	Trial	IncongruentLeft	14	0	1000	0	102	12:06:55	5285335	0	1	1	1	1	1	1	1	1	5	0	0	0	0	0	0	0	0	0	0	0	0		1	0	0	0	0	0	0	0
020713	12:06:55	1	Trial	ResponseIL	14	0	175	0	102	12:06:55	5286100	0	1	1	1	1	1	1	1	1	5	0	0	0	0	0	0	0	0	0	0	0	0		1	0	0	0	0	0	0	0
020713	12:06:55	1	Trial	IncongruentLeft	14	0	1000	0	102	12:06:55	5287150	0	1	1	1	1	1	1	1	1	5	0	0	0	0	0	0	0	0	0	0	0	0		1	0	0	0	0	0	0	0
020713	12:06:55	1	Trial	ResponseCR	14	0	175	0	102	12:06:55	5287916	0	1	1	1	1	1	1	1	1	5	0	0	0	0	0	0	0	0	0	0	0	0		1	0	0	0	0	0	0	0
020713	12:06:55	1	Trial	CongruentRight	14	0	1000	0	102	12:06:55	5288967	0	1	1	1	1	1	1	1	1	5	0	0	0	0	0	0	0	0	0	0	0	0		1	0	0	0	0	0	0	0
020713	12:06:55	1	Trial	ResponseIR	14	0	175	0	102	12:06:55	5289732	0	1	1	1	1	1	1	1	1	5	0	0	0	0	0	0	0	0	0	0	0	0		1	0	0	0	0	0	0	0
020713	12:06:55	1	Trial	IncongruentRight	14	0	1000	0	102	12:06:55	5290782	0	1	1	1	1	1	1	1	1	5	0	0	0	0	0	0	0	0	0	0	0	0		1	0	0	0	0	0	0	0
020713	12:06:55	1	Trial	ResponseCL	14	0	175	0	102	12:06:55	5291548	0	1	1	1	1	1	1	1	1	5	0	0	0	0	0	0	0	0	0	0	0	0		1	0	0	0	0	0	0	0
020713	12:06:55	1	Trial	CongruentLeft	14	0	1000	0	102	12:06:55	5292598	0	1	1	1	1	1	1	1	1	5	0	0	0	0	0	0	0	0	0	0	0	0		1	0	0	0	0	0	0	0
020713	12:06:55	1	Trial	ResponseCR	14	0	175	0	102	12:06:55	5293364	0	1	1	1	1	1	1	1	1	5	0	0	0	0	0	0	0	0	0	0	0	0		1	0	0	0	0	0	0	0
020713	12:06:55	1	Trial	CongruentRight	14	0	1000	0	102	12:06:55	5294415	0	1	1	1	1	1	1	1	1	5	0	0	0	0	0	0	0	0	0	0	0	0		1	0	0	0	0	0	0	0
020713	12:06:55	1	Trial	ResponseIL	14	0	175	0	102	12:06:55	5295180	0	1	1	1	1	1	1	1	1	5	0	0	0	0	0	0	0	0	0	0	0	0		1	0	0	0	0	0	0	0
020713	12:06:55	1	Trial	IncongruentLeft	14	0	1000	0	102	12:06:55	5296230	0	1	1	1	1	1	1	1	1	5	0	0	0	0	0	0	0	0	0	0	0	0		1	0	0	0	0	0	0	0
020713	12:06:55	1	Trial	ResponseIR	14	0	175	0	102	12:06:55	5296997	0	1	1	1	1	1	1	1	1	5	0	0	0	0	0	0	0	0	0	0	0	0		1	0	0	0	0	0	0	0
020713	12:06:55	1	Trial	IncongruentRight	14	0	1000	0	102	12:06:55	5298047	0	1	1	1	1	1	1	1	1	5	0	0	0	0	0	0	0	0	0	0	0	0		1	0	0	0	0	0	0	0
020713	12:06:55	1	Trial	ResponseCR	14	0	175	0	102	12:06:55	5298812	0	1	1	1	1	1	1	1	1	5	0	0	0	0	0	0	0	0	0	0	0	0		1	0	0	0	0	0	0	0
020713	12:06:55	1	Trial	CongruentRight	14	0	1000	0	102	12:06:55	5299862	0	1	1	1	1	1	1	1	1	5	0	0	0	0	0	0	0	0	0	0	0	0		1	0	0	0	0	0	0	0
020713	12:06:55	1	Trial	ResponseCL	14	0	175	0	102	12:06:55	5300628	0	1	1	1	1	1	1	1	1	5	0	0	0	0	0	0	0	0	0	0	0	0		1	0	0	0	0	0	0	0
020713	12:06:55	1	Trial	CongruentLeft	14	0	1000	0	102	12:06:55	5301678	0	1	1	1	1	1	1	1	1	5	0	0	0	0	0	0	0	0	0	0	0	0		1	0	0	0	0	0	0	0
020713	12:06:55	1	Trial	ResponseCR	14	0	175	0	102	12:06:55	5302444	0	1	1	1	1	1	1	1	1	5	0	0	0	0	0	0	0	0	0	0	0	0		1	0	0	0	0	0	0	0
020713	12:06:55	1	Trial	CongruentRight	14	0	1000	0	102	12:06:55	5303494	0	1	1	1	1	1	1	1	1	5	0	0	0	0	0	0	0	0	0	0	0	0		1	0	0	0	0	0	0	0
020713	12:06:55	1	Trial	ResponseIR	14	0	175	0	102	12:06:55	5304260	0	1	1	1	1	1	1	1	1	5	0	0	0	0	0	0	0	0	0	0	0	0		1	0	0	0	0	0	0	0
020713	12:06:55	1	Trial	IncongruentRight	14	0	1000	0	102	12:06:55	5305310	0	1	1	1	1	1	1	1	1	5	0	0	0	0	0	0	0	0	0	0	0	0		1	0	0	0	0	0	0	0
020713	12:06:55	1	Trial	ResponseIL	14	0	175	0	102	12:06:55	5306076	0	1	1	1	1	1	1	1	1	5	0	0	0	0	0	0	0	0	0	0	0	0		1	0	0	0	0	0	0	0
020713	12:06:55	1	Trial	IncongruentLeft	14	0	1000	0	102	12:06:55	5307126	0	1	1	1	1	1	1	1	1	5	0	0	0	0	0	0	0	0	0	0	0	0		1	0	0	0	0	0	0	0
020713	12:06:55	1	Trial	ResponseIL	14	0	175	0	102	12:06:55	5307892	0	1	1	1	1	1	1	1	1	5	0	0	0	0	0	0	0	0	0	0	0	0		1	0	0	0	0	0	0	0
020713	12:06:55	1	Trial	IncongruentLeft	14	0	1000	0	102	12:06:55	5308942	0	1	1	1	1	1	1	1	1	5	0	0	0	0	0	0	0	0	0	0	0	0		1	0	0	0	0	0	0	0
020713	12:06:55	1	Trial	ResponseCL	14	0	175	0	102	12:06:55	5309708	0	1	1	1	1	1	1	1	1	5	0	0	0	0	0	0	0	0	0	0	0	0		1	0	0	0	0	0	0	0
020713	12:06:55	1	Trial	CongruentLeft	14	0	1000	0	102	12:06:55	5310758	0	1	1	1	1	1	1	1	1	5	0	0	0	0	0	0	0	0	0	0	0	0		1	0	0	0	0	0	0	0
020713	12:06:55	1	Trial	ResponseCR	14	0	175	0	102	12:06:55	5311525	0	1	1	1	1	1	1	1	1	5	0	0	0	0	0	0	0	0	0	0	0	0		1	0	0	0	0	0	0	0
020713	12:06:55	1	Trial	CongruentRight	14	0	1000	0	102	12:06:55	5312574	0	1	1	1	1	1	1	1	1	5	0	0	0	0	0	0	0	0	0	0	0	0		1	0	0	0	0	0	0	0
020713	12:06:55	1	Trial	ResponseIL	14	0	175	0	102	12:06:55	5313340	0	1	1	1	1	1	1	1	1	5	0	0	0	0	0	0	0	0	0	0	0	0		1	0	0	0	0	0	0	0
020713	12:06:55	1	Trial	IncongruentLeft	14	0	1000	0	102	12:06:55	5314390	0	1	1	1	1	1	1	1	1	5	0	0	0	0	0	0	0	0	0	0	0	0		1	0	0	0	0	0	0	0
020713	12:06:55	1	Trial	ResponseIR	14	0	175	0	102	12:06:55	5315156	0	1	1	1	1	1	1	1	1	5	0	0	0	0	0	0	0	0	0	0	0	0		1	0	0	0	0	0	0	0
020713	12:06:55	1	Trial	IncongruentRight	14	0	1000	0	102	12:06:55	5316206	0	1	1	1	1	1	1	1	1	5	0	0	0	0	0	0	0	0	0	0	0	0		1	0	0	0	0	0	0	0
020713	12:06:55	1	Trial	ResponseCR	14	0	175	0	102	12:06:55	5316972	0	1	1	1	1	1	1	1	1	5	0	0	0	0	0	0	0	0	0	0	0	0		1	0	0	0	0	0	0	0
020713	12:06:55	1	Trial	CongruentRight	14	0	1000	0	102	12:06:55	5318022	0	1	1	1	1	1	1	1	1	5	0	0	0	0	0	0	0	0	0	0	0	0		1	0	0	0	0	0	0	0
020713	12:06:55	1	Trial	ResponseCL	14	0	175	0	102	12:06:55	5318789	0	1	1	1	1	1	1	1	1	5	0	0	0	0	0	0	0	0	0	0	0	0		1	0	0	0	0	0	0	0
020713	12:06:55	1	Trial	CongruentLeft	14	0	1000	0	102	12:06:55	5319838	0	1	1	1	1	1	1	1	1	5	0	0	0	0	0	0	0	0	0	0	0	0		1	0	0	0	0	0	0	0
020713	12:06:55	1	Trial	ResponseIR	14	0	175	0	102	12:06:55	5320604	0	1	1	1	1	1	1	1	1	5	0	0	0	0	0	0	0	0	0	0	0	0		1	0	0	0	0	0	0	0
020713	12:06:55	1	Trial	IncongruentRight	14	0	1000	0	102	12:06:55	5321654	0	1	1	1	1	1	1	1	1	5	0	0	0	0	0	0	0	0	0	0	0	0		1	0	0	0	0	0	0	0
020713	12:06:55	1	Trial	ResponseIL	14	0	175	0	102	12:06:55	5322420	0	1	1	1	1	1	1	1	1	5	0	0	0	0	0	0	0	0	0	0	0	0		1	0	0	0	0	0	0	0
020713	12:06:55	1	Trial	IncongruentLeft	14	0	1000	0	102	12:06:55	5323470	0	1	1	1	1	1	1	1	1	5	0	0	0	0	0	0	0	0	0	0	0	0		1	0	0	0	0	0	0	0
020713	12:06:55	1	Trial	ResponseIR	14	0	175	0	102	12:06:55	5324236	0	1	1	1	1	1	1	1	1	5	0	0	0	0	0	0	0	0	0	0	0	0		1	0	0	0	0	0	0	0
020713	12:06:55	1	Trial	IncongruentRight	14	0	1000	0	102	12:06:55	5325286	0	1	1	1	1	1	1	1	1	5	0	0	0	0	0	0	0	0	0	0	0	0		1	0	0	0	0	0	0	0
020713	12:06:55	1	Trial	ResponseCR	14	0	175	0	102	12:06:55	5326052	0	1	1	1	1	1	1	1	1	5	0	0	0	0	0	0	0	0	0	0	0	0		1	0	0	0	0	0	0	0
020713	12:06:55	1	Trial	CongruentRight	14	0	1000	0	102	12:06:55	5327102	0	1	1	1	1	1	1	1	1	5	0	0	0	0	0	0	0	0	0	0	0	0		1	0	0	0	0	0	0	0
020713	12:06:55	1	Trial	ResponseIL	14	0	175	0	102	12:06:55	5327885	0	1	1	1	1	1	1	1	1	5	0	0	0	0	0	0	0	0	0	0	0	0		1	0	0	0	0	0	0	0
020713	12:06:55	1	Trial	IncongruentLeft	14	0	1000	0	102	12:06:55	5328935	0	1	1	1	1	1	1	1	1	5	0	0	0	0	0	0	0	0	0	0	0	0		1	0	0	0	0	0	0	0
020713	12:06:55	1	Trial	ResponseCL	14	0	175	0	102	12:06:55	5329701	0	1	1	1	1	1	1	1	1	5	0	0	0	0	0	0	0	0	0	0	0	0		1	0	0	0	0	0	0	0
020713	12:06:55	1	Trial	CongruentLeft	14	0	1000	0	102	12:06:55	5330751	0	1	1	1	1	1	1	1	1	5	0	0	0	0	0	0	0	0	0	0	0	0		1	0	0	0	0	0	0	0
020713	12:06:55	1	Trial	ResponseCR	14	0	175	0	102	12:06:55	5331517	0	1	1	1	1	1	1	1	1	5	0	0	0	0	0	0	0	0	0	0	0	0		1	0	0	0	0	0	0	0
020713	12:06:55	1	Trial	CongruentRight	14	0	1000	0	102	12:06:55	5332567	0	1	1	1	1	1	1	1	1	5	0	0	0	0	0	0	0	0	0	0	0	0		1	0	0	0	0	0	0	0
020713	12:06:55	1	Trial	ResponseIL	14	0	175	0	102	12:06:55	5333333	0	1	1	1	1	1	1	1	1	5	0	0	0	0	0	0	0	0	0	0	0	0		1	0	0	0	0	0	0	0
020713	12:06:55	1	Trial	IncongruentLeft	14	0	1000	0	102	12:06:55	5334383	0	1	1	1	1	1	1	1	1	5	0	0	0	0	0	0	0	0	0	0	0	0		1	0	0	0	0	0	0	0
020713	12:06:55	1	Trial	ResponseIR	14	0	175	0	102	12:06:55	5335149	0	1	1	1	1	1	1	1	1	5	0	0	0	0	0	0	0	0	0	0	0	0		1	0	0	0	0	0	0	0
020713	12:06:55	1	Trial	IncongruentRight	14	0	1000	0	102	12:06:55	5336198	0	1	1	1	1	1	1	1	1	5	0	0	0	0	0	0	0	0	0	0	0	0		1	0	0	0	0	0	0	0
020713	12:06:55	1	Trial	ResponseIR	14	0	175	0	102	12:06:55	5336965	0	1	1	1	1	1	1	1	1	5	0	0	0	0	0	0	0	0	0	0	0	0		1	0	0	0	0	0	0	0
020713	12:06:55	1	Trial	IncongruentRight	14	0	1000	0	102	12:06:55	5338015	0	1	1	1	1	1	1	1	1	5	0	0	0	0	0	0	0	0	0	0	0	0		1	0	0	0	0	0	0	0
020713	12:06:55	1	Trial	ResponseCL	14	0	175	0	102	12:06:55	5338781	0	1	1	1	1	1	1	1	1	5	0	0	0	0	0	0	0	0	0	0	0	0		1	0	0	0	0	0	0	0
020713	12:06:55	1	Trial	CongruentLeft	14	0	1000	0	102	12:06:55	5339831	0	1	1	1	1	1	1	1	1	5	0	0	0	0	0	0	0	0	0	0	0	0		1	0	0	0	0	0	0	0
020713	12:06:55	1	Trial	ResponseIL	14	0	175	0	102	12:06:55	5340597	0	1	1	1	1	1	1	1	1	5	0	0	0	0	0	0	0	0	0	0	0	0		1	0	0	0	0	0	0	0
020713	12:06:55	1	Trial	IncongruentLeft	14	0	1000	0	102	12:06:55	5341647	0	1	1	1	1	1	1	1	1	5	0	0	0	0	0	0	0	0	0	0	0	0		1	0	0	0	0	0	0	0
020713	12:06:55	1	Trial	ResponseCR	14	0	175	0	102	12:06:55	5342413	0	1	1	1	1	1	1	1	1	5	0	0	0	0	0	0	0	0	0	0	0	0		1	0	0	0	0	0	0	0
020713	12:06:55	1	Trial	CongruentRight	14	0	1000	0	102	12:06:55	5343463	0	1	1	1	1	1	1	1	1	5	0	0	0	0	0	0	0	0	0	0	0	0		1	0	0	0	0	0	0	0
020713	12:06:55	1	Trial	ResponseCL	14	0	175	0	102	12:06:55	5344229	0	1	1	1	1	1	1	1	1	5	0	0	0	0	0	0	0	0	0	0	0	0		1	0	0	0	0	0	0	0
020713	12:06:55	1	Trial	CongruentLeft	14	0	1000	0	102	12:06:55	5345279	0	1	1	1	1	1	1	1	1	5	0	0	0	0	0	0	0	0	0	0	0	0		1	0	0	0	0	0	0	0
020713	12:06:55	1	Trial	ResponseIR	14	0	175	0	102	12:06:55	5346045	0	1	1	1	1	1	1	1	1	5	0	0	0	0	0	0	0	0	0	0	0	0		1	0	0	0	0	0	0	0
020713	12:06:55	1	Trial	IncongruentRight	14	0	1000	0	102	12:06:55	5347096	0	1	1	1	1	1	1	1	1	5	0	0	0	0	0	0	0	0	0	0	0	0		1	0	0	0	0	0	0	0
020713	12:06:55	1	Trial	ResponseCR	14	0	175	0	102	12:06:55	5347861	0	1	1	1	1	1	1	1	1	5	0	0	0	0	0	0	0	0	0	0	0	0		1	0	0	0	0	0	0	0
020713	12:06:55	1	Trial	CongruentRight	14	0	1000	0	102	12:06:55	5348911	0	1	1	1	1	1	1	1	1	5	0	0	0	0	0	0	0	0	0	0	0	0		1	0	0	0	0	0	0	0
020713	12:06:55	1	Trial	ResponseIL	14	0	175	0	102	12:06:55	5349677	0	1	1	1	1	1	1	1	1	5	0	0	0	0	0	0	0	0	0	0	0	0		1	0	0	0	0	0	0	0
020713	12:06:55	1	Trial	IncongruentLeft	14	0	1000	0	102	12:06:55	5350727	0	1	1	1	1	1	1	1	1	5	0	0	0	0	0	0	0	0	0	0	0	0		1	0	0	0	0	0	0	0
020713	12:06:55	1	Trial	ResponseCL	14	0	175	0	102	12:06:55	5351493	0	1	1	1	1	1	1	1	1	5	0	0	0	0	0	0	0	0	0	0	0	0		1	0	0	0	0	0	0	0
020713	12:06:55	1	Trial	CongruentLeft	14	0	1000	0	102	12:06:55	5352543	0	1	1	1	1	1	1	1	1	5	0	0	0	0	0	0	0	0	0	0	0	0		1	0	0	0	0	0	0	0
020713	12:06:55	1	Trial	ResponseIL	14	0	175	0	102	12:06:55	5353309	0	1	1	1	1	1	1	1	1	5	0	0	0	0	0	0	0	0	0	0	0	0		1	0	0	0	0	0	0	0
020713	12:06:55	1	Trial	IncongruentLeft	14	0	1000	0	102	12:06:55	5354359	0	1	1	1	1	1	1	1	1	5	0	0	0	0	0	0	0	0	0	0	0	0		1	0	0	0	0	0	0	0
020713	12:06:55	1	Trial	ResponseIR	14	0	175	0	102	12:06:55	5355125	0	1	1	1	1	1	1	1	1	5	0	0	0	0	0	0	0	0	0	0	0	0		1	0	0	0	0	0	0	0
020713	12:06:55	1	Trial	IncongruentRight	14	0	1000	0	102	12:06:55	5356175	0	1	1	1	1	1	1	1	1	5	0	0	0	0	0	0	0	0	0	0	0	0		1	0	0	0	0	0	0	0
020713	12:06:55	1	Trial	ResponseCR	14	0	175	0	102	12:06:55	5356941	0	1	1	1	1	1	1	1	1	5	0	0	0	0	0	0	0	0	0	0	0	0		1	0	0	0	0	0	0	0
020713	12:06:55	1	Trial	CongruentRight	14	0	1000	0	102	12:06:55	5357991	0	1	1	1	1	1	1	1	1	5	0	0	0	0	0	0	0	0	0	0	0	0		1	0	0	0	0	0	0	0
020713	12:06:55	1	Trial	ResponseCL	14	0	175	0	102	12:06:55	5358758	0	1	1	1	1	1	1	1	1	5	0	0	0	0	0	0	0	0	0	0	0	0		1	0	0	0	0	0	0	0
020713	12:06:55	1	Trial	CongruentLeft	14	0	1000	0	102	12:06:55	5359807	0	1	1	1	1	1	1	1	1	5	0	0	0	0	0	0	0	0	0	0	0	0		1	0	0	0	0	0	0	0
020713	12:06:55	1	Trial	ResponseCL	14	0	175	0	102	12:06:55	5360573	0	1	1	1	1	1	1	1	1	5	0	0	0	0	0	0	0	0	0	0	0	0		1	0	0	0	0	0	0	0
020713	12:06:55	1	Trial	CongruentLeft	14	0	1000	0	102	12:06:55	5361623	0	1	1	1	1	1	1	1	1	5	0	0	0	0	0	0	0	0	0	0	0	0		1	0	0	0	0	0	0	0
020713	12:06:55	1	Trial	ResponseIR	14	0	175	0	102	12:06:55	5362389	0	1	1	1	1	1	1	1	1	5	0	0	0	0	0	0	0	0	0	0	0	0		1	0	0	0	0	0	0	0
020713	12:06:55	1	Trial	IncongruentRight	14	0	1000	0	102	12:06:55	5363439	0	1	1	1	1	1	1	1	1	5	0	0	0	0	0	0	0	0	0	0	0	0		1	0	0	0	0	0	0	0
020713	12:06:55	1	Trial	ResponseIL	14	0	175	0	102	12:06:55	5364205	0	1	1	1	1	1	1	1	1	5	0	0	0	0	0	0	0	0	0	0	0	0		1	0	0	0	0	0	0	0
020713	12:06:55	1	Trial	IncongruentLeft	14	0	1000	0	102	12:06:55	5365255	0	1	1	1	1	1	1	1	1	5	0	0	0	0	0	0	0	0	0	0	0	0		1	0	0	0	0	0	0	0
020713	12:06:55	1	Trial	ResponseIR	14	0	175	0	102	12:06:55	5366021	0	1	1	1	1	1	1	1	1	5	0	0	0	0	0	0	0	0	0	0	0	0		1	0	0	0	0	0	0	0
020713	12:06:55	1	Trial	IncongruentRight	14	0	1000	0	102	12:06:55	5367071	0	1	1	1	1	1	1	1	1	5	0	0	0	0	0	0	0	0	0	0	0	0		1	0	0	0	0	0	0	0
020713	12:06:55	1	Trial	ResponseCR	14	0	175	0	102	12:06:55	5367837	0	1	1	1	1	1	1	1	1	5	0	0	0	0	0	0	0	0	0	0	0	0		1	0	0	0	0	0	0	0
020713	12:06:55	1	Trial	CongruentRight	14	0	1000	0	102	12:06:55	5368887	0	1	1	1	1	1	1	1	1	5	0	0	0	0	0	0	0	0	0	0	0	0		1	0	0	0	0	0	0	0
020713	12:06:55	1	Trial	ResponseCR	14	0	175	0	102	12:06:55	5369653	0	1	1	1	1	1	1	1	1	5	0	0	0	0	0	0	0	0	0	0	0	0		1	0	0	0	0	0	0	0
020713	12:06:55	1	Trial	CongruentRight	14	0	1000	0	102	12:06:55	5370703	0	1	1	1	1	1	1	1	1	5	0	0	0	0	0	0	0	0	0	0	0	0		1	0	0	0	0	0	0	0
020713	12:06:55	1	Trial	ResponseIL	14	0	175	0	102	12:06:55	5371469	0	1	1	1	1	1	1	1	1	5	0	0	0	0	0	0	0	0	0	0	0	0		1	0	0	0	0	0	0	0
020713	12:06:55	1	Trial	IncongruentLeft	14	0	1000	0	102	12:06:55	5372519	0	1	1	1	1	1	1	1	1	5	0	0	0	0	0	0	0	0	0	0	0	0		1	0	0	0	0	0	0	0
020713	12:06:55	1	Trial	ResponseCL	14	0	175	0	102	12:06:55	5373285	0	1	1	1	1	1	1	1	1	5	0	0	0	0	0	0	0	0	0	0	0	0		1	0	0	0	0	0	0	0
020713	12:06:55	1	Trial	CongruentLeft	14	0	1000	0	102	12:06:55	5374335	0	1	1	1	1	1	1	1	1	5	0	0	0	0	0	0	0	0	0	0	0	0		1	0	0	0	0	0	0	0
020713	12:06:55	1	Trial	ResponseCR	14	0	175	0	102	12:06:55	5375101	0	1	1	1	1	1	1	1	1	5	0	0	0	0	0	0	0	0	0	0	0	0		1	0	0	0	0	0	0	0
020713	12:06:55	1	Trial	CongruentRight	14	0	1000	0	102	12:06:55	5376151	0	1	1	1	1	1	1	1	1	5	0	0	0	0	0	0	0	0	0	0	0	0		1	0	0	0	0	0	0	0
020713	12:06:55	1	Trial	ResponseCL	14	0	175	0	102	12:06:55	5376917	0	1	1	1	1	1	1	1	1	5	0	0	0	0	0	0	0	0	0	0	0	0		1	0	0	0	0	0	0	0
020713	12:06:55	1	Trial	CongruentLeft	14	0	1000	0	102	12:06:55	5377967	0	1	1	1	1	1	1	1	1	5	0	0	0	0	0	0	0	0	0	0	0	0		1	0	0	0	0	0	0	0
020713	12:06:55	1	Trial	ResponseIR	14	0	175	0	102	12:06:55	5378733	0	1	1	1	1	1	1	1	1	5	0	0	0	0	0	0	0	0	0	0	0	0		1	0	0	0	0	0	0	0
020713	12:06:55	1	Trial	IncongruentRight	14	0	1000	0	102	12:06:55	5379783	0	1	1	1	1	1	1	1	1	5	0	0	0	0	0	0	0	0	0	0	0	0		1	0	0	0	0	0	0	0
020713	12:06:55	1	Trial	ResponseCR	14	0	175	0	102	12:06:55	5380549	0	1	1	1	1	1	1	1	1	5	0	0	0	0	0	0	0	0	0	0	0	0		1	0	0	0	0	0	0	0
020713	12:06:55	1	Trial	CongruentRight	14	0	1000	0	102	12:06:55	5381600	0	1	1	1	1	1	1	1	1	5	0	0	0	0	0	0	0	0	0	0	0	0		1	0	0	0	0	0	0	0
020713	12:06:55	1	Trial	ResponseCL	14	0	175	0	102	12:06:55	5382365	0	1	1	1	1	1	1	1	1	5	0	0	0	0	0	0	0	0	0	0	0	0		1	0	0	0	0	0	0	0
020713	12:06:55	1	Trial	CongruentLeft	14	0	1000	0	102	12:06:55	5383415	0	1	1	1	1	1	1	1	1	5	0	0	0	0	0	0	0	0	0	0	0	0		1	0	0	0	0	0	0	0
020713	12:06:55	1	Trial	ResponseIL	14	0	175	0	102	12:06:55	5384181	0	1	1	1	1	1	1	1	1	5	0	0	0	0	0	0	0	0	0	0	0	0		1	0	0	0	0	0	0	0
020713	12:06:55	1	Trial	IncongruentLeft	14	0	1000	0	102	12:06:55	5385231	0	1	1	1	1	1	1	1	1	5	0	0	0	0	0	0	0	0	0	0	0	0		1	0	0	0	0	0	0	0
020713	12:06:55	1	Trial	ResponseIL	14	0	175	0	102	12:06:55	5385997	0	1	1	1	1	1	1	1	1	5	0	0	0	0	0	0	0	0	0	0	0	0		1	0	0	0	0	0	0	0
020713	12:06:55	1	Trial	IncongruentLeft	14	0	1000	0	102	12:06:55	5387047	0	1	1	1	1	1	1	1	1	5	0	0	0	0	0	0	0	0	0	0	0	0		1	0	0	0	0	0	0	0
020713	12:06:55	1	Trial	ResponseCR	14	0	175	0	102	12:06:55	5387813	0	1	1	1	1	1	1	1	1	5	0	0	0	0	0	0	0	0	0	0	0	0		1	0	0	0	0	0	0	0
020713	12:06:55	1	Trial	CongruentRight	14	0	1000	0	102	12:06:55	5388863	0	1	1	1	1	1	1	1	1	5	0	0	0	0	0	0	0	0	0	0	0	0		1	0	0	0	0	0	0	0
020713	12:06:55	1	Trial	ResponseIR	14	0	175	0	102	12:06:55	5389629	0	1	1	1	1	1	1	1	1	5	0	0	0	0	0	0	0	0	0	0	0	0		1	0	0	0	0	0	0	0
020713	12:06:55	1	Trial	IncongruentRight	14	0	1000	0	102	12:06:55	5390679	0	1	1	1	1	1	1	1	1	5	0	0	0	0	0	0	0	0	0	0	0	0		1	0	0	0	0	0	0	0
020713	12:06:55	1	Trial	ResponseCL	14	0	175	0	102	12:06:55	5391445	0	1	1	1	1	1	1	1	1	5	0	0	0	0	0	0	0	0	0	0	0	0		1	0	0	0	0	0	0	0
020713	12:06:55	1	Trial	CongruentLeft	14	0	1000	0	102	12:06:55	5392495	0	1	1	1	1	1	1	1	1	5	0	0	0	0	0	0	0	0	0	0	0	0		1	0	0	0	0	0	0	0
020713	12:06:55	1	Trial	ResponseIR	14	0	175	0	102	12:06:55	5393261	0	1	1	1	1	1	1	1	1	5	0	0	0	0	0	0	0	0	0	0	0	0		1	0	0	0	0	0	0	0
020713	12:06:55	1	Trial	IncongruentRight	14	0	1000	0	102	12:06:55	5394311	0	1	1	1	1	1	1	1	1	5	0	0	0	0	0	0	0	0	0	0	0	0		1	0	0	0	0	0	0	0
020713	12:06:55	1	Trial	ResponseCR	14	0	175	0	102	12:06:55	5395077	0	1	1	1	1	1	1	1	1	5	0	0	0	0	0	0	0	0	0	0	0	0		1	0	0	0	0	0	0	0
020713	12:06:55	1	Trial	CongruentRight	14	0	1000	0	102	12:06:55	5396127	0	1	1	1	1	1	1	1	1	5	0	0	0	0	0	0	0	0	0	0	0	0		1	0	0	0	0	0	0	0
020713	12:06:55	1	Trial	ResponseIL	14	0	175	0	102	12:06:55	5396893	0	1	1	1	1	1	1	1	1	5	0	0	0	0	0	0	0	0	0	0	0	0		1	0	0	0	0	0	0	0
020713	12:06:55	1	Trial	IncongruentLeft	14	0	1000	0	102	12:06:55	5397943	0	1	1	1	1	1	1	1	1	5	0	0	0	0	0	0	0	0	0	0	0	0		1	0	0	0	0	0	0	0
020713	12:06:55	1	Trial	ResponseCL	14	0	175	0	102	12:06:55	5398709	0	1	1	1	1	1	1	1	1	5	0	0	0	0	0	0	0	0	0	0	0	0		1	0	0	0	0	0	0	0
020713	12:06:55	1	Trial	CongruentLeft	14	0	1000	0	102	12:06:55	5399759	0	1	1	1	1	1	1	1	1	5	0	0	0	0	0	0	0	0	0	0	0	0		1	0	0	0	0	0	0	0
020713	12:06:55	1	Trial	ResponseCR	14	0	175	0	102	12:06:55	5400525	0	1	1	1	1	1	1	1	1	5	0	0	0	0	0	0	0	0	0	0	0	0		1	0	0	0	0	0	0	0
020713	12:06:55	1	Trial	CongruentRight	14	0	1000	0	102	12:06:55	5401575	0	1	1	1	1	1	1	1	1	5	0	0	0	0	0	0	0	0	0	0	0	0		1	0	0	0	0	0	0	0
020713	12:06:55	1	Trial	ResponseIL	14	0	175	0	102	12:06:55	5402341	0	1	1	1	1	1	1	1	1	5	0	0	0	0	0	0	0	0	0	0	0	0		1	0	0	0	0	0	0	0
020713	12:06:55	1	Trial	IncongruentLeft	14	0	1000	0	102	12:06:55	5403391	0	1	1	1	1	1	1	1	1	5	0	0	0	0	0	0	0	0	0	0	0	0		1	0	0	0	0	0	0	0
020713	12:06:55	1	Trial	ResponseCR	14	0	175	0	102	12:06:55	5404157	0	1	1	1	1	1	1	1	1	5	0	0	0	0	0	0	0	0	0	0	0	0		1	0	0	0	0	0	0	0
020713	12:06:55	1	Trial	CongruentRight	14	0	1000	0	102	12:06:55	5405207	0	1	1	1	1	1	1	1	1	5	0	0	0	0	0	0	0	0	0	0	0	0		1	0	0	0	0	0	0	0
020713	12:06:55	1	Trial	ResponseCR	14	0	175	0	102	12:06:55	5405973	0	1	1	1	1	1	1	1	1	5	0	0	0	0	0	0	0	0	0	0	0	0		1	0	0	0	0	0	0	0
020713	12:06:55	1	Trial	CongruentRight	14	0	1000	0	102	12:06:55	5407023	0	1	1	1	1	1	1	1	1	5	0	0	0	0	0	0	0	0	0	0	0	0		1	0	0	0	0	0	0	0
020713	12:06:55	1	Trial	ResponseIR	14	0	175	0	102	12:06:55	5407789	0	1	1	1	1	1	1	1	1	5	0	0	0	0	0	0	0	0	0	0	0	0		1	0	0	0	0	0	0	0
020713	12:06:55	1	Trial	IncongruentRight	14	0	1000	0	102	12:06:55	5408839	0	1	1	1	1	1	1	1	1	5	0	0	0	0	0	0	0	0	0	0	0	0		1	0	0	0	0	0	0	0
020713	12:06:55	1	Trial	ResponseCL	14	0	175	0	102	12:06:55	5409605	0	1	1	1	1	1	1	1	1	5	0	0	0	0	0	0	0	0	0	0	0	0		1	0	0	0	0	0	0	0
020713	12:06:55	1	Trial	CongruentLeft	14	0	1000	0	102	12:06:55	5410655	0	1	1	1	1	1	1	1	1	5	0	0	0	0	0	0	0	0	0	0	0	0		1	0	0	0	0	0	0	0
020713	12:06:55	1	Trial	ResponseIL	14	0	175	0	102	12:06:55	5411421	0	1	1	1	1	1	1	1	1	5	0	0	0	0	0	0	0	0	0	0	0	0		1	0	0	0	0	0	0	0
020713	12:06:55	1	Trial	IncongruentLeft	14	0	1000	0	102	12:06:55	5412471	0	1	1	1	1	1	1	1	1	5	0	0	0	0	0	0	0	0	0	0	0	0		1	0	0	0	0	0	0	0
020713	12:06:55	1	Trial	ResponseCL	14	0	175	0	102	12:06:55	5413237	0	1	1	1	1	1	1	1	1	5	0	0	0	0	0	0	0	0	0	0	0	0		1	0	0	0	0	0	0	0
020713	12:06:55	1	Trial	CongruentLeft	14	0	1000	0	102	12:06:55	5414287	0	1	1	1	1	1	1	1	1	5	0	0	0	0	0	0	0	0	0	0	0	0		1	0	0	0	0	0	0	0
020713	12:06:55	1	Trial	ResponseIR	14	0	175	0	102	12:06:55	5415053	0	1	1	1	1	1	1	1	1	5	0	0	0	0	0	0	0	0	0	0	0	0		1	0	0	0	0	0	0	0
020713	12:06:55	1	Trial	IncongruentRight	14	0	1000	0	102	12:06:55	5416103	0	1	1	1	1	1	1	1	1	5	0	0	0	0	0	0	0	0	0	0	0	0		1	0	0	0	0	0	0	0
020713	12:06:55	1	Trial	ResponseIL	14	0	175	0	102	12:06:55	5416869	0	1	1	1	1	1	1	1	1	5	0	0	0	0	0	0	0	0	0	0	0	0		1	0	0	0	0	0	0	0
020713	12:06:55	1	Trial	IncongruentLeft	14	0	1000	0	102	12:06:55	5417919	0	1	1	1	1	1	1	1	1	5	0	0	0	0	0	0	0	0	0	0	0	0		1	0	0	0	0	0	0	0
020713	12:06:55	1	Trial	ResponseCR	14	0	175	0	102	12:06:55	5418686	0	1	1	1	1	1	1	1	1	5	0	0	0	0	0	0	0	0	0	0	0	0		1	0	0	0	0	0	0	0
020713	12:06:55	1	Trial	CongruentRight	14	0	1000	0	102	12:06:55	5419735	0	1	1	1	1	1	1	1	1	5	0	0	0	0	0	0	0	0	0	0	0	0		1	0	0	0	0	0	0	0
020713	12:06:55	1	Trial	ResponseCL	14	0	175	0	102	12:06:55	5420501	0	1	1	1	1	1	1	1	1	5	0	0	0	0	0	0	0	0	0	0	0	0		1	0	0	0	0	0	0	0
020713	12:06:55	1	Trial	CongruentLeft	14	0	1000	0	102	12:06:55	5421551	0	1	1	1	1	1	1	1	1	5	0	0	0	0	0	0	0	0	0	0	0	0		1	0	0	0	0	0	0	0
020713	12:06:55	1	Trial	ResponseIL	14	0	175	0	102	12:06:55	5422317	0	1	1	1	1	1	1	1	1	5	0	0	0	0	0	0	0	0	0	0	0	0		1	0	0	0	0	0	0	0
020713	12:06:55	1	Trial	IncongruentLeft	14	0	1000	0	102	12:06:55	5423367	0	1	1	1	1	1	1	1	1	5	0	0	0	0	0	0	0	0	0	0	0	0		1	0	0	0	0	0	0	0
020713	12:06:55	1	Trial	ResponseCL	14	0	175	0	102	12:06:55	5424133	0	1	1	1	1	1	1	1	1	5	0	0	0	0	0	0	0	0	0	0	0	0		1	0	0	0	0	0	0	0
020713	12:06:55	1	Trial	CongruentLeft	14	0	1000	0	102	12:06:55	5425183	0	1	1	1	1	1	1	1	1	5	0	0	0	0	0	0	0	0	0	0	0	0		1	0	0	0	0	0	0	0
020713	12:06:55	1	Trial	ResponseIR	14	0	175	0	102	12:06:55	5425950	0	1	1	1	1	1	1	1	1	5	0	0	0	0	0	0	0	0	0	0	0	0		1	0	0	0	0	0	0	0
020713	12:06:55	1	Trial	IncongruentRight	14	0	1000	0	102	12:06:55	5426999	0	1	1	1	1	1	1	1	1	5	0	0	0	0	0	0	0	0	0	0	0	0		1	0	0	0	0	0	0	0
020713	12:06:55	1	Trial	ResponseCR	14	0	175	0	102	12:06:55	5427765	0	1	1	1	1	1	1	1	1	5	0	0	0	0	0	0	0	0	0	0	0	0		1	0	0	0	0	0	0	0
020713	12:06:55	1	Trial	CongruentRight	14	0	1000	0	102	12:06:55	5428815	0	1	1	1	1	1	1	1	1	5	0	0	0	0	0	0	0	0	0	0	0	0		1	0	0	0	0	0	0	0
020713	12:06:55	1	Trial	ResponseIL	14	0	175	0	102	12:06:55	5429582	0	1	1	1	1	1	1	1	1	5	0	0	0	0	0	0	0	0	0	0	0	0		1	0	0	0	0	0	0	0
020713	12:06:55	1	Trial	IncongruentLeft	14	0	1000	0	102	12:06:55	5430631	0	1	1	1	1	1	1	1	1	5	0	0	0	0	0	0	0	0	0	0	0	0		1	0	0	0	0	0	0	0
020713	12:06:55	1	Trial	ResponseCL	14	0	175	0	102	12:06:55	5431398	0	1	1	1	1	1	1	1	1	5	0	0	0	0	0	0	0	0	0	0	0	0		1	0	0	0	0	0	0	0
020713	12:06:55	1	Trial	CongruentLeft	14	0	1000	0	102	12:06:55	5432447	0	1	1	1	1	1	1	1	1	5	0	0	0	0	0	0	0	0	0	0	0	0		1	0	0	0	0	0	0	0
020713	12:06:55	1	Trial	ResponseIR	14	0	175	0	102	12:06:55	5433213	0	1	1	1	1	1	1	1	1	5	0	0	0	0	0	0	0	0	0	0	0	0		1	0	0	0	0	0	0	0
020713	12:06:55	1	Trial	IncongruentRight	14	0	1000	0	102	12:06:55	5434263	0	1	1	1	1	1	1	1	1	5	0	0	0	0	0	0	0	0	0	0	0	0		1	0	0	0	0	0	0	0
020713	12:06:55	1	Trial	ResponseIL	14	0	175	0	102	12:06:55	5435030	0	1	1	1	1	1	1	1	1	5	0	0	0	0	0	0	0	0	0	0	0	0		1	0	0	0	0	0	0	0
020713	12:06:55	1	Trial	IncongruentLeft	14	0	1000	0	102	12:06:55	5436079	0	1	1	1	1	1	1	1	1	5	0	0	0	0	0	0	0	0	0	0	0	0		1	0	0	0	0	0	0	0
020713	12:06:55	1	Trial	ResponseCL	14	0	175	0	102	12:06:55	5436846	0	1	1	1	1	1	1	1	1	5	0	0	0	0	0	0	0	0	0	0	0	0		1	0	0	0	0	0	0	0
020713	12:06:55	1	Trial	CongruentLeft	14	0	1000	0	102	12:06:55	5437895	0	1	1	1	1	1	1	1	1	5	0	0	0	0	0	0	0	0	0	0	0	0		1	0	0	0	0	0	0	0
020713	12:06:55	1	Trial	ResponseIL	14	0	175	0	102	12:06:55	5438662	0	1	1	1	1	1	1	1	1	5	0	0	0	0	0	0	0	0	0	0	0	0		1	0	0	0	0	0	0	0
020713	12:06:55	1	Trial	IncongruentLeft	14	0	1000	0	102	12:06:55	5439711	0	1	1	1	1	1	1	1	1	5	0	0	0	0	0	0	0	0	0	0	0	0		1	0	0	0	0	0	0	0
020713	12:06:55	1	Trial	ResponseCR	14	0	175	0	102	12:06:55	5440478	0	1	1	1	1	1	1	1	1	5	0	0	0	0	0	0	0	0	0	0	0	0		1	0	0	0	0	0	0	0
020713	12:06:55	1	Trial	CongruentRight	14	0	1000	0	102	12:06:55	5441527	0	1	1	1	1	1	1	1	1	5	0	0	0	0	0	0	0	0	0	0	0	0		1	0	0	0	0	0	0	0
020713	12:06:55	1	Trial	ResponseCL	14	0	175	0	102	12:06:55	5442294	0	1	1	1	1	1	1	1	1	5	0	0	0	0	0	0	0	0	0	0	0	0		1	0	0	0	0	0	0	0
020713	12:06:55	1	Trial	CongruentLeft	14	0	1000	0	102	12:06:55	5443343	0	1	1	1	1	1	1	1	1	5	0	0	0	0	0	0	0	0	0	0	0	0		1	0	0	0	0	0	0	0
020713	12:06:55	1	Trial	ResponseIR	14	0	175	0	102	12:06:55	5444110	0	1	1	1	1	1	1	1	1	5	0	0	0	0	0	0	0	0	0	0	0	0		1	0	0	0	0	0	0	0
020713	12:06:55	1	Trial	IncongruentRight	14	0	1000	0	102	12:06:55	5445159	0	1	1	1	1	1	1	1	1	5	0	0	0	0	0	0	0	0	0	0	0	0		1	0	0	0	0	0	0	0
020713	12:06:55	1	Trial	ResponseCL	14	0	175	0	102	12:06:55	5445926	0	1	1	1	1	1	1	1	1	5	0	0	0	0	0	0	0	0	0	0	0	0		1	0	0	0	0	0	0	0
020713	12:06:55	1	Trial	CongruentLeft	14	0	1000	0	102	12:06:55	5446975	0	1	1	1	1	1	1	1	1	5	0	0	0	0	0	0	0	0	0	0	0	0		1	0	0	0	0	0	0	0
020713	12:06:55	1	Trial	ResponseCR	14	0	175	0	102	12:06:55	5447742	0	1	1	1	1	1	1	1	1	5	0	0	0	0	0	0	0	0	0	0	0	0		1	0	0	0	0	0	0	0
020713	12:06:55	1	Trial	CongruentRight	14	0	1000	0	102	12:06:55	5448791	0	1	1	1	1	1	1	1	1	5	0	0	0	0	0	0	0	0	0	0	0	0		1	0	0	0	0	0	0	0
020713	12:06:55	1	Trial	ResponseIL	14	0	175	0	102	12:06:55	5449558	0	1	1	1	1	1	1	1	1	5	0	0	0	0	0	0	0	0	0	0	0	0		1	0	0	0	0	0	0	0
020713	12:06:55	1	Trial	IncongruentLeft	14	0	1000	0	102	12:06:55	5450607	0	1	1	1	1	1	1	1	1	5	0	0	0	0	0	0	0	0	0	0	0	0		1	0	0	0	0	0	0	0
020713	12:06:55	1	WordsAbsEngBaseline	PAbsEngBaseline1	16	Abs1	1723	0	102	12:06:55	5498073	0	1	1	1	1	1	1	1	1	5	0	0	0	0	0	0	0	0	0	0	0	0		1	0	0	0	0	0	0	0
020713	12:06:55	1	WordsAbsEngBaseline	AbsEngBaseline1	16	Abs1	678	0	102	12:06:55	5498824	0	1	1	1	1	1	1	1	1	5	0	1	0	0	0	0	0	0	0	0	0	0		1	0	0	0	0	0	0	0
020713	12:06:55	1	WordsAbsEngBaseline	AbsEngBaseline2	16	Abs1	883	0	102	12:06:55	5499789	0	1	1	1	1	1	1	1	1	5	0	2	0	0	0	0	0	0	0	0	0	0		1	0	0	0	0	0	0	0
020713	12:06:55	1	WordsAbsEngBaseline	AbsEngBaseline3	16	Abs1	2033	0	102	12:06:55	5501888	0	1	1	1	1	1	1	1	1	5	0	3	0	0	0	0	0	0	0	0	0	0		1	0	0	0	0	0	0	0
020713	12:06:55	1	Trial2BackEngS	NS	17	0	1000	1	102	12:06:55	5522914	0	1	1	1	1	1	1	1	1	5	0	3	0	0	0	0	0	0	0	0	0	0		1	0	0	0	0	0	0	0
020713	12:06:55	1	Trial2BackEngS	NS	17	0	1000	1	102	12:06:55	5524430	0	1	1	1	1	1	1	1	1	5	0	3	0	0	0	0	0	0	0	0	0	0		1	0	0	0	0	0	0	0
020713	12:06:55	1	Trial2BackEngS	NS	17	0	1000	1	102	12:06:55	5525947	0	1	1	1	1	1	1	1	1	5	0	3	0	0	0	0	0	0	0	0	0	0		1	0	0	0	0	0	0	0
020713	12:06:55	1	Trial2BackEngS	YS	17	0	1000	0	102	12:06:55	5527463	0	1	1	1	1	1	1	1	1	5	0	3	0	0	0	0	0	0	0	0	0	0		1	0	0	0	0	0	0	0
020713	12:06:55	1	Trial2BackEngS	NS	17	0	1000	1	102	12:06:55	5528979	0	1	1	1	1	1	1	1	1	5	0	3	0	0	0	0	0	0	0	0	0	0		1	0	0	0	0	0	0	0
020713	12:06:55	1	Trial2BackEngS	NS	17	0	1000	1	102	12:06:55	5530495	0	1	1	1	1	1	1	1	1	5	0	3	0	0	0	0	0	0	0	0	0	0		1	0	0	0	0	0	0	0
020713	12:06:55	1	Trial2BackEngS	NS	17	0	1000	1	102	12:06:55	5532011	0	1	1	1	1	1	1	1	1	5	0	3	0	0	0	0	0	0	0	0	0	0		1	0	0	0	0	0	0	0
020713	12:06:55	1	Trial2BackEngS	NS	17	0	1000	1	102	12:06:55	5533527	0	1	1	1	1	1	1	1	1	5	0	3	0	0	0	0	0	0	0	0	0	0		1	0	0	0	0	0	0	0
020713	12:06:55	1	Trial2BackEngS	YS	17	0	1000	0	102	12:06:55	5535043	0	1	1	1	1	1	1	1	1	5	0	3	0	0	0	0	0	0	0	0	0	0		1	0	0	0	0	0	0	0
020713	12:06:55	1	Trial2BackEngS	NS	17	0	1000	1	102	12:06:55	5536559	0	1	1	1	1	1	1	1	1	5	0	3	0	0	0	0	0	0	0	0	0	0		1	0	0	0	0	0	0	0
020713	12:06:55	1	Trial2BackEngS	NS	17	0	1000	1	102	12:06:55	5538075	0	1	1	1	1	1	1	1	1	5	0	3	0	0	0	0	0	0	0	0	0	0		1	0	0	0	0	0	0	0
020713	12:06:55	1	Trial2BackEngS	YS	17	0	1000	0	102	12:06:55	5539592	0	1	1	1	1	1	1	1	1	5	0	3	0	0	0	0	0	0	0	0	0	0		1	0	0	0	0	0	0	0
020713	12:06:55	1	Trial2BackEngS	NS	17	0	1000	1	102	12:06:55	5541108	0	1	1	1	1	1	1	1	1	5	0	3	0	0	0	0	0	0	0	0	0	0		1	0	0	0	0	0	0	0
020713	12:06:55	1	Trial2BackEngS	NS	17	0	1000	1	102	12:06:55	5542624	0	1	1	1	1	1	1	1	1	5	0	3	0	0	0	0	0	0	0	0	0	0		1	0	0	0	0	0	0	0
020713	12:06:55	1	Trial2BackEngS	NS	17	0	1000	1	102	12:06:55	5544140	0	1	1	1	1	1	1	1	1	5	0	3	0	0	0	0	0	0	0	0	0	0		1	0	0	0	0	0	0	0
020713	12:06:55	1	Trial2BackEngS	YS	17	0	1000	0	102	12:06:55	5545656	0	1	1	1	1	1	1	1	1	5	0	3	0	0	0	0	0	0	0	0	0	0		1	0	0	0	0	0	0	0
020713	12:06:55	1	Trial2BackEngS	NS	17	0	1000	1	102	12:06:55	5547172	0	1	1	1	1	1	1	1	1	5	0	3	0	0	0	0	0	0	0	0	0	0		1	0	0	0	0	0	0	0
020713	12:06:55	1	Trial2BackEngS	NS	17	0	1000	1	102	12:06:55	5548688	0	1	1	1	1	1	1	1	1	5	0	3	0	0	0	0	0	0	0	0	0	0		1	0	0	0	0	0	0	0
020713	12:06:55	1	Trial2BackEngS	NS	17	0	1000	1	102	12:06:55	5550204	0	1	1	1	1	1	1	1	1	5	0	3	0	0	0	0	0	0	0	0	0	0		1	0	0	0	0	0	0	0
020713	12:06:55	1	Trial2BackEngS	NS	17	0	1000	1	102	12:06:55	5551721	0	1	1	1	1	1	1	1	1	5	0	3	0	0	0	0	0	0	0	0	0	0		1	0	0	0	0	0	0	0
020713	12:06:55	1	Trial2BackEngS	YS	17	0	1000	0	102	12:06:55	5553236	0	1	1	1	1	1	1	1	1	5	0	3	0	0	0	0	0	0	0	0	0	0		1	0	0	0	0	0	0	0
020713	12:06:55	1	Trial2BackEngS	NS	17	0	1000	1	102	12:06:55	5554753	0	1	1	1	1	1	1	1	1	5	0	3	0	0	0	0	0	0	0	0	0	0		1	0	0	0	0	0	0	0
020713	12:06:55	1	Trial2BackEngS	NS	17	0	1000	1	102	12:06:55	5556270	0	1	1	1	1	1	1	1	1	5	0	3	0	0	0	0	0	0	0	0	0	0		1	0	0	0	0	0	0	0
020713	12:06:55	1	Trial2BackEngS	NS	17	0	1000	1	102	12:06:55	5557785	0	1	1	1	1	1	1	1	1	5	0	3	0	0	0	0	0	0	0	0	0	0		1	0	0	0	0	0	0	0
020713	12:06:55	1	Trial2BackEngS	NS	17	0	1000	1	102	12:06:55	5559301	0	1	1	1	1	1	1	1	1	5	0	3	0	0	0	0	0	0	0	0	0	0		1	0	0	0	0	0	0	0
020713	12:06:55	1	Trial2BackEngS	NS	17	0	1000	1	102	12:06:55	5560817	0	1	1	1	1	1	1	1	1	5	0	3	0	0	0	0	0	0	0	0	0	0		1	0	0	0	0	0	0	0
020713	12:06:55	1	Trial2BackEngS	NS	17	0	1000	1	102	12:06:55	5562333	0	1	1	1	1	1	1	1	1	5	0	3	0	0	0	0	0	0	0	0	0	0		1	0	0	0	0	0	0	0
020713	12:06:55	1	Trial2BackEngS	NS	17	0	1000	1	102	12:06:55	5563849	0	1	1	1	1	1	1	1	1	5	0	3	0	0	0	0	0	0	0	0	0	0		1	0	0	0	0	0	0	0
020713	12:06:55	1	Trial2BackEngS	NS	17	0	1000	1	102	12:06:55	5565366	0	1	1	1	1	1	1	1	1	5	0	3	0	0	0	0	0	0	0	0	0	0		1	0	0	0	0	0	0	0
020713	12:06:55	1	Trial2BackEngS	NS	17	0	1000	1	102	12:06:55	5566882	0	1	1	1	1	1	1	1	1	5	0	3	0	0	0	0	0	0	0	0	0	0		1	0	0	0	0	0	0	0
020713	12:06:55	1	Trial2BackEngS	NS	17	0	1000	1	102	12:06:55	5568398	0	1	1	1	1	1	1	1	1	5	0	3	0	0	0	0	0	0	0	0	0	0		1	0	0	0	0	0	0	0
020713	12:06:55	1	Trial2BackEngS	YS	17	0	1000	0	102	12:06:55	5569914	0	1	1	1	1	1	1	1	1	5	0	3	0	0	0	0	0	0	0	0	0	0		1	0	0	0	0	0	0	0
020713	12:06:55	1	Trial2BackEngS	NS	17	0	1000	1	102	12:06:55	5571430	0	1	1	1	1	1	1	1	1	5	0	3	0	0	0	0	0	0	0	0	0	0		1	0	0	0	0	0	0	0
020713	12:06:55	1	Trial2BackEngS	NS	17	0	1000	1	102	12:06:55	5572946	0	1	1	1	1	1	1	1	1	5	0	3	0	0	0	0	0	0	0	0	0	0		1	0	0	0	0	0	0	0
020713	12:06:55	1	Trial2BackEngS	NS	17	0	1000	1	102	12:06:55	5574462	0	1	1	1	1	1	1	1	1	5	0	3	0	0	0	0	0	0	0	0	0	0		1	0	0	0	0	0	0	0
020713	12:06:55	1	Trial2BackEngS	YS	17	0	1000	0	102	12:06:55	5575978	0	1	1	1	1	1	1	1	1	5	0	3	0	0	0	0	0	0	0	0	0	0		1	0	0	0	0	0	0	0
020713	12:06:55	1	Trial2BackEngS	NS	17	0	1000	1	102	12:06:55	5577495	0	1	1	1	1	1	1	1	1	5	0	3	0	0	0	0	0	0	0	0	0	0		1	0	0	0	0	0	0	0
020713	12:06:55	1	Trial2BackEngS	NS	17	0	1000	1	102	12:06:55	5579011	0	1	1	1	1	1	1	1	1	5	0	3	0	0	0	0	0	0	0	0	0	0		1	0	0	0	0	0	0	0
020713	12:06:55	1	Trial2BackEngS	NS	17	0	1000	1	102	12:06:55	5580527	0	1	1	1	1	1	1	1	1	5	0	3	0	0	0	0	0	0	0	0	0	0		1	0	0	0	0	0	0	0
020713	12:06:55	1	Trial2BackEngS	NS	17	0	1000	1	102	12:06:55	5582043	0	1	1	1	1	1	1	1	1	5	0	3	0	0	0	0	0	0	0	0	0	0		1	0	0	0	0	0	0	0
020713	12:06:55	1	Trial2BackEngS	NS	17	0	1000	1	102	12:06:55	5583559	0	1	1	1	1	1	1	1	1	5	0	3	0	0	0	0	0	0	0	0	0	0		1	0	0	0	0	0	0	0
020713	12:06:55	1	Trial2BackEngS	NS	17	0	1000	1	102	12:06:55	5585075	0	1	1	1	1	1	1	1	1	5	0	3	0	0	0	0	0	0	0	0	0	0		1	0	0	0	0	0	0	0
020713	12:06:55	1	Trial2BackEngS	NS	17	0	1000	1	102	12:06:55	5586591	0	1	1	1	1	1	1	1	1	5	0	3	0	0	0	0	0	0	0	0	0	0		1	0	0	0	0	0	0	0
020713	12:06:55	1	Trial2BackEngS	YS	17	0	1000	0	102	12:06:55	5588107	0	1	1	1	1	1	1	1	1	5	0	3	0	0	0	0	0	0	0	0	0	0		1	0	0	0	0	0	0	0
020713	12:06:55	1	Trial2BackEngS	NS	17	0	1000	1	102	12:06:55	5589623	0	1	1	1	1	1	1	1	1	5	0	3	0	0	0	0	0	0	0	0	0	0		1	0	0	0	0	0	0	0
020713	12:06:55	1	Trial2BackEngS	NS	17	0	1000	1	102	12:06:55	5591140	0	1	1	1	1	1	1	1	1	5	0	3	0	0	0	0	0	0	0	0	0	0		1	0	0	0	0	0	0	0
020713	12:06:55	1	Trial2BackEngS	NS	17	0	1000	1	102	12:06:55	5592656	0	1	1	1	1	1	1	1	1	5	0	3	0	0	0	0	0	0	0	0	0	0		1	0	0	0	0	0	0	0
020713	12:06:55	1	Trial2BackEngS	NS	17	0	1000	1	102	12:06:55	5594172	0	1	1	1	1	1	1	1	1	5	0	3	0	0	0	0	0	0	0	0	0	0		1	0	0	0	0	0	0	0
020713	12:06:55	1	Trial2BackEngS	YS	17	0	1000	0	102	12:06:55	5595688	0	1	1	1	1	1	1	1	1	5	0	3	0	0	0	0	0	0	0	0	0	0		1	0	0	0	0	0	0	0
020713	12:06:55	1	Trial2BackEngS	NS	17	0	1000	1	102	12:06:55	5597204	0	1	1	1	1	1	1	1	1	5	0	3	0	0	0	0	0	0	0	0	0	0		1	0	0	0	0	0	0	0
020713	12:06:55	1	Trial2BackEngS	NS	17	0	1000	1	102	12:06:55	5598720	0	1	1	1	1	1	1	1	1	5	0	3	0	0	0	0	0	0	0	0	0	0		1	0	0	0	0	0	0	0
020713	12:06:55	1	Trial2BackEngS	NS	17	0	1000	1	102	12:06:55	5600236	0	1	1	1	1	1	1	1	1	5	0	3	0	0	0	0	0	0	0	0	0	0		1	0	0	0	0	0	0	0
020713	12:06:55	1	Trial2BackEngS	NS	17	0	1000	1	102	12:06:55	5601752	0	1	1	1	1	1	1	1	1	5	0	3	0	0	0	0	0	0	0	0	0	0		1	0	0	0	0	0	0	0
020713	12:06:55	1	Trial2BackEngS	NS	17	0	1000	1	102	12:06:55	5603268	0	1	1	1	1	1	1	1	1	5	0	3	0	0	0	0	0	0	0	0	0	0		1	0	0	0	0	0	0	0
020713	12:06:55	1	Trial2BackEngS	NS	17	0	1000	1	102	12:06:55	5604785	0	1	1	1	1	1	1	1	1	5	0	3	0	0	0	0	0	0	0	0	0	0		1	0	0	0	0	0	0	0
020713	12:06:55	1	Trial2BackEngS	YS	17	0	1000	0	102	12:06:55	5606301	0	1	1	1	1	1	1	1	1	5	0	3	0	0	0	0	0	0	0	0	0	0		1	0	0	0	0	0	0	0
020713	12:06:55	1	Trial2BackEngS	NS	17	0	1000	1	102	12:06:55	5607817	0	1	1	1	1	1	1	1	1	5	0	3	0	0	0	0	0	0	0	0	0	0		1	0	0	0	0	0	0	0
020713	12:06:55	1	Trial2BackEngS	NS	17	0	1000	1	102	12:06:55	5609333	0	1	1	1	1	1	1	1	1	5	0	3	0	0	0	0	0	0	0	0	0	0		1	0	0	0	0	0	0	0
020713	12:06:55	1	Trial2BackEngS	NS	17	0	1000	1	102	12:06:55	5610849	0	1	1	1	1	1	1	1	1	5	0	3	0	0	0	0	0	0	0	0	0	0		1	0	0	0	0	0	0	0
020713	12:06:55	1	Trial2BackEngS	NS	17	0	1000	1	102	12:06:55	5612365	0	1	1	1	1	1	1	1	1	5	0	3	0	0	0	0	0	0	0	0	0	0		1	0	0	0	0	0	0	0
020713	12:06:55	1	Trial2BackEngS	NS	17	0	1000	1	102	12:06:55	5613881	0	1	1	1	1	1	1	1	1	5	0	3	0	0	0	0	0	0	0	0	0	0		1	0	0	0	0	0	0	0
020713	12:06:55	1	Trial2BackEngS	NS	17	0	1000	1	102	12:06:55	5615397	0	1	1	1	1	1	1	1	1	5	0	3	0	0	0	0	0	0	0	0	0	0		1	0	0	0	0	0	0	0
020713	12:06:55	1	Trial2BackEngS	NS	17	0	1000	1	102	12:06:55	5616913	0	1	1	1	1	1	1	1	1	5	0	3	0	0	0	0	0	0	0	0	0	0		1	0	0	0	0	0	0	0
020713	12:06:55	1	Trial2BackEngS	YS	17	0	1000	0	102	12:06:55	5618430	0	1	1	1	1	1	1	1	1	5	0	3	0	0	0	0	0	0	0	0	0	0		1	0	0	0	0	0	0	0
020713	12:06:55	1	Trial2BackEngS	NS	17	0	1000	1	102	12:06:55	5619946	0	1	1	1	1	1	1	1	1	5	0	3	0	0	0	0	0	0	0	0	0	0		1	0	0	0	0	0	0	0
020713	12:06:55	1	Trial2BackEngS	NS	17	0	1000	1	102	12:06:55	5621462	0	1	1	1	1	1	1	1	1	5	0	3	0	0	0	0	0	0	0	0	0	0		1	0	0	0	0	0	0	0
020713	12:06:55	1	Trial2BackEngS	NS	17	0	1000	1	102	12:06:55	5622978	0	1	1	1	1	1	1	1	1	5	0	3	0	0	0	0	0	0	0	0	0	0		1	0	0	0	0	0	0	0
020713	12:06:55	1	Trial2BackEngS	NS	17	0	1000	1	102	12:06:55	5624494	0	1	1	1	1	1	1	1	1	5	0	3	0	0	0	0	0	0	0	0	0	0		1	0	0	0	0	0	0	0
020713	12:06:55	1	Trial2BackEngS	YS	17	0	1000	0	102	12:06:55	5626010	0	1	1	1	1	1	1	1	1	5	0	3	0	0	0	0	0	0	0	0	0	0		1	0	0	0	0	0	0	0
020713	12:06:55	1	Trial2BackEngS	NS	17	0	1000	1	102	12:06:55	5627526	0	1	1	1	1	1	1	1	1	5	0	3	0	0	0	0	0	0	0	0	0	0		1	0	0	0	0	0	0	0
020713	12:06:55	1	Trial2BackEngS	NS	17	0	1000	1	102	12:06:55	5629042	0	1	1	1	1	1	1	1	1	5	0	3	0	0	0	0	0	0	0	0	0	0		1	0	0	0	0	0	0	0
020713	12:06:55	1	Trial2BackEngS	YS	17	0	1000	0	102	12:06:55	5630559	0	1	1	1	1	1	1	1	1	5	0	3	0	0	0	0	0	0	0	0	0	0		1	0	0	0	0	0	0	0
020713	12:06:55	1	Trial2BackEngS	NS	17	0	1000	1	102	12:06:55	5632075	0	1	1	1	1	1	1	1	1	5	0	3	0	0	0	0	0	0	0	0	0	0		1	0	0	0	0	0	0	0
020713	12:06:55	1	Trial2BackEngS	NS	17	0	1000	1	102	12:06:55	5633591	0	1	1	1	1	1	1	1	1	5	0	3	0	0	0	0	0	0	0	0	0	0		1	0	0	0	0	0	0	0
020713	12:06:55	1	Trial2BackEngS	NS	17	0	1000	1	102	12:06:55	5635107	0	1	1	1	1	1	1	1	1	5	0	3	0	0	0	0	0	0	0	0	0	0		1	0	0	0	0	0	0	0
020713	12:06:55	1	Trial2BackEngS	NS	17	0	1000	1	102	12:06:55	5636623	0	1	1	1	1	1	1	1	1	5	0	3	0	0	0	0	0	0	0	0	0	0		1	0	0	0	0	0	0	0
020713	12:06:55	1	Trial2BackEngS	NS	17	0	1000	1	102	12:06:55	5638139	0	1	1	1	1	1	1	1	1	5	0	3	0	0	0	0	0	0	0	0	0	0		1	0	0	0	0	0	0	0
020713	12:06:55	1	Trial2BackEngS	NS	17	0	1000	1	102	12:06:55	5639655	0	1	1	1	1	1	1	1	1	5	0	3	0	0	0	0	0	0	0	0	0	0		1	0	0	0	0	0	0	0
020713	12:06:55	1	Trial2BackEngS	YS	17	0	1000	0	102	12:06:55	5641172	0	1	1	1	1	1	1	1	1	5	0	3	0	0	0	0	0	0	0	0	0	0		1	0	0	0	0	0	0	0
020713	12:06:55	1	Trial2BackEngS	NS	17	0	1000	1	102	12:06:55	5642688	0	1	1	1	1	1	1	1	1	5	0	3	0	0	0	0	0	0	0	0	0	0		1	0	0	0	0	0	0	0
020713	12:06:55	1	Trial2BackEngS	NS	17	0	1000	1	102	12:06:55	5644204	0	1	1	1	1	1	1	1	1	5	0	3	0	0	0	0	0	0	0	0	0	0		1	0	0	0	0	0	0	0
020713	12:06:55	1	Trial2BackEngS	NS	17	0	1000	1	102	12:06:55	5645720	0	1	1	1	1	1	1	1	1	5	0	3	0	0	0	0	0	0	0	0	0	0		1	0	0	0	0	0	0	0
020713	12:06:55	1	Trial2BackEngS	NS	17	0	1000	1	102	12:06:55	5647236	0	1	1	1	1	1	1	1	1	5	0	3	0	0	0	0	0	0	0	0	0	0		1	0	0	0	0	0	0	0
020713	12:06:55	1	Trial2BackEngS	YS	17	0	1000	0	102	12:06:55	5648752	0	1	1	1	1	1	1	1	1	5	0	3	0	0	0	0	0	0	0	0	0	0		1	0	0	0	0	0	0	0
020713	12:06:55	1	Trial2BackEngS	NS	17	0	1000	1	102	12:06:55	5650268	0	1	1	1	1	1	1	1	1	5	0	3	0	0	0	0	0	0	0	0	0	0		1	0	0	0	0	0	0	0
020713	12:06:55	1	Trial2BackEngS	NS	17	0	1000	1	102	12:06:55	5651784	0	1	1	1	1	1	1	1	1	5	0	3	0	0	0	0	0	0	0	0	0	0		1	0	0	0	0	0	0	0
020713	12:06:55	1	Trial2BackEngS	NS	17	0	1000	1	102	12:06:55	5653300	0	1	1	1	1	1	1	1	1	5	0	3	0	0	0	0	0	0	0	0	0	0		1	0	0	0	0	0	0	0
020713	12:06:55	1	Trial2BackEngS	NS	17	0	1000	1	102	12:06:55	5654816	0	1	1	1	1	1	1	1	1	5	0	3	0	0	0	0	0	0	0	0	0	0		1	0	0	0	0	0	0	0
020713	12:06:55	1	Trial2BackEngS	YS	17	0	1000	0	102	12:06:55	5656333	0	1	1	1	1	1	1	1	1	5	0	3	0	0	0	0	0	0	0	0	0	0		1	0	0	0	0	0	0	0
020713	12:06:55	1	Trial2BackEngS	NS	17	0	1000	1	102	12:06:55	5657849	0	1	1	1	1	1	1	1	1	5	0	3	0	0	0	0	0	0	0	0	0	0		1	0	0	0	0	0	0	0
020713	12:06:55	1	Trial2BackEngS	NS	17	0	1000	1	102	12:06:55	5659365	0	1	1	1	1	1	1	1	1	5	0	3	0	0	0	0	0	0	0	0	0	0		1	0	0	0	0	0	0	0
020713	12:06:55	1	Trial2BackEngS	YS	17	0	1000	0	102	12:06:55	5660881	0	1	1	1	1	1	1	1	1	5	0	3	0	0	0	0	0	0	0	0	0	0		1	0	0	0	0	0	0	0
020713	12:06:55	1	Trial2BackEngS	NS	17	0	1000	1	102	12:06:55	5662397	0	1	1	1	1	1	1	1	1	5	0	3	0	0	0	0	0	0	0	0	0	0		1	0	0	0	0	0	0	0
020713	12:06:55	1	Trial2BackEngS	NS	17	0	1000	1	102	12:06:55	5663913	0	1	1	1	1	1	1	1	1	5	0	3	0	0	0	0	0	0	0	0	0	0		1	0	0	0	0	0	0	0
020713	12:06:55	1	Trial2BackEngS	NS	17	0	1000	1	102	12:06:55	5665429	0	1	1	1	1	1	1	1	1	5	0	3	0	0	0	0	0	0	0	0	0	0		1	0	0	0	0	0	0	0
020713	12:06:55	1	Trial2BackEngS	NS	17	0	1000	1	102	12:06:55	5666945	0	1	1	1	1	1	1	1	1	5	0	3	0	0	0	0	0	0	0	0	0	0		1	0	0	0	0	0	0	0
020713	12:06:55	1	Trial2BackEngS	NS	17	0	1000	1	102	12:06:55	5668461	0	1	1	1	1	1	1	1	1	5	0	3	0	0	0	0	0	0	0	0	0	0		1	0	0	0	0	0	0	0
020713	12:06:55	1	Trial2BackEngS	NS	17	0	1000	1	102	12:06:55	5669978	0	1	1	1	1	1	1	1	1	5	0	3	0	0	0	0	0	0	0	0	0	0		1	0	0	0	0	0	0	0
020713	12:06:55	1	Trial2BackEngS	NS	17	0	1000	1	102	12:06:55	5671494	0	1	1	1	1	1	1	1	1	5	0	3	0	0	0	0	0	0	0	0	0	0		1	0	0	0	0	0	0	0
020713	12:06:55	1	Trial2BackEngS	NS	17	0	1000	1	102	12:06:55	5673010	0	1	1	1	1	1	1	1	1	5	0	3	0	0	0	0	0	0	0	0	0	0		1	0	0	0	0	0	0	0
020713	12:06:55	1	Trial2BackEngS	YS	17	0	1000	0	102	12:06:55	5674526	0	1	1	1	1	1	1	1	1	5	0	3	0	0	0	0	0	0	0	0	0	0		1	0	0	0	0	0	0	0
020713	12:06:55	1	Trial2BackEngS	NS	17	0	1000	1	102	12:06:55	5676042	0	1	1	1	1	1	1	1	1	5	0	3	0	0	0	0	0	0	0	0	0	0		1	0	0	0	0	0	0	0
020713	12:06:55	1	Trial2BackEngS	NS	17	0	1000	1	102	12:06:55	5677559	0	1	1	1	1	1	1	1	1	5	0	3	0	0	0	0	0	0	0	0	0	0		1	0	0	0	0	0	0	0
020713	12:06:55	1	Trial2BackEngS	NS	17	0	1000	1	102	12:06:55	5679074	0	1	1	1	1	1	1	1	1	5	0	3	0	0	0	0	0	0	0	0	0	0		1	0	0	0	0	0	0	0
020713	12:06:55	1	Trial2BackEngS	NS	17	0	1000	1	102	12:06:55	5680590	0	1	1	1	1	1	1	1	1	5	0	3	0	0	0	0	0	0	0	0	0	0		1	0	0	0	0	0	0	0
020713	12:06:55	1	Trial2BackEngS	NS	17	0	1000	1	102	12:06:55	5682107	0	1	1	1	1	1	1	1	1	5	0	3	0	0	0	0	0	0	0	0	0	0		1	0	0	0	0	0	0	0
020713	12:06:55	1	Trial2BackEngS	NS	17	0	1000	1	102	12:06:55	5683623	0	1	1	1	1	1	1	1	1	5	0	3	0	0	0	0	0	0	0	0	0	0		1	0	0	0	0	0	0	0
020713	12:06:55	1	Trial2BackEngS	NS	17	0	1000	1	102	12:06:55	5685139	0	1	1	1	1	1	1	1	1	5	0	3	0	0	0	0	0	0	0	0	0	0		1	0	0	0	0	0	0	0
020713	12:06:55	1	Trial2BackEngS	YS	17	0	1000	0	102	12:06:55	5686655	0	1	1	1	1	1	1	1	1	5	0	3	0	0	0	0	0	0	0	0	0	0		1	0	0	0	0	0	0	0
020713	12:06:55	1	Trial2BackEngS	NS	17	0	1000	1	102	12:06:55	5688171	0	1	1	1	1	1	1	1	1	5	0	3	0	0	0	0	0	0	0	0	0	0		1	0	0	0	0	0	0	0
020713	12:06:55	1	Trial2BackEngS	NS	17	0	1000	1	102	12:06:55	5689687	0	1	1	1	1	1	1	1	1	5	0	3	0	0	0	0	0	0	0	0	0	0		1	0	0	0	0	0	0	0
020713	12:06:55	1	Trial2BackEngS	NS	17	0	1000	1	102	12:06:55	5691203	0	1	1	1	1	1	1	1	1	5	0	3	0	0	0	0	0	0	0	0	0	0		1	0	0	0	0	0	0	0
020713	12:06:55	1	Trial2BackEngS	NS	17	0	1000	1	102	12:06:55	5692719	0	1	1	1	1	1	1	1	1	5	0	3	0	0	0	0	0	0	0	0	0	0		1	0	0	0	0	0	0	0
020713	12:06:55	1	Trial2BackEngS	NS	17	0	1000	1	102	12:06:55	5694235	0	1	1	1	1	1	1	1	1	5	0	3	0	0	0	0	0	0	0	0	0	0		1	0	0	0	0	0	0	0
020713	12:06:55	1	Trial2BackEngS	NS	17	0	1000	1	102	12:06:55	5695752	0	1	1	1	1	1	1	1	1	5	0	3	0	0	0	0	0	0	0	0	0	0		1	0	0	0	0	0	0	0
020713	12:06:55	1	Trial2BackEngS	NS	17	0	1000	1	102	12:06:55	5697268	0	1	1	1	1	1	1	1	1	5	0	3	0	0	0	0	0	0	0	0	0	0		1	0	0	0	0	0	0	0
020713	12:06:55	1	Trial2BackEngS	NS	17	0	1000	1	102	12:06:55	5698784	0	1	1	1	1	1	1	1	1	5	0	3	0	0	0	0	0	0	0	0	0	0		1	0	0	0	0	0	0	0
020713	12:06:55	1	Trial2BackEngS	NS	17	0	1000	1	102	12:06:55	5700300	0	1	1	1	1	1	1	1	1	5	0	3	0	0	0	0	0	0	0	0	0	0		1	0	0	0	0	0	0	0
020713	12:06:55	1	Trial2BackEngS	YS	17	0	1000	0	102	12:06:55	5701816	0	1	1	1	1	1	1	1	1	5	0	3	0	0	0	0	0	0	0	0	0	0		1	0	0	0	0	0	0	0
020713	12:06:55	1	Trial2BackEngS	NS	17	0	1000	1	102	12:06:55	5703332	0	1	1	1	1	1	1	1	1	5	0	3	0	0	0	0	0	0	0	0	0	0		1	0	0	0	0	0	0	0
020713	12:06:55	1	ClockEngBaseline	ClockEngBaseline	19	Clock1	10453	0	102	12:06:55	5713945	0	1	1	1	1	1	1	1	1	5	0	3	1	0	0	0	0	0	0	0	0	0		1	0	0	0	0	0	0	0
020713	12:06:55	1	ClockEngBaseline	ClockEngBaseline	19	Clock11	1028	0	102	12:06:55	5715062	0	1	1	1	1	1	1	1	1	5	0	3	1	1	0	0	0	0	0	0	0	0		1	0	0	0	0	0	0	0
020713	12:06:55	1	ClockEngBaseline	ClockEngBaseline	19	Clock111	1781	0	102	12:06:55	5716944	0	1	1	1	1	1	1	1	1	5	0	3	1	1	1	0	0	0	0	0	0	0		1	0	0	0	0	0	0	0
020713	12:06:55	1	ClockEngBaseline	ClockEngBaseline	19	Clockdone	1253	0	102	12:06:55	5718293	0	1	1	1	1	1	1	1	1	5	0	3	1	1	1	0	0	0	0	0	0	0		1	0	0	0	0	0	0	0
020713	12:06:55	1	FASEngVFBaseline	StopEngVFBaseline	20		234662	0	102	12:06:55	6017119	0	1	1	1	1	1	1	1	1	5	0	3	1	1	1	0	0	0	0	0	0	0		1	0	0	0	0	0	0	0
020713	12:06:55	1	practiceTOLENG	choice	20	nextround	127676	0	102	12:06:55	6149927	0	1	1	1	1	1	1	1	1	5	0	3	1	1	1	0	0	0	1	2	0	-2	nextround	0	0	0	128038	0	0	6021889	6149927
020713	12:06:55	1	testTOLENG	choice	20	nextround	1683	0	102	12:06:55	6155420	0	1	1	1	1	1	1	1	1	5	0	3	1	1	1	0	0	2	1	2	0	-2	nextround	0	0	0	2029	0	0	6153390	6155419
020713	12:06:55	1	testTOLENG	choice	20	nextround	477	0	102	12:06:55	6157296	0	1	1	1	1	1	1	1	1	5	0	3	1	1	1	0	0	4	1	3	0	-3	nextround	0	0	0	830	0	0	6156466	6157296
020713	12:06:55	1	testTOLENG	choice	20	nextround	372	0	102	12:06:55	6159057	0	1	1	1	1	1	1	1	1	5	0	3	1	1	1	0	0	7	1	4	0	-4	nextround	0	0	0	714	0	0	6158342	6159056
020713	12:06:55	1	testTOLENG	choice	20	nextround	410	0	102	12:06:55	6160862	0	1	1	1	1	1	1	1	1	5	0	3	1	1	1	0	0	10	1	5	0	-5	nextround	0	0	0	759	0	0	6160102	6160861
