date	time	subject	blockcode	trialcode	values.TaskNumber	response	latency	correct	values.Score	script.starttime	script.elapsedtime	values.ScoreS7	values.Word1	values.Word2	values.Word3	values.Word4	values.Word5	values.Word6	values.Word7	values.Word8	values.DigitSpanFwrd	values.DigitSpanBack	values.ScoreAbs	values.Contour	values.Numbers	values.Hands	values.corsiblockspanFwrd	values.corsiblockspanRev	values.problemnumber	values.subjectattempts	values.targetmoves	values.subjectmoves	expressions.excessmoves	values.movestring	expressions.targetachieved	values.problemscore	values.totalscoreTOL	expressions.firstmovetime	expressions.executiontime	expressions.solutiontime	values.t_choicestart	values.t_choiceend
020713	13:50:28	1	Language	Language	0	French	2233	0	0	13:50:28	2362	0	0	0	0	0	0	0	0	0	0	0	0	0	0	0	0	0	0	0	0	0	0		1	0	0	0	0	0	0	0
020713	13:50:28	1	Session	Session	0	3mo	1184	0	0	13:50:28	3678	0	0	0	0	0	0	0	0	0	0	0	0	0	0	0	0	0	0	0	0	0	0		1	0	0	0	0	0	0	0
020713	13:50:28	1	HandFr	HandFr	0	RightFr	807	0	0	13:50:28	4594	0	0	0	0	0	0	0	0	0	0	0	0	0	0	0	0	0	0	0	0	0	0		1	0	0	0	0	0	0	0
020713	13:50:28	1	AudioCheckFr	WordsFr	0	0	0	0	0	13:50:28	12600	0	0	0	0	0	0	0	0	0	0	0	0	0	0	0	0	0	0	0	0	0	0		1	0	0	0	0	0	0	0
020713	13:50:28	1	CubeFr	CubeFr	1	1Cube	2296	0	0	13:50:28	16856	0	0	0	0	0	0	0	0	0	0	0	0	0	0	0	0	0	0	0	0	0	0		1	0	0	0	0	0	0	0
020713	13:50:28	1	pm.simpleFrRight	blank.simpleFr	2	0	2000	1	0	13:50:28	21771	0	0	0	0	0	0	0	0	0	0	0	0	0	0	0	0	0	0	0	0	0	0		1	0	0	0	0	0	0	0
020713	13:50:28	1	pm.simpleFrRight	pm.simpleFr	2	57	1800	0	0	13:50:28	23637	0	0	0	0	0	0	0	0	0	0	0	0	0	0	0	0	0	0	0	0	0	0		1	0	0	0	0	0	0	0
020713	13:50:28	1	pm.simpleFrRight	blank.simpleFr	2	0	2200	1	0	13:50:28	25886	0	0	0	0	0	0	0	0	0	0	0	0	0	0	0	0	0	0	0	0	0	0		1	0	0	0	0	0	0	0
020713	13:50:28	1	pm.simpleFrRight	pm.simpleFr	2	57	249	0	0	13:50:28	26203	0	0	0	0	0	0	0	0	0	0	0	0	0	0	0	0	0	0	0	0	0	0		1	0	0	0	0	0	0	0
020713	13:50:28	1	pm.simpleFrRight	blank.simpleFr	2	0	1700	1	0	13:50:28	27952	0	0	0	0	0	0	0	0	0	0	0	0	0	0	0	0	0	0	0	0	0	0		1	0	0	0	0	0	0	0
020713	13:50:28	1	pm.simpleFrRight	pm.simpleFr	2	57	310	0	0	13:50:28	28319	0	0	0	0	0	0	0	0	0	0	0	0	0	0	0	0	0	0	0	0	0	0		1	0	0	0	0	0	0	0
020713	13:50:28	1	pm.simpleFrRight	blank.simpleFr	2	0	2400	1	0	13:50:28	30768	0	0	0	0	0	0	0	0	0	0	0	0	0	0	0	0	0	0	0	0	0	0		1	0	0	0	0	0	0	0
020713	13:50:28	1	pm.simpleFrRight	pm.simpleFr	2	57	210	0	0	13:50:28	31034	0	0	0	0	0	0	0	0	0	0	0	0	0	0	0	0	0	0	0	0	0	0		1	0	0	0	0	0	0	0
020713	13:50:28	1	pm.simpleFrRight	blank.simpleFr	2	0	1800	1	0	13:50:28	32884	0	0	0	0	0	0	0	0	0	0	0	0	0	0	0	0	0	0	0	0	0	0		1	0	0	0	0	0	0	0
020713	13:50:28	1	pm.simpleFrRight	pm.simpleFr	2	57	214	0	0	13:50:28	33150	0	0	0	0	0	0	0	0	0	0	0	0	0	0	0	0	0	0	0	0	0	0		1	0	0	0	0	0	0	0
020713	13:50:28	1	pm.simpleFrRight	blank.simpleFr	2	0	2500	1	0	13:50:28	35700	0	0	0	0	0	0	0	0	0	0	0	0	0	0	0	0	0	0	0	0	0	0		1	0	0	0	0	0	0	0
020713	13:50:28	1	pm.simpleFrRight	pm.simpleFr	2	57	197	0	0	13:50:28	35949	0	0	0	0	0	0	0	0	0	0	0	0	0	0	0	0	0	0	0	0	0	0		1	0	0	0	0	0	0	0
020713	13:50:28	1	pm.simpleFrRight	blank.simpleFr	2	0	1900	1	0	13:50:28	37899	0	0	0	0	0	0	0	0	0	0	0	0	0	0	0	0	0	0	0	0	0	0		1	0	0	0	0	0	0	0
020713	13:50:28	1	pm.simpleFrRight	pm.simpleFr	2	57	211	0	0	13:50:28	38165	0	0	0	0	0	0	0	0	0	0	0	0	0	0	0	0	0	0	0	0	0	0		1	0	0	0	0	0	0	0
020713	13:50:28	1	pm.simpleFrRight	blank.simpleFr	2	0	2100	1	0	13:50:28	40314	0	0	0	0	0	0	0	0	0	0	0	0	0	0	0	0	0	0	0	0	0	0		1	0	0	0	0	0	0	0
020713	13:50:28	1	pm.simpleFrRight	pm.simpleFr	2	57	2724	0	0	13:50:28	43097	0	0	0	0	0	0	0	0	0	0	0	0	0	0	0	0	0	0	0	0	0	0		1	0	0	0	0	0	0	0
020713	13:50:28	1	pm.simpleFrRight	blank.simpleFr	2	0	1500	1	0	13:50:28	44646	0	0	0	0	0	0	0	0	0	0	0	0	0	0	0	0	0	0	0	0	0	0		1	0	0	0	0	0	0	0
020713	13:50:28	1	pm.simpleFrRight	pm.simpleFr	2	57	941	0	0	13:50:28	45646	0	0	0	0	0	0	0	0	0	0	0	0	0	0	0	0	0	0	0	0	0	0		1	0	0	0	0	0	0	0
020713	13:50:28	1	pm.simpleFrRight	blank.simpleFr	2	0	2300	1	0	13:50:28	47995	0	0	0	0	0	0	0	0	0	0	0	0	0	0	0	0	0	0	0	0	0	0		1	0	0	0	0	0	0	0
020713	13:50:28	1	pm.simpleFrRight	pm.simpleFr	2	57	213	0	0	13:50:28	48261	0	0	0	0	0	0	0	0	0	0	0	0	0	0	0	0	0	0	0	0	0	0		1	0	0	0	0	0	0	0
020713	13:50:28	1	pm.simpleFrRight	blank.simpleFr	2	0	1600	1	0	13:50:28	49911	0	0	0	0	0	0	0	0	0	0	0	0	0	0	0	0	0	0	0	0	0	0		1	0	0	0	0	0	0	0
020713	13:50:28	1	pm.simpleFrRight	pm.simpleFr	2	57	316	0	0	13:50:28	50294	0	0	0	0	0	0	0	0	0	0	0	0	0	0	0	0	0	0	0	0	0	0		1	0	0	0	0	0	0	0
020713	13:50:28	1	pm.simpleFrRight	blank.simpleFr	2	0	1700	1	0	13:50:28	52044	0	0	0	0	0	0	0	0	0	0	0	0	0	0	0	0	0	0	0	0	0	0		1	0	0	0	0	0	0	0
020713	13:50:28	1	pm.simpleFrRight	pm.simpleFr	2	57	30722	0	0	13:50:28	82832	0	0	0	0	0	0	0	0	0	0	0	0	0	0	0	0	0	0	0	0	0	0		1	0	0	0	0	0	0	0
020713	13:50:28	1	pm.simpleFrRight	blank.simpleFr	2	57	1802	0	0	13:50:28	85698	0	0	0	0	0	0	0	0	0	0	0	0	0	0	0	0	0	0	0	0	0	0		1	0	0	0	0	0	0	0
020713	13:50:28	1	pm.simpleFrRight	blank.simpleFr	2	57	359	0	0	13:50:28	87114	0	0	0	0	0	0	0	0	0	0	0	0	0	0	0	0	0	0	0	0	0	0		1	0	0	0	0	0	0	0
020713	13:50:28	1	pm.simpleFrRight	blank.simpleFr	2	0	1600	1	0	13:50:28	89447	0	0	0	0	0	0	0	0	0	0	0	0	0	0	0	0	0	0	0	0	0	0		1	0	0	0	0	0	0	0
020713	13:50:28	1	pm.simpleFrRight	pm.simpleFr	2	57	778	0	0	13:50:28	90279	0	0	0	0	0	0	0	0	0	0	0	0	0	0	0	0	0	0	0	0	0	0		1	0	0	0	0	0	0	0
020713	13:50:28	1	pm.simpleFrRight	blank.simpleFr	2	0	1800	1	0	13:50:28	92129	0	0	0	0	0	0	0	0	0	0	0	0	0	0	0	0	0	0	0	0	0	0		1	0	0	0	0	0	0	0
020713	13:50:28	1	pm.simpleFrRight	pm.simpleFr	2	57	221	0	0	13:50:28	92412	0	0	0	0	0	0	0	0	0	0	0	0	0	0	0	0	0	0	0	0	0	0		1	0	0	0	0	0	0	0
020713	13:50:28	1	pm.simpleFrRight	blank.simpleFr	2	0	2300	1	0	13:50:28	94761	0	0	0	0	0	0	0	0	0	0	0	0	0	0	0	0	0	0	0	0	0	0		1	0	0	0	0	0	0	0
020713	13:50:28	1	pm.simpleFrRight	pm.simpleFr	2	57	428	0	0	13:50:28	95244	0	0	0	0	0	0	0	0	0	0	0	0	0	0	0	0	0	0	0	0	0	0		1	0	0	0	0	0	0	0
020713	13:50:28	1	pm.simpleFrRight	blank.simpleFr	2	0	2000	1	0	13:50:28	97294	0	0	0	0	0	0	0	0	0	0	0	0	0	0	0	0	0	0	0	0	0	0		1	0	0	0	0	0	0	0
020713	13:50:28	1	pm.simpleFrRight	pm.simpleFr	2	57	234	0	0	13:50:28	97594	0	0	0	0	0	0	0	0	0	0	0	0	0	0	0	0	0	0	0	0	0	0		1	0	0	0	0	0	0	0
020713	13:50:28	1	pm.simpleFrRight	blank.simpleFr	2	0	2200	1	0	13:50:28	99843	0	0	0	0	0	0	0	0	0	0	0	0	0	0	0	0	0	0	0	0	0	0		1	0	0	0	0	0	0	0
020713	13:50:28	1	pm.simpleFrRight	pm.simpleFr	2	57	235	0	0	13:50:28	100143	0	0	0	0	0	0	0	0	0	0	0	0	0	0	0	0	0	0	0	0	0	0		1	0	0	0	0	0	0	0
020713	13:50:28	1	pm.simpleFrRight	blank.simpleFr	2	0	2500	1	0	13:50:28	102692	0	0	0	0	0	0	0	0	0	0	0	0	0	0	0	0	0	0	0	0	0	0		1	0	0	0	0	0	0	0
020713	13:50:28	1	pm.simpleFrRight	pm.simpleFr	2	57	783	0	0	13:50:28	103541	0	0	0	0	0	0	0	0	0	0	0	0	0	0	0	0	0	0	0	0	0	0		1	0	0	0	0	0	0	0
020713	13:50:28	1	pm.simpleFrRight	blank.simpleFr	2	0	1500	1	0	13:50:28	105091	0	0	0	0	0	0	0	0	0	0	0	0	0	0	0	0	0	0	0	0	0	0		1	0	0	0	0	0	0	0
020713	13:50:28	1	pm.simpleFrRight	pm.simpleFr	2	57	2443	0	0	13:50:28	107607	0	0	0	0	0	0	0	0	0	0	0	0	0	0	0	0	0	0	0	0	0	0		1	0	0	0	0	0	0	0
020713	13:50:28	1	pm.simpleFrRight	blank.simpleFr	2	0	1900	1	0	13:50:28	109556	0	0	0	0	0	0	0	0	0	0	0	0	0	0	0	0	0	0	0	0	0	0		1	0	0	0	0	0	0	0
020713	13:50:28	1	pm.simpleFrRight	pm.simpleFr	2	57	160	0	0	13:50:28	109773	0	0	0	0	0	0	0	0	0	0	0	0	0	0	0	0	0	0	0	0	0	0		1	0	0	0	0	0	0	0
020713	13:50:28	1	pm.simpleFrRight	blank.simpleFr	2	0	2100	1	0	13:50:28	111922	0	0	0	0	0	0	0	0	0	0	0	0	0	0	0	0	0	0	0	0	0	0		1	0	0	0	0	0	0	0
020713	13:50:28	1	pm.simpleFrRight	pm.simpleFr	2	57	297	0	0	13:50:28	112271	0	0	0	0	0	0	0	0	0	0	0	0	0	0	0	0	0	0	0	0	0	0		1	0	0	0	0	0	0	0
020713	13:50:28	1	pm.simpleFrRight	blank.simpleFr	2	0	2200	1	0	13:50:28	114521	0	0	0	0	0	0	0	0	0	0	0	0	0	0	0	0	0	0	0	0	0	0		1	0	0	0	0	0	0	0
020713	13:50:28	1	pm.simpleFrRight	pm.simpleFr	2	57	197	0	0	13:50:28	114771	0	0	0	0	0	0	0	0	0	0	0	0	0	0	0	0	0	0	0	0	0	0		1	0	0	0	0	0	0	0
020713	13:50:28	1	pm.simpleFrRight	blank.simpleFr	2	0	2400	1	0	13:50:28	117220	0	0	0	0	0	0	0	0	0	0	0	0	0	0	0	0	0	0	0	0	0	0		1	0	0	0	0	0	0	0
020713	13:50:28	1	pm.simpleFrRight	pm.simpleFr	2	57	334	0	0	13:50:28	117620	0	0	0	0	0	0	0	0	0	0	0	0	0	0	0	0	0	0	0	0	0	0		1	0	0	0	0	0	0	0
020713	13:50:28	1	pm.simpleFrRight	blank.simpleFr	2	57	2381	0	0	13:50:28	121068	0	0	0	0	0	0	0	0	0	0	0	0	0	0	0	0	0	0	0	0	0	0		1	0	0	0	0	0	0	0
020713	13:50:28	1	pm.simpleFrRight	blank.simpleFr	2	0	2000	1	0	13:50:28	123118	0	0	0	0	0	0	0	0	0	0	0	0	0	0	0	0	0	0	0	0	0	0		1	0	0	0	0	0	0	0
020713	13:50:28	1	pm.simpleFrRight	pm.simpleFr	2	57	490	0	0	13:50:28	123668	0	0	0	0	0	0	0	0	0	0	0	0	0	0	0	0	0	0	0	0	0	0		1	0	0	0	0	0	0	0
020713	13:50:28	1	pm.simpleFrRight	blank.simpleFr	2	0	1800	1	0	13:50:28	125517	0	0	0	0	0	0	0	0	0	0	0	0	0	0	0	0	0	0	0	0	0	0		1	0	0	0	0	0	0	0
020713	13:50:28	1	pm.simpleFrRight	pm.simpleFr	2	57	207	0	0	13:50:28	125783	0	0	0	0	0	0	0	0	0	0	0	0	0	0	0	0	0	0	0	0	0	0		1	0	0	0	0	0	0	0
020713	13:50:28	1	pm.simpleFrRight	blank.simpleFr	2	0	1900	1	0	13:50:28	127733	0	0	0	0	0	0	0	0	0	0	0	0	0	0	0	0	0	0	0	0	0	0		1	0	0	0	0	0	0	0
020713	13:50:28	1	pm.simpleFrRight	pm.simpleFr	2	57	816	0	0	13:50:28	128616	0	0	0	0	0	0	0	0	0	0	0	0	0	0	0	0	0	0	0	0	0	0		1	0	0	0	0	0	0	0
020713	13:50:28	1	pm.simpleFrRight	blank.simpleFr	2	0	1700	1	0	13:50:28	130365	0	0	0	0	0	0	0	0	0	0	0	0	0	0	0	0	0	0	0	0	0	0		1	0	0	0	0	0	0	0
020713	13:50:28	1	pm.simpleFrRight	pm.simpleFr	2	57	273	0	0	13:50:28	130698	0	0	0	0	0	0	0	0	0	0	0	0	0	0	0	0	0	0	0	0	0	0		1	0	0	0	0	0	0	0
020713	13:50:28	1	pm.simpleFrRight	blank.simpleFr	2	0	1500	1	0	13:50:28	132247	0	0	0	0	0	0	0	0	0	0	0	0	0	0	0	0	0	0	0	0	0	0		1	0	0	0	0	0	0	0
020713	13:50:28	1	pm.simpleFrRight	pm.simpleFr	2	57	398	0	0	13:50:28	132698	0	0	0	0	0	0	0	0	0	0	0	0	0	0	0	0	0	0	0	0	0	0		1	0	0	0	0	0	0	0
020713	13:50:28	1	pm.simpleFrRight	blank.simpleFr	2	0	1600	1	0	13:50:28	134347	0	0	0	0	0	0	0	0	0	0	0	0	0	0	0	0	0	0	0	0	0	0		1	0	0	0	0	0	0	0
020713	13:50:28	1	pm.simpleFrRight	pm.simpleFr	2	57	425	0	0	13:50:28	134830	0	0	0	0	0	0	0	0	0	0	0	0	0	0	0	0	0	0	0	0	0	0		1	0	0	0	0	0	0	0
020713	13:50:28	1	pm.simpleFrRight	blank.simpleFr	2	0	2300	1	0	13:50:28	137179	0	0	0	0	0	0	0	0	0	0	0	0	0	0	0	0	0	0	0	0	0	0		1	0	0	0	0	0	0	0
020713	13:50:28	1	pm.simpleFrRight	pm.simpleFr	2	57	171	0	0	13:50:28	137413	0	0	0	0	0	0	0	0	0	0	0	0	0	0	0	0	0	0	0	0	0	0		1	0	0	0	0	0	0	0
020713	13:50:28	1	pm.simpleFrRight	blank.simpleFr	2	0	1800	1	0	13:50:28	139262	0	0	0	0	0	0	0	0	0	0	0	0	0	0	0	0	0	0	0	0	0	0		1	0	0	0	0	0	0	0
020713	13:50:28	1	pm.simpleFrRight	pm.simpleFr	2	57	447	0	0	13:50:28	139762	0	0	0	0	0	0	0	0	0	0	0	0	0	0	0	0	0	0	0	0	0	0		1	0	0	0	0	0	0	0
020713	13:50:28	1	pm.simpleFrRight	blank.simpleFr	2	57	2373	0	0	13:50:28	143194	0	0	0	0	0	0	0	0	0	0	0	0	0	0	0	0	0	0	0	0	0	0		1	0	0	0	0	0	0	0
020713	13:50:28	1	pm.simpleFrRight	blank.simpleFr	2	57	389	0	0	13:50:28	144643	0	0	0	0	0	0	0	0	0	0	0	0	0	0	0	0	0	0	0	0	0	0		1	0	0	0	0	0	0	0
020713	13:50:28	1	pm.simpleFrRight	blank.simpleFr	2	57	338	0	0	13:50:28	146093	0	0	0	0	0	0	0	0	0	0	0	0	0	0	0	0	0	0	0	0	0	0		1	0	0	0	0	0	0	0
020713	13:50:28	1	pm.simpleFrRight	blank.simpleFr	2	57	257	0	0	13:50:28	148509	0	0	0	0	0	0	0	0	0	0	0	0	0	0	0	0	0	0	0	0	0	0		1	0	0	0	0	0	0	0
020713	13:50:28	1	pm.simpleFrRight	blank.simpleFr	2	0	2300	1	0	13:50:28	151641	0	0	0	0	0	0	0	0	0	0	0	0	0	0	0	0	0	0	0	0	0	0		1	0	0	0	0	0	0	0
020713	13:50:28	1	pm.simpleFrRight	pm.simpleFr	2	57	307	0	0	13:50:28	152007	0	0	0	0	0	0	0	0	0	0	0	0	0	0	0	0	0	0	0	0	0	0		1	0	0	0	0	0	0	0
020713	13:50:28	1	pm.simpleFrRight	blank.simpleFr	2	0	1700	1	0	13:50:28	153756	0	0	0	0	0	0	0	0	0	0	0	0	0	0	0	0	0	0	0	0	0	0		1	0	0	0	0	0	0	0
020713	13:50:28	1	pm.simpleFrRight	pm.simpleFr	2	57	2423	0	0	13:50:28	156239	0	0	0	0	0	0	0	0	0	0	0	0	0	0	0	0	0	0	0	0	0	0		1	0	0	0	0	0	0	0
020713	13:50:28	1	pm.simpleFrRight	blank.simpleFr	2	0	1600	1	0	13:50:28	157888	0	0	0	0	0	0	0	0	0	0	0	0	0	0	0	0	0	0	0	0	0	0		1	0	0	0	0	0	0	0
020713	13:50:28	1	pm.simpleFrRight	pm.simpleFr	2	57	2929	0	0	13:50:28	160870	0	0	0	0	0	0	0	0	0	0	0	0	0	0	0	0	0	0	0	0	0	0		1	0	0	0	0	0	0	0
020713	13:50:28	1	pm.simpleFrRight	blank.simpleFr	2	0	2000	1	0	13:50:28	162920	0	0	0	0	0	0	0	0	0	0	0	0	0	0	0	0	0	0	0	0	0	0		1	0	0	0	0	0	0	0
020713	13:50:28	1	pm.simpleFrRight	pm.simpleFr	2	57	2708	0	0	13:50:28	165686	0	0	0	0	0	0	0	0	0	0	0	0	0	0	0	0	0	0	0	0	0	0		1	0	0	0	0	0	0	0
020713	13:50:28	1	pm.simpleFrRight	blank.simpleFr	2	0	1900	1	0	13:50:28	167635	0	0	0	0	0	0	0	0	0	0	0	0	0	0	0	0	0	0	0	0	0	0		1	0	0	0	0	0	0	0
020713	13:50:28	1	pm.simpleFrRight	pm.simpleFr	2	57	3392	0	0	13:50:28	171083	0	0	0	0	0	0	0	0	0	0	0	0	0	0	0	0	0	0	0	0	0	0		1	0	0	0	0	0	0	0
020713	13:50:28	1	pm.simpleFrRight	blank.simpleFr	2	0	2200	1	0	13:50:28	173333	0	0	0	0	0	0	0	0	0	0	0	0	0	0	0	0	0	0	0	0	0	0		1	0	0	0	0	0	0	0
020713	13:50:28	1	pm.simpleFrRight	pm.simpleFr	2	57	444	0	0	13:50:28	173832	0	0	0	0	0	0	0	0	0	0	0	0	0	0	0	0	0	0	0	0	0	0		1	0	0	0	0	0	0	0
020713	13:50:28	1	pm.simpleFrRight	blank.simpleFr	2	57	1678	0	0	13:50:28	176565	0	0	0	0	0	0	0	0	0	0	0	0	0	0	0	0	0	0	0	0	0	0		1	0	0	0	0	0	0	0
020713	13:50:28	1	pm.simpleFrRight	blank.simpleFr	2	0	1500	1	0	13:50:28	178114	0	0	0	0	0	0	0	0	0	0	0	0	0	0	0	0	0	0	0	0	0	0		1	0	0	0	0	0	0	0
020713	13:50:28	1	pm.simpleFrRight	pm.simpleFr	2	57	2592	0	0	13:50:28	180763	0	0	0	0	0	0	0	0	0	0	0	0	0	0	0	0	0	0	0	0	0	0		1	0	0	0	0	0	0	0
020713	13:50:28	1	pm.simpleFrRight	blank.simpleFr	2	0	1600	1	0	13:50:28	182413	0	0	0	0	0	0	0	0	0	0	0	0	0	0	0	0	0	0	0	0	0	0		1	0	0	0	0	0	0	0
020713	13:50:28	1	pm.simpleFrRight	pm.simpleFr	2	57	4094	0	0	13:50:28	186561	0	0	0	0	0	0	0	0	0	0	0	0	0	0	0	0	0	0	0	0	0	0		1	0	0	0	0	0	0	0
020713	13:50:28	1	pm.simpleFrRight	blank.simpleFr	2	0	2300	1	0	13:50:28	188910	0	0	0	0	0	0	0	0	0	0	0	0	0	0	0	0	0	0	0	0	0	0		1	0	0	0	0	0	0	0
020713	13:50:28	1	pm.simpleFrRight	pm.simpleFr	2	57	5539	0	0	13:50:28	194508	0	0	0	0	0	0	0	0	0	0	0	0	0	0	0	0	0	0	0	0	0	0		1	0	0	0	0	0	0	0
020713	13:50:28	1	Trial2BackFr	N	3	0	1000	1	1	13:50:28	220199	0	0	0	0	0	0	0	0	0	0	0	0	0	0	0	0	0	0	0	0	0	0		1	0	0	0	0	0	0	0
020713	13:50:28	1	Trial2BackFr	N	3	0	1000	1	2	13:50:28	221715	0	0	0	0	0	0	0	0	0	0	0	0	0	0	0	0	0	0	0	0	0	0		1	0	0	0	0	0	0	0
020713	13:50:28	1	Trial2BackFr	N	3	0	1000	1	3	13:50:28	223231	0	0	0	0	0	0	0	0	0	0	0	0	0	0	0	0	0	0	0	0	0	0		1	0	0	0	0	0	0	0
020713	13:50:28	1	Trial2BackFr	N	3	0	1000	1	4	13:50:28	224747	0	0	0	0	0	0	0	0	0	0	0	0	0	0	0	0	0	0	0	0	0	0		1	0	0	0	0	0	0	0
020713	13:50:28	1	Trial2BackFr	N	3	0	1000	1	5	13:50:28	226264	0	0	0	0	0	0	0	0	0	0	0	0	0	0	0	0	0	0	0	0	0	0		1	0	0	0	0	0	0	0
020713	13:50:28	1	Trial2BackFr	N	3	0	1000	1	6	13:50:28	227780	0	0	0	0	0	0	0	0	0	0	0	0	0	0	0	0	0	0	0	0	0	0		1	0	0	0	0	0	0	0
020713	13:50:28	1	Trial2BackFr	N	3	0	1000	1	7	13:50:28	229296	0	0	0	0	0	0	0	0	0	0	0	0	0	0	0	0	0	0	0	0	0	0		1	0	0	0	0	0	0	0
020713	13:50:28	1	Trial2BackFr	N	3	0	1000	1	8	13:50:28	230812	0	0	0	0	0	0	0	0	0	0	0	0	0	0	0	0	0	0	0	0	0	0		1	0	0	0	0	0	0	0
020713	13:50:28	1	Trial2BackFr	Y	3	0	1000	0	8	13:50:28	232328	0	0	0	0	0	0	0	0	0	0	0	0	0	0	0	0	0	0	0	0	0	0		1	0	0	0	0	0	0	0
020713	13:50:28	1	Trial2BackFr	N	3	0	1000	1	9	13:50:28	233844	0	0	0	0	0	0	0	0	0	0	0	0	0	0	0	0	0	0	0	0	0	0		1	0	0	0	0	0	0	0
020713	13:50:28	1	Trial2BackFr	N	3	0	1000	1	10	13:50:28	235360	0	0	0	0	0	0	0	0	0	0	0	0	0	0	0	0	0	0	0	0	0	0		1	0	0	0	0	0	0	0
020713	13:50:28	1	Trial2BackFr	N	3	0	1000	1	11	13:50:28	236876	0	0	0	0	0	0	0	0	0	0	0	0	0	0	0	0	0	0	0	0	0	0		1	0	0	0	0	0	0	0
020713	13:50:28	1	Trial2BackFr	Y	3	0	1000	0	11	13:50:28	238393	0	0	0	0	0	0	0	0	0	0	0	0	0	0	0	0	0	0	0	0	0	0		1	0	0	0	0	0	0	0
020713	13:50:28	1	Trial2BackFr	N	3	0	1000	1	12	13:50:28	239909	0	0	0	0	0	0	0	0	0	0	0	0	0	0	0	0	0	0	0	0	0	0		1	0	0	0	0	0	0	0
020713	13:50:28	1	Trial2BackFr	N	3	0	1000	1	13	13:50:28	241425	0	0	0	0	0	0	0	0	0	0	0	0	0	0	0	0	0	0	0	0	0	0		1	0	0	0	0	0	0	0
020713	13:50:28	1	Trial2BackFr	N	3	0	1000	1	14	13:50:28	242941	0	0	0	0	0	0	0	0	0	0	0	0	0	0	0	0	0	0	0	0	0	0		1	0	0	0	0	0	0	0
020713	13:50:28	1	Trial2BackFr	N	3	0	1000	1	15	13:50:28	244457	0	0	0	0	0	0	0	0	0	0	0	0	0	0	0	0	0	0	0	0	0	0		1	0	0	0	0	0	0	0
020713	13:50:28	1	Trial2BackFr	N	3	0	1000	1	16	13:50:28	245973	0	0	0	0	0	0	0	0	0	0	0	0	0	0	0	0	0	0	0	0	0	0		1	0	0	0	0	0	0	0
020713	13:50:28	1	Trial2BackFr	Y	3	0	1000	0	16	13:50:28	247489	0	0	0	0	0	0	0	0	0	0	0	0	0	0	0	0	0	0	0	0	0	0		1	0	0	0	0	0	0	0
020713	13:50:28	1	Trial2BackFr	N	3	0	1000	1	17	13:50:28	249005	0	0	0	0	0	0	0	0	0	0	0	0	0	0	0	0	0	0	0	0	0	0		1	0	0	0	0	0	0	0
020713	13:50:28	1	Trial2BackFr	N	3	0	1000	1	18	13:50:28	250521	0	0	0	0	0	0	0	0	0	0	0	0	0	0	0	0	0	0	0	0	0	0		1	0	0	0	0	0	0	0
020713	13:50:28	1	Trial2BackFr	N	3	0	1000	1	19	13:50:28	252039	0	0	0	0	0	0	0	0	0	0	0	0	0	0	0	0	0	0	0	0	0	0		1	0	0	0	0	0	0	0
020713	13:50:28	1	Trial2BackFr	N	3	0	1000	1	20	13:50:28	253554	0	0	0	0	0	0	0	0	0	0	0	0	0	0	0	0	0	0	0	0	0	0		1	0	0	0	0	0	0	0
020713	13:50:28	1	Trial2BackFr	Y	3	0	1000	0	20	13:50:28	255070	0	0	0	0	0	0	0	0	0	0	0	0	0	0	0	0	0	0	0	0	0	0		1	0	0	0	0	0	0	0
020713	13:50:28	1	Trial2BackFr	N	3	0	1000	1	21	13:50:28	256586	0	0	0	0	0	0	0	0	0	0	0	0	0	0	0	0	0	0	0	0	0	0		1	0	0	0	0	0	0	0
020713	13:50:28	1	Trial2BackFr	N	3	0	1000	1	22	13:50:28	258102	0	0	0	0	0	0	0	0	0	0	0	0	0	0	0	0	0	0	0	0	0	0		1	0	0	0	0	0	0	0
020713	13:50:28	1	Trial2BackFr	N	3	0	1000	1	23	13:50:28	259618	0	0	0	0	0	0	0	0	0	0	0	0	0	0	0	0	0	0	0	0	0	0		1	0	0	0	0	0	0	0
020713	13:50:28	1	Trial2BackFr	N	3	0	1000	1	24	13:50:28	261134	0	0	0	0	0	0	0	0	0	0	0	0	0	0	0	0	0	0	0	0	0	0		1	0	0	0	0	0	0	0
020713	13:50:28	1	Trial2BackFr	N	3	0	1000	1	25	13:50:28	262650	0	0	0	0	0	0	0	0	0	0	0	0	0	0	0	0	0	0	0	0	0	0		1	0	0	0	0	0	0	0
020713	13:50:28	1	Trial2BackFr	N	3	0	1000	1	26	13:50:28	264167	0	0	0	0	0	0	0	0	0	0	0	0	0	0	0	0	0	0	0	0	0	0		1	0	0	0	0	0	0	0
020713	13:50:28	1	Trial2BackFr	Y	3	0	1000	0	26	13:50:28	265683	0	0	0	0	0	0	0	0	0	0	0	0	0	0	0	0	0	0	0	0	0	0		1	0	0	0	0	0	0	0
020713	13:50:28	1	Trial2BackFr	N	3	0	1000	1	27	13:50:28	267199	0	0	0	0	0	0	0	0	0	0	0	0	0	0	0	0	0	0	0	0	0	0		1	0	0	0	0	0	0	0
020713	13:50:28	1	Trial2BackFr	N	3	0	1000	1	28	13:50:28	268715	0	0	0	0	0	0	0	0	0	0	0	0	0	0	0	0	0	0	0	0	0	0		1	0	0	0	0	0	0	0
020713	13:50:28	1	Trial2BackFr	N	3	0	1000	1	29	13:50:28	270231	0	0	0	0	0	0	0	0	0	0	0	0	0	0	0	0	0	0	0	0	0	0		1	0	0	0	0	0	0	0
020713	13:50:28	1	Trial2BackFr	Y	3	0	1000	0	29	13:50:28	271747	0	0	0	0	0	0	0	0	0	0	0	0	0	0	0	0	0	0	0	0	0	0		1	0	0	0	0	0	0	0
020713	13:50:28	1	Trial2BackFr	N	3	0	1000	1	30	13:50:28	273263	0	0	0	0	0	0	0	0	0	0	0	0	0	0	0	0	0	0	0	0	0	0		1	0	0	0	0	0	0	0
020713	13:50:28	1	Trial2BackFr	N	3	0	1000	1	31	13:50:28	274779	0	0	0	0	0	0	0	0	0	0	0	0	0	0	0	0	0	0	0	0	0	0		1	0	0	0	0	0	0	0
020713	13:50:28	1	Trial2BackFr	N	3	0	1000	1	32	13:50:28	276295	0	0	0	0	0	0	0	0	0	0	0	0	0	0	0	0	0	0	0	0	0	0		1	0	0	0	0	0	0	0
020713	13:50:28	1	Trial2BackFr	N	3	0	1000	1	33	13:50:28	277812	0	0	0	0	0	0	0	0	0	0	0	0	0	0	0	0	0	0	0	0	0	0		1	0	0	0	0	0	0	0
020713	13:50:28	1	Trial2BackFr	N	3	0	1000	1	34	13:50:28	279328	0	0	0	0	0	0	0	0	0	0	0	0	0	0	0	0	0	0	0	0	0	0		1	0	0	0	0	0	0	0
020713	13:50:28	1	Trial2BackFr	N	3	0	1000	1	35	13:50:28	280844	0	0	0	0	0	0	0	0	0	0	0	0	0	0	0	0	0	0	0	0	0	0		1	0	0	0	0	0	0	0
020713	13:50:28	1	Trial2BackFr	Y	3	0	1000	0	35	13:50:28	282360	0	0	0	0	0	0	0	0	0	0	0	0	0	0	0	0	0	0	0	0	0	0		1	0	0	0	0	0	0	0
020713	13:50:28	1	Trial2BackFr	N	3	0	1000	1	36	13:50:28	283876	0	0	0	0	0	0	0	0	0	0	0	0	0	0	0	0	0	0	0	0	0	0		1	0	0	0	0	0	0	0
020713	13:50:28	1	Trial2BackFr	N	3	0	1000	1	37	13:50:28	285392	0	0	0	0	0	0	0	0	0	0	0	0	0	0	0	0	0	0	0	0	0	0		1	0	0	0	0	0	0	0
020713	13:50:28	1	Trial2BackFr	N	3	0	1000	1	38	13:50:28	286908	0	0	0	0	0	0	0	0	0	0	0	0	0	0	0	0	0	0	0	0	0	0		1	0	0	0	0	0	0	0
020713	13:50:28	1	Trial2BackFr	N	3	0	1000	1	39	13:50:28	288424	0	0	0	0	0	0	0	0	0	0	0	0	0	0	0	0	0	0	0	0	0	0		1	0	0	0	0	0	0	0
020713	13:50:28	1	Trial2BackFr	Y	3	0	1000	0	39	13:50:28	289941	0	0	0	0	0	0	0	0	0	0	0	0	0	0	0	0	0	0	0	0	0	0		1	0	0	0	0	0	0	0
020713	13:50:28	1	Trial2BackFr	N	3	0	1000	1	40	13:50:28	291457	0	0	0	0	0	0	0	0	0	0	0	0	0	0	0	0	0	0	0	0	0	0		1	0	0	0	0	0	0	0
020713	13:50:28	1	Trial2BackFr	N	3	0	1000	1	41	13:50:28	292973	0	0	0	0	0	0	0	0	0	0	0	0	0	0	0	0	0	0	0	0	0	0		1	0	0	0	0	0	0	0
020713	13:50:28	1	Trial2BackFr	N	3	0	1000	1	42	13:50:28	294489	0	0	0	0	0	0	0	0	0	0	0	0	0	0	0	0	0	0	0	0	0	0		1	0	0	0	0	0	0	0
020713	13:50:28	1	Trial2BackFr	N	3	0	1000	1	43	13:50:28	296005	0	0	0	0	0	0	0	0	0	0	0	0	0	0	0	0	0	0	0	0	0	0		1	0	0	0	0	0	0	0
020713	13:50:28	1	Trial2BackFr	N	3	0	1000	1	44	13:50:28	297521	0	0	0	0	0	0	0	0	0	0	0	0	0	0	0	0	0	0	0	0	0	0		1	0	0	0	0	0	0	0
020713	13:50:28	1	Trial2BackFr	Y	3	0	1000	0	44	13:50:28	299037	0	0	0	0	0	0	0	0	0	0	0	0	0	0	0	0	0	0	0	0	0	0		1	0	0	0	0	0	0	0
020713	13:50:28	1	Trial2BackFr	N	3	0	1000	1	45	13:50:28	300553	0	0	0	0	0	0	0	0	0	0	0	0	0	0	0	0	0	0	0	0	0	0		1	0	0	0	0	0	0	0
020713	13:50:28	1	Trial2BackFr	N	3	0	1000	1	46	13:50:28	302069	0	0	0	0	0	0	0	0	0	0	0	0	0	0	0	0	0	0	0	0	0	0		1	0	0	0	0	0	0	0
020713	13:50:28	1	Trial2BackFr	N	3	0	1000	1	47	13:50:28	303586	0	0	0	0	0	0	0	0	0	0	0	0	0	0	0	0	0	0	0	0	0	0		1	0	0	0	0	0	0	0
020713	13:50:28	1	Trial2BackFr	N	3	0	1000	1	48	13:50:28	305102	0	0	0	0	0	0	0	0	0	0	0	0	0	0	0	0	0	0	0	0	0	0		1	0	0	0	0	0	0	0
020713	13:50:28	1	Trial2BackFr	N	3	0	1000	1	49	13:50:28	306618	0	0	0	0	0	0	0	0	0	0	0	0	0	0	0	0	0	0	0	0	0	0		1	0	0	0	0	0	0	0
020713	13:50:28	1	Trial2BackFr	N	3	0	1000	1	50	13:50:28	308134	0	0	0	0	0	0	0	0	0	0	0	0	0	0	0	0	0	0	0	0	0	0		1	0	0	0	0	0	0	0
020713	13:50:28	1	Trial2BackFr	Y	3	0	1000	0	50	13:50:28	309650	0	0	0	0	0	0	0	0	0	0	0	0	0	0	0	0	0	0	0	0	0	0		1	0	0	0	0	0	0	0
020713	13:50:28	1	Trial2BackFr	N	3	0	1000	1	51	13:50:28	311166	0	0	0	0	0	0	0	0	0	0	0	0	0	0	0	0	0	0	0	0	0	0		1	0	0	0	0	0	0	0
020713	13:50:28	1	Trial2BackFr	N	3	0	1000	1	52	13:50:28	312682	0	0	0	0	0	0	0	0	0	0	0	0	0	0	0	0	0	0	0	0	0	0		1	0	0	0	0	0	0	0
020713	13:50:28	1	Trial2BackFr	Y	3	0	1000	0	52	13:50:28	314198	0	0	0	0	0	0	0	0	0	0	0	0	0	0	0	0	0	0	0	0	0	0		1	0	0	0	0	0	0	0
020713	13:50:28	1	Trial2BackFr	N	3	0	1000	1	53	13:50:28	315714	0	0	0	0	0	0	0	0	0	0	0	0	0	0	0	0	0	0	0	0	0	0		1	0	0	0	0	0	0	0
020713	13:50:28	1	Trial2BackFr	N	3	0	1000	1	54	13:50:28	317231	0	0	0	0	0	0	0	0	0	0	0	0	0	0	0	0	0	0	0	0	0	0		1	0	0	0	0	0	0	0
020713	13:50:28	1	Trial2BackFr	N	3	0	1000	1	55	13:50:28	318747	0	0	0	0	0	0	0	0	0	0	0	0	0	0	0	0	0	0	0	0	0	0		1	0	0	0	0	0	0	0
020713	13:50:28	1	Trial2BackFr	N	3	0	1000	1	56	13:50:28	320263	0	0	0	0	0	0	0	0	0	0	0	0	0	0	0	0	0	0	0	0	0	0		1	0	0	0	0	0	0	0
020713	13:50:28	1	Trial2BackFr	N	3	0	1000	1	57	13:50:28	321779	0	0	0	0	0	0	0	0	0	0	0	0	0	0	0	0	0	0	0	0	0	0		1	0	0	0	0	0	0	0
020713	13:50:28	1	Trial2BackFr	N	3	0	1000	1	58	13:50:28	323295	0	0	0	0	0	0	0	0	0	0	0	0	0	0	0	0	0	0	0	0	0	0		1	0	0	0	0	0	0	0
020713	13:50:28	1	Trial2BackFr	N	3	0	1000	1	59	13:50:28	324811	0	0	0	0	0	0	0	0	0	0	0	0	0	0	0	0	0	0	0	0	0	0		1	0	0	0	0	0	0	0
020713	13:50:28	1	Trial2BackFr	N	3	0	1000	1	60	13:50:28	326327	0	0	0	0	0	0	0	0	0	0	0	0	0	0	0	0	0	0	0	0	0	0		1	0	0	0	0	0	0	0
020713	13:50:28	1	Trial2BackFr	N	3	0	1000	1	61	13:50:28	327843	0	0	0	0	0	0	0	0	0	0	0	0	0	0	0	0	0	0	0	0	0	0		1	0	0	0	0	0	0	0
020713	13:50:28	1	Trial2BackFr	N	3	0	1000	1	62	13:50:28	329360	0	0	0	0	0	0	0	0	0	0	0	0	0	0	0	0	0	0	0	0	0	0		1	0	0	0	0	0	0	0
020713	13:50:28	1	Trial2BackFr	Y	3	0	1000	0	62	13:50:28	330876	0	0	0	0	0	0	0	0	0	0	0	0	0	0	0	0	0	0	0	0	0	0		1	0	0	0	0	0	0	0
020713	13:50:28	1	Trial2BackFr	N	3	0	1000	1	63	13:50:28	332392	0	0	0	0	0	0	0	0	0	0	0	0	0	0	0	0	0	0	0	0	0	0		1	0	0	0	0	0	0	0
020713	13:50:28	1	Trial2BackFr	N	3	0	1000	1	64	13:50:28	333908	0	0	0	0	0	0	0	0	0	0	0	0	0	0	0	0	0	0	0	0	0	0		1	0	0	0	0	0	0	0
020713	13:50:28	1	Trial2BackFr	N	3	0	1000	1	65	13:50:28	335424	0	0	0	0	0	0	0	0	0	0	0	0	0	0	0	0	0	0	0	0	0	0		1	0	0	0	0	0	0	0
020713	13:50:28	1	Trial2BackFr	Y	3	0	1000	0	65	13:50:28	336940	0	0	0	0	0	0	0	0	0	0	0	0	0	0	0	0	0	0	0	0	0	0		1	0	0	0	0	0	0	0
020713	13:50:28	1	Trial2BackFr	N	3	0	1000	1	66	13:50:28	338456	0	0	0	0	0	0	0	0	0	0	0	0	0	0	0	0	0	0	0	0	0	0		1	0	0	0	0	0	0	0
020713	13:50:28	1	Trial2BackFr	N	3	0	1000	1	67	13:50:28	339972	0	0	0	0	0	0	0	0	0	0	0	0	0	0	0	0	0	0	0	0	0	0		1	0	0	0	0	0	0	0
020713	13:50:28	1	Trial2BackFr	N	3	0	1000	1	68	13:50:28	341488	0	0	0	0	0	0	0	0	0	0	0	0	0	0	0	0	0	0	0	0	0	0		1	0	0	0	0	0	0	0
020713	13:50:28	1	Trial2BackFr	N	3	0	1000	1	69	13:50:28	343005	0	0	0	0	0	0	0	0	0	0	0	0	0	0	0	0	0	0	0	0	0	0		1	0	0	0	0	0	0	0
020713	13:50:28	1	Trial2BackFr	N	3	0	1000	1	70	13:50:28	344521	0	0	0	0	0	0	0	0	0	0	0	0	0	0	0	0	0	0	0	0	0	0		1	0	0	0	0	0	0	0
020713	13:50:28	1	Trial2BackFr	Y	3	0	1000	0	70	13:50:28	346037	0	0	0	0	0	0	0	0	0	0	0	0	0	0	0	0	0	0	0	0	0	0		1	0	0	0	0	0	0	0
020713	13:50:28	1	Trial2BackFr	N	3	0	1000	1	71	13:50:28	347553	0	0	0	0	0	0	0	0	0	0	0	0	0	0	0	0	0	0	0	0	0	0		1	0	0	0	0	0	0	0
020713	13:50:28	1	Trial2BackFr	N	3	0	1000	1	72	13:50:28	349069	0	0	0	0	0	0	0	0	0	0	0	0	0	0	0	0	0	0	0	0	0	0		1	0	0	0	0	0	0	0
020713	13:50:28	1	Trial2BackFr	N	3	0	1000	1	73	13:50:28	350585	0	0	0	0	0	0	0	0	0	0	0	0	0	0	0	0	0	0	0	0	0	0		1	0	0	0	0	0	0	0
020713	13:50:28	1	Trial2BackFr	N	3	0	1000	1	74	13:50:28	352101	0	0	0	0	0	0	0	0	0	0	0	0	0	0	0	0	0	0	0	0	0	0		1	0	0	0	0	0	0	0
020713	13:50:28	1	Trial2BackFr	N	3	0	1000	1	75	13:50:28	353617	0	0	0	0	0	0	0	0	0	0	0	0	0	0	0	0	0	0	0	0	0	0		1	0	0	0	0	0	0	0
020713	13:50:28	1	Trial2BackFr	N	3	0	1000	1	76	13:50:28	355134	0	0	0	0	0	0	0	0	0	0	0	0	0	0	0	0	0	0	0	0	0	0		1	0	0	0	0	0	0	0
020713	13:50:28	1	Trial2BackFr	N	3	0	1000	1	77	13:50:28	356650	0	0	0	0	0	0	0	0	0	0	0	0	0	0	0	0	0	0	0	0	0	0		1	0	0	0	0	0	0	0
020713	13:50:28	1	Trial2BackFr	N	3	0	1000	1	78	13:50:28	358166	0	0	0	0	0	0	0	0	0	0	0	0	0	0	0	0	0	0	0	0	0	0		1	0	0	0	0	0	0	0
020713	13:50:28	1	Trial2BackFr	N	3	0	1000	1	79	13:50:28	359682	0	0	0	0	0	0	0	0	0	0	0	0	0	0	0	0	0	0	0	0	0	0		1	0	0	0	0	0	0	0
020713	13:50:28	1	Trial2BackFr	Y	3	0	1000	0	79	13:50:28	361198	0	0	0	0	0	0	0	0	0	0	0	0	0	0	0	0	0	0	0	0	0	0		1	0	0	0	0	0	0	0
020713	13:50:28	1	Trial2BackFr	N	3	0	1000	1	80	13:50:28	362714	0	0	0	0	0	0	0	0	0	0	0	0	0	0	0	0	0	0	0	0	0	0		1	0	0	0	0	0	0	0
020713	13:50:28	1	Trial2BackFr	N	3	0	1000	1	81	13:50:28	364230	0	0	0	0	0	0	0	0	0	0	0	0	0	0	0	0	0	0	0	0	0	0		1	0	0	0	0	0	0	0
020713	13:50:28	1	Trial2BackFr	N	3	0	1000	1	82	13:50:28	365746	0	0	0	0	0	0	0	0	0	0	0	0	0	0	0	0	0	0	0	0	0	0		1	0	0	0	0	0	0	0
020713	13:50:28	1	Trial2BackFr	N	3	0	1000	1	83	13:50:28	367262	0	0	0	0	0	0	0	0	0	0	0	0	0	0	0	0	0	0	0	0	0	0		1	0	0	0	0	0	0	0
020713	13:50:28	1	Trial2BackFr	N	3	0	1000	1	84	13:50:28	368779	0	0	0	0	0	0	0	0	0	0	0	0	0	0	0	0	0	0	0	0	0	0		1	0	0	0	0	0	0	0
020713	13:50:28	1	Trial2BackFr	N	3	0	1000	1	85	13:50:28	370295	0	0	0	0	0	0	0	0	0	0	0	0	0	0	0	0	0	0	0	0	0	0		1	0	0	0	0	0	0	0
020713	13:50:28	1	Trial2BackFr	N	3	0	1000	1	86	13:50:28	371811	0	0	0	0	0	0	0	0	0	0	0	0	0	0	0	0	0	0	0	0	0	0		1	0	0	0	0	0	0	0
020713	13:50:28	1	Trial2BackFr	N	3	0	1000	1	87	13:50:28	373327	0	0	0	0	0	0	0	0	0	0	0	0	0	0	0	0	0	0	0	0	0	0		1	0	0	0	0	0	0	0
020713	13:50:28	1	Trial2BackFr	Y	3	0	1000	0	87	13:50:28	374843	0	0	0	0	0	0	0	0	0	0	0	0	0	0	0	0	0	0	0	0	0	0		1	0	0	0	0	0	0	0
020713	13:50:28	1	Trial2BackFr	N	3	0	1000	1	88	13:50:28	376359	0	0	0	0	0	0	0	0	0	0	0	0	0	0	0	0	0	0	0	0	0	0		1	0	0	0	0	0	0	0
020713	13:50:28	1	Trial2BackFr	N	3	0	1000	1	89	13:50:28	377875	0	0	0	0	0	0	0	0	0	0	0	0	0	0	0	0	0	0	0	0	0	0		1	0	0	0	0	0	0	0
020713	13:50:28	1	Trial2BackFr	N	3	0	1000	1	90	13:50:28	379391	0	0	0	0	0	0	0	0	0	0	0	0	0	0	0	0	0	0	0	0	0	0		1	0	0	0	0	0	0	0
020713	13:50:28	1	Trial2BackFr	N	3	0	1000	1	91	13:50:28	380907	0	0	0	0	0	0	0	0	0	0	0	0	0	0	0	0	0	0	0	0	0	0		1	0	0	0	0	0	0	0
020713	13:50:28	1	Trial2BackFr	Y	3	0	1000	0	91	13:50:28	382424	0	0	0	0	0	0	0	0	0	0	0	0	0	0	0	0	0	0	0	0	0	0		1	0	0	0	0	0	0	0
020713	13:50:28	1	Trial2BackFr	N	3	0	1000	1	92	13:50:28	383940	0	0	0	0	0	0	0	0	0	0	0	0	0	0	0	0	0	0	0	0	0	0		1	0	0	0	0	0	0	0
020713	13:50:28	1	Trial2BackFr	N	3	0	1000	1	93	13:50:28	385456	0	0	0	0	0	0	0	0	0	0	0	0	0	0	0	0	0	0	0	0	0	0		1	0	0	0	0	0	0	0
020713	13:50:28	1	Trial2BackFr	N	3	0	1000	1	94	13:50:28	386972	0	0	0	0	0	0	0	0	0	0	0	0	0	0	0	0	0	0	0	0	0	0		1	0	0	0	0	0	0	0
020713	13:50:28	1	Trial2BackFr	Y	3	0	1000	0	94	13:50:28	388488	0	0	0	0	0	0	0	0	0	0	0	0	0	0	0	0	0	0	0	0	0	0		1	0	0	0	0	0	0	0
020713	13:50:28	1	Trial2BackFr	N	3	0	1000	1	95	13:50:28	390004	0	0	0	0	0	0	0	0	0	0	0	0	0	0	0	0	0	0	0	0	0	0		1	0	0	0	0	0	0	0
020713	13:50:28	1	Trial2BackFr	N	3	0	1000	1	96	13:50:28	391520	0	0	0	0	0	0	0	0	0	0	0	0	0	0	0	0	0	0	0	0	0	0		1	0	0	0	0	0	0	0
020713	13:50:28	1	Trial2BackFr	N	3	0	1000	1	97	13:50:28	393036	0	0	0	0	0	0	0	0	0	0	0	0	0	0	0	0	0	0	0	0	0	0		1	0	0	0	0	0	0	0
020713	13:50:28	1	Trial2BackFr	N	3	0	1000	1	98	13:50:28	394553	0	0	0	0	0	0	0	0	0	0	0	0	0	0	0	0	0	0	0	0	0	0		1	0	0	0	0	0	0	0
020713	13:50:28	1	Trial2BackFr	N	3	0	1000	1	99	13:50:28	396069	0	0	0	0	0	0	0	0	0	0	0	0	0	0	0	0	0	0	0	0	0	0		1	0	0	0	0	0	0	0
020713	13:50:28	1	Trial2BackFr	Y	3	0	1000	0	99	13:50:28	397585	0	0	0	0	0	0	0	0	0	0	0	0	0	0	0	0	0	0	0	0	0	0		1	0	0	0	0	0	0	0
020713	13:50:28	1	Trial2BackFr	N	3	0	1000	1	100	13:50:28	399101	0	0	0	0	0	0	0	0	0	0	0	0	0	0	0	0	0	0	0	0	0	0		1	0	0	0	0	0	0	0
020713	13:50:28	1	Trial2BackFr	N	3	0	1000	1	101	13:50:28	400617	0	0	0	0	0	0	0	0	0	0	0	0	0	0	0	0	0	0	0	0	0	0		1	0	0	0	0	0	0	0
020713	13:50:28	1	Trial2BackFr	N	3	0	1000	1	102	13:50:28	402133	0	0	0	0	0	0	0	0	0	0	0	0	0	0	0	0	0	0	0	0	0	0		1	0	0	0	0	0	0	0
020713	13:50:28	1	Trial2BackFr	Y	3	0	1000	0	102	13:50:28	403649	0	0	0	0	0	0	0	0	0	0	0	0	0	0	0	0	0	0	0	0	0	0		1	0	0	0	0	0	0	0
020713	13:50:28	1	Memory1R3moFr	ScoreFr	5	Done	6774	0	102	13:50:28	749723	0	0	0	0	0	0	0	0	0	0	0	0	0	0	0	0	0	0	0	0	0	0		1	0	0	0	0	0	0	0
020713	13:50:28	1	Memory2R3moFr	ScoreFr2	5	Done	3007	0	102	13:50:28	793791	0	0	0	0	0	0	0	0	0	0	0	0	0	0	0	0	0	0	0	0	0	0		1	0	0	0	0	0	0	0
020713	13:50:28	1	Memory3R3moFr	ScoreFr3	5	Done	3001	0	102	13:50:28	820181	0	0	0	0	0	0	0	0	0	0	0	0	0	0	0	0	0	0	0	0	0	0		1	0	0	0	0	0	0	0
020713	13:50:28	1	LoriaFrLH3	Stop	6		2872	0	102	13:50:28	936705	0	0	0	0	0	0	0	0	0	0	0	0	0	0	0	0	0	0	0	0	0	0		1	0	0	0	0	0	0	0
020713	13:50:28	1	FrTrail	Trails	7	1Trails	69239	0	102	13:50:28	1060127	0	0	0	0	0	0	0	0	0	0	0	0	0	0	0	0	0	0	0	0	0	0		1	0	0	0	0	0	0	0
020713	13:50:28	1	Serial7Fr3mo	Serial7Fr3mo	8		766	0	102	13:50:28	1063093	0	0	0	0	0	0	0	0	0	0	0	0	0	0	0	0	0	0	0	0	0	0		1	0	0	0	0	0	0	0
020713	13:50:28	1	Serial7Fr3mo	Serial7Fr3mo	8		193	0	102	13:50:28	1063309	0	0	0	0	0	0	0	0	0	0	0	0	0	0	0	0	0	0	0	0	0	0		1	0	0	0	0	0	0	0
020713	13:50:28	1	Serial7Fr3mo	Serial7Fr3mo	8		185	0	102	13:50:28	1063526	0	0	0	0	0	0	0	0	0	0	0	0	0	0	0	0	0	0	0	0	0	0		1	0	0	0	0	0	0	0
020713	13:50:28	1	Serial7Fr3mo	Serial7Fr3mo	8		160	0	102	13:50:28	1063709	0	0	0	0	0	0	0	0	0	0	0	0	0	0	0	0	0	0	0	0	0	0		1	0	0	0	0	0	0	0
020713	13:50:28	1	Serial7Fr3mo	Serial7Fr3mo	8		153	0	102	13:50:28	1063892	0	0	0	0	0	0	0	0	0	0	0	0	0	0	0	0	0	0	0	0	0	0		1	0	0	0	0	0	0	0
020713	13:50:28	1	corsiblockFrFwrd	recallseqFrFwrd	9	doneCorsiFr	49492	0	102	13:50:28	1119189	0	0	0	0	0	0	0	0	0	0	0	0	0	0	0	0	0	0	0	0	0	0		1	0	0	0	0	0	0	0
020713	13:50:28	1	corsiblockFrFwrd	recallseqFrFwrd	9	doneCorsiFr	914	0	102	13:50:28	1125287	0	0	0	0	0	0	0	0	0	0	0	0	0	0	0	0	0	0	0	0	0	0		1	0	0	0	0	0	0	0
020713	13:50:28	1	corsiblockFrRev	recallseqFrRev	10	doneCorsiFr	2097	0	102	13:50:28	1134234	0	0	0	0	0	0	0	0	0	0	0	0	0	0	0	0	0	0	0	0	0	0		1	0	0	0	0	0	0	0
020713	13:50:28	1	corsiblockFrRev	recallseqFrRev	10	doneCorsiFr	1038	0	102	13:50:28	1140448	0	0	0	0	0	0	0	0	0	0	0	0	0	0	0	0	0	0	0	0	0	0		1	0	0	0	0	0	0	0
020713	13:50:28	1	testFr3mo	WordsFr3mo	11	1Fr3mo	1624	0	102	13:50:28	1145013	0	3	0	0	0	0	0	0	0	0	0	0	0	0	0	0	0	0	0	0	0	0		1	0	0	0	0	0	0	0
020713	13:50:28	1	testFr3mo	WordsFr3mo	11	2Fr3mo	273	0	102	13:50:28	1145380	0	3	3	0	0	0	0	0	0	0	0	0	0	0	0	0	0	0	0	0	0	0		1	0	0	0	0	0	0	0
020713	13:50:28	1	testFr3mo	WordsFr3mo	11	3Fr3mo	259	0	102	13:50:28	1145730	0	3	3	3	0	0	0	0	0	0	0	0	0	0	0	0	0	0	0	0	0	0		1	0	0	0	0	0	0	0
020713	13:50:28	1	testFr3mo	WordsFr3mo	11	3Fr3mo	576	0	102	13:50:28	1146396	0	3	3	3	0	0	0	0	0	0	0	0	0	0	0	0	0	0	0	0	0	0		1	0	0	0	0	0	0	0
020713	13:50:28	1	testFr3mo	WordsFr3mo	11	4Fr3mo	392	0	102	13:50:28	1146879	0	3	3	3	3	0	0	0	0	0	0	0	0	0	0	0	0	0	0	0	0	0		1	0	0	0	0	0	0	0
020713	13:50:28	1	testFr3mo	WordsFr3mo	11	3Fr3mo	351	0	102	13:50:28	1147329	0	3	3	3	3	0	0	0	0	0	0	0	0	0	0	0	0	0	0	0	0	0		1	0	0	0	0	0	0	0
020713	13:50:28	1	testFr3mo	WordsFr3mo	11	5Fr3mo	423	0	102	13:50:28	1147846	0	3	3	3	3	3	0	0	0	0	0	0	0	0	0	0	0	0	0	0	0	0		1	0	0	0	0	0	0	0
020713	13:50:28	1	testFr3mo	WordsFr3mo	11	6Fr3mo	405	0	102	13:50:28	1148347	0	3	3	3	3	3	3	0	0	0	0	0	0	0	0	0	0	0	0	0	0	0		1	0	0	0	0	0	0	0
020713	13:50:28	1	testFr3mo	WordsFr3mo	11	7Fr3mo	424	0	102	13:50:28	1148862	0	3	3	3	3	3	3	3	0	0	0	0	0	0	0	0	0	0	0	0	0	0		1	0	0	0	0	0	0	0
020713	13:50:28	1	testFr3mo	WordsFr3mo	11	8Fr3mo	1227	0	102	13:50:28	1150179	0	3	3	3	3	3	3	3	3	0	0	0	0	0	0	0	0	0	0	0	0	0		1	0	0	0	0	0	0	0
020713	13:50:28	1	testFr3mo	WordsFr3mo	11	DoneFr3mo	695	0	102	13:50:28	1150962	0	3	3	3	3	3	3	3	3	0	0	0	0	0	0	0	0	0	0	0	0	0		1	0	0	0	0	0	0	0
020713	13:50:28	1	DigitSpanFwrdFr3mo	Score1FwrdFr3mo	12	DS2	1268	0	102	13:50:28	1159275	0	3	3	3	3	3	3	3	3	0	0	0	0	0	0	0	0	0	0	0	0	0		1	0	0	0	0	0	0	0
020713	13:50:28	1	DigitSpanFwrdFr3mo	Gate1FwrdFr3mo	12	0	1	0	102	13:50:28	1159280	0	3	3	3	3	3	3	3	3	0	0	0	0	0	0	0	0	0	0	0	0	0		1	0	0	0	0	0	0	0
020713	13:50:28	1	DigitSpanFwrdFr3mo	Score11FwrdFr3mo	12	DS2	984	0	102	13:50:28	1164389	0	3	3	3	3	3	3	3	3	0	0	0	0	0	0	0	0	0	0	0	0	0		1	0	0	0	0	0	0	0
020713	13:50:28	1	DigitSpanFr3mo	Score1Fr3mo	13	DS2	1660	0	102	13:50:28	1170555	0	3	3	3	3	3	3	3	3	0	0	0	0	0	0	0	0	0	0	0	0	0		1	0	0	0	0	0	0	0
020713	13:50:28	1	DigitSpanFr3mo	Gate1Fr3mo	13	0	1	0	102	13:50:28	1170560	0	3	3	3	3	3	3	3	3	0	0	0	0	0	0	0	0	0	0	0	0	0		1	0	0	0	0	0	0	0
020713	13:50:28	1	DigitSpanFr3mo	Score11Fr3mo	13	DS2	784	0	102	13:50:28	1173503	0	3	3	3	3	3	3	3	3	0	0	0	0	0	0	0	0	0	0	0	0	0		1	0	0	0	0	0	0	0
020713	13:50:28	1	Trial	ResponseIL	14	0	175	0	102	13:50:28	1229416	0	3	3	3	3	3	3	3	3	0	0	0	0	0	0	0	0	0	0	0	0	0		1	0	0	0	0	0	0	0
020713	13:50:28	1	Trial	IncongruentLeft	14	0	1000	0	102	13:50:28	1230465	0	3	3	3	3	3	3	3	3	0	0	0	0	0	0	0	0	0	0	0	0	0		1	0	0	0	0	0	0	0
020713	13:50:28	1	Trial	ResponseCR	14	0	175	0	102	13:50:28	1231232	0	3	3	3	3	3	3	3	3	0	0	0	0	0	0	0	0	0	0	0	0	0		1	0	0	0	0	0	0	0
020713	13:50:28	1	Trial	CongruentRight	14	0	1000	0	102	13:50:28	1232281	0	3	3	3	3	3	3	3	3	0	0	0	0	0	0	0	0	0	0	0	0	0		1	0	0	0	0	0	0	0
020713	13:50:28	1	Trial	ResponseIR	14	0	175	0	102	13:50:28	1233048	0	3	3	3	3	3	3	3	3	0	0	0	0	0	0	0	0	0	0	0	0	0		1	0	0	0	0	0	0	0
020713	13:50:28	1	Trial	IncongruentRight	14	0	1000	0	102	13:50:28	1234097	0	3	3	3	3	3	3	3	3	0	0	0	0	0	0	0	0	0	0	0	0	0		1	0	0	0	0	0	0	0
020713	13:50:28	1	Trial	ResponseCL	14	0	175	0	102	13:50:28	1234864	0	3	3	3	3	3	3	3	3	0	0	0	0	0	0	0	0	0	0	0	0	0		1	0	0	0	0	0	0	0
020713	13:50:28	1	Trial	CongruentLeft	14	0	1000	0	102	13:50:28	1235914	0	3	3	3	3	3	3	3	3	0	0	0	0	0	0	0	0	0	0	0	0	0		1	0	0	0	0	0	0	0
020713	13:50:28	1	Trial	ResponseCR	14	0	175	0	102	13:50:28	1236680	0	3	3	3	3	3	3	3	3	0	0	0	0	0	0	0	0	0	0	0	0	0		1	0	0	0	0	0	0	0
020713	13:50:28	1	Trial	CongruentRight	14	0	1000	0	102	13:50:28	1237729	0	3	3	3	3	3	3	3	3	0	0	0	0	0	0	0	0	0	0	0	0	0		1	0	0	0	0	0	0	0
020713	13:50:28	1	Trial	ResponseIR	14	0	175	0	102	13:50:28	1238496	0	3	3	3	3	3	3	3	3	0	0	0	0	0	0	0	0	0	0	0	0	0		1	0	0	0	0	0	0	0
020713	13:50:28	1	Trial	IncongruentRight	14	0	1000	0	102	13:50:28	1239545	0	3	3	3	3	3	3	3	3	0	0	0	0	0	0	0	0	0	0	0	0	0		1	0	0	0	0	0	0	0
020713	13:50:28	1	Trial	ResponseCL	14	0	175	0	102	13:50:28	1240312	0	3	3	3	3	3	3	3	3	0	0	0	0	0	0	0	0	0	0	0	0	0		1	0	0	0	0	0	0	0
020713	13:50:28	1	Trial	CongruentLeft	14	0	1000	0	102	13:50:28	1241361	0	3	3	3	3	3	3	3	3	0	0	0	0	0	0	0	0	0	0	0	0	0		1	0	0	0	0	0	0	0
020713	13:50:28	1	Trial	ResponseIL	14	0	175	0	102	13:50:28	1242128	0	3	3	3	3	3	3	3	3	0	0	0	0	0	0	0	0	0	0	0	0	0		1	0	0	0	0	0	0	0
020713	13:50:28	1	Trial	IncongruentLeft	14	0	1000	0	102	13:50:28	1243177	0	3	3	3	3	3	3	3	3	0	0	0	0	0	0	0	0	0	0	0	0	0		1	0	0	0	0	0	0	0
020713	13:50:28	1	Trial	ResponseIL	14	0	175	0	102	13:50:28	1243944	0	3	3	3	3	3	3	3	3	0	0	0	0	0	0	0	0	0	0	0	0	0		1	0	0	0	0	0	0	0
020713	13:50:28	1	Trial	IncongruentLeft	14	0	1000	0	102	13:50:28	1244993	0	3	3	3	3	3	3	3	3	0	0	0	0	0	0	0	0	0	0	0	0	0		1	0	0	0	0	0	0	0
020713	13:50:28	1	Trial	ResponseCR	14	0	175	0	102	13:50:28	1245760	0	3	3	3	3	3	3	3	3	0	0	0	0	0	0	0	0	0	0	0	0	0		1	0	0	0	0	0	0	0
020713	13:50:28	1	Trial	CongruentRight	14	0	1000	0	102	13:50:28	1246809	0	3	3	3	3	3	3	3	3	0	0	0	0	0	0	0	0	0	0	0	0	0		1	0	0	0	0	0	0	0
020713	13:50:28	1	Trial	ResponseIR	14	0	175	0	102	13:50:28	1247576	0	3	3	3	3	3	3	3	3	0	0	0	0	0	0	0	0	0	0	0	0	0		1	0	0	0	0	0	0	0
020713	13:50:28	1	Trial	IncongruentRight	14	0	1000	0	102	13:50:28	1248625	0	3	3	3	3	3	3	3	3	0	0	0	0	0	0	0	0	0	0	0	0	0		1	0	0	0	0	0	0	0
020713	13:50:28	1	Trial	ResponseCL	14	0	175	0	102	13:50:28	1249392	0	3	3	3	3	3	3	3	3	0	0	0	0	0	0	0	0	0	0	0	0	0		1	0	0	0	0	0	0	0
020713	13:50:28	1	Trial	CongruentLeft	14	0	1000	0	102	13:50:28	1250441	0	3	3	3	3	3	3	3	3	0	0	0	0	0	0	0	0	0	0	0	0	0		1	0	0	0	0	0	0	0
020713	13:50:28	1	Trial	ResponseCR	14	0	175	0	102	13:50:28	1251208	0	3	3	3	3	3	3	3	3	0	0	0	0	0	0	0	0	0	0	0	0	0		1	0	0	0	0	0	0	0
020713	13:50:28	1	Trial	CongruentRight	14	0	1000	0	102	13:50:28	1252257	0	3	3	3	3	3	3	3	3	0	0	0	0	0	0	0	0	0	0	0	0	0		1	0	0	0	0	0	0	0
020713	13:50:28	1	Trial	ResponseIL	14	0	175	0	102	13:50:28	1253024	0	3	3	3	3	3	3	3	3	0	0	0	0	0	0	0	0	0	0	0	0	0		1	0	0	0	0	0	0	0
020713	13:50:28	1	Trial	IncongruentLeft	14	0	1000	0	102	13:50:28	1254073	0	3	3	3	3	3	3	3	3	0	0	0	0	0	0	0	0	0	0	0	0	0		1	0	0	0	0	0	0	0
020713	13:50:28	1	Trial	ResponseIR	14	0	175	0	102	13:50:28	1254840	0	3	3	3	3	3	3	3	3	0	0	0	0	0	0	0	0	0	0	0	0	0		1	0	0	0	0	0	0	0
020713	13:50:28	1	Trial	IncongruentRight	14	0	1000	0	102	13:50:28	1255889	0	3	3	3	3	3	3	3	3	0	0	0	0	0	0	0	0	0	0	0	0	0		1	0	0	0	0	0	0	0
020713	13:50:28	1	Trial	ResponseCR	14	0	175	0	102	13:50:28	1256656	0	3	3	3	3	3	3	3	3	0	0	0	0	0	0	0	0	0	0	0	0	0		1	0	0	0	0	0	0	0
020713	13:50:28	1	Trial	CongruentRight	14	0	1000	0	102	13:50:28	1257706	0	3	3	3	3	3	3	3	3	0	0	0	0	0	0	0	0	0	0	0	0	0		1	0	0	0	0	0	0	0
020713	13:50:28	1	Trial	ResponseCL	14	0	175	0	102	13:50:28	1258472	0	3	3	3	3	3	3	3	3	0	0	0	0	0	0	0	0	0	0	0	0	0		1	0	0	0	0	0	0	0
020713	13:50:28	1	Trial	CongruentLeft	14	0	1000	0	102	13:50:28	1259522	0	3	3	3	3	3	3	3	3	0	0	0	0	0	0	0	0	0	0	0	0	0		1	0	0	0	0	0	0	0
020713	13:50:28	1	Trial	ResponseCR	14	0	175	0	102	13:50:28	1260288	0	3	3	3	3	3	3	3	3	0	0	0	0	0	0	0	0	0	0	0	0	0		1	0	0	0	0	0	0	0
020713	13:50:28	1	Trial	CongruentRight	14	0	1000	0	102	13:50:28	1261338	0	3	3	3	3	3	3	3	3	0	0	0	0	0	0	0	0	0	0	0	0	0		1	0	0	0	0	0	0	0
020713	13:50:28	1	Trial	ResponseIR	14	0	175	0	102	13:50:28	1262104	0	3	3	3	3	3	3	3	3	0	0	0	0	0	0	0	0	0	0	0	0	0		1	0	0	0	0	0	0	0
020713	13:50:28	1	Trial	IncongruentRight	14	0	1000	0	102	13:50:28	1263154	0	3	3	3	3	3	3	3	3	0	0	0	0	0	0	0	0	0	0	0	0	0		1	0	0	0	0	0	0	0
020713	13:50:28	1	Trial	ResponseIL	14	0	175	0	102	13:50:28	1263920	0	3	3	3	3	3	3	3	3	0	0	0	0	0	0	0	0	0	0	0	0	0		1	0	0	0	0	0	0	0
020713	13:50:28	1	Trial	IncongruentLeft	14	0	1000	0	102	13:50:28	1264970	0	3	3	3	3	3	3	3	3	0	0	0	0	0	0	0	0	0	0	0	0	0		1	0	0	0	0	0	0	0
020713	13:50:28	1	Trial	ResponseIL	14	0	175	0	102	13:50:28	1265736	0	3	3	3	3	3	3	3	3	0	0	0	0	0	0	0	0	0	0	0	0	0		1	0	0	0	0	0	0	0
020713	13:50:28	1	Trial	IncongruentLeft	14	0	1000	0	102	13:50:28	1266786	0	3	3	3	3	3	3	3	3	0	0	0	0	0	0	0	0	0	0	0	0	0		1	0	0	0	0	0	0	0
020713	13:50:28	1	Trial	ResponseCL	14	0	175	0	102	13:50:28	1267552	0	3	3	3	3	3	3	3	3	0	0	0	0	0	0	0	0	0	0	0	0	0		1	0	0	0	0	0	0	0
020713	13:50:28	1	Trial	CongruentLeft	14	0	1000	0	102	13:50:28	1268602	0	3	3	3	3	3	3	3	3	0	0	0	0	0	0	0	0	0	0	0	0	0		1	0	0	0	0	0	0	0
020713	13:50:28	1	Trial	ResponseCR	14	0	175	0	102	13:50:28	1269368	0	3	3	3	3	3	3	3	3	0	0	0	0	0	0	0	0	0	0	0	0	0		1	0	0	0	0	0	0	0
020713	13:50:28	1	Trial	CongruentRight	14	0	1000	0	102	13:50:28	1270418	0	3	3	3	3	3	3	3	3	0	0	0	0	0	0	0	0	0	0	0	0	0		1	0	0	0	0	0	0	0
020713	13:50:28	1	Trial	ResponseIL	14	0	175	0	102	13:50:28	1271184	0	3	3	3	3	3	3	3	3	0	0	0	0	0	0	0	0	0	0	0	0	0		1	0	0	0	0	0	0	0
020713	13:50:28	1	Trial	IncongruentLeft	14	0	1000	0	102	13:50:28	1272234	0	3	3	3	3	3	3	3	3	0	0	0	0	0	0	0	0	0	0	0	0	0		1	0	0	0	0	0	0	0
020713	13:50:28	1	Trial	ResponseIR	14	0	175	0	102	13:50:28	1273000	0	3	3	3	3	3	3	3	3	0	0	0	0	0	0	0	0	0	0	0	0	0		1	0	0	0	0	0	0	0
020713	13:50:28	1	Trial	IncongruentRight	14	0	1000	0	102	13:50:28	1274049	0	3	3	3	3	3	3	3	3	0	0	0	0	0	0	0	0	0	0	0	0	0		1	0	0	0	0	0	0	0
020713	13:50:28	1	Trial	ResponseCR	14	0	175	0	102	13:50:28	1274816	0	3	3	3	3	3	3	3	3	0	0	0	0	0	0	0	0	0	0	0	0	0		1	0	0	0	0	0	0	0
020713	13:50:28	1	Trial	CongruentRight	14	0	1000	0	102	13:50:28	1275866	0	3	3	3	3	3	3	3	3	0	0	0	0	0	0	0	0	0	0	0	0	0		1	0	0	0	0	0	0	0
020713	13:50:28	1	Trial	ResponseCL	14	0	175	0	102	13:50:28	1276632	0	3	3	3	3	3	3	3	3	0	0	0	0	0	0	0	0	0	0	0	0	0		1	0	0	0	0	0	0	0
020713	13:50:28	1	Trial	CongruentLeft	14	0	1000	0	102	13:50:28	1277682	0	3	3	3	3	3	3	3	3	0	0	0	0	0	0	0	0	0	0	0	0	0		1	0	0	0	0	0	0	0
020713	13:50:28	1	Trial	ResponseIR	14	0	175	0	102	13:50:28	1278448	0	3	3	3	3	3	3	3	3	0	0	0	0	0	0	0	0	0	0	0	0	0		1	0	0	0	0	0	0	0
020713	13:50:28	1	Trial	IncongruentRight	14	0	1000	0	102	13:50:28	1279498	0	3	3	3	3	3	3	3	3	0	0	0	0	0	0	0	0	0	0	0	0	0		1	0	0	0	0	0	0	0
020713	13:50:28	1	Trial	ResponseIL	14	0	175	0	102	13:50:28	1280264	0	3	3	3	3	3	3	3	3	0	0	0	0	0	0	0	0	0	0	0	0	0		1	0	0	0	0	0	0	0
020713	13:50:28	1	Trial	IncongruentLeft	14	0	1000	0	102	13:50:28	1281314	0	3	3	3	3	3	3	3	3	0	0	0	0	0	0	0	0	0	0	0	0	0		1	0	0	0	0	0	0	0
020713	13:50:28	1	Trial	ResponseIR	14	0	175	0	102	13:50:28	1282080	0	3	3	3	3	3	3	3	3	0	0	0	0	0	0	0	0	0	0	0	0	0		1	0	0	0	0	0	0	0
020713	13:50:28	1	Trial	IncongruentRight	14	0	1000	0	102	13:50:28	1283130	0	3	3	3	3	3	3	3	3	0	0	0	0	0	0	0	0	0	0	0	0	0		1	0	0	0	0	0	0	0
020713	13:50:28	1	Trial	ResponseCR	14	0	175	0	102	13:50:28	1283896	0	3	3	3	3	3	3	3	3	0	0	0	0	0	0	0	0	0	0	0	0	0		1	0	0	0	0	0	0	0
020713	13:50:28	1	Trial	CongruentRight	14	0	1000	0	102	13:50:28	1284946	0	3	3	3	3	3	3	3	3	0	0	0	0	0	0	0	0	0	0	0	0	0		1	0	0	0	0	0	0	0
020713	13:50:28	1	Trial	ResponseIL	14	0	175	0	102	13:50:28	1285712	0	3	3	3	3	3	3	3	3	0	0	0	0	0	0	0	0	0	0	0	0	0		1	0	0	0	0	0	0	0
020713	13:50:28	1	Trial	IncongruentLeft	14	0	1000	0	102	13:50:28	1286762	0	3	3	3	3	3	3	3	3	0	0	0	0	0	0	0	0	0	0	0	0	0		1	0	0	0	0	0	0	0
020713	13:50:28	1	Trial	ResponseCL	14	0	175	0	102	13:50:28	1287528	0	3	3	3	3	3	3	3	3	0	0	0	0	0	0	0	0	0	0	0	0	0		1	0	0	0	0	0	0	0
020713	13:50:28	1	Trial	CongruentLeft	14	0	1000	0	102	13:50:28	1288578	0	3	3	3	3	3	3	3	3	0	0	0	0	0	0	0	0	0	0	0	0	0		1	0	0	0	0	0	0	0
020713	13:50:28	1	Trial	ResponseCR	14	0	175	0	102	13:50:28	1289344	0	3	3	3	3	3	3	3	3	0	0	0	0	0	0	0	0	0	0	0	0	0		1	0	0	0	0	0	0	0
020713	13:50:28	1	Trial	CongruentRight	14	0	1000	0	102	13:50:28	1290394	0	3	3	3	3	3	3	3	3	0	0	0	0	0	0	0	0	0	0	0	0	0		1	0	0	0	0	0	0	0
020713	13:50:28	1	Trial	ResponseIL	14	0	175	0	102	13:50:28	1291160	0	3	3	3	3	3	3	3	3	0	0	0	0	0	0	0	0	0	0	0	0	0		1	0	0	0	0	0	0	0
020713	13:50:28	1	Trial	IncongruentLeft	14	0	1000	0	102	13:50:28	1292210	0	3	3	3	3	3	3	3	3	0	0	0	0	0	0	0	0	0	0	0	0	0		1	0	0	0	0	0	0	0
020713	13:50:28	1	Trial	ResponseIR	14	0	175	0	102	13:50:28	1292976	0	3	3	3	3	3	3	3	3	0	0	0	0	0	0	0	0	0	0	0	0	0		1	0	0	0	0	0	0	0
020713	13:50:28	1	Trial	IncongruentRight	14	0	1000	0	102	13:50:28	1294026	0	3	3	3	3	3	3	3	3	0	0	0	0	0	0	0	0	0	0	0	0	0		1	0	0	0	0	0	0	0
020713	13:50:28	1	Trial	ResponseIR	14	0	175	0	102	13:50:28	1294792	0	3	3	3	3	3	3	3	3	0	0	0	0	0	0	0	0	0	0	0	0	0		1	0	0	0	0	0	0	0
020713	13:50:28	1	Trial	IncongruentRight	14	0	1000	0	102	13:50:28	1295842	0	3	3	3	3	3	3	3	3	0	0	0	0	0	0	0	0	0	0	0	0	0		1	0	0	0	0	0	0	0
020713	13:50:28	1	Trial	ResponseCL	14	0	175	0	102	13:50:28	1296608	0	3	3	3	3	3	3	3	3	0	0	0	0	0	0	0	0	0	0	0	0	0		1	0	0	0	0	0	0	0
020713	13:50:28	1	Trial	CongruentLeft	14	0	1000	0	102	13:50:28	1297658	0	3	3	3	3	3	3	3	3	0	0	0	0	0	0	0	0	0	0	0	0	0		1	0	0	0	0	0	0	0
020713	13:50:28	1	Trial	ResponseIL	14	0	175	0	102	13:50:28	1298424	0	3	3	3	3	3	3	3	3	0	0	0	0	0	0	0	0	0	0	0	0	0		1	0	0	0	0	0	0	0
020713	13:50:28	1	Trial	IncongruentLeft	14	0	1000	0	102	13:50:28	1299474	0	3	3	3	3	3	3	3	3	0	0	0	0	0	0	0	0	0	0	0	0	0		1	0	0	0	0	0	0	0
020713	13:50:28	1	Trial	ResponseCR	14	0	175	0	102	13:50:28	1300240	0	3	3	3	3	3	3	3	3	0	0	0	0	0	0	0	0	0	0	0	0	0		1	0	0	0	0	0	0	0
020713	13:50:28	1	Trial	CongruentRight	14	0	1000	0	102	13:50:28	1301290	0	3	3	3	3	3	3	3	3	0	0	0	0	0	0	0	0	0	0	0	0	0		1	0	0	0	0	0	0	0
020713	13:50:28	1	Trial	ResponseCL	14	0	175	0	102	13:50:28	1302056	0	3	3	3	3	3	3	3	3	0	0	0	0	0	0	0	0	0	0	0	0	0		1	0	0	0	0	0	0	0
020713	13:50:28	1	Trial	CongruentLeft	14	0	1000	0	102	13:50:28	1303106	0	3	3	3	3	3	3	3	3	0	0	0	0	0	0	0	0	0	0	0	0	0		1	0	0	0	0	0	0	0
020713	13:50:28	1	Trial	ResponseIR	14	0	175	0	102	13:50:28	1303872	0	3	3	3	3	3	3	3	3	0	0	0	0	0	0	0	0	0	0	0	0	0		1	0	0	0	0	0	0	0
020713	13:50:28	1	Trial	IncongruentRight	14	0	1000	0	102	13:50:28	1304922	0	3	3	3	3	3	3	3	3	0	0	0	0	0	0	0	0	0	0	0	0	0		1	0	0	0	0	0	0	0
020713	13:50:28	1	Trial	ResponseCR	14	0	175	0	102	13:50:28	1305688	0	3	3	3	3	3	3	3	3	0	0	0	0	0	0	0	0	0	0	0	0	0		1	0	0	0	0	0	0	0
020713	13:50:28	1	Trial	CongruentRight	14	0	1000	0	102	13:50:28	1306738	0	3	3	3	3	3	3	3	3	0	0	0	0	0	0	0	0	0	0	0	0	0		1	0	0	0	0	0	0	0
020713	13:50:28	1	Trial	ResponseIL	14	0	175	0	102	13:50:28	1307504	0	3	3	3	3	3	3	3	3	0	0	0	0	0	0	0	0	0	0	0	0	0		1	0	0	0	0	0	0	0
020713	13:50:28	1	Trial	IncongruentLeft	14	0	1000	0	102	13:50:28	1308554	0	3	3	3	3	3	3	3	3	0	0	0	0	0	0	0	0	0	0	0	0	0		1	0	0	0	0	0	0	0
020713	13:50:28	1	Trial	ResponseCL	14	0	175	0	102	13:50:28	1309320	0	3	3	3	3	3	3	3	3	0	0	0	0	0	0	0	0	0	0	0	0	0		1	0	0	0	0	0	0	0
020713	13:50:28	1	Trial	CongruentLeft	14	0	1000	0	102	13:50:28	1310370	0	3	3	3	3	3	3	3	3	0	0	0	0	0	0	0	0	0	0	0	0	0		1	0	0	0	0	0	0	0
020713	13:50:28	1	Trial	ResponseIL	14	0	175	0	102	13:50:28	1311136	0	3	3	3	3	3	3	3	3	0	0	0	0	0	0	0	0	0	0	0	0	0		1	0	0	0	0	0	0	0
020713	13:50:28	1	Trial	IncongruentLeft	14	0	1000	0	102	13:50:28	1312186	0	3	3	3	3	3	3	3	3	0	0	0	0	0	0	0	0	0	0	0	0	0		1	0	0	0	0	0	0	0
020713	13:50:28	1	Trial	ResponseIR	14	0	175	0	102	13:50:28	1312952	0	3	3	3	3	3	3	3	3	0	0	0	0	0	0	0	0	0	0	0	0	0		1	0	0	0	0	0	0	0
020713	13:50:28	1	Trial	IncongruentRight	14	0	1000	0	102	13:50:28	1314002	0	3	3	3	3	3	3	3	3	0	0	0	0	0	0	0	0	0	0	0	0	0		1	0	0	0	0	0	0	0
020713	13:50:28	1	Trial	ResponseCR	14	0	175	0	102	13:50:28	1314768	0	3	3	3	3	3	3	3	3	0	0	0	0	0	0	0	0	0	0	0	0	0		1	0	0	0	0	0	0	0
020713	13:50:28	1	Trial	CongruentRight	14	0	1000	0	102	13:50:28	1315818	0	3	3	3	3	3	3	3	3	0	0	0	0	0	0	0	0	0	0	0	0	0		1	0	0	0	0	0	0	0
020713	13:50:28	1	Trial	ResponseCL	14	0	175	0	102	13:50:28	1316584	0	3	3	3	3	3	3	3	3	0	0	0	0	0	0	0	0	0	0	0	0	0		1	0	0	0	0	0	0	0
020713	13:50:28	1	Trial	CongruentLeft	14	0	1000	0	102	13:50:28	1317634	0	3	3	3	3	3	3	3	3	0	0	0	0	0	0	0	0	0	0	0	0	0		1	0	0	0	0	0	0	0
020713	13:50:28	1	Trial	ResponseCL	14	0	175	0	102	13:50:28	1318400	0	3	3	3	3	3	3	3	3	0	0	0	0	0	0	0	0	0	0	0	0	0		1	0	0	0	0	0	0	0
020713	13:50:28	1	Trial	CongruentLeft	14	0	1000	0	102	13:50:28	1319450	0	3	3	3	3	3	3	3	3	0	0	0	0	0	0	0	0	0	0	0	0	0		1	0	0	0	0	0	0	0
020713	13:50:28	1	Trial	ResponseIR	14	0	175	0	102	13:50:28	1320216	0	3	3	3	3	3	3	3	3	0	0	0	0	0	0	0	0	0	0	0	0	0		1	0	0	0	0	0	0	0
020713	13:50:28	1	Trial	IncongruentRight	14	0	1000	0	102	13:50:28	1321266	0	3	3	3	3	3	3	3	3	0	0	0	0	0	0	0	0	0	0	0	0	0		1	0	0	0	0	0	0	0
020713	13:50:28	1	Trial	ResponseIL	14	0	175	0	102	13:50:28	1322032	0	3	3	3	3	3	3	3	3	0	0	0	0	0	0	0	0	0	0	0	0	0		1	0	0	0	0	0	0	0
020713	13:50:28	1	Trial	IncongruentLeft	14	0	1000	0	102	13:50:28	1323082	0	3	3	3	3	3	3	3	3	0	0	0	0	0	0	0	0	0	0	0	0	0		1	0	0	0	0	0	0	0
020713	13:50:28	1	Trial	ResponseIR	14	0	175	0	102	13:50:28	1323848	0	3	3	3	3	3	3	3	3	0	0	0	0	0	0	0	0	0	0	0	0	0		1	0	0	0	0	0	0	0
020713	13:50:28	1	Trial	IncongruentRight	14	0	1000	0	102	13:50:28	1324898	0	3	3	3	3	3	3	3	3	0	0	0	0	0	0	0	0	0	0	0	0	0		1	0	0	0	0	0	0	0
020713	13:50:28	1	Trial	ResponseCR	14	0	175	0	102	13:50:28	1325664	0	3	3	3	3	3	3	3	3	0	0	0	0	0	0	0	0	0	0	0	0	0		1	0	0	0	0	0	0	0
020713	13:50:28	1	Trial	CongruentRight	14	0	1000	0	102	13:50:28	1326714	0	3	3	3	3	3	3	3	3	0	0	0	0	0	0	0	0	0	0	0	0	0		1	0	0	0	0	0	0	0
020713	13:50:28	1	Trial	ResponseCR	14	0	175	0	102	13:50:28	1327480	0	3	3	3	3	3	3	3	3	0	0	0	0	0	0	0	0	0	0	0	0	0		1	0	0	0	0	0	0	0
020713	13:50:28	1	Trial	CongruentRight	14	0	1000	0	102	13:50:28	1328530	0	3	3	3	3	3	3	3	3	0	0	0	0	0	0	0	0	0	0	0	0	0		1	0	0	0	0	0	0	0
020713	13:50:28	1	Trial	ResponseIL	14	0	175	0	102	13:50:28	1329296	0	3	3	3	3	3	3	3	3	0	0	0	0	0	0	0	0	0	0	0	0	0		1	0	0	0	0	0	0	0
020713	13:50:28	1	Trial	IncongruentLeft	14	0	1000	0	102	13:50:28	1330346	0	3	3	3	3	3	3	3	3	0	0	0	0	0	0	0	0	0	0	0	0	0		1	0	0	0	0	0	0	0
020713	13:50:28	1	Trial	ResponseCL	14	0	175	0	102	13:50:28	1331112	0	3	3	3	3	3	3	3	3	0	0	0	0	0	0	0	0	0	0	0	0	0		1	0	0	0	0	0	0	0
020713	13:50:28	1	Trial	CongruentLeft	14	0	1000	0	102	13:50:28	1332163	0	3	3	3	3	3	3	3	3	0	0	0	0	0	0	0	0	0	0	0	0	0		1	0	0	0	0	0	0	0
020713	13:50:28	1	Trial	ResponseCR	14	0	175	0	102	13:50:28	1332928	0	3	3	3	3	3	3	3	3	0	0	0	0	0	0	0	0	0	0	0	0	0		1	0	0	0	0	0	0	0
020713	13:50:28	1	Trial	CongruentRight	14	0	1000	0	102	13:50:28	1333978	0	3	3	3	3	3	3	3	3	0	0	0	0	0	0	0	0	0	0	0	0	0		1	0	0	0	0	0	0	0
020713	13:50:28	1	Trial	ResponseCL	14	0	175	0	102	13:50:28	1334744	0	3	3	3	3	3	3	3	3	0	0	0	0	0	0	0	0	0	0	0	0	0		1	0	0	0	0	0	0	0
020713	13:50:28	1	Trial	CongruentLeft	14	0	1000	0	102	13:50:28	1335794	0	3	3	3	3	3	3	3	3	0	0	0	0	0	0	0	0	0	0	0	0	0		1	0	0	0	0	0	0	0
020713	13:50:28	1	Trial	ResponseIR	14	0	175	0	102	13:50:28	1336560	0	3	3	3	3	3	3	3	3	0	0	0	0	0	0	0	0	0	0	0	0	0		1	0	0	0	0	0	0	0
020713	13:50:28	1	Trial	IncongruentRight	14	0	1000	0	102	13:50:28	1337610	0	3	3	3	3	3	3	3	3	0	0	0	0	0	0	0	0	0	0	0	0	0		1	0	0	0	0	0	0	0
020713	13:50:28	1	Trial	ResponseCR	14	0	175	0	102	13:50:28	1338376	0	3	3	3	3	3	3	3	3	0	0	0	0	0	0	0	0	0	0	0	0	0		1	0	0	0	0	0	0	0
020713	13:50:28	1	Trial	CongruentRight	14	0	1000	0	102	13:50:28	1339426	0	3	3	3	3	3	3	3	3	0	0	0	0	0	0	0	0	0	0	0	0	0		1	0	0	0	0	0	0	0
020713	13:50:28	1	Trial	ResponseCL	14	0	175	0	102	13:50:28	1340192	0	3	3	3	3	3	3	3	3	0	0	0	0	0	0	0	0	0	0	0	0	0		1	0	0	0	0	0	0	0
020713	13:50:28	1	Trial	CongruentLeft	14	0	1000	0	102	13:50:28	1341242	0	3	3	3	3	3	3	3	3	0	0	0	0	0	0	0	0	0	0	0	0	0		1	0	0	0	0	0	0	0
020713	13:50:28	1	Trial	ResponseIL	14	0	175	0	102	13:50:28	1342008	0	3	3	3	3	3	3	3	3	0	0	0	0	0	0	0	0	0	0	0	0	0		1	0	0	0	0	0	0	0
020713	13:50:28	1	Trial	IncongruentLeft	14	0	1000	0	102	13:50:28	1343058	0	3	3	3	3	3	3	3	3	0	0	0	0	0	0	0	0	0	0	0	0	0		1	0	0	0	0	0	0	0
020713	13:50:28	1	Trial	ResponseIL	14	0	175	0	102	13:50:28	1343824	0	3	3	3	3	3	3	3	3	0	0	0	0	0	0	0	0	0	0	0	0	0		1	0	0	0	0	0	0	0
020713	13:50:28	1	Trial	IncongruentLeft	14	0	1000	0	102	13:50:28	1344874	0	3	3	3	3	3	3	3	3	0	0	0	0	0	0	0	0	0	0	0	0	0		1	0	0	0	0	0	0	0
020713	13:50:28	1	Trial	ResponseCR	14	0	175	0	102	13:50:28	1345640	0	3	3	3	3	3	3	3	3	0	0	0	0	0	0	0	0	0	0	0	0	0		1	0	0	0	0	0	0	0
020713	13:50:28	1	Trial	CongruentRight	14	0	1000	0	102	13:50:28	1346690	0	3	3	3	3	3	3	3	3	0	0	0	0	0	0	0	0	0	0	0	0	0		1	0	0	0	0	0	0	0
020713	13:50:28	1	Trial	ResponseIR	14	0	175	0	102	13:50:28	1347456	0	3	3	3	3	3	3	3	3	0	0	0	0	0	0	0	0	0	0	0	0	0		1	0	0	0	0	0	0	0
020713	13:50:28	1	Trial	IncongruentRight	14	0	1000	0	102	13:50:28	1348506	0	3	3	3	3	3	3	3	3	0	0	0	0	0	0	0	0	0	0	0	0	0		1	0	0	0	0	0	0	0
020713	13:50:28	1	Trial	ResponseCL	14	0	175	0	102	13:50:28	1349272	0	3	3	3	3	3	3	3	3	0	0	0	0	0	0	0	0	0	0	0	0	0		1	0	0	0	0	0	0	0
020713	13:50:28	1	Trial	CongruentLeft	14	0	1000	0	102	13:50:28	1350322	0	3	3	3	3	3	3	3	3	0	0	0	0	0	0	0	0	0	0	0	0	0		1	0	0	0	0	0	0	0
020713	13:50:28	1	Trial	ResponseIR	14	0	175	0	102	13:50:28	1351088	0	3	3	3	3	3	3	3	3	0	0	0	0	0	0	0	0	0	0	0	0	0		1	0	0	0	0	0	0	0
020713	13:50:28	1	Trial	IncongruentRight	14	0	1000	0	102	13:50:28	1352138	0	3	3	3	3	3	3	3	3	0	0	0	0	0	0	0	0	0	0	0	0	0		1	0	0	0	0	0	0	0
020713	13:50:28	1	Trial	ResponseCR	14	0	175	0	102	13:50:28	1352904	0	3	3	3	3	3	3	3	3	0	0	0	0	0	0	0	0	0	0	0	0	0		1	0	0	0	0	0	0	0
020713	13:50:28	1	Trial	CongruentRight	14	0	1000	0	102	13:50:28	1353954	0	3	3	3	3	3	3	3	3	0	0	0	0	0	0	0	0	0	0	0	0	0		1	0	0	0	0	0	0	0
020713	13:50:28	1	Trial	ResponseIL	14	0	175	0	102	13:50:28	1354720	0	3	3	3	3	3	3	3	3	0	0	0	0	0	0	0	0	0	0	0	0	0		1	0	0	0	0	0	0	0
020713	13:50:28	1	Trial	IncongruentLeft	14	0	1000	0	102	13:50:28	1355770	0	3	3	3	3	3	3	3	3	0	0	0	0	0	0	0	0	0	0	0	0	0		1	0	0	0	0	0	0	0
020713	13:50:28	1	Trial	ResponseCL	14	0	175	0	102	13:50:28	1356536	0	3	3	3	3	3	3	3	3	0	0	0	0	0	0	0	0	0	0	0	0	0		1	0	0	0	0	0	0	0
020713	13:50:28	1	Trial	CongruentLeft	14	0	1000	0	102	13:50:28	1357586	0	3	3	3	3	3	3	3	3	0	0	0	0	0	0	0	0	0	0	0	0	0		1	0	0	0	0	0	0	0
020713	13:50:28	1	Trial	ResponseCR	14	0	175	0	102	13:50:28	1358352	0	3	3	3	3	3	3	3	3	0	0	0	0	0	0	0	0	0	0	0	0	0		1	0	0	0	0	0	0	0
020713	13:50:28	1	Trial	CongruentRight	14	0	1000	0	102	13:50:28	1359402	0	3	3	3	3	3	3	3	3	0	0	0	0	0	0	0	0	0	0	0	0	0		1	0	0	0	0	0	0	0
020713	13:50:28	1	Trial	ResponseIL	14	0	175	0	102	13:50:28	1360168	0	3	3	3	3	3	3	3	3	0	0	0	0	0	0	0	0	0	0	0	0	0		1	0	0	0	0	0	0	0
020713	13:50:28	1	Trial	IncongruentLeft	14	0	1000	0	102	13:50:28	1361218	0	3	3	3	3	3	3	3	3	0	0	0	0	0	0	0	0	0	0	0	0	0		1	0	0	0	0	0	0	0
020713	13:50:28	1	Trial	ResponseCR	14	0	175	0	102	13:50:28	1361984	0	3	3	3	3	3	3	3	3	0	0	0	0	0	0	0	0	0	0	0	0	0		1	0	0	0	0	0	0	0
020713	13:50:28	1	Trial	CongruentRight	14	0	1000	0	102	13:50:28	1363034	0	3	3	3	3	3	3	3	3	0	0	0	0	0	0	0	0	0	0	0	0	0		1	0	0	0	0	0	0	0
020713	13:50:28	1	Trial	ResponseCR	14	0	175	0	102	13:50:28	1363800	0	3	3	3	3	3	3	3	3	0	0	0	0	0	0	0	0	0	0	0	0	0		1	0	0	0	0	0	0	0
020713	13:50:28	1	Trial	CongruentRight	14	0	1000	0	102	13:50:28	1364850	0	3	3	3	3	3	3	3	3	0	0	0	0	0	0	0	0	0	0	0	0	0		1	0	0	0	0	0	0	0
020713	13:50:28	1	Trial	ResponseIR	14	0	175	0	102	13:50:28	1365616	0	3	3	3	3	3	3	3	3	0	0	0	0	0	0	0	0	0	0	0	0	0		1	0	0	0	0	0	0	0
020713	13:50:28	1	Trial	IncongruentRight	14	0	1000	0	102	13:50:28	1366666	0	3	3	3	3	3	3	3	3	0	0	0	0	0	0	0	0	0	0	0	0	0		1	0	0	0	0	0	0	0
020713	13:50:28	1	Trial	ResponseCL	14	0	175	0	102	13:50:28	1367432	0	3	3	3	3	3	3	3	3	0	0	0	0	0	0	0	0	0	0	0	0	0		1	0	0	0	0	0	0	0
020713	13:50:28	1	Trial	CongruentLeft	14	0	1000	0	102	13:50:28	1368482	0	3	3	3	3	3	3	3	3	0	0	0	0	0	0	0	0	0	0	0	0	0		1	0	0	0	0	0	0	0
020713	13:50:28	1	Trial	ResponseIL	14	0	175	0	102	13:50:28	1369248	0	3	3	3	3	3	3	3	3	0	0	0	0	0	0	0	0	0	0	0	0	0		1	0	0	0	0	0	0	0
020713	13:50:28	1	Trial	IncongruentLeft	14	0	1000	0	102	13:50:28	1370298	0	3	3	3	3	3	3	3	3	0	0	0	0	0	0	0	0	0	0	0	0	0		1	0	0	0	0	0	0	0
020713	13:50:28	1	Trial	ResponseCL	14	0	175	0	102	13:50:28	1371065	0	3	3	3	3	3	3	3	3	0	0	0	0	0	0	0	0	0	0	0	0	0		1	0	0	0	0	0	0	0
020713	13:50:28	1	Trial	CongruentLeft	14	0	1000	0	102	13:50:28	1372114	0	3	3	3	3	3	3	3	3	0	0	0	0	0	0	0	0	0	0	0	0	0		1	0	0	0	0	0	0	0
020713	13:50:28	1	Trial	ResponseIR	14	0	175	0	102	13:50:28	1372881	0	3	3	3	3	3	3	3	3	0	0	0	0	0	0	0	0	0	0	0	0	0		1	0	0	0	0	0	0	0
020713	13:50:28	1	Trial	IncongruentRight	14	0	1000	0	102	13:50:28	1373930	0	3	3	3	3	3	3	3	3	0	0	0	0	0	0	0	0	0	0	0	0	0		1	0	0	0	0	0	0	0
020713	13:50:28	1	Trial	ResponseIL	14	0	175	0	102	13:50:28	1374697	0	3	3	3	3	3	3	3	3	0	0	0	0	0	0	0	0	0	0	0	0	0		1	0	0	0	0	0	0	0
020713	13:50:28	1	Trial	IncongruentLeft	14	0	1000	0	102	13:50:28	1375746	0	3	3	3	3	3	3	3	3	0	0	0	0	0	0	0	0	0	0	0	0	0		1	0	0	0	0	0	0	0
020713	13:50:28	1	Trial	ResponseCR	14	0	175	0	102	13:50:28	1376513	0	3	3	3	3	3	3	3	3	0	0	0	0	0	0	0	0	0	0	0	0	0		1	0	0	0	0	0	0	0
020713	13:50:28	1	Trial	CongruentRight	14	0	1000	0	102	13:50:28	1377562	0	3	3	3	3	3	3	3	3	0	0	0	0	0	0	0	0	0	0	0	0	0		1	0	0	0	0	0	0	0
020713	13:50:28	1	Trial	ResponseCL	14	0	175	0	102	13:50:28	1378329	0	3	3	3	3	3	3	3	3	0	0	0	0	0	0	0	0	0	0	0	0	0		1	0	0	0	0	0	0	0
020713	13:50:28	1	Trial	CongruentLeft	14	0	1000	0	102	13:50:28	1379378	0	3	3	3	3	3	3	3	3	0	0	0	0	0	0	0	0	0	0	0	0	0		1	0	0	0	0	0	0	0
020713	13:50:28	1	Trial	ResponseIL	14	0	175	0	102	13:50:28	1380144	0	3	3	3	3	3	3	3	3	0	0	0	0	0	0	0	0	0	0	0	0	0		1	0	0	0	0	0	0	0
020713	13:50:28	1	Trial	IncongruentLeft	14	0	1000	0	102	13:50:28	1381194	0	3	3	3	3	3	3	3	3	0	0	0	0	0	0	0	0	0	0	0	0	0		1	0	0	0	0	0	0	0
020713	13:50:28	1	Trial	ResponseCL	14	0	175	0	102	13:50:28	1381961	0	3	3	3	3	3	3	3	3	0	0	0	0	0	0	0	0	0	0	0	0	0		1	0	0	0	0	0	0	0
020713	13:50:28	1	Trial	CongruentLeft	14	0	1000	0	102	13:50:28	1383010	0	3	3	3	3	3	3	3	3	0	0	0	0	0	0	0	0	0	0	0	0	0		1	0	0	0	0	0	0	0
020713	13:50:28	1	Trial	ResponseIR	14	0	175	0	102	13:50:28	1383777	0	3	3	3	3	3	3	3	3	0	0	0	0	0	0	0	0	0	0	0	0	0		1	0	0	0	0	0	0	0
020713	13:50:28	1	Trial	IncongruentRight	14	0	1000	0	102	13:50:28	1384826	0	3	3	3	3	3	3	3	3	0	0	0	0	0	0	0	0	0	0	0	0	0		1	0	0	0	0	0	0	0
020713	13:50:28	1	Trial	ResponseCR	14	0	175	0	102	13:50:28	1385593	0	3	3	3	3	3	3	3	3	0	0	0	0	0	0	0	0	0	0	0	0	0		1	0	0	0	0	0	0	0
020713	13:50:28	1	Trial	CongruentRight	14	0	1000	0	102	13:50:28	1386642	0	3	3	3	3	3	3	3	3	0	0	0	0	0	0	0	0	0	0	0	0	0		1	0	0	0	0	0	0	0
020713	13:50:28	1	Trial	ResponseIL	14	0	175	0	102	13:50:28	1387408	0	3	3	3	3	3	3	3	3	0	0	0	0	0	0	0	0	0	0	0	0	0		1	0	0	0	0	0	0	0
020713	13:50:28	1	Trial	IncongruentLeft	14	0	1000	0	102	13:50:28	1388458	0	3	3	3	3	3	3	3	3	0	0	0	0	0	0	0	0	0	0	0	0	0		1	0	0	0	0	0	0	0
020713	13:50:28	1	Trial	ResponseCL	14	0	175	0	102	13:50:28	1389225	0	3	3	3	3	3	3	3	3	0	0	0	0	0	0	0	0	0	0	0	0	0		1	0	0	0	0	0	0	0
020713	13:50:28	1	Trial	CongruentLeft	14	0	1000	0	102	13:50:28	1390274	0	3	3	3	3	3	3	3	3	0	0	0	0	0	0	0	0	0	0	0	0	0		1	0	0	0	0	0	0	0
020713	13:50:28	1	Trial	ResponseIR	14	0	175	0	102	13:50:28	1391041	0	3	3	3	3	3	3	3	3	0	0	0	0	0	0	0	0	0	0	0	0	0		1	0	0	0	0	0	0	0
020713	13:50:28	1	Trial	IncongruentRight	14	0	1000	0	102	13:50:28	1392090	0	3	3	3	3	3	3	3	3	0	0	0	0	0	0	0	0	0	0	0	0	0		1	0	0	0	0	0	0	0
020713	13:50:28	1	Trial	ResponseIL	14	0	175	0	102	13:50:28	1392857	0	3	3	3	3	3	3	3	3	0	0	0	0	0	0	0	0	0	0	0	0	0		1	0	0	0	0	0	0	0
020713	13:50:28	1	Trial	IncongruentLeft	14	0	1000	0	102	13:50:28	1393906	0	3	3	3	3	3	3	3	3	0	0	0	0	0	0	0	0	0	0	0	0	0		1	0	0	0	0	0	0	0
020713	13:50:28	1	Trial	ResponseCL	14	0	175	0	102	13:50:28	1394673	0	3	3	3	3	3	3	3	3	0	0	0	0	0	0	0	0	0	0	0	0	0		1	0	0	0	0	0	0	0
020713	13:50:28	1	Trial	CongruentLeft	14	0	1000	0	102	13:50:28	1395722	0	3	3	3	3	3	3	3	3	0	0	0	0	0	0	0	0	0	0	0	0	0		1	0	0	0	0	0	0	0
020713	13:50:28	1	Trial	ResponseIL	14	0	175	0	102	13:50:28	1396489	0	3	3	3	3	3	3	3	3	0	0	0	0	0	0	0	0	0	0	0	0	0		1	0	0	0	0	0	0	0
020713	13:50:28	1	Trial	IncongruentLeft	14	0	1000	0	102	13:50:28	1397538	0	3	3	3	3	3	3	3	3	0	0	0	0	0	0	0	0	0	0	0	0	0		1	0	0	0	0	0	0	0
020713	13:50:28	1	Trial	ResponseCR	14	0	175	0	102	13:50:28	1398305	0	3	3	3	3	3	3	3	3	0	0	0	0	0	0	0	0	0	0	0	0	0		1	0	0	0	0	0	0	0
020713	13:50:28	1	Trial	CongruentRight	14	0	1000	0	102	13:50:28	1399354	0	3	3	3	3	3	3	3	3	0	0	0	0	0	0	0	0	0	0	0	0	0		1	0	0	0	0	0	0	0
020713	13:50:28	1	Trial	ResponseCL	14	0	175	0	102	13:50:28	1400121	0	3	3	3	3	3	3	3	3	0	0	0	0	0	0	0	0	0	0	0	0	0		1	0	0	0	0	0	0	0
020713	13:50:28	1	Trial	CongruentLeft	14	0	1000	0	102	13:50:28	1401170	0	3	3	3	3	3	3	3	3	0	0	0	0	0	0	0	0	0	0	0	0	0		1	0	0	0	0	0	0	0
020713	13:50:28	1	Trial	ResponseIR	14	0	175	0	102	13:50:28	1401937	0	3	3	3	3	3	3	3	3	0	0	0	0	0	0	0	0	0	0	0	0	0		1	0	0	0	0	0	0	0
020713	13:50:28	1	Trial	IncongruentRight	14	0	1000	0	102	13:50:28	1402986	0	3	3	3	3	3	3	3	3	0	0	0	0	0	0	0	0	0	0	0	0	0		1	0	0	0	0	0	0	0
020713	13:50:28	1	Trial	ResponseCL	14	0	175	0	102	13:50:28	1403753	0	3	3	3	3	3	3	3	3	0	0	0	0	0	0	0	0	0	0	0	0	0		1	0	0	0	0	0	0	0
020713	13:50:28	1	Trial	CongruentLeft	14	0	1000	0	102	13:50:28	1404803	0	3	3	3	3	3	3	3	3	0	0	0	0	0	0	0	0	0	0	0	0	0		1	0	0	0	0	0	0	0
020713	13:50:28	1	Trial	ResponseCR	14	0	175	0	102	13:50:28	1405569	0	3	3	3	3	3	3	3	3	0	0	0	0	0	0	0	0	0	0	0	0	0		1	0	0	0	0	0	0	0
020713	13:50:28	1	Trial	CongruentRight	14	0	1000	0	102	13:50:28	1406618	0	3	3	3	3	3	3	3	3	0	0	0	0	0	0	0	0	0	0	0	0	0		1	0	0	0	0	0	0	0
020713	13:50:28	1	Trial	ResponseIL	14	0	175	0	102	13:50:28	1407385	0	3	3	3	3	3	3	3	3	0	0	0	0	0	0	0	0	0	0	0	0	0		1	0	0	0	0	0	0	0
020713	13:50:28	1	Trial	IncongruentLeft	14	0	1000	0	102	13:50:28	1408434	0	3	3	3	3	3	3	3	3	0	0	0	0	0	0	0	0	0	0	0	0	0		1	0	0	0	0	0	0	0
020713	13:50:28	1	WordsAbsFrThreemo	PAbsFrThreemo1	16	Abs1	2635	0	102	13:50:28	1883346	0	3	3	3	3	3	3	3	3	0	0	0	0	0	0	0	0	0	0	0	0	0		1	0	0	0	0	0	0	0
020713	13:50:28	1	WordsAbsFrThreemo	AbsFrThreemo1	16	Abs1	903	0	102	13:50:28	1884328	0	3	3	3	3	3	3	3	3	0	0	1	0	0	0	0	0	0	0	0	0	0		1	0	0	0	0	0	0	0
020713	13:50:28	1	WordsAbsFrThreemo	AbsFrThreemo2	16	Abs1	548	0	102	13:50:28	1884944	0	3	3	3	3	3	3	3	3	0	0	2	0	0	0	0	0	0	0	0	0	0		1	0	0	0	0	0	0	0
020713	13:50:28	1	WordsAbsFrThreemo	AbsFrThreemo3	16	Abs1	1231	0	102	13:50:28	1886227	0	3	3	3	3	3	3	3	3	0	0	3	0	0	0	0	0	0	0	0	0	0		1	0	0	0	0	0	0	0
020713	13:50:28	1	Trial2BackFrS	NS	17	0	1000	1	102	13:50:28	1950204	0	3	3	3	3	3	3	3	3	0	0	3	0	0	0	0	0	0	0	0	0	0		1	0	0	0	0	0	0	0
020713	13:50:28	1	Trial2BackFrS	NS	17	0	1000	1	102	13:50:28	1951720	0	3	3	3	3	3	3	3	3	0	0	3	0	0	0	0	0	0	0	0	0	0		1	0	0	0	0	0	0	0
020713	13:50:28	1	Trial2BackFrS	NS	17	0	1000	1	102	13:50:28	1953236	0	3	3	3	3	3	3	3	3	0	0	3	0	0	0	0	0	0	0	0	0	0		1	0	0	0	0	0	0	0
020713	13:50:28	1	Trial2BackFrS	YS	17	0	1000	0	102	13:50:28	1954752	0	3	3	3	3	3	3	3	3	0	0	3	0	0	0	0	0	0	0	0	0	0		1	0	0	0	0	0	0	0
020713	13:50:28	1	Trial2BackFrS	NS	17	0	1000	1	102	13:50:28	1956268	0	3	3	3	3	3	3	3	3	0	0	3	0	0	0	0	0	0	0	0	0	0		1	0	0	0	0	0	0	0
020713	13:50:28	1	Trial2BackFrS	NS	17	0	1000	1	102	13:50:28	1957784	0	3	3	3	3	3	3	3	3	0	0	3	0	0	0	0	0	0	0	0	0	0		1	0	0	0	0	0	0	0
020713	13:50:28	1	Trial2BackFrS	NS	17	0	1000	1	102	13:50:28	1959300	0	3	3	3	3	3	3	3	3	0	0	3	0	0	0	0	0	0	0	0	0	0		1	0	0	0	0	0	0	0
020713	13:50:28	1	Trial2BackFrS	NS	17	0	1000	1	102	13:50:28	1960817	0	3	3	3	3	3	3	3	3	0	0	3	0	0	0	0	0	0	0	0	0	0		1	0	0	0	0	0	0	0
020713	13:50:28	1	Trial2BackFrS	YS	17	0	1000	0	102	13:50:28	1962333	0	3	3	3	3	3	3	3	3	0	0	3	0	0	0	0	0	0	0	0	0	0		1	0	0	0	0	0	0	0
020713	13:50:28	1	Trial2BackFrS	NS	17	0	1000	1	102	13:50:28	1963849	0	3	3	3	3	3	3	3	3	0	0	3	0	0	0	0	0	0	0	0	0	0		1	0	0	0	0	0	0	0
020713	13:50:28	1	Trial2BackFrS	NS	17	0	1000	1	102	13:50:28	1965365	0	3	3	3	3	3	3	3	3	0	0	3	0	0	0	0	0	0	0	0	0	0		1	0	0	0	0	0	0	0
020713	13:50:28	1	Trial2BackFrS	YS	17	0	1000	0	102	13:50:28	1966881	0	3	3	3	3	3	3	3	3	0	0	3	0	0	0	0	0	0	0	0	0	0		1	0	0	0	0	0	0	0
020713	13:50:28	1	Trial2BackFrS	NS	17	0	1000	1	102	13:50:28	1968397	0	3	3	3	3	3	3	3	3	0	0	3	0	0	0	0	0	0	0	0	0	0		1	0	0	0	0	0	0	0
020713	13:50:28	1	Trial2BackFrS	NS	17	0	1000	1	102	13:50:28	1969913	0	3	3	3	3	3	3	3	3	0	0	3	0	0	0	0	0	0	0	0	0	0		1	0	0	0	0	0	0	0
020713	13:50:28	1	Trial2BackFrS	NS	17	0	1000	1	102	13:50:28	1971429	0	3	3	3	3	3	3	3	3	0	0	3	0	0	0	0	0	0	0	0	0	0		1	0	0	0	0	0	0	0
020713	13:50:28	1	Trial2BackFrS	YS	17	0	1000	0	102	13:50:28	1972946	0	3	3	3	3	3	3	3	3	0	0	3	0	0	0	0	0	0	0	0	0	0		1	0	0	0	0	0	0	0
020713	13:50:28	1	Trial2BackFrS	NS	17	0	1000	1	102	13:50:28	1974462	0	3	3	3	3	3	3	3	3	0	0	3	0	0	0	0	0	0	0	0	0	0		1	0	0	0	0	0	0	0
020713	13:50:28	1	Trial2BackFrS	NS	17	0	1000	1	102	13:50:28	1975978	0	3	3	3	3	3	3	3	3	0	0	3	0	0	0	0	0	0	0	0	0	0		1	0	0	0	0	0	0	0
020713	13:50:28	1	Trial2BackFrS	NS	17	0	1000	1	102	13:50:28	1977495	0	3	3	3	3	3	3	3	3	0	0	3	0	0	0	0	0	0	0	0	0	0		1	0	0	0	0	0	0	0
020713	13:50:28	1	Trial2BackFrS	NS	17	0	1000	1	102	13:50:28	1979010	0	3	3	3	3	3	3	3	3	0	0	3	0	0	0	0	0	0	0	0	0	0		1	0	0	0	0	0	0	0
020713	13:50:28	1	Trial2BackFrS	YS	17	0	1000	0	102	13:50:28	1980526	0	3	3	3	3	3	3	3	3	0	0	3	0	0	0	0	0	0	0	0	0	0		1	0	0	0	0	0	0	0
020713	13:50:28	1	Trial2BackFrS	NS	17	0	1000	1	102	13:50:28	1982042	0	3	3	3	3	3	3	3	3	0	0	3	0	0	0	0	0	0	0	0	0	0		1	0	0	0	0	0	0	0
020713	13:50:28	1	Trial2BackFrS	NS	17	0	1000	1	102	13:50:28	1983558	0	3	3	3	3	3	3	3	3	0	0	3	0	0	0	0	0	0	0	0	0	0		1	0	0	0	0	0	0	0
020713	13:50:28	1	Trial2BackFrS	NS	17	0	1000	1	102	13:50:28	1985074	0	3	3	3	3	3	3	3	3	0	0	3	0	0	0	0	0	0	0	0	0	0		1	0	0	0	0	0	0	0
020713	13:50:28	1	Trial2BackFrS	NS	17	0	1000	1	102	13:50:28	1986590	0	3	3	3	3	3	3	3	3	0	0	3	0	0	0	0	0	0	0	0	0	0		1	0	0	0	0	0	0	0
020713	13:50:28	1	Trial2BackFrS	NS	17	0	1000	1	102	13:50:28	1988107	0	3	3	3	3	3	3	3	3	0	0	3	0	0	0	0	0	0	0	0	0	0		1	0	0	0	0	0	0	0
020713	13:50:28	1	Trial2BackFrS	NS	17	0	1000	1	102	13:50:28	1989623	0	3	3	3	3	3	3	3	3	0	0	3	0	0	0	0	0	0	0	0	0	0		1	0	0	0	0	0	0	0
020713	13:50:28	1	Trial2BackFrS	NS	17	0	1000	1	102	13:50:28	1991139	0	3	3	3	3	3	3	3	3	0	0	3	0	0	0	0	0	0	0	0	0	0		1	0	0	0	0	0	0	0
020713	13:50:28	1	Trial2BackFrS	NS	17	0	1000	1	102	13:50:28	1992655	0	3	3	3	3	3	3	3	3	0	0	3	0	0	0	0	0	0	0	0	0	0		1	0	0	0	0	0	0	0
020713	13:50:28	1	Trial2BackFrS	NS	17	0	1000	1	102	13:50:28	1994171	0	3	3	3	3	3	3	3	3	0	0	3	0	0	0	0	0	0	0	0	0	0		1	0	0	0	0	0	0	0
020713	13:50:28	1	Trial2BackFrS	NS	17	0	1000	1	102	13:50:28	1995687	0	3	3	3	3	3	3	3	3	0	0	3	0	0	0	0	0	0	0	0	0	0		1	0	0	0	0	0	0	0
020713	13:50:28	1	Trial2BackFrS	YS	17	0	1000	0	102	13:50:28	1997203	0	3	3	3	3	3	3	3	3	0	0	3	0	0	0	0	0	0	0	0	0	0		1	0	0	0	0	0	0	0
020713	13:50:28	1	Trial2BackFrS	NS	17	0	1000	1	102	13:50:28	1998720	0	3	3	3	3	3	3	3	3	0	0	3	0	0	0	0	0	0	0	0	0	0		1	0	0	0	0	0	0	0
020713	13:50:28	1	Trial2BackFrS	NS	17	0	1000	1	102	13:50:28	2000236	0	3	3	3	3	3	3	3	3	0	0	3	0	0	0	0	0	0	0	0	0	0		1	0	0	0	0	0	0	0
020713	13:50:28	1	Trial2BackFrS	NS	17	0	1000	1	102	13:50:28	2001752	0	3	3	3	3	3	3	3	3	0	0	3	0	0	0	0	0	0	0	0	0	0		1	0	0	0	0	0	0	0
020713	13:50:28	1	Trial2BackFrS	YS	17	0	1000	0	102	13:50:28	2003268	0	3	3	3	3	3	3	3	3	0	0	3	0	0	0	0	0	0	0	0	0	0		1	0	0	0	0	0	0	0
020713	13:50:28	1	Trial2BackFrS	NS	17	0	1000	1	102	13:50:28	2004784	0	3	3	3	3	3	3	3	3	0	0	3	0	0	0	0	0	0	0	0	0	0		1	0	0	0	0	0	0	0
020713	13:50:28	1	Trial2BackFrS	NS	17	0	1000	1	102	13:50:28	2006300	0	3	3	3	3	3	3	3	3	0	0	3	0	0	0	0	0	0	0	0	0	0		1	0	0	0	0	0	0	0
020713	13:50:28	1	Trial2BackFrS	NS	17	0	1000	1	102	13:50:28	2007816	0	3	3	3	3	3	3	3	3	0	0	3	0	0	0	0	0	0	0	0	0	0		1	0	0	0	0	0	0	0
020713	13:50:28	1	Trial2BackFrS	NS	17	0	1000	1	102	13:50:28	2009332	0	3	3	3	3	3	3	3	3	0	0	3	0	0	0	0	0	0	0	0	0	0		1	0	0	0	0	0	0	0
020713	13:50:28	1	Trial2BackFrS	NS	17	0	1000	1	102	13:50:28	2010848	0	3	3	3	3	3	3	3	3	0	0	3	0	0	0	0	0	0	0	0	0	0		1	0	0	0	0	0	0	0
020713	13:50:28	1	Trial2BackFrS	NS	17	0	1000	1	102	13:50:28	2012365	0	3	3	3	3	3	3	3	3	0	0	3	0	0	0	0	0	0	0	0	0	0		1	0	0	0	0	0	0	0
020713	13:50:28	1	Trial2BackFrS	NS	17	0	1000	1	102	13:50:28	2013881	0	3	3	3	3	3	3	3	3	0	0	3	0	0	0	0	0	0	0	0	0	0		1	0	0	0	0	0	0	0
020713	13:50:28	1	Trial2BackFrS	YS	17	0	1000	0	102	13:50:28	2015397	0	3	3	3	3	3	3	3	3	0	0	3	0	0	0	0	0	0	0	0	0	0		1	0	0	0	0	0	0	0
020713	13:50:28	1	Trial2BackFrS	NS	17	0	1000	1	102	13:50:28	2016913	0	3	3	3	3	3	3	3	3	0	0	3	0	0	0	0	0	0	0	0	0	0		1	0	0	0	0	0	0	0
020713	13:50:28	1	Trial2BackFrS	NS	17	0	1000	1	102	13:50:28	2018429	0	3	3	3	3	3	3	3	3	0	0	3	0	0	0	0	0	0	0	0	0	0		1	0	0	0	0	0	0	0
020713	13:50:28	1	Trial2BackFrS	NS	17	0	1000	1	102	13:50:28	2019945	0	3	3	3	3	3	3	3	3	0	0	3	0	0	0	0	0	0	0	0	0	0		1	0	0	0	0	0	0	0
020713	13:50:28	1	Trial2BackFrS	NS	17	0	1000	1	102	13:50:28	2021461	0	3	3	3	3	3	3	3	3	0	0	3	0	0	0	0	0	0	0	0	0	0		1	0	0	0	0	0	0	0
020713	13:50:28	1	Trial2BackFrS	YS	17	0	1000	0	102	13:50:28	2022977	0	3	3	3	3	3	3	3	3	0	0	3	0	0	0	0	0	0	0	0	0	0		1	0	0	0	0	0	0	0
020713	13:50:28	1	Trial2BackFrS	NS	17	0	1000	1	102	13:50:28	2024494	0	3	3	3	3	3	3	3	3	0	0	3	0	0	0	0	0	0	0	0	0	0		1	0	0	0	0	0	0	0
020713	13:50:28	1	Trial2BackFrS	NS	17	0	1000	1	102	13:50:28	2026010	0	3	3	3	3	3	3	3	3	0	0	3	0	0	0	0	0	0	0	0	0	0		1	0	0	0	0	0	0	0
020713	13:50:28	1	Trial2BackFrS	NS	17	0	1000	1	102	13:50:28	2027526	0	3	3	3	3	3	3	3	3	0	0	3	0	0	0	0	0	0	0	0	0	0		1	0	0	0	0	0	0	0
020713	13:50:28	1	Trial2BackFrS	NS	17	0	1000	1	102	13:50:28	2029042	0	3	3	3	3	3	3	3	3	0	0	3	0	0	0	0	0	0	0	0	0	0		1	0	0	0	0	0	0	0
020713	13:50:28	1	Trial2BackFrS	NS	17	0	1000	1	102	13:50:28	2030558	0	3	3	3	3	3	3	3	3	0	0	3	0	0	0	0	0	0	0	0	0	0		1	0	0	0	0	0	0	0
020713	13:50:28	1	Trial2BackFrS	NS	17	0	1000	1	102	13:50:28	2032074	0	3	3	3	3	3	3	3	3	0	0	3	0	0	0	0	0	0	0	0	0	0		1	0	0	0	0	0	0	0
020713	13:50:28	1	Trial2BackFrS	YS	17	0	1000	0	102	13:50:28	2033590	0	3	3	3	3	3	3	3	3	0	0	3	0	0	0	0	0	0	0	0	0	0		1	0	0	0	0	0	0	0
020713	13:50:28	1	Trial2BackFrS	NS	17	0	1000	1	102	13:50:28	2035106	0	3	3	3	3	3	3	3	3	0	0	3	0	0	0	0	0	0	0	0	0	0		1	0	0	0	0	0	0	0
020713	13:50:28	1	Trial2BackFrS	NS	17	0	1000	1	102	13:50:28	2036622	0	3	3	3	3	3	3	3	3	0	0	3	0	0	0	0	0	0	0	0	0	0		1	0	0	0	0	0	0	0
020713	13:50:28	1	Trial2BackFrS	NS	17	0	1000	1	102	13:50:28	2038139	0	3	3	3	3	3	3	3	3	0	0	3	0	0	0	0	0	0	0	0	0	0		1	0	0	0	0	0	0	0
020713	13:50:28	1	Trial2BackFrS	NS	17	0	1000	1	102	13:50:28	2039655	0	3	3	3	3	3	3	3	3	0	0	3	0	0	0	0	0	0	0	0	0	0		1	0	0	0	0	0	0	0
020713	13:50:28	1	Trial2BackFrS	NS	17	0	1000	1	102	13:50:28	2041171	0	3	3	3	3	3	3	3	3	0	0	3	0	0	0	0	0	0	0	0	0	0		1	0	0	0	0	0	0	0
020713	13:50:28	1	Trial2BackFrS	NS	17	0	1000	1	102	13:50:28	2042687	0	3	3	3	3	3	3	3	3	0	0	3	0	0	0	0	0	0	0	0	0	0		1	0	0	0	0	0	0	0
020713	13:50:28	1	Trial2BackFrS	NS	17	0	1000	1	102	13:50:28	2044203	0	3	3	3	3	3	3	3	3	0	0	3	0	0	0	0	0	0	0	0	0	0		1	0	0	0	0	0	0	0
020713	13:50:28	1	Trial2BackFrS	YS	17	0	1000	0	102	13:50:28	2045719	0	3	3	3	3	3	3	3	3	0	0	3	0	0	0	0	0	0	0	0	0	0		1	0	0	0	0	0	0	0
020713	13:50:28	1	Trial2BackFrS	NS	17	0	1000	1	102	13:50:28	2047235	0	3	3	3	3	3	3	3	3	0	0	3	0	0	0	0	0	0	0	0	0	0		1	0	0	0	0	0	0	0
020713	13:50:28	1	Trial2BackFrS	NS	17	0	1000	1	102	13:50:28	2048755	0	3	3	3	3	3	3	3	3	0	0	3	0	0	0	0	0	0	0	0	0	0		1	0	0	0	0	0	0	0
020713	13:50:28	1	Trial2BackFrS	NS	17	0	1000	1	102	13:50:28	2050267	0	3	3	3	3	3	3	3	3	0	0	3	0	0	0	0	0	0	0	0	0	0		1	0	0	0	0	0	0	0
020713	13:50:28	1	Trial2BackFrS	NS	17	0	1000	1	102	13:50:28	2051784	0	3	3	3	3	3	3	3	3	0	0	3	0	0	0	0	0	0	0	0	0	0		1	0	0	0	0	0	0	0
020713	13:50:28	1	Trial2BackFrS	YS	17	0	1000	0	102	13:50:28	2053300	0	3	3	3	3	3	3	3	3	0	0	3	0	0	0	0	0	0	0	0	0	0		1	0	0	0	0	0	0	0
020713	13:50:28	1	Trial2BackFrS	NS	17	0	1000	1	102	13:50:28	2054816	0	3	3	3	3	3	3	3	3	0	0	3	0	0	0	0	0	0	0	0	0	0		1	0	0	0	0	0	0	0
020713	13:50:28	1	Trial2BackFrS	NS	17	0	1000	1	102	13:50:28	2056332	0	3	3	3	3	3	3	3	3	0	0	3	0	0	0	0	0	0	0	0	0	0		1	0	0	0	0	0	0	0
020713	13:50:28	1	Trial2BackFrS	YS	17	0	1000	0	102	13:50:28	2057848	0	3	3	3	3	3	3	3	3	0	0	3	0	0	0	0	0	0	0	0	0	0		1	0	0	0	0	0	0	0
020713	13:50:28	1	Trial2BackFrS	NS	17	0	1000	1	102	13:50:28	2059364	0	3	3	3	3	3	3	3	3	0	0	3	0	0	0	0	0	0	0	0	0	0		1	0	0	0	0	0	0	0
020713	13:50:28	1	Trial2BackFrS	NS	17	0	1000	1	102	13:50:28	2060880	0	3	3	3	3	3	3	3	3	0	0	3	0	0	0	0	0	0	0	0	0	0		1	0	0	0	0	0	0	0
020713	13:50:28	1	Trial2BackFrS	NS	17	0	1000	1	102	13:50:28	2062396	0	3	3	3	3	3	3	3	3	0	0	3	0	0	0	0	0	0	0	0	0	0		1	0	0	0	0	0	0	0
020713	13:50:28	1	Trial2BackFrS	NS	17	0	1000	1	102	13:50:28	2063913	0	3	3	3	3	3	3	3	3	0	0	3	0	0	0	0	0	0	0	0	0	0		1	0	0	0	0	0	0	0
020713	13:50:28	1	Trial2BackFrS	NS	17	0	1000	1	102	13:50:28	2065429	0	3	3	3	3	3	3	3	3	0	0	3	0	0	0	0	0	0	0	0	0	0		1	0	0	0	0	0	0	0
020713	13:50:28	1	Trial2BackFrS	NS	17	0	1000	1	102	13:50:28	2066945	0	3	3	3	3	3	3	3	3	0	0	3	0	0	0	0	0	0	0	0	0	0		1	0	0	0	0	0	0	0
020713	13:50:28	1	Trial2BackFrS	YS	17	0	1000	0	102	13:50:28	2068461	0	3	3	3	3	3	3	3	3	0	0	3	0	0	0	0	0	0	0	0	0	0		1	0	0	0	0	0	0	0
020713	13:50:28	1	Trial2BackFrS	NS	17	0	1000	1	102	13:50:28	2069977	0	3	3	3	3	3	3	3	3	0	0	3	0	0	0	0	0	0	0	0	0	0		1	0	0	0	0	0	0	0
020713	13:50:28	1	Trial2BackFrS	NS	17	0	1000	1	102	13:50:28	2071493	0	3	3	3	3	3	3	3	3	0	0	3	0	0	0	0	0	0	0	0	0	0		1	0	0	0	0	0	0	0
020713	13:50:28	1	Trial2BackFrS	NS	17	0	1000	1	102	13:50:28	2073009	0	3	3	3	3	3	3	3	3	0	0	3	0	0	0	0	0	0	0	0	0	0		1	0	0	0	0	0	0	0
020713	13:50:28	1	Trial2BackFrS	NS	17	0	1000	1	102	13:50:28	2074525	0	3	3	3	3	3	3	3	3	0	0	3	0	0	0	0	0	0	0	0	0	0		1	0	0	0	0	0	0	0
020713	13:50:28	1	Trial2BackFrS	YS	17	0	1000	0	102	13:50:28	2076041	0	3	3	3	3	3	3	3	3	0	0	3	0	0	0	0	0	0	0	0	0	0		1	0	0	0	0	0	0	0
020713	13:50:28	1	Trial2BackFrS	NS	17	0	1000	1	102	13:50:28	2077558	0	3	3	3	3	3	3	3	3	0	0	3	0	0	0	0	0	0	0	0	0	0		1	0	0	0	0	0	0	0
020713	13:50:28	1	Trial2BackFrS	NS	17	0	1000	1	102	13:50:28	2079074	0	3	3	3	3	3	3	3	3	0	0	3	0	0	0	0	0	0	0	0	0	0		1	0	0	0	0	0	0	0
020713	13:50:28	1	Trial2BackFrS	NS	17	0	1000	1	102	13:50:28	2080590	0	3	3	3	3	3	3	3	3	0	0	3	0	0	0	0	0	0	0	0	0	0		1	0	0	0	0	0	0	0
020713	13:50:28	1	Trial2BackFrS	NS	17	0	1000	1	102	13:50:28	2082106	0	3	3	3	3	3	3	3	3	0	0	3	0	0	0	0	0	0	0	0	0	0		1	0	0	0	0	0	0	0
020713	13:50:28	1	Trial2BackFrS	YS	17	0	1000	0	102	13:50:28	2083622	0	3	3	3	3	3	3	3	3	0	0	3	0	0	0	0	0	0	0	0	0	0		1	0	0	0	0	0	0	0
020713	13:50:28	1	Trial2BackFrS	NS	17	0	1000	1	102	13:50:28	2085138	0	3	3	3	3	3	3	3	3	0	0	3	0	0	0	0	0	0	0	0	0	0		1	0	0	0	0	0	0	0
020713	13:50:28	1	Trial2BackFrS	NS	17	0	1000	1	102	13:50:28	2086654	0	3	3	3	3	3	3	3	3	0	0	3	0	0	0	0	0	0	0	0	0	0		1	0	0	0	0	0	0	0
020713	13:50:28	1	Trial2BackFrS	YS	17	0	1000	0	102	13:50:28	2088170	0	3	3	3	3	3	3	3	3	0	0	3	0	0	0	0	0	0	0	0	0	0		1	0	0	0	0	0	0	0
020713	13:50:28	1	Trial2BackFrS	NS	17	0	1000	1	102	13:50:28	2089686	0	3	3	3	3	3	3	3	3	0	0	3	0	0	0	0	0	0	0	0	0	0		1	0	0	0	0	0	0	0
020713	13:50:28	1	Trial2BackFrS	NS	17	0	1000	1	102	13:50:28	2091203	0	3	3	3	3	3	3	3	3	0	0	3	0	0	0	0	0	0	0	0	0	0		1	0	0	0	0	0	0	0
020713	13:50:28	1	Trial2BackFrS	NS	17	0	1000	1	102	13:50:28	2092719	0	3	3	3	3	3	3	3	3	0	0	3	0	0	0	0	0	0	0	0	0	0		1	0	0	0	0	0	0	0
020713	13:50:28	1	Trial2BackFrS	NS	17	0	1000	1	102	13:50:28	2094235	0	3	3	3	3	3	3	3	3	0	0	3	0	0	0	0	0	0	0	0	0	0		1	0	0	0	0	0	0	0
020713	13:50:28	1	Trial2BackFrS	NS	17	0	1000	1	102	13:50:28	2095751	0	3	3	3	3	3	3	3	3	0	0	3	0	0	0	0	0	0	0	0	0	0		1	0	0	0	0	0	0	0
020713	13:50:28	1	Trial2BackFrS	NS	17	0	1000	1	102	13:50:28	2097267	0	3	3	3	3	3	3	3	3	0	0	3	0	0	0	0	0	0	0	0	0	0		1	0	0	0	0	0	0	0
020713	13:50:28	1	Trial2BackFrS	NS	17	0	1000	1	102	13:50:28	2098783	0	3	3	3	3	3	3	3	3	0	0	3	0	0	0	0	0	0	0	0	0	0		1	0	0	0	0	0	0	0
020713	13:50:28	1	Trial2BackFrS	NS	17	0	1000	1	102	13:50:28	2100299	0	3	3	3	3	3	3	3	3	0	0	3	0	0	0	0	0	0	0	0	0	0		1	0	0	0	0	0	0	0
020713	13:50:28	1	Trial2BackFrS	YS	17	0	1000	0	102	13:50:28	2101815	0	3	3	3	3	3	3	3	3	0	0	3	0	0	0	0	0	0	0	0	0	0		1	0	0	0	0	0	0	0
020713	13:50:28	1	Trial2BackFrS	NS	17	0	1000	1	102	13:50:28	2103332	0	3	3	3	3	3	3	3	3	0	0	3	0	0	0	0	0	0	0	0	0	0		1	0	0	0	0	0	0	0
020713	13:50:28	1	Trial2BackFrS	NS	17	0	1000	1	102	13:50:28	2104848	0	3	3	3	3	3	3	3	3	0	0	3	0	0	0	0	0	0	0	0	0	0		1	0	0	0	0	0	0	0
020713	13:50:28	1	Trial2BackFrS	NS	17	0	1000	1	102	13:50:28	2106364	0	3	3	3	3	3	3	3	3	0	0	3	0	0	0	0	0	0	0	0	0	0		1	0	0	0	0	0	0	0
020713	13:50:28	1	Trial2BackFrS	NS	17	0	1000	1	102	13:50:28	2107880	0	3	3	3	3	3	3	3	3	0	0	3	0	0	0	0	0	0	0	0	0	0		1	0	0	0	0	0	0	0
020713	13:50:28	1	Trial2BackFrS	NS	17	0	1000	1	102	13:50:28	2109396	0	3	3	3	3	3	3	3	3	0	0	3	0	0	0	0	0	0	0	0	0	0		1	0	0	0	0	0	0	0
020713	13:50:28	1	Trial2BackFrS	NS	17	0	1000	1	102	13:50:28	2110912	0	3	3	3	3	3	3	3	3	0	0	3	0	0	0	0	0	0	0	0	0	0		1	0	0	0	0	0	0	0
020713	13:50:28	1	Trial2BackFrS	NS	17	0	1000	1	102	13:50:28	2112428	0	3	3	3	3	3	3	3	3	0	0	3	0	0	0	0	0	0	0	0	0	0		1	0	0	0	0	0	0	0
020713	13:50:28	1	Trial2BackFrS	YS	17	0	1000	0	102	13:50:28	2113944	0	3	3	3	3	3	3	3	3	0	0	3	0	0	0	0	0	0	0	0	0	0		1	0	0	0	0	0	0	0
020713	13:50:28	1	Trial2BackFrS	NS	17	0	1000	1	102	13:50:28	2115460	0	3	3	3	3	3	3	3	3	0	0	3	0	0	0	0	0	0	0	0	0	0		1	0	0	0	0	0	0	0
020713	13:50:28	1	Trial2BackFrS	NS	17	0	1000	1	102	13:50:28	2116977	0	3	3	3	3	3	3	3	3	0	0	3	0	0	0	0	0	0	0	0	0	0		1	0	0	0	0	0	0	0
020713	13:50:28	1	Trial2BackFrS	NS	17	0	1000	1	102	13:50:28	2118493	0	3	3	3	3	3	3	3	3	0	0	3	0	0	0	0	0	0	0	0	0	0		1	0	0	0	0	0	0	0
020713	13:50:28	1	Trial2BackFrS	NS	17	0	1000	1	102	13:50:28	2120009	0	3	3	3	3	3	3	3	3	0	0	3	0	0	0	0	0	0	0	0	0	0		1	0	0	0	0	0	0	0
020713	13:50:28	1	Trial2BackFrS	NS	17	0	1000	1	102	13:50:28	2121525	0	3	3	3	3	3	3	3	3	0	0	3	0	0	0	0	0	0	0	0	0	0		1	0	0	0	0	0	0	0
020713	13:50:28	1	Trial2BackFrS	NS	17	0	1000	1	102	13:50:28	2123041	0	3	3	3	3	3	3	3	3	0	0	3	0	0	0	0	0	0	0	0	0	0		1	0	0	0	0	0	0	0
020713	13:50:28	1	Trial2BackFrS	NS	17	0	1000	1	102	13:50:28	2124557	0	3	3	3	3	3	3	3	3	0	0	3	0	0	0	0	0	0	0	0	0	0		1	0	0	0	0	0	0	0
020713	13:50:28	1	Trial2BackFrS	NS	17	0	1000	1	102	13:50:28	2126073	0	3	3	3	3	3	3	3	3	0	0	3	0	0	0	0	0	0	0	0	0	0		1	0	0	0	0	0	0	0
020713	13:50:28	1	Trial2BackFrS	NS	17	0	1000	1	102	13:50:28	2127590	0	3	3	3	3	3	3	3	3	0	0	3	0	0	0	0	0	0	0	0	0	0		1	0	0	0	0	0	0	0
020713	13:50:28	1	Trial2BackFrS	YS	17	0	1000	0	102	13:50:28	2129106	0	3	3	3	3	3	3	3	3	0	0	3	0	0	0	0	0	0	0	0	0	0		1	0	0	0	0	0	0	0
020713	13:50:28	1	Trial2BackFrS	NS	17	0	1000	1	102	13:50:28	2130622	0	3	3	3	3	3	3	3	3	0	0	3	0	0	0	0	0	0	0	0	0	0		1	0	0	0	0	0	0	0
020713	13:50:28	1	ClockFr3mo	ClockFr3mo	19	Clock1	9635	0	102	13:50:28	2140418	0	3	3	3	3	3	3	3	3	0	0	3	1	0	0	0	0	0	0	0	0	0		1	0	0	0	0	0	0	0
020713	13:50:28	1	ClockFr3mo	ClockFr3mo	19	Clock11	1346	0	102	13:50:28	2141851	0	3	3	3	3	3	3	3	3	0	0	3	1	1	0	0	0	0	0	0	0	0		1	0	0	0	0	0	0	0
020713	13:50:28	1	ClockFr3mo	ClockFr3mo	19	Clock111	1545	0	102	13:50:28	2143484	0	3	3	3	3	3	3	3	3	0	0	3	1	1	1	0	0	0	0	0	0	0		1	0	0	0	0	0	0	0
020713	13:50:28	1	ClockFr3mo	ClockFr3mo	19	Clockdone	944	0	102	13:50:28	2144516	0	3	3	3	3	3	3	3	3	0	0	3	1	1	1	0	0	0	0	0	0	0		1	0	0	0	0	0	0	0
020713	13:50:28	1	FASFrVF3mo	StopFrVF3mo	20		3460	0	102	13:50:28	2212092	0	3	3	3	3	3	3	3	3	0	0	3	1	1	1	0	0	0	0	0	0	0		1	0	0	0	0	0	0	0
020713	13:50:28	1	practiceTOLFR	choice	20	nextround	1775	0	102	13:50:28	2218883	0	3	3	3	3	3	3	3	3	0	0	3	1	1	1	0	0	0	1	2	0	-2	nextround	0	0	0	2136	0	0	2216747	2218883
020713	13:50:28	1	testTOLFR	choice	20	nextround	1047	0	102	13:50:28	2223587	0	3	3	3	3	3	3	3	3	0	0	3	1	1	1	0	0	2	1	2	0	-2	nextround	0	0	0	1391	0	0	2222195	2223586
020713	13:50:28	1	testTOLFR	choice	20	nextround	372	0	102	13:50:28	2225360	0	3	3	3	3	3	3	3	3	0	0	3	1	1	1	0	0	4	1	3	0	-3	nextround	0	0	0	728	0	0	2224632	2225360
020713	13:50:28	1	testTOLFR	choice	20	nextround	291	0	102	13:50:28	2227045	0	3	3	3	3	3	3	3	3	0	0	3	1	1	1	0	0	7	1	4	0	-4	nextround	0	0	0	639	0	0	2226406	2227045
020713	13:50:28	1	testTOLFR	choice	20	nextround	443	0	102	13:50:28	2228881	0	3	3	3	3	3	3	3	3	0	0	3	1	1	1	0	0	10	1	5	0	-5	nextround	0	0	0	789	0	0	2228091	2228880
