date	time	subject	blockcode	trialcode	values.TaskNumber	response	latency	correct	values.Score	script.starttime	script.elapsedtime	values.ScoreS7	values.Word1	values.Word2	values.Word3	values.Word4	values.Word5	values.Word6	values.Word7	values.Word8	values.DigitSpanFwrd	values.DigitSpanBack	values.ScoreAbs	values.Contour	values.Numbers	values.Hands	values.corsiblockspanFwrd	values.corsiblockspanRev	values.problemnumber	values.subjectattempts	values.targetmoves	values.subjectmoves	expressions.excessmoves	values.movestring	expressions.targetachieved	values.problemscore	values.totalscoreTOL	expressions.firstmovetime	expressions.executiontime	expressions.solutiontime	values.t_choicestart	values.t_choiceend
020713	11:06:47	1	Language	Language	0	English	426428	0	0	11:06:47	426718	0	0	0	0	0	0	0	0	0	0	0	0	0	0	0	0	0	0	0	0	0	0		1	0	0	0	0	0	0	0
020713	11:06:47	1	Session	Session	0	6mo	6144	0	0	11:06:47	432983	0	0	0	0	0	0	0	0	0	0	0	0	0	0	0	0	0	0	0	0	0	0		1	0	0	0	0	0	0	0
020713	11:06:47	1	HandEng	HandEng	0	Right	1308	0	0	11:06:47	434399	0	0	0	0	0	0	0	0	0	0	0	0	0	0	0	0	0	0	0	0	0	0		1	0	0	0	0	0	0	0
020713	11:06:47	1	CubeEng	CubeEng	1	1Cube	1483	0	0	11:06:47	446678	0	0	0	0	0	0	0	0	0	0	0	0	0	0	0	0	0	0	0	0	0	0		1	0	0	0	0	0	0	0
020713	11:06:47	1	pm.simpleEngRight	blank.simpleEng	2	0	2300	1	0	11:06:47	451576	0	0	0	0	0	0	0	0	0	0	0	0	0	0	0	0	0	0	0	0	0	0		1	0	0	0	0	0	0	0
020713	11:06:47	1	pm.simpleEngRight	pm.simpleEng	2	57	303	0	0	11:06:47	451942	0	0	0	0	0	0	0	0	0	0	0	0	0	0	0	0	0	0	0	0	0	0		1	0	0	0	0	0	0	0
020713	11:06:47	1	pm.simpleEngRight	blank.simpleEng	2	0	2400	1	0	11:06:47	454408	0	0	0	0	0	0	0	0	0	0	0	0	0	0	0	0	0	0	0	0	0	0		1	0	0	0	0	0	0	0
020713	11:06:47	1	pm.simpleEngRight	pm.simpleEng	2	57	266	0	0	11:06:47	454741	0	0	0	0	0	0	0	0	0	0	0	0	0	0	0	0	0	0	0	0	0	0		1	0	0	0	0	0	0	0
020713	11:06:47	1	pm.simpleEngRight	blank.simpleEng	2	0	2500	1	0	11:06:47	457290	0	0	0	0	0	0	0	0	0	0	0	0	0	0	0	0	0	0	0	0	0	0		1	0	0	0	0	0	0	0
020713	11:06:47	1	pm.simpleEngRight	pm.simpleEng	2	57	222	0	0	11:06:47	457575	0	0	0	0	0	0	0	0	0	0	0	0	0	0	0	0	0	0	0	0	0	0		1	0	0	0	0	0	0	0
020713	11:06:47	1	pm.simpleEngRight	blank.simpleEng	2	0	2000	1	0	11:06:47	459640	0	0	0	0	0	0	0	0	0	0	0	0	0	0	0	0	0	0	0	0	0	0		1	0	0	0	0	0	0	0
020713	11:06:47	1	pm.simpleEngRight	pm.simpleEng	2	57	287	0	0	11:06:47	460006	0	0	0	0	0	0	0	0	0	0	0	0	0	0	0	0	0	0	0	0	0	0		1	0	0	0	0	0	0	0
020713	11:06:47	1	pm.simpleEngRight	blank.simpleEng	2	0	1800	1	0	11:06:47	461855	0	0	0	0	0	0	0	0	0	0	0	0	0	0	0	0	0	0	0	0	0	0		1	0	0	0	0	0	0	0
020713	11:06:47	1	pm.simpleEngRight	pm.simpleEng	2	57	246	0	0	11:06:47	462155	0	0	0	0	0	0	0	0	0	0	0	0	0	0	0	0	0	0	0	0	0	0		1	0	0	0	0	0	0	0
020713	11:06:47	1	pm.simpleEngRight	blank.simpleEng	2	0	1900	1	0	11:06:47	464121	0	0	0	0	0	0	0	0	0	0	0	0	0	0	0	0	0	0	0	0	0	0		1	0	0	0	0	0	0	0
020713	11:06:47	1	pm.simpleEngRight	pm.simpleEng	2	57	375	0	0	11:06:47	464554	0	0	0	0	0	0	0	0	0	0	0	0	0	0	0	0	0	0	0	0	0	0		1	0	0	0	0	0	0	0
020713	11:06:47	1	pm.simpleEngRight	blank.simpleEng	2	0	1500	1	0	11:06:47	466137	0	0	0	0	0	0	0	0	0	0	0	0	0	0	0	0	0	0	0	0	0	0		1	0	0	0	0	0	0	0
020713	11:06:47	1	pm.simpleEngRight	pm.simpleEng	2	57	358	0	0	11:06:47	466554	0	0	0	0	0	0	0	0	0	0	0	0	0	0	0	0	0	0	0	0	0	0		1	0	0	0	0	0	0	0
020713	11:06:47	1	pm.simpleEngRight	blank.simpleEng	2	0	1700	1	0	11:06:47	468370	0	0	0	0	0	0	0	0	0	0	0	0	0	0	0	0	0	0	0	0	0	0		1	0	0	0	0	0	0	0
020713	11:06:47	1	pm.simpleEngRight	pm.simpleEng	2	57	620	0	0	11:06:47	469053	0	0	0	0	0	0	0	0	0	0	0	0	0	0	0	0	0	0	0	0	0	0		1	0	0	0	0	0	0	0
020713	11:06:47	1	pm.simpleEngRight	blank.simpleEng	2	0	1600	1	0	11:06:47	470720	0	0	0	0	0	0	0	0	0	0	0	0	0	0	0	0	0	0	0	0	0	0		1	0	0	0	0	0	0	0
020713	11:06:47	1	pm.simpleEngRight	pm.simpleEng	2	57	4969	0	0	11:06:47	475751	0	0	0	0	0	0	0	0	0	0	0	0	0	0	0	0	0	0	0	0	0	0		1	0	0	0	0	0	0	0
020713	11:06:47	1	pm.simpleEngRight	blank.simpleEng	2	0	2100	1	0	11:06:47	477916	0	0	0	0	0	0	0	0	0	0	0	0	0	0	0	0	0	0	0	0	0	0		1	0	0	0	0	0	0	0
020713	11:06:47	1	pm.simpleEngRight	pm.simpleEng	2	57	100	0	0	11:06:47	478083	0	0	0	0	0	0	0	0	0	0	0	0	0	0	0	0	0	0	0	0	0	0		1	0	0	0	0	0	0	0
020713	11:06:47	1	pm.simpleEngRight	blank.simpleEng	2	0	2200	1	0	11:06:47	480332	0	0	0	0	0	0	0	0	0	0	0	0	0	0	0	0	0	0	0	0	0	0		1	0	0	0	0	0	0	0
020713	11:06:47	1	pm.simpleEngRight	pm.simpleEng	2	57	1860	0	0	11:06:47	482248	0	0	0	0	0	0	0	0	0	0	0	0	0	0	0	0	0	0	0	0	0	0		1	0	0	0	0	0	0	0
020713	11:06:47	1	pm.simpleEngRight	blank.simpleEng	2	0	1700	1	0	11:06:47	484015	0	0	0	0	0	0	0	0	0	0	0	0	0	0	0	0	0	0	0	0	0	0		1	0	0	0	0	0	0	0
020713	11:06:47	1	pm.simpleEngRight	pm.simpleEng	2	57	5637	0	0	11:06:47	489713	0	0	0	0	0	0	0	0	0	0	0	0	0	0	0	0	0	0	0	0	0	0		1	0	0	0	0	0	0	0
020713	11:06:47	1	pm.simpleEngRight	blank.simpleEng	2	0	1600	1	0	11:06:47	491361	0	0	0	0	0	0	0	0	0	0	0	0	0	0	0	0	0	0	0	0	0	0		1	0	0	0	0	0	0	0
020713	11:06:47	1	pm.simpleEngRight	pm.simpleEng	2	57	6113	0	0	11:06:47	497543	0	0	0	0	0	0	0	0	0	0	0	0	0	0	0	0	0	0	0	0	0	0		1	0	0	0	0	0	0	0
020713	11:06:47	1	pm.simpleEngRight	blank.simpleEng	2	0	1800	1	0	11:06:47	499391	0	0	0	0	0	0	0	0	0	0	0	0	0	0	0	0	0	0	0	0	0	0		1	0	0	0	0	0	0	0
020713	11:06:47	1	pm.simpleEngRight	pm.simpleEng	2	57	15167	0	0	11:06:47	514620	0	0	0	0	0	0	0	0	0	0	0	0	0	0	0	0	0	0	0	0	0	0		1	0	0	0	0	0	0	0
020713	11:06:47	1	pm.simpleEngRight	blank.simpleEng	2	0	2000	1	0	11:06:47	516668	0	0	0	0	0	0	0	0	0	0	0	0	0	0	0	0	0	0	0	0	0	0		1	0	0	0	0	0	0	0
020713	11:06:47	1	pm.simpleEngRight	pm.simpleEng	2	57	535	0	0	11:06:47	517285	0	0	0	0	0	0	0	0	0	0	0	0	0	0	0	0	0	0	0	0	0	0		1	0	0	0	0	0	0	0
020713	11:06:47	1	pm.simpleEngRight	blank.simpleEng	2	0	2200	1	0	11:06:47	519550	0	0	0	0	0	0	0	0	0	0	0	0	0	0	0	0	0	0	0	0	0	0		1	0	0	0	0	0	0	0
020713	11:06:47	1	pm.simpleEngRight	pm.simpleEng	2	57	4983	0	0	11:06:47	524632	0	0	0	0	0	0	0	0	0	0	0	0	0	0	0	0	0	0	0	0	0	0		1	0	0	0	0	0	0	0
020713	11:06:47	1	pm.simpleEngRight	blank.simpleEng	2	0	1900	1	0	11:06:47	526631	0	0	0	0	0	0	0	0	0	0	0	0	0	0	0	0	0	0	0	0	0	0		1	0	0	0	0	0	0	0
020713	11:06:47	1	pm.simpleEngRight	pm.simpleEng	2	57	15429	0	0	11:06:47	542125	0	0	0	0	0	0	0	0	0	0	0	0	0	0	0	0	0	0	0	0	0	0		1	0	0	0	0	0	0	0
020713	11:06:47	1	pm.simpleEngRight	blank.simpleEng	2	57	1567	0	0	11:06:47	544759	0	0	0	0	0	0	0	0	0	0	0	0	0	0	0	0	0	0	0	0	0	0		1	0	0	0	0	0	0	0
020713	11:06:47	1	pm.simpleEngRight	blank.simpleEng	2	0	2100	1	0	11:06:47	546907	0	0	0	0	0	0	0	0	0	0	0	0	0	0	0	0	0	0	0	0	0	0		1	0	0	0	0	0	0	0
020713	11:06:47	1	pm.simpleEngRight	pm.simpleEng	2	57	19420	0	0	11:06:47	566383	0	0	0	0	0	0	0	0	0	0	0	0	0	0	0	0	0	0	0	0	0	0		1	0	0	0	0	0	0	0
020713	11:06:47	1	pm.simpleEngRight	blank.simpleEng	2	0	2500	1	0	11:06:47	568932	0	0	0	0	0	0	0	0	0	0	0	0	0	0	0	0	0	0	0	0	0	0		1	0	0	0	0	0	0	0
020713	11:06:47	1	pm.simpleEngRight	pm.simpleEng	2	57	5969	0	0	11:06:47	574980	0	0	0	0	0	0	0	0	0	0	0	0	0	0	0	0	0	0	0	0	0	0		1	0	0	0	0	0	0	0
020713	11:06:47	1	pm.simpleEngRight	blank.simpleEng	2	0	2300	1	0	11:06:47	577329	0	0	0	0	0	0	0	0	0	0	0	0	0	0	0	0	0	0	0	0	0	0		1	0	0	0	0	0	0	0
020713	11:06:47	1	pm.simpleEngRight	pm.simpleEng	2	57	613	0	0	11:06:47	577995	0	0	0	0	0	0	0	0	0	0	0	0	0	0	0	0	0	0	0	0	0	0		1	0	0	0	0	0	0	0
020713	11:06:47	1	pm.simpleEngRight	blank.simpleEng	2	0	1500	1	0	11:06:47	579546	0	0	0	0	0	0	0	0	0	0	0	0	0	0	0	0	0	0	0	0	0	0		1	0	0	0	0	0	0	0
020713	11:06:47	1	pm.simpleEngRight	pm.simpleEng	2	57	264	0	0	11:06:47	579861	0	0	0	0	0	0	0	0	0	0	0	0	0	0	0	0	0	0	0	0	0	0		1	0	0	0	0	0	0	0
020713	11:06:47	1	pm.simpleEngRight	blank.simpleEng	2	0	2500	1	0	11:06:47	582410	0	0	0	0	0	0	0	0	0	0	0	0	0	0	0	0	0	0	0	0	0	0		1	0	0	0	0	0	0	0
020713	11:06:47	1	pm.simpleEngRight	pm.simpleEng	2	57	356	0	0	11:06:47	582827	0	0	0	0	0	0	0	0	0	0	0	0	0	0	0	0	0	0	0	0	0	0		1	0	0	0	0	0	0	0
020713	11:06:47	1	pm.simpleEngRight	blank.simpleEng	2	0	1600	1	0	11:06:47	584476	0	0	0	0	0	0	0	0	0	0	0	0	0	0	0	0	0	0	0	0	0	0		1	0	0	0	0	0	0	0
020713	11:06:47	1	pm.simpleEngRight	pm.simpleEng	2	57	562	0	0	11:06:47	585092	0	0	0	0	0	0	0	0	0	0	0	0	0	0	0	0	0	0	0	0	0	0		1	0	0	0	0	0	0	0
020713	11:06:47	1	pm.simpleEngRight	blank.simpleEng	2	0	2300	1	0	11:06:47	587442	0	0	0	0	0	0	0	0	0	0	0	0	0	0	0	0	0	0	0	0	0	0		1	0	0	0	0	0	0	0
020713	11:06:47	1	pm.simpleEngRight	pm.simpleEng	2	57	2295	0	0	11:06:47	589791	0	0	0	0	0	0	0	0	0	0	0	0	0	0	0	0	0	0	0	0	0	0		1	0	0	0	0	0	0	0
020713	11:06:47	1	pm.simpleEngRight	blank.simpleEng	2	0	1700	1	0	11:06:47	591540	0	0	0	0	0	0	0	0	0	0	0	0	0	0	0	0	0	0	0	0	0	0		1	0	0	0	0	0	0	0
020713	11:06:47	1	pm.simpleEngRight	pm.simpleEng	2	57	378	0	0	11:06:47	591973	0	0	0	0	0	0	0	0	0	0	0	0	0	0	0	0	0	0	0	0	0	0		1	0	0	0	0	0	0	0
020713	11:06:47	1	pm.simpleEngRight	blank.simpleEng	2	0	2000	1	0	11:06:47	594040	0	0	0	0	0	0	0	0	0	0	0	0	0	0	0	0	0	0	0	0	0	0		1	0	0	0	0	0	0	0
020713	11:06:47	1	pm.simpleEngRight	pm.simpleEng	2	57	9792	0	0	11:06:47	603885	0	0	0	0	0	0	0	0	0	0	0	0	0	0	0	0	0	0	0	0	0	0		1	0	0	0	0	0	0	0
020713	11:06:47	1	pm.simpleEngRight	blank.simpleEng	2	0	1900	1	0	11:06:47	605836	0	0	0	0	0	0	0	0	0	0	0	0	0	0	0	0	0	0	0	0	0	0		1	0	0	0	0	0	0	0
020713	11:06:47	1	pm.simpleEngRight	pm.simpleEng	2	57	717	0	0	11:06:47	606618	0	0	0	0	0	0	0	0	0	0	0	0	0	0	0	0	0	0	0	0	0	0		1	0	0	0	0	0	0	0
020713	11:06:47	1	pm.simpleEngRight	blank.simpleEng	2	0	2200	1	0	11:06:47	608867	0	0	0	0	0	0	0	0	0	0	0	0	0	0	0	0	0	0	0	0	0	0		1	0	0	0	0	0	0	0
020713	11:06:47	1	pm.simpleEngRight	pm.simpleEng	2	57	228	0	0	11:06:47	609150	0	0	0	0	0	0	0	0	0	0	0	0	0	0	0	0	0	0	0	0	0	0		1	0	0	0	0	0	0	0
020713	11:06:47	1	pm.simpleEngRight	blank.simpleEng	2	0	2400	1	0	11:06:47	611600	0	0	0	0	0	0	0	0	0	0	0	0	0	0	0	0	0	0	0	0	0	0		1	0	0	0	0	0	0	0
020713	11:06:47	1	pm.simpleEngRight	pm.simpleEng	2	57	4673	0	0	11:06:47	616331	0	0	0	0	0	0	0	0	0	0	0	0	0	0	0	0	0	0	0	0	0	0		1	0	0	0	0	0	0	0
020713	11:06:47	1	pm.simpleEngRight	blank.simpleEng	2	0	2100	1	0	11:06:47	618480	0	0	0	0	0	0	0	0	0	0	0	0	0	0	0	0	0	0	0	0	0	0		1	0	0	0	0	0	0	0
020713	11:06:47	1	pm.simpleEngRight	pm.simpleEng	2	57	209	0	0	11:06:47	618748	0	0	0	0	0	0	0	0	0	0	0	0	0	0	0	0	0	0	0	0	0	0		1	0	0	0	0	0	0	0
020713	11:06:47	1	pm.simpleEngRight	blank.simpleEng	2	0	1800	1	0	11:06:47	620596	0	0	0	0	0	0	0	0	0	0	0	0	0	0	0	0	0	0	0	0	0	0		1	0	0	0	0	0	0	0
020713	11:06:47	1	pm.simpleEngRight	pm.simpleEng	2	57	309	0	0	11:06:47	620980	0	0	0	0	0	0	0	0	0	0	0	0	0	0	0	0	0	0	0	0	0	0		1	0	0	0	0	0	0	0
020713	11:06:47	1	pm.simpleEngRight	blank.simpleEng	2	0	1500	1	0	11:06:47	622529	0	0	0	0	0	0	0	0	0	0	0	0	0	0	0	0	0	0	0	0	0	0		1	0	0	0	0	0	0	0
020713	11:06:47	1	pm.simpleEngRight	pm.simpleEng	2	57	236	0	0	11:06:47	622829	0	0	0	0	0	0	0	0	0	0	0	0	0	0	0	0	0	0	0	0	0	0		1	0	0	0	0	0	0	0
020713	11:06:47	1	pm.simpleEngRight	blank.simpleEng	2	0	1900	1	0	11:06:47	624778	0	0	0	0	0	0	0	0	0	0	0	0	0	0	0	0	0	0	0	0	0	0		1	0	0	0	0	0	0	0
020713	11:06:47	1	pm.simpleEngRight	pm.simpleEng	2	57	317	0	0	11:06:47	625162	0	0	0	0	0	0	0	0	0	0	0	0	0	0	0	0	0	0	0	0	0	0		1	0	0	0	0	0	0	0
020713	11:06:47	1	pm.simpleEngRight	blank.simpleEng	2	0	1500	1	0	11:06:47	626710	0	0	0	0	0	0	0	0	0	0	0	0	0	0	0	0	0	0	0	0	0	0		1	0	0	0	0	0	0	0
020713	11:06:47	1	pm.simpleEngRight	pm.simpleEng	2	57	224	0	0	11:06:47	626994	0	0	0	0	0	0	0	0	0	0	0	0	0	0	0	0	0	0	0	0	0	0		1	0	0	0	0	0	0	0
020713	11:06:47	1	pm.simpleEngRight	blank.simpleEng	2	0	2100	1	0	11:06:47	629143	0	0	0	0	0	0	0	0	0	0	0	0	0	0	0	0	0	0	0	0	0	0		1	0	0	0	0	0	0	0
020713	11:06:47	1	pm.simpleEngRight	pm.simpleEng	2	57	333	0	0	11:06:47	629544	0	0	0	0	0	0	0	0	0	0	0	0	0	0	0	0	0	0	0	0	0	0		1	0	0	0	0	0	0	0
020713	11:06:47	1	pm.simpleEngRight	blank.simpleEng	2	0	2300	1	0	11:06:47	631892	0	0	0	0	0	0	0	0	0	0	0	0	0	0	0	0	0	0	0	0	0	0		1	0	0	0	0	0	0	0
020713	11:06:47	1	pm.simpleEngRight	pm.simpleEng	2	57	10353	0	0	11:06:47	642305	0	0	0	0	0	0	0	0	0	0	0	0	0	0	0	0	0	0	0	0	0	0		1	0	0	0	0	0	0	0
020713	11:06:47	1	pm.simpleEngRight	blank.simpleEng	2	57	2490	0	0	11:06:47	645853	0	0	0	0	0	0	0	0	0	0	0	0	0	0	0	0	0	0	0	0	0	0		1	0	0	0	0	0	0	0
020713	11:06:47	1	pm.simpleEngRight	blank.simpleEng	2	0	2200	1	0	11:06:47	648102	0	0	0	0	0	0	0	0	0	0	0	0	0	0	0	0	0	0	0	0	0	0		1	0	0	0	0	0	0	0
020713	11:06:47	1	pm.simpleEngRight	pm.simpleEng	2	57	1139	0	0	11:06:47	649302	0	0	0	0	0	0	0	0	0	0	0	0	0	0	0	0	0	0	0	0	0	0		1	0	0	0	0	0	0	0
020713	11:06:47	1	pm.simpleEngRight	blank.simpleEng	2	0	2400	1	0	11:06:47	651751	0	0	0	0	0	0	0	0	0	0	0	0	0	0	0	0	0	0	0	0	0	0		1	0	0	0	0	0	0	0
020713	11:06:47	1	pm.simpleEngRight	pm.simpleEng	2	57	872	0	0	11:06:47	652685	0	0	0	0	0	0	0	0	0	0	0	0	0	0	0	0	0	0	0	0	0	0		1	0	0	0	0	0	0	0
020713	11:06:47	1	pm.simpleEngRight	blank.simpleEng	2	0	1600	1	0	11:06:47	654333	0	0	0	0	0	0	0	0	0	0	0	0	0	0	0	0	0	0	0	0	0	0		1	0	0	0	0	0	0	0
020713	11:06:47	1	pm.simpleEngRight	pm.simpleEng	2	57	6084	0	0	11:06:47	660482	0	0	0	0	0	0	0	0	0	0	0	0	0	0	0	0	0	0	0	0	0	0		1	0	0	0	0	0	0	0
020713	11:06:47	1	pm.simpleEngRight	blank.simpleEng	2	0	1700	1	0	11:06:47	662230	0	0	0	0	0	0	0	0	0	0	0	0	0	0	0	0	0	0	0	0	0	0		1	0	0	0	0	0	0	0
020713	11:06:47	1	pm.simpleEngRight	pm.simpleEng	2	57	3447	0	0	11:06:47	665747	0	0	0	0	0	0	0	0	0	0	0	0	0	0	0	0	0	0	0	0	0	0		1	0	0	0	0	0	0	0
020713	11:06:47	1	Trial2BackEng	N	3	0	1000	1	1	11:06:47	726473	0	0	0	0	0	0	0	0	0	0	0	0	0	0	0	0	0	0	0	0	0	0		1	0	0	0	0	0	0	0
020713	11:06:47	1	Trial2BackEng	N	3	0	1000	1	2	11:06:47	727989	0	0	0	0	0	0	0	0	0	0	0	0	0	0	0	0	0	0	0	0	0	0		1	0	0	0	0	0	0	0
020713	11:06:47	1	Trial2BackEng	N	3	0	1000	1	3	11:06:47	729505	0	0	0	0	0	0	0	0	0	0	0	0	0	0	0	0	0	0	0	0	0	0		1	0	0	0	0	0	0	0
020713	11:06:47	1	Trial2BackEng	N	3	0	1000	1	4	11:06:47	731021	0	0	0	0	0	0	0	0	0	0	0	0	0	0	0	0	0	0	0	0	0	0		1	0	0	0	0	0	0	0
020713	11:06:47	1	Trial2BackEng	N	3	0	1000	1	5	11:06:47	732539	0	0	0	0	0	0	0	0	0	0	0	0	0	0	0	0	0	0	0	0	0	0		1	0	0	0	0	0	0	0
020713	11:06:47	1	Trial2BackEng	N	3	0	1000	1	6	11:06:47	734053	0	0	0	0	0	0	0	0	0	0	0	0	0	0	0	0	0	0	0	0	0	0		1	0	0	0	0	0	0	0
020713	11:06:47	1	Trial2BackEng	N	3	0	1000	1	7	11:06:47	735570	0	0	0	0	0	0	0	0	0	0	0	0	0	0	0	0	0	0	0	0	0	0		1	0	0	0	0	0	0	0
020713	11:06:47	1	Trial2BackEng	N	3	0	1000	1	8	11:06:47	737086	0	0	0	0	0	0	0	0	0	0	0	0	0	0	0	0	0	0	0	0	0	0		1	0	0	0	0	0	0	0
020713	11:06:47	1	Trial2BackEng	Y	3	0	1000	0	8	11:06:47	738602	0	0	0	0	0	0	0	0	0	0	0	0	0	0	0	0	0	0	0	0	0	0		1	0	0	0	0	0	0	0
020713	11:06:47	1	Trial2BackEng	N	3	0	1000	1	9	11:06:47	740118	0	0	0	0	0	0	0	0	0	0	0	0	0	0	0	0	0	0	0	0	0	0		1	0	0	0	0	0	0	0
020713	11:06:47	1	Trial2BackEng	N	3	0	1000	1	10	11:06:47	741634	0	0	0	0	0	0	0	0	0	0	0	0	0	0	0	0	0	0	0	0	0	0		1	0	0	0	0	0	0	0
020713	11:06:47	1	Trial2BackEng	N	3	0	1000	1	11	11:06:47	743150	0	0	0	0	0	0	0	0	0	0	0	0	0	0	0	0	0	0	0	0	0	0		1	0	0	0	0	0	0	0
020713	11:06:47	1	Trial2BackEng	Y	3	0	1000	0	11	11:06:47	744666	0	0	0	0	0	0	0	0	0	0	0	0	0	0	0	0	0	0	0	0	0	0		1	0	0	0	0	0	0	0
020713	11:06:47	1	Trial2BackEng	N	3	0	1000	1	12	11:06:47	746182	0	0	0	0	0	0	0	0	0	0	0	0	0	0	0	0	0	0	0	0	0	0		1	0	0	0	0	0	0	0
020713	11:06:47	1	Trial2BackEng	N	3	0	1000	1	13	11:06:47	747699	0	0	0	0	0	0	0	0	0	0	0	0	0	0	0	0	0	0	0	0	0	0		1	0	0	0	0	0	0	0
020713	11:06:47	1	Trial2BackEng	N	3	0	1000	1	14	11:06:47	749215	0	0	0	0	0	0	0	0	0	0	0	0	0	0	0	0	0	0	0	0	0	0		1	0	0	0	0	0	0	0
020713	11:06:47	1	Trial2BackEng	N	3	0	1000	1	15	11:06:47	750731	0	0	0	0	0	0	0	0	0	0	0	0	0	0	0	0	0	0	0	0	0	0		1	0	0	0	0	0	0	0
020713	11:06:47	1	Trial2BackEng	N	3	0	1000	1	16	11:06:47	752247	0	0	0	0	0	0	0	0	0	0	0	0	0	0	0	0	0	0	0	0	0	0		1	0	0	0	0	0	0	0
020713	11:06:47	1	Trial2BackEng	Y	3	0	1000	0	16	11:06:47	753763	0	0	0	0	0	0	0	0	0	0	0	0	0	0	0	0	0	0	0	0	0	0		1	0	0	0	0	0	0	0
020713	11:06:47	1	Trial2BackEng	N	3	0	1000	1	17	11:06:47	755279	0	0	0	0	0	0	0	0	0	0	0	0	0	0	0	0	0	0	0	0	0	0		1	0	0	0	0	0	0	0
020713	11:06:47	1	Trial2BackEng	N	3	0	1000	1	18	11:06:47	756795	0	0	0	0	0	0	0	0	0	0	0	0	0	0	0	0	0	0	0	0	0	0		1	0	0	0	0	0	0	0
020713	11:06:47	1	Trial2BackEng	N	3	0	1000	1	19	11:06:47	758311	0	0	0	0	0	0	0	0	0	0	0	0	0	0	0	0	0	0	0	0	0	0		1	0	0	0	0	0	0	0
020713	11:06:47	1	Trial2BackEng	N	3	0	1000	1	20	11:06:47	759827	0	0	0	0	0	0	0	0	0	0	0	0	0	0	0	0	0	0	0	0	0	0		1	0	0	0	0	0	0	0
020713	11:06:47	1	Trial2BackEng	Y	3	0	1000	0	20	11:06:47	761343	0	0	0	0	0	0	0	0	0	0	0	0	0	0	0	0	0	0	0	0	0	0		1	0	0	0	0	0	0	0
020713	11:06:47	1	Trial2BackEng	N	3	0	1000	1	21	11:06:47	762860	0	0	0	0	0	0	0	0	0	0	0	0	0	0	0	0	0	0	0	0	0	0		1	0	0	0	0	0	0	0
020713	11:06:47	1	Trial2BackEng	N	3	0	1000	1	22	11:06:47	764376	0	0	0	0	0	0	0	0	0	0	0	0	0	0	0	0	0	0	0	0	0	0		1	0	0	0	0	0	0	0
020713	11:06:47	1	Trial2BackEng	N	3	0	1000	1	23	11:06:47	765892	0	0	0	0	0	0	0	0	0	0	0	0	0	0	0	0	0	0	0	0	0	0		1	0	0	0	0	0	0	0
020713	11:06:47	1	Trial2BackEng	N	3	0	1000	1	24	11:06:47	767408	0	0	0	0	0	0	0	0	0	0	0	0	0	0	0	0	0	0	0	0	0	0		1	0	0	0	0	0	0	0
020713	11:06:47	1	Trial2BackEng	N	3	0	1000	1	25	11:06:47	768924	0	0	0	0	0	0	0	0	0	0	0	0	0	0	0	0	0	0	0	0	0	0		1	0	0	0	0	0	0	0
020713	11:06:47	1	Trial2BackEng	N	3	0	1000	1	26	11:06:47	770440	0	0	0	0	0	0	0	0	0	0	0	0	0	0	0	0	0	0	0	0	0	0		1	0	0	0	0	0	0	0
020713	11:06:47	1	Trial2BackEng	Y	3	0	1000	0	26	11:06:47	771956	0	0	0	0	0	0	0	0	0	0	0	0	0	0	0	0	0	0	0	0	0	0		1	0	0	0	0	0	0	0
020713	11:06:47	1	Trial2BackEng	N	3	0	1000	1	27	11:06:47	773472	0	0	0	0	0	0	0	0	0	0	0	0	0	0	0	0	0	0	0	0	0	0		1	0	0	0	0	0	0	0
020713	11:06:47	1	Trial2BackEng	N	3	0	1000	1	28	11:06:47	774988	0	0	0	0	0	0	0	0	0	0	0	0	0	0	0	0	0	0	0	0	0	0		1	0	0	0	0	0	0	0
020713	11:06:47	1	Trial2BackEng	N	3	0	1000	1	29	11:06:47	776504	0	0	0	0	0	0	0	0	0	0	0	0	0	0	0	0	0	0	0	0	0	0		1	0	0	0	0	0	0	0
020713	11:06:47	1	Trial2BackEng	Y	3	0	1000	0	29	11:06:47	778021	0	0	0	0	0	0	0	0	0	0	0	0	0	0	0	0	0	0	0	0	0	0		1	0	0	0	0	0	0	0
020713	11:06:47	1	Trial2BackEng	N	3	0	1000	1	30	11:06:47	779537	0	0	0	0	0	0	0	0	0	0	0	0	0	0	0	0	0	0	0	0	0	0		1	0	0	0	0	0	0	0
020713	11:06:47	1	Trial2BackEng	N	3	0	1000	1	31	11:06:47	781053	0	0	0	0	0	0	0	0	0	0	0	0	0	0	0	0	0	0	0	0	0	0		1	0	0	0	0	0	0	0
020713	11:06:47	1	Trial2BackEng	N	3	0	1000	1	32	11:06:47	782569	0	0	0	0	0	0	0	0	0	0	0	0	0	0	0	0	0	0	0	0	0	0		1	0	0	0	0	0	0	0
020713	11:06:47	1	Trial2BackEng	N	3	0	1000	1	33	11:06:47	784085	0	0	0	0	0	0	0	0	0	0	0	0	0	0	0	0	0	0	0	0	0	0		1	0	0	0	0	0	0	0
020713	11:06:47	1	Trial2BackEng	N	3	0	1000	1	34	11:06:47	785601	0	0	0	0	0	0	0	0	0	0	0	0	0	0	0	0	0	0	0	0	0	0		1	0	0	0	0	0	0	0
020713	11:06:47	1	Trial2BackEng	N	3	0	1000	1	35	11:06:47	787117	0	0	0	0	0	0	0	0	0	0	0	0	0	0	0	0	0	0	0	0	0	0		1	0	0	0	0	0	0	0
020713	11:06:47	1	Trial2BackEng	Y	3	0	1000	0	35	11:06:47	788633	0	0	0	0	0	0	0	0	0	0	0	0	0	0	0	0	0	0	0	0	0	0		1	0	0	0	0	0	0	0
020713	11:06:47	1	Trial2BackEng	N	3	0	1000	1	36	11:06:47	790149	0	0	0	0	0	0	0	0	0	0	0	0	0	0	0	0	0	0	0	0	0	0		1	0	0	0	0	0	0	0
020713	11:06:47	1	Trial2BackEng	N	3	0	1000	1	37	11:06:47	791665	0	0	0	0	0	0	0	0	0	0	0	0	0	0	0	0	0	0	0	0	0	0		1	0	0	0	0	0	0	0
020713	11:06:47	1	Trial2BackEng	N	3	0	1000	1	38	11:06:47	793182	0	0	0	0	0	0	0	0	0	0	0	0	0	0	0	0	0	0	0	0	0	0		1	0	0	0	0	0	0	0
020713	11:06:47	1	Trial2BackEng	N	3	0	1000	1	39	11:06:47	794698	0	0	0	0	0	0	0	0	0	0	0	0	0	0	0	0	0	0	0	0	0	0		1	0	0	0	0	0	0	0
020713	11:06:47	1	Trial2BackEng	Y	3	0	1000	0	39	11:06:47	796214	0	0	0	0	0	0	0	0	0	0	0	0	0	0	0	0	0	0	0	0	0	0		1	0	0	0	0	0	0	0
020713	11:06:47	1	Trial2BackEng	N	3	0	1000	1	40	11:06:47	797730	0	0	0	0	0	0	0	0	0	0	0	0	0	0	0	0	0	0	0	0	0	0		1	0	0	0	0	0	0	0
020713	11:06:47	1	Trial2BackEng	N	3	0	1000	1	41	11:06:47	799246	0	0	0	0	0	0	0	0	0	0	0	0	0	0	0	0	0	0	0	0	0	0		1	0	0	0	0	0	0	0
020713	11:06:47	1	Trial2BackEng	N	3	0	1000	1	42	11:06:47	800762	0	0	0	0	0	0	0	0	0	0	0	0	0	0	0	0	0	0	0	0	0	0		1	0	0	0	0	0	0	0
020713	11:06:47	1	Trial2BackEng	N	3	0	1000	1	43	11:06:47	802278	0	0	0	0	0	0	0	0	0	0	0	0	0	0	0	0	0	0	0	0	0	0		1	0	0	0	0	0	0	0
020713	11:06:47	1	Trial2BackEng	N	3	0	1000	1	44	11:06:47	803794	0	0	0	0	0	0	0	0	0	0	0	0	0	0	0	0	0	0	0	0	0	0		1	0	0	0	0	0	0	0
020713	11:06:47	1	Trial2BackEng	Y	3	0	1000	0	44	11:06:47	805310	0	0	0	0	0	0	0	0	0	0	0	0	0	0	0	0	0	0	0	0	0	0		1	0	0	0	0	0	0	0
020713	11:06:47	1	Trial2BackEng	N	3	0	1000	1	45	11:06:47	806826	0	0	0	0	0	0	0	0	0	0	0	0	0	0	0	0	0	0	0	0	0	0		1	0	0	0	0	0	0	0
020713	11:06:47	1	Trial2BackEng	N	3	0	1000	1	46	11:06:47	808343	0	0	0	0	0	0	0	0	0	0	0	0	0	0	0	0	0	0	0	0	0	0		1	0	0	0	0	0	0	0
020713	11:06:47	1	Trial2BackEng	N	3	0	1000	1	47	11:06:47	809859	0	0	0	0	0	0	0	0	0	0	0	0	0	0	0	0	0	0	0	0	0	0		1	0	0	0	0	0	0	0
020713	11:06:47	1	Trial2BackEng	N	3	0	1000	1	48	11:06:47	811375	0	0	0	0	0	0	0	0	0	0	0	0	0	0	0	0	0	0	0	0	0	0		1	0	0	0	0	0	0	0
020713	11:06:47	1	Trial2BackEng	N	3	0	1000	1	49	11:06:47	812891	0	0	0	0	0	0	0	0	0	0	0	0	0	0	0	0	0	0	0	0	0	0		1	0	0	0	0	0	0	0
020713	11:06:47	1	Trial2BackEng	N	3	0	1000	1	50	11:06:47	814407	0	0	0	0	0	0	0	0	0	0	0	0	0	0	0	0	0	0	0	0	0	0		1	0	0	0	0	0	0	0
020713	11:06:47	1	Trial2BackEng	Y	3	0	1000	0	50	11:06:47	815923	0	0	0	0	0	0	0	0	0	0	0	0	0	0	0	0	0	0	0	0	0	0		1	0	0	0	0	0	0	0
020713	11:06:47	1	Trial2BackEng	N	3	0	1000	1	51	11:06:47	817439	0	0	0	0	0	0	0	0	0	0	0	0	0	0	0	0	0	0	0	0	0	0		1	0	0	0	0	0	0	0
020713	11:06:47	1	Trial2BackEng	N	3	0	1000	1	52	11:06:47	818955	0	0	0	0	0	0	0	0	0	0	0	0	0	0	0	0	0	0	0	0	0	0		1	0	0	0	0	0	0	0
020713	11:06:47	1	Trial2BackEng	Y	3	0	1000	0	52	11:06:47	820471	0	0	0	0	0	0	0	0	0	0	0	0	0	0	0	0	0	0	0	0	0	0		1	0	0	0	0	0	0	0
020713	11:06:47	1	Trial2BackEng	N	3	0	1000	1	53	11:06:47	821987	0	0	0	0	0	0	0	0	0	0	0	0	0	0	0	0	0	0	0	0	0	0		1	0	0	0	0	0	0	0
020713	11:06:47	1	Trial2BackEng	N	3	0	1000	1	54	11:06:47	823504	0	0	0	0	0	0	0	0	0	0	0	0	0	0	0	0	0	0	0	0	0	0		1	0	0	0	0	0	0	0
020713	11:06:47	1	Trial2BackEng	N	3	0	1000	1	55	11:06:47	825020	0	0	0	0	0	0	0	0	0	0	0	0	0	0	0	0	0	0	0	0	0	0		1	0	0	0	0	0	0	0
020713	11:06:47	1	Trial2BackEng	N	3	0	1000	1	56	11:06:47	826536	0	0	0	0	0	0	0	0	0	0	0	0	0	0	0	0	0	0	0	0	0	0		1	0	0	0	0	0	0	0
020713	11:06:47	1	Trial2BackEng	N	3	0	1000	1	57	11:06:47	828052	0	0	0	0	0	0	0	0	0	0	0	0	0	0	0	0	0	0	0	0	0	0		1	0	0	0	0	0	0	0
020713	11:06:47	1	Trial2BackEng	N	3	0	1000	1	58	11:06:47	829568	0	0	0	0	0	0	0	0	0	0	0	0	0	0	0	0	0	0	0	0	0	0		1	0	0	0	0	0	0	0
020713	11:06:47	1	Trial2BackEng	N	3	0	1000	1	59	11:06:47	831084	0	0	0	0	0	0	0	0	0	0	0	0	0	0	0	0	0	0	0	0	0	0		1	0	0	0	0	0	0	0
020713	11:06:47	1	Trial2BackEng	N	3	0	1000	1	60	11:06:47	832600	0	0	0	0	0	0	0	0	0	0	0	0	0	0	0	0	0	0	0	0	0	0		1	0	0	0	0	0	0	0
020713	11:06:47	1	Trial2BackEng	N	3	0	1000	1	61	11:06:47	834116	0	0	0	0	0	0	0	0	0	0	0	0	0	0	0	0	0	0	0	0	0	0		1	0	0	0	0	0	0	0
020713	11:06:47	1	Trial2BackEng	N	3	0	1000	1	62	11:06:47	835632	0	0	0	0	0	0	0	0	0	0	0	0	0	0	0	0	0	0	0	0	0	0		1	0	0	0	0	0	0	0
020713	11:06:47	1	Trial2BackEng	Y	3	0	1000	0	62	11:06:47	837148	0	0	0	0	0	0	0	0	0	0	0	0	0	0	0	0	0	0	0	0	0	0		1	0	0	0	0	0	0	0
020713	11:06:47	1	Trial2BackEng	N	3	0	1000	1	63	11:06:47	838665	0	0	0	0	0	0	0	0	0	0	0	0	0	0	0	0	0	0	0	0	0	0		1	0	0	0	0	0	0	0
020713	11:06:47	1	Trial2BackEng	N	3	0	1000	1	64	11:06:47	840181	0	0	0	0	0	0	0	0	0	0	0	0	0	0	0	0	0	0	0	0	0	0		1	0	0	0	0	0	0	0
020713	11:06:47	1	Trial2BackEng	N	3	0	1000	1	65	11:06:47	841697	0	0	0	0	0	0	0	0	0	0	0	0	0	0	0	0	0	0	0	0	0	0		1	0	0	0	0	0	0	0
020713	11:06:47	1	Trial2BackEng	Y	3	0	1000	0	65	11:06:47	843214	0	0	0	0	0	0	0	0	0	0	0	0	0	0	0	0	0	0	0	0	0	0		1	0	0	0	0	0	0	0
020713	11:06:47	1	Trial2BackEng	N	3	0	1000	1	66	11:06:47	844729	0	0	0	0	0	0	0	0	0	0	0	0	0	0	0	0	0	0	0	0	0	0		1	0	0	0	0	0	0	0
020713	11:06:47	1	Trial2BackEng	N	3	0	1000	1	67	11:06:47	846245	0	0	0	0	0	0	0	0	0	0	0	0	0	0	0	0	0	0	0	0	0	0		1	0	0	0	0	0	0	0
020713	11:06:47	1	Trial2BackEng	N	3	0	1000	1	68	11:06:47	847761	0	0	0	0	0	0	0	0	0	0	0	0	0	0	0	0	0	0	0	0	0	0		1	0	0	0	0	0	0	0
020713	11:06:47	1	Trial2BackEng	N	3	0	1000	1	69	11:06:47	849277	0	0	0	0	0	0	0	0	0	0	0	0	0	0	0	0	0	0	0	0	0	0		1	0	0	0	0	0	0	0
020713	11:06:47	1	Trial2BackEng	N	3	0	1000	1	70	11:06:47	850793	0	0	0	0	0	0	0	0	0	0	0	0	0	0	0	0	0	0	0	0	0	0		1	0	0	0	0	0	0	0
020713	11:06:47	1	Trial2BackEng	Y	3	0	1000	0	70	11:06:47	852310	0	0	0	0	0	0	0	0	0	0	0	0	0	0	0	0	0	0	0	0	0	0		1	0	0	0	0	0	0	0
020713	11:06:47	1	Trial2BackEng	N	3	0	1000	1	71	11:06:47	853826	0	0	0	0	0	0	0	0	0	0	0	0	0	0	0	0	0	0	0	0	0	0		1	0	0	0	0	0	0	0
020713	11:06:47	1	Trial2BackEng	N	3	0	1000	1	72	11:06:47	855342	0	0	0	0	0	0	0	0	0	0	0	0	0	0	0	0	0	0	0	0	0	0		1	0	0	0	0	0	0	0
020713	11:06:47	1	Trial2BackEng	N	3	0	1000	1	73	11:06:47	856858	0	0	0	0	0	0	0	0	0	0	0	0	0	0	0	0	0	0	0	0	0	0		1	0	0	0	0	0	0	0
020713	11:06:47	1	Trial2BackEng	N	3	0	1000	1	74	11:06:47	858374	0	0	0	0	0	0	0	0	0	0	0	0	0	0	0	0	0	0	0	0	0	0		1	0	0	0	0	0	0	0
020713	11:06:47	1	Trial2BackEng	N	3	0	1000	1	75	11:06:47	859890	0	0	0	0	0	0	0	0	0	0	0	0	0	0	0	0	0	0	0	0	0	0		1	0	0	0	0	0	0	0
020713	11:06:47	1	Trial2BackEng	N	3	0	1000	1	76	11:06:47	861406	0	0	0	0	0	0	0	0	0	0	0	0	0	0	0	0	0	0	0	0	0	0		1	0	0	0	0	0	0	0
020713	11:06:47	1	Trial2BackEng	N	3	0	1000	1	77	11:06:47	862922	0	0	0	0	0	0	0	0	0	0	0	0	0	0	0	0	0	0	0	0	0	0		1	0	0	0	0	0	0	0
020713	11:06:47	1	Trial2BackEng	N	3	0	1000	1	78	11:06:47	864438	0	0	0	0	0	0	0	0	0	0	0	0	0	0	0	0	0	0	0	0	0	0		1	0	0	0	0	0	0	0
020713	11:06:47	1	Trial2BackEng	N	3	0	1000	1	79	11:06:47	865954	0	0	0	0	0	0	0	0	0	0	0	0	0	0	0	0	0	0	0	0	0	0		1	0	0	0	0	0	0	0
020713	11:06:47	1	Trial2BackEng	Y	3	0	1000	0	79	11:06:47	867471	0	0	0	0	0	0	0	0	0	0	0	0	0	0	0	0	0	0	0	0	0	0		1	0	0	0	0	0	0	0
020713	11:06:47	1	Trial2BackEng	N	3	0	1000	1	80	11:06:47	868987	0	0	0	0	0	0	0	0	0	0	0	0	0	0	0	0	0	0	0	0	0	0		1	0	0	0	0	0	0	0
020713	11:06:47	1	Trial2BackEng	N	3	0	1000	1	81	11:06:47	870503	0	0	0	0	0	0	0	0	0	0	0	0	0	0	0	0	0	0	0	0	0	0		1	0	0	0	0	0	0	0
020713	11:06:47	1	Trial2BackEng	N	3	0	1000	1	82	11:06:47	872019	0	0	0	0	0	0	0	0	0	0	0	0	0	0	0	0	0	0	0	0	0	0		1	0	0	0	0	0	0	0
020713	11:06:47	1	Trial2BackEng	N	3	0	1000	1	83	11:06:47	873535	0	0	0	0	0	0	0	0	0	0	0	0	0	0	0	0	0	0	0	0	0	0		1	0	0	0	0	0	0	0
020713	11:06:47	1	Trial2BackEng	N	3	0	1000	1	84	11:06:47	875051	0	0	0	0	0	0	0	0	0	0	0	0	0	0	0	0	0	0	0	0	0	0		1	0	0	0	0	0	0	0
020713	11:06:47	1	Trial2BackEng	N	3	0	1000	1	85	11:06:47	876567	0	0	0	0	0	0	0	0	0	0	0	0	0	0	0	0	0	0	0	0	0	0		1	0	0	0	0	0	0	0
020713	11:06:47	1	Trial2BackEng	N	3	0	1000	1	86	11:06:47	878083	0	0	0	0	0	0	0	0	0	0	0	0	0	0	0	0	0	0	0	0	0	0		1	0	0	0	0	0	0	0
020713	11:06:47	1	Trial2BackEng	N	3	0	1000	1	87	11:06:47	879599	0	0	0	0	0	0	0	0	0	0	0	0	0	0	0	0	0	0	0	0	0	0		1	0	0	0	0	0	0	0
020713	11:06:47	1	Trial2BackEng	Y	3	0	1000	0	87	11:06:47	881115	0	0	0	0	0	0	0	0	0	0	0	0	0	0	0	0	0	0	0	0	0	0		1	0	0	0	0	0	0	0
020713	11:06:47	1	Trial2BackEng	N	3	0	1000	1	88	11:06:47	882632	0	0	0	0	0	0	0	0	0	0	0	0	0	0	0	0	0	0	0	0	0	0		1	0	0	0	0	0	0	0
020713	11:06:47	1	Trial2BackEng	N	3	0	1000	1	89	11:06:47	884148	0	0	0	0	0	0	0	0	0	0	0	0	0	0	0	0	0	0	0	0	0	0		1	0	0	0	0	0	0	0
020713	11:06:47	1	Trial2BackEng	N	3	0	1000	1	90	11:06:47	885664	0	0	0	0	0	0	0	0	0	0	0	0	0	0	0	0	0	0	0	0	0	0		1	0	0	0	0	0	0	0
020713	11:06:47	1	Trial2BackEng	N	3	0	1000	1	91	11:06:47	887180	0	0	0	0	0	0	0	0	0	0	0	0	0	0	0	0	0	0	0	0	0	0		1	0	0	0	0	0	0	0
020713	11:06:47	1	Trial2BackEng	Y	3	0	1000	0	91	11:06:47	888696	0	0	0	0	0	0	0	0	0	0	0	0	0	0	0	0	0	0	0	0	0	0		1	0	0	0	0	0	0	0
020713	11:06:47	1	Trial2BackEng	N	3	0	1000	1	92	11:06:47	890212	0	0	0	0	0	0	0	0	0	0	0	0	0	0	0	0	0	0	0	0	0	0		1	0	0	0	0	0	0	0
020713	11:06:47	1	Trial2BackEng	N	3	0	1000	1	93	11:06:47	891728	0	0	0	0	0	0	0	0	0	0	0	0	0	0	0	0	0	0	0	0	0	0		1	0	0	0	0	0	0	0
020713	11:06:47	1	Trial2BackEng	N	3	0	1000	1	94	11:06:47	893244	0	0	0	0	0	0	0	0	0	0	0	0	0	0	0	0	0	0	0	0	0	0		1	0	0	0	0	0	0	0
020713	11:06:47	1	Trial2BackEng	Y	3	0	1000	0	94	11:06:47	894760	0	0	0	0	0	0	0	0	0	0	0	0	0	0	0	0	0	0	0	0	0	0		1	0	0	0	0	0	0	0
020713	11:06:47	1	Trial2BackEng	N	3	0	1000	1	95	11:06:47	896276	0	0	0	0	0	0	0	0	0	0	0	0	0	0	0	0	0	0	0	0	0	0		1	0	0	0	0	0	0	0
020713	11:06:47	1	Trial2BackEng	N	3	0	1000	1	96	11:06:47	897793	0	0	0	0	0	0	0	0	0	0	0	0	0	0	0	0	0	0	0	0	0	0		1	0	0	0	0	0	0	0
020713	11:06:47	1	Trial2BackEng	N	3	0	1000	1	97	11:06:47	899309	0	0	0	0	0	0	0	0	0	0	0	0	0	0	0	0	0	0	0	0	0	0		1	0	0	0	0	0	0	0
020713	11:06:47	1	Trial2BackEng	N	3	0	1000	1	98	11:06:47	900825	0	0	0	0	0	0	0	0	0	0	0	0	0	0	0	0	0	0	0	0	0	0		1	0	0	0	0	0	0	0
020713	11:06:47	1	Trial2BackEng	N	3	0	1000	1	99	11:06:47	902341	0	0	0	0	0	0	0	0	0	0	0	0	0	0	0	0	0	0	0	0	0	0		1	0	0	0	0	0	0	0
020713	11:06:47	1	Trial2BackEng	Y	3	0	1000	0	99	11:06:47	903857	0	0	0	0	0	0	0	0	0	0	0	0	0	0	0	0	0	0	0	0	0	0		1	0	0	0	0	0	0	0
020713	11:06:47	1	Trial2BackEng	N	3	0	1000	1	100	11:06:47	905373	0	0	0	0	0	0	0	0	0	0	0	0	0	0	0	0	0	0	0	0	0	0		1	0	0	0	0	0	0	0
020713	11:06:47	1	Trial2BackEng	N	3	0	1000	1	101	11:06:47	906889	0	0	0	0	0	0	0	0	0	0	0	0	0	0	0	0	0	0	0	0	0	0		1	0	0	0	0	0	0	0
020713	11:06:47	1	Trial2BackEng	N	3	0	1000	1	102	11:06:47	908405	0	0	0	0	0	0	0	0	0	0	0	0	0	0	0	0	0	0	0	0	0	0		1	0	0	0	0	0	0	0
020713	11:06:47	1	Trial2BackEng	Y	3	0	1000	0	102	11:06:47	909921	0	0	0	0	0	0	0	0	0	0	0	0	0	0	0	0	0	0	0	0	0	0		1	0	0	0	0	0	0	0
020713	11:06:47	1	Memory1R6mo	Score	5	Done	4137	0	102	11:06:47	940077	0	0	0	0	0	0	0	0	0	0	0	0	0	0	0	0	0	0	0	0	0	0		1	0	0	0	0	0	0	0
020713	11:06:47	1	Memory2R6mo	Score2	5	Done	7609	0	102	11:06:47	975880	0	0	0	0	0	0	0	0	0	0	0	0	0	0	0	0	0	0	0	0	0	0		1	0	0	0	0	0	0	0
020713	11:06:47	1	Memory3R6mo	Score3	5	Done	15987	0	102	11:06:47	1025312	0	0	0	0	0	0	0	0	0	0	0	0	0	0	0	0	0	0	0	0	0	0		1	0	0	0	0	0	0	0
020713	11:06:47	1	LoriaEngLH3	Stop	6		4084	0	102	11:06:47	1109364	0	0	0	0	0	0	0	0	0	0	0	0	0	0	0	0	0	0	0	0	0	0		1	0	0	0	0	0	0	0
020713	11:06:47	1	EngTrail	Trails	7	1Trails	1406	0	102	11:06:47	1113262	0	0	0	0	0	0	0	0	0	0	0	0	0	0	0	0	0	0	0	0	0	0		1	0	0	0	0	0	0	0
020713	11:06:47	1	Serial7Eng6mo	Serial7Eng6mo	8		1157	0	102	11:06:47	1117361	0	0	0	0	0	0	0	0	0	0	0	0	0	0	0	0	0	0	0	0	0	0		1	0	0	0	0	0	0	0
020713	11:06:47	1	Serial7Eng6mo	Serial7Eng6mo	8		751	0	102	11:06:47	1118144	0	0	0	0	0	0	0	0	0	0	0	0	0	0	0	0	0	0	0	0	0	0		1	0	0	0	0	0	0	0
020713	11:06:47	1	Serial7Eng6mo	Serial7Eng6mo	8		464	0	102	11:06:47	1118628	0	0	0	0	0	0	0	0	0	0	0	0	0	0	0	0	0	0	0	0	0	0		1	0	0	0	0	0	0	0
020713	11:06:47	1	Serial7Eng6mo	Serial7Eng6mo	8		163	0	102	11:06:47	1118810	0	0	0	0	0	0	0	0	0	0	0	0	0	0	0	0	0	0	0	0	0	0		1	0	0	0	0	0	0	0
020713	11:06:47	1	Serial7Eng6mo	Serial7Eng6mo	8		136	0	102	11:06:47	1118977	0	0	0	0	0	0	0	0	0	0	0	0	0	0	0	0	0	0	0	0	0	0		1	0	0	0	0	0	0	0
020713	11:06:47	1	corsiblockEngFwrd	recallseqEngFwrd	9	doneCorsiEng	42797	0	102	11:06:47	1167692	0	0	0	0	0	0	0	0	0	0	0	0	0	0	0	0	0	0	0	0	0	0		1	0	0	0	0	0	0	0
020713	11:06:47	1	corsiblockEngFwrd	recallseqEngFwrd	9	doneCorsiEng	8044	0	102	11:06:47	1180904	0	0	0	0	0	0	0	0	0	0	0	0	0	0	0	0	0	0	0	0	0	0		1	0	0	0	0	0	0	0
020713	11:06:47	1	corsiblockEngRev	recallseqEngRev	10	doneCorsiEng	107757	0	102	11:06:47	1296294	0	0	0	0	0	0	0	0	0	0	0	0	0	0	0	0	0	0	0	0	0	0		1	0	0	0	0	0	0	0
020713	11:06:47	1	corsiblockEngRev	recallseqEngRev	10	doneCorsiEng	1250	0	102	11:06:47	1302742	0	0	0	0	0	0	0	0	0	0	0	0	0	0	0	0	0	0	0	0	0	0		1	0	0	0	0	0	0	0
020713	11:06:47	1	testEng6mo	WordsEng6mo	11	8Eng6mo	2624	0	102	11:06:47	1307956	0	0	0	0	0	0	0	0	3	0	0	0	0	0	0	0	0	0	0	0	0	0		1	0	0	0	0	0	0	0
020713	11:06:47	1	testEng6mo	WordsEng6mo	11	7Eng6mo	597	0	102	11:06:47	1308656	0	0	0	0	0	0	0	3	3	0	0	0	0	0	0	0	0	0	0	0	0	0		1	0	0	0	0	0	0	0
020713	11:06:47	1	testEng6mo	WordsEng6mo	11	6Eng6mo	462	0	102	11:06:47	1309207	0	0	0	0	0	0	3	3	3	0	0	0	0	0	0	0	0	0	0	0	0	0		1	0	0	0	0	0	0	0
020713	11:06:47	1	testEng6mo	WordsEng6mo	11	5Eng6mo	395	0	102	11:06:47	1309691	0	0	0	0	0	3	3	3	3	0	0	0	0	0	0	0	0	0	0	0	0	0		1	0	0	0	0	0	0	0
020713	11:06:47	1	testEng6mo	WordsEng6mo	11	4Eng6mo	467	0	102	11:06:47	1310272	0	0	0	0	3	3	3	3	3	0	0	0	0	0	0	0	0	0	0	0	0	0		1	0	0	0	0	0	0	0
020713	11:06:47	1	testEng6mo	WordsEng6mo	11	3Eng6mo	355	0	102	11:06:47	1310723	0	0	0	3	3	3	3	3	3	0	0	0	0	0	0	0	0	0	0	0	0	0		1	0	0	0	0	0	0	0
020713	11:06:47	1	testEng6mo	WordsEng6mo	11	2Eng6mo	532	0	102	11:06:47	1311355	0	0	3	3	3	3	3	3	3	0	0	0	0	0	0	0	0	0	0	0	0	0		1	0	0	0	0	0	0	0
020713	11:06:47	1	testEng6mo	WordsEng6mo	11	1Eng6mo	244	0	102	11:06:47	1311688	0	3	3	3	3	3	3	3	3	0	0	0	0	0	0	0	0	0	0	0	0	0		1	0	0	0	0	0	0	0
020713	11:06:47	1	testEng6mo	WordsEng6mo	11	DoneEng6mo	958	0	102	11:06:47	1312738	0	3	3	3	3	3	3	3	3	0	0	0	0	0	0	0	0	0	0	0	0	0		1	0	0	0	0	0	0	0
020713	11:06:47	1	DigitSpanFwrdEng6mo	Score1FwrdEng6mo	12	DS2	140382	0	102	11:06:47	1459949	0	3	3	3	3	3	3	3	3	0	0	0	0	0	0	0	0	0	0	0	0	0		1	0	0	0	0	0	0	0
020713	11:06:47	1	DigitSpanFwrdEng6mo	Gate1FwrdEng6mo	12	0	1	0	102	11:06:47	1459954	0	3	3	3	3	3	3	3	3	0	0	0	0	0	0	0	0	0	0	0	0	0		1	0	0	0	0	0	0	0
020713	11:06:47	1	DigitSpanFwrdEng6mo	Score11FwrdEng6mo	12	DS2	3446	0	102	11:06:47	1467163	0	3	3	3	3	3	3	3	3	0	0	0	0	0	0	0	0	0	0	0	0	0		1	0	0	0	0	0	0	0
020713	11:06:47	1	DigitSpanEng6mo	Score1Eng6mo	13	DS2	3048	0	102	11:06:47	1474927	0	3	3	3	3	3	3	3	3	0	0	0	0	0	0	0	0	0	0	0	0	0		1	0	0	0	0	0	0	0
020713	11:06:47	1	DigitSpanEng6mo	Gate1Eng6mo	13	0	1	0	102	11:06:47	1474933	0	3	3	3	3	3	3	3	3	0	0	0	0	0	0	0	0	0	0	0	0	0		1	0	0	0	0	0	0	0
020713	11:06:47	1	DigitSpanEng6mo	Score11Eng6mo	13	DS2	2897	0	102	11:06:47	1480276	0	3	3	3	3	3	3	3	3	0	0	0	0	0	0	0	0	0	0	0	0	0		1	0	0	0	0	0	0	0
020713	11:06:47	1	Trial	ResponseIL	14	0	175	0	102	11:06:47	1513129	0	3	3	3	3	3	3	3	3	0	0	0	0	0	0	0	0	0	0	0	0	0		1	0	0	0	0	0	0	0
020713	11:06:47	1	Trial	IncongruentLeft	14	0	1000	0	102	11:06:47	1514179	0	3	3	3	3	3	3	3	3	0	0	0	0	0	0	0	0	0	0	0	0	0		1	0	0	0	0	0	0	0
020713	11:06:47	1	Trial	ResponseCR	14	0	175	0	102	11:06:47	1514945	0	3	3	3	3	3	3	3	3	0	0	0	0	0	0	0	0	0	0	0	0	0		1	0	0	0	0	0	0	0
020713	11:06:47	1	Trial	CongruentRight	14	0	1000	0	102	11:06:47	1515995	0	3	3	3	3	3	3	3	3	0	0	0	0	0	0	0	0	0	0	0	0	0		1	0	0	0	0	0	0	0
020713	11:06:47	1	Trial	ResponseIR	14	0	175	0	102	11:06:47	1516761	0	3	3	3	3	3	3	3	3	0	0	0	0	0	0	0	0	0	0	0	0	0		1	0	0	0	0	0	0	0
020713	11:06:47	1	Trial	IncongruentRight	14	0	1000	0	102	11:06:47	1517811	0	3	3	3	3	3	3	3	3	0	0	0	0	0	0	0	0	0	0	0	0	0		1	0	0	0	0	0	0	0
020713	11:06:47	1	Trial	ResponseCL	14	0	175	0	102	11:06:47	1518577	0	3	3	3	3	3	3	3	3	0	0	0	0	0	0	0	0	0	0	0	0	0		1	0	0	0	0	0	0	0
020713	11:06:47	1	Trial	CongruentLeft	14	0	1000	0	102	11:06:47	1519627	0	3	3	3	3	3	3	3	3	0	0	0	0	0	0	0	0	0	0	0	0	0		1	0	0	0	0	0	0	0
020713	11:06:47	1	Trial	ResponseCR	14	0	175	0	102	11:06:47	1520394	0	3	3	3	3	3	3	3	3	0	0	0	0	0	0	0	0	0	0	0	0	0		1	0	0	0	0	0	0	0
020713	11:06:47	1	Trial	CongruentRight	14	0	1000	0	102	11:06:47	1521443	0	3	3	3	3	3	3	3	3	0	0	0	0	0	0	0	0	0	0	0	0	0		1	0	0	0	0	0	0	0
020713	11:06:47	1	Trial	ResponseIR	14	0	175	0	102	11:06:47	1522209	0	3	3	3	3	3	3	3	3	0	0	0	0	0	0	0	0	0	0	0	0	0		1	0	0	0	0	0	0	0
020713	11:06:47	1	Trial	IncongruentRight	14	0	1000	0	102	11:06:47	1523259	0	3	3	3	3	3	3	3	3	0	0	0	0	0	0	0	0	0	0	0	0	0		1	0	0	0	0	0	0	0
020713	11:06:47	1	Trial	ResponseCL	14	0	175	0	102	11:06:47	1524025	0	3	3	3	3	3	3	3	3	0	0	0	0	0	0	0	0	0	0	0	0	0		1	0	0	0	0	0	0	0
020713	11:06:47	1	Trial	CongruentLeft	14	0	1000	0	102	11:06:47	1525075	0	3	3	3	3	3	3	3	3	0	0	0	0	0	0	0	0	0	0	0	0	0		1	0	0	0	0	0	0	0
020713	11:06:47	1	Trial	ResponseIL	14	0	175	0	102	11:06:47	1525841	0	3	3	3	3	3	3	3	3	0	0	0	0	0	0	0	0	0	0	0	0	0		1	0	0	0	0	0	0	0
020713	11:06:47	1	Trial	IncongruentLeft	14	0	1000	0	102	11:06:47	1526891	0	3	3	3	3	3	3	3	3	0	0	0	0	0	0	0	0	0	0	0	0	0		1	0	0	0	0	0	0	0
020713	11:06:47	1	Trial	ResponseIL	14	0	175	0	102	11:06:47	1527657	0	3	3	3	3	3	3	3	3	0	0	0	0	0	0	0	0	0	0	0	0	0		1	0	0	0	0	0	0	0
020713	11:06:47	1	Trial	IncongruentLeft	14	0	1000	0	102	11:06:47	1528707	0	3	3	3	3	3	3	3	3	0	0	0	0	0	0	0	0	0	0	0	0	0		1	0	0	0	0	0	0	0
020713	11:06:47	1	Trial	ResponseCR	14	0	175	0	102	11:06:47	1529473	0	3	3	3	3	3	3	3	3	0	0	0	0	0	0	0	0	0	0	0	0	0		1	0	0	0	0	0	0	0
020713	11:06:47	1	Trial	CongruentRight	14	0	1000	0	102	11:06:47	1530523	0	3	3	3	3	3	3	3	3	0	0	0	0	0	0	0	0	0	0	0	0	0		1	0	0	0	0	0	0	0
020713	11:06:47	1	Trial	ResponseIR	14	0	175	0	102	11:06:47	1531289	0	3	3	3	3	3	3	3	3	0	0	0	0	0	0	0	0	0	0	0	0	0		1	0	0	0	0	0	0	0
020713	11:06:47	1	Trial	IncongruentRight	14	0	1000	0	102	11:06:47	1532339	0	3	3	3	3	3	3	3	3	0	0	0	0	0	0	0	0	0	0	0	0	0		1	0	0	0	0	0	0	0
020713	11:06:47	1	Trial	ResponseCL	14	0	175	0	102	11:06:47	1533105	0	3	3	3	3	3	3	3	3	0	0	0	0	0	0	0	0	0	0	0	0	0		1	0	0	0	0	0	0	0
020713	11:06:47	1	Trial	CongruentLeft	14	0	1000	0	102	11:06:47	1534155	0	3	3	3	3	3	3	3	3	0	0	0	0	0	0	0	0	0	0	0	0	0		1	0	0	0	0	0	0	0
020713	11:06:47	1	Trial	ResponseCR	14	0	175	0	102	11:06:47	1534921	0	3	3	3	3	3	3	3	3	0	0	0	0	0	0	0	0	0	0	0	0	0		1	0	0	0	0	0	0	0
020713	11:06:47	1	Trial	CongruentRight	14	0	1000	0	102	11:06:47	1535971	0	3	3	3	3	3	3	3	3	0	0	0	0	0	0	0	0	0	0	0	0	0		1	0	0	0	0	0	0	0
020713	11:06:47	1	Trial	ResponseIL	14	0	175	0	102	11:06:47	1536737	0	3	3	3	3	3	3	3	3	0	0	0	0	0	0	0	0	0	0	0	0	0		1	0	0	0	0	0	0	0
020713	11:06:47	1	Trial	IncongruentLeft	14	0	1000	0	102	11:06:47	1537787	0	3	3	3	3	3	3	3	3	0	0	0	0	0	0	0	0	0	0	0	0	0		1	0	0	0	0	0	0	0
020713	11:06:47	1	Trial	ResponseIR	14	0	175	0	102	11:06:47	1538553	0	3	3	3	3	3	3	3	3	0	0	0	0	0	0	0	0	0	0	0	0	0		1	0	0	0	0	0	0	0
020713	11:06:47	1	Trial	IncongruentRight	14	0	1000	0	102	11:06:47	1539603	0	3	3	3	3	3	3	3	3	0	0	0	0	0	0	0	0	0	0	0	0	0		1	0	0	0	0	0	0	0
020713	11:06:47	1	Trial	ResponseCR	14	0	175	0	102	11:06:47	1540369	0	3	3	3	3	3	3	3	3	0	0	0	0	0	0	0	0	0	0	0	0	0		1	0	0	0	0	0	0	0
020713	11:06:47	1	Trial	CongruentRight	14	0	1000	0	102	11:06:47	1541419	0	3	3	3	3	3	3	3	3	0	0	0	0	0	0	0	0	0	0	0	0	0		1	0	0	0	0	0	0	0
020713	11:06:47	1	Trial	ResponseCL	14	0	175	0	102	11:06:47	1542185	0	3	3	3	3	3	3	3	3	0	0	0	0	0	0	0	0	0	0	0	0	0		1	0	0	0	0	0	0	0
020713	11:06:47	1	Trial	CongruentLeft	14	0	1000	0	102	11:06:47	1543235	0	3	3	3	3	3	3	3	3	0	0	0	0	0	0	0	0	0	0	0	0	0		1	0	0	0	0	0	0	0
020713	11:06:47	1	Trial	ResponseCR	14	0	175	0	102	11:06:47	1544001	0	3	3	3	3	3	3	3	3	0	0	0	0	0	0	0	0	0	0	0	0	0		1	0	0	0	0	0	0	0
020713	11:06:47	1	Trial	CongruentRight	14	0	1000	0	102	11:06:47	1545051	0	3	3	3	3	3	3	3	3	0	0	0	0	0	0	0	0	0	0	0	0	0		1	0	0	0	0	0	0	0
020713	11:06:47	1	Trial	ResponseIR	14	0	175	0	102	11:06:47	1545817	0	3	3	3	3	3	3	3	3	0	0	0	0	0	0	0	0	0	0	0	0	0		1	0	0	0	0	0	0	0
020713	11:06:47	1	Trial	IncongruentRight	14	0	1000	0	102	11:06:47	1546867	0	3	3	3	3	3	3	3	3	0	0	0	0	0	0	0	0	0	0	0	0	0		1	0	0	0	0	0	0	0
020713	11:06:47	1	Trial	ResponseIL	14	0	175	0	102	11:06:47	1547633	0	3	3	3	3	3	3	3	3	0	0	0	0	0	0	0	0	0	0	0	0	0		1	0	0	0	0	0	0	0
020713	11:06:47	1	Trial	IncongruentLeft	14	0	1000	0	102	11:06:47	1548683	0	3	3	3	3	3	3	3	3	0	0	0	0	0	0	0	0	0	0	0	0	0		1	0	0	0	0	0	0	0
020713	11:06:47	1	Trial	ResponseIL	14	0	175	0	102	11:06:47	1549449	0	3	3	3	3	3	3	3	3	0	0	0	0	0	0	0	0	0	0	0	0	0		1	0	0	0	0	0	0	0
020713	11:06:47	1	Trial	IncongruentLeft	14	0	1000	0	102	11:06:47	1550499	0	3	3	3	3	3	3	3	3	0	0	0	0	0	0	0	0	0	0	0	0	0		1	0	0	0	0	0	0	0
020713	11:06:47	1	Trial	ResponseCL	14	0	175	0	102	11:06:47	1551265	0	3	3	3	3	3	3	3	3	0	0	0	0	0	0	0	0	0	0	0	0	0		1	0	0	0	0	0	0	0
020713	11:06:47	1	Trial	CongruentLeft	14	0	1000	0	102	11:06:47	1552315	0	3	3	3	3	3	3	3	3	0	0	0	0	0	0	0	0	0	0	0	0	0		1	0	0	0	0	0	0	0
020713	11:06:47	1	Trial	ResponseCR	14	0	175	0	102	11:06:47	1553081	0	3	3	3	3	3	3	3	3	0	0	0	0	0	0	0	0	0	0	0	0	0		1	0	0	0	0	0	0	0
020713	11:06:47	1	Trial	CongruentRight	14	0	1000	0	102	11:06:47	1554131	0	3	3	3	3	3	3	3	3	0	0	0	0	0	0	0	0	0	0	0	0	0		1	0	0	0	0	0	0	0
020713	11:06:47	1	Trial	ResponseIL	14	0	175	0	102	11:06:47	1554897	0	3	3	3	3	3	3	3	3	0	0	0	0	0	0	0	0	0	0	0	0	0		1	0	0	0	0	0	0	0
020713	11:06:47	1	Trial	IncongruentLeft	14	0	1000	0	102	11:06:47	1555947	0	3	3	3	3	3	3	3	3	0	0	0	0	0	0	0	0	0	0	0	0	0		1	0	0	0	0	0	0	0
020713	11:06:47	1	Trial	ResponseIR	14	0	175	0	102	11:06:47	1556713	0	3	3	3	3	3	3	3	3	0	0	0	0	0	0	0	0	0	0	0	0	0		1	0	0	0	0	0	0	0
020713	11:06:47	1	Trial	IncongruentRight	14	0	1000	0	102	11:06:47	1557763	0	3	3	3	3	3	3	3	3	0	0	0	0	0	0	0	0	0	0	0	0	0		1	0	0	0	0	0	0	0
020713	11:06:47	1	Trial	ResponseCR	14	0	175	0	102	11:06:47	1558529	0	3	3	3	3	3	3	3	3	0	0	0	0	0	0	0	0	0	0	0	0	0		1	0	0	0	0	0	0	0
020713	11:06:47	1	Trial	CongruentRight	14	0	1000	0	102	11:06:47	1559579	0	3	3	3	3	3	3	3	3	0	0	0	0	0	0	0	0	0	0	0	0	0		1	0	0	0	0	0	0	0
020713	11:06:47	1	Trial	ResponseCL	14	0	175	0	102	11:06:47	1560346	0	3	3	3	3	3	3	3	3	0	0	0	0	0	0	0	0	0	0	0	0	0		1	0	0	0	0	0	0	0
020713	11:06:47	1	Trial	CongruentLeft	14	0	1000	0	102	11:06:47	1561429	0	3	3	3	3	3	3	3	3	0	0	0	0	0	0	0	0	0	0	0	0	0		1	0	0	0	0	0	0	0
020713	11:06:47	1	Trial	ResponseIR	14	0	175	0	102	11:06:47	1562229	0	3	3	3	3	3	3	3	3	0	0	0	0	0	0	0	0	0	0	0	0	0		1	0	0	0	0	0	0	0
020713	11:06:47	1	Trial	IncongruentRight	14	0	1000	0	102	11:06:47	1563277	0	3	3	3	3	3	3	3	3	0	0	0	0	0	0	0	0	0	0	0	0	0		1	0	0	0	0	0	0	0
020713	11:06:47	1	Trial	ResponseIL	14	0	175	0	102	11:06:47	1564044	0	3	3	3	3	3	3	3	3	0	0	0	0	0	0	0	0	0	0	0	0	0		1	0	0	0	0	0	0	0
020713	11:06:47	1	Trial	IncongruentLeft	14	0	1000	0	102	11:06:47	1565093	0	3	3	3	3	3	3	3	3	0	0	0	0	0	0	0	0	0	0	0	0	0		1	0	0	0	0	0	0	0
020713	11:06:47	1	Trial	ResponseIR	14	0	175	0	102	11:06:47	1565860	0	3	3	3	3	3	3	3	3	0	0	0	0	0	0	0	0	0	0	0	0	0		1	0	0	0	0	0	0	0
020713	11:06:47	1	Trial	IncongruentRight	14	0	1000	0	102	11:06:47	1566909	0	3	3	3	3	3	3	3	3	0	0	0	0	0	0	0	0	0	0	0	0	0		1	0	0	0	0	0	0	0
020713	11:06:47	1	Trial	ResponseCR	14	0	175	0	102	11:06:47	1567676	0	3	3	3	3	3	3	3	3	0	0	0	0	0	0	0	0	0	0	0	0	0		1	0	0	0	0	0	0	0
020713	11:06:47	1	Trial	CongruentRight	14	0	1000	0	102	11:06:47	1568725	0	3	3	3	3	3	3	3	3	0	0	0	0	0	0	0	0	0	0	0	0	0		1	0	0	0	0	0	0	0
020713	11:06:47	1	Trial	ResponseIL	14	0	175	0	102	11:06:47	1569492	0	3	3	3	3	3	3	3	3	0	0	0	0	0	0	0	0	0	0	0	0	0		1	0	0	0	0	0	0	0
020713	11:06:47	1	Trial	IncongruentLeft	14	0	1000	0	102	11:06:47	1570541	0	3	3	3	3	3	3	3	3	0	0	0	0	0	0	0	0	0	0	0	0	0		1	0	0	0	0	0	0	0
020713	11:06:47	1	Trial	ResponseCL	14	0	175	0	102	11:06:47	1571308	0	3	3	3	3	3	3	3	3	0	0	0	0	0	0	0	0	0	0	0	0	0		1	0	0	0	0	0	0	0
020713	11:06:47	1	Trial	CongruentLeft	14	0	1000	0	102	11:06:47	1572357	0	3	3	3	3	3	3	3	3	0	0	0	0	0	0	0	0	0	0	0	0	0		1	0	0	0	0	0	0	0
020713	11:06:47	1	Trial	ResponseCR	14	0	175	0	102	11:06:47	1573124	0	3	3	3	3	3	3	3	3	0	0	0	0	0	0	0	0	0	0	0	0	0		1	0	0	0	0	0	0	0
020713	11:06:47	1	Trial	CongruentRight	14	0	1000	0	102	11:06:47	1574173	0	3	3	3	3	3	3	3	3	0	0	0	0	0	0	0	0	0	0	0	0	0		1	0	0	0	0	0	0	0
020713	11:06:47	1	Trial	ResponseIL	14	0	175	0	102	11:06:47	1574940	0	3	3	3	3	3	3	3	3	0	0	0	0	0	0	0	0	0	0	0	0	0		1	0	0	0	0	0	0	0
020713	11:06:47	1	Trial	IncongruentLeft	14	0	1000	0	102	11:06:47	1575989	0	3	3	3	3	3	3	3	3	0	0	0	0	0	0	0	0	0	0	0	0	0		1	0	0	0	0	0	0	0
020713	11:06:47	1	Trial	ResponseIR	14	0	175	0	102	11:06:47	1576756	0	3	3	3	3	3	3	3	3	0	0	0	0	0	0	0	0	0	0	0	0	0		1	0	0	0	0	0	0	0
020713	11:06:47	1	Trial	IncongruentRight	14	0	1000	0	102	11:06:47	1577805	0	3	3	3	3	3	3	3	3	0	0	0	0	0	0	0	0	0	0	0	0	0		1	0	0	0	0	0	0	0
020713	11:06:47	1	Trial	ResponseIR	14	0	175	0	102	11:06:47	1578572	0	3	3	3	3	3	3	3	3	0	0	0	0	0	0	0	0	0	0	0	0	0		1	0	0	0	0	0	0	0
020713	11:06:47	1	Trial	IncongruentRight	14	0	1000	0	102	11:06:47	1579621	0	3	3	3	3	3	3	3	3	0	0	0	0	0	0	0	0	0	0	0	0	0		1	0	0	0	0	0	0	0
020713	11:06:47	1	Trial	ResponseCL	14	0	175	0	102	11:06:47	1580388	0	3	3	3	3	3	3	3	3	0	0	0	0	0	0	0	0	0	0	0	0	0		1	0	0	0	0	0	0	0
020713	11:06:47	1	Trial	CongruentLeft	14	0	1000	0	102	11:06:47	1581437	0	3	3	3	3	3	3	3	3	0	0	0	0	0	0	0	0	0	0	0	0	0		1	0	0	0	0	0	0	0
020713	11:06:47	1	Trial	ResponseIL	14	0	175	0	102	11:06:47	1582204	0	3	3	3	3	3	3	3	3	0	0	0	0	0	0	0	0	0	0	0	0	0		1	0	0	0	0	0	0	0
020713	11:06:47	1	Trial	IncongruentLeft	14	0	1000	0	102	11:06:47	1583253	0	3	3	3	3	3	3	3	3	0	0	0	0	0	0	0	0	0	0	0	0	0		1	0	0	0	0	0	0	0
020713	11:06:47	1	Trial	ResponseCR	14	0	175	0	102	11:06:47	1584020	0	3	3	3	3	3	3	3	3	0	0	0	0	0	0	0	0	0	0	0	0	0		1	0	0	0	0	0	0	0
020713	11:06:47	1	Trial	CongruentRight	14	0	1000	0	102	11:06:47	1585069	0	3	3	3	3	3	3	3	3	0	0	0	0	0	0	0	0	0	0	0	0	0		1	0	0	0	0	0	0	0
020713	11:06:47	1	Trial	ResponseCL	14	0	175	0	102	11:06:47	1585835	0	3	3	3	3	3	3	3	3	0	0	0	0	0	0	0	0	0	0	0	0	0		1	0	0	0	0	0	0	0
020713	11:06:47	1	Trial	CongruentLeft	14	0	1000	0	102	11:06:47	1586885	0	3	3	3	3	3	3	3	3	0	0	0	0	0	0	0	0	0	0	0	0	0		1	0	0	0	0	0	0	0
020713	11:06:47	1	Trial	ResponseIR	14	0	175	0	102	11:06:47	1587651	0	3	3	3	3	3	3	3	3	0	0	0	0	0	0	0	0	0	0	0	0	0		1	0	0	0	0	0	0	0
020713	11:06:47	1	Trial	IncongruentRight	14	0	1000	0	102	11:06:47	1588701	0	3	3	3	3	3	3	3	3	0	0	0	0	0	0	0	0	0	0	0	0	0		1	0	0	0	0	0	0	0
020713	11:06:47	1	Trial	ResponseCR	14	0	175	0	102	11:06:47	1589484	0	3	3	3	3	3	3	3	3	0	0	0	0	0	0	0	0	0	0	0	0	0		1	0	0	0	0	0	0	0
020713	11:06:47	1	Trial	CongruentRight	14	0	1000	0	102	11:06:47	1590534	0	3	3	3	3	3	3	3	3	0	0	0	0	0	0	0	0	0	0	0	0	0		1	0	0	0	0	0	0	0
020713	11:06:47	1	Trial	ResponseIL	14	0	175	0	102	11:06:47	1591300	0	3	3	3	3	3	3	3	3	0	0	0	0	0	0	0	0	0	0	0	0	0		1	0	0	0	0	0	0	0
020713	11:06:47	1	Trial	IncongruentLeft	14	0	1000	0	102	11:06:47	1592350	0	3	3	3	3	3	3	3	3	0	0	0	0	0	0	0	0	0	0	0	0	0		1	0	0	0	0	0	0	0
020713	11:06:47	1	Trial	ResponseCL	14	0	175	0	102	11:06:47	1593116	0	3	3	3	3	3	3	3	3	0	0	0	0	0	0	0	0	0	0	0	0	0		1	0	0	0	0	0	0	0
020713	11:06:47	1	Trial	CongruentLeft	14	0	1000	0	102	11:06:47	1594166	0	3	3	3	3	3	3	3	3	0	0	0	0	0	0	0	0	0	0	0	0	0		1	0	0	0	0	0	0	0
020713	11:06:47	1	Trial	ResponseIL	14	0	175	0	102	11:06:47	1594932	0	3	3	3	3	3	3	3	3	0	0	0	0	0	0	0	0	0	0	0	0	0		1	0	0	0	0	0	0	0
020713	11:06:47	1	Trial	IncongruentLeft	14	0	1000	0	102	11:06:47	1595982	0	3	3	3	3	3	3	3	3	0	0	0	0	0	0	0	0	0	0	0	0	0		1	0	0	0	0	0	0	0
020713	11:06:47	1	Trial	ResponseIR	14	0	175	0	102	11:06:47	1596748	0	3	3	3	3	3	3	3	3	0	0	0	0	0	0	0	0	0	0	0	0	0		1	0	0	0	0	0	0	0
020713	11:06:47	1	Trial	IncongruentRight	14	0	1000	0	102	11:06:47	1597798	0	3	3	3	3	3	3	3	3	0	0	0	0	0	0	0	0	0	0	0	0	0		1	0	0	0	0	0	0	0
020713	11:06:47	1	Trial	ResponseCR	14	0	175	0	102	11:06:47	1598564	0	3	3	3	3	3	3	3	3	0	0	0	0	0	0	0	0	0	0	0	0	0		1	0	0	0	0	0	0	0
020713	11:06:47	1	Trial	CongruentRight	14	0	1000	0	102	11:06:47	1599614	0	3	3	3	3	3	3	3	3	0	0	0	0	0	0	0	0	0	0	0	0	0		1	0	0	0	0	0	0	0
020713	11:06:47	1	Trial	ResponseCL	14	0	175	0	102	11:06:47	1600380	0	3	3	3	3	3	3	3	3	0	0	0	0	0	0	0	0	0	0	0	0	0		1	0	0	0	0	0	0	0
020713	11:06:47	1	Trial	CongruentLeft	14	0	1000	0	102	11:06:47	1601430	0	3	3	3	3	3	3	3	3	0	0	0	0	0	0	0	0	0	0	0	0	0		1	0	0	0	0	0	0	0
020713	11:06:47	1	Trial	ResponseCL	14	0	175	0	102	11:06:47	1602196	0	3	3	3	3	3	3	3	3	0	0	0	0	0	0	0	0	0	0	0	0	0		1	0	0	0	0	0	0	0
020713	11:06:47	1	Trial	CongruentLeft	14	0	1000	0	102	11:06:47	1603246	0	3	3	3	3	3	3	3	3	0	0	0	0	0	0	0	0	0	0	0	0	0		1	0	0	0	0	0	0	0
020713	11:06:47	1	Trial	ResponseIR	14	0	175	0	102	11:06:47	1604012	0	3	3	3	3	3	3	3	3	0	0	0	0	0	0	0	0	0	0	0	0	0		1	0	0	0	0	0	0	0
020713	11:06:47	1	Trial	IncongruentRight	14	0	1000	0	102	11:06:47	1605062	0	3	3	3	3	3	3	3	3	0	0	0	0	0	0	0	0	0	0	0	0	0		1	0	0	0	0	0	0	0
020713	11:06:47	1	Trial	ResponseIL	14	0	175	0	102	11:06:47	1605912	0	3	3	3	3	3	3	3	3	0	0	0	0	0	0	0	0	0	0	0	0	0		1	0	0	0	0	0	0	0
020713	11:06:47	1	Trial	IncongruentLeft	14	0	1000	0	102	11:06:47	1606961	0	3	3	3	3	3	3	3	3	0	0	0	0	0	0	0	0	0	0	0	0	0		1	0	0	0	0	0	0	0
020713	11:06:47	1	Trial	ResponseIR	14	0	175	0	102	11:06:47	1607728	0	3	3	3	3	3	3	3	3	0	0	0	0	0	0	0	0	0	0	0	0	0		1	0	0	0	0	0	0	0
020713	11:06:47	1	Trial	IncongruentRight	14	0	1000	0	102	11:06:47	1608777	0	3	3	3	3	3	3	3	3	0	0	0	0	0	0	0	0	0	0	0	0	0		1	0	0	0	0	0	0	0
020713	11:06:47	1	Trial	ResponseCR	14	0	175	0	102	11:06:47	1609544	0	3	3	3	3	3	3	3	3	0	0	0	0	0	0	0	0	0	0	0	0	0		1	0	0	0	0	0	0	0
020713	11:06:47	1	Trial	CongruentRight	14	0	1000	0	102	11:06:47	1610593	0	3	3	3	3	3	3	3	3	0	0	0	0	0	0	0	0	0	0	0	0	0		1	0	0	0	0	0	0	0
020713	11:06:47	1	Trial	ResponseCR	14	0	175	0	102	11:06:47	1611359	0	3	3	3	3	3	3	3	3	0	0	0	0	0	0	0	0	0	0	0	0	0		1	0	0	0	0	0	0	0
020713	11:06:47	1	Trial	CongruentRight	14	0	1000	0	102	11:06:47	1612409	0	3	3	3	3	3	3	3	3	0	0	0	0	0	0	0	0	0	0	0	0	0		1	0	0	0	0	0	0	0
020713	11:06:47	1	Trial	ResponseIL	14	0	175	0	102	11:06:47	1613175	0	3	3	3	3	3	3	3	3	0	0	0	0	0	0	0	0	0	0	0	0	0		1	0	0	0	0	0	0	0
020713	11:06:47	1	Trial	IncongruentLeft	14	0	1000	0	102	11:06:47	1614225	0	3	3	3	3	3	3	3	3	0	0	0	0	0	0	0	0	0	0	0	0	0		1	0	0	0	0	0	0	0
020713	11:06:47	1	Trial	ResponseCL	14	0	175	0	102	11:06:47	1614991	0	3	3	3	3	3	3	3	3	0	0	0	0	0	0	0	0	0	0	0	0	0		1	0	0	0	0	0	0	0
020713	11:06:47	1	Trial	CongruentLeft	14	0	1000	0	102	11:06:47	1616041	0	3	3	3	3	3	3	3	3	0	0	0	0	0	0	0	0	0	0	0	0	0		1	0	0	0	0	0	0	0
020713	11:06:47	1	Trial	ResponseCR	14	0	175	0	102	11:06:47	1616807	0	3	3	3	3	3	3	3	3	0	0	0	0	0	0	0	0	0	0	0	0	0		1	0	0	0	0	0	0	0
020713	11:06:47	1	Trial	CongruentRight	14	0	1000	0	102	11:06:47	1617857	0	3	3	3	3	3	3	3	3	0	0	0	0	0	0	0	0	0	0	0	0	0		1	0	0	0	0	0	0	0
020713	11:06:47	1	Trial	ResponseCL	14	0	175	0	102	11:06:47	1618623	0	3	3	3	3	3	3	3	3	0	0	0	0	0	0	0	0	0	0	0	0	0		1	0	0	0	0	0	0	0
020713	11:06:47	1	Trial	CongruentLeft	14	0	1000	0	102	11:06:47	1619673	0	3	3	3	3	3	3	3	3	0	0	0	0	0	0	0	0	0	0	0	0	0		1	0	0	0	0	0	0	0
020713	11:06:47	1	Trial	ResponseIR	14	0	175	0	102	11:06:47	1620439	0	3	3	3	3	3	3	3	3	0	0	0	0	0	0	0	0	0	0	0	0	0		1	0	0	0	0	0	0	0
020713	11:06:47	1	Trial	IncongruentRight	14	0	1000	0	102	11:06:47	1621490	0	3	3	3	3	3	3	3	3	0	0	0	0	0	0	0	0	0	0	0	0	0		1	0	0	0	0	0	0	0
020713	11:06:47	1	Trial	ResponseCR	14	0	175	0	102	11:06:47	1622255	0	3	3	3	3	3	3	3	3	0	0	0	0	0	0	0	0	0	0	0	0	0		1	0	0	0	0	0	0	0
020713	11:06:47	1	Trial	CongruentRight	14	0	1000	0	102	11:06:47	1623305	0	3	3	3	3	3	3	3	3	0	0	0	0	0	0	0	0	0	0	0	0	0		1	0	0	0	0	0	0	0
020713	11:06:47	1	Trial	ResponseCL	14	0	175	0	102	11:06:47	1624071	0	3	3	3	3	3	3	3	3	0	0	0	0	0	0	0	0	0	0	0	0	0		1	0	0	0	0	0	0	0
020713	11:06:47	1	Trial	CongruentLeft	14	0	1000	0	102	11:06:47	1625121	0	3	3	3	3	3	3	3	3	0	0	0	0	0	0	0	0	0	0	0	0	0		1	0	0	0	0	0	0	0
020713	11:06:47	1	Trial	ResponseIL	14	0	175	0	102	11:06:47	1625888	0	3	3	3	3	3	3	3	3	0	0	0	0	0	0	0	0	0	0	0	0	0		1	0	0	0	0	0	0	0
020713	11:06:47	1	Trial	IncongruentLeft	14	0	1000	0	102	11:06:47	1626937	0	3	3	3	3	3	3	3	3	0	0	0	0	0	0	0	0	0	0	0	0	0		1	0	0	0	0	0	0	0
020713	11:06:47	1	Trial	ResponseIL	14	0	175	0	102	11:06:47	1627703	0	3	3	3	3	3	3	3	3	0	0	0	0	0	0	0	0	0	0	0	0	0		1	0	0	0	0	0	0	0
020713	11:06:47	1	Trial	IncongruentLeft	14	0	1000	0	102	11:06:47	1628753	0	3	3	3	3	3	3	3	3	0	0	0	0	0	0	0	0	0	0	0	0	0		1	0	0	0	0	0	0	0
020713	11:06:47	1	Trial	ResponseCR	14	0	175	0	102	11:06:47	1629519	0	3	3	3	3	3	3	3	3	0	0	0	0	0	0	0	0	0	0	0	0	0		1	0	0	0	0	0	0	0
020713	11:06:47	1	Trial	CongruentRight	14	0	1000	0	102	11:06:47	1630569	0	3	3	3	3	3	3	3	3	0	0	0	0	0	0	0	0	0	0	0	0	0		1	0	0	0	0	0	0	0
020713	11:06:47	1	Trial	ResponseIR	14	0	175	0	102	11:06:47	1631335	0	3	3	3	3	3	3	3	3	0	0	0	0	0	0	0	0	0	0	0	0	0		1	0	0	0	0	0	0	0
020713	11:06:47	1	Trial	IncongruentRight	14	0	1000	0	102	11:06:47	1632385	0	3	3	3	3	3	3	3	3	0	0	0	0	0	0	0	0	0	0	0	0	0		1	0	0	0	0	0	0	0
020713	11:06:47	1	Trial	ResponseCL	14	0	175	0	102	11:06:47	1633151	0	3	3	3	3	3	3	3	3	0	0	0	0	0	0	0	0	0	0	0	0	0		1	0	0	0	0	0	0	0
020713	11:06:47	1	Trial	CongruentLeft	14	0	1000	0	102	11:06:47	1634201	0	3	3	3	3	3	3	3	3	0	0	0	0	0	0	0	0	0	0	0	0	0		1	0	0	0	0	0	0	0
020713	11:06:47	1	Trial	ResponseIR	14	0	175	0	102	11:06:47	1634967	0	3	3	3	3	3	3	3	3	0	0	0	0	0	0	0	0	0	0	0	0	0		1	0	0	0	0	0	0	0
020713	11:06:47	1	Trial	IncongruentRight	14	0	1000	0	102	11:06:47	1636017	0	3	3	3	3	3	3	3	3	0	0	0	0	0	0	0	0	0	0	0	0	0		1	0	0	0	0	0	0	0
020713	11:06:47	1	Trial	ResponseCR	14	0	175	0	102	11:06:47	1636783	0	3	3	3	3	3	3	3	3	0	0	0	0	0	0	0	0	0	0	0	0	0		1	0	0	0	0	0	0	0
020713	11:06:47	1	Trial	CongruentRight	14	0	1000	0	102	11:06:47	1637833	0	3	3	3	3	3	3	3	3	0	0	0	0	0	0	0	0	0	0	0	0	0		1	0	0	0	0	0	0	0
020713	11:06:47	1	Trial	ResponseIL	14	0	175	0	102	11:06:47	1638599	0	3	3	3	3	3	3	3	3	0	0	0	0	0	0	0	0	0	0	0	0	0		1	0	0	0	0	0	0	0
020713	11:06:47	1	Trial	IncongruentLeft	14	0	1000	0	102	11:06:47	1639649	0	3	3	3	3	3	3	3	3	0	0	0	0	0	0	0	0	0	0	0	0	0		1	0	0	0	0	0	0	0
020713	11:06:47	1	Trial	ResponseCL	14	0	175	0	102	11:06:47	1640415	0	3	3	3	3	3	3	3	3	0	0	0	0	0	0	0	0	0	0	0	0	0		1	0	0	0	0	0	0	0
020713	11:06:47	1	Trial	CongruentLeft	14	0	1000	0	102	11:06:47	1641465	0	3	3	3	3	3	3	3	3	0	0	0	0	0	0	0	0	0	0	0	0	0		1	0	0	0	0	0	0	0
020713	11:06:47	1	Trial	ResponseCR	14	0	175	0	102	11:06:47	1642231	0	3	3	3	3	3	3	3	3	0	0	0	0	0	0	0	0	0	0	0	0	0		1	0	0	0	0	0	0	0
020713	11:06:47	1	Trial	CongruentRight	14	0	1000	0	102	11:06:47	1643281	0	3	3	3	3	3	3	3	3	0	0	0	0	0	0	0	0	0	0	0	0	0		1	0	0	0	0	0	0	0
020713	11:06:47	1	Trial	ResponseIL	14	0	175	0	102	11:06:47	1644047	0	3	3	3	3	3	3	3	3	0	0	0	0	0	0	0	0	0	0	0	0	0		1	0	0	0	0	0	0	0
020713	11:06:47	1	Trial	IncongruentLeft	14	0	1000	0	102	11:06:47	1645097	0	3	3	3	3	3	3	3	3	0	0	0	0	0	0	0	0	0	0	0	0	0		1	0	0	0	0	0	0	0
020713	11:06:47	1	Trial	ResponseCR	14	0	175	0	102	11:06:47	1645863	0	3	3	3	3	3	3	3	3	0	0	0	0	0	0	0	0	0	0	0	0	0		1	0	0	0	0	0	0	0
020713	11:06:47	1	Trial	CongruentRight	14	0	1000	0	102	11:06:47	1646913	0	3	3	3	3	3	3	3	3	0	0	0	0	0	0	0	0	0	0	0	0	0		1	0	0	0	0	0	0	0
020713	11:06:47	1	Trial	ResponseCR	14	0	175	0	102	11:06:47	1647679	0	3	3	3	3	3	3	3	3	0	0	0	0	0	0	0	0	0	0	0	0	0		1	0	0	0	0	0	0	0
020713	11:06:47	1	Trial	CongruentRight	14	0	1000	0	102	11:06:47	1648729	0	3	3	3	3	3	3	3	3	0	0	0	0	0	0	0	0	0	0	0	0	0		1	0	0	0	0	0	0	0
020713	11:06:47	1	Trial	ResponseIR	14	0	175	0	102	11:06:47	1649495	0	3	3	3	3	3	3	3	3	0	0	0	0	0	0	0	0	0	0	0	0	0		1	0	0	0	0	0	0	0
020713	11:06:47	1	Trial	IncongruentRight	14	0	1000	0	102	11:06:47	1650545	0	3	3	3	3	3	3	3	3	0	0	0	0	0	0	0	0	0	0	0	0	0		1	0	0	0	0	0	0	0
020713	11:06:47	1	Trial	ResponseCL	14	0	175	0	102	11:06:47	1651311	0	3	3	3	3	3	3	3	3	0	0	0	0	0	0	0	0	0	0	0	0	0		1	0	0	0	0	0	0	0
020713	11:06:47	1	Trial	CongruentLeft	14	0	1000	0	102	11:06:47	1652361	0	3	3	3	3	3	3	3	3	0	0	0	0	0	0	0	0	0	0	0	0	0		1	0	0	0	0	0	0	0
020713	11:06:47	1	Trial	ResponseIL	14	0	175	0	102	11:06:47	1653127	0	3	3	3	3	3	3	3	3	0	0	0	0	0	0	0	0	0	0	0	0	0		1	0	0	0	0	0	0	0
020713	11:06:47	1	Trial	IncongruentLeft	14	0	1000	0	102	11:06:47	1654177	0	3	3	3	3	3	3	3	3	0	0	0	0	0	0	0	0	0	0	0	0	0		1	0	0	0	0	0	0	0
020713	11:06:47	1	Trial	ResponseCL	14	0	175	0	102	11:06:47	1654943	0	3	3	3	3	3	3	3	3	0	0	0	0	0	0	0	0	0	0	0	0	0		1	0	0	0	0	0	0	0
020713	11:06:47	1	Trial	CongruentLeft	14	0	1000	0	102	11:06:47	1655993	0	3	3	3	3	3	3	3	3	0	0	0	0	0	0	0	0	0	0	0	0	0		1	0	0	0	0	0	0	0
020713	11:06:47	1	Trial	ResponseIR	14	0	175	0	102	11:06:47	1656759	0	3	3	3	3	3	3	3	3	0	0	0	0	0	0	0	0	0	0	0	0	0		1	0	0	0	0	0	0	0
020713	11:06:47	1	Trial	IncongruentRight	14	0	1000	0	102	11:06:47	1657809	0	3	3	3	3	3	3	3	3	0	0	0	0	0	0	0	0	0	0	0	0	0		1	0	0	0	0	0	0	0
020713	11:06:47	1	Trial	ResponseIL	14	0	175	0	102	11:06:47	1658575	0	3	3	3	3	3	3	3	3	0	0	0	0	0	0	0	0	0	0	0	0	0		1	0	0	0	0	0	0	0
020713	11:06:47	1	Trial	IncongruentLeft	14	0	1000	0	102	11:06:47	1659625	0	3	3	3	3	3	3	3	3	0	0	0	0	0	0	0	0	0	0	0	0	0		1	0	0	0	0	0	0	0
020713	11:06:47	1	Trial	ResponseCR	14	0	175	0	102	11:06:47	1660391	0	3	3	3	3	3	3	3	3	0	0	0	0	0	0	0	0	0	0	0	0	0		1	0	0	0	0	0	0	0
020713	11:06:47	1	Trial	CongruentRight	14	0	1000	0	102	11:06:47	1661441	0	3	3	3	3	3	3	3	3	0	0	0	0	0	0	0	0	0	0	0	0	0		1	0	0	0	0	0	0	0
020713	11:06:47	1	Trial	ResponseCL	14	0	175	0	102	11:06:47	1662207	0	3	3	3	3	3	3	3	3	0	0	0	0	0	0	0	0	0	0	0	0	0		1	0	0	0	0	0	0	0
020713	11:06:47	1	Trial	CongruentLeft	14	0	1000	0	102	11:06:47	1663257	0	3	3	3	3	3	3	3	3	0	0	0	0	0	0	0	0	0	0	0	0	0		1	0	0	0	0	0	0	0
020713	11:06:47	1	Trial	ResponseIL	14	0	175	0	102	11:06:47	1664023	0	3	3	3	3	3	3	3	3	0	0	0	0	0	0	0	0	0	0	0	0	0		1	0	0	0	0	0	0	0
020713	11:06:47	1	Trial	IncongruentLeft	14	0	1000	0	102	11:06:47	1665073	0	3	3	3	3	3	3	3	3	0	0	0	0	0	0	0	0	0	0	0	0	0		1	0	0	0	0	0	0	0
020713	11:06:47	1	Trial	ResponseCL	14	0	175	0	102	11:06:47	1665839	0	3	3	3	3	3	3	3	3	0	0	0	0	0	0	0	0	0	0	0	0	0		1	0	0	0	0	0	0	0
020713	11:06:47	1	Trial	CongruentLeft	14	0	1000	0	102	11:06:47	1666889	0	3	3	3	3	3	3	3	3	0	0	0	0	0	0	0	0	0	0	0	0	0		1	0	0	0	0	0	0	0
020713	11:06:47	1	Trial	ResponseIR	14	0	175	0	102	11:06:47	1667655	0	3	3	3	3	3	3	3	3	0	0	0	0	0	0	0	0	0	0	0	0	0		1	0	0	0	0	0	0	0
020713	11:06:47	1	Trial	IncongruentRight	14	0	1000	0	102	11:06:47	1668705	0	3	3	3	3	3	3	3	3	0	0	0	0	0	0	0	0	0	0	0	0	0		1	0	0	0	0	0	0	0
020713	11:06:47	1	Trial	ResponseCR	14	0	175	0	102	11:06:47	1669471	0	3	3	3	3	3	3	3	3	0	0	0	0	0	0	0	0	0	0	0	0	0		1	0	0	0	0	0	0	0
020713	11:06:47	1	Trial	CongruentRight	14	0	1000	0	102	11:06:47	1670522	0	3	3	3	3	3	3	3	3	0	0	0	0	0	0	0	0	0	0	0	0	0		1	0	0	0	0	0	0	0
020713	11:06:47	1	Trial	ResponseIL	14	0	175	0	102	11:06:47	1671287	0	3	3	3	3	3	3	3	3	0	0	0	0	0	0	0	0	0	0	0	0	0		1	0	0	0	0	0	0	0
020713	11:06:47	1	Trial	IncongruentLeft	14	0	1000	0	102	11:06:47	1672337	0	3	3	3	3	3	3	3	3	0	0	0	0	0	0	0	0	0	0	0	0	0		1	0	0	0	0	0	0	0
020713	11:06:47	1	Trial	ResponseCL	14	0	175	0	102	11:06:47	1673103	0	3	3	3	3	3	3	3	3	0	0	0	0	0	0	0	0	0	0	0	0	0		1	0	0	0	0	0	0	0
020713	11:06:47	1	Trial	CongruentLeft	14	0	1000	0	102	11:06:47	1674153	0	3	3	3	3	3	3	3	3	0	0	0	0	0	0	0	0	0	0	0	0	0		1	0	0	0	0	0	0	0
020713	11:06:47	1	Trial	ResponseIR	14	0	175	0	102	11:06:47	1674919	0	3	3	3	3	3	3	3	3	0	0	0	0	0	0	0	0	0	0	0	0	0		1	0	0	0	0	0	0	0
020713	11:06:47	1	Trial	IncongruentRight	14	0	1000	0	102	11:06:47	1675969	0	3	3	3	3	3	3	3	3	0	0	0	0	0	0	0	0	0	0	0	0	0		1	0	0	0	0	0	0	0
020713	11:06:47	1	Trial	ResponseIL	14	0	175	0	102	11:06:47	1676735	0	3	3	3	3	3	3	3	3	0	0	0	0	0	0	0	0	0	0	0	0	0		1	0	0	0	0	0	0	0
020713	11:06:47	1	Trial	IncongruentLeft	14	0	1000	0	102	11:06:47	1677785	0	3	3	3	3	3	3	3	3	0	0	0	0	0	0	0	0	0	0	0	0	0		1	0	0	0	0	0	0	0
020713	11:06:47	1	Trial	ResponseCL	14	0	175	0	102	11:06:47	1678551	0	3	3	3	3	3	3	3	3	0	0	0	0	0	0	0	0	0	0	0	0	0		1	0	0	0	0	0	0	0
020713	11:06:47	1	Trial	CongruentLeft	14	0	1000	0	102	11:06:47	1679601	0	3	3	3	3	3	3	3	3	0	0	0	0	0	0	0	0	0	0	0	0	0		1	0	0	0	0	0	0	0
020713	11:06:47	1	Trial	ResponseIL	14	0	175	0	102	11:06:47	1680367	0	3	3	3	3	3	3	3	3	0	0	0	0	0	0	0	0	0	0	0	0	0		1	0	0	0	0	0	0	0
020713	11:06:47	1	Trial	IncongruentLeft	14	0	1000	0	102	11:06:47	1681417	0	3	3	3	3	3	3	3	3	0	0	0	0	0	0	0	0	0	0	0	0	0		1	0	0	0	0	0	0	0
020713	11:06:47	1	Trial	ResponseCR	14	0	175	0	102	11:06:47	1682183	0	3	3	3	3	3	3	3	3	0	0	0	0	0	0	0	0	0	0	0	0	0		1	0	0	0	0	0	0	0
020713	11:06:47	1	Trial	CongruentRight	14	0	1000	0	102	11:06:47	1683233	0	3	3	3	3	3	3	3	3	0	0	0	0	0	0	0	0	0	0	0	0	0		1	0	0	0	0	0	0	0
020713	11:06:47	1	Trial	ResponseCL	14	0	175	0	102	11:06:47	1683999	0	3	3	3	3	3	3	3	3	0	0	0	0	0	0	0	0	0	0	0	0	0		1	0	0	0	0	0	0	0
020713	11:06:47	1	Trial	CongruentLeft	14	0	1000	0	102	11:06:47	1685049	0	3	3	3	3	3	3	3	3	0	0	0	0	0	0	0	0	0	0	0	0	0		1	0	0	0	0	0	0	0
020713	11:06:47	1	Trial	ResponseIR	14	0	175	0	102	11:06:47	1685815	0	3	3	3	3	3	3	3	3	0	0	0	0	0	0	0	0	0	0	0	0	0		1	0	0	0	0	0	0	0
020713	11:06:47	1	Trial	IncongruentRight	14	0	1000	0	102	11:06:47	1686864	0	3	3	3	3	3	3	3	3	0	0	0	0	0	0	0	0	0	0	0	0	0		1	0	0	0	0	0	0	0
020713	11:06:47	1	Trial	ResponseCL	14	0	175	0	102	11:06:47	1687631	0	3	3	3	3	3	3	3	3	0	0	0	0	0	0	0	0	0	0	0	0	0		1	0	0	0	0	0	0	0
020713	11:06:47	1	Trial	CongruentLeft	14	0	1000	0	102	11:06:47	1688680	0	3	3	3	3	3	3	3	3	0	0	0	0	0	0	0	0	0	0	0	0	0		1	0	0	0	0	0	0	0
020713	11:06:47	1	Trial	ResponseCR	14	0	175	0	102	11:06:47	1689447	0	3	3	3	3	3	3	3	3	0	0	0	0	0	0	0	0	0	0	0	0	0		1	0	0	0	0	0	0	0
020713	11:06:47	1	Trial	CongruentRight	14	0	1000	0	102	11:06:47	1690497	0	3	3	3	3	3	3	3	3	0	0	0	0	0	0	0	0	0	0	0	0	0		1	0	0	0	0	0	0	0
020713	11:06:47	1	Trial	ResponseIL	14	0	175	0	102	11:06:47	1691263	0	3	3	3	3	3	3	3	3	0	0	0	0	0	0	0	0	0	0	0	0	0		1	0	0	0	0	0	0	0
020713	11:06:47	1	Trial	IncongruentLeft	14	0	1000	0	102	11:06:47	1692313	0	3	3	3	3	3	3	3	3	0	0	0	0	0	0	0	0	0	0	0	0	0		1	0	0	0	0	0	0	0
020713	11:06:47	1	WordsAbsEng6mo	PAbsEng6mo1	16	Abs1	2553	0	102	11:06:47	1700293	0	3	3	3	3	3	3	3	3	0	0	0	0	0	0	0	0	0	0	0	0	0		1	0	0	0	0	0	0	0
020713	11:06:47	1	WordsAbsEng6mo	AbsEng6mo1	16	Abs1	1447	0	102	11:06:47	1701809	0	3	3	3	3	3	3	3	3	0	0	1	0	0	0	0	0	0	0	0	0	0		1	0	0	0	0	0	0	0
020713	11:06:47	1	WordsAbsEng6mo	AbsEng6mo2	16	Abs1	935	0	102	11:06:47	1702825	0	3	3	3	3	3	3	3	3	0	0	2	0	0	0	0	0	0	0	0	0	0		1	0	0	0	0	0	0	0
020713	11:06:47	1	WordsAbsEng6mo	AbsEng6mo3	16	Abs1	1248	0	102	11:06:47	1704158	0	3	3	3	3	3	3	3	3	0	0	3	0	0	0	0	0	0	0	0	0	0		1	0	0	0	0	0	0	0
020713	11:06:47	1	Trial2BackEngS	NS	17	0	1000	1	102	11:06:47	1740061	0	3	3	3	3	3	3	3	3	0	0	3	0	0	0	0	0	0	0	0	0	0		1	0	0	0	0	0	0	0
020713	11:06:47	1	Trial2BackEngS	NS	17	0	1000	1	102	11:06:47	1741578	0	3	3	3	3	3	3	3	3	0	0	3	0	0	0	0	0	0	0	0	0	0		1	0	0	0	0	0	0	0
020713	11:06:47	1	Trial2BackEngS	NS	17	0	1000	1	102	11:06:47	1743094	0	3	3	3	3	3	3	3	3	0	0	3	0	0	0	0	0	0	0	0	0	0		1	0	0	0	0	0	0	0
020713	11:06:47	1	Trial2BackEngS	YS	17	0	1000	0	102	11:06:47	1744610	0	3	3	3	3	3	3	3	3	0	0	3	0	0	0	0	0	0	0	0	0	0		1	0	0	0	0	0	0	0
020713	11:06:47	1	Trial2BackEngS	NS	17	0	1000	1	102	11:06:47	1746126	0	3	3	3	3	3	3	3	3	0	0	3	0	0	0	0	0	0	0	0	0	0		1	0	0	0	0	0	0	0
020713	11:06:47	1	Trial2BackEngS	NS	17	0	1000	1	102	11:06:47	1747642	0	3	3	3	3	3	3	3	3	0	0	3	0	0	0	0	0	0	0	0	0	0		1	0	0	0	0	0	0	0
020713	11:06:47	1	Trial2BackEngS	NS	17	0	1000	1	102	11:06:47	1749158	0	3	3	3	3	3	3	3	3	0	0	3	0	0	0	0	0	0	0	0	0	0		1	0	0	0	0	0	0	0
020713	11:06:47	1	Trial2BackEngS	NS	17	0	1000	1	102	11:06:47	1750674	0	3	3	3	3	3	3	3	3	0	0	3	0	0	0	0	0	0	0	0	0	0		1	0	0	0	0	0	0	0
020713	11:06:47	1	Trial2BackEngS	YS	17	0	1000	0	102	11:06:47	1752190	0	3	3	3	3	3	3	3	3	0	0	3	0	0	0	0	0	0	0	0	0	0		1	0	0	0	0	0	0	0
020713	11:06:47	1	Trial2BackEngS	NS	17	0	1000	1	102	11:06:47	1753706	0	3	3	3	3	3	3	3	3	0	0	3	0	0	0	0	0	0	0	0	0	0		1	0	0	0	0	0	0	0
020713	11:06:47	1	Trial2BackEngS	NS	17	0	1000	1	102	11:06:47	1755222	0	3	3	3	3	3	3	3	3	0	0	3	0	0	0	0	0	0	0	0	0	0		1	0	0	0	0	0	0	0
020713	11:06:47	1	Trial2BackEngS	YS	17	0	1000	0	102	11:06:47	1756739	0	3	3	3	3	3	3	3	3	0	0	3	0	0	0	0	0	0	0	0	0	0		1	0	0	0	0	0	0	0
020713	11:06:47	1	Trial2BackEngS	NS	17	0	1000	1	102	11:06:47	1758255	0	3	3	3	3	3	3	3	3	0	0	3	0	0	0	0	0	0	0	0	0	0		1	0	0	0	0	0	0	0
020713	11:06:47	1	Trial2BackEngS	NS	17	0	1000	1	102	11:06:47	1759771	0	3	3	3	3	3	3	3	3	0	0	3	0	0	0	0	0	0	0	0	0	0		1	0	0	0	0	0	0	0
020713	11:06:47	1	Trial2BackEngS	NS	17	0	1000	1	102	11:06:47	1761287	0	3	3	3	3	3	3	3	3	0	0	3	0	0	0	0	0	0	0	0	0	0		1	0	0	0	0	0	0	0
020713	11:06:47	1	Trial2BackEngS	YS	17	0	1000	0	102	11:06:47	1762803	0	3	3	3	3	3	3	3	3	0	0	3	0	0	0	0	0	0	0	0	0	0		1	0	0	0	0	0	0	0
020713	11:06:47	1	Trial2BackEngS	NS	17	0	1000	1	102	11:06:47	1764319	0	3	3	3	3	3	3	3	3	0	0	3	0	0	0	0	0	0	0	0	0	0		1	0	0	0	0	0	0	0
020713	11:06:47	1	Trial2BackEngS	NS	17	0	1000	1	102	11:06:47	1765835	0	3	3	3	3	3	3	3	3	0	0	3	0	0	0	0	0	0	0	0	0	0		1	0	0	0	0	0	0	0
020713	11:06:47	1	Trial2BackEngS	NS	17	0	1000	1	102	11:06:47	1767351	0	3	3	3	3	3	3	3	3	0	0	3	0	0	0	0	0	0	0	0	0	0		1	0	0	0	0	0	0	0
020713	11:06:47	1	Trial2BackEngS	NS	17	0	1000	1	102	11:06:47	1768867	0	3	3	3	3	3	3	3	3	0	0	3	0	0	0	0	0	0	0	0	0	0		1	0	0	0	0	0	0	0
020713	11:06:47	1	Trial2BackEngS	YS	17	0	1000	0	102	11:06:47	1770384	0	3	3	3	3	3	3	3	3	0	0	3	0	0	0	0	0	0	0	0	0	0		1	0	0	0	0	0	0	0
020713	11:06:47	1	Trial2BackEngS	NS	17	0	1000	1	102	11:06:47	1771900	0	3	3	3	3	3	3	3	3	0	0	3	0	0	0	0	0	0	0	0	0	0		1	0	0	0	0	0	0	0
020713	11:06:47	1	Trial2BackEngS	NS	17	0	1000	1	102	11:06:47	1773416	0	3	3	3	3	3	3	3	3	0	0	3	0	0	0	0	0	0	0	0	0	0		1	0	0	0	0	0	0	0
020713	11:06:47	1	Trial2BackEngS	NS	17	0	1000	1	102	11:06:47	1774932	0	3	3	3	3	3	3	3	3	0	0	3	0	0	0	0	0	0	0	0	0	0		1	0	0	0	0	0	0	0
020713	11:06:47	1	Trial2BackEngS	NS	17	0	1000	1	102	11:06:47	1776448	0	3	3	3	3	3	3	3	3	0	0	3	0	0	0	0	0	0	0	0	0	0		1	0	0	0	0	0	0	0
020713	11:06:47	1	Trial2BackEngS	NS	17	0	1000	1	102	11:06:47	1777964	0	3	3	3	3	3	3	3	3	0	0	3	0	0	0	0	0	0	0	0	0	0		1	0	0	0	0	0	0	0
020713	11:06:47	1	Trial2BackEngS	NS	17	0	1000	1	102	11:06:47	1779480	0	3	3	3	3	3	3	3	3	0	0	3	0	0	0	0	0	0	0	0	0	0		1	0	0	0	0	0	0	0
020713	11:06:47	1	Trial2BackEngS	NS	17	0	1000	1	102	11:06:47	1780996	0	3	3	3	3	3	3	3	3	0	0	3	0	0	0	0	0	0	0	0	0	0		1	0	0	0	0	0	0	0
020713	11:06:47	1	Trial2BackEngS	NS	17	0	1000	1	102	11:06:47	1782512	0	3	3	3	3	3	3	3	3	0	0	3	0	0	0	0	0	0	0	0	0	0		1	0	0	0	0	0	0	0
020713	11:06:47	1	Trial2BackEngS	NS	17	0	1000	1	102	11:06:47	1784028	0	3	3	3	3	3	3	3	3	0	0	3	0	0	0	0	0	0	0	0	0	0		1	0	0	0	0	0	0	0
020713	11:06:47	1	Trial2BackEngS	NS	17	0	1000	1	102	11:06:47	1785544	0	3	3	3	3	3	3	3	3	0	0	3	0	0	0	0	0	0	0	0	0	0		1	0	0	0	0	0	0	0
020713	11:06:47	1	Trial2BackEngS	YS	17	0	1000	0	102	11:06:47	1787061	0	3	3	3	3	3	3	3	3	0	0	3	0	0	0	0	0	0	0	0	0	0		1	0	0	0	0	0	0	0
020713	11:06:47	1	Trial2BackEngS	NS	17	0	1000	1	102	11:06:47	1788577	0	3	3	3	3	3	3	3	3	0	0	3	0	0	0	0	0	0	0	0	0	0		1	0	0	0	0	0	0	0
020713	11:06:47	1	Trial2BackEngS	NS	17	0	1000	1	102	11:06:47	1790094	0	3	3	3	3	3	3	3	3	0	0	3	0	0	0	0	0	0	0	0	0	0		1	0	0	0	0	0	0	0
020713	11:06:47	1	Trial2BackEngS	NS	17	0	1000	1	102	11:06:47	1791609	0	3	3	3	3	3	3	3	3	0	0	3	0	0	0	0	0	0	0	0	0	0		1	0	0	0	0	0	0	0
020713	11:06:47	1	Trial2BackEngS	YS	17	0	1000	0	102	11:06:47	1793125	0	3	3	3	3	3	3	3	3	0	0	3	0	0	0	0	0	0	0	0	0	0		1	0	0	0	0	0	0	0
020713	11:06:47	1	Trial2BackEngS	NS	17	0	1000	1	102	11:06:47	1794641	0	3	3	3	3	3	3	3	3	0	0	3	0	0	0	0	0	0	0	0	0	0		1	0	0	0	0	0	0	0
020713	11:06:47	1	Trial2BackEngS	NS	17	0	1000	1	102	11:06:47	1796157	0	3	3	3	3	3	3	3	3	0	0	3	0	0	0	0	0	0	0	0	0	0		1	0	0	0	0	0	0	0
020713	11:06:47	1	Trial2BackEngS	NS	17	0	1000	1	102	11:06:47	1797673	0	3	3	3	3	3	3	3	3	0	0	3	0	0	0	0	0	0	0	0	0	0		1	0	0	0	0	0	0	0
020713	11:06:47	1	Trial2BackEngS	NS	17	0	1000	1	102	11:06:47	1799189	0	3	3	3	3	3	3	3	3	0	0	3	0	0	0	0	0	0	0	0	0	0		1	0	0	0	0	0	0	0
020713	11:06:47	1	Trial2BackEngS	NS	17	0	1000	1	102	11:06:47	1800705	0	3	3	3	3	3	3	3	3	0	0	3	0	0	0	0	0	0	0	0	0	0		1	0	0	0	0	0	0	0
020713	11:06:47	1	Trial2BackEngS	NS	17	0	1000	1	102	11:06:47	1802222	0	3	3	3	3	3	3	3	3	0	0	3	0	0	0	0	0	0	0	0	0	0		1	0	0	0	0	0	0	0
020713	11:06:47	1	Trial2BackEngS	NS	17	0	1000	1	102	11:06:47	1803738	0	3	3	3	3	3	3	3	3	0	0	3	0	0	0	0	0	0	0	0	0	0		1	0	0	0	0	0	0	0
020713	11:06:47	1	Trial2BackEngS	YS	17	0	1000	0	102	11:06:47	1805254	0	3	3	3	3	3	3	3	3	0	0	3	0	0	0	0	0	0	0	0	0	0		1	0	0	0	0	0	0	0
020713	11:06:47	1	Trial2BackEngS	NS	17	0	1000	1	102	11:06:47	1806770	0	3	3	3	3	3	3	3	3	0	0	3	0	0	0	0	0	0	0	0	0	0		1	0	0	0	0	0	0	0
020713	11:06:47	1	Trial2BackEngS	NS	17	0	1000	1	102	11:06:47	1808286	0	3	3	3	3	3	3	3	3	0	0	3	0	0	0	0	0	0	0	0	0	0		1	0	0	0	0	0	0	0
020713	11:06:47	1	Trial2BackEngS	NS	17	0	1000	1	102	11:06:47	1809802	0	3	3	3	3	3	3	3	3	0	0	3	0	0	0	0	0	0	0	0	0	0		1	0	0	0	0	0	0	0
020713	11:06:47	1	Trial2BackEngS	NS	17	0	1000	1	102	11:06:47	1811318	0	3	3	3	3	3	3	3	3	0	0	3	0	0	0	0	0	0	0	0	0	0		1	0	0	0	0	0	0	0
020713	11:06:47	1	Trial2BackEngS	YS	17	0	1000	0	102	11:06:47	1812834	0	3	3	3	3	3	3	3	3	0	0	3	0	0	0	0	0	0	0	0	0	0		1	0	0	0	0	0	0	0
020713	11:06:47	1	Trial2BackEngS	NS	17	0	1000	1	102	11:06:47	1814350	0	3	3	3	3	3	3	3	3	0	0	3	0	0	0	0	0	0	0	0	0	0		1	0	0	0	0	0	0	0
020713	11:06:47	1	Trial2BackEngS	NS	17	0	1000	1	102	11:06:47	1815866	0	3	3	3	3	3	3	3	3	0	0	3	0	0	0	0	0	0	0	0	0	0		1	0	0	0	0	0	0	0
020713	11:06:47	1	Trial2BackEngS	NS	17	0	1000	1	102	11:06:47	1817383	0	3	3	3	3	3	3	3	3	0	0	3	0	0	0	0	0	0	0	0	0	0		1	0	0	0	0	0	0	0
020713	11:06:47	1	Trial2BackEngS	NS	17	0	1000	1	102	11:06:47	1818899	0	3	3	3	3	3	3	3	3	0	0	3	0	0	0	0	0	0	0	0	0	0		1	0	0	0	0	0	0	0
020713	11:06:47	1	Trial2BackEngS	NS	17	0	1000	1	102	11:06:47	1820415	0	3	3	3	3	3	3	3	3	0	0	3	0	0	0	0	0	0	0	0	0	0		1	0	0	0	0	0	0	0
020713	11:06:47	1	Trial2BackEngS	NS	17	0	1000	1	102	11:06:47	1821931	0	3	3	3	3	3	3	3	3	0	0	3	0	0	0	0	0	0	0	0	0	0		1	0	0	0	0	0	0	0
020713	11:06:47	1	Trial2BackEngS	YS	17	0	1000	0	102	11:06:47	1823447	0	3	3	3	3	3	3	3	3	0	0	3	0	0	0	0	0	0	0	0	0	0		1	0	0	0	0	0	0	0
020713	11:06:47	1	Trial2BackEngS	NS	17	0	1000	1	102	11:06:47	1824964	0	3	3	3	3	3	3	3	3	0	0	3	0	0	0	0	0	0	0	0	0	0		1	0	0	0	0	0	0	0
020713	11:06:47	1	Trial2BackEngS	NS	17	0	1000	1	102	11:06:47	1826479	0	3	3	3	3	3	3	3	3	0	0	3	0	0	0	0	0	0	0	0	0	0		1	0	0	0	0	0	0	0
020713	11:06:47	1	Trial2BackEngS	NS	17	0	1000	1	102	11:06:47	1827995	0	3	3	3	3	3	3	3	3	0	0	3	0	0	0	0	0	0	0	0	0	0		1	0	0	0	0	0	0	0
020713	11:06:47	1	Trial2BackEngS	NS	17	0	1000	1	102	11:06:47	1829511	0	3	3	3	3	3	3	3	3	0	0	3	0	0	0	0	0	0	0	0	0	0		1	0	0	0	0	0	0	0
020713	11:06:47	1	Trial2BackEngS	NS	17	0	1000	1	102	11:06:47	1831027	0	3	3	3	3	3	3	3	3	0	0	3	0	0	0	0	0	0	0	0	0	0		1	0	0	0	0	0	0	0
020713	11:06:47	1	Trial2BackEngS	NS	17	0	1000	1	102	11:06:47	1832544	0	3	3	3	3	3	3	3	3	0	0	3	0	0	0	0	0	0	0	0	0	0		1	0	0	0	0	0	0	0
020713	11:06:47	1	Trial2BackEngS	NS	17	0	1000	1	102	11:06:47	1834060	0	3	3	3	3	3	3	3	3	0	0	3	0	0	0	0	0	0	0	0	0	0		1	0	0	0	0	0	0	0
020713	11:06:47	1	Trial2BackEngS	YS	17	0	1000	0	102	11:06:47	1835576	0	3	3	3	3	3	3	3	3	0	0	3	0	0	0	0	0	0	0	0	0	0		1	0	0	0	0	0	0	0
020713	11:06:47	1	Trial2BackEngS	NS	17	0	1000	1	102	11:06:47	1837092	0	3	3	3	3	3	3	3	3	0	0	3	0	0	0	0	0	0	0	0	0	0		1	0	0	0	0	0	0	0
020713	11:06:47	1	Trial2BackEngS	NS	17	0	1000	1	102	11:06:47	1838608	0	3	3	3	3	3	3	3	3	0	0	3	0	0	0	0	0	0	0	0	0	0		1	0	0	0	0	0	0	0
020713	11:06:47	1	Trial2BackEngS	NS	17	0	1000	1	102	11:06:47	1840124	0	3	3	3	3	3	3	3	3	0	0	3	0	0	0	0	0	0	0	0	0	0		1	0	0	0	0	0	0	0
020713	11:06:47	1	Trial2BackEngS	NS	17	0	1000	1	102	11:06:47	1841640	0	3	3	3	3	3	3	3	3	0	0	3	0	0	0	0	0	0	0	0	0	0		1	0	0	0	0	0	0	0
020713	11:06:47	1	Trial2BackEngS	YS	17	0	1000	0	102	11:06:47	1843156	0	3	3	3	3	3	3	3	3	0	0	3	0	0	0	0	0	0	0	0	0	0		1	0	0	0	0	0	0	0
020713	11:06:47	1	Trial2BackEngS	NS	17	0	1000	1	102	11:06:47	1844672	0	3	3	3	3	3	3	3	3	0	0	3	0	0	0	0	0	0	0	0	0	0		1	0	0	0	0	0	0	0
020713	11:06:47	1	Trial2BackEngS	NS	17	0	1000	1	102	11:06:47	1846189	0	3	3	3	3	3	3	3	3	0	0	3	0	0	0	0	0	0	0	0	0	0		1	0	0	0	0	0	0	0
020713	11:06:47	1	Trial2BackEngS	YS	17	0	1000	0	102	11:06:47	1847705	0	3	3	3	3	3	3	3	3	0	0	3	0	0	0	0	0	0	0	0	0	0		1	0	0	0	0	0	0	0
020713	11:06:47	1	Trial2BackEngS	NS	17	0	1000	1	102	11:06:47	1849221	0	3	3	3	3	3	3	3	3	0	0	3	0	0	0	0	0	0	0	0	0	0		1	0	0	0	0	0	0	0
020713	11:06:47	1	Trial2BackEngS	NS	17	0	1000	1	102	11:06:47	1850737	0	3	3	3	3	3	3	3	3	0	0	3	0	0	0	0	0	0	0	0	0	0		1	0	0	0	0	0	0	0
020713	11:06:47	1	Trial2BackEngS	NS	17	0	1000	1	102	11:06:47	1852253	0	3	3	3	3	3	3	3	3	0	0	3	0	0	0	0	0	0	0	0	0	0		1	0	0	0	0	0	0	0
020713	11:06:47	1	Trial2BackEngS	NS	17	0	1000	1	102	11:06:47	1853769	0	3	3	3	3	3	3	3	3	0	0	3	0	0	0	0	0	0	0	0	0	0		1	0	0	0	0	0	0	0
020713	11:06:47	1	Trial2BackEngS	NS	17	0	1000	1	102	11:06:47	1855285	0	3	3	3	3	3	3	3	3	0	0	3	0	0	0	0	0	0	0	0	0	0		1	0	0	0	0	0	0	0
020713	11:06:47	1	Trial2BackEngS	NS	17	0	1000	1	102	11:06:47	1856801	0	3	3	3	3	3	3	3	3	0	0	3	0	0	0	0	0	0	0	0	0	0		1	0	0	0	0	0	0	0
020713	11:06:47	1	Trial2BackEngS	YS	17	0	1000	0	102	11:06:47	1858317	0	3	3	3	3	3	3	3	3	0	0	3	0	0	0	0	0	0	0	0	0	0		1	0	0	0	0	0	0	0
020713	11:06:47	1	Trial2BackEngS	NS	17	0	1000	1	102	11:06:47	1859833	0	3	3	3	3	3	3	3	3	0	0	3	0	0	0	0	0	0	0	0	0	0		1	0	0	0	0	0	0	0
020713	11:06:47	1	Trial2BackEngS	NS	17	0	1000	1	102	11:06:47	1861350	0	3	3	3	3	3	3	3	3	0	0	3	0	0	0	0	0	0	0	0	0	0		1	0	0	0	0	0	0	0
020713	11:06:47	1	Trial2BackEngS	NS	17	0	1000	1	102	11:06:47	1862866	0	3	3	3	3	3	3	3	3	0	0	3	0	0	0	0	0	0	0	0	0	0		1	0	0	0	0	0	0	0
020713	11:06:47	1	Trial2BackEngS	NS	17	0	1000	1	102	11:06:47	1864382	0	3	3	3	3	3	3	3	3	0	0	3	0	0	0	0	0	0	0	0	0	0		1	0	0	0	0	0	0	0
020713	11:06:47	1	Trial2BackEngS	YS	17	0	1000	0	102	11:06:47	1865898	0	3	3	3	3	3	3	3	3	0	0	3	0	0	0	0	0	0	0	0	0	0		1	0	0	0	0	0	0	0
020713	11:06:47	1	Trial2BackEngS	NS	17	0	1000	1	102	11:06:47	1867414	0	3	3	3	3	3	3	3	3	0	0	3	0	0	0	0	0	0	0	0	0	0		1	0	0	0	0	0	0	0
020713	11:06:47	1	Trial2BackEngS	NS	17	0	1000	1	102	11:06:47	1868930	0	3	3	3	3	3	3	3	3	0	0	3	0	0	0	0	0	0	0	0	0	0		1	0	0	0	0	0	0	0
020713	11:06:47	1	Trial2BackEngS	NS	17	0	1000	1	102	11:06:47	1870446	0	3	3	3	3	3	3	3	3	0	0	3	0	0	0	0	0	0	0	0	0	0		1	0	0	0	0	0	0	0
020713	11:06:47	1	Trial2BackEngS	NS	17	0	1000	1	102	11:06:47	1871962	0	3	3	3	3	3	3	3	3	0	0	3	0	0	0	0	0	0	0	0	0	0		1	0	0	0	0	0	0	0
020713	11:06:47	1	Trial2BackEngS	YS	17	0	1000	0	102	11:06:47	1873478	0	3	3	3	3	3	3	3	3	0	0	3	0	0	0	0	0	0	0	0	0	0		1	0	0	0	0	0	0	0
020713	11:06:47	1	Trial2BackEngS	NS	17	0	1000	1	102	11:06:47	1874994	0	3	3	3	3	3	3	3	3	0	0	3	0	0	0	0	0	0	0	0	0	0		1	0	0	0	0	0	0	0
020713	11:06:47	1	Trial2BackEngS	NS	17	0	1000	1	102	11:06:47	1876511	0	3	3	3	3	3	3	3	3	0	0	3	0	0	0	0	0	0	0	0	0	0		1	0	0	0	0	0	0	0
020713	11:06:47	1	Trial2BackEngS	YS	17	0	1000	0	102	11:06:47	1878027	0	3	3	3	3	3	3	3	3	0	0	3	0	0	0	0	0	0	0	0	0	0		1	0	0	0	0	0	0	0
020713	11:06:47	1	Trial2BackEngS	NS	17	0	1000	1	102	11:06:47	1879544	0	3	3	3	3	3	3	3	3	0	0	3	0	0	0	0	0	0	0	0	0	0		1	0	0	0	0	0	0	0
020713	11:06:47	1	Trial2BackEngS	NS	17	0	1000	1	102	11:06:47	1881059	0	3	3	3	3	3	3	3	3	0	0	3	0	0	0	0	0	0	0	0	0	0		1	0	0	0	0	0	0	0
020713	11:06:47	1	Trial2BackEngS	NS	17	0	1000	1	102	11:06:47	1882575	0	3	3	3	3	3	3	3	3	0	0	3	0	0	0	0	0	0	0	0	0	0		1	0	0	0	0	0	0	0
020713	11:06:47	1	Trial2BackEngS	NS	17	0	1000	1	102	11:06:47	1884091	0	3	3	3	3	3	3	3	3	0	0	3	0	0	0	0	0	0	0	0	0	0		1	0	0	0	0	0	0	0
020713	11:06:47	1	Trial2BackEngS	NS	17	0	1000	1	102	11:06:47	1885607	0	3	3	3	3	3	3	3	3	0	0	3	0	0	0	0	0	0	0	0	0	0		1	0	0	0	0	0	0	0
020713	11:06:47	1	Trial2BackEngS	NS	17	0	1000	1	102	11:06:47	1887123	0	3	3	3	3	3	3	3	3	0	0	3	0	0	0	0	0	0	0	0	0	0		1	0	0	0	0	0	0	0
020713	11:06:47	1	Trial2BackEngS	NS	17	0	1000	1	102	11:06:47	1888639	0	3	3	3	3	3	3	3	3	0	0	3	0	0	0	0	0	0	0	0	0	0		1	0	0	0	0	0	0	0
020713	11:06:47	1	Trial2BackEngS	NS	17	0	1000	1	102	11:06:47	1890155	0	3	3	3	3	3	3	3	3	0	0	3	0	0	0	0	0	0	0	0	0	0		1	0	0	0	0	0	0	0
020713	11:06:47	1	Trial2BackEngS	YS	17	0	1000	0	102	11:06:47	1891672	0	3	3	3	3	3	3	3	3	0	0	3	0	0	0	0	0	0	0	0	0	0		1	0	0	0	0	0	0	0
020713	11:06:47	1	Trial2BackEngS	NS	17	0	1000	1	102	11:06:47	1893188	0	3	3	3	3	3	3	3	3	0	0	3	0	0	0	0	0	0	0	0	0	0		1	0	0	0	0	0	0	0
020713	11:06:47	1	Trial2BackEngS	NS	17	0	1000	1	102	11:06:47	1894704	0	3	3	3	3	3	3	3	3	0	0	3	0	0	0	0	0	0	0	0	0	0		1	0	0	0	0	0	0	0
020713	11:06:47	1	Trial2BackEngS	NS	17	0	1000	1	102	11:06:47	1896220	0	3	3	3	3	3	3	3	3	0	0	3	0	0	0	0	0	0	0	0	0	0		1	0	0	0	0	0	0	0
020713	11:06:47	1	Trial2BackEngS	NS	17	0	1000	1	102	11:06:47	1897736	0	3	3	3	3	3	3	3	3	0	0	3	0	0	0	0	0	0	0	0	0	0		1	0	0	0	0	0	0	0
020713	11:06:47	1	Trial2BackEngS	NS	17	0	1000	1	102	11:06:47	1899252	0	3	3	3	3	3	3	3	3	0	0	3	0	0	0	0	0	0	0	0	0	0		1	0	0	0	0	0	0	0
020713	11:06:47	1	Trial2BackEngS	NS	17	0	1000	1	102	11:06:47	1900768	0	3	3	3	3	3	3	3	3	0	0	3	0	0	0	0	0	0	0	0	0	0		1	0	0	0	0	0	0	0
020713	11:06:47	1	Trial2BackEngS	NS	17	0	1000	1	102	11:06:47	1902284	0	3	3	3	3	3	3	3	3	0	0	3	0	0	0	0	0	0	0	0	0	0		1	0	0	0	0	0	0	0
020713	11:06:47	1	Trial2BackEngS	YS	17	0	1000	0	102	11:06:47	1903800	0	3	3	3	3	3	3	3	3	0	0	3	0	0	0	0	0	0	0	0	0	0		1	0	0	0	0	0	0	0
020713	11:06:47	1	Trial2BackEngS	NS	17	0	1000	1	102	11:06:47	1905316	0	3	3	3	3	3	3	3	3	0	0	3	0	0	0	0	0	0	0	0	0	0		1	0	0	0	0	0	0	0
020713	11:06:47	1	Trial2BackEngS	NS	17	0	1000	1	102	11:06:47	1906833	0	3	3	3	3	3	3	3	3	0	0	3	0	0	0	0	0	0	0	0	0	0		1	0	0	0	0	0	0	0
020713	11:06:47	1	Trial2BackEngS	NS	17	0	1000	1	102	11:06:47	1908349	0	3	3	3	3	3	3	3	3	0	0	3	0	0	0	0	0	0	0	0	0	0		1	0	0	0	0	0	0	0
020713	11:06:47	1	Trial2BackEngS	NS	17	0	1000	1	102	11:06:47	1909865	0	3	3	3	3	3	3	3	3	0	0	3	0	0	0	0	0	0	0	0	0	0		1	0	0	0	0	0	0	0
020713	11:06:47	1	Trial2BackEngS	NS	17	0	1000	1	102	11:06:47	1911381	0	3	3	3	3	3	3	3	3	0	0	3	0	0	0	0	0	0	0	0	0	0		1	0	0	0	0	0	0	0
020713	11:06:47	1	Trial2BackEngS	NS	17	0	1000	1	102	11:06:47	1912897	0	3	3	3	3	3	3	3	3	0	0	3	0	0	0	0	0	0	0	0	0	0		1	0	0	0	0	0	0	0
020713	11:06:47	1	Trial2BackEngS	NS	17	0	1000	1	102	11:06:47	1914413	0	3	3	3	3	3	3	3	3	0	0	3	0	0	0	0	0	0	0	0	0	0		1	0	0	0	0	0	0	0
020713	11:06:47	1	Trial2BackEngS	NS	17	0	1000	1	102	11:06:47	1915929	0	3	3	3	3	3	3	3	3	0	0	3	0	0	0	0	0	0	0	0	0	0		1	0	0	0	0	0	0	0
020713	11:06:47	1	Trial2BackEngS	NS	17	0	1000	1	102	11:06:47	1917445	0	3	3	3	3	3	3	3	3	0	0	3	0	0	0	0	0	0	0	0	0	0		1	0	0	0	0	0	0	0
020713	11:06:47	1	Trial2BackEngS	YS	17	0	1000	0	102	11:06:47	1918961	0	3	3	3	3	3	3	3	3	0	0	3	0	0	0	0	0	0	0	0	0	0		1	0	0	0	0	0	0	0
020713	11:06:47	1	Trial2BackEngS	NS	17	0	1000	1	102	11:06:47	1920477	0	3	3	3	3	3	3	3	3	0	0	3	0	0	0	0	0	0	0	0	0	0		1	0	0	0	0	0	0	0
020713	11:06:47	1	ClockEng6mo	ClockEng6mo	19	Clock1	23843	0	102	11:06:47	1944502	0	3	3	3	3	3	3	3	3	0	0	3	1	0	0	0	0	0	0	0	0	0		1	0	0	0	0	0	0	0
020713	11:06:47	1	ClockEng6mo	ClockEng6mo	19	Clock11	1078	0	102	11:06:47	1945668	0	3	3	3	3	3	3	3	3	0	0	3	1	1	0	0	0	0	0	0	0	0		1	0	0	0	0	0	0	0
020713	11:06:47	1	ClockEng6mo	ClockEng6mo	19	Clock111	1398	0	102	11:06:47	1947168	0	3	3	3	3	3	3	3	3	0	0	3	1	1	1	0	0	0	0	0	0	0		1	0	0	0	0	0	0	0
020713	11:06:47	1	ClockEng6mo	ClockEng6mo	19	Clockdone	803	0	102	11:06:47	1948067	0	3	3	3	3	3	3	3	3	0	0	3	1	1	1	0	0	0	0	0	0	0		1	0	0	0	0	0	0	0
020713	11:06:47	1	FASEngVF6mo	StopEngVF6mo	20		11573	0	102	11:06:47	2023373	0	3	3	3	3	3	3	3	3	0	0	3	1	1	1	0	0	0	0	0	0	0		1	0	0	0	0	0	0	0
020713	11:06:47	1	practiceTOLENG	choice	20	nextround	1562	0	102	11:06:47	2083547	0	3	3	3	3	3	3	3	3	0	0	3	1	1	1	0	0	0	1	2	0	-2	nextround	0	0	0	1924	0	0	2081623	2083547
020713	11:06:47	1	testTOLENG	choice	20	nextround	1299	0	102	11:06:47	2088632	0	3	3	3	3	3	3	3	3	0	0	3	1	1	1	0	0	2	1	2	0	-2	nextround	0	0	0	1644	0	0	2086988	2088632
020713	11:06:47	1	testTOLENG	choice	20	nextround	393	0	102	11:06:47	2090425	0	3	3	3	3	3	3	3	3	0	0	3	1	1	1	0	0	4	1	3	0	-3	nextround	0	0	0	743	0	0	2089682	2090425
020713	11:06:47	1	testTOLENG	choice	20	nextround	447	0	102	11:06:47	2092262	0	3	3	3	3	3	3	3	3	0	0	3	1	1	1	0	0	7	1	4	0	-4	nextround	0	0	0	785	0	0	2091476	2092261
020713	11:06:47	1	testTOLENG	choice	20	nextround	916	0	102	11:06:47	2094580	0	3	3	3	3	3	3	3	3	0	0	3	1	1	1	0	0	10	1	5	0	-5	nextround	0	0	0	1269	0	0	2093311	2094580
