date	time	subject	blockcode	trialcode	values.TaskNumber	response	latency	correct	values.Score	script.starttime	script.elapsedtime	values.ScoreS7	values.Word1	values.Word2	values.Word3	values.Word4	values.Word5	values.Word6	values.Word7	values.Word8	values.DigitSpanFwrd	values.DigitSpanBack	values.ScoreAbs	values.Contour	values.Numbers	values.Hands	values.corsiblockspanFwrd	values.corsiblockspanRev
110612	08:14:32	10004	Language	Language	0	French	13863	0	0	08:14:32	13976	0	0	0	0	0	0	0	0	0	0	0	0	0	0	0	0	0
110612	08:14:32	10004	Session	Session	0	6mo	966	0	0	08:14:32	15003	0	0	0	0	0	0	0	0	0	0	0	0	0	0	0	0	0
110612	08:14:32	10004	HandFr	HandFr	0	RightFr	891641	0	0	08:14:32	906721	0	0	0	0	0	0	0	0	0	0	0	0	0	0	0	0	0
110612	08:14:32	10004	AudioCheckFr	WordsFr	0	0	0	0	0	08:14:32	937824	0	0	0	0	0	0	0	0	0	0	0	0	0	0	0	0	0
110612	08:14:32	10004	CubeFr	CubeFr	1	1Cube	32414	0	0	08:14:32	971761	0	0	0	0	0	0	0	0	0	0	0	0	0	0	0	0	0
110612	08:14:32	10004	pm.simpleFrRight	blank.simpleFr	2	0	1700	1	0	08:14:32	992113	0	0	0	0	0	0	0	0	0	0	0	0	0	0	0	0	0
110612	08:14:32	10004	pm.simpleFrRight	pm.simpleFr	2	57	689	0	0	08:14:32	992819	0	0	0	0	0	0	0	0	0	0	0	0	0	0	0	0	0
110612	08:14:32	10004	pm.simpleFrRight	blank.simpleFr	2	0	2500	1	0	08:14:32	995338	0	0	0	0	0	0	0	0	0	0	0	0	0	0	0	0	0
110612	08:14:32	10004	pm.simpleFrRight	pm.simpleFr	2	57	392	0	0	08:14:32	995751	0	0	0	0	0	0	0	0	0	0	0	0	0	0	0	0	0
110612	08:14:32	10004	pm.simpleFrRight	blank.simpleFr	2	0	1900	1	0	08:14:32	997671	0	0	0	0	0	0	0	0	0	0	0	0	0	0	0	0	0
110612	08:14:32	10004	pm.simpleFrRight	pm.simpleFr	2	57	395	0	0	08:14:32	998084	0	0	0	0	0	0	0	0	0	0	0	0	0	0	0	0	0
110612	08:14:32	10004	pm.simpleFrRight	blank.simpleFr	2	0	2300	1	0	08:14:32	1000403	0	0	0	0	0	0	0	0	0	0	0	0	0	0	0	0	0
110612	08:14:32	10004	pm.simpleFrRight	pm.simpleFr	2	57	303	0	0	08:14:32	1000723	0	0	0	0	0	0	0	0	0	0	0	0	0	0	0	0	0
110612	08:14:32	10004	pm.simpleFrRight	blank.simpleFr	2	0	2400	1	0	08:14:32	1003135	0	0	0	0	0	0	0	0	0	0	0	0	0	0	0	0	0
110612	08:14:32	10004	pm.simpleFrRight	pm.simpleFr	2	57	355	0	0	08:14:32	1003508	0	0	0	0	0	0	0	0	0	0	0	0	0	0	0	0	0
110612	08:14:32	10004	pm.simpleFrRight	blank.simpleFr	2	0	2200	1	0	08:14:32	1005721	0	0	0	0	0	0	0	0	0	0	0	0	0	0	0	0	0
110612	08:14:32	10004	pm.simpleFrRight	pm.simpleFr	2	57	329	0	0	08:14:32	1006067	0	0	0	0	0	0	0	0	0	0	0	0	0	0	0	0	0
110612	08:14:32	10004	pm.simpleFrRight	blank.simpleFr	2	0	1800	1	0	08:14:32	1007880	0	0	0	0	0	0	0	0	0	0	0	0	0	0	0	0	0
110612	08:14:32	10004	pm.simpleFrRight	pm.simpleFr	2	57	442	0	0	08:14:32	1008346	0	0	0	0	0	0	0	0	0	0	0	0	0	0	0	0	0
110612	08:14:32	10004	pm.simpleFrRight	blank.simpleFr	2	0	1600	1	0	08:14:32	1009959	0	0	0	0	0	0	0	0	0	0	0	0	0	0	0	0	0
110612	08:14:32	10004	pm.simpleFrRight	pm.simpleFr	2	57	426	0	0	08:14:32	1010412	0	0	0	0	0	0	0	0	0	0	0	0	0	0	0	0	0
110612	08:14:32	10004	pm.simpleFrRight	blank.simpleFr	2	0	2000	1	0	08:14:32	1012425	0	0	0	0	0	0	0	0	0	0	0	0	0	0	0	0	0
110612	08:14:32	10004	pm.simpleFrRight	pm.simpleFr	2	57	392	0	0	08:14:32	1012838	0	0	0	0	0	0	0	0	0	0	0	0	0	0	0	0	0
110612	08:14:32	10004	pm.simpleFrRight	blank.simpleFr	2	0	2100	1	0	08:14:32	1014957	0	0	0	0	0	0	0	0	0	0	0	0	0	0	0	0	0
110612	08:14:32	10004	pm.simpleFrRight	pm.simpleFr	2	57	388	0	0	08:14:32	1015370	0	0	0	0	0	0	0	0	0	0	0	0	0	0	0	0	0
110612	08:14:32	10004	pm.simpleFrRight	blank.simpleFr	2	0	1500	1	0	08:14:32	1016890	0	0	0	0	0	0	0	0	0	0	0	0	0	0	0	0	0
110612	08:14:32	10004	pm.simpleFrRight	pm.simpleFr	2	57	376	0	0	08:14:32	1017289	0	0	0	0	0	0	0	0	0	0	0	0	0	0	0	0	0
110612	08:14:32	10004	pm.simpleFrRight	blank.simpleFr	2	0	2100	1	0	08:14:32	1019408	0	0	0	0	0	0	0	0	0	0	0	0	0	0	0	0	0
110612	08:14:32	10004	pm.simpleFrRight	pm.simpleFr	2	57	305	0	0	08:14:32	1019742	0	0	0	0	0	0	0	0	0	0	0	0	0	0	0	0	0
110612	08:14:32	10004	pm.simpleFrRight	blank.simpleFr	2	0	2200	1	0	08:14:32	1021954	0	0	0	0	0	0	0	0	0	0	0	0	0	0	0	0	0
110612	08:14:32	10004	pm.simpleFrRight	pm.simpleFr	2	57	335	0	0	08:14:32	1022314	0	0	0	0	0	0	0	0	0	0	0	0	0	0	0	0	0
110612	08:14:32	10004	pm.simpleFrRight	blank.simpleFr	2	0	1600	1	0	08:14:32	1023927	0	0	0	0	0	0	0	0	0	0	0	0	0	0	0	0	0
110612	08:14:32	10004	pm.simpleFrRight	pm.simpleFr	2	57	523	0	0	08:14:32	1024473	0	0	0	0	0	0	0	0	0	0	0	0	0	0	0	0	0
110612	08:14:32	10004	pm.simpleFrRight	blank.simpleFr	2	0	2400	1	0	08:14:32	1026886	0	0	0	0	0	0	0	0	0	0	0	0	0	0	0	0	0
110612	08:14:32	10004	pm.simpleFrRight	pm.simpleFr	2	57	283	0	0	08:14:32	1027192	0	0	0	0	0	0	0	0	0	0	0	0	0	0	0	0	0
110612	08:14:32	10004	pm.simpleFrRight	blank.simpleFr	2	0	1900	1	0	08:14:32	1029111	0	0	0	0	0	0	0	0	0	0	0	0	0	0	0	0	0
110612	08:14:32	10004	pm.simpleFrRight	pm.simpleFr	2	57	297	0	0	08:14:32	1029431	0	0	0	0	0	0	0	0	0	0	0	0	0	0	0	0	0
110612	08:14:32	10004	pm.simpleFrRight	blank.simpleFr	2	0	2000	1	0	08:14:32	1031457	0	0	0	0	0	0	0	0	0	0	0	0	0	0	0	0	0
110612	08:14:32	10004	pm.simpleFrRight	pm.simpleFr	2	57	336	0	0	08:14:32	1031817	0	0	0	0	0	0	0	0	0	0	0	0	0	0	0	0	0
110612	08:14:32	10004	pm.simpleFrRight	blank.simpleFr	2	0	1500	1	0	08:14:32	1033336	0	0	0	0	0	0	0	0	0	0	0	0	0	0	0	0	0
110612	08:14:32	10004	pm.simpleFrRight	pm.simpleFr	2	57	441	0	0	08:14:32	1033803	0	0	0	0	0	0	0	0	0	0	0	0	0	0	0	0	0
110612	08:14:32	10004	pm.simpleFrRight	blank.simpleFr	2	0	2500	1	0	08:14:32	1036322	0	0	0	0	0	0	0	0	0	0	0	0	0	0	0	0	0
110612	08:14:32	10004	pm.simpleFrRight	pm.simpleFr	2	57	335	0	0	08:14:32	1036682	0	0	0	0	0	0	0	0	0	0	0	0	0	0	0	0	0
110612	08:14:32	10004	pm.simpleFrRight	blank.simpleFr	2	0	2300	1	0	08:14:32	1039001	0	0	0	0	0	0	0	0	0	0	0	0	0	0	0	0	0
110612	08:14:32	10004	pm.simpleFrRight	pm.simpleFr	2	57	408	0	0	08:14:32	1039427	0	0	0	0	0	0	0	0	0	0	0	0	0	0	0	0	0
110612	08:14:32	10004	pm.simpleFrRight	blank.simpleFr	2	0	1700	1	0	08:14:32	1041146	0	0	0	0	0	0	0	0	0	0	0	0	0	0	0	0	0
110612	08:14:32	10004	pm.simpleFrRight	pm.simpleFr	2	57	358	0	0	08:14:32	1041533	0	0	0	0	0	0	0	0	0	0	0	0	0	0	0	0	0
110612	08:14:32	10004	pm.simpleFrRight	blank.simpleFr	2	0	1800	1	0	08:14:32	1043346	0	0	0	0	0	0	0	0	0	0	0	0	0	0	0	0	0
110612	08:14:32	10004	pm.simpleFrRight	pm.simpleFr	2	57	319	0	0	08:14:32	1043692	0	0	0	0	0	0	0	0	0	0	0	0	0	0	0	0	0
110612	08:14:32	10004	pm.simpleFrRight	blank.simpleFr	2	0	2400	1	0	08:14:32	1046105	0	0	0	0	0	0	0	0	0	0	0	0	0	0	0	0	0
110612	08:14:32	10004	pm.simpleFrRight	pm.simpleFr	2	57	312	0	0	08:14:32	1046438	0	0	0	0	0	0	0	0	0	0	0	0	0	0	0	0	0
110612	08:14:32	10004	pm.simpleFrRight	blank.simpleFr	2	0	2200	1	0	08:14:32	1048650	0	0	0	0	0	0	0	0	0	0	0	0	0	0	0	0	0
110612	08:14:32	10004	pm.simpleFrRight	pm.simpleFr	2	57	295	0	0	08:14:32	1048970	0	0	0	0	0	0	0	0	0	0	0	0	0	0	0	0	0
110612	08:14:32	10004	pm.simpleFrRight	blank.simpleFr	2	0	1500	1	0	08:14:32	1050489	0	0	0	0	0	0	0	0	0	0	0	0	0	0	0	0	0
110612	08:14:32	10004	pm.simpleFrRight	pm.simpleFr	2	57	423	0	0	08:14:32	1050929	0	0	0	0	0	0	0	0	0	0	0	0	0	0	0	0	0
110612	08:14:32	10004	pm.simpleFrRight	blank.simpleFr	2	0	2300	1	0	08:14:32	1053248	0	0	0	0	0	0	0	0	0	0	0	0	0	0	0	0	0
110612	08:14:32	10004	pm.simpleFrRight	pm.simpleFr	2	57	272	0	0	08:14:32	1053541	0	0	0	0	0	0	0	0	0	0	0	0	0	0	0	0	0
110612	08:14:32	10004	pm.simpleFrRight	blank.simpleFr	2	0	1800	1	0	08:14:32	1055354	0	0	0	0	0	0	0	0	0	0	0	0	0	0	0	0	0
110612	08:14:32	10004	pm.simpleFrRight	pm.simpleFr	2	57	406	0	0	08:14:32	1055780	0	0	0	0	0	0	0	0	0	0	0	0	0	0	0	0	0
110612	08:14:32	10004	pm.simpleFrRight	blank.simpleFr	2	0	2100	1	0	08:14:32	1057900	0	0	0	0	0	0	0	0	0	0	0	0	0	0	0	0	0
110612	08:14:32	10004	pm.simpleFrRight	pm.simpleFr	2	57	293	0	0	08:14:32	1058220	0	0	0	0	0	0	0	0	0	0	0	0	0	0	0	0	0
110612	08:14:32	10004	pm.simpleFrRight	blank.simpleFr	2	0	1600	1	0	08:14:32	1059832	0	0	0	0	0	0	0	0	0	0	0	0	0	0	0	0	0
110612	08:14:32	10004	pm.simpleFrRight	pm.simpleFr	2	57	344	0	0	08:14:32	1060205	0	0	0	0	0	0	0	0	0	0	0	0	0	0	0	0	0
110612	08:14:32	10004	pm.simpleFrRight	blank.simpleFr	2	0	1900	1	0	08:14:32	1062125	0	0	0	0	0	0	0	0	0	0	0	0	0	0	0	0	0
110612	08:14:32	10004	pm.simpleFrRight	pm.simpleFr	2	57	308	0	0	08:14:32	1062458	0	0	0	0	0	0	0	0	0	0	0	0	0	0	0	0	0
110612	08:14:32	10004	pm.simpleFrRight	blank.simpleFr	2	0	2500	1	0	08:14:32	1064977	0	0	0	0	0	0	0	0	0	0	0	0	0	0	0	0	0
110612	08:14:32	10004	pm.simpleFrRight	pm.simpleFr	2	57	287	0	0	08:14:32	1065283	0	0	0	0	0	0	0	0	0	0	0	0	0	0	0	0	0
110612	08:14:32	10004	pm.simpleFrRight	blank.simpleFr	2	0	2000	1	0	08:14:32	1067296	0	0	0	0	0	0	0	0	0	0	0	0	0	0	0	0	0
110612	08:14:32	10004	pm.simpleFrRight	pm.simpleFr	2	57	304	0	0	08:14:32	1067629	0	0	0	0	0	0	0	0	0	0	0	0	0	0	0	0	0
110612	08:14:32	10004	pm.simpleFrRight	blank.simpleFr	2	0	1700	1	0	08:14:32	1069349	0	0	0	0	0	0	0	0	0	0	0	0	0	0	0	0	0
110612	08:14:32	10004	pm.simpleFrRight	pm.simpleFr	2	57	412	0	0	08:14:32	1069788	0	0	0	0	0	0	0	0	0	0	0	0	0	0	0	0	0
110612	08:14:32	10004	pm.simpleFrRight	blank.simpleFr	2	0	1800	1	0	08:14:32	1071601	0	0	0	0	0	0	0	0	0	0	0	0	0	0	0	0	0
110612	08:14:32	10004	pm.simpleFrRight	pm.simpleFr	2	57	303	0	0	08:14:32	1071921	0	0	0	0	0	0	0	0	0	0	0	0	0	0	0	0	0
110612	08:14:32	10004	pm.simpleFrRight	blank.simpleFr	2	0	2300	1	0	08:14:32	1074240	0	0	0	0	0	0	0	0	0	0	0	0	0	0	0	0	0
110612	08:14:32	10004	pm.simpleFrRight	pm.simpleFr	2	57	288	0	0	08:14:32	1074546	0	0	0	0	0	0	0	0	0	0	0	0	0	0	0	0	0
110612	08:14:32	10004	pm.simpleFrRight	blank.simpleFr	2	0	2100	1	0	08:14:32	1076665	0	0	0	0	0	0	0	0	0	0	0	0	0	0	0	0	0
110612	08:14:32	10004	pm.simpleFrRight	pm.simpleFr	2	57	327	0	0	08:14:32	1077012	0	0	0	0	0	0	0	0	0	0	0	0	0	0	0	0	0
110612	08:14:32	10004	pm.simpleFrRight	blank.simpleFr	2	0	1900	1	0	08:14:32	1078931	0	0	0	0	0	0	0	0	0	0	0	0	0	0	0	0	0
110612	08:14:32	10004	pm.simpleFrRight	pm.simpleFr	2	57	317	0	0	08:14:32	1079264	0	0	0	0	0	0	0	0	0	0	0	0	0	0	0	0	0
110612	08:14:32	10004	pm.simpleFrRight	blank.simpleFr	2	0	1600	1	0	08:14:32	1080877	0	0	0	0	0	0	0	0	0	0	0	0	0	0	0	0	0
110612	08:14:32	10004	pm.simpleFrRight	pm.simpleFr	2	57	387	0	0	08:14:32	1081290	0	0	0	0	0	0	0	0	0	0	0	0	0	0	0	0	0
110612	08:14:32	10004	pm.simpleFrRight	blank.simpleFr	2	0	1500	1	0	08:14:32	1082810	0	0	0	0	0	0	0	0	0	0	0	0	0	0	0	0	0
110612	08:14:32	10004	pm.simpleFrRight	pm.simpleFr	2	57	406	0	0	08:14:32	1083236	0	0	0	0	0	0	0	0	0	0	0	0	0	0	0	0	0
110612	08:14:32	10004	pm.simpleFrRight	blank.simpleFr	2	0	2000	1	0	08:14:32	1085249	0	0	0	0	0	0	0	0	0	0	0	0	0	0	0	0	0
110612	08:14:32	10004	pm.simpleFrRight	pm.simpleFr	2	57	319	0	0	08:14:32	1085595	0	0	0	0	0	0	0	0	0	0	0	0	0	0	0	0	0
110612	08:14:32	10004	Trial2BackFr	N	3	0	1000	1	1	08:14:32	1136508	0	0	0	0	0	0	0	0	0	0	0	0	0	0	0	0	0
110612	08:14:32	10004	Trial2BackFr	N	3	0	1000	1	2	08:14:32	1138014	0	0	0	0	0	0	0	0	0	0	0	0	0	0	0	0	0
110612	08:14:32	10004	Trial2BackFr	N	3	0	1000	1	3	08:14:32	1139520	0	0	0	0	0	0	0	0	0	0	0	0	0	0	0	0	0
110612	08:14:32	10004	Trial2BackFr	N	3	0	1000	1	4	08:14:32	1141026	0	0	0	0	0	0	0	0	0	0	0	0	0	0	0	0	0
110612	08:14:32	10004	Trial2BackFr	N	3	0	1000	1	5	08:14:32	1142532	0	0	0	0	0	0	0	0	0	0	0	0	0	0	0	0	0
110612	08:14:32	10004	Trial2BackFr	N	3	0	1000	1	6	08:14:32	1144038	0	0	0	0	0	0	0	0	0	0	0	0	0	0	0	0	0
110612	08:14:32	10004	Trial2BackFr	N	3	0	1000	1	7	08:14:32	1145544	0	0	0	0	0	0	0	0	0	0	0	0	0	0	0	0	0
110612	08:14:32	10004	Trial2BackFr	N	3	0	1000	1	8	08:14:32	1147063	0	0	0	0	0	0	0	0	0	0	0	0	0	0	0	0	0
110612	08:14:32	10004	Trial2BackFr	Y	3	57	683	1	9	08:14:32	1148263	0	0	0	0	0	0	0	0	0	0	0	0	0	0	0	0	0
110612	08:14:32	10004	Trial2BackFr	N	3	0	1000	1	10	08:14:32	1150076	0	0	0	0	0	0	0	0	0	0	0	0	0	0	0	0	0
110612	08:14:32	10004	Trial2BackFr	N	3	0	1000	1	11	08:14:32	1151595	0	0	0	0	0	0	0	0	0	0	0	0	0	0	0	0	0
110612	08:14:32	10004	Trial2BackFr	N	3	0	1000	1	12	08:14:32	1153101	0	0	0	0	0	0	0	0	0	0	0	0	0	0	0	0	0
110612	08:14:32	10004	Trial2BackFr	Y	3	57	773	1	13	08:14:32	1154394	0	0	0	0	0	0	0	0	0	0	0	0	0	0	0	0	0
110612	08:14:32	10004	Trial2BackFr	N	3	0	1000	1	14	08:14:32	1156113	0	0	0	0	0	0	0	0	0	0	0	0	0	0	0	0	0
110612	08:14:32	10004	Trial2BackFr	N	3	0	1000	1	15	08:14:32	1157619	0	0	0	0	0	0	0	0	0	0	0	0	0	0	0	0	0
110612	08:14:32	10004	Trial2BackFr	N	3	0	1000	1	16	08:14:32	1159125	0	0	0	0	0	0	0	0	0	0	0	0	0	0	0	0	0
110612	08:14:32	10004	Trial2BackFr	N	3	0	1000	1	17	08:14:32	1160631	0	0	0	0	0	0	0	0	0	0	0	0	0	0	0	0	0
110612	08:14:32	10004	Trial2BackFr	N	3	0	1000	1	18	08:14:32	1162138	0	0	0	0	0	0	0	0	0	0	0	0	0	0	0	0	0
110612	08:14:32	10004	Trial2BackFr	Y	3	57	473	1	19	08:14:32	1163124	0	0	0	0	0	0	0	0	0	0	0	0	0	0	0	0	0
110612	08:14:32	10004	Trial2BackFr	N	3	0	1000	1	20	08:14:32	1165150	0	0	0	0	0	0	0	0	0	0	0	0	0	0	0	0	0
110612	08:14:32	10004	Trial2BackFr	N	3	0	1000	1	21	08:14:32	1166656	0	0	0	0	0	0	0	0	0	0	0	0	0	0	0	0	0
110612	08:14:32	10004	Trial2BackFr	N	3	0	1000	1	22	08:14:32	1168175	0	0	0	0	0	0	0	0	0	0	0	0	0	0	0	0	0
110612	08:14:32	10004	Trial2BackFr	N	3	0	1000	1	23	08:14:32	1169681	0	0	0	0	0	0	0	0	0	0	0	0	0	0	0	0	0
110612	08:14:32	10004	Trial2BackFr	Y	3	57	865	1	24	08:14:32	1171054	0	0	0	0	0	0	0	0	0	0	0	0	0	0	0	0	0
110612	08:14:32	10004	Trial2BackFr	N	3	0	1000	1	25	08:14:32	1172693	0	0	0	0	0	0	0	0	0	0	0	0	0	0	0	0	0
110612	08:14:32	10004	Trial2BackFr	N	3	0	1000	1	26	08:14:32	1174199	0	0	0	0	0	0	0	0	0	0	0	0	0	0	0	0	0
110612	08:14:32	10004	Trial2BackFr	N	3	0	1000	1	27	08:14:32	1175705	0	0	0	0	0	0	0	0	0	0	0	0	0	0	0	0	0
110612	08:14:32	10004	Trial2BackFr	N	3	0	1000	1	28	08:14:32	1177211	0	0	0	0	0	0	0	0	0	0	0	0	0	0	0	0	0
110612	08:14:32	10004	Trial2BackFr	N	3	0	1000	1	29	08:14:32	1178731	0	0	0	0	0	0	0	0	0	0	0	0	0	0	0	0	0
110612	08:14:32	10004	Trial2BackFr	N	3	0	1000	1	30	08:14:32	1180237	0	0	0	0	0	0	0	0	0	0	0	0	0	0	0	0	0
110612	08:14:32	10004	Trial2BackFr	Y	3	57	405	1	31	08:14:32	1181156	0	0	0	0	0	0	0	0	0	0	0	0	0	0	0	0	0
110612	08:14:32	10004	Trial2BackFr	N	3	0	1000	1	32	08:14:32	1183249	0	0	0	0	0	0	0	0	0	0	0	0	0	0	0	0	0
110612	08:14:32	10004	Trial2BackFr	N	3	0	1000	1	33	08:14:32	1184755	0	0	0	0	0	0	0	0	0	0	0	0	0	0	0	0	0
110612	08:14:32	10004	Trial2BackFr	N	3	0	1000	1	34	08:14:32	1186261	0	0	0	0	0	0	0	0	0	0	0	0	0	0	0	0	0
110612	08:14:32	10004	Trial2BackFr	Y	3	0	1000	0	34	08:14:32	1187767	0	0	0	0	0	0	0	0	0	0	0	0	0	0	0	0	0
110612	08:14:32	10004	Trial2BackFr	N	3	0	1000	1	35	08:14:32	1189274	0	0	0	0	0	0	0	0	0	0	0	0	0	0	0	0	0
110612	08:14:32	10004	Trial2BackFr	N	3	0	1000	1	36	08:14:32	1190779	0	0	0	0	0	0	0	0	0	0	0	0	0	0	0	0	0
110612	08:14:32	10004	Trial2BackFr	N	3	0	1000	1	37	08:14:32	1192299	0	0	0	0	0	0	0	0	0	0	0	0	0	0	0	0	0
110612	08:14:32	10004	Trial2BackFr	N	3	0	1000	1	38	08:14:32	1193805	0	0	0	0	0	0	0	0	0	0	0	0	0	0	0	0	0
110612	08:14:32	10004	Trial2BackFr	N	3	0	1000	1	39	08:14:32	1195311	0	0	0	0	0	0	0	0	0	0	0	0	0	0	0	0	0
110612	08:14:32	10004	Trial2BackFr	N	3	0	1000	1	40	08:14:32	1196817	0	0	0	0	0	0	0	0	0	0	0	0	0	0	0	0	0
110612	08:14:32	10004	Trial2BackFr	Y	3	57	529	1	41	08:14:32	1197856	0	0	0	0	0	0	0	0	0	0	0	0	0	0	0	0	0
110612	08:14:32	10004	Trial2BackFr	N	3	0	1000	1	42	08:14:32	1199829	0	0	0	0	0	0	0	0	0	0	0	0	0	0	0	0	0
110612	08:14:32	10004	Trial2BackFr	N	3	0	1000	1	43	08:14:32	1201335	0	0	0	0	0	0	0	0	0	0	0	0	0	0	0	0	0
110612	08:14:32	10004	Trial2BackFr	N	3	0	1000	1	44	08:14:32	1202841	0	0	0	0	0	0	0	0	0	0	0	0	0	0	0	0	0
110612	08:14:32	10004	Trial2BackFr	N	3	0	1000	1	45	08:14:32	1204347	0	0	0	0	0	0	0	0	0	0	0	0	0	0	0	0	0
110612	08:14:32	10004	Trial2BackFr	Y	3	0	1000	0	45	08:14:32	1205853	0	0	0	0	0	0	0	0	0	0	0	0	0	0	0	0	0
110612	08:14:32	10004	Trial2BackFr	N	3	0	1000	1	46	08:14:32	1207359	0	0	0	0	0	0	0	0	0	0	0	0	0	0	0	0	0
110612	08:14:32	10004	Trial2BackFr	N	3	0	1000	1	47	08:14:32	1208865	0	0	0	0	0	0	0	0	0	0	0	0	0	0	0	0	0
110612	08:14:32	10004	Trial2BackFr	N	3	0	1000	1	48	08:14:32	1210372	0	0	0	0	0	0	0	0	0	0	0	0	0	0	0	0	0
110612	08:14:32	10004	Trial2BackFr	N	3	0	1000	1	49	08:14:32	1211891	0	0	0	0	0	0	0	0	0	0	0	0	0	0	0	0	0
110612	08:14:32	10004	Trial2BackFr	N	3	0	1000	1	50	08:14:32	1213397	0	0	0	0	0	0	0	0	0	0	0	0	0	0	0	0	0
110612	08:14:32	10004	Trial2BackFr	Y	3	57	444	1	51	08:14:32	1214356	0	0	0	0	0	0	0	0	0	0	0	0	0	0	0	0	0
110612	08:14:32	10004	Trial2BackFr	N	3	0	1000	1	52	08:14:32	1216409	0	0	0	0	0	0	0	0	0	0	0	0	0	0	0	0	0
110612	08:14:32	10004	Trial2BackFr	N	3	0	1000	1	53	08:14:32	1217915	0	0	0	0	0	0	0	0	0	0	0	0	0	0	0	0	0
110612	08:14:32	10004	Trial2BackFr	N	3	0	1000	1	54	08:14:32	1219421	0	0	0	0	0	0	0	0	0	0	0	0	0	0	0	0	0
110612	08:14:32	10004	Trial2BackFr	N	3	0	1000	1	55	08:14:32	1220927	0	0	0	0	0	0	0	0	0	0	0	0	0	0	0	0	0
110612	08:14:32	10004	Trial2BackFr	N	3	0	1000	1	56	08:14:32	1222433	0	0	0	0	0	0	0	0	0	0	0	0	0	0	0	0	0
110612	08:14:32	10004	Trial2BackFr	N	3	0	1000	1	57	08:14:32	1223939	0	0	0	0	0	0	0	0	0	0	0	0	0	0	0	0	0
110612	08:14:32	10004	Trial2BackFr	Y	3	57	446	1	58	08:14:32	1224899	0	0	0	0	0	0	0	0	0	0	0	0	0	0	0	0	0
110612	08:14:32	10004	Trial2BackFr	N	3	0	1000	1	59	08:14:32	1226951	0	0	0	0	0	0	0	0	0	0	0	0	0	0	0	0	0
110612	08:14:32	10004	Trial2BackFr	N	3	0	1000	1	60	08:14:32	1228471	0	0	0	0	0	0	0	0	0	0	0	0	0	0	0	0	0
110612	08:14:32	10004	Trial2BackFr	Y	3	0	1000	0	60	08:14:32	1229977	0	0	0	0	0	0	0	0	0	0	0	0	0	0	0	0	0
110612	08:14:32	10004	Trial2BackFr	N	3	0	1000	1	61	08:14:32	1231483	0	0	0	0	0	0	0	0	0	0	0	0	0	0	0	0	0
110612	08:14:32	10004	Trial2BackFr	N	3	0	1000	1	62	08:14:32	1232989	0	0	0	0	0	0	0	0	0	0	0	0	0	0	0	0	0
110612	08:14:32	10004	Trial2BackFr	N	3	0	1000	1	63	08:14:32	1234495	0	0	0	0	0	0	0	0	0	0	0	0	0	0	0	0	0
110612	08:14:32	10004	Trial2BackFr	N	3	0	1000	1	64	08:14:32	1236001	0	0	0	0	0	0	0	0	0	0	0	0	0	0	0	0	0
110612	08:14:32	10004	Trial2BackFr	N	3	57	784	0	64	08:14:32	1237294	0	0	0	0	0	0	0	0	0	0	0	0	0	0	0	0	0
110612	08:14:32	10004	Trial2BackFr	N	3	0	1000	1	65	08:14:32	1239013	0	0	0	0	0	0	0	0	0	0	0	0	0	0	0	0	0
110612	08:14:32	10004	Trial2BackFr	N	3	0	1000	1	66	08:14:32	1240519	0	0	0	0	0	0	0	0	0	0	0	0	0	0	0	0	0
110612	08:14:32	10004	Trial2BackFr	N	3	0	1000	1	67	08:14:32	1242038	0	0	0	0	0	0	0	0	0	0	0	0	0	0	0	0	0
110612	08:14:32	10004	Trial2BackFr	N	3	0	1000	1	68	08:14:32	1243545	0	0	0	0	0	0	0	0	0	0	0	0	0	0	0	0	0
110612	08:14:32	10004	Trial2BackFr	N	3	0	1000	1	69	08:14:32	1245051	0	0	0	0	0	0	0	0	0	0	0	0	0	0	0	0	0
110612	08:14:32	10004	Trial2BackFr	Y	3	57	486	1	70	08:14:32	1246050	0	0	0	0	0	0	0	0	0	0	0	0	0	0	0	0	0
110612	08:14:32	10004	Trial2BackFr	N	3	0	1000	1	71	08:14:32	1248063	0	0	0	0	0	0	0	0	0	0	0	0	0	0	0	0	0
110612	08:14:32	10004	Trial2BackFr	N	3	0	1000	1	72	08:14:32	1249569	0	0	0	0	0	0	0	0	0	0	0	0	0	0	0	0	0
110612	08:14:32	10004	Trial2BackFr	N	3	0	1000	1	73	08:14:32	1251075	0	0	0	0	0	0	0	0	0	0	0	0	0	0	0	0	0
110612	08:14:32	10004	Trial2BackFr	Y	3	57	509	1	74	08:14:32	1252101	0	0	0	0	0	0	0	0	0	0	0	0	0	0	0	0	0
110612	08:14:32	10004	Trial2BackFr	N	3	0	1000	1	75	08:14:32	1254087	0	0	0	0	0	0	0	0	0	0	0	0	0	0	0	0	0
110612	08:14:32	10004	Trial2BackFr	N	3	0	1000	1	76	08:14:32	1255593	0	0	0	0	0	0	0	0	0	0	0	0	0	0	0	0	0
110612	08:14:32	10004	Trial2BackFr	N	3	0	1000	1	77	08:14:32	1257099	0	0	0	0	0	0	0	0	0	0	0	0	0	0	0	0	0
110612	08:14:32	10004	Trial2BackFr	N	3	0	1000	1	78	08:14:32	1258605	0	0	0	0	0	0	0	0	0	0	0	0	0	0	0	0	0
110612	08:14:32	10004	Trial2BackFr	N	3	0	1000	1	79	08:14:32	1260111	0	0	0	0	0	0	0	0	0	0	0	0	0	0	0	0	0
110612	08:14:32	10004	Trial2BackFr	Y	3	57	577	1	80	08:14:32	1261204	0	0	0	0	0	0	0	0	0	0	0	0	0	0	0	0	0
110612	08:14:32	10004	Trial2BackFr	N	3	0	1000	1	81	08:14:32	1263123	0	0	0	0	0	0	0	0	0	0	0	0	0	0	0	0	0
110612	08:14:32	10004	Trial2BackFr	N	3	0	1000	1	82	08:14:32	1264629	0	0	0	0	0	0	0	0	0	0	0	0	0	0	0	0	0
110612	08:14:32	10004	Trial2BackFr	N	3	0	1000	1	83	08:14:32	1266135	0	0	0	0	0	0	0	0	0	0	0	0	0	0	0	0	0
110612	08:14:32	10004	Trial2BackFr	N	3	0	1000	1	84	08:14:32	1267641	0	0	0	0	0	0	0	0	0	0	0	0	0	0	0	0	0
110612	08:14:32	10004	Trial2BackFr	N	3	0	1000	1	85	08:14:32	1269147	0	0	0	0	0	0	0	0	0	0	0	0	0	0	0	0	0
110612	08:14:32	10004	Trial2BackFr	N	3	0	1000	1	86	08:14:32	1270667	0	0	0	0	0	0	0	0	0	0	0	0	0	0	0	0	0
110612	08:14:32	10004	Trial2BackFr	N	3	0	1000	1	87	08:14:32	1272173	0	0	0	0	0	0	0	0	0	0	0	0	0	0	0	0	0
110612	08:14:32	10004	Trial2BackFr	N	3	0	1000	1	88	08:14:32	1273679	0	0	0	0	0	0	0	0	0	0	0	0	0	0	0	0	0
110612	08:14:32	10004	Trial2BackFr	N	3	0	1000	1	89	08:14:32	1275185	0	0	0	0	0	0	0	0	0	0	0	0	0	0	0	0	0
110612	08:14:32	10004	Trial2BackFr	Y	3	57	543	1	90	08:14:32	1276238	0	0	0	0	0	0	0	0	0	0	0	0	0	0	0	0	0
110612	08:14:32	10004	Trial2BackFr	N	3	0	1000	1	91	08:14:32	1278197	0	0	0	0	0	0	0	0	0	0	0	0	0	0	0	0	0
110612	08:14:32	10004	Trial2BackFr	N	3	0	1000	1	92	08:14:32	1279717	0	0	0	0	0	0	0	0	0	0	0	0	0	0	0	0	0
110612	08:14:32	10004	Trial2BackFr	N	3	0	1000	1	93	08:14:32	1281223	0	0	0	0	0	0	0	0	0	0	0	0	0	0	0	0	0
110612	08:14:32	10004	Trial2BackFr	N	3	0	1000	1	94	08:14:32	1282729	0	0	0	0	0	0	0	0	0	0	0	0	0	0	0	0	0
110612	08:14:32	10004	Trial2BackFr	N	3	0	1000	1	95	08:14:32	1284235	0	0	0	0	0	0	0	0	0	0	0	0	0	0	0	0	0
110612	08:14:32	10004	Trial2BackFr	N	3	0	1000	1	96	08:14:32	1285741	0	0	0	0	0	0	0	0	0	0	0	0	0	0	0	0	0
110612	08:14:32	10004	Trial2BackFr	N	3	0	1000	1	97	08:14:32	1287247	0	0	0	0	0	0	0	0	0	0	0	0	0	0	0	0	0
110612	08:14:32	10004	Trial2BackFr	N	3	0	1000	1	98	08:14:32	1288766	0	0	0	0	0	0	0	0	0	0	0	0	0	0	0	0	0
110612	08:14:32	10004	Trial2BackFr	Y	3	57	577	1	99	08:14:32	1289859	0	0	0	0	0	0	0	0	0	0	0	0	0	0	0	0	0
110612	08:14:32	10004	Trial2BackFr	N	3	0	1000	1	100	08:14:32	1291778	0	0	0	0	0	0	0	0	0	0	0	0	0	0	0	0	0
110612	08:14:32	10004	Trial2BackFr	N	3	0	1000	1	101	08:14:32	1293284	0	0	0	0	0	0	0	0	0	0	0	0	0	0	0	0	0
110612	08:14:32	10004	Trial2BackFr	N	3	0	1000	1	102	08:14:32	1294790	0	0	0	0	0	0	0	0	0	0	0	0	0	0	0	0	0
110612	08:14:32	10004	Trial2BackFr	N	3	0	1000	1	103	08:14:32	1296297	0	0	0	0	0	0	0	0	0	0	0	0	0	0	0	0	0
110612	08:14:32	10004	Trial2BackFr	Y	3	0	1000	0	103	08:14:32	1297803	0	0	0	0	0	0	0	0	0	0	0	0	0	0	0	0	0
110612	08:14:32	10004	Trial2BackFr	N	3	57	84	0	103	08:14:32	1298402	0	0	0	0	0	0	0	0	0	0	0	0	0	0	0	0	0
110612	08:14:32	10004	Trial2BackFr	N	3	0	1000	1	104	08:14:32	1300815	0	0	0	0	0	0	0	0	0	0	0	0	0	0	0	0	0
110612	08:14:32	10004	Trial2BackFr	N	3	0	1000	1	105	08:14:32	1302321	0	0	0	0	0	0	0	0	0	0	0	0	0	0	0	0	0
110612	08:14:32	10004	Trial2BackFr	Y	3	57	814	1	106	08:14:32	1303654	0	0	0	0	0	0	0	0	0	0	0	0	0	0	0	0	0
110612	08:14:32	10004	Trial2BackFr	N	3	0	1000	1	107	08:14:32	1305333	0	0	0	0	0	0	0	0	0	0	0	0	0	0	0	0	0
110612	08:14:32	10004	Trial2BackFr	N	3	0	1000	1	108	08:14:32	1306839	0	0	0	0	0	0	0	0	0	0	0	0	0	0	0	0	0
110612	08:14:32	10004	Trial2BackFr	N	3	0	1000	1	109	08:14:32	1308345	0	0	0	0	0	0	0	0	0	0	0	0	0	0	0	0	0
110612	08:14:32	10004	Trial2BackFr	N	3	0	1000	1	110	08:14:32	1309851	0	0	0	0	0	0	0	0	0	0	0	0	0	0	0	0	0
110612	08:14:32	10004	Trial2BackFr	N	3	0	1000	1	111	08:14:32	1311357	0	0	0	0	0	0	0	0	0	0	0	0	0	0	0	0	0
110612	08:14:32	10004	Trial2BackFr	Y	3	57	866	1	112	08:14:32	1312743	0	0	0	0	0	0	0	0	0	0	0	0	0	0	0	0	0
110612	08:14:32	10004	Trial2BackFr	N	3	0	1000	1	113	08:14:32	1314369	0	0	0	0	0	0	0	0	0	0	0	0	0	0	0	0	0
110612	08:14:32	10004	Trial2BackFr	N	3	0	1000	1	114	08:14:32	1315875	0	0	0	0	0	0	0	0	0	0	0	0	0	0	0	0	0
110612	08:14:32	10004	Trial2BackFr	N	3	0	1000	1	115	08:14:32	1317395	0	0	0	0	0	0	0	0	0	0	0	0	0	0	0	0	0
110612	08:14:32	10004	Trial2BackFr	Y	3	57	812	1	116	08:14:32	1318727	0	0	0	0	0	0	0	0	0	0	0	0	0	0	0	0	0
110612	08:14:32	10004	Trial3BackFr	NN	4	0	1000	1	116	08:14:32	1343304	0	0	0	0	0	0	0	0	0	0	0	0	0	0	0	0	0
110612	08:14:32	10004	Trial3BackFr	NN	4	0	1000	1	116	08:14:32	1344810	0	0	0	0	0	0	0	0	0	0	0	0	0	0	0	0	0
110612	08:14:32	10004	Trial3BackFr	NN	4	0	1000	1	116	08:14:32	1346316	0	0	0	0	0	0	0	0	0	0	0	0	0	0	0	0	0
110612	08:14:32	10004	Trial3BackFr	YY	4	0	1000	0	116	08:14:32	1347822	0	0	0	0	0	0	0	0	0	0	0	0	0	0	0	0	0
110612	08:14:32	10004	Trial3BackFr	NN	4	0	1000	1	116	08:14:32	1349328	0	0	0	0	0	0	0	0	0	0	0	0	0	0	0	0	0
110612	08:14:32	10004	Trial3BackFr	NN	4	0	1000	1	116	08:14:32	1350834	0	0	0	0	0	0	0	0	0	0	0	0	0	0	0	0	0
110612	08:14:32	10004	Trial3BackFr	NN	4	0	1000	1	116	08:14:32	1352354	0	0	0	0	0	0	0	0	0	0	0	0	0	0	0	0	0
110612	08:14:32	10004	Trial3BackFr	NN	4	57	844	0	116	08:14:32	1353713	0	0	0	0	0	0	0	0	0	0	0	0	0	0	0	0	0
110612	08:14:32	10004	Trial3BackFr	YY	4	0	1000	0	116	08:14:32	1355366	0	0	0	0	0	0	0	0	0	0	0	0	0	0	0	0	0
110612	08:14:32	10004	Trial3BackFr	NN	4	0	1000	1	116	08:14:32	1356872	0	0	0	0	0	0	0	0	0	0	0	0	0	0	0	0	0
110612	08:14:32	10004	Trial3BackFr	NN	4	0	1000	1	116	08:14:32	1358378	0	0	0	0	0	0	0	0	0	0	0	0	0	0	0	0	0
110612	08:14:32	10004	Trial3BackFr	NN	4	0	1000	1	116	08:14:32	1359884	0	0	0	0	0	0	0	0	0	0	0	0	0	0	0	0	0
110612	08:14:32	10004	Trial3BackFr	NN	4	0	1000	1	116	08:14:32	1361390	0	0	0	0	0	0	0	0	0	0	0	0	0	0	0	0	0
110612	08:14:32	10004	Trial3BackFr	NN	4	57	655	0	116	08:14:32	1362563	0	0	0	0	0	0	0	0	0	0	0	0	0	0	0	0	0
110612	08:14:32	10004	Trial3BackFr	NN	4	0	1000	1	116	08:14:32	1364402	0	0	0	0	0	0	0	0	0	0	0	0	0	0	0	0	0
110612	08:14:32	10004	Trial3BackFr	NN	4	0	1000	1	116	08:14:32	1365908	0	0	0	0	0	0	0	0	0	0	0	0	0	0	0	0	0
110612	08:14:32	10004	Trial3BackFr	YY	4	0	1000	0	116	08:14:32	1367414	0	0	0	0	0	0	0	0	0	0	0	0	0	0	0	0	0
110612	08:14:32	10004	Trial3BackFr	NN	4	0	1000	1	116	08:14:32	1368920	0	0	0	0	0	0	0	0	0	0	0	0	0	0	0	0	0
110612	08:14:32	10004	Trial3BackFr	NN	4	0	1000	1	116	08:14:32	1370426	0	0	0	0	0	0	0	0	0	0	0	0	0	0	0	0	0
110612	08:14:32	10004	Trial3BackFr	NN	4	0	1000	1	116	08:14:32	1371932	0	0	0	0	0	0	0	0	0	0	0	0	0	0	0	0	0
110612	08:14:32	10004	Trial3BackFr	NN	4	0	1000	1	116	08:14:32	1373439	0	0	0	0	0	0	0	0	0	0	0	0	0	0	0	0	0
110612	08:14:32	10004	Trial3BackFr	NN	4	0	1000	1	116	08:14:32	1374945	0	0	0	0	0	0	0	0	0	0	0	0	0	0	0	0	0
110612	08:14:32	10004	Trial3BackFr	YY	4	57	541	1	116	08:14:32	1375998	0	0	0	0	0	0	0	0	0	0	0	0	0	0	0	0	0
110612	08:14:32	10004	Trial3BackFr	NN	4	0	1000	1	116	08:14:32	1377957	0	0	0	0	0	0	0	0	0	0	0	0	0	0	0	0	0
110612	08:14:32	10004	Trial3BackFr	NN	4	0	1000	1	116	08:14:32	1379463	0	0	0	0	0	0	0	0	0	0	0	0	0	0	0	0	0
110612	08:14:32	10004	Trial3BackFr	NN	4	0	1000	1	116	08:14:32	1380969	0	0	0	0	0	0	0	0	0	0	0	0	0	0	0	0	0
110612	08:14:32	10004	Trial3BackFr	YY	4	57	772	1	116	08:14:32	1382262	0	0	0	0	0	0	0	0	0	0	0	0	0	0	0	0	0
110612	08:14:32	10004	Trial3BackFr	NN	4	0	1000	1	116	08:14:32	1383981	0	0	0	0	0	0	0	0	0	0	0	0	0	0	0	0	0
110612	08:14:32	10004	Trial3BackFr	NN	4	0	1000	1	116	08:14:32	1385487	0	0	0	0	0	0	0	0	0	0	0	0	0	0	0	0	0
110612	08:14:32	10004	Trial3BackFr	NN	4	0	1000	1	116	08:14:32	1386993	0	0	0	0	0	0	0	0	0	0	0	0	0	0	0	0	0
110612	08:14:32	10004	Trial3BackFr	YY	4	57	940	1	116	08:14:32	1388446	0	0	0	0	0	0	0	0	0	0	0	0	0	0	0	0	0
110612	08:14:32	10004	Trial3BackFr	NN	4	0	1000	1	116	08:14:32	1390005	0	0	0	0	0	0	0	0	0	0	0	0	0	0	0	0	0
110612	08:14:32	10004	Trial3BackFr	NN	4	0	1000	1	116	08:14:32	1391511	0	0	0	0	0	0	0	0	0	0	0	0	0	0	0	0	0
110612	08:14:32	10004	Trial3BackFr	NN	4	0	1000	1	116	08:14:32	1393017	0	0	0	0	0	0	0	0	0	0	0	0	0	0	0	0	0
110612	08:14:32	10004	Trial3BackFr	NN	4	0	1000	1	116	08:14:32	1394537	0	0	0	0	0	0	0	0	0	0	0	0	0	0	0	0	0
110612	08:14:32	10004	Trial3BackFr	NN	4	0	1000	1	116	08:14:32	1396043	0	0	0	0	0	0	0	0	0	0	0	0	0	0	0	0	0
110612	08:14:32	10004	Trial3BackFr	NN	4	0	1000	1	116	08:14:32	1397549	0	0	0	0	0	0	0	0	0	0	0	0	0	0	0	0	0
110612	08:14:32	10004	Trial3BackFr	NN	4	0	1000	1	116	08:14:32	1399055	0	0	0	0	0	0	0	0	0	0	0	0	0	0	0	0	0
110612	08:14:32	10004	Trial3BackFr	NN	4	57	462	0	116	08:14:32	1400028	0	0	0	0	0	0	0	0	0	0	0	0	0	0	0	0	0
110612	08:14:32	10004	Trial3BackFr	NN	4	0	1000	1	116	08:14:32	1402067	0	0	0	0	0	0	0	0	0	0	0	0	0	0	0	0	0
110612	08:14:32	10004	Trial3BackFr	NN	4	0	1000	1	116	08:14:32	1403573	0	0	0	0	0	0	0	0	0	0	0	0	0	0	0	0	0
110612	08:14:32	10004	Trial3BackFr	YY	4	0	1000	0	116	08:14:32	1405079	0	0	0	0	0	0	0	0	0	0	0	0	0	0	0	0	0
110612	08:14:32	10004	Trial3BackFr	NN	4	0	1000	1	116	08:14:32	1406585	0	0	0	0	0	0	0	0	0	0	0	0	0	0	0	0	0
110612	08:14:32	10004	Trial3BackFr	NN	4	0	1000	1	116	08:14:32	1408091	0	0	0	0	0	0	0	0	0	0	0	0	0	0	0	0	0
110612	08:14:32	10004	Trial3BackFr	NN	4	0	1000	1	116	08:14:32	1409597	0	0	0	0	0	0	0	0	0	0	0	0	0	0	0	0	0
110612	08:14:32	10004	Trial3BackFr	NN	4	0	1000	1	116	08:14:32	1411103	0	0	0	0	0	0	0	0	0	0	0	0	0	0	0	0	0
110612	08:14:32	10004	Trial3BackFr	YY	4	57	605	1	116	08:14:32	1412223	0	0	0	0	0	0	0	0	0	0	0	0	0	0	0	0	0
110612	08:14:32	10004	Trial3BackFr	NN	4	0	1000	1	116	08:14:32	1414115	0	0	0	0	0	0	0	0	0	0	0	0	0	0	0	0	0
110612	08:14:32	10004	Trial3BackFr	NN	4	0	1000	1	116	08:14:32	1415635	0	0	0	0	0	0	0	0	0	0	0	0	0	0	0	0	0
110612	08:14:32	10004	Trial3BackFr	NN	4	0	1000	1	116	08:14:32	1417141	0	0	0	0	0	0	0	0	0	0	0	0	0	0	0	0	0
110612	08:14:32	10004	Trial3BackFr	NN	4	0	1000	1	116	08:14:32	1418647	0	0	0	0	0	0	0	0	0	0	0	0	0	0	0	0	0
110612	08:14:32	10004	Trial3BackFr	NN	4	0	1000	1	116	08:14:32	1420153	0	0	0	0	0	0	0	0	0	0	0	0	0	0	0	0	0
110612	08:14:32	10004	Trial3BackFr	YY	4	57	787	1	116	08:14:32	1421459	0	0	0	0	0	0	0	0	0	0	0	0	0	0	0	0	0
110612	08:14:32	10004	Trial3BackFr	NN	4	0	1000	1	116	08:14:32	1423165	0	0	0	0	0	0	0	0	0	0	0	0	0	0	0	0	0
110612	08:14:32	10004	Trial3BackFr	NN	4	0	1000	1	116	08:14:32	1424671	0	0	0	0	0	0	0	0	0	0	0	0	0	0	0	0	0
110612	08:14:32	10004	Trial3BackFr	NN	4	0	1000	1	116	08:14:32	1426177	0	0	0	0	0	0	0	0	0	0	0	0	0	0	0	0	0
110612	08:14:32	10004	Trial3BackFr	NN	4	0	1000	1	116	08:14:32	1427683	0	0	0	0	0	0	0	0	0	0	0	0	0	0	0	0	0
110612	08:14:32	10004	Trial3BackFr	NN	4	57	745	0	116	08:14:32	1428936	0	0	0	0	0	0	0	0	0	0	0	0	0	0	0	0	0
110612	08:14:32	10004	Trial3BackFr	NN	4	0	1000	1	116	08:14:32	1430695	0	0	0	0	0	0	0	0	0	0	0	0	0	0	0	0	0
110612	08:14:32	10004	Trial3BackFr	YY	4	0	1000	0	116	08:14:32	1432201	0	0	0	0	0	0	0	0	0	0	0	0	0	0	0	0	0
110612	08:14:32	10004	Trial3BackFr	NN	4	0	1000	1	116	08:14:32	1433707	0	0	0	0	0	0	0	0	0	0	0	0	0	0	0	0	0
110612	08:14:32	10004	Trial3BackFr	NN	4	0	1000	1	116	08:14:32	1435214	0	0	0	0	0	0	0	0	0	0	0	0	0	0	0	0	0
110612	08:14:32	10004	Trial3BackFr	NN	4	0	1000	1	116	08:14:32	1436720	0	0	0	0	0	0	0	0	0	0	0	0	0	0	0	0	0
110612	08:14:32	10004	Trial3BackFr	YY	4	57	620	1	116	08:14:32	1437852	0	0	0	0	0	0	0	0	0	0	0	0	0	0	0	0	0
110612	08:14:32	10004	Trial3BackFr	NN	4	0	1000	1	116	08:14:32	1439732	0	0	0	0	0	0	0	0	0	0	0	0	0	0	0	0	0
110612	08:14:32	10004	Trial3BackFr	NN	4	0	1000	1	116	08:14:32	1441238	0	0	0	0	0	0	0	0	0	0	0	0	0	0	0	0	0
110612	08:14:32	10004	Trial3BackFr	NN	4	0	1000	1	116	08:14:32	1442744	0	0	0	0	0	0	0	0	0	0	0	0	0	0	0	0	0
110612	08:14:32	10004	Trial3BackFr	NN	4	0	1000	1	116	08:14:32	1444250	0	0	0	0	0	0	0	0	0	0	0	0	0	0	0	0	0
110612	08:14:32	10004	Trial3BackFr	NN	4	0	1000	1	116	08:14:32	1445756	0	0	0	0	0	0	0	0	0	0	0	0	0	0	0	0	0
110612	08:14:32	10004	Trial3BackFr	NN	4	0	1000	1	116	08:14:32	1447262	0	0	0	0	0	0	0	0	0	0	0	0	0	0	0	0	0
110612	08:14:32	10004	Trial3BackFr	NN	4	0	1000	1	116	08:14:32	1448768	0	0	0	0	0	0	0	0	0	0	0	0	0	0	0	0	0
110612	08:14:32	10004	Trial3BackFr	NN	4	57	603	0	116	08:14:32	1449888	0	0	0	0	0	0	0	0	0	0	0	0	0	0	0	0	0
110612	08:14:32	10004	Trial3BackFr	NN	4	0	1000	1	116	08:14:32	1451780	0	0	0	0	0	0	0	0	0	0	0	0	0	0	0	0	0
110612	08:14:32	10004	Trial3BackFr	YY	4	0	1000	0	116	08:14:32	1453300	0	0	0	0	0	0	0	0	0	0	0	0	0	0	0	0	0
110612	08:14:32	10004	Trial3BackFr	NN	4	0	1000	1	116	08:14:32	1454806	0	0	0	0	0	0	0	0	0	0	0	0	0	0	0	0	0
110612	08:14:32	10004	Trial3BackFr	NN	4	0	1000	1	116	08:14:32	1456312	0	0	0	0	0	0	0	0	0	0	0	0	0	0	0	0	0
110612	08:14:32	10004	Trial3BackFr	NN	4	0	1000	1	116	08:14:32	1457818	0	0	0	0	0	0	0	0	0	0	0	0	0	0	0	0	0
110612	08:14:32	10004	Trial3BackFr	YY	4	0	1000	0	116	08:14:32	1459324	0	0	0	0	0	0	0	0	0	0	0	0	0	0	0	0	0
110612	08:14:32	10004	Trial3BackFr	NN	4	0	1000	1	116	08:14:32	1460830	0	0	0	0	0	0	0	0	0	0	0	0	0	0	0	0	0
110612	08:14:32	10004	Trial3BackFr	NN	4	0	1000	1	116	08:14:32	1462336	0	0	0	0	0	0	0	0	0	0	0	0	0	0	0	0	0
110612	08:14:32	10004	Trial3BackFr	NN	4	0	1000	1	116	08:14:32	1463855	0	0	0	0	0	0	0	0	0	0	0	0	0	0	0	0	0
110612	08:14:32	10004	Trial3BackFr	NN	4	0	1000	1	116	08:14:32	1465361	0	0	0	0	0	0	0	0	0	0	0	0	0	0	0	0	0
110612	08:14:32	10004	Trial3BackFr	NN	4	0	1000	1	116	08:14:32	1466868	0	0	0	0	0	0	0	0	0	0	0	0	0	0	0	0	0
110612	08:14:32	10004	Trial3BackFr	YY	4	57	583	1	116	08:14:32	1467960	0	0	0	0	0	0	0	0	0	0	0	0	0	0	0	0	0
110612	08:14:32	10004	Trial3BackFr	NN	4	0	1000	1	116	08:14:32	1469880	0	0	0	0	0	0	0	0	0	0	0	0	0	0	0	0	0
110612	08:14:32	10004	Trial3BackFr	NN	4	0	1000	1	116	08:14:32	1471399	0	0	0	0	0	0	0	0	0	0	0	0	0	0	0	0	0
110612	08:14:32	10004	Trial3BackFr	NN	4	0	1000	1	116	08:14:32	1472905	0	0	0	0	0	0	0	0	0	0	0	0	0	0	0	0	0
110612	08:14:32	10004	Trial3BackFr	NN	4	0	1000	1	116	08:14:32	1474411	0	0	0	0	0	0	0	0	0	0	0	0	0	0	0	0	0
110612	08:14:32	10004	Trial3BackFr	NN	4	0	1000	1	116	08:14:32	1475917	0	0	0	0	0	0	0	0	0	0	0	0	0	0	0	0	0
110612	08:14:32	10004	Trial3BackFr	NN	4	0	1000	1	116	08:14:32	1477423	0	0	0	0	0	0	0	0	0	0	0	0	0	0	0	0	0
110612	08:14:32	10004	Trial3BackFr	NN	4	0	1000	1	116	08:14:32	1478929	0	0	0	0	0	0	0	0	0	0	0	0	0	0	0	0	0
110612	08:14:32	10004	Trial3BackFr	NN	4	0	1000	1	116	08:14:32	1480435	0	0	0	0	0	0	0	0	0	0	0	0	0	0	0	0	0
110612	08:14:32	10004	Trial3BackFr	NN	4	0	1000	1	116	08:14:32	1481941	0	0	0	0	0	0	0	0	0	0	0	0	0	0	0	0	0
110612	08:14:32	10004	Trial3BackFr	YY	4	0	1000	0	116	08:14:32	1483447	0	0	0	0	0	0	0	0	0	0	0	0	0	0	0	0	0
110612	08:14:32	10004	Trial3BackFr	NN	4	0	1000	1	116	08:14:32	1484967	0	0	0	0	0	0	0	0	0	0	0	0	0	0	0	0	0
110612	08:14:32	10004	Trial3BackFr	NN	4	0	1000	1	116	08:14:32	1486473	0	0	0	0	0	0	0	0	0	0	0	0	0	0	0	0	0
110612	08:14:32	10004	Trial3BackFr	NN	4	0	1000	1	116	08:14:32	1487979	0	0	0	0	0	0	0	0	0	0	0	0	0	0	0	0	0
110612	08:14:32	10004	Trial3BackFr	NN	4	0	1000	1	116	08:14:32	1489485	0	0	0	0	0	0	0	0	0	0	0	0	0	0	0	0	0
110612	08:14:32	10004	Trial3BackFr	NN	4	0	1000	1	116	08:14:32	1490991	0	0	0	0	0	0	0	0	0	0	0	0	0	0	0	0	0
110612	08:14:32	10004	Trial3BackFr	NN	4	57	523	0	116	08:14:32	1492030	0	0	0	0	0	0	0	0	0	0	0	0	0	0	0	0	0
110612	08:14:32	10004	Trial3BackFr	NN	4	0	1000	1	116	08:14:32	1494003	0	0	0	0	0	0	0	0	0	0	0	0	0	0	0	0	0
110612	08:14:32	10004	Trial3BackFr	NN	4	0	1000	1	116	08:14:32	1495509	0	0	0	0	0	0	0	0	0	0	0	0	0	0	0	0	0
110612	08:14:32	10004	Trial3BackFr	YY	4	0	1000	0	116	08:14:32	1497015	0	0	0	0	0	0	0	0	0	0	0	0	0	0	0	0	0
110612	08:14:32	10004	Trial3BackFr	NN	4	0	1000	1	116	08:14:32	1498521	0	0	0	0	0	0	0	0	0	0	0	0	0	0	0	0	0
110612	08:14:32	10004	Trial3BackFr	NN	4	0	1000	1	116	08:14:32	1500027	0	0	0	0	0	0	0	0	0	0	0	0	0	0	0	0	0
110612	08:14:32	10004	Trial3BackFr	NN	4	0	1000	1	116	08:14:32	1501533	0	0	0	0	0	0	0	0	0	0	0	0	0	0	0	0	0
110612	08:14:32	10004	Trial3BackFr	NN	4	0	1000	1	116	08:14:32	1503053	0	0	0	0	0	0	0	0	0	0	0	0	0	0	0	0	0
110612	08:14:32	10004	Trial3BackFr	YY	4	0	1000	0	116	08:14:32	1504559	0	0	0	0	0	0	0	0	0	0	0	0	0	0	0	0	0
110612	08:14:32	10004	Trial3BackFr	NN	4	0	1000	1	116	08:14:32	1506065	0	0	0	0	0	0	0	0	0	0	0	0	0	0	0	0	0
110612	08:14:32	10004	Trial3BackFr	NN	4	57	969	0	116	08:14:32	1507544	0	0	0	0	0	0	0	0	0	0	0	0	0	0	0	0	0
110612	08:14:32	10004	Trial3BackFr	NN	4	0	1000	1	116	08:14:32	1509077	0	0	0	0	0	0	0	0	0	0	0	0	0	0	0	0	0
110612	08:14:32	10004	Trial3BackFr	YY	4	0	1000	0	116	08:14:32	1510596	0	0	0	0	0	0	0	0	0	0	0	0	0	0	0	0	0
110612	08:14:32	10004	Trial3BackFr	NN	4	0	1000	1	116	08:14:32	1512102	0	0	0	0	0	0	0	0	0	0	0	0	0	0	0	0	0
110612	08:14:32	10004	Trial3BackFr	NN	4	0	1000	1	116	08:14:32	1513608	0	0	0	0	0	0	0	0	0	0	0	0	0	0	0	0	0
110612	08:14:32	10004	Trial3BackFr	NN	4	0	1000	1	116	08:14:32	1515115	0	0	0	0	0	0	0	0	0	0	0	0	0	0	0	0	0
110612	08:14:32	10004	Trial3BackFr	NN	4	57	895	0	116	08:14:32	1516527	0	0	0	0	0	0	0	0	0	0	0	0	0	0	0	0	0
110612	08:14:32	10004	Trial3BackFr	NN	4	0	1000	1	116	08:14:32	1518127	0	0	0	0	0	0	0	0	0	0	0	0	0	0	0	0	0
110612	08:14:32	10004	Trial3BackFr	YY	4	0	1000	0	116	08:14:32	1519633	0	0	0	0	0	0	0	0	0	0	0	0	0	0	0	0	0
110612	08:14:32	10004	Trial3BackFr	NN	4	0	1000	1	116	08:14:32	1521139	0	0	0	0	0	0	0	0	0	0	0	0	0	0	0	0	0
110612	08:14:32	10004	Trial3BackFr	NN	4	0	1000	1	116	08:14:32	1522645	0	0	0	0	0	0	0	0	0	0	0	0	0	0	0	0	0
110612	08:14:32	10004	Trial3BackFr	NN	4	0	1000	1	116	08:14:32	1524151	0	0	0	0	0	0	0	0	0	0	0	0	0	0	0	0	0
110612	08:14:32	10004	Trial3BackFr	YY	4	57	691	1	116	08:14:32	1525350	0	0	0	0	0	0	0	0	0	0	0	0	0	0	0	0	0
110612	08:14:32	10004	Memory1R6moFr	ScoreFr	5	M1	13582	0	116	08:14:32	1567947	0	0	0	0	0	0	0	0	0	0	0	0	0	0	0	0	0
110612	08:14:32	10004	Memory1R6moFr	ScoreFr	5	M2	203	0	116	08:14:32	1568200	0	0	0	0	0	0	0	0	0	0	0	0	0	0	0	0	0
110612	08:14:32	10004	Memory1R6moFr	ScoreFr	5	M4	1845	0	116	08:14:32	1570092	0	0	0	0	0	0	0	0	0	0	0	0	0	0	0	0	0
110612	08:14:32	10004	Memory1R6moFr	ScoreFr	5	M7	1545	0	116	08:14:32	1571692	0	0	0	0	0	0	0	0	0	0	0	0	0	0	0	0	0
110612	08:14:32	10004	Memory1R6moFr	ScoreFr	5	M8	394	0	116	08:14:32	1572132	0	0	0	0	0	0	0	0	0	0	0	0	0	0	0	0	0
110612	08:14:32	10004	Memory1R6moFr	ScoreFr	5	Done	32857	0	116	08:14:32	1605039	0	0	0	0	0	0	0	0	0	0	0	0	0	0	0	0	0
110612	08:14:32	10004	Memory2R6moFr	ScoreFr2	5	11	13933	0	116	08:14:32	1636132	0	0	0	0	0	0	0	0	0	0	0	0	0	0	0	0	0
110612	08:14:32	10004	Memory2R6moFr	ScoreFr2	5	33	952	0	116	08:14:32	1637132	0	0	0	0	0	0	0	0	0	0	0	0	0	0	0	0	0
110612	08:14:32	10004	Memory2R6moFr	ScoreFr2	5	44	1507	0	116	08:14:32	1638705	0	0	0	0	0	0	0	0	0	0	0	0	0	0	0	0	0
110612	08:14:32	10004	Memory2R6moFr	ScoreFr2	5	55	1260	0	116	08:14:32	1640011	0	0	0	0	0	0	0	0	0	0	0	0	0	0	0	0	0
110612	08:14:32	10004	Memory2R6moFr	ScoreFr2	5	66	4649	0	116	08:14:32	1644716	0	0	0	0	0	0	0	0	0	0	0	0	0	0	0	0	0
110612	08:14:32	10004	Memory2R6moFr	ScoreFr2	5	77	216	0	116	08:14:32	1644982	0	0	0	0	0	0	0	0	0	0	0	0	0	0	0	0	0
110612	08:14:32	10004	Memory2R6moFr	ScoreFr2	5	88	230	0	116	08:14:32	1645262	0	0	0	0	0	0	0	0	0	0	0	0	0	0	0	0	0
110612	08:14:32	10004	Memory2R6moFr	ScoreFr2	5	Done	10614	0	116	08:14:32	1655924	0	0	0	0	0	0	0	0	0	0	0	0	0	0	0	0	0
110612	08:14:32	10004	Memory3R6moFr	ScoreFr3	5	111	12585	0	116	08:14:32	1686725	0	0	0	0	0	0	0	0	0	0	0	0	0	0	0	0	0
110612	08:14:32	10004	Memory3R6moFr	ScoreFr3	5	222	158	0	116	08:14:32	1686938	0	0	0	0	0	0	0	0	0	0	0	0	0	0	0	0	0
110612	08:14:32	10004	Memory3R6moFr	ScoreFr3	5	333	233	0	116	08:14:32	1687218	0	0	0	0	0	0	0	0	0	0	0	0	0	0	0	0	0
110612	08:14:32	10004	Memory3R6moFr	ScoreFr3	5	444	249	0	116	08:14:32	1687512	0	0	0	0	0	0	0	0	0	0	0	0	0	0	0	0	0
110612	08:14:32	10004	Memory3R6moFr	ScoreFr3	5	555	251	0	116	08:14:32	1687818	0	0	0	0	0	0	0	0	0	0	0	0	0	0	0	0	0
110612	08:14:32	10004	Memory3R6moFr	ScoreFr3	5	666	289	0	116	08:14:32	1688151	0	0	0	0	0	0	0	0	0	0	0	0	0	0	0	0	0
110612	08:14:32	10004	Memory3R6moFr	ScoreFr3	5	888	308	0	116	08:14:32	1688511	0	0	0	0	0	0	0	0	0	0	0	0	0	0	0	0	0
110612	08:14:32	10004	Memory3R6moFr	ScoreFr3	5	777	1356	0	116	08:14:32	1689911	0	0	0	0	0	0	0	0	0	0	0	0	0	0	0	0	0
110612	08:14:32	10004	Memory3R6moFr	ScoreFr3	5	Done	676	0	116	08:14:32	1690630	0	0	0	0	0	0	0	0	0	0	0	0	0	0	0	0	0
110612	08:14:32	10004	LoriaFrLH3	Stop	6	6	4038	0	116	08:14:32	1770706	0	0	0	0	0	0	0	0	0	0	0	0	0	0	0	0	0
110612	08:14:32	10004	FrTrail	Trails	7	1Trails	851	0	116	08:14:32	1792976	0	0	0	0	0	0	0	0	0	0	0	0	0	0	0	0	0
110612	08:14:32	10004	Serial7Fr6mo	Serial7Fr6mo	8	73	4904	0	116	08:14:32	1831588	1	0	0	0	0	0	0	0	0	0	0	0	0	0	0	0	0
110612	08:14:32	10004	Serial7Fr6mo	Serial7Fr6mo	8	67	3006	0	116	08:14:32	1834613	1	0	0	0	0	0	0	0	0	0	0	0	0	0	0	0	0
110612	08:14:32	10004	Serial7Fr6mo	Serial7Fr6mo	8	60	3597	0	116	08:14:32	1838226	2	0	0	0	0	0	0	0	0	0	0	0	0	0	0	0	0
110612	08:14:32	10004	Serial7Fr6mo	Serial7Fr6mo	8	53	5569	0	116	08:14:32	1843811	3	0	0	0	0	0	0	0	0	0	0	0	0	0	0	0	0
110612	08:14:32	10004	Serial7Fr6mo	Serial7Fr6mo	8	47	3441	0	116	08:14:32	1847276	3	0	0	0	0	0	0	0	0	0	0	0	0	0	0	0	0
110612	08:14:32	10004	corsiblockFrFwrd	recallseqFrFwrd	9	9	1946	0	116	08:14:32	1875038	3	0	0	0	0	0	0	0	0	0	0	0	0	0	0	0	0
110612	08:14:32	10004	corsiblockFrFwrd	recallseqFrFwrd	9	4	675	0	116	08:14:32	1875758	3	0	0	0	0	0	0	0	0	0	0	0	0	0	0	0	0
110612	08:14:32	10004	corsiblockFrFwrd	recallseqFrFwrd	9	doneCorsiFr	5147	0	116	08:14:32	1880956	3	0	0	0	0	0	0	0	0	0	0	0	0	0	0	2	0
110612	08:14:32	10004	corsiblockFrFwrd	recallseqFrFwrd	9	5	935	0	116	08:14:32	1888020	3	0	0	0	0	0	0	0	0	0	0	0	0	0	0	2	0
110612	08:14:32	10004	corsiblockFrFwrd	recallseqFrFwrd	9	8	661	0	116	08:14:32	1888726	3	0	0	0	0	0	0	0	0	0	0	0	0	0	0	2	0
110612	08:14:32	10004	corsiblockFrFwrd	recallseqFrFwrd	9	1	890	0	116	08:14:32	1889672	3	0	0	0	0	0	0	0	0	0	0	0	0	0	0	2	0
110612	08:14:32	10004	corsiblockFrFwrd	recallseqFrFwrd	9	doneCorsiFr	1048	0	116	08:14:32	1890765	3	0	0	0	0	0	0	0	0	0	0	0	0	0	0	3	0
110612	08:14:32	10004	corsiblockFrFwrd	recallseqFrFwrd	9	3	840	0	116	08:14:32	1898749	3	0	0	0	0	0	0	0	0	0	0	0	0	0	0	3	0
110612	08:14:32	10004	corsiblockFrFwrd	recallseqFrFwrd	9	6	580	0	116	08:14:32	1899375	3	0	0	0	0	0	0	0	0	0	0	0	0	0	0	3	0
110612	08:14:32	10004	corsiblockFrFwrd	recallseqFrFwrd	9	2	753	0	116	08:14:32	1900175	3	0	0	0	0	0	0	0	0	0	0	0	0	0	0	3	0
110612	08:14:32	10004	corsiblockFrFwrd	recallseqFrFwrd	9	7	697	0	116	08:14:32	1900921	3	0	0	0	0	0	0	0	0	0	0	0	0	0	0	3	0
110612	08:14:32	10004	corsiblockFrFwrd	recallseqFrFwrd	9	doneCorsiFr	1151	0	116	08:14:32	1902121	3	0	0	0	0	0	0	0	0	0	0	0	0	0	0	4	0
110612	08:14:32	10004	corsiblockFrFwrd	recallseqFrFwrd	9	5	645	0	116	08:14:32	1910904	3	0	0	0	0	0	0	0	0	0	0	0	0	0	0	4	0
110612	08:14:32	10004	corsiblockFrFwrd	recallseqFrFwrd	9	7	776	0	116	08:14:32	1911730	3	0	0	0	0	0	0	0	0	0	0	0	0	0	0	4	0
110612	08:14:32	10004	corsiblockFrFwrd	recallseqFrFwrd	9	1	774	0	116	08:14:32	1912556	3	0	0	0	0	0	0	0	0	0	0	0	0	0	0	4	0
110612	08:14:32	10004	corsiblockFrFwrd	recallseqFrFwrd	9	2	723	0	116	08:14:32	1913329	3	0	0	0	0	0	0	0	0	0	0	0	0	0	0	4	0
110612	08:14:32	10004	corsiblockFrFwrd	recallseqFrFwrd	9	3	814	0	116	08:14:32	1914196	3	0	0	0	0	0	0	0	0	0	0	0	0	0	0	4	0
110612	08:14:32	10004	corsiblockFrFwrd	recallseqFrFwrd	9	doneCorsiFr	868	0	116	08:14:32	1915115	3	0	0	0	0	0	0	0	0	0	0	0	0	0	0	5	0
110612	08:14:32	10004	corsiblockFrFwrd	recallseqFrFwrd	9	8	946	0	116	08:14:32	1925205	3	0	0	0	0	0	0	0	0	0	0	0	0	0	0	5	0
110612	08:14:32	10004	corsiblockFrFwrd	recallseqFrFwrd	9	6	851	0	116	08:14:32	1926111	3	0	0	0	0	0	0	0	0	0	0	0	0	0	0	5	0
110612	08:14:32	10004	corsiblockFrFwrd	recallseqFrFwrd	9	2	697	0	116	08:14:32	1926857	3	0	0	0	0	0	0	0	0	0	0	0	0	0	0	5	0
110612	08:14:32	10004	corsiblockFrFwrd	recallseqFrFwrd	9	7	574	0	116	08:14:32	1927484	3	0	0	0	0	0	0	0	0	0	0	0	0	0	0	5	0
110612	08:14:32	10004	corsiblockFrFwrd	recallseqFrFwrd	9	9	660	0	116	08:14:32	1928190	3	0	0	0	0	0	0	0	0	0	0	0	0	0	0	5	0
110612	08:14:32	10004	corsiblockFrFwrd	recallseqFrFwrd	9	4	754	0	116	08:14:32	1928990	3	0	0	0	0	0	0	0	0	0	0	0	0	0	0	5	0
110612	08:14:32	10004	corsiblockFrFwrd	recallseqFrFwrd	9	doneCorsiFr	946	0	116	08:14:32	1929989	3	0	0	0	0	0	0	0	0	0	0	0	0	0	0	5	0
110612	08:14:32	10004	corsiblockFrFwrd	recallseqFrFwrd	9	1	941	0	116	08:14:32	1940012	3	0	0	0	0	0	0	0	0	0	0	0	0	0	0	5	0
110612	08:14:32	10004	corsiblockFrFwrd	recallseqFrFwrd	9	2	627	0	116	08:14:32	1940692	3	0	0	0	0	0	0	0	0	0	0	0	0	0	0	5	0
110612	08:14:32	10004	corsiblockFrFwrd	recallseqFrFwrd	9	8	699	0	116	08:14:32	1941438	3	0	0	0	0	0	0	0	0	0	0	0	0	0	0	5	0
110612	08:14:32	10004	corsiblockFrFwrd	recallseqFrFwrd	9	5	697	0	116	08:14:32	1942184	3	0	0	0	0	0	0	0	0	0	0	0	0	0	0	5	0
110612	08:14:32	10004	corsiblockFrFwrd	recallseqFrFwrd	9	4	535	0	116	08:14:32	1942771	3	0	0	0	0	0	0	0	0	0	0	0	0	0	0	5	0
110612	08:14:32	10004	corsiblockFrFwrd	recallseqFrFwrd	9	3	700	0	116	08:14:32	1943517	3	0	0	0	0	0	0	0	0	0	0	0	0	0	0	5	0
110612	08:14:32	10004	corsiblockFrFwrd	recallseqFrFwrd	9	doneCorsiFr	890	0	116	08:14:32	1944464	3	0	0	0	0	0	0	0	0	0	0	0	0	0	0	6	0
110612	08:14:32	10004	corsiblockFrFwrd	recallseqFrFwrd	9	2	1256	0	116	08:14:32	1954832	3	0	0	0	0	0	0	0	0	0	0	0	0	0	0	6	0
110612	08:14:32	10004	corsiblockFrFwrd	recallseqFrFwrd	9	6	678	0	116	08:14:32	1955566	3	0	0	0	0	0	0	0	0	0	0	0	0	0	0	6	0
110612	08:14:32	10004	corsiblockFrFwrd	recallseqFrFwrd	9	2	2577	0	116	08:14:32	1958191	3	0	0	0	0	0	0	0	0	0	0	0	0	0	0	6	0
110612	08:14:32	10004	corsiblockFrFwrd	recallseqFrFwrd	9	9	736	0	116	08:14:32	1958978	3	0	0	0	0	0	0	0	0	0	0	0	0	0	0	6	0
110612	08:14:32	10004	corsiblockFrFwrd	recallseqFrFwrd	9	3	1517	0	116	08:14:32	1960550	3	0	0	0	0	0	0	0	0	0	0	0	0	0	0	6	0
110612	08:14:32	10004	corsiblockFrFwrd	recallseqFrFwrd	9	5	512	0	116	08:14:32	1961110	3	0	0	0	0	0	0	0	0	0	0	0	0	0	0	6	0
110612	08:14:32	10004	corsiblockFrFwrd	recallseqFrFwrd	9	4	441	0	116	08:14:32	1961603	3	0	0	0	0	0	0	0	0	0	0	0	0	0	0	6	0
110612	08:14:32	10004	corsiblockFrFwrd	recallseqFrFwrd	9	doneCorsiFr	947	0	116	08:14:32	1962603	3	0	0	0	0	0	0	0	0	0	0	0	0	0	0	6	0
110612	08:14:32	10004	corsiblockFrFwrd	recallseqFrFwrd	9	1	1303	0	116	08:14:32	1973998	3	0	0	0	0	0	0	0	0	0	0	0	0	0	0	6	0
110612	08:14:32	10004	corsiblockFrFwrd	recallseqFrFwrd	9	2	720	0	116	08:14:32	1974771	3	0	0	0	0	0	0	0	0	0	0	0	0	0	0	6	0
110612	08:14:32	10004	corsiblockFrFwrd	recallseqFrFwrd	9	8	763	0	116	08:14:32	1975584	3	0	0	0	0	0	0	0	0	0	0	0	0	0	0	6	0
110612	08:14:32	10004	corsiblockFrFwrd	recallseqFrFwrd	9	6	782	0	116	08:14:32	1976411	3	0	0	0	0	0	0	0	0	0	0	0	0	0	0	6	0
110612	08:14:32	10004	corsiblockFrFwrd	recallseqFrFwrd	9	7	836	0	116	08:14:32	1977290	3	0	0	0	0	0	0	0	0	0	0	0	0	0	0	6	0
110612	08:14:32	10004	corsiblockFrFwrd	recallseqFrFwrd	9	6	708	0	116	08:14:32	1978050	3	0	0	0	0	0	0	0	0	0	0	0	0	0	0	6	0
110612	08:14:32	10004	corsiblockFrFwrd	recallseqFrFwrd	9	3	588	0	116	08:14:32	1978690	3	0	0	0	0	0	0	0	0	0	0	0	0	0	0	6	0
110612	08:14:32	10004	corsiblockFrFwrd	recallseqFrFwrd	9	doneCorsiFr	885	0	116	08:14:32	1979623	3	0	0	0	0	0	0	0	0	0	0	0	0	0	0	6	0
110612	08:14:32	10004	corsiblockFrRev	recallseqFrRev	10	9	691	0	116	08:14:32	1990885	3	0	0	0	0	0	0	0	0	0	0	0	0	0	0	6	0
110612	08:14:32	10004	corsiblockFrRev	recallseqFrRev	10	6	937	0	116	08:14:32	1991871	3	0	0	0	0	0	0	0	0	0	0	0	0	0	0	6	0
110612	08:14:32	10004	corsiblockFrRev	recallseqFrRev	10	doneCorsiFr	791	0	116	08:14:32	1992711	3	0	0	0	0	0	0	0	0	0	0	0	0	0	0	6	2
110612	08:14:32	10004	corsiblockFrRev	recallseqFrRev	10	4	690	0	116	08:14:32	1999535	3	0	0	0	0	0	0	0	0	0	0	0	0	0	0	6	2
110612	08:14:32	10004	corsiblockFrRev	recallseqFrRev	10	8	551	0	116	08:14:32	2000134	3	0	0	0	0	0	0	0	0	0	0	0	0	0	0	6	2
110612	08:14:32	10004	corsiblockFrRev	recallseqFrRev	10	1	688	0	116	08:14:32	2000867	3	0	0	0	0	0	0	0	0	0	0	0	0	0	0	6	2
110612	08:14:32	10004	corsiblockFrRev	recallseqFrRev	10	doneCorsiFr	1122	0	116	08:14:32	2002040	3	0	0	0	0	0	0	0	0	0	0	0	0	0	0	6	3
110612	08:14:32	10004	corsiblockFrRev	recallseqFrRev	10	2	624	0	116	08:14:32	2009797	3	0	0	0	0	0	0	0	0	0	0	0	0	0	0	6	3
110612	08:14:32	10004	corsiblockFrRev	recallseqFrRev	10	3	1249	0	116	08:14:32	2011090	3	0	0	0	0	0	0	0	0	0	0	0	0	0	0	6	3
110612	08:14:32	10004	corsiblockFrRev	recallseqFrRev	10	7	764	0	116	08:14:32	2011903	3	0	0	0	0	0	0	0	0	0	0	0	0	0	0	6	3
110612	08:14:32	10004	corsiblockFrRev	recallseqFrRev	10	5	751	0	116	08:14:32	2012703	3	0	0	0	0	0	0	0	0	0	0	0	0	0	0	6	3
110612	08:14:32	10004	corsiblockFrRev	recallseqFrRev	10	doneCorsiFr	823	0	116	08:14:32	2013582	3	0	0	0	0	0	0	0	0	0	0	0	0	0	0	6	4
110612	08:14:32	10004	corsiblockFrRev	recallseqFrRev	10	8	818	0	116	08:14:32	2022525	3	0	0	0	0	0	0	0	0	0	0	0	0	0	0	6	4
110612	08:14:32	10004	corsiblockFrRev	recallseqFrRev	10	3	536	0	116	08:14:32	2023112	3	0	0	0	0	0	0	0	0	0	0	0	0	0	0	6	4
110612	08:14:32	10004	corsiblockFrRev	recallseqFrRev	10	7	734	0	116	08:14:32	2023898	3	0	0	0	0	0	0	0	0	0	0	0	0	0	0	6	4
110612	08:14:32	10004	corsiblockFrRev	recallseqFrRev	10	2	683	0	116	08:14:32	2024631	3	0	0	0	0	0	0	0	0	0	0	0	0	0	0	6	4
110612	08:14:32	10004	corsiblockFrRev	recallseqFrRev	10	1	582	0	116	08:14:32	2025257	3	0	0	0	0	0	0	0	0	0	0	0	0	0	0	6	4
110612	08:14:32	10004	corsiblockFrRev	recallseqFrRev	10	doneCorsiFr	916	0	116	08:14:32	2026217	3	0	0	0	0	0	0	0	0	0	0	0	0	0	0	6	4
110612	08:14:32	10004	corsiblockFrRev	recallseqFrRev	10	3	679	0	116	08:14:32	2034987	3	0	0	0	0	0	0	0	0	0	0	0	0	0	0	6	4
110612	08:14:32	10004	corsiblockFrRev	recallseqFrRev	10	6	698	0	116	08:14:32	2035733	3	0	0	0	0	0	0	0	0	0	0	0	0	0	0	6	4
110612	08:14:32	10004	corsiblockFrRev	recallseqFrRev	10	5	648	0	116	08:14:32	2036426	3	0	0	0	0	0	0	0	0	0	0	0	0	0	0	6	4
110612	08:14:32	10004	corsiblockFrRev	recallseqFrRev	10	9	795	0	116	08:14:32	2037266	3	0	0	0	0	0	0	0	0	0	0	0	0	0	0	6	4
110612	08:14:32	10004	corsiblockFrRev	recallseqFrRev	10	2	827	0	116	08:14:32	2038146	3	0	0	0	0	0	0	0	0	0	0	0	0	0	0	6	4
110612	08:14:32	10004	corsiblockFrRev	recallseqFrRev	10	doneCorsiFr	1315	0	116	08:14:32	2039505	3	0	0	0	0	0	0	0	0	0	0	0	0	0	0	6	5
110612	08:14:32	10004	corsiblockFrRev	recallseqFrRev	10	2	1188	0	116	08:14:32	2048808	3	0	0	0	0	0	0	0	0	0	0	0	0	0	0	6	5
110612	08:14:32	10004	corsiblockFrRev	recallseqFrRev	10	5	677	0	116	08:14:32	2049541	3	0	0	0	0	0	0	0	0	0	0	0	0	0	0	6	5
110612	08:14:32	10004	corsiblockFrRev	recallseqFrRev	10	7	576	0	116	08:14:32	2050167	3	0	0	0	0	0	0	0	0	0	0	0	0	0	0	6	5
110612	08:14:32	10004	corsiblockFrRev	recallseqFrRev	10	6	549	0	116	08:14:32	2050767	3	0	0	0	0	0	0	0	0	0	0	0	0	0	0	6	5
110612	08:14:32	10004	corsiblockFrRev	recallseqFrRev	10	4	541	0	116	08:14:32	2051353	3	0	0	0	0	0	0	0	0	0	0	0	0	0	0	6	5
110612	08:14:32	10004	corsiblockFrRev	recallseqFrRev	10	1	707	0	116	08:14:32	2052113	3	0	0	0	0	0	0	0	0	0	0	0	0	0	0	6	5
110612	08:14:32	10004	corsiblockFrRev	recallseqFrRev	10	doneCorsiFr	948	0	116	08:14:32	2053113	3	0	0	0	0	0	0	0	0	0	0	0	0	0	0	6	5
110612	08:14:32	10004	corsiblockFrRev	recallseqFrRev	10	7	998	0	116	08:14:32	2063202	3	0	0	0	0	0	0	0	0	0	0	0	0	0	0	6	5
110612	08:14:32	10004	corsiblockFrRev	recallseqFrRev	10	3	778	0	116	08:14:32	2064028	3	0	0	0	0	0	0	0	0	0	0	0	0	0	0	6	5
110612	08:14:32	10004	corsiblockFrRev	recallseqFrRev	10	2	624	0	116	08:14:32	2064708	3	0	0	0	0	0	0	0	0	0	0	0	0	0	0	6	5
110612	08:14:32	10004	corsiblockFrRev	recallseqFrRev	10	5	632	0	116	08:14:32	2065388	3	0	0	0	0	0	0	0	0	0	0	0	0	0	0	6	5
110612	08:14:32	10004	corsiblockFrRev	recallseqFrRev	10	8	608	0	116	08:14:32	2066041	3	0	0	0	0	0	0	0	0	0	0	0	0	0	0	6	5
110612	08:14:32	10004	corsiblockFrRev	recallseqFrRev	10	9	796	0	116	08:14:32	2066881	3	0	0	0	0	0	0	0	0	0	0	0	0	0	0	6	5
110612	08:14:32	10004	corsiblockFrRev	recallseqFrRev	10	doneCorsiFr	1148	0	116	08:14:32	2068080	3	0	0	0	0	0	0	0	0	0	0	0	0	0	0	6	6
110612	08:14:32	10004	corsiblockFrRev	recallseqFrRev	10	7	1117	0	116	08:14:32	2078316	3	0	0	0	0	0	0	0	0	0	0	0	0	0	0	6	6
110612	08:14:32	10004	corsiblockFrRev	recallseqFrRev	10	9	592	0	116	08:14:32	2078956	3	0	0	0	0	0	0	0	0	0	0	0	0	0	0	6	6
110612	08:14:32	10004	corsiblockFrRev	recallseqFrRev	10	4	632	0	116	08:14:32	2079636	3	0	0	0	0	0	0	0	0	0	0	0	0	0	0	6	6
110612	08:14:32	10004	corsiblockFrRev	recallseqFrRev	10	8	769	0	116	08:14:32	2080449	3	0	0	0	0	0	0	0	0	0	0	0	0	0	0	6	6
110612	08:14:32	10004	corsiblockFrRev	recallseqFrRev	10	9	660	0	116	08:14:32	2081155	3	0	0	0	0	0	0	0	0	0	0	0	0	0	0	6	6
110612	08:14:32	10004	corsiblockFrRev	recallseqFrRev	10	2	697	0	116	08:14:32	2081901	3	0	0	0	0	0	0	0	0	0	0	0	0	0	0	6	6
110612	08:14:32	10004	corsiblockFrRev	recallseqFrRev	10	1	775	0	116	08:14:32	2082728	3	0	0	0	0	0	0	0	0	0	0	0	0	0	0	6	6
110612	08:14:32	10004	corsiblockFrRev	recallseqFrRev	10	doneCorsiFr	1100	0	116	08:14:32	2083874	3	0	0	0	0	0	0	0	0	0	0	0	0	0	0	6	6
110612	08:14:32	10004	corsiblockFrRev	recallseqFrRev	10	8	862	0	116	08:14:32	2094816	3	0	0	0	0	0	0	0	0	0	0	0	0	0	0	6	6
110612	08:14:32	10004	corsiblockFrRev	recallseqFrRev	10	1	900	0	116	08:14:32	2095762	3	0	0	0	0	0	0	0	0	0	0	0	0	0	0	6	6
110612	08:14:32	10004	corsiblockFrRev	recallseqFrRev	10	2	2017	0	116	08:14:32	2097828	3	0	0	0	0	0	0	0	0	0	0	0	0	0	0	6	6
110612	08:14:32	10004	corsiblockFrRev	recallseqFrRev	10	6	687	0	116	08:14:32	2098561	3	0	0	0	0	0	0	0	0	0	0	0	0	0	0	6	6
110612	08:14:32	10004	corsiblockFrRev	recallseqFrRev	10	4	826	0	116	08:14:32	2099441	3	0	0	0	0	0	0	0	0	0	0	0	0	0	0	6	6
110612	08:14:32	10004	corsiblockFrRev	recallseqFrRev	10	5	475	0	116	08:14:32	2099961	3	0	0	0	0	0	0	0	0	0	0	0	0	0	0	6	6
110612	08:14:32	10004	corsiblockFrRev	recallseqFrRev	10	3	467	0	116	08:14:32	2100481	3	0	0	0	0	0	0	0	0	0	0	0	0	0	0	6	6
110612	08:14:32	10004	corsiblockFrRev	recallseqFrRev	10	doneCorsiFr	1051	0	116	08:14:32	2101587	3	0	0	0	0	0	0	0	0	0	0	0	0	0	0	6	6
110612	08:14:32	10004	testFr6mo	WordsFr6mo	11	1Fr6mo	3575	0	116	08:14:32	2123126	3	3	0	0	0	0	0	0	0	0	0	0	0	0	0	6	6
110612	08:14:32	10004	testFr6mo	WordsFr6mo	11	4Fr6mo	291	0	116	08:14:32	2123485	3	3	0	0	3	0	0	0	0	0	0	0	0	0	0	6	6
110612	08:14:32	10004	testFr6mo	WordsFr6mo	11	3Fr6mo	290	0	116	08:14:32	2123831	3	3	0	3	3	0	0	0	0	0	0	0	0	0	0	6	6
110612	08:14:32	10004	testFr6mo	WordsFr6mo	11	5Fr6mo	332	0	116	08:14:32	2124218	3	3	0	3	3	3	0	0	0	0	0	0	0	0	0	6	6
110612	08:14:32	10004	testFr6mo	WordsFr6mo	11	7Fr6mo	11002	0	116	08:14:32	2135267	3	3	0	3	3	3	0	3	0	0	0	0	0	0	0	6	6
110612	08:14:32	10004	testFr6mo	WordsFr6mo	11	DoneFr6mo	15385	0	116	08:14:32	2150700	3	3	0	3	3	3	0	3	0	0	0	0	0	0	0	6	6
110612	08:14:32	10004	testFr6mo	Cat2Fr6mo	11	R2Fr6mo	5437	0	116	08:14:32	2156178	3	3	2	3	3	3	0	3	0	0	0	0	0	0	0	6	6
110612	08:14:32	10004	testFr6mo	Cat6Fr6mo	11	0	1	0	116	08:14:32	2156189	3	3	2	3	3	3	0	3	0	0	0	0	0	0	0	6	6
110612	08:14:32	10004	testFr6mo	Ch6Fr6mo	11	RR6Fr6mo	6313	0	116	08:14:32	2162535	3	3	2	3	3	3	1	3	0	0	0	0	0	0	0	6	6
110612	08:14:32	10004	testFr6mo	Cat8Fr6mo	11	W8Fr6mo	6449	0	116	08:14:32	2169026	3	3	2	3	3	3	1	3	0	0	0	0	0	0	0	6	6
110612	08:14:32	10004	testFr6mo	Ch8Fr6mo	11	RR8Fr6mo	3110	0	116	08:14:32	2172171	3	3	2	3	3	3	1	3	1	0	0	0	0	0	0	6	6
110612	08:14:32	10004	DigitSpanFwrdFr6mo	Score1FwrdFr6mo	12	DS1	2624	0	116	08:14:32	2189537	3	3	2	3	3	3	1	3	1	0	0	0	0	0	0	6	6
110612	08:14:32	10004	DigitSpanFwrdFr6mo	Gate1FwrdFr6mo	12	0	1	0	116	08:14:32	2189542	3	3	2	3	3	3	1	3	1	3	0	0	0	0	0	6	6
110612	08:14:32	10004	DigitSpanFwrdFr6mo	Score2FwrdFr6mo	12	DS1	3201	0	116	08:14:32	2199054	3	3	2	3	3	3	1	3	1	3	0	0	0	0	0	6	6
110612	08:14:32	10004	DigitSpanFwrdFr6mo	Gate3FwrdFr6mo	12	0	1	0	116	08:14:32	2199058	3	3	2	3	3	3	1	3	1	4	0	0	0	0	0	6	6
110612	08:14:32	10004	DigitSpanFwrdFr6mo	Score3FwrdFr6mo	12	DS1	3543	0	116	08:14:32	2209849	3	3	2	3	3	3	1	3	1	4	0	0	0	0	0	6	6
110612	08:14:32	10004	DigitSpanFwrdFr6mo	Gate5FwrdFr6mo	12	0	1	0	116	08:14:32	2209854	3	3	2	3	3	3	1	3	1	5	0	0	0	0	0	6	6
110612	08:14:32	10004	DigitSpanFwrdFr6mo	Score4FwrdFr6mo	12	DS2	6761	0	116	08:14:32	2225123	3	3	2	3	3	3	1	3	1	5	0	0	0	0	0	6	6
110612	08:14:32	10004	DigitSpanFwrdFr6mo	Gate7FwrdFr6mo	12	0	1	0	116	08:14:32	2225128	3	3	2	3	3	3	1	3	1	5	0	0	0	0	0	6	6
110612	08:14:32	10004	DigitSpanFwrdFr6mo	Score44FwrdFr6mo	12	DS2	4492	0	116	08:14:32	2237918	3	3	2	3	3	3	1	3	1	5	0	0	0	0	0	6	6
110612	08:14:32	10004	DigitSpanFr6mo	Score1Fr6mo	13	DS1	2357	0	116	08:14:32	2252552	3	3	2	3	3	3	1	3	1	5	0	0	0	0	0	6	6
110612	08:14:32	10004	DigitSpanFr6mo	Gate1Fr6mo	13	0	1	0	116	08:14:32	2252556	3	3	2	3	3	3	1	3	1	5	2	0	0	0	0	6	6
110612	08:14:32	10004	DigitSpanFr6mo	Score2Fr6mo	13	DS1	2827	0	116	08:14:32	2259949	3	3	2	3	3	3	1	3	1	5	2	0	0	0	0	6	6
110612	08:14:32	10004	DigitSpanFr6mo	Gate3Fr6mo	13	0	1	0	116	08:14:32	2259954	3	3	2	3	3	3	1	3	1	5	3	0	0	0	0	6	6
110612	08:14:32	10004	DigitSpanFr6mo	Score3Fr6mo	13	DS1	4446	0	116	08:14:32	2270078	3	3	2	3	3	3	1	3	1	5	3	0	0	0	0	6	6
110612	08:14:32	10004	DigitSpanFr6mo	Gate5Fr6mo	13	0	1	0	116	08:14:32	2270083	3	3	2	3	3	3	1	3	1	5	4	0	0	0	0	6	6
110612	08:14:32	10004	DigitSpanFr6mo	Score4Fr6mo	13	DS2	7575	0	116	08:14:32	2284592	3	3	2	3	3	3	1	3	1	5	4	0	0	0	0	6	6
110612	08:14:32	10004	DigitSpanFr6mo	Gate7Fr6mo	13	0	1	0	116	08:14:32	2284596	3	3	2	3	3	3	1	3	1	5	4	0	0	0	0	6	6
110612	08:14:32	10004	DigitSpanFr6mo	Score44Fr6mo	13	DS2	6675	0	116	08:14:32	2299666	3	3	2	3	3	3	1	3	1	5	4	0	0	0	0	6	6
110612	08:14:32	10004	Trial	ResponseIL	14	0	175	0	116	08:14:32	2346807	3	3	2	3	3	3	1	3	1	5	4	0	0	0	0	6	6
110612	08:14:32	10004	Trial	IncongruentLeft	14	205	237	0	116	08:14:32	2347060	3	3	2	3	3	3	1	3	1	5	4	0	0	0	0	6	6
110612	08:14:32	10004	Trial	ResponseCR	14	0	175	0	116	08:14:32	2348513	3	3	2	3	3	3	1	3	1	5	4	0	0	0	0	6	6
110612	08:14:32	10004	Trial	CongruentRight	14	205	179	1	116	08:14:32	2348713	3	3	2	3	3	3	1	3	1	5	4	0	0	0	0	6	6
110612	08:14:32	10004	Trial	ResponseIR	14	0	175	0	116	08:14:32	2350219	3	3	2	3	3	3	1	3	1	5	4	0	0	0	0	6	6
110612	08:14:32	10004	Trial	IncongruentRight	14	203	169	0	116	08:14:32	2350405	3	3	2	3	3	3	1	3	1	5	4	0	0	0	0	6	6
110612	08:14:32	10004	Trial	ResponseCL	14	0	175	0	116	08:14:32	2351925	3	3	2	3	3	3	1	3	1	5	4	0	0	0	0	6	6
110612	08:14:32	10004	Trial	CongruentLeft	14	203	319	1	116	08:14:32	2352272	3	3	2	3	3	3	1	3	1	5	4	0	0	0	0	6	6
110612	08:14:32	10004	Trial	ResponseCR	14	0	175	0	116	08:14:32	2353631	3	3	2	3	3	3	1	3	1	5	4	0	0	0	0	6	6
110612	08:14:32	10004	Trial	CongruentRight	14	205	181	1	116	08:14:32	2353831	3	3	2	3	3	3	1	3	1	5	4	0	0	0	0	6	6
110612	08:14:32	10004	Trial	ResponseIR	14	0	175	0	116	08:14:32	2355337	3	3	2	3	3	3	1	3	1	5	4	0	0	0	0	6	6
110612	08:14:32	10004	Trial	IncongruentRight	14	203	187	0	116	08:14:32	2355550	3	3	2	3	3	3	1	3	1	5	4	0	0	0	0	6	6
110612	08:14:32	10004	Trial	ResponseCL	14	0	175	0	116	08:14:32	2357043	3	3	2	3	3	3	1	3	1	5	4	0	0	0	0	6	6
110612	08:14:32	10004	Trial	CongruentLeft	14	203	273	1	116	08:14:32	2357336	3	3	2	3	3	3	1	3	1	5	4	0	0	0	0	6	6
110612	08:14:32	10004	Trial	ResponseIL	14	0	175	0	116	08:14:32	2358749	3	3	2	3	3	3	1	3	1	5	4	0	0	0	0	6	6
110612	08:14:32	10004	Trial	IncongruentLeft	14	205	167	0	116	08:14:32	2358935	3	3	2	3	3	3	1	3	1	5	4	0	0	0	0	6	6
110612	08:14:32	10004	Trial	ResponseIL	14	0	175	0	116	08:14:32	2360455	3	3	2	3	3	3	1	3	1	5	4	0	0	0	0	6	6
110612	08:14:32	10004	Trial	IncongruentLeft	14	203	317	1	116	08:14:32	2360788	3	3	2	3	3	3	1	3	1	5	4	0	0	0	0	6	6
110612	08:14:32	10004	Trial	ResponseCR	14	0	175	0	116	08:14:32	2362161	3	3	2	3	3	3	1	3	1	5	4	0	0	0	0	6	6
110612	08:14:32	10004	Trial	CongruentRight	14	205	195	1	116	08:14:32	2362374	3	3	2	3	3	3	1	3	1	5	4	0	0	0	0	6	6
110612	08:14:32	10004	Trial	ResponseIR	14	0	175	0	116	08:14:32	2363867	3	3	2	3	3	3	1	3	1	5	4	0	0	0	0	6	6
110612	08:14:32	10004	Trial	IncongruentRight	14	203	201	0	116	08:14:32	2364093	3	3	2	3	3	3	1	3	1	5	4	0	0	0	0	6	6
110612	08:14:32	10004	Trial	ResponseCL	14	0	175	0	116	08:14:32	2365573	3	3	2	3	3	3	1	3	1	5	4	0	0	0	0	6	6
110612	08:14:32	10004	Trial	CongruentLeft	14	203	255	1	116	08:14:32	2365853	3	3	2	3	3	3	1	3	1	5	4	0	0	0	0	6	6
110612	08:14:32	10004	Trial	ResponseCR	14	0	175	0	116	08:14:32	2367279	3	3	2	3	3	3	1	3	1	5	4	0	0	0	0	6	6
110612	08:14:32	10004	Trial	CongruentRight	14	205	181	1	116	08:14:32	2367479	3	3	2	3	3	3	1	3	1	5	4	0	0	0	0	6	6
110612	08:14:32	10004	Trial	ResponseIL	14	0	175	0	116	08:14:32	2368985	3	3	2	3	3	3	1	3	1	5	4	0	0	0	0	6	6
110612	08:14:32	10004	Trial	IncongruentLeft	14	203	251	1	116	08:14:32	2369265	3	3	2	3	3	3	1	3	1	5	4	0	0	0	0	6	6
110612	08:14:32	10004	Trial	ResponseIR	14	0	175	0	116	08:14:32	2370691	3	3	2	3	3	3	1	3	1	5	4	0	0	0	0	6	6
110612	08:14:32	10004	Trial	IncongruentRight	14	205	337	1	116	08:14:32	2371051	3	3	2	3	3	3	1	3	1	5	4	0	0	0	0	6	6
110612	08:14:32	10004	Trial	ResponseCR	14	0	175	0	116	08:14:32	2372397	3	3	2	3	3	3	1	3	1	5	4	0	0	0	0	6	6
110612	08:14:32	10004	Trial	CongruentRight	14	205	199	1	116	08:14:32	2372623	3	3	2	3	3	3	1	3	1	5	4	0	0	0	0	6	6
110612	08:14:32	10004	Trial	ResponseCL	14	0	175	0	116	08:14:32	2374103	3	3	2	3	3	3	1	3	1	5	4	0	0	0	0	6	6
110612	08:14:32	10004	Trial	CongruentLeft	14	203	173	1	116	08:14:32	2374303	3	3	2	3	3	3	1	3	1	5	4	0	0	0	0	6	6
110612	08:14:32	10004	Trial	ResponseCR	14	0	175	0	116	08:14:32	2375809	3	3	2	3	3	3	1	3	1	5	4	0	0	0	0	6	6
110612	08:14:32	10004	Trial	CongruentRight	14	205	163	1	116	08:14:32	2375995	3	3	2	3	3	3	1	3	1	5	4	0	0	0	0	6	6
110612	08:14:32	10004	Trial	ResponseIR	14	0	175	0	116	08:14:32	2377515	3	3	2	3	3	3	1	3	1	5	4	0	0	0	0	6	6
110612	08:14:32	10004	Trial	IncongruentRight	14	205	361	1	116	08:14:32	2377901	3	3	2	3	3	3	1	3	1	5	4	0	0	0	0	6	6
110612	08:14:32	10004	Trial	ResponseIL	14	0	175	0	116	08:14:32	2379221	3	3	2	3	3	3	1	3	1	5	4	0	0	0	0	6	6
110612	08:14:32	10004	Trial	IncongruentLeft	14	203	271	1	116	08:14:32	2379514	3	3	2	3	3	3	1	3	1	5	4	0	0	0	0	6	6
110612	08:14:32	10004	Trial	ResponseIL	14	0	175	0	116	08:14:32	2380927	3	3	2	3	3	3	1	3	1	5	4	0	0	0	0	6	6
110612	08:14:32	10004	Trial	IncongruentLeft	14	203	277	1	116	08:14:32	2381220	3	3	2	3	3	3	1	3	1	5	4	0	0	0	0	6	6
110612	08:14:32	10004	Trial	ResponseCL	14	0	175	0	116	08:14:32	2382633	3	3	2	3	3	3	1	3	1	5	4	0	0	0	0	6	6
110612	08:14:32	10004	Trial	CongruentLeft	14	203	187	1	116	08:14:32	2382846	3	3	2	3	3	3	1	3	1	5	4	0	0	0	0	6	6
110612	08:14:32	10004	Trial	ResponseCR	14	0	175	0	116	08:14:32	2384339	3	3	2	3	3	3	1	3	1	5	4	0	0	0	0	6	6
110612	08:14:32	10004	Trial	CongruentRight	14	205	193	1	116	08:14:32	2384552	3	3	2	3	3	3	1	3	1	5	4	0	0	0	0	6	6
110612	08:14:32	10004	Trial	ResponseIL	14	0	175	0	116	08:14:32	2386045	3	3	2	3	3	3	1	3	1	5	4	0	0	0	0	6	6
110612	08:14:32	10004	Trial	IncongruentLeft	14	203	183	1	116	08:14:32	2386244	3	3	2	3	3	3	1	3	1	5	4	0	0	0	0	6	6
110612	08:14:32	10004	Trial	ResponseIR	14	0	175	0	116	08:14:32	2387751	3	3	2	3	3	3	1	3	1	5	4	0	0	0	0	6	6
110612	08:14:32	10004	Trial	IncongruentRight	14	203	173	0	116	08:14:32	2387950	3	3	2	3	3	3	1	3	1	5	4	0	0	0	0	6	6
110612	08:14:32	10004	Trial	ResponseCR	14	0	175	0	116	08:14:32	2389457	3	3	2	3	3	3	1	3	1	5	4	0	0	0	0	6	6
110612	08:14:32	10004	Trial	CongruentRight	14	205	227	1	116	08:14:32	2389710	3	3	2	3	3	3	1	3	1	5	4	0	0	0	0	6	6
110612	08:14:32	10004	Trial	ResponseCL	14	0	175	0	116	08:14:32	2391163	3	3	2	3	3	3	1	3	1	5	4	0	0	0	0	6	6
110612	08:14:32	10004	Trial	CongruentLeft	14	203	152	1	116	08:14:32	2391336	3	3	2	3	3	3	1	3	1	5	4	0	0	0	0	6	6
110612	08:14:32	10004	Trial	ResponseIR	14	0	175	0	116	08:14:32	2392871	3	3	2	3	3	3	1	3	1	5	4	0	0	0	0	6	6
110612	08:14:32	10004	Trial	IncongruentRight	14	205	332	1	116	08:14:32	2393228	3	3	2	3	3	3	1	3	1	5	4	0	0	0	0	6	6
110612	08:14:32	10004	Trial	ResponseIL	14	0	175	0	116	08:14:32	2394575	3	3	2	3	3	3	1	3	1	5	4	0	0	0	0	6	6
110612	08:14:32	10004	Trial	IncongruentLeft	14	203	277	1	116	08:14:32	2394867	3	3	2	3	3	3	1	3	1	5	4	0	0	0	0	6	6
110612	08:14:32	10004	Trial	ResponseIR	14	0	175	0	116	08:14:32	2396280	3	3	2	3	3	3	1	3	1	5	4	0	0	0	0	6	6
110612	08:14:32	10004	Trial	IncongruentRight	14	205	219	1	116	08:14:32	2396520	3	3	2	3	3	3	1	3	1	5	4	0	0	0	0	6	6
110612	08:14:32	10004	Trial	ResponseCR	14	0	175	0	116	08:14:32	2397986	3	3	2	3	3	3	1	3	1	5	4	0	0	0	0	6	6
110612	08:14:32	10004	Trial	CongruentRight	14	205	192	1	116	08:14:32	2398200	3	3	2	3	3	3	1	3	1	5	4	0	0	0	0	6	6
110612	08:14:32	10004	Trial	ResponseIL	14	0	175	0	116	08:14:32	2399692	3	3	2	3	3	3	1	3	1	5	4	0	0	0	0	6	6
110612	08:14:32	10004	Trial	IncongruentLeft	14	203	231	1	116	08:14:32	2399946	3	3	2	3	3	3	1	3	1	5	4	0	0	0	0	6	6
110612	08:14:32	10004	Trial	ResponseCL	14	0	175	0	116	08:14:32	2401398	3	3	2	3	3	3	1	3	1	5	4	0	0	0	0	6	6
110612	08:14:32	10004	Trial	CongruentLeft	14	203	189	1	116	08:14:32	2401611	3	3	2	3	3	3	1	3	1	5	4	0	0	0	0	6	6
110612	08:14:32	10004	Trial	ResponseCR	14	0	175	0	116	08:14:32	2403104	3	3	2	3	3	3	1	3	1	5	4	0	0	0	0	6	6
110612	08:14:32	10004	Trial	CongruentRight	14	205	195	1	116	08:14:32	2403318	3	3	2	3	3	3	1	3	1	5	4	0	0	0	0	6	6
110612	08:14:32	10004	Trial	ResponseIL	14	0	175	0	116	08:14:32	2404810	3	3	2	3	3	3	1	3	1	5	4	0	0	0	0	6	6
110612	08:14:32	10004	Trial	IncongruentLeft	14	203	137	1	116	08:14:32	2404970	3	3	2	3	3	3	1	3	1	5	4	0	0	0	0	6	6
110612	08:14:32	10004	Trial	ResponseIR	14	0	175	0	116	08:14:32	2406516	3	3	2	3	3	3	1	3	1	5	4	0	0	0	0	6	6
110612	08:14:32	10004	Trial	IncongruentRight	14	205	287	1	116	08:14:32	2406823	3	3	2	3	3	3	1	3	1	5	4	0	0	0	0	6	6
110612	08:14:32	10004	Trial	ResponseIR	14	0	175	0	116	08:14:32	2408222	3	3	2	3	3	3	1	3	1	5	4	0	0	0	0	6	6
110612	08:14:32	10004	Trial	IncongruentRight	14	203	132	0	116	08:14:32	2408382	3	3	2	3	3	3	1	3	1	5	4	0	0	0	0	6	6
110612	08:14:32	10004	Trial	ResponseCL	14	0	175	0	116	08:14:32	2409928	3	3	2	3	3	3	1	3	1	5	4	0	0	0	0	6	6
110612	08:14:32	10004	Trial	CongruentLeft	14	203	154	1	116	08:14:32	2410101	3	3	2	3	3	3	1	3	1	5	4	0	0	0	0	6	6
110612	08:14:32	10004	Trial	ResponseIL	14	0	175	0	116	08:14:32	2411634	3	3	2	3	3	3	1	3	1	5	4	0	0	0	0	6	6
110612	08:14:32	10004	Trial	IncongruentLeft	14	203	273	1	116	08:14:32	2411928	3	3	2	3	3	3	1	3	1	5	4	0	0	0	0	6	6
110612	08:14:32	10004	Trial	ResponseCR	14	0	175	0	116	08:14:32	2413340	3	3	2	3	3	3	1	3	1	5	4	0	0	0	0	6	6
110612	08:14:32	10004	Trial	CongruentRight	14	205	136	1	116	08:14:32	2413500	3	3	2	3	3	3	1	3	1	5	4	0	0	0	0	6	6
110612	08:14:32	10004	Trial	ResponseCL	14	0	175	0	116	08:14:32	2415046	3	3	2	3	3	3	1	3	1	5	4	0	0	0	0	6	6
110612	08:14:32	10004	Trial	CongruentLeft	14	203	173	1	116	08:14:32	2415246	3	3	2	3	3	3	1	3	1	5	4	0	0	0	0	6	6
110612	08:14:32	10004	Trial	ResponseIR	14	0	175	0	116	08:14:32	2416752	3	3	2	3	3	3	1	3	1	5	4	0	0	0	0	6	6
110612	08:14:32	10004	Trial	IncongruentRight	14	205	291	1	116	08:14:32	2417072	3	3	2	3	3	3	1	3	1	5	4	0	0	0	0	6	6
110612	08:14:32	10004	Trial	ResponseCR	14	0	175	0	116	08:14:32	2418458	3	3	2	3	3	3	1	3	1	5	4	0	0	0	0	6	6
110612	08:14:32	10004	Trial	CongruentRight	14	205	201	1	116	08:14:32	2418685	3	3	2	3	3	3	1	3	1	5	4	0	0	0	0	6	6
110612	08:14:32	10004	Trial	ResponseIL	14	0	175	0	116	08:14:32	2420164	3	3	2	3	3	3	1	3	1	5	4	0	0	0	0	6	6
110612	08:14:32	10004	Trial	IncongruentLeft	14	203	142	1	116	08:14:32	2420324	3	3	2	3	3	3	1	3	1	5	4	0	0	0	0	6	6
110612	08:14:32	10004	Trial	ResponseCL	14	0	175	0	116	08:14:32	2421870	3	3	2	3	3	3	1	3	1	5	4	0	0	0	0	6	6
110612	08:14:32	10004	Trial	CongruentLeft	14	203	132	1	116	08:14:32	2422030	3	3	2	3	3	3	1	3	1	5	4	0	0	0	0	6	6
110612	08:14:32	10004	Trial	ResponseIL	14	0	175	0	116	08:14:32	2423576	3	3	2	3	3	3	1	3	1	5	4	0	0	0	0	6	6
110612	08:14:32	10004	Trial	IncongruentLeft	14	203	250	1	116	08:14:32	2423843	3	3	2	3	3	3	1	3	1	5	4	0	0	0	0	6	6
110612	08:14:32	10004	Trial	ResponseIR	14	0	175	0	116	08:14:32	2425282	3	3	2	3	3	3	1	3	1	5	4	0	0	0	0	6	6
110612	08:14:32	10004	Trial	IncongruentRight	14	205	176	1	116	08:14:32	2425482	3	3	2	3	3	3	1	3	1	5	4	0	0	0	0	6	6
110612	08:14:32	10004	Trial	ResponseCR	14	0	175	0	116	08:14:32	2426988	3	3	2	3	3	3	1	3	1	5	4	0	0	0	0	6	6
110612	08:14:32	10004	Trial	CongruentRight	14	205	150	1	116	08:14:32	2427161	3	3	2	3	3	3	1	3	1	5	4	0	0	0	0	6	6
110612	08:14:32	10004	Trial	ResponseCL	14	0	175	0	116	08:14:32	2428694	3	3	2	3	3	3	1	3	1	5	4	0	0	0	0	6	6
110612	08:14:32	10004	Trial	CongruentLeft	14	203	156	1	116	08:14:32	2428867	3	3	2	3	3	3	1	3	1	5	4	0	0	0	0	6	6
110612	08:14:32	10004	Trial	ResponseCL	14	0	175	0	116	08:14:32	2430400	3	3	2	3	3	3	1	3	1	5	4	0	0	0	0	6	6
110612	08:14:32	10004	Trial	CongruentLeft	14	203	243	1	116	08:14:32	2430667	3	3	2	3	3	3	1	3	1	5	4	0	0	0	0	6	6
110612	08:14:32	10004	Trial	ResponseIR	14	0	175	0	116	08:14:32	2432106	3	3	2	3	3	3	1	3	1	5	4	0	0	0	0	6	6
110612	08:14:32	10004	Trial	IncongruentRight	14	205	184	1	116	08:14:32	2432319	3	3	2	3	3	3	1	3	1	5	4	0	0	0	0	6	6
110612	08:14:32	10004	Trial	ResponseIL	14	0	175	0	116	08:14:32	2433812	3	3	2	3	3	3	1	3	1	5	4	0	0	0	0	6	6
110612	08:14:32	10004	Trial	IncongruentLeft	14	203	190	1	116	08:14:32	2434025	3	3	2	3	3	3	1	3	1	5	4	0	0	0	0	6	6
110612	08:14:32	10004	Trial	ResponseIR	14	0	175	0	116	08:14:32	2435518	3	3	2	3	3	3	1	3	1	5	4	0	0	0	0	6	6
110612	08:14:32	10004	Trial	IncongruentRight	14	205	148	1	116	08:14:32	2435691	3	3	2	3	3	3	1	3	1	5	4	0	0	0	0	6	6
110612	08:14:32	10004	Trial	ResponseCR	14	0	175	0	116	08:14:32	2437224	3	3	2	3	3	3	1	3	1	5	4	0	0	0	0	6	6
110612	08:14:32	10004	Trial	CongruentRight	14	205	218	1	116	08:14:32	2437464	3	3	2	3	3	3	1	3	1	5	4	0	0	0	0	6	6
110612	08:14:32	10004	Trial	ResponseCR	14	0	175	0	116	08:14:32	2438930	3	3	2	3	3	3	1	3	1	5	4	0	0	0	0	6	6
110612	08:14:32	10004	Trial	CongruentRight	14	205	176	1	116	08:14:32	2439130	3	3	2	3	3	3	1	3	1	5	4	0	0	0	0	6	6
110612	08:14:32	10004	Trial	ResponseIL	14	0	175	0	116	08:14:32	2440636	3	3	2	3	3	3	1	3	1	5	4	0	0	0	0	6	6
110612	08:14:32	10004	Trial	IncongruentLeft	14	203	230	1	116	08:14:32	2440889	3	3	2	3	3	3	1	3	1	5	4	0	0	0	0	6	6
110612	08:14:32	10004	Trial	ResponseCL	14	0	175	0	116	08:14:32	2442342	3	3	2	3	3	3	1	3	1	5	4	0	0	0	0	6	6
110612	08:14:32	10004	Trial	CongruentLeft	14	203	220	1	116	08:14:32	2442582	3	3	2	3	3	3	1	3	1	5	4	0	0	0	0	6	6
110612	08:14:32	10004	Trial	ResponseCR	14	0	175	0	116	08:14:32	2444048	3	3	2	3	3	3	1	3	1	5	4	0	0	0	0	6	6
110612	08:14:32	10004	Trial	CongruentRight	14	205	162	1	116	08:14:32	2444235	3	3	2	3	3	3	1	3	1	5	4	0	0	0	0	6	6
110612	08:14:32	10004	Trial	ResponseCL	14	0	175	0	116	08:14:32	2445754	3	3	2	3	3	3	1	3	1	5	4	0	0	0	0	6	6
110612	08:14:32	10004	Trial	CongruentLeft	14	203	232	1	116	08:14:32	2446007	3	3	2	3	3	3	1	3	1	5	4	0	0	0	0	6	6
110612	08:14:32	10004	Trial	ResponseIR	14	0	175	0	116	08:14:32	2447460	3	3	2	3	3	3	1	3	1	5	4	0	0	0	0	6	6
110612	08:14:32	10004	Trial	IncongruentRight	14	205	255	1	116	08:14:32	2447740	3	3	2	3	3	3	1	3	1	5	4	0	0	0	0	6	6
110612	08:14:32	10004	Trial	ResponseCR	14	0	175	0	116	08:14:32	2449166	3	3	2	3	3	3	1	3	1	5	4	0	0	0	0	6	6
110612	08:14:32	10004	Trial	CongruentRight	14	205	196	1	116	08:14:32	2449379	3	3	2	3	3	3	1	3	1	5	4	0	0	0	0	6	6
110612	08:14:32	10004	Trial	ResponseCL	14	0	175	0	116	08:14:32	2450872	3	3	2	3	3	3	1	3	1	5	4	0	0	0	0	6	6
110612	08:14:32	10004	Trial	CongruentLeft	14	203	202	1	116	08:14:32	2451099	3	3	2	3	3	3	1	3	1	5	4	0	0	0	0	6	6
110612	08:14:32	10004	Trial	ResponseIL	14	0	175	0	116	08:14:32	2452578	3	3	2	3	3	3	1	3	1	5	4	0	0	0	0	6	6
110612	08:14:32	10004	Trial	IncongruentLeft	14	205	128	0	116	08:14:32	2452724	3	3	2	3	3	3	1	3	1	5	4	0	0	0	0	6	6
110612	08:14:32	10004	Trial	ResponseIL	14	0	175	0	116	08:14:32	2454284	3	3	2	3	3	3	1	3	1	5	4	0	0	0	0	6	6
110612	08:14:32	10004	Trial	IncongruentLeft	14	203	310	1	116	08:14:32	2454617	3	3	2	3	3	3	1	3	1	5	4	0	0	0	0	6	6
110612	08:14:32	10004	Trial	ResponseCR	14	0	175	0	116	08:14:32	2455990	3	3	2	3	3	3	1	3	1	5	4	0	0	0	0	6	6
110612	08:14:32	10004	Trial	CongruentRight	14	205	172	1	116	08:14:32	2456189	3	3	2	3	3	3	1	3	1	5	4	0	0	0	0	6	6
110612	08:14:32	10004	Trial	ResponseIR	14	0	175	0	116	08:14:32	2457696	3	3	2	3	3	3	1	3	1	5	4	0	0	0	0	6	6
110612	08:14:32	10004	Trial	IncongruentRight	14	205	258	1	116	08:14:32	2457975	3	3	2	3	3	3	1	3	1	5	4	0	0	0	0	6	6
110612	08:14:32	10004	Trial	ResponseCL	14	0	175	0	116	08:14:32	2459402	3	3	2	3	3	3	1	3	1	5	4	0	0	0	0	6	6
110612	08:14:32	10004	Trial	CongruentLeft	14	203	184	1	116	08:14:32	2459615	3	3	2	3	3	3	1	3	1	5	4	0	0	0	0	6	6
110612	08:14:32	10004	Trial	ResponseIR	14	0	175	0	116	08:14:32	2461108	3	3	2	3	3	3	1	3	1	5	4	0	0	0	0	6	6
110612	08:14:32	10004	Trial	IncongruentRight	14	205	222	1	116	08:14:32	2461347	3	3	2	3	3	3	1	3	1	5	4	0	0	0	0	6	6
110612	08:14:32	10004	Trial	ResponseCR	14	0	175	0	116	08:14:32	2462814	3	3	2	3	3	3	1	3	1	5	4	0	0	0	0	6	6
110612	08:14:32	10004	Trial	CongruentRight	14	205	228	1	116	08:14:32	2463067	3	3	2	3	3	3	1	3	1	5	4	0	0	0	0	6	6
110612	08:14:32	10004	Trial	ResponseIL	14	0	175	0	116	08:14:32	2464520	3	3	2	3	3	3	1	3	1	5	4	0	0	0	0	6	6
110612	08:14:32	10004	Trial	IncongruentLeft	14	203	217	1	116	08:14:32	2464760	3	3	2	3	3	3	1	3	1	5	4	0	0	0	0	6	6
110612	08:14:32	10004	Trial	ResponseCL	14	0	175	0	116	08:14:32	2466226	3	3	2	3	3	3	1	3	1	5	4	0	0	0	0	6	6
110612	08:14:32	10004	Trial	CongruentLeft	14	203	208	1	116	08:14:32	2466452	3	3	2	3	3	3	1	3	1	5	4	0	0	0	0	6	6
110612	08:14:32	10004	Trial	ResponseCR	14	0	175	0	116	08:14:32	2467932	3	3	2	3	3	3	1	3	1	5	4	0	0	0	0	6	6
110612	08:14:32	10004	Trial	CongruentRight	14	205	182	1	116	08:14:32	2468132	3	3	2	3	3	3	1	3	1	5	4	0	0	0	0	6	6
110612	08:14:32	10004	Trial	ResponseIL	14	0	175	0	116	08:14:32	2469638	3	3	2	3	3	3	1	3	1	5	4	0	0	0	0	6	6
110612	08:14:32	10004	Trial	IncongruentLeft	14	203	236	1	116	08:14:32	2469891	3	3	2	3	3	3	1	3	1	5	4	0	0	0	0	6	6
110612	08:14:32	10004	Trial	ResponseCR	14	0	175	0	116	08:14:32	2471344	3	3	2	3	3	3	1	3	1	5	4	0	0	0	0	6	6
110612	08:14:32	10004	Trial	CongruentRight	14	205	193	1	116	08:14:32	2471557	3	3	2	3	3	3	1	3	1	5	4	0	0	0	0	6	6
110612	08:14:32	10004	Trial	ResponseCR	14	0	175	0	116	08:14:32	2473050	3	3	2	3	3	3	1	3	1	5	4	0	0	0	0	6	6
110612	08:14:32	10004	Trial	CongruentRight	14	205	184	1	116	08:14:32	2473263	3	3	2	3	3	3	1	3	1	5	4	0	0	0	0	6	6
110612	08:14:32	10004	Trial	ResponseIR	14	0	175	0	116	08:14:32	2474755	3	3	2	3	3	3	1	3	1	5	4	0	0	0	0	6	6
110612	08:14:32	10004	Trial	IncongruentRight	14	205	414	1	116	08:14:32	2475195	3	3	2	3	3	3	1	3	1	5	4	0	0	0	0	6	6
110612	08:14:32	10004	Trial	ResponseCL	14	0	175	0	116	08:14:32	2476462	3	3	2	3	3	3	1	3	1	5	4	0	0	0	0	6	6
110612	08:14:32	10004	Trial	CongruentLeft	14	203	244	1	116	08:14:32	2476728	3	3	2	3	3	3	1	3	1	5	4	0	0	0	0	6	6
110612	08:14:32	10004	Trial	ResponseIL	14	0	175	0	116	08:14:32	2478168	3	3	2	3	3	3	1	3	1	5	4	0	0	0	0	6	6
110612	08:14:32	10004	Trial	IncongruentLeft	14	203	250	1	116	08:14:32	2478434	3	3	2	3	3	3	1	3	1	5	4	0	0	0	0	6	6
110612	08:14:32	10004	Trial	ResponseCL	14	0	175	0	116	08:14:32	2479874	3	3	2	3	3	3	1	3	1	5	4	0	0	0	0	6	6
110612	08:14:32	10004	Trial	CongruentLeft	14	203	192	1	116	08:14:32	2480087	3	3	2	3	3	3	1	3	1	5	4	0	0	0	0	6	6
110612	08:14:32	10004	Trial	ResponseIR	14	0	175	0	116	08:14:32	2481579	3	3	2	3	3	3	1	3	1	5	4	0	0	0	0	6	6
110612	08:14:32	10004	Trial	IncongruentRight	14	203	246	0	116	08:14:32	2481846	3	3	2	3	3	3	1	3	1	5	4	0	0	0	0	6	6
110612	08:14:32	10004	Trial	ResponseIL	14	0	175	0	116	08:14:32	2483285	3	3	2	3	3	3	1	3	1	5	4	0	0	0	0	6	6
110612	08:14:32	10004	Trial	IncongruentLeft	14	203	236	1	116	08:14:32	2483538	3	3	2	3	3	3	1	3	1	5	4	0	0	0	0	6	6
110612	08:14:32	10004	Trial	ResponseCR	14	0	175	0	116	08:14:32	2484991	3	3	2	3	3	3	1	3	1	5	4	0	0	0	0	6	6
110612	08:14:32	10004	Trial	CongruentRight	14	205	210	1	116	08:14:32	2485218	3	3	2	3	3	3	1	3	1	5	4	0	0	0	0	6	6
110612	08:14:32	10004	Trial	ResponseCL	14	0	175	0	116	08:14:32	2486697	3	3	2	3	3	3	1	3	1	5	4	0	0	0	0	6	6
110612	08:14:32	10004	Trial	CongruentLeft	14	203	200	1	116	08:14:32	2486924	3	3	2	3	3	3	1	3	1	5	4	0	0	0	0	6	6
110612	08:14:32	10004	Trial	ResponseIL	14	0	175	0	116	08:14:32	2488403	3	3	2	3	3	3	1	3	1	5	4	0	0	0	0	6	6
110612	08:14:32	10004	Trial	IncongruentLeft	14	203	238	1	116	08:14:32	2488670	3	3	2	3	3	3	1	3	1	5	4	0	0	0	0	6	6
110612	08:14:32	10004	Trial	ResponseCL	14	0	175	0	116	08:14:32	2490109	3	3	2	3	3	3	1	3	1	5	4	0	0	0	0	6	6
110612	08:14:32	10004	Trial	CongruentLeft	14	203	212	1	116	08:14:32	2490349	3	3	2	3	3	3	1	3	1	5	4	0	0	0	0	6	6
110612	08:14:32	10004	Trial	ResponseIR	14	0	175	0	116	08:14:32	2491815	3	3	2	3	3	3	1	3	1	5	4	0	0	0	0	6	6
110612	08:14:32	10004	Trial	IncongruentRight	14	205	186	1	116	08:14:32	2492029	3	3	2	3	3	3	1	3	1	5	4	0	0	0	0	6	6
110612	08:14:32	10004	Trial	ResponseCR	14	0	175	0	116	08:14:32	2493521	3	3	2	3	3	3	1	3	1	5	4	0	0	0	0	6	6
110612	08:14:32	10004	Trial	CongruentRight	14	205	192	1	116	08:14:32	2493735	3	3	2	3	3	3	1	3	1	5	4	0	0	0	0	6	6
110612	08:14:32	10004	Trial	ResponseIL	14	0	175	0	116	08:14:32	2495227	3	3	2	3	3	3	1	3	1	5	4	0	0	0	0	6	6
110612	08:14:32	10004	Trial	IncongruentLeft	14	203	262	1	116	08:14:32	2495507	3	3	2	3	3	3	1	3	1	5	4	0	0	0	0	6	6
110612	08:14:32	10004	Trial	ResponseCL	14	0	175	0	116	08:14:32	2496933	3	3	2	3	3	3	1	3	1	5	4	0	0	0	0	6	6
110612	08:14:32	10004	Trial	CongruentLeft	14	203	204	1	116	08:14:32	2497160	3	3	2	3	3	3	1	3	1	5	4	0	0	0	0	6	6
110612	08:14:32	10004	Trial	ResponseIR	14	0	175	0	116	08:14:32	2498639	3	3	2	3	3	3	1	3	1	5	4	0	0	0	0	6	6
110612	08:14:32	10004	Trial	IncongruentRight	14	205	162	1	116	08:14:32	2498826	3	3	2	3	3	3	1	3	1	5	4	0	0	0	0	6	6
110612	08:14:32	10004	Trial	ResponseIL	14	0	175	0	116	08:14:32	2500345	3	3	2	3	3	3	1	3	1	5	4	0	0	0	0	6	6
110612	08:14:32	10004	Trial	IncongruentLeft	14	203	216	1	116	08:14:32	2500585	3	3	2	3	3	3	1	3	1	5	4	0	0	0	0	6	6
110612	08:14:32	10004	Trial	ResponseCL	14	0	175	0	116	08:14:32	2502051	3	3	2	3	3	3	1	3	1	5	4	0	0	0	0	6	6
110612	08:14:32	10004	Trial	CongruentLeft	14	203	206	1	116	08:14:32	2502278	3	3	2	3	3	3	1	3	1	5	4	0	0	0	0	6	6
110612	08:14:32	10004	Trial	ResponseIL	14	0	175	0	116	08:14:32	2503757	3	3	2	3	3	3	1	3	1	5	4	0	0	0	0	6	6
110612	08:14:32	10004	Trial	IncongruentLeft	14	205	180	0	116	08:14:32	2503957	3	3	2	3	3	3	1	3	1	5	4	0	0	0	0	6	6
110612	08:14:32	10004	Trial	ResponseCR	14	0	175	0	116	08:14:32	2505463	3	3	2	3	3	3	1	3	1	5	4	0	0	0	0	6	6
110612	08:14:32	10004	Trial	CongruentRight	14	205	186	1	116	08:14:32	2505677	3	3	2	3	3	3	1	3	1	5	4	0	0	0	0	6	6
110612	08:14:32	10004	Trial	ResponseCL	14	0	175	0	116	08:14:32	2507169	3	3	2	3	3	3	1	3	1	5	4	0	0	0	0	6	6
110612	08:14:32	10004	Trial	CongruentLeft	14	203	175	1	116	08:14:32	2507369	3	3	2	3	3	3	1	3	1	5	4	0	0	0	0	6	6
110612	08:14:32	10004	Trial	ResponseIR	14	0	175	0	116	08:14:32	2508875	3	3	2	3	3	3	1	3	1	5	4	0	0	0	0	6	6
110612	08:14:32	10004	Trial	IncongruentRight	14	205	198	1	116	08:14:32	2509102	3	3	2	3	3	3	1	3	1	5	4	0	0	0	0	6	6
110612	08:14:32	10004	Trial	ResponseCL	14	0	175	0	116	08:14:32	2510581	3	3	2	3	3	3	1	3	1	5	4	0	0	0	0	6	6
110612	08:14:32	10004	Trial	CongruentLeft	14	203	204	1	116	08:14:32	2510808	3	3	2	3	3	3	1	3	1	5	4	0	0	0	0	6	6
110612	08:14:32	10004	Trial	ResponseCR	14	0	175	0	116	08:14:32	2512287	3	3	2	3	3	3	1	3	1	5	4	0	0	0	0	6	6
110612	08:14:32	10004	Trial	CongruentRight	14	205	161	1	116	08:14:32	2512474	3	3	2	3	3	3	1	3	1	5	4	0	0	0	0	6	6
110612	08:14:32	10004	Trial	ResponseIL	14	0	175	0	116	08:14:32	2513993	3	3	2	3	3	3	1	3	1	5	4	0	0	0	0	6	6
110612	08:14:32	10004	Trial	IncongruentLeft	14	203	232	1	116	08:14:32	2514246	3	3	2	3	3	3	1	3	1	5	4	0	0	0	0	6	6
110612	08:14:32	10004	WordsAbsFr6mo	PAbsFr6mo1	16	Abs1	4365	0	116	08:14:32	2527841	3	3	2	3	3	3	1	3	1	5	4	0	0	0	0	6	6
110612	08:14:32	10004	WordsAbsFr6mo	AbsFr6mo1	16	Abs1	3799	0	116	08:14:32	2531679	3	3	2	3	3	3	1	3	1	5	4	1	0	0	0	6	6
110612	08:14:32	10004	WordsAbsFr6mo	AbsFr6mo2	16	Abs1	34039	0	116	08:14:32	2565759	3	3	2	3	3	3	1	3	1	5	4	2	0	0	0	6	6
110612	08:14:32	10004	WordsAbsFr6mo	AbsFr6mo3	16	Abs1	5536	0	116	08:14:32	2571330	3	3	2	3	3	3	1	3	1	5	4	3	0	0	0	6	6
110612	08:14:32	10004	Trial2BackFrS	NS	17	0	1000	1	116	08:14:32	2616485	3	3	2	3	3	3	1	3	1	5	4	3	0	0	0	6	6
110612	08:14:32	10004	Trial2BackFrS	NS	17	0	1000	1	116	08:14:32	2617991	3	3	2	3	3	3	1	3	1	5	4	3	0	0	0	6	6
110612	08:14:32	10004	Trial2BackFrS	NS	17	0	1000	1	116	08:14:32	2619497	3	3	2	3	3	3	1	3	1	5	4	3	0	0	0	6	6
110612	08:14:32	10004	Trial2BackFrS	YS	17	0	1000	0	116	08:14:32	2621003	3	3	2	3	3	3	1	3	1	5	4	3	0	0	0	6	6
110612	08:14:32	10004	Trial2BackFrS	NS	17	0	1000	1	116	08:14:32	2622509	3	3	2	3	3	3	1	3	1	5	4	3	0	0	0	6	6
110612	08:14:32	10004	Trial2BackFrS	NS	17	0	1000	1	116	08:14:32	2624015	3	3	2	3	3	3	1	3	1	5	4	3	0	0	0	6	6
110612	08:14:32	10004	Trial2BackFrS	NS	17	0	1000	1	116	08:14:32	2625521	3	3	2	3	3	3	1	3	1	5	4	3	0	0	0	6	6
110612	08:14:32	10004	Trial2BackFrS	NS	17	57	561	0	116	08:14:32	2626601	3	3	2	3	3	3	1	3	1	5	4	3	0	0	0	6	6
110612	08:14:32	10004	Trial2BackFrS	YS	17	0	1000	0	116	08:14:32	2628533	3	3	2	3	3	3	1	3	1	5	4	3	0	0	0	6	6
110612	08:14:32	10004	Trial2BackFrS	NS	17	0	1000	1	116	08:14:32	2630039	3	3	2	3	3	3	1	3	1	5	4	3	0	0	0	6	6
110612	08:14:32	10004	Trial2BackFrS	NS	17	0	1000	1	116	08:14:32	2631545	3	3	2	3	3	3	1	3	1	5	4	3	0	0	0	6	6
110612	08:14:32	10004	Trial2BackFrS	YS	17	0	1000	0	116	08:14:32	2633052	3	3	2	3	3	3	1	3	1	5	4	3	0	0	0	6	6
110612	08:14:32	10004	Trial2BackFrS	NS	17	0	1000	1	116	08:14:32	2634558	3	3	2	3	3	3	1	3	1	5	4	3	0	0	0	6	6
110612	08:14:32	10004	Trial2BackFrS	NS	17	0	1000	1	116	08:14:32	2636063	3	3	2	3	3	3	1	3	1	5	4	3	0	0	0	6	6
110612	08:14:32	10004	Trial2BackFrS	NS	17	0	1000	1	116	08:14:32	2637570	3	3	2	3	3	3	1	3	1	5	4	3	0	0	0	6	6
110612	08:14:32	10004	Trial2BackFrS	YS	17	57	832	1	116	08:14:32	2638916	3	3	2	3	3	3	1	3	1	5	4	3	0	0	0	6	6
110612	08:14:32	10004	Trial2BackFrS	NS	17	0	1000	1	116	08:14:32	2640582	3	3	2	3	3	3	1	3	1	5	4	3	0	0	0	6	6
110612	08:14:32	10004	Trial2BackFrS	NS	17	0	1000	1	116	08:14:32	2642088	3	3	2	3	3	3	1	3	1	5	4	3	0	0	0	6	6
110612	08:14:32	10004	Trial2BackFrS	NS	17	0	1000	1	116	08:14:32	2643594	3	3	2	3	3	3	1	3	1	5	4	3	0	0	0	6	6
110612	08:14:32	10004	Trial2BackFrS	NS	17	0	1000	1	116	08:14:32	2645100	3	3	2	3	3	3	1	3	1	5	4	3	0	0	0	6	6
110612	08:14:32	10004	Trial2BackFrS	YS	17	57	838	1	116	08:14:32	2646446	3	3	2	3	3	3	1	3	1	5	4	3	0	0	0	6	6
110612	08:14:32	10004	Trial2BackFrS	NS	17	0	1000	1	116	08:14:32	2648112	3	3	2	3	3	3	1	3	1	5	4	3	0	0	0	6	6
110612	08:14:32	10004	Trial2BackFrS	NS	17	0	1000	1	116	08:14:32	2649618	3	3	2	3	3	3	1	3	1	5	4	3	0	0	0	6	6
110612	08:14:32	10004	Trial2BackFrS	NS	17	0	1000	1	116	08:14:32	2651124	3	3	2	3	3	3	1	3	1	5	4	3	0	0	0	6	6
110612	08:14:32	10004	Trial2BackFrS	NS	17	57	846	0	116	08:14:32	2652483	3	3	2	3	3	3	1	3	1	5	4	3	0	0	0	6	6
110612	08:14:32	10004	Trial2BackFrS	NS	17	0	1000	1	116	08:14:32	2654136	3	3	2	3	3	3	1	3	1	5	4	3	0	0	0	6	6
110612	08:14:32	10004	Trial2BackFrS	NS	17	0	1000	1	116	08:14:32	2655642	3	3	2	3	3	3	1	3	1	5	4	3	0	0	0	6	6
110612	08:14:32	10004	Trial2BackFrS	NS	17	0	1000	1	116	08:14:32	2657148	3	3	2	3	3	3	1	3	1	5	4	3	0	0	0	6	6
110612	08:14:32	10004	Trial2BackFrS	NS	17	0	1000	1	116	08:14:32	2658668	3	3	2	3	3	3	1	3	1	5	4	3	0	0	0	6	6
110612	08:14:32	10004	Trial2BackFrS	NS	17	0	1000	1	116	08:14:32	2660174	3	3	2	3	3	3	1	3	1	5	4	3	0	0	0	6	6
110612	08:14:32	10004	Trial2BackFrS	NS	17	0	1000	1	116	08:14:32	2661680	3	3	2	3	3	3	1	3	1	5	4	3	0	0	0	6	6
110612	08:14:32	10004	Trial2BackFrS	YS	17	57	545	1	116	08:14:32	2662746	3	3	2	3	3	3	1	3	1	5	4	3	0	0	0	6	6
110612	08:14:32	10004	Trial2BackFrS	NS	17	0	1000	1	116	08:14:32	2664692	3	3	2	3	3	3	1	3	1	5	4	3	0	0	0	6	6
110612	08:14:32	10004	Trial2BackFrS	NS	17	0	1000	1	116	08:14:32	2666211	3	3	2	3	3	3	1	3	1	5	4	3	0	0	0	6	6
110612	08:14:32	10004	Trial2BackFrS	NS	17	0	1000	1	116	08:14:32	2667717	3	3	2	3	3	3	1	3	1	5	4	3	0	0	0	6	6
110612	08:14:32	10004	Trial2BackFrS	YS	17	0	1000	0	116	08:14:32	2669224	3	3	2	3	3	3	1	3	1	5	4	3	0	0	0	6	6
110612	08:14:32	10004	Trial2BackFrS	NS	17	0	1000	1	116	08:14:32	2670730	3	3	2	3	3	3	1	3	1	5	4	3	0	0	0	6	6
110612	08:14:32	10004	Trial2BackFrS	NS	17	0	1000	1	116	08:14:32	2672236	3	3	2	3	3	3	1	3	1	5	4	3	0	0	0	6	6
110612	08:14:32	10004	Trial2BackFrS	NS	17	0	1000	1	116	08:14:32	2673742	3	3	2	3	3	3	1	3	1	5	4	3	0	0	0	6	6
110612	08:14:32	10004	Trial2BackFrS	NS	17	0	1000	1	116	08:14:32	2675261	3	3	2	3	3	3	1	3	1	5	4	3	0	0	0	6	6
110612	08:14:32	10004	Trial2BackFrS	NS	17	57	660	0	116	08:14:32	2676434	3	3	2	3	3	3	1	3	1	5	4	3	0	0	0	6	6
110612	08:14:32	10004	Trial2BackFrS	NS	17	0	1000	1	116	08:14:32	2678273	3	3	2	3	3	3	1	3	1	5	4	3	0	0	0	6	6
110612	08:14:32	10004	Trial2BackFrS	NS	17	0	1000	1	116	08:14:32	2679779	3	3	2	3	3	3	1	3	1	5	4	3	0	0	0	6	6
110612	08:14:32	10004	Trial2BackFrS	YS	17	0	1000	0	116	08:14:32	2681285	3	3	2	3	3	3	1	3	1	5	4	3	0	0	0	6	6
110612	08:14:32	10004	Trial2BackFrS	NS	17	0	1000	1	116	08:14:32	2682791	3	3	2	3	3	3	1	3	1	5	4	3	0	0	0	6	6
110612	08:14:32	10004	Trial2BackFrS	NS	17	0	1000	1	116	08:14:32	2684297	3	3	2	3	3	3	1	3	1	5	4	3	0	0	0	6	6
110612	08:14:32	10004	Trial2BackFrS	NS	17	0	1000	1	116	08:14:32	2685804	3	3	2	3	3	3	1	3	1	5	4	3	0	0	0	6	6
110612	08:14:32	10004	Trial2BackFrS	NS	17	0	1000	1	116	08:14:32	2687310	3	3	2	3	3	3	1	3	1	5	4	3	0	0	0	6	6
110612	08:14:32	10004	Trial2BackFrS	YS	17	57	579	1	116	08:14:32	2688402	3	3	2	3	3	3	1	3	1	5	4	3	0	0	0	6	6
110612	08:14:32	10004	Trial2BackFrS	NS	17	0	1000	1	116	08:14:32	2690322	3	3	2	3	3	3	1	3	1	5	4	3	0	0	0	6	6
110612	08:14:32	10004	Trial2BackFrS	NS	17	0	1000	1	116	08:14:32	2691828	3	3	2	3	3	3	1	3	1	5	4	3	0	0	0	6	6
110612	08:14:32	10004	Trial2BackFrS	NS	17	0	1000	1	116	08:14:32	2693334	3	3	2	3	3	3	1	3	1	5	4	3	0	0	0	6	6
110612	08:14:32	10004	Trial2BackFrS	NS	17	0	1000	1	116	08:14:32	2694840	3	3	2	3	3	3	1	3	1	5	4	3	0	0	0	6	6
110612	08:14:32	10004	Trial2BackFrS	NS	17	57	297	0	116	08:14:32	2695653	3	3	2	3	3	3	1	3	1	5	4	3	0	0	0	6	6
110612	08:14:32	10004	Trial2BackFrS	NS	17	0	1000	1	116	08:14:32	2697852	3	3	2	3	3	3	1	3	1	5	4	3	0	0	0	6	6
110612	08:14:32	10004	Trial2BackFrS	YS	17	0	1000	0	116	08:14:32	2699358	3	3	2	3	3	3	1	3	1	5	4	3	0	0	0	6	6
110612	08:14:32	10004	Trial2BackFrS	NS	17	0	1000	1	116	08:14:32	2700864	3	3	2	3	3	3	1	3	1	5	4	3	0	0	0	6	6
110612	08:14:32	10004	Trial2BackFrS	NS	17	0	1000	1	116	08:14:32	2702370	3	3	2	3	3	3	1	3	1	5	4	3	0	0	0	6	6
110612	08:14:32	10004	Trial2BackFrS	NS	17	0	1000	1	116	08:14:32	2703876	3	3	2	3	3	3	1	3	1	5	4	3	0	0	0	6	6
110612	08:14:32	10004	Trial2BackFrS	NS	17	0	1000	1	116	08:14:32	2705382	3	3	2	3	3	3	1	3	1	5	4	3	0	0	0	6	6
110612	08:14:32	10004	Trial2BackFrS	NS	17	57	154	0	116	08:14:32	2706048	3	3	2	3	3	3	1	3	1	5	4	3	0	0	0	6	6
110612	08:14:32	10004	Trial2BackFrS	NS	17	0	1000	1	116	08:14:32	2708394	3	3	2	3	3	3	1	3	1	5	4	3	0	0	0	6	6
110612	08:14:32	10004	Trial2BackFrS	NS	17	0	1000	1	116	08:14:32	2709901	3	3	2	3	3	3	1	3	1	5	4	3	0	0	0	6	6
110612	08:14:32	10004	Trial2BackFrS	YS	17	0	1000	0	116	08:14:32	2711406	3	3	2	3	3	3	1	3	1	5	4	3	0	0	0	6	6
110612	08:14:32	10004	Trial2BackFrS	NS	17	0	1000	1	116	08:14:32	2712912	3	3	2	3	3	3	1	3	1	5	4	3	0	0	0	6	6
110612	08:14:32	10004	Trial2BackFrS	NS	17	0	1000	1	116	08:14:32	2714418	3	3	2	3	3	3	1	3	1	5	4	3	0	0	0	6	6
110612	08:14:32	10004	Trial2BackFrS	NS	17	0	1000	1	116	08:14:32	2715925	3	3	2	3	3	3	1	3	1	5	4	3	0	0	0	6	6
110612	08:14:32	10004	Trial2BackFrS	NS	17	57	236	0	116	08:14:32	2716671	3	3	2	3	3	3	1	3	1	5	4	3	0	0	0	6	6
110612	08:14:32	10004	Trial2BackFrS	YS	17	0	1000	0	116	08:14:32	2718937	3	3	2	3	3	3	1	3	1	5	4	3	0	0	0	6	6
110612	08:14:32	10004	Trial2BackFrS	NS	17	0	1000	1	116	08:14:32	2720443	3	3	2	3	3	3	1	3	1	5	4	3	0	0	0	6	6
110612	08:14:32	10004	Trial2BackFrS	NS	17	0	1000	1	116	08:14:32	2721949	3	3	2	3	3	3	1	3	1	5	4	3	0	0	0	6	6
110612	08:14:32	10004	Trial2BackFrS	YS	17	0	1000	0	116	08:14:32	2723455	3	3	2	3	3	3	1	3	1	5	4	3	0	0	0	6	6
110612	08:14:32	10004	Trial2BackFrS	NS	17	0	1000	1	116	08:14:32	2724961	3	3	2	3	3	3	1	3	1	5	4	3	0	0	0	6	6
110612	08:14:32	10004	Trial2BackFrS	NS	17	0	1000	1	116	08:14:32	2726467	3	3	2	3	3	3	1	3	1	5	4	3	0	0	0	6	6
110612	08:14:32	10004	Trial2BackFrS	NS	17	0	1000	1	116	08:14:32	2727973	3	3	2	3	3	3	1	3	1	5	4	3	0	0	0	6	6
110612	08:14:32	10004	Trial2BackFrS	NS	17	0	1000	1	116	08:14:32	2729479	3	3	2	3	3	3	1	3	1	5	4	3	0	0	0	6	6
110612	08:14:32	10004	Trial2BackFrS	NS	17	57	729	0	116	08:14:32	2730718	3	3	2	3	3	3	1	3	1	5	4	3	0	0	0	6	6
110612	08:14:32	10004	Trial2BackFrS	NS	17	0	1000	1	116	08:14:32	2732491	3	3	2	3	3	3	1	3	1	5	4	3	0	0	0	6	6
110612	08:14:32	10004	Trial2BackFrS	YS	17	0	1000	0	116	08:14:32	2733997	3	3	2	3	3	3	1	3	1	5	4	3	0	0	0	6	6
110612	08:14:32	10004	Trial2BackFrS	NS	17	0	1000	1	116	08:14:32	2735503	3	3	2	3	3	3	1	3	1	5	4	3	0	0	0	6	6
110612	08:14:32	10004	Trial2BackFrS	NS	17	0	1000	1	116	08:14:32	2737009	3	3	2	3	3	3	1	3	1	5	4	3	0	0	0	6	6
110612	08:14:32	10004	Trial2BackFrS	NS	17	0	1000	1	116	08:14:32	2738515	3	3	2	3	3	3	1	3	1	5	4	3	0	0	0	6	6
110612	08:14:32	10004	Trial2BackFrS	NS	17	0	1000	1	116	08:14:32	2740022	3	3	2	3	3	3	1	3	1	5	4	3	0	0	0	6	6
110612	08:14:32	10004	Trial2BackFrS	YS	17	57	602	1	116	08:14:32	2741141	3	3	2	3	3	3	1	3	1	5	4	3	0	0	0	6	6
110612	08:14:32	10004	Trial2BackFrS	NS	17	0	1000	1	116	08:14:32	2743034	3	3	2	3	3	3	1	3	1	5	4	3	0	0	0	6	6
110612	08:14:32	10004	Trial2BackFrS	NS	17	0	1000	1	116	08:14:32	2744540	3	3	2	3	3	3	1	3	1	5	4	3	0	0	0	6	6
110612	08:14:32	10004	Trial2BackFrS	NS	17	0	1000	1	116	08:14:32	2746059	3	3	2	3	3	3	1	3	1	5	4	3	0	0	0	6	6
110612	08:14:32	10004	Trial2BackFrS	NS	17	0	1000	1	116	08:14:32	2747565	3	3	2	3	3	3	1	3	1	5	4	3	0	0	0	6	6
110612	08:14:32	10004	Trial2BackFrS	YS	17	0	1000	0	116	08:14:32	2749071	3	3	2	3	3	3	1	3	1	5	4	3	0	0	0	6	6
110612	08:14:32	10004	Trial2BackFrS	NS	17	0	1000	1	116	08:14:32	2750577	3	3	2	3	3	3	1	3	1	5	4	3	0	0	0	6	6
110612	08:14:32	10004	Trial2BackFrS	NS	17	0	1000	1	116	08:14:32	2752083	3	3	2	3	3	3	1	3	1	5	4	3	0	0	0	6	6
110612	08:14:32	10004	Trial2BackFrS	YS	17	57	268	1	116	08:14:32	2752870	3	3	2	3	3	3	1	3	1	5	4	3	0	0	0	6	6
110612	08:14:32	10004	Trial2BackFrS	NS	17	0	1000	1	116	08:14:32	2755096	3	3	2	3	3	3	1	3	1	5	4	3	0	0	0	6	6
110612	08:14:32	10004	Trial2BackFrS	NS	17	0	1000	1	116	08:14:32	2756601	3	3	2	3	3	3	1	3	1	5	4	3	0	0	0	6	6
110612	08:14:32	10004	Trial2BackFrS	NS	17	0	1000	1	116	08:14:32	2758108	3	3	2	3	3	3	1	3	1	5	4	3	0	0	0	6	6
110612	08:14:32	10004	Trial2BackFrS	NS	17	0	1000	1	116	08:14:32	2759614	3	3	2	3	3	3	1	3	1	5	4	3	0	0	0	6	6
110612	08:14:32	10004	Trial2BackFrS	NS	17	0	1000	1	116	08:14:32	2761120	3	3	2	3	3	3	1	3	1	5	4	3	0	0	0	6	6
110612	08:14:32	10004	Trial2BackFrS	NS	17	0	1000	1	116	08:14:32	2762626	3	3	2	3	3	3	1	3	1	5	4	3	0	0	0	6	6
110612	08:14:32	10004	Trial2BackFrS	NS	17	57	478	0	116	08:14:32	2763612	3	3	2	3	3	3	1	3	1	5	4	3	0	0	0	6	6
110612	08:14:32	10004	Trial2BackFrS	NS	17	0	1000	1	116	08:14:32	2765638	3	3	2	3	3	3	1	3	1	5	4	3	0	0	0	6	6
110612	08:14:32	10004	Trial2BackFrS	YS	17	0	1000	0	116	08:14:32	2767144	3	3	2	3	3	3	1	3	1	5	4	3	0	0	0	6	6
110612	08:14:32	10004	Trial2BackFrS	NS	17	0	1000	1	116	08:14:32	2768650	3	3	2	3	3	3	1	3	1	5	4	3	0	0	0	6	6
110612	08:14:32	10004	Trial2BackFrS	NS	17	0	1000	1	116	08:14:32	2770156	3	3	2	3	3	3	1	3	1	5	4	3	0	0	0	6	6
110612	08:14:32	10004	Trial2BackFrS	NS	17	0	1000	1	116	08:14:32	2771662	3	3	2	3	3	3	1	3	1	5	4	3	0	0	0	6	6
110612	08:14:32	10004	Trial2BackFrS	NS	17	57	641	0	116	08:14:32	2772821	3	3	2	3	3	3	1	3	1	5	4	3	0	0	0	6	6
110612	08:14:32	10004	Trial2BackFrS	NS	17	0	1000	1	116	08:14:32	2774674	3	3	2	3	3	3	1	3	1	5	4	3	0	0	0	6	6
110612	08:14:32	10004	Trial2BackFrS	NS	17	0	1000	1	116	08:14:32	2776180	3	3	2	3	3	3	1	3	1	5	4	3	0	0	0	6	6
110612	08:14:32	10004	Trial2BackFrS	NS	17	0	1000	1	116	08:14:32	2777686	3	3	2	3	3	3	1	3	1	5	4	3	0	0	0	6	6
110612	08:14:32	10004	Trial2BackFrS	YS	17	57	584	1	116	08:14:32	2778779	3	3	2	3	3	3	1	3	1	5	4	3	0	0	0	6	6
110612	08:14:32	10004	Trial2BackFrS	NS	17	0	1000	1	116	08:14:32	2780698	3	3	2	3	3	3	1	3	1	5	4	3	0	0	0	6	6
110612	08:14:32	10004	Trial2BackFrS	NS	17	0	1000	1	116	08:14:32	2782204	3	3	2	3	3	3	1	3	1	5	4	3	0	0	0	6	6
110612	08:14:32	10004	Trial2BackFrS	NS	17	0	1000	1	116	08:14:32	2783724	3	3	2	3	3	3	1	3	1	5	4	3	0	0	0	6	6
110612	08:14:32	10004	Trial2BackFrS	NS	17	0	1000	1	116	08:14:32	2785230	3	3	2	3	3	3	1	3	1	5	4	3	0	0	0	6	6
110612	08:14:32	10004	Trial2BackFrS	NS	17	0	1000	1	116	08:14:32	2786736	3	3	2	3	3	3	1	3	1	5	4	3	0	0	0	6	6
110612	08:14:32	10004	Trial2BackFrS	NS	17	0	1000	1	116	08:14:32	2788242	3	3	2	3	3	3	1	3	1	5	4	3	0	0	0	6	6
110612	08:14:32	10004	Trial2BackFrS	NS	17	57	332	0	116	08:14:32	2789095	3	3	2	3	3	3	1	3	1	5	4	3	0	0	0	6	6
110612	08:14:32	10004	Trial2BackFrS	NS	17	0	1000	1	116	08:14:32	2791254	3	3	2	3	3	3	1	3	1	5	4	3	0	0	0	6	6
110612	08:14:32	10004	Trial2BackFrS	NS	17	0	1000	1	116	08:14:32	2792760	3	3	2	3	3	3	1	3	1	5	4	3	0	0	0	6	6
110612	08:14:32	10004	Trial2BackFrS	YS	17	57	550	1	116	08:14:32	2793826	3	3	2	3	3	3	1	3	1	5	4	3	0	0	0	6	6
110612	08:14:32	10004	Trial2BackFrS	NS	17	0	1000	1	116	08:14:32	2795772	3	3	2	3	3	3	1	3	1	5	4	3	0	0	0	6	6
110612	08:14:32	10004	ClockFr6mo	ClockFr6mo	19	Clock1	41283	0	116	08:14:32	2837169	3	3	2	3	3	3	1	3	1	5	4	3	1	0	0	6	6
110612	08:14:32	10004	ClockFr6mo	ClockFr6mo	19	Clock11	1361	0	116	08:14:32	2838582	3	3	2	3	3	3	1	3	1	5	4	3	1	1	0	6	6
110612	08:14:32	10004	ClockFr6mo	ClockFr6mo	19	Clock111	533	0	116	08:14:32	2839168	3	3	2	3	3	3	1	3	1	5	4	3	1	1	1	6	6
110612	08:14:32	10004	ClockFr6mo	ClockFr6mo	19	Clockdone	706	0	116	08:14:32	2839928	3	3	2	3	3	3	1	3	1	5	4	3	1	1	1	6	6
110612	08:14:32	10004	FASFrVF6mo	StopFrVF6mo	20	14	6255	0	116	08:14:32	2940089	3	3	2	3	3	3	1	3	1	5	4	3	1	1	1	6	6
