date	time	subject	blockcode	trialcode	values.TaskNumber	response	latency	correct	values.Score	script.starttime	script.elapsedtime	values.ScoreS7	values.Word1	values.Word2	values.Word3	values.Word4	values.Word5	values.Word6	values.Word7	values.Word8	values.DigitSpanFwrd	values.DigitSpanBack	values.ScoreAbs	values.Contour	values.Numbers	values.Hands	values.corsiblockspanFwrd	values.corsiblockspanRev
121812	08:40:17	10021	Language	Language	0	French	458071	0	0	08:40:17	458234	0	0	0	0	0	0	0	0	0	0	0	0	0	0	0	0	0
121812	08:40:17	10021	Session	Session	0	6mo	990	0	0	08:40:17	459287	0	0	0	0	0	0	0	0	0	0	0	0	0	0	0	0	0
121812	08:40:17	10021	HandFr	HandFr	0	RightFr	1116	0	0	08:40:17	460473	0	0	0	0	0	0	0	0	0	0	0	0	0	0	0	0	0
121812	08:40:17	10021	AudioCheckFr	WordsFr	0	0	0	0	0	08:40:17	1999485	0	0	0	0	0	0	0	0	0	0	0	0	0	0	0	0	0
121812	08:40:17	10021	CubeFr	CubeFr	1	1Cube	67482	0	0	08:40:17	2068690	0	0	0	0	0	0	0	0	0	0	0	0	0	0	0	0	0
121812	08:40:17	10021	pm.simpleFrRight	blank.simpleFr	2	0	1500	1	0	08:40:17	2126948	0	0	0	0	0	0	0	0	0	0	0	0	0	0	0	0	0
121812	08:40:17	10021	pm.simpleFrRight	pm.simpleFr	2	57	1494	0	0	08:40:17	2128467	0	0	0	0	0	0	0	0	0	0	0	0	0	0	0	0	0
121812	08:40:17	10021	pm.simpleFrRight	blank.simpleFr	2	0	1900	1	0	08:40:17	2130386	0	0	0	0	0	0	0	0	0	0	0	0	0	0	0	0	0
121812	08:40:17	10021	pm.simpleFrRight	pm.simpleFr	2	57	1831	0	0	08:40:17	2132238	0	0	0	0	0	0	0	0	0	0	0	0	0	0	0	0	0
121812	08:40:17	10021	pm.simpleFrRight	blank.simpleFr	2	0	2500	1	0	08:40:17	2134758	0	0	0	0	0	0	0	0	0	0	0	0	0	0	0	0	0
121812	08:40:17	10021	pm.simpleFrRight	pm.simpleFr	2	57	996	0	0	08:40:17	2135771	0	0	0	0	0	0	0	0	0	0	0	0	0	0	0	0	0
121812	08:40:17	10021	pm.simpleFrRight	blank.simpleFr	2	0	2300	1	0	08:40:17	2138090	0	0	0	0	0	0	0	0	0	0	0	0	0	0	0	0	0
121812	08:40:17	10021	pm.simpleFrRight	pm.simpleFr	2	57	818	0	0	08:40:17	2138943	0	0	0	0	0	0	0	0	0	0	0	0	0	0	0	0	0
121812	08:40:17	10021	pm.simpleFrRight	blank.simpleFr	2	0	1800	1	0	08:40:17	2140769	0	0	0	0	0	0	0	0	0	0	0	0	0	0	0	0	0
121812	08:40:17	10021	pm.simpleFrRight	pm.simpleFr	2	57	793	0	0	08:40:17	2141581	0	0	0	0	0	0	0	0	0	0	0	0	0	0	0	0	0
121812	08:40:17	10021	pm.simpleFrRight	blank.simpleFr	2	0	2400	1	0	08:40:17	2143994	0	0	0	0	0	0	0	0	0	0	0	0	0	0	0	0	0
121812	08:40:17	10021	pm.simpleFrRight	pm.simpleFr	2	57	671	0	0	08:40:17	2144687	0	0	0	0	0	0	0	0	0	0	0	0	0	0	0	0	0
121812	08:40:17	10021	pm.simpleFrRight	blank.simpleFr	2	0	2000	1	0	08:40:17	2146700	0	0	0	0	0	0	0	0	0	0	0	0	0	0	0	0	0
121812	08:40:17	10021	pm.simpleFrRight	pm.simpleFr	2	57	1085	0	0	08:40:17	2147806	0	0	0	0	0	0	0	0	0	0	0	0	0	0	0	0	0
121812	08:40:17	10021	pm.simpleFrRight	blank.simpleFr	2	0	2100	1	0	08:40:17	2149925	0	0	0	0	0	0	0	0	0	0	0	0	0	0	0	0	0
121812	08:40:17	10021	pm.simpleFrRight	pm.simpleFr	2	57	772	0	0	08:40:17	2150725	0	0	0	0	0	0	0	0	0	0	0	0	0	0	0	0	0
121812	08:40:17	10021	pm.simpleFrRight	blank.simpleFr	2	0	1700	1	0	08:40:17	2152444	0	0	0	0	0	0	0	0	0	0	0	0	0	0	0	0	0
121812	08:40:17	10021	pm.simpleFrRight	pm.simpleFr	2	57	685	0	0	08:40:17	2153150	0	0	0	0	0	0	0	0	0	0	0	0	0	0	0	0	0
121812	08:40:17	10021	pm.simpleFrRight	blank.simpleFr	2	0	2200	1	0	08:40:17	2155363	0	0	0	0	0	0	0	0	0	0	0	0	0	0	0	0	0
121812	08:40:17	10021	pm.simpleFrRight	pm.simpleFr	2	57	582	0	0	08:40:17	2155962	0	0	0	0	0	0	0	0	0	0	0	0	0	0	0	0	0
121812	08:40:17	10021	pm.simpleFrRight	blank.simpleFr	2	0	1600	1	0	08:40:17	2157575	0	0	0	0	0	0	0	0	0	0	0	0	0	0	0	0	0
121812	08:40:17	10021	pm.simpleFrRight	pm.simpleFr	2	57	786	0	0	08:40:17	2158388	0	0	0	0	0	0	0	0	0	0	0	0	0	0	0	0	0
121812	08:40:17	10021	pm.simpleFrRight	blank.simpleFr	2	0	1800	1	0	08:40:17	2160201	0	0	0	0	0	0	0	0	0	0	0	0	0	0	0	0	0
121812	08:40:17	10021	pm.simpleFrRight	pm.simpleFr	2	57	640	0	0	08:40:17	2160867	0	0	0	0	0	0	0	0	0	0	0	0	0	0	0	0	0
121812	08:40:17	10021	pm.simpleFrRight	blank.simpleFr	2	0	2500	1	0	08:40:17	2163386	0	0	0	0	0	0	0	0	0	0	0	0	0	0	0	0	0
121812	08:40:17	10021	pm.simpleFrRight	pm.simpleFr	2	57	686	0	0	08:40:17	2164093	0	0	0	0	0	0	0	0	0	0	0	0	0	0	0	0	0
121812	08:40:17	10021	pm.simpleFrRight	blank.simpleFr	2	0	2000	1	0	08:40:17	2166105	0	0	0	0	0	0	0	0	0	0	0	0	0	0	0	0	0
121812	08:40:17	10021	pm.simpleFrRight	pm.simpleFr	2	57	912	0	0	08:40:17	2167038	0	0	0	0	0	0	0	0	0	0	0	0	0	0	0	0	0
121812	08:40:17	10021	pm.simpleFrRight	blank.simpleFr	2	0	2400	1	0	08:40:17	2169451	0	0	0	0	0	0	0	0	0	0	0	0	0	0	0	0	0
121812	08:40:17	10021	pm.simpleFrRight	pm.simpleFr	2	57	702	0	0	08:40:17	2170170	0	0	0	0	0	0	0	0	0	0	0	0	0	0	0	0	0
121812	08:40:17	10021	pm.simpleFrRight	blank.simpleFr	2	0	2300	1	0	08:40:17	2172489	0	0	0	0	0	0	0	0	0	0	0	0	0	0	0	0	0
121812	08:40:17	10021	pm.simpleFrRight	pm.simpleFr	2	57	751	0	0	08:40:17	2173263	0	0	0	0	0	0	0	0	0	0	0	0	0	0	0	0	0
121812	08:40:17	10021	pm.simpleFrRight	blank.simpleFr	2	0	2100	1	0	08:40:17	2175382	0	0	0	0	0	0	0	0	0	0	0	0	0	0	0	0	0
121812	08:40:17	10021	pm.simpleFrRight	pm.simpleFr	2	57	691	0	0	08:40:17	2176101	0	0	0	0	0	0	0	0	0	0	0	0	0	0	0	0	0
121812	08:40:17	10021	pm.simpleFrRight	blank.simpleFr	2	0	2200	1	0	08:40:17	2178314	0	0	0	0	0	0	0	0	0	0	0	0	0	0	0	0	0
121812	08:40:17	10021	pm.simpleFrRight	pm.simpleFr	2	57	655	0	0	08:40:17	2178994	0	0	0	0	0	0	0	0	0	0	0	0	0	0	0	0	0
121812	08:40:17	10021	pm.simpleFrRight	blank.simpleFr	2	0	1600	1	0	08:40:17	2180606	0	0	0	0	0	0	0	0	0	0	0	0	0	0	0	0	0
121812	08:40:17	10021	pm.simpleFrRight	pm.simpleFr	2	57	762	0	0	08:40:17	2181392	0	0	0	0	0	0	0	0	0	0	0	0	0	0	0	0	0
121812	08:40:17	10021	pm.simpleFrRight	blank.simpleFr	2	0	1700	1	0	08:40:17	2183112	0	0	0	0	0	0	0	0	0	0	0	0	0	0	0	0	0
121812	08:40:17	10021	pm.simpleFrRight	pm.simpleFr	2	57	640	0	0	08:40:17	2183778	0	0	0	0	0	0	0	0	0	0	0	0	0	0	0	0	0
121812	08:40:17	10021	pm.simpleFrRight	blank.simpleFr	2	0	1500	1	0	08:40:17	2185298	0	0	0	0	0	0	0	0	0	0	0	0	0	0	0	0	0
121812	08:40:17	10021	pm.simpleFrRight	pm.simpleFr	2	57	615	0	0	08:40:17	2185937	0	0	0	0	0	0	0	0	0	0	0	0	0	0	0	0	0
121812	08:40:17	10021	pm.simpleFrRight	blank.simpleFr	2	0	1900	1	0	08:40:17	2187857	0	0	0	0	0	0	0	0	0	0	0	0	0	0	0	0	0
121812	08:40:17	10021	pm.simpleFrRight	pm.simpleFr	2	57	664	0	0	08:40:17	2188550	0	0	0	0	0	0	0	0	0	0	0	0	0	0	0	0	0
121812	08:40:17	10021	pm.simpleFrRight	blank.simpleFr	2	0	2000	1	0	08:40:17	2190562	0	0	0	0	0	0	0	0	0	0	0	0	0	0	0	0	0
121812	08:40:17	10021	pm.simpleFrRight	pm.simpleFr	2	57	630	0	0	08:40:17	2191215	0	0	0	0	0	0	0	0	0	0	0	0	0	0	0	0	0
121812	08:40:17	10021	pm.simpleFrRight	blank.simpleFr	2	0	2200	1	0	08:40:17	2193428	0	0	0	0	0	0	0	0	0	0	0	0	0	0	0	0	0
121812	08:40:17	10021	pm.simpleFrRight	pm.simpleFr	2	57	532	0	0	08:40:17	2193988	0	0	0	0	0	0	0	0	0	0	0	0	0	0	0	0	0
121812	08:40:17	10021	pm.simpleFrRight	blank.simpleFr	2	0	2500	1	0	08:40:17	2196507	0	0	0	0	0	0	0	0	0	0	0	0	0	0	0	0	0
121812	08:40:17	10021	pm.simpleFrRight	pm.simpleFr	2	57	702	0	0	08:40:17	2197226	0	0	0	0	0	0	0	0	0	0	0	0	0	0	0	0	0
121812	08:40:17	10021	pm.simpleFrRight	blank.simpleFr	2	0	2300	1	0	08:40:17	2199546	0	0	0	0	0	0	0	0	0	0	0	0	0	0	0	0	0
121812	08:40:17	10021	pm.simpleFrRight	pm.simpleFr	2	57	591	0	0	08:40:17	2200158	0	0	0	0	0	0	0	0	0	0	0	0	0	0	0	0	0
121812	08:40:17	10021	pm.simpleFrRight	blank.simpleFr	2	0	1600	1	0	08:40:17	2201771	0	0	0	0	0	0	0	0	0	0	0	0	0	0	0	0	0
121812	08:40:17	10021	pm.simpleFrRight	pm.simpleFr	2	57	701	0	0	08:40:17	2202491	0	0	0	0	0	0	0	0	0	0	0	0	0	0	0	0	0
121812	08:40:17	10021	pm.simpleFrRight	blank.simpleFr	2	0	1800	1	0	08:40:17	2204304	0	0	0	0	0	0	0	0	0	0	0	0	0	0	0	0	0
121812	08:40:17	10021	pm.simpleFrRight	pm.simpleFr	2	57	649	0	0	08:40:17	2204970	0	0	0	0	0	0	0	0	0	0	0	0	0	0	0	0	0
121812	08:40:17	10021	pm.simpleFrRight	blank.simpleFr	2	0	2100	1	0	08:40:17	2207089	0	0	0	0	0	0	0	0	0	0	0	0	0	0	0	0	0
121812	08:40:17	10021	pm.simpleFrRight	pm.simpleFr	2	57	615	0	0	08:40:17	2207729	0	0	0	0	0	0	0	0	0	0	0	0	0	0	0	0	0
121812	08:40:17	10021	pm.simpleFrRight	blank.simpleFr	2	0	1900	1	0	08:40:17	2209648	0	0	0	0	0	0	0	0	0	0	0	0	0	0	0	0	0
121812	08:40:17	10021	pm.simpleFrRight	pm.simpleFr	2	57	584	0	0	08:40:17	2210261	0	0	0	0	0	0	0	0	0	0	0	0	0	0	0	0	0
121812	08:40:17	10021	pm.simpleFrRight	blank.simpleFr	2	0	1500	1	0	08:40:17	2211781	0	0	0	0	0	0	0	0	0	0	0	0	0	0	0	0	0
121812	08:40:17	10021	pm.simpleFrRight	pm.simpleFr	2	57	646	0	0	08:40:17	2212447	0	0	0	0	0	0	0	0	0	0	0	0	0	0	0	0	0
121812	08:40:17	10021	pm.simpleFrRight	blank.simpleFr	2	0	2400	1	0	08:40:17	2214859	0	0	0	0	0	0	0	0	0	0	0	0	0	0	0	0	0
121812	08:40:17	10021	pm.simpleFrRight	pm.simpleFr	2	57	605	0	0	08:40:17	2215486	0	0	0	0	0	0	0	0	0	0	0	0	0	0	0	0	0
121812	08:40:17	10021	pm.simpleFrRight	blank.simpleFr	2	0	1700	1	0	08:40:17	2217205	0	0	0	0	0	0	0	0	0	0	0	0	0	0	0	0	0
121812	08:40:17	10021	pm.simpleFrRight	pm.simpleFr	2	57	771	0	0	08:40:17	2218005	0	0	0	0	0	0	0	0	0	0	0	0	0	0	0	0	0
121812	08:40:17	10021	pm.simpleFrRight	blank.simpleFr	2	0	2100	1	0	08:40:17	2220124	0	0	0	0	0	0	0	0	0	0	0	0	0	0	0	0	0
121812	08:40:17	10021	pm.simpleFrRight	pm.simpleFr	2	57	988	0	0	08:40:17	2221137	0	0	0	0	0	0	0	0	0	0	0	0	0	0	0	0	0
121812	08:40:17	10021	pm.simpleFrRight	blank.simpleFr	2	0	1600	1	0	08:40:17	2222750	0	0	0	0	0	0	0	0	0	0	0	0	0	0	0	0	0
121812	08:40:17	10021	pm.simpleFrRight	pm.simpleFr	2	57	715	0	0	08:40:17	2223483	0	0	0	0	0	0	0	0	0	0	0	0	0	0	0	0	0
121812	08:40:17	10021	pm.simpleFrRight	blank.simpleFr	2	0	2000	1	0	08:40:17	2225495	0	0	0	0	0	0	0	0	0	0	0	0	0	0	0	0	0
121812	08:40:17	10021	pm.simpleFrRight	pm.simpleFr	2	57	532	0	0	08:40:17	2226068	0	0	0	0	0	0	0	0	0	0	0	0	0	0	0	0	0
121812	08:40:17	10021	pm.simpleFrRight	blank.simpleFr	2	0	2400	1	0	08:40:17	2228481	0	0	0	0	0	0	0	0	0	0	0	0	0	0	0	0	0
121812	08:40:17	10021	pm.simpleFrRight	pm.simpleFr	2	57	487	0	0	08:40:17	2228987	0	0	0	0	0	0	0	0	0	0	0	0	0	0	0	0	0
121812	08:40:17	10021	pm.simpleFrRight	blank.simpleFr	2	0	1700	1	0	08:40:17	2230707	0	0	0	0	0	0	0	0	0	0	0	0	0	0	0	0	0
121812	08:40:17	10021	pm.simpleFrRight	pm.simpleFr	2	57	709	0	0	08:40:17	2231440	0	0	0	0	0	0	0	0	0	0	0	0	0	0	0	0	0
121812	08:40:17	10021	pm.simpleFrRight	blank.simpleFr	2	0	2300	1	0	08:40:17	2233759	0	0	0	0	0	0	0	0	0	0	0	0	0	0	0	0	0
121812	08:40:17	10021	pm.simpleFrRight	pm.simpleFr	2	57	537	0	0	08:40:17	2234318	0	0	0	0	0	0	0	0	0	0	0	0	0	0	0	0	0
121812	08:40:17	10021	pm.simpleFrRight	blank.simpleFr	2	0	1800	1	0	08:40:17	2236131	0	0	0	0	0	0	0	0	0	0	0	0	0	0	0	0	0
121812	08:40:17	10021	pm.simpleFrRight	pm.simpleFr	2	57	565	0	0	08:40:17	2236717	0	0	0	0	0	0	0	0	0	0	0	0	0	0	0	0	0
121812	08:40:17	10021	Trial2BackFr	N	3	0	1000	1	1	08:40:17	2319512	0	0	0	0	0	0	0	0	0	0	0	0	0	0	0	0	0
121812	08:40:17	10021	Trial2BackFr	N	3	0	1000	1	2	08:40:17	2321018	0	0	0	0	0	0	0	0	0	0	0	0	0	0	0	0	0
121812	08:40:17	10021	Trial2BackFr	N	3	0	1000	1	3	08:40:17	2322523	0	0	0	0	0	0	0	0	0	0	0	0	0	0	0	0	0
121812	08:40:17	10021	Trial2BackFr	N	3	0	1000	1	4	08:40:17	2324030	0	0	0	0	0	0	0	0	0	0	0	0	0	0	0	0	0
121812	08:40:17	10021	Trial2BackFr	N	3	0	1000	1	5	08:40:17	2325536	0	0	0	0	0	0	0	0	0	0	0	0	0	0	0	0	0
121812	08:40:17	10021	Trial2BackFr	N	3	0	1000	1	6	08:40:17	2327042	0	0	0	0	0	0	0	0	0	0	0	0	0	0	0	0	0
121812	08:40:17	10021	Trial2BackFr	N	3	0	1000	1	7	08:40:17	2328548	0	0	0	0	0	0	0	0	0	0	0	0	0	0	0	0	0
121812	08:40:17	10021	Trial2BackFr	N	3	0	1000	1	8	08:40:17	2330054	0	0	0	0	0	0	0	0	0	0	0	0	0	0	0	0	0
121812	08:40:17	10021	Trial2BackFr	Y	3	0	1000	0	8	08:40:17	2331560	0	0	0	0	0	0	0	0	0	0	0	0	0	0	0	0	0
121812	08:40:17	10021	Trial2BackFr	N	3	0	1000	1	9	08:40:17	2333066	0	0	0	0	0	0	0	0	0	0	0	0	0	0	0	0	0
121812	08:40:17	10021	Trial2BackFr	N	3	0	1000	1	10	08:40:17	2334572	0	0	0	0	0	0	0	0	0	0	0	0	0	0	0	0	0
121812	08:40:17	10021	Trial2BackFr	N	3	0	1000	1	11	08:40:17	2336078	0	0	0	0	0	0	0	0	0	0	0	0	0	0	0	0	0
121812	08:40:17	10021	Trial2BackFr	Y	3	0	1000	0	11	08:40:17	2337584	0	0	0	0	0	0	0	0	0	0	0	0	0	0	0	0	0
121812	08:40:17	10021	Trial2BackFr	N	3	0	1000	1	12	08:40:17	2339104	0	0	0	0	0	0	0	0	0	0	0	0	0	0	0	0	0
121812	08:40:17	10021	Trial2BackFr	N	3	0	1000	1	13	08:40:17	2340610	0	0	0	0	0	0	0	0	0	0	0	0	0	0	0	0	0
121812	08:40:17	10021	Trial2BackFr	N	3	0	1000	1	14	08:40:17	2342116	0	0	0	0	0	0	0	0	0	0	0	0	0	0	0	0	0
121812	08:40:17	10021	Trial2BackFr	N	3	0	1000	1	15	08:40:17	2343622	0	0	0	0	0	0	0	0	0	0	0	0	0	0	0	0	0
121812	08:40:17	10021	Trial2BackFr	N	3	0	1000	1	16	08:40:17	2345128	0	0	0	0	0	0	0	0	0	0	0	0	0	0	0	0	0
121812	08:40:17	10021	Trial2BackFr	Y	3	57	867	1	17	08:40:17	2346514	0	0	0	0	0	0	0	0	0	0	0	0	0	0	0	0	0
121812	08:40:17	10021	Trial2BackFr	N	3	0	1000	1	18	08:40:17	2348140	0	0	0	0	0	0	0	0	0	0	0	0	0	0	0	0	0
121812	08:40:17	10021	Trial2BackFr	N	3	0	1000	1	19	08:40:17	2349646	0	0	0	0	0	0	0	0	0	0	0	0	0	0	0	0	0
121812	08:40:17	10021	Trial2BackFr	N	3	0	1000	1	20	08:40:17	2351152	0	0	0	0	0	0	0	0	0	0	0	0	0	0	0	0	0
121812	08:40:17	10021	Trial2BackFr	N	3	0	1000	1	21	08:40:17	2352658	0	0	0	0	0	0	0	0	0	0	0	0	0	0	0	0	0
121812	08:40:17	10021	Trial2BackFr	Y	3	57	616	1	22	08:40:17	2353791	0	0	0	0	0	0	0	0	0	0	0	0	0	0	0	0	0
121812	08:40:17	10021	Trial2BackFr	N	3	0	1000	1	23	08:40:17	2355671	0	0	0	0	0	0	0	0	0	0	0	0	0	0	0	0	0
121812	08:40:17	10021	Trial2BackFr	N	3	0	1000	1	24	08:40:17	2357177	0	0	0	0	0	0	0	0	0	0	0	0	0	0	0	0	0
121812	08:40:17	10021	Trial2BackFr	N	3	0	1000	1	25	08:40:17	2358683	0	0	0	0	0	0	0	0	0	0	0	0	0	0	0	0	0
121812	08:40:17	10021	Trial2BackFr	N	3	0	1000	1	26	08:40:17	2360189	0	0	0	0	0	0	0	0	0	0	0	0	0	0	0	0	0
121812	08:40:17	10021	Trial2BackFr	N	3	0	1000	1	27	08:40:17	2361695	0	0	0	0	0	0	0	0	0	0	0	0	0	0	0	0	0
121812	08:40:17	10021	Trial2BackFr	N	3	0	1000	1	28	08:40:17	2363214	0	0	0	0	0	0	0	0	0	0	0	0	0	0	0	0	0
121812	08:40:17	10021	Trial2BackFr	Y	3	57	876	1	29	08:40:17	2364600	0	0	0	0	0	0	0	0	0	0	0	0	0	0	0	0	0
121812	08:40:17	10021	Trial2BackFr	N	3	0	1000	1	30	08:40:17	2366226	0	0	0	0	0	0	0	0	0	0	0	0	0	0	0	0	0
121812	08:40:17	10021	Trial2BackFr	N	3	0	1000	1	31	08:40:17	2367732	0	0	0	0	0	0	0	0	0	0	0	0	0	0	0	0	0
121812	08:40:17	10021	Trial2BackFr	N	3	0	1000	1	32	08:40:17	2369238	0	0	0	0	0	0	0	0	0	0	0	0	0	0	0	0	0
121812	08:40:17	10021	Trial2BackFr	Y	3	57	660	1	33	08:40:17	2370411	0	0	0	0	0	0	0	0	0	0	0	0	0	0	0	0	0
121812	08:40:17	10021	Trial2BackFr	N	3	0	1000	1	34	08:40:17	2372251	0	0	0	0	0	0	0	0	0	0	0	0	0	0	0	0	0
121812	08:40:17	10021	Trial2BackFr	N	3	0	1000	1	35	08:40:17	2373757	0	0	0	0	0	0	0	0	0	0	0	0	0	0	0	0	0
121812	08:40:17	10021	Trial2BackFr	N	3	0	1000	1	36	08:40:17	2375263	0	0	0	0	0	0	0	0	0	0	0	0	0	0	0	0	0
121812	08:40:17	10021	Trial2BackFr	N	3	0	1000	1	37	08:40:17	2376769	0	0	0	0	0	0	0	0	0	0	0	0	0	0	0	0	0
121812	08:40:17	10021	Trial2BackFr	N	3	0	1000	1	38	08:40:17	2378275	0	0	0	0	0	0	0	0	0	0	0	0	0	0	0	0	0
121812	08:40:17	10021	Trial2BackFr	N	3	57	791	0	38	08:40:17	2379581	0	0	0	0	0	0	0	0	0	0	0	0	0	0	0	0	0
121812	08:40:17	10021	Trial2BackFr	Y	3	0	1000	0	38	08:40:17	2381287	0	0	0	0	0	0	0	0	0	0	0	0	0	0	0	0	0
121812	08:40:17	10021	Trial2BackFr	N	3	0	1000	1	39	08:40:17	2382793	0	0	0	0	0	0	0	0	0	0	0	0	0	0	0	0	0
121812	08:40:17	10021	Trial2BackFr	N	3	57	945	0	39	08:40:17	2384259	0	0	0	0	0	0	0	0	0	0	0	0	0	0	0	0	0
121812	08:40:17	10021	Trial2BackFr	N	3	0	1000	1	40	08:40:17	2385805	0	0	0	0	0	0	0	0	0	0	0	0	0	0	0	0	0
121812	08:40:17	10021	Trial2BackFr	N	3	0	1000	1	41	08:40:17	2387311	0	0	0	0	0	0	0	0	0	0	0	0	0	0	0	0	0
121812	08:40:17	10021	Trial2BackFr	Y	3	57	731	1	42	08:40:17	2388551	0	0	0	0	0	0	0	0	0	0	0	0	0	0	0	0	0
121812	08:40:17	10021	Trial2BackFr	N	3	0	1000	1	43	08:40:17	2390323	0	0	0	0	0	0	0	0	0	0	0	0	0	0	0	0	0
121812	08:40:17	10021	Trial2BackFr	N	3	0	1000	1	44	08:40:17	2391830	0	0	0	0	0	0	0	0	0	0	0	0	0	0	0	0	0
121812	08:40:17	10021	Trial2BackFr	N	3	0	1000	1	45	08:40:17	2393336	0	0	0	0	0	0	0	0	0	0	0	0	0	0	0	0	0
121812	08:40:17	10021	Trial2BackFr	N	3	0	1000	1	46	08:40:17	2394842	0	0	0	0	0	0	0	0	0	0	0	0	0	0	0	0	0
121812	08:40:17	10021	Trial2BackFr	N	3	0	1000	1	47	08:40:17	2396361	0	0	0	0	0	0	0	0	0	0	0	0	0	0	0	0	0
121812	08:40:17	10021	Trial2BackFr	Y	3	57	593	1	48	08:40:17	2397467	0	0	0	0	0	0	0	0	0	0	0	0	0	0	0	0	0
121812	08:40:17	10021	Trial2BackFr	N	3	0	1000	1	49	08:40:17	2399373	0	0	0	0	0	0	0	0	0	0	0	0	0	0	0	0	0
121812	08:40:17	10021	Trial2BackFr	N	3	0	1000	1	50	08:40:17	2400879	0	0	0	0	0	0	0	0	0	0	0	0	0	0	0	0	0
121812	08:40:17	10021	Trial2BackFr	N	3	0	1000	1	51	08:40:17	2402385	0	0	0	0	0	0	0	0	0	0	0	0	0	0	0	0	0
121812	08:40:17	10021	Trial2BackFr	N	3	0	1000	1	52	08:40:17	2403891	0	0	0	0	0	0	0	0	0	0	0	0	0	0	0	0	0
121812	08:40:17	10021	Trial2BackFr	N	3	57	662	0	52	08:40:17	2405064	0	0	0	0	0	0	0	0	0	0	0	0	0	0	0	0	0
121812	08:40:17	10021	Trial2BackFr	N	3	0	1000	1	53	08:40:17	2406904	0	0	0	0	0	0	0	0	0	0	0	0	0	0	0	0	0
121812	08:40:17	10021	Trial2BackFr	Y	3	0	1000	0	53	08:40:17	2408423	0	0	0	0	0	0	0	0	0	0	0	0	0	0	0	0	0
121812	08:40:17	10021	Trial2BackFr	N	3	0	1000	1	54	08:40:17	2409929	0	0	0	0	0	0	0	0	0	0	0	0	0	0	0	0	0
121812	08:40:17	10021	Trial2BackFr	N	3	0	1000	1	55	08:40:17	2411435	0	0	0	0	0	0	0	0	0	0	0	0	0	0	0	0	0
121812	08:40:17	10021	Trial2BackFr	Y	3	57	991	1	56	08:40:17	2412941	0	0	0	0	0	0	0	0	0	0	0	0	0	0	0	0	0
121812	08:40:17	10021	Trial2BackFr	N	3	0	1000	1	57	08:40:17	2414447	0	0	0	0	0	0	0	0	0	0	0	0	0	0	0	0	0
121812	08:40:17	10021	Trial2BackFr	N	3	0	1000	1	58	08:40:17	2415953	0	0	0	0	0	0	0	0	0	0	0	0	0	0	0	0	0
121812	08:40:17	10021	Trial2BackFr	N	3	0	1000	1	59	08:40:17	2417459	0	0	0	0	0	0	0	0	0	0	0	0	0	0	0	0	0
121812	08:40:17	10021	Trial2BackFr	N	3	0	1000	1	60	08:40:17	2418966	0	0	0	0	0	0	0	0	0	0	0	0	0	0	0	0	0
121812	08:40:17	10021	Trial2BackFr	N	3	57	693	0	60	08:40:17	2420178	0	0	0	0	0	0	0	0	0	0	0	0	0	0	0	0	0
121812	08:40:17	10021	Trial2BackFr	N	3	0	1000	1	61	08:40:17	2421978	0	0	0	0	0	0	0	0	0	0	0	0	0	0	0	0	0
121812	08:40:17	10021	Trial2BackFr	N	3	0	1000	1	62	08:40:17	2423484	0	0	0	0	0	0	0	0	0	0	0	0	0	0	0	0	0
121812	08:40:17	10021	Trial2BackFr	N	3	0	1000	1	63	08:40:17	2424990	0	0	0	0	0	0	0	0	0	0	0	0	0	0	0	0	0
121812	08:40:17	10021	Trial2BackFr	N	3	0	1000	1	64	08:40:17	2426496	0	0	0	0	0	0	0	0	0	0	0	0	0	0	0	0	0
121812	08:40:17	10021	Trial2BackFr	N	3	0	1000	1	65	08:40:17	2428002	0	0	0	0	0	0	0	0	0	0	0	0	0	0	0	0	0
121812	08:40:17	10021	Trial2BackFr	Y	3	57	552	1	66	08:40:17	2429068	0	0	0	0	0	0	0	0	0	0	0	0	0	0	0	0	0
121812	08:40:17	10021	Trial2BackFr	N	3	0	1000	1	67	08:40:17	2431014	0	0	0	0	0	0	0	0	0	0	0	0	0	0	0	0	0
121812	08:40:17	10021	Trial2BackFr	N	3	0	1000	1	68	08:40:17	2432520	0	0	0	0	0	0	0	0	0	0	0	0	0	0	0	0	0
121812	08:40:17	10021	Trial2BackFr	N	3	0	1000	1	69	08:40:17	2434026	0	0	0	0	0	0	0	0	0	0	0	0	0	0	0	0	0
121812	08:40:17	10021	Trial2BackFr	Y	3	57	607	1	70	08:40:17	2435146	0	0	0	0	0	0	0	0	0	0	0	0	0	0	0	0	0
121812	08:40:17	10021	Trial2BackFr	N	3	0	1000	1	71	08:40:17	2437038	0	0	0	0	0	0	0	0	0	0	0	0	0	0	0	0	0
121812	08:40:17	10021	Trial2BackFr	N	3	0	1000	1	72	08:40:17	2438545	0	0	0	0	0	0	0	0	0	0	0	0	0	0	0	0	0
121812	08:40:17	10021	Trial2BackFr	N	3	0	1000	1	73	08:40:17	2440051	0	0	0	0	0	0	0	0	0	0	0	0	0	0	0	0	0
121812	08:40:17	10021	Trial2BackFr	N	3	0	1000	1	74	08:40:17	2441557	0	0	0	0	0	0	0	0	0	0	0	0	0	0	0	0	0
121812	08:40:17	10021	Trial2BackFr	N	3	0	1000	1	75	08:40:17	2443076	0	0	0	0	0	0	0	0	0	0	0	0	0	0	0	0	0
121812	08:40:17	10021	Trial2BackFr	Y	3	57	758	1	76	08:40:17	2444342	0	0	0	0	0	0	0	0	0	0	0	0	0	0	0	0	0
121812	08:40:17	10021	Trial2BackFr	N	3	0	1000	1	77	08:40:17	2446088	0	0	0	0	0	0	0	0	0	0	0	0	0	0	0	0	0
121812	08:40:17	10021	Trial2BackFr	N	3	0	1000	1	78	08:40:17	2447594	0	0	0	0	0	0	0	0	0	0	0	0	0	0	0	0	0
121812	08:40:17	10021	Trial2BackFr	N	3	0	1000	1	79	08:40:17	2449114	0	0	0	0	0	0	0	0	0	0	0	0	0	0	0	0	0
121812	08:40:17	10021	Trial2BackFr	N	3	0	1000	1	80	08:40:17	2450620	0	0	0	0	0	0	0	0	0	0	0	0	0	0	0	0	0
121812	08:40:17	10021	Trial2BackFr	N	3	0	1000	1	81	08:40:17	2452126	0	0	0	0	0	0	0	0	0	0	0	0	0	0	0	0	0
121812	08:40:17	10021	Trial2BackFr	N	3	0	1000	1	82	08:40:17	2453632	0	0	0	0	0	0	0	0	0	0	0	0	0	0	0	0	0
121812	08:40:17	10021	Trial2BackFr	N	3	0	1000	1	83	08:40:17	2455138	0	0	0	0	0	0	0	0	0	0	0	0	0	0	0	0	0
121812	08:40:17	10021	Trial2BackFr	N	3	0	1000	1	84	08:40:17	2456644	0	0	0	0	0	0	0	0	0	0	0	0	0	0	0	0	0
121812	08:40:17	10021	Trial2BackFr	N	3	57	565	0	84	08:40:17	2457724	0	0	0	0	0	0	0	0	0	0	0	0	0	0	0	0	0
121812	08:40:17	10021	Trial2BackFr	Y	3	0	1000	0	84	08:40:17	2459656	0	0	0	0	0	0	0	0	0	0	0	0	0	0	0	0	0
121812	08:40:17	10021	Trial2BackFr	N	3	0	1000	1	85	08:40:17	2461162	0	0	0	0	0	0	0	0	0	0	0	0	0	0	0	0	0
121812	08:40:17	10021	Trial2BackFr	N	3	0	1000	1	86	08:40:17	2462668	0	0	0	0	0	0	0	0	0	0	0	0	0	0	0	0	0
121812	08:40:17	10021	Trial2BackFr	N	3	0	1000	1	87	08:40:17	2464174	0	0	0	0	0	0	0	0	0	0	0	0	0	0	0	0	0
121812	08:40:17	10021	Trial2BackFr	N	3	0	1000	1	88	08:40:17	2465680	0	0	0	0	0	0	0	0	0	0	0	0	0	0	0	0	0
121812	08:40:17	10021	Trial2BackFr	N	3	0	1000	1	89	08:40:17	2467187	0	0	0	0	0	0	0	0	0	0	0	0	0	0	0	0	0
121812	08:40:17	10021	Trial2BackFr	N	3	0	1000	1	90	08:40:17	2468693	0	0	0	0	0	0	0	0	0	0	0	0	0	0	0	0	0
121812	08:40:17	10021	Trial2BackFr	N	3	0	1000	1	91	08:40:17	2470199	0	0	0	0	0	0	0	0	0	0	0	0	0	0	0	0	0
121812	08:40:17	10021	Trial2BackFr	N	3	0	1000	1	92	08:40:17	2471705	0	0	0	0	0	0	0	0	0	0	0	0	0	0	0	0	0
121812	08:40:17	10021	Trial2BackFr	Y	3	0	1000	0	92	08:40:17	2473211	0	0	0	0	0	0	0	0	0	0	0	0	0	0	0	0	0
121812	08:40:17	10021	Trial2BackFr	N	3	0	1000	1	93	08:40:17	2474717	0	0	0	0	0	0	0	0	0	0	0	0	0	0	0	0	0
121812	08:40:17	10021	Trial2BackFr	N	3	0	1000	1	94	08:40:17	2476223	0	0	0	0	0	0	0	0	0	0	0	0	0	0	0	0	0
121812	08:40:17	10021	Trial2BackFr	N	3	0	1000	1	95	08:40:17	2477729	0	0	0	0	0	0	0	0	0	0	0	0	0	0	0	0	0
121812	08:40:17	10021	Trial2BackFr	N	3	0	1000	1	96	08:40:17	2479235	0	0	0	0	0	0	0	0	0	0	0	0	0	0	0	0	0
121812	08:40:17	10021	Trial2BackFr	Y	3	57	582	1	97	08:40:17	2480328	0	0	0	0	0	0	0	0	0	0	0	0	0	0	0	0	0
121812	08:40:17	10021	Trial2BackFr	N	3	0	1000	1	98	08:40:17	2482247	0	0	0	0	0	0	0	0	0	0	0	0	0	0	0	0	0
121812	08:40:17	10021	Trial2BackFr	N	3	0	1000	1	99	08:40:17	2483753	0	0	0	0	0	0	0	0	0	0	0	0	0	0	0	0	0
121812	08:40:17	10021	Trial2BackFr	N	3	0	1000	1	100	08:40:17	2485259	0	0	0	0	0	0	0	0	0	0	0	0	0	0	0	0	0
121812	08:40:17	10021	Trial2BackFr	Y	3	57	654	1	101	08:40:17	2486432	0	0	0	0	0	0	0	0	0	0	0	0	0	0	0	0	0
121812	08:40:17	10021	Trial2BackFr	N	3	0	1000	1	102	08:40:17	2488271	0	0	0	0	0	0	0	0	0	0	0	0	0	0	0	0	0
121812	08:40:17	10021	Trial2BackFr	N	3	0	1000	1	103	08:40:17	2489778	0	0	0	0	0	0	0	0	0	0	0	0	0	0	0	0	0
121812	08:40:17	10021	Trial2BackFr	N	3	0	1000	1	104	08:40:17	2491283	0	0	0	0	0	0	0	0	0	0	0	0	0	0	0	0	0
121812	08:40:17	10021	Trial2BackFr	N	3	0	1000	1	105	08:40:17	2492790	0	0	0	0	0	0	0	0	0	0	0	0	0	0	0	0	0
121812	08:40:17	10021	Trial2BackFr	N	3	57	643	0	105	08:40:17	2493949	0	0	0	0	0	0	0	0	0	0	0	0	0	0	0	0	0
121812	08:40:17	10021	Trial2BackFr	Y	3	0	1000	0	105	08:40:17	2495802	0	0	0	0	0	0	0	0	0	0	0	0	0	0	0	0	0
121812	08:40:17	10021	Trial2BackFr	N	3	0	1000	1	106	08:40:17	2497308	0	0	0	0	0	0	0	0	0	0	0	0	0	0	0	0	0
121812	08:40:17	10021	Trial2BackFr	N	3	0	1000	1	107	08:40:17	2498814	0	0	0	0	0	0	0	0	0	0	0	0	0	0	0	0	0
121812	08:40:17	10021	Trial2BackFr	N	3	0	1000	1	108	08:40:17	2500320	0	0	0	0	0	0	0	0	0	0	0	0	0	0	0	0	0
121812	08:40:17	10021	Trial2BackFr	Y	3	57	665	1	109	08:40:17	2501493	0	0	0	0	0	0	0	0	0	0	0	0	0	0	0	0	0
121812	08:40:17	10021	Memory1R6moFr	ScoreFr	5	M1	13386	0	109	08:40:17	2541064	0	0	0	0	0	0	0	0	0	0	0	0	0	0	0	0	0
121812	08:40:17	10021	Memory1R6moFr	ScoreFr	5	M2	160	0	109	08:40:17	2541277	0	0	0	0	0	0	0	0	0	0	0	0	0	0	0	0	0
121812	08:40:17	10021	Memory1R6moFr	ScoreFr	5	M5	1890	0	109	08:40:17	2543223	0	0	0	0	0	0	0	0	0	0	0	0	0	0	0	0	0
121812	08:40:17	10021	Memory1R6moFr	ScoreFr	5	M8	1801	0	109	08:40:17	2545076	0	0	0	0	0	0	0	0	0	0	0	0	0	0	0	0	0
121812	08:40:17	10021	Memory1R6moFr	ScoreFr	5	Done	24308	0	109	08:40:17	2569439	0	0	0	0	0	0	0	0	0	0	0	0	0	0	0	0	0
121812	08:40:17	10021	Memory2R6moFr	ScoreFr2	5	11	16418	0	109	08:40:17	2605479	0	0	0	0	0	0	0	0	0	0	0	0	0	0	0	0	0
121812	08:40:17	10021	Memory2R6moFr	ScoreFr2	5	22	184	0	109	08:40:17	2605719	0	0	0	0	0	0	0	0	0	0	0	0	0	0	0	0	0
121812	08:40:17	10021	Memory2R6moFr	ScoreFr2	5	33	1368	0	109	08:40:17	2607131	0	0	0	0	0	0	0	0	0	0	0	0	0	0	0	0	0
121812	08:40:17	10021	Memory2R6moFr	ScoreFr2	5	55	724	0	109	08:40:17	2607904	0	0	0	0	0	0	0	0	0	0	0	0	0	0	0	0	0
121812	08:40:17	10021	Memory2R6moFr	ScoreFr2	5	77	2319	0	109	08:40:17	2610277	0	0	0	0	0	0	0	0	0	0	0	0	0	0	0	0	0
121812	08:40:17	10021	Memory2R6moFr	ScoreFr2	5	88	210	0	109	08:40:17	2610543	0	0	0	0	0	0	0	0	0	0	0	0	0	0	0	0	0
121812	08:40:17	10021	Memory2R6moFr	ScoreFr2	5	66	19079	0	109	08:40:17	2629669	0	0	0	0	0	0	0	0	0	0	0	0	0	0	0	0	0
121812	08:40:17	10021	Memory2R6moFr	ScoreFr2	5	Done	9953	0	109	08:40:17	2639678	0	0	0	0	0	0	0	0	0	0	0	0	0	0	0	0	0
121812	08:40:17	10021	Memory3R6moFr	ScoreFr3	5	111	18263	0	109	08:40:17	2675904	0	0	0	0	0	0	0	0	0	0	0	0	0	0	0	0	0
121812	08:40:17	10021	Memory3R6moFr	ScoreFr3	5	222	302	0	109	08:40:17	2676251	0	0	0	0	0	0	0	0	0	0	0	0	0	0	0	0	0
121812	08:40:17	10021	Memory3R6moFr	ScoreFr3	5	333	1635	0	109	08:40:17	2677930	0	0	0	0	0	0	0	0	0	0	0	0	0	0	0	0	0
121812	08:40:17	10021	Memory3R6moFr	ScoreFr3	5	555	500	0	109	08:40:17	2678477	0	0	0	0	0	0	0	0	0	0	0	0	0	0	0	0	0
121812	08:40:17	10021	Memory3R6moFr	ScoreFr3	5	666	185	0	109	08:40:17	2678717	0	0	0	0	0	0	0	0	0	0	0	0	0	0	0	0	0
121812	08:40:17	10021	Memory3R6moFr	ScoreFr3	5	666	1658	0	109	08:40:17	2680422	0	0	0	0	0	0	0	0	0	0	0	0	0	0	0	0	0
121812	08:40:17	10021	Memory3R6moFr	ScoreFr3	5	555	3239	0	109	08:40:17	2683715	0	0	0	0	0	0	0	0	0	0	0	0	0	0	0	0	0
121812	08:40:17	10021	Memory3R6moFr	ScoreFr3	5	666	316	0	109	08:40:17	2684074	0	0	0	0	0	0	0	0	0	0	0	0	0	0	0	0	0
121812	08:40:17	10021	Memory3R6moFr	ScoreFr3	5	777	284	0	109	08:40:17	2684408	0	0	0	0	0	0	0	0	0	0	0	0	0	0	0	0	0
121812	08:40:17	10021	Memory3R6moFr	ScoreFr3	5	888	278	0	109	08:40:17	2684741	0	0	0	0	0	0	0	0	0	0	0	0	0	0	0	0	0
121812	08:40:17	10021	Memory3R6moFr	ScoreFr3	5	555	11193	0	109	08:40:17	2695990	0	0	0	0	0	0	0	0	0	0	0	0	0	0	0	0	0
121812	08:40:17	10021	Memory3R6moFr	ScoreFr3	5	Done	19904	0	109	08:40:17	2715942	0	0	0	0	0	0	0	0	0	0	0	0	0	0	0	0	0
121812	08:40:17	10021	LoriaFrLH3	Stop	6	3	2783	0	109	08:40:17	2789967	0	0	0	0	0	0	0	0	0	0	0	0	0	0	0	0	0
121812	08:40:17	10021	FrTrail	Trails	7	1Trails	2857	0	109	08:40:17	2841652	0	0	0	0	0	0	0	0	0	0	0	0	0	0	0	0	0
121812	08:40:17	10021	Serial7Fr6mo	Serial7Fr6mo	8	73	26185	0	109	08:40:17	2888784	1	0	0	0	0	0	0	0	0	0	0	0	0	0	0	0	0
121812	08:40:17	10021	Serial7Fr6mo	Serial7Fr6mo	8	64	36595	0	109	08:40:17	2925401	1	0	0	0	0	0	0	0	0	0	0	0	0	0	0	0	0
121812	08:40:17	10021	Serial7Fr6mo	Serial7Fr6mo	8	55	18237	0	109	08:40:17	2943661	1	0	0	0	0	0	0	0	0	0	0	0	0	0	0	0	0
121812	08:40:17	10021	Serial7Fr6mo	Serial7Fr6mo	8	44	29026	0	109	08:40:17	2972706	1	0	0	0	0	0	0	0	0	0	0	0	0	0	0	0	0
121812	08:40:17	10021	Serial7Fr6mo	Serial7Fr6mo	8	33	9214	0	109	08:40:17	2981944	1	0	0	0	0	0	0	0	0	0	0	0	0	0	0	0	0
121812	08:40:17	10021	corsiblockFrFwrd	recallseqFrFwrd	9	4	5900	0	109	08:40:17	3070202	1	0	0	0	0	0	0	0	0	0	0	0	0	0	0	0	0
121812	08:40:17	10021	corsiblockFrFwrd	recallseqFrFwrd	9	1	1692	0	109	08:40:17	3071948	1	0	0	0	0	0	0	0	0	0	0	0	0	0	0	0	0
121812	08:40:17	10021	corsiblockFrFwrd	recallseqFrFwrd	9	doneCorsiFr	3650	0	109	08:40:17	3075653	1	0	0	0	0	0	0	0	0	0	0	0	0	0	0	2	0
121812	08:40:17	10021	corsiblockFrFwrd	recallseqFrFwrd	9	8	1035	0	109	08:40:17	3082810	1	0	0	0	0	0	0	0	0	0	0	0	0	0	0	2	0
121812	08:40:17	10021	corsiblockFrFwrd	recallseqFrFwrd	9	7	827	0	109	08:40:17	3083690	1	0	0	0	0	0	0	0	0	0	0	0	0	0	0	2	0
121812	08:40:17	10021	corsiblockFrFwrd	recallseqFrFwrd	9	2	500	0	109	08:40:17	3084236	1	0	0	0	0	0	0	0	0	0	0	0	0	0	0	2	0
121812	08:40:17	10021	corsiblockFrFwrd	recallseqFrFwrd	9	doneCorsiFr	1865	0	109	08:40:17	3086155	1	0	0	0	0	0	0	0	0	0	0	0	0	0	0	3	0
121812	08:40:17	10021	corsiblockFrFwrd	recallseqFrFwrd	9	9	1020	0	109	08:40:17	3094299	1	0	0	0	0	0	0	0	0	0	0	0	0	0	0	3	0
121812	08:40:17	10021	corsiblockFrFwrd	recallseqFrFwrd	9	5	1250	0	109	08:40:17	3095605	1	0	0	0	0	0	0	0	0	0	0	0	0	0	0	3	0
121812	08:40:17	10021	corsiblockFrFwrd	recallseqFrFwrd	9	6	744	0	109	08:40:17	3096405	1	0	0	0	0	0	0	0	0	0	0	0	0	0	0	3	0
121812	08:40:17	10021	corsiblockFrFwrd	recallseqFrFwrd	9	3	752	0	109	08:40:17	3097204	1	0	0	0	0	0	0	0	0	0	0	0	0	0	0	3	0
121812	08:40:17	10021	corsiblockFrFwrd	recallseqFrFwrd	9	doneCorsiFr	993	0	109	08:40:17	3098244	1	0	0	0	0	0	0	0	0	0	0	0	0	0	0	3	0
121812	08:40:17	10021	corsiblockFrFwrd	recallseqFrFwrd	9	2	1156	0	109	08:40:17	3106494	1	0	0	0	0	0	0	0	0	0	0	0	0	0	0	3	0
121812	08:40:17	10021	corsiblockFrFwrd	recallseqFrFwrd	9	6	799	0	109	08:40:17	3107347	1	0	0	0	0	0	0	0	0	0	0	0	0	0	0	3	0
121812	08:40:17	10021	corsiblockFrFwrd	recallseqFrFwrd	9	1	858	0	109	08:40:17	3108253	1	0	0	0	0	0	0	0	0	0	0	0	0	0	0	3	0
121812	08:40:17	10021	corsiblockFrFwrd	recallseqFrFwrd	9	7	1223	0	109	08:40:17	3109533	1	0	0	0	0	0	0	0	0	0	0	0	0	0	0	3	0
121812	08:40:17	10021	corsiblockFrFwrd	recallseqFrFwrd	9	doneCorsiFr	640	0	109	08:40:17	3110226	1	0	0	0	0	0	0	0	0	0	0	0	0	0	0	4	0
121812	08:40:17	10021	corsiblockFrFwrd	recallseqFrFwrd	9	5	1091	0	109	08:40:17	3118436	1	0	0	0	0	0	0	0	0	0	0	0	0	0	0	4	0
121812	08:40:17	10021	corsiblockFrFwrd	recallseqFrFwrd	9	3	617	0	109	08:40:17	3119102	1	0	0	0	0	0	0	0	0	0	0	0	0	0	0	4	0
121812	08:40:17	10021	corsiblockFrFwrd	recallseqFrFwrd	9	4	670	0	109	08:40:17	3119822	1	0	0	0	0	0	0	0	0	0	0	0	0	0	0	4	0
121812	08:40:17	10021	corsiblockFrFwrd	recallseqFrFwrd	9	9	950	0	109	08:40:17	3120822	1	0	0	0	0	0	0	0	0	0	0	0	0	0	0	4	0
121812	08:40:17	10021	corsiblockFrFwrd	recallseqFrFwrd	9	8	767	0	109	08:40:17	3121635	1	0	0	0	0	0	0	0	0	0	0	0	0	0	0	4	0
121812	08:40:17	10021	corsiblockFrFwrd	recallseqFrFwrd	9	doneCorsiFr	930	0	109	08:40:17	3122621	1	0	0	0	0	0	0	0	0	0	0	0	0	0	0	4	0
121812	08:40:17	10021	corsiblockFrFwrd	recallseqFrFwrd	9	5	1219	0	109	08:40:17	3131924	1	0	0	0	0	0	0	0	0	0	0	0	0	0	0	4	0
121812	08:40:17	10021	corsiblockFrFwrd	recallseqFrFwrd	9	1	961	0	109	08:40:17	3132937	1	0	0	0	0	0	0	0	0	0	0	0	0	0	0	4	0
121812	08:40:17	10021	corsiblockFrFwrd	recallseqFrFwrd	9	2	1004	0	109	08:40:17	3133990	1	0	0	0	0	0	0	0	0	0	0	0	0	0	0	4	0
121812	08:40:17	10021	corsiblockFrFwrd	recallseqFrFwrd	9	9	1015	0	109	08:40:17	3135056	1	0	0	0	0	0	0	0	0	0	0	0	0	0	0	4	0
121812	08:40:17	10021	corsiblockFrFwrd	recallseqFrFwrd	9	doneCorsiFr	989	0	109	08:40:17	3136096	1	0	0	0	0	0	0	0	0	0	0	0	0	0	0	4	0
121812	08:40:17	10021	corsiblockFrRev	recallseqFrRev	10	9	2315	0	109	08:40:17	3154248	1	0	0	0	0	0	0	0	0	0	0	0	0	0	0	4	0
121812	08:40:17	10021	corsiblockFrRev	recallseqFrRev	10	2	780	0	109	08:40:17	3155075	1	0	0	0	0	0	0	0	0	0	0	0	0	0	0	4	0
121812	08:40:17	10021	corsiblockFrRev	recallseqFrRev	10	doneCorsiFr	1690	0	109	08:40:17	3156821	1	0	0	0	0	0	0	0	0	0	0	0	0	0	0	4	2
121812	08:40:17	10021	corsiblockFrRev	recallseqFrRev	10	5	2183	0	109	08:40:17	3165124	1	0	0	0	0	0	0	0	0	0	0	0	0	0	0	4	2
121812	08:40:17	10021	corsiblockFrRev	recallseqFrRev	10	6	656	0	109	08:40:17	3165831	1	0	0	0	0	0	0	0	0	0	0	0	0	0	0	4	2
121812	08:40:17	10021	corsiblockFrRev	recallseqFrRev	10	3	661	0	109	08:40:17	3166537	1	0	0	0	0	0	0	0	0	0	0	0	0	0	0	4	2
121812	08:40:17	10021	corsiblockFrRev	recallseqFrRev	10	doneCorsiFr	1715	0	109	08:40:17	3168296	1	0	0	0	0	0	0	0	0	0	0	0	0	0	0	4	2
121812	08:40:17	10021	corsiblockFrRev	recallseqFrRev	10	7	1958	0	109	08:40:17	3176347	1	0	0	0	0	0	0	0	0	0	0	0	0	0	0	4	2
121812	08:40:17	10021	corsiblockFrRev	recallseqFrRev	10	4	706	0	109	08:40:17	3177106	1	0	0	0	0	0	0	0	0	0	0	0	0	0	0	4	2
121812	08:40:17	10021	corsiblockFrRev	recallseqFrRev	10	8	858	0	109	08:40:17	3178013	1	0	0	0	0	0	0	0	0	0	0	0	0	0	0	4	2
121812	08:40:17	10021	corsiblockFrRev	recallseqFrRev	10	doneCorsiFr	880	0	109	08:40:17	3178946	1	0	0	0	0	0	0	0	0	0	0	0	0	0	0	4	3
121812	08:40:17	10021	corsiblockFrRev	recallseqFrRev	10	7	819	0	109	08:40:17	3185876	1	0	0	0	0	0	0	0	0	0	0	0	0	0	0	4	3
121812	08:40:17	10021	corsiblockFrRev	recallseqFrRev	10	5	1744	0	109	08:40:17	3187676	1	0	0	0	0	0	0	0	0	0	0	0	0	0	0	4	3
121812	08:40:17	10021	corsiblockFrRev	recallseqFrRev	10	6	657	0	109	08:40:17	3188382	1	0	0	0	0	0	0	0	0	0	0	0	0	0	0	4	3
121812	08:40:17	10021	corsiblockFrRev	recallseqFrRev	10	1	1046	0	109	08:40:17	3189475	1	0	0	0	0	0	0	0	0	0	0	0	0	0	0	4	3
121812	08:40:17	10021	corsiblockFrRev	recallseqFrRev	10	doneCorsiFr	1241	0	109	08:40:17	3190768	1	0	0	0	0	0	0	0	0	0	0	0	0	0	0	4	4
121812	08:40:17	10021	corsiblockFrRev	recallseqFrRev	10	8	1071	0	109	08:40:17	3199964	1	0	0	0	0	0	0	0	0	0	0	0	0	0	0	4	4
121812	08:40:17	10021	corsiblockFrRev	recallseqFrRev	10	1	984	0	109	08:40:17	3201004	1	0	0	0	0	0	0	0	0	0	0	0	0	0	0	4	4
121812	08:40:17	10021	corsiblockFrRev	recallseqFrRev	10	3	664	0	109	08:40:17	3201723	1	0	0	0	0	0	0	0	0	0	0	0	0	0	0	4	4
121812	08:40:17	10021	corsiblockFrRev	recallseqFrRev	10	4	497	0	109	08:40:17	3202269	1	0	0	0	0	0	0	0	0	0	0	0	0	0	0	4	4
121812	08:40:17	10021	corsiblockFrRev	recallseqFrRev	10	9	710	0	109	08:40:17	3203029	1	0	0	0	0	0	0	0	0	0	0	0	0	0	0	4	4
121812	08:40:17	10021	corsiblockFrRev	recallseqFrRev	10	doneCorsiFr	910	0	109	08:40:17	3203989	1	0	0	0	0	0	0	0	0	0	0	0	0	0	0	4	4
121812	08:40:17	10021	corsiblockFrRev	recallseqFrRev	10	4	906	0	109	08:40:17	3212986	1	0	0	0	0	0	0	0	0	0	0	0	0	0	0	4	4
121812	08:40:17	10021	corsiblockFrRev	recallseqFrRev	10	2	442	0	109	08:40:17	3213479	1	0	0	0	0	0	0	0	0	0	0	0	0	0	0	4	4
121812	08:40:17	10021	corsiblockFrRev	recallseqFrRev	10	7	1309	0	109	08:40:17	3214838	1	0	0	0	0	0	0	0	0	0	0	0	0	0	0	4	4
121812	08:40:17	10021	corsiblockFrRev	recallseqFrRev	10	8	693	0	109	08:40:17	3215584	1	0	0	0	0	0	0	0	0	0	0	0	0	0	0	4	4
121812	08:40:17	10021	corsiblockFrRev	recallseqFrRev	10	doneCorsiFr	1027	0	109	08:40:17	3216664	1	0	0	0	0	0	0	0	0	0	0	0	0	0	0	4	4
121812	08:40:17	10021	testFr6mo	WordsFr6mo	11	3Fr6mo	20590	0	109	08:40:17	3251610	1	0	0	3	0	0	0	0	0	0	0	0	0	0	0	4	4
121812	08:40:17	10021	testFr6mo	WordsFr6mo	11	1Fr6mo	569	0	109	08:40:17	3252223	1	3	0	3	0	0	0	0	0	0	0	0	0	0	0	4	4
121812	08:40:17	10021	testFr6mo	WordsFr6mo	11	5Fr6mo	1812	0	109	08:40:17	3254089	1	3	0	3	0	3	0	0	0	0	0	0	0	0	0	4	4
121812	08:40:17	10021	testFr6mo	WordsFr6mo	11	7Fr6mo	1442	0	109	08:40:17	3255582	1	3	0	3	0	3	0	3	0	0	0	0	0	0	0	4	4
121812	08:40:17	10021	testFr6mo	WordsFr6mo	11	2Fr6mo	5853	0	109	08:40:17	3261486	1	3	3	3	0	3	0	3	0	0	0	0	0	0	0	4	4
121812	08:40:17	10021	testFr6mo	WordsFr6mo	11	DoneFr6mo	15453	0	109	08:40:17	3276987	1	3	3	3	0	3	0	3	0	0	0	0	0	0	0	4	4
121812	08:40:17	10021	testFr6mo	Cat4Fr6mo	11	0	1	0	109	08:40:17	3277000	1	3	3	3	0	3	0	3	0	0	0	0	0	0	0	4	4
121812	08:40:17	10021	testFr6mo	Ch4Fr6mo	11	RR4Fr6mo	11081	0	109	08:40:17	3288116	1	3	3	3	1	3	0	3	0	0	0	0	0	0	0	4	4
121812	08:40:17	10021	testFr6mo	Cat6Fr6mo	11	0	1	0	109	08:40:17	3288123	1	3	3	3	1	3	0	3	0	0	0	0	0	0	0	4	4
121812	08:40:17	10021	testFr6mo	Ch6Fr6mo	11	RR6Fr6mo	3808	0	109	08:40:17	3291967	1	3	3	3	1	3	1	3	0	0	0	0	0	0	0	4	4
121812	08:40:17	10021	testFr6mo	Cat8Fr6mo	11	W8Fr6mo	8873	0	109	08:40:17	3300871	1	3	3	3	1	3	1	3	0	0	0	0	0	0	0	4	4
121812	08:40:17	10021	testFr6mo	Ch8Fr6mo	11	RR8Fr6mo	4906	0	109	08:40:17	3305815	1	3	3	3	1	3	1	3	1	0	0	0	0	0	0	4	4
121812	08:40:17	10021	DigitSpanFwrdFr6mo	Score1FwrdFr6mo	12	DS1	3013	0	109	08:40:17	3323608	1	3	3	3	1	3	1	3	1	0	0	0	0	0	0	4	4
121812	08:40:17	10021	DigitSpanFwrdFr6mo	Gate1FwrdFr6mo	12	0	1	0	109	08:40:17	3323612	1	3	3	3	1	3	1	3	1	3	0	0	0	0	0	4	4
121812	08:40:17	10021	DigitSpanFwrdFr6mo	Score2FwrdFr6mo	12	DS1	2499	0	109	08:40:17	3332418	1	3	3	3	1	3	1	3	1	3	0	0	0	0	0	4	4
121812	08:40:17	10021	DigitSpanFwrdFr6mo	Gate3FwrdFr6mo	12	0	1	0	109	08:40:17	3332423	1	3	3	3	1	3	1	3	1	4	0	0	0	0	0	4	4
121812	08:40:17	10021	DigitSpanFwrdFr6mo	Score3FwrdFr6mo	12	DS2	5180	0	109	08:40:17	3344840	1	3	3	3	1	3	1	3	1	4	0	0	0	0	0	4	4
121812	08:40:17	10021	DigitSpanFwrdFr6mo	Gate5FwrdFr6mo	12	0	1	0	109	08:40:17	3344845	1	3	3	3	1	3	1	3	1	4	0	0	0	0	0	4	4
121812	08:40:17	10021	DigitSpanFwrdFr6mo	Score33FwrdFr6mo	12	DS2	4051	0	109	08:40:17	3356089	1	3	3	3	1	3	1	3	1	4	0	0	0	0	0	4	4
121812	08:40:17	10021	DigitSpanFr6mo	Score1Fr6mo	13	DS1	2957	0	109	08:40:17	3373482	1	3	3	3	1	3	1	3	1	4	0	0	0	0	0	4	4
121812	08:40:17	10021	DigitSpanFr6mo	Gate1Fr6mo	13	0	1	0	109	08:40:17	3373487	1	3	3	3	1	3	1	3	1	4	2	0	0	0	0	4	4
121812	08:40:17	10021	DigitSpanFr6mo	Score2Fr6mo	13	DS2	4946	0	109	08:40:17	3382998	1	3	3	3	1	3	1	3	1	4	2	0	0	0	0	4	4
121812	08:40:17	10021	DigitSpanFr6mo	Gate3Fr6mo	13	0	1	0	109	08:40:17	3383002	1	3	3	3	1	3	1	3	1	4	2	0	0	0	0	4	4
121812	08:40:17	10021	DigitSpanFr6mo	Score22Fr6mo	13	DS2	5841	0	109	08:40:17	3393061	1	3	3	3	1	3	1	3	1	4	2	0	0	0	0	4	4
121812	08:40:17	10021	Trial	ResponseIL	14	0	175	0	109	08:40:17	3523489	1	3	3	3	1	3	1	3	1	4	2	0	0	0	0	4	4
121812	08:40:17	10021	Trial	IncongruentLeft	14	0	1000	0	109	08:40:17	3524502	1	3	3	3	1	3	1	3	1	4	2	0	0	0	0	4	4
121812	08:40:17	10021	Trial	ResponseCR	14	0	175	0	109	08:40:17	3525209	1	3	3	3	1	3	1	3	1	4	2	0	0	0	0	4	4
121812	08:40:17	10021	Trial	CongruentRight	14	205	555	1	109	08:40:17	3525781	1	3	3	3	1	3	1	3	1	4	2	0	0	0	0	4	4
121812	08:40:17	10021	Trial	ResponseIR	14	0	175	0	109	08:40:17	3526915	1	3	3	3	1	3	1	3	1	4	2	0	0	0	0	4	4
121812	08:40:17	10021	Trial	IncongruentRight	14	205	785	1	109	08:40:17	3527728	1	3	3	3	1	3	1	3	1	4	2	0	0	0	0	4	4
121812	08:40:17	10021	Trial	ResponseCL	14	0	175	0	109	08:40:17	3528620	1	3	3	3	1	3	1	3	1	4	2	0	0	0	0	4	4
121812	08:40:17	10021	Trial	CongruentLeft	14	203	551	1	109	08:40:17	3529194	1	3	3	3	1	3	1	3	1	4	2	0	0	0	0	4	4
121812	08:40:17	10021	Trial	ResponseCR	14	0	175	0	109	08:40:17	3530327	1	3	3	3	1	3	1	3	1	4	2	0	0	0	0	4	4
121812	08:40:17	10021	Trial	CongruentRight	14	205	717	1	109	08:40:17	3531059	1	3	3	3	1	3	1	3	1	4	2	0	0	0	0	4	4
121812	08:40:17	10021	Trial	ResponseIR	14	0	175	0	109	08:40:17	3532032	1	3	3	3	1	3	1	3	1	4	2	0	0	0	0	4	4
121812	08:40:17	10021	Trial	IncongruentRight	14	205	723	1	109	08:40:17	3532779	1	3	3	3	1	3	1	3	1	4	2	0	0	0	0	4	4
121812	08:40:17	10021	Trial	ResponseCL	14	0	175	0	109	08:40:17	3533739	1	3	3	3	1	3	1	3	1	4	2	0	0	0	0	4	4
121812	08:40:17	10021	Trial	CongruentLeft	14	205	969	0	109	08:40:17	3534725	1	3	3	3	1	3	1	3	1	4	2	0	0	0	0	4	4
121812	08:40:17	10021	Trial	ResponseIL	14	0	175	0	109	08:40:17	3535445	1	3	3	3	1	3	1	3	1	4	2	0	0	0	0	4	4
121812	08:40:17	10021	Trial	IncongruentLeft	14	203	719	1	109	08:40:17	3536191	1	3	3	3	1	3	1	3	1	4	2	0	0	0	0	4	4
121812	08:40:17	10021	Trial	ResponseIL	14	0	175	0	109	08:40:17	3537151	1	3	3	3	1	3	1	3	1	4	2	0	0	0	0	4	4
121812	08:40:17	10021	Trial	IncongruentLeft	14	0	1000	0	109	08:40:17	3538164	1	3	3	3	1	3	1	3	1	4	2	0	0	0	0	4	4
121812	08:40:17	10021	Trial	ResponseCR	14	0	175	0	109	08:40:17	3538870	1	3	3	3	1	3	1	3	1	4	2	0	0	0	0	4	4
121812	08:40:17	10021	Trial	CongruentRight	14	203	189	0	109	08:40:17	3539083	1	3	3	3	1	3	1	3	1	4	2	0	0	0	0	4	4
121812	08:40:17	10021	Trial	ResponseIR	14	0	175	0	109	08:40:17	3540576	1	3	3	3	1	3	1	3	1	4	2	0	0	0	0	4	4
121812	08:40:17	10021	Trial	IncongruentRight	14	0	1000	0	109	08:40:17	3541589	1	3	3	3	1	3	1	3	1	4	2	0	0	0	0	4	4
121812	08:40:17	10021	Trial	ResponseCL	14	0	175	0	109	08:40:17	3542295	1	3	3	3	1	3	1	3	1	4	2	0	0	0	0	4	4
121812	08:40:17	10021	Trial	CongruentLeft	14	0	1000	0	109	08:40:17	3543308	1	3	3	3	1	3	1	3	1	4	2	0	0	0	0	4	4
121812	08:40:17	10021	Trial	ResponseCR	14	0	175	0	109	08:40:17	3544015	1	3	3	3	1	3	1	3	1	4	2	0	0	0	0	4	4
121812	08:40:17	10021	Trial	CongruentRight	14	205	453	1	109	08:40:17	3544494	1	3	3	3	1	3	1	3	1	4	2	0	0	0	0	4	4
121812	08:40:17	10021	Trial	ResponseIL	14	0	175	0	109	08:40:17	3545720	1	3	3	3	1	3	1	3	1	4	2	0	0	0	0	4	4
121812	08:40:17	10021	Trial	IncongruentLeft	14	203	603	1	109	08:40:17	3546347	1	3	3	3	1	3	1	3	1	4	2	0	0	0	0	4	4
121812	08:40:17	10021	Trial	ResponseIR	14	0	175	0	109	08:40:17	3547427	1	3	3	3	1	3	1	3	1	4	2	0	0	0	0	4	4
121812	08:40:17	10021	Trial	IncongruentRight	14	205	577	1	109	08:40:17	3548026	1	3	3	3	1	3	1	3	1	4	2	0	0	0	0	4	4
121812	08:40:17	10021	Trial	ResponseCR	14	0	175	0	109	08:40:17	3549133	1	3	3	3	1	3	1	3	1	4	2	0	0	0	0	4	4
121812	08:40:17	10021	Trial	CongruentRight	14	0	1000	0	109	08:40:17	3550145	1	3	3	3	1	3	1	3	1	4	2	0	0	0	0	4	4
121812	08:40:17	10021	Trial	ResponseCL	14	0	175	0	109	08:40:17	3550852	1	3	3	3	1	3	1	3	1	4	2	0	0	0	0	4	4
121812	08:40:17	10021	Trial	CongruentLeft	14	0	1000	0	109	08:40:17	3551865	1	3	3	3	1	3	1	3	1	4	2	0	0	0	0	4	4
121812	08:40:17	10021	Trial	ResponseCR	14	0	175	0	109	08:40:17	3552571	1	3	3	3	1	3	1	3	1	4	2	0	0	0	0	4	4
121812	08:40:17	10021	Trial	CongruentRight	14	205	680	1	109	08:40:17	3553278	1	3	3	3	1	3	1	3	1	4	2	0	0	0	0	4	4
121812	08:40:17	10021	Trial	ResponseIR	14	0	175	0	109	08:40:17	3554277	1	3	3	3	1	3	1	3	1	4	2	0	0	0	0	4	4
121812	08:40:17	10021	Trial	IncongruentRight	14	0	1000	0	109	08:40:17	3555290	1	3	3	3	1	3	1	3	1	4	2	0	0	0	0	4	4
121812	08:40:17	10021	Trial	ResponseIL	14	0	175	0	109	08:40:17	3555997	1	3	3	3	1	3	1	3	1	4	2	0	0	0	0	4	4
121812	08:40:17	10021	Trial	IncongruentLeft	14	0	1000	0	109	08:40:17	3557009	1	3	3	3	1	3	1	3	1	4	2	0	0	0	0	4	4
121812	08:40:17	10021	Trial	ResponseIL	14	0	175	0	109	08:40:17	3557716	1	3	3	3	1	3	1	3	1	4	2	0	0	0	0	4	4
121812	08:40:17	10021	Trial	IncongruentLeft	14	203	351	1	109	08:40:17	3558089	1	3	3	3	1	3	1	3	1	4	2	0	0	0	0	4	4
121812	08:40:17	10021	Trial	ResponseCL	14	0	175	0	109	08:40:17	3559422	1	3	3	3	1	3	1	3	1	4	2	0	0	0	0	4	4
121812	08:40:17	10021	Trial	CongruentLeft	14	203	437	1	109	08:40:17	3559888	1	3	3	3	1	3	1	3	1	4	2	0	0	0	0	4	4
121812	08:40:17	10021	Trial	ResponseCR	14	0	175	0	109	08:40:17	3561128	1	3	3	3	1	3	1	3	1	4	2	0	0	0	0	4	4
121812	08:40:17	10021	Trial	CongruentRight	14	203	507	0	109	08:40:17	3561661	1	3	3	3	1	3	1	3	1	4	2	0	0	0	0	4	4
121812	08:40:17	10021	Trial	ResponseIL	14	0	175	0	109	08:40:17	3562834	1	3	3	3	1	3	1	3	1	4	2	0	0	0	0	4	4
121812	08:40:17	10021	Trial	IncongruentLeft	14	0	1000	0	109	08:40:17	3563847	1	3	3	3	1	3	1	3	1	4	2	0	0	0	0	4	4
121812	08:40:17	10021	Trial	ResponseIR	14	0	175	0	109	08:40:17	3564553	1	3	3	3	1	3	1	3	1	4	2	0	0	0	0	4	4
121812	08:40:17	10021	Trial	IncongruentRight	14	205	266	1	109	08:40:17	3564846	1	3	3	3	1	3	1	3	1	4	2	0	0	0	0	4	4
121812	08:40:17	10021	Trial	ResponseCR	14	0	175	0	109	08:40:17	3566259	1	3	3	3	1	3	1	3	1	4	2	0	0	0	0	4	4
121812	08:40:17	10021	Trial	CongruentRight	14	205	736	1	109	08:40:17	3567019	1	3	3	3	1	3	1	3	1	4	2	0	0	0	0	4	4
121812	08:40:17	10021	Trial	ResponseCL	14	0	175	0	109	08:40:17	3567965	1	3	3	3	1	3	1	3	1	4	2	0	0	0	0	4	4
121812	08:40:17	10021	Trial	CongruentLeft	14	203	950	1	109	08:40:17	3568938	1	3	3	3	1	3	1	3	1	4	2	0	0	0	0	4	4
121812	08:40:17	10021	Trial	ResponseIR	14	0	175	0	109	08:40:17	3569671	1	3	3	3	1	3	1	3	1	4	2	0	0	0	0	4	4
121812	08:40:17	10021	Trial	IncongruentRight	14	205	988	1	109	08:40:17	3570684	1	3	3	3	1	3	1	3	1	4	2	0	0	0	0	4	4
121812	08:40:17	10021	Trial	ResponseIL	14	0	175	0	109	08:40:17	3571391	1	3	3	3	1	3	1	3	1	4	2	0	0	0	0	4	4
121812	08:40:17	10021	Trial	IncongruentLeft	14	203	868	1	109	08:40:17	3572284	1	3	3	3	1	3	1	3	1	4	2	0	0	0	0	4	4
121812	08:40:17	10021	Trial	ResponseIR	14	0	175	0	109	08:40:17	3573096	1	3	3	3	1	3	1	3	1	4	2	0	0	0	0	4	4
121812	08:40:17	10021	Trial	IncongruentRight	14	205	922	1	109	08:40:17	3574043	1	3	3	3	1	3	1	3	1	4	2	0	0	0	0	4	4
121812	08:40:17	10021	Trial	ResponseCR	14	0	175	0	109	08:40:17	3574802	1	3	3	3	1	3	1	3	1	4	2	0	0	0	0	4	4
121812	08:40:17	10021	Trial	CongruentRight	14	205	801	1	109	08:40:17	3575629	1	3	3	3	1	3	1	3	1	4	2	0	0	0	0	4	4
121812	08:40:17	10021	Trial	ResponseIL	14	0	175	0	109	08:40:17	3576508	1	3	3	3	1	3	1	3	1	4	2	0	0	0	0	4	4
121812	08:40:17	10021	Trial	IncongruentLeft	14	203	647	1	109	08:40:17	3577175	1	3	3	3	1	3	1	3	1	4	2	0	0	0	0	4	4
121812	08:40:17	10021	Trial	ResponseCL	14	0	175	0	109	08:40:17	3578214	1	3	3	3	1	3	1	3	1	4	2	0	0	0	0	4	4
121812	08:40:17	10021	Trial	CongruentLeft	14	203	684	1	109	08:40:17	3578921	1	3	3	3	1	3	1	3	1	4	2	0	0	0	0	4	4
121812	08:40:17	10021	Trial	ResponseCR	14	0	175	0	109	08:40:17	3579920	1	3	3	3	1	3	1	3	1	4	2	0	0	0	0	4	4
121812	08:40:17	10021	Trial	CongruentRight	14	0	1000	0	109	08:40:17	3580933	1	3	3	3	1	3	1	3	1	4	2	0	0	0	0	4	4
121812	08:40:17	10021	Trial	ResponseIL	14	0	175	0	109	08:40:17	3581640	1	3	3	3	1	3	1	3	1	4	2	0	0	0	0	4	4
121812	08:40:17	10021	Trial	IncongruentLeft	14	205	222	0	109	08:40:17	3581880	1	3	3	3	1	3	1	3	1	4	2	0	0	0	0	4	4
121812	08:40:17	10021	Trial	ResponseIR	14	0	175	0	109	08:40:17	3583346	1	3	3	3	1	3	1	3	1	4	2	0	0	0	0	4	4
121812	08:40:17	10021	Trial	IncongruentRight	14	0	1000	0	109	08:40:17	3584359	1	3	3	3	1	3	1	3	1	4	2	0	0	0	0	4	4
121812	08:40:17	10021	Trial	ResponseIR	14	0	175	0	109	08:40:17	3585065	1	3	3	3	1	3	1	3	1	4	2	0	0	0	0	4	4
121812	08:40:17	10021	Trial	IncongruentRight	14	203	682	0	109	08:40:17	3585771	1	3	3	3	1	3	1	3	1	4	2	0	0	0	0	4	4
121812	08:40:17	10021	Trial	ResponseCL	14	0	175	0	109	08:40:17	3586771	1	3	3	3	1	3	1	3	1	4	2	0	0	0	0	4	4
121812	08:40:17	10021	Trial	CongruentLeft	14	0	1000	0	109	08:40:17	3587784	1	3	3	3	1	3	1	3	1	4	2	0	0	0	0	4	4
121812	08:40:17	10021	Trial	ResponseIL	14	0	175	0	109	08:40:17	3588491	1	3	3	3	1	3	1	3	1	4	2	0	0	0	0	4	4
121812	08:40:17	10021	Trial	IncongruentLeft	14	0	1000	0	109	08:40:17	3589504	1	3	3	3	1	3	1	3	1	4	2	0	0	0	0	4	4
121812	08:40:17	10021	Trial	ResponseCR	14	0	175	0	109	08:40:17	3590210	1	3	3	3	1	3	1	3	1	4	2	0	0	0	0	4	4
121812	08:40:17	10021	Trial	CongruentRight	14	0	1000	0	109	08:40:17	3591223	1	3	3	3	1	3	1	3	1	4	2	0	0	0	0	4	4
121812	08:40:17	10021	Trial	ResponseCL	14	0	175	0	109	08:40:17	3591929	1	3	3	3	1	3	1	3	1	4	2	0	0	0	0	4	4
121812	08:40:17	10021	Trial	CongruentLeft	14	0	1000	0	109	08:40:17	3592942	1	3	3	3	1	3	1	3	1	4	2	0	0	0	0	4	4
121812	08:40:17	10021	Trial	ResponseIR	14	0	175	0	109	08:40:17	3593648	1	3	3	3	1	3	1	3	1	4	2	0	0	0	0	4	4
121812	08:40:17	10021	Trial	IncongruentRight	14	203	226	0	109	08:40:17	3593902	1	3	3	3	1	3	1	3	1	4	2	0	0	0	0	4	4
121812	08:40:17	10021	Trial	ResponseCR	14	0	175	0	109	08:40:17	3595354	1	3	3	3	1	3	1	3	1	4	2	0	0	0	0	4	4
121812	08:40:17	10021	Trial	CongruentRight	14	0	1000	0	109	08:40:17	3596367	1	3	3	3	1	3	1	3	1	4	2	0	0	0	0	4	4
121812	08:40:17	10021	Trial	ResponseIL	14	0	175	0	109	08:40:17	3597074	1	3	3	3	1	3	1	3	1	4	2	0	0	0	0	4	4
121812	08:40:17	10021	Trial	IncongruentLeft	14	0	1000	0	109	08:40:17	3598087	1	3	3	3	1	3	1	3	1	4	2	0	0	0	0	4	4
121812	08:40:17	10021	Trial	ResponseCL	14	0	175	0	109	08:40:17	3598793	1	3	3	3	1	3	1	3	1	4	2	0	0	0	0	4	4
121812	08:40:17	10021	Trial	CongruentLeft	14	0	1000	0	109	08:40:17	3599806	1	3	3	3	1	3	1	3	1	4	2	0	0	0	0	4	4
121812	08:40:17	10021	Trial	ResponseIL	14	0	175	0	109	08:40:17	3600512	1	3	3	3	1	3	1	3	1	4	2	0	0	0	0	4	4
121812	08:40:17	10021	Trial	IncongruentLeft	14	203	707	1	109	08:40:17	3601245	1	3	3	3	1	3	1	3	1	4	2	0	0	0	0	4	4
121812	08:40:17	10021	Trial	ResponseIR	14	0	175	0	109	08:40:17	3602218	1	3	3	3	1	3	1	3	1	4	2	0	0	0	0	4	4
121812	08:40:17	10021	Trial	IncongruentRight	14	0	1000	0	109	08:40:17	3603231	1	3	3	3	1	3	1	3	1	4	2	0	0	0	0	4	4
121812	08:40:17	10021	Trial	ResponseCR	14	0	175	0	109	08:40:17	3603938	1	3	3	3	1	3	1	3	1	4	2	0	0	0	0	4	4
121812	08:40:17	10021	Trial	CongruentRight	14	205	481	1	109	08:40:17	3604444	1	3	3	3	1	3	1	3	1	4	2	0	0	0	0	4	4
121812	08:40:17	10021	Trial	ResponseCL	14	0	175	0	109	08:40:17	3605644	1	3	3	3	1	3	1	3	1	4	2	0	0	0	0	4	4
121812	08:40:17	10021	Trial	CongruentLeft	14	0	1000	0	109	08:40:17	3606657	1	3	3	3	1	3	1	3	1	4	2	0	0	0	0	4	4
121812	08:40:17	10021	Trial	ResponseCL	14	0	175	0	109	08:40:17	3607363	1	3	3	3	1	3	1	3	1	4	2	0	0	0	0	4	4
121812	08:40:17	10021	Trial	CongruentLeft	14	0	1000	0	109	08:40:17	3608376	1	3	3	3	1	3	1	3	1	4	2	0	0	0	0	4	4
121812	08:40:17	10021	Trial	ResponseIR	14	0	175	0	109	08:40:17	3609082	1	3	3	3	1	3	1	3	1	4	2	0	0	0	0	4	4
121812	08:40:17	10021	Trial	IncongruentRight	14	0	1000	0	109	08:40:17	3610095	1	3	3	3	1	3	1	3	1	4	2	0	0	0	0	4	4
121812	08:40:17	10021	Trial	ResponseIL	14	0	175	0	109	08:40:17	3610802	1	3	3	3	1	3	1	3	1	4	2	0	0	0	0	4	4
121812	08:40:17	10021	Trial	IncongruentLeft	14	0	1000	0	109	08:40:17	3611815	1	3	3	3	1	3	1	3	1	4	2	0	0	0	0	4	4
121812	08:40:17	10021	Trial	ResponseIR	14	0	175	0	109	08:40:17	3612521	1	3	3	3	1	3	1	3	1	4	2	0	0	0	0	4	4
121812	08:40:17	10021	Trial	IncongruentRight	14	205	441	1	109	08:40:17	3612988	1	3	3	3	1	3	1	3	1	4	2	0	0	0	0	4	4
121812	08:40:17	10021	Trial	ResponseCR	14	0	175	0	109	08:40:17	3614227	1	3	3	3	1	3	1	3	1	4	2	0	0	0	0	4	4
121812	08:40:17	10021	Trial	CongruentRight	14	205	575	1	109	08:40:17	3614827	1	3	3	3	1	3	1	3	1	4	2	0	0	0	0	4	4
121812	08:40:17	10021	Trial	ResponseCR	14	0	175	0	109	08:40:17	3615933	1	3	3	3	1	3	1	3	1	4	2	0	0	0	0	4	4
121812	08:40:17	10021	Trial	CongruentRight	14	205	614	1	109	08:40:17	3616573	1	3	3	3	1	3	1	3	1	4	2	0	0	0	0	4	4
121812	08:40:17	10021	Trial	ResponseIL	14	0	175	0	109	08:40:17	3617639	1	3	3	3	1	3	1	3	1	4	2	0	0	0	0	4	4
121812	08:40:17	10021	Trial	IncongruentLeft	14	203	443	1	109	08:40:17	3618105	1	3	3	3	1	3	1	3	1	4	2	0	0	0	0	4	4
121812	08:40:17	10021	Trial	ResponseCL	14	0	175	0	109	08:40:17	3619345	1	3	3	3	1	3	1	3	1	4	2	0	0	0	0	4	4
121812	08:40:17	10021	Trial	CongruentLeft	14	203	417	1	109	08:40:17	3619785	1	3	3	3	1	3	1	3	1	4	2	0	0	0	0	4	4
121812	08:40:17	10021	Trial	ResponseCR	14	0	175	0	109	08:40:17	3621051	1	3	3	3	1	3	1	3	1	4	2	0	0	0	0	4	4
121812	08:40:17	10021	Trial	CongruentRight	14	205	536	1	109	08:40:17	3621611	1	3	3	3	1	3	1	3	1	4	2	0	0	0	0	4	4
121812	08:40:17	10021	Trial	ResponseCL	14	0	175	0	109	08:40:17	3622757	1	3	3	3	1	3	1	3	1	4	2	0	0	0	0	4	4
121812	08:40:17	10021	Trial	CongruentLeft	14	203	845	1	109	08:40:17	3623623	1	3	3	3	1	3	1	3	1	4	2	0	0	0	0	4	4
121812	08:40:17	10021	Trial	ResponseIR	14	0	175	0	109	08:40:17	3624463	1	3	3	3	1	3	1	3	1	4	2	0	0	0	0	4	4
121812	08:40:17	10021	Trial	IncongruentRight	14	205	819	1	109	08:40:17	3625303	1	3	3	3	1	3	1	3	1	4	2	0	0	0	0	4	4
121812	08:40:17	10021	Trial	ResponseCR	14	0	175	0	109	08:40:17	3626169	1	3	3	3	1	3	1	3	1	4	2	0	0	0	0	4	4
121812	08:40:17	10021	Trial	CongruentRight	14	205	761	1	109	08:40:17	3626955	1	3	3	3	1	3	1	3	1	4	2	0	0	0	0	4	4
121812	08:40:17	10021	Trial	ResponseCL	14	0	175	0	109	08:40:17	3627875	1	3	3	3	1	3	1	3	1	4	2	0	0	0	0	4	4
121812	08:40:17	10021	Trial	CongruentLeft	14	203	543	1	109	08:40:17	3628435	1	3	3	3	1	3	1	3	1	4	2	0	0	0	0	4	4
121812	08:40:17	10021	Trial	ResponseIL	14	0	175	0	109	08:40:17	3629581	1	3	3	3	1	3	1	3	1	4	2	0	0	0	0	4	4
121812	08:40:17	10021	Trial	IncongruentLeft	14	0	1000	0	109	08:40:17	3630594	1	3	3	3	1	3	1	3	1	4	2	0	0	0	0	4	4
121812	08:40:17	10021	Trial	ResponseIL	14	0	175	0	109	08:40:17	3631300	1	3	3	3	1	3	1	3	1	4	2	0	0	0	0	4	4
121812	08:40:17	10021	Trial	IncongruentLeft	14	203	654	1	109	08:40:17	3631980	1	3	3	3	1	3	1	3	1	4	2	0	0	0	0	4	4
121812	08:40:17	10021	Trial	ResponseCR	14	0	175	0	109	08:40:17	3633006	1	3	3	3	1	3	1	3	1	4	2	0	0	0	0	4	4
121812	08:40:17	10021	Trial	CongruentRight	14	205	548	1	109	08:40:17	3633579	1	3	3	3	1	3	1	3	1	4	2	0	0	0	0	4	4
121812	08:40:17	10021	Trial	ResponseIR	14	0	175	0	109	08:40:17	3634712	1	3	3	3	1	3	1	3	1	4	2	0	0	0	0	4	4
121812	08:40:17	10021	Trial	IncongruentRight	14	205	634	1	109	08:40:17	3635365	1	3	3	3	1	3	1	3	1	4	2	0	0	0	0	4	4
121812	08:40:17	10021	Trial	ResponseCL	14	0	175	0	109	08:40:17	3636418	1	3	3	3	1	3	1	3	1	4	2	0	0	0	0	4	4
121812	08:40:17	10021	Trial	CongruentLeft	14	203	544	1	109	08:40:17	3636991	1	3	3	3	1	3	1	3	1	4	2	0	0	0	0	4	4
121812	08:40:17	10021	Trial	ResponseIR	14	0	175	0	109	08:40:17	3638124	1	3	3	3	1	3	1	3	1	4	2	0	0	0	0	4	4
121812	08:40:17	10021	Trial	IncongruentRight	14	205	744	1	109	08:40:17	3638897	1	3	3	3	1	3	1	3	1	4	2	0	0	0	0	4	4
121812	08:40:17	10021	Trial	ResponseCR	14	0	175	0	109	08:40:17	3639830	1	3	3	3	1	3	1	3	1	4	2	0	0	0	0	4	4
121812	08:40:17	10021	Trial	CongruentRight	14	0	1000	0	109	08:40:17	3640843	1	3	3	3	1	3	1	3	1	4	2	0	0	0	0	4	4
121812	08:40:17	10021	Trial	ResponseIL	14	0	175	0	109	08:40:17	3641550	1	3	3	3	1	3	1	3	1	4	2	0	0	0	0	4	4
121812	08:40:17	10021	Trial	IncongruentLeft	14	203	437	1	109	08:40:17	3642003	1	3	3	3	1	3	1	3	1	4	2	0	0	0	0	4	4
121812	08:40:17	10021	Trial	ResponseCL	14	0	175	0	109	08:40:17	3643256	1	3	3	3	1	3	1	3	1	4	2	0	0	0	0	4	4
121812	08:40:17	10021	Trial	CongruentLeft	14	0	1000	0	109	08:40:17	3644268	1	3	3	3	1	3	1	3	1	4	2	0	0	0	0	4	4
121812	08:40:17	10021	Trial	ResponseCR	14	0	175	0	109	08:40:17	3644975	1	3	3	3	1	3	1	3	1	4	2	0	0	0	0	4	4
121812	08:40:17	10021	Trial	CongruentRight	14	205	739	1	109	08:40:17	3645734	1	3	3	3	1	3	1	3	1	4	2	0	0	0	0	4	4
121812	08:40:17	10021	Trial	ResponseIL	14	0	175	0	109	08:40:17	3646681	1	3	3	3	1	3	1	3	1	4	2	0	0	0	0	4	4
121812	08:40:17	10021	Trial	IncongruentLeft	14	203	697	1	109	08:40:17	3647401	1	3	3	3	1	3	1	3	1	4	2	0	0	0	0	4	4
121812	08:40:17	10021	Trial	ResponseCR	14	0	175	0	109	08:40:17	3648387	1	3	3	3	1	3	1	3	1	4	2	0	0	0	0	4	4
121812	08:40:17	10021	Trial	CongruentRight	14	0	1000	0	109	08:40:17	3649400	1	3	3	3	1	3	1	3	1	4	2	0	0	0	0	4	4
121812	08:40:17	10021	Trial	ResponseCR	14	0	175	0	109	08:40:17	3650106	1	3	3	3	1	3	1	3	1	4	2	0	0	0	0	4	4
121812	08:40:17	10021	Trial	CongruentRight	14	205	120	1	109	08:40:17	3650253	1	3	3	3	1	3	1	3	1	4	2	0	0	0	0	4	4
121812	08:40:17	10021	Trial	ResponseIR	14	0	175	0	109	08:40:17	3651812	1	3	3	3	1	3	1	3	1	4	2	0	0	0	0	4	4
121812	08:40:17	10021	Trial	IncongruentRight	14	205	542	1	109	08:40:17	3652372	1	3	3	3	1	3	1	3	1	4	2	0	0	0	0	4	4
121812	08:40:17	10021	Trial	ResponseCL	14	0	175	0	109	08:40:17	3653518	1	3	3	3	1	3	1	3	1	4	2	0	0	0	0	4	4
121812	08:40:17	10021	Trial	CongruentLeft	14	203	532	1	109	08:40:17	3654078	1	3	3	3	1	3	1	3	1	4	2	0	0	0	0	4	4
121812	08:40:17	10021	Trial	ResponseIL	14	0	175	0	109	08:40:17	3655224	1	3	3	3	1	3	1	3	1	4	2	0	0	0	0	4	4
121812	08:40:17	10021	Trial	IncongruentLeft	14	203	506	1	109	08:40:17	3655757	1	3	3	3	1	3	1	3	1	4	2	0	0	0	0	4	4
121812	08:40:17	10021	Trial	ResponseCL	14	0	175	0	109	08:40:17	3656930	1	3	3	3	1	3	1	3	1	4	2	0	0	0	0	4	4
121812	08:40:17	10021	Trial	CongruentLeft	14	203	432	1	109	08:40:17	3657383	1	3	3	3	1	3	1	3	1	4	2	0	0	0	0	4	4
121812	08:40:17	10021	Trial	ResponseIR	14	0	175	0	109	08:40:17	3658636	1	3	3	3	1	3	1	3	1	4	2	0	0	0	0	4	4
121812	08:40:17	10021	Trial	IncongruentRight	14	205	246	1	109	08:40:17	3658903	1	3	3	3	1	3	1	3	1	4	2	0	0	0	0	4	4
121812	08:40:17	10021	Trial	ResponseIL	14	0	175	0	109	08:40:17	3660342	1	3	3	3	1	3	1	3	1	4	2	0	0	0	0	4	4
121812	08:40:17	10021	Trial	IncongruentLeft	14	205	476	0	109	08:40:17	3660835	1	3	3	3	1	3	1	3	1	4	2	0	0	0	0	4	4
121812	08:40:17	10021	Trial	ResponseCR	14	0	175	0	109	08:40:17	3662048	1	3	3	3	1	3	1	3	1	4	2	0	0	0	0	4	4
121812	08:40:17	10021	Trial	CongruentRight	14	205	770	1	109	08:40:17	3662835	1	3	3	3	1	3	1	3	1	4	2	0	0	0	0	4	4
121812	08:40:17	10021	Trial	ResponseCL	14	0	175	0	109	08:40:17	3663754	1	3	3	3	1	3	1	3	1	4	2	0	0	0	0	4	4
121812	08:40:17	10021	Trial	CongruentLeft	14	203	535	1	109	08:40:17	3664314	1	3	3	3	1	3	1	3	1	4	2	0	0	0	0	4	4
121812	08:40:17	10021	Trial	ResponseIL	14	0	175	0	109	08:40:17	3665460	1	3	3	3	1	3	1	3	1	4	2	0	0	0	0	4	4
121812	08:40:17	10021	Trial	IncongruentLeft	14	203	526	1	109	08:40:17	3666006	1	3	3	3	1	3	1	3	1	4	2	0	0	0	0	4	4
121812	08:40:17	10021	Trial	ResponseCL	14	0	175	0	109	08:40:17	3667166	1	3	3	3	1	3	1	3	1	4	2	0	0	0	0	4	4
121812	08:40:17	10021	Trial	CongruentLeft	14	203	484	1	109	08:40:17	3667672	1	3	3	3	1	3	1	3	1	4	2	0	0	0	0	4	4
121812	08:40:17	10021	Trial	ResponseIR	14	0	175	0	109	08:40:17	3668872	1	3	3	3	1	3	1	3	1	4	2	0	0	0	0	4	4
121812	08:40:17	10021	Trial	IncongruentRight	14	205	490	1	109	08:40:17	3669378	1	3	3	3	1	3	1	3	1	4	2	0	0	0	0	4	4
121812	08:40:17	10021	Trial	ResponseCR	14	0	175	0	109	08:40:17	3670578	1	3	3	3	1	3	1	3	1	4	2	0	0	0	0	4	4
121812	08:40:17	10021	Trial	CongruentRight	14	205	576	1	109	08:40:17	3671178	1	3	3	3	1	3	1	3	1	4	2	0	0	0	0	4	4
121812	08:40:17	10021	Trial	ResponseIL	14	0	175	0	109	08:40:17	3672284	1	3	3	3	1	3	1	3	1	4	2	0	0	0	0	4	4
121812	08:40:17	10021	Trial	IncongruentLeft	14	203	389	1	109	08:40:17	3672697	1	3	3	3	1	3	1	3	1	4	2	0	0	0	0	4	4
121812	08:40:17	10021	Trial	ResponseCL	14	0	175	0	109	08:40:17	3673990	1	3	3	3	1	3	1	3	1	4	2	0	0	0	0	4	4
121812	08:40:17	10021	Trial	CongruentLeft	14	203	476	1	109	08:40:17	3674483	1	3	3	3	1	3	1	3	1	4	2	0	0	0	0	4	4
121812	08:40:17	10021	Trial	ResponseIR	14	0	175	0	109	08:40:17	3675696	1	3	3	3	1	3	1	3	1	4	2	0	0	0	0	4	4
121812	08:40:17	10021	Trial	IncongruentRight	14	205	738	1	109	08:40:17	3676456	1	3	3	3	1	3	1	3	1	4	2	0	0	0	0	4	4
121812	08:40:17	10021	Trial	ResponseIL	14	0	175	0	109	08:40:17	3677402	1	3	3	3	1	3	1	3	1	4	2	0	0	0	0	4	4
121812	08:40:17	10021	Trial	IncongruentLeft	14	203	775	1	109	08:40:17	3678202	1	3	3	3	1	3	1	3	1	4	2	0	0	0	0	4	4
121812	08:40:17	10021	Trial	ResponseCL	14	0	175	0	109	08:40:17	3679108	1	3	3	3	1	3	1	3	1	4	2	0	0	0	0	4	4
121812	08:40:17	10021	Trial	CongruentLeft	14	203	909	1	109	08:40:17	3680041	1	3	3	3	1	3	1	3	1	4	2	0	0	0	0	4	4
121812	08:40:17	10021	Trial	ResponseIL	14	0	175	0	109	08:40:17	3680814	1	3	3	3	1	3	1	3	1	4	2	0	0	0	0	4	4
121812	08:40:17	10021	Trial	IncongruentLeft	14	203	691	1	109	08:40:17	3681534	1	3	3	3	1	3	1	3	1	4	2	0	0	0	0	4	4
121812	08:40:17	10021	Trial	ResponseCR	14	0	175	0	109	08:40:17	3682520	1	3	3	3	1	3	1	3	1	4	2	0	0	0	0	4	4
121812	08:40:17	10021	Trial	CongruentRight	14	205	538	1	109	08:40:17	3683080	1	3	3	3	1	3	1	3	1	4	2	0	0	0	0	4	4
121812	08:40:17	10021	Trial	ResponseCL	14	0	175	0	109	08:40:17	3684226	1	3	3	3	1	3	1	3	1	4	2	0	0	0	0	4	4
121812	08:40:17	10021	Trial	CongruentLeft	14	0	1000	0	109	08:40:17	3685239	1	3	3	3	1	3	1	3	1	4	2	0	0	0	0	4	4
121812	08:40:17	10021	Trial	ResponseIR	14	0	175	0	109	08:40:17	3685945	1	3	3	3	1	3	1	3	1	4	2	0	0	0	0	4	4
121812	08:40:17	10021	Trial	IncongruentRight	14	205	632	1	109	08:40:17	3686599	1	3	3	3	1	3	1	3	1	4	2	0	0	0	0	4	4
121812	08:40:17	10021	Trial	ResponseCL	14	0	175	0	109	08:40:17	3687651	1	3	3	3	1	3	1	3	1	4	2	0	0	0	0	4	4
121812	08:40:17	10021	Trial	CongruentLeft	14	203	654	1	109	08:40:17	3688331	1	3	3	3	1	3	1	3	1	4	2	0	0	0	0	4	4
121812	08:40:17	10021	Trial	ResponseCR	14	0	175	0	109	08:40:17	3689358	1	3	3	3	1	3	1	3	1	4	2	0	0	0	0	4	4
121812	08:40:17	10021	Trial	CongruentRight	14	205	615	1	109	08:40:17	3689997	1	3	3	3	1	3	1	3	1	4	2	0	0	0	0	4	4
121812	08:40:17	10021	Trial	ResponseIL	14	0	175	0	109	08:40:17	3691064	1	3	3	3	1	3	1	3	1	4	2	0	0	0	0	4	4
121812	08:40:17	10021	Trial	IncongruentLeft	14	203	618	1	109	08:40:17	3691703	1	3	3	3	1	3	1	3	1	4	2	0	0	0	0	4	4
121812	08:40:17	10021	WordsAbsFr6mo	PAbsFr6mo1	16	Abs1	4489	0	109	08:40:17	3703885	1	3	3	3	1	3	1	3	1	4	2	0	0	0	0	4	4
121812	08:40:17	10021	WordsAbsFr6mo	AbsFr6mo1	16	Abs1	2958	0	109	08:40:17	3706884	1	3	3	3	1	3	1	3	1	4	2	1	0	0	0	4	4
121812	08:40:17	10021	WordsAbsFr6mo	AbsFr6mo2	16	Abs2	50743	0	109	08:40:17	3757664	1	3	3	3	1	3	1	3	1	4	2	1	0	0	0	4	4
121812	08:40:17	10021	WordsAbsFr6mo	AbsFr6mo3	16	Abs2	6267	0	109	08:40:17	3763968	1	3	3	3	1	3	1	3	1	4	2	1	0	0	0	4	4
121812	08:40:17	10021	Trial2BackFrS	NS	17	0	1000	1	109	08:40:17	3834034	1	3	3	3	1	3	1	3	1	4	2	1	0	0	0	4	4
121812	08:40:17	10021	Trial2BackFrS	NS	17	0	1000	1	109	08:40:17	3835540	1	3	3	3	1	3	1	3	1	4	2	1	0	0	0	4	4
121812	08:40:17	10021	Trial2BackFrS	NS	17	0	1000	1	109	08:40:17	3837046	1	3	3	3	1	3	1	3	1	4	2	1	0	0	0	4	4
121812	08:40:17	10021	Trial2BackFrS	YS	17	0	1000	0	109	08:40:17	3838552	1	3	3	3	1	3	1	3	1	4	2	1	0	0	0	4	4
121812	08:40:17	10021	Trial2BackFrS	NS	17	0	1000	1	109	08:40:17	3840071	1	3	3	3	1	3	1	3	1	4	2	1	0	0	0	4	4
121812	08:40:17	10021	Trial2BackFrS	NS	17	0	1000	1	109	08:40:17	3841577	1	3	3	3	1	3	1	3	1	4	2	1	0	0	0	4	4
121812	08:40:17	10021	Trial2BackFrS	NS	17	0	1000	1	109	08:40:17	3843083	1	3	3	3	1	3	1	3	1	4	2	1	0	0	0	4	4
121812	08:40:17	10021	Trial2BackFrS	NS	17	57	776	0	109	08:40:17	3844376	1	3	3	3	1	3	1	3	1	4	2	1	0	0	0	4	4
121812	08:40:17	10021	Trial2BackFrS	YS	17	57	950	1	109	08:40:17	3846056	1	3	3	3	1	3	1	3	1	4	2	1	0	0	0	4	4
121812	08:40:17	10021	Trial2BackFrS	NS	17	0	1000	1	109	08:40:17	3847602	1	3	3	3	1	3	1	3	1	4	2	1	0	0	0	4	4
121812	08:40:17	10021	Trial2BackFrS	NS	17	0	1000	1	109	08:40:17	3849108	1	3	3	3	1	3	1	3	1	4	2	1	0	0	0	4	4
121812	08:40:17	10021	Trial2BackFrS	YS	17	0	1000	0	109	08:40:17	3850627	1	3	3	3	1	3	1	3	1	4	2	1	0	0	0	4	4
121812	08:40:17	10021	Trial2BackFrS	NS	17	0	1000	1	109	08:40:17	3852134	1	3	3	3	1	3	1	3	1	4	2	1	0	0	0	4	4
121812	08:40:17	10021	Trial2BackFrS	NS	17	0	1000	1	109	08:40:17	3853639	1	3	3	3	1	3	1	3	1	4	2	1	0	0	0	4	4
121812	08:40:17	10021	Trial2BackFrS	NS	17	0	1000	1	109	08:40:17	3855159	1	3	3	3	1	3	1	3	1	4	2	1	0	0	0	4	4
121812	08:40:17	10021	Trial2BackFrS	YS	17	57	845	1	109	08:40:17	3856518	1	3	3	3	1	3	1	3	1	4	2	1	0	0	0	4	4
121812	08:40:17	10021	Trial2BackFrS	NS	17	0	1000	1	109	08:40:17	3858171	1	3	3	3	1	3	1	3	1	4	2	1	0	0	0	4	4
121812	08:40:17	10021	Trial2BackFrS	NS	17	0	1000	1	109	08:40:17	3859677	1	3	3	3	1	3	1	3	1	4	2	1	0	0	0	4	4
121812	08:40:17	10021	Trial2BackFrS	NS	17	57	775	0	109	08:40:17	3860970	1	3	3	3	1	3	1	3	1	4	2	1	0	0	0	4	4
121812	08:40:17	10021	Trial2BackFrS	NS	17	0	1000	1	109	08:40:17	3862689	1	3	3	3	1	3	1	3	1	4	2	1	0	0	0	4	4
121812	08:40:17	10021	Trial2BackFrS	YS	17	57	978	1	109	08:40:17	3864182	1	3	3	3	1	3	1	3	1	4	2	1	0	0	0	4	4
121812	08:40:17	10021	Trial2BackFrS	NS	17	0	1000	1	109	08:40:17	3865701	1	3	3	3	1	3	1	3	1	4	2	1	0	0	0	4	4
121812	08:40:17	10021	Trial2BackFrS	NS	17	0	1000	1	109	08:40:17	3867207	1	3	3	3	1	3	1	3	1	4	2	1	0	0	0	4	4
121812	08:40:17	10021	Trial2BackFrS	NS	17	0	1000	1	109	08:40:17	3868713	1	3	3	3	1	3	1	3	1	4	2	1	0	0	0	4	4
121812	08:40:17	10021	Trial2BackFrS	NS	17	57	730	0	109	08:40:17	3869953	1	3	3	3	1	3	1	3	1	4	2	1	0	0	0	4	4
121812	08:40:17	10021	Trial2BackFrS	NS	17	0	1000	1	109	08:40:17	3871725	1	3	3	3	1	3	1	3	1	4	2	1	0	0	0	4	4
121812	08:40:17	10021	Trial2BackFrS	NS	17	0	1000	1	109	08:40:17	3873231	1	3	3	3	1	3	1	3	1	4	2	1	0	0	0	4	4
121812	08:40:17	10021	Trial2BackFrS	NS	17	0	1000	1	109	08:40:17	3874751	1	3	3	3	1	3	1	3	1	4	2	1	0	0	0	4	4
121812	08:40:17	10021	Trial2BackFrS	NS	17	0	1000	1	109	08:40:17	3876257	1	3	3	3	1	3	1	3	1	4	2	1	0	0	0	4	4
121812	08:40:17	10021	Trial2BackFrS	NS	17	0	1000	1	109	08:40:17	3877763	1	3	3	3	1	3	1	3	1	4	2	1	0	0	0	4	4
121812	08:40:17	10021	Trial2BackFrS	NS	17	57	688	0	109	08:40:17	3878962	1	3	3	3	1	3	1	3	1	4	2	1	0	0	0	4	4
121812	08:40:17	10021	Trial2BackFrS	YS	17	0	1000	0	109	08:40:17	3880775	1	3	3	3	1	3	1	3	1	4	2	1	0	0	0	4	4
121812	08:40:17	10021	Trial2BackFrS	NS	17	0	1000	1	109	08:40:17	3882281	1	3	3	3	1	3	1	3	1	4	2	1	0	0	0	4	4
121812	08:40:17	10021	Trial2BackFrS	NS	17	0	1000	1	109	08:40:17	3883787	1	3	3	3	1	3	1	3	1	4	2	1	0	0	0	4	4
121812	08:40:17	10021	Trial2BackFrS	NS	17	0	1000	1	109	08:40:17	3885293	1	3	3	3	1	3	1	3	1	4	2	1	0	0	0	4	4
121812	08:40:17	10021	Trial2BackFrS	YS	17	57	502	1	109	08:40:17	3886306	1	3	3	3	1	3	1	3	1	4	2	1	0	0	0	4	4
121812	08:40:17	10021	Trial2BackFrS	NS	17	0	1000	1	109	08:40:17	3888306	1	3	3	3	1	3	1	3	1	4	2	1	0	0	0	4	4
121812	08:40:17	10021	Trial2BackFrS	NS	17	0	1000	1	109	08:40:17	3889812	1	3	3	3	1	3	1	3	1	4	2	1	0	0	0	4	4
121812	08:40:17	10021	Trial2BackFrS	NS	17	0	1000	1	109	08:40:17	3891318	1	3	3	3	1	3	1	3	1	4	2	1	0	0	0	4	4
121812	08:40:17	10021	Trial2BackFrS	NS	17	57	877	0	109	08:40:17	3892704	1	3	3	3	1	3	1	3	1	4	2	1	0	0	0	4	4
121812	08:40:17	10021	Trial2BackFrS	NS	17	0	1000	1	109	08:40:17	3894330	1	3	3	3	1	3	1	3	1	4	2	1	0	0	0	4	4
121812	08:40:17	10021	Trial2BackFrS	NS	17	0	1000	1	109	08:40:17	3895836	1	3	3	3	1	3	1	3	1	4	2	1	0	0	0	4	4
121812	08:40:17	10021	Trial2BackFrS	NS	17	0	1000	1	109	08:40:17	3897342	1	3	3	3	1	3	1	3	1	4	2	1	0	0	0	4	4
121812	08:40:17	10021	Trial2BackFrS	YS	17	57	821	1	109	08:40:17	3898675	1	3	3	3	1	3	1	3	1	4	2	1	0	0	0	4	4
121812	08:40:17	10021	Trial2BackFrS	NS	17	0	1000	1	109	08:40:17	3900354	1	3	3	3	1	3	1	3	1	4	2	1	0	0	0	4	4
121812	08:40:17	10021	Trial2BackFrS	NS	17	0	1000	1	109	08:40:17	3901860	1	3	3	3	1	3	1	3	1	4	2	1	0	0	0	4	4
121812	08:40:17	10021	Trial2BackFrS	NS	17	0	1000	1	109	08:40:17	3903366	1	3	3	3	1	3	1	3	1	4	2	1	0	0	0	4	4
121812	08:40:17	10021	Trial2BackFrS	NS	17	0	1000	1	109	08:40:17	3904872	1	3	3	3	1	3	1	3	1	4	2	1	0	0	0	4	4
121812	08:40:17	10021	Trial2BackFrS	YS	17	57	555	1	109	08:40:17	3905939	1	3	3	3	1	3	1	3	1	4	2	1	0	0	0	4	4
121812	08:40:17	10021	Trial2BackFrS	NS	17	0	1000	1	109	08:40:17	3907884	1	3	3	3	1	3	1	3	1	4	2	1	0	0	0	4	4
121812	08:40:17	10021	Trial2BackFrS	NS	17	0	1000	1	109	08:40:17	3909391	1	3	3	3	1	3	1	3	1	4	2	1	0	0	0	4	4
121812	08:40:17	10021	Trial2BackFrS	NS	17	0	1000	1	109	08:40:17	3910897	1	3	3	3	1	3	1	3	1	4	2	1	0	0	0	4	4
121812	08:40:17	10021	Trial2BackFrS	NS	17	0	1000	1	109	08:40:17	3912403	1	3	3	3	1	3	1	3	1	4	2	1	0	0	0	4	4
121812	08:40:17	10021	Trial2BackFrS	NS	17	57	592	0	109	08:40:17	3913509	1	3	3	3	1	3	1	3	1	4	2	1	0	0	0	4	4
121812	08:40:17	10021	Trial2BackFrS	NS	17	0	1000	1	109	08:40:17	3915415	1	3	3	3	1	3	1	3	1	4	2	1	0	0	0	4	4
121812	08:40:17	10021	Trial2BackFrS	YS	17	0	1000	0	109	08:40:17	3916934	1	3	3	3	1	3	1	3	1	4	2	1	0	0	0	4	4
121812	08:40:17	10021	Trial2BackFrS	NS	17	0	1000	1	109	08:40:17	3918440	1	3	3	3	1	3	1	3	1	4	2	1	0	0	0	4	4
121812	08:40:17	10021	Trial2BackFrS	NS	17	0	1000	1	109	08:40:17	3919946	1	3	3	3	1	3	1	3	1	4	2	1	0	0	0	4	4
121812	08:40:17	10021	Trial2BackFrS	NS	17	0	1000	1	109	08:40:17	3921452	1	3	3	3	1	3	1	3	1	4	2	1	0	0	0	4	4
121812	08:40:17	10021	Trial2BackFrS	NS	17	57	886	0	109	08:40:17	3922852	1	3	3	3	1	3	1	3	1	4	2	1	0	0	0	4	4
121812	08:40:17	10021	Trial2BackFrS	NS	17	0	1000	1	109	08:40:17	3924465	1	3	3	3	1	3	1	3	1	4	2	1	0	0	0	4	4
121812	08:40:17	10021	Trial2BackFrS	NS	17	0	1000	1	109	08:40:17	3925971	1	3	3	3	1	3	1	3	1	4	2	1	0	0	0	4	4
121812	08:40:17	10021	Trial2BackFrS	NS	17	0	1000	1	109	08:40:17	3927477	1	3	3	3	1	3	1	3	1	4	2	1	0	0	0	4	4
121812	08:40:17	10021	Trial2BackFrS	YS	17	0	1000	0	109	08:40:17	3928983	1	3	3	3	1	3	1	3	1	4	2	1	0	0	0	4	4
121812	08:40:17	10021	Trial2BackFrS	NS	17	57	508	0	109	08:40:17	3930009	1	3	3	3	1	3	1	3	1	4	2	1	0	0	0	4	4
121812	08:40:17	10021	Trial2BackFrS	NS	17	0	1000	1	109	08:40:17	3931995	1	3	3	3	1	3	1	3	1	4	2	1	0	0	0	4	4
121812	08:40:17	10021	Trial2BackFrS	NS	17	0	1000	1	109	08:40:17	3933501	1	3	3	3	1	3	1	3	1	4	2	1	0	0	0	4	4
121812	08:40:17	10021	Trial2BackFrS	NS	17	0	1000	1	109	08:40:17	3935007	1	3	3	3	1	3	1	3	1	4	2	1	0	0	0	4	4
121812	08:40:17	10021	Trial2BackFrS	YS	17	57	643	1	109	08:40:17	3936167	1	3	3	3	1	3	1	3	1	4	2	1	0	0	0	4	4
121812	08:40:17	10021	Trial2BackFrS	NS	17	0	1000	1	109	08:40:17	3938019	1	3	3	3	1	3	1	3	1	4	2	1	0	0	0	4	4
121812	08:40:17	10021	Trial2BackFrS	NS	17	0	1000	1	109	08:40:17	3939539	1	3	3	3	1	3	1	3	1	4	2	1	0	0	0	4	4
121812	08:40:17	10021	Trial2BackFrS	YS	17	57	784	1	109	08:40:17	3940831	1	3	3	3	1	3	1	3	1	4	2	1	0	0	0	4	4
121812	08:40:17	10021	Trial2BackFrS	NS	17	0	1000	1	109	08:40:17	3942551	1	3	3	3	1	3	1	3	1	4	2	1	0	0	0	4	4
121812	08:40:17	10021	Trial2BackFrS	NS	17	0	1000	1	109	08:40:17	3944057	1	3	3	3	1	3	1	3	1	4	2	1	0	0	0	4	4
121812	08:40:17	10021	Trial2BackFrS	NS	17	0	1000	1	109	08:40:17	3945563	1	3	3	3	1	3	1	3	1	4	2	1	0	0	0	4	4
121812	08:40:17	10021	Trial2BackFrS	NS	17	0	1000	1	109	08:40:17	3947069	1	3	3	3	1	3	1	3	1	4	2	1	0	0	0	4	4
121812	08:40:17	10021	Trial2BackFrS	NS	17	57	598	0	109	08:40:17	3948175	1	3	3	3	1	3	1	3	1	4	2	1	0	0	0	4	4
121812	08:40:17	10021	Trial2BackFrS	NS	17	0	1000	1	109	08:40:17	3950081	1	3	3	3	1	3	1	3	1	4	2	1	0	0	0	4	4
121812	08:40:17	10021	Trial2BackFrS	YS	17	0	1000	0	109	08:40:17	3951587	1	3	3	3	1	3	1	3	1	4	2	1	0	0	0	4	4
121812	08:40:17	10021	Trial2BackFrS	NS	17	0	1000	1	109	08:40:17	3953093	1	3	3	3	1	3	1	3	1	4	2	1	0	0	0	4	4
121812	08:40:17	10021	Trial2BackFrS	NS	17	57	573	0	109	08:40:17	3954186	1	3	3	3	1	3	1	3	1	4	2	1	0	0	0	4	4
121812	08:40:17	10021	Trial2BackFrS	NS	17	0	1000	1	109	08:40:17	3956105	1	3	3	3	1	3	1	3	1	4	2	1	0	0	0	4	4
121812	08:40:17	10021	Trial2BackFrS	NS	17	0	1000	1	109	08:40:17	3957611	1	3	3	3	1	3	1	3	1	4	2	1	0	0	0	4	4
121812	08:40:17	10021	Trial2BackFrS	YS	17	57	919	1	109	08:40:17	3959051	1	3	3	3	1	3	1	3	1	4	2	1	0	0	0	4	4
121812	08:40:17	10021	Trial2BackFrS	NS	17	0	1000	1	109	08:40:17	3960624	1	3	3	3	1	3	1	3	1	4	2	1	0	0	0	4	4
121812	08:40:17	10021	Trial2BackFrS	NS	17	0	1000	1	109	08:40:17	3962130	1	3	3	3	1	3	1	3	1	4	2	1	0	0	0	4	4
121812	08:40:17	10021	Trial2BackFrS	NS	17	0	1000	1	109	08:40:17	3963636	1	3	3	3	1	3	1	3	1	4	2	1	0	0	0	4	4
121812	08:40:17	10021	Trial2BackFrS	NS	17	57	814	0	109	08:40:17	3964969	1	3	3	3	1	3	1	3	1	4	2	1	0	0	0	4	4
121812	08:40:17	10021	Trial2BackFrS	YS	17	0	1000	0	109	08:40:17	3966648	1	3	3	3	1	3	1	3	1	4	2	1	0	0	0	4	4
121812	08:40:17	10021	Trial2BackFrS	NS	17	0	1000	1	109	08:40:17	3968154	1	3	3	3	1	3	1	3	1	4	2	1	0	0	0	4	4
121812	08:40:17	10021	Trial2BackFrS	NS	17	0	1000	1	109	08:40:17	3969660	1	3	3	3	1	3	1	3	1	4	2	1	0	0	0	4	4
121812	08:40:17	10021	Trial2BackFrS	YS	17	57	806	1	109	08:40:17	3970980	1	3	3	3	1	3	1	3	1	4	2	1	0	0	0	4	4
121812	08:40:17	10021	Trial2BackFrS	NS	17	0	1000	1	109	08:40:17	3972672	1	3	3	3	1	3	1	3	1	4	2	1	0	0	0	4	4
121812	08:40:17	10021	Trial2BackFrS	NS	17	0	1000	1	109	08:40:17	3974192	1	3	3	3	1	3	1	3	1	4	2	1	0	0	0	4	4
121812	08:40:17	10021	Trial2BackFrS	NS	17	0	1000	1	109	08:40:17	3975698	1	3	3	3	1	3	1	3	1	4	2	1	0	0	0	4	4
121812	08:40:17	10021	Trial2BackFrS	NS	17	0	1000	1	109	08:40:17	3977204	1	3	3	3	1	3	1	3	1	4	2	1	0	0	0	4	4
121812	08:40:17	10021	Trial2BackFrS	NS	17	57	526	0	109	08:40:17	3978243	1	3	3	3	1	3	1	3	1	4	2	1	0	0	0	4	4
121812	08:40:17	10021	Trial2BackFrS	NS	17	0	1000	1	109	08:40:17	3980216	1	3	3	3	1	3	1	3	1	4	2	1	0	0	0	4	4
121812	08:40:17	10021	Trial2BackFrS	NS	17	0	1000	1	109	08:40:17	3981722	1	3	3	3	1	3	1	3	1	4	2	1	0	0	0	4	4
121812	08:40:17	10021	Trial2BackFrS	NS	17	0	1000	1	109	08:40:17	3983228	1	3	3	3	1	3	1	3	1	4	2	1	0	0	0	4	4
121812	08:40:17	10021	Trial2BackFrS	YS	17	0	1000	0	109	08:40:17	3984734	1	3	3	3	1	3	1	3	1	4	2	1	0	0	0	4	4
121812	08:40:17	10021	Trial2BackFrS	NS	17	0	1000	1	109	08:40:17	3986240	1	3	3	3	1	3	1	3	1	4	2	1	0	0	0	4	4
121812	08:40:17	10021	Trial2BackFrS	NS	17	0	1000	1	109	08:40:17	3987746	1	3	3	3	1	3	1	3	1	4	2	1	0	0	0	4	4
121812	08:40:17	10021	Trial2BackFrS	NS	17	0	1000	1	109	08:40:17	3989252	1	3	3	3	1	3	1	3	1	4	2	1	0	0	0	4	4
121812	08:40:17	10021	Trial2BackFrS	NS	17	0	1000	1	109	08:40:17	3990758	1	3	3	3	1	3	1	3	1	4	2	1	0	0	0	4	4
121812	08:40:17	10021	Trial2BackFrS	NS	17	0	1000	1	109	08:40:17	3992264	1	3	3	3	1	3	1	3	1	4	2	1	0	0	0	4	4
121812	08:40:17	10021	Trial2BackFrS	NS	17	0	1000	1	109	08:40:17	3993771	1	3	3	3	1	3	1	3	1	4	2	1	0	0	0	4	4
121812	08:40:17	10021	Trial2BackFrS	NS	17	0	1000	1	109	08:40:17	3995277	1	3	3	3	1	3	1	3	1	4	2	1	0	0	0	4	4
121812	08:40:17	10021	Trial2BackFrS	YS	17	57	789	1	109	08:40:17	3996583	1	3	3	3	1	3	1	3	1	4	2	1	0	0	0	4	4
121812	08:40:17	10021	Trial2BackFrS	NS	17	0	1000	1	109	08:40:17	3998289	1	3	3	3	1	3	1	3	1	4	2	1	0	0	0	4	4
121812	08:40:17	10021	Trial2BackFrS	NS	17	0	1000	1	109	08:40:17	3999795	1	3	3	3	1	3	1	3	1	4	2	1	0	0	0	4	4
121812	08:40:17	10021	Trial2BackFrS	NS	17	0	1000	1	109	08:40:17	4001301	1	3	3	3	1	3	1	3	1	4	2	1	0	0	0	4	4
121812	08:40:17	10021	Trial2BackFrS	NS	17	0	1000	1	109	08:40:17	4002807	1	3	3	3	1	3	1	3	1	4	2	1	0	0	0	4	4
121812	08:40:17	10021	Trial2BackFrS	NS	17	0	1000	1	109	08:40:17	4004313	1	3	3	3	1	3	1	3	1	4	2	1	0	0	0	4	4
121812	08:40:17	10021	Trial2BackFrS	NS	17	57	504	0	109	08:40:17	4005326	1	3	3	3	1	3	1	3	1	4	2	1	0	0	0	4	4
121812	08:40:17	10021	Trial2BackFrS	NS	17	0	1000	1	109	08:40:17	4007325	1	3	3	3	1	3	1	3	1	4	2	1	0	0	0	4	4
121812	08:40:17	10021	Trial2BackFrS	NS	17	0	1000	1	109	08:40:17	4008831	1	3	3	3	1	3	1	3	1	4	2	1	0	0	0	4	4
121812	08:40:17	10021	Trial2BackFrS	NS	17	0	1000	1	109	08:40:17	4010337	1	3	3	3	1	3	1	3	1	4	2	1	0	0	0	4	4
121812	08:40:17	10021	Trial2BackFrS	YS	17	0	1000	0	109	08:40:17	4011843	1	3	3	3	1	3	1	3	1	4	2	1	0	0	0	4	4
121812	08:40:17	10021	Trial2BackFrS	NS	17	57	542	0	109	08:40:17	4012896	1	3	3	3	1	3	1	3	1	4	2	1	0	0	0	4	4
121812	08:40:17	10021	ClockFr6mo	ClockFr6mo	19	Clock1	77639	0	109	08:40:17	4091106	1	3	3	3	1	3	1	3	1	4	2	1	1	0	0	4	4
121812	08:40:17	10021	ClockFr6mo	ClockFr6mo	19	Clock111	1511	0	109	08:40:17	4092665	1	3	3	3	1	3	1	3	1	4	2	1	1	0	1	4	4
121812	08:40:17	10021	ClockFr6mo	ClockFr6mo	19	Clock11	2263	0	109	08:40:17	4094984	1	3	3	3	1	3	1	3	1	4	2	1	1	1	1	4	4
121812	08:40:17	10021	ClockFr6mo	ClockFr6mo	19	Clockdone	10456	0	109	08:40:17	4105487	1	3	3	3	1	3	1	3	1	4	2	1	1	1	1	4	4
121812	08:40:17	10021	FASFrVF6mo	StopFrVF6mo	20	7	3294	0	109	08:40:17	4219456	1	3	3	3	1	3	1	3	1	4	2	1	1	1	1	4	4
