date	time	subject	blockcode	trialcode	values.TaskNumber	response	latency	correct	values.Score	script.starttime	script.elapsedtime	values.ScoreS7	values.Word1	values.Word2	values.Word3	values.Word4	values.Word5	values.Word6	values.Word7	values.Word8	values.DigitSpanFwrd	values.DigitSpanBack	values.ScoreAbs	values.Contour	values.Numbers	values.Hands	values.corsiblockspanFwrd	values.corsiblockspanRev
102612	10:16:07	10003	Language	Language	0	French	3762	0	0	10:16:07	3895	0	0	0	0	0	0	0	0	0	0	0	0	0	0	0	0	0
102612	10:16:07	10003	Session	Session	0	6mo	775	0	0	10:16:07	4735	0	0	0	0	0	0	0	0	0	0	0	0	0	0	0	0	0
102612	10:16:07	10003	HandFr	HandFr	0	RightFr	772211	0	0	10:16:07	777008	0	0	0	0	0	0	0	0	0	0	0	0	0	0	0	0	0
102612	10:16:07	10003	AudioCheckFr	WordsFr	0	0	0	0	0	10:16:07	792925	0	0	0	0	0	0	0	0	0	0	0	0	0	0	0	0	0
102612	10:16:07	10003	CubeFr	CubeFr	1	1Cube	50188	0	0	10:16:07	857962	0	0	0	0	0	0	0	0	0	0	0	0	0	0	0	0	0
102612	10:16:07	10003	pm.simpleFrRight	blank.simpleFr	2	0	2500	1	0	10:16:07	892348	0	0	0	0	0	0	0	0	0	0	0	0	0	0	0	0	0
102612	10:16:07	10003	pm.simpleFrRight	pm.simpleFr	2	57	514	0	0	10:16:07	892881	0	0	0	0	0	0	0	0	0	0	0	0	0	0	0	0	0
102612	10:16:07	10003	pm.simpleFrRight	blank.simpleFr	2	0	1700	1	0	10:16:07	894600	0	0	0	0	0	0	0	0	0	0	0	0	0	0	0	0	0
102612	10:16:07	10003	pm.simpleFrRight	pm.simpleFr	2	57	374	0	0	10:16:07	895000	0	0	0	0	0	0	0	0	0	0	0	0	0	0	0	0	0
102612	10:16:07	10003	pm.simpleFrRight	blank.simpleFr	2	0	1800	1	0	10:16:07	896813	0	0	0	0	0	0	0	0	0	0	0	0	0	0	0	0	0
102612	10:16:07	10003	pm.simpleFrRight	pm.simpleFr	2	57	274	0	0	10:16:07	897106	0	0	0	0	0	0	0	0	0	0	0	0	0	0	0	0	0
102612	10:16:07	10003	pm.simpleFrRight	blank.simpleFr	2	0	2000	1	0	10:16:07	899118	0	0	0	0	0	0	0	0	0	0	0	0	0	0	0	0	0
102612	10:16:07	10003	pm.simpleFrRight	pm.simpleFr	2	57	256	0	0	10:16:07	899398	0	0	0	0	0	0	0	0	0	0	0	0	0	0	0	0	0
102612	10:16:07	10003	pm.simpleFrRight	blank.simpleFr	2	0	2300	1	0	10:16:07	901717	0	0	0	0	0	0	0	0	0	0	0	0	0	0	0	0	0
102612	10:16:07	10003	pm.simpleFrRight	pm.simpleFr	2	57	265	0	0	10:16:07	902011	0	0	0	0	0	0	0	0	0	0	0	0	0	0	0	0	0
102612	10:16:07	10003	pm.simpleFrRight	blank.simpleFr	2	0	1900	1	0	10:16:07	903930	0	0	0	0	0	0	0	0	0	0	0	0	0	0	0	0	0
102612	10:16:07	10003	pm.simpleFrRight	pm.simpleFr	2	57	308	0	0	10:16:07	904263	0	0	0	0	0	0	0	0	0	0	0	0	0	0	0	0	0
102612	10:16:07	10003	pm.simpleFrRight	blank.simpleFr	2	0	2200	1	0	10:16:07	906476	0	0	0	0	0	0	0	0	0	0	0	0	0	0	0	0	0
102612	10:16:07	10003	pm.simpleFrRight	pm.simpleFr	2	57	291	0	0	10:16:07	906795	0	0	0	0	0	0	0	0	0	0	0	0	0	0	0	0	0
102612	10:16:07	10003	pm.simpleFrRight	blank.simpleFr	2	0	2100	1	0	10:16:07	908915	0	0	0	0	0	0	0	0	0	0	0	0	0	0	0	0	0
102612	10:16:07	10003	pm.simpleFrRight	pm.simpleFr	2	57	300	0	0	10:16:07	909234	0	0	0	0	0	0	0	0	0	0	0	0	0	0	0	0	0
102612	10:16:07	10003	pm.simpleFrRight	blank.simpleFr	2	0	2400	1	0	10:16:07	911647	0	0	0	0	0	0	0	0	0	0	0	0	0	0	0	0	0
102612	10:16:07	10003	pm.simpleFrRight	pm.simpleFr	2	57	287	0	0	10:16:07	911953	0	0	0	0	0	0	0	0	0	0	0	0	0	0	0	0	0
102612	10:16:07	10003	pm.simpleFrRight	blank.simpleFr	2	0	1600	1	0	10:16:07	913566	0	0	0	0	0	0	0	0	0	0	0	0	0	0	0	0	0
102612	10:16:07	10003	pm.simpleFrRight	pm.simpleFr	2	57	337	0	0	10:16:07	913926	0	0	0	0	0	0	0	0	0	0	0	0	0	0	0	0	0
102612	10:16:07	10003	pm.simpleFrRight	blank.simpleFr	2	0	1500	1	0	10:16:07	915445	0	0	0	0	0	0	0	0	0	0	0	0	0	0	0	0	0
102612	10:16:07	10003	pm.simpleFrRight	pm.simpleFr	2	57	281	0	0	10:16:07	915752	0	0	0	0	0	0	0	0	0	0	0	0	0	0	0	0	0
102612	10:16:07	10003	pm.simpleFrRight	blank.simpleFr	2	0	1800	1	0	10:16:07	917564	0	0	0	0	0	0	0	0	0	0	0	0	0	0	0	0	0
102612	10:16:07	10003	pm.simpleFrRight	pm.simpleFr	2	57	258	0	0	10:16:07	917844	0	0	0	0	0	0	0	0	0	0	0	0	0	0	0	0	0
102612	10:16:07	10003	pm.simpleFrRight	blank.simpleFr	2	0	1500	1	0	10:16:07	919364	0	0	0	0	0	0	0	0	0	0	0	0	0	0	0	0	0
102612	10:16:07	10003	pm.simpleFrRight	pm.simpleFr	2	57	251	0	0	10:16:07	919644	0	0	0	0	0	0	0	0	0	0	0	0	0	0	0	0	0
102612	10:16:07	10003	pm.simpleFrRight	blank.simpleFr	2	0	2200	1	0	10:16:07	921856	0	0	0	0	0	0	0	0	0	0	0	0	0	0	0	0	0
102612	10:16:07	10003	pm.simpleFrRight	pm.simpleFr	2	57	238	0	0	10:16:07	922123	0	0	0	0	0	0	0	0	0	0	0	0	0	0	0	0	0
102612	10:16:07	10003	pm.simpleFrRight	blank.simpleFr	2	0	1600	1	0	10:16:07	923735	0	0	0	0	0	0	0	0	0	0	0	0	0	0	0	0	0
102612	10:16:07	10003	pm.simpleFrRight	pm.simpleFr	2	57	247	0	0	10:16:07	924002	0	0	0	0	0	0	0	0	0	0	0	0	0	0	0	0	0
102612	10:16:07	10003	pm.simpleFrRight	blank.simpleFr	2	0	2300	1	0	10:16:07	926321	0	0	0	0	0	0	0	0	0	0	0	0	0	0	0	0	0
102612	10:16:07	10003	pm.simpleFrRight	pm.simpleFr	2	57	414	0	0	10:16:07	926761	0	0	0	0	0	0	0	0	0	0	0	0	0	0	0	0	0
102612	10:16:07	10003	pm.simpleFrRight	blank.simpleFr	2	0	2500	1	0	10:16:07	929280	0	0	0	0	0	0	0	0	0	0	0	0	0	0	0	0	0
102612	10:16:07	10003	pm.simpleFrRight	pm.simpleFr	2	57	334	0	0	10:16:07	929640	0	0	0	0	0	0	0	0	0	0	0	0	0	0	0	0	0
102612	10:16:07	10003	pm.simpleFrRight	blank.simpleFr	2	0	2100	1	0	10:16:07	931759	0	0	0	0	0	0	0	0	0	0	0	0	0	0	0	0	0
102612	10:16:07	10003	pm.simpleFrRight	pm.simpleFr	2	57	351	0	0	10:16:07	932132	0	0	0	0	0	0	0	0	0	0	0	0	0	0	0	0	0
102612	10:16:07	10003	pm.simpleFrRight	blank.simpleFr	2	0	1900	1	0	10:16:07	934051	0	0	0	0	0	0	0	0	0	0	0	0	0	0	0	0	0
102612	10:16:07	10003	pm.simpleFrRight	pm.simpleFr	2	57	283	0	0	10:16:07	934358	0	0	0	0	0	0	0	0	0	0	0	0	0	0	0	0	0
102612	10:16:07	10003	pm.simpleFrRight	blank.simpleFr	2	0	1700	1	0	10:16:07	936077	0	0	0	0	0	0	0	0	0	0	0	0	0	0	0	0	0
102612	10:16:07	10003	pm.simpleFrRight	pm.simpleFr	2	57	385	0	0	10:16:07	936490	0	0	0	0	0	0	0	0	0	0	0	0	0	0	0	0	0
102612	10:16:07	10003	pm.simpleFrRight	blank.simpleFr	2	0	2000	1	0	10:16:07	938503	0	0	0	0	0	0	0	0	0	0	0	0	0	0	0	0	0
102612	10:16:07	10003	pm.simpleFrRight	pm.simpleFr	2	57	295	0	0	10:16:07	938822	0	0	0	0	0	0	0	0	0	0	0	0	0	0	0	0	0
102612	10:16:07	10003	pm.simpleFrRight	blank.simpleFr	2	0	2400	1	0	10:16:07	941235	0	0	0	0	0	0	0	0	0	0	0	0	0	0	0	0	0
102612	10:16:07	10003	pm.simpleFrRight	pm.simpleFr	2	57	363	0	0	10:16:07	941621	0	0	0	0	0	0	0	0	0	0	0	0	0	0	0	0	0
102612	10:16:07	10003	pm.simpleFrRight	blank.simpleFr	2	0	2400	1	0	10:16:07	944034	0	0	0	0	0	0	0	0	0	0	0	0	0	0	0	0	0
102612	10:16:07	10003	pm.simpleFrRight	pm.simpleFr	2	57	364	0	0	10:16:07	944420	0	0	0	0	0	0	0	0	0	0	0	0	0	0	0	0	0
102612	10:16:07	10003	pm.simpleFrRight	blank.simpleFr	2	0	1800	1	0	10:16:07	946233	0	0	0	0	0	0	0	0	0	0	0	0	0	0	0	0	0
102612	10:16:07	10003	pm.simpleFrRight	pm.simpleFr	2	57	373	0	0	10:16:07	946633	0	0	0	0	0	0	0	0	0	0	0	0	0	0	0	0	0
102612	10:16:07	10003	pm.simpleFrRight	blank.simpleFr	2	0	1600	1	0	10:16:07	948245	0	0	0	0	0	0	0	0	0	0	0	0	0	0	0	0	0
102612	10:16:07	10003	pm.simpleFrRight	pm.simpleFr	2	57	376	0	0	10:16:07	948645	0	0	0	0	0	0	0	0	0	0	0	0	0	0	0	0	0
102612	10:16:07	10003	pm.simpleFrRight	blank.simpleFr	2	0	2100	1	0	10:16:07	950764	0	0	0	0	0	0	0	0	0	0	0	0	0	0	0	0	0
102612	10:16:07	10003	pm.simpleFrRight	pm.simpleFr	2	57	529	0	0	10:16:07	951311	0	0	0	0	0	0	0	0	0	0	0	0	0	0	0	0	0
102612	10:16:07	10003	pm.simpleFrRight	blank.simpleFr	2	0	1500	1	0	10:16:07	952830	0	0	0	0	0	0	0	0	0	0	0	0	0	0	0	0	0
102612	10:16:07	10003	pm.simpleFrRight	pm.simpleFr	2	57	431	0	0	10:16:07	953283	0	0	0	0	0	0	0	0	0	0	0	0	0	0	0	0	0
102612	10:16:07	10003	pm.simpleFrRight	blank.simpleFr	2	0	1700	1	0	10:16:07	955003	0	0	0	0	0	0	0	0	0	0	0	0	0	0	0	0	0
102612	10:16:07	10003	pm.simpleFrRight	pm.simpleFr	2	57	307	0	0	10:16:07	955336	0	0	0	0	0	0	0	0	0	0	0	0	0	0	0	0	0
102612	10:16:07	10003	pm.simpleFrRight	blank.simpleFr	2	0	2500	1	0	10:16:07	957855	0	0	0	0	0	0	0	0	0	0	0	0	0	0	0	0	0
102612	10:16:07	10003	pm.simpleFrRight	pm.simpleFr	2	57	334	0	0	10:16:07	958215	0	0	0	0	0	0	0	0	0	0	0	0	0	0	0	0	0
102612	10:16:07	10003	pm.simpleFrRight	blank.simpleFr	2	0	2300	1	0	10:16:07	960533	0	0	0	0	0	0	0	0	0	0	0	0	0	0	0	0	0
102612	10:16:07	10003	pm.simpleFrRight	pm.simpleFr	2	57	392	0	0	10:16:07	960947	0	0	0	0	0	0	0	0	0	0	0	0	0	0	0	0	0
102612	10:16:07	10003	pm.simpleFrRight	blank.simpleFr	2	0	2000	1	0	10:16:07	962960	0	0	0	0	0	0	0	0	0	0	0	0	0	0	0	0	0
102612	10:16:07	10003	pm.simpleFrRight	pm.simpleFr	2	57	398	0	0	10:16:07	963386	0	0	0	0	0	0	0	0	0	0	0	0	0	0	0	0	0
102612	10:16:07	10003	pm.simpleFrRight	blank.simpleFr	2	0	1900	1	0	10:16:07	965305	0	0	0	0	0	0	0	0	0	0	0	0	0	0	0	0	0
102612	10:16:07	10003	pm.simpleFrRight	pm.simpleFr	2	57	324	0	0	10:16:07	965651	0	0	0	0	0	0	0	0	0	0	0	0	0	0	0	0	0
102612	10:16:07	10003	pm.simpleFrRight	blank.simpleFr	2	0	2200	1	0	10:16:07	967864	0	0	0	0	0	0	0	0	0	0	0	0	0	0	0	0	0
102612	10:16:07	10003	pm.simpleFrRight	pm.simpleFr	2	57	293	0	0	10:16:07	968184	0	0	0	0	0	0	0	0	0	0	0	0	0	0	0	0	0
102612	10:16:07	10003	pm.simpleFrRight	blank.simpleFr	2	0	1900	1	0	10:16:07	970103	0	0	0	0	0	0	0	0	0	0	0	0	0	0	0	0	0
102612	10:16:07	10003	pm.simpleFrRight	pm.simpleFr	2	57	294	0	0	10:16:07	970423	0	0	0	0	0	0	0	0	0	0	0	0	0	0	0	0	0
102612	10:16:07	10003	pm.simpleFrRight	blank.simpleFr	2	0	1700	1	0	10:16:07	972142	0	0	0	0	0	0	0	0	0	0	0	0	0	0	0	0	0
102612	10:16:07	10003	pm.simpleFrRight	pm.simpleFr	2	57	303	0	0	10:16:07	972462	0	0	0	0	0	0	0	0	0	0	0	0	0	0	0	0	0
102612	10:16:07	10003	pm.simpleFrRight	blank.simpleFr	2	0	1500	1	0	10:16:07	973982	0	0	0	0	0	0	0	0	0	0	0	0	0	0	0	0	0
102612	10:16:07	10003	pm.simpleFrRight	pm.simpleFr	2	57	400	0	0	10:16:07	974408	0	0	0	0	0	0	0	0	0	0	0	0	0	0	0	0	0
102612	10:16:07	10003	pm.simpleFrRight	blank.simpleFr	2	0	2000	1	0	10:16:07	976434	0	0	0	0	0	0	0	0	0	0	0	0	0	0	0	0	0
102612	10:16:07	10003	pm.simpleFrRight	pm.simpleFr	2	57	363	0	0	10:16:07	976820	0	0	0	0	0	0	0	0	0	0	0	0	0	0	0	0	0
102612	10:16:07	10003	pm.simpleFrRight	blank.simpleFr	2	0	2100	1	0	10:16:07	978940	0	0	0	0	0	0	0	0	0	0	0	0	0	0	0	0	0
102612	10:16:07	10003	pm.simpleFrRight	pm.simpleFr	2	57	306	0	0	10:16:07	979273	0	0	0	0	0	0	0	0	0	0	0	0	0	0	0	0	0
102612	10:16:07	10003	pm.simpleFrRight	blank.simpleFr	2	0	2500	1	0	10:16:07	981792	0	0	0	0	0	0	0	0	0	0	0	0	0	0	0	0	0
102612	10:16:07	10003	pm.simpleFrRight	pm.simpleFr	2	57	317	0	0	10:16:07	982138	0	0	0	0	0	0	0	0	0	0	0	0	0	0	0	0	0
102612	10:16:07	10003	pm.simpleFrRight	blank.simpleFr	2	0	1600	1	0	10:16:07	983751	0	0	0	0	0	0	0	0	0	0	0	0	0	0	0	0	0
102612	10:16:07	10003	pm.simpleFrRight	pm.simpleFr	2	57	310	0	0	10:16:07	984084	0	0	0	0	0	0	0	0	0	0	0	0	0	0	0	0	0
102612	10:16:07	10003	Trial2BackFr	N	3	0	1000	1	1	10:16:07	1037609	0	0	0	0	0	0	0	0	0	0	0	0	0	0	0	0	0
102612	10:16:07	10003	Trial2BackFr	N	3	0	1000	1	2	10:16:07	1039115	0	0	0	0	0	0	0	0	0	0	0	0	0	0	0	0	0
102612	10:16:07	10003	Trial2BackFr	N	3	0	1000	1	3	10:16:07	1040621	0	0	0	0	0	0	0	0	0	0	0	0	0	0	0	0	0
102612	10:16:07	10003	Trial2BackFr	N	3	0	1000	1	4	10:16:07	1042127	0	0	0	0	0	0	0	0	0	0	0	0	0	0	0	0	0
102612	10:16:07	10003	Trial2BackFr	N	3	0	1000	1	5	10:16:07	1043633	0	0	0	0	0	0	0	0	0	0	0	0	0	0	0	0	0
102612	10:16:07	10003	Trial2BackFr	N	3	0	1000	1	6	10:16:07	1045139	0	0	0	0	0	0	0	0	0	0	0	0	0	0	0	0	0
102612	10:16:07	10003	Trial2BackFr	N	3	0	1000	1	7	10:16:07	1046646	0	0	0	0	0	0	0	0	0	0	0	0	0	0	0	0	0
102612	10:16:07	10003	Trial2BackFr	N	3	0	1000	1	8	10:16:07	1048151	0	0	0	0	0	0	0	0	0	0	0	0	0	0	0	0	0
102612	10:16:07	10003	Trial2BackFr	Y	3	57	728	1	9	10:16:07	1049391	0	0	0	0	0	0	0	0	0	0	0	0	0	0	0	0	0
102612	10:16:07	10003	Trial2BackFr	N	3	0	1000	1	10	10:16:07	1051164	0	0	0	0	0	0	0	0	0	0	0	0	0	0	0	0	0
102612	10:16:07	10003	Trial2BackFr	N	3	0	1000	1	11	10:16:07	1052670	0	0	0	0	0	0	0	0	0	0	0	0	0	0	0	0	0
102612	10:16:07	10003	Trial2BackFr	N	3	0	1000	1	12	10:16:07	1054176	0	0	0	0	0	0	0	0	0	0	0	0	0	0	0	0	0
102612	10:16:07	10003	Trial2BackFr	Y	3	57	480	1	13	10:16:07	1055175	0	0	0	0	0	0	0	0	0	0	0	0	0	0	0	0	0
102612	10:16:07	10003	Trial2BackFr	N	3	0	1000	1	14	10:16:07	1057188	0	0	0	0	0	0	0	0	0	0	0	0	0	0	0	0	0
102612	10:16:07	10003	Trial2BackFr	N	3	0	1000	1	15	10:16:07	1058694	0	0	0	0	0	0	0	0	0	0	0	0	0	0	0	0	0
102612	10:16:07	10003	Trial2BackFr	N	3	0	1000	1	16	10:16:07	1060200	0	0	0	0	0	0	0	0	0	0	0	0	0	0	0	0	0
102612	10:16:07	10003	Trial2BackFr	N	3	0	1000	1	17	10:16:07	1061706	0	0	0	0	0	0	0	0	0	0	0	0	0	0	0	0	0
102612	10:16:07	10003	Trial2BackFr	N	3	0	1000	1	18	10:16:07	1063212	0	0	0	0	0	0	0	0	0	0	0	0	0	0	0	0	0
102612	10:16:07	10003	Trial2BackFr	Y	3	57	611	1	19	10:16:07	1064332	0	0	0	0	0	0	0	0	0	0	0	0	0	0	0	0	0
102612	10:16:07	10003	Trial2BackFr	N	3	0	1000	1	20	10:16:07	1066224	0	0	0	0	0	0	0	0	0	0	0	0	0	0	0	0	0
102612	10:16:07	10003	Trial2BackFr	N	3	0	1000	1	21	10:16:07	1067730	0	0	0	0	0	0	0	0	0	0	0	0	0	0	0	0	0
102612	10:16:07	10003	Trial2BackFr	N	3	0	1000	1	22	10:16:07	1069236	0	0	0	0	0	0	0	0	0	0	0	0	0	0	0	0	0
102612	10:16:07	10003	Trial2BackFr	N	3	0	1000	1	23	10:16:07	1070742	0	0	0	0	0	0	0	0	0	0	0	0	0	0	0	0	0
102612	10:16:07	10003	Trial2BackFr	Y	3	57	457	1	24	10:16:07	1071715	0	0	0	0	0	0	0	0	0	0	0	0	0	0	0	0	0
102612	10:16:07	10003	Trial2BackFr	N	3	0	1000	1	25	10:16:07	1073754	0	0	0	0	0	0	0	0	0	0	0	0	0	0	0	0	0
102612	10:16:07	10003	Trial2BackFr	N	3	0	1000	1	26	10:16:07	1075261	0	0	0	0	0	0	0	0	0	0	0	0	0	0	0	0	0
102612	10:16:07	10003	Trial2BackFr	N	3	0	1000	1	27	10:16:07	1076767	0	0	0	0	0	0	0	0	0	0	0	0	0	0	0	0	0
102612	10:16:07	10003	Trial2BackFr	N	3	0	1000	1	28	10:16:07	1078286	0	0	0	0	0	0	0	0	0	0	0	0	0	0	0	0	0
102612	10:16:07	10003	Trial2BackFr	N	3	0	1000	1	29	10:16:07	1079792	0	0	0	0	0	0	0	0	0	0	0	0	0	0	0	0	0
102612	10:16:07	10003	Trial2BackFr	N	3	0	1000	1	30	10:16:07	1081298	0	0	0	0	0	0	0	0	0	0	0	0	0	0	0	0	0
102612	10:16:07	10003	Trial2BackFr	Y	3	57	541	1	31	10:16:07	1082351	0	0	0	0	0	0	0	0	0	0	0	0	0	0	0	0	0
102612	10:16:07	10003	Trial2BackFr	N	3	0	1000	1	32	10:16:07	1084310	0	0	0	0	0	0	0	0	0	0	0	0	0	0	0	0	0
102612	10:16:07	10003	Trial2BackFr	N	3	0	1000	1	33	10:16:07	1085816	0	0	0	0	0	0	0	0	0	0	0	0	0	0	0	0	0
102612	10:16:07	10003	Trial2BackFr	N	3	0	1000	1	34	10:16:07	1087322	0	0	0	0	0	0	0	0	0	0	0	0	0	0	0	0	0
102612	10:16:07	10003	Trial2BackFr	Y	3	57	660	1	35	10:16:07	1088495	0	0	0	0	0	0	0	0	0	0	0	0	0	0	0	0	0
102612	10:16:07	10003	Trial2BackFr	N	3	0	1000	1	36	10:16:07	1090334	0	0	0	0	0	0	0	0	0	0	0	0	0	0	0	0	0
102612	10:16:07	10003	Trial2BackFr	N	3	0	1000	1	37	10:16:07	1091841	0	0	0	0	0	0	0	0	0	0	0	0	0	0	0	0	0
102612	10:16:07	10003	Trial2BackFr	N	3	0	1000	1	38	10:16:07	1093347	0	0	0	0	0	0	0	0	0	0	0	0	0	0	0	0	0
102612	10:16:07	10003	Trial2BackFr	N	3	0	1000	1	39	10:16:07	1094853	0	0	0	0	0	0	0	0	0	0	0	0	0	0	0	0	0
102612	10:16:07	10003	Trial2BackFr	N	3	0	1000	1	40	10:16:07	1096359	0	0	0	0	0	0	0	0	0	0	0	0	0	0	0	0	0
102612	10:16:07	10003	Trial2BackFr	N	3	0	1000	1	41	10:16:07	1097865	0	0	0	0	0	0	0	0	0	0	0	0	0	0	0	0	0
102612	10:16:07	10003	Trial2BackFr	Y	3	57	566	1	42	10:16:07	1098944	0	0	0	0	0	0	0	0	0	0	0	0	0	0	0	0	0
102612	10:16:07	10003	Trial2BackFr	N	3	0	1000	1	43	10:16:07	1100877	0	0	0	0	0	0	0	0	0	0	0	0	0	0	0	0	0
102612	10:16:07	10003	Trial2BackFr	N	3	0	1000	1	44	10:16:07	1102383	0	0	0	0	0	0	0	0	0	0	0	0	0	0	0	0	0
102612	10:16:07	10003	Trial2BackFr	N	3	0	1000	1	45	10:16:07	1103889	0	0	0	0	0	0	0	0	0	0	0	0	0	0	0	0	0
102612	10:16:07	10003	Trial2BackFr	N	3	0	1000	1	46	10:16:07	1105395	0	0	0	0	0	0	0	0	0	0	0	0	0	0	0	0	0
102612	10:16:07	10003	Trial2BackFr	Y	3	57	539	1	47	10:16:07	1106448	0	0	0	0	0	0	0	0	0	0	0	0	0	0	0	0	0
102612	10:16:07	10003	Trial2BackFr	N	3	0	1000	1	48	10:16:07	1108407	0	0	0	0	0	0	0	0	0	0	0	0	0	0	0	0	0
102612	10:16:07	10003	Trial2BackFr	N	3	0	1000	1	49	10:16:07	1109913	0	0	0	0	0	0	0	0	0	0	0	0	0	0	0	0	0
102612	10:16:07	10003	Trial2BackFr	N	3	0	1000	1	50	10:16:07	1111419	0	0	0	0	0	0	0	0	0	0	0	0	0	0	0	0	0
102612	10:16:07	10003	Trial2BackFr	N	3	0	1000	1	51	10:16:07	1112925	0	0	0	0	0	0	0	0	0	0	0	0	0	0	0	0	0
102612	10:16:07	10003	Trial2BackFr	N	3	0	1000	1	52	10:16:07	1114431	0	0	0	0	0	0	0	0	0	0	0	0	0	0	0	0	0
102612	10:16:07	10003	Trial2BackFr	Y	3	57	511	1	53	10:16:07	1115458	0	0	0	0	0	0	0	0	0	0	0	0	0	0	0	0	0
102612	10:16:07	10003	Trial2BackFr	N	3	0	1000	1	54	10:16:07	1117444	0	0	0	0	0	0	0	0	0	0	0	0	0	0	0	0	0
102612	10:16:07	10003	Trial2BackFr	N	3	0	1000	1	55	10:16:07	1118950	0	0	0	0	0	0	0	0	0	0	0	0	0	0	0	0	0
102612	10:16:07	10003	Trial2BackFr	N	3	0	1000	1	56	10:16:07	1120456	0	0	0	0	0	0	0	0	0	0	0	0	0	0	0	0	0
102612	10:16:07	10003	Trial2BackFr	N	3	0	1000	1	57	10:16:07	1121962	0	0	0	0	0	0	0	0	0	0	0	0	0	0	0	0	0
102612	10:16:07	10003	Trial2BackFr	N	3	0	1000	1	58	10:16:07	1123468	0	0	0	0	0	0	0	0	0	0	0	0	0	0	0	0	0
102612	10:16:07	10003	Trial2BackFr	N	3	0	1000	1	59	10:16:07	1124974	0	0	0	0	0	0	0	0	0	0	0	0	0	0	0	0	0
102612	10:16:07	10003	Trial2BackFr	Y	3	57	464	1	60	10:16:07	1125947	0	0	0	0	0	0	0	0	0	0	0	0	0	0	0	0	0
102612	10:16:07	10003	Trial2BackFr	N	3	0	1000	1	61	10:16:07	1127986	0	0	0	0	0	0	0	0	0	0	0	0	0	0	0	0	0
102612	10:16:07	10003	Trial2BackFr	N	3	0	1000	1	62	10:16:07	1129492	0	0	0	0	0	0	0	0	0	0	0	0	0	0	0	0	0
102612	10:16:07	10003	Trial2BackFr	Y	3	57	746	1	63	10:16:07	1130758	0	0	0	0	0	0	0	0	0	0	0	0	0	0	0	0	0
102612	10:16:07	10003	Trial2BackFr	N	3	0	1000	1	64	10:16:07	1132504	0	0	0	0	0	0	0	0	0	0	0	0	0	0	0	0	0
102612	10:16:07	10003	Trial2BackFr	N	3	0	1000	1	65	10:16:07	1134010	0	0	0	0	0	0	0	0	0	0	0	0	0	0	0	0	0
102612	10:16:07	10003	Trial2BackFr	N	3	0	1000	1	66	10:16:07	1135516	0	0	0	0	0	0	0	0	0	0	0	0	0	0	0	0	0
102612	10:16:07	10003	Trial2BackFr	N	3	0	1000	1	67	10:16:07	1137022	0	0	0	0	0	0	0	0	0	0	0	0	0	0	0	0	0
102612	10:16:07	10003	Trial2BackFr	N	3	0	1000	1	68	10:16:07	1138528	0	0	0	0	0	0	0	0	0	0	0	0	0	0	0	0	0
102612	10:16:07	10003	Trial2BackFr	N	3	0	1000	1	69	10:16:07	1140034	0	0	0	0	0	0	0	0	0	0	0	0	0	0	0	0	0
102612	10:16:07	10003	Trial2BackFr	N	3	0	1000	1	70	10:16:07	1141540	0	0	0	0	0	0	0	0	0	0	0	0	0	0	0	0	0
102612	10:16:07	10003	Trial2BackFr	N	3	0	1000	1	71	10:16:07	1143046	0	0	0	0	0	0	0	0	0	0	0	0	0	0	0	0	0
102612	10:16:07	10003	Trial2BackFr	N	3	0	1000	1	72	10:16:07	1144552	0	0	0	0	0	0	0	0	0	0	0	0	0	0	0	0	0
102612	10:16:07	10003	Trial2BackFr	N	3	0	1000	1	73	10:16:07	1146059	0	0	0	0	0	0	0	0	0	0	0	0	0	0	0	0	0
102612	10:16:07	10003	Trial2BackFr	Y	3	57	531	1	74	10:16:07	1147098	0	0	0	0	0	0	0	0	0	0	0	0	0	0	0	0	0
102612	10:16:07	10003	Trial2BackFr	N	3	0	1000	1	75	10:16:07	1149071	0	0	0	0	0	0	0	0	0	0	0	0	0	0	0	0	0
102612	10:16:07	10003	Trial2BackFr	N	3	0	1000	1	76	10:16:07	1150577	0	0	0	0	0	0	0	0	0	0	0	0	0	0	0	0	0
102612	10:16:07	10003	Trial2BackFr	N	3	0	1000	1	77	10:16:07	1152083	0	0	0	0	0	0	0	0	0	0	0	0	0	0	0	0	0
102612	10:16:07	10003	Trial2BackFr	Y	3	57	634	1	78	10:16:07	1153229	0	0	0	0	0	0	0	0	0	0	0	0	0	0	0	0	0
102612	10:16:07	10003	Trial2BackFr	N	3	0	1000	1	79	10:16:07	1155095	0	0	0	0	0	0	0	0	0	0	0	0	0	0	0	0	0
102612	10:16:07	10003	Trial2BackFr	N	3	0	1000	1	80	10:16:07	1156614	0	0	0	0	0	0	0	0	0	0	0	0	0	0	0	0	0
102612	10:16:07	10003	Trial2BackFr	N	3	0	1000	1	81	10:16:07	1158120	0	0	0	0	0	0	0	0	0	0	0	0	0	0	0	0	0
102612	10:16:07	10003	Trial2BackFr	N	3	0	1000	1	82	10:16:07	1159627	0	0	0	0	0	0	0	0	0	0	0	0	0	0	0	0	0
102612	10:16:07	10003	Trial2BackFr	N	3	0	1000	1	83	10:16:07	1161132	0	0	0	0	0	0	0	0	0	0	0	0	0	0	0	0	0
102612	10:16:07	10003	Trial2BackFr	Y	3	57	801	1	84	10:16:07	1162452	0	0	0	0	0	0	0	0	0	0	0	0	0	0	0	0	0
102612	10:16:07	10003	Trial2BackFr	N	3	0	1000	1	85	10:16:07	1164145	0	0	0	0	0	0	0	0	0	0	0	0	0	0	0	0	0
102612	10:16:07	10003	Trial2BackFr	N	3	0	1000	1	86	10:16:07	1165651	0	0	0	0	0	0	0	0	0	0	0	0	0	0	0	0	0
102612	10:16:07	10003	Trial2BackFr	N	3	0	1000	1	87	10:16:07	1167157	0	0	0	0	0	0	0	0	0	0	0	0	0	0	0	0	0
102612	10:16:07	10003	Trial2BackFr	N	3	0	1000	1	88	10:16:07	1168663	0	0	0	0	0	0	0	0	0	0	0	0	0	0	0	0	0
102612	10:16:07	10003	Trial2BackFr	N	3	0	1000	1	89	10:16:07	1170169	0	0	0	0	0	0	0	0	0	0	0	0	0	0	0	0	0
102612	10:16:07	10003	Trial2BackFr	N	3	0	1000	1	90	10:16:07	1171675	0	0	0	0	0	0	0	0	0	0	0	0	0	0	0	0	0
102612	10:16:07	10003	Trial2BackFr	N	3	0	1000	1	91	10:16:07	1173181	0	0	0	0	0	0	0	0	0	0	0	0	0	0	0	0	0
102612	10:16:07	10003	Trial2BackFr	N	3	0	1000	1	92	10:16:07	1174687	0	0	0	0	0	0	0	0	0	0	0	0	0	0	0	0	0
102612	10:16:07	10003	Trial2BackFr	N	3	0	1000	1	93	10:16:07	1176193	0	0	0	0	0	0	0	0	0	0	0	0	0	0	0	0	0
102612	10:16:07	10003	Trial2BackFr	Y	3	57	588	1	94	10:16:07	1177299	0	0	0	0	0	0	0	0	0	0	0	0	0	0	0	0	0
102612	10:16:07	10003	Trial2BackFr	N	3	0	1000	1	95	10:16:07	1179205	0	0	0	0	0	0	0	0	0	0	0	0	0	0	0	0	0
102612	10:16:07	10003	Trial2BackFr	N	3	0	1000	1	96	10:16:07	1180725	0	0	0	0	0	0	0	0	0	0	0	0	0	0	0	0	0
102612	10:16:07	10003	Trial2BackFr	N	3	0	1000	1	97	10:16:07	1182231	0	0	0	0	0	0	0	0	0	0	0	0	0	0	0	0	0
102612	10:16:07	10003	Trial2BackFr	N	3	0	1000	1	98	10:16:07	1183750	0	0	0	0	0	0	0	0	0	0	0	0	0	0	0	0	0
102612	10:16:07	10003	Trial2BackFr	N	3	0	1000	1	99	10:16:07	1185256	0	0	0	0	0	0	0	0	0	0	0	0	0	0	0	0	0
102612	10:16:07	10003	Trial2BackFr	N	3	0	1000	1	100	10:16:07	1186762	0	0	0	0	0	0	0	0	0	0	0	0	0	0	0	0	0
102612	10:16:07	10003	Trial2BackFr	N	3	0	1000	1	101	10:16:07	1188268	0	0	0	0	0	0	0	0	0	0	0	0	0	0	0	0	0
102612	10:16:07	10003	Trial2BackFr	N	3	0	1000	1	102	10:16:07	1189774	0	0	0	0	0	0	0	0	0	0	0	0	0	0	0	0	0
102612	10:16:07	10003	Trial2BackFr	Y	3	57	542	1	103	10:16:07	1190827	0	0	0	0	0	0	0	0	0	0	0	0	0	0	0	0	0
102612	10:16:07	10003	Trial2BackFr	N	3	0	1000	1	104	10:16:07	1192786	0	0	0	0	0	0	0	0	0	0	0	0	0	0	0	0	0
102612	10:16:07	10003	Trial2BackFr	N	3	0	1000	1	105	10:16:07	1194292	0	0	0	0	0	0	0	0	0	0	0	0	0	0	0	0	0
102612	10:16:07	10003	Trial2BackFr	N	3	0	1000	1	106	10:16:07	1195798	0	0	0	0	0	0	0	0	0	0	0	0	0	0	0	0	0
102612	10:16:07	10003	Trial2BackFr	N	3	0	1000	1	107	10:16:07	1197305	0	0	0	0	0	0	0	0	0	0	0	0	0	0	0	0	0
102612	10:16:07	10003	Trial2BackFr	Y	3	57	820	1	108	10:16:07	1198637	0	0	0	0	0	0	0	0	0	0	0	0	0	0	0	0	0
102612	10:16:07	10003	Trial2BackFr	N	3	0	1000	1	109	10:16:07	1200317	0	0	0	0	0	0	0	0	0	0	0	0	0	0	0	0	0
102612	10:16:07	10003	Trial2BackFr	N	3	0	1000	1	110	10:16:07	1201823	0	0	0	0	0	0	0	0	0	0	0	0	0	0	0	0	0
102612	10:16:07	10003	Trial2BackFr	N	3	0	1000	1	111	10:16:07	1203329	0	0	0	0	0	0	0	0	0	0	0	0	0	0	0	0	0
102612	10:16:07	10003	Trial2BackFr	Y	3	57	555	1	112	10:16:07	1204395	0	0	0	0	0	0	0	0	0	0	0	0	0	0	0	0	0
102612	10:16:07	10003	Trial2BackFr	N	3	0	1000	1	113	10:16:07	1206341	0	0	0	0	0	0	0	0	0	0	0	0	0	0	0	0	0
102612	10:16:07	10003	Trial2BackFr	N	3	0	1000	1	114	10:16:07	1207847	0	0	0	0	0	0	0	0	0	0	0	0	0	0	0	0	0
102612	10:16:07	10003	Trial2BackFr	N	3	0	1000	1	115	10:16:07	1209353	0	0	0	0	0	0	0	0	0	0	0	0	0	0	0	0	0
102612	10:16:07	10003	Trial2BackFr	N	3	0	1000	1	116	10:16:07	1210859	0	0	0	0	0	0	0	0	0	0	0	0	0	0	0	0	0
102612	10:16:07	10003	Trial2BackFr	N	3	0	1000	1	117	10:16:07	1212365	0	0	0	0	0	0	0	0	0	0	0	0	0	0	0	0	0
102612	10:16:07	10003	Trial2BackFr	Y	3	57	415	1	118	10:16:07	1213298	0	0	0	0	0	0	0	0	0	0	0	0	0	0	0	0	0
102612	10:16:07	10003	Trial2BackFr	N	3	0	1000	1	119	10:16:07	1215377	0	0	0	0	0	0	0	0	0	0	0	0	0	0	0	0	0
102612	10:16:07	10003	Trial2BackFr	N	3	0	1000	1	120	10:16:07	1216883	0	0	0	0	0	0	0	0	0	0	0	0	0	0	0	0	0
102612	10:16:07	10003	Trial2BackFr	N	3	0	1000	1	121	10:16:07	1218403	0	0	0	0	0	0	0	0	0	0	0	0	0	0	0	0	0
102612	10:16:07	10003	Trial2BackFr	Y	3	57	697	1	122	10:16:07	1219615	0	0	0	0	0	0	0	0	0	0	0	0	0	0	0	0	0
102612	10:16:07	10003	Trial3BackFr	NN	4	0	1000	1	122	10:16:07	1240527	0	0	0	0	0	0	0	0	0	0	0	0	0	0	0	0	0
102612	10:16:07	10003	Trial3BackFr	NN	4	0	1000	1	122	10:16:07	1242033	0	0	0	0	0	0	0	0	0	0	0	0	0	0	0	0	0
102612	10:16:07	10003	Trial3BackFr	NN	4	0	1000	1	122	10:16:07	1243539	0	0	0	0	0	0	0	0	0	0	0	0	0	0	0	0	0
102612	10:16:07	10003	Trial3BackFr	YY	4	57	520	1	122	10:16:07	1244578	0	0	0	0	0	0	0	0	0	0	0	0	0	0	0	0	0
102612	10:16:07	10003	Trial3BackFr	NN	4	0	1000	1	122	10:16:07	1246551	0	0	0	0	0	0	0	0	0	0	0	0	0	0	0	0	0
102612	10:16:07	10003	Trial3BackFr	NN	4	0	1000	1	122	10:16:07	1248057	0	0	0	0	0	0	0	0	0	0	0	0	0	0	0	0	0
102612	10:16:07	10003	Trial3BackFr	NN	4	0	1000	1	122	10:16:07	1249563	0	0	0	0	0	0	0	0	0	0	0	0	0	0	0	0	0
102612	10:16:07	10003	Trial3BackFr	NN	4	0	1000	1	122	10:16:07	1251069	0	0	0	0	0	0	0	0	0	0	0	0	0	0	0	0	0
102612	10:16:07	10003	Trial3BackFr	YY	4	57	637	1	122	10:16:07	1252216	0	0	0	0	0	0	0	0	0	0	0	0	0	0	0	0	0
102612	10:16:07	10003	Trial3BackFr	NN	4	0	1000	1	122	10:16:07	1254081	0	0	0	0	0	0	0	0	0	0	0	0	0	0	0	0	0
102612	10:16:07	10003	Trial3BackFr	NN	4	0	1000	1	122	10:16:07	1255587	0	0	0	0	0	0	0	0	0	0	0	0	0	0	0	0	0
102612	10:16:07	10003	Trial3BackFr	NN	4	0	1000	1	122	10:16:07	1257094	0	0	0	0	0	0	0	0	0	0	0	0	0	0	0	0	0
102612	10:16:07	10003	Trial3BackFr	NN	4	0	1000	1	122	10:16:07	1258600	0	0	0	0	0	0	0	0	0	0	0	0	0	0	0	0	0
102612	10:16:07	10003	Trial3BackFr	NN	4	0	1000	1	122	10:16:07	1260106	0	0	0	0	0	0	0	0	0	0	0	0	0	0	0	0	0
102612	10:16:07	10003	Trial3BackFr	NN	4	0	1000	1	122	10:16:07	1261612	0	0	0	0	0	0	0	0	0	0	0	0	0	0	0	0	0
102612	10:16:07	10003	Trial3BackFr	NN	4	0	1000	1	122	10:16:07	1263131	0	0	0	0	0	0	0	0	0	0	0	0	0	0	0	0	0
102612	10:16:07	10003	Trial3BackFr	YY	4	0	1000	0	122	10:16:07	1264637	0	0	0	0	0	0	0	0	0	0	0	0	0	0	0	0	0
102612	10:16:07	10003	Trial3BackFr	NN	4	0	1000	1	122	10:16:07	1266143	0	0	0	0	0	0	0	0	0	0	0	0	0	0	0	0	0
102612	10:16:07	10003	Trial3BackFr	NN	4	0	1000	1	122	10:16:07	1267649	0	0	0	0	0	0	0	0	0	0	0	0	0	0	0	0	0
102612	10:16:07	10003	Trial3BackFr	NN	4	0	1000	1	122	10:16:07	1269155	0	0	0	0	0	0	0	0	0	0	0	0	0	0	0	0	0
102612	10:16:07	10003	Trial3BackFr	NN	4	0	1000	1	122	10:16:07	1270701	0	0	0	0	0	0	0	0	0	0	0	0	0	0	0	0	0
102612	10:16:07	10003	Trial3BackFr	NN	4	0	1000	1	122	10:16:07	1272207	0	0	0	0	0	0	0	0	0	0	0	0	0	0	0	0	0
102612	10:16:07	10003	Trial3BackFr	YY	4	57	555	1	122	10:16:07	1273274	0	0	0	0	0	0	0	0	0	0	0	0	0	0	0	0	0
102612	10:16:07	10003	Trial3BackFr	NN	4	0	1000	1	122	10:16:07	1275220	0	0	0	0	0	0	0	0	0	0	0	0	0	0	0	0	0
102612	10:16:07	10003	Trial3BackFr	NN	4	0	1000	1	122	10:16:07	1276726	0	0	0	0	0	0	0	0	0	0	0	0	0	0	0	0	0
102612	10:16:07	10003	Trial3BackFr	NN	4	0	1000	1	122	10:16:07	1278232	0	0	0	0	0	0	0	0	0	0	0	0	0	0	0	0	0
102612	10:16:07	10003	Trial3BackFr	YY	4	57	418	1	122	10:16:07	1279165	0	0	0	0	0	0	0	0	0	0	0	0	0	0	0	0	0
102612	10:16:07	10003	Trial3BackFr	NN	4	0	1000	1	122	10:16:07	1281244	0	0	0	0	0	0	0	0	0	0	0	0	0	0	0	0	0
102612	10:16:07	10003	Trial3BackFr	NN	4	0	1000	1	122	10:16:07	1282750	0	0	0	0	0	0	0	0	0	0	0	0	0	0	0	0	0
102612	10:16:07	10003	Trial3BackFr	NN	4	0	1000	1	122	10:16:07	1284256	0	0	0	0	0	0	0	0	0	0	0	0	0	0	0	0	0
102612	10:16:07	10003	Trial3BackFr	YY	4	57	554	1	122	10:16:07	1285322	0	0	0	0	0	0	0	0	0	0	0	0	0	0	0	0	0
102612	10:16:07	10003	Trial3BackFr	NN	4	0	1000	1	122	10:16:07	1287268	0	0	0	0	0	0	0	0	0	0	0	0	0	0	0	0	0
102612	10:16:07	10003	Trial3BackFr	NN	4	0	1000	1	122	10:16:07	1288774	0	0	0	0	0	0	0	0	0	0	0	0	0	0	0	0	0
102612	10:16:07	10003	Trial3BackFr	NN	4	0	1000	1	122	10:16:07	1290280	0	0	0	0	0	0	0	0	0	0	0	0	0	0	0	0	0
102612	10:16:07	10003	Trial3BackFr	NN	4	0	1000	1	122	10:16:07	1291786	0	0	0	0	0	0	0	0	0	0	0	0	0	0	0	0	0
102612	10:16:07	10003	Trial3BackFr	NN	4	0	1000	1	122	10:16:07	1293292	0	0	0	0	0	0	0	0	0	0	0	0	0	0	0	0	0
102612	10:16:07	10003	Trial3BackFr	NN	4	0	1000	1	122	10:16:07	1294798	0	0	0	0	0	0	0	0	0	0	0	0	0	0	0	0	0
102612	10:16:07	10003	Trial3BackFr	NN	4	0	1000	1	122	10:16:07	1296318	0	0	0	0	0	0	0	0	0	0	0	0	0	0	0	0	0
102612	10:16:07	10003	Trial3BackFr	NN	4	0	1000	1	122	10:16:07	1297824	0	0	0	0	0	0	0	0	0	0	0	0	0	0	0	0	0
102612	10:16:07	10003	Trial3BackFr	NN	4	0	1000	1	122	10:16:07	1299330	0	0	0	0	0	0	0	0	0	0	0	0	0	0	0	0	0
102612	10:16:07	10003	Trial3BackFr	NN	4	0	1000	1	122	10:16:07	1300836	0	0	0	0	0	0	0	0	0	0	0	0	0	0	0	0	0
102612	10:16:07	10003	Trial3BackFr	YY	4	57	550	1	122	10:16:07	1301902	0	0	0	0	0	0	0	0	0	0	0	0	0	0	0	0	0
102612	10:16:07	10003	Trial3BackFr	NN	4	0	1000	1	122	10:16:07	1303848	0	0	0	0	0	0	0	0	0	0	0	0	0	0	0	0	0
102612	10:16:07	10003	Trial3BackFr	NN	4	0	1000	1	122	10:16:07	1305354	0	0	0	0	0	0	0	0	0	0	0	0	0	0	0	0	0
102612	10:16:07	10003	Trial3BackFr	NN	4	0	1000	1	122	10:16:07	1306860	0	0	0	0	0	0	0	0	0	0	0	0	0	0	0	0	0
102612	10:16:07	10003	Trial3BackFr	NN	4	0	1000	1	122	10:16:07	1308366	0	0	0	0	0	0	0	0	0	0	0	0	0	0	0	0	0
102612	10:16:07	10003	Trial3BackFr	YY	4	57	587	1	122	10:16:07	1309472	0	0	0	0	0	0	0	0	0	0	0	0	0	0	0	0	0
102612	10:16:07	10003	Trial3BackFr	NN	4	0	1000	1	122	10:16:07	1311378	0	0	0	0	0	0	0	0	0	0	0	0	0	0	0	0	0
102612	10:16:07	10003	Trial3BackFr	NN	4	0	1000	1	122	10:16:07	1312884	0	0	0	0	0	0	0	0	0	0	0	0	0	0	0	0	0
102612	10:16:07	10003	Trial3BackFr	NN	4	0	1000	1	122	10:16:07	1314390	0	0	0	0	0	0	0	0	0	0	0	0	0	0	0	0	0
102612	10:16:07	10003	Trial3BackFr	NN	4	0	1000	1	122	10:16:07	1315896	0	0	0	0	0	0	0	0	0	0	0	0	0	0	0	0	0
102612	10:16:07	10003	Trial3BackFr	NN	4	0	1000	1	122	10:16:07	1317403	0	0	0	0	0	0	0	0	0	0	0	0	0	0	0	0	0
102612	10:16:07	10003	Trial3BackFr	YY	4	57	463	1	122	10:16:07	1318375	0	0	0	0	0	0	0	0	0	0	0	0	0	0	0	0	0
102612	10:16:07	10003	Trial3BackFr	NN	4	0	1000	1	122	10:16:07	1320415	0	0	0	0	0	0	0	0	0	0	0	0	0	0	0	0	0
102612	10:16:07	10003	Trial3BackFr	NN	4	0	1000	1	122	10:16:07	1321921	0	0	0	0	0	0	0	0	0	0	0	0	0	0	0	0	0
102612	10:16:07	10003	Trial3BackFr	NN	4	0	1000	1	122	10:16:07	1323427	0	0	0	0	0	0	0	0	0	0	0	0	0	0	0	0	0
102612	10:16:07	10003	Trial3BackFr	NN	4	0	1000	1	122	10:16:07	1324933	0	0	0	0	0	0	0	0	0	0	0	0	0	0	0	0	0
102612	10:16:07	10003	Trial3BackFr	NN	4	0	1000	1	122	10:16:07	1326439	0	0	0	0	0	0	0	0	0	0	0	0	0	0	0	0	0
102612	10:16:07	10003	Trial3BackFr	NN	4	0	1000	1	122	10:16:07	1327958	0	0	0	0	0	0	0	0	0	0	0	0	0	0	0	0	0
102612	10:16:07	10003	Trial3BackFr	YY	4	57	579	1	122	10:16:07	1329051	0	0	0	0	0	0	0	0	0	0	0	0	0	0	0	0	0
102612	10:16:07	10003	Trial3BackFr	NN	4	0	1000	1	122	10:16:07	1330970	0	0	0	0	0	0	0	0	0	0	0	0	0	0	0	0	0
102612	10:16:07	10003	Trial3BackFr	NN	4	0	1000	1	122	10:16:07	1332476	0	0	0	0	0	0	0	0	0	0	0	0	0	0	0	0	0
102612	10:16:07	10003	Trial3BackFr	NN	4	0	1000	1	122	10:16:07	1333982	0	0	0	0	0	0	0	0	0	0	0	0	0	0	0	0	0
102612	10:16:07	10003	Trial3BackFr	YY	4	57	666	1	122	10:16:07	1335169	0	0	0	0	0	0	0	0	0	0	0	0	0	0	0	0	0
102612	10:16:07	10003	Trial3BackFr	NN	4	0	1000	1	122	10:16:07	1336995	0	0	0	0	0	0	0	0	0	0	0	0	0	0	0	0	0
102612	10:16:07	10003	Trial3BackFr	NN	4	0	1000	1	122	10:16:07	1338514	0	0	0	0	0	0	0	0	0	0	0	0	0	0	0	0	0
102612	10:16:07	10003	Trial3BackFr	NN	4	0	1000	1	122	10:16:07	1340020	0	0	0	0	0	0	0	0	0	0	0	0	0	0	0	0	0
102612	10:16:07	10003	Trial3BackFr	NN	4	0	1000	1	122	10:16:07	1341526	0	0	0	0	0	0	0	0	0	0	0	0	0	0	0	0	0
102612	10:16:07	10003	Trial3BackFr	NN	4	0	1000	1	122	10:16:07	1343032	0	0	0	0	0	0	0	0	0	0	0	0	0	0	0	0	0
102612	10:16:07	10003	Trial3BackFr	NN	4	0	1000	1	122	10:16:07	1344538	0	0	0	0	0	0	0	0	0	0	0	0	0	0	0	0	0
102612	10:16:07	10003	Trial3BackFr	NN	4	0	1000	1	122	10:16:07	1346044	0	0	0	0	0	0	0	0	0	0	0	0	0	0	0	0	0
102612	10:16:07	10003	Trial3BackFr	NN	4	0	1000	1	122	10:16:07	1347550	0	0	0	0	0	0	0	0	0	0	0	0	0	0	0	0	0
102612	10:16:07	10003	Trial3BackFr	NN	4	0	1000	1	122	10:16:07	1349070	0	0	0	0	0	0	0	0	0	0	0	0	0	0	0	0	0
102612	10:16:07	10003	Trial3BackFr	YY	4	0	1000	0	122	10:16:07	1350576	0	0	0	0	0	0	0	0	0	0	0	0	0	0	0	0	0
102612	10:16:07	10003	Trial3BackFr	NN	4	0	1000	1	122	10:16:07	1352082	0	0	0	0	0	0	0	0	0	0	0	0	0	0	0	0	0
102612	10:16:07	10003	Trial3BackFr	NN	4	0	1000	1	122	10:16:07	1353588	0	0	0	0	0	0	0	0	0	0	0	0	0	0	0	0	0
102612	10:16:07	10003	Trial3BackFr	NN	4	0	1000	1	122	10:16:07	1355094	0	0	0	0	0	0	0	0	0	0	0	0	0	0	0	0	0
102612	10:16:07	10003	Trial3BackFr	YY	4	57	467	1	122	10:16:07	1356080	0	0	0	0	0	0	0	0	0	0	0	0	0	0	0	0	0
102612	10:16:07	10003	Trial3BackFr	NN	4	0	1000	1	122	10:16:07	1358106	0	0	0	0	0	0	0	0	0	0	0	0	0	0	0	0	0
102612	10:16:07	10003	Trial3BackFr	NN	4	0	1000	1	122	10:16:07	1359612	0	0	0	0	0	0	0	0	0	0	0	0	0	0	0	0	0
102612	10:16:07	10003	Trial3BackFr	NN	4	0	1000	1	122	10:16:07	1361118	0	0	0	0	0	0	0	0	0	0	0	0	0	0	0	0	0
102612	10:16:07	10003	Trial3BackFr	NN	4	0	1000	1	122	10:16:07	1362624	0	0	0	0	0	0	0	0	0	0	0	0	0	0	0	0	0
102612	10:16:07	10003	Trial3BackFr	NN	4	0	1000	1	122	10:16:07	1364130	0	0	0	0	0	0	0	0	0	0	0	0	0	0	0	0	0
102612	10:16:07	10003	Trial3BackFr	YY	4	57	566	1	122	10:16:07	1365210	0	0	0	0	0	0	0	0	0	0	0	0	0	0	0	0	0
102612	10:16:07	10003	Trial3BackFr	NN	4	0	1000	1	122	10:16:07	1367142	0	0	0	0	0	0	0	0	0	0	0	0	0	0	0	0	0
102612	10:16:07	10003	Trial3BackFr	NN	4	0	1000	1	122	10:16:07	1368648	0	0	0	0	0	0	0	0	0	0	0	0	0	0	0	0	0
102612	10:16:07	10003	Trial3BackFr	NN	4	0	1000	1	122	10:16:07	1370154	0	0	0	0	0	0	0	0	0	0	0	0	0	0	0	0	0
102612	10:16:07	10003	Trial3BackFr	NN	4	0	1000	1	122	10:16:07	1371660	0	0	0	0	0	0	0	0	0	0	0	0	0	0	0	0	0
102612	10:16:07	10003	Trial3BackFr	NN	4	0	1000	1	122	10:16:07	1373167	0	0	0	0	0	0	0	0	0	0	0	0	0	0	0	0	0
102612	10:16:07	10003	Trial3BackFr	NN	4	0	1000	1	122	10:16:07	1374673	0	0	0	0	0	0	0	0	0	0	0	0	0	0	0	0	0
102612	10:16:07	10003	Trial3BackFr	NN	4	0	1000	1	122	10:16:07	1376179	0	0	0	0	0	0	0	0	0	0	0	0	0	0	0	0	0
102612	10:16:07	10003	Trial3BackFr	NN	4	57	517	0	122	10:16:07	1377205	0	0	0	0	0	0	0	0	0	0	0	0	0	0	0	0	0
102612	10:16:07	10003	Trial3BackFr	NN	4	0	1000	1	122	10:16:07	1379191	0	0	0	0	0	0	0	0	0	0	0	0	0	0	0	0	0
102612	10:16:07	10003	Trial3BackFr	YY	4	0	1000	0	122	10:16:07	1380697	0	0	0	0	0	0	0	0	0	0	0	0	0	0	0	0	0
102612	10:16:07	10003	Trial3BackFr	NN	4	0	1000	1	122	10:16:07	1382203	0	0	0	0	0	0	0	0	0	0	0	0	0	0	0	0	0
102612	10:16:07	10003	Trial3BackFr	NN	4	0	1000	1	122	10:16:07	1383722	0	0	0	0	0	0	0	0	0	0	0	0	0	0	0	0	0
102612	10:16:07	10003	Trial3BackFr	NN	4	0	1000	1	122	10:16:07	1385228	0	0	0	0	0	0	0	0	0	0	0	0	0	0	0	0	0
102612	10:16:07	10003	Trial3BackFr	NN	4	0	1000	1	122	10:16:07	1386734	0	0	0	0	0	0	0	0	0	0	0	0	0	0	0	0	0
102612	10:16:07	10003	Trial3BackFr	NN	4	0	1000	1	122	10:16:07	1388240	0	0	0	0	0	0	0	0	0	0	0	0	0	0	0	0	0
102612	10:16:07	10003	Trial3BackFr	NN	4	0	1000	1	122	10:16:07	1389746	0	0	0	0	0	0	0	0	0	0	0	0	0	0	0	0	0
102612	10:16:07	10003	Trial3BackFr	NN	4	0	1000	1	122	10:16:07	1391253	0	0	0	0	0	0	0	0	0	0	0	0	0	0	0	0	0
102612	10:16:07	10003	Trial3BackFr	NN	4	0	1000	1	122	10:16:07	1392759	0	0	0	0	0	0	0	0	0	0	0	0	0	0	0	0	0
102612	10:16:07	10003	Trial3BackFr	YY	4	57	721	1	122	10:16:07	1393998	0	0	0	0	0	0	0	0	0	0	0	0	0	0	0	0	0
102612	10:16:07	10003	Trial3BackFr	NN	4	0	1000	1	122	10:16:07	1395771	0	0	0	0	0	0	0	0	0	0	0	0	0	0	0	0	0
102612	10:16:07	10003	Trial3BackFr	NN	4	0	1000	1	122	10:16:07	1397277	0	0	0	0	0	0	0	0	0	0	0	0	0	0	0	0	0
102612	10:16:07	10003	Trial3BackFr	NN	4	0	1000	1	122	10:16:07	1398783	0	0	0	0	0	0	0	0	0	0	0	0	0	0	0	0	0
102612	10:16:07	10003	Trial3BackFr	NN	4	0	1000	1	122	10:16:07	1400289	0	0	0	0	0	0	0	0	0	0	0	0	0	0	0	0	0
102612	10:16:07	10003	Trial3BackFr	YY	4	0	1000	0	122	10:16:07	1401795	0	0	0	0	0	0	0	0	0	0	0	0	0	0	0	0	0
102612	10:16:07	10003	Trial3BackFr	NN	4	0	1000	1	122	10:16:07	1403301	0	0	0	0	0	0	0	0	0	0	0	0	0	0	0	0	0
102612	10:16:07	10003	Trial3BackFr	NN	4	0	1000	1	122	10:16:07	1404807	0	0	0	0	0	0	0	0	0	0	0	0	0	0	0	0	0
102612	10:16:07	10003	Trial3BackFr	NN	4	0	1000	1	122	10:16:07	1406313	0	0	0	0	0	0	0	0	0	0	0	0	0	0	0	0	0
102612	10:16:07	10003	Trial3BackFr	YY	4	0	1000	0	122	10:16:07	1407819	0	0	0	0	0	0	0	0	0	0	0	0	0	0	0	0	0
102612	10:16:07	10003	Trial3BackFr	NN	4	57	444	0	122	10:16:07	1408779	0	0	0	0	0	0	0	0	0	0	0	0	0	0	0	0	0
102612	10:16:07	10003	Trial3BackFr	NN	4	0	1000	1	122	10:16:07	1410831	0	0	0	0	0	0	0	0	0	0	0	0	0	0	0	0	0
102612	10:16:07	10003	Trial3BackFr	NN	4	0	1000	1	122	10:16:07	1412337	0	0	0	0	0	0	0	0	0	0	0	0	0	0	0	0	0
102612	10:16:07	10003	Trial3BackFr	NN	4	0	1000	1	122	10:16:07	1413843	0	0	0	0	0	0	0	0	0	0	0	0	0	0	0	0	0
102612	10:16:07	10003	Trial3BackFr	NN	4	0	1000	1	122	10:16:07	1415349	0	0	0	0	0	0	0	0	0	0	0	0	0	0	0	0	0
102612	10:16:07	10003	Trial3BackFr	YY	4	57	689	1	122	10:16:07	1416549	0	0	0	0	0	0	0	0	0	0	0	0	0	0	0	0	0
102612	10:16:07	10003	Trial3BackFr	NN	4	0	1000	1	122	10:16:07	1418362	0	0	0	0	0	0	0	0	0	0	0	0	0	0	0	0	0
102612	10:16:07	10003	Trial3BackFr	NN	4	0	1000	1	122	10:16:07	1419868	0	0	0	0	0	0	0	0	0	0	0	0	0	0	0	0	0
102612	10:16:07	10003	Trial3BackFr	NN	4	0	1000	1	122	10:16:07	1421374	0	0	0	0	0	0	0	0	0	0	0	0	0	0	0	0	0
102612	10:16:07	10003	Trial3BackFr	YY	4	57	553	1	122	10:16:07	1422440	0	0	0	0	0	0	0	0	0	0	0	0	0	0	0	0	0
102612	10:16:07	10003	Memory1R6moFr	ScoreFr	5	M1	17941	0	122	10:16:07	1478497	0	0	0	0	0	0	0	0	0	0	0	0	0	0	0	0	0
102612	10:16:07	10003	Memory1R6moFr	ScoreFr	5	M2	317	0	122	10:16:07	1478871	0	0	0	0	0	0	0	0	0	0	0	0	0	0	0	0	0
102612	10:16:07	10003	Memory1R6moFr	ScoreFr	5	M3	327	0	122	10:16:07	1479244	0	0	0	0	0	0	0	0	0	0	0	0	0	0	0	0	0
102612	10:16:07	10003	Memory1R6moFr	ScoreFr	5	M3	986	0	122	10:16:07	1480283	0	0	0	0	0	0	0	0	0	0	0	0	0	0	0	0	0
102612	10:16:07	10003	Memory1R6moFr	ScoreFr	5	M4	531	0	122	10:16:07	1480870	0	0	0	0	0	0	0	0	0	0	0	0	0	0	0	0	0
102612	10:16:07	10003	Memory1R6moFr	ScoreFr	5	M5	281	0	122	10:16:07	1481203	0	0	0	0	0	0	0	0	0	0	0	0	0	0	0	0	0
102612	10:16:07	10003	Memory1R6moFr	ScoreFr	5	M6	339	0	122	10:16:07	1481590	0	0	0	0	0	0	0	0	0	0	0	0	0	0	0	0	0
102612	10:16:07	10003	Memory1R6moFr	ScoreFr	5	M7	912	0	122	10:16:07	1482549	0	0	0	0	0	0	0	0	0	0	0	0	0	0	0	0	0
102612	10:16:07	10003	Memory1R6moFr	ScoreFr	5	Done	19560	0	122	10:16:07	1502154	0	0	0	0	0	0	0	0	0	0	0	0	0	0	0	0	0
102612	10:16:07	10003	Memory2R6moFr	ScoreFr2	5	11	18026	0	122	10:16:07	1538460	0	0	0	0	0	0	0	0	0	0	0	0	0	0	0	0	0
102612	10:16:07	10003	Memory2R6moFr	ScoreFr2	5	22	265	0	122	10:16:07	1538780	0	0	0	0	0	0	0	0	0	0	0	0	0	0	0	0	0
102612	10:16:07	10003	Memory2R6moFr	ScoreFr2	5	33	203	0	122	10:16:07	1539046	0	0	0	0	0	0	0	0	0	0	0	0	0	0	0	0	0
102612	10:16:07	10003	Memory2R6moFr	ScoreFr2	5	44	230	0	122	10:16:07	1539326	0	0	0	0	0	0	0	0	0	0	0	0	0	0	0	0	0
102612	10:16:07	10003	Memory2R6moFr	ScoreFr2	5	55	262	0	122	10:16:07	1539633	0	0	0	0	0	0	0	0	0	0	0	0	0	0	0	0	0
102612	10:16:07	10003	Memory2R6moFr	ScoreFr2	5	66	220	0	122	10:16:07	1539899	0	0	0	0	0	0	0	0	0	0	0	0	0	0	0	0	0
102612	10:16:07	10003	Memory2R6moFr	ScoreFr2	5	77	185	0	122	10:16:07	1540139	0	0	0	0	0	0	0	0	0	0	0	0	0	0	0	0	0
102612	10:16:07	10003	Memory2R6moFr	ScoreFr2	5	88	281	0	122	10:16:07	1540472	0	0	0	0	0	0	0	0	0	0	0	0	0	0	0	0	0
102612	10:16:07	10003	Memory2R6moFr	ScoreFr2	5	Done	492	0	122	10:16:07	1541019	0	0	0	0	0	0	0	0	0	0	0	0	0	0	0	0	0
102612	10:16:07	10003	Memory3R6moFr	ScoreFr3	5	111	14074	0	122	10:16:07	1574539	0	0	0	0	0	0	0	0	0	0	0	0	0	0	0	0	0
102612	10:16:07	10003	Memory3R6moFr	ScoreFr3	5	333	203	0	122	10:16:07	1574805	0	0	0	0	0	0	0	0	0	0	0	0	0	0	0	0	0
102612	10:16:07	10003	Memory3R6moFr	ScoreFr3	5	222	350	0	122	10:16:07	1575205	0	0	0	0	0	0	0	0	0	0	0	0	0	0	0	0	0
102612	10:16:07	10003	Memory3R6moFr	ScoreFr3	5	444	319	0	122	10:16:07	1575578	0	0	0	0	0	0	0	0	0	0	0	0	0	0	0	0	0
102612	10:16:07	10003	Memory3R6moFr	ScoreFr3	5	555	233	0	122	10:16:07	1575858	0	0	0	0	0	0	0	0	0	0	0	0	0	0	0	0	0
102612	10:16:07	10003	Memory3R6moFr	ScoreFr3	5	666	228	0	122	10:16:07	1576151	0	0	0	0	0	0	0	0	0	0	0	0	0	0	0	0	0
102612	10:16:07	10003	Memory3R6moFr	ScoreFr3	5	777	244	0	122	10:16:07	1576444	0	0	0	0	0	0	0	0	0	0	0	0	0	0	0	0	0
102612	10:16:07	10003	Memory3R6moFr	ScoreFr3	5	888	263	0	122	10:16:07	1576764	0	0	0	0	0	0	0	0	0	0	0	0	0	0	0	0	0
102612	10:16:07	10003	Memory3R6moFr	ScoreFr3	5	Done	7415	0	122	10:16:07	1584228	0	0	0	0	0	0	0	0	0	0	0	0	0	0	0	0	0
102612	10:16:07	10003	LoriaFrLH3	Stop	6	10	7765	0	122	10:16:07	1667822	0	0	0	0	0	0	0	0	0	0	0	0	0	0	0	0	0
102612	10:16:07	10003	FrTrail	Trails	7	1Trails	6719	0	122	10:16:07	1692638	0	0	0	0	0	0	0	0	0	0	0	0	0	0	0	0	0
102612	10:16:07	10003	Serial7Fr6mo	Serial7Fr6mo	8	73	2552	0	122	10:16:07	1758265	1	0	0	0	0	0	0	0	0	0	0	0	0	0	0	0	0
102612	10:16:07	10003	Serial7Fr6mo	Serial7Fr6mo	8	66	2376	0	122	10:16:07	1760664	2	0	0	0	0	0	0	0	0	0	0	0	0	0	0	0	0
102612	10:16:07	10003	Serial7Fr6mo	Serial7Fr6mo	8	59	2986	0	122	10:16:07	1763677	3	0	0	0	0	0	0	0	0	0	0	0	0	0	0	0	0
102612	10:16:07	10003	Serial7Fr6mo	Serial7Fr6mo	8	52	2830	0	122	10:16:07	1766529	4	0	0	0	0	0	0	0	0	0	0	0	0	0	0	0	0
102612	10:16:07	10003	Serial7Fr6mo	Serial7Fr6mo	8	45	2553	0	122	10:16:07	1769102	5	0	0	0	0	0	0	0	0	0	0	0	0	0	0	0	0
102612	10:16:07	10003	corsiblockFrFwrd	recallseqFrFwrd	9	1	1385	0	122	10:16:07	1807006	5	0	0	0	0	0	0	0	0	0	0	0	0	0	0	0	0
102612	10:16:07	10003	corsiblockFrFwrd	recallseqFrFwrd	9	7	1049	0	122	10:16:07	1808112	5	0	0	0	0	0	0	0	0	0	0	0	0	0	0	0	0
102612	10:16:07	10003	corsiblockFrFwrd	recallseqFrFwrd	9	doneCorsiFr	1495	0	122	10:16:07	1809659	5	0	0	0	0	0	0	0	0	0	0	0	0	0	0	2	0
102612	10:16:07	10003	corsiblockFrFwrd	recallseqFrFwrd	9	4	999	0	122	10:16:07	1816789	5	0	0	0	0	0	0	0	0	0	0	0	0	0	0	2	0
102612	10:16:07	10003	corsiblockFrFwrd	recallseqFrFwrd	9	3	794	0	122	10:16:07	1817629	5	0	0	0	0	0	0	0	0	0	0	0	0	0	0	2	0
102612	10:16:07	10003	corsiblockFrFwrd	recallseqFrFwrd	9	8	1027	0	122	10:16:07	1818708	5	0	0	0	0	0	0	0	0	0	0	0	0	0	0	2	0
102612	10:16:07	10003	corsiblockFrFwrd	recallseqFrFwrd	9	doneCorsiFr	803	0	122	10:16:07	1819561	5	0	0	0	0	0	0	0	0	0	0	0	0	0	0	3	0
102612	10:16:07	10003	corsiblockFrFwrd	recallseqFrFwrd	9	9	920	0	122	10:16:07	1827611	5	0	0	0	0	0	0	0	0	0	0	0	0	0	0	3	0
102612	10:16:07	10003	corsiblockFrFwrd	recallseqFrFwrd	9	5	796	0	122	10:16:07	1828451	5	0	0	0	0	0	0	0	0	0	0	0	0	0	0	3	0
102612	10:16:07	10003	corsiblockFrFwrd	recallseqFrFwrd	9	2	636	0	122	10:16:07	1829144	5	0	0	0	0	0	0	0	0	0	0	0	0	0	0	3	0
102612	10:16:07	10003	corsiblockFrFwrd	recallseqFrFwrd	9	6	743	0	122	10:16:07	1829944	5	0	0	0	0	0	0	0	0	0	0	0	0	0	0	3	0
102612	10:16:07	10003	corsiblockFrFwrd	recallseqFrFwrd	9	doneCorsiFr	1183	0	122	10:16:07	1831183	5	0	0	0	0	0	0	0	0	0	0	0	0	0	0	4	0
102612	10:16:07	10003	corsiblockFrFwrd	recallseqFrFwrd	9	5	811	0	122	10:16:07	1840126	5	0	0	0	0	0	0	0	0	0	0	0	0	0	0	4	0
102612	10:16:07	10003	corsiblockFrFwrd	recallseqFrFwrd	9	2	824	0	122	10:16:07	1841006	5	0	0	0	0	0	0	0	0	0	0	0	0	0	0	4	0
102612	10:16:07	10003	corsiblockFrFwrd	recallseqFrFwrd	9	4	633	0	122	10:16:07	1841685	5	0	0	0	0	0	0	0	0	0	0	0	0	0	0	4	0
102612	10:16:07	10003	corsiblockFrFwrd	recallseqFrFwrd	9	1	729	0	122	10:16:07	1842459	5	0	0	0	0	0	0	0	0	0	0	0	0	0	0	4	0
102612	10:16:07	10003	corsiblockFrFwrd	recallseqFrFwrd	9	9	1092	0	122	10:16:07	1843605	5	0	0	0	0	0	0	0	0	0	0	0	0	0	0	4	0
102612	10:16:07	10003	corsiblockFrFwrd	recallseqFrFwrd	9	doneCorsiFr	914	0	122	10:16:07	1844564	5	0	0	0	0	0	0	0	0	0	0	0	0	0	0	5	0
102612	10:16:07	10003	corsiblockFrFwrd	recallseqFrFwrd	9	8	1136	0	122	10:16:07	1854840	5	0	0	0	0	0	0	0	0	0	0	0	0	0	0	5	0
102612	10:16:07	10003	corsiblockFrFwrd	recallseqFrFwrd	9	6	1006	0	122	10:16:07	1855893	5	0	0	0	0	0	0	0	0	0	0	0	0	0	0	5	0
102612	10:16:07	10003	corsiblockFrFwrd	recallseqFrFwrd	9	7	977	0	122	10:16:07	1856919	5	0	0	0	0	0	0	0	0	0	0	0	0	0	0	5	0
102612	10:16:07	10003	corsiblockFrFwrd	recallseqFrFwrd	9	3	2567	0	122	10:16:07	1859532	5	0	0	0	0	0	0	0	0	0	0	0	0	0	0	5	0
102612	10:16:07	10003	corsiblockFrFwrd	recallseqFrFwrd	9	2	859	0	122	10:16:07	1860438	5	0	0	0	0	0	0	0	0	0	0	0	0	0	0	5	0
102612	10:16:07	10003	corsiblockFrFwrd	recallseqFrFwrd	9	8	872	0	122	10:16:07	1861357	5	0	0	0	0	0	0	0	0	0	0	0	0	0	0	5	0
102612	10:16:07	10003	corsiblockFrFwrd	recallseqFrFwrd	9	doneCorsiFr	929	0	122	10:16:07	1862331	5	0	0	0	0	0	0	0	0	0	0	0	0	0	0	6	0
102612	10:16:07	10003	corsiblockFrFwrd	recallseqFrFwrd	9	5	1466	0	122	10:16:07	1873939	5	0	0	0	0	0	0	0	0	0	0	0	0	0	0	6	0
102612	10:16:07	10003	corsiblockFrFwrd	recallseqFrFwrd	9	7	1635	0	122	10:16:07	1875619	5	0	0	0	0	0	0	0	0	0	0	0	0	0	0	6	0
102612	10:16:07	10003	corsiblockFrFwrd	recallseqFrFwrd	9	3	1155	0	122	10:16:07	1876818	5	0	0	0	0	0	0	0	0	0	0	0	0	0	0	6	0
102612	10:16:07	10003	corsiblockFrFwrd	recallseqFrFwrd	9	6	1012	0	122	10:16:07	1877884	5	0	0	0	0	0	0	0	0	0	0	0	0	0	0	6	0
102612	10:16:07	10003	corsiblockFrFwrd	recallseqFrFwrd	9	1	2066	0	122	10:16:07	1880003	5	0	0	0	0	0	0	0	0	0	0	0	0	0	0	6	0
102612	10:16:07	10003	corsiblockFrFwrd	recallseqFrFwrd	9	9	739	0	122	10:16:07	1880789	5	0	0	0	0	0	0	0	0	0	0	0	0	0	0	6	0
102612	10:16:07	10003	corsiblockFrFwrd	recallseqFrFwrd	9	doneCorsiFr	1208	0	122	10:16:07	1882043	5	0	0	0	0	0	0	0	0	0	0	0	0	0	0	6	0
102612	10:16:07	10003	corsiblockFrFwrd	recallseqFrFwrd	9	7	1343	0	122	10:16:07	1893478	5	0	0	0	0	0	0	0	0	0	0	0	0	0	0	6	0
102612	10:16:07	10003	corsiblockFrFwrd	recallseqFrFwrd	9	8	864	0	122	10:16:07	1894398	5	0	0	0	0	0	0	0	0	0	0	0	0	0	0	6	0
102612	10:16:07	10003	corsiblockFrFwrd	recallseqFrFwrd	9	5	1008	0	122	10:16:07	1895451	5	0	0	0	0	0	0	0	0	0	0	0	0	0	0	6	0
102612	10:16:07	10003	corsiblockFrFwrd	recallseqFrFwrd	9	2	2347	0	122	10:16:07	1897850	5	0	0	0	0	0	0	0	0	0	0	0	0	0	0	6	0
102612	10:16:07	10003	corsiblockFrFwrd	recallseqFrFwrd	9	1	852	0	122	10:16:07	1898756	5	0	0	0	0	0	0	0	0	0	0	0	0	0	0	6	0
102612	10:16:07	10003	corsiblockFrFwrd	recallseqFrFwrd	9	9	825	0	122	10:16:07	1899635	5	0	0	0	0	0	0	0	0	0	0	0	0	0	0	6	0
102612	10:16:07	10003	corsiblockFrFwrd	recallseqFrFwrd	9	4	681	0	122	10:16:07	1900369	5	0	0	0	0	0	0	0	0	0	0	0	0	0	0	6	0
102612	10:16:07	10003	corsiblockFrFwrd	recallseqFrFwrd	9	doneCorsiFr	1005	0	122	10:16:07	1901421	5	0	0	0	0	0	0	0	0	0	0	0	0	0	0	6	0
102612	10:16:07	10003	corsiblockFrRev	recallseqFrRev	10	7	1359	0	122	10:16:07	1913563	5	0	0	0	0	0	0	0	0	0	0	0	0	0	0	6	0
102612	10:16:07	10003	corsiblockFrRev	recallseqFrRev	10	6	810	0	122	10:16:07	1914429	5	0	0	0	0	0	0	0	0	0	0	0	0	0	0	6	0
102612	10:16:07	10003	corsiblockFrRev	recallseqFrRev	10	doneCorsiFr	952	0	122	10:16:07	1915429	5	0	0	0	0	0	0	0	0	0	0	0	0	0	0	6	2
102612	10:16:07	10003	corsiblockFrRev	recallseqFrRev	10	3	1069	0	122	10:16:07	1922640	5	0	0	0	0	0	0	0	0	0	0	0	0	0	0	6	2
102612	10:16:07	10003	corsiblockFrRev	recallseqFrRev	10	5	782	0	122	10:16:07	1923466	5	0	0	0	0	0	0	0	0	0	0	0	0	0	0	6	2
102612	10:16:07	10003	corsiblockFrRev	recallseqFrRev	10	9	867	0	122	10:16:07	1924386	5	0	0	0	0	0	0	0	0	0	0	0	0	0	0	6	2
102612	10:16:07	10003	corsiblockFrRev	recallseqFrRev	10	doneCorsiFr	1227	0	122	10:16:07	1925665	5	0	0	0	0	0	0	0	0	0	0	0	0	0	0	6	3
102612	10:16:07	10003	corsiblockFrRev	recallseqFrRev	10	8	1207	0	122	10:16:07	1933995	5	0	0	0	0	0	0	0	0	0	0	0	0	0	0	6	3
102612	10:16:07	10003	corsiblockFrRev	recallseqFrRev	10	2	802	0	122	10:16:07	1934848	5	0	0	0	0	0	0	0	0	0	0	0	0	0	0	6	3
102612	10:16:07	10003	corsiblockFrRev	recallseqFrRev	10	1	1013	0	122	10:16:07	1935914	5	0	0	0	0	0	0	0	0	0	0	0	0	0	0	6	3
102612	10:16:07	10003	corsiblockFrRev	recallseqFrRev	10	4	818	0	122	10:16:07	1936780	5	0	0	0	0	0	0	0	0	0	0	0	0	0	0	6	3
102612	10:16:07	10003	corsiblockFrRev	recallseqFrRev	10	doneCorsiFr	968	0	122	10:16:07	1937793	5	0	0	0	0	0	0	0	0	0	0	0	0	0	0	6	4
102612	10:16:07	10003	corsiblockFrRev	recallseqFrRev	10	2	1094	0	122	10:16:07	1947016	5	0	0	0	0	0	0	0	0	0	0	0	0	0	0	6	4
102612	10:16:07	10003	corsiblockFrRev	recallseqFrRev	10	5	1436	0	122	10:16:07	1948509	5	0	0	0	0	0	0	0	0	0	0	0	0	0	0	6	4
102612	10:16:07	10003	corsiblockFrRev	recallseqFrRev	10	3	759	0	122	10:16:07	1949322	5	0	0	0	0	0	0	0	0	0	0	0	0	0	0	6	4
102612	10:16:07	10003	corsiblockFrRev	recallseqFrRev	10	9	1250	0	122	10:16:07	1950628	5	0	0	0	0	0	0	0	0	0	0	0	0	0	0	6	4
102612	10:16:07	10003	corsiblockFrRev	recallseqFrRev	10	doneCorsiFr	1112	0	122	10:16:07	1951788	5	0	0	0	0	0	0	0	0	0	0	0	0	0	0	6	4
102612	10:16:07	10003	corsiblockFrRev	recallseqFrRev	10	3	1059	0	122	10:16:07	1960931	5	0	0	0	0	0	0	0	0	0	0	0	0	0	0	6	4
102612	10:16:07	10003	corsiblockFrRev	recallseqFrRev	10	1	602	0	122	10:16:07	1961584	5	0	0	0	0	0	0	0	0	0	0	0	0	0	0	6	4
102612	10:16:07	10003	corsiblockFrRev	recallseqFrRev	10	7	860	0	122	10:16:07	1962490	5	0	0	0	0	0	0	0	0	0	0	0	0	0	0	6	4
102612	10:16:07	10003	corsiblockFrRev	recallseqFrRev	10	6	826	0	122	10:16:07	1963370	5	0	0	0	0	0	0	0	0	0	0	0	0	0	0	6	4
102612	10:16:07	10003	corsiblockFrRev	recallseqFrRev	10	8	722	0	122	10:16:07	1964143	5	0	0	0	0	0	0	0	0	0	0	0	0	0	0	6	4
102612	10:16:07	10003	corsiblockFrRev	recallseqFrRev	10	doneCorsiFr	749	0	122	10:16:07	1964942	5	0	0	0	0	0	0	0	0	0	0	0	0	0	0	6	5
102612	10:16:07	10003	corsiblockFrRev	recallseqFrRev	10	7	1118	0	122	10:16:07	1974179	5	0	0	0	0	0	0	0	0	0	0	0	0	0	0	6	5
102612	10:16:07	10003	corsiblockFrRev	recallseqFrRev	10	1	1057	0	122	10:16:07	1975285	5	0	0	0	0	0	0	0	0	0	0	0	0	0	0	6	5
102612	10:16:07	10003	corsiblockFrRev	recallseqFrRev	10	4	1015	0	122	10:16:07	1976351	5	0	0	0	0	0	0	0	0	0	0	0	0	0	0	6	5
102612	10:16:07	10003	corsiblockFrRev	recallseqFrRev	10	6	1060	0	122	10:16:07	1977457	5	0	0	0	0	0	0	0	0	0	0	0	0	0	0	6	5
102612	10:16:07	10003	corsiblockFrRev	recallseqFrRev	10	8	722	0	122	10:16:07	1978230	5	0	0	0	0	0	0	0	0	0	0	0	0	0	0	6	5
102612	10:16:07	10003	corsiblockFrRev	recallseqFrRev	10	doneCorsiFr	933	0	122	10:16:07	1979217	5	0	0	0	0	0	0	0	0	0	0	0	0	0	0	6	5
102612	10:16:07	10003	corsiblockFrRev	recallseqFrRev	10	4	990	0	122	10:16:07	1989293	5	0	0	0	0	0	0	0	0	0	0	0	0	0	0	6	5
102612	10:16:07	10003	corsiblockFrRev	recallseqFrRev	10	1	807	0	122	10:16:07	1990146	5	0	0	0	0	0	0	0	0	0	0	0	0	0	0	6	5
102612	10:16:07	10003	corsiblockFrRev	recallseqFrRev	10	6	1114	0	122	10:16:07	1991305	5	0	0	0	0	0	0	0	0	0	0	0	0	0	0	6	5
102612	10:16:07	10003	corsiblockFrRev	recallseqFrRev	10	8	954	0	122	10:16:07	1992305	5	0	0	0	0	0	0	0	0	0	0	0	0	0	0	6	5
102612	10:16:07	10003	corsiblockFrRev	recallseqFrRev	10	7	1810	0	122	10:16:07	1994171	5	0	0	0	0	0	0	0	0	0	0	0	0	0	0	6	5
102612	10:16:07	10003	corsiblockFrRev	recallseqFrRev	10	9	657	0	122	10:16:07	1994878	5	0	0	0	0	0	0	0	0	0	0	0	0	0	0	6	5
102612	10:16:07	10003	corsiblockFrRev	recallseqFrRev	10	doneCorsiFr	1030	0	122	10:16:07	1995956	5	0	0	0	0	0	0	0	0	0	0	0	0	0	0	6	5
102612	10:16:07	10003	testFr6mo	WordsFr6mo	11	1Fr6mo	1573	0	122	10:16:07	2075511	5	3	0	0	0	0	0	0	0	0	0	0	0	0	0	6	5
102612	10:16:07	10003	testFr6mo	WordsFr6mo	11	2Fr6mo	179	0	122	10:16:07	2075738	5	3	3	0	0	0	0	0	0	0	0	0	0	0	0	6	5
102612	10:16:07	10003	testFr6mo	WordsFr6mo	11	3Fr6mo	248	0	122	10:16:07	2076031	5	3	3	3	0	0	0	0	0	0	0	0	0	0	0	6	5
102612	10:16:07	10003	testFr6mo	WordsFr6mo	11	6Fr6mo	2251	0	122	10:16:07	2078337	5	3	3	3	0	0	3	0	0	0	0	0	0	0	0	6	5
102612	10:16:07	10003	testFr6mo	WordsFr6mo	11	8Fr6mo	905	0	122	10:16:07	2079296	5	3	3	3	0	0	3	0	3	0	0	0	0	0	0	6	5
102612	10:16:07	10003	testFr6mo	WordsFr6mo	11	DoneFr6mo	9417	0	122	10:16:07	2088759	5	3	3	3	0	0	3	0	3	0	0	0	0	0	0	6	5
102612	10:16:07	10003	testFr6mo	Cat4Fr6mo	11	0	1	0	122	10:16:07	2088772	5	3	3	3	0	0	3	0	3	0	0	0	0	0	0	6	5
102612	10:16:07	10003	testFr6mo	Ch4Fr6mo	11	RR4Fr6mo	5070	0	122	10:16:07	2093890	5	3	3	3	1	0	3	0	3	0	0	0	0	0	0	6	5
102612	10:16:07	10003	testFr6mo	Cat5Fr6mo	11	R5Fr6mo	12093	0	122	10:16:07	2106018	5	3	3	3	1	2	3	0	3	0	0	0	0	0	0	6	5
102612	10:16:07	10003	testFr6mo	Cat7Fr6mo	11	W7Fr6mo	18692	0	122	10:16:07	2124744	5	3	3	3	1	2	3	0	3	0	0	0	0	0	0	6	5
102612	10:16:07	10003	testFr6mo	Ch7Fr6mo	11	RR7Fr6mo	3630	0	122	10:16:07	2128409	5	3	3	3	1	2	3	1	3	0	0	0	0	0	0	6	5
102612	10:16:07	10003	DigitSpanFwrdFr6mo	Score1FwrdFr6mo	12	DS1	5229	0	122	10:16:07	2154785	5	3	3	3	1	2	3	1	3	0	0	0	0	0	0	6	5
102612	10:16:07	10003	DigitSpanFwrdFr6mo	Gate1FwrdFr6mo	12	0	1	0	122	10:16:07	2154790	5	3	3	3	1	2	3	1	3	3	0	0	0	0	0	6	5
102612	10:16:07	10003	DigitSpanFwrdFr6mo	Score2FwrdFr6mo	12	DS1	4359	0	122	10:16:07	2165461	5	3	3	3	1	2	3	1	3	3	0	0	0	0	0	6	5
102612	10:16:07	10003	DigitSpanFwrdFr6mo	Gate3FwrdFr6mo	12	0	1	0	122	10:16:07	2165466	5	3	3	3	1	2	3	1	3	4	0	0	0	0	0	6	5
102612	10:16:07	10003	DigitSpanFwrdFr6mo	Score3FwrdFr6mo	12	DS1	5270	0	122	10:16:07	2177976	5	3	3	3	1	2	3	1	3	4	0	0	0	0	0	6	5
102612	10:16:07	10003	DigitSpanFwrdFr6mo	Gate5FwrdFr6mo	12	0	1	0	122	10:16:07	2177980	5	3	3	3	1	2	3	1	3	5	0	0	0	0	0	6	5
102612	10:16:07	10003	DigitSpanFwrdFr6mo	Score4FwrdFr6mo	12	DS1	5177	0	122	10:16:07	2191664	5	3	3	3	1	2	3	1	3	5	0	0	0	0	0	6	5
102612	10:16:07	10003	DigitSpanFwrdFr6mo	Gate7FwrdFr6mo	12	0	1	0	122	10:16:07	2191668	5	3	3	3	1	2	3	1	3	6	0	0	0	0	0	6	5
102612	10:16:07	10003	DigitSpanFwrdFr6mo	Score5FwrdFr6mo	12	DS2	11377	0	122	10:16:07	2212988	5	3	3	3	1	2	3	1	3	6	0	0	0	0	0	6	5
102612	10:16:07	10003	DigitSpanFwrdFr6mo	Gate9FwrdFr6mo	12	0	1	0	122	10:16:07	2212993	5	3	3	3	1	2	3	1	3	6	0	0	0	0	0	6	5
102612	10:16:07	10003	DigitSpanFwrdFr6mo	Score55FwrdFr6mo	12	DS2	9230	0	122	10:16:07	2231781	5	3	3	3	1	2	3	1	3	6	0	0	0	0	0	6	5
102612	10:16:07	10003	DigitSpanFr6mo	Score1Fr6mo	13	DS1	2519	0	122	10:16:07	2252612	5	3	3	3	1	2	3	1	3	6	0	0	0	0	0	6	5
102612	10:16:07	10003	DigitSpanFr6mo	Gate1Fr6mo	13	0	1	0	122	10:16:07	2252616	5	3	3	3	1	2	3	1	3	6	2	0	0	0	0	6	5
102612	10:16:07	10003	DigitSpanFr6mo	Score2Fr6mo	13	DS1	3363	0	122	10:16:07	2260542	5	3	3	3	1	2	3	1	3	6	2	0	0	0	0	6	5
102612	10:16:07	10003	DigitSpanFr6mo	Gate3Fr6mo	13	0	1	0	122	10:16:07	2260547	5	3	3	3	1	2	3	1	3	6	3	0	0	0	0	6	5
102612	10:16:07	10003	DigitSpanFr6mo	Score3Fr6mo	13	DS1	6417	0	122	10:16:07	2272644	5	3	3	3	1	2	3	1	3	6	3	0	0	0	0	6	5
102612	10:16:07	10003	DigitSpanFr6mo	Gate5Fr6mo	13	0	1	0	122	10:16:07	2272649	5	3	3	3	1	2	3	1	3	6	4	0	0	0	0	6	5
102612	10:16:07	10003	DigitSpanFr6mo	Score4Fr6mo	13	DS1	9527	0	122	10:16:07	2289104	5	3	3	3	1	2	3	1	3	6	4	0	0	0	0	6	5
102612	10:16:07	10003	DigitSpanFr6mo	Gate7Fr6mo	13	0	1	0	122	10:16:07	2289108	5	3	3	3	1	2	3	1	3	6	5	0	0	0	0	6	5
102612	10:16:07	10003	DigitSpanFr6mo	Score5Fr6mo	13	DS2	8133	0	122	10:16:07	2305711	5	3	3	3	1	2	3	1	3	6	5	0	0	0	0	6	5
102612	10:16:07	10003	DigitSpanFr6mo	Gate9Fr6mo	13	0	1	0	122	10:16:07	2305715	5	3	3	3	1	2	3	1	3	6	5	0	0	0	0	6	5
102612	10:16:07	10003	DigitSpanFr6mo	Score55Fr6mo	13	DS2	17753	0	122	10:16:07	2331634	5	3	3	3	1	2	3	1	3	6	5	0	0	0	0	6	5
102612	10:16:07	10003	Trial	ResponseIL	14	0	175	0	122	10:16:07	2396207	5	3	3	3	1	2	3	1	3	6	5	0	0	0	0	6	5
102612	10:16:07	10003	Trial	IncongruentLeft	14	203	366	1	122	10:16:07	2396594	5	3	3	3	1	2	3	1	3	6	5	0	0	0	0	6	5
102612	10:16:07	10003	Trial	ResponseCR	14	0	175	0	122	10:16:07	2397913	5	3	3	3	1	2	3	1	3	6	5	0	0	0	0	6	5
102612	10:16:07	10003	Trial	CongruentRight	14	205	211	1	122	10:16:07	2398153	5	3	3	3	1	2	3	1	3	6	5	0	0	0	0	6	5
102612	10:16:07	10003	Trial	ResponseIR	14	0	175	0	122	10:16:07	2399619	5	3	3	3	1	2	3	1	3	6	5	0	0	0	0	6	5
102612	10:16:07	10003	Trial	IncongruentRight	14	205	265	1	122	10:16:07	2399913	5	3	3	3	1	2	3	1	3	6	5	0	0	0	0	6	5
102612	10:16:07	10003	Trial	ResponseCL	14	0	175	0	122	10:16:07	2401325	5	3	3	3	1	2	3	1	3	6	5	0	0	0	0	6	5
102612	10:16:07	10003	Trial	CongruentLeft	14	203	224	1	122	10:16:07	2401565	5	3	3	3	1	2	3	1	3	6	5	0	0	0	0	6	5
102612	10:16:07	10003	Trial	ResponseCR	14	0	175	0	122	10:16:07	2403031	5	3	3	3	1	2	3	1	3	6	5	0	0	0	0	6	5
102612	10:16:07	10003	Trial	CongruentRight	14	205	149	1	122	10:16:07	2403205	5	3	3	3	1	2	3	1	3	6	5	0	0	0	0	6	5
102612	10:16:07	10003	Trial	ResponseIR	14	0	175	0	122	10:16:07	2404737	5	3	3	3	1	2	3	1	3	6	5	0	0	0	0	6	5
102612	10:16:07	10003	Trial	IncongruentRight	14	205	219	1	122	10:16:07	2404977	5	3	3	3	1	2	3	1	3	6	5	0	0	0	0	6	5
102612	10:16:07	10003	Trial	ResponseCL	14	0	175	0	122	10:16:07	2406443	5	3	3	3	1	2	3	1	3	6	5	0	0	0	0	6	5
102612	10:16:07	10003	Trial	CongruentLeft	14	203	145	1	122	10:16:07	2406617	5	3	3	3	1	2	3	1	3	6	5	0	0	0	0	6	5
102612	10:16:07	10003	Trial	ResponseIL	14	0	175	0	122	10:16:07	2408149	5	3	3	3	1	2	3	1	3	6	5	0	0	0	0	6	5
102612	10:16:07	10003	Trial	IncongruentLeft	14	205	151	0	122	10:16:07	2408322	5	3	3	3	1	2	3	1	3	6	5	0	0	0	0	6	5
102612	10:16:07	10003	Trial	ResponseIL	14	0	175	0	122	10:16:07	2409855	5	3	3	3	1	2	3	1	3	6	5	0	0	0	0	6	5
102612	10:16:07	10003	Trial	IncongruentLeft	14	203	253	1	122	10:16:07	2410135	5	3	3	3	1	2	3	1	3	6	5	0	0	0	0	6	5
102612	10:16:07	10003	Trial	ResponseCR	14	0	175	0	122	10:16:07	2411561	5	3	3	3	1	2	3	1	3	6	5	0	0	0	0	6	5
102612	10:16:07	10003	Trial	CongruentRight	14	205	163	1	122	10:16:07	2411748	5	3	3	3	1	2	3	1	3	6	5	0	0	0	0	6	5
102612	10:16:07	10003	Trial	ResponseIR	14	0	175	0	122	10:16:07	2413267	5	3	3	3	1	2	3	1	3	6	5	0	0	0	0	6	5
102612	10:16:07	10003	Trial	IncongruentRight	14	205	169	1	122	10:16:07	2413454	5	3	3	3	1	2	3	1	3	6	5	0	0	0	0	6	5
102612	10:16:07	10003	Trial	ResponseCL	14	0	175	0	122	10:16:07	2414973	5	3	3	3	1	2	3	1	3	6	5	0	0	0	0	6	5
102612	10:16:07	10003	Trial	CongruentLeft	14	203	160	1	122	10:16:07	2415160	5	3	3	3	1	2	3	1	3	6	5	0	0	0	0	6	5
102612	10:16:07	10003	Trial	ResponseCR	14	0	175	0	122	10:16:07	2416679	5	3	3	3	1	2	3	1	3	6	5	0	0	0	0	6	5
102612	10:16:07	10003	Trial	CongruentRight	14	205	165	1	122	10:16:07	2416866	5	3	3	3	1	2	3	1	3	6	5	0	0	0	0	6	5
102612	10:16:07	10003	Trial	ResponseIL	14	0	175	0	122	10:16:07	2418385	5	3	3	3	1	2	3	1	3	6	5	0	0	0	0	6	5
102612	10:16:07	10003	Trial	IncongruentLeft	14	205	155	0	122	10:16:07	2418558	5	3	3	3	1	2	3	1	3	6	5	0	0	0	0	6	5
102612	10:16:07	10003	Trial	ResponseIR	14	0	175	0	122	10:16:07	2420091	5	3	3	3	1	2	3	1	3	6	5	0	0	0	0	6	5
102612	10:16:07	10003	Trial	IncongruentRight	14	205	193	1	122	10:16:07	2420304	5	3	3	3	1	2	3	1	3	6	5	0	0	0	0	6	5
102612	10:16:07	10003	Trial	ResponseCR	14	0	175	0	122	10:16:07	2421797	5	3	3	3	1	2	3	1	3	6	5	0	0	0	0	6	5
102612	10:16:07	10003	Trial	CongruentRight	14	205	247	1	122	10:16:07	2422064	5	3	3	3	1	2	3	1	3	6	5	0	0	0	0	6	5
102612	10:16:07	10003	Trial	ResponseCL	14	0	175	0	122	10:16:07	2423503	5	3	3	3	1	2	3	1	3	6	5	0	0	0	0	6	5
102612	10:16:07	10003	Trial	CongruentLeft	14	203	173	1	122	10:16:07	2423703	5	3	3	3	1	2	3	1	3	6	5	0	0	0	0	6	5
102612	10:16:07	10003	Trial	ResponseCR	14	0	175	0	122	10:16:07	2425209	5	3	3	3	1	2	3	1	3	6	5	0	0	0	0	6	5
102612	10:16:07	10003	Trial	CongruentRight	14	205	179	1	122	10:16:07	2425409	5	3	3	3	1	2	3	1	3	6	5	0	0	0	0	6	5
102612	10:16:07	10003	Trial	ResponseIR	14	0	175	0	122	10:16:07	2426915	5	3	3	3	1	2	3	1	3	6	5	0	0	0	0	6	5
102612	10:16:07	10003	Trial	IncongruentRight	14	203	153	0	122	10:16:07	2427088	5	3	3	3	1	2	3	1	3	6	5	0	0	0	0	6	5
102612	10:16:07	10003	Trial	ResponseIL	14	0	175	0	122	10:16:07	2428621	5	3	3	3	1	2	3	1	3	6	5	0	0	0	0	6	5
102612	10:16:07	10003	Trial	IncongruentLeft	14	203	255	1	122	10:16:07	2428901	5	3	3	3	1	2	3	1	3	6	5	0	0	0	0	6	5
102612	10:16:07	10003	Trial	ResponseIL	14	0	175	0	122	10:16:07	2430327	5	3	3	3	1	2	3	1	3	6	5	0	0	0	0	6	5
102612	10:16:07	10003	Trial	IncongruentLeft	14	203	309	1	122	10:16:07	2430660	5	3	3	3	1	2	3	1	3	6	5	0	0	0	0	6	5
102612	10:16:07	10003	Trial	ResponseCL	14	0	175	0	122	10:16:07	2432033	5	3	3	3	1	2	3	1	3	6	5	0	0	0	0	6	5
102612	10:16:07	10003	Trial	CongruentLeft	14	203	235	1	122	10:16:07	2432286	5	3	3	3	1	2	3	1	3	6	5	0	0	0	0	6	5
102612	10:16:07	10003	Trial	ResponseCR	14	0	175	0	122	10:16:07	2433739	5	3	3	3	1	2	3	1	3	6	5	0	0	0	0	6	5
102612	10:16:07	10003	Trial	CongruentRight	14	205	193	1	122	10:16:07	2433952	5	3	3	3	1	2	3	1	3	6	5	0	0	0	0	6	5
102612	10:16:07	10003	Trial	ResponseIL	14	0	175	0	122	10:16:07	2435445	5	3	3	3	1	2	3	1	3	6	5	0	0	0	0	6	5
102612	10:16:07	10003	Trial	IncongruentLeft	14	203	247	1	122	10:16:07	2435711	5	3	3	3	1	2	3	1	3	6	5	0	0	0	0	6	5
102612	10:16:07	10003	Trial	ResponseIR	14	0	175	0	122	10:16:07	2437151	5	3	3	3	1	2	3	1	3	6	5	0	0	0	0	6	5
102612	10:16:07	10003	Trial	IncongruentRight	14	205	285	1	122	10:16:07	2437457	5	3	3	3	1	2	3	1	3	6	5	0	0	0	0	6	5
102612	10:16:07	10003	Trial	ResponseCR	14	0	175	0	122	10:16:07	2438857	5	3	3	3	1	2	3	1	3	6	5	0	0	0	0	6	5
102612	10:16:07	10003	Trial	CongruentRight	14	205	243	1	122	10:16:07	2439123	5	3	3	3	1	2	3	1	3	6	5	0	0	0	0	6	5
102612	10:16:07	10003	Trial	ResponseCL	14	0	175	0	122	10:16:07	2440563	5	3	3	3	1	2	3	1	3	6	5	0	0	0	0	6	5
102612	10:16:07	10003	Trial	CongruentLeft	14	203	185	1	122	10:16:07	2440776	5	3	3	3	1	2	3	1	3	6	5	0	0	0	0	6	5
102612	10:16:07	10003	Trial	ResponseIR	14	0	175	0	122	10:16:07	2442269	5	3	3	3	1	2	3	1	3	6	5	0	0	0	0	6	5
102612	10:16:07	10003	Trial	IncongruentRight	14	203	143	0	122	10:16:07	2442429	5	3	3	3	1	2	3	1	3	6	5	0	0	0	0	6	5
102612	10:16:07	10003	Trial	ResponseIL	14	0	175	0	122	10:16:07	2443975	5	3	3	3	1	2	3	1	3	6	5	0	0	0	0	6	5
102612	10:16:07	10003	Trial	IncongruentLeft	14	203	277	1	122	10:16:07	2444268	5	3	3	3	1	2	3	1	3	6	5	0	0	0	0	6	5
102612	10:16:07	10003	Trial	ResponseIR	14	0	175	0	122	10:16:07	2445681	5	3	3	3	1	2	3	1	3	6	5	0	0	0	0	6	5
102612	10:16:07	10003	Trial	IncongruentRight	14	205	171	1	122	10:16:07	2445881	5	3	3	3	1	2	3	1	3	6	5	0	0	0	0	6	5
102612	10:16:07	10003	Trial	ResponseCR	14	0	175	0	122	10:16:07	2447387	5	3	3	3	1	2	3	1	3	6	5	0	0	0	0	6	5
102612	10:16:07	10003	Trial	CongruentRight	14	205	177	1	122	10:16:07	2447587	5	3	3	3	1	2	3	1	3	6	5	0	0	0	0	6	5
102612	10:16:07	10003	Trial	ResponseIL	14	0	175	0	122	10:16:07	2449093	5	3	3	3	1	2	3	1	3	6	5	0	0	0	0	6	5
102612	10:16:07	10003	Trial	IncongruentLeft	14	203	151	1	122	10:16:07	2449266	5	3	3	3	1	2	3	1	3	6	5	0	0	0	0	6	5
102612	10:16:07	10003	Trial	ResponseCL	14	0	175	0	122	10:16:07	2450799	5	3	3	3	1	2	3	1	3	6	5	0	0	0	0	6	5
102612	10:16:07	10003	Trial	CongruentLeft	14	203	253	1	122	10:16:07	2451079	5	3	3	3	1	2	3	1	3	6	5	0	0	0	0	6	5
102612	10:16:07	10003	Trial	ResponseCR	14	0	175	0	122	10:16:07	2452505	5	3	3	3	1	2	3	1	3	6	5	0	0	0	0	6	5
102612	10:16:07	10003	Trial	CongruentRight	14	205	195	1	122	10:16:07	2452718	5	3	3	3	1	2	3	1	3	6	5	0	0	0	0	6	5
102612	10:16:07	10003	Trial	ResponseIL	14	0	175	0	122	10:16:07	2454211	5	3	3	3	1	2	3	1	3	6	5	0	0	0	0	6	5
102612	10:16:07	10003	Trial	IncongruentLeft	14	203	190	1	122	10:16:07	2454451	5	3	3	3	1	2	3	1	3	6	5	0	0	0	0	6	5
102612	10:16:07	10003	Trial	ResponseIR	14	0	175	0	122	10:16:07	2455943	5	3	3	3	1	2	3	1	3	6	5	0	0	0	0	6	5
102612	10:16:07	10003	Trial	IncongruentRight	14	205	228	1	122	10:16:07	2456196	5	3	3	3	1	2	3	1	3	6	5	0	0	0	0	6	5
102612	10:16:07	10003	Trial	ResponseIR	14	0	175	0	122	10:16:07	2457649	5	3	3	3	1	2	3	1	3	6	5	0	0	0	0	6	5
102612	10:16:07	10003	Trial	IncongruentRight	14	205	169	1	122	10:16:07	2457836	5	3	3	3	1	2	3	1	3	6	5	0	0	0	0	6	5
102612	10:16:07	10003	Trial	ResponseCL	14	0	175	0	122	10:16:07	2459356	5	3	3	3	1	2	3	1	3	6	5	0	0	0	0	6	5
102612	10:16:07	10003	Trial	CongruentLeft	14	205	192	0	122	10:16:07	2459569	5	3	3	3	1	2	3	1	3	6	5	0	0	0	0	6	5
102612	10:16:07	10003	Trial	ResponseIL	14	0	175	0	122	10:16:07	2461061	5	3	3	3	1	2	3	1	3	6	5	0	0	0	0	6	5
102612	10:16:07	10003	Trial	IncongruentLeft	14	203	262	1	122	10:16:07	2461341	5	3	3	3	1	2	3	1	3	6	5	0	0	0	0	6	5
102612	10:16:07	10003	Trial	ResponseCR	14	0	175	0	122	10:16:07	2462767	5	3	3	3	1	2	3	1	3	6	5	0	0	0	0	6	5
102612	10:16:07	10003	Trial	CongruentRight	14	205	172	1	122	10:16:07	2462967	5	3	3	3	1	2	3	1	3	6	5	0	0	0	0	6	5
102612	10:16:07	10003	Trial	ResponseCL	14	0	175	0	122	10:16:07	2464473	5	3	3	3	1	2	3	1	3	6	5	0	0	0	0	6	5
102612	10:16:07	10003	Trial	CongruentLeft	14	203	162	1	122	10:16:07	2464660	5	3	3	3	1	2	3	1	3	6	5	0	0	0	0	6	5
102612	10:16:07	10003	Trial	ResponseIR	14	0	175	0	122	10:16:07	2466179	5	3	3	3	1	2	3	1	3	6	5	0	0	0	0	6	5
102612	10:16:07	10003	Trial	IncongruentRight	14	205	120	1	122	10:16:07	2466326	5	3	3	3	1	2	3	1	3	6	5	0	0	0	0	6	5
102612	10:16:07	10003	Trial	ResponseCR	14	0	175	0	122	10:16:07	2467886	5	3	3	3	1	2	3	1	3	6	5	0	0	0	0	6	5
102612	10:16:07	10003	Trial	CongruentRight	14	205	205	1	122	10:16:07	2468112	5	3	3	3	1	2	3	1	3	6	5	0	0	0	0	6	5
102612	10:16:07	10003	Trial	ResponseIL	14	0	175	0	122	10:16:07	2469591	5	3	3	3	1	2	3	1	3	6	5	0	0	0	0	6	5
102612	10:16:07	10003	Trial	IncongruentLeft	14	203	164	1	122	10:16:07	2469778	5	3	3	3	1	2	3	1	3	6	5	0	0	0	0	6	5
102612	10:16:07	10003	Trial	ResponseCL	14	0	175	0	122	10:16:07	2471297	5	3	3	3	1	2	3	1	3	6	5	0	0	0	0	6	5
102612	10:16:07	10003	Trial	CongruentLeft	14	203	218	1	122	10:16:07	2471537	5	3	3	3	1	2	3	1	3	6	5	0	0	0	0	6	5
102612	10:16:07	10003	Trial	ResponseIL	14	0	175	0	122	10:16:07	2473003	5	3	3	3	1	2	3	1	3	6	5	0	0	0	0	6	5
102612	10:16:07	10003	Trial	IncongruentLeft	14	203	224	1	122	10:16:07	2473256	5	3	3	3	1	2	3	1	3	6	5	0	0	0	0	6	5
102612	10:16:07	10003	Trial	ResponseIR	14	0	175	0	122	10:16:07	2474722	5	3	3	3	1	2	3	1	3	6	5	0	0	0	0	6	5
102612	10:16:07	10003	Trial	IncongruentRight	14	203	153	0	122	10:16:07	2474896	5	3	3	3	1	2	3	1	3	6	5	0	0	0	0	6	5
102612	10:16:07	10003	Trial	ResponseCR	14	0	175	0	122	10:16:07	2476429	5	3	3	3	1	2	3	1	3	6	5	0	0	0	0	6	5
102612	10:16:07	10003	Trial	CongruentRight	14	205	207	1	122	10:16:07	2476655	5	3	3	3	1	2	3	1	3	6	5	0	0	0	0	6	5
102612	10:16:07	10003	Trial	ResponseCL	14	0	175	0	122	10:16:07	2478134	5	3	3	3	1	2	3	1	3	6	5	0	0	0	0	6	5
102612	10:16:07	10003	Trial	CongruentLeft	14	203	229	1	122	10:16:07	2478387	5	3	3	3	1	2	3	1	3	6	5	0	0	0	0	6	5
102612	10:16:07	10003	Trial	ResponseCL	14	0	175	0	122	10:16:07	2479840	5	3	3	3	1	2	3	1	3	6	5	0	0	0	0	6	5
102612	10:16:07	10003	Trial	CongruentLeft	14	203	218	1	122	10:16:07	2480080	5	3	3	3	1	2	3	1	3	6	5	0	0	0	0	6	5
102612	10:16:07	10003	Trial	ResponseIR	14	0	175	0	122	10:16:07	2481546	5	3	3	3	1	2	3	1	3	6	5	0	0	0	0	6	5
102612	10:16:07	10003	Trial	IncongruentRight	14	205	225	1	122	10:16:07	2481800	5	3	3	3	1	2	3	1	3	6	5	0	0	0	0	6	5
102612	10:16:07	10003	Trial	ResponseIL	14	0	175	0	122	10:16:07	2483252	5	3	3	3	1	2	3	1	3	6	5	0	0	0	0	6	5
102612	10:16:07	10003	Trial	IncongruentLeft	14	203	135	1	122	10:16:07	2483412	5	3	3	3	1	2	3	1	3	6	5	0	0	0	0	6	5
102612	10:16:07	10003	Trial	ResponseIR	14	0	175	0	122	10:16:07	2484958	5	3	3	3	1	2	3	1	3	6	5	0	0	0	0	6	5
102612	10:16:07	10003	Trial	IncongruentRight	14	205	253	1	122	10:16:07	2485238	5	3	3	3	1	2	3	1	3	6	5	0	0	0	0	6	5
102612	10:16:07	10003	Trial	ResponseCR	14	0	175	0	122	10:16:07	2486665	5	3	3	3	1	2	3	1	3	6	5	0	0	0	0	6	5
102612	10:16:07	10003	Trial	CongruentRight	14	205	227	1	122	10:16:07	2486917	5	3	3	3	1	2	3	1	3	6	5	0	0	0	0	6	5
102612	10:16:07	10003	Trial	ResponseCR	14	0	175	0	122	10:16:07	2488370	5	3	3	3	1	2	3	1	3	6	5	0	0	0	0	6	5
102612	10:16:07	10003	Trial	CongruentRight	14	205	233	1	122	10:16:07	2488623	5	3	3	3	1	2	3	1	3	6	5	0	0	0	0	6	5
102612	10:16:07	10003	Trial	ResponseIL	14	0	175	0	122	10:16:07	2490076	5	3	3	3	1	2	3	1	3	6	5	0	0	0	0	6	5
102612	10:16:07	10003	Trial	IncongruentLeft	14	203	191	1	122	10:16:07	2490290	5	3	3	3	1	2	3	1	3	6	5	0	0	0	0	6	5
102612	10:16:07	10003	Trial	ResponseCL	14	0	175	0	122	10:16:07	2491782	5	3	3	3	1	2	3	1	3	6	5	0	0	0	0	6	5
102612	10:16:07	10003	Trial	CongruentLeft	14	203	197	1	122	10:16:07	2491995	5	3	3	3	1	2	3	1	3	6	5	0	0	0	0	6	5
102612	10:16:07	10003	Trial	ResponseCR	14	0	175	0	122	10:16:07	2493488	5	3	3	3	1	2	3	1	3	6	5	0	0	0	0	6	5
102612	10:16:07	10003	Trial	CongruentRight	14	205	187	1	122	10:16:07	2493702	5	3	3	3	1	2	3	1	3	6	5	0	0	0	0	6	5
102612	10:16:07	10003	Trial	ResponseCL	14	0	175	0	122	10:16:07	2495194	5	3	3	3	1	2	3	1	3	6	5	0	0	0	0	6	5
102612	10:16:07	10003	Trial	CongruentLeft	14	203	177	1	122	10:16:07	2495394	5	3	3	3	1	2	3	1	3	6	5	0	0	0	0	6	5
102612	10:16:07	10003	Trial	ResponseIR	14	0	175	0	122	10:16:07	2496900	5	3	3	3	1	2	3	1	3	6	5	0	0	0	0	6	5
102612	10:16:07	10003	Trial	IncongruentRight	14	205	150	1	122	10:16:07	2497073	5	3	3	3	1	2	3	1	3	6	5	0	0	0	0	6	5
102612	10:16:07	10003	Trial	ResponseCR	14	0	175	0	122	10:16:07	2498606	5	3	3	3	1	2	3	1	3	6	5	0	0	0	0	6	5
102612	10:16:07	10003	Trial	CongruentRight	14	205	157	1	122	10:16:07	2498779	5	3	3	3	1	2	3	1	3	6	5	0	0	0	0	6	5
102612	10:16:07	10003	Trial	ResponseCL	14	0	175	0	122	10:16:07	2500312	5	3	3	3	1	2	3	1	3	6	5	0	0	0	0	6	5
102612	10:16:07	10003	Trial	CongruentLeft	14	203	131	1	122	10:16:07	2500458	5	3	3	3	1	2	3	1	3	6	5	0	0	0	0	6	5
102612	10:16:07	10003	Trial	ResponseIL	14	0	175	0	122	10:16:07	2502018	5	3	3	3	1	2	3	1	3	6	5	0	0	0	0	6	5
102612	10:16:07	10003	Trial	IncongruentLeft	14	205	216	0	122	10:16:07	2502258	5	3	3	3	1	2	3	1	3	6	5	0	0	0	0	6	5
102612	10:16:07	10003	Trial	ResponseIL	14	0	175	0	122	10:16:07	2503724	5	3	3	3	1	2	3	1	3	6	5	0	0	0	0	6	5
102612	10:16:07	10003	Trial	IncongruentLeft	14	203	271	1	122	10:16:07	2504017	5	3	3	3	1	2	3	1	3	6	5	0	0	0	0	6	5
102612	10:16:07	10003	Trial	ResponseCR	14	0	175	0	122	10:16:07	2505430	5	3	3	3	1	2	3	1	3	6	5	0	0	0	0	6	5
102612	10:16:07	10003	Trial	CongruentRight	14	205	165	1	122	10:16:07	2505617	5	3	3	3	1	2	3	1	3	6	5	0	0	0	0	6	5
102612	10:16:07	10003	Trial	ResponseIR	14	0	175	0	122	10:16:07	2507136	5	3	3	3	1	2	3	1	3	6	5	0	0	0	0	6	5
102612	10:16:07	10003	Trial	IncongruentRight	14	205	122	1	122	10:16:07	2507283	5	3	3	3	1	2	3	1	3	6	5	0	0	0	0	6	5
102612	10:16:07	10003	Trial	ResponseCL	14	0	175	0	122	10:16:07	2508842	5	3	3	3	1	2	3	1	3	6	5	0	0	0	0	6	5
102612	10:16:07	10003	Trial	CongruentLeft	14	203	128	1	122	10:16:07	2508989	5	3	3	3	1	2	3	1	3	6	5	0	0	0	0	6	5
102612	10:16:07	10003	Trial	ResponseIR	14	0	175	0	122	10:16:07	2510548	5	3	3	3	1	2	3	1	3	6	5	0	0	0	0	6	5
102612	10:16:07	10003	Trial	IncongruentRight	14	203	87	0	122	10:16:07	2510655	5	3	3	3	1	2	3	1	3	6	5	0	0	0	0	6	5
102612	10:16:07	10003	Trial	ResponseCR	14	0	175	0	122	10:16:07	2512254	5	3	3	3	1	2	3	1	3	6	5	0	0	0	0	6	5
102612	10:16:07	10003	Trial	CongruentRight	14	205	188	1	122	10:16:07	2512467	5	3	3	3	1	2	3	1	3	6	5	0	0	0	0	6	5
102612	10:16:07	10003	Trial	ResponseIL	14	0	175	0	122	10:16:07	2513960	5	3	3	3	1	2	3	1	3	6	5	0	0	0	0	6	5
102612	10:16:07	10003	Trial	IncongruentLeft	14	203	258	1	122	10:16:07	2514240	5	3	3	3	1	2	3	1	3	6	5	0	0	0	0	6	5
102612	10:16:07	10003	Trial	ResponseCL	14	0	175	0	122	10:16:07	2515666	5	3	3	3	1	2	3	1	3	6	5	0	0	0	0	6	5
102612	10:16:07	10003	Trial	CongruentLeft	14	203	232	1	122	10:16:07	2515919	5	3	3	3	1	2	3	1	3	6	5	0	0	0	0	6	5
102612	10:16:07	10003	Trial	ResponseCR	14	0	175	0	122	10:16:07	2517372	5	3	3	3	1	2	3	1	3	6	5	0	0	0	0	6	5
102612	10:16:07	10003	Trial	CongruentRight	14	205	159	1	122	10:16:07	2517558	5	3	3	3	1	2	3	1	3	6	5	0	0	0	0	6	5
102612	10:16:07	10003	Trial	ResponseIL	14	0	175	0	122	10:16:07	2519078	5	3	3	3	1	2	3	1	3	6	5	0	0	0	0	6	5
102612	10:16:07	10003	Trial	IncongruentLeft	14	205	228	0	122	10:16:07	2519331	5	3	3	3	1	2	3	1	3	6	5	0	0	0	0	6	5
102612	10:16:07	10003	Trial	ResponseCR	14	0	175	0	122	10:16:07	2520784	5	3	3	3	1	2	3	1	3	6	5	0	0	0	0	6	5
102612	10:16:07	10003	Trial	CongruentRight	14	205	170	1	122	10:16:07	2520970	5	3	3	3	1	2	3	1	3	6	5	0	0	0	0	6	5
102612	10:16:07	10003	Trial	ResponseCR	14	0	175	0	122	10:16:07	2522490	5	3	3	3	1	2	3	1	3	6	5	0	0	0	0	6	5
102612	10:16:07	10003	Trial	CongruentRight	14	205	208	1	122	10:16:07	2522716	5	3	3	3	1	2	3	1	3	6	5	0	0	0	0	6	5
102612	10:16:07	10003	Trial	ResponseIR	14	0	175	0	122	10:16:07	2524196	5	3	3	3	1	2	3	1	3	6	5	0	0	0	0	6	5
102612	10:16:07	10003	Trial	IncongruentRight	14	205	166	1	122	10:16:07	2524382	5	3	3	3	1	2	3	1	3	6	5	0	0	0	0	6	5
102612	10:16:07	10003	Trial	ResponseCL	14	0	175	0	122	10:16:07	2525902	5	3	3	3	1	2	3	1	3	6	5	0	0	0	0	6	5
102612	10:16:07	10003	Trial	CongruentLeft	14	203	188	1	122	10:16:07	2526115	5	3	3	3	1	2	3	1	3	6	5	0	0	0	0	6	5
102612	10:16:07	10003	Trial	ResponseIL	14	0	175	0	122	10:16:07	2527608	5	3	3	3	1	2	3	1	3	6	5	0	0	0	0	6	5
102612	10:16:07	10003	Trial	IncongruentLeft	14	203	179	1	122	10:16:07	2527808	5	3	3	3	1	2	3	1	3	6	5	0	0	0	0	6	5
102612	10:16:07	10003	Trial	ResponseCL	14	0	175	0	122	10:16:07	2529314	5	3	3	3	1	2	3	1	3	6	5	0	0	0	0	6	5
102612	10:16:07	10003	Trial	CongruentLeft	14	203	248	1	122	10:16:07	2529580	5	3	3	3	1	2	3	1	3	6	5	0	0	0	0	6	5
102612	10:16:07	10003	Trial	ResponseIR	14	0	175	0	122	10:16:07	2531020	5	3	3	3	1	2	3	1	3	6	5	0	0	0	0	6	5
102612	10:16:07	10003	Trial	IncongruentRight	14	205	255	1	122	10:16:07	2531299	5	3	3	3	1	2	3	1	3	6	5	0	0	0	0	6	5
102612	10:16:07	10003	Trial	ResponseIL	14	0	175	0	122	10:16:07	2532726	5	3	3	3	1	2	3	1	3	6	5	0	0	0	0	6	5
102612	10:16:07	10003	Trial	IncongruentLeft	14	203	212	1	122	10:16:07	2532966	5	3	3	3	1	2	3	1	3	6	5	0	0	0	0	6	5
102612	10:16:07	10003	Trial	ResponseCR	14	0	175	0	122	10:16:07	2534432	5	3	3	3	1	2	3	1	3	6	5	0	0	0	0	6	5
102612	10:16:07	10003	Trial	CongruentRight	14	205	218	1	122	10:16:07	2534672	5	3	3	3	1	2	3	1	3	6	5	0	0	0	0	6	5
102612	10:16:07	10003	Trial	ResponseCL	14	0	175	0	122	10:16:07	2536138	5	3	3	3	1	2	3	1	3	6	5	0	0	0	0	6	5
102612	10:16:07	10003	Trial	CongruentLeft	14	203	176	1	122	10:16:07	2536338	5	3	3	3	1	2	3	1	3	6	5	0	0	0	0	6	5
102612	10:16:07	10003	Trial	ResponseIL	14	0	175	0	122	10:16:07	2537844	5	3	3	3	1	2	3	1	3	6	5	0	0	0	0	6	5
102612	10:16:07	10003	Trial	IncongruentLeft	14	205	262	0	122	10:16:07	2538123	5	3	3	3	1	2	3	1	3	6	5	0	0	0	0	6	5
102612	10:16:07	10003	Trial	ResponseCL	14	0	175	0	122	10:16:07	2539550	5	3	3	3	1	2	3	1	3	6	5	0	0	0	0	6	5
102612	10:16:07	10003	Trial	CongruentLeft	14	203	236	1	122	10:16:07	2539803	5	3	3	3	1	2	3	1	3	6	5	0	0	0	0	6	5
102612	10:16:07	10003	Trial	ResponseIR	14	0	175	0	122	10:16:07	2541255	5	3	3	3	1	2	3	1	3	6	5	0	0	0	0	6	5
102612	10:16:07	10003	Trial	IncongruentRight	14	205	226	1	122	10:16:07	2541509	5	3	3	3	1	2	3	1	3	6	5	0	0	0	0	6	5
102612	10:16:07	10003	Trial	ResponseCR	14	0	175	0	122	10:16:07	2542962	5	3	3	3	1	2	3	1	3	6	5	0	0	0	0	6	5
102612	10:16:07	10003	Trial	CongruentRight	14	205	232	1	122	10:16:07	2543215	5	3	3	3	1	2	3	1	3	6	5	0	0	0	0	6	5
102612	10:16:07	10003	Trial	ResponseIL	14	0	175	0	122	10:16:07	2544668	5	3	3	3	1	2	3	1	3	6	5	0	0	0	0	6	5
102612	10:16:07	10003	Trial	IncongruentLeft	14	203	270	1	122	10:16:07	2544961	5	3	3	3	1	2	3	1	3	6	5	0	0	0	0	6	5
102612	10:16:07	10003	Trial	ResponseCL	14	0	175	0	122	10:16:07	2546374	5	3	3	3	1	2	3	1	3	6	5	0	0	0	0	6	5
102612	10:16:07	10003	Trial	CongruentLeft	14	203	180	1	122	10:16:07	2546573	5	3	3	3	1	2	3	1	3	6	5	0	0	0	0	6	5
102612	10:16:07	10003	Trial	ResponseIR	14	0	175	0	122	10:16:07	2548080	5	3	3	3	1	2	3	1	3	6	5	0	0	0	0	6	5
102612	10:16:07	10003	Trial	IncongruentRight	14	205	154	1	122	10:16:07	2548253	5	3	3	3	1	2	3	1	3	6	5	0	0	0	0	6	5
102612	10:16:07	10003	Trial	ResponseIL	14	0	175	0	122	10:16:07	2549785	5	3	3	3	1	2	3	1	3	6	5	0	0	0	0	6	5
102612	10:16:07	10003	Trial	IncongruentLeft	14	203	224	1	122	10:16:07	2550039	5	3	3	3	1	2	3	1	3	6	5	0	0	0	0	6	5
102612	10:16:07	10003	Trial	ResponseCL	14	0	175	0	122	10:16:07	2551491	5	3	3	3	1	2	3	1	3	6	5	0	0	0	0	6	5
102612	10:16:07	10003	Trial	CongruentLeft	14	203	166	1	122	10:16:07	2551678	5	3	3	3	1	2	3	1	3	6	5	0	0	0	0	6	5
102612	10:16:07	10003	Trial	ResponseIL	14	0	175	0	122	10:16:07	2553197	5	3	3	3	1	2	3	1	3	6	5	0	0	0	0	6	5
102612	10:16:07	10003	Trial	IncongruentLeft	14	203	188	1	122	10:16:07	2553411	5	3	3	3	1	2	3	1	3	6	5	0	0	0	0	6	5
102612	10:16:07	10003	Trial	ResponseCR	14	0	175	0	122	10:16:07	2554903	5	3	3	3	1	2	3	1	3	6	5	0	0	0	0	6	5
102612	10:16:07	10003	Trial	CongruentRight	14	205	178	1	122	10:16:07	2555103	5	3	3	3	1	2	3	1	3	6	5	0	0	0	0	6	5
102612	10:16:07	10003	Trial	ResponseCL	14	0	175	0	122	10:16:07	2556609	5	3	3	3	1	2	3	1	3	6	5	0	0	0	0	6	5
102612	10:16:07	10003	Trial	CongruentLeft	14	203	216	1	122	10:16:07	2556849	5	3	3	3	1	2	3	1	3	6	5	0	0	0	0	6	5
102612	10:16:07	10003	Trial	ResponseIR	14	0	175	0	122	10:16:07	2558315	5	3	3	3	1	2	3	1	3	6	5	0	0	0	0	6	5
102612	10:16:07	10003	Trial	IncongruentRight	14	205	270	1	122	10:16:07	2558608	5	3	3	3	1	2	3	1	3	6	5	0	0	0	0	6	5
102612	10:16:07	10003	Trial	ResponseCL	14	0	175	0	122	10:16:07	2560021	5	3	3	3	1	2	3	1	3	6	5	0	0	0	0	6	5
102612	10:16:07	10003	Trial	CongruentLeft	14	203	132	1	122	10:16:07	2560181	5	3	3	3	1	2	3	1	3	6	5	0	0	0	0	6	5
102612	10:16:07	10003	Trial	ResponseCR	14	0	175	0	122	10:16:07	2561727	5	3	3	3	1	2	3	1	3	6	5	0	0	0	0	6	5
102612	10:16:07	10003	Trial	CongruentRight	14	205	90	1	122	10:16:07	2561834	5	3	3	3	1	2	3	1	3	6	5	0	0	0	0	6	5
102612	10:16:07	10003	Trial	ResponseIL	14	0	175	0	122	10:16:07	2563433	5	3	3	3	1	2	3	1	3	6	5	0	0	0	0	6	5
102612	10:16:07	10003	Trial	IncongruentLeft	14	203	112	1	122	10:16:07	2563567	5	3	3	3	1	2	3	1	3	6	5	0	0	0	0	6	5
102612	10:16:07	10003	WordsAbsFr6mo	PAbsFr6mo1	16	Abs1	4367	0	122	10:16:07	2581266	5	3	3	3	1	2	3	1	3	6	5	0	0	0	0	6	5
102612	10:16:07	10003	WordsAbsFr6mo	AbsFr6mo1	16	Abs1	3641	0	122	10:16:07	2584945	5	3	3	3	1	2	3	1	3	6	5	1	0	0	0	6	5
102612	10:16:07	10003	WordsAbsFr6mo	AbsFr6mo2	16	Abs1	18490	0	122	10:16:07	2603470	5	3	3	3	1	2	3	1	3	6	5	2	0	0	0	6	5
102612	10:16:07	10003	WordsAbsFr6mo	AbsFr6mo3	16	Abs1	6508	0	122	10:16:07	2610014	5	3	3	3	1	2	3	1	3	6	5	3	0	0	0	6	5
102612	10:16:07	10003	Trial2BackFrS	NS	17	0	1000	1	122	10:16:07	2649998	5	3	3	3	1	2	3	1	3	6	5	3	0	0	0	6	5
102612	10:16:07	10003	Trial2BackFrS	NS	17	0	1000	1	122	10:16:07	2651504	5	3	3	3	1	2	3	1	3	6	5	3	0	0	0	6	5
102612	10:16:07	10003	Trial2BackFrS	NS	17	0	1000	1	122	10:16:07	2653010	5	3	3	3	1	2	3	1	3	6	5	3	0	0	0	6	5
102612	10:16:07	10003	Trial2BackFrS	YS	17	57	489	1	122	10:16:07	2654010	5	3	3	3	1	2	3	1	3	6	5	3	0	0	0	6	5
102612	10:16:07	10003	Trial2BackFrS	NS	17	0	1000	1	122	10:16:07	2656022	5	3	3	3	1	2	3	1	3	6	5	3	0	0	0	6	5
102612	10:16:07	10003	Trial2BackFrS	NS	17	0	1000	1	122	10:16:07	2657529	5	3	3	3	1	2	3	1	3	6	5	3	0	0	0	6	5
102612	10:16:07	10003	Trial2BackFrS	NS	17	0	1000	1	122	10:16:07	2659048	5	3	3	3	1	2	3	1	3	6	5	3	0	0	0	6	5
102612	10:16:07	10003	Trial2BackFrS	NS	17	0	1000	1	122	10:16:07	2660554	5	3	3	3	1	2	3	1	3	6	5	3	0	0	0	6	5
102612	10:16:07	10003	Trial2BackFrS	YS	17	57	546	1	122	10:16:07	2661620	5	3	3	3	1	2	3	1	3	6	5	3	0	0	0	6	5
102612	10:16:07	10003	Trial2BackFrS	NS	17	0	1000	1	122	10:16:07	2663566	5	3	3	3	1	2	3	1	3	6	5	3	0	0	0	6	5
102612	10:16:07	10003	Trial2BackFrS	NS	17	0	1000	1	122	10:16:07	2665072	5	3	3	3	1	2	3	1	3	6	5	3	0	0	0	6	5
102612	10:16:07	10003	Trial2BackFrS	YS	17	0	1000	0	122	10:16:07	2666578	5	3	3	3	1	2	3	1	3	6	5	3	0	0	0	6	5
102612	10:16:07	10003	Trial2BackFrS	NS	17	0	1000	1	122	10:16:07	2668084	5	3	3	3	1	2	3	1	3	6	5	3	0	0	0	6	5
102612	10:16:07	10003	Trial2BackFrS	NS	17	0	1000	1	122	10:16:07	2669604	5	3	3	3	1	2	3	1	3	6	5	3	0	0	0	6	5
102612	10:16:07	10003	Trial2BackFrS	NS	17	0	1000	1	122	10:16:07	2671110	5	3	3	3	1	2	3	1	3	6	5	3	0	0	0	6	5
102612	10:16:07	10003	Trial2BackFrS	YS	17	57	501	1	122	10:16:07	2672122	5	3	3	3	1	2	3	1	3	6	5	3	0	0	0	6	5
102612	10:16:07	10003	Trial2BackFrS	NS	17	0	1000	1	122	10:16:07	2674122	5	3	3	3	1	2	3	1	3	6	5	3	0	0	0	6	5
102612	10:16:07	10003	Trial2BackFrS	NS	17	0	1000	1	122	10:16:07	2675628	5	3	3	3	1	2	3	1	3	6	5	3	0	0	0	6	5
102612	10:16:07	10003	Trial2BackFrS	NS	17	0	1000	1	122	10:16:07	2677134	5	3	3	3	1	2	3	1	3	6	5	3	0	0	0	6	5
102612	10:16:07	10003	Trial2BackFrS	NS	17	0	1000	1	122	10:16:07	2678640	5	3	3	3	1	2	3	1	3	6	5	3	0	0	0	6	5
102612	10:16:07	10003	Trial2BackFrS	YS	17	57	475	1	122	10:16:07	2679626	5	3	3	3	1	2	3	1	3	6	5	3	0	0	0	6	5
102612	10:16:07	10003	Trial2BackFrS	NS	17	0	1000	1	122	10:16:07	2681652	5	3	3	3	1	2	3	1	3	6	5	3	0	0	0	6	5
102612	10:16:07	10003	Trial2BackFrS	NS	17	0	1000	1	122	10:16:07	2683158	5	3	3	3	1	2	3	1	3	6	5	3	0	0	0	6	5
102612	10:16:07	10003	Trial2BackFrS	NS	17	0	1000	1	122	10:16:07	2684664	5	3	3	3	1	2	3	1	3	6	5	3	0	0	0	6	5
102612	10:16:07	10003	Trial2BackFrS	NS	17	57	435	0	122	10:16:07	2685610	5	3	3	3	1	2	3	1	3	6	5	3	0	0	0	6	5
102612	10:16:07	10003	Trial2BackFrS	NS	17	0	1000	1	122	10:16:07	2687676	5	3	3	3	1	2	3	1	3	6	5	3	0	0	0	6	5
102612	10:16:07	10003	Trial2BackFrS	NS	17	0	1000	1	122	10:16:07	2689182	5	3	3	3	1	2	3	1	3	6	5	3	0	0	0	6	5
102612	10:16:07	10003	Trial2BackFrS	NS	17	0	1000	1	122	10:16:07	2690688	5	3	3	3	1	2	3	1	3	6	5	3	0	0	0	6	5
102612	10:16:07	10003	Trial2BackFrS	NS	17	57	634	0	122	10:16:07	2691835	5	3	3	3	1	2	3	1	3	6	5	3	0	0	0	6	5
102612	10:16:07	10003	Trial2BackFrS	NS	17	0	1000	1	122	10:16:07	2693701	5	3	3	3	1	2	3	1	3	6	5	3	0	0	0	6	5
102612	10:16:07	10003	Trial2BackFrS	NS	17	0	1000	1	122	10:16:07	2695207	5	3	3	3	1	2	3	1	3	6	5	3	0	0	0	6	5
102612	10:16:07	10003	Trial2BackFrS	YS	17	0	1000	0	122	10:16:07	2696713	5	3	3	3	1	2	3	1	3	6	5	3	0	0	0	6	5
102612	10:16:07	10003	Trial2BackFrS	NS	17	0	1000	1	122	10:16:07	2698219	5	3	3	3	1	2	3	1	3	6	5	3	0	0	0	6	5
102612	10:16:07	10003	Trial2BackFrS	NS	17	0	1000	1	122	10:16:07	2699725	5	3	3	3	1	2	3	1	3	6	5	3	0	0	0	6	5
102612	10:16:07	10003	Trial2BackFrS	NS	17	0	1000	1	122	10:16:07	2701231	5	3	3	3	1	2	3	1	3	6	5	3	0	0	0	6	5
102612	10:16:07	10003	Trial2BackFrS	YS	17	57	539	1	122	10:16:07	2702284	5	3	3	3	1	2	3	1	3	6	5	3	0	0	0	6	5
102612	10:16:07	10003	Trial2BackFrS	NS	17	0	1000	1	122	10:16:07	2704243	5	3	3	3	1	2	3	1	3	6	5	3	0	0	0	6	5
102612	10:16:07	10003	Trial2BackFrS	NS	17	0	1000	1	122	10:16:07	2705749	5	3	3	3	1	2	3	1	3	6	5	3	0	0	0	6	5
102612	10:16:07	10003	Trial2BackFrS	NS	17	0	1000	1	122	10:16:07	2707255	5	3	3	3	1	2	3	1	3	6	5	3	0	0	0	6	5
102612	10:16:07	10003	Trial2BackFrS	NS	17	0	1000	1	122	10:16:07	2708761	5	3	3	3	1	2	3	1	3	6	5	3	0	0	0	6	5
102612	10:16:07	10003	Trial2BackFrS	NS	17	0	1000	1	122	10:16:07	2710267	5	3	3	3	1	2	3	1	3	6	5	3	0	0	0	6	5
102612	10:16:07	10003	Trial2BackFrS	NS	17	57	575	0	122	10:16:07	2711360	5	3	3	3	1	2	3	1	3	6	5	3	0	0	0	6	5
102612	10:16:07	10003	Trial2BackFrS	NS	17	0	1000	1	122	10:16:07	2713279	5	3	3	3	1	2	3	1	3	6	5	3	0	0	0	6	5
102612	10:16:07	10003	Trial2BackFrS	YS	17	0	1000	0	122	10:16:07	2714799	5	3	3	3	1	2	3	1	3	6	5	3	0	0	0	6	5
102612	10:16:07	10003	Trial2BackFrS	NS	17	0	1000	1	122	10:16:07	2716305	5	3	3	3	1	2	3	1	3	6	5	3	0	0	0	6	5
102612	10:16:07	10003	Trial2BackFrS	NS	17	57	681	0	122	10:16:07	2717504	5	3	3	3	1	2	3	1	3	6	5	3	0	0	0	6	5
102612	10:16:07	10003	Trial2BackFrS	NS	17	0	1000	1	122	10:16:07	2719317	5	3	3	3	1	2	3	1	3	6	5	3	0	0	0	6	5
102612	10:16:07	10003	Trial2BackFrS	NS	17	0	1000	1	122	10:16:07	2720823	5	3	3	3	1	2	3	1	3	6	5	3	0	0	0	6	5
102612	10:16:07	10003	Trial2BackFrS	YS	17	57	515	1	122	10:16:07	2721849	5	3	3	3	1	2	3	1	3	6	5	3	0	0	0	6	5
102612	10:16:07	10003	Trial2BackFrS	NS	17	0	1000	1	122	10:16:07	2723835	5	3	3	3	1	2	3	1	3	6	5	3	0	0	0	6	5
102612	10:16:07	10003	Trial2BackFrS	NS	17	0	1000	1	122	10:16:07	2725341	5	3	3	3	1	2	3	1	3	6	5	3	0	0	0	6	5
102612	10:16:07	10003	Trial2BackFrS	NS	17	0	1000	1	122	10:16:07	2726847	5	3	3	3	1	2	3	1	3	6	5	3	0	0	0	6	5
102612	10:16:07	10003	Trial2BackFrS	NS	17	0	1000	1	122	10:16:07	2728353	5	3	3	3	1	2	3	1	3	6	5	3	0	0	0	6	5
102612	10:16:07	10003	Trial2BackFrS	NS	17	0	1000	1	122	10:16:07	2729859	5	3	3	3	1	2	3	1	3	6	5	3	0	0	0	6	5
102612	10:16:07	10003	Trial2BackFrS	NS	17	0	1000	1	122	10:16:07	2731365	5	3	3	3	1	2	3	1	3	6	5	3	0	0	0	6	5
102612	10:16:07	10003	Trial2BackFrS	YS	17	57	452	1	122	10:16:07	2732338	5	3	3	3	1	2	3	1	3	6	5	3	0	0	0	6	5
102612	10:16:07	10003	Trial2BackFrS	NS	17	0	1000	1	122	10:16:07	2734377	5	3	3	3	1	2	3	1	3	6	5	3	0	0	0	6	5
102612	10:16:07	10003	Trial2BackFrS	NS	17	0	1000	1	122	10:16:07	2735883	5	3	3	3	1	2	3	1	3	6	5	3	0	0	0	6	5
102612	10:16:07	10003	Trial2BackFrS	NS	17	0	1000	1	122	10:16:07	2737390	5	3	3	3	1	2	3	1	3	6	5	3	0	0	0	6	5
102612	10:16:07	10003	Trial2BackFrS	NS	17	0	1000	1	122	10:16:07	2738909	5	3	3	3	1	2	3	1	3	6	5	3	0	0	0	6	5
102612	10:16:07	10003	Trial2BackFrS	NS	17	0	1000	1	122	10:16:07	2740415	5	3	3	3	1	2	3	1	3	6	5	3	0	0	0	6	5
102612	10:16:07	10003	Trial2BackFrS	NS	17	57	506	0	122	10:16:07	2741441	5	3	3	3	1	2	3	1	3	6	5	3	0	0	0	6	5
102612	10:16:07	10003	Trial2BackFrS	NS	17	0	1000	1	122	10:16:07	2743427	5	3	3	3	1	2	3	1	3	6	5	3	0	0	0	6	5
102612	10:16:07	10003	Trial2BackFrS	YS	17	0	1000	0	122	10:16:07	2744933	5	3	3	3	1	2	3	1	3	6	5	3	0	0	0	6	5
102612	10:16:07	10003	Trial2BackFrS	NS	17	0	1000	1	122	10:16:07	2746439	5	3	3	3	1	2	3	1	3	6	5	3	0	0	0	6	5
102612	10:16:07	10003	Trial2BackFrS	NS	17	0	1000	1	122	10:16:07	2747945	5	3	3	3	1	2	3	1	3	6	5	3	0	0	0	6	5
102612	10:16:07	10003	Trial2BackFrS	NS	17	0	1000	1	122	10:16:07	2749465	5	3	3	3	1	2	3	1	3	6	5	3	0	0	0	6	5
102612	10:16:07	10003	Trial2BackFrS	NS	17	0	1000	1	122	10:16:07	2750971	5	3	3	3	1	2	3	1	3	6	5	3	0	0	0	6	5
102612	10:16:07	10003	Trial2BackFrS	YS	17	57	510	1	122	10:16:07	2751997	5	3	3	3	1	2	3	1	3	6	5	3	0	0	0	6	5
102612	10:16:07	10003	Trial2BackFrS	NS	17	0	1000	1	122	10:16:07	2753983	5	3	3	3	1	2	3	1	3	6	5	3	0	0	0	6	5
102612	10:16:07	10003	Trial2BackFrS	NS	17	0	1000	1	122	10:16:07	2755489	5	3	3	3	1	2	3	1	3	6	5	3	0	0	0	6	5
102612	10:16:07	10003	Trial2BackFrS	YS	17	57	696	1	122	10:16:07	2756702	5	3	3	3	1	2	3	1	3	6	5	3	0	0	0	6	5
102612	10:16:07	10003	Trial2BackFrS	NS	17	0	1000	1	122	10:16:07	2758501	5	3	3	3	1	2	3	1	3	6	5	3	0	0	0	6	5
102612	10:16:07	10003	Trial2BackFrS	NS	17	0	1000	1	122	10:16:07	2760020	5	3	3	3	1	2	3	1	3	6	5	3	0	0	0	6	5
102612	10:16:07	10003	Trial2BackFrS	NS	17	0	1000	1	122	10:16:07	2761526	5	3	3	3	1	2	3	1	3	6	5	3	0	0	0	6	5
102612	10:16:07	10003	Trial2BackFrS	NS	17	0	1000	1	122	10:16:07	2763032	5	3	3	3	1	2	3	1	3	6	5	3	0	0	0	6	5
102612	10:16:07	10003	Trial2BackFrS	NS	17	0	1000	1	122	10:16:07	2764539	5	3	3	3	1	2	3	1	3	6	5	3	0	0	0	6	5
102612	10:16:07	10003	Trial2BackFrS	NS	17	0	1000	1	122	10:16:07	2766045	5	3	3	3	1	2	3	1	3	6	5	3	0	0	0	6	5
102612	10:16:07	10003	Trial2BackFrS	YS	17	57	460	1	122	10:16:07	2767017	5	3	3	3	1	2	3	1	3	6	5	3	0	0	0	6	5
102612	10:16:07	10003	Trial2BackFrS	NS	17	0	1000	1	122	10:16:07	2769057	5	3	3	3	1	2	3	1	3	6	5	3	0	0	0	6	5
102612	10:16:07	10003	Trial2BackFrS	NS	17	0	1000	1	122	10:16:07	2770563	5	3	3	3	1	2	3	1	3	6	5	3	0	0	0	6	5
102612	10:16:07	10003	Trial2BackFrS	NS	17	0	1000	1	122	10:16:07	2772069	5	3	3	3	1	2	3	1	3	6	5	3	0	0	0	6	5
102612	10:16:07	10003	Trial2BackFrS	NS	17	0	1000	1	122	10:16:07	2773575	5	3	3	3	1	2	3	1	3	6	5	3	0	0	0	6	5
102612	10:16:07	10003	Trial2BackFrS	YS	17	57	466	1	122	10:16:07	2774561	5	3	3	3	1	2	3	1	3	6	5	3	0	0	0	6	5
102612	10:16:07	10003	Trial2BackFrS	NS	17	0	1000	1	122	10:16:07	2776587	5	3	3	3	1	2	3	1	3	6	5	3	0	0	0	6	5
102612	10:16:07	10003	Trial2BackFrS	NS	17	0	1000	1	122	10:16:07	2778106	5	3	3	3	1	2	3	1	3	6	5	3	0	0	0	6	5
102612	10:16:07	10003	Trial2BackFrS	NS	17	0	1000	1	122	10:16:07	2779612	5	3	3	3	1	2	3	1	3	6	5	3	0	0	0	6	5
102612	10:16:07	10003	Trial2BackFrS	NS	17	57	444	0	122	10:16:07	2780572	5	3	3	3	1	2	3	1	3	6	5	3	0	0	0	6	5
102612	10:16:07	10003	Trial2BackFrS	YS	17	0	1000	0	122	10:16:07	2782625	5	3	3	3	1	2	3	1	3	6	5	3	0	0	0	6	5
102612	10:16:07	10003	Trial2BackFrS	NS	17	0	1000	1	122	10:16:07	2784131	5	3	3	3	1	2	3	1	3	6	5	3	0	0	0	6	5
102612	10:16:07	10003	Trial2BackFrS	NS	17	0	1000	1	122	10:16:07	2785650	5	3	3	3	1	2	3	1	3	6	5	3	0	0	0	6	5
102612	10:16:07	10003	Trial2BackFrS	YS	17	0	1000	0	122	10:16:07	2787156	5	3	3	3	1	2	3	1	3	6	5	3	0	0	0	6	5
102612	10:16:07	10003	Trial2BackFrS	NS	17	0	1000	1	122	10:16:07	2788662	5	3	3	3	1	2	3	1	3	6	5	3	0	0	0	6	5
102612	10:16:07	10003	Trial2BackFrS	NS	17	0	1000	1	122	10:16:07	2790168	5	3	3	3	1	2	3	1	3	6	5	3	0	0	0	6	5
102612	10:16:07	10003	Trial2BackFrS	NS	17	0	1000	1	122	10:16:07	2791674	5	3	3	3	1	2	3	1	3	6	5	3	0	0	0	6	5
102612	10:16:07	10003	Trial2BackFrS	NS	17	57	414	0	122	10:16:07	2792607	5	3	3	3	1	2	3	1	3	6	5	3	0	0	0	6	5
102612	10:16:07	10003	Trial2BackFrS	NS	17	0	1000	1	122	10:16:07	2794686	5	3	3	3	1	2	3	1	3	6	5	3	0	0	0	6	5
102612	10:16:07	10003	Trial2BackFrS	NS	17	0	1000	1	122	10:16:07	2796192	5	3	3	3	1	2	3	1	3	6	5	3	0	0	0	6	5
102612	10:16:07	10003	Trial2BackFrS	NS	17	0	1000	1	122	10:16:07	2797698	5	3	3	3	1	2	3	1	3	6	5	3	0	0	0	6	5
102612	10:16:07	10003	Trial2BackFrS	NS	17	0	1000	1	122	10:16:07	2799204	5	3	3	3	1	2	3	1	3	6	5	3	0	0	0	6	5
102612	10:16:07	10003	Trial2BackFrS	YS	17	57	388	1	122	10:16:07	2800111	5	3	3	3	1	2	3	1	3	6	5	3	0	0	0	6	5
102612	10:16:07	10003	Trial2BackFrS	NS	17	0	1000	1	122	10:16:07	2802217	5	3	3	3	1	2	3	1	3	6	5	3	0	0	0	6	5
102612	10:16:07	10003	Trial2BackFrS	NS	17	0	1000	1	122	10:16:07	2803723	5	3	3	3	1	2	3	1	3	6	5	3	0	0	0	6	5
102612	10:16:07	10003	Trial2BackFrS	NS	17	0	1000	1	122	10:16:07	2805229	5	3	3	3	1	2	3	1	3	6	5	3	0	0	0	6	5
102612	10:16:07	10003	Trial2BackFrS	NS	17	0	1000	1	122	10:16:07	2806735	5	3	3	3	1	2	3	1	3	6	5	3	0	0	0	6	5
102612	10:16:07	10003	Trial2BackFrS	NS	17	57	441	0	122	10:16:07	2807694	5	3	3	3	1	2	3	1	3	6	5	3	0	0	0	6	5
102612	10:16:07	10003	Trial2BackFrS	NS	17	0	1000	1	122	10:16:07	2809747	5	3	3	3	1	2	3	1	3	6	5	3	0	0	0	6	5
102612	10:16:07	10003	Trial2BackFrS	NS	17	0	1000	1	122	10:16:07	2811253	5	3	3	3	1	2	3	1	3	6	5	3	0	0	0	6	5
102612	10:16:07	10003	Trial2BackFrS	YS	17	57	547	1	122	10:16:07	2812319	5	3	3	3	1	2	3	1	3	6	5	3	0	0	0	6	5
102612	10:16:07	10003	Trial2BackFrS	NS	17	0	1000	1	122	10:16:07	2814265	5	3	3	3	1	2	3	1	3	6	5	3	0	0	0	6	5
102612	10:16:07	10003	Trial2BackFrS	NS	17	0	1000	1	122	10:16:07	2815771	5	3	3	3	1	2	3	1	3	6	5	3	0	0	0	6	5
102612	10:16:07	10003	Trial2BackFrS	NS	17	0	1000	1	122	10:16:07	2817277	5	3	3	3	1	2	3	1	3	6	5	3	0	0	0	6	5
102612	10:16:07	10003	Trial2BackFrS	NS	17	0	1000	1	122	10:16:07	2818783	5	3	3	3	1	2	3	1	3	6	5	3	0	0	0	6	5
102612	10:16:07	10003	Trial2BackFrS	NS	17	0	1000	1	122	10:16:07	2820289	5	3	3	3	1	2	3	1	3	6	5	3	0	0	0	6	5
102612	10:16:07	10003	Trial2BackFrS	NS	17	0	1000	1	122	10:16:07	2821795	5	3	3	3	1	2	3	1	3	6	5	3	0	0	0	6	5
102612	10:16:07	10003	Trial2BackFrS	NS	17	0	1000	1	122	10:16:07	2823301	5	3	3	3	1	2	3	1	3	6	5	3	0	0	0	6	5
102612	10:16:07	10003	Trial2BackFrS	NS	17	0	1000	1	122	10:16:07	2824807	5	3	3	3	1	2	3	1	3	6	5	3	0	0	0	6	5
102612	10:16:07	10003	Trial2BackFrS	NS	17	0	1000	1	122	10:16:07	2826327	5	3	3	3	1	2	3	1	3	6	5	3	0	0	0	6	5
102612	10:16:07	10003	Trial2BackFrS	YS	17	0	1000	0	122	10:16:07	2827833	5	3	3	3	1	2	3	1	3	6	5	3	0	0	0	6	5
102612	10:16:07	10003	Trial2BackFrS	NS	17	0	1000	1	122	10:16:07	2829339	5	3	3	3	1	2	3	1	3	6	5	3	0	0	0	6	5
102612	10:16:07	10003	ClockFr6mo	ClockFr6mo	19	Clock1	73314	0	122	10:16:07	2902789	5	3	3	3	1	2	3	1	3	6	5	3	1	0	0	6	5
102612	10:16:07	10003	ClockFr6mo	ClockFr6mo	19	Clock11	649	0	122	10:16:07	2903482	5	3	3	3	1	2	3	1	3	6	5	3	1	1	0	6	5
102612	10:16:07	10003	ClockFr6mo	ClockFr6mo	19	Clock111	540	0	122	10:16:07	2904069	5	3	3	3	1	2	3	1	3	6	5	3	1	1	1	6	5
102612	10:16:07	10003	ClockFr6mo	ClockFr6mo	19	Clockdone	5017	0	122	10:16:07	2909133	5	3	3	3	1	2	3	1	3	6	5	3	1	1	1	6	5
102612	10:16:07	10003	FASFrVF6mo	StopFrVF6mo	20	13	16163	0	122	10:16:07	3033392	5	3	3	3	1	2	3	1	3	6	5	3	1	1	1	6	5
