date	time	subject	blockcode	trialcode	values.TaskNumber	response	latency	correct	values.Score	script.starttime	script.elapsedtime	values.ScoreS7	values.Word1	values.Word2	values.Word3	values.Word4	values.Word5	values.Word6	values.Word7	values.Word8	values.DigitSpanFwrd	values.DigitSpanBack	values.ScoreAbs	values.Contour	values.Numbers	values.Hands	values.corsiblockspanFwrd	values.corsiblockspanRev
121912	13:53:35	10013	Language	Language	0	English	61614	0	0	13:53:35	61730	0	0	0	0	0	0	0	0	0	0	0	0	0	0	0	0	0
121912	13:53:35	10013	Session	Session	0	6mo	3046	0	0	13:53:35	64836	0	0	0	0	0	0	0	0	0	0	0	0	0	0	0	0	0
121912	13:53:35	10013	HandEng	HandEng	0	Right	71020	0	0	13:53:35	135914	0	0	0	0	0	0	0	0	0	0	0	0	0	0	0	0	0
121912	13:53:35	10013	CubeEng	CubeEng	1	1Cube	462505	0	0	13:53:35	609775	0	0	0	0	0	0	0	0	0	0	0	0	0	0	0	0	0
121912	13:53:35	10013	pm.simpleEngRight	blank.simpleEng	2	0	2400	1	0	13:53:35	683158	0	0	0	0	0	0	0	0	0	0	0	0	0	0	0	0	0
121912	13:53:35	10013	pm.simpleEngRight	pm.simpleEng	2	57	637	0	0	13:53:35	683825	0	0	0	0	0	0	0	0	0	0	0	0	0	0	0	0	0
121912	13:53:35	10013	pm.simpleEngRight	blank.simpleEng	2	0	2500	1	0	13:53:35	686344	0	0	0	0	0	0	0	0	0	0	0	0	0	0	0	0	0
121912	13:53:35	10013	pm.simpleEngRight	pm.simpleEng	2	57	284	0	0	13:53:35	686650	0	0	0	0	0	0	0	0	0	0	0	0	0	0	0	0	0
121912	13:53:35	10013	pm.simpleEngRight	blank.simpleEng	2	0	1700	1	0	13:53:35	688369	0	0	0	0	0	0	0	0	0	0	0	0	0	0	0	0	0
121912	13:53:35	10013	pm.simpleEngRight	pm.simpleEng	2	57	242	0	0	13:53:35	688636	0	0	0	0	0	0	0	0	0	0	0	0	0	0	0	0	0
121912	13:53:35	10013	pm.simpleEngRight	blank.simpleEng	2	0	2300	1	0	13:53:35	690955	0	0	0	0	0	0	0	0	0	0	0	0	0	0	0	0	0
121912	13:53:35	10013	pm.simpleEngRight	pm.simpleEng	2	57	248	0	0	13:53:35	691222	0	0	0	0	0	0	0	0	0	0	0	0	0	0	0	0	0
121912	13:53:35	10013	pm.simpleEngRight	blank.simpleEng	2	0	2200	1	0	13:53:35	693434	0	0	0	0	0	0	0	0	0	0	0	0	0	0	0	0	0
121912	13:53:35	10013	pm.simpleEngRight	pm.simpleEng	2	57	217	0	0	13:53:35	693674	0	0	0	0	0	0	0	0	0	0	0	0	0	0	0	0	0
121912	13:53:35	10013	pm.simpleEngRight	blank.simpleEng	2	0	1800	1	0	13:53:35	695487	0	0	0	0	0	0	0	0	0	0	0	0	0	0	0	0	0
121912	13:53:35	10013	pm.simpleEngRight	pm.simpleEng	2	57	261	0	0	13:53:35	695767	0	0	0	0	0	0	0	0	0	0	0	0	0	0	0	0	0
121912	13:53:35	10013	pm.simpleEngRight	blank.simpleEng	2	0	1900	1	0	13:53:35	697686	0	0	0	0	0	0	0	0	0	0	0	0	0	0	0	0	0
121912	13:53:35	10013	pm.simpleEngRight	pm.simpleEng	2	57	190	0	0	13:53:35	697899	0	0	0	0	0	0	0	0	0	0	0	0	0	0	0	0	0
121912	13:53:35	10013	pm.simpleEngRight	blank.simpleEng	2	0	1600	1	0	13:53:35	699511	0	0	0	0	0	0	0	0	0	0	0	0	0	0	0	0	0
121912	13:53:35	10013	pm.simpleEngRight	pm.simpleEng	2	57	75	0	0	13:53:35	699605	0	0	0	0	0	0	0	0	0	0	0	0	0	0	0	0	0
121912	13:53:35	10013	pm.simpleEngRight	blank.simpleEng	2	0	2100	1	0	13:53:35	701724	0	0	0	0	0	0	0	0	0	0	0	0	0	0	0	0	0
121912	13:53:35	10013	pm.simpleEngRight	pm.simpleEng	2	57	295	0	0	13:53:35	702044	0	0	0	0	0	0	0	0	0	0	0	0	0	0	0	0	0
121912	13:53:35	10013	pm.simpleEngRight	blank.simpleEng	2	0	1500	1	0	13:53:35	703563	0	0	0	0	0	0	0	0	0	0	0	0	0	0	0	0	0
121912	13:53:35	10013	pm.simpleEngRight	pm.simpleEng	2	57	312	0	0	13:53:35	703896	0	0	0	0	0	0	0	0	0	0	0	0	0	0	0	0	0
121912	13:53:35	10013	pm.simpleEngRight	blank.simpleEng	2	0	2000	1	0	13:53:35	705909	0	0	0	0	0	0	0	0	0	0	0	0	0	0	0	0	0
121912	13:53:35	10013	pm.simpleEngRight	pm.simpleEng	2	57	254	0	0	13:53:35	706189	0	0	0	0	0	0	0	0	0	0	0	0	0	0	0	0	0
121912	13:53:35	10013	pm.simpleEngRight	blank.simpleEng	2	0	2400	1	0	13:53:35	708601	0	0	0	0	0	0	0	0	0	0	0	0	0	0	0	0	0
121912	13:53:35	10013	pm.simpleEngRight	pm.simpleEng	2	57	266	0	0	13:53:35	708895	0	0	0	0	0	0	0	0	0	0	0	0	0	0	0	0	0
121912	13:53:35	10013	pm.simpleEngRight	blank.simpleEng	2	0	2000	1	0	13:53:35	710920	0	0	0	0	0	0	0	0	0	0	0	0	0	0	0	0	0
121912	13:53:35	10013	pm.simpleEngRight	pm.simpleEng	2	57	250	0	0	13:53:35	711200	0	0	0	0	0	0	0	0	0	0	0	0	0	0	0	0	0
121912	13:53:35	10013	pm.simpleEngRight	blank.simpleEng	2	0	2200	1	0	13:53:35	713413	0	0	0	0	0	0	0	0	0	0	0	0	0	0	0	0	0
121912	13:53:35	10013	pm.simpleEngRight	pm.simpleEng	2	57	255	0	0	13:53:35	713693	0	0	0	0	0	0	0	0	0	0	0	0	0	0	0	0	0
121912	13:53:35	10013	pm.simpleEngRight	blank.simpleEng	2	0	2300	1	0	13:53:35	716012	0	0	0	0	0	0	0	0	0	0	0	0	0	0	0	0	0
121912	13:53:35	10013	pm.simpleEngRight	pm.simpleEng	2	57	247	0	0	13:53:35	716278	0	0	0	0	0	0	0	0	0	0	0	0	0	0	0	0	0
121912	13:53:35	10013	pm.simpleEngRight	blank.simpleEng	2	0	1800	1	0	13:53:35	718091	0	0	0	0	0	0	0	0	0	0	0	0	0	0	0	0	0
121912	13:53:35	10013	pm.simpleEngRight	pm.simpleEng	2	57	312	0	0	13:53:35	718424	0	0	0	0	0	0	0	0	0	0	0	0	0	0	0	0	0
121912	13:53:35	10013	pm.simpleEngRight	blank.simpleEng	2	0	1900	1	0	13:53:35	720343	0	0	0	0	0	0	0	0	0	0	0	0	0	0	0	0	0
121912	13:53:35	10013	pm.simpleEngRight	pm.simpleEng	2	57	252	0	0	13:53:35	720623	0	0	0	0	0	0	0	0	0	0	0	0	0	0	0	0	0
121912	13:53:35	10013	pm.simpleEngRight	blank.simpleEng	2	0	2500	1	0	13:53:35	723142	0	0	0	0	0	0	0	0	0	0	0	0	0	0	0	0	0
121912	13:53:35	10013	pm.simpleEngRight	pm.simpleEng	2	57	268	0	0	13:53:35	723435	0	0	0	0	0	0	0	0	0	0	0	0	0	0	0	0	0
121912	13:53:35	10013	pm.simpleEngRight	blank.simpleEng	2	0	1500	1	0	13:53:35	724955	0	0	0	0	0	0	0	0	0	0	0	0	0	0	0	0	0
121912	13:53:35	10013	pm.simpleEngRight	pm.simpleEng	2	57	328	0	0	13:53:35	725301	0	0	0	0	0	0	0	0	0	0	0	0	0	0	0	0	0
121912	13:53:35	10013	pm.simpleEngRight	blank.simpleEng	2	0	1600	1	0	13:53:35	726914	0	0	0	0	0	0	0	0	0	0	0	0	0	0	0	0	0
121912	13:53:35	10013	pm.simpleEngRight	pm.simpleEng	2	57	305	0	0	13:53:35	727247	0	0	0	0	0	0	0	0	0	0	0	0	0	0	0	0	0
121912	13:53:35	10013	pm.simpleEngRight	blank.simpleEng	2	0	1700	1	0	13:53:35	728966	0	0	0	0	0	0	0	0	0	0	0	0	0	0	0	0	0
121912	13:53:35	10013	pm.simpleEngRight	pm.simpleEng	2	57	268	0	0	13:53:35	729259	0	0	0	0	0	0	0	0	0	0	0	0	0	0	0	0	0
121912	13:53:35	10013	pm.simpleEngRight	blank.simpleEng	2	0	2100	1	0	13:53:35	731379	0	0	0	0	0	0	0	0	0	0	0	0	0	0	0	0	0
121912	13:53:35	10013	pm.simpleEngRight	pm.simpleEng	2	57	240	0	0	13:53:35	731645	0	0	0	0	0	0	0	0	0	0	0	0	0	0	0	0	0
121912	13:53:35	10013	pm.simpleEngRight	blank.simpleEng	2	0	1500	1	0	13:53:35	733165	0	0	0	0	0	0	0	0	0	0	0	0	0	0	0	0	0
121912	13:53:35	10013	pm.simpleEngRight	pm.simpleEng	2	57	294	0	0	13:53:35	733485	0	0	0	0	0	0	0	0	0	0	0	0	0	0	0	0	0
121912	13:53:35	10013	pm.simpleEngRight	blank.simpleEng	2	0	2000	1	0	13:53:35	735497	0	0	0	0	0	0	0	0	0	0	0	0	0	0	0	0	0
121912	13:53:35	10013	pm.simpleEngRight	pm.simpleEng	2	57	297	0	0	13:53:35	735817	0	0	0	0	0	0	0	0	0	0	0	0	0	0	0	0	0
121912	13:53:35	10013	pm.simpleEngRight	blank.simpleEng	2	0	1900	1	0	13:53:35	737736	0	0	0	0	0	0	0	0	0	0	0	0	0	0	0	0	0
121912	13:53:35	10013	pm.simpleEngRight	pm.simpleEng	2	57	234	0	0	13:53:35	737989	0	0	0	0	0	0	0	0	0	0	0	0	0	0	0	0	0
121912	13:53:35	10013	pm.simpleEngRight	blank.simpleEng	2	0	2400	1	0	13:53:35	740402	0	0	0	0	0	0	0	0	0	0	0	0	0	0	0	0	0
121912	13:53:35	10013	pm.simpleEngRight	pm.simpleEng	2	57	272	0	0	13:53:35	740695	0	0	0	0	0	0	0	0	0	0	0	0	0	0	0	0	0
121912	13:53:35	10013	pm.simpleEngRight	blank.simpleEng	2	0	1800	1	0	13:53:35	742508	0	0	0	0	0	0	0	0	0	0	0	0	0	0	0	0	0
121912	13:53:35	10013	pm.simpleEngRight	pm.simpleEng	2	57	295	0	0	13:53:35	742828	0	0	0	0	0	0	0	0	0	0	0	0	0	0	0	0	0
121912	13:53:35	10013	pm.simpleEngRight	blank.simpleEng	2	0	2500	1	0	13:53:35	745346	0	0	0	0	0	0	0	0	0	0	0	0	0	0	0	0	0
121912	13:53:35	10013	pm.simpleEngRight	pm.simpleEng	2	57	272	0	0	13:53:35	745640	0	0	0	0	0	0	0	0	0	0	0	0	0	0	0	0	0
121912	13:53:35	10013	pm.simpleEngRight	blank.simpleEng	2	0	2200	1	0	13:53:35	747852	0	0	0	0	0	0	0	0	0	0	0	0	0	0	0	0	0
121912	13:53:35	10013	pm.simpleEngRight	pm.simpleEng	2	57	262	0	0	13:53:35	748132	0	0	0	0	0	0	0	0	0	0	0	0	0	0	0	0	0
121912	13:53:35	10013	pm.simpleEngRight	blank.simpleEng	2	0	1600	1	0	13:53:35	749745	0	0	0	0	0	0	0	0	0	0	0	0	0	0	0	0	0
121912	13:53:35	10013	pm.simpleEngRight	pm.simpleEng	2	57	369	0	0	13:53:35	750131	0	0	0	0	0	0	0	0	0	0	0	0	0	0	0	0	0
121912	13:53:35	10013	pm.simpleEngRight	blank.simpleEng	2	0	2300	1	0	13:53:35	752450	0	0	0	0	0	0	0	0	0	0	0	0	0	0	0	0	0
121912	13:53:35	10013	pm.simpleEngRight	pm.simpleEng	2	57	255	0	0	13:53:35	752730	0	0	0	0	0	0	0	0	0	0	0	0	0	0	0	0	0
121912	13:53:35	10013	pm.simpleEngRight	blank.simpleEng	2	0	1700	1	0	13:53:35	754450	0	0	0	0	0	0	0	0	0	0	0	0	0	0	0	0	0
121912	13:53:35	10013	pm.simpleEngRight	pm.simpleEng	2	57	272	0	0	13:53:35	754742	0	0	0	0	0	0	0	0	0	0	0	0	0	0	0	0	0
121912	13:53:35	10013	pm.simpleEngRight	blank.simpleEng	2	0	2100	1	0	13:53:35	756862	0	0	0	0	0	0	0	0	0	0	0	0	0	0	0	0	0
121912	13:53:35	10013	pm.simpleEngRight	pm.simpleEng	2	57	276	0	0	13:53:35	757155	0	0	0	0	0	0	0	0	0	0	0	0	0	0	0	0	0
121912	13:53:35	10013	pm.simpleEngRight	blank.simpleEng	2	0	1800	1	0	13:53:35	758968	0	0	0	0	0	0	0	0	0	0	0	0	0	0	0	0	0
121912	13:53:35	10013	pm.simpleEngRight	pm.simpleEng	2	57	282	0	0	13:53:35	759274	0	0	0	0	0	0	0	0	0	0	0	0	0	0	0	0	0
121912	13:53:35	10013	pm.simpleEngRight	blank.simpleEng	2	0	2500	1	0	13:53:35	761793	0	0	0	0	0	0	0	0	0	0	0	0	0	0	0	0	0
121912	13:53:35	10013	pm.simpleEngRight	pm.simpleEng	2	57	273	0	0	13:53:35	762086	0	0	0	0	0	0	0	0	0	0	0	0	0	0	0	0	0
121912	13:53:35	10013	pm.simpleEngRight	blank.simpleEng	2	0	2400	1	0	13:53:35	764499	0	0	0	0	0	0	0	0	0	0	0	0	0	0	0	0	0
121912	13:53:35	10013	pm.simpleEngRight	pm.simpleEng	2	57	271	0	0	13:53:35	764792	0	0	0	0	0	0	0	0	0	0	0	0	0	0	0	0	0
121912	13:53:35	10013	pm.simpleEngRight	blank.simpleEng	2	0	2200	1	0	13:53:35	767004	0	0	0	0	0	0	0	0	0	0	0	0	0	0	0	0	0
121912	13:53:35	10013	pm.simpleEngRight	pm.simpleEng	2	57	277	0	0	13:53:35	767311	0	0	0	0	0	0	0	0	0	0	0	0	0	0	0	0	0
121912	13:53:35	10013	pm.simpleEngRight	blank.simpleEng	2	0	1600	1	0	13:53:35	768924	0	0	0	0	0	0	0	0	0	0	0	0	0	0	0	0	0
121912	13:53:35	10013	pm.simpleEngRight	pm.simpleEng	2	57	342	0	0	13:53:35	769283	0	0	0	0	0	0	0	0	0	0	0	0	0	0	0	0	0
121912	13:53:35	10013	pm.simpleEngRight	blank.simpleEng	2	0	1900	1	0	13:53:35	771203	0	0	0	0	0	0	0	0	0	0	0	0	0	0	0	0	0
121912	13:53:35	10013	pm.simpleEngRight	pm.simpleEng	2	57	223	0	0	13:53:35	771442	0	0	0	0	0	0	0	0	0	0	0	0	0	0	0	0	0
121912	13:53:35	10013	pm.simpleEngRight	blank.simpleEng	2	0	1700	1	0	13:53:35	773162	0	0	0	0	0	0	0	0	0	0	0	0	0	0	0	0	0
121912	13:53:35	10013	pm.simpleEngRight	pm.simpleEng	2	57	264	0	0	13:53:35	773455	0	0	0	0	0	0	0	0	0	0	0	0	0	0	0	0	0
121912	13:53:35	10013	Trial2BackEng	N	3	0	1000	1	1	13:53:35	804349	0	0	0	0	0	0	0	0	0	0	0	0	0	0	0	0	0
121912	13:53:35	10013	Trial2BackEng	N	3	0	1000	1	2	13:53:35	805855	0	0	0	0	0	0	0	0	0	0	0	0	0	0	0	0	0
121912	13:53:35	10013	Trial2BackEng	N	3	0	1000	1	3	13:53:35	807361	0	0	0	0	0	0	0	0	0	0	0	0	0	0	0	0	0
121912	13:53:35	10013	Trial2BackEng	N	3	0	1000	1	4	13:53:35	808867	0	0	0	0	0	0	0	0	0	0	0	0	0	0	0	0	0
121912	13:53:35	10013	Trial2BackEng	N	3	0	1000	1	5	13:53:35	810373	0	0	0	0	0	0	0	0	0	0	0	0	0	0	0	0	0
121912	13:53:35	10013	Trial2BackEng	N	3	0	1000	1	6	13:53:35	811879	0	0	0	0	0	0	0	0	0	0	0	0	0	0	0	0	0
121912	13:53:35	10013	Trial2BackEng	N	3	0	1000	1	7	13:53:35	813386	0	0	0	0	0	0	0	0	0	0	0	0	0	0	0	0	0
121912	13:53:35	10013	Trial2BackEng	N	3	0	1000	1	8	13:53:35	814891	0	0	0	0	0	0	0	0	0	0	0	0	0	0	0	0	0
121912	13:53:35	10013	Trial2BackEng	Y	3	57	377	1	9	13:53:35	815784	0	0	0	0	0	0	0	0	0	0	0	0	0	0	0	0	0
121912	13:53:35	10013	Trial2BackEng	N	3	0	1000	1	10	13:53:35	817904	0	0	0	0	0	0	0	0	0	0	0	0	0	0	0	0	0
121912	13:53:35	10013	Trial2BackEng	N	3	0	1000	1	11	13:53:35	819410	0	0	0	0	0	0	0	0	0	0	0	0	0	0	0	0	0
121912	13:53:35	10013	Trial2BackEng	N	3	0	1000	1	12	13:53:35	820916	0	0	0	0	0	0	0	0	0	0	0	0	0	0	0	0	0
121912	13:53:35	10013	Trial2BackEng	Y	3	57	369	1	13	13:53:35	821795	0	0	0	0	0	0	0	0	0	0	0	0	0	0	0	0	0
121912	13:53:35	10013	Trial2BackEng	N	3	0	1000	1	14	13:53:35	823928	0	0	0	0	0	0	0	0	0	0	0	0	0	0	0	0	0
121912	13:53:35	10013	Trial2BackEng	N	3	0	1000	1	15	13:53:35	825434	0	0	0	0	0	0	0	0	0	0	0	0	0	0	0	0	0
121912	13:53:35	10013	Trial2BackEng	N	3	0	1000	1	16	13:53:35	826940	0	0	0	0	0	0	0	0	0	0	0	0	0	0	0	0	0
121912	13:53:35	10013	Trial2BackEng	N	3	0	1000	1	17	13:53:35	828446	0	0	0	0	0	0	0	0	0	0	0	0	0	0	0	0	0
121912	13:53:35	10013	Trial2BackEng	N	3	0	1000	1	18	13:53:35	829952	0	0	0	0	0	0	0	0	0	0	0	0	0	0	0	0	0
121912	13:53:35	10013	Trial2BackEng	Y	3	57	644	1	19	13:53:35	831112	0	0	0	0	0	0	0	0	0	0	0	0	0	0	0	0	0
121912	13:53:35	10013	Trial2BackEng	N	3	0	1000	1	20	13:53:35	832964	0	0	0	0	0	0	0	0	0	0	0	0	0	0	0	0	0
121912	13:53:35	10013	Trial2BackEng	N	3	0	1000	1	21	13:53:35	834470	0	0	0	0	0	0	0	0	0	0	0	0	0	0	0	0	0
121912	13:53:35	10013	Trial2BackEng	N	3	0	1000	1	22	13:53:35	835976	0	0	0	0	0	0	0	0	0	0	0	0	0	0	0	0	0
121912	13:53:35	10013	Trial2BackEng	N	3	0	1000	1	23	13:53:35	837483	0	0	0	0	0	0	0	0	0	0	0	0	0	0	0	0	0
121912	13:53:35	10013	Trial2BackEng	Y	3	57	650	1	24	13:53:35	838642	0	0	0	0	0	0	0	0	0	0	0	0	0	0	0	0	0
121912	13:53:35	10013	Trial2BackEng	N	3	0	1000	1	25	13:53:35	840495	0	0	0	0	0	0	0	0	0	0	0	0	0	0	0	0	0
121912	13:53:35	10013	Trial2BackEng	N	3	0	1000	1	26	13:53:35	842001	0	0	0	0	0	0	0	0	0	0	0	0	0	0	0	0	0
121912	13:53:35	10013	Trial2BackEng	N	3	0	1000	1	27	13:53:35	843520	0	0	0	0	0	0	0	0	0	0	0	0	0	0	0	0	0
121912	13:53:35	10013	Trial2BackEng	N	3	0	1000	1	28	13:53:35	845026	0	0	0	0	0	0	0	0	0	0	0	0	0	0	0	0	0
121912	13:53:35	10013	Trial2BackEng	N	3	0	1000	1	29	13:53:35	846532	0	0	0	0	0	0	0	0	0	0	0	0	0	0	0	0	0
121912	13:53:35	10013	Trial2BackEng	N	3	0	1000	1	30	13:53:35	848038	0	0	0	0	0	0	0	0	0	0	0	0	0	0	0	0	0
121912	13:53:35	10013	Trial2BackEng	Y	3	57	430	1	31	13:53:35	848985	0	0	0	0	0	0	0	0	0	0	0	0	0	0	0	0	0
121912	13:53:35	10013	Trial2BackEng	N	3	0	1000	1	32	13:53:35	851050	0	0	0	0	0	0	0	0	0	0	0	0	0	0	0	0	0
121912	13:53:35	10013	Trial2BackEng	N	3	0	1000	1	33	13:53:35	852556	0	0	0	0	0	0	0	0	0	0	0	0	0	0	0	0	0
121912	13:53:35	10013	Trial2BackEng	N	3	0	1000	1	34	13:53:35	854062	0	0	0	0	0	0	0	0	0	0	0	0	0	0	0	0	0
121912	13:53:35	10013	Trial2BackEng	Y	3	57	470	1	35	13:53:35	855048	0	0	0	0	0	0	0	0	0	0	0	0	0	0	0	0	0
121912	13:53:35	10013	Trial2BackEng	N	3	0	1000	1	36	13:53:35	857075	0	0	0	0	0	0	0	0	0	0	0	0	0	0	0	0	0
121912	13:53:35	10013	Trial2BackEng	N	3	0	1000	1	37	13:53:35	858580	0	0	0	0	0	0	0	0	0	0	0	0	0	0	0	0	0
121912	13:53:35	10013	Trial2BackEng	N	3	0	1000	1	38	13:53:35	860100	0	0	0	0	0	0	0	0	0	0	0	0	0	0	0	0	0
121912	13:53:35	10013	Trial2BackEng	N	3	0	1000	1	39	13:53:35	861606	0	0	0	0	0	0	0	0	0	0	0	0	0	0	0	0	0
121912	13:53:35	10013	Trial2BackEng	N	3	0	1000	1	40	13:53:35	863112	0	0	0	0	0	0	0	0	0	0	0	0	0	0	0	0	0
121912	13:53:35	10013	Trial2BackEng	N	3	0	1000	1	41	13:53:35	864618	0	0	0	0	0	0	0	0	0	0	0	0	0	0	0	0	0
121912	13:53:35	10013	Trial2BackEng	Y	3	57	714	1	42	13:53:35	865844	0	0	0	0	0	0	0	0	0	0	0	0	0	0	0	0	0
121912	13:53:35	10013	Trial2BackEng	N	3	0	1000	1	43	13:53:35	867630	0	0	0	0	0	0	0	0	0	0	0	0	0	0	0	0	0
121912	13:53:35	10013	Trial2BackEng	N	3	0	1000	1	44	13:53:35	869136	0	0	0	0	0	0	0	0	0	0	0	0	0	0	0	0	0
121912	13:53:35	10013	Trial2BackEng	N	3	0	1000	1	45	13:53:35	870642	0	0	0	0	0	0	0	0	0	0	0	0	0	0	0	0	0
121912	13:53:35	10013	Trial2BackEng	N	3	0	1000	1	46	13:53:35	872148	0	0	0	0	0	0	0	0	0	0	0	0	0	0	0	0	0
121912	13:53:35	10013	Trial2BackEng	Y	3	57	383	1	47	13:53:35	873042	0	0	0	0	0	0	0	0	0	0	0	0	0	0	0	0	0
121912	13:53:35	10013	Trial2BackEng	N	3	0	1000	1	48	13:53:35	875161	0	0	0	0	0	0	0	0	0	0	0	0	0	0	0	0	0
121912	13:53:35	10013	Trial2BackEng	N	3	0	1000	1	49	13:53:35	876667	0	0	0	0	0	0	0	0	0	0	0	0	0	0	0	0	0
121912	13:53:35	10013	Trial2BackEng	N	3	0	1000	1	50	13:53:35	878173	0	0	0	0	0	0	0	0	0	0	0	0	0	0	0	0	0
121912	13:53:35	10013	Trial2BackEng	N	3	0	1000	1	51	13:53:35	879679	0	0	0	0	0	0	0	0	0	0	0	0	0	0	0	0	0
121912	13:53:35	10013	Trial2BackEng	N	3	0	1000	1	52	13:53:35	881185	0	0	0	0	0	0	0	0	0	0	0	0	0	0	0	0	0
121912	13:53:35	10013	Trial2BackEng	Y	3	57	419	1	53	13:53:35	882118	0	0	0	0	0	0	0	0	0	0	0	0	0	0	0	0	0
121912	13:53:35	10013	Trial2BackEng	N	3	0	1000	1	54	13:53:35	884197	0	0	0	0	0	0	0	0	0	0	0	0	0	0	0	0	0
121912	13:53:35	10013	Trial2BackEng	N	3	0	1000	1	55	13:53:35	885703	0	0	0	0	0	0	0	0	0	0	0	0	0	0	0	0	0
121912	13:53:35	10013	Trial2BackEng	N	3	0	1000	1	56	13:53:35	887209	0	0	0	0	0	0	0	0	0	0	0	0	0	0	0	0	0
121912	13:53:35	10013	Trial2BackEng	N	3	0	1000	1	57	13:53:35	888728	0	0	0	0	0	0	0	0	0	0	0	0	0	0	0	0	0
121912	13:53:35	10013	Trial2BackEng	N	3	0	1000	1	58	13:53:35	890234	0	0	0	0	0	0	0	0	0	0	0	0	0	0	0	0	0
121912	13:53:35	10013	Trial2BackEng	N	3	0	1000	1	59	13:53:35	891754	0	0	0	0	0	0	0	0	0	0	0	0	0	0	0	0	0
121912	13:53:35	10013	Trial2BackEng	Y	3	57	425	1	60	13:53:35	892700	0	0	0	0	0	0	0	0	0	0	0	0	0	0	0	0	0
121912	13:53:35	10013	Trial2BackEng	N	3	0	1000	1	61	13:53:35	894766	0	0	0	0	0	0	0	0	0	0	0	0	0	0	0	0	0
121912	13:53:35	10013	Trial2BackEng	N	3	0	1000	1	62	13:53:35	896272	0	0	0	0	0	0	0	0	0	0	0	0	0	0	0	0	0
121912	13:53:35	10013	Trial2BackEng	Y	3	0	1000	0	62	13:53:35	897778	0	0	0	0	0	0	0	0	0	0	0	0	0	0	0	0	0
121912	13:53:35	10013	Trial2BackEng	N	3	0	1000	1	63	13:53:35	899297	0	0	0	0	0	0	0	0	0	0	0	0	0	0	0	0	0
121912	13:53:35	10013	Trial2BackEng	N	3	0	1000	1	64	13:53:35	900804	0	0	0	0	0	0	0	0	0	0	0	0	0	0	0	0	0
121912	13:53:35	10013	Trial2BackEng	N	3	0	1000	1	65	13:53:35	902310	0	0	0	0	0	0	0	0	0	0	0	0	0	0	0	0	0
121912	13:53:35	10013	Trial2BackEng	N	3	0	1000	1	66	13:53:35	903816	0	0	0	0	0	0	0	0	0	0	0	0	0	0	0	0	0
121912	13:53:35	10013	Trial2BackEng	N	3	0	1000	1	67	13:53:35	905322	0	0	0	0	0	0	0	0	0	0	0	0	0	0	0	0	0
121912	13:53:35	10013	Trial2BackEng	N	3	57	969	0	67	13:53:35	906801	0	0	0	0	0	0	0	0	0	0	0	0	0	0	0	0	0
121912	13:53:35	10013	Trial2BackEng	N	3	0	1000	1	68	13:53:35	908334	0	0	0	0	0	0	0	0	0	0	0	0	0	0	0	0	0
121912	13:53:35	10013	Trial2BackEng	N	3	0	1000	1	69	13:53:35	909840	0	0	0	0	0	0	0	0	0	0	0	0	0	0	0	0	0
121912	13:53:35	10013	Trial2BackEng	N	3	0	1000	1	70	13:53:35	911346	0	0	0	0	0	0	0	0	0	0	0	0	0	0	0	0	0
121912	13:53:35	10013	Trial2BackEng	N	3	0	1000	1	71	13:53:35	912852	0	0	0	0	0	0	0	0	0	0	0	0	0	0	0	0	0
121912	13:53:35	10013	Trial2BackEng	Y	3	57	415	1	72	13:53:35	913785	0	0	0	0	0	0	0	0	0	0	0	0	0	0	0	0	0
121912	13:53:35	10013	Trial2BackEng	N	3	0	1000	1	73	13:53:35	915864	0	0	0	0	0	0	0	0	0	0	0	0	0	0	0	0	0
121912	13:53:35	10013	Trial2BackEng	N	3	0	1000	1	74	13:53:35	917370	0	0	0	0	0	0	0	0	0	0	0	0	0	0	0	0	0
121912	13:53:35	10013	Trial2BackEng	N	3	0	1000	1	75	13:53:35	918876	0	0	0	0	0	0	0	0	0	0	0	0	0	0	0	0	0
121912	13:53:35	10013	Trial2BackEng	Y	3	57	390	1	76	13:53:35	919783	0	0	0	0	0	0	0	0	0	0	0	0	0	0	0	0	0
121912	13:53:35	10013	Trial2BackEng	N	3	0	1000	1	77	13:53:35	921888	0	0	0	0	0	0	0	0	0	0	0	0	0	0	0	0	0
121912	13:53:35	10013	Trial2BackEng	N	3	0	1000	1	78	13:53:35	923394	0	0	0	0	0	0	0	0	0	0	0	0	0	0	0	0	0
121912	13:53:35	10013	Trial2BackEng	N	3	0	1000	1	79	13:53:35	924900	0	0	0	0	0	0	0	0	0	0	0	0	0	0	0	0	0
121912	13:53:35	10013	Trial2BackEng	N	3	0	1000	1	80	13:53:35	926406	0	0	0	0	0	0	0	0	0	0	0	0	0	0	0	0	0
121912	13:53:35	10013	Trial2BackEng	N	3	0	1000	1	81	13:53:35	927913	0	0	0	0	0	0	0	0	0	0	0	0	0	0	0	0	0
121912	13:53:35	10013	Trial2BackEng	Y	3	57	554	1	82	13:53:35	928979	0	0	0	0	0	0	0	0	0	0	0	0	0	0	0	0	0
121912	13:53:35	10013	Trial2BackEng	N	3	0	1000	1	83	13:53:35	930925	0	0	0	0	0	0	0	0	0	0	0	0	0	0	0	0	0
121912	13:53:35	10013	Trial2BackEng	N	3	0	1000	1	84	13:53:35	932431	0	0	0	0	0	0	0	0	0	0	0	0	0	0	0	0	0
121912	13:53:35	10013	Trial2BackEng	N	3	0	1000	1	85	13:53:35	933937	0	0	0	0	0	0	0	0	0	0	0	0	0	0	0	0	0
121912	13:53:35	10013	Trial2BackEng	N	3	0	1000	1	86	13:53:35	935443	0	0	0	0	0	0	0	0	0	0	0	0	0	0	0	0	0
121912	13:53:35	10013	Trial2BackEng	N	3	0	1000	1	87	13:53:35	936949	0	0	0	0	0	0	0	0	0	0	0	0	0	0	0	0	0
121912	13:53:35	10013	Trial2BackEng	N	3	0	1000	1	88	13:53:35	938455	0	0	0	0	0	0	0	0	0	0	0	0	0	0	0	0	0
121912	13:53:35	10013	Trial2BackEng	N	3	0	1000	1	89	13:53:35	939961	0	0	0	0	0	0	0	0	0	0	0	0	0	0	0	0	0
121912	13:53:35	10013	Trial2BackEng	N	3	0	1000	1	90	13:53:35	941467	0	0	0	0	0	0	0	0	0	0	0	0	0	0	0	0	0
121912	13:53:35	10013	Trial2BackEng	N	3	0	1000	1	91	13:53:35	942973	0	0	0	0	0	0	0	0	0	0	0	0	0	0	0	0	0
121912	13:53:35	10013	Trial2BackEng	Y	3	57	629	1	92	13:53:35	944119	0	0	0	0	0	0	0	0	0	0	0	0	0	0	0	0	0
121912	13:53:35	10013	Trial2BackEng	N	3	0	1000	1	93	13:53:35	945985	0	0	0	0	0	0	0	0	0	0	0	0	0	0	0	0	0
121912	13:53:35	10013	Trial2BackEng	N	3	0	1000	1	94	13:53:35	947505	0	0	0	0	0	0	0	0	0	0	0	0	0	0	0	0	0
121912	13:53:35	10013	Trial2BackEng	N	3	0	1000	1	95	13:53:35	949011	0	0	0	0	0	0	0	0	0	0	0	0	0	0	0	0	0
121912	13:53:35	10013	Trial2BackEng	N	3	0	1000	1	96	13:53:35	950517	0	0	0	0	0	0	0	0	0	0	0	0	0	0	0	0	0
121912	13:53:35	10013	Trial2BackEng	N	3	0	1000	1	97	13:53:35	952023	0	0	0	0	0	0	0	0	0	0	0	0	0	0	0	0	0
121912	13:53:35	10013	Trial2BackEng	N	3	0	1000	1	98	13:53:35	953542	0	0	0	0	0	0	0	0	0	0	0	0	0	0	0	0	0
121912	13:53:35	10013	Trial2BackEng	N	3	0	1000	1	99	13:53:35	955048	0	0	0	0	0	0	0	0	0	0	0	0	0	0	0	0	0
121912	13:53:35	10013	Trial2BackEng	N	3	0	1000	1	100	13:53:35	956554	0	0	0	0	0	0	0	0	0	0	0	0	0	0	0	0	0
121912	13:53:35	10013	Trial2BackEng	Y	3	0	1000	0	100	13:53:35	958060	0	0	0	0	0	0	0	0	0	0	0	0	0	0	0	0	0
121912	13:53:35	10013	Trial2BackEng	N	3	0	1000	1	101	13:53:35	959566	0	0	0	0	0	0	0	0	0	0	0	0	0	0	0	0	0
121912	13:53:35	10013	Trial2BackEng	N	3	0	1000	1	102	13:53:35	961072	0	0	0	0	0	0	0	0	0	0	0	0	0	0	0	0	0
121912	13:53:35	10013	Trial2BackEng	N	3	0	1000	1	103	13:53:35	962578	0	0	0	0	0	0	0	0	0	0	0	0	0	0	0	0	0
121912	13:53:35	10013	Trial2BackEng	N	3	0	1000	1	104	13:53:35	964085	0	0	0	0	0	0	0	0	0	0	0	0	0	0	0	0	0
121912	13:53:35	10013	Trial2BackEng	Y	3	0	1000	0	104	13:53:35	965590	0	0	0	0	0	0	0	0	0	0	0	0	0	0	0	0	0
121912	13:53:35	10013	Trial2BackEng	N	3	0	1000	1	105	13:53:35	967097	0	0	0	0	0	0	0	0	0	0	0	0	0	0	0	0	0
121912	13:53:35	10013	Trial2BackEng	N	3	0	1000	1	106	13:53:35	968603	0	0	0	0	0	0	0	0	0	0	0	0	0	0	0	0	0
121912	13:53:35	10013	Trial2BackEng	N	3	0	1000	1	107	13:53:35	970109	0	0	0	0	0	0	0	0	0	0	0	0	0	0	0	0	0
121912	13:53:35	10013	Trial2BackEng	Y	3	57	389	1	108	13:53:35	971015	0	0	0	0	0	0	0	0	0	0	0	0	0	0	0	0	0
121912	13:53:35	10013	Trial2BackEng	N	3	0	1000	1	109	13:53:35	973121	0	0	0	0	0	0	0	0	0	0	0	0	0	0	0	0	0
121912	13:53:35	10013	Trial2BackEng	N	3	0	1000	1	110	13:53:35	974627	0	0	0	0	0	0	0	0	0	0	0	0	0	0	0	0	0
121912	13:53:35	10013	Trial2BackEng	N	3	0	1000	1	111	13:53:35	976133	0	0	0	0	0	0	0	0	0	0	0	0	0	0	0	0	0
121912	13:53:35	10013	Trial2BackEng	N	3	0	1000	1	112	13:53:35	977639	0	0	0	0	0	0	0	0	0	0	0	0	0	0	0	0	0
121912	13:53:35	10013	Trial2BackEng	N	3	0	1000	1	113	13:53:35	979145	0	0	0	0	0	0	0	0	0	0	0	0	0	0	0	0	0
121912	13:53:35	10013	Trial2BackEng	Y	3	57	536	1	114	13:53:35	980198	0	0	0	0	0	0	0	0	0	0	0	0	0	0	0	0	0
121912	13:53:35	10013	Trial2BackEng	N	3	0	1000	1	115	13:53:35	982157	0	0	0	0	0	0	0	0	0	0	0	0	0	0	0	0	0
121912	13:53:35	10013	Trial2BackEng	N	3	0	1000	1	116	13:53:35	983663	0	0	0	0	0	0	0	0	0	0	0	0	0	0	0	0	0
121912	13:53:35	10013	Trial2BackEng	N	3	0	1000	1	117	13:53:35	985169	0	0	0	0	0	0	0	0	0	0	0	0	0	0	0	0	0
121912	13:53:35	10013	Trial2BackEng	Y	3	57	624	1	118	13:53:35	986302	0	0	0	0	0	0	0	0	0	0	0	0	0	0	0	0	0
121912	13:53:35	10013	Trial3BackEng	NN	4	0	1000	1	118	13:53:35	995925	0	0	0	0	0	0	0	0	0	0	0	0	0	0	0	0	0
121912	13:53:35	10013	Trial3BackEng	NN	4	0	1000	1	118	13:53:35	997431	0	0	0	0	0	0	0	0	0	0	0	0	0	0	0	0	0
121912	13:53:35	10013	Trial3BackEng	NN	4	0	1000	1	118	13:53:35	998937	0	0	0	0	0	0	0	0	0	0	0	0	0	0	0	0	0
121912	13:53:35	10013	Trial3BackEng	YY	4	57	455	1	118	13:53:35	999910	0	0	0	0	0	0	0	0	0	0	0	0	0	0	0	0	0
121912	13:53:35	10013	Trial3BackEng	NN	4	0	1000	1	118	13:53:35	1001949	0	0	0	0	0	0	0	0	0	0	0	0	0	0	0	0	0
121912	13:53:35	10013	Trial3BackEng	NN	4	0	1000	1	118	13:53:35	1003455	0	0	0	0	0	0	0	0	0	0	0	0	0	0	0	0	0
121912	13:53:35	10013	Trial3BackEng	NN	4	0	1000	1	118	13:53:35	1004961	0	0	0	0	0	0	0	0	0	0	0	0	0	0	0	0	0
121912	13:53:35	10013	Trial3BackEng	NN	4	0	1000	1	118	13:53:35	1006467	0	0	0	0	0	0	0	0	0	0	0	0	0	0	0	0	0
121912	13:53:35	10013	Trial3BackEng	YY	4	57	989	1	118	13:53:35	1007973	0	0	0	0	0	0	0	0	0	0	0	0	0	0	0	0	0
121912	13:53:35	10013	Trial3BackEng	NN	4	0	1000	1	118	13:53:35	1009479	0	0	0	0	0	0	0	0	0	0	0	0	0	0	0	0	0
121912	13:53:35	10013	Trial3BackEng	NN	4	0	1000	1	118	13:53:35	1010986	0	0	0	0	0	0	0	0	0	0	0	0	0	0	0	0	0
121912	13:53:35	10013	Trial3BackEng	NN	4	0	1000	1	118	13:53:35	1012492	0	0	0	0	0	0	0	0	0	0	0	0	0	0	0	0	0
121912	13:53:35	10013	Trial3BackEng	NN	4	0	1000	1	118	13:53:35	1014011	0	0	0	0	0	0	0	0	0	0	0	0	0	0	0	0	0
121912	13:53:35	10013	Trial3BackEng	NN	4	0	1000	1	118	13:53:35	1015517	0	0	0	0	0	0	0	0	0	0	0	0	0	0	0	0	0
121912	13:53:35	10013	Trial3BackEng	NN	4	57	899	0	118	13:53:35	1016930	0	0	0	0	0	0	0	0	0	0	0	0	0	0	0	0	0
121912	13:53:35	10013	Trial3BackEng	NN	4	0	1000	1	118	13:53:35	1018529	0	0	0	0	0	0	0	0	0	0	0	0	0	0	0	0	0
121912	13:53:35	10013	Trial3BackEng	YY	4	0	1000	0	118	13:53:35	1020035	0	0	0	0	0	0	0	0	0	0	0	0	0	0	0	0	0
121912	13:53:35	10013	Trial3BackEng	NN	4	0	1000	1	118	13:53:35	1021541	0	0	0	0	0	0	0	0	0	0	0	0	0	0	0	0	0
121912	13:53:35	10013	Trial3BackEng	NN	4	0	1000	1	118	13:53:35	1023047	0	0	0	0	0	0	0	0	0	0	0	0	0	0	0	0	0
121912	13:53:35	10013	Trial3BackEng	NN	4	0	1000	1	118	13:53:35	1024553	0	0	0	0	0	0	0	0	0	0	0	0	0	0	0	0	0
121912	13:53:35	10013	Trial3BackEng	NN	4	0	1000	1	118	13:53:35	1026059	0	0	0	0	0	0	0	0	0	0	0	0	0	0	0	0	0
121912	13:53:35	10013	Trial3BackEng	NN	4	0	1000	1	118	13:53:35	1027565	0	0	0	0	0	0	0	0	0	0	0	0	0	0	0	0	0
121912	13:53:35	10013	Trial3BackEng	YY	4	57	754	1	118	13:53:35	1028832	0	0	0	0	0	0	0	0	0	0	0	0	0	0	0	0	0
121912	13:53:35	10013	Trial3BackEng	NN	4	0	1000	1	118	13:53:35	1030577	0	0	0	0	0	0	0	0	0	0	0	0	0	0	0	0	0
121912	13:53:35	10013	Trial3BackEng	NN	4	0	1000	1	118	13:53:35	1032084	0	0	0	0	0	0	0	0	0	0	0	0	0	0	0	0	0
121912	13:53:35	10013	Trial3BackEng	NN	4	0	1000	1	118	13:53:35	1033590	0	0	0	0	0	0	0	0	0	0	0	0	0	0	0	0	0
121912	13:53:35	10013	Trial3BackEng	YY	4	0	1000	0	118	13:53:35	1035096	0	0	0	0	0	0	0	0	0	0	0	0	0	0	0	0	0
121912	13:53:35	10013	Trial3BackEng	NN	4	0	1000	1	118	13:53:35	1036602	0	0	0	0	0	0	0	0	0	0	0	0	0	0	0	0	0
121912	13:53:35	10013	Trial3BackEng	NN	4	0	1000	1	118	13:53:35	1038108	0	0	0	0	0	0	0	0	0	0	0	0	0	0	0	0	0
121912	13:53:35	10013	Trial3BackEng	NN	4	57	676	0	118	13:53:35	1039294	0	0	0	0	0	0	0	0	0	0	0	0	0	0	0	0	0
121912	13:53:35	10013	Trial3BackEng	YY	4	0	1000	0	118	13:53:35	1041120	0	0	0	0	0	0	0	0	0	0	0	0	0	0	0	0	0
121912	13:53:35	10013	Trial3BackEng	NN	4	0	1000	1	118	13:53:35	1042626	0	0	0	0	0	0	0	0	0	0	0	0	0	0	0	0	0
121912	13:53:35	10013	Trial3BackEng	NN	4	0	1000	1	118	13:53:35	1044132	0	0	0	0	0	0	0	0	0	0	0	0	0	0	0	0	0
121912	13:53:35	10013	Trial3BackEng	NN	4	0	1000	1	118	13:53:35	1045638	0	0	0	0	0	0	0	0	0	0	0	0	0	0	0	0	0
121912	13:53:35	10013	Trial3BackEng	NN	4	0	1000	1	118	13:53:35	1047144	0	0	0	0	0	0	0	0	0	0	0	0	0	0	0	0	0
121912	13:53:35	10013	Trial3BackEng	NN	4	0	1000	1	118	13:53:35	1048650	0	0	0	0	0	0	0	0	0	0	0	0	0	0	0	0	0
121912	13:53:35	10013	Trial3BackEng	NN	4	0	1000	1	118	13:53:35	1050156	0	0	0	0	0	0	0	0	0	0	0	0	0	0	0	0	0
121912	13:53:35	10013	Trial3BackEng	NN	4	0	1000	1	118	13:53:35	1051662	0	0	0	0	0	0	0	0	0	0	0	0	0	0	0	0	0
121912	13:53:35	10013	Trial3BackEng	NN	4	0	1000	1	118	13:53:35	1053168	0	0	0	0	0	0	0	0	0	0	0	0	0	0	0	0	0
121912	13:53:35	10013	Trial3BackEng	NN	4	0	1000	1	118	13:53:35	1054674	0	0	0	0	0	0	0	0	0	0	0	0	0	0	0	0	0
121912	13:53:35	10013	Trial3BackEng	NN	4	0	1000	1	118	13:53:35	1056181	0	0	0	0	0	0	0	0	0	0	0	0	0	0	0	0	0
121912	13:53:35	10013	Trial3BackEng	YY	4	0	1000	0	118	13:53:35	1057687	0	0	0	0	0	0	0	0	0	0	0	0	0	0	0	0	0
121912	13:53:35	10013	Trial3BackEng	NN	4	0	1000	1	118	13:53:35	1059193	0	0	0	0	0	0	0	0	0	0	0	0	0	0	0	0	0
121912	13:53:35	10013	Trial3BackEng	NN	4	0	1000	1	118	13:53:35	1060699	0	0	0	0	0	0	0	0	0	0	0	0	0	0	0	0	0
121912	13:53:35	10013	Trial3BackEng	NN	4	0	1000	1	118	13:53:35	1062205	0	0	0	0	0	0	0	0	0	0	0	0	0	0	0	0	0
121912	13:53:35	10013	Trial3BackEng	NN	4	0	1000	1	118	13:53:35	1063711	0	0	0	0	0	0	0	0	0	0	0	0	0	0	0	0	0
121912	13:53:35	10013	Trial3BackEng	YY	4	57	736	1	118	13:53:35	1064964	0	0	0	0	0	0	0	0	0	0	0	0	0	0	0	0	0
121912	13:53:35	10013	Trial3BackEng	NN	4	0	1000	1	118	13:53:35	1066723	0	0	0	0	0	0	0	0	0	0	0	0	0	0	0	0	0
121912	13:53:35	10013	Trial3BackEng	NN	4	0	1000	1	118	13:53:35	1068229	0	0	0	0	0	0	0	0	0	0	0	0	0	0	0	0	0
121912	13:53:35	10013	Trial3BackEng	NN	4	0	1000	1	118	13:53:35	1069735	0	0	0	0	0	0	0	0	0	0	0	0	0	0	0	0	0
121912	13:53:35	10013	Trial3BackEng	NN	4	0	1000	1	118	13:53:35	1071254	0	0	0	0	0	0	0	0	0	0	0	0	0	0	0	0	0
121912	13:53:35	10013	Trial3BackEng	NN	4	0	1000	1	118	13:53:35	1072760	0	0	0	0	0	0	0	0	0	0	0	0	0	0	0	0	0
121912	13:53:35	10013	Trial3BackEng	YY	4	0	1000	0	118	13:53:35	1074267	0	0	0	0	0	0	0	0	0	0	0	0	0	0	0	0	0
121912	13:53:35	10013	Trial3BackEng	NN	4	0	1000	1	118	13:53:35	1075773	0	0	0	0	0	0	0	0	0	0	0	0	0	0	0	0	0
121912	13:53:35	10013	Trial3BackEng	NN	4	0	1000	1	118	13:53:35	1077279	0	0	0	0	0	0	0	0	0	0	0	0	0	0	0	0	0
121912	13:53:35	10013	Trial3BackEng	NN	4	57	576	0	118	13:53:35	1078371	0	0	0	0	0	0	0	0	0	0	0	0	0	0	0	0	0
121912	13:53:35	10013	Trial3BackEng	NN	4	0	1000	1	118	13:53:35	1080291	0	0	0	0	0	0	0	0	0	0	0	0	0	0	0	0	0
121912	13:53:35	10013	Trial3BackEng	NN	4	0	1000	1	118	13:53:35	1081797	0	0	0	0	0	0	0	0	0	0	0	0	0	0	0	0	0
121912	13:53:35	10013	Trial3BackEng	NN	4	0	1000	1	118	13:53:35	1083303	0	0	0	0	0	0	0	0	0	0	0	0	0	0	0	0	0
121912	13:53:35	10013	Trial3BackEng	YY	4	0	1000	0	118	13:53:35	1084809	0	0	0	0	0	0	0	0	0	0	0	0	0	0	0	0	0
121912	13:53:35	10013	Trial3BackEng	NN	4	0	1000	1	118	13:53:35	1086315	0	0	0	0	0	0	0	0	0	0	0	0	0	0	0	0	0
121912	13:53:35	10013	Trial3BackEng	NN	4	0	1000	1	118	13:53:35	1087821	0	0	0	0	0	0	0	0	0	0	0	0	0	0	0	0	0
121912	13:53:35	10013	Trial3BackEng	NN	4	0	1000	1	118	13:53:35	1089327	0	0	0	0	0	0	0	0	0	0	0	0	0	0	0	0	0
121912	13:53:35	10013	Trial3BackEng	YY	4	57	719	1	118	13:53:35	1090567	0	0	0	0	0	0	0	0	0	0	0	0	0	0	0	0	0
121912	13:53:35	10013	Trial3BackEng	NN	4	0	1000	1	118	13:53:35	1092339	0	0	0	0	0	0	0	0	0	0	0	0	0	0	0	0	0
121912	13:53:35	10013	Trial3BackEng	NN	4	0	1000	1	118	13:53:35	1093845	0	0	0	0	0	0	0	0	0	0	0	0	0	0	0	0	0
121912	13:53:35	10013	Trial3BackEng	NN	4	0	1000	1	118	13:53:35	1095351	0	0	0	0	0	0	0	0	0	0	0	0	0	0	0	0	0
121912	13:53:35	10013	Trial3BackEng	NN	4	0	1000	1	118	13:53:35	1096857	0	0	0	0	0	0	0	0	0	0	0	0	0	0	0	0	0
121912	13:53:35	10013	Trial3BackEng	NN	4	0	1000	1	118	13:53:35	1098363	0	0	0	0	0	0	0	0	0	0	0	0	0	0	0	0	0
121912	13:53:35	10013	Trial3BackEng	NN	4	0	1000	1	118	13:53:35	1099870	0	0	0	0	0	0	0	0	0	0	0	0	0	0	0	0	0
121912	13:53:35	10013	Trial3BackEng	NN	4	0	1000	1	118	13:53:35	1101376	0	0	0	0	0	0	0	0	0	0	0	0	0	0	0	0	0
121912	13:53:35	10013	Trial3BackEng	NN	4	0	1000	1	118	13:53:35	1102895	0	0	0	0	0	0	0	0	0	0	0	0	0	0	0	0	0
121912	13:53:35	10013	Trial3BackEng	NN	4	0	1000	1	118	13:53:35	1104401	0	0	0	0	0	0	0	0	0	0	0	0	0	0	0	0	0
121912	13:53:35	10013	Trial3BackEng	YY	4	0	1000	0	118	13:53:35	1105907	0	0	0	0	0	0	0	0	0	0	0	0	0	0	0	0	0
121912	13:53:35	10013	Trial3BackEng	NN	4	0	1000	1	118	13:53:35	1107413	0	0	0	0	0	0	0	0	0	0	0	0	0	0	0	0	0
121912	13:53:35	10013	Trial3BackEng	NN	4	0	1000	1	118	13:53:35	1108919	0	0	0	0	0	0	0	0	0	0	0	0	0	0	0	0	0
121912	13:53:35	10013	Trial3BackEng	NN	4	0	1000	1	118	13:53:35	1110425	0	0	0	0	0	0	0	0	0	0	0	0	0	0	0	0	0
121912	13:53:35	10013	Trial3BackEng	YY	4	0	1000	0	118	13:53:35	1111931	0	0	0	0	0	0	0	0	0	0	0	0	0	0	0	0	0
121912	13:53:35	10013	Trial3BackEng	NN	4	0	1000	1	118	13:53:35	1113437	0	0	0	0	0	0	0	0	0	0	0	0	0	0	0	0	0
121912	13:53:35	10013	Trial3BackEng	NN	4	0	1000	1	118	13:53:35	1114943	0	0	0	0	0	0	0	0	0	0	0	0	0	0	0	0	0
121912	13:53:35	10013	Trial3BackEng	NN	4	0	1000	1	118	13:53:35	1116449	0	0	0	0	0	0	0	0	0	0	0	0	0	0	0	0	0
121912	13:53:35	10013	Trial3BackEng	NN	4	0	1000	1	118	13:53:35	1117956	0	0	0	0	0	0	0	0	0	0	0	0	0	0	0	0	0
121912	13:53:35	10013	Trial3BackEng	NN	4	0	1000	1	118	13:53:35	1119462	0	0	0	0	0	0	0	0	0	0	0	0	0	0	0	0	0
121912	13:53:35	10013	Trial3BackEng	YY	4	0	1000	0	118	13:53:35	1120968	0	0	0	0	0	0	0	0	0	0	0	0	0	0	0	0	0
121912	13:53:35	10013	Trial3BackEng	NN	4	0	1000	1	118	13:53:35	1122474	0	0	0	0	0	0	0	0	0	0	0	0	0	0	0	0	0
121912	13:53:35	10013	Trial3BackEng	NN	4	0	1000	1	118	13:53:35	1123980	0	0	0	0	0	0	0	0	0	0	0	0	0	0	0	0	0
121912	13:53:35	10013	Trial3BackEng	NN	4	0	1000	1	118	13:53:35	1125486	0	0	0	0	0	0	0	0	0	0	0	0	0	0	0	0	0
121912	13:53:35	10013	Trial3BackEng	NN	4	0	1000	1	118	13:53:35	1126992	0	0	0	0	0	0	0	0	0	0	0	0	0	0	0	0	0
121912	13:53:35	10013	Trial3BackEng	NN	4	0	1000	1	118	13:53:35	1128498	0	0	0	0	0	0	0	0	0	0	0	0	0	0	0	0	0
121912	13:53:35	10013	Trial3BackEng	NN	4	0	1000	1	118	13:53:35	1130004	0	0	0	0	0	0	0	0	0	0	0	0	0	0	0	0	0
121912	13:53:35	10013	Trial3BackEng	NN	4	0	1000	1	118	13:53:35	1131510	0	0	0	0	0	0	0	0	0	0	0	0	0	0	0	0	0
121912	13:53:35	10013	Trial3BackEng	NN	4	57	839	0	118	13:53:35	1132869	0	0	0	0	0	0	0	0	0	0	0	0	0	0	0	0	0
121912	13:53:35	10013	Trial3BackEng	NN	4	0	1000	1	118	13:53:35	1134522	0	0	0	0	0	0	0	0	0	0	0	0	0	0	0	0	0
121912	13:53:35	10013	Trial3BackEng	YY	4	0	1000	0	118	13:53:35	1136028	0	0	0	0	0	0	0	0	0	0	0	0	0	0	0	0	0
121912	13:53:35	10013	Trial3BackEng	NN	4	0	1000	1	118	13:53:35	1137534	0	0	0	0	0	0	0	0	0	0	0	0	0	0	0	0	0
121912	13:53:35	10013	Trial3BackEng	NN	4	0	1000	1	118	13:53:35	1139040	0	0	0	0	0	0	0	0	0	0	0	0	0	0	0	0	0
121912	13:53:35	10013	Trial3BackEng	NN	4	57	781	0	118	13:53:35	1140333	0	0	0	0	0	0	0	0	0	0	0	0	0	0	0	0	0
121912	13:53:35	10013	Trial3BackEng	NN	4	0	1000	1	118	13:53:35	1142053	0	0	0	0	0	0	0	0	0	0	0	0	0	0	0	0	0
121912	13:53:35	10013	Trial3BackEng	NN	4	57	329	0	118	13:53:35	1142892	0	0	0	0	0	0	0	0	0	0	0	0	0	0	0	0	0
121912	13:53:35	10013	Trial3BackEng	NN	4	0	1000	1	118	13:53:35	1145065	0	0	0	0	0	0	0	0	0	0	0	0	0	0	0	0	0
121912	13:53:35	10013	Trial3BackEng	NN	4	0	1000	1	118	13:53:35	1146571	0	0	0	0	0	0	0	0	0	0	0	0	0	0	0	0	0
121912	13:53:35	10013	Trial3BackEng	NN	4	0	1000	1	118	13:53:35	1148077	0	0	0	0	0	0	0	0	0	0	0	0	0	0	0	0	0
121912	13:53:35	10013	Trial3BackEng	YY	4	0	1000	0	118	13:53:35	1149583	0	0	0	0	0	0	0	0	0	0	0	0	0	0	0	0	0
121912	13:53:35	10013	Trial3BackEng	NN	4	0	1000	1	118	13:53:35	1151102	0	0	0	0	0	0	0	0	0	0	0	0	0	0	0	0	0
121912	13:53:35	10013	Trial3BackEng	NN	4	0	1000	1	118	13:53:35	1152608	0	0	0	0	0	0	0	0	0	0	0	0	0	0	0	0	0
121912	13:53:35	10013	Trial3BackEng	NN	4	0	1000	1	118	13:53:35	1154114	0	0	0	0	0	0	0	0	0	0	0	0	0	0	0	0	0
121912	13:53:35	10013	Trial3BackEng	NN	4	0	1000	1	118	13:53:35	1155620	0	0	0	0	0	0	0	0	0	0	0	0	0	0	0	0	0
121912	13:53:35	10013	Trial3BackEng	YY	4	0	1000	0	118	13:53:35	1157140	0	0	0	0	0	0	0	0	0	0	0	0	0	0	0	0	0
121912	13:53:35	10013	Trial3BackEng	NN	4	0	1000	1	118	13:53:35	1158646	0	0	0	0	0	0	0	0	0	0	0	0	0	0	0	0	0
121912	13:53:35	10013	Trial3BackEng	NN	4	0	1000	1	118	13:53:35	1160165	0	0	0	0	0	0	0	0	0	0	0	0	0	0	0	0	0
121912	13:53:35	10013	Trial3BackEng	NN	4	0	1000	1	118	13:53:35	1161671	0	0	0	0	0	0	0	0	0	0	0	0	0	0	0	0	0
121912	13:53:35	10013	Trial3BackEng	YY	4	0	1000	0	118	13:53:35	1163177	0	0	0	0	0	0	0	0	0	0	0	0	0	0	0	0	0
121912	13:53:35	10013	Trial3BackEng	NN	4	0	1000	1	118	13:53:35	1164683	0	0	0	0	0	0	0	0	0	0	0	0	0	0	0	0	0
121912	13:53:35	10013	Trial3BackEng	NN	4	0	1000	1	118	13:53:35	1166189	0	0	0	0	0	0	0	0	0	0	0	0	0	0	0	0	0
121912	13:53:35	10013	Trial3BackEng	NN	4	0	1000	1	118	13:53:35	1167695	0	0	0	0	0	0	0	0	0	0	0	0	0	0	0	0	0
121912	13:53:35	10013	Trial3BackEng	NN	4	0	1000	1	118	13:53:35	1169201	0	0	0	0	0	0	0	0	0	0	0	0	0	0	0	0	0
121912	13:53:35	10013	Trial3BackEng	NN	4	0	1000	1	118	13:53:35	1170707	0	0	0	0	0	0	0	0	0	0	0	0	0	0	0	0	0
121912	13:53:35	10013	Trial3BackEng	YY	4	0	1000	0	118	13:53:35	1172214	0	0	0	0	0	0	0	0	0	0	0	0	0	0	0	0	0
121912	13:53:35	10013	Trial3BackEng	NN	4	0	1000	1	118	13:53:35	1173720	0	0	0	0	0	0	0	0	0	0	0	0	0	0	0	0	0
121912	13:53:35	10013	Trial3BackEng	NN	4	0	1000	1	118	13:53:35	1175226	0	0	0	0	0	0	0	0	0	0	0	0	0	0	0	0	0
121912	13:53:35	10013	Trial3BackEng	NN	4	0	1000	1	118	13:53:35	1176732	0	0	0	0	0	0	0	0	0	0	0	0	0	0	0	0	0
121912	13:53:35	10013	Trial3BackEng	YY	4	0	1000	0	118	13:53:35	1178238	0	0	0	0	0	0	0	0	0	0	0	0	0	0	0	0	0
121912	13:53:35	10013	Memory1R6mo	Score	5	M1	9497	0	118	13:53:35	1227831	0	0	0	0	0	0	0	0	0	0	0	0	0	0	0	0	0
121912	13:53:35	10013	Memory1R6mo	Score	5	M2	282	0	118	13:53:35	1228164	0	0	0	0	0	0	0	0	0	0	0	0	0	0	0	0	0
121912	13:53:35	10013	Memory1R6mo	Score	5	M4	1829	0	118	13:53:35	1230044	0	0	0	0	0	0	0	0	0	0	0	0	0	0	0	0	0
121912	13:53:35	10013	Memory1R6mo	Score	5	M5	184	0	118	13:53:35	1230297	0	0	0	0	0	0	0	0	0	0	0	0	0	0	0	0	0
121912	13:53:35	10013	Memory1R6mo	Score	5	M6	291	0	118	13:53:35	1230657	0	0	0	0	0	0	0	0	0	0	0	0	0	0	0	0	0
121912	13:53:35	10013	Memory1R6mo	Score	5	Done	2553	0	118	13:53:35	1233256	0	0	0	0	0	0	0	0	0	0	0	0	0	0	0	0	0
121912	13:53:35	10013	Memory2R6mo	Score2	5	88	13027	0	118	13:53:35	1265656	0	0	0	0	0	0	0	0	0	0	0	0	0	0	0	0	0
121912	13:53:35	10013	Memory2R6mo	Score2	5	66	659	0	118	13:53:35	1266375	0	0	0	0	0	0	0	0	0	0	0	0	0	0	0	0	0
121912	13:53:35	10013	Memory2R6mo	Score2	5	55	353	0	118	13:53:35	1266775	0	0	0	0	0	0	0	0	0	0	0	0	0	0	0	0	0
121912	13:53:35	10013	Memory2R6mo	Score2	5	44	276	0	118	13:53:35	1267109	0	0	0	0	0	0	0	0	0	0	0	0	0	0	0	0	0
121912	13:53:35	10013	Memory2R6mo	Score2	5	33	316	0	118	13:53:35	1267469	0	0	0	0	0	0	0	0	0	0	0	0	0	0	0	0	0
121912	13:53:35	10013	Memory2R6mo	Score2	5	22	295	0	118	13:53:35	1267828	0	0	0	0	0	0	0	0	0	0	0	0	0	0	0	0	0
121912	13:53:35	10013	Memory2R6mo	Score2	5	11	300	0	118	13:53:35	1268175	0	0	0	0	0	0	0	0	0	0	0	0	0	0	0	0	0
121912	13:53:35	10013	Memory2R6mo	Score2	5	Done	4468	0	118	13:53:35	1272706	0	0	0	0	0	0	0	0	0	0	0	0	0	0	0	0	0
121912	13:53:35	10013	Memory3R6mo	Score3	5	666	8877	0	118	13:53:35	1300548	0	0	0	0	0	0	0	0	0	0	0	0	0	0	0	0	0
121912	13:53:35	10013	Memory3R6mo	Score3	5	777	198	0	118	13:53:35	1300815	0	0	0	0	0	0	0	0	0	0	0	0	0	0	0	0	0
121912	13:53:35	10013	Memory3R6mo	Score3	5	888	193	0	118	13:53:35	1301055	0	0	0	0	0	0	0	0	0	0	0	0	0	0	0	0	0
121912	13:53:35	10013	Memory3R6mo	Score3	5	444	465	0	118	13:53:35	1301574	0	0	0	0	0	0	0	0	0	0	0	0	0	0	0	0	0
121912	13:53:35	10013	Memory3R6mo	Score3	5	333	184	0	118	13:53:35	1301814	0	0	0	0	0	0	0	0	0	0	0	0	0	0	0	0	0
121912	13:53:35	10013	Memory3R6mo	Score3	5	222	188	0	118	13:53:35	1302068	0	0	0	0	0	0	0	0	0	0	0	0	0	0	0	0	0
121912	13:53:35	10013	Memory3R6mo	Score3	5	111	183	0	118	13:53:35	1302308	0	0	0	0	0	0	0	0	0	0	0	0	0	0	0	0	0
121912	13:53:35	10013	Memory3R6mo	Score3	5	Done	9164	0	118	13:53:35	1311517	0	0	0	0	0	0	0	0	0	0	0	0	0	0	0	0	0
121912	13:53:35	10013	LoriaEngLH3	Stop	6	4	3602	0	118	13:53:35	1373360	0	0	0	0	0	0	0	0	0	0	0	0	0	0	0	0	0
121912	13:53:35	10013	EngTrail	Trails	7	1Trails	751	0	118	13:53:35	1375998	0	0	0	0	0	0	0	0	0	0	0	0	0	0	0	0	0
121912	13:53:35	10013	Serial7Eng6mo	Serial7Eng6mo	8	73	5731	0	118	13:53:35	1383769	1	0	0	0	0	0	0	0	0	0	0	0	0	0	0	0	0
121912	13:53:35	10013	Serial7Eng6mo	Serial7Eng6mo	8	66	2679	0	118	13:53:35	1386475	2	0	0	0	0	0	0	0	0	0	0	0	0	0	0	0	0
121912	13:53:35	10013	Serial7Eng6mo	Serial7Eng6mo	8	59	3389	0	118	13:53:35	1389887	3	0	0	0	0	0	0	0	0	0	0	0	0	0	0	0	0
121912	13:53:35	10013	Serial7Eng6mo	Serial7Eng6mo	8	52	1954	0	118	13:53:35	1391860	4	0	0	0	0	0	0	0	0	0	0	0	0	0	0	0	0
121912	13:53:35	10013	Serial7Eng6mo	Serial7Eng6mo	8	45	1829	0	118	13:53:35	1393713	5	0	0	0	0	0	0	0	0	0	0	0	0	0	0	0	0
121912	13:53:35	10013	corsiblockEngFwrd	recallseqEngFwrd	9	2	1733	0	118	13:53:35	1413531	5	0	0	0	0	0	0	0	0	0	0	0	0	0	0	0	0
121912	13:53:35	10013	corsiblockEngFwrd	recallseqEngFwrd	9	9	1123	0	118	13:53:35	1414704	5	0	0	0	0	0	0	0	0	0	0	0	0	0	0	0	0
121912	13:53:35	10013	corsiblockEngFwrd	recallseqEngFwrd	9	doneCorsiEng	1711	0	118	13:53:35	1416463	5	0	0	0	0	0	0	0	0	0	0	0	0	0	0	2	0
121912	13:53:35	10013	corsiblockEngFwrd	recallseqEngFwrd	9	8	762	0	118	13:53:35	1423354	5	0	0	0	0	0	0	0	0	0	0	0	0	0	0	2	0
121912	13:53:35	10013	corsiblockEngFwrd	recallseqEngFwrd	9	5	1109	0	118	13:53:35	1424513	5	0	0	0	0	0	0	0	0	0	0	0	0	0	0	2	0
121912	13:53:35	10013	corsiblockEngFwrd	recallseqEngFwrd	9	3	717	0	118	13:53:35	1425286	5	0	0	0	0	0	0	0	0	0	0	0	0	0	0	2	0
121912	13:53:35	10013	corsiblockEngFwrd	recallseqEngFwrd	9	doneCorsiEng	1640	0	118	13:53:35	1426979	5	0	0	0	0	0	0	0	0	0	0	0	0	0	0	3	0
121912	13:53:35	10013	corsiblockEngFwrd	recallseqEngFwrd	9	1	912	0	118	13:53:35	1435029	5	0	0	0	0	0	0	0	0	0	0	0	0	0	0	3	0
121912	13:53:35	10013	corsiblockEngFwrd	recallseqEngFwrd	9	6	801	0	118	13:53:35	1435882	5	0	0	0	0	0	0	0	0	0	0	0	0	0	0	3	0
121912	13:53:35	10013	corsiblockEngFwrd	recallseqEngFwrd	9	4	492	0	118	13:53:35	1436428	5	0	0	0	0	0	0	0	0	0	0	0	0	0	0	3	0
121912	13:53:35	10013	corsiblockEngFwrd	recallseqEngFwrd	9	7	610	0	118	13:53:35	1437095	5	0	0	0	0	0	0	0	0	0	0	0	0	0	0	3	0
121912	13:53:35	10013	corsiblockEngFwrd	recallseqEngFwrd	9	doneCorsiEng	1239	0	118	13:53:35	1438388	5	0	0	0	0	0	0	0	0	0	0	0	0	0	0	4	0
121912	13:53:35	10013	corsiblockEngFwrd	recallseqEngFwrd	9	6	1229	0	118	13:53:35	1447744	5	0	0	0	0	0	0	0	0	0	0	0	0	0	0	4	0
121912	13:53:35	10013	corsiblockEngFwrd	recallseqEngFwrd	9	3	1206	0	118	13:53:35	1448997	5	0	0	0	0	0	0	0	0	0	0	0	0	0	0	4	0
121912	13:53:35	10013	corsiblockEngFwrd	recallseqEngFwrd	9	1	833	0	118	13:53:35	1449876	5	0	0	0	0	0	0	0	0	0	0	0	0	0	0	4	0
121912	13:53:35	10013	corsiblockEngFwrd	recallseqEngFwrd	9	4	865	0	118	13:53:35	1450796	5	0	0	0	0	0	0	0	0	0	0	0	0	0	0	4	0
121912	13:53:35	10013	corsiblockEngFwrd	recallseqEngFwrd	9	9	746	0	118	13:53:35	1451596	5	0	0	0	0	0	0	0	0	0	0	0	0	0	0	4	0
121912	13:53:35	10013	corsiblockEngFwrd	recallseqEngFwrd	9	doneCorsiEng	1386	0	118	13:53:35	1453035	5	0	0	0	0	0	0	0	0	0	0	0	0	0	0	5	0
121912	13:53:35	10013	corsiblockEngFwrd	recallseqEngFwrd	9	5	1395	0	118	13:53:35	1463537	5	0	0	0	0	0	0	0	0	0	0	0	0	0	0	5	0
121912	13:53:35	10013	corsiblockEngFwrd	recallseqEngFwrd	9	7	644	0	118	13:53:35	1464230	5	0	0	0	0	0	0	0	0	0	0	0	0	0	0	5	0
121912	13:53:35	10013	corsiblockEngFwrd	recallseqEngFwrd	9	2	607	0	118	13:53:35	1464883	5	0	0	0	0	0	0	0	0	0	0	0	0	0	0	5	0
121912	13:53:35	10013	corsiblockEngFwrd	recallseqEngFwrd	9	8	882	0	118	13:53:35	1465816	5	0	0	0	0	0	0	0	0	0	0	0	0	0	0	5	0
121912	13:53:35	10013	corsiblockEngFwrd	recallseqEngFwrd	9	1	1141	0	118	13:53:35	1467003	5	0	0	0	0	0	0	0	0	0	0	0	0	0	0	5	0
121912	13:53:35	10013	corsiblockEngFwrd	recallseqEngFwrd	9	4	971	0	118	13:53:35	1468029	5	0	0	0	0	0	0	0	0	0	0	0	0	0	0	5	0
121912	13:53:35	10013	corsiblockEngFwrd	recallseqEngFwrd	9	8	776	0	118	13:53:35	1468855	5	0	0	0	0	0	0	0	0	0	0	0	0	0	0	5	0
121912	13:53:35	10013	corsiblockEngFwrd	recallseqEngFwrd	9	doneCorsiEng	870	0	118	13:53:35	1469775	5	0	0	0	0	0	0	0	0	0	0	0	0	0	0	5	0
121912	13:53:35	10013	corsiblockEngFwrd	recallseqEngFwrd	9	5	1082	0	118	13:53:35	1479944	5	0	0	0	0	0	0	0	0	0	0	0	0	0	0	5	0
121912	13:53:35	10013	corsiblockEngFwrd	recallseqEngFwrd	9	4	421	0	118	13:53:35	1480411	5	0	0	0	0	0	0	0	0	0	0	0	0	0	0	5	0
121912	13:53:35	10013	corsiblockEngFwrd	recallseqEngFwrd	9	3	395	0	118	13:53:35	1480850	5	0	0	0	0	0	0	0	0	0	0	0	0	0	0	5	0
121912	13:53:35	10013	corsiblockEngFwrd	recallseqEngFwrd	9	7	730	0	118	13:53:35	1481637	5	0	0	0	0	0	0	0	0	0	0	0	0	0	0	5	0
121912	13:53:35	10013	corsiblockEngFwrd	recallseqEngFwrd	9	9	688	0	118	13:53:35	1482370	5	0	0	0	0	0	0	0	0	0	0	0	0	0	0	5	0
121912	13:53:35	10013	corsiblockEngFwrd	recallseqEngFwrd	9	6	851	0	118	13:53:35	1483276	5	0	0	0	0	0	0	0	0	0	0	0	0	0	0	5	0
121912	13:53:35	10013	corsiblockEngFwrd	recallseqEngFwrd	9	doneCorsiEng	633	0	118	13:53:35	1483956	5	0	0	0	0	0	0	0	0	0	0	0	0	0	0	6	0
121912	13:53:35	10013	corsiblockEngFwrd	recallseqEngFwrd	9	2	1954	0	118	13:53:35	1495018	5	0	0	0	0	0	0	0	0	0	0	0	0	0	0	6	0
121912	13:53:35	10013	corsiblockEngFwrd	recallseqEngFwrd	9	6	1075	0	118	13:53:35	1496138	5	0	0	0	0	0	0	0	0	0	0	0	0	0	0	6	0
121912	13:53:35	10013	corsiblockEngFwrd	recallseqEngFwrd	9	7	1323	0	118	13:53:35	1497510	5	0	0	0	0	0	0	0	0	0	0	0	0	0	0	6	0
121912	13:53:35	10013	corsiblockEngFwrd	recallseqEngFwrd	9	9	630	0	118	13:53:35	1498190	5	0	0	0	0	0	0	0	0	0	0	0	0	0	0	6	0
121912	13:53:35	10013	corsiblockEngFwrd	recallseqEngFwrd	9	8	823	0	118	13:53:35	1499056	5	0	0	0	0	0	0	0	0	0	0	0	0	0	0	6	0
121912	13:53:35	10013	corsiblockEngFwrd	recallseqEngFwrd	9	2	572	0	118	13:53:35	1499683	5	0	0	0	0	0	0	0	0	0	0	0	0	0	0	6	0
121912	13:53:35	10013	corsiblockEngFwrd	recallseqEngFwrd	9	5	890	0	118	13:53:35	1500629	5	0	0	0	0	0	0	0	0	0	0	0	0	0	0	6	0
121912	13:53:35	10013	corsiblockEngFwrd	recallseqEngFwrd	9	doneCorsiEng	471	0	118	13:53:35	1501149	5	0	0	0	0	0	0	0	0	0	0	0	0	0	0	6	0
121912	13:53:35	10013	corsiblockEngFwrd	recallseqEngFwrd	9	1	2219	0	118	13:53:35	1513451	5	0	0	0	0	0	0	0	0	0	0	0	0	0	0	6	0
121912	13:53:35	10013	corsiblockEngFwrd	recallseqEngFwrd	9	3	3322	0	118	13:53:35	1516823	5	0	0	0	0	0	0	0	0	0	0	0	0	0	0	6	0
121912	13:53:35	10013	corsiblockEngFwrd	recallseqEngFwrd	9	4	814	0	118	13:53:35	1517689	5	0	0	0	0	0	0	0	0	0	0	0	0	0	0	6	0
121912	13:53:35	10013	corsiblockEngFwrd	recallseqEngFwrd	9	3	771	0	118	13:53:35	1518515	5	0	0	0	0	0	0	0	0	0	0	0	0	0	0	6	0
121912	13:53:35	10013	corsiblockEngFwrd	recallseqEngFwrd	9	6	1769	0	118	13:53:35	1520341	5	0	0	0	0	0	0	0	0	0	0	0	0	0	0	6	0
121912	13:53:35	10013	corsiblockEngFwrd	recallseqEngFwrd	9	5	511	0	118	13:53:35	1520901	5	0	0	0	0	0	0	0	0	0	0	0	0	0	0	6	0
121912	13:53:35	10013	corsiblockEngFwrd	recallseqEngFwrd	9	8	447	0	118	13:53:35	1521394	5	0	0	0	0	0	0	0	0	0	0	0	0	0	0	6	0
121912	13:53:35	10013	corsiblockEngFwrd	recallseqEngFwrd	9	doneCorsiEng	642	0	118	13:53:35	1522087	5	0	0	0	0	0	0	0	0	0	0	0	0	0	0	7	0
121912	13:53:35	10013	corsiblockEngFwrd	recallseqEngFwrd	9	1	3182	0	118	13:53:35	1535388	5	0	0	0	0	0	0	0	0	0	0	0	0	0	0	7	0
121912	13:53:35	10013	corsiblockEngFwrd	recallseqEngFwrd	9	2	1143	0	118	13:53:35	1536588	5	0	0	0	0	0	0	0	0	0	0	0	0	0	0	7	0
121912	13:53:35	10013	corsiblockEngFwrd	recallseqEngFwrd	9	9	944	0	118	13:53:35	1537587	5	0	0	0	0	0	0	0	0	0	0	0	0	0	0	7	0
121912	13:53:35	10013	corsiblockEngFwrd	recallseqEngFwrd	9	7	416	0	118	13:53:35	1538054	5	0	0	0	0	0	0	0	0	0	0	0	0	0	0	7	0
121912	13:53:35	10013	corsiblockEngFwrd	recallseqEngFwrd	9	8	598	0	118	13:53:35	1538707	5	0	0	0	0	0	0	0	0	0	0	0	0	0	0	7	0
121912	13:53:35	10013	corsiblockEngFwrd	recallseqEngFwrd	9	4	889	0	118	13:53:35	1539640	5	0	0	0	0	0	0	0	0	0	0	0	0	0	0	7	0
121912	13:53:35	10013	corsiblockEngFwrd	recallseqEngFwrd	9	5	524	0	118	13:53:35	1540213	5	0	0	0	0	0	0	0	0	0	0	0	0	0	0	7	0
121912	13:53:35	10013	corsiblockEngFwrd	recallseqEngFwrd	9	9	950	0	118	13:53:35	1541213	5	0	0	0	0	0	0	0	0	0	0	0	0	0	0	7	0
121912	13:53:35	10013	corsiblockEngFwrd	recallseqEngFwrd	9	doneCorsiEng	1231	0	118	13:53:35	1542492	5	0	0	0	0	0	0	0	0	0	0	0	0	0	0	7	0
121912	13:53:35	10013	corsiblockEngFwrd	recallseqEngFwrd	9	1	1732	0	118	13:53:35	1555314	5	0	0	0	0	0	0	0	0	0	0	0	0	0	0	7	0
121912	13:53:35	10013	corsiblockEngFwrd	recallseqEngFwrd	9	2	914	0	118	13:53:35	1556273	5	0	0	0	0	0	0	0	0	0	0	0	0	0	0	7	0
121912	13:53:35	10013	corsiblockEngFwrd	recallseqEngFwrd	9	5	1082	0	118	13:53:35	1557406	5	0	0	0	0	0	0	0	0	0	0	0	0	0	0	7	0
121912	13:53:35	10013	corsiblockEngFwrd	recallseqEngFwrd	9	6	909	0	118	13:53:35	1558366	5	0	0	0	0	0	0	0	0	0	0	0	0	0	0	7	0
121912	13:53:35	10013	corsiblockEngFwrd	recallseqEngFwrd	9	4	1070	0	118	13:53:35	1559485	5	0	0	0	0	0	0	0	0	0	0	0	0	0	0	7	0
121912	13:53:35	10013	corsiblockEngFwrd	recallseqEngFwrd	9	3	950	0	118	13:53:35	1560485	5	0	0	0	0	0	0	0	0	0	0	0	0	0	0	7	0
121912	13:53:35	10013	corsiblockEngFwrd	recallseqEngFwrd	9	4	990	0	118	13:53:35	1561525	5	0	0	0	0	0	0	0	0	0	0	0	0	0	0	7	0
121912	13:53:35	10013	corsiblockEngFwrd	recallseqEngFwrd	9	8	999	0	118	13:53:35	1562577	5	0	0	0	0	0	0	0	0	0	0	0	0	0	0	7	0
121912	13:53:35	10013	corsiblockEngFwrd	recallseqEngFwrd	9	doneCorsiEng	1018	0	118	13:53:35	1563644	5	0	0	0	0	0	0	0	0	0	0	0	0	0	0	7	0
121912	13:53:35	10013	corsiblockEngRev	recallseqEngRev	10	8	1523	0	118	13:53:35	1574093	5	0	0	0	0	0	0	0	0	0	0	0	0	0	0	7	0
121912	13:53:35	10013	corsiblockEngRev	recallseqEngRev	10	3	1262	0	118	13:53:35	1575399	5	0	0	0	0	0	0	0	0	0	0	0	0	0	0	7	0
121912	13:53:35	10013	corsiblockEngRev	recallseqEngRev	10	doneCorsiEng	1460	0	118	13:53:35	1576905	5	0	0	0	0	0	0	0	0	0	0	0	0	0	0	7	2
121912	13:53:35	10013	corsiblockEngRev	recallseqEngRev	10	6	964	0	118	13:53:35	1583995	5	0	0	0	0	0	0	0	0	0	0	0	0	0	0	7	2
121912	13:53:35	10013	corsiblockEngRev	recallseqEngRev	10	7	791	0	118	13:53:35	1584835	5	0	0	0	0	0	0	0	0	0	0	0	0	0	0	7	2
121912	13:53:35	10013	corsiblockEngRev	recallseqEngRev	10	2	640	0	118	13:53:35	1585528	5	0	0	0	0	0	0	0	0	0	0	0	0	0	0	7	2
121912	13:53:35	10013	corsiblockEngRev	recallseqEngRev	10	doneCorsiEng	1419	0	118	13:53:35	1586994	5	0	0	0	0	0	0	0	0	0	0	0	0	0	0	7	3
121912	13:53:35	10013	corsiblockEngRev	recallseqEngRev	10	9	709	0	118	13:53:35	1594845	5	0	0	0	0	0	0	0	0	0	0	0	0	0	0	7	3
121912	13:53:35	10013	corsiblockEngRev	recallseqEngRev	10	1	806	0	118	13:53:35	1595697	5	0	0	0	0	0	0	0	0	0	0	0	0	0	0	7	3
121912	13:53:35	10013	corsiblockEngRev	recallseqEngRev	10	4	505	0	118	13:53:35	1596257	5	0	0	0	0	0	0	0	0	0	0	0	0	0	0	7	3
121912	13:53:35	10013	corsiblockEngRev	recallseqEngRev	10	5	401	0	118	13:53:35	1596710	5	0	0	0	0	0	0	0	0	0	0	0	0	0	0	7	3
121912	13:53:35	10013	corsiblockEngRev	recallseqEngRev	10	doneCorsiEng	804	0	118	13:53:35	1597563	5	0	0	0	0	0	0	0	0	0	0	0	0	0	0	7	4
121912	13:53:35	10013	corsiblockEngRev	recallseqEngRev	10	5	1650	0	118	13:53:35	1607346	5	0	0	0	0	0	0	0	0	0	0	0	0	0	0	7	4
121912	13:53:35	10013	corsiblockEngRev	recallseqEngRev	10	1	768	0	118	13:53:35	1608159	5	0	0	0	0	0	0	0	0	0	0	0	0	0	0	7	4
121912	13:53:35	10013	corsiblockEngRev	recallseqEngRev	10	2	571	0	118	13:53:35	1608785	5	0	0	0	0	0	0	0	0	0	0	0	0	0	0	7	4
121912	13:53:35	10013	corsiblockEngRev	recallseqEngRev	10	7	409	0	118	13:53:35	1609239	5	0	0	0	0	0	0	0	0	0	0	0	0	0	0	7	4
121912	13:53:35	10013	corsiblockEngRev	recallseqEngRev	10	8	452	0	118	13:53:35	1609745	5	0	0	0	0	0	0	0	0	0	0	0	0	0	0	7	4
121912	13:53:35	10013	corsiblockEngRev	recallseqEngRev	10	doneCorsiEng	785	0	118	13:53:35	1610585	5	0	0	0	0	0	0	0	0	0	0	0	0	0	0	7	5
121912	13:53:35	10013	corsiblockEngRev	recallseqEngRev	10	5	2933	0	118	13:53:35	1622646	5	0	0	0	0	0	0	0	0	0	0	0	0	0	0	7	5
121912	13:53:35	10013	corsiblockEngRev	recallseqEngRev	10	9	1515	0	118	13:53:35	1624206	5	0	0	0	0	0	0	0	0	0	0	0	0	0	0	7	5
121912	13:53:35	10013	corsiblockEngRev	recallseqEngRev	10	3	684	0	118	13:53:35	1624939	5	0	0	0	0	0	0	0	0	0	0	0	0	0	0	7	5
121912	13:53:35	10013	corsiblockEngRev	recallseqEngRev	10	4	535	0	118	13:53:35	1625525	5	0	0	0	0	0	0	0	0	0	0	0	0	0	0	7	5
121912	13:53:35	10013	corsiblockEngRev	recallseqEngRev	10	6	532	0	118	13:53:35	1626112	5	0	0	0	0	0	0	0	0	0	0	0	0	0	0	7	5
121912	13:53:35	10013	corsiblockEngRev	recallseqEngRev	10	9	1042	0	118	13:53:35	1627205	5	0	0	0	0	0	0	0	0	0	0	0	0	0	0	7	5
121912	13:53:35	10013	corsiblockEngRev	recallseqEngRev	10	doneCorsiEng	805	0	118	13:53:35	1628057	5	0	0	0	0	0	0	0	0	0	0	0	0	0	0	7	6
121912	13:53:35	10013	corsiblockEngRev	recallseqEngRev	10	1	1377	0	118	13:53:35	1639586	5	0	0	0	0	0	0	0	0	0	0	0	0	0	0	7	6
121912	13:53:35	10013	corsiblockEngRev	recallseqEngRev	10	8	935	0	118	13:53:35	1640573	5	0	0	0	0	0	0	0	0	0	0	0	0	0	0	7	6
121912	13:53:35	10013	corsiblockEngRev	recallseqEngRev	10	7	485	0	118	13:53:35	1641106	5	0	0	0	0	0	0	0	0	0	0	0	0	0	0	7	6
121912	13:53:35	10013	corsiblockEngRev	recallseqEngRev	10	2	584	0	118	13:53:35	1641745	5	0	0	0	0	0	0	0	0	0	0	0	0	0	0	7	6
121912	13:53:35	10013	corsiblockEngRev	recallseqEngRev	10	6	704	0	118	13:53:35	1642505	5	0	0	0	0	0	0	0	0	0	0	0	0	0	0	7	6
121912	13:53:35	10013	corsiblockEngRev	recallseqEngRev	10	doneCorsiEng	440	0	118	13:53:35	1642998	5	0	0	0	0	0	0	0	0	0	0	0	0	0	0	7	6
121912	13:53:35	10013	corsiblockEngRev	recallseqEngRev	10	1	4143	0	118	13:53:35	1657232	5	0	0	0	0	0	0	0	0	0	0	0	0	0	0	7	6
121912	13:53:35	10013	corsiblockEngRev	recallseqEngRev	10	5	808	0	118	13:53:35	1658086	5	0	0	0	0	0	0	0	0	0	0	0	0	0	0	7	6
121912	13:53:35	10013	corsiblockEngRev	recallseqEngRev	10	7	875	0	118	13:53:35	1659005	5	0	0	0	0	0	0	0	0	0	0	0	0	0	0	7	6
121912	13:53:35	10013	corsiblockEngRev	recallseqEngRev	10	6	844	0	118	13:53:35	1659898	5	0	0	0	0	0	0	0	0	0	0	0	0	0	0	7	6
121912	13:53:35	10013	corsiblockEngRev	recallseqEngRev	10	8	799	0	118	13:53:35	1660751	5	0	0	0	0	0	0	0	0	0	0	0	0	0	0	7	6
121912	13:53:35	10013	corsiblockEngRev	recallseqEngRev	10	9	690	0	118	13:53:35	1661497	5	0	0	0	0	0	0	0	0	0	0	0	0	0	0	7	6
121912	13:53:35	10013	corsiblockEngRev	recallseqEngRev	10	doneCorsiEng	903	0	118	13:53:35	1662457	5	0	0	0	0	0	0	0	0	0	0	0	0	0	0	7	6
121912	13:53:35	10013	testEng6mo	WordsEng6mo	11	6Eng6mo	7835	0	118	13:53:35	1679624	5	0	0	0	0	0	3	0	0	0	0	0	0	0	0	7	6
121912	13:53:35	10013	testEng6mo	WordsEng6mo	11	7Eng6mo	185	0	118	13:53:35	1679863	5	0	0	0	0	0	3	3	0	0	0	0	0	0	0	7	6
121912	13:53:35	10013	testEng6mo	WordsEng6mo	11	3Eng6mo	2177	0	118	13:53:35	1682089	5	0	0	3	0	0	3	3	0	0	0	0	0	0	0	7	6
121912	13:53:35	10013	testEng6mo	WordsEng6mo	11	4Eng6mo	175	0	118	13:53:35	1682316	5	0	0	3	3	0	3	3	0	0	0	0	0	0	0	7	6
121912	13:53:35	10013	testEng6mo	WordsEng6mo	11	5Eng6mo	301	0	118	13:53:35	1682662	5	0	0	3	3	3	3	3	0	0	0	0	0	0	0	7	6
121912	13:53:35	10013	testEng6mo	WordsEng6mo	11	1Eng6mo	531	0	118	13:53:35	1683249	5	3	0	3	3	3	3	3	0	0	0	0	0	0	0	7	6
121912	13:53:35	10013	testEng6mo	WordsEng6mo	11	8Eng6mo	10658	0	118	13:53:35	1693964	5	3	0	3	3	3	3	3	3	0	0	0	0	0	0	7	6
121912	13:53:35	10013	testEng6mo	WordsEng6mo	11	DoneEng6mo	8668	0	118	13:53:35	1702681	5	3	0	3	3	3	3	3	3	0	0	0	0	0	0	7	6
121912	13:53:35	10013	testEng6mo	Cat2Eng6mo	11	R2Eng6mo	7837	0	118	13:53:35	1710557	5	3	2	3	3	3	3	3	3	0	0	0	0	0	0	7	6
121912	13:53:35	10013	DigitSpanFwrdEng6mo	Score1FwrdEng6mo	12	DS1	2690	0	118	13:53:35	1724352	5	3	2	3	3	3	3	3	3	0	0	0	0	0	0	7	6
121912	13:53:35	10013	DigitSpanFwrdEng6mo	Gate1FwrdEng6mo	12	0	1	0	118	13:53:35	1724356	5	3	2	3	3	3	3	3	3	3	0	0	0	0	0	7	6
121912	13:53:35	10013	DigitSpanFwrdEng6mo	Score2FwrdEng6mo	12	DS1	1355	0	118	13:53:35	1732469	5	3	2	3	3	3	3	3	3	3	0	0	0	0	0	7	6
121912	13:53:35	10013	DigitSpanFwrdEng6mo	Gate3FwrdEng6mo	12	0	1	0	118	13:53:35	1732474	5	3	2	3	3	3	3	3	3	4	0	0	0	0	0	7	6
121912	13:53:35	10013	DigitSpanFwrdEng6mo	Score3FwrdEng6mo	12	DS2	3612	0	118	13:53:35	1744117	5	3	2	3	3	3	3	3	3	4	0	0	0	0	0	7	6
121912	13:53:35	10013	DigitSpanFwrdEng6mo	Gate5FwrdEng6mo	12	0	1	0	118	13:53:35	1744122	5	3	2	3	3	3	3	3	3	4	0	0	0	0	0	7	6
121912	13:53:35	10013	DigitSpanFwrdEng6mo	Score33FwrdEng6mo	12	DS1	3654	0	118	13:53:35	1756019	5	3	2	3	3	3	3	3	3	4	0	0	0	0	0	7	6
121912	13:53:35	10013	DigitSpanFwrdEng6mo	Gate6FwrdEng6mo	12	0	1	0	118	13:53:35	1756023	5	3	2	3	3	3	3	3	3	5	0	0	0	0	0	7	6
121912	13:53:35	10013	DigitSpanFwrdEng6mo	Score4FwrdEng6mo	12	DS2	4288	0	118	13:53:35	1769827	5	3	2	3	3	3	3	3	3	5	0	0	0	0	0	7	6
121912	13:53:35	10013	DigitSpanFwrdEng6mo	Gate7FwrdEng6mo	12	0	1	0	118	13:53:35	1769831	5	3	2	3	3	3	3	3	3	5	0	0	0	0	0	7	6
121912	13:53:35	10013	DigitSpanFwrdEng6mo	Score44FwrdEng6mo	12	DS1	4225	0	118	13:53:35	1783661	5	3	2	3	3	3	3	3	3	5	0	0	0	0	0	7	6
121912	13:53:35	10013	DigitSpanFwrdEng6mo	Gate8FwrdEng6mo	12	0	1	0	118	13:53:35	1783665	5	3	2	3	3	3	3	3	3	6	0	0	0	0	0	7	6
121912	13:53:35	10013	DigitSpanFwrdEng6mo	Score5FwrdEng6mo	12	DS2	6036	0	118	13:53:35	1800694	5	3	2	3	3	3	3	3	3	6	0	0	0	0	0	7	6
121912	13:53:35	10013	DigitSpanFwrdEng6mo	Gate9FwrdEng6mo	12	0	1	0	118	13:53:35	1800699	5	3	2	3	3	3	3	3	3	6	0	0	0	0	0	7	6
121912	13:53:35	10013	DigitSpanFwrdEng6mo	Score55FwrdEng6mo	12	DS2	5250	0	118	13:53:35	1817101	5	3	2	3	3	3	3	3	3	6	0	0	0	0	0	7	6
121912	13:53:35	10013	DigitSpanEng6mo	Score1Eng6mo	13	DS1	3285	0	118	13:53:35	1830988	5	3	2	3	3	3	3	3	3	6	0	0	0	0	0	7	6
121912	13:53:35	10013	DigitSpanEng6mo	Gate1Eng6mo	13	0	1	0	118	13:53:35	1830993	5	3	2	3	3	3	3	3	3	6	2	0	0	0	0	7	6
121912	13:53:35	10013	DigitSpanEng6mo	Score2Eng6mo	13	DS1	2909	0	118	13:53:35	1838839	5	3	2	3	3	3	3	3	3	6	2	0	0	0	0	7	6
121912	13:53:35	10013	DigitSpanEng6mo	Gate3Eng6mo	13	0	1	0	118	13:53:35	1838844	5	3	2	3	3	3	3	3	3	6	3	0	0	0	0	7	6
121912	13:53:35	10013	DigitSpanEng6mo	Score3Eng6mo	13	DS1	3145	0	118	13:53:35	1848555	5	3	2	3	3	3	3	3	3	6	3	0	0	0	0	7	6
121912	13:53:35	10013	DigitSpanEng6mo	Gate5Eng6mo	13	0	1	0	118	13:53:35	1848559	5	3	2	3	3	3	3	3	3	6	4	0	0	0	0	7	6
121912	13:53:35	10013	DigitSpanEng6mo	Score4Eng6mo	13	DS2	4512	0	118	13:53:35	1860843	5	3	2	3	3	3	3	3	3	6	4	0	0	0	0	7	6
121912	13:53:35	10013	DigitSpanEng6mo	Gate7Eng6mo	13	0	1	0	118	13:53:35	1860848	5	3	2	3	3	3	3	3	3	6	4	0	0	0	0	7	6
121912	13:53:35	10013	DigitSpanEng6mo	Score44Eng6mo	13	DS2	6346	0	118	13:53:35	1874864	5	3	2	3	3	3	3	3	3	6	4	0	0	0	0	7	6
121912	13:53:35	10013	Trial	ResponseIL	14	0	175	0	118	13:53:35	1916247	5	3	2	3	3	3	3	3	3	6	4	0	0	0	0	7	6
121912	13:53:35	10013	Trial	IncongruentLeft	14	203	545	1	118	13:53:35	1916820	5	3	2	3	3	3	3	3	3	6	4	0	0	0	0	7	6
121912	13:53:35	10013	Trial	ResponseCR	14	0	175	0	118	13:53:35	1917953	5	3	2	3	3	3	3	3	3	6	4	0	0	0	0	7	6
121912	13:53:35	10013	Trial	CongruentRight	14	205	359	1	118	13:53:35	1918340	5	3	2	3	3	3	3	3	3	6	4	0	0	0	0	7	6
121912	13:53:35	10013	Trial	ResponseIR	14	0	175	0	118	13:53:35	1919659	5	3	2	3	3	3	3	3	3	6	4	0	0	0	0	7	6
121912	13:53:35	10013	Trial	IncongruentRight	14	205	461	1	118	13:53:35	1920139	5	3	2	3	3	3	3	3	3	6	4	0	0	0	0	7	6
121912	13:53:35	10013	Trial	ResponseCL	14	0	175	0	118	13:53:35	1921365	5	3	2	3	3	3	3	3	3	6	4	0	0	0	0	7	6
121912	13:53:35	10013	Trial	CongruentLeft	14	203	227	1	118	13:53:35	1921618	5	3	2	3	3	3	3	3	3	6	4	0	0	0	0	7	6
121912	13:53:35	10013	Trial	ResponseCR	14	0	175	0	118	13:53:35	1923071	5	3	2	3	3	3	3	3	3	6	4	0	0	0	0	7	6
121912	13:53:35	10013	Trial	CongruentRight	14	205	185	1	118	13:53:35	1923285	5	3	2	3	3	3	3	3	3	6	4	0	0	0	0	7	6
121912	13:53:35	10013	Trial	ResponseIR	14	0	175	0	118	13:53:35	1924777	5	3	2	3	3	3	3	3	3	6	4	0	0	0	0	7	6
121912	13:53:35	10013	Trial	IncongruentRight	14	205	479	1	118	13:53:35	1925284	5	3	2	3	3	3	3	3	3	6	4	0	0	0	0	7	6
121912	13:53:35	10013	Trial	ResponseCL	14	0	175	0	118	13:53:35	1926483	5	3	2	3	3	3	3	3	3	6	4	0	0	0	0	7	6
121912	13:53:35	10013	Trial	CongruentLeft	14	203	293	1	118	13:53:35	1926803	5	3	2	3	3	3	3	3	3	6	4	0	0	0	0	7	6
121912	13:53:35	10013	Trial	ResponseIL	14	0	175	0	118	13:53:35	1928189	5	3	2	3	3	3	3	3	3	6	4	0	0	0	0	7	6
121912	13:53:35	10013	Trial	IncongruentLeft	14	203	475	1	118	13:53:35	1928682	5	3	2	3	3	3	3	3	3	6	4	0	0	0	0	7	6
121912	13:53:35	10013	Trial	ResponseIL	14	0	175	0	118	13:53:35	1929895	5	3	2	3	3	3	3	3	3	6	4	0	0	0	0	7	6
121912	13:53:35	10013	Trial	IncongruentLeft	14	203	465	1	118	13:53:35	1930388	5	3	2	3	3	3	3	3	3	6	4	0	0	0	0	7	6
121912	13:53:35	10013	Trial	ResponseCR	14	0	175	0	118	13:53:35	1931601	5	3	2	3	3	3	3	3	3	6	4	0	0	0	0	7	6
121912	13:53:35	10013	Trial	CongruentRight	14	205	295	1	118	13:53:35	1931921	5	3	2	3	3	3	3	3	3	6	4	0	0	0	0	7	6
121912	13:53:35	10013	Trial	ResponseIR	14	0	175	0	118	13:53:35	1933307	5	3	2	3	3	3	3	3	3	6	4	0	0	0	0	7	6
121912	13:53:35	10013	Trial	IncongruentRight	14	205	429	1	118	13:53:35	1933760	5	3	2	3	3	3	3	3	3	6	4	0	0	0	0	7	6
121912	13:53:35	10013	Trial	ResponseCL	14	0	175	0	118	13:53:35	1935013	5	3	2	3	3	3	3	3	3	6	4	0	0	0	0	7	6
121912	13:53:35	10013	Trial	CongruentLeft	14	203	274	1	118	13:53:35	1935306	5	3	2	3	3	3	3	3	3	6	4	0	0	0	0	7	6
121912	13:53:35	10013	Trial	ResponseCR	14	0	175	0	118	13:53:35	1936719	5	3	2	3	3	3	3	3	3	6	4	0	0	0	0	7	6
121912	13:53:35	10013	Trial	CongruentRight	14	205	232	1	118	13:53:35	1936972	5	3	2	3	3	3	3	3	3	6	4	0	0	0	0	7	6
121912	13:53:35	10013	Trial	ResponseIL	14	0	175	0	118	13:53:35	1938425	5	3	2	3	3	3	3	3	3	6	4	0	0	0	0	7	6
121912	13:53:35	10013	Trial	IncongruentLeft	14	203	334	1	118	13:53:35	1938785	5	3	2	3	3	3	3	3	3	6	4	0	0	0	0	7	6
121912	13:53:35	10013	Trial	ResponseIR	14	0	175	0	118	13:53:35	1940131	5	3	2	3	3	3	3	3	3	6	4	0	0	0	0	7	6
121912	13:53:35	10013	Trial	IncongruentRight	14	205	341	1	118	13:53:35	1940491	5	3	2	3	3	3	3	3	3	6	4	0	0	0	0	7	6
121912	13:53:35	10013	Trial	ResponseCR	14	0	175	0	118	13:53:35	1941837	5	3	2	3	3	3	3	3	3	6	4	0	0	0	0	7	6
121912	13:53:35	10013	Trial	CongruentRight	14	205	362	1	118	13:53:35	1942224	5	3	2	3	3	3	3	3	3	6	4	0	0	0	0	7	6
121912	13:53:35	10013	Trial	ResponseCL	14	0	175	0	118	13:53:35	1943543	5	3	2	3	3	3	3	3	3	6	4	0	0	0	0	7	6
121912	13:53:35	10013	Trial	CongruentLeft	14	203	272	1	118	13:53:35	1943836	5	3	2	3	3	3	3	3	3	6	4	0	0	0	0	7	6
121912	13:53:35	10013	Trial	ResponseCR	14	0	175	0	118	13:53:35	1945249	5	3	2	3	3	3	3	3	3	6	4	0	0	0	0	7	6
121912	13:53:35	10013	Trial	CongruentRight	14	205	230	1	118	13:53:35	1945502	5	3	2	3	3	3	3	3	3	6	4	0	0	0	0	7	6
121912	13:53:35	10013	Trial	ResponseIR	14	0	175	0	118	13:53:35	1946955	5	3	2	3	3	3	3	3	3	6	4	0	0	0	0	7	6
121912	13:53:35	10013	Trial	IncongruentRight	14	205	397	1	118	13:53:35	1947368	5	3	2	3	3	3	3	3	3	6	4	0	0	0	0	7	6
121912	13:53:35	10013	Trial	ResponseIL	14	0	175	0	118	13:53:35	1948661	5	3	2	3	3	3	3	3	3	6	4	0	0	0	0	7	6
121912	13:53:35	10013	Trial	IncongruentLeft	14	203	290	1	118	13:53:35	1948967	5	3	2	3	3	3	3	3	3	6	4	0	0	0	0	7	6
121912	13:53:35	10013	Trial	ResponseIL	14	0	175	0	118	13:53:35	1950367	5	3	2	3	3	3	3	3	3	6	4	0	0	0	0	7	6
121912	13:53:35	10013	Trial	IncongruentLeft	14	203	360	1	118	13:53:35	1950753	5	3	2	3	3	3	3	3	3	6	4	0	0	0	0	7	6
121912	13:53:35	10013	Trial	ResponseCL	14	0	175	0	118	13:53:35	1952073	5	3	2	3	3	3	3	3	3	6	4	0	0	0	0	7	6
121912	13:53:35	10013	Trial	CongruentLeft	14	203	334	1	118	13:53:35	1952433	5	3	2	3	3	3	3	3	3	6	4	0	0	0	0	7	6
121912	13:53:35	10013	Trial	ResponseCR	14	0	175	0	118	13:53:35	1953779	5	3	2	3	3	3	3	3	3	6	4	0	0	0	0	7	6
121912	13:53:35	10013	Trial	CongruentRight	14	205	292	1	118	13:53:35	1954099	5	3	2	3	3	3	3	3	3	6	4	0	0	0	0	7	6
121912	13:53:35	10013	Trial	ResponseIL	14	0	175	0	118	13:53:35	1955485	5	3	2	3	3	3	3	3	3	6	4	0	0	0	0	7	6
121912	13:53:35	10013	Trial	IncongruentLeft	14	203	314	1	118	13:53:35	1955818	5	3	2	3	3	3	3	3	3	6	4	0	0	0	0	7	6
121912	13:53:35	10013	Trial	ResponseIR	14	0	175	0	118	13:53:35	1957191	5	3	2	3	3	3	3	3	3	6	4	0	0	0	0	7	6
121912	13:53:35	10013	Trial	IncongruentRight	14	205	465	1	118	13:53:35	1957684	5	3	2	3	3	3	3	3	3	6	4	0	0	0	0	7	6
121912	13:53:35	10013	Trial	ResponseCR	14	0	175	0	118	13:53:35	1958897	5	3	2	3	3	3	3	3	3	6	4	0	0	0	0	7	6
121912	13:53:35	10013	Trial	CongruentRight	14	205	358	1	118	13:53:35	1959283	5	3	2	3	3	3	3	3	3	6	4	0	0	0	0	7	6
121912	13:53:35	10013	Trial	ResponseCL	14	0	175	0	118	13:53:35	1960603	5	3	2	3	3	3	3	3	3	6	4	0	0	0	0	7	6
121912	13:53:35	10013	Trial	CongruentLeft	14	203	268	1	118	13:53:35	1960896	5	3	2	3	3	3	3	3	3	6	4	0	0	0	0	7	6
121912	13:53:35	10013	Trial	ResponseIR	14	0	175	0	118	13:53:35	1962309	5	3	2	3	3	3	3	3	3	6	4	0	0	0	0	7	6
121912	13:53:35	10013	Trial	IncongruentRight	14	205	274	1	118	13:53:35	1962602	5	3	2	3	3	3	3	3	3	6	4	0	0	0	0	7	6
121912	13:53:35	10013	Trial	ResponseIL	14	0	175	0	118	13:53:35	1964015	5	3	2	3	3	3	3	3	3	6	4	0	0	0	0	7	6
121912	13:53:35	10013	Trial	IncongruentLeft	14	203	376	1	118	13:53:35	1964415	5	3	2	3	3	3	3	3	3	6	4	0	0	0	0	7	6
121912	13:53:35	10013	Trial	ResponseIR	14	0	175	0	118	13:53:35	1965721	5	3	2	3	3	3	3	3	3	6	4	0	0	0	0	7	6
121912	13:53:35	10013	Trial	IncongruentRight	14	205	286	1	118	13:53:35	1966027	5	3	2	3	3	3	3	3	3	6	4	0	0	0	0	7	6
121912	13:53:35	10013	Trial	ResponseCR	14	0	175	0	118	13:53:35	1967427	5	3	2	3	3	3	3	3	3	6	4	0	0	0	0	7	6
121912	13:53:35	10013	Trial	CongruentRight	14	205	356	1	118	13:53:35	1967800	5	3	2	3	3	3	3	3	3	6	4	0	0	0	0	7	6
121912	13:53:35	10013	Trial	ResponseIL	14	0	175	0	118	13:53:35	1969133	5	3	2	3	3	3	3	3	3	6	4	0	0	0	0	7	6
121912	13:53:35	10013	Trial	IncongruentLeft	14	203	346	1	118	13:53:35	1969506	5	3	2	3	3	3	3	3	3	6	4	0	0	0	0	7	6
121912	13:53:35	10013	Trial	ResponseCL	14	0	175	0	118	13:53:35	1970839	5	3	2	3	3	3	3	3	3	6	4	0	0	0	0	7	6
121912	13:53:35	10013	Trial	CongruentLeft	14	203	480	1	118	13:53:35	1971345	5	3	2	3	3	3	3	3	3	6	4	0	0	0	0	7	6
121912	13:53:35	10013	Trial	ResponseCR	14	0	175	0	118	13:53:35	1972545	5	3	2	3	3	3	3	3	3	6	4	0	0	0	0	7	6
121912	13:53:35	10013	Trial	CongruentRight	14	205	281	1	118	13:53:35	1972851	5	3	2	3	3	3	3	3	3	6	4	0	0	0	0	7	6
121912	13:53:35	10013	Trial	ResponseIL	14	0	175	0	118	13:53:35	1974250	5	3	2	3	3	3	3	3	3	6	4	0	0	0	0	7	6
121912	13:53:35	10013	Trial	IncongruentLeft	14	203	364	1	118	13:53:35	1974637	5	3	2	3	3	3	3	3	3	6	4	0	0	0	0	7	6
121912	13:53:35	10013	Trial	ResponseIR	14	0	175	0	118	13:53:35	1975957	5	3	2	3	3	3	3	3	3	6	4	0	0	0	0	7	6
121912	13:53:35	10013	Trial	IncongruentRight	14	205	322	1	118	13:53:35	1976303	5	3	2	3	3	3	3	3	3	6	4	0	0	0	0	7	6
121912	13:53:35	10013	Trial	ResponseIR	14	0	175	0	118	13:53:35	1977663	5	3	2	3	3	3	3	3	3	6	4	0	0	0	0	7	6
121912	13:53:35	10013	Trial	IncongruentRight	14	205	456	1	118	13:53:35	1978142	5	3	2	3	3	3	3	3	3	6	4	0	0	0	0	7	6
121912	13:53:35	10013	Trial	ResponseCL	14	0	175	0	118	13:53:35	1979369	5	3	2	3	3	3	3	3	3	6	4	0	0	0	0	7	6
121912	13:53:35	10013	Trial	CongruentLeft	14	203	318	1	118	13:53:35	1979715	5	3	2	3	3	3	3	3	3	6	4	0	0	0	0	7	6
121912	13:53:35	10013	Trial	ResponseIL	14	0	175	0	118	13:53:35	1981075	5	3	2	3	3	3	3	3	3	6	4	0	0	0	0	7	6
121912	13:53:35	10013	Trial	IncongruentLeft	14	203	452	1	118	13:53:35	1981554	5	3	2	3	3	3	3	3	3	6	4	0	0	0	0	7	6
121912	13:53:35	10013	Trial	ResponseCR	14	0	175	0	118	13:53:35	1982780	5	3	2	3	3	3	3	3	3	6	4	0	0	0	0	7	6
121912	13:53:35	10013	Trial	CongruentRight	14	205	218	1	118	13:53:35	1983020	5	3	2	3	3	3	3	3	3	6	4	0	0	0	0	7	6
121912	13:53:35	10013	Trial	ResponseCL	14	0	175	0	118	13:53:35	1984486	5	3	2	3	3	3	3	3	3	6	4	0	0	0	0	7	6
121912	13:53:35	10013	Trial	CongruentLeft	14	203	224	1	118	13:53:35	1984740	5	3	2	3	3	3	3	3	3	6	4	0	0	0	0	7	6
121912	13:53:35	10013	Trial	ResponseIR	14	0	175	0	118	13:53:35	1986193	5	3	2	3	3	3	3	3	3	6	4	0	0	0	0	7	6
121912	13:53:35	10013	Trial	IncongruentRight	14	205	293	1	118	13:53:35	1986512	5	3	2	3	3	3	3	3	3	6	4	0	0	0	0	7	6
121912	13:53:35	10013	Trial	ResponseCR	14	0	175	0	118	13:53:35	1987898	5	3	2	3	3	3	3	3	3	6	4	0	0	0	0	7	6
121912	13:53:35	10013	Trial	CongruentRight	14	205	396	1	118	13:53:35	1988311	5	3	2	3	3	3	3	3	3	6	4	0	0	0	0	7	6
121912	13:53:35	10013	Trial	ResponseIL	14	0	175	0	118	13:53:35	1989604	5	3	2	3	3	3	3	3	3	6	4	0	0	0	0	7	6
121912	13:53:35	10013	Trial	IncongruentLeft	14	203	306	1	118	13:53:35	1989938	5	3	2	3	3	3	3	3	3	6	4	0	0	0	0	7	6
121912	13:53:35	10013	Trial	ResponseCL	14	0	175	0	118	13:53:35	1991310	5	3	2	3	3	3	3	3	3	6	4	0	0	0	0	7	6
121912	13:53:35	10013	Trial	CongruentLeft	14	203	408	1	118	13:53:35	1991737	5	3	2	3	3	3	3	3	3	6	4	0	0	0	0	7	6
121912	13:53:35	10013	Trial	ResponseIL	14	0	175	0	118	13:53:35	1993016	5	3	2	3	3	3	3	3	3	6	4	0	0	0	0	7	6
121912	13:53:35	10013	Trial	IncongruentLeft	14	203	478	1	118	13:53:35	1993523	5	3	2	3	3	3	3	3	3	6	4	0	0	0	0	7	6
121912	13:53:35	10013	Trial	ResponseIR	14	0	175	0	118	13:53:35	1994722	5	3	2	3	3	3	3	3	3	6	4	0	0	0	0	7	6
121912	13:53:35	10013	Trial	IncongruentRight	14	205	356	1	118	13:53:35	1995096	5	3	2	3	3	3	3	3	3	6	4	0	0	0	0	7	6
121912	13:53:35	10013	Trial	ResponseCR	14	0	175	0	118	13:53:35	1996428	5	3	2	3	3	3	3	3	3	6	4	0	0	0	0	7	6
121912	13:53:35	10013	Trial	CongruentRight	14	205	346	1	118	13:53:35	1996801	5	3	2	3	3	3	3	3	3	6	4	0	0	0	0	7	6
121912	13:53:35	10013	Trial	ResponseCL	14	0	175	0	118	13:53:35	1998134	5	3	2	3	3	3	3	3	3	6	4	0	0	0	0	7	6
121912	13:53:35	10013	Trial	CongruentLeft	14	203	256	1	118	13:53:35	1998414	5	3	2	3	3	3	3	3	3	6	4	0	0	0	0	7	6
121912	13:53:35	10013	Trial	ResponseCL	14	0	175	0	118	13:53:35	1999840	5	3	2	3	3	3	3	3	3	6	4	0	0	0	0	7	6
121912	13:53:35	10013	Trial	CongruentLeft	14	203	390	1	118	13:53:35	2000253	5	3	2	3	3	3	3	3	3	6	4	0	0	0	0	7	6
121912	13:53:35	10013	Trial	ResponseIR	14	0	175	0	118	13:53:35	2001546	5	3	2	3	3	3	3	3	3	6	4	0	0	0	0	7	6
121912	13:53:35	10013	Trial	IncongruentRight	14	205	412	1	118	13:53:35	2001986	5	3	2	3	3	3	3	3	3	6	4	0	0	0	0	7	6
121912	13:53:35	10013	Trial	ResponseIL	14	0	175	0	118	13:53:35	2003252	5	3	2	3	3	3	3	3	3	6	4	0	0	0	0	7	6
121912	13:53:35	10013	Trial	IncongruentLeft	14	203	322	1	118	13:53:35	2003599	5	3	2	3	3	3	3	3	3	6	4	0	0	0	0	7	6
121912	13:53:35	10013	Trial	ResponseIR	14	0	175	0	118	13:53:35	2004958	5	3	2	3	3	3	3	3	3	6	4	0	0	0	0	7	6
121912	13:53:35	10013	Trial	IncongruentRight	14	205	424	1	118	13:53:35	2005411	5	3	2	3	3	3	3	3	3	6	4	0	0	0	0	7	6
121912	13:53:35	10013	Trial	ResponseCR	14	0	175	0	118	13:53:35	2006664	5	3	2	3	3	3	3	3	3	6	4	0	0	0	0	7	6
121912	13:53:35	10013	Trial	CongruentRight	14	205	414	1	118	13:53:35	2007104	5	3	2	3	3	3	3	3	3	6	4	0	0	0	0	7	6
121912	13:53:35	10013	Trial	ResponseCR	14	0	175	0	118	13:53:35	2008370	5	3	2	3	3	3	3	3	3	6	4	0	0	0	0	7	6
121912	13:53:35	10013	Trial	CongruentRight	14	205	324	1	118	13:53:35	2008717	5	3	2	3	3	3	3	3	3	6	4	0	0	0	0	7	6
121912	13:53:35	10013	Trial	ResponseIL	14	0	175	0	118	13:53:35	2010076	5	3	2	3	3	3	3	3	3	6	4	0	0	0	0	7	6
121912	13:53:35	10013	Trial	IncongruentLeft	14	203	362	1	118	13:53:35	2010463	5	3	2	3	3	3	3	3	3	6	4	0	0	0	0	7	6
121912	13:53:35	10013	Trial	ResponseCL	14	0	175	0	118	13:53:35	2011782	5	3	2	3	3	3	3	3	3	6	4	0	0	0	0	7	6
121912	13:53:35	10013	Trial	CongruentLeft	14	203	432	1	118	13:53:35	2012235	5	3	2	3	3	3	3	3	3	6	4	0	0	0	0	7	6
121912	13:53:35	10013	Trial	ResponseCR	14	0	175	0	118	13:53:35	2013488	5	3	2	3	3	3	3	3	3	6	4	0	0	0	0	7	6
121912	13:53:35	10013	Trial	CongruentRight	14	205	358	1	118	13:53:35	2013875	5	3	2	3	3	3	3	3	3	6	4	0	0	0	0	7	6
121912	13:53:35	10013	Trial	ResponseCL	14	0	175	0	118	13:53:35	2015194	5	3	2	3	3	3	3	3	3	6	4	0	0	0	0	7	6
121912	13:53:35	10013	Trial	CongruentLeft	14	203	220	1	118	13:53:35	2015434	5	3	2	3	3	3	3	3	3	6	4	0	0	0	0	7	6
121912	13:53:35	10013	Trial	ResponseIR	14	0	175	0	118	13:53:35	2016900	5	3	2	3	3	3	3	3	3	6	4	0	0	0	0	7	6
121912	13:53:35	10013	Trial	IncongruentRight	14	205	306	1	118	13:53:35	2017233	5	3	2	3	3	3	3	3	3	6	4	0	0	0	0	7	6
121912	13:53:35	10013	Trial	ResponseCR	14	0	175	0	118	13:53:35	2018606	5	3	2	3	3	3	3	3	3	6	4	0	0	0	0	7	6
121912	13:53:35	10013	Trial	CongruentRight	14	205	328	1	118	13:53:35	2018952	5	3	2	3	3	3	3	3	3	6	4	0	0	0	0	7	6
121912	13:53:35	10013	Trial	ResponseCL	14	0	175	0	118	13:53:35	2020312	5	3	2	3	3	3	3	3	3	6	4	0	0	0	0	7	6
121912	13:53:35	10013	Trial	CongruentLeft	14	203	270	1	118	13:53:35	2020605	5	3	2	3	3	3	3	3	3	6	4	0	0	0	0	7	6
121912	13:53:35	10013	Trial	ResponseIL	14	0	175	0	118	13:53:35	2022018	5	3	2	3	3	3	3	3	3	6	4	0	0	0	0	7	6
121912	13:53:35	10013	Trial	IncongruentLeft	14	203	452	1	118	13:53:35	2022498	5	3	2	3	3	3	3	3	3	6	4	0	0	0	0	7	6
121912	13:53:35	10013	Trial	ResponseIL	14	0	175	0	118	13:53:35	2023724	5	3	2	3	3	3	3	3	3	6	4	0	0	0	0	7	6
121912	13:53:35	10013	Trial	IncongruentLeft	14	203	554	1	118	13:53:35	2024297	5	3	2	3	3	3	3	3	3	6	4	0	0	0	0	7	6
121912	13:53:35	10013	Trial	ResponseCR	14	0	175	0	118	13:53:35	2025430	5	3	2	3	3	3	3	3	3	6	4	0	0	0	0	7	6
121912	13:53:35	10013	Trial	CongruentRight	14	205	368	1	118	13:53:35	2025816	5	3	2	3	3	3	3	3	3	6	4	0	0	0	0	7	6
121912	13:53:35	10013	Trial	ResponseIR	14	0	175	0	118	13:53:35	2027136	5	3	2	3	3	3	3	3	3	6	4	0	0	0	0	7	6
121912	13:53:35	10013	Trial	IncongruentRight	14	205	438	1	118	13:53:35	2027602	5	3	2	3	3	3	3	3	3	6	4	0	0	0	0	7	6
121912	13:53:35	10013	Trial	ResponseCL	14	0	175	0	118	13:53:35	2028842	5	3	2	3	3	3	3	3	3	6	4	0	0	0	0	7	6
121912	13:53:35	10013	Trial	CongruentLeft	14	203	412	1	118	13:53:35	2029282	5	3	2	3	3	3	3	3	3	6	4	0	0	0	0	7	6
121912	13:53:35	10013	Trial	ResponseIR	14	0	175	0	118	13:53:35	2030548	5	3	2	3	3	3	3	3	3	6	4	0	0	0	0	7	6
121912	13:53:35	10013	Trial	IncongruentRight	14	205	449	1	118	13:53:35	2031014	5	3	2	3	3	3	3	3	3	6	4	0	0	0	0	7	6
121912	13:53:35	10013	Trial	ResponseCR	14	0	175	0	118	13:53:35	2032254	5	3	2	3	3	3	3	3	3	6	4	0	0	0	0	7	6
121912	13:53:35	10013	Trial	CongruentRight	14	205	328	1	118	13:53:35	2032600	5	3	2	3	3	3	3	3	3	6	4	0	0	0	0	7	6
121912	13:53:35	10013	Trial	ResponseIL	14	0	175	0	118	13:53:35	2033960	5	3	2	3	3	3	3	3	3	6	4	0	0	0	0	7	6
121912	13:53:35	10013	Trial	IncongruentLeft	14	203	477	1	118	13:53:35	2034466	5	3	2	3	3	3	3	3	3	6	4	0	0	0	0	7	6
121912	13:53:35	10013	Trial	ResponseCL	14	0	175	0	118	13:53:35	2035666	5	3	2	3	3	3	3	3	3	6	4	0	0	0	0	7	6
121912	13:53:35	10013	Trial	CongruentLeft	14	203	419	1	118	13:53:35	2036106	5	3	2	3	3	3	3	3	3	6	4	0	0	0	0	7	6
121912	13:53:35	10013	Trial	ResponseCR	14	0	175	0	118	13:53:35	2037372	5	3	2	3	3	3	3	3	3	6	4	0	0	0	0	7	6
121912	13:53:35	10013	Trial	CongruentRight	14	205	297	1	118	13:53:35	2037692	5	3	2	3	3	3	3	3	3	6	4	0	0	0	0	7	6
121912	13:53:35	10013	Trial	ResponseIL	14	0	175	0	118	13:53:35	2039078	5	3	2	3	3	3	3	3	3	6	4	0	0	0	0	7	6
121912	13:53:35	10013	Trial	IncongruentLeft	14	203	320	1	118	13:53:35	2039424	5	3	2	3	3	3	3	3	3	6	4	0	0	0	0	7	6
121912	13:53:35	10013	Trial	ResponseCR	14	0	175	0	118	13:53:35	2040784	5	3	2	3	3	3	3	3	3	6	4	0	0	0	0	7	6
121912	13:53:35	10013	Trial	CongruentRight	14	205	310	1	118	13:53:35	2041117	5	3	2	3	3	3	3	3	3	6	4	0	0	0	0	7	6
121912	13:53:35	10013	Trial	ResponseCR	14	0	175	0	118	13:53:35	2042490	5	3	2	3	3	3	3	3	3	6	4	0	0	0	0	7	6
121912	13:53:35	10013	Trial	CongruentRight	14	205	459	1	118	13:53:35	2042970	5	3	2	3	3	3	3	3	3	6	4	0	0	0	0	7	6
121912	13:53:35	10013	Trial	ResponseIR	14	0	175	0	118	13:53:35	2044196	5	3	2	3	3	3	3	3	3	6	4	0	0	0	0	7	6
121912	13:53:35	10013	Trial	IncongruentRight	14	205	417	1	118	13:53:35	2044636	5	3	2	3	3	3	3	3	3	6	4	0	0	0	0	7	6
121912	13:53:35	10013	Trial	ResponseCL	14	0	175	0	118	13:53:35	2045902	5	3	2	3	3	3	3	3	3	6	4	0	0	0	0	7	6
121912	13:53:35	10013	Trial	CongruentLeft	14	203	391	1	118	13:53:35	2046315	5	3	2	3	3	3	3	3	3	6	4	0	0	0	0	7	6
121912	13:53:35	10013	Trial	ResponseIL	14	0	175	0	118	13:53:35	2047608	5	3	2	3	3	3	3	3	3	6	4	0	0	0	0	7	6
121912	13:53:35	10013	Trial	IncongruentLeft	14	203	478	1	118	13:53:35	2048114	5	3	2	3	3	3	3	3	3	6	4	0	0	0	0	7	6
121912	13:53:35	10013	Trial	ResponseCL	14	0	175	0	118	13:53:35	2049314	5	3	2	3	3	3	3	3	3	6	4	0	0	0	0	7	6
121912	13:53:35	10013	Trial	CongruentLeft	14	203	355	1	118	13:53:35	2049687	5	3	2	3	3	3	3	3	3	6	4	0	0	0	0	7	6
121912	13:53:35	10013	Trial	ResponseIR	14	0	175	0	118	13:53:35	2051020	5	3	2	3	3	3	3	3	3	6	4	0	0	0	0	7	6
121912	13:53:35	10013	Trial	IncongruentRight	14	205	329	1	118	13:53:35	2051366	5	3	2	3	3	3	3	3	3	6	4	0	0	0	0	7	6
121912	13:53:35	10013	Trial	ResponseIL	14	0	175	0	118	13:53:35	2052726	5	3	2	3	3	3	3	3	3	6	4	0	0	0	0	7	6
121912	13:53:35	10013	Trial	IncongruentLeft	14	203	287	1	118	13:53:35	2053032	5	3	2	3	3	3	3	3	3	6	4	0	0	0	0	7	6
121912	13:53:35	10013	Trial	ResponseCR	14	0	175	0	118	13:53:35	2054432	5	3	2	3	3	3	3	3	3	6	4	0	0	0	0	7	6
121912	13:53:35	10013	Trial	CongruentRight	14	205	325	1	118	13:53:35	2054778	5	3	2	3	3	3	3	3	3	6	4	0	0	0	0	7	6
121912	13:53:35	10013	Trial	ResponseCL	14	0	175	0	118	13:53:35	2056138	5	3	2	3	3	3	3	3	3	6	4	0	0	0	0	7	6
121912	13:53:35	10013	Trial	CongruentLeft	14	203	283	1	118	13:53:35	2056444	5	3	2	3	3	3	3	3	3	6	4	0	0	0	0	7	6
121912	13:53:35	10013	Trial	ResponseIL	14	0	175	0	118	13:53:35	2057844	5	3	2	3	3	3	3	3	3	6	4	0	0	0	0	7	6
121912	13:53:35	10013	Trial	IncongruentLeft	14	203	449	1	118	13:53:35	2058310	5	3	2	3	3	3	3	3	3	6	4	0	0	0	0	7	6
121912	13:53:35	10013	Trial	ResponseCL	14	0	175	0	118	13:53:35	2059550	5	3	2	3	3	3	3	3	3	6	4	0	0	0	0	7	6
121912	13:53:35	10013	Trial	CongruentLeft	14	203	391	1	118	13:53:35	2059963	5	3	2	3	3	3	3	3	3	6	4	0	0	0	0	7	6
121912	13:53:35	10013	Trial	ResponseIR	14	0	175	0	118	13:53:35	2061256	5	3	2	3	3	3	3	3	3	6	4	0	0	0	0	7	6
121912	13:53:35	10013	Trial	IncongruentRight	14	205	461	1	118	13:53:35	2061735	5	3	2	3	3	3	3	3	3	6	4	0	0	0	0	7	6
121912	13:53:35	10013	Trial	ResponseCR	14	0	175	0	118	13:53:35	2062962	5	3	2	3	3	3	3	3	3	6	4	0	0	0	0	7	6
121912	13:53:35	10013	Trial	CongruentRight	14	205	355	1	118	13:53:35	2063334	5	3	2	3	3	3	3	3	3	6	4	0	0	0	0	7	6
121912	13:53:35	10013	Trial	ResponseIL	14	0	175	0	118	13:53:35	2064668	5	3	2	3	3	3	3	3	3	6	4	0	0	0	0	7	6
121912	13:53:35	10013	Trial	IncongruentLeft	14	203	505	1	118	13:53:35	2065201	5	3	2	3	3	3	3	3	3	6	4	0	0	0	0	7	6
121912	13:53:35	10013	Trial	ResponseCL	14	0	175	0	118	13:53:35	2066373	5	3	2	3	3	3	3	3	3	6	4	0	0	0	0	7	6
121912	13:53:35	10013	Trial	CongruentLeft	14	203	495	1	118	13:53:35	2066893	5	3	2	3	3	3	3	3	3	6	4	0	0	0	0	7	6
121912	13:53:35	10013	Trial	ResponseIR	14	0	175	0	118	13:53:35	2068079	5	3	2	3	3	3	3	3	3	6	4	0	0	0	0	7	6
121912	13:53:35	10013	Trial	IncongruentRight	14	205	373	1	118	13:53:35	2068479	5	3	2	3	3	3	3	3	3	6	4	0	0	0	0	7	6
121912	13:53:35	10013	Trial	ResponseIL	14	0	175	0	118	13:53:35	2069785	5	3	2	3	3	3	3	3	3	6	4	0	0	0	0	7	6
121912	13:53:35	10013	Trial	IncongruentLeft	14	203	315	1	118	13:53:35	2070118	5	3	2	3	3	3	3	3	3	6	4	0	0	0	0	7	6
121912	13:53:35	10013	Trial	ResponseCL	14	0	175	0	118	13:53:35	2071492	5	3	2	3	3	3	3	3	3	6	4	0	0	0	0	7	6
121912	13:53:35	10013	Trial	CongruentLeft	14	203	305	1	118	13:53:35	2071825	5	3	2	3	3	3	3	3	3	6	4	0	0	0	0	7	6
121912	13:53:35	10013	Trial	ResponseIL	14	0	175	0	118	13:53:35	2073197	5	3	2	3	3	3	3	3	3	6	4	0	0	0	0	7	6
121912	13:53:35	10013	Trial	IncongruentLeft	14	203	295	1	118	13:53:35	2073517	5	3	2	3	3	3	3	3	3	6	4	0	0	0	0	7	6
121912	13:53:35	10013	Trial	ResponseCR	14	0	175	0	118	13:53:35	2074903	5	3	2	3	3	3	3	3	3	6	4	0	0	0	0	7	6
121912	13:53:35	10013	Trial	CongruentRight	14	205	333	1	118	13:53:35	2075263	5	3	2	3	3	3	3	3	3	6	4	0	0	0	0	7	6
121912	13:53:35	10013	Trial	ResponseCL	14	0	175	0	118	13:53:35	2076609	5	3	2	3	3	3	3	3	3	6	4	0	0	0	0	7	6
121912	13:53:35	10013	Trial	CongruentLeft	14	203	211	1	118	13:53:35	2076850	5	3	2	3	3	3	3	3	3	6	4	0	0	0	0	7	6
121912	13:53:35	10013	Trial	ResponseIR	14	0	175	0	118	13:53:35	2078315	5	3	2	3	3	3	3	3	3	6	4	0	0	0	0	7	6
121912	13:53:35	10013	Trial	IncongruentRight	14	205	345	1	118	13:53:35	2078689	5	3	2	3	3	3	3	3	3	6	4	0	0	0	0	7	6
121912	13:53:35	10013	Trial	ResponseCL	14	0	175	0	118	13:53:35	2080021	5	3	2	3	3	3	3	3	3	6	4	0	0	0	0	7	6
121912	13:53:35	10013	Trial	CongruentLeft	14	203	239	1	118	13:53:35	2080288	5	3	2	3	3	3	3	3	3	6	4	0	0	0	0	7	6
121912	13:53:35	10013	Trial	ResponseCR	14	0	175	0	118	13:53:35	2081727	5	3	2	3	3	3	3	3	3	6	4	0	0	0	0	7	6
121912	13:53:35	10013	Trial	CongruentRight	14	205	197	1	118	13:53:35	2081941	5	3	2	3	3	3	3	3	3	6	4	0	0	0	0	7	6
121912	13:53:35	10013	Trial	ResponseIL	14	0	175	0	118	13:53:35	2083433	5	3	2	3	3	3	3	3	3	6	4	0	0	0	0	7	6
121912	13:53:35	10013	Trial	IncongruentLeft	14	203	363	1	118	13:53:35	2083820	5	3	2	3	3	3	3	3	3	6	4	0	0	0	0	7	6
121912	13:53:35	10013	WordsAbsEng6mo	PAbsEng6mo1	16	Abs1	4222	0	118	13:53:35	2094895	5	3	2	3	3	3	3	3	3	6	4	0	0	0	0	7	6
121912	13:53:35	10013	WordsAbsEng6mo	AbsEng6mo1	16	Abs1	2229	0	118	13:53:35	2097161	5	3	2	3	3	3	3	3	3	6	4	1	0	0	0	7	6
121912	13:53:35	10013	WordsAbsEng6mo	AbsEng6mo2	16	Abs1	3428	0	118	13:53:35	2100626	5	3	2	3	3	3	3	3	3	6	4	2	0	0	0	7	6
121912	13:53:35	10013	WordsAbsEng6mo	AbsEng6mo3	16	Abs1	8546	0	118	13:53:35	2109210	5	3	2	3	3	3	3	3	3	6	4	3	0	0	0	7	6
121912	13:53:35	10013	Trial2BackEngS	NS	17	0	1000	1	118	13:53:35	2140464	5	3	2	3	3	3	3	3	3	6	4	3	0	0	0	7	6
121912	13:53:35	10013	Trial2BackEngS	NS	17	0	1000	1	118	13:53:35	2141970	5	3	2	3	3	3	3	3	3	6	4	3	0	0	0	7	6
121912	13:53:35	10013	Trial2BackEngS	NS	17	0	1000	1	118	13:53:35	2143476	5	3	2	3	3	3	3	3	3	6	4	3	0	0	0	7	6
121912	13:53:35	10013	Trial2BackEngS	YS	17	57	420	1	118	13:53:35	2144408	5	3	2	3	3	3	3	3	3	6	4	3	0	0	0	7	6
121912	13:53:35	10013	Trial2BackEngS	NS	17	0	1000	1	118	13:53:35	2146488	5	3	2	3	3	3	3	3	3	6	4	3	0	0	0	7	6
121912	13:53:35	10013	Trial2BackEngS	NS	17	0	1000	1	118	13:53:35	2147994	5	3	2	3	3	3	3	3	3	6	4	3	0	0	0	7	6
121912	13:53:35	10013	Trial2BackEngS	NS	17	0	1000	1	118	13:53:35	2149500	5	3	2	3	3	3	3	3	3	6	4	3	0	0	0	7	6
121912	13:53:35	10013	Trial2BackEngS	NS	17	0	1000	1	118	13:53:35	2151006	5	3	2	3	3	3	3	3	3	6	4	3	0	0	0	7	6
121912	13:53:35	10013	Trial2BackEngS	YS	17	57	457	1	118	13:53:35	2151979	5	3	2	3	3	3	3	3	3	6	4	3	0	0	0	7	6
121912	13:53:35	10013	Trial2BackEngS	NS	17	0	1000	1	118	13:53:35	2154018	5	3	2	3	3	3	3	3	3	6	4	3	0	0	0	7	6
121912	13:53:35	10013	Trial2BackEngS	NS	17	0	1000	1	118	13:53:35	2155524	5	3	2	3	3	3	3	3	3	6	4	3	0	0	0	7	6
121912	13:53:35	10013	Trial2BackEngS	YS	17	0	1000	0	118	13:53:35	2157044	5	3	2	3	3	3	3	3	3	6	4	3	0	0	0	7	6
121912	13:53:35	10013	Trial2BackEngS	NS	17	0	1000	1	118	13:53:35	2158550	5	3	2	3	3	3	3	3	3	6	4	3	0	0	0	7	6
121912	13:53:35	10013	Trial2BackEngS	NS	17	0	1000	1	118	13:53:35	2160056	5	3	2	3	3	3	3	3	3	6	4	3	0	0	0	7	6
121912	13:53:35	10013	Trial2BackEngS	NS	17	0	1000	1	118	13:53:35	2161562	5	3	2	3	3	3	3	3	3	6	4	3	0	0	0	7	6
121912	13:53:35	10013	Trial2BackEngS	YS	17	0	1000	0	118	13:53:35	2163068	5	3	2	3	3	3	3	3	3	6	4	3	0	0	0	7	6
121912	13:53:35	10013	Trial2BackEngS	NS	17	0	1000	1	118	13:53:35	2164574	5	3	2	3	3	3	3	3	3	6	4	3	0	0	0	7	6
121912	13:53:35	10013	Trial2BackEngS	NS	17	0	1000	1	118	13:53:35	2166080	5	3	2	3	3	3	3	3	3	6	4	3	0	0	0	7	6
121912	13:53:35	10013	Trial2BackEngS	NS	17	0	1000	1	118	13:53:35	2167586	5	3	2	3	3	3	3	3	3	6	4	3	0	0	0	7	6
121912	13:53:35	10013	Trial2BackEngS	NS	17	0	1000	1	118	13:53:35	2169105	5	3	2	3	3	3	3	3	3	6	4	3	0	0	0	7	6
121912	13:53:35	10013	Trial2BackEngS	YS	17	57	405	1	118	13:53:35	2170025	5	3	2	3	3	3	3	3	3	6	4	3	0	0	0	7	6
121912	13:53:35	10013	Trial2BackEngS	NS	17	0	1000	1	118	13:53:35	2172118	5	3	2	3	3	3	3	3	3	6	4	3	0	0	0	7	6
121912	13:53:35	10013	Trial2BackEngS	NS	17	0	1000	1	118	13:53:35	2173623	5	3	2	3	3	3	3	3	3	6	4	3	0	0	0	7	6
121912	13:53:35	10013	Trial2BackEngS	NS	17	0	1000	1	118	13:53:35	2175129	5	3	2	3	3	3	3	3	3	6	4	3	0	0	0	7	6
121912	13:53:35	10013	Trial2BackEngS	NS	17	0	1000	1	118	13:53:35	2176636	5	3	2	3	3	3	3	3	3	6	4	3	0	0	0	7	6
121912	13:53:35	10013	Trial2BackEngS	NS	17	0	1000	1	118	13:53:35	2178142	5	3	2	3	3	3	3	3	3	6	4	3	0	0	0	7	6
121912	13:53:35	10013	Trial2BackEngS	NS	17	0	1000	1	118	13:53:35	2179648	5	3	2	3	3	3	3	3	3	6	4	3	0	0	0	7	6
121912	13:53:35	10013	Trial2BackEngS	NS	17	57	439	0	118	13:53:35	2180607	5	3	2	3	3	3	3	3	3	6	4	3	0	0	0	7	6
121912	13:53:35	10013	Trial2BackEngS	NS	17	0	1000	1	118	13:53:35	2182660	5	3	2	3	3	3	3	3	3	6	4	3	0	0	0	7	6
121912	13:53:35	10013	Trial2BackEngS	NS	17	0	1000	1	118	13:53:35	2184166	5	3	2	3	3	3	3	3	3	6	4	3	0	0	0	7	6
121912	13:53:35	10013	Trial2BackEngS	NS	17	0	1000	1	118	13:53:35	2185672	5	3	2	3	3	3	3	3	3	6	4	3	0	0	0	7	6
121912	13:53:35	10013	Trial2BackEngS	YS	17	57	398	1	118	13:53:35	2186578	5	3	2	3	3	3	3	3	3	6	4	3	0	0	0	7	6
121912	13:53:35	10013	Trial2BackEngS	NS	17	0	1000	1	118	13:53:35	2188684	5	3	2	3	3	3	3	3	3	6	4	3	0	0	0	7	6
121912	13:53:35	10013	Trial2BackEngS	NS	17	0	1000	1	118	13:53:35	2190203	5	3	2	3	3	3	3	3	3	6	4	3	0	0	0	7	6
121912	13:53:35	10013	Trial2BackEngS	NS	17	0	1000	1	118	13:53:35	2191709	5	3	2	3	3	3	3	3	3	6	4	3	0	0	0	7	6
121912	13:53:35	10013	Trial2BackEngS	YS	17	57	713	1	118	13:53:35	2192936	5	3	2	3	3	3	3	3	3	6	4	3	0	0	0	7	6
121912	13:53:35	10013	Trial2BackEngS	NS	17	0	1000	1	118	13:53:35	2194722	5	3	2	3	3	3	3	3	3	6	4	3	0	0	0	7	6
121912	13:53:35	10013	Trial2BackEngS	NS	17	0	1000	1	118	13:53:35	2196228	5	3	2	3	3	3	3	3	3	6	4	3	0	0	0	7	6
121912	13:53:35	10013	Trial2BackEngS	NS	17	0	1000	1	118	13:53:35	2197734	5	3	2	3	3	3	3	3	3	6	4	3	0	0	0	7	6
121912	13:53:35	10013	Trial2BackEngS	NS	17	0	1000	1	118	13:53:35	2199240	5	3	2	3	3	3	3	3	3	6	4	3	0	0	0	7	6
121912	13:53:35	10013	Trial2BackEngS	NS	17	0	1000	1	118	13:53:35	2200746	5	3	2	3	3	3	3	3	3	6	4	3	0	0	0	7	6
121912	13:53:35	10013	Trial2BackEngS	NS	17	0	1000	1	118	13:53:35	2202265	5	3	2	3	3	3	3	3	3	6	4	3	0	0	0	7	6
121912	13:53:35	10013	Trial2BackEngS	NS	17	57	813	0	118	13:53:35	2203598	5	3	2	3	3	3	3	3	3	6	4	3	0	0	0	7	6
121912	13:53:35	10013	Trial2BackEngS	YS	17	0	1000	0	118	13:53:35	2205277	5	3	2	3	3	3	3	3	3	6	4	3	0	0	0	7	6
121912	13:53:35	10013	Trial2BackEngS	NS	17	0	1000	1	118	13:53:35	2206783	5	3	2	3	3	3	3	3	3	6	4	3	0	0	0	7	6
121912	13:53:35	10013	Trial2BackEngS	NS	17	0	1000	1	118	13:53:35	2208289	5	3	2	3	3	3	3	3	3	6	4	3	0	0	0	7	6
121912	13:53:35	10013	Trial2BackEngS	NS	17	0	1000	1	118	13:53:35	2209795	5	3	2	3	3	3	3	3	3	6	4	3	0	0	0	7	6
121912	13:53:35	10013	Trial2BackEngS	NS	17	57	962	0	118	13:53:35	2211275	5	3	2	3	3	3	3	3	3	6	4	3	0	0	0	7	6
121912	13:53:35	10013	Trial2BackEngS	YS	17	0	1000	0	118	13:53:35	2212808	5	3	2	3	3	3	3	3	3	6	4	3	0	0	0	7	6
121912	13:53:35	10013	Trial2BackEngS	NS	17	0	1000	1	118	13:53:35	2214314	5	3	2	3	3	3	3	3	3	6	4	3	0	0	0	7	6
121912	13:53:35	10013	Trial2BackEngS	NS	17	0	1000	1	118	13:53:35	2215820	5	3	2	3	3	3	3	3	3	6	4	3	0	0	0	7	6
121912	13:53:35	10013	Trial2BackEngS	NS	17	57	826	0	118	13:53:35	2217166	5	3	2	3	3	3	3	3	3	6	4	3	0	0	0	7	6
121912	13:53:35	10013	Trial2BackEngS	NS	17	0	1000	1	118	13:53:35	2218832	5	3	2	3	3	3	3	3	3	6	4	3	0	0	0	7	6
121912	13:53:35	10013	Trial2BackEngS	NS	17	57	630	0	118	13:53:35	2219978	5	3	2	3	3	3	3	3	3	6	4	3	0	0	0	7	6
121912	13:53:35	10013	Trial2BackEngS	NS	17	0	1000	1	118	13:53:35	2221844	5	3	2	3	3	3	3	3	3	6	4	3	0	0	0	7	6
121912	13:53:35	10013	Trial2BackEngS	YS	17	57	594	1	118	13:53:35	2222950	5	3	2	3	3	3	3	3	3	6	4	3	0	0	0	7	6
121912	13:53:35	10013	Trial2BackEngS	NS	17	0	1000	1	118	13:53:35	2224856	5	3	2	3	3	3	3	3	3	6	4	3	0	0	0	7	6
121912	13:53:35	10013	Trial2BackEngS	NS	17	0	1000	1	118	13:53:35	2226362	5	3	2	3	3	3	3	3	3	6	4	3	0	0	0	7	6
121912	13:53:35	10013	Trial2BackEngS	NS	17	0	1000	1	118	13:53:35	2227868	5	3	2	3	3	3	3	3	3	6	4	3	0	0	0	7	6
121912	13:53:35	10013	Trial2BackEngS	NS	17	0	1000	1	118	13:53:35	2229388	5	3	2	3	3	3	3	3	3	6	4	3	0	0	0	7	6
121912	13:53:35	10013	Trial2BackEngS	NS	17	0	1000	1	118	13:53:35	2230894	5	3	2	3	3	3	3	3	3	6	4	3	0	0	0	7	6
121912	13:53:35	10013	Trial2BackEngS	NS	17	57	904	0	118	13:53:35	2232307	5	3	2	3	3	3	3	3	3	6	4	3	0	0	0	7	6
121912	13:53:35	10013	Trial2BackEngS	NS	17	0	1000	1	118	13:53:35	2233906	5	3	2	3	3	3	3	3	3	6	4	3	0	0	0	7	6
121912	13:53:35	10013	Trial2BackEngS	YS	17	0	1000	0	118	13:53:35	2235412	5	3	2	3	3	3	3	3	3	6	4	3	0	0	0	7	6
121912	13:53:35	10013	Trial2BackEngS	NS	17	0	1000	1	118	13:53:35	2236918	5	3	2	3	3	3	3	3	3	6	4	3	0	0	0	7	6
121912	13:53:35	10013	Trial2BackEngS	NS	17	0	1000	1	118	13:53:35	2238424	5	3	2	3	3	3	3	3	3	6	4	3	0	0	0	7	6
121912	13:53:35	10013	Trial2BackEngS	NS	17	0	1000	1	118	13:53:35	2239930	5	3	2	3	3	3	3	3	3	6	4	3	0	0	0	7	6
121912	13:53:35	10013	Trial2BackEngS	NS	17	0	1000	1	118	13:53:35	2241436	5	3	2	3	3	3	3	3	3	6	4	3	0	0	0	7	6
121912	13:53:35	10013	Trial2BackEngS	YS	17	57	585	1	118	13:53:35	2242529	5	3	2	3	3	3	3	3	3	6	4	3	0	0	0	7	6
121912	13:53:35	10013	Trial2BackEngS	NS	17	0	1000	1	118	13:53:35	2244448	5	3	2	3	3	3	3	3	3	6	4	3	0	0	0	7	6
121912	13:53:35	10013	Trial2BackEngS	NS	17	0	1000	1	118	13:53:35	2245954	5	3	2	3	3	3	3	3	3	6	4	3	0	0	0	7	6
121912	13:53:35	10013	Trial2BackEngS	YS	17	57	904	1	118	13:53:35	2247394	5	3	2	3	3	3	3	3	3	6	4	3	0	0	0	7	6
121912	13:53:35	10013	Trial2BackEngS	NS	17	0	1000	1	118	13:53:35	2248980	5	3	2	3	3	3	3	3	3	6	4	3	0	0	0	7	6
121912	13:53:35	10013	Trial2BackEngS	NS	17	0	1000	1	118	13:53:35	2250485	5	3	2	3	3	3	3	3	3	6	4	3	0	0	0	7	6
121912	13:53:35	10013	Trial2BackEngS	NS	17	0	1000	1	118	13:53:35	2251991	5	3	2	3	3	3	3	3	3	6	4	3	0	0	0	7	6
121912	13:53:35	10013	Trial2BackEngS	NS	17	0	1000	1	118	13:53:35	2253498	5	3	2	3	3	3	3	3	3	6	4	3	0	0	0	7	6
121912	13:53:35	10013	Trial2BackEngS	NS	17	0	1000	1	118	13:53:35	2255004	5	3	2	3	3	3	3	3	3	6	4	3	0	0	0	7	6
121912	13:53:35	10013	Trial2BackEngS	NS	17	0	1000	1	118	13:53:35	2256510	5	3	2	3	3	3	3	3	3	6	4	3	0	0	0	7	6
121912	13:53:35	10013	Trial2BackEngS	YS	17	57	535	1	118	13:53:35	2257563	5	3	2	3	3	3	3	3	3	6	4	3	0	0	0	7	6
121912	13:53:35	10013	Trial2BackEngS	NS	17	0	1000	1	118	13:53:35	2259522	5	3	2	3	3	3	3	3	3	6	4	3	0	0	0	7	6
121912	13:53:35	10013	Trial2BackEngS	NS	17	0	1000	1	118	13:53:35	2261028	5	3	2	3	3	3	3	3	3	6	4	3	0	0	0	7	6
121912	13:53:35	10013	Trial2BackEngS	NS	17	0	1000	1	118	13:53:35	2262534	5	3	2	3	3	3	3	3	3	6	4	3	0	0	0	7	6
121912	13:53:35	10013	Trial2BackEngS	NS	17	0	1000	1	118	13:53:35	2264040	5	3	2	3	3	3	3	3	3	6	4	3	0	0	0	7	6
121912	13:53:35	10013	Trial2BackEngS	YS	17	57	588	1	118	13:53:35	2265146	5	3	2	3	3	3	3	3	3	6	4	3	0	0	0	7	6
121912	13:53:35	10013	Trial2BackEngS	NS	17	0	1000	1	118	13:53:35	2267052	5	3	2	3	3	3	3	3	3	6	4	3	0	0	0	7	6
121912	13:53:35	10013	Trial2BackEngS	NS	17	0	1000	1	118	13:53:35	2268558	5	3	2	3	3	3	3	3	3	6	4	3	0	0	0	7	6
121912	13:53:35	10013	Trial2BackEngS	NS	17	0	1000	1	118	13:53:35	2270064	5	3	2	3	3	3	3	3	3	6	4	3	0	0	0	7	6
121912	13:53:35	10013	Trial2BackEngS	NS	17	57	852	0	118	13:53:35	2271437	5	3	2	3	3	3	3	3	3	6	4	3	0	0	0	7	6
121912	13:53:35	10013	Trial2BackEngS	YS	17	0	1000	0	118	13:53:35	2273076	5	3	2	3	3	3	3	3	3	6	4	3	0	0	0	7	6
121912	13:53:35	10013	Trial2BackEngS	NS	17	0	1000	1	118	13:53:35	2274583	5	3	2	3	3	3	3	3	3	6	4	3	0	0	0	7	6
121912	13:53:35	10013	Trial2BackEngS	NS	17	0	1000	1	118	13:53:35	2276089	5	3	2	3	3	3	3	3	3	6	4	3	0	0	0	7	6
121912	13:53:35	10013	Trial2BackEngS	YS	17	57	476	1	118	13:53:35	2277075	5	3	2	3	3	3	3	3	3	6	4	3	0	0	0	7	6
121912	13:53:35	10013	Trial2BackEngS	NS	17	0	1000	1	118	13:53:35	2279101	5	3	2	3	3	3	3	3	3	6	4	3	0	0	0	7	6
121912	13:53:35	10013	Trial2BackEngS	NS	17	0	1000	1	118	13:53:35	2280607	5	3	2	3	3	3	3	3	3	6	4	3	0	0	0	7	6
121912	13:53:35	10013	Trial2BackEngS	NS	17	0	1000	1	118	13:53:35	2282113	5	3	2	3	3	3	3	3	3	6	4	3	0	0	0	7	6
121912	13:53:35	10013	Trial2BackEngS	NS	17	0	1000	1	118	13:53:35	2283619	5	3	2	3	3	3	3	3	3	6	4	3	0	0	0	7	6
121912	13:53:35	10013	Trial2BackEngS	NS	17	0	1000	1	118	13:53:35	2285125	5	3	2	3	3	3	3	3	3	6	4	3	0	0	0	7	6
121912	13:53:35	10013	Trial2BackEngS	NS	17	0	1000	1	118	13:53:35	2286631	5	3	2	3	3	3	3	3	3	6	4	3	0	0	0	7	6
121912	13:53:35	10013	Trial2BackEngS	NS	17	0	1000	1	118	13:53:35	2288137	5	3	2	3	3	3	3	3	3	6	4	3	0	0	0	7	6
121912	13:53:35	10013	Trial2BackEngS	NS	17	0	1000	1	118	13:53:35	2289643	5	3	2	3	3	3	3	3	3	6	4	3	0	0	0	7	6
121912	13:53:35	10013	Trial2BackEngS	YS	17	0	1000	0	118	13:53:35	2291149	5	3	2	3	3	3	3	3	3	6	4	3	0	0	0	7	6
121912	13:53:35	10013	Trial2BackEngS	NS	17	0	1000	1	118	13:53:35	2292655	5	3	2	3	3	3	3	3	3	6	4	3	0	0	0	7	6
121912	13:53:35	10013	Trial2BackEngS	NS	17	0	1000	1	118	13:53:35	2294161	5	3	2	3	3	3	3	3	3	6	4	3	0	0	0	7	6
121912	13:53:35	10013	Trial2BackEngS	NS	17	0	1000	1	118	13:53:35	2295667	5	3	2	3	3	3	3	3	3	6	4	3	0	0	0	7	6
121912	13:53:35	10013	Trial2BackEngS	NS	17	0	1000	1	118	13:53:35	2297173	5	3	2	3	3	3	3	3	3	6	4	3	0	0	0	7	6
121912	13:53:35	10013	Trial2BackEngS	NS	17	0	1000	1	118	13:53:35	2298679	5	3	2	3	3	3	3	3	3	6	4	3	0	0	0	7	6
121912	13:53:35	10013	Trial2BackEngS	NS	17	0	1000	1	118	13:53:35	2300199	5	3	2	3	3	3	3	3	3	6	4	3	0	0	0	7	6
121912	13:53:35	10013	Trial2BackEngS	NS	17	0	1000	1	118	13:53:35	2301705	5	3	2	3	3	3	3	3	3	6	4	3	0	0	0	7	6
121912	13:53:35	10013	Trial2BackEngS	YS	17	0	1000	0	118	13:53:35	2303211	5	3	2	3	3	3	3	3	3	6	4	3	0	0	0	7	6
121912	13:53:35	10013	Trial2BackEngS	NS	17	0	1000	1	118	13:53:35	2304717	5	3	2	3	3	3	3	3	3	6	4	3	0	0	0	7	6
121912	13:53:35	10013	Trial2BackEngS	NS	17	0	1000	1	118	13:53:35	2306223	5	3	2	3	3	3	3	3	3	6	4	3	0	0	0	7	6
121912	13:53:35	10013	Trial2BackEngS	NS	17	0	1000	1	118	13:53:35	2307729	5	3	2	3	3	3	3	3	3	6	4	3	0	0	0	7	6
121912	13:53:35	10013	Trial2BackEngS	NS	17	0	1000	1	118	13:53:35	2309235	5	3	2	3	3	3	3	3	3	6	4	3	0	0	0	7	6
121912	13:53:35	10013	Trial2BackEngS	NS	17	0	1000	1	118	13:53:35	2310741	5	3	2	3	3	3	3	3	3	6	4	3	0	0	0	7	6
121912	13:53:35	10013	Trial2BackEngS	NS	17	0	1000	1	118	13:53:35	2312247	5	3	2	3	3	3	3	3	3	6	4	3	0	0	0	7	6
121912	13:53:35	10013	Trial2BackEngS	NS	17	0	1000	1	118	13:53:35	2313767	5	3	2	3	3	3	3	3	3	6	4	3	0	0	0	7	6
121912	13:53:35	10013	Trial2BackEngS	NS	17	0	1000	1	118	13:53:35	2315273	5	3	2	3	3	3	3	3	3	6	4	3	0	0	0	7	6
121912	13:53:35	10013	Trial2BackEngS	NS	17	57	378	0	118	13:53:35	2316166	5	3	2	3	3	3	3	3	3	6	4	3	0	0	0	7	6
121912	13:53:35	10013	Trial2BackEngS	YS	17	0	1000	0	118	13:53:35	2318285	5	3	2	3	3	3	3	3	3	6	4	3	0	0	0	7	6
121912	13:53:35	10013	Trial2BackEngS	NS	17	0	1000	1	118	13:53:35	2319804	5	3	2	3	3	3	3	3	3	6	4	3	0	0	0	7	6
121912	13:53:35	10013	ClockEng6mo	ClockEng6mo	19	Clock1	14101	0	118	13:53:35	2334039	5	3	2	3	3	3	3	3	3	6	4	3	1	0	0	7	6
121912	13:53:35	10013	ClockEng6mo	ClockEng6mo	19	Clock22	691	0	118	13:53:35	2334785	5	3	2	3	3	3	3	3	3	6	4	3	1	0	0	7	6
121912	13:53:35	10013	ClockEng6mo	ClockEng6mo	19	Clock111	744	0	118	13:53:35	2335585	5	3	2	3	3	3	3	3	3	6	4	3	1	0	1	7	6
121912	13:53:35	10013	ClockEng6mo	ClockEng6mo	19	Clockdone	890	0	118	13:53:35	2336544	5	3	2	3	3	3	3	3	3	6	4	3	1	0	1	7	6
121912	13:53:35	10013	FASEngVF6mo	StopEngVF6mo	20	19	5630	0	118	13:53:35	2436878	5	3	2	3	3	3	3	3	3	6	4	3	1	0	1	7	6
