date	time	subject	blockcode	trialcode	values.TaskNumber	response	latency	correct	values.Score	script.starttime	script.elapsedtime	values.ScoreS7	values.Word1	values.Word2	values.Word3	values.Word4	values.Word5	values.Word6	values.Word7	values.Word8	values.DigitSpanFwrd	values.DigitSpanBack	values.ScoreAbs	values.Contour	values.Numbers	values.Hands	values.corsiblockspanFwrd	values.corsiblockspanRev	values.problemnumber	values.subjectattempts	values.targetmoves	values.subjectmoves	expressions.excessmoves	values.movestring	expressions.targetachieved	values.problemscore	values.totalscoreTOL	expressions.firstmovetime	expressions.executiontime	expressions.solutiontime	values.t_choicestart	values.t_choiceend
010813	08:04:26	10027	Language	Language	0	English	456327	0	0	08:04:26	456463	0	0	0	0	0	0	0	0	0	0	0	0	0	0	0	0	0	0	0	0	0	0		1	0	0	0	0	0	0	0
010813	08:04:26	10027	Session	Session	0	6mo	609	0	0	08:04:26	457129	0	0	0	0	0	0	0	0	0	0	0	0	0	0	0	0	0	0	0	0	0	0		1	0	0	0	0	0	0	0
010813	08:04:26	10027	HandEng	HandEng	0	Right	1278	0	0	08:04:26	458476	0	0	0	0	0	0	0	0	0	0	0	0	0	0	0	0	0	0	0	0	0	0		1	0	0	0	0	0	0	0
010813	08:04:26	10027	CubeEng	CubeEng	1	1Cube	27970	0	0	08:04:26	2888610	0	0	0	0	0	0	0	0	0	0	0	0	0	0	0	0	0	0	0	0	0	0		1	0	0	0	0	0	0	0
010813	08:04:26	10027	pm.simpleEngRight	blank.simpleEng	2	0	1600	1	0	08:04:26	2899380	0	0	0	0	0	0	0	0	0	0	0	0	0	0	0	0	0	0	0	0	0	0		1	0	0	0	0	0	0	0
010813	08:04:26	10027	pm.simpleEngRight	pm.simpleEng	2	57	459	0	0	08:04:26	2899872	0	0	0	0	0	0	0	0	0	0	0	0	0	0	0	0	0	0	0	0	0	0		1	0	0	0	0	0	0	0
010813	08:04:26	10027	pm.simpleEngRight	blank.simpleEng	2	0	1800	1	0	08:04:26	2901698	0	0	0	0	0	0	0	0	0	0	0	0	0	0	0	0	0	0	0	0	0	0		1	0	0	0	0	0	0	0
010813	08:04:26	10027	pm.simpleEngRight	pm.simpleEng	2	57	424	0	0	08:04:26	2902151	0	0	0	0	0	0	0	0	0	0	0	0	0	0	0	0	0	0	0	0	0	0		1	0	0	0	0	0	0	0
010813	08:04:26	10027	pm.simpleEngRight	blank.simpleEng	2	0	2000	1	0	08:04:26	2904164	0	0	0	0	0	0	0	0	0	0	0	0	0	0	0	0	0	0	0	0	0	0		1	0	0	0	0	0	0	0
010813	08:04:26	10027	pm.simpleEngRight	pm.simpleEng	2	57	375	0	0	08:04:26	2904564	0	0	0	0	0	0	0	0	0	0	0	0	0	0	0	0	0	0	0	0	0	0		1	0	0	0	0	0	0	0
010813	08:04:26	10027	pm.simpleEngRight	blank.simpleEng	2	0	1700	1	0	08:04:26	2906283	0	0	0	0	0	0	0	0	0	0	0	0	0	0	0	0	0	0	0	0	0	0		1	0	0	0	0	0	0	0
010813	08:04:26	10027	pm.simpleEngRight	pm.simpleEng	2	57	287	0	0	08:04:26	2906590	0	0	0	0	0	0	0	0	0	0	0	0	0	0	0	0	0	0	0	0	0	0		1	0	0	0	0	0	0	0
010813	08:04:26	10027	pm.simpleEngRight	blank.simpleEng	2	0	2300	1	0	08:04:26	2908908	0	0	0	0	0	0	0	0	0	0	0	0	0	0	0	0	0	0	0	0	0	0		1	0	0	0	0	0	0	0
010813	08:04:26	10027	pm.simpleEngRight	pm.simpleEng	2	57	302	0	0	08:04:26	2909228	0	0	0	0	0	0	0	0	0	0	0	0	0	0	0	0	0	0	0	0	0	0		1	0	0	0	0	0	0	0
010813	08:04:26	10027	pm.simpleEngRight	blank.simpleEng	2	0	1900	1	0	08:04:26	2911147	0	0	0	0	0	0	0	0	0	0	0	0	0	0	0	0	0	0	0	0	0	0		1	0	0	0	0	0	0	0
010813	08:04:26	10027	pm.simpleEngRight	pm.simpleEng	2	57	271	0	0	08:04:26	2911441	0	0	0	0	0	0	0	0	0	0	0	0	0	0	0	0	0	0	0	0	0	0		1	0	0	0	0	0	0	0
010813	08:04:26	10027	pm.simpleEngRight	blank.simpleEng	2	0	2100	1	0	08:04:26	2913560	0	0	0	0	0	0	0	0	0	0	0	0	0	0	0	0	0	0	0	0	0	0		1	0	0	0	0	0	0	0
010813	08:04:26	10027	pm.simpleEngRight	pm.simpleEng	2	57	259	0	0	08:04:26	2913840	0	0	0	0	0	0	0	0	0	0	0	0	0	0	0	0	0	0	0	0	0	0		1	0	0	0	0	0	0	0
010813	08:04:26	10027	pm.simpleEngRight	blank.simpleEng	2	0	2400	1	0	08:04:26	2916252	0	0	0	0	0	0	0	0	0	0	0	0	0	0	0	0	0	0	0	0	0	0		1	0	0	0	0	0	0	0
010813	08:04:26	10027	pm.simpleEngRight	pm.simpleEng	2	57	270	0	0	08:04:26	2916545	0	0	0	0	0	0	0	0	0	0	0	0	0	0	0	0	0	0	0	0	0	0		1	0	0	0	0	0	0	0
010813	08:04:26	10027	pm.simpleEngRight	blank.simpleEng	2	0	2500	1	0	08:04:26	2919064	0	0	0	0	0	0	0	0	0	0	0	0	0	0	0	0	0	0	0	0	0	0		1	0	0	0	0	0	0	0
010813	08:04:26	10027	pm.simpleEngRight	pm.simpleEng	2	57	274	0	0	08:04:26	2919358	0	0	0	0	0	0	0	0	0	0	0	0	0	0	0	0	0	0	0	0	0	0		1	0	0	0	0	0	0	0
010813	08:04:26	10027	pm.simpleEngRight	blank.simpleEng	2	0	2200	1	0	08:04:26	2921583	0	0	0	0	0	0	0	0	0	0	0	0	0	0	0	0	0	0	0	0	0	0		1	0	0	0	0	0	0	0
010813	08:04:26	10027	pm.simpleEngRight	pm.simpleEng	2	57	299	0	0	08:04:26	2921903	0	0	0	0	0	0	0	0	0	0	0	0	0	0	0	0	0	0	0	0	0	0		1	0	0	0	0	0	0	0
010813	08:04:26	10027	pm.simpleEngRight	blank.simpleEng	2	0	1500	1	0	08:04:26	2923423	0	0	0	0	0	0	0	0	0	0	0	0	0	0	0	0	0	0	0	0	0	0		1	0	0	0	0	0	0	0
010813	08:04:26	10027	pm.simpleEngRight	pm.simpleEng	2	57	316	0	0	08:04:26	2923756	0	0	0	0	0	0	0	0	0	0	0	0	0	0	0	0	0	0	0	0	0	0		1	0	0	0	0	0	0	0
010813	08:04:26	10027	pm.simpleEngRight	blank.simpleEng	2	0	2000	1	0	08:04:26	2925768	0	0	0	0	0	0	0	0	0	0	0	0	0	0	0	0	0	0	0	0	0	0		1	0	0	0	0	0	0	0
010813	08:04:26	10027	pm.simpleEngRight	pm.simpleEng	2	57	258	0	0	08:04:26	2926048	0	0	0	0	0	0	0	0	0	0	0	0	0	0	0	0	0	0	0	0	0	0		1	0	0	0	0	0	0	0
010813	08:04:26	10027	pm.simpleEngRight	blank.simpleEng	2	0	1700	1	0	08:04:26	2927767	0	0	0	0	0	0	0	0	0	0	0	0	0	0	0	0	0	0	0	0	0	0		1	0	0	0	0	0	0	0
010813	08:04:26	10027	pm.simpleEngRight	pm.simpleEng	2	57	258	0	0	08:04:26	2928047	0	0	0	0	0	0	0	0	0	0	0	0	0	0	0	0	0	0	0	0	0	0		1	0	0	0	0	0	0	0
010813	08:04:26	10027	pm.simpleEngRight	blank.simpleEng	2	0	2400	1	0	08:04:26	2930460	0	0	0	0	0	0	0	0	0	0	0	0	0	0	0	0	0	0	0	0	0	0		1	0	0	0	0	0	0	0
010813	08:04:26	10027	pm.simpleEngRight	pm.simpleEng	2	57	271	0	0	08:04:26	2930753	0	0	0	0	0	0	0	0	0	0	0	0	0	0	0	0	0	0	0	0	0	0		1	0	0	0	0	0	0	0
010813	08:04:26	10027	pm.simpleEngRight	blank.simpleEng	2	0	1900	1	0	08:04:26	2932672	0	0	0	0	0	0	0	0	0	0	0	0	0	0	0	0	0	0	0	0	0	0		1	0	0	0	0	0	0	0
010813	08:04:26	10027	pm.simpleEngRight	pm.simpleEng	2	57	266	0	0	08:04:26	2932965	0	0	0	0	0	0	0	0	0	0	0	0	0	0	0	0	0	0	0	0	0	0		1	0	0	0	0	0	0	0
010813	08:04:26	10027	pm.simpleEngRight	blank.simpleEng	2	0	1500	1	0	08:04:26	2934484	0	0	0	0	0	0	0	0	0	0	0	0	0	0	0	0	0	0	0	0	0	0		1	0	0	0	0	0	0	0
010813	08:04:26	10027	pm.simpleEngRight	pm.simpleEng	2	57	309	0	0	08:04:26	2934818	0	0	0	0	0	0	0	0	0	0	0	0	0	0	0	0	0	0	0	0	0	0		1	0	0	0	0	0	0	0
010813	08:04:26	10027	pm.simpleEngRight	blank.simpleEng	2	0	2100	1	0	08:04:26	2936937	0	0	0	0	0	0	0	0	0	0	0	0	0	0	0	0	0	0	0	0	0	0		1	0	0	0	0	0	0	0
010813	08:04:26	10027	pm.simpleEngRight	pm.simpleEng	2	57	273	0	0	08:04:26	2937230	0	0	0	0	0	0	0	0	0	0	0	0	0	0	0	0	0	0	0	0	0	0		1	0	0	0	0	0	0	0
010813	08:04:26	10027	pm.simpleEngRight	blank.simpleEng	2	0	1800	1	0	08:04:26	2939056	0	0	0	0	0	0	0	0	0	0	0	0	0	0	0	0	0	0	0	0	0	0		1	0	0	0	0	0	0	0
010813	08:04:26	10027	pm.simpleEngRight	pm.simpleEng	2	57	298	0	0	08:04:26	2939376	0	0	0	0	0	0	0	0	0	0	0	0	0	0	0	0	0	0	0	0	0	0		1	0	0	0	0	0	0	0
010813	08:04:26	10027	pm.simpleEngRight	blank.simpleEng	2	0	2300	1	0	08:04:26	2941695	0	0	0	0	0	0	0	0	0	0	0	0	0	0	0	0	0	0	0	0	0	0		1	0	0	0	0	0	0	0
010813	08:04:26	10027	pm.simpleEngRight	pm.simpleEng	2	57	282	0	0	08:04:26	2942002	0	0	0	0	0	0	0	0	0	0	0	0	0	0	0	0	0	0	0	0	0	0		1	0	0	0	0	0	0	0
010813	08:04:26	10027	pm.simpleEngRight	blank.simpleEng	2	0	1600	1	0	08:04:26	2943614	0	0	0	0	0	0	0	0	0	0	0	0	0	0	0	0	0	0	0	0	0	0		1	0	0	0	0	0	0	0
010813	08:04:26	10027	pm.simpleEngRight	pm.simpleEng	2	57	267	0	0	08:04:26	2943907	0	0	0	0	0	0	0	0	0	0	0	0	0	0	0	0	0	0	0	0	0	0		1	0	0	0	0	0	0	0
010813	08:04:26	10027	pm.simpleEngRight	blank.simpleEng	2	0	2200	1	0	08:04:26	2946120	0	0	0	0	0	0	0	0	0	0	0	0	0	0	0	0	0	0	0	0	0	0		1	0	0	0	0	0	0	0
010813	08:04:26	10027	pm.simpleEngRight	pm.simpleEng	2	57	274	0	0	08:04:26	2946413	0	0	0	0	0	0	0	0	0	0	0	0	0	0	0	0	0	0	0	0	0	0		1	0	0	0	0	0	0	0
010813	08:04:26	10027	pm.simpleEngRight	blank.simpleEng	2	0	2500	1	0	08:04:26	2948932	0	0	0	0	0	0	0	0	0	0	0	0	0	0	0	0	0	0	0	0	0	0		1	0	0	0	0	0	0	0
010813	08:04:26	10027	pm.simpleEngRight	pm.simpleEng	2	57	261	0	0	08:04:26	2949212	0	0	0	0	0	0	0	0	0	0	0	0	0	0	0	0	0	0	0	0	0	0		1	0	0	0	0	0	0	0
010813	08:04:26	10027	pm.simpleEngRight	blank.simpleEng	2	0	2100	1	0	08:04:26	2951331	0	0	0	0	0	0	0	0	0	0	0	0	0	0	0	0	0	0	0	0	0	0		1	0	0	0	0	0	0	0
010813	08:04:26	10027	pm.simpleEngRight	pm.simpleEng	2	57	262	0	0	08:04:26	2951611	0	0	0	0	0	0	0	0	0	0	0	0	0	0	0	0	0	0	0	0	0	0		1	0	0	0	0	0	0	0
010813	08:04:26	10027	pm.simpleEngRight	blank.simpleEng	2	0	2300	1	0	08:04:26	2953930	0	0	0	0	0	0	0	0	0	0	0	0	0	0	0	0	0	0	0	0	0	0		1	0	0	0	0	0	0	0
010813	08:04:26	10027	pm.simpleEngRight	pm.simpleEng	2	57	271	0	0	08:04:26	2954223	0	0	0	0	0	0	0	0	0	0	0	0	0	0	0	0	0	0	0	0	0	0		1	0	0	0	0	0	0	0
010813	08:04:26	10027	pm.simpleEngRight	blank.simpleEng	2	0	2200	1	0	08:04:26	2956436	0	0	0	0	0	0	0	0	0	0	0	0	0	0	0	0	0	0	0	0	0	0		1	0	0	0	0	0	0	0
010813	08:04:26	10027	pm.simpleEngRight	pm.simpleEng	2	57	245	0	0	08:04:26	2956702	0	0	0	0	0	0	0	0	0	0	0	0	0	0	0	0	0	0	0	0	0	0		1	0	0	0	0	0	0	0
010813	08:04:26	10027	pm.simpleEngRight	blank.simpleEng	2	0	1900	1	0	08:04:26	2958621	0	0	0	0	0	0	0	0	0	0	0	0	0	0	0	0	0	0	0	0	0	0		1	0	0	0	0	0	0	0
010813	08:04:26	10027	pm.simpleEngRight	pm.simpleEng	2	57	300	0	0	08:04:26	2958941	0	0	0	0	0	0	0	0	0	0	0	0	0	0	0	0	0	0	0	0	0	0		1	0	0	0	0	0	0	0
010813	08:04:26	10027	pm.simpleEngRight	blank.simpleEng	2	0	1600	1	0	08:04:26	2960567	0	0	0	0	0	0	0	0	0	0	0	0	0	0	0	0	0	0	0	0	0	0		1	0	0	0	0	0	0	0
010813	08:04:26	10027	pm.simpleEngRight	pm.simpleEng	2	57	306	0	0	08:04:26	2960900	0	0	0	0	0	0	0	0	0	0	0	0	0	0	0	0	0	0	0	0	0	0		1	0	0	0	0	0	0	0
010813	08:04:26	10027	pm.simpleEngRight	blank.simpleEng	2	0	1700	1	0	08:04:26	2962620	0	0	0	0	0	0	0	0	0	0	0	0	0	0	0	0	0	0	0	0	0	0		1	0	0	0	0	0	0	0
010813	08:04:26	10027	pm.simpleEngRight	pm.simpleEng	2	57	269	0	0	08:04:26	2962913	0	0	0	0	0	0	0	0	0	0	0	0	0	0	0	0	0	0	0	0	0	0		1	0	0	0	0	0	0	0
010813	08:04:26	10027	pm.simpleEngRight	blank.simpleEng	2	0	2000	1	0	08:04:26	2964925	0	0	0	0	0	0	0	0	0	0	0	0	0	0	0	0	0	0	0	0	0	0		1	0	0	0	0	0	0	0
010813	08:04:26	10027	pm.simpleEngRight	pm.simpleEng	2	57	267	0	0	08:04:26	2965219	0	0	0	0	0	0	0	0	0	0	0	0	0	0	0	0	0	0	0	0	0	0		1	0	0	0	0	0	0	0
010813	08:04:26	10027	pm.simpleEngRight	blank.simpleEng	2	0	2400	1	0	08:04:26	2967644	0	0	0	0	0	0	0	0	0	0	0	0	0	0	0	0	0	0	0	0	0	0		1	0	0	0	0	0	0	0
010813	08:04:26	10027	pm.simpleEngRight	pm.simpleEng	2	57	268	0	0	08:04:26	2967937	0	0	0	0	0	0	0	0	0	0	0	0	0	0	0	0	0	0	0	0	0	0		1	0	0	0	0	0	0	0
010813	08:04:26	10027	pm.simpleEngRight	blank.simpleEng	2	0	1500	1	0	08:04:26	2969459	0	0	0	0	0	0	0	0	0	0	0	0	0	0	0	0	0	0	0	0	0	0		1	0	0	0	0	0	0	0
010813	08:04:26	10027	pm.simpleEngRight	pm.simpleEng	2	57	360	0	0	08:04:26	2969843	0	0	0	0	0	0	0	0	0	0	0	0	0	0	0	0	0	0	0	0	0	0		1	0	0	0	0	0	0	0
010813	08:04:26	10027	pm.simpleEngRight	blank.simpleEng	2	0	1800	1	0	08:04:26	2971656	0	0	0	0	0	0	0	0	0	0	0	0	0	0	0	0	0	0	0	0	0	0		1	0	0	0	0	0	0	0
010813	08:04:26	10027	pm.simpleEngRight	pm.simpleEng	2	57	273	0	0	08:04:26	2971949	0	0	0	0	0	0	0	0	0	0	0	0	0	0	0	0	0	0	0	0	0	0		1	0	0	0	0	0	0	0
010813	08:04:26	10027	pm.simpleEngRight	blank.simpleEng	2	0	2500	1	0	08:04:26	2974468	0	0	0	0	0	0	0	0	0	0	0	0	0	0	0	0	0	0	0	0	0	0		1	0	0	0	0	0	0	0
010813	08:04:26	10027	pm.simpleEngRight	pm.simpleEng	2	57	293	0	0	08:04:26	2974788	0	0	0	0	0	0	0	0	0	0	0	0	0	0	0	0	0	0	0	0	0	0		1	0	0	0	0	0	0	0
010813	08:04:26	10027	pm.simpleEngRight	blank.simpleEng	2	0	1600	1	0	08:04:26	2976401	0	0	0	0	0	0	0	0	0	0	0	0	0	0	0	0	0	0	0	0	0	0		1	0	0	0	0	0	0	0
010813	08:04:26	10027	pm.simpleEngRight	pm.simpleEng	2	57	296	0	0	08:04:26	2976720	0	0	0	0	0	0	0	0	0	0	0	0	0	0	0	0	0	0	0	0	0	0		1	0	0	0	0	0	0	0
010813	08:04:26	10027	pm.simpleEngRight	blank.simpleEng	2	0	2200	1	0	08:04:26	2978933	0	0	0	0	0	0	0	0	0	0	0	0	0	0	0	0	0	0	0	0	0	0		1	0	0	0	0	0	0	0
010813	08:04:26	10027	pm.simpleEngRight	pm.simpleEng	2	57	308	0	0	08:04:26	2979266	0	0	0	0	0	0	0	0	0	0	0	0	0	0	0	0	0	0	0	0	0	0		1	0	0	0	0	0	0	0
010813	08:04:26	10027	pm.simpleEngRight	blank.simpleEng	2	0	2300	1	0	08:04:26	2981585	0	0	0	0	0	0	0	0	0	0	0	0	0	0	0	0	0	0	0	0	0	0		1	0	0	0	0	0	0	0
010813	08:04:26	10027	pm.simpleEngRight	pm.simpleEng	2	57	295	0	0	08:04:26	2981905	0	0	0	0	0	0	0	0	0	0	0	0	0	0	0	0	0	0	0	0	0	0		1	0	0	0	0	0	0	0
010813	08:04:26	10027	pm.simpleEngRight	blank.simpleEng	2	0	2100	1	0	08:04:26	2984024	0	0	0	0	0	0	0	0	0	0	0	0	0	0	0	0	0	0	0	0	0	0		1	0	0	0	0	0	0	0
010813	08:04:26	10027	pm.simpleEngRight	pm.simpleEng	2	57	304	0	0	08:04:26	2984357	0	0	0	0	0	0	0	0	0	0	0	0	0	0	0	0	0	0	0	0	0	0		1	0	0	0	0	0	0	0
010813	08:04:26	10027	pm.simpleEngRight	blank.simpleEng	2	0	2000	1	0	08:04:26	2986383	0	0	0	0	0	0	0	0	0	0	0	0	0	0	0	0	0	0	0	0	0	0		1	0	0	0	0	0	0	0
010813	08:04:26	10027	pm.simpleEngRight	pm.simpleEng	2	57	281	0	0	08:04:26	2986689	0	0	0	0	0	0	0	0	0	0	0	0	0	0	0	0	0	0	0	0	0	0		1	0	0	0	0	0	0	0
010813	08:04:26	10027	pm.simpleEngRight	blank.simpleEng	2	0	1700	1	0	08:04:26	2988409	0	0	0	0	0	0	0	0	0	0	0	0	0	0	0	0	0	0	0	0	0	0		1	0	0	0	0	0	0	0
010813	08:04:26	10027	pm.simpleEngRight	pm.simpleEng	2	57	271	0	0	08:04:26	2988702	0	0	0	0	0	0	0	0	0	0	0	0	0	0	0	0	0	0	0	0	0	0		1	0	0	0	0	0	0	0
010813	08:04:26	10027	pm.simpleEngRight	blank.simpleEng	2	0	2500	1	0	08:04:26	2991221	0	0	0	0	0	0	0	0	0	0	0	0	0	0	0	0	0	0	0	0	0	0		1	0	0	0	0	0	0	0
010813	08:04:26	10027	pm.simpleEngRight	pm.simpleEng	2	57	259	0	0	08:04:26	2991501	0	0	0	0	0	0	0	0	0	0	0	0	0	0	0	0	0	0	0	0	0	0		1	0	0	0	0	0	0	0
010813	08:04:26	10027	Trial2BackEng	N	3	0	1000	1	1	08:04:26	3089674	0	0	0	0	0	0	0	0	0	0	0	0	0	0	0	0	0	0	0	0	0	0		1	0	0	0	0	0	0	0
010813	08:04:26	10027	Trial2BackEng	N	3	0	1000	1	2	08:04:26	3091179	0	0	0	0	0	0	0	0	0	0	0	0	0	0	0	0	0	0	0	0	0	0		1	0	0	0	0	0	0	0
010813	08:04:26	10027	Trial2BackEng	N	3	0	1000	1	3	08:04:26	3092686	0	0	0	0	0	0	0	0	0	0	0	0	0	0	0	0	0	0	0	0	0	0		1	0	0	0	0	0	0	0
010813	08:04:26	10027	Trial2BackEng	N	3	0	1000	1	4	08:04:26	3094191	0	0	0	0	0	0	0	0	0	0	0	0	0	0	0	0	0	0	0	0	0	0		1	0	0	0	0	0	0	0
010813	08:04:26	10027	Trial2BackEng	N	3	0	1000	1	5	08:04:26	3095698	0	0	0	0	0	0	0	0	0	0	0	0	0	0	0	0	0	0	0	0	0	0		1	0	0	0	0	0	0	0
010813	08:04:26	10027	Trial2BackEng	N	3	0	1000	1	6	08:04:26	3097217	0	0	0	0	0	0	0	0	0	0	0	0	0	0	0	0	0	0	0	0	0	0		1	0	0	0	0	0	0	0
010813	08:04:26	10027	Trial2BackEng	N	3	0	1000	1	7	08:04:26	3098723	0	0	0	0	0	0	0	0	0	0	0	0	0	0	0	0	0	0	0	0	0	0		1	0	0	0	0	0	0	0
010813	08:04:26	10027	Trial2BackEng	N	3	0	1000	1	8	08:04:26	3100229	0	0	0	0	0	0	0	0	0	0	0	0	0	0	0	0	0	0	0	0	0	0		1	0	0	0	0	0	0	0
010813	08:04:26	10027	Trial2BackEng	Y	3	0	1000	0	8	08:04:26	3101735	0	0	0	0	0	0	0	0	0	0	0	0	0	0	0	0	0	0	0	0	0	0		1	0	0	0	0	0	0	0
010813	08:04:26	10027	Trial2BackEng	N	3	0	1000	1	9	08:04:26	3103241	0	0	0	0	0	0	0	0	0	0	0	0	0	0	0	0	0	0	0	0	0	0		1	0	0	0	0	0	0	0
010813	08:04:26	10027	Trial2BackEng	N	3	0	1000	1	10	08:04:26	3104747	0	0	0	0	0	0	0	0	0	0	0	0	0	0	0	0	0	0	0	0	0	0		1	0	0	0	0	0	0	0
010813	08:04:26	10027	Trial2BackEng	N	3	0	1000	1	11	08:04:26	3106253	0	0	0	0	0	0	0	0	0	0	0	0	0	0	0	0	0	0	0	0	0	0		1	0	0	0	0	0	0	0
010813	08:04:26	10027	Trial2BackEng	Y	3	57	668	1	12	08:04:26	3107439	0	0	0	0	0	0	0	0	0	0	0	0	0	0	0	0	0	0	0	0	0	0		1	0	0	0	0	0	0	0
010813	08:04:26	10027	Trial2BackEng	N	3	0	1000	1	13	08:04:26	3109265	0	0	0	0	0	0	0	0	0	0	0	0	0	0	0	0	0	0	0	0	0	0		1	0	0	0	0	0	0	0
010813	08:04:26	10027	Trial2BackEng	N	3	0	1000	1	14	08:04:26	3110771	0	0	0	0	0	0	0	0	0	0	0	0	0	0	0	0	0	0	0	0	0	0		1	0	0	0	0	0	0	0
010813	08:04:26	10027	Trial2BackEng	N	3	0	1000	1	15	08:04:26	3112277	0	0	0	0	0	0	0	0	0	0	0	0	0	0	0	0	0	0	0	0	0	0		1	0	0	0	0	0	0	0
010813	08:04:26	10027	Trial2BackEng	N	3	0	1000	1	16	08:04:26	3113783	0	0	0	0	0	0	0	0	0	0	0	0	0	0	0	0	0	0	0	0	0	0		1	0	0	0	0	0	0	0
010813	08:04:26	10027	Trial2BackEng	N	3	0	1000	1	17	08:04:26	3115289	0	0	0	0	0	0	0	0	0	0	0	0	0	0	0	0	0	0	0	0	0	0		1	0	0	0	0	0	0	0
010813	08:04:26	10027	Trial2BackEng	Y	3	57	687	1	18	08:04:26	3116489	0	0	0	0	0	0	0	0	0	0	0	0	0	0	0	0	0	0	0	0	0	0		1	0	0	0	0	0	0	0
010813	08:04:26	10027	Trial2BackEng	N	3	0	1000	1	19	08:04:26	3118302	0	0	0	0	0	0	0	0	0	0	0	0	0	0	0	0	0	0	0	0	0	0		1	0	0	0	0	0	0	0
010813	08:04:26	10027	Trial2BackEng	N	3	0	1000	1	20	08:04:26	3119807	0	0	0	0	0	0	0	0	0	0	0	0	0	0	0	0	0	0	0	0	0	0		1	0	0	0	0	0	0	0
010813	08:04:26	10027	Trial2BackEng	N	3	0	1000	1	21	08:04:26	3121314	0	0	0	0	0	0	0	0	0	0	0	0	0	0	0	0	0	0	0	0	0	0		1	0	0	0	0	0	0	0
010813	08:04:26	10027	Trial2BackEng	N	3	0	1000	1	22	08:04:26	3122819	0	0	0	0	0	0	0	0	0	0	0	0	0	0	0	0	0	0	0	0	0	0		1	0	0	0	0	0	0	0
010813	08:04:26	10027	Trial2BackEng	Y	3	57	802	1	23	08:04:26	3124139	0	0	0	0	0	0	0	0	0	0	0	0	0	0	0	0	0	0	0	0	0	0		1	0	0	0	0	0	0	0
010813	08:04:26	10027	Trial2BackEng	N	3	0	1000	1	24	08:04:26	3125831	0	0	0	0	0	0	0	0	0	0	0	0	0	0	0	0	0	0	0	0	0	0		1	0	0	0	0	0	0	0
010813	08:04:26	10027	Trial2BackEng	N	3	0	1000	1	25	08:04:26	3127338	0	0	0	0	0	0	0	0	0	0	0	0	0	0	0	0	0	0	0	0	0	0		1	0	0	0	0	0	0	0
010813	08:04:26	10027	Trial2BackEng	N	3	0	1000	1	26	08:04:26	3128843	0	0	0	0	0	0	0	0	0	0	0	0	0	0	0	0	0	0	0	0	0	0		1	0	0	0	0	0	0	0
010813	08:04:26	10027	Trial2BackEng	N	3	57	956	0	26	08:04:26	3130310	0	0	0	0	0	0	0	0	0	0	0	0	0	0	0	0	0	0	0	0	0	0		1	0	0	0	0	0	0	0
010813	08:04:26	10027	Trial2BackEng	N	3	0	1000	1	27	08:04:26	3131856	0	0	0	0	0	0	0	0	0	0	0	0	0	0	0	0	0	0	0	0	0	0		1	0	0	0	0	0	0	0
010813	08:04:26	10027	Trial2BackEng	N	3	0	1000	1	28	08:04:26	3133362	0	0	0	0	0	0	0	0	0	0	0	0	0	0	0	0	0	0	0	0	0	0		1	0	0	0	0	0	0	0
010813	08:04:26	10027	Trial2BackEng	Y	3	57	502	1	29	08:04:26	3134375	0	0	0	0	0	0	0	0	0	0	0	0	0	0	0	0	0	0	0	0	0	0		1	0	0	0	0	0	0	0
010813	08:04:26	10027	Trial2BackEng	N	3	0	1000	1	30	08:04:26	3136374	0	0	0	0	0	0	0	0	0	0	0	0	0	0	0	0	0	0	0	0	0	0		1	0	0	0	0	0	0	0
010813	08:04:26	10027	Trial2BackEng	N	3	0	1000	1	31	08:04:26	3137880	0	0	0	0	0	0	0	0	0	0	0	0	0	0	0	0	0	0	0	0	0	0		1	0	0	0	0	0	0	0
010813	08:04:26	10027	Trial2BackEng	N	3	0	1000	1	32	08:04:26	3139399	0	0	0	0	0	0	0	0	0	0	0	0	0	0	0	0	0	0	0	0	0	0		1	0	0	0	0	0	0	0
010813	08:04:26	10027	Trial2BackEng	Y	3	0	1000	0	32	08:04:26	3140905	0	0	0	0	0	0	0	0	0	0	0	0	0	0	0	0	0	0	0	0	0	0		1	0	0	0	0	0	0	0
010813	08:04:26	10027	Trial2BackEng	N	3	0	1000	1	33	08:04:26	3142412	0	0	0	0	0	0	0	0	0	0	0	0	0	0	0	0	0	0	0	0	0	0		1	0	0	0	0	0	0	0
010813	08:04:26	10027	Trial2BackEng	N	3	0	1000	1	34	08:04:26	3143931	0	0	0	0	0	0	0	0	0	0	0	0	0	0	0	0	0	0	0	0	0	0		1	0	0	0	0	0	0	0
010813	08:04:26	10027	Trial2BackEng	N	3	0	1000	1	35	08:04:26	3145450	0	0	0	0	0	0	0	0	0	0	0	0	0	0	0	0	0	0	0	0	0	0		1	0	0	0	0	0	0	0
010813	08:04:26	10027	Trial2BackEng	N	3	0	1000	1	36	08:04:26	3146956	0	0	0	0	0	0	0	0	0	0	0	0	0	0	0	0	0	0	0	0	0	0		1	0	0	0	0	0	0	0
010813	08:04:26	10027	Trial2BackEng	N	3	0	1000	1	37	08:04:26	3148462	0	0	0	0	0	0	0	0	0	0	0	0	0	0	0	0	0	0	0	0	0	0		1	0	0	0	0	0	0	0
010813	08:04:26	10027	Trial2BackEng	N	3	0	1000	1	38	08:04:26	3149982	0	0	0	0	0	0	0	0	0	0	0	0	0	0	0	0	0	0	0	0	0	0		1	0	0	0	0	0	0	0
010813	08:04:26	10027	Trial2BackEng	Y	3	0	1000	0	38	08:04:26	3151488	0	0	0	0	0	0	0	0	0	0	0	0	0	0	0	0	0	0	0	0	0	0		1	0	0	0	0	0	0	0
010813	08:04:26	10027	Trial2BackEng	N	3	0	1000	1	39	08:04:26	3152993	0	0	0	0	0	0	0	0	0	0	0	0	0	0	0	0	0	0	0	0	0	0		1	0	0	0	0	0	0	0
010813	08:04:26	10027	Trial2BackEng	N	3	0	1000	1	40	08:04:26	3154500	0	0	0	0	0	0	0	0	0	0	0	0	0	0	0	0	0	0	0	0	0	0		1	0	0	0	0	0	0	0
010813	08:04:26	10027	Trial2BackEng	N	3	0	1000	1	41	08:04:26	3156006	0	0	0	0	0	0	0	0	0	0	0	0	0	0	0	0	0	0	0	0	0	0		1	0	0	0	0	0	0	0
010813	08:04:26	10027	Trial2BackEng	N	3	0	1000	1	42	08:04:26	3157512	0	0	0	0	0	0	0	0	0	0	0	0	0	0	0	0	0	0	0	0	0	0		1	0	0	0	0	0	0	0
010813	08:04:26	10027	Trial2BackEng	Y	3	57	463	1	43	08:04:26	3158485	0	0	0	0	0	0	0	0	0	0	0	0	0	0	0	0	0	0	0	0	0	0		1	0	0	0	0	0	0	0
010813	08:04:26	10027	Trial2BackEng	N	3	0	1000	1	44	08:04:26	3160524	0	0	0	0	0	0	0	0	0	0	0	0	0	0	0	0	0	0	0	0	0	0		1	0	0	0	0	0	0	0
010813	08:04:26	10027	Trial2BackEng	N	3	0	1000	1	45	08:04:26	3162030	0	0	0	0	0	0	0	0	0	0	0	0	0	0	0	0	0	0	0	0	0	0		1	0	0	0	0	0	0	0
010813	08:04:26	10027	Trial2BackEng	N	3	0	1000	1	46	08:04:26	3163536	0	0	0	0	0	0	0	0	0	0	0	0	0	0	0	0	0	0	0	0	0	0		1	0	0	0	0	0	0	0
010813	08:04:26	10027	Trial2BackEng	N	3	0	1000	1	47	08:04:26	3165055	0	0	0	0	0	0	0	0	0	0	0	0	0	0	0	0	0	0	0	0	0	0		1	0	0	0	0	0	0	0
010813	08:04:26	10027	Trial2BackEng	N	3	0	1000	1	48	08:04:26	3166575	0	0	0	0	0	0	0	0	0	0	0	0	0	0	0	0	0	0	0	0	0	0		1	0	0	0	0	0	0	0
010813	08:04:26	10027	Trial2BackEng	Y	3	57	536	1	49	08:04:26	3167627	0	0	0	0	0	0	0	0	0	0	0	0	0	0	0	0	0	0	0	0	0	0		1	0	0	0	0	0	0	0
010813	08:04:26	10027	Trial2BackEng	N	3	0	1000	1	50	08:04:26	3169587	0	0	0	0	0	0	0	0	0	0	0	0	0	0	0	0	0	0	0	0	0	0		1	0	0	0	0	0	0	0
010813	08:04:26	10027	Trial2BackEng	N	3	0	1000	1	51	08:04:26	3171093	0	0	0	0	0	0	0	0	0	0	0	0	0	0	0	0	0	0	0	0	0	0		1	0	0	0	0	0	0	0
010813	08:04:26	10027	Trial2BackEng	N	3	0	1000	1	52	08:04:26	3172599	0	0	0	0	0	0	0	0	0	0	0	0	0	0	0	0	0	0	0	0	0	0		1	0	0	0	0	0	0	0
010813	08:04:26	10027	Trial2BackEng	N	3	0	1000	1	53	08:04:26	3174105	0	0	0	0	0	0	0	0	0	0	0	0	0	0	0	0	0	0	0	0	0	0		1	0	0	0	0	0	0	0
010813	08:04:26	10027	Trial2BackEng	N	3	0	1000	1	54	08:04:26	3175611	0	0	0	0	0	0	0	0	0	0	0	0	0	0	0	0	0	0	0	0	0	0		1	0	0	0	0	0	0	0
010813	08:04:26	10027	Trial2BackEng	N	3	0	1000	1	55	08:04:26	3177130	0	0	0	0	0	0	0	0	0	0	0	0	0	0	0	0	0	0	0	0	0	0		1	0	0	0	0	0	0	0
010813	08:04:26	10027	Trial2BackEng	Y	3	57	848	1	56	08:04:26	3178490	0	0	0	0	0	0	0	0	0	0	0	0	0	0	0	0	0	0	0	0	0	0		1	0	0	0	0	0	0	0
010813	08:04:26	10027	Trial2BackEng	N	3	0	1000	1	57	08:04:26	3180142	0	0	0	0	0	0	0	0	0	0	0	0	0	0	0	0	0	0	0	0	0	0		1	0	0	0	0	0	0	0
010813	08:04:26	10027	Trial2BackEng	N	3	0	1000	1	58	08:04:26	3181648	0	0	0	0	0	0	0	0	0	0	0	0	0	0	0	0	0	0	0	0	0	0		1	0	0	0	0	0	0	0
010813	08:04:26	10027	Trial2BackEng	Y	3	57	725	1	59	08:04:26	3182888	0	0	0	0	0	0	0	0	0	0	0	0	0	0	0	0	0	0	0	0	0	0		1	0	0	0	0	0	0	0
010813	08:04:26	10027	Trial2BackEng	N	3	0	1000	1	60	08:04:26	3184674	0	0	0	0	0	0	0	0	0	0	0	0	0	0	0	0	0	0	0	0	0	0		1	0	0	0	0	0	0	0
010813	08:04:26	10027	Trial2BackEng	N	3	0	1000	1	61	08:04:26	3186180	0	0	0	0	0	0	0	0	0	0	0	0	0	0	0	0	0	0	0	0	0	0		1	0	0	0	0	0	0	0
010813	08:04:26	10027	Trial2BackEng	N	3	0	1000	1	62	08:04:26	3187699	0	0	0	0	0	0	0	0	0	0	0	0	0	0	0	0	0	0	0	0	0	0		1	0	0	0	0	0	0	0
010813	08:04:26	10027	Trial2BackEng	N	3	0	1000	1	63	08:04:26	3189218	0	0	0	0	0	0	0	0	0	0	0	0	0	0	0	0	0	0	0	0	0	0		1	0	0	0	0	0	0	0
010813	08:04:26	10027	Trial2BackEng	N	3	0	1000	1	64	08:04:26	3190725	0	0	0	0	0	0	0	0	0	0	0	0	0	0	0	0	0	0	0	0	0	0		1	0	0	0	0	0	0	0
010813	08:04:26	10027	Trial2BackEng	N	3	0	1000	1	65	08:04:26	3192230	0	0	0	0	0	0	0	0	0	0	0	0	0	0	0	0	0	0	0	0	0	0		1	0	0	0	0	0	0	0
010813	08:04:26	10027	Trial2BackEng	N	3	0	1000	1	66	08:04:26	3193737	0	0	0	0	0	0	0	0	0	0	0	0	0	0	0	0	0	0	0	0	0	0		1	0	0	0	0	0	0	0
010813	08:04:26	10027	Trial2BackEng	N	3	0	1000	1	67	08:04:26	3195243	0	0	0	0	0	0	0	0	0	0	0	0	0	0	0	0	0	0	0	0	0	0		1	0	0	0	0	0	0	0
010813	08:04:26	10027	Trial2BackEng	N	3	0	1000	1	68	08:04:26	3196749	0	0	0	0	0	0	0	0	0	0	0	0	0	0	0	0	0	0	0	0	0	0		1	0	0	0	0	0	0	0
010813	08:04:26	10027	Trial2BackEng	N	3	0	1000	1	69	08:04:26	3198254	0	0	0	0	0	0	0	0	0	0	0	0	0	0	0	0	0	0	0	0	0	0		1	0	0	0	0	0	0	0
010813	08:04:26	10027	Trial2BackEng	Y	3	57	471	1	70	08:04:26	3199241	0	0	0	0	0	0	0	0	0	0	0	0	0	0	0	0	0	0	0	0	0	0		1	0	0	0	0	0	0	0
010813	08:04:26	10027	Trial2BackEng	N	3	0	1000	1	71	08:04:26	3201267	0	0	0	0	0	0	0	0	0	0	0	0	0	0	0	0	0	0	0	0	0	0		1	0	0	0	0	0	0	0
010813	08:04:26	10027	Trial2BackEng	N	3	0	1000	1	72	08:04:26	3202773	0	0	0	0	0	0	0	0	0	0	0	0	0	0	0	0	0	0	0	0	0	0		1	0	0	0	0	0	0	0
010813	08:04:26	10027	Trial2BackEng	N	3	0	1000	1	73	08:04:26	3204279	0	0	0	0	0	0	0	0	0	0	0	0	0	0	0	0	0	0	0	0	0	0		1	0	0	0	0	0	0	0
010813	08:04:26	10027	Trial2BackEng	Y	3	57	606	1	74	08:04:26	3205399	0	0	0	0	0	0	0	0	0	0	0	0	0	0	0	0	0	0	0	0	0	0		1	0	0	0	0	0	0	0
010813	08:04:26	10027	Trial2BackEng	N	3	0	1000	1	75	08:04:26	3207291	0	0	0	0	0	0	0	0	0	0	0	0	0	0	0	0	0	0	0	0	0	0		1	0	0	0	0	0	0	0
010813	08:04:26	10027	Trial2BackEng	N	3	0	1000	1	76	08:04:26	3208810	0	0	0	0	0	0	0	0	0	0	0	0	0	0	0	0	0	0	0	0	0	0		1	0	0	0	0	0	0	0
010813	08:04:26	10027	Trial2BackEng	N	3	0	1000	1	77	08:04:26	3210317	0	0	0	0	0	0	0	0	0	0	0	0	0	0	0	0	0	0	0	0	0	0		1	0	0	0	0	0	0	0
010813	08:04:26	10027	Trial2BackEng	N	3	0	1000	1	78	08:04:26	3211822	0	0	0	0	0	0	0	0	0	0	0	0	0	0	0	0	0	0	0	0	0	0		1	0	0	0	0	0	0	0
010813	08:04:26	10027	Trial2BackEng	N	3	0	1000	1	79	08:04:26	3213329	0	0	0	0	0	0	0	0	0	0	0	0	0	0	0	0	0	0	0	0	0	0		1	0	0	0	0	0	0	0
010813	08:04:26	10027	Trial2BackEng	Y	3	0	1000	0	79	08:04:26	3214834	0	0	0	0	0	0	0	0	0	0	0	0	0	0	0	0	0	0	0	0	0	0		1	0	0	0	0	0	0	0
010813	08:04:26	10027	Trial2BackEng	N	3	0	1000	1	80	08:04:26	3216341	0	0	0	0	0	0	0	0	0	0	0	0	0	0	0	0	0	0	0	0	0	0		1	0	0	0	0	0	0	0
010813	08:04:26	10027	Trial2BackEng	N	3	0	1000	1	81	08:04:26	3217846	0	0	0	0	0	0	0	0	0	0	0	0	0	0	0	0	0	0	0	0	0	0		1	0	0	0	0	0	0	0
010813	08:04:26	10027	Trial2BackEng	N	3	0	1000	1	82	08:04:26	3219353	0	0	0	0	0	0	0	0	0	0	0	0	0	0	0	0	0	0	0	0	0	0		1	0	0	0	0	0	0	0
010813	08:04:26	10027	Trial2BackEng	N	3	0	1000	1	83	08:04:26	3220872	0	0	0	0	0	0	0	0	0	0	0	0	0	0	0	0	0	0	0	0	0	0		1	0	0	0	0	0	0	0
010813	08:04:26	10027	Trial2BackEng	N	3	0	1000	1	84	08:04:26	3222378	0	0	0	0	0	0	0	0	0	0	0	0	0	0	0	0	0	0	0	0	0	0		1	0	0	0	0	0	0	0
010813	08:04:26	10027	Trial2BackEng	N	3	0	1000	1	85	08:04:26	3223884	0	0	0	0	0	0	0	0	0	0	0	0	0	0	0	0	0	0	0	0	0	0		1	0	0	0	0	0	0	0
010813	08:04:26	10027	Trial2BackEng	N	3	0	1000	1	86	08:04:26	3225390	0	0	0	0	0	0	0	0	0	0	0	0	0	0	0	0	0	0	0	0	0	0		1	0	0	0	0	0	0	0
010813	08:04:26	10027	Trial2BackEng	N	3	57	742	0	86	08:04:26	3226643	0	0	0	0	0	0	0	0	0	0	0	0	0	0	0	0	0	0	0	0	0	0		1	0	0	0	0	0	0	0
010813	08:04:26	10027	Trial2BackEng	N	3	0	1000	1	87	08:04:26	3228402	0	0	0	0	0	0	0	0	0	0	0	0	0	0	0	0	0	0	0	0	0	0		1	0	0	0	0	0	0	0
010813	08:04:26	10027	Trial2BackEng	Y	3	57	722	1	88	08:04:26	3229642	0	0	0	0	0	0	0	0	0	0	0	0	0	0	0	0	0	0	0	0	0	0		1	0	0	0	0	0	0	0
010813	08:04:26	10027	Trial2BackEng	N	3	0	1000	1	89	08:04:26	3231415	0	0	0	0	0	0	0	0	0	0	0	0	0	0	0	0	0	0	0	0	0	0		1	0	0	0	0	0	0	0
010813	08:04:26	10027	Trial2BackEng	N	3	0	1000	1	90	08:04:26	3232920	0	0	0	0	0	0	0	0	0	0	0	0	0	0	0	0	0	0	0	0	0	0		1	0	0	0	0	0	0	0
010813	08:04:26	10027	Trial2BackEng	N	3	0	1000	1	91	08:04:26	3234427	0	0	0	0	0	0	0	0	0	0	0	0	0	0	0	0	0	0	0	0	0	0		1	0	0	0	0	0	0	0
010813	08:04:26	10027	Trial2BackEng	N	3	0	1000	1	92	08:04:26	3235932	0	0	0	0	0	0	0	0	0	0	0	0	0	0	0	0	0	0	0	0	0	0		1	0	0	0	0	0	0	0
010813	08:04:26	10027	Trial2BackEng	N	3	0	1000	1	93	08:04:26	3237439	0	0	0	0	0	0	0	0	0	0	0	0	0	0	0	0	0	0	0	0	0	0		1	0	0	0	0	0	0	0
010813	08:04:26	10027	Trial2BackEng	N	3	0	1000	1	94	08:04:26	3238944	0	0	0	0	0	0	0	0	0	0	0	0	0	0	0	0	0	0	0	0	0	0		1	0	0	0	0	0	0	0
010813	08:04:26	10027	Trial2BackEng	N	3	0	1000	1	95	08:04:26	3240451	0	0	0	0	0	0	0	0	0	0	0	0	0	0	0	0	0	0	0	0	0	0		1	0	0	0	0	0	0	0
010813	08:04:26	10027	Trial2BackEng	N	3	0	1000	1	96	08:04:26	3241956	0	0	0	0	0	0	0	0	0	0	0	0	0	0	0	0	0	0	0	0	0	0		1	0	0	0	0	0	0	0
010813	08:04:26	10027	Trial2BackEng	Y	3	57	543	1	97	08:04:26	3243009	0	0	0	0	0	0	0	0	0	0	0	0	0	0	0	0	0	0	0	0	0	0		1	0	0	0	0	0	0	0
010813	08:04:26	10027	Trial2BackEng	N	3	0	1000	1	98	08:04:26	3244969	0	0	0	0	0	0	0	0	0	0	0	0	0	0	0	0	0	0	0	0	0	0		1	0	0	0	0	0	0	0
010813	08:04:26	10027	Trial2BackEng	N	3	0	1000	1	99	08:04:26	3246488	0	0	0	0	0	0	0	0	0	0	0	0	0	0	0	0	0	0	0	0	0	0		1	0	0	0	0	0	0	0
010813	08:04:26	10027	Trial2BackEng	N	3	0	1000	1	100	08:04:26	3248008	0	0	0	0	0	0	0	0	0	0	0	0	0	0	0	0	0	0	0	0	0	0		1	0	0	0	0	0	0	0
010813	08:04:26	10027	Trial2BackEng	N	3	0	1000	1	101	08:04:26	3249527	0	0	0	0	0	0	0	0	0	0	0	0	0	0	0	0	0	0	0	0	0	0		1	0	0	0	0	0	0	0
010813	08:04:26	10027	Trial2BackEng	Y	3	57	925	1	102	08:04:26	3250966	0	0	0	0	0	0	0	0	0	0	0	0	0	0	0	0	0	0	0	0	0	0		1	0	0	0	0	0	0	0
010813	08:04:26	10027	Trial2BackEng	N	3	0	1000	1	103	08:04:26	3252539	0	0	0	0	0	0	0	0	0	0	0	0	0	0	0	0	0	0	0	0	0	0		1	0	0	0	0	0	0	0
010813	08:04:26	10027	Trial2BackEng	N	3	0	1000	1	104	08:04:26	3254045	0	0	0	0	0	0	0	0	0	0	0	0	0	0	0	0	0	0	0	0	0	0		1	0	0	0	0	0	0	0
010813	08:04:26	10027	Trial2BackEng	N	3	0	1000	1	105	08:04:26	3255551	0	0	0	0	0	0	0	0	0	0	0	0	0	0	0	0	0	0	0	0	0	0		1	0	0	0	0	0	0	0
010813	08:04:26	10027	Trial2BackEng	Y	3	57	628	1	106	08:04:26	3256697	0	0	0	0	0	0	0	0	0	0	0	0	0	0	0	0	0	0	0	0	0	0		1	0	0	0	0	0	0	0
010813	08:04:26	10027	Trial2BackEng	N	3	0	1000	1	107	08:04:26	3258565	0	0	0	0	0	0	0	0	0	0	0	0	0	0	0	0	0	0	0	0	0	0		1	0	0	0	0	0	0	0
010813	08:04:26	10027	Trial2BackEng	N	3	0	1000	1	108	08:04:26	3260082	0	0	0	0	0	0	0	0	0	0	0	0	0	0	0	0	0	0	0	0	0	0		1	0	0	0	0	0	0	0
010813	08:04:26	10027	Trial2BackEng	N	3	0	1000	1	109	08:04:26	3261588	0	0	0	0	0	0	0	0	0	0	0	0	0	0	0	0	0	0	0	0	0	0		1	0	0	0	0	0	0	0
010813	08:04:26	10027	Trial2BackEng	N	3	0	1000	1	110	08:04:26	3263094	0	0	0	0	0	0	0	0	0	0	0	0	0	0	0	0	0	0	0	0	0	0		1	0	0	0	0	0	0	0
010813	08:04:26	10027	Trial2BackEng	N	3	0	1000	1	111	08:04:26	3264601	0	0	0	0	0	0	0	0	0	0	0	0	0	0	0	0	0	0	0	0	0	0		1	0	0	0	0	0	0	0
010813	08:04:26	10027	Trial2BackEng	Y	3	0	1000	0	111	08:04:26	3266120	0	0	0	0	0	0	0	0	0	0	0	0	0	0	0	0	0	0	0	0	0	0		1	0	0	0	0	0	0	0
010813	08:04:26	10027	Trial2BackEng	N	3	0	1000	1	112	08:04:26	3267626	0	0	0	0	0	0	0	0	0	0	0	0	0	0	0	0	0	0	0	0	0	0		1	0	0	0	0	0	0	0
010813	08:04:26	10027	Trial2BackEng	N	3	0	1000	1	113	08:04:26	3269132	0	0	0	0	0	0	0	0	0	0	0	0	0	0	0	0	0	0	0	0	0	0		1	0	0	0	0	0	0	0
010813	08:04:26	10027	Trial2BackEng	N	3	0	1000	1	114	08:04:26	3270638	0	0	0	0	0	0	0	0	0	0	0	0	0	0	0	0	0	0	0	0	0	0		1	0	0	0	0	0	0	0
010813	08:04:26	10027	Trial2BackEng	Y	3	57	821	1	115	08:04:26	3271971	0	0	0	0	0	0	0	0	0	0	0	0	0	0	0	0	0	0	0	0	0	0		1	0	0	0	0	0	0	0
010813	08:04:26	10027	Memory1R6mo	Score	5	M1	15278	0	115	08:04:26	3316473	0	0	0	0	0	0	0	0	0	0	0	0	0	0	0	0	0	0	0	0	0	0		1	0	0	0	0	0	0	0
010813	08:04:26	10027	Memory1R6mo	Score	5	M2	207	0	115	08:04:26	3316726	0	0	0	0	0	0	0	0	0	0	0	0	0	0	0	0	0	0	0	0	0	0		1	0	0	0	0	0	0	0
010813	08:04:26	10027	Memory1R6mo	Score	5	M3	274	0	115	08:04:26	3317045	0	0	0	0	0	0	0	0	0	0	0	0	0	0	0	0	0	0	0	0	0	0		1	0	0	0	0	0	0	0
010813	08:04:26	10027	Memory1R6mo	Score	5	M4	250	0	115	08:04:26	3317352	0	0	0	0	0	0	0	0	0	0	0	0	0	0	0	0	0	0	0	0	0	0		1	0	0	0	0	0	0	0
010813	08:04:26	10027	Memory1R6mo	Score	5	M6	1696	0	115	08:04:26	3319098	0	0	0	0	0	0	0	0	0	0	0	0	0	0	0	0	0	0	0	0	0	0		1	0	0	0	0	0	0	0
010813	08:04:26	10027	Memory1R6mo	Score	5	M8	301	0	115	08:04:26	3319445	0	0	0	0	0	0	0	0	0	0	0	0	0	0	0	0	0	0	0	0	0	0		1	0	0	0	0	0	0	0
010813	08:04:26	10027	Memory1R6mo	Score	5	Done	19362	0	115	08:04:26	3338850	0	0	0	0	0	0	0	0	0	0	0	0	0	0	0	0	0	0	0	0	0	0		1	0	0	0	0	0	0	0
010813	08:04:26	10027	Memory2R6mo	Score2	5	88	18081	0	115	08:04:26	3378113	0	0	0	0	0	0	0	0	0	0	0	0	0	0	0	0	0	0	0	0	0	0		1	0	0	0	0	0	0	0
010813	08:04:26	10027	Memory2R6mo	Score2	5	55	772	0	115	08:04:26	3378940	0	0	0	0	0	0	0	0	0	0	0	0	0	0	0	0	0	0	0	0	0	0		1	0	0	0	0	0	0	0
010813	08:04:26	10027	Memory2R6mo	Score2	5	44	345	0	115	08:04:26	3379340	0	0	0	0	0	0	0	0	0	0	0	0	0	0	0	0	0	0	0	0	0	0		1	0	0	0	0	0	0	0
010813	08:04:26	10027	Memory2R6mo	Score2	5	33	306	0	115	08:04:26	3379700	0	0	0	0	0	0	0	0	0	0	0	0	0	0	0	0	0	0	0	0	0	0		1	0	0	0	0	0	0	0
010813	08:04:26	10027	Memory2R6mo	Score2	5	22	338	0	115	08:04:26	3380086	0	0	0	0	0	0	0	0	0	0	0	0	0	0	0	0	0	0	0	0	0	0		1	0	0	0	0	0	0	0
010813	08:04:26	10027	Memory2R6mo	Score2	5	11	279	0	115	08:04:26	3380419	0	0	0	0	0	0	0	0	0	0	0	0	0	0	0	0	0	0	0	0	0	0		1	0	0	0	0	0	0	0
010813	08:04:26	10027	Memory2R6mo	Score2	5	Done	17001	0	115	08:04:26	3397466	0	0	0	0	0	0	0	0	0	0	0	0	0	0	0	0	0	0	0	0	0	0		1	0	0	0	0	0	0	0
010813	08:04:26	10027	Memory3R6mo	Score3	5	111	15163	0	115	08:04:26	3433584	0	0	0	0	0	0	0	0	0	0	0	0	0	0	0	0	0	0	0	0	0	0		1	0	0	0	0	0	0	0
010813	08:04:26	10027	Memory3R6mo	Score3	5	222	203	0	115	08:04:26	3433837	0	0	0	0	0	0	0	0	0	0	0	0	0	0	0	0	0	0	0	0	0	0		1	0	0	0	0	0	0	0
010813	08:04:26	10027	Memory3R6mo	Score3	5	333	326	0	115	08:04:26	3434210	0	0	0	0	0	0	0	0	0	0	0	0	0	0	0	0	0	0	0	0	0	0		1	0	0	0	0	0	0	0
010813	08:04:26	10027	Memory3R6mo	Score3	5	444	513	0	115	08:04:26	3434770	0	0	0	0	0	0	0	0	0	0	0	0	0	0	0	0	0	0	0	0	0	0		1	0	0	0	0	0	0	0
010813	08:04:26	10027	Memory3R6mo	Score3	5	555	977	0	115	08:04:26	3435796	0	0	0	0	0	0	0	0	0	0	0	0	0	0	0	0	0	0	0	0	0	0		1	0	0	0	0	0	0	0
010813	08:04:26	10027	Memory3R6mo	Score3	5	555	239	0	115	08:04:26	3436090	0	0	0	0	0	0	0	0	0	0	0	0	0	0	0	0	0	0	0	0	0	0		1	0	0	0	0	0	0	0
010813	08:04:26	10027	Memory3R6mo	Score3	5	666	498	0	115	08:04:26	3436636	0	0	0	0	0	0	0	0	0	0	0	0	0	0	0	0	0	0	0	0	0	0		1	0	0	0	0	0	0	0
010813	08:04:26	10027	Memory3R6mo	Score3	5	555	303	0	115	08:04:26	3436996	0	0	0	0	0	0	0	0	0	0	0	0	0	0	0	0	0	0	0	0	0	0		1	0	0	0	0	0	0	0
010813	08:04:26	10027	Memory3R6mo	Score3	5	888	503	0	115	08:04:26	3437556	0	0	0	0	0	0	0	0	0	0	0	0	0	0	0	0	0	0	0	0	0	0		1	0	0	0	0	0	0	0
010813	08:04:26	10027	Memory3R6mo	Score3	5	Done	16975	0	115	08:04:26	3454575	0	0	0	0	0	0	0	0	0	0	0	0	0	0	0	0	0	0	0	0	0	0		1	0	0	0	0	0	0	0
010813	08:04:26	10027	LoriaEngLH3	Stop	6	7	3689	0	115	08:04:26	3523908	0	0	0	0	0	0	0	0	0	0	0	0	0	0	0	0	0	0	0	0	0	0		1	0	0	0	0	0	0	0
010813	08:04:26	10027	EngTrail	Trails	7	1Trails	823	0	115	08:04:26	3549056	0	0	0	0	0	0	0	0	0	0	0	0	0	0	0	0	0	0	0	0	0	0		1	0	0	0	0	0	0	0
010813	08:04:26	10027	Serial7Eng6mo	Serial7Eng6mo	8	73	11996	0	115	08:04:26	3579259	1	0	0	0	0	0	0	0	0	0	0	0	0	0	0	0	0	0	0	0	0	0		1	0	0	0	0	0	0	0
010813	08:04:26	10027	Serial7Eng6mo	Serial7Eng6mo	8	66	16712	0	115	08:04:26	3595987	2	0	0	0	0	0	0	0	0	0	0	0	0	0	0	0	0	0	0	0	0	0		1	0	0	0	0	0	0	0
010813	08:04:26	10027	Serial7Eng6mo	Serial7Eng6mo	8	59	6985	0	115	08:04:26	3602999	3	0	0	0	0	0	0	0	0	0	0	0	0	0	0	0	0	0	0	0	0	0		1	0	0	0	0	0	0	0
010813	08:04:26	10027	Serial7Eng6mo	Serial7Eng6mo	8	52	5293	0	115	08:04:26	3608317	4	0	0	0	0	0	0	0	0	0	0	0	0	0	0	0	0	0	0	0	0	0		1	0	0	0	0	0	0	0
010813	08:04:26	10027	Serial7Eng6mo	Serial7Eng6mo	8	46	5816	0	115	08:04:26	3614155	4	0	0	0	0	0	0	0	0	0	0	0	0	0	0	0	0	0	0	0	0	0		1	0	0	0	0	0	0	0
010813	08:04:26	10027	corsiblockEngFwrd	recallseqEngFwrd	9	8	2273	0	115	08:04:26	3654911	4	0	0	0	0	0	0	0	0	0	0	0	0	0	0	0	0	0	0	0	0	0		1	0	0	0	0	0	0	0
010813	08:04:26	10027	corsiblockEngFwrd	recallseqEngFwrd	9	5	922	0	115	08:04:26	3655884	4	0	0	0	0	0	0	0	0	0	0	0	0	0	0	0	0	0	0	0	0	0		1	0	0	0	0	0	0	0
010813	08:04:26	10027	corsiblockEngFwrd	recallseqEngFwrd	9	doneCorsiEng	1733	0	115	08:04:26	3657670	4	0	0	0	0	0	0	0	0	0	0	0	0	0	0	2	0	0	0	0	0	0		1	0	0	0	0	0	0	0
010813	08:04:26	10027	corsiblockEngFwrd	recallseqEngFwrd	9	1	2072	0	115	08:04:26	3665880	4	0	0	0	0	0	0	0	0	0	0	0	0	0	0	2	0	0	0	0	0	0		1	0	0	0	0	0	0	0
010813	08:04:26	10027	corsiblockEngFwrd	recallseqEngFwrd	9	2	721	0	115	08:04:26	3666653	4	0	0	0	0	0	0	0	0	0	0	0	0	0	0	2	0	0	0	0	0	0		1	0	0	0	0	0	0	0
010813	08:04:26	10027	corsiblockEngFwrd	recallseqEngFwrd	9	3	772	0	115	08:04:26	3667479	4	0	0	0	0	0	0	0	0	0	0	0	0	0	0	2	0	0	0	0	0	0		1	0	0	0	0	0	0	0
010813	08:04:26	10027	corsiblockEngFwrd	recallseqEngFwrd	9	doneCorsiEng	1433	0	115	08:04:26	3668958	4	0	0	0	0	0	0	0	0	0	0	0	0	0	0	3	0	0	0	0	0	0		1	0	0	0	0	0	0	0
010813	08:04:26	10027	corsiblockEngFwrd	recallseqEngFwrd	9	4	1485	0	115	08:04:26	3677568	4	0	0	0	0	0	0	0	0	0	0	0	0	0	0	3	0	0	0	0	0	0		1	0	0	0	0	0	0	0
010813	08:04:26	10027	corsiblockEngFwrd	recallseqEngFwrd	9	9	960	0	115	08:04:26	3678581	4	0	0	0	0	0	0	0	0	0	0	0	0	0	0	3	0	0	0	0	0	0		1	0	0	0	0	0	0	0
010813	08:04:26	10027	corsiblockEngFwrd	recallseqEngFwrd	9	6	899	0	115	08:04:26	3679527	4	0	0	0	0	0	0	0	0	0	0	0	0	0	0	3	0	0	0	0	0	0		1	0	0	0	0	0	0	0
010813	08:04:26	10027	corsiblockEngFwrd	recallseqEngFwrd	9	7	825	0	115	08:04:26	3680407	4	0	0	0	0	0	0	0	0	0	0	0	0	0	0	3	0	0	0	0	0	0		1	0	0	0	0	0	0	0
010813	08:04:26	10027	corsiblockEngFwrd	recallseqEngFwrd	9	doneCorsiEng	1145	0	115	08:04:26	3681607	4	0	0	0	0	0	0	0	0	0	0	0	0	0	0	4	0	0	0	0	0	0		1	0	0	0	0	0	0	0
010813	08:04:26	10027	corsiblockEngFwrd	recallseqEngFwrd	9	3	2925	0	115	08:04:26	3692655	4	0	0	0	0	0	0	0	0	0	0	0	0	0	0	4	0	0	0	0	0	0		1	0	0	0	0	0	0	0
010813	08:04:26	10027	corsiblockEngFwrd	recallseqEngFwrd	9	1	697	0	115	08:04:26	3693402	4	0	0	0	0	0	0	0	0	0	0	0	0	0	0	4	0	0	0	0	0	0		1	0	0	0	0	0	0	0
010813	08:04:26	10027	corsiblockEngFwrd	recallseqEngFwrd	9	7	606	0	115	08:04:26	3694055	4	0	0	0	0	0	0	0	0	0	0	0	0	0	0	4	0	0	0	0	0	0		1	0	0	0	0	0	0	0
010813	08:04:26	10027	corsiblockEngFwrd	recallseqEngFwrd	9	6	649	0	115	08:04:26	3694748	4	0	0	0	0	0	0	0	0	0	0	0	0	0	0	4	0	0	0	0	0	0		1	0	0	0	0	0	0	0
010813	08:04:26	10027	corsiblockEngFwrd	recallseqEngFwrd	9	4	396	0	115	08:04:26	3695201	4	0	0	0	0	0	0	0	0	0	0	0	0	0	0	4	0	0	0	0	0	0		1	0	0	0	0	0	0	0
010813	08:04:26	10027	corsiblockEngFwrd	recallseqEngFwrd	9	doneCorsiEng	1519	0	115	08:04:26	3696774	4	0	0	0	0	0	0	0	0	0	0	0	0	0	0	5	0	0	0	0	0	0		1	0	0	0	0	0	0	0
010813	08:04:26	10027	corsiblockEngFwrd	recallseqEngFwrd	9	resetCorsiEng	6678	0	115	08:04:26	3712580	4	0	0	0	0	0	0	0	0	0	0	0	0	0	0	5	0	0	0	0	0	0		1	0	0	0	0	0	0	0
010813	08:04:26	10027	corsiblockEngFwrd	recallseqEngFwrd	9	4	4851	0	115	08:04:26	3717485	4	0	0	0	0	0	0	0	0	0	0	0	0	0	0	5	0	0	0	0	0	0		1	0	0	0	0	0	0	0
010813	08:04:26	10027	corsiblockEngFwrd	recallseqEngFwrd	9	9	1354	0	115	08:04:26	3718884	4	0	0	0	0	0	0	0	0	0	0	0	0	0	0	5	0	0	0	0	0	0		1	0	0	0	0	0	0	0
010813	08:04:26	10027	corsiblockEngFwrd	recallseqEngFwrd	9	2	1203	0	115	08:04:26	3720137	4	0	0	0	0	0	0	0	0	0	0	0	0	0	0	5	0	0	0	0	0	0		1	0	0	0	0	0	0	0
010813	08:04:26	10027	corsiblockEngFwrd	recallseqEngFwrd	9	5	2590	0	115	08:04:26	3722776	4	0	0	0	0	0	0	0	0	0	0	0	0	0	0	5	0	0	0	0	0	0		1	0	0	0	0	0	0	0
010813	08:04:26	10027	corsiblockEngFwrd	recallseqEngFwrd	9	6	423	0	115	08:04:26	3723242	4	0	0	0	0	0	0	0	0	0	0	0	0	0	0	5	0	0	0	0	0	0		1	0	0	0	0	0	0	0
010813	08:04:26	10027	corsiblockEngFwrd	recallseqEngFwrd	9	4	381	0	115	08:04:26	3723669	4	0	0	0	0	0	0	0	0	0	0	0	0	0	0	5	0	0	0	0	0	0		1	0	0	0	0	0	0	0
010813	08:04:26	10027	corsiblockEngFwrd	recallseqEngFwrd	9	doneCorsiEng	722	0	115	08:04:26	3724442	4	0	0	0	0	0	0	0	0	0	0	0	0	0	0	5	0	0	0	0	0	0		1	0	0	0	0	0	0	0
010813	08:04:26	10027	corsiblockEngFwrd	recallseqEngFwrd	9	6	2504	0	115	08:04:26	3736037	4	0	0	0	0	0	0	0	0	0	0	0	0	0	0	5	0	0	0	0	0	0		1	0	0	0	0	0	0	0
010813	08:04:26	10027	corsiblockEngFwrd	recallseqEngFwrd	9	3	1089	0	115	08:04:26	3737184	4	0	0	0	0	0	0	0	0	0	0	0	0	0	0	5	0	0	0	0	0	0		1	0	0	0	0	0	0	0
010813	08:04:26	10027	corsiblockEngFwrd	recallseqEngFwrd	9	4	1247	0	115	08:04:26	3738476	4	0	0	0	0	0	0	0	0	0	0	0	0	0	0	5	0	0	0	0	0	0		1	0	0	0	0	0	0	0
010813	08:04:26	10027	corsiblockEngFwrd	recallseqEngFwrd	9	5	490	0	115	08:04:26	3739023	4	0	0	0	0	0	0	0	0	0	0	0	0	0	0	5	0	0	0	0	0	0		1	0	0	0	0	0	0	0
010813	08:04:26	10027	corsiblockEngFwrd	recallseqEngFwrd	9	8	536	0	115	08:04:26	3739609	4	0	0	0	0	0	0	0	0	0	0	0	0	0	0	5	0	0	0	0	0	0		1	0	0	0	0	0	0	0
010813	08:04:26	10027	corsiblockEngFwrd	recallseqEngFwrd	9	2	2381	0	115	08:04:26	3742035	4	0	0	0	0	0	0	0	0	0	0	0	0	0	0	5	0	0	0	0	0	0		1	0	0	0	0	0	0	0
010813	08:04:26	10027	corsiblockEngFwrd	recallseqEngFwrd	9	doneCorsiEng	884	0	115	08:04:26	3742968	4	0	0	0	0	0	0	0	0	0	0	0	0	0	0	5	0	0	0	0	0	0		1	0	0	0	0	0	0	0
010813	08:04:26	10027	corsiblockEngRev	recallseqEngRev	10	5	1156	0	115	08:04:26	3773302	4	0	0	0	0	0	0	0	0	0	0	0	0	0	0	5	0	0	0	0	0	0		1	0	0	0	0	0	0	0
010813	08:04:26	10027	corsiblockEngRev	recallseqEngRev	10	4	391	0	115	08:04:26	3773742	4	0	0	0	0	0	0	0	0	0	0	0	0	0	0	5	0	0	0	0	0	0		1	0	0	0	0	0	0	0
010813	08:04:26	10027	corsiblockEngRev	recallseqEngRev	10	doneCorsiEng	800	0	115	08:04:26	3774595	4	0	0	0	0	0	0	0	0	0	0	0	0	0	0	5	2	0	0	0	0	0		1	0	0	0	0	0	0	0
010813	08:04:26	10027	corsiblockEngRev	recallseqEngRev	10	2	1029	0	115	08:04:26	3781752	4	0	0	0	0	0	0	0	0	0	0	0	0	0	0	5	2	0	0	0	0	0		1	0	0	0	0	0	0	0
010813	08:04:26	10027	corsiblockEngRev	recallseqEngRev	10	6	781	0	115	08:04:26	3782578	4	0	0	0	0	0	0	0	0	0	0	0	0	0	0	5	2	0	0	0	0	0		1	0	0	0	0	0	0	0
010813	08:04:26	10027	corsiblockEngRev	recallseqEngRev	10	3	451	0	115	08:04:26	3783084	4	0	0	0	0	0	0	0	0	0	0	0	0	0	0	5	2	0	0	0	0	0		1	0	0	0	0	0	0	0
010813	08:04:26	10027	corsiblockEngRev	recallseqEngRev	10	doneCorsiEng	920	0	115	08:04:26	3784057	4	0	0	0	0	0	0	0	0	0	0	0	0	0	0	5	3	0	0	0	0	0		1	0	0	0	0	0	0	0
010813	08:04:26	10027	corsiblockEngRev	recallseqEngRev	10	9	1308	0	115	08:04:26	3792481	4	0	0	0	0	0	0	0	0	0	0	0	0	0	0	5	3	0	0	0	0	0		1	0	0	0	0	0	0	0
010813	08:04:26	10027	corsiblockEngRev	recallseqEngRev	10	8	676	0	115	08:04:26	3793214	4	0	0	0	0	0	0	0	0	0	0	0	0	0	0	5	3	0	0	0	0	0		1	0	0	0	0	0	0	0
010813	08:04:26	10027	corsiblockEngRev	recallseqEngRev	10	1	1631	0	115	08:04:26	3794893	4	0	0	0	0	0	0	0	0	0	0	0	0	0	0	5	3	0	0	0	0	0		1	0	0	0	0	0	0	0
010813	08:04:26	10027	corsiblockEngRev	recallseqEngRev	10	2	2487	0	115	08:04:26	3797425	4	0	0	0	0	0	0	0	0	0	0	0	0	0	0	5	3	0	0	0	0	0		1	0	0	0	0	0	0	0
010813	08:04:26	10027	corsiblockEngRev	recallseqEngRev	10	doneCorsiEng	1243	0	115	08:04:26	3798718	4	0	0	0	0	0	0	0	0	0	0	0	0	0	0	5	3	0	0	0	0	0		1	0	0	0	0	0	0	0
010813	08:04:26	10027	corsiblockEngRev	recallseqEngRev	10	2	1809	0	115	08:04:26	3807621	4	0	0	0	0	0	0	0	0	0	0	0	0	0	0	5	3	0	0	0	0	0		1	0	0	0	0	0	0	0
010813	08:04:26	10027	corsiblockEngRev	recallseqEngRev	10	4	431	0	115	08:04:26	3808101	4	0	0	0	0	0	0	0	0	0	0	0	0	0	0	5	3	0	0	0	0	0		1	0	0	0	0	0	0	0
010813	08:04:26	10027	corsiblockEngRev	recallseqEngRev	10	5	615	0	115	08:04:26	3808767	4	0	0	0	0	0	0	0	0	0	0	0	0	0	0	5	3	0	0	0	0	0		1	0	0	0	0	0	0	0
010813	08:04:26	10027	corsiblockEngRev	recallseqEngRev	10	6	421	0	115	08:04:26	3809234	4	0	0	0	0	0	0	0	0	0	0	0	0	0	0	5	3	0	0	0	0	0		1	0	0	0	0	0	0	0
010813	08:04:26	10027	corsiblockEngRev	recallseqEngRev	10	doneCorsiEng	866	0	115	08:04:26	3810153	4	0	0	0	0	0	0	0	0	0	0	0	0	0	0	5	4	0	0	0	0	0		1	0	0	0	0	0	0	0
010813	08:04:26	10027	corsiblockEngRev	recallseqEngRev	10	8	1867	0	115	08:04:26	3819136	4	0	0	0	0	0	0	0	0	0	0	0	0	0	0	5	4	0	0	0	0	0		1	0	0	0	0	0	0	0
010813	08:04:26	10027	corsiblockEngRev	recallseqEngRev	10	7	667	0	115	08:04:26	3819856	4	0	0	0	0	0	0	0	0	0	0	0	0	0	0	5	4	0	0	0	0	0		1	0	0	0	0	0	0	0
010813	08:04:26	10027	corsiblockEngRev	recallseqEngRev	10	9	715	0	115	08:04:26	3820616	4	0	0	0	0	0	0	0	0	0	0	0	0	0	0	5	4	0	0	0	0	0		1	0	0	0	0	0	0	0
010813	08:04:26	10027	corsiblockEngRev	recallseqEngRev	10	3	924	0	115	08:04:26	3821589	4	0	0	0	0	0	0	0	0	0	0	0	0	0	0	5	4	0	0	0	0	0		1	0	0	0	0	0	0	0
010813	08:04:26	10027	corsiblockEngRev	recallseqEngRev	10	1	607	0	115	08:04:26	3822242	4	0	0	0	0	0	0	0	0	0	0	0	0	0	0	5	4	0	0	0	0	0		1	0	0	0	0	0	0	0
010813	08:04:26	10027	corsiblockEngRev	recallseqEngRev	10	doneCorsiEng	722	0	115	08:04:26	3823015	4	0	0	0	0	0	0	0	0	0	0	0	0	0	0	5	4	0	0	0	0	0		1	0	0	0	0	0	0	0
010813	08:04:26	10027	corsiblockEngRev	recallseqEngRev	10	8	4856	0	115	08:04:26	3835956	4	0	0	0	0	0	0	0	0	0	0	0	0	0	0	5	4	0	0	0	0	0		1	0	0	0	0	0	0	0
010813	08:04:26	10027	corsiblockEngRev	recallseqEngRev	10	5	735	0	115	08:04:26	3836742	4	0	0	0	0	0	0	0	0	0	0	0	0	0	0	5	4	0	0	0	0	0		1	0	0	0	0	0	0	0
010813	08:04:26	10027	corsiblockEngRev	recallseqEngRev	10	6	389	0	115	08:04:26	3837182	4	0	0	0	0	0	0	0	0	0	0	0	0	0	0	5	4	0	0	0	0	0		1	0	0	0	0	0	0	0
010813	08:04:26	10027	corsiblockEngRev	recallseqEngRev	10	4	438	0	115	08:04:26	3837675	4	0	0	0	0	0	0	0	0	0	0	0	0	0	0	5	4	0	0	0	0	0		1	0	0	0	0	0	0	0
010813	08:04:26	10027	corsiblockEngRev	recallseqEngRev	10	2	407	0	115	08:04:26	3838128	4	0	0	0	0	0	0	0	0	0	0	0	0	0	0	5	4	0	0	0	0	0		1	0	0	0	0	0	0	0
010813	08:04:26	10027	corsiblockEngRev	recallseqEngRev	10	doneCorsiEng	739	0	115	08:04:26	3838915	4	0	0	0	0	0	0	0	0	0	0	0	0	0	0	5	4	0	0	0	0	0		1	0	0	0	0	0	0	0
010813	08:04:26	10027	testEng6mo	WordsEng6mo	11	8Eng6mo	23015	0	115	08:04:26	3868729	4	0	0	0	0	0	0	0	3	0	0	0	0	0	0	5	4	0	0	0	0	0		1	0	0	0	0	0	0	0
010813	08:04:26	10027	testEng6mo	WordsEng6mo	11	6Eng6mo	3593	0	115	08:04:26	3872368	4	0	0	0	0	0	3	0	3	0	0	0	0	0	0	5	4	0	0	0	0	0		1	0	0	0	0	0	0	0
010813	08:04:26	10027	testEng6mo	WordsEng6mo	11	4Eng6mo	1906	0	115	08:04:26	3874327	4	0	0	0	3	0	3	0	3	0	0	0	0	0	0	5	4	0	0	0	0	0		1	0	0	0	0	0	0	0
010813	08:04:26	10027	testEng6mo	WordsEng6mo	11	3Eng6mo	460	0	115	08:04:26	3874833	4	0	0	3	3	0	3	0	3	0	0	0	0	0	0	5	4	0	0	0	0	0		1	0	0	0	0	0	0	0
010813	08:04:26	10027	testEng6mo	WordsEng6mo	11	2Eng6mo	321	0	115	08:04:26	3875206	4	0	3	3	3	0	3	0	3	0	0	0	0	0	0	5	4	0	0	0	0	0		1	0	0	0	0	0	0	0
010813	08:04:26	10027	testEng6mo	WordsEng6mo	11	1Eng6mo	348	0	115	08:04:26	3875606	4	3	3	3	3	0	3	0	3	0	0	0	0	0	0	5	4	0	0	0	0	0		1	0	0	0	0	0	0	0
010813	08:04:26	10027	testEng6mo	WordsEng6mo	11	5Eng6mo	28275	0	115	08:04:26	3903928	4	3	3	3	3	3	3	0	3	0	0	0	0	0	0	5	4	0	0	0	0	0		1	0	0	0	0	0	0	0
010813	08:04:26	10027	testEng6mo	WordsEng6mo	11	DoneEng6mo	10625	0	115	08:04:26	3914603	4	3	3	3	3	3	3	0	3	0	0	0	0	0	0	5	4	0	0	0	0	0		1	0	0	0	0	0	0	0
010813	08:04:26	10027	testEng6mo	Cat7Eng6mo	11	W7Eng6mo	19214	0	115	08:04:26	3933862	4	3	3	3	3	3	3	0	3	0	0	0	0	0	0	5	4	0	0	0	0	0		1	0	0	0	0	0	0	0
010813	08:04:26	10027	testEng6mo	Ch7Eng6mo	11	RR7Eng6mo	4248	0	115	08:04:26	3938140	4	3	3	3	3	3	3	1	3	0	0	0	0	0	0	5	4	0	0	0	0	0		1	0	0	0	0	0	0	0
010813	08:04:26	10027	DigitSpanFwrdEng6mo	Score1FwrdEng6mo	12	DS1	4309	0	115	08:04:26	4026903	4	3	3	3	3	3	3	1	3	0	0	0	0	0	0	5	4	0	0	0	0	0		1	0	0	0	0	0	0	0
010813	08:04:26	10027	DigitSpanFwrdEng6mo	Gate1FwrdEng6mo	12	0	1	0	115	08:04:26	4026908	4	3	3	3	3	3	3	1	3	3	0	0	0	0	0	5	4	0	0	0	0	0		1	0	0	0	0	0	0	0
010813	08:04:26	10027	DigitSpanFwrdEng6mo	Score2FwrdEng6mo	12	DS1	1913	0	115	08:04:26	4035579	4	3	3	3	3	3	3	1	3	3	0	0	0	0	0	5	4	0	0	0	0	0		1	0	0	0	0	0	0	0
010813	08:04:26	10027	DigitSpanFwrdEng6mo	Gate3FwrdEng6mo	12	0	1	0	115	08:04:26	4035584	4	3	3	3	3	3	3	1	3	4	0	0	0	0	0	5	4	0	0	0	0	0		1	0	0	0	0	0	0	0
010813	08:04:26	10027	DigitSpanFwrdEng6mo	Score3FwrdEng6mo	12	DS1	3930	0	115	08:04:26	4047548	4	3	3	3	3	3	3	1	3	4	0	0	0	0	0	5	4	0	0	0	0	0		1	0	0	0	0	0	0	0
010813	08:04:26	10027	DigitSpanFwrdEng6mo	Gate5FwrdEng6mo	12	0	1	0	115	08:04:26	4047552	4	3	3	3	3	3	3	1	3	5	0	0	0	0	0	5	4	0	0	0	0	0		1	0	0	0	0	0	0	0
010813	08:04:26	10027	DigitSpanFwrdEng6mo	Score4FwrdEng6mo	12	DS1	2642	0	115	08:04:26	4059703	4	3	3	3	3	3	3	1	3	5	0	0	0	0	0	5	4	0	0	0	0	0		1	0	0	0	0	0	0	0
010813	08:04:26	10027	DigitSpanFwrdEng6mo	Gate7FwrdEng6mo	12	0	1	0	115	08:04:26	4059707	4	3	3	3	3	3	3	1	3	6	0	0	0	0	0	5	4	0	0	0	0	0		1	0	0	0	0	0	0	0
010813	08:04:26	10027	DigitSpanFwrdEng6mo	Score5FwrdEng6mo	12	DS2	7176	0	115	08:04:26	4077868	4	3	3	3	3	3	3	1	3	6	0	0	0	0	0	5	4	0	0	0	0	0		1	0	0	0	0	0	0	0
010813	08:04:26	10027	DigitSpanFwrdEng6mo	Gate9FwrdEng6mo	12	0	1	0	115	08:04:26	4077873	4	3	3	3	3	3	3	1	3	6	0	0	0	0	0	5	4	0	0	0	0	0		1	0	0	0	0	0	0	0
010813	08:04:26	10027	DigitSpanFwrdEng6mo	Score55FwrdEng6mo	12	DS1	5561	0	115	08:04:26	4094582	4	3	3	3	3	3	3	1	3	6	0	0	0	0	0	5	4	0	0	0	0	0		1	0	0	0	0	0	0	0
010813	08:04:26	10027	DigitSpanFwrdEng6mo	Gate10FwrdEng6mo	12	0	1	0	115	08:04:26	4094587	4	3	3	3	3	3	3	1	3	7	0	0	0	0	0	5	4	0	0	0	0	0		1	0	0	0	0	0	0	0
010813	08:04:26	10027	DigitSpanFwrdEng6mo	Score6FwrdEng6mo	12	DS2	9957	0	115	08:04:26	4117519	4	3	3	3	3	3	3	1	3	7	0	0	0	0	0	5	4	0	0	0	0	0		1	0	0	0	0	0	0	0
010813	08:04:26	10027	DigitSpanFwrdEng6mo	Gate11FwrdEng6mo	12	0	1	0	115	08:04:26	4117523	4	3	3	3	3	3	3	1	3	7	0	0	0	0	0	5	4	0	0	0	0	0		1	0	0	0	0	0	0	0
010813	08:04:26	10027	DigitSpanFwrdEng6mo	Score66FwrdEng6mo	12	DS2	6547	0	115	08:04:26	4137244	4	3	3	3	3	3	3	1	3	7	0	0	0	0	0	5	4	0	0	0	0	0		1	0	0	0	0	0	0	0
010813	08:04:26	10027	DigitSpanEng6mo	Score1Eng6mo	13	DS1	3115	0	115	08:04:26	4159621	4	3	3	3	3	3	3	1	3	7	0	0	0	0	0	5	4	0	0	0	0	0		1	0	0	0	0	0	0	0
010813	08:04:26	10027	DigitSpanEng6mo	Gate1Eng6mo	13	0	1	0	115	08:04:26	4159626	4	3	3	3	3	3	3	1	3	7	2	0	0	0	0	5	4	0	0	0	0	0		1	0	0	0	0	0	0	0
010813	08:04:26	10027	DigitSpanEng6mo	Score2Eng6mo	13	DS1	5448	0	115	08:04:26	4170003	4	3	3	3	3	3	3	1	3	7	2	0	0	0	0	5	4	0	0	0	0	0		1	0	0	0	0	0	0	0
010813	08:04:26	10027	DigitSpanEng6mo	Gate3Eng6mo	13	0	1	0	115	08:04:26	4170008	4	3	3	3	3	3	3	1	3	7	3	0	0	0	0	5	4	0	0	0	0	0		1	0	0	0	0	0	0	0
010813	08:04:26	10027	DigitSpanEng6mo	Score3Eng6mo	13	DS1	7911	0	115	08:04:26	4184477	4	3	3	3	3	3	3	1	3	7	3	0	0	0	0	5	4	0	0	0	0	0		1	0	0	0	0	0	0	0
010813	08:04:26	10027	DigitSpanEng6mo	Gate5Eng6mo	13	0	1	0	115	08:04:26	4184482	4	3	3	3	3	3	3	1	3	7	4	0	0	0	0	5	4	0	0	0	0	0		1	0	0	0	0	0	0	0
010813	08:04:26	10027	DigitSpanEng6mo	Score4Eng6mo	13	DS1	7805	0	115	08:04:26	4200044	4	3	3	3	3	3	3	1	3	7	4	0	0	0	0	5	4	0	0	0	0	0		1	0	0	0	0	0	0	0
010813	08:04:26	10027	DigitSpanEng6mo	Gate7Eng6mo	13	0	1	0	115	08:04:26	4200051	4	3	3	3	3	3	3	1	3	7	5	0	0	0	0	5	4	0	0	0	0	0		1	0	0	0	0	0	0	0
010813	08:04:26	10027	DigitSpanEng6mo	Score5Eng6mo	13	DS2	10054	0	115	08:04:26	4219303	4	3	3	3	3	3	3	1	3	7	5	0	0	0	0	5	4	0	0	0	0	0		1	0	0	0	0	0	0	0
010813	08:04:26	10027	DigitSpanEng6mo	Gate9Eng6mo	13	0	1	0	115	08:04:26	4219308	4	3	3	3	3	3	3	1	3	7	5	0	0	0	0	5	4	0	0	0	0	0		1	0	0	0	0	0	0	0
010813	08:04:26	10027	DigitSpanEng6mo	Score55Eng6mo	13	DS2	22211	0	115	08:04:26	4251037	4	3	3	3	3	3	3	1	3	7	5	0	0	0	0	5	4	0	0	0	0	0		1	0	0	0	0	0	0	0
010813	08:04:26	10027	Trial	ResponseIL	14	0	175	0	115	08:04:26	4288474	4	3	3	3	3	3	3	1	3	7	5	0	0	0	0	5	4	0	0	0	0	0		1	0	0	0	0	0	0	0
010813	08:04:26	10027	Trial	IncongruentLeft	14	203	455	1	115	08:04:26	4288954	4	3	3	3	3	3	3	1	3	7	5	0	0	0	0	5	4	0	0	0	0	0		1	0	0	0	0	0	0	0
010813	08:04:26	10027	Trial	ResponseCR	14	0	175	0	115	08:04:26	4290180	4	3	3	3	3	3	3	1	3	7	5	0	0	0	0	5	4	0	0	0	0	0		1	0	0	0	0	0	0	0
010813	08:04:26	10027	Trial	CongruentRight	14	205	252	1	115	08:04:26	4290460	4	3	3	3	3	3	3	1	3	7	5	0	0	0	0	5	4	0	0	0	0	0		1	0	0	0	0	0	0	0
010813	08:04:26	10027	Trial	ResponseIR	14	0	175	0	115	08:04:26	4291886	4	3	3	3	3	3	3	1	3	7	5	0	0	0	0	5	4	0	0	0	0	0		1	0	0	0	0	0	0	0
010813	08:04:26	10027	Trial	IncongruentRight	14	205	370	1	115	08:04:26	4292286	4	3	3	3	3	3	3	1	3	7	5	0	0	0	0	5	4	0	0	0	0	0		1	0	0	0	0	0	0	0
010813	08:04:26	10027	Trial	ResponseCL	14	0	175	0	115	08:04:26	4293592	4	3	3	3	3	3	3	1	3	7	5	0	0	0	0	5	4	0	0	0	0	0		1	0	0	0	0	0	0	0
010813	08:04:26	10027	Trial	CongruentLeft	14	203	280	1	115	08:04:26	4293898	4	3	3	3	3	3	3	1	3	7	5	0	0	0	0	5	4	0	0	0	0	0		1	0	0	0	0	0	0	0
010813	08:04:26	10027	Trial	ResponseCR	14	0	175	0	115	08:04:26	4295298	4	3	3	3	3	3	3	1	3	7	5	0	0	0	0	5	4	0	0	0	0	0		1	0	0	0	0	0	0	0
010813	08:04:26	10027	Trial	CongruentRight	14	205	222	1	115	08:04:26	4295538	4	3	3	3	3	3	3	1	3	7	5	0	0	0	0	5	4	0	0	0	0	0		1	0	0	0	0	0	0	0
010813	08:04:26	10027	Trial	ResponseIR	14	0	175	0	115	08:04:26	4297004	4	3	3	3	3	3	3	1	3	7	5	0	0	0	0	5	4	0	0	0	0	0		1	0	0	0	0	0	0	0
010813	08:04:26	10027	Trial	IncongruentRight	14	205	389	1	115	08:04:26	4297417	4	3	3	3	3	3	3	1	3	7	5	0	0	0	0	5	4	0	0	0	0	0		1	0	0	0	0	0	0	0
010813	08:04:26	10027	Trial	ResponseCL	14	0	175	0	115	08:04:26	4298710	4	3	3	3	3	3	3	1	3	7	5	0	0	0	0	5	4	0	0	0	0	0		1	0	0	0	0	0	0	0
010813	08:04:26	10027	Trial	CongruentLeft	14	203	267	1	115	08:04:26	4299003	4	3	3	3	3	3	3	1	3	7	5	0	0	0	0	5	4	0	0	0	0	0		1	0	0	0	0	0	0	0
010813	08:04:26	10027	Trial	ResponseIL	14	0	175	0	115	08:04:26	4300416	4	3	3	3	3	3	3	1	3	7	5	0	0	0	0	5	4	0	0	0	0	0		1	0	0	0	0	0	0	0
010813	08:04:26	10027	Trial	IncongruentLeft	14	203	336	1	115	08:04:26	4300776	4	3	3	3	3	3	3	1	3	7	5	0	0	0	0	5	4	0	0	0	0	0		1	0	0	0	0	0	0	0
010813	08:04:26	10027	Trial	ResponseIL	14	0	175	0	115	08:04:26	4302122	4	3	3	3	3	3	3	1	3	7	5	0	0	0	0	5	4	0	0	0	0	0		1	0	0	0	0	0	0	0
010813	08:04:26	10027	Trial	IncongruentLeft	14	205	215	0	115	08:04:26	4302361	4	3	3	3	3	3	3	1	3	7	5	0	0	0	0	5	4	0	0	0	0	0		1	0	0	0	0	0	0	0
010813	08:04:26	10027	Trial	ResponseCR	14	0	175	0	115	08:04:26	4303828	4	3	3	3	3	3	3	1	3	7	5	0	0	0	0	5	4	0	0	0	0	0		1	0	0	0	0	0	0	0
010813	08:04:26	10027	Trial	CongruentRight	14	205	300	1	115	08:04:26	4304148	4	3	3	3	3	3	3	1	3	7	5	0	0	0	0	5	4	0	0	0	0	0		1	0	0	0	0	0	0	0
010813	08:04:26	10027	Trial	ResponseIR	14	0	175	0	115	08:04:26	4305534	4	3	3	3	3	3	3	1	3	7	5	0	0	0	0	5	4	0	0	0	0	0		1	0	0	0	0	0	0	0
010813	08:04:26	10027	Trial	IncongruentRight	14	205	374	1	115	08:04:26	4305947	4	3	3	3	3	3	3	1	3	7	5	0	0	0	0	5	4	0	0	0	0	0		1	0	0	0	0	0	0	0
010813	08:04:26	10027	Trial	ResponseCL	14	0	175	0	115	08:04:26	4307240	4	3	3	3	3	3	3	1	3	7	5	0	0	0	0	5	4	0	0	0	0	0		1	0	0	0	0	0	0	0
010813	08:04:26	10027	Trial	CongruentLeft	14	203	248	1	115	08:04:26	4307506	4	3	3	3	3	3	3	1	3	7	5	0	0	0	0	5	4	0	0	0	0	0		1	0	0	0	0	0	0	0
010813	08:04:26	10027	Trial	ResponseCR	14	0	175	0	115	08:04:26	4308946	4	3	3	3	3	3	3	1	3	7	5	0	0	0	0	5	4	0	0	0	0	0		1	0	0	0	0	0	0	0
010813	08:04:26	10027	Trial	CongruentRight	14	205	238	1	115	08:04:26	4309212	4	3	3	3	3	3	3	1	3	7	5	0	0	0	0	5	4	0	0	0	0	0		1	0	0	0	0	0	0	0
010813	08:04:26	10027	Trial	ResponseIL	14	0	175	0	115	08:04:26	4310652	4	3	3	3	3	3	3	1	3	7	5	0	0	0	0	5	4	0	0	0	0	0		1	0	0	0	0	0	0	0
010813	08:04:26	10027	Trial	IncongruentLeft	14	205	261	0	115	08:04:26	4310931	4	3	3	3	3	3	3	1	3	7	5	0	0	0	0	5	4	0	0	0	0	0		1	0	0	0	0	0	0	0
010813	08:04:26	10027	Trial	ResponseIR	14	0	175	0	115	08:04:26	4312358	4	3	3	3	3	3	3	1	3	7	5	0	0	0	0	5	4	0	0	0	0	0		1	0	0	0	0	0	0	0
010813	08:04:26	10027	Trial	IncongruentRight	14	205	490	1	115	08:04:26	4312877	4	3	3	3	3	3	3	1	3	7	5	0	0	0	0	5	4	0	0	0	0	0		1	0	0	0	0	0	0	0
010813	08:04:26	10027	Trial	ResponseCR	14	0	175	0	115	08:04:26	4314064	4	3	3	3	3	3	3	1	3	7	5	0	0	0	0	5	4	0	0	0	0	0		1	0	0	0	0	0	0	0
010813	08:04:26	10027	Trial	CongruentRight	14	205	288	1	115	08:04:26	4314370	4	3	3	3	3	3	3	1	3	7	5	0	0	0	0	5	4	0	0	0	0	0		1	0	0	0	0	0	0	0
010813	08:04:26	10027	Trial	ResponseCL	14	0	175	0	115	08:04:26	4315769	4	3	3	3	3	3	3	1	3	7	5	0	0	0	0	5	4	0	0	0	0	0		1	0	0	0	0	0	0	0
010813	08:04:26	10027	Trial	CongruentLeft	14	203	246	1	115	08:04:26	4316036	4	3	3	3	3	3	3	1	3	7	5	0	0	0	0	5	4	0	0	0	0	0		1	0	0	0	0	0	0	0
010813	08:04:26	10027	Trial	ResponseCR	14	0	175	0	115	08:04:26	4317476	4	3	3	3	3	3	3	1	3	7	5	0	0	0	0	5	4	0	0	0	0	0		1	0	0	0	0	0	0	0
010813	08:04:26	10027	Trial	CongruentRight	14	205	236	1	115	08:04:26	4317728	4	3	3	3	3	3	3	1	3	7	5	0	0	0	0	5	4	0	0	0	0	0		1	0	0	0	0	0	0	0
010813	08:04:26	10027	Trial	ResponseIR	14	0	175	0	115	08:04:26	4319182	4	3	3	3	3	3	3	1	3	7	5	0	0	0	0	5	4	0	0	0	0	0		1	0	0	0	0	0	0	0
010813	08:04:26	10027	Trial	IncongruentRight	14	203	211	0	115	08:04:26	4319421	4	3	3	3	3	3	3	1	3	7	5	0	0	0	0	5	4	0	0	0	0	0		1	0	0	0	0	0	0	0
010813	08:04:26	10027	Trial	ResponseIL	14	0	175	0	115	08:04:26	4320887	4	3	3	3	3	3	3	1	3	7	5	0	0	0	0	5	4	0	0	0	0	0		1	0	0	0	0	0	0	0
010813	08:04:26	10027	Trial	IncongruentLeft	14	203	312	1	115	08:04:26	4321221	4	3	3	3	3	3	3	1	3	7	5	0	0	0	0	5	4	0	0	0	0	0		1	0	0	0	0	0	0	0
010813	08:04:26	10027	Trial	ResponseIL	14	0	175	0	115	08:04:26	4322593	4	3	3	3	3	3	3	1	3	7	5	0	0	0	0	5	4	0	0	0	0	0		1	0	0	0	0	0	0	0
010813	08:04:26	10027	Trial	IncongruentLeft	14	203	367	1	115	08:04:26	4322980	4	3	3	3	3	3	3	1	3	7	5	0	0	0	0	5	4	0	0	0	0	0		1	0	0	0	0	0	0	0
010813	08:04:26	10027	Trial	ResponseCL	14	0	175	0	115	08:04:26	4324299	4	3	3	3	3	3	3	1	3	7	5	0	0	0	0	5	4	0	0	0	0	0		1	0	0	0	0	0	0	0
010813	08:04:26	10027	Trial	CongruentLeft	14	203	229	1	115	08:04:26	4324552	4	3	3	3	3	3	3	1	3	7	5	0	0	0	0	5	4	0	0	0	0	0		1	0	0	0	0	0	0	0
010813	08:04:26	10027	Trial	ResponseCR	14	0	175	0	115	08:04:26	4326006	4	3	3	3	3	3	3	1	3	7	5	0	0	0	0	5	4	0	0	0	0	0		1	0	0	0	0	0	0	0
010813	08:04:26	10027	Trial	CongruentRight	14	205	219	1	115	08:04:26	4326245	4	3	3	3	3	3	3	1	3	7	5	0	0	0	0	5	4	0	0	0	0	0		1	0	0	0	0	0	0	0
010813	08:04:26	10027	Trial	ResponseIL	14	0	175	0	115	08:04:26	4327711	4	3	3	3	3	3	3	1	3	7	5	0	0	0	0	5	4	0	0	0	0	0		1	0	0	0	0	0	0	0
010813	08:04:26	10027	Trial	IncongruentLeft	14	203	352	1	115	08:04:26	4328084	4	3	3	3	3	3	3	1	3	7	5	0	0	0	0	5	4	0	0	0	0	0		1	0	0	0	0	0	0	0
010813	08:04:26	10027	Trial	ResponseIR	14	0	175	0	115	08:04:26	4329417	4	3	3	3	3	3	3	1	3	7	5	0	0	0	0	5	4	0	0	0	0	0		1	0	0	0	0	0	0	0
010813	08:04:26	10027	Trial	IncongruentRight	14	205	279	1	115	08:04:26	4329724	4	3	3	3	3	3	3	1	3	7	5	0	0	0	0	5	4	0	0	0	0	0		1	0	0	0	0	0	0	0
010813	08:04:26	10027	Trial	ResponseCR	14	0	175	0	115	08:04:26	4331123	4	3	3	3	3	3	3	1	3	7	5	0	0	0	0	5	4	0	0	0	0	0		1	0	0	0	0	0	0	0
010813	08:04:26	10027	Trial	CongruentRight	14	205	285	1	115	08:04:26	4331430	4	3	3	3	3	3	3	1	3	7	5	0	0	0	0	5	4	0	0	0	0	0		1	0	0	0	0	0	0	0
010813	08:04:26	10027	Trial	ResponseCL	14	0	175	0	115	08:04:26	4332829	4	3	3	3	3	3	3	1	3	7	5	0	0	0	0	5	4	0	0	0	0	0		1	0	0	0	0	0	0	0
010813	08:04:26	10027	Trial	CongruentLeft	14	203	211	1	115	08:04:26	4333069	4	3	3	3	3	3	3	1	3	7	5	0	0	0	0	5	4	0	0	0	0	0		1	0	0	0	0	0	0	0
010813	08:04:26	10027	Trial	ResponseIR	14	0	175	0	115	08:04:26	4334535	4	3	3	3	3	3	3	1	3	7	5	0	0	0	0	5	4	0	0	0	0	0		1	0	0	0	0	0	0	0
010813	08:04:26	10027	Trial	IncongruentRight	14	205	312	1	115	08:04:26	4334868	4	3	3	3	3	3	3	1	3	7	5	0	0	0	0	5	4	0	0	0	0	0		1	0	0	0	0	0	0	0
010813	08:04:26	10027	Trial	ResponseIL	14	0	175	0	115	08:04:26	4336241	4	3	3	3	3	3	3	1	3	7	5	0	0	0	0	5	4	0	0	0	0	0		1	0	0	0	0	0	0	0
010813	08:04:26	10027	Trial	IncongruentLeft	14	203	287	1	115	08:04:26	4336548	4	3	3	3	3	3	3	1	3	7	5	0	0	0	0	5	4	0	0	0	0	0		1	0	0	0	0	0	0	0
010813	08:04:26	10027	Trial	ResponseIR	14	0	175	0	115	08:04:26	4337947	4	3	3	3	3	3	3	1	3	7	5	0	0	0	0	5	4	0	0	0	0	0		1	0	0	0	0	0	0	0
010813	08:04:26	10027	Trial	IncongruentRight	14	205	325	1	115	08:04:26	4338293	4	3	3	3	3	3	3	1	3	7	5	0	0	0	0	5	4	0	0	0	0	0		1	0	0	0	0	0	0	0
010813	08:04:26	10027	Trial	ResponseCR	14	0	175	0	115	08:04:26	4339653	4	3	3	3	3	3	3	1	3	7	5	0	0	0	0	5	4	0	0	0	0	0		1	0	0	0	0	0	0	0
010813	08:04:26	10027	Trial	CongruentRight	14	205	410	1	115	08:04:26	4340093	4	3	3	3	3	3	3	1	3	7	5	0	0	0	0	5	4	0	0	0	0	0		1	0	0	0	0	0	0	0
010813	08:04:26	10027	Trial	ResponseIL	14	0	175	0	115	08:04:26	4341359	4	3	3	3	3	3	3	1	3	7	5	0	0	0	0	5	4	0	0	0	0	0		1	0	0	0	0	0	0	0
010813	08:04:26	10027	Trial	IncongruentLeft	14	203	321	1	115	08:04:26	4341705	4	3	3	3	3	3	3	1	3	7	5	0	0	0	0	5	4	0	0	0	0	0		1	0	0	0	0	0	0	0
010813	08:04:26	10027	Trial	ResponseCL	14	0	175	0	115	08:04:26	4343065	4	3	3	3	3	3	3	1	3	7	5	0	0	0	0	5	4	0	0	0	0	0		1	0	0	0	0	0	0	0
010813	08:04:26	10027	Trial	CongruentLeft	14	203	247	1	115	08:04:26	4343331	4	3	3	3	3	3	3	1	3	7	5	0	0	0	0	5	4	0	0	0	0	0		1	0	0	0	0	0	0	0
010813	08:04:26	10027	Trial	ResponseCR	14	0	175	0	115	08:04:26	4344771	4	3	3	3	3	3	3	1	3	7	5	0	0	0	0	5	4	0	0	0	0	0		1	0	0	0	0	0	0	0
010813	08:04:26	10027	Trial	CongruentRight	14	205	284	1	115	08:04:26	4345077	4	3	3	3	3	3	3	1	3	7	5	0	0	0	0	5	4	0	0	0	0	0		1	0	0	0	0	0	0	0
010813	08:04:26	10027	Trial	ResponseIL	14	0	175	0	115	08:04:26	4346477	4	3	3	3	3	3	3	1	3	7	5	0	0	0	0	5	4	0	0	0	0	0		1	0	0	0	0	0	0	0
010813	08:04:26	10027	Trial	IncongruentLeft	14	203	306	1	115	08:04:26	4346810	4	3	3	3	3	3	3	1	3	7	5	0	0	0	0	5	4	0	0	0	0	0		1	0	0	0	0	0	0	0
010813	08:04:26	10027	Trial	ResponseIR	14	0	175	0	115	08:04:26	4348183	4	3	3	3	3	3	3	1	3	7	5	0	0	0	0	5	4	0	0	0	0	0		1	0	0	0	0	0	0	0
010813	08:04:26	10027	Trial	IncongruentRight	14	205	329	1	115	08:04:26	4348529	4	3	3	3	3	3	3	1	3	7	5	0	0	0	0	5	4	0	0	0	0	0		1	0	0	0	0	0	0	0
010813	08:04:26	10027	Trial	ResponseIR	14	0	175	0	115	08:04:26	4349889	4	3	3	3	3	3	3	1	3	7	5	0	0	0	0	5	4	0	0	0	0	0		1	0	0	0	0	0	0	0
010813	08:04:26	10027	Trial	IncongruentRight	14	205	430	1	115	08:04:26	4350342	4	3	3	3	3	3	3	1	3	7	5	0	0	0	0	5	4	0	0	0	0	0		1	0	0	0	0	0	0	0
010813	08:04:26	10027	Trial	ResponseCL	14	0	175	0	115	08:04:26	4351595	4	3	3	3	3	3	3	1	3	7	5	0	0	0	0	5	4	0	0	0	0	0		1	0	0	0	0	0	0	0
010813	08:04:26	10027	Trial	CongruentLeft	14	203	244	1	115	08:04:26	4351861	4	3	3	3	3	3	3	1	3	7	5	0	0	0	0	5	4	0	0	0	0	0		1	0	0	0	0	0	0	0
010813	08:04:26	10027	Trial	ResponseIL	14	0	175	0	115	08:04:26	4353301	4	3	3	3	3	3	3	1	3	7	5	0	0	0	0	5	4	0	0	0	0	0		1	0	0	0	0	0	0	0
010813	08:04:26	10027	Trial	IncongruentLeft	14	203	378	1	115	08:04:26	4353700	4	3	3	3	3	3	3	1	3	7	5	0	0	0	0	5	4	0	0	0	0	0		1	0	0	0	0	0	0	0
010813	08:04:26	10027	Trial	ResponseCR	14	0	175	0	115	08:04:26	4355007	4	3	3	3	3	3	3	1	3	7	5	0	0	0	0	5	4	0	0	0	0	0		1	0	0	0	0	0	0	0
010813	08:04:26	10027	Trial	CongruentRight	14	205	150	1	115	08:04:26	4355207	4	3	3	3	3	3	3	1	3	7	5	0	0	0	0	5	4	0	0	0	0	0		1	0	0	0	0	0	0	0
010813	08:04:26	10027	Trial	ResponseCL	14	0	175	0	115	08:04:26	4356739	4	3	3	3	3	3	3	1	3	7	5	0	0	0	0	5	4	0	0	0	0	0		1	0	0	0	0	0	0	0
010813	08:04:26	10027	Trial	CongruentLeft	14	203	188	1	115	08:04:26	4356953	4	3	3	3	3	3	3	1	3	7	5	0	0	0	0	5	4	0	0	0	0	0		1	0	0	0	0	0	0	0
010813	08:04:26	10027	Trial	ResponseIR	14	0	175	0	115	08:04:26	4358445	4	3	3	3	3	3	3	1	3	7	5	0	0	0	0	5	4	0	0	0	0	0		1	0	0	0	0	0	0	0
010813	08:04:26	10027	Trial	IncongruentRight	14	203	290	0	115	08:04:26	4358752	4	3	3	3	3	3	3	1	3	7	5	0	0	0	0	5	4	0	0	0	0	0		1	0	0	0	0	0	0	0
010813	08:04:26	10027	Trial	ResponseCR	14	0	175	0	115	08:04:26	4360151	4	3	3	3	3	3	3	1	3	7	5	0	0	0	0	5	4	0	0	0	0	0		1	0	0	0	0	0	0	0
010813	08:04:26	10027	Trial	CongruentRight	14	205	280	1	115	08:04:26	4360458	4	3	3	3	3	3	3	1	3	7	5	0	0	0	0	5	4	0	0	0	0	0		1	0	0	0	0	0	0	0
010813	08:04:26	10027	Trial	ResponseIL	14	0	175	0	115	08:04:26	4361857	4	3	3	3	3	3	3	1	3	7	5	0	0	0	0	5	4	0	0	0	0	0		1	0	0	0	0	0	0	0
010813	08:04:26	10027	Trial	IncongruentLeft	14	205	286	0	115	08:04:26	4362164	4	3	3	3	3	3	3	1	3	7	5	0	0	0	0	5	4	0	0	0	0	0		1	0	0	0	0	0	0	0
010813	08:04:26	10027	Trial	ResponseCL	14	0	175	0	115	08:04:26	4363563	4	3	3	3	3	3	3	1	3	7	5	0	0	0	0	5	4	0	0	0	0	0		1	0	0	0	0	0	0	0
010813	08:04:26	10027	Trial	CongruentLeft	14	203	292	1	115	08:04:26	4363883	4	3	3	3	3	3	3	1	3	7	5	0	0	0	0	5	4	0	0	0	0	0		1	0	0	0	0	0	0	0
010813	08:04:26	10027	Trial	ResponseIL	14	0	175	0	115	08:04:26	4365269	4	3	3	3	3	3	3	1	3	7	5	0	0	0	0	5	4	0	0	0	0	0		1	0	0	0	0	0	0	0
010813	08:04:26	10027	Trial	IncongruentLeft	14	203	314	1	115	08:04:26	4365602	4	3	3	3	3	3	3	1	3	7	5	0	0	0	0	5	4	0	0	0	0	0		1	0	0	0	0	0	0	0
010813	08:04:26	10027	Trial	ResponseIR	14	0	175	0	115	08:04:26	4366975	4	3	3	3	3	3	3	1	3	7	5	0	0	0	0	5	4	0	0	0	0	0		1	0	0	0	0	0	0	0
010813	08:04:26	10027	Trial	IncongruentRight	14	205	351	1	115	08:04:26	4367348	4	3	3	3	3	3	3	1	3	7	5	0	0	0	0	5	4	0	0	0	0	0		1	0	0	0	0	0	0	0
010813	08:04:26	10027	Trial	ResponseCR	14	0	175	0	115	08:04:26	4368681	4	3	3	3	3	3	3	1	3	7	5	0	0	0	0	5	4	0	0	0	0	0		1	0	0	0	0	0	0	0
010813	08:04:26	10027	Trial	CongruentRight	14	205	294	1	115	08:04:26	4369001	4	3	3	3	3	3	3	1	3	7	5	0	0	0	0	5	4	0	0	0	0	0		1	0	0	0	0	0	0	0
010813	08:04:26	10027	Trial	ResponseCL	14	0	175	0	115	08:04:26	4370387	4	3	3	3	3	3	3	1	3	7	5	0	0	0	0	5	4	0	0	0	0	0		1	0	0	0	0	0	0	0
010813	08:04:26	10027	Trial	CongruentLeft	14	203	139	1	115	08:04:26	4370547	4	3	3	3	3	3	3	1	3	7	5	0	0	0	0	5	4	0	0	0	0	0		1	0	0	0	0	0	0	0
010813	08:04:26	10027	Trial	ResponseCL	14	0	175	0	115	08:04:26	4372093	4	3	3	3	3	3	3	1	3	7	5	0	0	0	0	5	4	0	0	0	0	0		1	0	0	0	0	0	0	0
010813	08:04:26	10027	Trial	CongruentLeft	14	203	258	1	115	08:04:26	4372373	4	3	3	3	3	3	3	1	3	7	5	0	0	0	0	5	4	0	0	0	0	0		1	0	0	0	0	0	0	0
010813	08:04:26	10027	Trial	ResponseIR	14	0	175	0	115	08:04:26	4373799	4	3	3	3	3	3	3	1	3	7	5	0	0	0	0	5	4	0	0	0	0	0		1	0	0	0	0	0	0	0
010813	08:04:26	10027	Trial	IncongruentRight	14	203	231	0	115	08:04:26	4374052	4	3	3	3	3	3	3	1	3	7	5	0	0	0	0	5	4	0	0	0	0	0		1	0	0	0	0	0	0	0
010813	08:04:26	10027	Trial	ResponseIL	14	0	175	0	115	08:04:26	4375505	4	3	3	3	3	3	3	1	3	7	5	0	0	0	0	5	4	0	0	0	0	0		1	0	0	0	0	0	0	0
010813	08:04:26	10027	Trial	IncongruentLeft	14	203	285	1	115	08:04:26	4375811	4	3	3	3	3	3	3	1	3	7	5	0	0	0	0	5	4	0	0	0	0	0		1	0	0	0	0	0	0	0
010813	08:04:26	10027	Trial	ResponseIR	14	0	175	0	115	08:04:26	4377211	4	3	3	3	3	3	3	1	3	7	5	0	0	0	0	5	4	0	0	0	0	0		1	0	0	0	0	0	0	0
010813	08:04:26	10027	Trial	IncongruentRight	14	205	355	1	115	08:04:26	4377584	4	3	3	3	3	3	3	1	3	7	5	0	0	0	0	5	4	0	0	0	0	0		1	0	0	0	0	0	0	0
010813	08:04:26	10027	Trial	ResponseCR	14	0	175	0	115	08:04:26	4378917	4	3	3	3	3	3	3	1	3	7	5	0	0	0	0	5	4	0	0	0	0	0		1	0	0	0	0	0	0	0
010813	08:04:26	10027	Trial	CongruentRight	14	205	217	1	115	08:04:26	4379157	4	3	3	3	3	3	3	1	3	7	5	0	0	0	0	5	4	0	0	0	0	0		1	0	0	0	0	0	0	0
010813	08:04:26	10027	Trial	ResponseCR	14	0	175	0	115	08:04:26	4380623	4	3	3	3	3	3	3	1	3	7	5	0	0	0	0	5	4	0	0	0	0	0		1	0	0	0	0	0	0	0
010813	08:04:26	10027	Trial	CongruentRight	14	205	256	1	115	08:04:26	4380902	4	3	3	3	3	3	3	1	3	7	5	0	0	0	0	5	4	0	0	0	0	0		1	0	0	0	0	0	0	0
010813	08:04:26	10027	Trial	ResponseIL	14	0	175	0	115	08:04:26	4382329	4	3	3	3	3	3	3	1	3	7	5	0	0	0	0	5	4	0	0	0	0	0		1	0	0	0	0	0	0	0
010813	08:04:26	10027	Trial	IncongruentLeft	14	203	278	1	115	08:04:26	4382635	4	3	3	3	3	3	3	1	3	7	5	0	0	0	0	5	4	0	0	0	0	0		1	0	0	0	0	0	0	0
010813	08:04:26	10027	Trial	ResponseCL	14	0	175	0	115	08:04:26	4384035	4	3	3	3	3	3	3	1	3	7	5	0	0	0	0	5	4	0	0	0	0	0		1	0	0	0	0	0	0	0
010813	08:04:26	10027	Trial	CongruentLeft	14	203	268	1	115	08:04:26	4384328	4	3	3	3	3	3	3	1	3	7	5	0	0	0	0	5	4	0	0	0	0	0		1	0	0	0	0	0	0	0
010813	08:04:26	10027	Trial	ResponseCR	14	0	175	0	115	08:04:26	4385741	4	3	3	3	3	3	3	1	3	7	5	0	0	0	0	5	4	0	0	0	0	0		1	0	0	0	0	0	0	0
010813	08:04:26	10027	Trial	CongruentRight	14	205	226	1	115	08:04:26	4385994	4	3	3	3	3	3	3	1	3	7	5	0	0	0	0	5	4	0	0	0	0	0		1	0	0	0	0	0	0	0
010813	08:04:26	10027	Trial	ResponseCL	14	0	175	0	115	08:04:26	4387446	4	3	3	3	3	3	3	1	3	7	5	0	0	0	0	5	4	0	0	0	0	0		1	0	0	0	0	0	0	0
010813	08:04:26	10027	Trial	CongruentLeft	14	203	216	1	115	08:04:26	4387686	4	3	3	3	3	3	3	1	3	7	5	0	0	0	0	5	4	0	0	0	0	0		1	0	0	0	0	0	0	0
010813	08:04:26	10027	Trial	ResponseIR	14	0	175	0	115	08:04:26	4389153	4	3	3	3	3	3	3	1	3	7	5	0	0	0	0	5	4	0	0	0	0	0		1	0	0	0	0	0	0	0
010813	08:04:26	10027	Trial	IncongruentRight	14	205	333	1	115	08:04:26	4389512	4	3	3	3	3	3	3	1	3	7	5	0	0	0	0	5	4	0	0	0	0	0		1	0	0	0	0	0	0	0
010813	08:04:26	10027	Trial	ResponseCR	14	0	175	0	115	08:04:26	4390859	4	3	3	3	3	3	3	1	3	7	5	0	0	0	0	5	4	0	0	0	0	0		1	0	0	0	0	0	0	0
010813	08:04:26	10027	Trial	CongruentRight	14	205	372	1	115	08:04:26	4391258	4	3	3	3	3	3	3	1	3	7	5	0	0	0	0	5	4	0	0	0	0	0		1	0	0	0	0	0	0	0
010813	08:04:26	10027	Trial	ResponseCL	14	0	175	0	115	08:04:26	4392565	4	3	3	3	3	3	3	1	3	7	5	0	0	0	0	5	4	0	0	0	0	0		1	0	0	0	0	0	0	0
010813	08:04:26	10027	Trial	CongruentLeft	14	203	217	1	115	08:04:26	4392804	4	3	3	3	3	3	3	1	3	7	5	0	0	0	0	5	4	0	0	0	0	0		1	0	0	0	0	0	0	0
010813	08:04:26	10027	Trial	ResponseIL	14	0	175	0	115	08:04:26	4394270	4	3	3	3	3	3	3	1	3	7	5	0	0	0	0	5	4	0	0	0	0	0		1	0	0	0	0	0	0	0
010813	08:04:26	10027	Trial	IncongruentLeft	14	203	368	1	115	08:04:26	4394657	4	3	3	3	3	3	3	1	3	7	5	0	0	0	0	5	4	0	0	0	0	0		1	0	0	0	0	0	0	0
010813	08:04:26	10027	Trial	ResponseIL	14	0	175	0	115	08:04:26	4395976	4	3	3	3	3	3	3	1	3	7	5	0	0	0	0	5	4	0	0	0	0	0		1	0	0	0	0	0	0	0
010813	08:04:26	10027	Trial	IncongruentLeft	14	203	341	1	115	08:04:26	4396336	4	3	3	3	3	3	3	1	3	7	5	0	0	0	0	5	4	0	0	0	0	0		1	0	0	0	0	0	0	0
010813	08:04:26	10027	Trial	ResponseCR	14	0	175	0	115	08:04:26	4397682	4	3	3	3	3	3	3	1	3	7	5	0	0	0	0	5	4	0	0	0	0	0		1	0	0	0	0	0	0	0
010813	08:04:26	10027	Trial	CongruentRight	14	205	206	1	115	08:04:26	4397922	4	3	3	3	3	3	3	1	3	7	5	0	0	0	0	5	4	0	0	0	0	0		1	0	0	0	0	0	0	0
010813	08:04:26	10027	Trial	ResponseIR	14	0	175	0	115	08:04:26	4399388	4	3	3	3	3	3	3	1	3	7	5	0	0	0	0	5	4	0	0	0	0	0		1	0	0	0	0	0	0	0
010813	08:04:26	10027	Trial	IncongruentRight	14	205	417	1	115	08:04:26	4399828	4	3	3	3	3	3	3	1	3	7	5	0	0	0	0	5	4	0	0	0	0	0		1	0	0	0	0	0	0	0
010813	08:04:26	10027	Trial	ResponseCL	14	0	175	0	115	08:04:26	4401094	4	3	3	3	3	3	3	1	3	7	5	0	0	0	0	5	4	0	0	0	0	0		1	0	0	0	0	0	0	0
010813	08:04:26	10027	Trial	CongruentLeft	14	203	232	1	115	08:04:26	4401348	4	3	3	3	3	3	3	1	3	7	5	0	0	0	0	5	4	0	0	0	0	0		1	0	0	0	0	0	0	0
010813	08:04:26	10027	Trial	ResponseIR	14	0	175	0	115	08:04:26	4402800	4	3	3	3	3	3	3	1	3	7	5	0	0	0	0	5	4	0	0	0	0	0		1	0	0	0	0	0	0	0
010813	08:04:26	10027	Trial	IncongruentRight	14	205	333	1	115	08:04:26	4403160	4	3	3	3	3	3	3	1	3	7	5	0	0	0	0	5	4	0	0	0	0	0		1	0	0	0	0	0	0	0
010813	08:04:26	10027	Trial	ResponseCR	14	0	175	0	115	08:04:26	4404506	4	3	3	3	3	3	3	1	3	7	5	0	0	0	0	5	4	0	0	0	0	0		1	0	0	0	0	0	0	0
010813	08:04:26	10027	Trial	CongruentRight	14	205	659	1	115	08:04:26	4405186	4	3	3	3	3	3	3	1	3	7	5	0	0	0	0	5	4	0	0	0	0	0		1	0	0	0	0	0	0	0
010813	08:04:26	10027	Trial	ResponseIL	14	0	175	0	115	08:04:26	4406212	4	3	3	3	3	3	3	1	3	7	5	0	0	0	0	5	4	0	0	0	0	0		1	0	0	0	0	0	0	0
010813	08:04:26	10027	Trial	IncongruentLeft	14	203	249	1	115	08:04:26	4406479	4	3	3	3	3	3	3	1	3	7	5	0	0	0	0	5	4	0	0	0	0	0		1	0	0	0	0	0	0	0
010813	08:04:26	10027	Trial	ResponseCL	14	0	175	0	115	08:04:26	4407918	4	3	3	3	3	3	3	1	3	7	5	0	0	0	0	5	4	0	0	0	0	0		1	0	0	0	0	0	0	0
010813	08:04:26	10027	Trial	CongruentLeft	14	203	223	1	115	08:04:26	4408158	4	3	3	3	3	3	3	1	3	7	5	0	0	0	0	5	4	0	0	0	0	0		1	0	0	0	0	0	0	0
010813	08:04:26	10027	Trial	ResponseCR	14	0	175	0	115	08:04:26	4409624	4	3	3	3	3	3	3	1	3	7	5	0	0	0	0	5	4	0	0	0	0	0		1	0	0	0	0	0	0	0
010813	08:04:26	10027	Trial	CongruentRight	14	205	213	1	115	08:04:26	4409864	4	3	3	3	3	3	3	1	3	7	5	0	0	0	0	5	4	0	0	0	0	0		1	0	0	0	0	0	0	0
010813	08:04:26	10027	Trial	ResponseIL	14	0	175	0	115	08:04:26	4411330	4	3	3	3	3	3	3	1	3	7	5	0	0	0	0	5	4	0	0	0	0	0		1	0	0	0	0	0	0	0
010813	08:04:26	10027	Trial	IncongruentLeft	14	203	331	1	115	08:04:26	4411690	4	3	3	3	3	3	3	1	3	7	5	0	0	0	0	5	4	0	0	0	0	0		1	0	0	0	0	0	0	0
010813	08:04:26	10027	Trial	ResponseCR	14	0	175	0	115	08:04:26	4413036	4	3	3	3	3	3	3	1	3	7	5	0	0	0	0	5	4	0	0	0	0	0		1	0	0	0	0	0	0	0
010813	08:04:26	10027	Trial	CongruentRight	14	205	241	1	115	08:04:26	4413303	4	3	3	3	3	3	3	1	3	7	5	0	0	0	0	5	4	0	0	0	0	0		1	0	0	0	0	0	0	0
010813	08:04:26	10027	Trial	ResponseCR	14	0	175	0	115	08:04:26	4414742	4	3	3	3	3	3	3	1	3	7	5	0	0	0	0	5	4	0	0	0	0	0		1	0	0	0	0	0	0	0
010813	08:04:26	10027	Trial	CongruentRight	14	205	263	1	115	08:04:26	4415022	4	3	3	3	3	3	3	1	3	7	5	0	0	0	0	5	4	0	0	0	0	0		1	0	0	0	0	0	0	0
010813	08:04:26	10027	Trial	ResponseIR	14	0	175	0	115	08:04:26	4416448	4	3	3	3	3	3	3	1	3	7	5	0	0	0	0	5	4	0	0	0	0	0		1	0	0	0	0	0	0	0
010813	08:04:26	10027	Trial	IncongruentRight	14	205	461	1	115	08:04:26	4416928	4	3	3	3	3	3	3	1	3	7	5	0	0	0	0	5	4	0	0	0	0	0		1	0	0	0	0	0	0	0
010813	08:04:26	10027	Trial	ResponseCL	14	0	175	0	115	08:04:26	4418154	4	3	3	3	3	3	3	1	3	7	5	0	0	0	0	5	4	0	0	0	0	0		1	0	0	0	0	0	0	0
010813	08:04:26	10027	Trial	CongruentLeft	14	203	307	1	115	08:04:26	4418487	4	3	3	3	3	3	3	1	3	7	5	0	0	0	0	5	4	0	0	0	0	0		1	0	0	0	0	0	0	0
010813	08:04:26	10027	Trial	ResponseIL	14	0	175	0	115	08:04:26	4419860	4	3	3	3	3	3	3	1	3	7	5	0	0	0	0	5	4	0	0	0	0	0		1	0	0	0	0	0	0	0
010813	08:04:26	10027	Trial	IncongruentLeft	14	203	361	1	115	08:04:26	4420246	4	3	3	3	3	3	3	1	3	7	5	0	0	0	0	5	4	0	0	0	0	0		1	0	0	0	0	0	0	0
010813	08:04:26	10027	Trial	ResponseCL	14	0	175	0	115	08:04:26	4421566	4	3	3	3	3	3	3	1	3	7	5	0	0	0	0	5	4	0	0	0	0	0		1	0	0	0	0	0	0	0
010813	08:04:26	10027	Trial	CongruentLeft	14	203	255	1	115	08:04:26	4421846	4	3	3	3	3	3	3	1	3	7	5	0	0	0	0	5	4	0	0	0	0	0		1	0	0	0	0	0	0	0
010813	08:04:26	10027	Trial	ResponseIR	14	0	175	0	115	08:04:26	4423272	4	3	3	3	3	3	3	1	3	7	5	0	0	0	0	5	4	0	0	0	0	0		1	0	0	0	0	0	0	0
010813	08:04:26	10027	Trial	IncongruentRight	14	205	373	1	115	08:04:26	4423672	4	3	3	3	3	3	3	1	3	7	5	0	0	0	0	5	4	0	0	0	0	0		1	0	0	0	0	0	0	0
010813	08:04:26	10027	Trial	ResponseIL	14	0	175	0	115	08:04:26	4424978	4	3	3	3	3	3	3	1	3	7	5	0	0	0	0	5	4	0	0	0	0	0		1	0	0	0	0	0	0	0
010813	08:04:26	10027	Trial	IncongruentLeft	14	203	443	1	115	08:04:26	4425444	4	3	3	3	3	3	3	1	3	7	5	0	0	0	0	5	4	0	0	0	0	0		1	0	0	0	0	0	0	0
010813	08:04:26	10027	Trial	ResponseCR	14	0	175	0	115	08:04:26	4426684	4	3	3	3	3	3	3	1	3	7	5	0	0	0	0	5	4	0	0	0	0	0		1	0	0	0	0	0	0	0
010813	08:04:26	10027	Trial	CongruentRight	14	205	177	1	115	08:04:26	4426884	4	3	3	3	3	3	3	1	3	7	5	0	0	0	0	5	4	0	0	0	0	0		1	0	0	0	0	0	0	0
010813	08:04:26	10027	Trial	ResponseCL	14	0	175	0	115	08:04:26	4428390	4	3	3	3	3	3	3	1	3	7	5	0	0	0	0	5	4	0	0	0	0	0		1	0	0	0	0	0	0	0
010813	08:04:26	10027	Trial	CongruentLeft	14	203	215	1	115	08:04:26	4428629	4	3	3	3	3	3	3	1	3	7	5	0	0	0	0	5	4	0	0	0	0	0		1	0	0	0	0	0	0	0
010813	08:04:26	10027	Trial	ResponseIL	14	0	175	0	115	08:04:26	4430096	4	3	3	3	3	3	3	1	3	7	5	0	0	0	0	5	4	0	0	0	0	0		1	0	0	0	0	0	0	0
010813	08:04:26	10027	Trial	IncongruentLeft	14	203	381	1	115	08:04:26	4430495	4	3	3	3	3	3	3	1	3	7	5	0	0	0	0	5	4	0	0	0	0	0		1	0	0	0	0	0	0	0
010813	08:04:26	10027	Trial	ResponseCL	14	0	175	0	115	08:04:26	4431802	4	3	3	3	3	3	3	1	3	7	5	0	0	0	0	5	4	0	0	0	0	0		1	0	0	0	0	0	0	0
010813	08:04:26	10027	Trial	CongruentLeft	14	203	307	1	115	08:04:26	4432135	4	3	3	3	3	3	3	1	3	7	5	0	0	0	0	5	4	0	0	0	0	0		1	0	0	0	0	0	0	0
010813	08:04:26	10027	Trial	ResponseIR	14	0	175	0	115	08:04:26	4433508	4	3	3	3	3	3	3	1	3	7	5	0	0	0	0	5	4	0	0	0	0	0		1	0	0	0	0	0	0	0
010813	08:04:26	10027	Trial	IncongruentRight	14	205	392	1	115	08:04:26	4433921	4	3	3	3	3	3	3	1	3	7	5	0	0	0	0	5	4	0	0	0	0	0		1	0	0	0	0	0	0	0
010813	08:04:26	10027	Trial	ResponseCR	14	0	175	0	115	08:04:26	4435214	4	3	3	3	3	3	3	1	3	7	5	0	0	0	0	5	4	0	0	0	0	0		1	0	0	0	0	0	0	0
010813	08:04:26	10027	Trial	CongruentRight	14	205	239	1	115	08:04:26	4435480	4	3	3	3	3	3	3	1	3	7	5	0	0	0	0	5	4	0	0	0	0	0		1	0	0	0	0	0	0	0
010813	08:04:26	10027	Trial	ResponseIL	14	0	175	0	115	08:04:26	4436920	4	3	3	3	3	3	3	1	3	7	5	0	0	0	0	5	4	0	0	0	0	0		1	0	0	0	0	0	0	0
010813	08:04:26	10027	Trial	IncongruentLeft	14	203	261	1	115	08:04:26	4437199	4	3	3	3	3	3	3	1	3	7	5	0	0	0	0	5	4	0	0	0	0	0		1	0	0	0	0	0	0	0
010813	08:04:26	10027	Trial	ResponseCL	14	0	175	0	115	08:04:26	4438625	4	3	3	3	3	3	3	1	3	7	5	0	0	0	0	5	4	0	0	0	0	0		1	0	0	0	0	0	0	0
010813	08:04:26	10027	Trial	CongruentLeft	14	203	251	1	115	08:04:26	4438905	4	3	3	3	3	3	3	1	3	7	5	0	0	0	0	5	4	0	0	0	0	0		1	0	0	0	0	0	0	0
010813	08:04:26	10027	Trial	ResponseIR	14	0	175	0	115	08:04:26	4440331	4	3	3	3	3	3	3	1	3	7	5	0	0	0	0	5	4	0	0	0	0	0		1	0	0	0	0	0	0	0
010813	08:04:26	10027	Trial	IncongruentRight	14	205	353	1	115	08:04:26	4440704	4	3	3	3	3	3	3	1	3	7	5	0	0	0	0	5	4	0	0	0	0	0		1	0	0	0	0	0	0	0
010813	08:04:26	10027	Trial	ResponseIL	14	0	175	0	115	08:04:26	4442037	4	3	3	3	3	3	3	1	3	7	5	0	0	0	0	5	4	0	0	0	0	0		1	0	0	0	0	0	0	0
010813	08:04:26	10027	Trial	IncongruentLeft	14	203	167	1	115	08:04:26	4442224	4	3	3	3	3	3	3	1	3	7	5	0	0	0	0	5	4	0	0	0	0	0		1	0	0	0	0	0	0	0
010813	08:04:26	10027	Trial	ResponseCL	14	0	175	0	115	08:04:26	4443743	4	3	3	3	3	3	3	1	3	7	5	0	0	0	0	5	4	0	0	0	0	0		1	0	0	0	0	0	0	0
010813	08:04:26	10027	Trial	CongruentLeft	14	203	269	1	115	08:04:26	4444036	4	3	3	3	3	3	3	1	3	7	5	0	0	0	0	5	4	0	0	0	0	0		1	0	0	0	0	0	0	0
010813	08:04:26	10027	Trial	ResponseIL	14	0	175	0	115	08:04:26	4445449	4	3	3	3	3	3	3	1	3	7	5	0	0	0	0	5	4	0	0	0	0	0		1	0	0	0	0	0	0	0
010813	08:04:26	10027	Trial	IncongruentLeft	14	205	227	0	115	08:04:26	4445703	4	3	3	3	3	3	3	1	3	7	5	0	0	0	0	5	4	0	0	0	0	0		1	0	0	0	0	0	0	0
010813	08:04:26	10027	Trial	ResponseCR	14	0	175	0	115	08:04:26	4447155	4	3	3	3	3	3	3	1	3	7	5	0	0	0	0	5	4	0	0	0	0	0		1	0	0	0	0	0	0	0
010813	08:04:26	10027	Trial	CongruentRight	14	205	201	1	115	08:04:26	4447382	4	3	3	3	3	3	3	1	3	7	5	0	0	0	0	5	4	0	0	0	0	0		1	0	0	0	0	0	0	0
010813	08:04:26	10027	Trial	ResponseCL	14	0	175	0	115	08:04:26	4448861	4	3	3	3	3	3	3	1	3	7	5	0	0	0	0	5	4	0	0	0	0	0		1	0	0	0	0	0	0	0
010813	08:04:26	10027	Trial	CongruentLeft	14	203	239	1	115	08:04:26	4449128	4	3	3	3	3	3	3	1	3	7	5	0	0	0	0	5	4	0	0	0	0	0		1	0	0	0	0	0	0	0
010813	08:04:26	10027	Trial	ResponseIR	14	0	175	0	115	08:04:26	4450567	4	3	3	3	3	3	3	1	3	7	5	0	0	0	0	5	4	0	0	0	0	0		1	0	0	0	0	0	0	0
010813	08:04:26	10027	Trial	IncongruentRight	14	205	325	1	115	08:04:26	4450914	4	3	3	3	3	3	3	1	3	7	5	0	0	0	0	5	4	0	0	0	0	0		1	0	0	0	0	0	0	0
010813	08:04:26	10027	Trial	ResponseCL	14	0	175	0	115	08:04:26	4452273	4	3	3	3	3	3	3	1	3	7	5	0	0	0	0	5	4	0	0	0	0	0		1	0	0	0	0	0	0	0
010813	08:04:26	10027	Trial	CongruentLeft	14	203	171	1	115	08:04:26	4452473	4	3	3	3	3	3	3	1	3	7	5	0	0	0	0	5	4	0	0	0	0	0		1	0	0	0	0	0	0	0
010813	08:04:26	10027	Trial	ResponseCR	14	0	175	0	115	08:04:26	4453979	4	3	3	3	3	3	3	1	3	7	5	0	0	0	0	5	4	0	0	0	0	0		1	0	0	0	0	0	0	0
010813	08:04:26	10027	Trial	CongruentRight	14	205	241	1	115	08:04:26	4454246	4	3	3	3	3	3	3	1	3	7	5	0	0	0	0	5	4	0	0	0	0	0		1	0	0	0	0	0	0	0
010813	08:04:26	10027	Trial	ResponseIL	14	0	175	0	115	08:04:26	4455685	4	3	3	3	3	3	3	1	3	7	5	0	0	0	0	5	4	0	0	0	0	0		1	0	0	0	0	0	0	0
010813	08:04:26	10027	Trial	IncongruentLeft	14	203	183	1	115	08:04:26	4455885	4	3	3	3	3	3	3	1	3	7	5	0	0	0	0	5	4	0	0	0	0	0		1	0	0	0	0	0	0	0
010813	08:04:26	10027	WordsAbsEng6mo	PAbsEng6mo1	16	Abs1	3008	0	115	08:04:26	4468666	4	3	3	3	3	3	3	1	3	7	5	0	0	0	0	5	4	0	0	0	0	0		1	0	0	0	0	0	0	0
010813	08:04:26	10027	WordsAbsEng6mo	AbsEng6mo1	16	Abs1	2705	0	115	08:04:26	4471412	4	3	3	3	3	3	3	1	3	7	5	1	0	0	0	5	4	0	0	0	0	0		1	0	0	0	0	0	0	0
010813	08:04:26	10027	WordsAbsEng6mo	AbsEng6mo2	16	Abs2	54694	0	115	08:04:26	4526136	4	3	3	3	3	3	3	1	3	7	5	1	0	0	0	5	4	0	0	0	0	0		1	0	0	0	0	0	0	0
010813	08:04:26	10027	WordsAbsEng6mo	AbsEng6mo3	16	Abs1	10250	0	115	08:04:26	4536425	4	3	3	3	3	3	3	1	3	7	5	2	0	0	0	5	4	0	0	0	0	0		1	0	0	0	0	0	0	0
010813	08:04:26	10027	Trial2BackEngS	NS	17	0	1000	1	115	08:04:26	4648871	4	3	3	3	3	3	3	1	3	7	5	2	0	0	0	5	4	0	0	0	0	0		1	0	0	0	0	0	0	0
010813	08:04:26	10027	Trial2BackEngS	NS	17	0	1000	1	115	08:04:26	4650378	4	3	3	3	3	3	3	1	3	7	5	2	0	0	0	5	4	0	0	0	0	0		1	0	0	0	0	0	0	0
010813	08:04:26	10027	Trial2BackEngS	NS	17	0	1000	1	115	08:04:26	4651884	4	3	3	3	3	3	3	1	3	7	5	2	0	0	0	5	4	0	0	0	0	0		1	0	0	0	0	0	0	0
010813	08:04:26	10027	Trial2BackEngS	YS	17	57	462	1	115	08:04:26	4652856	4	3	3	3	3	3	3	1	3	7	5	2	0	0	0	5	4	0	0	0	0	0		1	0	0	0	0	0	0	0
010813	08:04:26	10027	Trial2BackEngS	NS	17	0	1000	1	115	08:04:26	4654896	4	3	3	3	3	3	3	1	3	7	5	2	0	0	0	5	4	0	0	0	0	0		1	0	0	0	0	0	0	0
010813	08:04:26	10027	Trial2BackEngS	NS	17	0	1000	1	115	08:04:26	4656402	4	3	3	3	3	3	3	1	3	7	5	2	0	0	0	5	4	0	0	0	0	0		1	0	0	0	0	0	0	0
010813	08:04:26	10027	Trial2BackEngS	NS	17	0	1000	1	115	08:04:26	4657908	4	3	3	3	3	3	3	1	3	7	5	2	0	0	0	5	4	0	0	0	0	0		1	0	0	0	0	0	0	0
010813	08:04:26	10027	Trial2BackEngS	NS	17	0	1000	1	115	08:04:26	4659414	4	3	3	3	3	3	3	1	3	7	5	2	0	0	0	5	4	0	0	0	0	0		1	0	0	0	0	0	0	0
010813	08:04:26	10027	Trial2BackEngS	YS	17	57	979	1	115	08:04:26	4660906	4	3	3	3	3	3	3	1	3	7	5	2	0	0	0	5	4	0	0	0	0	0		1	0	0	0	0	0	0	0
010813	08:04:26	10027	Trial2BackEngS	NS	17	0	1000	1	115	08:04:26	4662426	4	3	3	3	3	3	3	1	3	7	5	2	0	0	0	5	4	0	0	0	0	0		1	0	0	0	0	0	0	0
010813	08:04:26	10027	Trial2BackEngS	NS	17	0	1000	1	115	08:04:26	4663932	4	3	3	3	3	3	3	1	3	7	5	2	0	0	0	5	4	0	0	0	0	0		1	0	0	0	0	0	0	0
010813	08:04:26	10027	Trial2BackEngS	YS	17	0	1000	0	115	08:04:26	4665438	4	3	3	3	3	3	3	1	3	7	5	2	0	0	0	5	4	0	0	0	0	0		1	0	0	0	0	0	0	0
010813	08:04:26	10027	Trial2BackEngS	NS	17	0	1000	1	115	08:04:26	4666944	4	3	3	3	3	3	3	1	3	7	5	2	0	0	0	5	4	0	0	0	0	0		1	0	0	0	0	0	0	0
010813	08:04:26	10027	Trial2BackEngS	NS	17	0	1000	1	115	08:04:26	4668450	4	3	3	3	3	3	3	1	3	7	5	2	0	0	0	5	4	0	0	0	0	0		1	0	0	0	0	0	0	0
010813	08:04:26	10027	Trial2BackEngS	NS	17	0	1000	1	115	08:04:26	4669969	4	3	3	3	3	3	3	1	3	7	5	2	0	0	0	5	4	0	0	0	0	0		1	0	0	0	0	0	0	0
010813	08:04:26	10027	Trial2BackEngS	YS	17	57	584	1	115	08:04:26	4671062	4	3	3	3	3	3	3	1	3	7	5	2	0	0	0	5	4	0	0	0	0	0		1	0	0	0	0	0	0	0
010813	08:04:26	10027	Trial2BackEngS	NS	17	0	1000	1	115	08:04:26	4672981	4	3	3	3	3	3	3	1	3	7	5	2	0	0	0	5	4	0	0	0	0	0		1	0	0	0	0	0	0	0
010813	08:04:26	10027	Trial2BackEngS	NS	17	0	1000	1	115	08:04:26	4674501	4	3	3	3	3	3	3	1	3	7	5	2	0	0	0	5	4	0	0	0	0	0		1	0	0	0	0	0	0	0
010813	08:04:26	10027	Trial2BackEngS	NS	17	0	1000	1	115	08:04:26	4676007	4	3	3	3	3	3	3	1	3	7	5	2	0	0	0	5	4	0	0	0	0	0		1	0	0	0	0	0	0	0
010813	08:04:26	10027	Trial2BackEngS	NS	17	0	1000	1	115	08:04:26	4677513	4	3	3	3	3	3	3	1	3	7	5	2	0	0	0	5	4	0	0	0	0	0		1	0	0	0	0	0	0	0
010813	08:04:26	10027	Trial2BackEngS	YS	17	57	496	1	115	08:04:26	4678526	4	3	3	3	3	3	3	1	3	7	5	2	0	0	0	5	4	0	0	0	0	0		1	0	0	0	0	0	0	0
010813	08:04:26	10027	Trial2BackEngS	NS	17	0	1000	1	115	08:04:26	4680525	4	3	3	3	3	3	3	1	3	7	5	2	0	0	0	5	4	0	0	0	0	0		1	0	0	0	0	0	0	0
010813	08:04:26	10027	Trial2BackEngS	NS	17	0	1000	1	115	08:04:26	4682031	4	3	3	3	3	3	3	1	3	7	5	2	0	0	0	5	4	0	0	0	0	0		1	0	0	0	0	0	0	0
010813	08:04:26	10027	Trial2BackEngS	NS	17	0	1000	1	115	08:04:26	4683537	4	3	3	3	3	3	3	1	3	7	5	2	0	0	0	5	4	0	0	0	0	0		1	0	0	0	0	0	0	0
010813	08:04:26	10027	Trial2BackEngS	NS	17	57	935	0	115	08:04:26	4684990	4	3	3	3	3	3	3	1	3	7	5	2	0	0	0	5	4	0	0	0	0	0		1	0	0	0	0	0	0	0
010813	08:04:26	10027	Trial2BackEngS	NS	17	0	1000	1	115	08:04:26	4686549	4	3	3	3	3	3	3	1	3	7	5	2	0	0	0	5	4	0	0	0	0	0		1	0	0	0	0	0	0	0
010813	08:04:26	10027	Trial2BackEngS	NS	17	0	1000	1	115	08:04:26	4688069	4	3	3	3	3	3	3	1	3	7	5	2	0	0	0	5	4	0	0	0	0	0		1	0	0	0	0	0	0	0
010813	08:04:26	10027	Trial2BackEngS	NS	17	0	1000	1	115	08:04:26	4689575	4	3	3	3	3	3	3	1	3	7	5	2	0	0	0	5	4	0	0	0	0	0		1	0	0	0	0	0	0	0
010813	08:04:26	10027	Trial2BackEngS	NS	17	0	1000	1	115	08:04:26	4691081	4	3	3	3	3	3	3	1	3	7	5	2	0	0	0	5	4	0	0	0	0	0		1	0	0	0	0	0	0	0
010813	08:04:26	10027	Trial2BackEngS	NS	17	0	1000	1	115	08:04:26	4692587	4	3	3	3	3	3	3	1	3	7	5	2	0	0	0	5	4	0	0	0	0	0		1	0	0	0	0	0	0	0
010813	08:04:26	10027	Trial2BackEngS	NS	17	0	1000	1	115	08:04:26	4694093	4	3	3	3	3	3	3	1	3	7	5	2	0	0	0	5	4	0	0	0	0	0		1	0	0	0	0	0	0	0
010813	08:04:26	10027	Trial2BackEngS	YS	17	57	523	1	115	08:04:26	4695132	4	3	3	3	3	3	3	1	3	7	5	2	0	0	0	5	4	0	0	0	0	0		1	0	0	0	0	0	0	0
010813	08:04:26	10027	Trial2BackEngS	NS	17	0	1000	1	115	08:04:26	4697105	4	3	3	3	3	3	3	1	3	7	5	2	0	0	0	5	4	0	0	0	0	0		1	0	0	0	0	0	0	0
010813	08:04:26	10027	Trial2BackEngS	NS	17	0	1000	1	115	08:04:26	4698624	4	3	3	3	3	3	3	1	3	7	5	2	0	0	0	5	4	0	0	0	0	0		1	0	0	0	0	0	0	0
010813	08:04:26	10027	Trial2BackEngS	NS	17	0	1000	1	115	08:04:26	4700144	4	3	3	3	3	3	3	1	3	7	5	2	0	0	0	5	4	0	0	0	0	0		1	0	0	0	0	0	0	0
010813	08:04:26	10027	Trial2BackEngS	YS	17	0	1000	0	115	08:04:26	4701650	4	3	3	3	3	3	3	1	3	7	5	2	0	0	0	5	4	0	0	0	0	0		1	0	0	0	0	0	0	0
010813	08:04:26	10027	Trial2BackEngS	NS	17	57	150	0	115	08:04:26	4702316	4	3	3	3	3	3	3	1	3	7	5	2	0	0	0	5	4	0	0	0	0	0		1	0	0	0	0	0	0	0
010813	08:04:26	10027	Trial2BackEngS	NS	17	0	1000	1	115	08:04:26	4704662	4	3	3	3	3	3	3	1	3	7	5	2	0	0	0	5	4	0	0	0	0	0		1	0	0	0	0	0	0	0
010813	08:04:26	10027	Trial2BackEngS	NS	17	0	1000	1	115	08:04:26	4706168	4	3	3	3	3	3	3	1	3	7	5	2	0	0	0	5	4	0	0	0	0	0		1	0	0	0	0	0	0	0
010813	08:04:26	10027	Trial2BackEngS	NS	17	0	1000	1	115	08:04:26	4707674	4	3	3	3	3	3	3	1	3	7	5	2	0	0	0	5	4	0	0	0	0	0		1	0	0	0	0	0	0	0
010813	08:04:26	10027	Trial2BackEngS	NS	17	0	1000	1	115	08:04:26	4709180	4	3	3	3	3	3	3	1	3	7	5	2	0	0	0	5	4	0	0	0	0	0		1	0	0	0	0	0	0	0
010813	08:04:26	10027	Trial2BackEngS	NS	17	0	1000	1	115	08:04:26	4710686	4	3	3	3	3	3	3	1	3	7	5	2	0	0	0	5	4	0	0	0	0	0		1	0	0	0	0	0	0	0
010813	08:04:26	10027	Trial2BackEngS	NS	17	0	1000	1	115	08:04:26	4712192	4	3	3	3	3	3	3	1	3	7	5	2	0	0	0	5	4	0	0	0	0	0		1	0	0	0	0	0	0	0
010813	08:04:26	10027	Trial2BackEngS	YS	17	57	968	1	115	08:04:26	4713671	4	3	3	3	3	3	3	1	3	7	5	2	0	0	0	5	4	0	0	0	0	0		1	0	0	0	0	0	0	0
010813	08:04:26	10027	Trial2BackEngS	NS	17	0	1000	1	115	08:04:26	4715204	4	3	3	3	3	3	3	1	3	7	5	2	0	0	0	5	4	0	0	0	0	0		1	0	0	0	0	0	0	0
010813	08:04:26	10027	Trial2BackEngS	NS	17	0	1000	1	115	08:04:26	4716710	4	3	3	3	3	3	3	1	3	7	5	2	0	0	0	5	4	0	0	0	0	0		1	0	0	0	0	0	0	0
010813	08:04:26	10027	Trial2BackEngS	NS	17	0	1000	1	115	08:04:26	4718216	4	3	3	3	3	3	3	1	3	7	5	2	0	0	0	5	4	0	0	0	0	0		1	0	0	0	0	0	0	0
010813	08:04:26	10027	Trial2BackEngS	NS	17	0	1000	1	115	08:04:26	4719722	4	3	3	3	3	3	3	1	3	7	5	2	0	0	0	5	4	0	0	0	0	0		1	0	0	0	0	0	0	0
010813	08:04:26	10027	Trial2BackEngS	YS	17	57	413	1	115	08:04:26	4720655	4	3	3	3	3	3	3	1	3	7	5	2	0	0	0	5	4	0	0	0	0	0		1	0	0	0	0	0	0	0
010813	08:04:26	10027	Trial2BackEngS	NS	17	0	1000	1	115	08:04:26	4722734	4	3	3	3	3	3	3	1	3	7	5	2	0	0	0	5	4	0	0	0	0	0		1	0	0	0	0	0	0	0
010813	08:04:26	10027	Trial2BackEngS	NS	17	0	1000	1	115	08:04:26	4724240	4	3	3	3	3	3	3	1	3	7	5	2	0	0	0	5	4	0	0	0	0	0		1	0	0	0	0	0	0	0
010813	08:04:26	10027	Trial2BackEngS	NS	17	0	1000	1	115	08:04:26	4725746	4	3	3	3	3	3	3	1	3	7	5	2	0	0	0	5	4	0	0	0	0	0		1	0	0	0	0	0	0	0
010813	08:04:26	10027	Trial2BackEngS	NS	17	0	1000	1	115	08:04:26	4727253	4	3	3	3	3	3	3	1	3	7	5	2	0	0	0	5	4	0	0	0	0	0		1	0	0	0	0	0	0	0
010813	08:04:26	10027	Trial2BackEngS	NS	17	0	1000	1	115	08:04:26	4728758	4	3	3	3	3	3	3	1	3	7	5	2	0	0	0	5	4	0	0	0	0	0		1	0	0	0	0	0	0	0
010813	08:04:26	10027	Trial2BackEngS	NS	17	0	1000	1	115	08:04:26	4730278	4	3	3	3	3	3	3	1	3	7	5	2	0	0	0	5	4	0	0	0	0	0		1	0	0	0	0	0	0	0
010813	08:04:26	10027	Trial2BackEngS	YS	17	57	929	1	115	08:04:26	4731717	4	3	3	3	3	3	3	1	3	7	5	2	0	0	0	5	4	0	0	0	0	0		1	0	0	0	0	0	0	0
010813	08:04:26	10027	Trial2BackEngS	NS	17	0	1000	1	115	08:04:26	4733290	4	3	3	3	3	3	3	1	3	7	5	2	0	0	0	5	4	0	0	0	0	0		1	0	0	0	0	0	0	0
010813	08:04:26	10027	Trial2BackEngS	NS	17	0	1000	1	115	08:04:26	4734796	4	3	3	3	3	3	3	1	3	7	5	2	0	0	0	5	4	0	0	0	0	0		1	0	0	0	0	0	0	0
010813	08:04:26	10027	Trial2BackEngS	NS	17	0	1000	1	115	08:04:26	4736302	4	3	3	3	3	3	3	1	3	7	5	2	0	0	0	5	4	0	0	0	0	0		1	0	0	0	0	0	0	0
010813	08:04:26	10027	Trial2BackEngS	NS	17	0	1000	1	115	08:04:26	4737808	4	3	3	3	3	3	3	1	3	7	5	2	0	0	0	5	4	0	0	0	0	0		1	0	0	0	0	0	0	0
010813	08:04:26	10027	Trial2BackEngS	NS	17	0	1000	1	115	08:04:26	4739314	4	3	3	3	3	3	3	1	3	7	5	2	0	0	0	5	4	0	0	0	0	0		1	0	0	0	0	0	0	0
010813	08:04:26	10027	Trial2BackEngS	NS	17	0	1000	1	115	08:04:26	4740820	4	3	3	3	3	3	3	1	3	7	5	2	0	0	0	5	4	0	0	0	0	0		1	0	0	0	0	0	0	0
010813	08:04:26	10027	Trial2BackEngS	NS	17	0	1000	1	115	08:04:26	4742326	4	3	3	3	3	3	3	1	3	7	5	2	0	0	0	5	4	0	0	0	0	0		1	0	0	0	0	0	0	0
010813	08:04:26	10027	Trial2BackEngS	YS	17	57	608	1	115	08:04:26	4743446	4	3	3	3	3	3	3	1	3	7	5	2	0	0	0	5	4	0	0	0	0	0		1	0	0	0	0	0	0	0
010813	08:04:26	10027	Trial2BackEngS	NS	17	0	1000	1	115	08:04:26	4745338	4	3	3	3	3	3	3	1	3	7	5	2	0	0	0	5	4	0	0	0	0	0		1	0	0	0	0	0	0	0
010813	08:04:26	10027	Trial2BackEngS	NS	17	0	1000	1	115	08:04:26	4746844	4	3	3	3	3	3	3	1	3	7	5	2	0	0	0	5	4	0	0	0	0	0		1	0	0	0	0	0	0	0
010813	08:04:26	10027	Trial2BackEngS	NS	17	0	1000	1	115	08:04:26	4748350	4	3	3	3	3	3	3	1	3	7	5	2	0	0	0	5	4	0	0	0	0	0		1	0	0	0	0	0	0	0
010813	08:04:26	10027	Trial2BackEngS	NS	17	0	1000	1	115	08:04:26	4749856	4	3	3	3	3	3	3	1	3	7	5	2	0	0	0	5	4	0	0	0	0	0		1	0	0	0	0	0	0	0
010813	08:04:26	10027	Trial2BackEngS	YS	17	0	1000	0	115	08:04:26	4751376	4	3	3	3	3	3	3	1	3	7	5	2	0	0	0	5	4	0	0	0	0	0		1	0	0	0	0	0	0	0
010813	08:04:26	10027	Trial2BackEngS	NS	17	0	1000	1	115	08:04:26	4752882	4	3	3	3	3	3	3	1	3	7	5	2	0	0	0	5	4	0	0	0	0	0		1	0	0	0	0	0	0	0
010813	08:04:26	10027	Trial2BackEngS	NS	17	0	1000	1	115	08:04:26	4754388	4	3	3	3	3	3	3	1	3	7	5	2	0	0	0	5	4	0	0	0	0	0		1	0	0	0	0	0	0	0
010813	08:04:26	10027	Trial2BackEngS	YS	17	57	354	1	115	08:04:26	4755254	4	3	3	3	3	3	3	1	3	7	5	2	0	0	0	5	4	0	0	0	0	0		1	0	0	0	0	0	0	0
010813	08:04:26	10027	Trial2BackEngS	NS	17	0	1000	1	115	08:04:26	4757400	4	3	3	3	3	3	3	1	3	7	5	2	0	0	0	5	4	0	0	0	0	0		1	0	0	0	0	0	0	0
010813	08:04:26	10027	Trial2BackEngS	NS	17	0	1000	1	115	08:04:26	4758906	4	3	3	3	3	3	3	1	3	7	5	2	0	0	0	5	4	0	0	0	0	0		1	0	0	0	0	0	0	0
010813	08:04:26	10027	Trial2BackEngS	NS	17	0	1000	1	115	08:04:26	4760412	4	3	3	3	3	3	3	1	3	7	5	2	0	0	0	5	4	0	0	0	0	0		1	0	0	0	0	0	0	0
010813	08:04:26	10027	Trial2BackEngS	NS	17	0	1000	1	115	08:04:26	4761918	4	3	3	3	3	3	3	1	3	7	5	2	0	0	0	5	4	0	0	0	0	0		1	0	0	0	0	0	0	0
010813	08:04:26	10027	Trial2BackEngS	NS	17	0	1000	1	115	08:04:26	4763437	4	3	3	3	3	3	3	1	3	7	5	2	0	0	0	5	4	0	0	0	0	0		1	0	0	0	0	0	0	0
010813	08:04:26	10027	Trial2BackEngS	NS	17	57	616	0	115	08:04:26	4764570	4	3	3	3	3	3	3	1	3	7	5	2	0	0	0	5	4	0	0	0	0	0		1	0	0	0	0	0	0	0
010813	08:04:26	10027	Trial2BackEngS	YS	17	0	1000	0	115	08:04:26	4766449	4	3	3	3	3	3	3	1	3	7	5	2	0	0	0	5	4	0	0	0	0	0		1	0	0	0	0	0	0	0
010813	08:04:26	10027	Trial2BackEngS	NS	17	0	1000	1	115	08:04:26	4767969	4	3	3	3	3	3	3	1	3	7	5	2	0	0	0	5	4	0	0	0	0	0		1	0	0	0	0	0	0	0
010813	08:04:26	10027	Trial2BackEngS	NS	17	0	1000	1	115	08:04:26	4769488	4	3	3	3	3	3	3	1	3	7	5	2	0	0	0	5	4	0	0	0	0	0		1	0	0	0	0	0	0	0
010813	08:04:26	10027	Trial2BackEngS	NS	17	0	1000	1	115	08:04:26	4770994	4	3	3	3	3	3	3	1	3	7	5	2	0	0	0	5	4	0	0	0	0	0		1	0	0	0	0	0	0	0
010813	08:04:26	10027	Trial2BackEngS	NS	17	57	675	0	115	08:04:26	4772180	4	3	3	3	3	3	3	1	3	7	5	2	0	0	0	5	4	0	0	0	0	0		1	0	0	0	0	0	0	0
010813	08:04:26	10027	Trial2BackEngS	YS	17	0	1000	0	115	08:04:26	4774006	4	3	3	3	3	3	3	1	3	7	5	2	0	0	0	5	4	0	0	0	0	0		1	0	0	0	0	0	0	0
010813	08:04:26	10027	Trial2BackEngS	NS	17	0	1000	1	115	08:04:26	4775512	4	3	3	3	3	3	3	1	3	7	5	2	0	0	0	5	4	0	0	0	0	0		1	0	0	0	0	0	0	0
010813	08:04:26	10027	Trial2BackEngS	NS	17	0	1000	1	115	08:04:26	4777032	4	3	3	3	3	3	3	1	3	7	5	2	0	0	0	5	4	0	0	0	0	0		1	0	0	0	0	0	0	0
010813	08:04:26	10027	Trial2BackEngS	NS	17	0	1000	1	115	08:04:26	4778538	4	3	3	3	3	3	3	1	3	7	5	2	0	0	0	5	4	0	0	0	0	0		1	0	0	0	0	0	0	0
010813	08:04:26	10027	Trial2BackEngS	NS	17	0	1000	1	115	08:04:26	4780044	4	3	3	3	3	3	3	1	3	7	5	2	0	0	0	5	4	0	0	0	0	0		1	0	0	0	0	0	0	0
010813	08:04:26	10027	Trial2BackEngS	YS	17	0	1000	0	115	08:04:26	4781550	4	3	3	3	3	3	3	1	3	7	5	2	0	0	0	5	4	0	0	0	0	0		1	0	0	0	0	0	0	0
010813	08:04:26	10027	Trial2BackEngS	NS	17	0	1000	1	115	08:04:26	4783056	4	3	3	3	3	3	3	1	3	7	5	2	0	0	0	5	4	0	0	0	0	0		1	0	0	0	0	0	0	0
010813	08:04:26	10027	Trial2BackEngS	NS	17	0	1000	1	115	08:04:26	4784562	4	3	3	3	3	3	3	1	3	7	5	2	0	0	0	5	4	0	0	0	0	0		1	0	0	0	0	0	0	0
010813	08:04:26	10027	Trial2BackEngS	YS	17	57	451	1	115	08:04:26	4785521	4	3	3	3	3	3	3	1	3	7	5	2	0	0	0	5	4	0	0	0	0	0		1	0	0	0	0	0	0	0
010813	08:04:26	10027	Trial2BackEngS	NS	17	0	1000	1	115	08:04:26	4787574	4	3	3	3	3	3	3	1	3	7	5	2	0	0	0	5	4	0	0	0	0	0		1	0	0	0	0	0	0	0
010813	08:04:26	10027	Trial2BackEngS	NS	17	0	1000	1	115	08:04:26	4789080	4	3	3	3	3	3	3	1	3	7	5	2	0	0	0	5	4	0	0	0	0	0		1	0	0	0	0	0	0	0
010813	08:04:26	10027	Trial2BackEngS	NS	17	0	1000	1	115	08:04:26	4790586	4	3	3	3	3	3	3	1	3	7	5	2	0	0	0	5	4	0	0	0	0	0		1	0	0	0	0	0	0	0
010813	08:04:26	10027	Trial2BackEngS	NS	17	0	1000	1	115	08:04:26	4792092	4	3	3	3	3	3	3	1	3	7	5	2	0	0	0	5	4	0	0	0	0	0		1	0	0	0	0	0	0	0
010813	08:04:26	10027	Trial2BackEngS	NS	17	0	1000	1	115	08:04:26	4793611	4	3	3	3	3	3	3	1	3	7	5	2	0	0	0	5	4	0	0	0	0	0		1	0	0	0	0	0	0	0
010813	08:04:26	10027	Trial2BackEngS	NS	17	0	1000	1	115	08:04:26	4795131	4	3	3	3	3	3	3	1	3	7	5	2	0	0	0	5	4	0	0	0	0	0		1	0	0	0	0	0	0	0
010813	08:04:26	10027	Trial2BackEngS	NS	17	0	1000	1	115	08:04:26	4796637	4	3	3	3	3	3	3	1	3	7	5	2	0	0	0	5	4	0	0	0	0	0		1	0	0	0	0	0	0	0
010813	08:04:26	10027	Trial2BackEngS	NS	17	0	1000	1	115	08:04:26	4798143	4	3	3	3	3	3	3	1	3	7	5	2	0	0	0	5	4	0	0	0	0	0		1	0	0	0	0	0	0	0
010813	08:04:26	10027	Trial2BackEngS	YS	17	0	1000	0	115	08:04:26	4799649	4	3	3	3	3	3	3	1	3	7	5	2	0	0	0	5	4	0	0	0	0	0		1	0	0	0	0	0	0	0
010813	08:04:26	10027	Trial2BackEngS	NS	17	0	1000	1	115	08:04:26	4801155	4	3	3	3	3	3	3	1	3	7	5	2	0	0	0	5	4	0	0	0	0	0		1	0	0	0	0	0	0	0
010813	08:04:26	10027	Trial2BackEngS	NS	17	0	1000	1	115	08:04:26	4802661	4	3	3	3	3	3	3	1	3	7	5	2	0	0	0	5	4	0	0	0	0	0		1	0	0	0	0	0	0	0
010813	08:04:26	10027	Trial2BackEngS	NS	17	0	1000	1	115	08:04:26	4804180	4	3	3	3	3	3	3	1	3	7	5	2	0	0	0	5	4	0	0	0	0	0		1	0	0	0	0	0	0	0
010813	08:04:26	10027	Trial2BackEngS	NS	17	0	1000	1	115	08:04:26	4805686	4	3	3	3	3	3	3	1	3	7	5	2	0	0	0	5	4	0	0	0	0	0		1	0	0	0	0	0	0	0
010813	08:04:26	10027	Trial2BackEngS	NS	17	0	1000	1	115	08:04:26	4807192	4	3	3	3	3	3	3	1	3	7	5	2	0	0	0	5	4	0	0	0	0	0		1	0	0	0	0	0	0	0
010813	08:04:26	10027	Trial2BackEngS	NS	17	0	1000	1	115	08:04:26	4808698	4	3	3	3	3	3	3	1	3	7	5	2	0	0	0	5	4	0	0	0	0	0		1	0	0	0	0	0	0	0
010813	08:04:26	10027	Trial2BackEngS	NS	17	0	1000	1	115	08:04:26	4810204	4	3	3	3	3	3	3	1	3	7	5	2	0	0	0	5	4	0	0	0	0	0		1	0	0	0	0	0	0	0
010813	08:04:26	10027	Trial2BackEngS	YS	17	0	1000	0	115	08:04:26	4811724	4	3	3	3	3	3	3	1	3	7	5	2	0	0	0	5	4	0	0	0	0	0		1	0	0	0	0	0	0	0
010813	08:04:26	10027	Trial2BackEngS	NS	17	0	1000	1	115	08:04:26	4813230	4	3	3	3	3	3	3	1	3	7	5	2	0	0	0	5	4	0	0	0	0	0		1	0	0	0	0	0	0	0
010813	08:04:26	10027	Trial2BackEngS	NS	17	0	1000	1	115	08:04:26	4814736	4	3	3	3	3	3	3	1	3	7	5	2	0	0	0	5	4	0	0	0	0	0		1	0	0	0	0	0	0	0
010813	08:04:26	10027	Trial2BackEngS	NS	17	0	1000	1	115	08:04:26	4816242	4	3	3	3	3	3	3	1	3	7	5	2	0	0	0	5	4	0	0	0	0	0		1	0	0	0	0	0	0	0
010813	08:04:26	10027	Trial2BackEngS	NS	17	0	1000	1	115	08:04:26	4817748	4	3	3	3	3	3	3	1	3	7	5	2	0	0	0	5	4	0	0	0	0	0		1	0	0	0	0	0	0	0
010813	08:04:26	10027	Trial2BackEngS	NS	17	0	1000	1	115	08:04:26	4819267	4	3	3	3	3	3	3	1	3	7	5	2	0	0	0	5	4	0	0	0	0	0		1	0	0	0	0	0	0	0
010813	08:04:26	10027	Trial2BackEngS	NS	17	0	1000	1	115	08:04:26	4820774	4	3	3	3	3	3	3	1	3	7	5	2	0	0	0	5	4	0	0	0	0	0		1	0	0	0	0	0	0	0
010813	08:04:26	10027	Trial2BackEngS	NS	17	0	1000	1	115	08:04:26	4822279	4	3	3	3	3	3	3	1	3	7	5	2	0	0	0	5	4	0	0	0	0	0		1	0	0	0	0	0	0	0
010813	08:04:26	10027	Trial2BackEngS	NS	17	0	1000	1	115	08:04:26	4823785	4	3	3	3	3	3	3	1	3	7	5	2	0	0	0	5	4	0	0	0	0	0		1	0	0	0	0	0	0	0
010813	08:04:26	10027	Trial2BackEngS	NS	17	0	1000	1	115	08:04:26	4825292	4	3	3	3	3	3	3	1	3	7	5	2	0	0	0	5	4	0	0	0	0	0		1	0	0	0	0	0	0	0
010813	08:04:26	10027	Trial2BackEngS	YS	17	0	1000	0	115	08:04:26	4826811	4	3	3	3	3	3	3	1	3	7	5	2	0	0	0	5	4	0	0	0	0	0		1	0	0	0	0	0	0	0
010813	08:04:26	10027	Trial2BackEngS	NS	17	0	1000	1	115	08:04:26	4828317	4	3	3	3	3	3	3	1	3	7	5	2	0	0	0	5	4	0	0	0	0	0		1	0	0	0	0	0	0	0
010813	08:04:26	10027	ClockEng6mo	ClockEng6mo	19	Clock1	36528	0	115	08:04:26	4864969	4	3	3	3	3	3	3	1	3	7	5	2	1	0	0	5	4	0	0	0	0	0		1	0	0	0	0	0	0	0
010813	08:04:26	10027	ClockEng6mo	ClockEng6mo	19	Clock11	824	0	115	08:04:26	4865848	4	3	3	3	3	3	3	1	3	7	5	2	1	1	0	5	4	0	0	0	0	0		1	0	0	0	0	0	0	0
010813	08:04:26	10027	ClockEng6mo	ClockEng6mo	19	Clock111	680	0	115	08:04:26	4866581	4	3	3	3	3	3	3	1	3	7	5	2	1	1	1	5	4	0	0	0	0	0		1	0	0	0	0	0	0	0
010813	08:04:26	10027	ClockEng6mo	ClockEng6mo	19	Clockdone	2867	0	115	08:04:26	4869500	4	3	3	3	3	3	3	1	3	7	5	2	1	1	1	5	4	0	0	0	0	0		1	0	0	0	0	0	0	0
010813	08:04:26	10027	FASEngVF6mo	StopEngVF6mo	20	22	5864	0	115	08:04:26	5021932	4	3	3	3	3	3	3	1	3	7	5	2	1	1	1	5	4	0	0	0	0	0		1	0	0	0	0	0	0	0
010813	08:04:26	10027	practiceTOLENG	choice	20	R	11029	0	115	08:04:26	5141409	4	3	3	3	3	3	3	1	3	7	5	2	1	1	1	5	4	0	1	2	0	-2	R	0	0	0	11102	0	0	5130307	5141409
010813	08:04:26	10027	practiceTOLENG	choice	20	B	1126	0	115	08:04:26	5146553	4	3	3	3	3	3	3	1	3	7	5	2	1	1	1	5	4	0	1	2	1	-1	R3B	0	0	0	11102	0	0	5145381	5146553
010813	08:04:26	10027	practiceTOLENG	feedbackENG	20	0	2000	0	115	08:04:26	5150255	4	3	3	3	3	3	3	1	3	7	5	2	1	1	1	5	4	0	1	2	2	0	R3B1	1	3	3	11102	6812	17914	5145381	5146553
010813	08:04:26	10027	testTOLENG	choice	20	B	6183	0	115	08:04:26	5162033	4	3	3	3	3	3	3	1	3	7	5	2	1	1	1	5	4	2	1	2	0	-2	B	0	0	0	6255	0	0	5155777	5162032
010813	08:04:26	10027	testTOLENG	choice	20	R	1191	0	115	08:04:26	5166064	4	3	3	3	3	3	3	1	3	7	5	2	1	1	1	5	4	2	1	2	1	-1	B3R	0	0	0	6255	0	0	5164820	5166064
010813	08:04:26	10027	testTOLENG	feedbackENG	20	0	2000	0	115	08:04:26	5169639	4	3	3	3	3	3	3	1	3	7	5	2	1	1	1	5	4	2	1	2	2	0	B3R2	1	3	3	6255	5565	11820	5164820	5166064
010813	08:04:26	10027	testTOLENG	choice	20	B	6924	0	115	08:04:26	5177648	4	3	3	3	3	3	3	1	3	7	5	2	1	1	1	5	4	4	1	3	0	-3	B	0	0	3	6998	0	0	5170650	5177648
010813	08:04:26	10027	testTOLENG	choice	20	R	1040	0	115	08:04:26	5180120	4	3	3	3	3	3	3	1	3	7	5	2	1	1	1	5	4	4	1	3	1	-2	B3R	0	0	3	6998	0	0	5179028	5180120
010813	08:04:26	10027	testTOLENG	choice	20	B	825	0	115	08:04:26	5182025	4	3	3	3	3	3	3	1	3	7	5	2	1	1	1	5	4	4	1	3	2	-1	B3R2B	0	0	3	6998	0	0	5181148	5182024
010813	08:04:26	10027	testTOLENG	feedbackENG	20	0	2000	0	115	08:04:26	5185437	4	3	3	3	3	3	3	1	3	7	5	2	1	1	1	5	4	4	1	3	3	0	B3R2B2	1	3	6	6998	5756	12754	5181148	5182024
010813	08:04:26	10027	testTOLENG	choice	20	B	14874	0	115	08:04:26	5201391	4	3	3	3	3	3	3	1	3	7	5	2	1	1	1	5	4	7	1	4	0	-4	B	0	0	6	14941	0	0	5186450	5201391
010813	08:04:26	10027	testTOLENG	choice	20	R	10702	0	115	08:04:26	5213719	4	3	3	3	3	3	3	1	3	7	5	2	1	1	1	5	4	7	1	4	1	-3	B3R	0	0	6	14941	0	0	5202963	5213719
010813	08:04:26	10027	testTOLENG	choice	20	B	626	0	115	08:04:26	5219023	4	3	3	3	3	3	3	1	3	7	5	2	1	1	1	5	4	7	1	4	2	-2	B3R2B	0	0	6	14941	0	0	5218355	5219022
010813	08:04:26	10027	testTOLENG	choice	20	G	1013	0	115	08:04:26	5221463	4	3	3	3	3	3	3	1	3	7	5	2	1	1	1	5	4	7	1	4	3	-1	B3R2B2G	0	0	6	14941	0	0	5220403	5221462
010813	08:04:26	10027	testTOLENG	choice	20	B	2571	0	115	08:04:26	5225207	4	3	3	3	3	3	3	1	3	7	5	2	1	1	1	5	4	7	1	4	4	0	B3R2B2G3B	0	0	6	14941	0	0	5222586	5225206
010813	08:04:26	10027	testTOLENG	choice	20	R	1734	0	115	08:04:26	5232726	4	3	3	3	3	3	3	1	3	7	5	2	1	1	1	5	4	7	1	4	5	1	B3R2B2G3B1R	0	0	6	14941	0	0	5230947	5232726
010813	08:04:26	10027	testTOLENG	choice	20	nextround	835	0	115	08:04:26	5234732	4	3	3	3	3	3	3	1	3	7	5	2	1	1	1	5	4	7	1	4	6	2	B3R2B2G3B1R2nextround	0	0	6	14941	0	0	5233594	5234732
010813	08:04:26	10027	testTOLENG	choice	20	R	31845	0	115	08:04:26	5267662	4	3	3	3	3	3	3	1	3	7	5	2	1	1	1	5	4	10	1	5	0	-5	R	0	0	6	31916	0	0	5235745	5267661
010813	08:04:26	10027	testTOLENG	choice	20	G	3926	0	115	08:04:26	5291349	4	3	3	3	3	3	3	1	3	7	5	2	1	1	1	5	4	10	1	5	1	-4	R2G	0	0	6	31916	0	0	5287376	5291348
010813	08:04:26	10027	testTOLENG	choice	20	R	793	0	115	08:04:26	5293852	4	3	3	3	3	3	3	1	3	7	5	2	1	1	1	5	4	10	1	5	2	-3	R2G3R	0	0	6	31916	0	0	5293016	5293852
010813	08:04:26	10027	testTOLENG	choice	20	B	911	0	115	08:04:26	5295877	4	3	3	3	3	3	3	1	3	7	5	2	1	1	1	5	4	10	1	5	3	-2	R2G3R1B	0	0	6	31916	0	0	5294912	5295876
010813	08:04:26	10027	testTOLENG	choice	20	G	775	0	115	08:04:26	5297700	4	3	3	3	3	3	3	1	3	7	5	2	1	1	1	5	4	10	1	5	4	-1	R2G3R1B1G	0	0	6	31916	0	0	5296880	5297700
010813	08:04:26	10027	testTOLENG	feedbackENG	20	0	2000	0	115	08:04:26	5301197	4	3	3	3	3	3	3	1	3	7	5	2	1	1	1	5	4	10	1	5	5	0	R2G3R1B1G1	1	3	9	31916	31500	63416	5296880	5297700
