date	time	subject	blockcode	trialcode	values.TaskNumber	response	latency	correct	values.Score	script.starttime	script.elapsedtime	values.ScoreS7	values.Word1	values.Word2	values.Word3	values.Word4	values.Word5	values.Word6	values.Word7	values.Word8	values.DigitSpanFwrd	values.DigitSpanBack	values.ScoreAbs	values.Contour	values.Numbers	values.Hands	values.corsiblockspanFwrd	values.corsiblockspanRev	values.problemnumber	values.subjectattempts	values.targetmoves	values.subjectmoves	expressions.excessmoves	values.movestring	expressions.targetachieved	values.problemscore	values.totalscoreTOL	expressions.firstmovetime	expressions.executiontime	expressions.solutiontime	values.t_choicestart	values.t_choiceend
011813	11:08:24	10031	Language	Language	0	English	650301	0	0	11:08:24	650437	0	0	0	0	0	0	0	0	0	0	0	0	0	0	0	0	0	0	0	0	0	0		1	0	0	0	0	0	0	0
011813	11:08:24	10031	Session	Session	0	6mo	1382	0	0	11:08:24	651877	0	0	0	0	0	0	0	0	0	0	0	0	0	0	0	0	0	0	0	0	0	0		1	0	0	0	0	0	0	0
011813	11:08:24	10031	HandEng	HandEng	0	Right	1359	0	0	11:08:24	653303	0	0	0	0	0	0	0	0	0	0	0	0	0	0	0	0	0	0	0	0	0	0		1	0	0	0	0	0	0	0
011813	11:08:24	10031	CubeEng	CubeEng	1	1Cube	75668	0	0	11:08:24	1152695	0	0	0	0	0	0	0	0	0	0	0	0	0	0	0	0	0	0	0	0	0	0		1	0	0	0	0	0	0	0
011813	11:08:24	10031	pm.simpleEngRight	blank.simpleEng	2	0	2000	1	0	11:08:24	1218348	0	0	0	0	0	0	0	0	0	0	0	0	0	0	0	0	0	0	0	0	0	0		1	0	0	0	0	0	0	0
011813	11:08:24	10031	pm.simpleEngRight	pm.simpleEng	2	57	415	0	0	11:08:24	1218788	0	0	0	0	0	0	0	0	0	0	0	0	0	0	0	0	0	0	0	0	0	0		1	0	0	0	0	0	0	0
011813	11:08:24	10031	pm.simpleEngRight	blank.simpleEng	2	0	2400	1	0	11:08:24	1221200	0	0	0	0	0	0	0	0	0	0	0	0	0	0	0	0	0	0	0	0	0	0		1	0	0	0	0	0	0	0
011813	11:08:24	10031	pm.simpleEngRight	pm.simpleEng	2	57	251	0	0	11:08:24	1221480	0	0	0	0	0	0	0	0	0	0	0	0	0	0	0	0	0	0	0	0	0	0		1	0	0	0	0	0	0	0
011813	11:08:24	10031	pm.simpleEngRight	blank.simpleEng	2	0	1800	1	0	11:08:24	1223293	0	0	0	0	0	0	0	0	0	0	0	0	0	0	0	0	0	0	0	0	0	0		1	0	0	0	0	0	0	0
011813	11:08:24	10031	pm.simpleEngRight	pm.simpleEng	2	57	255	0	0	11:08:24	1223573	0	0	0	0	0	0	0	0	0	0	0	0	0	0	0	0	0	0	0	0	0	0		1	0	0	0	0	0	0	0
011813	11:08:24	10031	pm.simpleEngRight	blank.simpleEng	2	0	2300	1	0	11:08:24	1225891	0	0	0	0	0	0	0	0	0	0	0	0	0	0	0	0	0	0	0	0	0	0		1	0	0	0	0	0	0	0
011813	11:08:24	10031	pm.simpleEngRight	pm.simpleEng	2	57	295	0	0	11:08:24	1226211	0	0	0	0	0	0	0	0	0	0	0	0	0	0	0	0	0	0	0	0	0	0		1	0	0	0	0	0	0	0
011813	11:08:24	10031	pm.simpleEngRight	blank.simpleEng	2	0	1700	1	0	11:08:24	1227931	0	0	0	0	0	0	0	0	0	0	0	0	0	0	0	0	0	0	0	0	0	0		1	0	0	0	0	0	0	0
011813	11:08:24	10031	pm.simpleEngRight	pm.simpleEng	2	57	224	0	0	11:08:24	1228184	0	0	0	0	0	0	0	0	0	0	0	0	0	0	0	0	0	0	0	0	0	0		1	0	0	0	0	0	0	0
011813	11:08:24	10031	pm.simpleEngRight	blank.simpleEng	2	0	1500	1	0	11:08:24	1229703	0	0	0	0	0	0	0	0	0	0	0	0	0	0	0	0	0	0	0	0	0	0		1	0	0	0	0	0	0	0
011813	11:08:24	10031	pm.simpleEngRight	pm.simpleEng	2	57	228	0	0	11:08:24	1229956	0	0	0	0	0	0	0	0	0	0	0	0	0	0	0	0	0	0	0	0	0	0		1	0	0	0	0	0	0	0
011813	11:08:24	10031	pm.simpleEngRight	blank.simpleEng	2	0	1600	1	0	11:08:24	1231569	0	0	0	0	0	0	0	0	0	0	0	0	0	0	0	0	0	0	0	0	0	0		1	0	0	0	0	0	0	0
011813	11:08:24	10031	pm.simpleEngRight	pm.simpleEng	2	57	233	0	0	11:08:24	1231822	0	0	0	0	0	0	0	0	0	0	0	0	0	0	0	0	0	0	0	0	0	0		1	0	0	0	0	0	0	0
011813	11:08:24	10031	pm.simpleEngRight	blank.simpleEng	2	0	2100	1	0	11:08:24	1233941	0	0	0	0	0	0	0	0	0	0	0	0	0	0	0	0	0	0	0	0	0	0		1	0	0	0	0	0	0	0
011813	11:08:24	10031	pm.simpleEngRight	pm.simpleEng	2	57	245	0	0	11:08:24	1234208	0	0	0	0	0	0	0	0	0	0	0	0	0	0	0	0	0	0	0	0	0	0		1	0	0	0	0	0	0	0
011813	11:08:24	10031	pm.simpleEngRight	blank.simpleEng	2	0	2500	1	0	11:08:24	1236727	0	0	0	0	0	0	0	0	0	0	0	0	0	0	0	0	0	0	0	0	0	0		1	0	0	0	0	0	0	0
011813	11:08:24	10031	pm.simpleEngRight	pm.simpleEng	2	57	227	0	0	11:08:24	1236980	0	0	0	0	0	0	0	0	0	0	0	0	0	0	0	0	0	0	0	0	0	0		1	0	0	0	0	0	0	0
011813	11:08:24	10031	pm.simpleEngRight	blank.simpleEng	2	0	2200	1	0	11:08:24	1239193	0	0	0	0	0	0	0	0	0	0	0	0	0	0	0	0	0	0	0	0	0	0		1	0	0	0	0	0	0	0
011813	11:08:24	10031	pm.simpleEngRight	pm.simpleEng	2	57	226	0	0	11:08:24	1239446	0	0	0	0	0	0	0	0	0	0	0	0	0	0	0	0	0	0	0	0	0	0		1	0	0	0	0	0	0	0
011813	11:08:24	10031	pm.simpleEngRight	blank.simpleEng	2	0	1900	1	0	11:08:24	1241365	0	0	0	0	0	0	0	0	0	0	0	0	0	0	0	0	0	0	0	0	0	0		1	0	0	0	0	0	0	0
011813	11:08:24	10031	pm.simpleEngRight	pm.simpleEng	2	57	229	0	0	11:08:24	1241618	0	0	0	0	0	0	0	0	0	0	0	0	0	0	0	0	0	0	0	0	0	0		1	0	0	0	0	0	0	0
011813	11:08:24	10031	pm.simpleEngRight	blank.simpleEng	2	0	1600	1	0	11:08:24	1243231	0	0	0	0	0	0	0	0	0	0	0	0	0	0	0	0	0	0	0	0	0	0		1	0	0	0	0	0	0	0
011813	11:08:24	10031	pm.simpleEngRight	pm.simpleEng	2	57	236	0	0	11:08:24	1243484	0	0	0	0	0	0	0	0	0	0	0	0	0	0	0	0	0	0	0	0	0	0		1	0	0	0	0	0	0	0
011813	11:08:24	10031	pm.simpleEngRight	blank.simpleEng	2	0	2300	1	0	11:08:24	1245803	0	0	0	0	0	0	0	0	0	0	0	0	0	0	0	0	0	0	0	0	0	0		1	0	0	0	0	0	0	0
011813	11:08:24	10031	pm.simpleEngRight	pm.simpleEng	2	57	223	0	0	11:08:24	1246043	0	0	0	0	0	0	0	0	0	0	0	0	0	0	0	0	0	0	0	0	0	0		1	0	0	0	0	0	0	0
011813	11:08:24	10031	pm.simpleEngRight	blank.simpleEng	2	0	2000	1	0	11:08:24	1248056	0	0	0	0	0	0	0	0	0	0	0	0	0	0	0	0	0	0	0	0	0	0		1	0	0	0	0	0	0	0
011813	11:08:24	10031	pm.simpleEngRight	pm.simpleEng	2	57	227	0	0	11:08:24	1248309	0	0	0	0	0	0	0	0	0	0	0	0	0	0	0	0	0	0	0	0	0	0		1	0	0	0	0	0	0	0
011813	11:08:24	10031	pm.simpleEngRight	blank.simpleEng	2	0	1800	1	0	11:08:24	1250121	0	0	0	0	0	0	0	0	0	0	0	0	0	0	0	0	0	0	0	0	0	0		1	0	0	0	0	0	0	0
011813	11:08:24	10031	pm.simpleEngRight	pm.simpleEng	2	57	209	0	0	11:08:24	1250348	0	0	0	0	0	0	0	0	0	0	0	0	0	0	0	0	0	0	0	0	0	0		1	0	0	0	0	0	0	0
011813	11:08:24	10031	pm.simpleEngRight	blank.simpleEng	2	0	2500	1	0	11:08:24	1252867	0	0	0	0	0	0	0	0	0	0	0	0	0	0	0	0	0	0	0	0	0	0		1	0	0	0	0	0	0	0
011813	11:08:24	10031	pm.simpleEngRight	pm.simpleEng	2	57	215	0	0	11:08:24	1253107	0	0	0	0	0	0	0	0	0	0	0	0	0	0	0	0	0	0	0	0	0	0		1	0	0	0	0	0	0	0
011813	11:08:24	10031	pm.simpleEngRight	blank.simpleEng	2	0	2100	1	0	11:08:24	1255226	0	0	0	0	0	0	0	0	0	0	0	0	0	0	0	0	0	0	0	0	0	0		1	0	0	0	0	0	0	0
011813	11:08:24	10031	pm.simpleEngRight	pm.simpleEng	2	57	224	0	0	11:08:24	1255479	0	0	0	0	0	0	0	0	0	0	0	0	0	0	0	0	0	0	0	0	0	0		1	0	0	0	0	0	0	0
011813	11:08:24	10031	pm.simpleEngRight	blank.simpleEng	2	0	1500	1	0	11:08:24	1256999	0	0	0	0	0	0	0	0	0	0	0	0	0	0	0	0	0	0	0	0	0	0		1	0	0	0	0	0	0	0
011813	11:08:24	10031	pm.simpleEngRight	pm.simpleEng	2	57	323	0	0	11:08:24	1257345	0	0	0	0	0	0	0	0	0	0	0	0	0	0	0	0	0	0	0	0	0	0		1	0	0	0	0	0	0	0
011813	11:08:24	10031	pm.simpleEngRight	blank.simpleEng	2	0	1700	1	0	11:08:24	1259064	0	0	0	0	0	0	0	0	0	0	0	0	0	0	0	0	0	0	0	0	0	0		1	0	0	0	0	0	0	0
011813	11:08:24	10031	pm.simpleEngRight	pm.simpleEng	2	57	274	0	0	11:08:24	1259358	0	0	0	0	0	0	0	0	0	0	0	0	0	0	0	0	0	0	0	0	0	0		1	0	0	0	0	0	0	0
011813	11:08:24	10031	pm.simpleEngRight	blank.simpleEng	2	57	1868	0	0	11:08:24	1262250	0	0	0	0	0	0	0	0	0	0	0	0	0	0	0	0	0	0	0	0	0	0		1	0	0	0	0	0	0	0
011813	11:08:24	10031	pm.simpleEngRight	blank.simpleEng	2	0	2400	1	0	11:08:24	1264675	0	0	0	0	0	0	0	0	0	0	0	0	0	0	0	0	0	0	0	0	0	0		1	0	0	0	0	0	0	0
011813	11:08:24	10031	pm.simpleEngRight	pm.simpleEng	2	57	278	0	0	11:08:24	1264982	0	0	0	0	0	0	0	0	0	0	0	0	0	0	0	0	0	0	0	0	0	0		1	0	0	0	0	0	0	0
011813	11:08:24	10031	pm.simpleEngRight	blank.simpleEng	2	0	1900	1	0	11:08:24	1266901	0	0	0	0	0	0	0	0	0	0	0	0	0	0	0	0	0	0	0	0	0	0		1	0	0	0	0	0	0	0
011813	11:08:24	10031	pm.simpleEngRight	pm.simpleEng	2	57	260	0	0	11:08:24	1267181	0	0	0	0	0	0	0	0	0	0	0	0	0	0	0	0	0	0	0	0	0	0		1	0	0	0	0	0	0	0
011813	11:08:24	10031	pm.simpleEngRight	blank.simpleEng	2	0	2100	1	0	11:08:24	1269300	0	0	0	0	0	0	0	0	0	0	0	0	0	0	0	0	0	0	0	0	0	0		1	0	0	0	0	0	0	0
011813	11:08:24	10031	pm.simpleEngRight	pm.simpleEng	2	57	229	0	0	11:08:24	1269553	0	0	0	0	0	0	0	0	0	0	0	0	0	0	0	0	0	0	0	0	0	0		1	0	0	0	0	0	0	0
011813	11:08:24	10031	pm.simpleEngRight	blank.simpleEng	2	0	2000	1	0	11:08:24	1271579	0	0	0	0	0	0	0	0	0	0	0	0	0	0	0	0	0	0	0	0	0	0		1	0	0	0	0	0	0	0
011813	11:08:24	10031	pm.simpleEngRight	pm.simpleEng	2	57	222	0	0	11:08:24	1271819	0	0	0	0	0	0	0	0	0	0	0	0	0	0	0	0	0	0	0	0	0	0		1	0	0	0	0	0	0	0
011813	11:08:24	10031	pm.simpleEngRight	blank.simpleEng	2	0	1700	1	0	11:08:24	1273538	0	0	0	0	0	0	0	0	0	0	0	0	0	0	0	0	0	0	0	0	0	0		1	0	0	0	0	0	0	0
011813	11:08:24	10031	pm.simpleEngRight	pm.simpleEng	2	57	279	0	0	11:08:24	1273845	0	0	0	0	0	0	0	0	0	0	0	0	0	0	0	0	0	0	0	0	0	0		1	0	0	0	0	0	0	0
011813	11:08:24	10031	pm.simpleEngRight	blank.simpleEng	2	0	1600	1	0	11:08:24	1275458	0	0	0	0	0	0	0	0	0	0	0	0	0	0	0	0	0	0	0	0	0	0		1	0	0	0	0	0	0	0
011813	11:08:24	10031	pm.simpleEngRight	pm.simpleEng	2	57	232	0	0	11:08:24	1275711	0	0	0	0	0	0	0	0	0	0	0	0	0	0	0	0	0	0	0	0	0	0		1	0	0	0	0	0	0	0
011813	11:08:24	10031	pm.simpleEngRight	blank.simpleEng	2	0	1900	1	0	11:08:24	1277630	0	0	0	0	0	0	0	0	0	0	0	0	0	0	0	0	0	0	0	0	0	0		1	0	0	0	0	0	0	0
011813	11:08:24	10031	pm.simpleEngRight	pm.simpleEng	2	57	219	0	0	11:08:24	1277870	0	0	0	0	0	0	0	0	0	0	0	0	0	0	0	0	0	0	0	0	0	0		1	0	0	0	0	0	0	0
011813	11:08:24	10031	pm.simpleEngRight	blank.simpleEng	2	0	2400	1	0	11:08:24	1280282	0	0	0	0	0	0	0	0	0	0	0	0	0	0	0	0	0	0	0	0	0	0		1	0	0	0	0	0	0	0
011813	11:08:24	10031	pm.simpleEngRight	pm.simpleEng	2	57	223	0	0	11:08:24	1280522	0	0	0	0	0	0	0	0	0	0	0	0	0	0	0	0	0	0	0	0	0	0		1	0	0	0	0	0	0	0
011813	11:08:24	10031	pm.simpleEngRight	blank.simpleEng	2	0	2200	1	0	11:08:24	1282734	0	0	0	0	0	0	0	0	0	0	0	0	0	0	0	0	0	0	0	0	0	0		1	0	0	0	0	0	0	0
011813	11:08:24	10031	pm.simpleEngRight	pm.simpleEng	2	57	202	0	0	11:08:24	1282961	0	0	0	0	0	0	0	0	0	0	0	0	0	0	0	0	0	0	0	0	0	0		1	0	0	0	0	0	0	0
011813	11:08:24	10031	pm.simpleEngRight	blank.simpleEng	2	0	2500	1	0	11:08:24	1285480	0	0	0	0	0	0	0	0	0	0	0	0	0	0	0	0	0	0	0	0	0	0		1	0	0	0	0	0	0	0
011813	11:08:24	10031	pm.simpleEngRight	pm.simpleEng	2	57	225	0	0	11:08:24	1285733	0	0	0	0	0	0	0	0	0	0	0	0	0	0	0	0	0	0	0	0	0	0		1	0	0	0	0	0	0	0
011813	11:08:24	10031	pm.simpleEngRight	blank.simpleEng	2	0	2300	1	0	11:08:24	1288052	0	0	0	0	0	0	0	0	0	0	0	0	0	0	0	0	0	0	0	0	0	0		1	0	0	0	0	0	0	0
011813	11:08:24	10031	pm.simpleEngRight	pm.simpleEng	2	57	228	0	0	11:08:24	1288306	0	0	0	0	0	0	0	0	0	0	0	0	0	0	0	0	0	0	0	0	0	0		1	0	0	0	0	0	0	0
011813	11:08:24	10031	pm.simpleEngRight	blank.simpleEng	2	0	1800	1	0	11:08:24	1290132	0	0	0	0	0	0	0	0	0	0	0	0	0	0	0	0	0	0	0	0	0	0		1	0	0	0	0	0	0	0
011813	11:08:24	10031	pm.simpleEngRight	pm.simpleEng	2	57	261	0	0	11:08:24	1290411	0	0	0	0	0	0	0	0	0	0	0	0	0	0	0	0	0	0	0	0	0	0		1	0	0	0	0	0	0	0
011813	11:08:24	10031	pm.simpleEngRight	blank.simpleEng	2	0	1500	1	0	11:08:24	1291931	0	0	0	0	0	0	0	0	0	0	0	0	0	0	0	0	0	0	0	0	0	0		1	0	0	0	0	0	0	0
011813	11:08:24	10031	pm.simpleEngRight	pm.simpleEng	2	57	238	0	0	11:08:24	1292197	0	0	0	0	0	0	0	0	0	0	0	0	0	0	0	0	0	0	0	0	0	0		1	0	0	0	0	0	0	0
011813	11:08:24	10031	pm.simpleEngRight	blank.simpleEng	2	0	1800	1	0	11:08:24	1294010	0	0	0	0	0	0	0	0	0	0	0	0	0	0	0	0	0	0	0	0	0	0		1	0	0	0	0	0	0	0
011813	11:08:24	10031	pm.simpleEngRight	pm.simpleEng	2	57	223	0	0	11:08:24	1294250	0	0	0	0	0	0	0	0	0	0	0	0	0	0	0	0	0	0	0	0	0	0		1	0	0	0	0	0	0	0
011813	11:08:24	10031	pm.simpleEngRight	blank.simpleEng	2	0	1900	1	0	11:08:24	1296169	0	0	0	0	0	0	0	0	0	0	0	0	0	0	0	0	0	0	0	0	0	0		1	0	0	0	0	0	0	0
011813	11:08:24	10031	pm.simpleEngRight	pm.simpleEng	2	57	224	0	0	11:08:24	1296422	0	0	0	0	0	0	0	0	0	0	0	0	0	0	0	0	0	0	0	0	0	0		1	0	0	0	0	0	0	0
011813	11:08:24	10031	pm.simpleEngRight	blank.simpleEng	2	0	2300	1	0	11:08:24	1298741	0	0	0	0	0	0	0	0	0	0	0	0	0	0	0	0	0	0	0	0	0	0		1	0	0	0	0	0	0	0
011813	11:08:24	10031	pm.simpleEngRight	pm.simpleEng	2	57	211	0	0	11:08:24	1298981	0	0	0	0	0	0	0	0	0	0	0	0	0	0	0	0	0	0	0	0	0	0		1	0	0	0	0	0	0	0
011813	11:08:24	10031	pm.simpleEngRight	blank.simpleEng	2	0	2200	1	0	11:08:24	1301194	0	0	0	0	0	0	0	0	0	0	0	0	0	0	0	0	0	0	0	0	0	0		1	0	0	0	0	0	0	0
011813	11:08:24	10031	pm.simpleEngRight	pm.simpleEng	2	57	223	0	0	11:08:24	1301434	0	0	0	0	0	0	0	0	0	0	0	0	0	0	0	0	0	0	0	0	0	0		1	0	0	0	0	0	0	0
011813	11:08:24	10031	pm.simpleEngRight	blank.simpleEng	2	0	2100	1	0	11:08:24	1303553	0	0	0	0	0	0	0	0	0	0	0	0	0	0	0	0	0	0	0	0	0	0		1	0	0	0	0	0	0	0
011813	11:08:24	10031	pm.simpleEngRight	pm.simpleEng	2	57	200	0	0	11:08:24	1303779	0	0	0	0	0	0	0	0	0	0	0	0	0	0	0	0	0	0	0	0	0	0		1	0	0	0	0	0	0	0
011813	11:08:24	10031	pm.simpleEngRight	blank.simpleEng	2	57	1989	0	0	11:08:24	1306791	0	0	0	0	0	0	0	0	0	0	0	0	0	0	0	0	0	0	0	0	0	0		1	0	0	0	0	0	0	0
011813	11:08:24	10031	pm.simpleEngRight	blank.simpleEng	2	0	1600	1	0	11:08:24	1308404	0	0	0	0	0	0	0	0	0	0	0	0	0	0	0	0	0	0	0	0	0	0		1	0	0	0	0	0	0	0
011813	11:08:24	10031	pm.simpleEngRight	pm.simpleEng	2	57	212	0	0	11:08:24	1308644	0	0	0	0	0	0	0	0	0	0	0	0	0	0	0	0	0	0	0	0	0	0		1	0	0	0	0	0	0	0
011813	11:08:24	10031	pm.simpleEngRight	blank.simpleEng	2	0	1700	1	0	11:08:24	1310363	0	0	0	0	0	0	0	0	0	0	0	0	0	0	0	0	0	0	0	0	0	0		1	0	0	0	0	0	0	0
011813	11:08:24	10031	pm.simpleEngRight	pm.simpleEng	2	57	221	0	0	11:08:24	1310603	0	0	0	0	0	0	0	0	0	0	0	0	0	0	0	0	0	0	0	0	0	0		1	0	0	0	0	0	0	0
011813	11:08:24	10031	pm.simpleEngRight	blank.simpleEng	2	0	2000	1	0	11:08:24	1312616	0	0	0	0	0	0	0	0	0	0	0	0	0	0	0	0	0	0	0	0	0	0		1	0	0	0	0	0	0	0
011813	11:08:24	10031	pm.simpleEngRight	pm.simpleEng	2	57	225	0	0	11:08:24	1312869	0	0	0	0	0	0	0	0	0	0	0	0	0	0	0	0	0	0	0	0	0	0		1	0	0	0	0	0	0	0
011813	11:08:24	10031	Trial2BackEng	N	3	0	1000	1	1	11:08:24	1347988	0	0	0	0	0	0	0	0	0	0	0	0	0	0	0	0	0	0	0	0	0	0		1	0	0	0	0	0	0	0
011813	11:08:24	10031	Trial2BackEng	N	3	0	1000	1	2	11:08:24	1349494	0	0	0	0	0	0	0	0	0	0	0	0	0	0	0	0	0	0	0	0	0	0		1	0	0	0	0	0	0	0
011813	11:08:24	10031	Trial2BackEng	N	3	0	1000	1	3	11:08:24	1351000	0	0	0	0	0	0	0	0	0	0	0	0	0	0	0	0	0	0	0	0	0	0		1	0	0	0	0	0	0	0
011813	11:08:24	10031	Trial2BackEng	N	3	0	1000	1	4	11:08:24	1352519	0	0	0	0	0	0	0	0	0	0	0	0	0	0	0	0	0	0	0	0	0	0		1	0	0	0	0	0	0	0
011813	11:08:24	10031	Trial2BackEng	N	3	0	1000	1	5	11:08:24	1354025	0	0	0	0	0	0	0	0	0	0	0	0	0	0	0	0	0	0	0	0	0	0		1	0	0	0	0	0	0	0
011813	11:08:24	10031	Trial2BackEng	N	3	0	1000	1	6	11:08:24	1355545	0	0	0	0	0	0	0	0	0	0	0	0	0	0	0	0	0	0	0	0	0	0		1	0	0	0	0	0	0	0
011813	11:08:24	10031	Trial2BackEng	N	3	0	1000	1	7	11:08:24	1357051	0	0	0	0	0	0	0	0	0	0	0	0	0	0	0	0	0	0	0	0	0	0		1	0	0	0	0	0	0	0
011813	11:08:24	10031	Trial2BackEng	N	3	0	1000	1	8	11:08:24	1358556	0	0	0	0	0	0	0	0	0	0	0	0	0	0	0	0	0	0	0	0	0	0		1	0	0	0	0	0	0	0
011813	11:08:24	10031	Trial2BackEng	Y	3	57	398	1	9	11:08:24	1359463	0	0	0	0	0	0	0	0	0	0	0	0	0	0	0	0	0	0	0	0	0	0		1	0	0	0	0	0	0	0
011813	11:08:24	10031	Trial2BackEng	N	3	0	1000	1	10	11:08:24	1361568	0	0	0	0	0	0	0	0	0	0	0	0	0	0	0	0	0	0	0	0	0	0		1	0	0	0	0	0	0	0
011813	11:08:24	10031	Trial2BackEng	N	3	0	1000	1	11	11:08:24	1363075	0	0	0	0	0	0	0	0	0	0	0	0	0	0	0	0	0	0	0	0	0	0		1	0	0	0	0	0	0	0
011813	11:08:24	10031	Trial2BackEng	N	3	0	1000	1	12	11:08:24	1364581	0	0	0	0	0	0	0	0	0	0	0	0	0	0	0	0	0	0	0	0	0	0		1	0	0	0	0	0	0	0
011813	11:08:24	10031	Trial2BackEng	Y	3	0	1000	0	12	11:08:24	1366087	0	0	0	0	0	0	0	0	0	0	0	0	0	0	0	0	0	0	0	0	0	0		1	0	0	0	0	0	0	0
011813	11:08:24	10031	Trial2BackEng	N	3	0	1000	1	13	11:08:24	1367593	0	0	0	0	0	0	0	0	0	0	0	0	0	0	0	0	0	0	0	0	0	0		1	0	0	0	0	0	0	0
011813	11:08:24	10031	Trial2BackEng	N	3	0	1000	1	14	11:08:24	1369112	0	0	0	0	0	0	0	0	0	0	0	0	0	0	0	0	0	0	0	0	0	0		1	0	0	0	0	0	0	0
011813	11:08:24	10031	Trial2BackEng	N	3	0	1000	1	15	11:08:24	1370618	0	0	0	0	0	0	0	0	0	0	0	0	0	0	0	0	0	0	0	0	0	0		1	0	0	0	0	0	0	0
011813	11:08:24	10031	Trial2BackEng	N	3	0	1000	1	16	11:08:24	1372124	0	0	0	0	0	0	0	0	0	0	0	0	0	0	0	0	0	0	0	0	0	0		1	0	0	0	0	0	0	0
011813	11:08:24	10031	Trial2BackEng	N	3	0	1000	1	17	11:08:24	1373643	0	0	0	0	0	0	0	0	0	0	0	0	0	0	0	0	0	0	0	0	0	0		1	0	0	0	0	0	0	0
011813	11:08:24	10031	Trial2BackEng	Y	3	57	479	1	18	11:08:24	1374644	0	0	0	0	0	0	0	0	0	0	0	0	0	0	0	0	0	0	0	0	0	0		1	0	0	0	0	0	0	0
011813	11:08:24	10031	Trial2BackEng	N	3	0	1000	1	19	11:08:24	1376655	0	0	0	0	0	0	0	0	0	0	0	0	0	0	0	0	0	0	0	0	0	0		1	0	0	0	0	0	0	0
011813	11:08:24	10031	Trial2BackEng	N	3	0	1000	1	20	11:08:24	1378162	0	0	0	0	0	0	0	0	0	0	0	0	0	0	0	0	0	0	0	0	0	0		1	0	0	0	0	0	0	0
011813	11:08:24	10031	Trial2BackEng	N	3	0	1000	1	21	11:08:24	1379668	0	0	0	0	0	0	0	0	0	0	0	0	0	0	0	0	0	0	0	0	0	0		1	0	0	0	0	0	0	0
011813	11:08:24	10031	Trial2BackEng	N	3	0	1000	1	22	11:08:24	1381187	0	0	0	0	0	0	0	0	0	0	0	0	0	0	0	0	0	0	0	0	0	0		1	0	0	0	0	0	0	0
011813	11:08:24	10031	Trial2BackEng	Y	3	57	599	1	23	11:08:24	1382307	0	0	0	0	0	0	0	0	0	0	0	0	0	0	0	0	0	0	0	0	0	0		1	0	0	0	0	0	0	0
011813	11:08:24	10031	Trial2BackEng	N	3	0	1000	1	24	11:08:24	1384199	0	0	0	0	0	0	0	0	0	0	0	0	0	0	0	0	0	0	0	0	0	0		1	0	0	0	0	0	0	0
011813	11:08:24	10031	Trial2BackEng	N	3	0	1000	1	25	11:08:24	1385719	0	0	0	0	0	0	0	0	0	0	0	0	0	0	0	0	0	0	0	0	0	0		1	0	0	0	0	0	0	0
011813	11:08:24	10031	Trial2BackEng	N	3	0	1000	1	26	11:08:24	1387225	0	0	0	0	0	0	0	0	0	0	0	0	0	0	0	0	0	0	0	0	0	0		1	0	0	0	0	0	0	0
011813	11:08:24	10031	Trial2BackEng	N	3	0	1000	1	27	11:08:24	1388731	0	0	0	0	0	0	0	0	0	0	0	0	0	0	0	0	0	0	0	0	0	0		1	0	0	0	0	0	0	0
011813	11:08:24	10031	Trial2BackEng	N	3	0	1000	1	28	11:08:24	1390237	0	0	0	0	0	0	0	0	0	0	0	0	0	0	0	0	0	0	0	0	0	0		1	0	0	0	0	0	0	0
011813	11:08:24	10031	Trial2BackEng	N	3	0	1000	1	29	11:08:24	1391743	0	0	0	0	0	0	0	0	0	0	0	0	0	0	0	0	0	0	0	0	0	0		1	0	0	0	0	0	0	0
011813	11:08:24	10031	Trial2BackEng	Y	3	57	475	1	30	11:08:24	1392729	0	0	0	0	0	0	0	0	0	0	0	0	0	0	0	0	0	0	0	0	0	0		1	0	0	0	0	0	0	0
011813	11:08:24	10031	Trial2BackEng	N	3	0	1000	1	31	11:08:24	1394755	0	0	0	0	0	0	0	0	0	0	0	0	0	0	0	0	0	0	0	0	0	0		1	0	0	0	0	0	0	0
011813	11:08:24	10031	Trial2BackEng	N	3	0	1000	1	32	11:08:24	1396261	0	0	0	0	0	0	0	0	0	0	0	0	0	0	0	0	0	0	0	0	0	0		1	0	0	0	0	0	0	0
011813	11:08:24	10031	Trial2BackEng	N	3	0	1000	1	33	11:08:24	1397767	0	0	0	0	0	0	0	0	0	0	0	0	0	0	0	0	0	0	0	0	0	0		1	0	0	0	0	0	0	0
011813	11:08:24	10031	Trial2BackEng	Y	3	57	515	1	34	11:08:24	1398793	0	0	0	0	0	0	0	0	0	0	0	0	0	0	0	0	0	0	0	0	0	0		1	0	0	0	0	0	0	0
011813	11:08:24	10031	Trial2BackEng	N	3	0	1000	1	35	11:08:24	1400779	0	0	0	0	0	0	0	0	0	0	0	0	0	0	0	0	0	0	0	0	0	0		1	0	0	0	0	0	0	0
011813	11:08:24	10031	Trial2BackEng	N	3	0	1000	1	36	11:08:24	1402285	0	0	0	0	0	0	0	0	0	0	0	0	0	0	0	0	0	0	0	0	0	0		1	0	0	0	0	0	0	0
011813	11:08:24	10031	Trial2BackEng	N	3	0	1000	1	37	11:08:24	1403791	0	0	0	0	0	0	0	0	0	0	0	0	0	0	0	0	0	0	0	0	0	0		1	0	0	0	0	0	0	0
011813	11:08:24	10031	Trial2BackEng	N	3	0	1000	1	38	11:08:24	1405310	0	0	0	0	0	0	0	0	0	0	0	0	0	0	0	0	0	0	0	0	0	0		1	0	0	0	0	0	0	0
011813	11:08:24	10031	Trial2BackEng	N	3	0	1000	1	39	11:08:24	1406816	0	0	0	0	0	0	0	0	0	0	0	0	0	0	0	0	0	0	0	0	0	0		1	0	0	0	0	0	0	0
011813	11:08:24	10031	Trial2BackEng	N	3	0	1000	1	40	11:08:24	1408336	0	0	0	0	0	0	0	0	0	0	0	0	0	0	0	0	0	0	0	0	0	0		1	0	0	0	0	0	0	0
011813	11:08:24	10031	Trial2BackEng	Y	3	57	361	1	41	11:08:24	1409215	0	0	0	0	0	0	0	0	0	0	0	0	0	0	0	0	0	0	0	0	0	0		1	0	0	0	0	0	0	0
011813	11:08:24	10031	Trial2BackEng	N	3	0	1000	1	42	11:08:24	1411348	0	0	0	0	0	0	0	0	0	0	0	0	0	0	0	0	0	0	0	0	0	0		1	0	0	0	0	0	0	0
011813	11:08:24	10031	Trial2BackEng	N	3	0	1000	1	43	11:08:24	1412867	0	0	0	0	0	0	0	0	0	0	0	0	0	0	0	0	0	0	0	0	0	0		1	0	0	0	0	0	0	0
011813	11:08:24	10031	Trial2BackEng	N	3	0	1000	1	44	11:08:24	1414373	0	0	0	0	0	0	0	0	0	0	0	0	0	0	0	0	0	0	0	0	0	0		1	0	0	0	0	0	0	0
011813	11:08:24	10031	Trial2BackEng	N	3	0	1000	1	45	11:08:24	1415879	0	0	0	0	0	0	0	0	0	0	0	0	0	0	0	0	0	0	0	0	0	0		1	0	0	0	0	0	0	0
011813	11:08:24	10031	Trial2BackEng	Y	3	57	530	1	46	11:08:24	1416919	0	0	0	0	0	0	0	0	0	0	0	0	0	0	0	0	0	0	0	0	0	0		1	0	0	0	0	0	0	0
011813	11:08:24	10031	Trial2BackEng	N	3	0	1000	1	47	11:08:24	1418891	0	0	0	0	0	0	0	0	0	0	0	0	0	0	0	0	0	0	0	0	0	0		1	0	0	0	0	0	0	0
011813	11:08:24	10031	Trial2BackEng	N	3	0	1000	1	48	11:08:24	1420397	0	0	0	0	0	0	0	0	0	0	0	0	0	0	0	0	0	0	0	0	0	0		1	0	0	0	0	0	0	0
011813	11:08:24	10031	Trial2BackEng	N	3	0	1000	1	49	11:08:24	1421917	0	0	0	0	0	0	0	0	0	0	0	0	0	0	0	0	0	0	0	0	0	0		1	0	0	0	0	0	0	0
011813	11:08:24	10031	Trial2BackEng	N	3	0	1000	1	50	11:08:24	1423436	0	0	0	0	0	0	0	0	0	0	0	0	0	0	0	0	0	0	0	0	0	0		1	0	0	0	0	0	0	0
011813	11:08:24	10031	Trial2BackEng	N	3	0	1000	1	51	11:08:24	1424942	0	0	0	0	0	0	0	0	0	0	0	0	0	0	0	0	0	0	0	0	0	0		1	0	0	0	0	0	0	0
011813	11:08:24	10031	Trial2BackEng	Y	3	0	1000	0	51	11:08:24	1426448	0	0	0	0	0	0	0	0	0	0	0	0	0	0	0	0	0	0	0	0	0	0		1	0	0	0	0	0	0	0
011813	11:08:24	10031	Trial2BackEng	N	3	0	1000	1	52	11:08:24	1427954	0	0	0	0	0	0	0	0	0	0	0	0	0	0	0	0	0	0	0	0	0	0		1	0	0	0	0	0	0	0
011813	11:08:24	10031	Trial2BackEng	N	3	0	1000	1	53	11:08:24	1429460	0	0	0	0	0	0	0	0	0	0	0	0	0	0	0	0	0	0	0	0	0	0		1	0	0	0	0	0	0	0
011813	11:08:24	10031	Trial2BackEng	N	3	0	1000	1	54	11:08:24	1430980	0	0	0	0	0	0	0	0	0	0	0	0	0	0	0	0	0	0	0	0	0	0		1	0	0	0	0	0	0	0
011813	11:08:24	10031	Trial2BackEng	N	3	0	1000	1	55	11:08:24	1432486	0	0	0	0	0	0	0	0	0	0	0	0	0	0	0	0	0	0	0	0	0	0		1	0	0	0	0	0	0	0
011813	11:08:24	10031	Trial2BackEng	N	3	0	1000	1	56	11:08:24	1433992	0	0	0	0	0	0	0	0	0	0	0	0	0	0	0	0	0	0	0	0	0	0		1	0	0	0	0	0	0	0
011813	11:08:24	10031	Trial2BackEng	N	3	0	1000	1	57	11:08:24	1435498	0	0	0	0	0	0	0	0	0	0	0	0	0	0	0	0	0	0	0	0	0	0		1	0	0	0	0	0	0	0
011813	11:08:24	10031	Trial2BackEng	Y	3	57	430	1	58	11:08:24	1436444	0	0	0	0	0	0	0	0	0	0	0	0	0	0	0	0	0	0	0	0	0	0		1	0	0	0	0	0	0	0
011813	11:08:24	10031	Trial2BackEng	N	3	0	1000	1	59	11:08:24	1438510	0	0	0	0	0	0	0	0	0	0	0	0	0	0	0	0	0	0	0	0	0	0		1	0	0	0	0	0	0	0
011813	11:08:24	10031	Trial2BackEng	N	3	0	1000	1	60	11:08:24	1440029	0	0	0	0	0	0	0	0	0	0	0	0	0	0	0	0	0	0	0	0	0	0		1	0	0	0	0	0	0	0
011813	11:08:24	10031	Trial2BackEng	Y	3	57	363	1	61	11:08:24	1440909	0	0	0	0	0	0	0	0	0	0	0	0	0	0	0	0	0	0	0	0	0	0		1	0	0	0	0	0	0	0
011813	11:08:24	10031	Trial2BackEng	N	3	0	1000	1	62	11:08:24	1443041	0	0	0	0	0	0	0	0	0	0	0	0	0	0	0	0	0	0	0	0	0	0		1	0	0	0	0	0	0	0
011813	11:08:24	10031	Trial2BackEng	N	3	0	1000	1	63	11:08:24	1444561	0	0	0	0	0	0	0	0	0	0	0	0	0	0	0	0	0	0	0	0	0	0		1	0	0	0	0	0	0	0
011813	11:08:24	10031	Trial2BackEng	N	3	0	1000	1	64	11:08:24	1446067	0	0	0	0	0	0	0	0	0	0	0	0	0	0	0	0	0	0	0	0	0	0		1	0	0	0	0	0	0	0
011813	11:08:24	10031	Trial2BackEng	N	3	0	1000	1	65	11:08:24	1447573	0	0	0	0	0	0	0	0	0	0	0	0	0	0	0	0	0	0	0	0	0	0		1	0	0	0	0	0	0	0
011813	11:08:24	10031	Trial2BackEng	N	3	0	1000	1	66	11:08:24	1449079	0	0	0	0	0	0	0	0	0	0	0	0	0	0	0	0	0	0	0	0	0	0		1	0	0	0	0	0	0	0
011813	11:08:24	10031	Trial2BackEng	N	3	0	1000	1	67	11:08:24	1450585	0	0	0	0	0	0	0	0	0	0	0	0	0	0	0	0	0	0	0	0	0	0		1	0	0	0	0	0	0	0
011813	11:08:24	10031	Trial2BackEng	N	3	0	1000	1	68	11:08:24	1452091	0	0	0	0	0	0	0	0	0	0	0	0	0	0	0	0	0	0	0	0	0	0		1	0	0	0	0	0	0	0
011813	11:08:24	10031	Trial2BackEng	N	3	0	1000	1	69	11:08:24	1453597	0	0	0	0	0	0	0	0	0	0	0	0	0	0	0	0	0	0	0	0	0	0		1	0	0	0	0	0	0	0
011813	11:08:24	10031	Trial2BackEng	N	3	0	1000	1	70	11:08:24	1455103	0	0	0	0	0	0	0	0	0	0	0	0	0	0	0	0	0	0	0	0	0	0		1	0	0	0	0	0	0	0
011813	11:08:24	10031	Trial2BackEng	N	3	0	1000	1	71	11:08:24	1456622	0	0	0	0	0	0	0	0	0	0	0	0	0	0	0	0	0	0	0	0	0	0		1	0	0	0	0	0	0	0
011813	11:08:24	10031	Trial2BackEng	Y	3	57	649	1	72	11:08:24	1457782	0	0	0	0	0	0	0	0	0	0	0	0	0	0	0	0	0	0	0	0	0	0		1	0	0	0	0	0	0	0
011813	11:08:24	10031	Trial2BackEng	N	3	0	1000	1	73	11:08:24	1459635	0	0	0	0	0	0	0	0	0	0	0	0	0	0	0	0	0	0	0	0	0	0		1	0	0	0	0	0	0	0
011813	11:08:24	10031	Trial2BackEng	N	3	0	1000	1	74	11:08:24	1461141	0	0	0	0	0	0	0	0	0	0	0	0	0	0	0	0	0	0	0	0	0	0		1	0	0	0	0	0	0	0
011813	11:08:24	10031	Trial2BackEng	N	3	0	1000	1	75	11:08:24	1462660	0	0	0	0	0	0	0	0	0	0	0	0	0	0	0	0	0	0	0	0	0	0		1	0	0	0	0	0	0	0
011813	11:08:24	10031	Trial2BackEng	Y	3	0	1000	0	75	11:08:24	1464166	0	0	0	0	0	0	0	0	0	0	0	0	0	0	0	0	0	0	0	0	0	0		1	0	0	0	0	0	0	0
011813	11:08:24	10031	Trial2BackEng	N	3	0	1000	1	76	11:08:24	1465672	0	0	0	0	0	0	0	0	0	0	0	0	0	0	0	0	0	0	0	0	0	0		1	0	0	0	0	0	0	0
011813	11:08:24	10031	Trial2BackEng	N	3	0	1000	1	77	11:08:24	1467178	0	0	0	0	0	0	0	0	0	0	0	0	0	0	0	0	0	0	0	0	0	0		1	0	0	0	0	0	0	0
011813	11:08:24	10031	Trial2BackEng	N	3	0	1000	1	78	11:08:24	1468684	0	0	0	0	0	0	0	0	0	0	0	0	0	0	0	0	0	0	0	0	0	0		1	0	0	0	0	0	0	0
011813	11:08:24	10031	Trial2BackEng	N	3	0	1000	1	79	11:08:24	1470203	0	0	0	0	0	0	0	0	0	0	0	0	0	0	0	0	0	0	0	0	0	0		1	0	0	0	0	0	0	0
011813	11:08:24	10031	Trial2BackEng	N	3	0	1000	1	80	11:08:24	1471709	0	0	0	0	0	0	0	0	0	0	0	0	0	0	0	0	0	0	0	0	0	0		1	0	0	0	0	0	0	0
011813	11:08:24	10031	Trial2BackEng	Y	3	0	1000	0	80	11:08:24	1473229	0	0	0	0	0	0	0	0	0	0	0	0	0	0	0	0	0	0	0	0	0	0		1	0	0	0	0	0	0	0
011813	11:08:24	10031	Trial2BackEng	N	3	0	1000	1	81	11:08:24	1474735	0	0	0	0	0	0	0	0	0	0	0	0	0	0	0	0	0	0	0	0	0	0		1	0	0	0	0	0	0	0
011813	11:08:24	10031	Trial2BackEng	N	3	0	1000	1	82	11:08:24	1476241	0	0	0	0	0	0	0	0	0	0	0	0	0	0	0	0	0	0	0	0	0	0		1	0	0	0	0	0	0	0
011813	11:08:24	10031	Trial2BackEng	N	3	0	1000	1	83	11:08:24	1477747	0	0	0	0	0	0	0	0	0	0	0	0	0	0	0	0	0	0	0	0	0	0		1	0	0	0	0	0	0	0
011813	11:08:24	10031	Trial2BackEng	N	3	0	1000	1	84	11:08:24	1479253	0	0	0	0	0	0	0	0	0	0	0	0	0	0	0	0	0	0	0	0	0	0		1	0	0	0	0	0	0	0
011813	11:08:24	10031	Trial2BackEng	N	3	0	1000	1	85	11:08:24	1480772	0	0	0	0	0	0	0	0	0	0	0	0	0	0	0	0	0	0	0	0	0	0		1	0	0	0	0	0	0	0
011813	11:08:24	10031	Trial2BackEng	N	3	0	1000	1	86	11:08:24	1482278	0	0	0	0	0	0	0	0	0	0	0	0	0	0	0	0	0	0	0	0	0	0		1	0	0	0	0	0	0	0
011813	11:08:24	10031	Trial2BackEng	N	3	0	1000	1	87	11:08:24	1483784	0	0	0	0	0	0	0	0	0	0	0	0	0	0	0	0	0	0	0	0	0	0		1	0	0	0	0	0	0	0
011813	11:08:24	10031	Trial2BackEng	N	3	0	1000	1	88	11:08:24	1485291	0	0	0	0	0	0	0	0	0	0	0	0	0	0	0	0	0	0	0	0	0	0		1	0	0	0	0	0	0	0
011813	11:08:24	10031	Trial2BackEng	N	3	0	1000	1	89	11:08:24	1486796	0	0	0	0	0	0	0	0	0	0	0	0	0	0	0	0	0	0	0	0	0	0		1	0	0	0	0	0	0	0
011813	11:08:24	10031	Trial2BackEng	Y	3	0	1000	0	89	11:08:24	1488303	0	0	0	0	0	0	0	0	0	0	0	0	0	0	0	0	0	0	0	0	0	0		1	0	0	0	0	0	0	0
011813	11:08:24	10031	Trial2BackEng	N	3	0	1000	1	90	11:08:24	1489809	0	0	0	0	0	0	0	0	0	0	0	0	0	0	0	0	0	0	0	0	0	0		1	0	0	0	0	0	0	0
011813	11:08:24	10031	Trial2BackEng	N	3	0	1000	1	91	11:08:24	1491315	0	0	0	0	0	0	0	0	0	0	0	0	0	0	0	0	0	0	0	0	0	0		1	0	0	0	0	0	0	0
011813	11:08:24	10031	Trial2BackEng	N	3	0	1000	1	92	11:08:24	1492834	0	0	0	0	0	0	0	0	0	0	0	0	0	0	0	0	0	0	0	0	0	0		1	0	0	0	0	0	0	0
011813	11:08:24	10031	Trial2BackEng	N	3	0	1000	1	93	11:08:24	1494340	0	0	0	0	0	0	0	0	0	0	0	0	0	0	0	0	0	0	0	0	0	0		1	0	0	0	0	0	0	0
011813	11:08:24	10031	Trial2BackEng	N	3	0	1000	1	94	11:08:24	1495846	0	0	0	0	0	0	0	0	0	0	0	0	0	0	0	0	0	0	0	0	0	0		1	0	0	0	0	0	0	0
011813	11:08:24	10031	Trial2BackEng	N	3	0	1000	1	95	11:08:24	1497352	0	0	0	0	0	0	0	0	0	0	0	0	0	0	0	0	0	0	0	0	0	0		1	0	0	0	0	0	0	0
011813	11:08:24	10031	Trial2BackEng	N	3	0	1000	1	96	11:08:24	1498872	0	0	0	0	0	0	0	0	0	0	0	0	0	0	0	0	0	0	0	0	0	0		1	0	0	0	0	0	0	0
011813	11:08:24	10031	Trial2BackEng	N	3	0	1000	1	97	11:08:24	1500378	0	0	0	0	0	0	0	0	0	0	0	0	0	0	0	0	0	0	0	0	0	0		1	0	0	0	0	0	0	0
011813	11:08:24	10031	Trial2BackEng	Y	3	57	652	1	98	11:08:24	1501550	0	0	0	0	0	0	0	0	0	0	0	0	0	0	0	0	0	0	0	0	0	0		1	0	0	0	0	0	0	0
011813	11:08:24	10031	Trial2BackEng	N	3	0	1000	1	99	11:08:24	1503390	0	0	0	0	0	0	0	0	0	0	0	0	0	0	0	0	0	0	0	0	0	0		1	0	0	0	0	0	0	0
011813	11:08:24	10031	Trial2BackEng	N	3	0	1000	1	100	11:08:24	1504909	0	0	0	0	0	0	0	0	0	0	0	0	0	0	0	0	0	0	0	0	0	0		1	0	0	0	0	0	0	0
011813	11:08:24	10031	Trial2BackEng	N	3	0	1000	1	101	11:08:24	1506415	0	0	0	0	0	0	0	0	0	0	0	0	0	0	0	0	0	0	0	0	0	0		1	0	0	0	0	0	0	0
011813	11:08:24	10031	Trial2BackEng	N	3	0	1000	1	102	11:08:24	1507921	0	0	0	0	0	0	0	0	0	0	0	0	0	0	0	0	0	0	0	0	0	0		1	0	0	0	0	0	0	0
011813	11:08:24	10031	Trial2BackEng	Y	3	57	629	1	103	11:08:24	1509067	0	0	0	0	0	0	0	0	0	0	0	0	0	0	0	0	0	0	0	0	0	0		1	0	0	0	0	0	0	0
011813	11:08:24	10031	Trial2BackEng	N	3	0	1000	1	104	11:08:24	1510933	0	0	0	0	0	0	0	0	0	0	0	0	0	0	0	0	0	0	0	0	0	0		1	0	0	0	0	0	0	0
011813	11:08:24	10031	Trial2BackEng	N	3	0	1000	1	105	11:08:24	1512439	0	0	0	0	0	0	0	0	0	0	0	0	0	0	0	0	0	0	0	0	0	0		1	0	0	0	0	0	0	0
011813	11:08:24	10031	Trial2BackEng	N	3	0	1000	1	106	11:08:24	1513945	0	0	0	0	0	0	0	0	0	0	0	0	0	0	0	0	0	0	0	0	0	0		1	0	0	0	0	0	0	0
011813	11:08:24	10031	Trial2BackEng	Y	3	0	1000	0	106	11:08:24	1515451	0	0	0	0	0	0	0	0	0	0	0	0	0	0	0	0	0	0	0	0	0	0		1	0	0	0	0	0	0	0
011813	11:08:24	10031	Trial2BackEng	N	3	0	1000	1	107	11:08:24	1516971	0	0	0	0	0	0	0	0	0	0	0	0	0	0	0	0	0	0	0	0	0	0		1	0	0	0	0	0	0	0
011813	11:08:24	10031	Trial2BackEng	N	3	0	1000	1	108	11:08:24	1518477	0	0	0	0	0	0	0	0	0	0	0	0	0	0	0	0	0	0	0	0	0	0		1	0	0	0	0	0	0	0
011813	11:08:24	10031	Trial2BackEng	N	3	57	537	0	108	11:08:24	1519529	0	0	0	0	0	0	0	0	0	0	0	0	0	0	0	0	0	0	0	0	0	0		1	0	0	0	0	0	0	0
011813	11:08:24	10031	Trial2BackEng	N	3	0	1000	1	109	11:08:24	1521489	0	0	0	0	0	0	0	0	0	0	0	0	0	0	0	0	0	0	0	0	0	0		1	0	0	0	0	0	0	0
011813	11:08:24	10031	Trial2BackEng	N	3	0	1000	1	110	11:08:24	1523008	0	0	0	0	0	0	0	0	0	0	0	0	0	0	0	0	0	0	0	0	0	0		1	0	0	0	0	0	0	0
011813	11:08:24	10031	Trial2BackEng	Y	3	0	1000	0	110	11:08:24	1524514	0	0	0	0	0	0	0	0	0	0	0	0	0	0	0	0	0	0	0	0	0	0		1	0	0	0	0	0	0	0
011813	11:08:24	10031	Trial2BackEng	N	3	0	1000	1	111	11:08:24	1526020	0	0	0	0	0	0	0	0	0	0	0	0	0	0	0	0	0	0	0	0	0	0		1	0	0	0	0	0	0	0
011813	11:08:24	10031	Trial2BackEng	N	3	0	1000	1	112	11:08:24	1527540	0	0	0	0	0	0	0	0	0	0	0	0	0	0	0	0	0	0	0	0	0	0		1	0	0	0	0	0	0	0
011813	11:08:24	10031	Trial2BackEng	N	3	0	1000	1	113	11:08:24	1529046	0	0	0	0	0	0	0	0	0	0	0	0	0	0	0	0	0	0	0	0	0	0		1	0	0	0	0	0	0	0
011813	11:08:24	10031	Trial2BackEng	Y	3	57	655	1	114	11:08:24	1530219	0	0	0	0	0	0	0	0	0	0	0	0	0	0	0	0	0	0	0	0	0	0		1	0	0	0	0	0	0	0
011813	11:08:24	10031	Memory1R6mo	Score	5	M3	20353	0	114	11:08:24	1617796	0	0	0	0	0	0	0	0	0	0	0	0	0	0	0	0	0	0	0	0	0	0		1	0	0	0	0	0	0	0
011813	11:08:24	10031	Memory1R6mo	Score	5	M4	292	0	114	11:08:24	1618142	0	0	0	0	0	0	0	0	0	0	0	0	0	0	0	0	0	0	0	0	0	0		1	0	0	0	0	0	0	0
011813	11:08:24	10031	Memory1R6mo	Score	5	M5	321	0	114	11:08:24	1618515	0	0	0	0	0	0	0	0	0	0	0	0	0	0	0	0	0	0	0	0	0	0		1	0	0	0	0	0	0	0
011813	11:08:24	10031	Memory1R6mo	Score	5	M7	436	0	114	11:08:24	1618995	0	0	0	0	0	0	0	0	0	0	0	0	0	0	0	0	0	0	0	0	0	0		1	0	0	0	0	0	0	0
011813	11:08:24	10031	Memory1R6mo	Score	5	M8	252	0	114	11:08:24	1619302	0	0	0	0	0	0	0	0	0	0	0	0	0	0	0	0	0	0	0	0	0	0		1	0	0	0	0	0	0	0
011813	11:08:24	10031	Memory1R6mo	Score	5	Done	4578	0	114	11:08:24	1623926	0	0	0	0	0	0	0	0	0	0	0	0	0	0	0	0	0	0	0	0	0	0		1	0	0	0	0	0	0	0
011813	11:08:24	10031	Memory2R6mo	Score2	5	11	12419	0	114	11:08:24	1656326	0	0	0	0	0	0	0	0	0	0	0	0	0	0	0	0	0	0	0	0	0	0		1	0	0	0	0	0	0	0
011813	11:08:24	10031	Memory2R6mo	Score2	5	22	184	0	114	11:08:24	1656566	0	0	0	0	0	0	0	0	0	0	0	0	0	0	0	0	0	0	0	0	0	0		1	0	0	0	0	0	0	0
011813	11:08:24	10031	Memory2R6mo	Score2	5	33	175	0	114	11:08:24	1656793	0	0	0	0	0	0	0	0	0	0	0	0	0	0	0	0	0	0	0	0	0	0		1	0	0	0	0	0	0	0
011813	11:08:24	10031	Memory2R6mo	Score2	5	33	205	0	114	11:08:24	1657046	0	0	0	0	0	0	0	0	0	0	0	0	0	0	0	0	0	0	0	0	0	0		1	0	0	0	0	0	0	0
011813	11:08:24	10031	Memory2R6mo	Score2	5	33	448	0	114	11:08:24	1657539	0	0	0	0	0	0	0	0	0	0	0	0	0	0	0	0	0	0	0	0	0	0		1	0	0	0	0	0	0	0
011813	11:08:24	10031	Memory2R6mo	Score2	5	44	211	0	114	11:08:24	1657806	0	0	0	0	0	0	0	0	0	0	0	0	0	0	0	0	0	0	0	0	0	0		1	0	0	0	0	0	0	0
011813	11:08:24	10031	Memory2R6mo	Score2	5	55	188	0	114	11:08:24	1658059	0	0	0	0	0	0	0	0	0	0	0	0	0	0	0	0	0	0	0	0	0	0		1	0	0	0	0	0	0	0
011813	11:08:24	10031	Memory2R6mo	Score2	5	77	291	0	114	11:08:24	1658405	0	0	0	0	0	0	0	0	0	0	0	0	0	0	0	0	0	0	0	0	0	0		1	0	0	0	0	0	0	0
011813	11:08:24	10031	Memory2R6mo	Score2	5	66	497	0	114	11:08:24	1658952	0	0	0	0	0	0	0	0	0	0	0	0	0	0	0	0	0	0	0	0	0	0		1	0	0	0	0	0	0	0
011813	11:08:24	10031	Memory2R6mo	Score2	5	88	478	0	114	11:08:24	1659485	0	0	0	0	0	0	0	0	0	0	0	0	0	0	0	0	0	0	0	0	0	0		1	0	0	0	0	0	0	0
011813	11:08:24	10031	Memory2R6mo	Score2	5	Done	441	0	114	11:08:24	1659978	0	0	0	0	0	0	0	0	0	0	0	0	0	0	0	0	0	0	0	0	0	0		1	0	0	0	0	0	0	0
011813	11:08:24	10031	Memory3R6mo	Score3	5	111	10059	0	114	11:08:24	1689646	0	0	0	0	0	0	0	0	0	0	0	0	0	0	0	0	0	0	0	0	0	0		1	0	0	0	0	0	0	0
011813	11:08:24	10031	Memory3R6mo	Score3	5	222	222	0	114	11:08:24	1689926	0	0	0	0	0	0	0	0	0	0	0	0	0	0	0	0	0	0	0	0	0	0		1	0	0	0	0	0	0	0
011813	11:08:24	10031	Memory3R6mo	Score3	5	333	239	0	114	11:08:24	1690219	0	0	0	0	0	0	0	0	0	0	0	0	0	0	0	0	0	0	0	0	0	0		1	0	0	0	0	0	0	0
011813	11:08:24	10031	Memory3R6mo	Score3	5	444	323	0	114	11:08:24	1690592	0	0	0	0	0	0	0	0	0	0	0	0	0	0	0	0	0	0	0	0	0	0		1	0	0	0	0	0	0	0
011813	11:08:24	10031	Memory3R6mo	Score3	5	555	349	0	114	11:08:24	1690992	0	0	0	0	0	0	0	0	0	0	0	0	0	0	0	0	0	0	0	0	0	0		1	0	0	0	0	0	0	0
011813	11:08:24	10031	Memory3R6mo	Score3	5	666	181	0	114	11:08:24	1691218	0	0	0	0	0	0	0	0	0	0	0	0	0	0	0	0	0	0	0	0	0	0		1	0	0	0	0	0	0	0
011813	11:08:24	10031	Memory3R6mo	Score3	5	888	339	0	114	11:08:24	1691605	0	0	0	0	0	0	0	0	0	0	0	0	0	0	0	0	0	0	0	0	0	0		1	0	0	0	0	0	0	0
011813	11:08:24	10031	Memory3R6mo	Score3	5	777	560	0	114	11:08:24	1692218	0	0	0	0	0	0	0	0	0	0	0	0	0	0	0	0	0	0	0	0	0	0		1	0	0	0	0	0	0	0
011813	11:08:24	10031	Memory3R6mo	Score3	5	Done	715	0	114	11:08:24	1692978	0	0	0	0	0	0	0	0	0	0	0	0	0	0	0	0	0	0	0	0	0	0		1	0	0	0	0	0	0	0
011813	11:08:24	10031	LoriaEngLH3	Stop	6	5	5673	0	114	11:08:24	1751528	0	0	0	0	0	0	0	0	0	0	0	0	0	0	0	0	0	0	0	0	0	0		1	0	0	0	0	0	0	0
011813	11:08:24	10031	EngTrail	Trails	7	1Trails	1067	0	114	11:08:24	1775744	0	0	0	0	0	0	0	0	0	0	0	0	0	0	0	0	0	0	0	0	0	0		1	0	0	0	0	0	0	0
011813	11:08:24	10031	Serial7Eng6mo	Serial7Eng6mo	8	73	16821	0	114	11:08:24	1801656	1	0	0	0	0	0	0	0	0	0	0	0	0	0	0	0	0	0	0	0	0	0		1	0	0	0	0	0	0	0
011813	11:08:24	10031	Serial7Eng6mo	Serial7Eng6mo	8	66	8429	0	114	11:08:24	1810106	2	0	0	0	0	0	0	0	0	0	0	0	0	0	0	0	0	0	0	0	0	0		1	0	0	0	0	0	0	0
011813	11:08:24	10031	Serial7Eng6mo	Serial7Eng6mo	8	59	7995	0	114	11:08:24	1818117	3	0	0	0	0	0	0	0	0	0	0	0	0	0	0	0	0	0	0	0	0	0		1	0	0	0	0	0	0	0
011813	11:08:24	10031	Serial7Eng6mo	Serial7Eng6mo	8	52	4010	0	114	11:08:24	1822142	4	0	0	0	0	0	0	0	0	0	0	0	0	0	0	0	0	0	0	0	0	0		1	0	0	0	0	0	0	0
011813	11:08:24	10031	Serial7Eng6mo	Serial7Eng6mo	8	46	4513	0	114	11:08:24	1826676	4	0	0	0	0	0	0	0	0	0	0	0	0	0	0	0	0	0	0	0	0	0		1	0	0	0	0	0	0	0
011813	11:08:24	10031	corsiblockEngFwrd	recallseqEngFwrd	9	5	1950	0	114	11:08:24	1859221	4	0	0	0	0	0	0	0	0	0	0	0	0	0	0	0	0	0	0	0	0	0		1	0	0	0	0	0	0	0
011813	11:08:24	10031	corsiblockEngFwrd	recallseqEngFwrd	9	4	1104	0	114	11:08:24	1860380	4	0	0	0	0	0	0	0	0	0	0	0	0	0	0	0	0	0	0	0	0	0		1	0	0	0	0	0	0	0
011813	11:08:24	10031	corsiblockEngFwrd	recallseqEngFwrd	9	doneCorsiEng	1416	0	114	11:08:24	1861846	4	0	0	0	0	0	0	0	0	0	0	0	0	0	0	2	0	0	0	0	0	0		1	0	0	0	0	0	0	0
011813	11:08:24	10031	corsiblockEngFwrd	recallseqEngFwrd	9	8	1403	0	114	11:08:24	1869390	4	0	0	0	0	0	0	0	0	0	0	0	0	0	0	2	0	0	0	0	0	0		1	0	0	0	0	0	0	0
011813	11:08:24	10031	corsiblockEngFwrd	recallseqEngFwrd	9	1	1558	0	114	11:08:24	1871002	4	0	0	0	0	0	0	0	0	0	0	0	0	0	0	2	0	0	0	0	0	0		1	0	0	0	0	0	0	0
011813	11:08:24	10031	corsiblockEngFwrd	recallseqEngFwrd	9	2	1337	0	114	11:08:24	1872389	4	0	0	0	0	0	0	0	0	0	0	0	0	0	0	2	0	0	0	0	0	0		1	0	0	0	0	0	0	0
011813	11:08:24	10031	corsiblockEngFwrd	recallseqEngFwrd	9	doneCorsiEng	1367	0	114	11:08:24	1873801	4	0	0	0	0	0	0	0	0	0	0	0	0	0	0	3	0	0	0	0	0	0		1	0	0	0	0	0	0	0
011813	11:08:24	10031	corsiblockEngFwrd	recallseqEngFwrd	9	9	1181	0	114	11:08:24	1882104	4	0	0	0	0	0	0	0	0	0	0	0	0	0	0	3	0	0	0	0	0	0		1	0	0	0	0	0	0	0
011813	11:08:24	10031	corsiblockEngFwrd	recallseqEngFwrd	9	3	1315	0	114	11:08:24	1883464	4	0	0	0	0	0	0	0	0	0	0	0	0	0	0	3	0	0	0	0	0	0		1	0	0	0	0	0	0	0
011813	11:08:24	10031	corsiblockEngFwrd	recallseqEngFwrd	9	7	980	0	114	11:08:24	1884490	4	0	0	0	0	0	0	0	0	0	0	0	0	0	0	3	0	0	0	0	0	0		1	0	0	0	0	0	0	0
011813	11:08:24	10031	corsiblockEngFwrd	recallseqEngFwrd	9	6	1425	0	114	11:08:24	1885969	4	0	0	0	0	0	0	0	0	0	0	0	0	0	0	3	0	0	0	0	0	0		1	0	0	0	0	0	0	0
011813	11:08:24	10031	corsiblockEngFwrd	recallseqEngFwrd	9	doneCorsiEng	1522	0	114	11:08:24	1887542	4	0	0	0	0	0	0	0	0	0	0	0	0	0	0	4	0	0	0	0	0	0		1	0	0	0	0	0	0	0
011813	11:08:24	10031	corsiblockEngFwrd	recallseqEngFwrd	9	1	1552	0	114	11:08:24	1897218	4	0	0	0	0	0	0	0	0	0	0	0	0	0	0	4	0	0	0	0	0	0		1	0	0	0	0	0	0	0
011813	11:08:24	10031	corsiblockEngFwrd	recallseqEngFwrd	9	4	1337	0	114	11:08:24	1898604	4	0	0	0	0	0	0	0	0	0	0	0	0	0	0	4	0	0	0	0	0	0		1	0	0	0	0	0	0	0
011813	11:08:24	10031	corsiblockEngFwrd	recallseqEngFwrd	9	6	639	0	114	11:08:24	1899297	4	0	0	0	0	0	0	0	0	0	0	0	0	0	0	4	0	0	0	0	0	0		1	0	0	0	0	0	0	0
011813	11:08:24	10031	corsiblockEngFwrd	recallseqEngFwrd	9	3	762	0	114	11:08:24	1900110	4	0	0	0	0	0	0	0	0	0	0	0	0	0	0	4	0	0	0	0	0	0		1	0	0	0	0	0	0	0
011813	11:08:24	10031	corsiblockEngFwrd	recallseqEngFwrd	9	8	1084	0	114	11:08:24	1901243	4	0	0	0	0	0	0	0	0	0	0	0	0	0	0	4	0	0	0	0	0	0		1	0	0	0	0	0	0	0
011813	11:08:24	10031	corsiblockEngFwrd	recallseqEngFwrd	9	doneCorsiEng	1314	0	114	11:08:24	1902616	4	0	0	0	0	0	0	0	0	0	0	0	0	0	0	5	0	0	0	0	0	0		1	0	0	0	0	0	0	0
011813	11:08:24	10031	corsiblockEngFwrd	recallseqEngFwrd	9	2	1353	0	114	11:08:24	1913105	4	0	0	0	0	0	0	0	0	0	0	0	0	0	0	5	0	0	0	0	0	0		1	0	0	0	0	0	0	0
011813	11:08:24	10031	corsiblockEngFwrd	recallseqEngFwrd	9	9	889	0	114	11:08:24	1914051	4	0	0	0	0	0	0	0	0	0	0	0	0	0	0	5	0	0	0	0	0	0		1	0	0	0	0	0	0	0
011813	11:08:24	10031	corsiblockEngFwrd	recallseqEngFwrd	9	8	903	0	114	11:08:24	1915011	4	0	0	0	0	0	0	0	0	0	0	0	0	0	0	5	0	0	0	0	0	0		1	0	0	0	0	0	0	0
011813	11:08:24	10031	corsiblockEngFwrd	recallseqEngFwrd	9	7	776	0	114	11:08:24	1915837	4	0	0	0	0	0	0	0	0	0	0	0	0	0	0	5	0	0	0	0	0	0		1	0	0	0	0	0	0	0
011813	11:08:24	10031	corsiblockEngFwrd	recallseqEngFwrd	9	5	765	0	114	11:08:24	1916650	4	0	0	0	0	0	0	0	0	0	0	0	0	0	0	5	0	0	0	0	0	0		1	0	0	0	0	0	0	0
011813	11:08:24	10031	corsiblockEngFwrd	recallseqEngFwrd	9	doneCorsiEng	840	0	114	11:08:24	1917543	4	0	0	0	0	0	0	0	0	0	0	0	0	0	0	5	0	0	0	0	0	0		1	0	0	0	0	0	0	0
011813	11:08:24	10031	corsiblockEngFwrd	recallseqEngFwrd	9	1	1735	0	114	11:08:24	1928365	4	0	0	0	0	0	0	0	0	0	0	0	0	0	0	5	0	0	0	0	0	0		1	0	0	0	0	0	0	0
011813	11:08:24	10031	corsiblockEngFwrd	recallseqEngFwrd	9	4	1181	0	114	11:08:24	1929591	4	0	0	0	0	0	0	0	0	0	0	0	0	0	0	5	0	0	0	0	0	0		1	0	0	0	0	0	0	0
011813	11:08:24	10031	corsiblockEngFwrd	recallseqEngFwrd	9	6	730	0	114	11:08:24	1930378	4	0	0	0	0	0	0	0	0	0	0	0	0	0	0	5	0	0	0	0	0	0		1	0	0	0	0	0	0	0
011813	11:08:24	10031	corsiblockEngFwrd	recallseqEngFwrd	9	2	840	0	114	11:08:24	1931271	4	0	0	0	0	0	0	0	0	0	0	0	0	0	0	5	0	0	0	0	0	0		1	0	0	0	0	0	0	0
011813	11:08:24	10031	corsiblockEngFwrd	recallseqEngFwrd	9	3	747	0	114	11:08:24	1932070	4	0	0	0	0	0	0	0	0	0	0	0	0	0	0	5	0	0	0	0	0	0		1	0	0	0	0	0	0	0
011813	11:08:24	10031	corsiblockEngFwrd	recallseqEngFwrd	9	9	763	0	114	11:08:24	1932884	4	0	0	0	0	0	0	0	0	0	0	0	0	0	0	5	0	0	0	0	0	0		1	0	0	0	0	0	0	0
011813	11:08:24	10031	corsiblockEngFwrd	recallseqEngFwrd	9	doneCorsiEng	1086	0	114	11:08:24	1934016	4	0	0	0	0	0	0	0	0	0	0	0	0	0	0	5	0	0	0	0	0	0		1	0	0	0	0	0	0	0
011813	11:08:24	10031	corsiblockEngRev	recallseqEngRev	10	9	1729	0	114	11:08:24	1947677	4	0	0	0	0	0	0	0	0	0	0	0	0	0	0	5	0	0	0	0	0	0		1	0	0	0	0	0	0	0
011813	11:08:24	10031	corsiblockEngRev	recallseqEngRev	10	5	1780	0	114	11:08:24	1949503	4	0	0	0	0	0	0	0	0	0	0	0	0	0	0	5	0	0	0	0	0	0		1	0	0	0	0	0	0	0
011813	11:08:24	10031	corsiblockEngRev	recallseqEngRev	10	doneCorsiEng	602	0	114	11:08:24	1950156	4	0	0	0	0	0	0	0	0	0	0	0	0	0	0	5	2	0	0	0	0	0		1	0	0	0	0	0	0	0
011813	11:08:24	10031	corsiblockEngRev	recallseqEngRev	10	3	1343	0	114	11:08:24	1957633	4	0	0	0	0	0	0	0	0	0	0	0	0	0	0	5	2	0	0	0	0	0		1	0	0	0	0	0	0	0
011813	11:08:24	10031	corsiblockEngRev	recallseqEngRev	10	8	904	0	114	11:08:24	1958593	4	0	0	0	0	0	0	0	0	0	0	0	0	0	0	5	2	0	0	0	0	0		1	0	0	0	0	0	0	0
011813	11:08:24	10031	corsiblockEngRev	recallseqEngRev	10	4	736	0	114	11:08:24	1959379	4	0	0	0	0	0	0	0	0	0	0	0	0	0	0	5	2	0	0	0	0	0		1	0	0	0	0	0	0	0
011813	11:08:24	10031	corsiblockEngRev	recallseqEngRev	10	doneCorsiEng	806	0	114	11:08:24	1960232	4	0	0	0	0	0	0	0	0	0	0	0	0	0	0	5	3	0	0	0	0	0		1	0	0	0	0	0	0	0
011813	11:08:24	10031	corsiblockEngRev	recallseqEngRev	10	2	683	0	114	11:08:24	1968042	4	0	0	0	0	0	0	0	0	0	0	0	0	0	0	5	3	0	0	0	0	0		1	0	0	0	0	0	0	0
011813	11:08:24	10031	corsiblockEngRev	recallseqEngRev	10	6	791	0	114	11:08:24	1968882	4	0	0	0	0	0	0	0	0	0	0	0	0	0	0	5	3	0	0	0	0	0		1	0	0	0	0	0	0	0
011813	11:08:24	10031	corsiblockEngRev	recallseqEngRev	10	7	775	0	114	11:08:24	1969708	4	0	0	0	0	0	0	0	0	0	0	0	0	0	0	5	3	0	0	0	0	0		1	0	0	0	0	0	0	0
011813	11:08:24	10031	corsiblockEngRev	recallseqEngRev	10	1	828	0	114	11:08:24	1970588	4	0	0	0	0	0	0	0	0	0	0	0	0	0	0	5	3	0	0	0	0	0		1	0	0	0	0	0	0	0
011813	11:08:24	10031	corsiblockEngRev	recallseqEngRev	10	doneCorsiEng	989	0	114	11:08:24	1971627	4	0	0	0	0	0	0	0	0	0	0	0	0	0	0	5	4	0	0	0	0	0		1	0	0	0	0	0	0	0
011813	11:08:24	10031	corsiblockEngRev	recallseqEngRev	10	2	1296	0	114	11:08:24	1981050	4	0	0	0	0	0	0	0	0	0	0	0	0	0	0	5	4	0	0	0	0	0		1	0	0	0	0	0	0	0
011813	11:08:24	10031	corsiblockEngRev	recallseqEngRev	10	7	590	0	114	11:08:24	1981690	4	0	0	0	0	0	0	0	0	0	0	0	0	0	0	5	4	0	0	0	0	0		1	0	0	0	0	0	0	0
011813	11:08:24	10031	corsiblockEngRev	recallseqEngRev	10	8	638	0	114	11:08:24	1982383	4	0	0	0	0	0	0	0	0	0	0	0	0	0	0	5	4	0	0	0	0	0		1	0	0	0	0	0	0	0
011813	11:08:24	10031	corsiblockEngRev	recallseqEngRev	10	4	593	0	114	11:08:24	1983023	4	0	0	0	0	0	0	0	0	0	0	0	0	0	0	5	4	0	0	0	0	0		1	0	0	0	0	0	0	0
011813	11:08:24	10031	corsiblockEngRev	recallseqEngRev	10	9	745	0	114	11:08:24	1983822	4	0	0	0	0	0	0	0	0	0	0	0	0	0	0	5	4	0	0	0	0	0		1	0	0	0	0	0	0	0
011813	11:08:24	10031	corsiblockEngRev	recallseqEngRev	10	doneCorsiEng	1218	0	114	11:08:24	1985089	4	0	0	0	0	0	0	0	0	0	0	0	0	0	0	5	5	0	0	0	0	0		1	0	0	0	0	0	0	0
011813	11:08:24	10031	corsiblockEngRev	recallseqEngRev	10	9	1579	0	114	11:08:24	1995791	4	0	0	0	0	0	0	0	0	0	0	0	0	0	0	5	5	0	0	0	0	0		1	0	0	0	0	0	0	0
011813	11:08:24	10031	corsiblockEngRev	recallseqEngRev	10	3	969	0	114	11:08:24	1996804	4	0	0	0	0	0	0	0	0	0	0	0	0	0	0	5	5	0	0	0	0	0		1	0	0	0	0	0	0	0
011813	11:08:24	10031	corsiblockEngRev	recallseqEngRev	10	5	996	0	114	11:08:24	1997857	4	0	0	0	0	0	0	0	0	0	0	0	0	0	0	5	5	0	0	0	0	0		1	0	0	0	0	0	0	0
011813	11:08:24	10031	corsiblockEngRev	recallseqEngRev	10	6	543	0	114	11:08:24	1998456	4	0	0	0	0	0	0	0	0	0	0	0	0	0	0	5	5	0	0	0	0	0		1	0	0	0	0	0	0	0
011813	11:08:24	10031	corsiblockEngRev	recallseqEngRev	10	3	663	0	114	11:08:24	1999176	4	0	0	0	0	0	0	0	0	0	0	0	0	0	0	5	5	0	0	0	0	0		1	0	0	0	0	0	0	0
011813	11:08:24	10031	corsiblockEngRev	recallseqEngRev	10	1	696	0	114	11:08:24	1999922	4	0	0	0	0	0	0	0	0	0	0	0	0	0	0	5	5	0	0	0	0	0		1	0	0	0	0	0	0	0
011813	11:08:24	10031	corsiblockEngRev	recallseqEngRev	10	doneCorsiEng	2461	0	114	11:08:24	2002428	4	0	0	0	0	0	0	0	0	0	0	0	0	0	0	5	6	0	0	0	0	0		1	0	0	0	0	0	0	0
011813	11:08:24	10031	corsiblockEngRev	recallseqEngRev	10	8	943	0	114	11:08:24	2013503	4	0	0	0	0	0	0	0	0	0	0	0	0	0	0	5	6	0	0	0	0	0		1	0	0	0	0	0	0	0
011813	11:08:24	10031	corsiblockEngRev	recallseqEngRev	10	6	759	0	114	11:08:24	2014316	4	0	0	0	0	0	0	0	0	0	0	0	0	0	0	5	6	0	0	0	0	0		1	0	0	0	0	0	0	0
011813	11:08:24	10031	corsiblockEngRev	recallseqEngRev	10	2	691	0	114	11:08:24	2015063	4	0	0	0	0	0	0	0	0	0	0	0	0	0	0	5	6	0	0	0	0	0		1	0	0	0	0	0	0	0
011813	11:08:24	10031	corsiblockEngRev	recallseqEngRev	10	7	712	0	114	11:08:24	2015822	4	0	0	0	0	0	0	0	0	0	0	0	0	0	0	5	6	0	0	0	0	0		1	0	0	0	0	0	0	0
011813	11:08:24	10031	corsiblockEngRev	recallseqEngRev	10	4	736	0	114	11:08:24	2016609	4	0	0	0	0	0	0	0	0	0	0	0	0	0	0	5	6	0	0	0	0	0		1	0	0	0	0	0	0	0
011813	11:08:24	10031	corsiblockEngRev	recallseqEngRev	10	5	574	0	114	11:08:24	2017235	4	0	0	0	0	0	0	0	0	0	0	0	0	0	0	5	6	0	0	0	0	0		1	0	0	0	0	0	0	0
011813	11:08:24	10031	corsiblockEngRev	recallseqEngRev	10	1	716	0	114	11:08:24	2017995	4	0	0	0	0	0	0	0	0	0	0	0	0	0	0	5	6	0	0	0	0	0		1	0	0	0	0	0	0	0
011813	11:08:24	10031	corsiblockEngRev	recallseqEngRev	10	doneCorsiEng	1028	0	114	11:08:24	2019074	4	0	0	0	0	0	0	0	0	0	0	0	0	0	0	5	7	0	0	0	0	0		1	0	0	0	0	0	0	0
011813	11:08:24	10031	corsiblockEngRev	recallseqEngRev	10	2	891	0	114	11:08:24	2031109	4	0	0	0	0	0	0	0	0	0	0	0	0	0	0	5	7	0	0	0	0	0		1	0	0	0	0	0	0	0
011813	11:08:24	10031	corsiblockEngRev	recallseqEngRev	10	8	864	0	114	11:08:24	2032029	4	0	0	0	0	0	0	0	0	0	0	0	0	0	0	5	7	0	0	0	0	0		1	0	0	0	0	0	0	0
011813	11:08:24	10031	corsiblockEngRev	recallseqEngRev	10	6	705	0	114	11:08:24	2032789	4	0	0	0	0	0	0	0	0	0	0	0	0	0	0	5	7	0	0	0	0	0		1	0	0	0	0	0	0	0
011813	11:08:24	10031	corsiblockEngRev	recallseqEngRev	10	9	930	0	114	11:08:24	2033775	4	0	0	0	0	0	0	0	0	0	0	0	0	0	0	5	7	0	0	0	0	0		1	0	0	0	0	0	0	0
011813	11:08:24	10031	corsiblockEngRev	recallseqEngRev	10	4	791	0	114	11:08:24	2034615	4	0	0	0	0	0	0	0	0	0	0	0	0	0	0	5	7	0	0	0	0	0		1	0	0	0	0	0	0	0
011813	11:08:24	10031	corsiblockEngRev	recallseqEngRev	10	7	744	0	114	11:08:24	2035414	4	0	0	0	0	0	0	0	0	0	0	0	0	0	0	5	7	0	0	0	0	0		1	0	0	0	0	0	0	0
011813	11:08:24	10031	corsiblockEngRev	recallseqEngRev	10	5	856	0	114	11:08:24	2036320	4	0	0	0	0	0	0	0	0	0	0	0	0	0	0	5	7	0	0	0	0	0		1	0	0	0	0	0	0	0
011813	11:08:24	10031	corsiblockEngRev	recallseqEngRev	10	1	902	0	114	11:08:24	2037267	4	0	0	0	0	0	0	0	0	0	0	0	0	0	0	5	7	0	0	0	0	0		1	0	0	0	0	0	0	0
011813	11:08:24	10031	corsiblockEngRev	recallseqEngRev	10	doneCorsiEng	2011	0	114	11:08:24	2039333	4	0	0	0	0	0	0	0	0	0	0	0	0	0	0	5	7	0	0	0	0	0		1	0	0	0	0	0	0	0
011813	11:08:24	10031	corsiblockEngRev	recallseqEngRev	10	4	782	0	114	11:08:24	2051194	4	0	0	0	0	0	0	0	0	0	0	0	0	0	0	5	7	0	0	0	0	0		1	0	0	0	0	0	0	0
011813	11:08:24	10031	corsiblockEngRev	recallseqEngRev	10	7	747	0	114	11:08:24	2051994	4	0	0	0	0	0	0	0	0	0	0	0	0	0	0	5	7	0	0	0	0	0		1	0	0	0	0	0	0	0
011813	11:08:24	10031	corsiblockEngRev	recallseqEngRev	10	3	860	0	114	11:08:24	2052900	4	0	0	0	0	0	0	0	0	0	0	0	0	0	0	5	7	0	0	0	0	0		1	0	0	0	0	0	0	0
011813	11:08:24	10031	corsiblockEngRev	recallseqEngRev	10	2	769	0	114	11:08:24	2053727	4	0	0	0	0	0	0	0	0	0	0	0	0	0	0	5	7	0	0	0	0	0		1	0	0	0	0	0	0	0
011813	11:08:24	10031	corsiblockEngRev	recallseqEngRev	10	8	879	0	114	11:08:24	2054660	4	0	0	0	0	0	0	0	0	0	0	0	0	0	0	5	7	0	0	0	0	0		1	0	0	0	0	0	0	0
011813	11:08:24	10031	corsiblockEngRev	recallseqEngRev	10	6	826	0	114	11:08:24	2055539	4	0	0	0	0	0	0	0	0	0	0	0	0	0	0	5	7	0	0	0	0	0		1	0	0	0	0	0	0	0
011813	11:08:24	10031	corsiblockEngRev	recallseqEngRev	10	1	826	0	114	11:08:24	2056419	4	0	0	0	0	0	0	0	0	0	0	0	0	0	0	5	7	0	0	0	0	0		1	0	0	0	0	0	0	0
011813	11:08:24	10031	corsiblockEngRev	recallseqEngRev	10	doneCorsiEng	1411	0	114	11:08:24	2057885	4	0	0	0	0	0	0	0	0	0	0	0	0	0	0	5	7	0	0	0	0	0		1	0	0	0	0	0	0	0
011813	11:08:24	10031	testEng6mo	WordsEng6mo	11	1Eng6mo	33245	0	114	11:08:24	2112476	4	3	0	0	0	0	0	0	0	0	0	0	0	0	0	5	7	0	0	0	0	0		1	0	0	0	0	0	0	0
011813	11:08:24	10031	testEng6mo	WordsEng6mo	11	2Eng6mo	489	0	114	11:08:24	2113009	4	3	3	0	0	0	0	0	0	0	0	0	0	0	0	5	7	0	0	0	0	0		1	0	0	0	0	0	0	0
011813	11:08:24	10031	testEng6mo	WordsEng6mo	11	3Eng6mo	235	0	114	11:08:24	2113289	4	3	3	3	0	0	0	0	0	0	0	0	0	0	0	5	7	0	0	0	0	0		1	0	0	0	0	0	0	0
011813	11:08:24	10031	testEng6mo	WordsEng6mo	11	4Eng6mo	268	0	114	11:08:24	2113608	4	3	3	3	3	0	0	0	0	0	0	0	0	0	0	5	7	0	0	0	0	0		1	0	0	0	0	0	0	0
011813	11:08:24	10031	testEng6mo	WordsEng6mo	11	5Eng6mo	1172	0	114	11:08:24	2114835	4	3	3	3	3	3	0	0	0	0	0	0	0	0	0	5	7	0	0	0	0	0		1	0	0	0	0	0	0	0
011813	11:08:24	10031	testEng6mo	WordsEng6mo	11	7Eng6mo	833	0	114	11:08:24	2115715	4	3	3	3	3	3	0	3	0	0	0	0	0	0	0	5	7	0	0	0	0	0		1	0	0	0	0	0	0	0
011813	11:08:24	10031	testEng6mo	WordsEng6mo	11	8Eng6mo	242	0	114	11:08:24	2116007	4	3	3	3	3	3	0	3	3	0	0	0	0	0	0	5	7	0	0	0	0	0		1	0	0	0	0	0	0	0
011813	11:08:24	10031	testEng6mo	WordsEng6mo	11	DoneEng6mo	2132	0	114	11:08:24	2118193	4	3	3	3	3	3	0	3	3	0	0	0	0	0	0	5	7	0	0	0	0	0		1	0	0	0	0	0	0	0
011813	11:08:24	10031	testEng6mo	Cat6Eng6mo	11	0	1	0	114	11:08:24	2118208	4	3	3	3	3	3	0	3	3	0	0	0	0	0	0	5	7	0	0	0	0	0		1	0	0	0	0	0	0	0
011813	11:08:24	10031	testEng6mo	Ch6Eng6mo	11	RR6Eng6mo	4542	0	114	11:08:24	2122791	4	3	3	3	3	3	1	3	3	0	0	0	0	0	0	5	7	0	0	0	0	0		1	0	0	0	0	0	0	0
011813	11:08:24	10031	DigitSpanFwrdEng6mo	Score1FwrdEng6mo	12	DS1	3234	0	114	11:08:24	2139064	4	3	3	3	3	3	1	3	3	0	0	0	0	0	0	5	7	0	0	0	0	0		1	0	0	0	0	0	0	0
011813	11:08:24	10031	DigitSpanFwrdEng6mo	Gate1FwrdEng6mo	12	0	1	0	114	11:08:24	2139069	4	3	3	3	3	3	1	3	3	3	0	0	0	0	0	5	7	0	0	0	0	0		1	0	0	0	0	0	0	0
011813	11:08:24	10031	DigitSpanFwrdEng6mo	Score2FwrdEng6mo	12	DS1	3862	0	114	11:08:24	2149687	4	3	3	3	3	3	1	3	3	3	0	0	0	0	0	5	7	0	0	0	0	0		1	0	0	0	0	0	0	0
011813	11:08:24	10031	DigitSpanFwrdEng6mo	Gate3FwrdEng6mo	12	0	1	0	114	11:08:24	2149692	4	3	3	3	3	3	1	3	3	4	0	0	0	0	0	5	7	0	0	0	0	0		1	0	0	0	0	0	0	0
011813	11:08:24	10031	DigitSpanFwrdEng6mo	Score3FwrdEng6mo	12	DS1	4765	0	114	11:08:24	2162481	4	3	3	3	3	3	1	3	3	4	0	0	0	0	0	5	7	0	0	0	0	0		1	0	0	0	0	0	0	0
011813	11:08:24	10031	DigitSpanFwrdEng6mo	Gate5FwrdEng6mo	12	0	1	0	114	11:08:24	2162486	4	3	3	3	3	3	1	3	3	5	0	0	0	0	0	5	7	0	0	0	0	0		1	0	0	0	0	0	0	0
011813	11:08:24	10031	DigitSpanFwrdEng6mo	Score4FwrdEng6mo	12	DS2	8077	0	114	11:08:24	2180087	4	3	3	3	3	3	1	3	3	5	0	0	0	0	0	5	7	0	0	0	0	0		1	0	0	0	0	0	0	0
011813	11:08:24	10031	DigitSpanFwrdEng6mo	Gate7FwrdEng6mo	12	0	1	0	114	11:08:24	2180092	4	3	3	3	3	3	1	3	3	5	0	0	0	0	0	5	7	0	0	0	0	0		1	0	0	0	0	0	0	0
011813	11:08:24	10031	DigitSpanFwrdEng6mo	Score44FwrdEng6mo	12	DS1	5687	0	114	11:08:24	2195374	4	3	3	3	3	3	1	3	3	5	0	0	0	0	0	5	7	0	0	0	0	0		1	0	0	0	0	0	0	0
011813	11:08:24	10031	DigitSpanFwrdEng6mo	Gate8FwrdEng6mo	12	0	1	0	114	11:08:24	2195379	4	3	3	3	3	3	1	3	3	6	0	0	0	0	0	5	7	0	0	0	0	0		1	0	0	0	0	0	0	0
011813	11:08:24	10031	DigitSpanFwrdEng6mo	Score5FwrdEng6mo	12	DS2	8613	0	114	11:08:24	2214979	4	3	3	3	3	3	1	3	3	6	0	0	0	0	0	5	7	0	0	0	0	0		1	0	0	0	0	0	0	0
011813	11:08:24	10031	DigitSpanFwrdEng6mo	Gate9FwrdEng6mo	12	0	1	0	114	11:08:24	2214984	4	3	3	3	3	3	1	3	3	6	0	0	0	0	0	5	7	0	0	0	0	0		1	0	0	0	0	0	0	0
011813	11:08:24	10031	DigitSpanFwrdEng6mo	Score55FwrdEng6mo	12	DS1	11404	0	114	11:08:24	2237517	4	3	3	3	3	3	1	3	3	6	0	0	0	0	0	5	7	0	0	0	0	0		1	0	0	0	0	0	0	0
011813	11:08:24	10031	DigitSpanFwrdEng6mo	Gate10FwrdEng6mo	12	0	1	0	114	11:08:24	2237521	4	3	3	3	3	3	1	3	3	7	0	0	0	0	0	5	7	0	0	0	0	0		1	0	0	0	0	0	0	0
011813	11:08:24	10031	DigitSpanFwrdEng6mo	Score6FwrdEng6mo	12	DS1	8195	0	114	11:08:24	2258695	4	3	3	3	3	3	1	3	3	8	0	0	0	0	0	5	7	0	0	0	0	0		1	0	0	0	0	0	0	0
011813	11:08:24	10031	DigitSpanEng6mo	Score1Eng6mo	13	DS1	3643	0	114	11:08:24	2274248	4	3	3	3	3	3	1	3	3	8	0	0	0	0	0	5	7	0	0	0	0	0		1	0	0	0	0	0	0	0
011813	11:08:24	10031	DigitSpanEng6mo	Gate1Eng6mo	13	0	1	0	114	11:08:24	2274253	4	3	3	3	3	3	1	3	3	8	2	0	0	0	0	5	7	0	0	0	0	0		1	0	0	0	0	0	0	0
011813	11:08:24	10031	DigitSpanEng6mo	Score2Eng6mo	13	DS1	2916	0	114	11:08:24	2282098	4	3	3	3	3	3	1	3	3	8	2	0	0	0	0	5	7	0	0	0	0	0		1	0	0	0	0	0	0	0
011813	11:08:24	10031	DigitSpanEng6mo	Gate3Eng6mo	13	0	1	0	114	11:08:24	2282103	4	3	3	3	3	3	1	3	3	8	3	0	0	0	0	5	7	0	0	0	0	0		1	0	0	0	0	0	0	0
011813	11:08:24	10031	DigitSpanEng6mo	Score3Eng6mo	13	DS1	5757	0	114	11:08:24	2294413	4	3	3	3	3	3	1	3	3	8	3	0	0	0	0	5	7	0	0	0	0	0		1	0	0	0	0	0	0	0
011813	11:08:24	10031	DigitSpanEng6mo	Gate5Eng6mo	13	0	1	0	114	11:08:24	2294418	4	3	3	3	3	3	1	3	3	8	4	0	0	0	0	5	7	0	0	0	0	0		1	0	0	0	0	0	0	0
011813	11:08:24	10031	DigitSpanEng6mo	Score4Eng6mo	13	DS1	8004	0	114	11:08:24	2310180	4	3	3	3	3	3	1	3	3	8	4	0	0	0	0	5	7	0	0	0	0	0		1	0	0	0	0	0	0	0
011813	11:08:24	10031	DigitSpanEng6mo	Gate7Eng6mo	13	0	1	0	114	11:08:24	2310185	4	3	3	3	3	3	1	3	3	8	5	0	0	0	0	5	7	0	0	0	0	0		1	0	0	0	0	0	0	0
011813	11:08:24	10031	DigitSpanEng6mo	Score5Eng6mo	13	DS2	16064	0	114	11:08:24	2335463	4	3	3	3	3	3	1	3	3	8	5	0	0	0	0	5	7	0	0	0	0	0		1	0	0	0	0	0	0	0
011813	11:08:24	10031	DigitSpanEng6mo	Gate9Eng6mo	13	0	1	0	114	11:08:24	2335469	4	3	3	3	3	3	1	3	3	8	5	0	0	0	0	5	7	0	0	0	0	0		1	0	0	0	0	0	0	0
011813	11:08:24	10031	DigitSpanEng6mo	Score55Eng6mo	13	DS2	9026	0	114	11:08:24	2354015	4	3	3	3	3	3	1	3	3	8	5	0	0	0	0	5	7	0	0	0	0	0		1	0	0	0	0	0	0	0
011813	11:08:24	10031	Trial	ResponseIL	14	0	175	0	114	11:08:24	2411831	4	3	3	3	3	3	1	3	3	8	5	0	0	0	0	5	7	0	0	0	0	0		1	0	0	0	0	0	0	0
011813	11:08:24	10031	Trial	IncongruentLeft	14	203	305	1	114	11:08:24	2412164	4	3	3	3	3	3	1	3	3	8	5	0	0	0	0	5	7	0	0	0	0	0		1	0	0	0	0	0	0	0
011813	11:08:24	10031	Trial	ResponseCR	14	0	175	0	114	11:08:24	2413537	4	3	3	3	3	3	1	3	3	8	5	0	0	0	0	5	7	0	0	0	0	0		1	0	0	0	0	0	0	0
011813	11:08:24	10031	Trial	CongruentRight	14	205	231	1	114	11:08:24	2413790	4	3	3	3	3	3	1	3	3	8	5	0	0	0	0	5	7	0	0	0	0	0		1	0	0	0	0	0	0	0
011813	11:08:24	10031	Trial	ResponseIR	14	0	175	0	114	11:08:24	2415243	4	3	3	3	3	3	1	3	3	8	5	0	0	0	0	5	7	0	0	0	0	0		1	0	0	0	0	0	0	0
011813	11:08:24	10031	Trial	IncongruentRight	14	203	221	0	114	11:08:24	2415483	4	3	3	3	3	3	1	3	3	8	5	0	0	0	0	5	7	0	0	0	0	0		1	0	0	0	0	0	0	0
011813	11:08:24	10031	Trial	ResponseCL	14	0	175	0	114	11:08:24	2416949	4	3	3	3	3	3	1	3	3	8	5	0	0	0	0	5	7	0	0	0	0	0		1	0	0	0	0	0	0	0
011813	11:08:24	10031	Trial	CongruentLeft	14	203	275	1	114	11:08:24	2417242	4	3	3	3	3	3	1	3	3	8	5	0	0	0	0	5	7	0	0	0	0	0		1	0	0	0	0	0	0	0
011813	11:08:24	10031	Trial	ResponseCR	14	0	175	0	114	11:08:24	2418655	4	3	3	3	3	3	1	3	3	8	5	0	0	0	0	5	7	0	0	0	0	0		1	0	0	0	0	0	0	0
011813	11:08:24	10031	Trial	CongruentRight	14	205	152	1	114	11:08:24	2418828	4	3	3	3	3	3	1	3	3	8	5	0	0	0	0	5	7	0	0	0	0	0		1	0	0	0	0	0	0	0
011813	11:08:24	10031	Trial	ResponseIR	14	0	175	0	114	11:08:24	2420361	4	3	3	3	3	3	1	3	3	8	5	0	0	0	0	5	7	0	0	0	0	0		1	0	0	0	0	0	0	0
011813	11:08:24	10031	Trial	IncongruentRight	14	203	190	0	114	11:08:24	2420574	4	3	3	3	3	3	1	3	3	8	5	0	0	0	0	5	7	0	0	0	0	0		1	0	0	0	0	0	0	0
011813	11:08:24	10031	Trial	ResponseCL	14	0	175	0	114	11:08:24	2422067	4	3	3	3	3	3	1	3	3	8	5	0	0	0	0	5	7	0	0	0	0	0		1	0	0	0	0	0	0	0
011813	11:08:24	10031	Trial	CongruentLeft	14	203	212	1	114	11:08:24	2422307	4	3	3	3	3	3	1	3	3	8	5	0	0	0	0	5	7	0	0	0	0	0		1	0	0	0	0	0	0	0
011813	11:08:24	10031	Trial	ResponseIL	14	0	175	0	114	11:08:24	2423773	4	3	3	3	3	3	1	3	3	8	5	0	0	0	0	5	7	0	0	0	0	0		1	0	0	0	0	0	0	0
011813	11:08:24	10031	Trial	IncongruentLeft	14	205	123	0	114	11:08:24	2423919	4	3	3	3	3	3	1	3	3	8	5	0	0	0	0	5	7	0	0	0	0	0		1	0	0	0	0	0	0	0
011813	11:08:24	10031	Trial	ResponseIL	14	0	175	0	114	11:08:24	2425479	4	3	3	3	3	3	1	3	3	8	5	0	0	0	0	5	7	0	0	0	0	0		1	0	0	0	0	0	0	0
011813	11:08:24	10031	Trial	IncongruentLeft	14	203	177	1	114	11:08:24	2425679	4	3	3	3	3	3	1	3	3	8	5	0	0	0	0	5	7	0	0	0	0	0		1	0	0	0	0	0	0	0
011813	11:08:24	10031	Trial	ResponseCR	14	0	175	0	114	11:08:24	2427184	4	3	3	3	3	3	1	3	3	8	5	0	0	0	0	5	7	0	0	0	0	0		1	0	0	0	0	0	0	0
011813	11:08:24	10031	Trial	CongruentRight	14	205	247	1	114	11:08:24	2427451	4	3	3	3	3	3	1	3	3	8	5	0	0	0	0	5	7	0	0	0	0	0		1	0	0	0	0	0	0	0
011813	11:08:24	10031	Trial	ResponseIR	14	0	175	0	114	11:08:24	2428891	4	3	3	3	3	3	1	3	3	8	5	0	0	0	0	5	7	0	0	0	0	0		1	0	0	0	0	0	0	0
011813	11:08:24	10031	Trial	IncongruentRight	14	203	157	0	114	11:08:24	2429064	4	3	3	3	3	3	1	3	3	8	5	0	0	0	0	5	7	0	0	0	0	0		1	0	0	0	0	0	0	0
011813	11:08:24	10031	Trial	ResponseCL	14	0	175	0	114	11:08:24	2430597	4	3	3	3	3	3	1	3	3	8	5	0	0	0	0	5	7	0	0	0	0	0		1	0	0	0	0	0	0	0
011813	11:08:24	10031	Trial	CongruentLeft	14	203	83	1	114	11:08:24	2430703	4	3	3	3	3	3	1	3	3	8	5	0	0	0	0	5	7	0	0	0	0	0		1	0	0	0	0	0	0	0
011813	11:08:24	10031	Trial	ResponseCR	14	0	175	0	114	11:08:24	2432303	4	3	3	3	3	3	1	3	3	8	5	0	0	0	0	5	7	0	0	0	0	0		1	0	0	0	0	0	0	0
011813	11:08:24	10031	Trial	CongruentRight	14	205	185	1	114	11:08:24	2432516	4	3	3	3	3	3	1	3	3	8	5	0	0	0	0	5	7	0	0	0	0	0		1	0	0	0	0	0	0	0
011813	11:08:24	10031	Trial	ResponseIL	14	0	175	0	114	11:08:24	2434009	4	3	3	3	3	3	1	3	3	8	5	0	0	0	0	5	7	0	0	0	0	0		1	0	0	0	0	0	0	0
011813	11:08:24	10031	Trial	IncongruentLeft	14	203	191	1	114	11:08:24	2434222	4	3	3	3	3	3	1	3	3	8	5	0	0	0	0	5	7	0	0	0	0	0		1	0	0	0	0	0	0	0
011813	11:08:24	10031	Trial	ResponseIR	14	0	175	0	114	11:08:24	2435715	4	3	3	3	3	3	1	3	3	8	5	0	0	0	0	5	7	0	0	0	0	0		1	0	0	0	0	0	0	0
011813	11:08:24	10031	Trial	IncongruentRight	14	205	276	1	114	11:08:24	2436007	4	3	3	3	3	3	1	3	3	8	5	0	0	0	0	5	7	0	0	0	0	0		1	0	0	0	0	0	0	0
011813	11:08:24	10031	Trial	ResponseCR	14	0	175	0	114	11:08:24	2437420	4	3	3	3	3	3	1	3	3	8	5	0	0	0	0	5	7	0	0	0	0	0		1	0	0	0	0	0	0	0
011813	11:08:24	10031	Trial	CongruentRight	14	205	202	1	114	11:08:24	2437647	4	3	3	3	3	3	1	3	3	8	5	0	0	0	0	5	7	0	0	0	0	0		1	0	0	0	0	0	0	0
011813	11:08:24	10031	Trial	ResponseCL	14	0	175	0	114	11:08:24	2439126	4	3	3	3	3	3	1	3	3	8	5	0	0	0	0	5	7	0	0	0	0	0		1	0	0	0	0	0	0	0
011813	11:08:24	10031	Trial	CongruentLeft	14	203	224	1	114	11:08:24	2439380	4	3	3	3	3	3	1	3	3	8	5	0	0	0	0	5	7	0	0	0	0	0		1	0	0	0	0	0	0	0
011813	11:08:24	10031	Trial	ResponseCR	14	0	175	0	114	11:08:24	2440832	4	3	3	3	3	3	1	3	3	8	5	0	0	0	0	5	7	0	0	0	0	0		1	0	0	0	0	0	0	0
011813	11:08:24	10031	Trial	CongruentRight	14	205	198	1	114	11:08:24	2441059	4	3	3	3	3	3	1	3	3	8	5	0	0	0	0	5	7	0	0	0	0	0		1	0	0	0	0	0	0	0
011813	11:08:24	10031	Trial	ResponseIR	14	0	175	0	114	11:08:24	2442538	4	3	3	3	3	3	1	3	3	8	5	0	0	0	0	5	7	0	0	0	0	0		1	0	0	0	0	0	0	0
011813	11:08:24	10031	Trial	IncongruentRight	14	203	204	0	114	11:08:24	2442765	4	3	3	3	3	3	1	3	3	8	5	0	0	0	0	5	7	0	0	0	0	0		1	0	0	0	0	0	0	0
011813	11:08:24	10031	Trial	ResponseIL	14	0	175	0	114	11:08:24	2444244	4	3	3	3	3	3	1	3	3	8	5	0	0	0	0	5	7	0	0	0	0	0		1	0	0	0	0	0	0	0
011813	11:08:24	10031	Trial	IncongruentLeft	14	203	243	1	114	11:08:24	2444511	4	3	3	3	3	3	1	3	3	8	5	0	0	0	0	5	7	0	0	0	0	0		1	0	0	0	0	0	0	0
011813	11:08:24	10031	Trial	ResponseIL	14	0	175	0	114	11:08:24	2445950	4	3	3	3	3	3	1	3	3	8	5	0	0	0	0	5	7	0	0	0	0	0		1	0	0	0	0	0	0	0
011813	11:08:24	10031	Trial	IncongruentLeft	14	205	152	0	114	11:08:24	2446123	4	3	3	3	3	3	1	3	3	8	5	0	0	0	0	5	7	0	0	0	0	0		1	0	0	0	0	0	0	0
011813	11:08:24	10031	Trial	ResponseCL	14	0	175	0	114	11:08:24	2447656	4	3	3	3	3	3	1	3	3	8	5	0	0	0	0	5	7	0	0	0	0	0		1	0	0	0	0	0	0	0
011813	11:08:24	10031	Trial	CongruentLeft	14	203	174	1	114	11:08:24	2447856	4	3	3	3	3	3	1	3	3	8	5	0	0	0	0	5	7	0	0	0	0	0		1	0	0	0	0	0	0	0
011813	11:08:24	10031	Trial	ResponseCR	14	0	175	0	114	11:08:24	2449362	4	3	3	3	3	3	1	3	3	8	5	0	0	0	0	5	7	0	0	0	0	0		1	0	0	0	0	0	0	0
011813	11:08:24	10031	Trial	CongruentRight	14	205	229	1	114	11:08:24	2449615	4	3	3	3	3	3	1	3	3	8	5	0	0	0	0	5	7	0	0	0	0	0		1	0	0	0	0	0	0	0
011813	11:08:24	10031	Trial	ResponseIL	14	0	175	0	114	11:08:24	2451068	4	3	3	3	3	3	1	3	3	8	5	0	0	0	0	5	7	0	0	0	0	0		1	0	0	0	0	0	0	0
011813	11:08:24	10031	Trial	IncongruentLeft	14	203	282	1	114	11:08:24	2451375	4	3	3	3	3	3	1	3	3	8	5	0	0	0	0	5	7	0	0	0	0	0		1	0	0	0	0	0	0	0
011813	11:08:24	10031	Trial	ResponseIR	14	0	175	0	114	11:08:24	2452774	4	3	3	3	3	3	1	3	3	8	5	0	0	0	0	5	7	0	0	0	0	0		1	0	0	0	0	0	0	0
011813	11:08:24	10031	Trial	IncongruentRight	14	203	192	0	114	11:08:24	2452987	4	3	3	3	3	3	1	3	3	8	5	0	0	0	0	5	7	0	0	0	0	0		1	0	0	0	0	0	0	0
011813	11:08:24	10031	Trial	ResponseCR	14	0	175	0	114	11:08:24	2454480	4	3	3	3	3	3	1	3	3	8	5	0	0	0	0	5	7	0	0	0	0	0		1	0	0	0	0	0	0	0
011813	11:08:24	10031	Trial	CongruentRight	14	205	261	1	114	11:08:24	2454760	4	3	3	3	3	3	1	3	3	8	5	0	0	0	0	5	7	0	0	0	0	0		1	0	0	0	0	0	0	0
011813	11:08:24	10031	Trial	ResponseCL	14	0	175	0	114	11:08:24	2456186	4	3	3	3	3	3	1	3	3	8	5	0	0	0	0	5	7	0	0	0	0	0		1	0	0	0	0	0	0	0
011813	11:08:24	10031	Trial	CongruentLeft	14	203	171	1	114	11:08:24	2456386	4	3	3	3	3	3	1	3	3	8	5	0	0	0	0	5	7	0	0	0	0	0		1	0	0	0	0	0	0	0
011813	11:08:24	10031	Trial	ResponseIR	14	0	175	0	114	11:08:24	2457892	4	3	3	3	3	3	1	3	3	8	5	0	0	0	0	5	7	0	0	0	0	0		1	0	0	0	0	0	0	0
011813	11:08:24	10031	Trial	IncongruentRight	14	205	225	1	114	11:08:24	2458145	4	3	3	3	3	3	1	3	3	8	5	0	0	0	0	5	7	0	0	0	0	0		1	0	0	0	0	0	0	0
011813	11:08:24	10031	Trial	ResponseIL	14	0	175	0	114	11:08:24	2459598	4	3	3	3	3	3	1	3	3	8	5	0	0	0	0	5	7	0	0	0	0	0		1	0	0	0	0	0	0	0
011813	11:08:24	10031	Trial	IncongruentLeft	14	203	121	1	114	11:08:24	2459744	4	3	3	3	3	3	1	3	3	8	5	0	0	0	0	5	7	0	0	0	0	0		1	0	0	0	0	0	0	0
011813	11:08:24	10031	Trial	ResponseIR	14	0	175	0	114	11:08:24	2461304	4	3	3	3	3	3	1	3	3	8	5	0	0	0	0	5	7	0	0	0	0	0		1	0	0	0	0	0	0	0
011813	11:08:24	10031	Trial	IncongruentRight	14	205	237	1	114	11:08:24	2461570	4	3	3	3	3	3	1	3	3	8	5	0	0	0	0	5	7	0	0	0	0	0		1	0	0	0	0	0	0	0
011813	11:08:24	10031	Trial	ResponseCR	14	0	175	0	114	11:08:24	2463010	4	3	3	3	3	3	1	3	3	8	5	0	0	0	0	5	7	0	0	0	0	0		1	0	0	0	0	0	0	0
011813	11:08:24	10031	Trial	CongruentRight	14	205	180	1	114	11:08:24	2463210	4	3	3	3	3	3	1	3	3	8	5	0	0	0	0	5	7	0	0	0	0	0		1	0	0	0	0	0	0	0
011813	11:08:24	10031	Trial	ResponseIL	14	0	175	0	114	11:08:24	2464716	4	3	3	3	3	3	1	3	3	8	5	0	0	0	0	5	7	0	0	0	0	0		1	0	0	0	0	0	0	0
011813	11:08:24	10031	Trial	IncongruentLeft	14	203	234	1	114	11:08:24	2464969	4	3	3	3	3	3	1	3	3	8	5	0	0	0	0	5	7	0	0	0	0	0		1	0	0	0	0	0	0	0
011813	11:08:24	10031	Trial	ResponseCL	14	0	175	0	114	11:08:24	2466422	4	3	3	3	3	3	1	3	3	8	5	0	0	0	0	5	7	0	0	0	0	0		1	0	0	0	0	0	0	0
011813	11:08:24	10031	Trial	CongruentLeft	14	203	192	1	114	11:08:24	2466635	4	3	3	3	3	3	1	3	3	8	5	0	0	0	0	5	7	0	0	0	0	0		1	0	0	0	0	0	0	0
011813	11:08:24	10031	Trial	ResponseCR	14	0	175	0	114	11:08:24	2468128	4	3	3	3	3	3	1	3	3	8	5	0	0	0	0	5	7	0	0	0	0	0		1	0	0	0	0	0	0	0
011813	11:08:24	10031	Trial	CongruentRight	14	205	134	1	114	11:08:24	2468287	4	3	3	3	3	3	1	3	3	8	5	0	0	0	0	5	7	0	0	0	0	0		1	0	0	0	0	0	0	0
011813	11:08:24	10031	Trial	ResponseIL	14	0	175	0	114	11:08:24	2469834	4	3	3	3	3	3	1	3	3	8	5	0	0	0	0	5	7	0	0	0	0	0		1	0	0	0	0	0	0	0
011813	11:08:24	10031	Trial	IncongruentLeft	14	203	203	1	114	11:08:24	2470060	4	3	3	3	3	3	1	3	3	8	5	0	0	0	0	5	7	0	0	0	0	0		1	0	0	0	0	0	0	0
011813	11:08:24	10031	Trial	ResponseIR	14	0	175	0	114	11:08:24	2471540	4	3	3	3	3	3	1	3	3	8	5	0	0	0	0	5	7	0	0	0	0	0		1	0	0	0	0	0	0	0
011813	11:08:24	10031	Trial	IncongruentRight	14	205	257	1	114	11:08:24	2471820	4	3	3	3	3	3	1	3	3	8	5	0	0	0	0	5	7	0	0	0	0	0		1	0	0	0	0	0	0	0
011813	11:08:24	10031	Trial	ResponseIR	14	0	175	0	114	11:08:24	2473245	4	3	3	3	3	3	1	3	3	8	5	0	0	0	0	5	7	0	0	0	0	0		1	0	0	0	0	0	0	0
011813	11:08:24	10031	Trial	IncongruentRight	14	203	136	0	114	11:08:24	2473406	4	3	3	3	3	3	1	3	3	8	5	0	0	0	0	5	7	0	0	0	0	0		1	0	0	0	0	0	0	0
011813	11:08:24	10031	Trial	ResponseCL	14	0	175	0	114	11:08:24	2474952	4	3	3	3	3	3	1	3	3	8	5	0	0	0	0	5	7	0	0	0	0	0		1	0	0	0	0	0	0	0
011813	11:08:24	10031	Trial	CongruentLeft	14	203	172	1	114	11:08:24	2475152	4	3	3	3	3	3	1	3	3	8	5	0	0	0	0	5	7	0	0	0	0	0		1	0	0	0	0	0	0	0
011813	11:08:24	10031	Trial	ResponseIL	14	0	175	0	114	11:08:24	2476658	4	3	3	3	3	3	1	3	3	8	5	0	0	0	0	5	7	0	0	0	0	0		1	0	0	0	0	0	0	0
011813	11:08:24	10031	Trial	IncongruentLeft	14	203	195	1	114	11:08:24	2476871	4	3	3	3	3	3	1	3	3	8	5	0	0	0	0	5	7	0	0	0	0	0		1	0	0	0	0	0	0	0
011813	11:08:24	10031	Trial	ResponseCR	14	0	175	0	114	11:08:24	2478364	4	3	3	3	3	3	1	3	3	8	5	0	0	0	0	5	7	0	0	0	0	0		1	0	0	0	0	0	0	0
011813	11:08:24	10031	Trial	CongruentRight	14	205	153	1	114	11:08:24	2478537	4	3	3	3	3	3	1	3	3	8	5	0	0	0	0	5	7	0	0	0	0	0		1	0	0	0	0	0	0	0
011813	11:08:24	10031	Trial	ResponseCL	14	0	175	0	114	11:08:24	2480070	4	3	3	3	3	3	1	3	3	8	5	0	0	0	0	5	7	0	0	0	0	0		1	0	0	0	0	0	0	0
011813	11:08:24	10031	Trial	CongruentLeft	14	203	159	1	114	11:08:24	2480256	4	3	3	3	3	3	1	3	3	8	5	0	0	0	0	5	7	0	0	0	0	0		1	0	0	0	0	0	0	0
011813	11:08:24	10031	Trial	ResponseIR	14	0	175	0	114	11:08:24	2481776	4	3	3	3	3	3	1	3	3	8	5	0	0	0	0	5	7	0	0	0	0	0		1	0	0	0	0	0	0	0
011813	11:08:24	10031	Trial	IncongruentRight	14	205	229	1	114	11:08:24	2482029	4	3	3	3	3	3	1	3	3	8	5	0	0	0	0	5	7	0	0	0	0	0		1	0	0	0	0	0	0	0
011813	11:08:24	10031	Trial	ResponseCR	14	0	175	0	114	11:08:24	2483481	4	3	3	3	3	3	1	3	3	8	5	0	0	0	0	5	7	0	0	0	0	0		1	0	0	0	0	0	0	0
011813	11:08:24	10031	Trial	CongruentRight	14	205	186	1	114	11:08:24	2483695	4	3	3	3	3	3	1	3	3	8	5	0	0	0	0	5	7	0	0	0	0	0		1	0	0	0	0	0	0	0
011813	11:08:24	10031	Trial	ResponseIL	14	0	175	0	114	11:08:24	2485188	4	3	3	3	3	3	1	3	3	8	5	0	0	0	0	5	7	0	0	0	0	0		1	0	0	0	0	0	0	0
011813	11:08:24	10031	Trial	IncongruentLeft	14	203	192	1	114	11:08:24	2485401	4	3	3	3	3	3	1	3	3	8	5	0	0	0	0	5	7	0	0	0	0	0		1	0	0	0	0	0	0	0
011813	11:08:24	10031	Trial	ResponseCL	14	0	175	0	114	11:08:24	2486893	4	3	3	3	3	3	1	3	3	8	5	0	0	0	0	5	7	0	0	0	0	0		1	0	0	0	0	0	0	0
011813	11:08:24	10031	Trial	CongruentLeft	14	203	87	1	114	11:08:24	2487000	4	3	3	3	3	3	1	3	3	8	5	0	0	0	0	5	7	0	0	0	0	0		1	0	0	0	0	0	0	0
011813	11:08:24	10031	Trial	ResponseIL	14	0	175	0	114	11:08:24	2488599	4	3	3	3	3	3	1	3	3	8	5	0	0	0	0	5	7	0	0	0	0	0		1	0	0	0	0	0	0	0
011813	11:08:24	10031	Trial	IncongruentLeft	14	203	82	1	114	11:08:24	2488706	4	3	3	3	3	3	1	3	3	8	5	0	0	0	0	5	7	0	0	0	0	0		1	0	0	0	0	0	0	0
011813	11:08:24	10031	Trial	ResponseIR	14	0	175	0	114	11:08:24	2490305	4	3	3	3	3	3	1	3	3	8	5	0	0	0	0	5	7	0	0	0	0	0		1	0	0	0	0	0	0	0
011813	11:08:24	10031	Trial	IncongruentRight	14	203	99	0	114	11:08:24	2490426	4	3	3	3	3	3	1	3	3	8	5	0	0	0	0	5	7	0	0	0	0	0		1	0	0	0	0	0	0	0
011813	11:08:24	10031	Trial	ResponseCR	14	0	175	0	114	11:08:24	2492011	4	3	3	3	3	3	1	3	3	8	5	0	0	0	0	5	7	0	0	0	0	0		1	0	0	0	0	0	0	0
011813	11:08:24	10031	Trial	CongruentRight	14	205	154	1	114	11:08:24	2492184	4	3	3	3	3	3	1	3	3	8	5	0	0	0	0	5	7	0	0	0	0	0		1	0	0	0	0	0	0	0
011813	11:08:24	10031	Trial	ResponseCL	14	0	175	0	114	11:08:24	2493717	4	3	3	3	3	3	1	3	3	8	5	0	0	0	0	5	7	0	0	0	0	0		1	0	0	0	0	0	0	0
011813	11:08:24	10031	Trial	CongruentLeft	14	203	207	1	114	11:08:24	2493944	4	3	3	3	3	3	1	3	3	8	5	0	0	0	0	5	7	0	0	0	0	0		1	0	0	0	0	0	0	0
011813	11:08:24	10031	Trial	ResponseCL	14	0	175	0	114	11:08:24	2495423	4	3	3	3	3	3	1	3	3	8	5	0	0	0	0	5	7	0	0	0	0	0		1	0	0	0	0	0	0	0
011813	11:08:24	10031	Trial	CongruentLeft	14	203	102	1	114	11:08:24	2495543	4	3	3	3	3	3	1	3	3	8	5	0	0	0	0	5	7	0	0	0	0	0		1	0	0	0	0	0	0	0
011813	11:08:24	10031	Trial	ResponseIR	14	0	175	0	114	11:08:24	2497129	4	3	3	3	3	3	1	3	3	8	5	0	0	0	0	5	7	0	0	0	0	0		1	0	0	0	0	0	0	0
011813	11:08:24	10031	Trial	IncongruentRight	14	203	92	0	114	11:08:24	2497249	4	3	3	3	3	3	1	3	3	8	5	0	0	0	0	5	7	0	0	0	0	0		1	0	0	0	0	0	0	0
011813	11:08:24	10031	Trial	ResponseIL	14	0	175	0	114	11:08:24	2498835	4	3	3	3	3	3	1	3	3	8	5	0	0	0	0	5	7	0	0	0	0	0		1	0	0	0	0	0	0	0
011813	11:08:24	10031	Trial	IncongruentLeft	14	203	209	1	114	11:08:24	2499062	4	3	3	3	3	3	1	3	3	8	5	0	0	0	0	5	7	0	0	0	0	0		1	0	0	0	0	0	0	0
011813	11:08:24	10031	Trial	ResponseIR	14	0	175	0	114	11:08:24	2500541	4	3	3	3	3	3	1	3	3	8	5	0	0	0	0	5	7	0	0	0	0	0		1	0	0	0	0	0	0	0
011813	11:08:24	10031	Trial	IncongruentRight	14	203	88	0	114	11:08:24	2500648	4	3	3	3	3	3	1	3	3	8	5	0	0	0	0	5	7	0	0	0	0	0		1	0	0	0	0	0	0	0
011813	11:08:24	10031	Trial	ResponseCR	14	0	175	0	114	11:08:24	2502247	4	3	3	3	3	3	1	3	3	8	5	0	0	0	0	5	7	0	0	0	0	0		1	0	0	0	0	0	0	0
011813	11:08:24	10031	Trial	CongruentRight	14	205	204	1	114	11:08:24	2502473	4	3	3	3	3	3	1	3	3	8	5	0	0	0	0	5	7	0	0	0	0	0		1	0	0	0	0	0	0	0
011813	11:08:24	10031	Trial	ResponseCR	14	0	175	0	114	11:08:24	2503953	4	3	3	3	3	3	1	3	3	8	5	0	0	0	0	5	7	0	0	0	0	0		1	0	0	0	0	0	0	0
011813	11:08:24	10031	Trial	CongruentRight	14	205	99	1	114	11:08:24	2504073	4	3	3	3	3	3	1	3	3	8	5	0	0	0	0	5	7	0	0	0	0	0		1	0	0	0	0	0	0	0
011813	11:08:24	10031	Trial	ResponseIL	14	0	175	0	114	11:08:24	2505659	4	3	3	3	3	3	1	3	3	8	5	0	0	0	0	5	7	0	0	0	0	0		1	0	0	0	0	0	0	0
011813	11:08:24	10031	Trial	IncongruentLeft	14	203	265	1	114	11:08:24	2505952	4	3	3	3	3	3	1	3	3	8	5	0	0	0	0	5	7	0	0	0	0	0		1	0	0	0	0	0	0	0
011813	11:08:24	10031	Trial	ResponseCL	14	0	175	0	114	11:08:24	2507365	4	3	3	3	3	3	1	3	3	8	5	0	0	0	0	5	7	0	0	0	0	0		1	0	0	0	0	0	0	0
011813	11:08:24	10031	Trial	CongruentLeft	14	203	94	1	114	11:08:24	2507485	4	3	3	3	3	3	1	3	3	8	5	0	0	0	0	5	7	0	0	0	0	0		1	0	0	0	0	0	0	0
011813	11:08:24	10031	Trial	ResponseCR	14	0	175	0	114	11:08:24	2509071	4	3	3	3	3	3	1	3	3	8	5	0	0	0	0	5	7	0	0	0	0	0		1	0	0	0	0	0	0	0
011813	11:08:24	10031	Trial	CongruentRight	14	205	188	1	114	11:08:24	2509284	4	3	3	3	3	3	1	3	3	8	5	0	0	0	0	5	7	0	0	0	0	0		1	0	0	0	0	0	0	0
011813	11:08:24	10031	Trial	ResponseCL	14	0	175	0	114	11:08:24	2510777	4	3	3	3	3	3	1	3	3	8	5	0	0	0	0	5	7	0	0	0	0	0		1	0	0	0	0	0	0	0
011813	11:08:24	10031	Trial	CongruentLeft	14	203	172	1	114	11:08:24	2510976	4	3	3	3	3	3	1	3	3	8	5	0	0	0	0	5	7	0	0	0	0	0		1	0	0	0	0	0	0	0
011813	11:08:24	10031	Trial	ResponseIR	14	0	175	0	114	11:08:24	2512483	4	3	3	3	3	3	1	3	3	8	5	0	0	0	0	5	7	0	0	0	0	0		1	0	0	0	0	0	0	0
011813	11:08:24	10031	Trial	IncongruentRight	14	205	242	1	114	11:08:24	2512749	4	3	3	3	3	3	1	3	3	8	5	0	0	0	0	5	7	0	0	0	0	0		1	0	0	0	0	0	0	0
011813	11:08:24	10031	Trial	ResponseCR	14	0	175	0	114	11:08:24	2514189	4	3	3	3	3	3	1	3	3	8	5	0	0	0	0	5	7	0	0	0	0	0		1	0	0	0	0	0	0	0
011813	11:08:24	10031	Trial	CongruentRight	14	205	216	1	114	11:08:24	2514428	4	3	3	3	3	3	1	3	3	8	5	0	0	0	0	5	7	0	0	0	0	0		1	0	0	0	0	0	0	0
011813	11:08:24	10031	Trial	ResponseCL	14	0	175	0	114	11:08:24	2515895	4	3	3	3	3	3	1	3	3	8	5	0	0	0	0	5	7	0	0	0	0	0		1	0	0	0	0	0	0	0
011813	11:08:24	10031	Trial	CongruentLeft	14	203	174	1	114	11:08:24	2516095	4	3	3	3	3	3	1	3	3	8	5	0	0	0	0	5	7	0	0	0	0	0		1	0	0	0	0	0	0	0
011813	11:08:24	10031	Trial	ResponseIL	14	0	175	0	114	11:08:24	2517601	4	3	3	3	3	3	1	3	3	8	5	0	0	0	0	5	7	0	0	0	0	0		1	0	0	0	0	0	0	0
011813	11:08:24	10031	Trial	IncongruentLeft	14	203	121	1	114	11:08:24	2517774	4	3	3	3	3	3	1	3	3	8	5	0	0	0	0	5	7	0	0	0	0	0		1	0	0	0	0	0	0	0
011813	11:08:24	10031	Trial	ResponseIL	14	0	175	0	114	11:08:24	2519320	4	3	3	3	3	3	1	3	3	8	5	0	0	0	0	5	7	0	0	0	0	0		1	0	0	0	0	0	0	0
011813	11:08:24	10031	Trial	IncongruentLeft	14	203	77	1	114	11:08:24	2519413	4	3	3	3	3	3	1	3	3	8	5	0	0	0	0	5	7	0	0	0	0	0		1	0	0	0	0	0	0	0
011813	11:08:24	10031	Trial	ResponseCR	14	0	175	0	114	11:08:24	2521026	4	3	3	3	3	3	1	3	3	8	5	0	0	0	0	5	7	0	0	0	0	0		1	0	0	0	0	0	0	0
011813	11:08:24	10031	Trial	CongruentRight	14	203	83	0	114	11:08:24	2521132	4	3	3	3	3	3	1	3	3	8	5	0	0	0	0	5	7	0	0	0	0	0		1	0	0	0	0	0	0	0
011813	11:08:24	10031	Trial	ResponseIR	14	0	175	0	114	11:08:24	2522732	4	3	3	3	3	3	1	3	3	8	5	0	0	0	0	5	7	0	0	0	0	0		1	0	0	0	0	0	0	0
011813	11:08:24	10031	Trial	IncongruentRight	14	203	153	0	114	11:08:24	2522905	4	3	3	3	3	3	1	3	3	8	5	0	0	0	0	5	7	0	0	0	0	0		1	0	0	0	0	0	0	0
011813	11:08:24	10031	Trial	ResponseCL	14	0	175	0	114	11:08:24	2524438	4	3	3	3	3	3	1	3	3	8	5	0	0	0	0	5	7	0	0	0	0	0		1	0	0	0	0	0	0	0
011813	11:08:24	10031	Trial	CongruentLeft	14	203	190	1	114	11:08:24	2524651	4	3	3	3	3	3	1	3	3	8	5	0	0	0	0	5	7	0	0	0	0	0		1	0	0	0	0	0	0	0
011813	11:08:24	10031	Trial	ResponseIR	14	0	175	0	114	11:08:24	2526144	4	3	3	3	3	3	1	3	3	8	5	0	0	0	0	5	7	0	0	0	0	0		1	0	0	0	0	0	0	0
011813	11:08:24	10031	Trial	IncongruentRight	14	203	116	0	114	11:08:24	2526277	4	3	3	3	3	3	1	3	3	8	5	0	0	0	0	5	7	0	0	0	0	0		1	0	0	0	0	0	0	0
011813	11:08:24	10031	Trial	ResponseCR	14	0	175	0	114	11:08:24	2527849	4	3	3	3	3	3	1	3	3	8	5	0	0	0	0	5	7	0	0	0	0	0		1	0	0	0	0	0	0	0
011813	11:08:24	10031	Trial	CongruentRight	14	205	139	1	114	11:08:24	2528009	4	3	3	3	3	3	1	3	3	8	5	0	0	0	0	5	7	0	0	0	0	0		1	0	0	0	0	0	0	0
011813	11:08:24	10031	Trial	ResponseIL	14	0	175	0	114	11:08:24	2529556	4	3	3	3	3	3	1	3	3	8	5	0	0	0	0	5	7	0	0	0	0	0		1	0	0	0	0	0	0	0
011813	11:08:24	10031	Trial	IncongruentLeft	14	203	208	1	114	11:08:24	2529782	4	3	3	3	3	3	1	3	3	8	5	0	0	0	0	5	7	0	0	0	0	0		1	0	0	0	0	0	0	0
011813	11:08:24	10031	Trial	ResponseCL	14	0	175	0	114	11:08:24	2531261	4	3	3	3	3	3	1	3	3	8	5	0	0	0	0	5	7	0	0	0	0	0		1	0	0	0	0	0	0	0
011813	11:08:24	10031	Trial	CongruentLeft	14	203	150	1	114	11:08:24	2531435	4	3	3	3	3	3	1	3	3	8	5	0	0	0	0	5	7	0	0	0	0	0		1	0	0	0	0	0	0	0
011813	11:08:24	10031	Trial	ResponseCR	14	0	175	0	114	11:08:24	2532968	4	3	3	3	3	3	1	3	3	8	5	0	0	0	0	5	7	0	0	0	0	0		1	0	0	0	0	0	0	0
011813	11:08:24	10031	Trial	CongruentRight	14	205	172	1	114	11:08:24	2533168	4	3	3	3	3	3	1	3	3	8	5	0	0	0	0	5	7	0	0	0	0	0		1	0	0	0	0	0	0	0
011813	11:08:24	10031	Trial	ResponseIL	14	0	175	0	114	11:08:24	2534673	4	3	3	3	3	3	1	3	3	8	5	0	0	0	0	5	7	0	0	0	0	0		1	0	0	0	0	0	0	0
011813	11:08:24	10031	Trial	IncongruentLeft	14	205	130	0	114	11:08:24	2534820	4	3	3	3	3	3	1	3	3	8	5	0	0	0	0	5	7	0	0	0	0	0		1	0	0	0	0	0	0	0
011813	11:08:24	10031	Trial	ResponseCR	14	0	175	0	114	11:08:24	2536379	4	3	3	3	3	3	1	3	3	8	5	0	0	0	0	5	7	0	0	0	0	0		1	0	0	0	0	0	0	0
011813	11:08:24	10031	Trial	CongruentRight	14	205	184	1	114	11:08:24	2536593	4	3	3	3	3	3	1	3	3	8	5	0	0	0	0	5	7	0	0	0	0	0		1	0	0	0	0	0	0	0
011813	11:08:24	10031	Trial	ResponseCR	14	0	175	0	114	11:08:24	2538085	4	3	3	3	3	3	1	3	3	8	5	0	0	0	0	5	7	0	0	0	0	0		1	0	0	0	0	0	0	0
011813	11:08:24	10031	Trial	CongruentRight	14	205	126	1	114	11:08:24	2538232	4	3	3	3	3	3	1	3	3	8	5	0	0	0	0	5	7	0	0	0	0	0		1	0	0	0	0	0	0	0
011813	11:08:24	10031	Trial	ResponseIR	14	0	175	0	114	11:08:24	2539791	4	3	3	3	3	3	1	3	3	8	5	0	0	0	0	5	7	0	0	0	0	0		1	0	0	0	0	0	0	0
011813	11:08:24	10031	Trial	IncongruentRight	14	203	196	0	114	11:08:24	2540004	4	3	3	3	3	3	1	3	3	8	5	0	0	0	0	5	7	0	0	0	0	0		1	0	0	0	0	0	0	0
011813	11:08:24	10031	Trial	ResponseCL	14	0	175	0	114	11:08:24	2541497	4	3	3	3	3	3	1	3	3	8	5	0	0	0	0	5	7	0	0	0	0	0		1	0	0	0	0	0	0	0
011813	11:08:24	10031	Trial	CongruentLeft	14	203	170	1	114	11:08:24	2541684	4	3	3	3	3	3	1	3	3	8	5	0	0	0	0	5	7	0	0	0	0	0		1	0	0	0	0	0	0	0
011813	11:08:24	10031	Trial	ResponseIL	14	0	175	0	114	11:08:24	2543203	4	3	3	3	3	3	1	3	3	8	5	0	0	0	0	5	7	0	0	0	0	0		1	0	0	0	0	0	0	0
011813	11:08:24	10031	Trial	IncongruentLeft	14	205	192	0	114	11:08:24	2543416	4	3	3	3	3	3	1	3	3	8	5	0	0	0	0	5	7	0	0	0	0	0		1	0	0	0	0	0	0	0
011813	11:08:24	10031	Trial	ResponseCL	14	0	175	0	114	11:08:24	2544909	4	3	3	3	3	3	1	3	3	8	5	0	0	0	0	5	7	0	0	0	0	0		1	0	0	0	0	0	0	0
011813	11:08:24	10031	Trial	CongruentLeft	14	203	118	1	114	11:08:24	2545056	4	3	3	3	3	3	1	3	3	8	5	0	0	0	0	5	7	0	0	0	0	0		1	0	0	0	0	0	0	0
011813	11:08:24	10031	Trial	ResponseIR	14	0	175	0	114	11:08:24	2546615	4	3	3	3	3	3	1	3	3	8	5	0	0	0	0	5	7	0	0	0	0	0		1	0	0	0	0	0	0	0
011813	11:08:24	10031	Trial	IncongruentRight	14	205	220	1	114	11:08:24	2546855	4	3	3	3	3	3	1	3	3	8	5	0	0	0	0	5	7	0	0	0	0	0		1	0	0	0	0	0	0	0
011813	11:08:24	10031	Trial	ResponseIL	14	0	175	0	114	11:08:24	2548321	4	3	3	3	3	3	1	3	3	8	5	0	0	0	0	5	7	0	0	0	0	0		1	0	0	0	0	0	0	0
011813	11:08:24	10031	Trial	IncongruentLeft	14	203	226	1	114	11:08:24	2548574	4	3	3	3	3	3	1	3	3	8	5	0	0	0	0	5	7	0	0	0	0	0		1	0	0	0	0	0	0	0
011813	11:08:24	10031	Trial	ResponseCR	14	0	175	0	114	11:08:24	2550027	4	3	3	3	3	3	1	3	3	8	5	0	0	0	0	5	7	0	0	0	0	0		1	0	0	0	0	0	0	0
011813	11:08:24	10031	Trial	CongruentRight	14	205	216	1	114	11:08:24	2550267	4	3	3	3	3	3	1	3	3	8	5	0	0	0	0	5	7	0	0	0	0	0		1	0	0	0	0	0	0	0
011813	11:08:24	10031	Trial	ResponseCL	14	0	175	0	114	11:08:24	2551733	4	3	3	3	3	3	1	3	3	8	5	0	0	0	0	5	7	0	0	0	0	0		1	0	0	0	0	0	0	0
011813	11:08:24	10031	Trial	CongruentLeft	14	203	126	1	114	11:08:24	2551880	4	3	3	3	3	3	1	3	3	8	5	0	0	0	0	5	7	0	0	0	0	0		1	0	0	0	0	0	0	0
011813	11:08:24	10031	Trial	ResponseIL	14	0	175	0	114	11:08:24	2553439	4	3	3	3	3	3	1	3	3	8	5	0	0	0	0	5	7	0	0	0	0	0		1	0	0	0	0	0	0	0
011813	11:08:24	10031	Trial	IncongruentLeft	14	205	212	0	114	11:08:24	2553679	4	3	3	3	3	3	1	3	3	8	5	0	0	0	0	5	7	0	0	0	0	0		1	0	0	0	0	0	0	0
011813	11:08:24	10031	Trial	ResponseCL	14	0	175	0	114	11:08:24	2555145	4	3	3	3	3	3	1	3	3	8	5	0	0	0	0	5	7	0	0	0	0	0		1	0	0	0	0	0	0	0
011813	11:08:24	10031	Trial	CongruentLeft	14	203	218	1	114	11:08:24	2555385	4	3	3	3	3	3	1	3	3	8	5	0	0	0	0	5	7	0	0	0	0	0		1	0	0	0	0	0	0	0
011813	11:08:24	10031	Trial	ResponseIR	14	0	175	0	114	11:08:24	2556851	4	3	3	3	3	3	1	3	3	8	5	0	0	0	0	5	7	0	0	0	0	0		1	0	0	0	0	0	0	0
011813	11:08:24	10031	Trial	IncongruentRight	14	205	240	1	114	11:08:24	2557118	4	3	3	3	3	3	1	3	3	8	5	0	0	0	0	5	7	0	0	0	0	0		1	0	0	0	0	0	0	0
011813	11:08:24	10031	Trial	ResponseCR	14	0	175	0	114	11:08:24	2558557	4	3	3	3	3	3	1	3	3	8	5	0	0	0	0	5	7	0	0	0	0	0		1	0	0	0	0	0	0	0
011813	11:08:24	10031	Trial	CongruentRight	14	205	214	1	114	11:08:24	2558797	4	3	3	3	3	3	1	3	3	8	5	0	0	0	0	5	7	0	0	0	0	0		1	0	0	0	0	0	0	0
011813	11:08:24	10031	Trial	ResponseIL	14	0	175	0	114	11:08:24	2560263	4	3	3	3	3	3	1	3	3	8	5	0	0	0	0	5	7	0	0	0	0	0		1	0	0	0	0	0	0	0
011813	11:08:24	10031	Trial	IncongruentLeft	14	203	236	1	114	11:08:24	2560516	4	3	3	3	3	3	1	3	3	8	5	0	0	0	0	5	7	0	0	0	0	0		1	0	0	0	0	0	0	0
011813	11:08:24	10031	Trial	ResponseCL	14	0	175	0	114	11:08:24	2561969	4	3	3	3	3	3	1	3	3	8	5	0	0	0	0	5	7	0	0	0	0	0		1	0	0	0	0	0	0	0
011813	11:08:24	10031	Trial	CongruentLeft	14	203	226	1	114	11:08:24	2562222	4	3	3	3	3	3	1	3	3	8	5	0	0	0	0	5	7	0	0	0	0	0		1	0	0	0	0	0	0	0
011813	11:08:24	10031	Trial	ResponseIR	14	0	175	0	114	11:08:24	2563675	4	3	3	3	3	3	1	3	3	8	5	0	0	0	0	5	7	0	0	0	0	0		1	0	0	0	0	0	0	0
011813	11:08:24	10031	Trial	IncongruentRight	14	205	248	1	114	11:08:24	2563941	4	3	3	3	3	3	1	3	3	8	5	0	0	0	0	5	7	0	0	0	0	0		1	0	0	0	0	0	0	0
011813	11:08:24	10031	Trial	ResponseIL	14	0	175	0	114	11:08:24	2565381	4	3	3	3	3	3	1	3	3	8	5	0	0	0	0	5	7	0	0	0	0	0		1	0	0	0	0	0	0	0
011813	11:08:24	10031	Trial	IncongruentLeft	14	203	302	1	114	11:08:24	2565701	4	3	3	3	3	3	1	3	3	8	5	0	0	0	0	5	7	0	0	0	0	0		1	0	0	0	0	0	0	0
011813	11:08:24	10031	Trial	ResponseCL	14	0	175	0	114	11:08:24	2567087	4	3	3	3	3	3	1	3	3	8	5	0	0	0	0	5	7	0	0	0	0	0		1	0	0	0	0	0	0	0
011813	11:08:24	10031	Trial	CongruentLeft	14	203	436	1	114	11:08:24	2567540	4	3	3	3	3	3	1	3	3	8	5	0	0	0	0	5	7	0	0	0	0	0		1	0	0	0	0	0	0	0
011813	11:08:24	10031	Trial	ResponseIL	14	0	175	0	114	11:08:24	2568793	4	3	3	3	3	3	1	3	3	8	5	0	0	0	0	5	7	0	0	0	0	0		1	0	0	0	0	0	0	0
011813	11:08:24	10031	Trial	IncongruentLeft	14	203	250	1	114	11:08:24	2569059	4	3	3	3	3	3	1	3	3	8	5	0	0	0	0	5	7	0	0	0	0	0		1	0	0	0	0	0	0	0
011813	11:08:24	10031	Trial	ResponseCR	14	0	175	0	114	11:08:24	2570499	4	3	3	3	3	3	1	3	3	8	5	0	0	0	0	5	7	0	0	0	0	0		1	0	0	0	0	0	0	0
011813	11:08:24	10031	Trial	CongruentRight	14	205	240	1	114	11:08:24	2570765	4	3	3	3	3	3	1	3	3	8	5	0	0	0	0	5	7	0	0	0	0	0		1	0	0	0	0	0	0	0
011813	11:08:24	10031	Trial	ResponseCL	14	0	175	0	114	11:08:24	2572205	4	3	3	3	3	3	1	3	3	8	5	0	0	0	0	5	7	0	0	0	0	0		1	0	0	0	0	0	0	0
011813	11:08:24	10031	Trial	CongruentLeft	14	203	197	1	114	11:08:24	2572431	4	3	3	3	3	3	1	3	3	8	5	0	0	0	0	5	7	0	0	0	0	0		1	0	0	0	0	0	0	0
011813	11:08:24	10031	Trial	ResponseIR	14	0	175	0	114	11:08:24	2573911	4	3	3	3	3	3	1	3	3	8	5	0	0	0	0	5	7	0	0	0	0	0		1	0	0	0	0	0	0	0
011813	11:08:24	10031	Trial	IncongruentRight	14	203	236	0	114	11:08:24	2574164	4	3	3	3	3	3	1	3	3	8	5	0	0	0	0	5	7	0	0	0	0	0		1	0	0	0	0	0	0	0
011813	11:08:24	10031	Trial	ResponseCL	14	0	175	0	114	11:08:24	2575617	4	3	3	3	3	3	1	3	3	8	5	0	0	0	0	5	7	0	0	0	0	0		1	0	0	0	0	0	0	0
011813	11:08:24	10031	Trial	CongruentLeft	14	203	242	1	114	11:08:24	2575883	4	3	3	3	3	3	1	3	3	8	5	0	0	0	0	5	7	0	0	0	0	0		1	0	0	0	0	0	0	0
011813	11:08:24	10031	Trial	ResponseCR	14	0	175	0	114	11:08:24	2577323	4	3	3	3	3	3	1	3	3	8	5	0	0	0	0	5	7	0	0	0	0	0		1	0	0	0	0	0	0	0
011813	11:08:24	10031	Trial	CongruentRight	14	205	184	1	114	11:08:24	2577536	4	3	3	3	3	3	1	3	3	8	5	0	0	0	0	5	7	0	0	0	0	0		1	0	0	0	0	0	0	0
011813	11:08:24	10031	Trial	ResponseIL	14	0	175	0	114	11:08:24	2579028	4	3	3	3	3	3	1	3	3	8	5	0	0	0	0	5	7	0	0	0	0	0		1	0	0	0	0	0	0	0
011813	11:08:24	10031	Trial	IncongruentLeft	14	203	254	1	114	11:08:24	2579308	4	3	3	3	3	3	1	3	3	8	5	0	0	0	0	5	7	0	0	0	0	0		1	0	0	0	0	0	0	0
011813	11:08:24	10031	WordsAbsEng6mo	PAbsEng6mo1	16	Abs1	3755	0	114	11:08:24	2590783	4	3	3	3	3	3	1	3	3	8	5	0	0	0	0	5	7	0	0	0	0	0		1	0	0	0	0	0	0	0
011813	11:08:24	10031	WordsAbsEng6mo	AbsEng6mo1	16	Abs1	1978	0	114	11:08:24	2592796	4	3	3	3	3	3	1	3	3	8	5	1	0	0	0	5	7	0	0	0	0	0		1	0	0	0	0	0	0	0
011813	11:08:24	10031	WordsAbsEng6mo	AbsEng6mo2	16	Abs2	29069	0	114	11:08:24	2621904	4	3	3	3	3	3	1	3	3	8	5	1	0	0	0	5	7	0	0	0	0	0		1	0	0	0	0	0	0	0
011813	11:08:24	10031	WordsAbsEng6mo	AbsEng6mo3	16	Abs2	4280	0	114	11:08:24	2626222	4	3	3	3	3	3	1	3	3	8	5	1	0	0	0	5	7	0	0	0	0	0		1	0	0	0	0	0	0	0
011813	11:08:24	10031	Trial2BackEngS	NS	17	0	1000	1	114	11:08:24	2666832	4	3	3	3	3	3	1	3	3	8	5	1	0	0	0	5	7	0	0	0	0	0		1	0	0	0	0	0	0	0
011813	11:08:24	10031	Trial2BackEngS	NS	17	0	1000	1	114	11:08:24	2668338	4	3	3	3	3	3	1	3	3	8	5	1	0	0	0	5	7	0	0	0	0	0		1	0	0	0	0	0	0	0
011813	11:08:24	10031	Trial2BackEngS	NS	17	0	1000	1	114	11:08:24	2669844	4	3	3	3	3	3	1	3	3	8	5	1	0	0	0	5	7	0	0	0	0	0		1	0	0	0	0	0	0	0
011813	11:08:24	10031	Trial2BackEngS	YS	17	57	528	1	114	11:08:24	2670884	4	3	3	3	3	3	1	3	3	8	5	1	0	0	0	5	7	0	0	0	0	0		1	0	0	0	0	0	0	0
011813	11:08:24	10031	Trial2BackEngS	NS	17	0	1000	1	114	11:08:24	2672856	4	3	3	3	3	3	1	3	3	8	5	1	0	0	0	5	7	0	0	0	0	0		1	0	0	0	0	0	0	0
011813	11:08:24	10031	Trial2BackEngS	NS	17	0	1000	1	114	11:08:24	2674362	4	3	3	3	3	3	1	3	3	8	5	1	0	0	0	5	7	0	0	0	0	0		1	0	0	0	0	0	0	0
011813	11:08:24	10031	Trial2BackEngS	NS	17	0	1000	1	114	11:08:24	2675868	4	3	3	3	3	3	1	3	3	8	5	1	0	0	0	5	7	0	0	0	0	0		1	0	0	0	0	0	0	0
011813	11:08:24	10031	Trial2BackEngS	NS	17	0	1000	1	114	11:08:24	2677388	4	3	3	3	3	3	1	3	3	8	5	1	0	0	0	5	7	0	0	0	0	0		1	0	0	0	0	0	0	0
011813	11:08:24	10031	Trial2BackEngS	YS	17	0	1000	0	114	11:08:24	2678894	4	3	3	3	3	3	1	3	3	8	5	1	0	0	0	5	7	0	0	0	0	0		1	0	0	0	0	0	0	0
011813	11:08:24	10031	Trial2BackEngS	NS	17	0	1000	1	114	11:08:24	2680400	4	3	3	3	3	3	1	3	3	8	5	1	0	0	0	5	7	0	0	0	0	0		1	0	0	0	0	0	0	0
011813	11:08:24	10031	Trial2BackEngS	NS	17	0	1000	1	114	11:08:24	2681906	4	3	3	3	3	3	1	3	3	8	5	1	0	0	0	5	7	0	0	0	0	0		1	0	0	0	0	0	0	0
011813	11:08:24	10031	Trial2BackEngS	YS	17	0	1000	0	114	11:08:24	2683425	4	3	3	3	3	3	1	3	3	8	5	1	0	0	0	5	7	0	0	0	0	0		1	0	0	0	0	0	0	0
011813	11:08:24	10031	Trial2BackEngS	NS	17	0	1000	1	114	11:08:24	2684931	4	3	3	3	3	3	1	3	3	8	5	1	0	0	0	5	7	0	0	0	0	0		1	0	0	0	0	0	0	0
011813	11:08:24	10031	Trial2BackEngS	NS	17	0	1000	1	114	11:08:24	2686437	4	3	3	3	3	3	1	3	3	8	5	1	0	0	0	5	7	0	0	0	0	0		1	0	0	0	0	0	0	0
011813	11:08:24	10031	Trial2BackEngS	NS	17	0	1000	1	114	11:08:24	2687943	4	3	3	3	3	3	1	3	3	8	5	1	0	0	0	5	7	0	0	0	0	0		1	0	0	0	0	0	0	0
011813	11:08:24	10031	Trial2BackEngS	YS	17	57	732	1	114	11:08:24	2689183	4	3	3	3	3	3	1	3	3	8	5	1	0	0	0	5	7	0	0	0	0	0		1	0	0	0	0	0	0	0
011813	11:08:24	10031	Trial2BackEngS	NS	17	0	1000	1	114	11:08:24	2690955	4	3	3	3	3	3	1	3	3	8	5	1	0	0	0	5	7	0	0	0	0	0		1	0	0	0	0	0	0	0
011813	11:08:24	10031	Trial2BackEngS	NS	17	0	1000	1	114	11:08:24	2692461	4	3	3	3	3	3	1	3	3	8	5	1	0	0	0	5	7	0	0	0	0	0		1	0	0	0	0	0	0	0
011813	11:08:24	10031	Trial2BackEngS	NS	17	0	1000	1	114	11:08:24	2693967	4	3	3	3	3	3	1	3	3	8	5	1	0	0	0	5	7	0	0	0	0	0		1	0	0	0	0	0	0	0
011813	11:08:24	10031	Trial2BackEngS	NS	17	0	1000	1	114	11:08:24	2695487	4	3	3	3	3	3	1	3	3	8	5	1	0	0	0	5	7	0	0	0	0	0		1	0	0	0	0	0	0	0
011813	11:08:24	10031	Trial2BackEngS	YS	17	57	484	1	114	11:08:24	2696486	4	3	3	3	3	3	1	3	3	8	5	1	0	0	0	5	7	0	0	0	0	0		1	0	0	0	0	0	0	0
011813	11:08:24	10031	Trial2BackEngS	NS	17	0	1000	1	114	11:08:24	2698499	4	3	3	3	3	3	1	3	3	8	5	1	0	0	0	5	7	0	0	0	0	0		1	0	0	0	0	0	0	0
011813	11:08:24	10031	Trial2BackEngS	NS	17	0	1000	1	114	11:08:24	2700005	4	3	3	3	3	3	1	3	3	8	5	1	0	0	0	5	7	0	0	0	0	0		1	0	0	0	0	0	0	0
011813	11:08:24	10031	Trial2BackEngS	NS	17	0	1000	1	114	11:08:24	2701511	4	3	3	3	3	3	1	3	3	8	5	1	0	0	0	5	7	0	0	0	0	0		1	0	0	0	0	0	0	0
011813	11:08:24	10031	Trial2BackEngS	NS	17	0	1000	1	114	11:08:24	2703030	4	3	3	3	3	3	1	3	3	8	5	1	0	0	0	5	7	0	0	0	0	0		1	0	0	0	0	0	0	0
011813	11:08:24	10031	Trial2BackEngS	NS	17	0	1000	1	114	11:08:24	2704536	4	3	3	3	3	3	1	3	3	8	5	1	0	0	0	5	7	0	0	0	0	0		1	0	0	0	0	0	0	0
011813	11:08:24	10031	Trial2BackEngS	NS	17	0	1000	1	114	11:08:24	2706056	4	3	3	3	3	3	1	3	3	8	5	1	0	0	0	5	7	0	0	0	0	0		1	0	0	0	0	0	0	0
011813	11:08:24	10031	Trial2BackEngS	NS	17	0	1000	1	114	11:08:24	2707562	4	3	3	3	3	3	1	3	3	8	5	1	0	0	0	5	7	0	0	0	0	0		1	0	0	0	0	0	0	0
011813	11:08:24	10031	Trial2BackEngS	NS	17	0	1000	1	114	11:08:24	2709081	4	3	3	3	3	3	1	3	3	8	5	1	0	0	0	5	7	0	0	0	0	0		1	0	0	0	0	0	0	0
011813	11:08:24	10031	Trial2BackEngS	NS	17	0	1000	1	114	11:08:24	2710587	4	3	3	3	3	3	1	3	3	8	5	1	0	0	0	5	7	0	0	0	0	0		1	0	0	0	0	0	0	0
011813	11:08:24	10031	Trial2BackEngS	NS	17	0	1000	1	114	11:08:24	2712094	4	3	3	3	3	3	1	3	3	8	5	1	0	0	0	5	7	0	0	0	0	0		1	0	0	0	0	0	0	0
011813	11:08:24	10031	Trial2BackEngS	YS	17	57	869	1	114	11:08:24	2713479	4	3	3	3	3	3	1	3	3	8	5	1	0	0	0	5	7	0	0	0	0	0		1	0	0	0	0	0	0	0
011813	11:08:24	10031	Trial2BackEngS	NS	17	0	1000	1	114	11:08:24	2715105	4	3	3	3	3	3	1	3	3	8	5	1	0	0	0	5	7	0	0	0	0	0		1	0	0	0	0	0	0	0
011813	11:08:24	10031	Trial2BackEngS	NS	17	0	1000	1	114	11:08:24	2716611	4	3	3	3	3	3	1	3	3	8	5	1	0	0	0	5	7	0	0	0	0	0		1	0	0	0	0	0	0	0
011813	11:08:24	10031	Trial2BackEngS	NS	17	0	1000	1	114	11:08:24	2718117	4	3	3	3	3	3	1	3	3	8	5	1	0	0	0	5	7	0	0	0	0	0		1	0	0	0	0	0	0	0
011813	11:08:24	10031	Trial2BackEngS	YS	17	0	1000	0	114	11:08:24	2719623	4	3	3	3	3	3	1	3	3	8	5	1	0	0	0	5	7	0	0	0	0	0		1	0	0	0	0	0	0	0
011813	11:08:24	10031	Trial2BackEngS	NS	17	0	1000	1	114	11:08:24	2721143	4	3	3	3	3	3	1	3	3	8	5	1	0	0	0	5	7	0	0	0	0	0		1	0	0	0	0	0	0	0
011813	11:08:24	10031	Trial2BackEngS	NS	17	0	1000	1	114	11:08:24	2722649	4	3	3	3	3	3	1	3	3	8	5	1	0	0	0	5	7	0	0	0	0	0		1	0	0	0	0	0	0	0
011813	11:08:24	10031	Trial2BackEngS	NS	17	0	1000	1	114	11:08:24	2724155	4	3	3	3	3	3	1	3	3	8	5	1	0	0	0	5	7	0	0	0	0	0		1	0	0	0	0	0	0	0
011813	11:08:24	10031	Trial2BackEngS	NS	17	0	1000	1	114	11:08:24	2725661	4	3	3	3	3	3	1	3	3	8	5	1	0	0	0	5	7	0	0	0	0	0		1	0	0	0	0	0	0	0
011813	11:08:24	10031	Trial2BackEngS	NS	17	0	1000	1	114	11:08:24	2727167	4	3	3	3	3	3	1	3	3	8	5	1	0	0	0	5	7	0	0	0	0	0		1	0	0	0	0	0	0	0
011813	11:08:24	10031	Trial2BackEngS	NS	17	0	1000	1	114	11:08:24	2728673	4	3	3	3	3	3	1	3	3	8	5	1	0	0	0	5	7	0	0	0	0	0		1	0	0	0	0	0	0	0
011813	11:08:24	10031	Trial2BackEngS	NS	17	0	1000	1	114	11:08:24	2730179	4	3	3	3	3	3	1	3	3	8	5	1	0	0	0	5	7	0	0	0	0	0		1	0	0	0	0	0	0	0
011813	11:08:24	10031	Trial2BackEngS	YS	17	0	1000	0	114	11:08:24	2731698	4	3	3	3	3	3	1	3	3	8	5	1	0	0	0	5	7	0	0	0	0	0		1	0	0	0	0	0	0	0
011813	11:08:24	10031	Trial2BackEngS	NS	17	0	1000	1	114	11:08:24	2733204	4	3	3	3	3	3	1	3	3	8	5	1	0	0	0	5	7	0	0	0	0	0		1	0	0	0	0	0	0	0
011813	11:08:24	10031	Trial2BackEngS	NS	17	0	1000	1	114	11:08:24	2734710	4	3	3	3	3	3	1	3	3	8	5	1	0	0	0	5	7	0	0	0	0	0		1	0	0	0	0	0	0	0
011813	11:08:24	10031	Trial2BackEngS	NS	17	0	1000	1	114	11:08:24	2736216	4	3	3	3	3	3	1	3	3	8	5	1	0	0	0	5	7	0	0	0	0	0		1	0	0	0	0	0	0	0
011813	11:08:24	10031	Trial2BackEngS	NS	17	0	1000	1	114	11:08:24	2737736	4	3	3	3	3	3	1	3	3	8	5	1	0	0	0	5	7	0	0	0	0	0		1	0	0	0	0	0	0	0
011813	11:08:24	10031	Trial2BackEngS	YS	17	0	1000	0	114	11:08:24	2739242	4	3	3	3	3	3	1	3	3	8	5	1	0	0	0	5	7	0	0	0	0	0		1	0	0	0	0	0	0	0
011813	11:08:24	10031	Trial2BackEngS	NS	17	0	1000	1	114	11:08:24	2740748	4	3	3	3	3	3	1	3	3	8	5	1	0	0	0	5	7	0	0	0	0	0		1	0	0	0	0	0	0	0
011813	11:08:24	10031	Trial2BackEngS	NS	17	0	1000	1	114	11:08:24	2742254	4	3	3	3	3	3	1	3	3	8	5	1	0	0	0	5	7	0	0	0	0	0		1	0	0	0	0	0	0	0
011813	11:08:24	10031	Trial2BackEngS	NS	17	0	1000	1	114	11:08:24	2743774	4	3	3	3	3	3	1	3	3	8	5	1	0	0	0	5	7	0	0	0	0	0		1	0	0	0	0	0	0	0
011813	11:08:24	10031	Trial2BackEngS	NS	17	0	1000	1	114	11:08:24	2745280	4	3	3	3	3	3	1	3	3	8	5	1	0	0	0	5	7	0	0	0	0	0		1	0	0	0	0	0	0	0
011813	11:08:24	10031	Trial2BackEngS	NS	17	0	1000	1	114	11:08:24	2746785	4	3	3	3	3	3	1	3	3	8	5	1	0	0	0	5	7	0	0	0	0	0		1	0	0	0	0	0	0	0
011813	11:08:24	10031	Trial2BackEngS	NS	17	0	1000	1	114	11:08:24	2748291	4	3	3	3	3	3	1	3	3	8	5	1	0	0	0	5	7	0	0	0	0	0		1	0	0	0	0	0	0	0
011813	11:08:24	10031	Trial2BackEngS	YS	17	0	1000	0	114	11:08:24	2749798	4	3	3	3	3	3	1	3	3	8	5	1	0	0	0	5	7	0	0	0	0	0		1	0	0	0	0	0	0	0
011813	11:08:24	10031	Trial2BackEngS	NS	17	0	1000	1	114	11:08:24	2751303	4	3	3	3	3	3	1	3	3	8	5	1	0	0	0	5	7	0	0	0	0	0		1	0	0	0	0	0	0	0
011813	11:08:24	10031	Trial2BackEngS	NS	17	0	1000	1	114	11:08:24	2752810	4	3	3	3	3	3	1	3	3	8	5	1	0	0	0	5	7	0	0	0	0	0		1	0	0	0	0	0	0	0
011813	11:08:24	10031	Trial2BackEngS	NS	17	0	1000	1	114	11:08:24	2754329	4	3	3	3	3	3	1	3	3	8	5	1	0	0	0	5	7	0	0	0	0	0		1	0	0	0	0	0	0	0
011813	11:08:24	10031	Trial2BackEngS	NS	17	0	1000	1	114	11:08:24	2755835	4	3	3	3	3	3	1	3	3	8	5	1	0	0	0	5	7	0	0	0	0	0		1	0	0	0	0	0	0	0
011813	11:08:24	10031	Trial2BackEngS	NS	17	0	1000	1	114	11:08:24	2757354	4	3	3	3	3	3	1	3	3	8	5	1	0	0	0	5	7	0	0	0	0	0		1	0	0	0	0	0	0	0
011813	11:08:24	10031	Trial2BackEngS	NS	17	0	1000	1	114	11:08:24	2758860	4	3	3	3	3	3	1	3	3	8	5	1	0	0	0	5	7	0	0	0	0	0		1	0	0	0	0	0	0	0
011813	11:08:24	10031	Trial2BackEngS	NS	17	0	1000	1	114	11:08:24	2760366	4	3	3	3	3	3	1	3	3	8	5	1	0	0	0	5	7	0	0	0	0	0		1	0	0	0	0	0	0	0
011813	11:08:24	10031	Trial2BackEngS	YS	17	57	642	1	114	11:08:24	2761526	4	3	3	3	3	3	1	3	3	8	5	1	0	0	0	5	7	0	0	0	0	0		1	0	0	0	0	0	0	0
011813	11:08:24	10031	Trial2BackEngS	NS	17	0	1000	1	114	11:08:24	2763379	4	3	3	3	3	3	1	3	3	8	5	1	0	0	0	5	7	0	0	0	0	0		1	0	0	0	0	0	0	0
011813	11:08:24	10031	Trial2BackEngS	NS	17	0	1000	1	114	11:08:24	2764885	4	3	3	3	3	3	1	3	3	8	5	1	0	0	0	5	7	0	0	0	0	0		1	0	0	0	0	0	0	0
011813	11:08:24	10031	Trial2BackEngS	NS	17	0	1000	1	114	11:08:24	2766390	4	3	3	3	3	3	1	3	3	8	5	1	0	0	0	5	7	0	0	0	0	0		1	0	0	0	0	0	0	0
011813	11:08:24	10031	Trial2BackEngS	NS	17	0	1000	1	114	11:08:24	2767897	4	3	3	3	3	3	1	3	3	8	5	1	0	0	0	5	7	0	0	0	0	0		1	0	0	0	0	0	0	0
011813	11:08:24	10031	Trial2BackEngS	YS	17	0	1000	0	114	11:08:24	2769416	4	3	3	3	3	3	1	3	3	8	5	1	0	0	0	5	7	0	0	0	0	0		1	0	0	0	0	0	0	0
011813	11:08:24	10031	Trial2BackEngS	NS	17	0	1000	1	114	11:08:24	2770922	4	3	3	3	3	3	1	3	3	8	5	1	0	0	0	5	7	0	0	0	0	0		1	0	0	0	0	0	0	0
011813	11:08:24	10031	Trial2BackEngS	NS	17	57	790	0	114	11:08:24	2772228	4	3	3	3	3	3	1	3	3	8	5	1	0	0	0	5	7	0	0	0	0	0		1	0	0	0	0	0	0	0
011813	11:08:24	10031	Trial2BackEngS	YS	17	57	884	1	114	11:08:24	2773827	4	3	3	3	3	3	1	3	3	8	5	1	0	0	0	5	7	0	0	0	0	0		1	0	0	0	0	0	0	0
011813	11:08:24	10031	Trial2BackEngS	NS	17	0	1000	1	114	11:08:24	2775440	4	3	3	3	3	3	1	3	3	8	5	1	0	0	0	5	7	0	0	0	0	0		1	0	0	0	0	0	0	0
011813	11:08:24	10031	Trial2BackEngS	NS	17	0	1000	1	114	11:08:24	2776946	4	3	3	3	3	3	1	3	3	8	5	1	0	0	0	5	7	0	0	0	0	0		1	0	0	0	0	0	0	0
011813	11:08:24	10031	Trial2BackEngS	NS	17	0	1000	1	114	11:08:24	2778452	4	3	3	3	3	3	1	3	3	8	5	1	0	0	0	5	7	0	0	0	0	0		1	0	0	0	0	0	0	0
011813	11:08:24	10031	Trial2BackEngS	NS	17	0	1000	1	114	11:08:24	2779958	4	3	3	3	3	3	1	3	3	8	5	1	0	0	0	5	7	0	0	0	0	0		1	0	0	0	0	0	0	0
011813	11:08:24	10031	Trial2BackEngS	NS	17	0	1000	1	114	11:08:24	2781478	4	3	3	3	3	3	1	3	3	8	5	1	0	0	0	5	7	0	0	0	0	0		1	0	0	0	0	0	0	0
011813	11:08:24	10031	Trial2BackEngS	NS	17	0	1000	1	114	11:08:24	2782984	4	3	3	3	3	3	1	3	3	8	5	1	0	0	0	5	7	0	0	0	0	0		1	0	0	0	0	0	0	0
011813	11:08:24	10031	Trial2BackEngS	YS	17	57	504	1	114	11:08:24	2783997	4	3	3	3	3	3	1	3	3	8	5	1	0	0	0	5	7	0	0	0	0	0		1	0	0	0	0	0	0	0
011813	11:08:24	10031	Trial2BackEngS	NS	17	0	1000	1	114	11:08:24	2785996	4	3	3	3	3	3	1	3	3	8	5	1	0	0	0	5	7	0	0	0	0	0		1	0	0	0	0	0	0	0
011813	11:08:24	10031	Trial2BackEngS	NS	17	0	1000	1	114	11:08:24	2787502	4	3	3	3	3	3	1	3	3	8	5	1	0	0	0	5	7	0	0	0	0	0		1	0	0	0	0	0	0	0
011813	11:08:24	10031	Trial2BackEngS	NS	17	0	1000	1	114	11:08:24	2789021	4	3	3	3	3	3	1	3	3	8	5	1	0	0	0	5	7	0	0	0	0	0		1	0	0	0	0	0	0	0
011813	11:08:24	10031	Trial2BackEngS	NS	17	0	1000	1	114	11:08:24	2790527	4	3	3	3	3	3	1	3	3	8	5	1	0	0	0	5	7	0	0	0	0	0		1	0	0	0	0	0	0	0
011813	11:08:24	10031	Trial2BackEngS	YS	17	57	560	1	114	11:08:24	2791607	4	3	3	3	3	3	1	3	3	8	5	1	0	0	0	5	7	0	0	0	0	0		1	0	0	0	0	0	0	0
011813	11:08:24	10031	Trial2BackEngS	NS	17	0	1000	1	114	11:08:24	2793539	4	3	3	3	3	3	1	3	3	8	5	1	0	0	0	5	7	0	0	0	0	0		1	0	0	0	0	0	0	0
011813	11:08:24	10031	Trial2BackEngS	NS	17	0	1000	1	114	11:08:24	2795045	4	3	3	3	3	3	1	3	3	8	5	1	0	0	0	5	7	0	0	0	0	0		1	0	0	0	0	0	0	0
011813	11:08:24	10031	Trial2BackEngS	NS	17	0	1000	1	114	11:08:24	2796551	4	3	3	3	3	3	1	3	3	8	5	1	0	0	0	5	7	0	0	0	0	0		1	0	0	0	0	0	0	0
011813	11:08:24	10031	Trial2BackEngS	NS	17	57	680	0	114	11:08:24	2797751	4	3	3	3	3	3	1	3	3	8	5	1	0	0	0	5	7	0	0	0	0	0		1	0	0	0	0	0	0	0
011813	11:08:24	10031	Trial2BackEngS	YS	17	0	1000	0	114	11:08:24	2799564	4	3	3	3	3	3	1	3	3	8	5	1	0	0	0	5	7	0	0	0	0	0		1	0	0	0	0	0	0	0
011813	11:08:24	10031	Trial2BackEngS	NS	17	0	1000	1	114	11:08:24	2801070	4	3	3	3	3	3	1	3	3	8	5	1	0	0	0	5	7	0	0	0	0	0		1	0	0	0	0	0	0	0
011813	11:08:24	10031	Trial2BackEngS	NS	17	0	1000	1	114	11:08:24	2802576	4	3	3	3	3	3	1	3	3	8	5	1	0	0	0	5	7	0	0	0	0	0		1	0	0	0	0	0	0	0
011813	11:08:24	10031	Trial2BackEngS	YS	17	57	623	1	114	11:08:24	2803708	4	3	3	3	3	3	1	3	3	8	5	1	0	0	0	5	7	0	0	0	0	0		1	0	0	0	0	0	0	0
011813	11:08:24	10031	Trial2BackEngS	NS	17	0	1000	1	114	11:08:24	2805588	4	3	3	3	3	3	1	3	3	8	5	1	0	0	0	5	7	0	0	0	0	0		1	0	0	0	0	0	0	0
011813	11:08:24	10031	Trial2BackEngS	NS	17	0	1000	1	114	11:08:24	2807094	4	3	3	3	3	3	1	3	3	8	5	1	0	0	0	5	7	0	0	0	0	0		1	0	0	0	0	0	0	0
011813	11:08:24	10031	Trial2BackEngS	NS	17	57	569	0	114	11:08:24	2808173	4	3	3	3	3	3	1	3	3	8	5	1	0	0	0	5	7	0	0	0	0	0		1	0	0	0	0	0	0	0
011813	11:08:24	10031	Trial2BackEngS	NS	17	0	1000	1	114	11:08:24	2810106	4	3	3	3	3	3	1	3	3	8	5	1	0	0	0	5	7	0	0	0	0	0		1	0	0	0	0	0	0	0
011813	11:08:24	10031	Trial2BackEngS	NS	17	0	1000	1	114	11:08:24	2811612	4	3	3	3	3	3	1	3	3	8	5	1	0	0	0	5	7	0	0	0	0	0		1	0	0	0	0	0	0	0
011813	11:08:24	10031	Trial2BackEngS	NS	17	0	1000	1	114	11:08:24	2813131	4	3	3	3	3	3	1	3	3	8	5	1	0	0	0	5	7	0	0	0	0	0		1	0	0	0	0	0	0	0
011813	11:08:24	10031	Trial2BackEngS	NS	17	0	1000	1	114	11:08:24	2814637	4	3	3	3	3	3	1	3	3	8	5	1	0	0	0	5	7	0	0	0	0	0		1	0	0	0	0	0	0	0
011813	11:08:24	10031	Trial2BackEngS	NS	17	0	1000	1	114	11:08:24	2816143	4	3	3	3	3	3	1	3	3	8	5	1	0	0	0	5	7	0	0	0	0	0		1	0	0	0	0	0	0	0
011813	11:08:24	10031	Trial2BackEngS	YS	17	0	1000	0	114	11:08:24	2817649	4	3	3	3	3	3	1	3	3	8	5	1	0	0	0	5	7	0	0	0	0	0		1	0	0	0	0	0	0	0
011813	11:08:24	10031	Trial2BackEngS	NS	17	0	1000	1	114	11:08:24	2819169	4	3	3	3	3	3	1	3	3	8	5	1	0	0	0	5	7	0	0	0	0	0		1	0	0	0	0	0	0	0
011813	11:08:24	10031	Trial2BackEngS	NS	17	0	1000	1	114	11:08:24	2820675	4	3	3	3	3	3	1	3	3	8	5	1	0	0	0	5	7	0	0	0	0	0		1	0	0	0	0	0	0	0
011813	11:08:24	10031	Trial2BackEngS	NS	17	0	1000	1	114	11:08:24	2822181	4	3	3	3	3	3	1	3	3	8	5	1	0	0	0	5	7	0	0	0	0	0		1	0	0	0	0	0	0	0
011813	11:08:24	10031	Trial2BackEngS	NS	17	0	1000	1	114	11:08:24	2823687	4	3	3	3	3	3	1	3	3	8	5	1	0	0	0	5	7	0	0	0	0	0		1	0	0	0	0	0	0	0
011813	11:08:24	10031	Trial2BackEngS	NS	17	0	1000	1	114	11:08:24	2825206	4	3	3	3	3	3	1	3	3	8	5	1	0	0	0	5	7	0	0	0	0	0		1	0	0	0	0	0	0	0
011813	11:08:24	10031	Trial2BackEngS	NS	17	0	1000	1	114	11:08:24	2826712	4	3	3	3	3	3	1	3	3	8	5	1	0	0	0	5	7	0	0	0	0	0		1	0	0	0	0	0	0	0
011813	11:08:24	10031	Trial2BackEngS	NS	17	0	1000	1	114	11:08:24	2828218	4	3	3	3	3	3	1	3	3	8	5	1	0	0	0	5	7	0	0	0	0	0		1	0	0	0	0	0	0	0
011813	11:08:24	10031	Trial2BackEngS	YS	17	0	1000	0	114	11:08:24	2829724	4	3	3	3	3	3	1	3	3	8	5	1	0	0	0	5	7	0	0	0	0	0		1	0	0	0	0	0	0	0
011813	11:08:24	10031	Trial2BackEngS	NS	17	0	1000	1	114	11:08:24	2831230	4	3	3	3	3	3	1	3	3	8	5	1	0	0	0	5	7	0	0	0	0	0		1	0	0	0	0	0	0	0
011813	11:08:24	10031	Trial2BackEngS	NS	17	0	1000	1	114	11:08:24	2832736	4	3	3	3	3	3	1	3	3	8	5	1	0	0	0	5	7	0	0	0	0	0		1	0	0	0	0	0	0	0
011813	11:08:24	10031	Trial2BackEngS	NS	17	0	1000	1	114	11:08:24	2834242	4	3	3	3	3	3	1	3	3	8	5	1	0	0	0	5	7	0	0	0	0	0		1	0	0	0	0	0	0	0
011813	11:08:24	10031	Trial2BackEngS	NS	17	0	1000	1	114	11:08:24	2835748	4	3	3	3	3	3	1	3	3	8	5	1	0	0	0	5	7	0	0	0	0	0		1	0	0	0	0	0	0	0
011813	11:08:24	10031	Trial2BackEngS	NS	17	0	1000	1	114	11:08:24	2837255	4	3	3	3	3	3	1	3	3	8	5	1	0	0	0	5	7	0	0	0	0	0		1	0	0	0	0	0	0	0
011813	11:08:24	10031	Trial2BackEngS	NS	17	0	1000	1	114	11:08:24	2838761	4	3	3	3	3	3	1	3	3	8	5	1	0	0	0	5	7	0	0	0	0	0		1	0	0	0	0	0	0	0
011813	11:08:24	10031	Trial2BackEngS	NS	17	0	1000	1	114	11:08:24	2840267	4	3	3	3	3	3	1	3	3	8	5	1	0	0	0	5	7	0	0	0	0	0		1	0	0	0	0	0	0	0
011813	11:08:24	10031	Trial2BackEngS	NS	17	0	1000	1	114	11:08:24	2841773	4	3	3	3	3	3	1	3	3	8	5	1	0	0	0	5	7	0	0	0	0	0		1	0	0	0	0	0	0	0
011813	11:08:24	10031	Trial2BackEngS	NS	17	0	1000	1	114	11:08:24	2843279	4	3	3	3	3	3	1	3	3	8	5	1	0	0	0	5	7	0	0	0	0	0		1	0	0	0	0	0	0	0
011813	11:08:24	10031	Trial2BackEngS	YS	17	0	1000	0	114	11:08:24	2844798	4	3	3	3	3	3	1	3	3	8	5	1	0	0	0	5	7	0	0	0	0	0		1	0	0	0	0	0	0	0
011813	11:08:24	10031	Trial2BackEngS	NS	17	0	1000	1	114	11:08:24	2846304	4	3	3	3	3	3	1	3	3	8	5	1	0	0	0	5	7	0	0	0	0	0		1	0	0	0	0	0	0	0
011813	11:08:24	10031	ClockEng6mo	ClockEng6mo	19	Clock1	67261	0	114	11:08:24	2913690	4	3	3	3	3	3	1	3	3	8	5	1	1	0	0	5	7	0	0	0	0	0		1	0	0	0	0	0	0	0
011813	11:08:24	10031	ClockEng6mo	ClockEng6mo	19	Clock11	527	0	114	11:08:24	2914263	4	3	3	3	3	3	1	3	3	8	5	1	1	1	0	5	7	0	0	0	0	0		1	0	0	0	0	0	0	0
011813	11:08:24	10031	ClockEng6mo	ClockEng6mo	19	Clock111	610	0	114	11:08:24	2914929	4	3	3	3	3	3	1	3	3	8	5	1	1	1	1	5	7	0	0	0	0	0		1	0	0	0	0	0	0	0
011813	11:08:24	10031	ClockEng6mo	ClockEng6mo	19	Clockdone	2175	0	114	11:08:24	2917155	4	3	3	3	3	3	1	3	3	8	5	1	1	1	1	5	7	0	0	0	0	0		1	0	0	0	0	0	0	0
011813	11:08:24	10031	FASEngVF6mo	StopEngVF6mo	20	17	8249	0	114	11:08:24	3036014	4	3	3	3	3	3	1	3	3	8	5	1	1	1	1	5	7	0	0	0	0	0		1	0	0	0	0	0	0	0
011813	11:08:24	10031	practiceTOLENG	choice	20	R	12125	0	114	11:08:24	3146539	4	3	3	3	3	3	1	3	3	8	5	1	1	1	1	5	7	0	1	2	0	-2	R	0	0	0	12198	0	0	3134341	3146539
011813	11:08:24	10031	practiceTOLENG	choice	20	B	4561	0	114	11:08:24	3160459	4	3	3	3	3	3	1	3	3	8	5	1	1	1	1	5	7	0	1	2	1	-1	R3B	0	0	0	12198	0	0	3155842	3160459
011813	11:08:24	10031	practiceTOLENG	feedbackENG	20	0	2000	0	114	11:08:24	3167379	4	3	3	3	3	3	1	3	3	8	5	1	1	1	1	5	7	0	1	2	2	0	R3B1	1	3	3	12198	18805	31003	3155842	3160459
011813	11:08:24	10031	testTOLENG	choice	20	B	5638	0	114	11:08:24	3182794	4	3	3	3	3	3	1	3	3	8	5	1	1	1	1	5	7	2	1	2	0	-2	B	0	0	0	5710	0	0	3177084	3182794
011813	11:08:24	10031	testTOLENG	choice	20	R	2856	0	114	11:08:24	3190234	4	3	3	3	3	3	1	3	3	8	5	1	1	1	1	5	7	2	1	2	1	-1	B3R	0	0	0	5710	0	0	3187326	3190234
011813	11:08:24	10031	testTOLENG	feedbackENG	20	0	2000	0	114	11:08:24	3196947	4	3	3	3	3	3	1	3	3	8	5	1	1	1	1	5	7	2	1	2	2	0	B3R2	1	3	3	5710	12117	17827	3187326	3190234
011813	11:08:24	10031	testTOLENG	choice	20	B	11406	0	114	11:08:24	3209434	4	3	3	3	3	3	1	3	3	8	5	1	1	1	1	5	7	4	1	3	0	-3	B	0	0	3	11474	0	0	3197959	3209433
011813	11:08:24	10031	testTOLENG	choice	20	R	1553	0	114	11:08:24	3213642	4	3	3	3	3	3	1	3	3	8	5	1	1	1	1	5	7	4	1	3	1	-2	B3R	0	0	3	11474	0	0	3212037	3213641
011813	11:08:24	10031	testTOLENG	choice	20	B	1058	0	114	11:08:24	3216705	4	3	3	3	3	3	1	3	3	8	5	1	1	1	1	5	7	4	1	3	2	-1	B3R2B	0	0	3	11474	0	0	3215597	3216705
011813	11:08:24	10031	testTOLENG	feedbackENG	20	0	2000	0	114	11:08:24	3221531	4	3	3	3	3	3	1	3	3	8	5	1	1	1	1	5	7	4	1	3	3	0	B3R2B2	1	3	6	11474	10061	21535	3215597	3216705
011813	11:08:24	10031	testTOLENG	choice	20	R	7376	0	114	11:08:24	3229993	4	3	3	3	3	3	1	3	3	8	5	1	1	1	1	5	7	7	1	4	0	-4	R	0	0	6	7450	0	0	3222543	3229993
011813	11:08:24	10031	testTOLENG	choice	20	G	1353	0	114	11:08:24	3233553	4	3	3	3	3	3	1	3	3	8	5	1	1	1	1	5	7	7	1	4	1	-3	R2G	0	0	6	7450	0	0	3232157	3233553
011813	11:08:24	10031	testTOLENG	choice	20	R	1461	0	114	11:08:24	3238593	4	3	3	3	3	3	1	3	3	8	5	1	1	1	1	5	7	7	1	4	2	-2	R2G3R	0	0	6	7450	0	0	3237078	3238592
011813	11:08:24	10031	testTOLENG	choice	20	B	1012	0	114	11:08:24	3241929	4	3	3	3	3	3	1	3	3	8	5	1	1	1	1	5	7	7	1	4	3	-1	R2G3R1B	0	0	6	7450	0	0	3240862	3241928
011813	11:08:24	10031	testTOLENG	feedbackENG	20	0	2000	0	114	11:08:24	3245754	4	3	3	3	3	3	1	3	3	8	5	1	1	1	1	5	7	7	1	4	4	0	R2G3R1B1	1	3	9	7450	13724	21174	3240862	3241928
011813	11:08:24	10031	testTOLENG	choice	20	R	6423	0	114	11:08:24	3253257	4	3	3	3	3	3	1	3	3	8	5	1	1	1	1	5	7	10	1	5	0	-5	R	0	0	9	6491	0	0	3246766	3253257
011813	11:08:24	10031	testTOLENG	choice	20	G	1599	0	114	11:08:24	3257176	4	3	3	3	3	3	1	3	3	8	5	1	1	1	1	5	7	10	1	5	1	-4	R2G	0	0	9	6491	0	0	3255532	3257176
011813	11:08:24	10031	testTOLENG	choice	20	R	1166	0	114	11:08:24	3260088	4	3	3	3	3	3	1	3	3	8	5	1	1	1	1	5	7	10	1	5	2	-3	R2G3R	0	0	9	6491	0	0	3258868	3260088
011813	11:08:24	10031	testTOLENG	choice	20	B	1153	0	114	11:08:24	3264088	4	3	3	3	3	3	1	3	3	8	5	1	1	1	1	5	7	10	1	5	3	-2	R2G3R1B	0	0	9	6491	0	0	3262884	3264088
011813	11:08:24	10031	testTOLENG	choice	20	G	1261	0	114	11:08:24	3267168	4	3	3	3	3	3	1	3	3	8	5	1	1	1	1	5	7	10	1	5	4	-1	R2G3R1B1G	0	0	9	6491	0	0	3265861	3267168
011813	11:08:24	10031	testTOLENG	feedbackENG	20	0	2000	0	114	11:08:24	3271497	4	3	3	3	3	3	1	3	3	8	5	1	1	1	1	5	7	10	1	5	5	0	R2G3R1B1G1	1	3	12	6491	16204	22695	3265861	3267168
