date	time	subject	blockcode	trialcode	values.TaskNumber	response	latency	correct	values.Score	script.starttime	script.elapsedtime	values.ScoreS7	values.Word1	values.Word2	values.Word3	values.Word4	values.Word5	values.Word6	values.Word7	values.Word8	values.DigitSpanFwrd	values.DigitSpanBack	values.ScoreAbs	values.Contour	values.Numbers	values.Hands	values.corsiblockspanFwrd	values.corsiblockspanRev	values.problemnumber	values.subjectattempts	values.targetmoves	values.subjectmoves	expressions.excessmoves	values.movestring	expressions.targetachieved	values.problemscore	values.totalscoreTOL	expressions.firstmovetime	expressions.executiontime	expressions.solutiontime	values.t_choicestart	values.t_choiceend
012813	12:02:04	10025	Language	Language	0	English	14876	0	0	12:02:04	15115	0	0	0	0	0	0	0	0	0	0	0	0	0	0	0	0	0	0	0	0	0	0		1	0	0	0	0	0	0	0
012813	12:02:04	10025	Session	Session	0	6mo	644	0	0	12:02:04	15822	0	0	0	0	0	0	0	0	0	0	0	0	0	0	0	0	0	0	0	0	0	0		1	0	0	0	0	0	0	0
012813	12:02:04	10025	HandEng	HandEng	0	Right	3482	0	0	12:02:04	19367	0	0	0	0	0	0	0	0	0	0	0	0	0	0	0	0	0	0	0	0	0	0		1	0	0	0	0	0	0	0
012813	12:02:04	10025	CubeEng	CubeEng	1	1Cube	23955	0	0	12:02:04	1269314	0	0	0	0	0	0	0	0	0	0	0	0	0	0	0	0	0	0	0	0	0	0		1	0	0	0	0	0	0	0
012813	12:02:04	10025	pm.simpleEngRight	blank.simpleEng	2	0	1600	1	0	12:02:04	1278990	0	0	0	0	0	0	0	0	0	0	0	0	0	0	0	0	0	0	0	0	0	0		1	0	0	0	0	0	0	0
012813	12:02:04	10025	pm.simpleEngRight	pm.simpleEng	2	57	552	0	0	12:02:04	1279563	0	0	0	0	0	0	0	0	0	0	0	0	0	0	0	0	0	0	0	0	0	0		1	0	0	0	0	0	0	0
012813	12:02:04	10025	pm.simpleEngRight	blank.simpleEng	2	0	1500	1	0	12:02:04	1281082	0	0	0	0	0	0	0	0	0	0	0	0	0	0	0	0	0	0	0	0	0	0		1	0	0	0	0	0	0	0
012813	12:02:04	10025	pm.simpleEngRight	pm.simpleEng	2	57	507	0	0	12:02:04	1281615	0	0	0	0	0	0	0	0	0	0	0	0	0	0	0	0	0	0	0	0	0	0		1	0	0	0	0	0	0	0
012813	12:02:04	10025	pm.simpleEngRight	blank.simpleEng	2	0	2100	1	0	12:02:04	1283734	0	0	0	0	0	0	0	0	0	0	0	0	0	0	0	0	0	0	0	0	0	0		1	0	0	0	0	0	0	0
012813	12:02:04	10025	pm.simpleEngRight	pm.simpleEng	2	57	287	0	0	12:02:04	1284041	0	0	0	0	0	0	0	0	0	0	0	0	0	0	0	0	0	0	0	0	0	0		1	0	0	0	0	0	0	0
012813	12:02:04	10025	pm.simpleEngRight	blank.simpleEng	2	0	2500	1	0	12:02:04	1286560	0	0	0	0	0	0	0	0	0	0	0	0	0	0	0	0	0	0	0	0	0	0		1	0	0	0	0	0	0	0
012813	12:02:04	10025	pm.simpleEngRight	pm.simpleEng	2	57	341	0	0	12:02:04	1286920	0	0	0	0	0	0	0	0	0	0	0	0	0	0	0	0	0	0	0	0	0	0		1	0	0	0	0	0	0	0
012813	12:02:04	10025	pm.simpleEngRight	blank.simpleEng	2	0	1800	1	0	12:02:04	1288732	0	0	0	0	0	0	0	0	0	0	0	0	0	0	0	0	0	0	0	0	0	0		1	0	0	0	0	0	0	0
012813	12:02:04	10025	pm.simpleEngRight	pm.simpleEng	2	57	296	0	0	12:02:04	1289052	0	0	0	0	0	0	0	0	0	0	0	0	0	0	0	0	0	0	0	0	0	0		1	0	0	0	0	0	0	0
012813	12:02:04	10025	pm.simpleEngRight	blank.simpleEng	2	0	2400	1	0	12:02:04	1291465	0	0	0	0	0	0	0	0	0	0	0	0	0	0	0	0	0	0	0	0	0	0		1	0	0	0	0	0	0	0
012813	12:02:04	10025	pm.simpleEngRight	pm.simpleEng	2	57	348	0	0	12:02:04	1291838	0	0	0	0	0	0	0	0	0	0	0	0	0	0	0	0	0	0	0	0	0	0		1	0	0	0	0	0	0	0
012813	12:02:04	10025	pm.simpleEngRight	blank.simpleEng	2	0	1900	1	0	12:02:04	1293757	0	0	0	0	0	0	0	0	0	0	0	0	0	0	0	0	0	0	0	0	0	0		1	0	0	0	0	0	0	0
012813	12:02:04	10025	pm.simpleEngRight	pm.simpleEng	2	57	280	0	0	12:02:04	1294063	0	0	0	0	0	0	0	0	0	0	0	0	0	0	0	0	0	0	0	0	0	0		1	0	0	0	0	0	0	0
012813	12:02:04	10025	pm.simpleEngRight	blank.simpleEng	2	0	2200	1	0	12:02:04	1296276	0	0	0	0	0	0	0	0	0	0	0	0	0	0	0	0	0	0	0	0	0	0		1	0	0	0	0	0	0	0
012813	12:02:04	10025	pm.simpleEngRight	pm.simpleEng	2	57	368	0	0	12:02:04	1296662	0	0	0	0	0	0	0	0	0	0	0	0	0	0	0	0	0	0	0	0	0	0		1	0	0	0	0	0	0	0
012813	12:02:04	10025	pm.simpleEngRight	blank.simpleEng	2	0	2000	1	0	12:02:04	1298675	0	0	0	0	0	0	0	0	0	0	0	0	0	0	0	0	0	0	0	0	0	0		1	0	0	0	0	0	0	0
012813	12:02:04	10025	pm.simpleEngRight	pm.simpleEng	2	57	433	0	0	12:02:04	1299128	0	0	0	0	0	0	0	0	0	0	0	0	0	0	0	0	0	0	0	0	0	0		1	0	0	0	0	0	0	0
012813	12:02:04	10025	pm.simpleEngRight	blank.simpleEng	2	0	1700	1	0	12:02:04	1300847	0	0	0	0	0	0	0	0	0	0	0	0	0	0	0	0	0	0	0	0	0	0		1	0	0	0	0	0	0	0
012813	12:02:04	10025	pm.simpleEngRight	pm.simpleEng	2	57	309	0	0	12:02:04	1301181	0	0	0	0	0	0	0	0	0	0	0	0	0	0	0	0	0	0	0	0	0	0		1	0	0	0	0	0	0	0
012813	12:02:04	10025	pm.simpleEngRight	blank.simpleEng	2	0	2300	1	0	12:02:04	1303500	0	0	0	0	0	0	0	0	0	0	0	0	0	0	0	0	0	0	0	0	0	0		1	0	0	0	0	0	0	0
012813	12:02:04	10025	pm.simpleEngRight	pm.simpleEng	2	57	360	0	0	12:02:04	1303886	0	0	0	0	0	0	0	0	0	0	0	0	0	0	0	0	0	0	0	0	0	0		1	0	0	0	0	0	0	0
012813	12:02:04	10025	pm.simpleEngRight	blank.simpleEng	2	0	2200	1	0	12:02:04	1306098	0	0	0	0	0	0	0	0	0	0	0	0	0	0	0	0	0	0	0	0	0	0		1	0	0	0	0	0	0	0
012813	12:02:04	10025	pm.simpleEngRight	pm.simpleEng	2	57	337	0	0	12:02:04	1306458	0	0	0	0	0	0	0	0	0	0	0	0	0	0	0	0	0	0	0	0	0	0		1	0	0	0	0	0	0	0
012813	12:02:04	10025	pm.simpleEngRight	blank.simpleEng	2	0	1600	1	0	12:02:04	1308071	0	0	0	0	0	0	0	0	0	0	0	0	0	0	0	0	0	0	0	0	0	0		1	0	0	0	0	0	0	0
012813	12:02:04	10025	pm.simpleEngRight	pm.simpleEng	2	57	333	0	0	12:02:04	1308431	0	0	0	0	0	0	0	0	0	0	0	0	0	0	0	0	0	0	0	0	0	0		1	0	0	0	0	0	0	0
012813	12:02:04	10025	pm.simpleEngRight	blank.simpleEng	2	0	2000	1	0	12:02:04	1310443	0	0	0	0	0	0	0	0	0	0	0	0	0	0	0	0	0	0	0	0	0	0		1	0	0	0	0	0	0	0
012813	12:02:04	10025	pm.simpleEngRight	pm.simpleEng	2	57	280	0	0	12:02:04	1310750	0	0	0	0	0	0	0	0	0	0	0	0	0	0	0	0	0	0	0	0	0	0		1	0	0	0	0	0	0	0
012813	12:02:04	10025	pm.simpleEngRight	blank.simpleEng	2	0	2100	1	0	12:02:04	1312869	0	0	0	0	0	0	0	0	0	0	0	0	0	0	0	0	0	0	0	0	0	0		1	0	0	0	0	0	0	0
012813	12:02:04	10025	pm.simpleEngRight	pm.simpleEng	2	57	255	0	0	12:02:04	1313149	0	0	0	0	0	0	0	0	0	0	0	0	0	0	0	0	0	0	0	0	0	0		1	0	0	0	0	0	0	0
012813	12:02:04	10025	pm.simpleEngRight	blank.simpleEng	2	0	1700	1	0	12:02:04	1314868	0	0	0	0	0	0	0	0	0	0	0	0	0	0	0	0	0	0	0	0	0	0		1	0	0	0	0	0	0	0
012813	12:02:04	10025	pm.simpleEngRight	pm.simpleEng	2	57	335	0	0	12:02:04	1315228	0	0	0	0	0	0	0	0	0	0	0	0	0	0	0	0	0	0	0	0	0	0		1	0	0	0	0	0	0	0
012813	12:02:04	10025	pm.simpleEngRight	blank.simpleEng	2	0	2400	1	0	12:02:04	1317640	0	0	0	0	0	0	0	0	0	0	0	0	0	0	0	0	0	0	0	0	0	0		1	0	0	0	0	0	0	0
012813	12:02:04	10025	pm.simpleEngRight	pm.simpleEng	2	57	299	0	0	12:02:04	1317960	0	0	0	0	0	0	0	0	0	0	0	0	0	0	0	0	0	0	0	0	0	0		1	0	0	0	0	0	0	0
012813	12:02:04	10025	pm.simpleEngRight	blank.simpleEng	2	0	1900	1	0	12:02:04	1319879	0	0	0	0	0	0	0	0	0	0	0	0	0	0	0	0	0	0	0	0	0	0		1	0	0	0	0	0	0	0
012813	12:02:04	10025	pm.simpleEngRight	pm.simpleEng	2	57	284	0	0	12:02:04	1320186	0	0	0	0	0	0	0	0	0	0	0	0	0	0	0	0	0	0	0	0	0	0		1	0	0	0	0	0	0	0
012813	12:02:04	10025	pm.simpleEngRight	blank.simpleEng	2	0	1800	1	0	12:02:04	1321999	0	0	0	0	0	0	0	0	0	0	0	0	0	0	0	0	0	0	0	0	0	0		1	0	0	0	0	0	0	0
012813	12:02:04	10025	pm.simpleEngRight	pm.simpleEng	2	57	309	0	0	12:02:04	1322332	0	0	0	0	0	0	0	0	0	0	0	0	0	0	0	0	0	0	0	0	0	0		1	0	0	0	0	0	0	0
012813	12:02:04	10025	pm.simpleEngRight	blank.simpleEng	2	0	1500	1	0	12:02:04	1323851	0	0	0	0	0	0	0	0	0	0	0	0	0	0	0	0	0	0	0	0	0	0		1	0	0	0	0	0	0	0
012813	12:02:04	10025	pm.simpleEngRight	pm.simpleEng	2	57	248	0	0	12:02:04	1324118	0	0	0	0	0	0	0	0	0	0	0	0	0	0	0	0	0	0	0	0	0	0		1	0	0	0	0	0	0	0
012813	12:02:04	10025	pm.simpleEngRight	blank.simpleEng	2	0	2500	1	0	12:02:04	1326637	0	0	0	0	0	0	0	0	0	0	0	0	0	0	0	0	0	0	0	0	0	0		1	0	0	0	0	0	0	0
012813	12:02:04	10025	pm.simpleEngRight	pm.simpleEng	2	57	277	0	0	12:02:04	1326943	0	0	0	0	0	0	0	0	0	0	0	0	0	0	0	0	0	0	0	0	0	0		1	0	0	0	0	0	0	0
012813	12:02:04	10025	pm.simpleEngRight	blank.simpleEng	2	0	2300	1	0	12:02:04	1329262	0	0	0	0	0	0	0	0	0	0	0	0	0	0	0	0	0	0	0	0	0	0		1	0	0	0	0	0	0	0
012813	12:02:04	10025	pm.simpleEngRight	pm.simpleEng	2	57	309	0	0	12:02:04	1329595	0	0	0	0	0	0	0	0	0	0	0	0	0	0	0	0	0	0	0	0	0	0		1	0	0	0	0	0	0	0
012813	12:02:04	10025	pm.simpleEngRight	blank.simpleEng	2	0	1500	1	0	12:02:04	1331115	0	0	0	0	0	0	0	0	0	0	0	0	0	0	0	0	0	0	0	0	0	0		1	0	0	0	0	0	0	0
012813	12:02:04	10025	pm.simpleEngRight	pm.simpleEng	2	57	312	0	0	12:02:04	1331448	0	0	0	0	0	0	0	0	0	0	0	0	0	0	0	0	0	0	0	0	0	0		1	0	0	0	0	0	0	0
012813	12:02:04	10025	pm.simpleEngRight	blank.simpleEng	2	0	2400	1	0	12:02:04	1333860	0	0	0	0	0	0	0	0	0	0	0	0	0	0	0	0	0	0	0	0	0	0		1	0	0	0	0	0	0	0
012813	12:02:04	10025	pm.simpleEngRight	pm.simpleEng	2	57	287	0	0	12:02:04	1334167	0	0	0	0	0	0	0	0	0	0	0	0	0	0	0	0	0	0	0	0	0	0		1	0	0	0	0	0	0	0
012813	12:02:04	10025	pm.simpleEngRight	blank.simpleEng	2	0	2100	1	0	12:02:04	1336286	0	0	0	0	0	0	0	0	0	0	0	0	0	0	0	0	0	0	0	0	0	0		1	0	0	0	0	0	0	0
012813	12:02:04	10025	pm.simpleEngRight	pm.simpleEng	2	57	261	0	0	12:02:04	1336566	0	0	0	0	0	0	0	0	0	0	0	0	0	0	0	0	0	0	0	0	0	0		1	0	0	0	0	0	0	0
012813	12:02:04	10025	pm.simpleEngRight	blank.simpleEng	2	0	2000	1	0	12:02:04	1338578	0	0	0	0	0	0	0	0	0	0	0	0	0	0	0	0	0	0	0	0	0	0		1	0	0	0	0	0	0	0
012813	12:02:04	10025	pm.simpleEngRight	pm.simpleEng	2	57	289	0	0	12:02:04	1338885	0	0	0	0	0	0	0	0	0	0	0	0	0	0	0	0	0	0	0	0	0	0		1	0	0	0	0	0	0	0
012813	12:02:04	10025	pm.simpleEngRight	blank.simpleEng	2	0	1900	1	0	12:02:04	1340804	0	0	0	0	0	0	0	0	0	0	0	0	0	0	0	0	0	0	0	0	0	0		1	0	0	0	0	0	0	0
012813	12:02:04	10025	pm.simpleEngRight	pm.simpleEng	2	57	271	0	0	12:02:04	1341097	0	0	0	0	0	0	0	0	0	0	0	0	0	0	0	0	0	0	0	0	0	0		1	0	0	0	0	0	0	0
012813	12:02:04	10025	pm.simpleEngRight	blank.simpleEng	2	0	2200	1	0	12:02:04	1343310	0	0	0	0	0	0	0	0	0	0	0	0	0	0	0	0	0	0	0	0	0	0		1	0	0	0	0	0	0	0
012813	12:02:04	10025	pm.simpleEngRight	pm.simpleEng	2	57	277	0	0	12:02:04	1343603	0	0	0	0	0	0	0	0	0	0	0	0	0	0	0	0	0	0	0	0	0	0		1	0	0	0	0	0	0	0
012813	12:02:04	10025	pm.simpleEngRight	blank.simpleEng	2	0	1700	1	0	12:02:04	1345322	0	0	0	0	0	0	0	0	0	0	0	0	0	0	0	0	0	0	0	0	0	0		1	0	0	0	0	0	0	0
012813	12:02:04	10025	pm.simpleEngRight	pm.simpleEng	2	57	409	0	0	12:02:04	1345749	0	0	0	0	0	0	0	0	0	0	0	0	0	0	0	0	0	0	0	0	0	0		1	0	0	0	0	0	0	0
012813	12:02:04	10025	pm.simpleEngRight	blank.simpleEng	2	0	1600	1	0	12:02:04	1347361	0	0	0	0	0	0	0	0	0	0	0	0	0	0	0	0	0	0	0	0	0	0		1	0	0	0	0	0	0	0
012813	12:02:04	10025	pm.simpleEngRight	pm.simpleEng	2	57	321	0	0	12:02:04	1347708	0	0	0	0	0	0	0	0	0	0	0	0	0	0	0	0	0	0	0	0	0	0		1	0	0	0	0	0	0	0
012813	12:02:04	10025	pm.simpleEngRight	blank.simpleEng	2	0	1800	1	0	12:02:04	1349520	0	0	0	0	0	0	0	0	0	0	0	0	0	0	0	0	0	0	0	0	0	0		1	0	0	0	0	0	0	0
012813	12:02:04	10025	pm.simpleEngRight	pm.simpleEng	2	57	290	0	0	12:02:04	1349827	0	0	0	0	0	0	0	0	0	0	0	0	0	0	0	0	0	0	0	0	0	0		1	0	0	0	0	0	0	0
012813	12:02:04	10025	pm.simpleEngRight	blank.simpleEng	2	0	2500	1	0	12:02:04	1352346	0	0	0	0	0	0	0	0	0	0	0	0	0	0	0	0	0	0	0	0	0	0		1	0	0	0	0	0	0	0
012813	12:02:04	10025	pm.simpleEngRight	pm.simpleEng	2	57	280	0	0	12:02:04	1352652	0	0	0	0	0	0	0	0	0	0	0	0	0	0	0	0	0	0	0	0	0	0		1	0	0	0	0	0	0	0
012813	12:02:04	10025	pm.simpleEngRight	blank.simpleEng	2	0	2300	1	0	12:02:04	1354972	0	0	0	0	0	0	0	0	0	0	0	0	0	0	0	0	0	0	0	0	0	0		1	0	0	0	0	0	0	0
012813	12:02:04	10025	pm.simpleEngRight	pm.simpleEng	2	57	311	0	0	12:02:04	1355305	0	0	0	0	0	0	0	0	0	0	0	0	0	0	0	0	0	0	0	0	0	0		1	0	0	0	0	0	0	0
012813	12:02:04	10025	pm.simpleEngRight	blank.simpleEng	2	0	1900	1	0	12:02:04	1357224	0	0	0	0	0	0	0	0	0	0	0	0	0	0	0	0	0	0	0	0	0	0		1	0	0	0	0	0	0	0
012813	12:02:04	10025	pm.simpleEngRight	pm.simpleEng	2	57	282	0	0	12:02:04	1357530	0	0	0	0	0	0	0	0	0	0	0	0	0	0	0	0	0	0	0	0	0	0		1	0	0	0	0	0	0	0
012813	12:02:04	10025	pm.simpleEngRight	blank.simpleEng	2	0	2300	1	0	12:02:04	1359849	0	0	0	0	0	0	0	0	0	0	0	0	0	0	0	0	0	0	0	0	0	0		1	0	0	0	0	0	0	0
012813	12:02:04	10025	pm.simpleEngRight	pm.simpleEng	2	57	281	0	0	12:02:04	1360156	0	0	0	0	0	0	0	0	0	0	0	0	0	0	0	0	0	0	0	0	0	0		1	0	0	0	0	0	0	0
012813	12:02:04	10025	pm.simpleEngRight	blank.simpleEng	2	0	2500	1	0	12:02:04	1362675	0	0	0	0	0	0	0	0	0	0	0	0	0	0	0	0	0	0	0	0	0	0		1	0	0	0	0	0	0	0
012813	12:02:04	10025	pm.simpleEngRight	pm.simpleEng	2	57	271	0	0	12:02:04	1362968	0	0	0	0	0	0	0	0	0	0	0	0	0	0	0	0	0	0	0	0	0	0		1	0	0	0	0	0	0	0
012813	12:02:04	10025	pm.simpleEngRight	blank.simpleEng	2	0	1800	1	0	12:02:04	1364781	0	0	0	0	0	0	0	0	0	0	0	0	0	0	0	0	0	0	0	0	0	0		1	0	0	0	0	0	0	0
012813	12:02:04	10025	pm.simpleEngRight	pm.simpleEng	2	57	261	0	0	12:02:04	1365060	0	0	0	0	0	0	0	0	0	0	0	0	0	0	0	0	0	0	0	0	0	0		1	0	0	0	0	0	0	0
012813	12:02:04	10025	pm.simpleEngRight	blank.simpleEng	2	0	1600	1	0	12:02:04	1366673	0	0	0	0	0	0	0	0	0	0	0	0	0	0	0	0	0	0	0	0	0	0		1	0	0	0	0	0	0	0
012813	12:02:04	10025	pm.simpleEngRight	pm.simpleEng	2	57	320	0	0	12:02:04	1367020	0	0	0	0	0	0	0	0	0	0	0	0	0	0	0	0	0	0	0	0	0	0		1	0	0	0	0	0	0	0
012813	12:02:04	10025	pm.simpleEngRight	blank.simpleEng	2	0	2000	1	0	12:02:04	1369032	0	0	0	0	0	0	0	0	0	0	0	0	0	0	0	0	0	0	0	0	0	0		1	0	0	0	0	0	0	0
012813	12:02:04	10025	pm.simpleEngRight	pm.simpleEng	2	57	282	0	0	12:02:04	1369339	0	0	0	0	0	0	0	0	0	0	0	0	0	0	0	0	0	0	0	0	0	0		1	0	0	0	0	0	0	0
012813	12:02:04	10025	pm.simpleEngRight	blank.simpleEng	2	0	1500	1	0	12:02:04	1370858	0	0	0	0	0	0	0	0	0	0	0	0	0	0	0	0	0	0	0	0	0	0		1	0	0	0	0	0	0	0
012813	12:02:04	10025	pm.simpleEngRight	pm.simpleEng	2	57	295	0	0	12:02:04	1371178	0	0	0	0	0	0	0	0	0	0	0	0	0	0	0	0	0	0	0	0	0	0		1	0	0	0	0	0	0	0
012813	12:02:04	10025	Trial2BackEng	N	3	0	1000	1	1	12:02:04	1406937	0	0	0	0	0	0	0	0	0	0	0	0	0	0	0	0	0	0	0	0	0	0		1	0	0	0	0	0	0	0
012813	12:02:04	10025	Trial2BackEng	N	3	0	1000	1	2	12:02:04	1408443	0	0	0	0	0	0	0	0	0	0	0	0	0	0	0	0	0	0	0	0	0	0		1	0	0	0	0	0	0	0
012813	12:02:04	10025	Trial2BackEng	N	3	0	1000	1	3	12:02:04	1409949	0	0	0	0	0	0	0	0	0	0	0	0	0	0	0	0	0	0	0	0	0	0		1	0	0	0	0	0	0	0
012813	12:02:04	10025	Trial2BackEng	N	3	0	1000	1	4	12:02:04	1411455	0	0	0	0	0	0	0	0	0	0	0	0	0	0	0	0	0	0	0	0	0	0		1	0	0	0	0	0	0	0
012813	12:02:04	10025	Trial2BackEng	N	3	0	1000	1	5	12:02:04	1412961	0	0	0	0	0	0	0	0	0	0	0	0	0	0	0	0	0	0	0	0	0	0		1	0	0	0	0	0	0	0
012813	12:02:04	10025	Trial2BackEng	N	3	0	1000	1	6	12:02:04	1414467	0	0	0	0	0	0	0	0	0	0	0	0	0	0	0	0	0	0	0	0	0	0		1	0	0	0	0	0	0	0
012813	12:02:04	10025	Trial2BackEng	N	3	0	1000	1	7	12:02:04	1415986	0	0	0	0	0	0	0	0	0	0	0	0	0	0	0	0	0	0	0	0	0	0		1	0	0	0	0	0	0	0
012813	12:02:04	10025	Trial2BackEng	N	3	0	1000	1	8	12:02:04	1417492	0	0	0	0	0	0	0	0	0	0	0	0	0	0	0	0	0	0	0	0	0	0		1	0	0	0	0	0	0	0
012813	12:02:04	10025	Trial2BackEng	Y	3	57	528	1	9	12:02:04	1418532	0	0	0	0	0	0	0	0	0	0	0	0	0	0	0	0	0	0	0	0	0	0		1	0	0	0	0	0	0	0
012813	12:02:04	10025	Trial2BackEng	N	3	0	1000	1	10	12:02:04	1420504	0	0	0	0	0	0	0	0	0	0	0	0	0	0	0	0	0	0	0	0	0	0		1	0	0	0	0	0	0	0
012813	12:02:04	10025	Trial2BackEng	N	3	0	1000	1	11	12:02:04	1422010	0	0	0	0	0	0	0	0	0	0	0	0	0	0	0	0	0	0	0	0	0	0		1	0	0	0	0	0	0	0
012813	12:02:04	10025	Trial2BackEng	N	3	0	1000	1	12	12:02:04	1423516	0	0	0	0	0	0	0	0	0	0	0	0	0	0	0	0	0	0	0	0	0	0		1	0	0	0	0	0	0	0
012813	12:02:04	10025	Trial2BackEng	Y	3	57	680	1	13	12:02:04	1424716	0	0	0	0	0	0	0	0	0	0	0	0	0	0	0	0	0	0	0	0	0	0		1	0	0	0	0	0	0	0
012813	12:02:04	10025	Trial2BackEng	N	3	0	1000	1	14	12:02:04	1426528	0	0	0	0	0	0	0	0	0	0	0	0	0	0	0	0	0	0	0	0	0	0		1	0	0	0	0	0	0	0
012813	12:02:04	10025	Trial2BackEng	N	3	0	1000	1	15	12:02:04	1428035	0	0	0	0	0	0	0	0	0	0	0	0	0	0	0	0	0	0	0	0	0	0		1	0	0	0	0	0	0	0
012813	12:02:04	10025	Trial2BackEng	N	3	0	1000	1	16	12:02:04	1429541	0	0	0	0	0	0	0	0	0	0	0	0	0	0	0	0	0	0	0	0	0	0		1	0	0	0	0	0	0	0
012813	12:02:04	10025	Trial2BackEng	N	3	0	1000	1	17	12:02:04	1431047	0	0	0	0	0	0	0	0	0	0	0	0	0	0	0	0	0	0	0	0	0	0		1	0	0	0	0	0	0	0
012813	12:02:04	10025	Trial2BackEng	N	3	0	1000	1	18	12:02:04	1432553	0	0	0	0	0	0	0	0	0	0	0	0	0	0	0	0	0	0	0	0	0	0		1	0	0	0	0	0	0	0
012813	12:02:04	10025	Trial2BackEng	Y	3	57	507	1	19	12:02:04	1433579	0	0	0	0	0	0	0	0	0	0	0	0	0	0	0	0	0	0	0	0	0	0		1	0	0	0	0	0	0	0
012813	12:02:04	10025	Trial2BackEng	N	3	0	1000	1	20	12:02:04	1435565	0	0	0	0	0	0	0	0	0	0	0	0	0	0	0	0	0	0	0	0	0	0		1	0	0	0	0	0	0	0
012813	12:02:04	10025	Trial2BackEng	N	3	0	1000	1	21	12:02:04	1437071	0	0	0	0	0	0	0	0	0	0	0	0	0	0	0	0	0	0	0	0	0	0		1	0	0	0	0	0	0	0
012813	12:02:04	10025	Trial2BackEng	N	3	0	1000	1	22	12:02:04	1438577	0	0	0	0	0	0	0	0	0	0	0	0	0	0	0	0	0	0	0	0	0	0		1	0	0	0	0	0	0	0
012813	12:02:04	10025	Trial2BackEng	N	3	0	1000	1	23	12:02:04	1440083	0	0	0	0	0	0	0	0	0	0	0	0	0	0	0	0	0	0	0	0	0	0		1	0	0	0	0	0	0	0
012813	12:02:04	10025	Trial2BackEng	Y	3	57	417	1	24	12:02:04	1441016	0	0	0	0	0	0	0	0	0	0	0	0	0	0	0	0	0	0	0	0	0	0		1	0	0	0	0	0	0	0
012813	12:02:04	10025	Trial2BackEng	N	3	0	1000	1	25	12:02:04	1443095	0	0	0	0	0	0	0	0	0	0	0	0	0	0	0	0	0	0	0	0	0	0		1	0	0	0	0	0	0	0
012813	12:02:04	10025	Trial2BackEng	N	3	0	1000	1	26	12:02:04	1444614	0	0	0	0	0	0	0	0	0	0	0	0	0	0	0	0	0	0	0	0	0	0		1	0	0	0	0	0	0	0
012813	12:02:04	10025	Trial2BackEng	N	3	0	1000	1	27	12:02:04	1446120	0	0	0	0	0	0	0	0	0	0	0	0	0	0	0	0	0	0	0	0	0	0		1	0	0	0	0	0	0	0
012813	12:02:04	10025	Trial2BackEng	N	3	0	1000	1	28	12:02:04	1447626	0	0	0	0	0	0	0	0	0	0	0	0	0	0	0	0	0	0	0	0	0	0		1	0	0	0	0	0	0	0
012813	12:02:04	10025	Trial2BackEng	N	3	0	1000	1	29	12:02:04	1449133	0	0	0	0	0	0	0	0	0	0	0	0	0	0	0	0	0	0	0	0	0	0		1	0	0	0	0	0	0	0
012813	12:02:04	10025	Trial2BackEng	N	3	0	1000	1	30	12:02:04	1450639	0	0	0	0	0	0	0	0	0	0	0	0	0	0	0	0	0	0	0	0	0	0		1	0	0	0	0	0	0	0
012813	12:02:04	10025	Trial2BackEng	Y	3	57	341	1	31	12:02:04	1451492	0	0	0	0	0	0	0	0	0	0	0	0	0	0	0	0	0	0	0	0	0	0		1	0	0	0	0	0	0	0
012813	12:02:04	10025	Trial2BackEng	N	3	0	1000	1	32	12:02:04	1453651	0	0	0	0	0	0	0	0	0	0	0	0	0	0	0	0	0	0	0	0	0	0		1	0	0	0	0	0	0	0
012813	12:02:04	10025	Trial2BackEng	N	3	0	1000	1	33	12:02:04	1455157	0	0	0	0	0	0	0	0	0	0	0	0	0	0	0	0	0	0	0	0	0	0		1	0	0	0	0	0	0	0
012813	12:02:04	10025	Trial2BackEng	N	3	0	1000	1	34	12:02:04	1456663	0	0	0	0	0	0	0	0	0	0	0	0	0	0	0	0	0	0	0	0	0	0		1	0	0	0	0	0	0	0
012813	12:02:04	10025	Trial2BackEng	Y	3	57	461	1	35	12:02:04	1457636	0	0	0	0	0	0	0	0	0	0	0	0	0	0	0	0	0	0	0	0	0	0		1	0	0	0	0	0	0	0
012813	12:02:04	10025	Trial2BackEng	N	3	0	1000	1	36	12:02:04	1459675	0	0	0	0	0	0	0	0	0	0	0	0	0	0	0	0	0	0	0	0	0	0		1	0	0	0	0	0	0	0
012813	12:02:04	10025	Trial2BackEng	N	3	0	1000	1	37	12:02:04	1461194	0	0	0	0	0	0	0	0	0	0	0	0	0	0	0	0	0	0	0	0	0	0		1	0	0	0	0	0	0	0
012813	12:02:04	10025	Trial2BackEng	N	3	0	1000	1	38	12:02:04	1462700	0	0	0	0	0	0	0	0	0	0	0	0	0	0	0	0	0	0	0	0	0	0		1	0	0	0	0	0	0	0
012813	12:02:04	10025	Trial2BackEng	N	3	0	1000	1	39	12:02:04	1464206	0	0	0	0	0	0	0	0	0	0	0	0	0	0	0	0	0	0	0	0	0	0		1	0	0	0	0	0	0	0
012813	12:02:04	10025	Trial2BackEng	N	3	0	1000	1	40	12:02:04	1465712	0	0	0	0	0	0	0	0	0	0	0	0	0	0	0	0	0	0	0	0	0	0		1	0	0	0	0	0	0	0
012813	12:02:04	10025	Trial2BackEng	N	3	0	1000	1	41	12:02:04	1467218	0	0	0	0	0	0	0	0	0	0	0	0	0	0	0	0	0	0	0	0	0	0		1	0	0	0	0	0	0	0
012813	12:02:04	10025	Trial2BackEng	Y	3	57	368	1	42	12:02:04	1468098	0	0	0	0	0	0	0	0	0	0	0	0	0	0	0	0	0	0	0	0	0	0		1	0	0	0	0	0	0	0
012813	12:02:04	10025	Trial2BackEng	N	3	0	1000	1	43	12:02:04	1470230	0	0	0	0	0	0	0	0	0	0	0	0	0	0	0	0	0	0	0	0	0	0		1	0	0	0	0	0	0	0
012813	12:02:04	10025	Trial2BackEng	N	3	0	1000	1	44	12:02:04	1471736	0	0	0	0	0	0	0	0	0	0	0	0	0	0	0	0	0	0	0	0	0	0		1	0	0	0	0	0	0	0
012813	12:02:04	10025	Trial2BackEng	N	3	0	1000	1	45	12:02:04	1473242	0	0	0	0	0	0	0	0	0	0	0	0	0	0	0	0	0	0	0	0	0	0		1	0	0	0	0	0	0	0
012813	12:02:04	10025	Trial2BackEng	N	3	0	1000	1	46	12:02:04	1474762	0	0	0	0	0	0	0	0	0	0	0	0	0	0	0	0	0	0	0	0	0	0		1	0	0	0	0	0	0	0
012813	12:02:04	10025	Trial2BackEng	Y	3	57	665	1	47	12:02:04	1475935	0	0	0	0	0	0	0	0	0	0	0	0	0	0	0	0	0	0	0	0	0	0		1	0	0	0	0	0	0	0
012813	12:02:04	10025	Trial2BackEng	N	3	0	1000	1	48	12:02:04	1477774	0	0	0	0	0	0	0	0	0	0	0	0	0	0	0	0	0	0	0	0	0	0		1	0	0	0	0	0	0	0
012813	12:02:04	10025	Trial2BackEng	N	3	0	1000	1	49	12:02:04	1479280	0	0	0	0	0	0	0	0	0	0	0	0	0	0	0	0	0	0	0	0	0	0		1	0	0	0	0	0	0	0
012813	12:02:04	10025	Trial2BackEng	N	3	0	1000	1	50	12:02:04	1480786	0	0	0	0	0	0	0	0	0	0	0	0	0	0	0	0	0	0	0	0	0	0		1	0	0	0	0	0	0	0
012813	12:02:04	10025	Trial2BackEng	N	3	0	1000	1	51	12:02:04	1482292	0	0	0	0	0	0	0	0	0	0	0	0	0	0	0	0	0	0	0	0	0	0		1	0	0	0	0	0	0	0
012813	12:02:04	10025	Trial2BackEng	N	3	0	1000	1	52	12:02:04	1483798	0	0	0	0	0	0	0	0	0	0	0	0	0	0	0	0	0	0	0	0	0	0		1	0	0	0	0	0	0	0
012813	12:02:04	10025	Trial2BackEng	Y	3	57	396	1	53	12:02:04	1484705	0	0	0	0	0	0	0	0	0	0	0	0	0	0	0	0	0	0	0	0	0	0		1	0	0	0	0	0	0	0
012813	12:02:04	10025	Trial2BackEng	N	3	0	1000	1	54	12:02:04	1486810	0	0	0	0	0	0	0	0	0	0	0	0	0	0	0	0	0	0	0	0	0	0		1	0	0	0	0	0	0	0
012813	12:02:04	10025	Trial2BackEng	N	3	0	1000	1	55	12:02:04	1488316	0	0	0	0	0	0	0	0	0	0	0	0	0	0	0	0	0	0	0	0	0	0		1	0	0	0	0	0	0	0
012813	12:02:04	10025	Trial2BackEng	N	3	0	1000	1	56	12:02:04	1489836	0	0	0	0	0	0	0	0	0	0	0	0	0	0	0	0	0	0	0	0	0	0		1	0	0	0	0	0	0	0
012813	12:02:04	10025	Trial2BackEng	N	3	0	1000	1	57	12:02:04	1491342	0	0	0	0	0	0	0	0	0	0	0	0	0	0	0	0	0	0	0	0	0	0		1	0	0	0	0	0	0	0
012813	12:02:04	10025	Trial2BackEng	N	3	0	1000	1	58	12:02:04	1492848	0	0	0	0	0	0	0	0	0	0	0	0	0	0	0	0	0	0	0	0	0	0		1	0	0	0	0	0	0	0
012813	12:02:04	10025	Trial2BackEng	N	3	0	1000	1	59	12:02:04	1494354	0	0	0	0	0	0	0	0	0	0	0	0	0	0	0	0	0	0	0	0	0	0		1	0	0	0	0	0	0	0
012813	12:02:04	10025	Trial2BackEng	Y	3	57	400	1	60	12:02:04	1495274	0	0	0	0	0	0	0	0	0	0	0	0	0	0	0	0	0	0	0	0	0	0		1	0	0	0	0	0	0	0
012813	12:02:04	10025	Trial2BackEng	N	3	0	1000	1	61	12:02:04	1497366	0	0	0	0	0	0	0	0	0	0	0	0	0	0	0	0	0	0	0	0	0	0		1	0	0	0	0	0	0	0
012813	12:02:04	10025	Trial2BackEng	N	3	0	1000	1	62	12:02:04	1498885	0	0	0	0	0	0	0	0	0	0	0	0	0	0	0	0	0	0	0	0	0	0		1	0	0	0	0	0	0	0
012813	12:02:04	10025	Trial2BackEng	Y	3	57	429	1	63	12:02:04	1499831	0	0	0	0	0	0	0	0	0	0	0	0	0	0	0	0	0	0	0	0	0	0		1	0	0	0	0	0	0	0
012813	12:02:04	10025	Trial2BackEng	N	3	0	1000	1	64	12:02:04	1501897	0	0	0	0	0	0	0	0	0	0	0	0	0	0	0	0	0	0	0	0	0	0		1	0	0	0	0	0	0	0
012813	12:02:04	10025	Trial2BackEng	N	3	0	1000	1	65	12:02:04	1503403	0	0	0	0	0	0	0	0	0	0	0	0	0	0	0	0	0	0	0	0	0	0		1	0	0	0	0	0	0	0
012813	12:02:04	10025	Trial2BackEng	N	3	0	1000	1	66	12:02:04	1504909	0	0	0	0	0	0	0	0	0	0	0	0	0	0	0	0	0	0	0	0	0	0		1	0	0	0	0	0	0	0
012813	12:02:04	10025	Trial2BackEng	N	3	0	1000	1	67	12:02:04	1506415	0	0	0	0	0	0	0	0	0	0	0	0	0	0	0	0	0	0	0	0	0	0		1	0	0	0	0	0	0	0
012813	12:02:04	10025	Trial2BackEng	N	3	0	1000	1	68	12:02:04	1507921	0	0	0	0	0	0	0	0	0	0	0	0	0	0	0	0	0	0	0	0	0	0		1	0	0	0	0	0	0	0
012813	12:02:04	10025	Trial2BackEng	N	3	0	1000	1	69	12:02:04	1509428	0	0	0	0	0	0	0	0	0	0	0	0	0	0	0	0	0	0	0	0	0	0		1	0	0	0	0	0	0	0
012813	12:02:04	10025	Trial2BackEng	N	3	0	1000	1	70	12:02:04	1510933	0	0	0	0	0	0	0	0	0	0	0	0	0	0	0	0	0	0	0	0	0	0		1	0	0	0	0	0	0	0
012813	12:02:04	10025	Trial2BackEng	N	3	0	1000	1	71	12:02:04	1512453	0	0	0	0	0	0	0	0	0	0	0	0	0	0	0	0	0	0	0	0	0	0		1	0	0	0	0	0	0	0
012813	12:02:04	10025	Trial2BackEng	N	3	0	1000	1	72	12:02:04	1513959	0	0	0	0	0	0	0	0	0	0	0	0	0	0	0	0	0	0	0	0	0	0		1	0	0	0	0	0	0	0
012813	12:02:04	10025	Trial2BackEng	N	3	0	1000	1	73	12:02:04	1515478	0	0	0	0	0	0	0	0	0	0	0	0	0	0	0	0	0	0	0	0	0	0		1	0	0	0	0	0	0	0
012813	12:02:04	10025	Trial2BackEng	Y	3	57	523	1	74	12:02:04	1516518	0	0	0	0	0	0	0	0	0	0	0	0	0	0	0	0	0	0	0	0	0	0		1	0	0	0	0	0	0	0
012813	12:02:04	10025	Trial2BackEng	N	3	0	1000	1	75	12:02:04	1518490	0	0	0	0	0	0	0	0	0	0	0	0	0	0	0	0	0	0	0	0	0	0		1	0	0	0	0	0	0	0
012813	12:02:04	10025	Trial2BackEng	N	3	0	1000	1	76	12:02:04	1519996	0	0	0	0	0	0	0	0	0	0	0	0	0	0	0	0	0	0	0	0	0	0		1	0	0	0	0	0	0	0
012813	12:02:04	10025	Trial2BackEng	N	3	0	1000	1	77	12:02:04	1521502	0	0	0	0	0	0	0	0	0	0	0	0	0	0	0	0	0	0	0	0	0	0		1	0	0	0	0	0	0	0
012813	12:02:04	10025	Trial2BackEng	Y	3	57	403	1	78	12:02:04	1522422	0	0	0	0	0	0	0	0	0	0	0	0	0	0	0	0	0	0	0	0	0	0		1	0	0	0	0	0	0	0
012813	12:02:04	10025	Trial2BackEng	N	3	0	1000	1	79	12:02:04	1524514	0	0	0	0	0	0	0	0	0	0	0	0	0	0	0	0	0	0	0	0	0	0		1	0	0	0	0	0	0	0
012813	12:02:04	10025	Trial2BackEng	N	3	0	1000	1	80	12:02:04	1526034	0	0	0	0	0	0	0	0	0	0	0	0	0	0	0	0	0	0	0	0	0	0		1	0	0	0	0	0	0	0
012813	12:02:04	10025	Trial2BackEng	N	3	0	1000	1	81	12:02:04	1527540	0	0	0	0	0	0	0	0	0	0	0	0	0	0	0	0	0	0	0	0	0	0		1	0	0	0	0	0	0	0
012813	12:02:04	10025	Trial2BackEng	N	3	0	1000	1	82	12:02:04	1529046	0	0	0	0	0	0	0	0	0	0	0	0	0	0	0	0	0	0	0	0	0	0		1	0	0	0	0	0	0	0
012813	12:02:04	10025	Trial2BackEng	N	3	0	1000	1	83	12:02:04	1530552	0	0	0	0	0	0	0	0	0	0	0	0	0	0	0	0	0	0	0	0	0	0		1	0	0	0	0	0	0	0
012813	12:02:04	10025	Trial2BackEng	Y	3	57	425	1	84	12:02:04	1531485	0	0	0	0	0	0	0	0	0	0	0	0	0	0	0	0	0	0	0	0	0	0		1	0	0	0	0	0	0	0
012813	12:02:04	10025	Trial2BackEng	N	3	0	1000	1	85	12:02:04	1533564	0	0	0	0	0	0	0	0	0	0	0	0	0	0	0	0	0	0	0	0	0	0		1	0	0	0	0	0	0	0
012813	12:02:04	10025	Trial2BackEng	N	3	0	1000	1	86	12:02:04	1535070	0	0	0	0	0	0	0	0	0	0	0	0	0	0	0	0	0	0	0	0	0	0		1	0	0	0	0	0	0	0
012813	12:02:04	10025	Trial2BackEng	N	3	0	1000	1	87	12:02:04	1536576	0	0	0	0	0	0	0	0	0	0	0	0	0	0	0	0	0	0	0	0	0	0		1	0	0	0	0	0	0	0
012813	12:02:04	10025	Trial2BackEng	N	3	0	1000	1	88	12:02:04	1538082	0	0	0	0	0	0	0	0	0	0	0	0	0	0	0	0	0	0	0	0	0	0		1	0	0	0	0	0	0	0
012813	12:02:04	10025	Trial2BackEng	N	3	0	1000	1	89	12:02:04	1539602	0	0	0	0	0	0	0	0	0	0	0	0	0	0	0	0	0	0	0	0	0	0		1	0	0	0	0	0	0	0
012813	12:02:04	10025	Trial2BackEng	N	3	0	1000	1	90	12:02:04	1541108	0	0	0	0	0	0	0	0	0	0	0	0	0	0	0	0	0	0	0	0	0	0		1	0	0	0	0	0	0	0
012813	12:02:04	10025	Trial2BackEng	N	3	0	1000	1	91	12:02:04	1542627	0	0	0	0	0	0	0	0	0	0	0	0	0	0	0	0	0	0	0	0	0	0		1	0	0	0	0	0	0	0
012813	12:02:04	10025	Trial2BackEng	N	3	0	1000	1	92	12:02:04	1544133	0	0	0	0	0	0	0	0	0	0	0	0	0	0	0	0	0	0	0	0	0	0		1	0	0	0	0	0	0	0
012813	12:02:04	10025	Trial2BackEng	N	3	0	1000	1	93	12:02:04	1545639	0	0	0	0	0	0	0	0	0	0	0	0	0	0	0	0	0	0	0	0	0	0		1	0	0	0	0	0	0	0
012813	12:02:04	10025	Trial2BackEng	Y	3	57	521	1	94	12:02:04	1546679	0	0	0	0	0	0	0	0	0	0	0	0	0	0	0	0	0	0	0	0	0	0		1	0	0	0	0	0	0	0
012813	12:02:04	10025	Trial2BackEng	N	3	0	1000	1	95	12:02:04	1548651	0	0	0	0	0	0	0	0	0	0	0	0	0	0	0	0	0	0	0	0	0	0		1	0	0	0	0	0	0	0
012813	12:02:04	10025	Trial2BackEng	N	3	0	1000	1	96	12:02:04	1550157	0	0	0	0	0	0	0	0	0	0	0	0	0	0	0	0	0	0	0	0	0	0		1	0	0	0	0	0	0	0
012813	12:02:04	10025	Trial2BackEng	N	3	0	1000	1	97	12:02:04	1551677	0	0	0	0	0	0	0	0	0	0	0	0	0	0	0	0	0	0	0	0	0	0		1	0	0	0	0	0	0	0
012813	12:02:04	10025	Trial2BackEng	N	3	0	1000	1	98	12:02:04	1553183	0	0	0	0	0	0	0	0	0	0	0	0	0	0	0	0	0	0	0	0	0	0		1	0	0	0	0	0	0	0
012813	12:02:04	10025	Trial2BackEng	N	3	0	1000	1	99	12:02:04	1554702	0	0	0	0	0	0	0	0	0	0	0	0	0	0	0	0	0	0	0	0	0	0		1	0	0	0	0	0	0	0
012813	12:02:04	10025	Trial2BackEng	N	3	0	1000	1	100	12:02:04	1556208	0	0	0	0	0	0	0	0	0	0	0	0	0	0	0	0	0	0	0	0	0	0		1	0	0	0	0	0	0	0
012813	12:02:04	10025	Trial2BackEng	N	3	0	1000	1	101	12:02:04	1557727	0	0	0	0	0	0	0	0	0	0	0	0	0	0	0	0	0	0	0	0	0	0		1	0	0	0	0	0	0	0
012813	12:02:04	10025	Trial2BackEng	N	3	0	1000	1	102	12:02:04	1559233	0	0	0	0	0	0	0	0	0	0	0	0	0	0	0	0	0	0	0	0	0	0		1	0	0	0	0	0	0	0
012813	12:02:04	10025	Trial2BackEng	Y	3	57	382	1	103	12:02:04	1560126	0	0	0	0	0	0	0	0	0	0	0	0	0	0	0	0	0	0	0	0	0	0		1	0	0	0	0	0	0	0
012813	12:02:04	10025	Trial2BackEng	N	3	0	1000	1	104	12:02:04	1562246	0	0	0	0	0	0	0	0	0	0	0	0	0	0	0	0	0	0	0	0	0	0		1	0	0	0	0	0	0	0
012813	12:02:04	10025	Trial2BackEng	N	3	0	1000	1	105	12:02:04	1563765	0	0	0	0	0	0	0	0	0	0	0	0	0	0	0	0	0	0	0	0	0	0		1	0	0	0	0	0	0	0
012813	12:02:04	10025	Trial2BackEng	N	3	0	1000	1	106	12:02:04	1565271	0	0	0	0	0	0	0	0	0	0	0	0	0	0	0	0	0	0	0	0	0	0		1	0	0	0	0	0	0	0
012813	12:02:04	10025	Trial2BackEng	N	3	0	1000	1	107	12:02:04	1566777	0	0	0	0	0	0	0	0	0	0	0	0	0	0	0	0	0	0	0	0	0	0		1	0	0	0	0	0	0	0
012813	12:02:04	10025	Trial2BackEng	Y	3	57	487	1	108	12:02:04	1567776	0	0	0	0	0	0	0	0	0	0	0	0	0	0	0	0	0	0	0	0	0	0		1	0	0	0	0	0	0	0
012813	12:02:04	10025	Trial2BackEng	N	3	0	1000	1	109	12:02:04	1569789	0	0	0	0	0	0	0	0	0	0	0	0	0	0	0	0	0	0	0	0	0	0		1	0	0	0	0	0	0	0
012813	12:02:04	10025	Trial2BackEng	N	3	0	1000	1	110	12:02:04	1571295	0	0	0	0	0	0	0	0	0	0	0	0	0	0	0	0	0	0	0	0	0	0		1	0	0	0	0	0	0	0
012813	12:02:04	10025	Trial2BackEng	N	3	0	1000	1	111	12:02:04	1572801	0	0	0	0	0	0	0	0	0	0	0	0	0	0	0	0	0	0	0	0	0	0		1	0	0	0	0	0	0	0
012813	12:02:04	10025	Trial2BackEng	Y	3	57	830	1	112	12:02:04	1574147	0	0	0	0	0	0	0	0	0	0	0	0	0	0	0	0	0	0	0	0	0	0		1	0	0	0	0	0	0	0
012813	12:02:04	10025	Trial2BackEng	N	3	0	1000	1	113	12:02:04	1575813	0	0	0	0	0	0	0	0	0	0	0	0	0	0	0	0	0	0	0	0	0	0		1	0	0	0	0	0	0	0
012813	12:02:04	10025	Trial2BackEng	N	3	0	1000	1	114	12:02:04	1577319	0	0	0	0	0	0	0	0	0	0	0	0	0	0	0	0	0	0	0	0	0	0		1	0	0	0	0	0	0	0
012813	12:02:04	10025	Trial2BackEng	N	3	0	1000	1	115	12:02:04	1578825	0	0	0	0	0	0	0	0	0	0	0	0	0	0	0	0	0	0	0	0	0	0		1	0	0	0	0	0	0	0
012813	12:02:04	10025	Trial2BackEng	N	3	0	1000	1	116	12:02:04	1580331	0	0	0	0	0	0	0	0	0	0	0	0	0	0	0	0	0	0	0	0	0	0		1	0	0	0	0	0	0	0
012813	12:02:04	10025	Trial2BackEng	N	3	0	1000	1	117	12:02:04	1581851	0	0	0	0	0	0	0	0	0	0	0	0	0	0	0	0	0	0	0	0	0	0		1	0	0	0	0	0	0	0
012813	12:02:04	10025	Trial2BackEng	Y	3	57	580	1	118	12:02:04	1582943	0	0	0	0	0	0	0	0	0	0	0	0	0	0	0	0	0	0	0	0	0	0		1	0	0	0	0	0	0	0
012813	12:02:04	10025	Trial2BackEng	N	3	0	1000	1	119	12:02:04	1584863	0	0	0	0	0	0	0	0	0	0	0	0	0	0	0	0	0	0	0	0	0	0		1	0	0	0	0	0	0	0
012813	12:02:04	10025	Trial2BackEng	N	3	0	1000	1	120	12:02:04	1586369	0	0	0	0	0	0	0	0	0	0	0	0	0	0	0	0	0	0	0	0	0	0		1	0	0	0	0	0	0	0
012813	12:02:04	10025	Trial2BackEng	N	3	0	1000	1	121	12:02:04	1587875	0	0	0	0	0	0	0	0	0	0	0	0	0	0	0	0	0	0	0	0	0	0		1	0	0	0	0	0	0	0
012813	12:02:04	10025	Trial2BackEng	Y	3	57	556	1	122	12:02:04	1588941	0	0	0	0	0	0	0	0	0	0	0	0	0	0	0	0	0	0	0	0	0	0		1	0	0	0	0	0	0	0
012813	12:02:04	10025	Trial3BackEng	NN	4	0	1000	1	122	12:02:04	1645384	0	0	0	0	0	0	0	0	0	0	0	0	0	0	0	0	0	0	0	0	0	0		1	0	0	0	0	0	0	0
012813	12:02:04	10025	Trial3BackEng	NN	4	0	1000	1	122	12:02:04	1646890	0	0	0	0	0	0	0	0	0	0	0	0	0	0	0	0	0	0	0	0	0	0		1	0	0	0	0	0	0	0
012813	12:02:04	10025	Trial3BackEng	NN	4	0	1000	1	122	12:02:04	1648397	0	0	0	0	0	0	0	0	0	0	0	0	0	0	0	0	0	0	0	0	0	0		1	0	0	0	0	0	0	0
012813	12:02:04	10025	Trial3BackEng	YY	4	57	592	1	122	12:02:04	1649502	0	0	0	0	0	0	0	0	0	0	0	0	0	0	0	0	0	0	0	0	0	0		1	0	0	0	0	0	0	0
012813	12:02:04	10025	Trial3BackEng	NN	4	0	1000	1	122	12:02:04	1651408	0	0	0	0	0	0	0	0	0	0	0	0	0	0	0	0	0	0	0	0	0	0		1	0	0	0	0	0	0	0
012813	12:02:04	10025	Trial3BackEng	NN	4	0	1000	1	122	12:02:04	1652928	0	0	0	0	0	0	0	0	0	0	0	0	0	0	0	0	0	0	0	0	0	0		1	0	0	0	0	0	0	0
012813	12:02:04	10025	Trial3BackEng	NN	4	0	1000	1	122	12:02:04	1654434	0	0	0	0	0	0	0	0	0	0	0	0	0	0	0	0	0	0	0	0	0	0		1	0	0	0	0	0	0	0
012813	12:02:04	10025	Trial3BackEng	NN	4	0	1000	1	122	12:02:04	1655940	0	0	0	0	0	0	0	0	0	0	0	0	0	0	0	0	0	0	0	0	0	0		1	0	0	0	0	0	0	0
012813	12:02:04	10025	Trial3BackEng	YY	4	57	601	1	122	12:02:04	1657059	0	0	0	0	0	0	0	0	0	0	0	0	0	0	0	0	0	0	0	0	0	0		1	0	0	0	0	0	0	0
012813	12:02:04	10025	Trial3BackEng	NN	4	0	1000	1	122	12:02:04	1658952	0	0	0	0	0	0	0	0	0	0	0	0	0	0	0	0	0	0	0	0	0	0		1	0	0	0	0	0	0	0
012813	12:02:04	10025	Trial3BackEng	NN	4	0	1000	1	122	12:02:04	1660471	0	0	0	0	0	0	0	0	0	0	0	0	0	0	0	0	0	0	0	0	0	0		1	0	0	0	0	0	0	0
012813	12:02:04	10025	Trial3BackEng	NN	4	0	1000	1	122	12:02:04	1661977	0	0	0	0	0	0	0	0	0	0	0	0	0	0	0	0	0	0	0	0	0	0		1	0	0	0	0	0	0	0
012813	12:02:04	10025	Trial3BackEng	NN	4	0	1000	1	122	12:02:04	1663497	0	0	0	0	0	0	0	0	0	0	0	0	0	0	0	0	0	0	0	0	0	0		1	0	0	0	0	0	0	0
012813	12:02:04	10025	Trial3BackEng	NN	4	0	1000	1	122	12:02:04	1665003	0	0	0	0	0	0	0	0	0	0	0	0	0	0	0	0	0	0	0	0	0	0		1	0	0	0	0	0	0	0
012813	12:02:04	10025	Trial3BackEng	NN	4	0	1000	1	122	12:02:04	1666509	0	0	0	0	0	0	0	0	0	0	0	0	0	0	0	0	0	0	0	0	0	0		1	0	0	0	0	0	0	0
012813	12:02:04	10025	Trial3BackEng	NN	4	0	1000	1	122	12:02:04	1668015	0	0	0	0	0	0	0	0	0	0	0	0	0	0	0	0	0	0	0	0	0	0		1	0	0	0	0	0	0	0
012813	12:02:04	10025	Trial3BackEng	YY	4	0	1000	0	122	12:02:04	1669521	0	0	0	0	0	0	0	0	0	0	0	0	0	0	0	0	0	0	0	0	0	0		1	0	0	0	0	0	0	0
012813	12:02:04	10025	Trial3BackEng	NN	4	0	1000	1	122	12:02:04	1671027	0	0	0	0	0	0	0	0	0	0	0	0	0	0	0	0	0	0	0	0	0	0		1	0	0	0	0	0	0	0
012813	12:02:04	10025	Trial3BackEng	NN	4	0	1000	1	122	12:02:04	1672546	0	0	0	0	0	0	0	0	0	0	0	0	0	0	0	0	0	0	0	0	0	0		1	0	0	0	0	0	0	0
012813	12:02:04	10025	Trial3BackEng	NN	4	0	1000	1	122	12:02:04	1674052	0	0	0	0	0	0	0	0	0	0	0	0	0	0	0	0	0	0	0	0	0	0		1	0	0	0	0	0	0	0
012813	12:02:04	10025	Trial3BackEng	NN	4	0	1000	1	122	12:02:04	1675558	0	0	0	0	0	0	0	0	0	0	0	0	0	0	0	0	0	0	0	0	0	0		1	0	0	0	0	0	0	0
012813	12:02:04	10025	Trial3BackEng	NN	4	0	1000	1	122	12:02:04	1677078	0	0	0	0	0	0	0	0	0	0	0	0	0	0	0	0	0	0	0	0	0	0		1	0	0	0	0	0	0	0
012813	12:02:04	10025	Trial3BackEng	YY	4	57	438	1	122	12:02:04	1678024	0	0	0	0	0	0	0	0	0	0	0	0	0	0	0	0	0	0	0	0	0	0		1	0	0	0	0	0	0	0
012813	12:02:04	10025	Trial3BackEng	NN	4	0	1000	1	122	12:02:04	1680090	0	0	0	0	0	0	0	0	0	0	0	0	0	0	0	0	0	0	0	0	0	0		1	0	0	0	0	0	0	0
012813	12:02:04	10025	Trial3BackEng	NN	4	0	1000	1	122	12:02:04	1681596	0	0	0	0	0	0	0	0	0	0	0	0	0	0	0	0	0	0	0	0	0	0		1	0	0	0	0	0	0	0
012813	12:02:04	10025	Trial3BackEng	NN	4	0	1000	1	122	12:02:04	1683102	0	0	0	0	0	0	0	0	0	0	0	0	0	0	0	0	0	0	0	0	0	0		1	0	0	0	0	0	0	0
012813	12:02:04	10025	Trial3BackEng	YY	4	57	669	1	122	12:02:04	1684288	0	0	0	0	0	0	0	0	0	0	0	0	0	0	0	0	0	0	0	0	0	0		1	0	0	0	0	0	0	0
012813	12:02:04	10025	Trial3BackEng	NN	4	0	1000	1	122	12:02:04	1686114	0	0	0	0	0	0	0	0	0	0	0	0	0	0	0	0	0	0	0	0	0	0		1	0	0	0	0	0	0	0
012813	12:02:04	10025	Trial3BackEng	NN	4	0	1000	1	122	12:02:04	1687633	0	0	0	0	0	0	0	0	0	0	0	0	0	0	0	0	0	0	0	0	0	0		1	0	0	0	0	0	0	0
012813	12:02:04	10025	Trial3BackEng	NN	4	0	1000	1	122	12:02:04	1689139	0	0	0	0	0	0	0	0	0	0	0	0	0	0	0	0	0	0	0	0	0	0		1	0	0	0	0	0	0	0
012813	12:02:04	10025	Trial3BackEng	YY	4	57	520	1	122	12:02:04	1690179	0	0	0	0	0	0	0	0	0	0	0	0	0	0	0	0	0	0	0	0	0	0		1	0	0	0	0	0	0	0
012813	12:02:04	10025	Trial3BackEng	NN	4	0	1000	1	122	12:02:04	1692152	0	0	0	0	0	0	0	0	0	0	0	0	0	0	0	0	0	0	0	0	0	0		1	0	0	0	0	0	0	0
012813	12:02:04	10025	Trial3BackEng	NN	4	0	1000	1	122	12:02:04	1693658	0	0	0	0	0	0	0	0	0	0	0	0	0	0	0	0	0	0	0	0	0	0		1	0	0	0	0	0	0	0
012813	12:02:04	10025	Trial3BackEng	NN	4	0	1000	1	122	12:02:04	1695163	0	0	0	0	0	0	0	0	0	0	0	0	0	0	0	0	0	0	0	0	0	0		1	0	0	0	0	0	0	0
012813	12:02:04	10025	Trial3BackEng	NN	4	0	1000	1	122	12:02:04	1696670	0	0	0	0	0	0	0	0	0	0	0	0	0	0	0	0	0	0	0	0	0	0		1	0	0	0	0	0	0	0
012813	12:02:04	10025	Trial3BackEng	NN	4	0	1000	1	122	12:02:04	1698176	0	0	0	0	0	0	0	0	0	0	0	0	0	0	0	0	0	0	0	0	0	0		1	0	0	0	0	0	0	0
012813	12:02:04	10025	Trial3BackEng	NN	4	0	1000	1	122	12:02:04	1699682	0	0	0	0	0	0	0	0	0	0	0	0	0	0	0	0	0	0	0	0	0	0		1	0	0	0	0	0	0	0
012813	12:02:04	10025	Trial3BackEng	NN	4	0	1000	1	122	12:02:04	1701201	0	0	0	0	0	0	0	0	0	0	0	0	0	0	0	0	0	0	0	0	0	0		1	0	0	0	0	0	0	0
012813	12:02:04	10025	Trial3BackEng	NN	4	0	1000	1	122	12:02:04	1702707	0	0	0	0	0	0	0	0	0	0	0	0	0	0	0	0	0	0	0	0	0	0		1	0	0	0	0	0	0	0
012813	12:02:04	10025	Trial3BackEng	NN	4	0	1000	1	122	12:02:04	1704213	0	0	0	0	0	0	0	0	0	0	0	0	0	0	0	0	0	0	0	0	0	0		1	0	0	0	0	0	0	0
012813	12:02:04	10025	Trial3BackEng	NN	4	0	1000	1	122	12:02:04	1705719	0	0	0	0	0	0	0	0	0	0	0	0	0	0	0	0	0	0	0	0	0	0		1	0	0	0	0	0	0	0
012813	12:02:04	10025	Trial3BackEng	YY	4	57	563	1	122	12:02:04	1706799	0	0	0	0	0	0	0	0	0	0	0	0	0	0	0	0	0	0	0	0	0	0		1	0	0	0	0	0	0	0
012813	12:02:04	10025	Trial3BackEng	NN	4	0	1000	1	122	12:02:04	1708731	0	0	0	0	0	0	0	0	0	0	0	0	0	0	0	0	0	0	0	0	0	0		1	0	0	0	0	0	0	0
012813	12:02:04	10025	Trial3BackEng	NN	4	0	1000	1	122	12:02:04	1710237	0	0	0	0	0	0	0	0	0	0	0	0	0	0	0	0	0	0	0	0	0	0		1	0	0	0	0	0	0	0
012813	12:02:04	10025	Trial3BackEng	NN	4	0	1000	1	122	12:02:04	1711743	0	0	0	0	0	0	0	0	0	0	0	0	0	0	0	0	0	0	0	0	0	0		1	0	0	0	0	0	0	0
012813	12:02:04	10025	Trial3BackEng	NN	4	0	1000	1	122	12:02:04	1713250	0	0	0	0	0	0	0	0	0	0	0	0	0	0	0	0	0	0	0	0	0	0		1	0	0	0	0	0	0	0
012813	12:02:04	10025	Trial3BackEng	YY	4	57	457	1	122	12:02:04	1714222	0	0	0	0	0	0	0	0	0	0	0	0	0	0	0	0	0	0	0	0	0	0		1	0	0	0	0	0	0	0
012813	12:02:04	10025	Trial3BackEng	NN	4	0	1000	1	122	12:02:04	1716261	0	0	0	0	0	0	0	0	0	0	0	0	0	0	0	0	0	0	0	0	0	0		1	0	0	0	0	0	0	0
012813	12:02:04	10025	Trial3BackEng	NN	4	0	1000	1	122	12:02:04	1717768	0	0	0	0	0	0	0	0	0	0	0	0	0	0	0	0	0	0	0	0	0	0		1	0	0	0	0	0	0	0
012813	12:02:04	10025	Trial3BackEng	NN	4	0	1000	1	122	12:02:04	1719274	0	0	0	0	0	0	0	0	0	0	0	0	0	0	0	0	0	0	0	0	0	0		1	0	0	0	0	0	0	0
012813	12:02:04	10025	Trial3BackEng	NN	4	0	1000	1	122	12:02:04	1720780	0	0	0	0	0	0	0	0	0	0	0	0	0	0	0	0	0	0	0	0	0	0		1	0	0	0	0	0	0	0
012813	12:02:04	10025	Trial3BackEng	NN	4	0	1000	1	122	12:02:04	1722286	0	0	0	0	0	0	0	0	0	0	0	0	0	0	0	0	0	0	0	0	0	0		1	0	0	0	0	0	0	0
012813	12:02:04	10025	Trial3BackEng	YY	4	57	493	1	122	12:02:04	1723299	0	0	0	0	0	0	0	0	0	0	0	0	0	0	0	0	0	0	0	0	0	0		1	0	0	0	0	0	0	0
012813	12:02:04	10025	Trial3BackEng	NN	4	0	1000	1	122	12:02:04	1725298	0	0	0	0	0	0	0	0	0	0	0	0	0	0	0	0	0	0	0	0	0	0		1	0	0	0	0	0	0	0
012813	12:02:04	10025	Trial3BackEng	NN	4	0	1000	1	122	12:02:04	1726804	0	0	0	0	0	0	0	0	0	0	0	0	0	0	0	0	0	0	0	0	0	0		1	0	0	0	0	0	0	0
012813	12:02:04	10025	Trial3BackEng	NN	4	0	1000	1	122	12:02:04	1728323	0	0	0	0	0	0	0	0	0	0	0	0	0	0	0	0	0	0	0	0	0	0		1	0	0	0	0	0	0	0
012813	12:02:04	10025	Trial3BackEng	NN	4	0	1000	1	122	12:02:04	1729829	0	0	0	0	0	0	0	0	0	0	0	0	0	0	0	0	0	0	0	0	0	0		1	0	0	0	0	0	0	0
012813	12:02:04	10025	Trial3BackEng	NN	4	0	1000	1	122	12:02:04	1731335	0	0	0	0	0	0	0	0	0	0	0	0	0	0	0	0	0	0	0	0	0	0		1	0	0	0	0	0	0	0
012813	12:02:04	10025	Trial3BackEng	NN	4	0	1000	1	122	12:02:04	1732841	0	0	0	0	0	0	0	0	0	0	0	0	0	0	0	0	0	0	0	0	0	0		1	0	0	0	0	0	0	0
012813	12:02:04	10025	Trial3BackEng	YY	4	0	1000	0	122	12:02:04	1734347	0	0	0	0	0	0	0	0	0	0	0	0	0	0	0	0	0	0	0	0	0	0		1	0	0	0	0	0	0	0
012813	12:02:04	10025	Trial3BackEng	NN	4	0	1000	1	122	12:02:04	1735867	0	0	0	0	0	0	0	0	0	0	0	0	0	0	0	0	0	0	0	0	0	0		1	0	0	0	0	0	0	0
012813	12:02:04	10025	Trial3BackEng	NN	4	0	1000	1	122	12:02:04	1737373	0	0	0	0	0	0	0	0	0	0	0	0	0	0	0	0	0	0	0	0	0	0		1	0	0	0	0	0	0	0
012813	12:02:04	10025	Trial3BackEng	NN	4	0	1000	1	122	12:02:04	1738879	0	0	0	0	0	0	0	0	0	0	0	0	0	0	0	0	0	0	0	0	0	0		1	0	0	0	0	0	0	0
012813	12:02:04	10025	Trial3BackEng	YY	4	57	459	1	122	12:02:04	1739852	0	0	0	0	0	0	0	0	0	0	0	0	0	0	0	0	0	0	0	0	0	0		1	0	0	0	0	0	0	0
012813	12:02:04	10025	Trial3BackEng	NN	4	0	1000	1	122	12:02:04	1741891	0	0	0	0	0	0	0	0	0	0	0	0	0	0	0	0	0	0	0	0	0	0		1	0	0	0	0	0	0	0
012813	12:02:04	10025	Trial3BackEng	NN	4	0	1000	1	122	12:02:04	1743397	0	0	0	0	0	0	0	0	0	0	0	0	0	0	0	0	0	0	0	0	0	0		1	0	0	0	0	0	0	0
012813	12:02:04	10025	Trial3BackEng	NN	4	0	1000	1	122	12:02:04	1744903	0	0	0	0	0	0	0	0	0	0	0	0	0	0	0	0	0	0	0	0	0	0		1	0	0	0	0	0	0	0
012813	12:02:04	10025	Trial3BackEng	NN	4	0	1000	1	122	12:02:04	1746422	0	0	0	0	0	0	0	0	0	0	0	0	0	0	0	0	0	0	0	0	0	0		1	0	0	0	0	0	0	0
012813	12:02:04	10025	Trial3BackEng	NN	4	0	1000	1	122	12:02:04	1747928	0	0	0	0	0	0	0	0	0	0	0	0	0	0	0	0	0	0	0	0	0	0		1	0	0	0	0	0	0	0
012813	12:02:04	10025	Trial3BackEng	NN	4	0	1000	1	122	12:02:04	1749434	0	0	0	0	0	0	0	0	0	0	0	0	0	0	0	0	0	0	0	0	0	0		1	0	0	0	0	0	0	0
012813	12:02:04	10025	Trial3BackEng	NN	4	57	527	0	122	12:02:04	1750474	0	0	0	0	0	0	0	0	0	0	0	0	0	0	0	0	0	0	0	0	0	0		1	0	0	0	0	0	0	0
012813	12:02:04	10025	Trial3BackEng	NN	4	0	1000	1	122	12:02:04	1752446	0	0	0	0	0	0	0	0	0	0	0	0	0	0	0	0	0	0	0	0	0	0		1	0	0	0	0	0	0	0
012813	12:02:04	10025	Trial3BackEng	NN	4	0	1000	1	122	12:02:04	1753953	0	0	0	0	0	0	0	0	0	0	0	0	0	0	0	0	0	0	0	0	0	0		1	0	0	0	0	0	0	0
012813	12:02:04	10025	Trial3BackEng	YY	4	0	1000	0	122	12:02:04	1755459	0	0	0	0	0	0	0	0	0	0	0	0	0	0	0	0	0	0	0	0	0	0		1	0	0	0	0	0	0	0
012813	12:02:04	10025	Trial3BackEng	NN	4	0	1000	1	122	12:02:04	1756965	0	0	0	0	0	0	0	0	0	0	0	0	0	0	0	0	0	0	0	0	0	0		1	0	0	0	0	0	0	0
012813	12:02:04	10025	Trial3BackEng	NN	4	0	1000	1	122	12:02:04	1758471	0	0	0	0	0	0	0	0	0	0	0	0	0	0	0	0	0	0	0	0	0	0		1	0	0	0	0	0	0	0
012813	12:02:04	10025	Trial3BackEng	NN	4	0	1000	1	122	12:02:04	1759977	0	0	0	0	0	0	0	0	0	0	0	0	0	0	0	0	0	0	0	0	0	0		1	0	0	0	0	0	0	0
012813	12:02:04	10025	Trial3BackEng	YY	4	57	720	1	122	12:02:04	1761216	0	0	0	0	0	0	0	0	0	0	0	0	0	0	0	0	0	0	0	0	0	0		1	0	0	0	0	0	0	0
012813	12:02:04	10025	Trial3BackEng	NN	4	0	1000	1	122	12:02:04	1762989	0	0	0	0	0	0	0	0	0	0	0	0	0	0	0	0	0	0	0	0	0	0		1	0	0	0	0	0	0	0
012813	12:02:04	10025	Trial3BackEng	NN	4	0	1000	1	122	12:02:04	1764495	0	0	0	0	0	0	0	0	0	0	0	0	0	0	0	0	0	0	0	0	0	0		1	0	0	0	0	0	0	0
012813	12:02:04	10025	Trial3BackEng	NN	4	0	1000	1	122	12:02:04	1766001	0	0	0	0	0	0	0	0	0	0	0	0	0	0	0	0	0	0	0	0	0	0		1	0	0	0	0	0	0	0
012813	12:02:04	10025	Trial3BackEng	NN	4	0	1000	1	122	12:02:04	1767507	0	0	0	0	0	0	0	0	0	0	0	0	0	0	0	0	0	0	0	0	0	0		1	0	0	0	0	0	0	0
012813	12:02:04	10025	Trial3BackEng	NN	4	0	1000	1	122	12:02:04	1769013	0	0	0	0	0	0	0	0	0	0	0	0	0	0	0	0	0	0	0	0	0	0		1	0	0	0	0	0	0	0
012813	12:02:04	10025	Trial3BackEng	YY	4	57	420	1	122	12:02:04	1769946	0	0	0	0	0	0	0	0	0	0	0	0	0	0	0	0	0	0	0	0	0	0		1	0	0	0	0	0	0	0
012813	12:02:04	10025	Trial3BackEng	NN	4	0	1000	1	122	12:02:04	1772025	0	0	0	0	0	0	0	0	0	0	0	0	0	0	0	0	0	0	0	0	0	0		1	0	0	0	0	0	0	0
012813	12:02:04	10025	Trial3BackEng	NN	4	0	1000	1	122	12:02:04	1773544	0	0	0	0	0	0	0	0	0	0	0	0	0	0	0	0	0	0	0	0	0	0		1	0	0	0	0	0	0	0
012813	12:02:04	10025	Trial3BackEng	NN	4	0	1000	1	122	12:02:04	1775050	0	0	0	0	0	0	0	0	0	0	0	0	0	0	0	0	0	0	0	0	0	0		1	0	0	0	0	0	0	0
012813	12:02:04	10025	Trial3BackEng	NN	4	0	1000	1	122	12:02:04	1776570	0	0	0	0	0	0	0	0	0	0	0	0	0	0	0	0	0	0	0	0	0	0		1	0	0	0	0	0	0	0
012813	12:02:04	10025	Trial3BackEng	NN	4	0	1000	1	122	12:02:04	1778076	0	0	0	0	0	0	0	0	0	0	0	0	0	0	0	0	0	0	0	0	0	0		1	0	0	0	0	0	0	0
012813	12:02:04	10025	Trial3BackEng	NN	4	0	1000	1	122	12:02:04	1779582	0	0	0	0	0	0	0	0	0	0	0	0	0	0	0	0	0	0	0	0	0	0		1	0	0	0	0	0	0	0
012813	12:02:04	10025	Trial3BackEng	NN	4	0	1000	1	122	12:02:04	1781088	0	0	0	0	0	0	0	0	0	0	0	0	0	0	0	0	0	0	0	0	0	0		1	0	0	0	0	0	0	0
012813	12:02:04	10025	Trial3BackEng	NN	4	0	1000	1	122	12:02:04	1782594	0	0	0	0	0	0	0	0	0	0	0	0	0	0	0	0	0	0	0	0	0	0		1	0	0	0	0	0	0	0
012813	12:02:04	10025	Trial3BackEng	NN	4	0	1000	1	122	12:02:04	1784100	0	0	0	0	0	0	0	0	0	0	0	0	0	0	0	0	0	0	0	0	0	0		1	0	0	0	0	0	0	0
012813	12:02:04	10025	Trial3BackEng	YY	4	57	404	1	122	12:02:04	1785020	0	0	0	0	0	0	0	0	0	0	0	0	0	0	0	0	0	0	0	0	0	0		1	0	0	0	0	0	0	0
012813	12:02:04	10025	Trial3BackEng	NN	4	0	1000	1	122	12:02:04	1787112	0	0	0	0	0	0	0	0	0	0	0	0	0	0	0	0	0	0	0	0	0	0		1	0	0	0	0	0	0	0
012813	12:02:04	10025	Trial3BackEng	NN	4	0	1000	1	122	12:02:04	1788618	0	0	0	0	0	0	0	0	0	0	0	0	0	0	0	0	0	0	0	0	0	0		1	0	0	0	0	0	0	0
012813	12:02:04	10025	Trial3BackEng	NN	4	0	1000	1	122	12:02:04	1790124	0	0	0	0	0	0	0	0	0	0	0	0	0	0	0	0	0	0	0	0	0	0		1	0	0	0	0	0	0	0
012813	12:02:04	10025	Trial3BackEng	NN	4	0	1000	1	122	12:02:04	1791630	0	0	0	0	0	0	0	0	0	0	0	0	0	0	0	0	0	0	0	0	0	0		1	0	0	0	0	0	0	0
012813	12:02:04	10025	Trial3BackEng	NN	4	0	1000	1	122	12:02:04	1793136	0	0	0	0	0	0	0	0	0	0	0	0	0	0	0	0	0	0	0	0	0	0		1	0	0	0	0	0	0	0
012813	12:02:04	10025	Trial3BackEng	NN	4	0	1000	1	122	12:02:04	1794642	0	0	0	0	0	0	0	0	0	0	0	0	0	0	0	0	0	0	0	0	0	0		1	0	0	0	0	0	0	0
012813	12:02:04	10025	Trial3BackEng	NN	4	0	1000	1	122	12:02:04	1796148	0	0	0	0	0	0	0	0	0	0	0	0	0	0	0	0	0	0	0	0	0	0		1	0	0	0	0	0	0	0
012813	12:02:04	10025	Trial3BackEng	NN	4	0	1000	1	122	12:02:04	1797654	0	0	0	0	0	0	0	0	0	0	0	0	0	0	0	0	0	0	0	0	0	0		1	0	0	0	0	0	0	0
012813	12:02:04	10025	Trial3BackEng	YY	4	57	385	1	122	12:02:04	1798561	0	0	0	0	0	0	0	0	0	0	0	0	0	0	0	0	0	0	0	0	0	0		1	0	0	0	0	0	0	0
012813	12:02:04	10025	Trial3BackEng	NN	4	0	1000	1	122	12:02:04	1800666	0	0	0	0	0	0	0	0	0	0	0	0	0	0	0	0	0	0	0	0	0	0		1	0	0	0	0	0	0	0
012813	12:02:04	10025	Trial3BackEng	NN	4	0	1000	1	122	12:02:04	1802172	0	0	0	0	0	0	0	0	0	0	0	0	0	0	0	0	0	0	0	0	0	0		1	0	0	0	0	0	0	0
012813	12:02:04	10025	Trial3BackEng	NN	4	0	1000	1	122	12:02:04	1803679	0	0	0	0	0	0	0	0	0	0	0	0	0	0	0	0	0	0	0	0	0	0		1	0	0	0	0	0	0	0
012813	12:02:04	10025	Trial3BackEng	NN	4	0	1000	1	122	12:02:04	1805198	0	0	0	0	0	0	0	0	0	0	0	0	0	0	0	0	0	0	0	0	0	0		1	0	0	0	0	0	0	0
012813	12:02:04	10025	Trial3BackEng	YY	4	0	1000	0	122	12:02:04	1806704	0	0	0	0	0	0	0	0	0	0	0	0	0	0	0	0	0	0	0	0	0	0		1	0	0	0	0	0	0	0
012813	12:02:04	10025	Trial3BackEng	NN	4	0	1000	1	122	12:02:04	1808210	0	0	0	0	0	0	0	0	0	0	0	0	0	0	0	0	0	0	0	0	0	0		1	0	0	0	0	0	0	0
012813	12:02:04	10025	Trial3BackEng	NN	4	0	1000	1	122	12:02:04	1809716	0	0	0	0	0	0	0	0	0	0	0	0	0	0	0	0	0	0	0	0	0	0		1	0	0	0	0	0	0	0
012813	12:02:04	10025	Trial3BackEng	NN	4	0	1000	1	122	12:02:04	1811222	0	0	0	0	0	0	0	0	0	0	0	0	0	0	0	0	0	0	0	0	0	0		1	0	0	0	0	0	0	0
012813	12:02:04	10025	Trial3BackEng	YY	4	57	769	1	122	12:02:04	1812501	0	0	0	0	0	0	0	0	0	0	0	0	0	0	0	0	0	0	0	0	0	0		1	0	0	0	0	0	0	0
012813	12:02:04	10025	Trial3BackEng	NN	4	0	1000	1	122	12:02:04	1814234	0	0	0	0	0	0	0	0	0	0	0	0	0	0	0	0	0	0	0	0	0	0		1	0	0	0	0	0	0	0
012813	12:02:04	10025	Trial3BackEng	NN	4	0	1000	1	122	12:02:04	1815740	0	0	0	0	0	0	0	0	0	0	0	0	0	0	0	0	0	0	0	0	0	0		1	0	0	0	0	0	0	0
012813	12:02:04	10025	Trial3BackEng	NN	4	0	1000	1	122	12:02:04	1817246	0	0	0	0	0	0	0	0	0	0	0	0	0	0	0	0	0	0	0	0	0	0		1	0	0	0	0	0	0	0
012813	12:02:04	10025	Trial3BackEng	NN	4	0	1000	1	122	12:02:04	1818752	0	0	0	0	0	0	0	0	0	0	0	0	0	0	0	0	0	0	0	0	0	0		1	0	0	0	0	0	0	0
012813	12:02:04	10025	Trial3BackEng	NN	4	0	1000	1	122	12:02:04	1820258	0	0	0	0	0	0	0	0	0	0	0	0	0	0	0	0	0	0	0	0	0	0		1	0	0	0	0	0	0	0
012813	12:02:04	10025	Trial3BackEng	YY	4	57	612	1	122	12:02:04	1821391	0	0	0	0	0	0	0	0	0	0	0	0	0	0	0	0	0	0	0	0	0	0		1	0	0	0	0	0	0	0
012813	12:02:04	10025	Trial3BackEng	NN	4	0	1000	1	122	12:02:04	1823271	0	0	0	0	0	0	0	0	0	0	0	0	0	0	0	0	0	0	0	0	0	0		1	0	0	0	0	0	0	0
012813	12:02:04	10025	Trial3BackEng	NN	4	0	1000	1	122	12:02:04	1824790	0	0	0	0	0	0	0	0	0	0	0	0	0	0	0	0	0	0	0	0	0	0		1	0	0	0	0	0	0	0
012813	12:02:04	10025	Trial3BackEng	NN	4	0	1000	1	122	12:02:04	1826296	0	0	0	0	0	0	0	0	0	0	0	0	0	0	0	0	0	0	0	0	0	0		1	0	0	0	0	0	0	0
012813	12:02:04	10025	Trial3BackEng	YY	4	57	383	1	122	12:02:04	1827189	0	0	0	0	0	0	0	0	0	0	0	0	0	0	0	0	0	0	0	0	0	0		1	0	0	0	0	0	0	0
012813	12:02:04	10025	Memory1R6mo	Score	5	M7	11349	0	122	12:02:04	1882500	0	0	0	0	0	0	0	0	0	0	0	0	0	0	0	0	0	0	0	0	0	0		1	0	0	0	0	0	0	0
012813	12:02:04	10025	Memory1R6mo	Score	5	M7	793	0	122	12:02:04	1883339	0	0	0	0	0	0	0	0	0	0	0	0	0	0	0	0	0	0	0	0	0	0		1	0	0	0	0	0	0	0
012813	12:02:04	10025	Memory1R6mo	Score	5	M8	385	0	122	12:02:04	1883779	0	0	0	0	0	0	0	0	0	0	0	0	0	0	0	0	0	0	0	0	0	0		1	0	0	0	0	0	0	0
012813	12:02:04	10025	Memory1R6mo	Score	5	M6	449	0	122	12:02:04	1884272	0	0	0	0	0	0	0	0	0	0	0	0	0	0	0	0	0	0	0	0	0	0		1	0	0	0	0	0	0	0
012813	12:02:04	10025	Memory1R6mo	Score	5	M5	372	0	122	12:02:04	1884699	0	0	0	0	0	0	0	0	0	0	0	0	0	0	0	0	0	0	0	0	0	0		1	0	0	0	0	0	0	0
012813	12:02:04	10025	Memory1R6mo	Score	5	M4	298	0	122	12:02:04	1885045	0	0	0	0	0	0	0	0	0	0	0	0	0	0	0	0	0	0	0	0	0	0		1	0	0	0	0	0	0	0
012813	12:02:04	10025	Memory1R6mo	Score	5	M3	351	0	122	12:02:04	1885445	0	0	0	0	0	0	0	0	0	0	0	0	0	0	0	0	0	0	0	0	0	0		1	0	0	0	0	0	0	0
012813	12:02:04	10025	Memory1R6mo	Score	5	M2	319	0	122	12:02:04	1885818	0	0	0	0	0	0	0	0	0	0	0	0	0	0	0	0	0	0	0	0	0	0		1	0	0	0	0	0	0	0
012813	12:02:04	10025	Memory1R6mo	Score	5	M1	314	0	122	12:02:04	1886178	0	0	0	0	0	0	0	0	0	0	0	0	0	0	0	0	0	0	0	0	0	0		1	0	0	0	0	0	0	0
012813	12:02:04	10025	Memory1R6mo	Score	5	Done	11386	0	122	12:02:04	1897613	0	0	0	0	0	0	0	0	0	0	0	0	0	0	0	0	0	0	0	0	0	0		1	0	0	0	0	0	0	0
012813	12:02:04	10025	Memory2R6mo	Score2	5	11	8206	0	122	12:02:04	1925335	0	0	0	0	0	0	0	0	0	0	0	0	0	0	0	0	0	0	0	0	0	0		1	0	0	0	0	0	0	0
012813	12:02:04	10025	Memory2R6mo	Score2	5	22	172	0	122	12:02:04	1925562	0	0	0	0	0	0	0	0	0	0	0	0	0	0	0	0	0	0	0	0	0	0		1	0	0	0	0	0	0	0
012813	12:02:04	10025	Memory2R6mo	Score2	5	33	178	0	122	12:02:04	1925788	0	0	0	0	0	0	0	0	0	0	0	0	0	0	0	0	0	0	0	0	0	0		1	0	0	0	0	0	0	0
012813	12:02:04	10025	Memory2R6mo	Score2	5	44	207	0	122	12:02:04	1926041	0	0	0	0	0	0	0	0	0	0	0	0	0	0	0	0	0	0	0	0	0	0		1	0	0	0	0	0	0	0
012813	12:02:04	10025	Memory2R6mo	Score2	5	55	257	0	122	12:02:04	1926348	0	0	0	0	0	0	0	0	0	0	0	0	0	0	0	0	0	0	0	0	0	0		1	0	0	0	0	0	0	0
012813	12:02:04	10025	Memory2R6mo	Score2	5	66	214	0	122	12:02:04	1926614	0	0	0	0	0	0	0	0	0	0	0	0	0	0	0	0	0	0	0	0	0	0		1	0	0	0	0	0	0	0
012813	12:02:04	10025	Memory2R6mo	Score2	5	77	260	0	122	12:02:04	1926921	0	0	0	0	0	0	0	0	0	0	0	0	0	0	0	0	0	0	0	0	0	0		1	0	0	0	0	0	0	0
012813	12:02:04	10025	Memory2R6mo	Score2	5	88	234	0	122	12:02:04	1927201	0	0	0	0	0	0	0	0	0	0	0	0	0	0	0	0	0	0	0	0	0	0		1	0	0	0	0	0	0	0
012813	12:02:04	10025	Memory2R6mo	Score2	5	Done	626	0	122	12:02:04	1927880	0	0	0	0	0	0	0	0	0	0	0	0	0	0	0	0	0	0	0	0	0	0		1	0	0	0	0	0	0	0
012813	12:02:04	10025	Memory3R6mo	Score3	5	111	10724	0	122	12:02:04	1958774	0	0	0	0	0	0	0	0	0	0	0	0	0	0	0	0	0	0	0	0	0	0		1	0	0	0	0	0	0	0
012813	12:02:04	10025	Memory3R6mo	Score3	5	222	315	0	122	12:02:04	1959134	0	0	0	0	0	0	0	0	0	0	0	0	0	0	0	0	0	0	0	0	0	0		1	0	0	0	0	0	0	0
012813	12:02:04	10025	Memory3R6mo	Score3	5	333	275	0	122	12:02:04	1959454	0	0	0	0	0	0	0	0	0	0	0	0	0	0	0	0	0	0	0	0	0	0		1	0	0	0	0	0	0	0
012813	12:02:04	10025	Memory3R6mo	Score3	5	444	222	0	122	12:02:04	1959721	0	0	0	0	0	0	0	0	0	0	0	0	0	0	0	0	0	0	0	0	0	0		1	0	0	0	0	0	0	0
012813	12:02:04	10025	Memory3R6mo	Score3	5	555	169	0	122	12:02:04	1959934	0	0	0	0	0	0	0	0	0	0	0	0	0	0	0	0	0	0	0	0	0	0		1	0	0	0	0	0	0	0
012813	12:02:04	10025	Memory3R6mo	Score3	5	666	308	0	122	12:02:04	1960294	0	0	0	0	0	0	0	0	0	0	0	0	0	0	0	0	0	0	0	0	0	0		1	0	0	0	0	0	0	0
012813	12:02:04	10025	Memory3R6mo	Score3	5	777	238	0	122	12:02:04	1960600	0	0	0	0	0	0	0	0	0	0	0	0	0	0	0	0	0	0	0	0	0	0		1	0	0	0	0	0	0	0
012813	12:02:04	10025	Memory3R6mo	Score3	5	888	201	0	122	12:02:04	1960853	0	0	0	0	0	0	0	0	0	0	0	0	0	0	0	0	0	0	0	0	0	0		1	0	0	0	0	0	0	0
012813	12:02:04	10025	Memory3R6mo	Score3	5	Done	790	0	122	12:02:04	1961707	0	0	0	0	0	0	0	0	0	0	0	0	0	0	0	0	0	0	0	0	0	0		1	0	0	0	0	0	0	0
012813	12:02:04	10025	LoriaEngLH3	Stop	6	9	3697	0	122	12:02:04	2031426	0	0	0	0	0	0	0	0	0	0	0	0	0	0	0	0	0	0	0	0	0	0		1	0	0	0	0	0	0	0
012813	12:02:04	10025	EngTrail	Trails	7	1Trails	1058	0	122	12:02:04	2056734	0	0	0	0	0	0	0	0	0	0	0	0	0	0	0	0	0	0	0	0	0	0		1	0	0	0	0	0	0	0
012813	12:02:04	10025	Serial7Eng6mo	Serial7Eng6mo	8	73	2362	0	122	12:02:04	2081777	1	0	0	0	0	0	0	0	0	0	0	0	0	0	0	0	0	0	0	0	0	0		1	0	0	0	0	0	0	0
012813	12:02:04	10025	Serial7Eng6mo	Serial7Eng6mo	8	66	3574	0	122	12:02:04	2085376	2	0	0	0	0	0	0	0	0	0	0	0	0	0	0	0	0	0	0	0	0	0		1	0	0	0	0	0	0	0
012813	12:02:04	10025	Serial7Eng6mo	Serial7Eng6mo	8	59	3183	0	122	12:02:04	2088575	3	0	0	0	0	0	0	0	0	0	0	0	0	0	0	0	0	0	0	0	0	0		1	0	0	0	0	0	0	0
012813	12:02:04	10025	Serial7Eng6mo	Serial7Eng6mo	8	52	2744	0	122	12:02:04	2091334	4	0	0	0	0	0	0	0	0	0	0	0	0	0	0	0	0	0	0	0	0	0		1	0	0	0	0	0	0	0
012813	12:02:04	10025	Serial7Eng6mo	Serial7Eng6mo	8	45	2146	0	122	12:02:04	2093494	5	0	0	0	0	0	0	0	0	0	0	0	0	0	0	0	0	0	0	0	0	0		1	0	0	0	0	0	0	0
012813	12:02:04	10025	corsiblockEngFwrd	recallseqEngFwrd	9	1	1840	0	122	12:02:04	2120002	5	0	0	0	0	0	0	0	0	0	0	0	0	0	0	0	0	0	0	0	0	0		1	0	0	0	0	0	0	0
012813	12:02:04	10025	corsiblockEngFwrd	recallseqEngFwrd	9	2	771	0	122	12:02:04	2120829	5	0	0	0	0	0	0	0	0	0	0	0	0	0	0	0	0	0	0	0	0	0		1	0	0	0	0	0	0	0
012813	12:02:04	10025	corsiblockEngFwrd	recallseqEngFwrd	9	doneCorsiEng	1225	0	122	12:02:04	2122108	5	0	0	0	0	0	0	0	0	0	0	0	0	0	0	2	0	0	0	0	0	0		1	0	0	0	0	0	0	0
012813	12:02:04	10025	corsiblockEngFwrd	recallseqEngFwrd	9	7	1179	0	122	12:02:04	2129412	5	0	0	0	0	0	0	0	0	0	0	0	0	0	0	2	0	0	0	0	0	0		1	0	0	0	0	0	0	0
012813	12:02:04	10025	corsiblockEngFwrd	recallseqEngFwrd	9	5	737	0	122	12:02:04	2130198	5	0	0	0	0	0	0	0	0	0	0	0	0	0	0	2	0	0	0	0	0	0		1	0	0	0	0	0	0	0
012813	12:02:04	10025	corsiblockEngFwrd	recallseqEngFwrd	9	4	518	0	122	12:02:04	2130771	5	0	0	0	0	0	0	0	0	0	0	0	0	0	0	2	0	0	0	0	0	0		1	0	0	0	0	0	0	0
012813	12:02:04	10025	corsiblockEngFwrd	recallseqEngFwrd	9	doneCorsiEng	1257	0	122	12:02:04	2132077	5	0	0	0	0	0	0	0	0	0	0	0	0	0	0	3	0	0	0	0	0	0		1	0	0	0	0	0	0	0
012813	12:02:04	10025	corsiblockEngFwrd	recallseqEngFwrd	9	3	1082	0	122	12:02:04	2140287	5	0	0	0	0	0	0	0	0	0	0	0	0	0	0	3	0	0	0	0	0	0		1	0	0	0	0	0	0	0
012813	12:02:04	10025	corsiblockEngFwrd	recallseqEngFwrd	9	8	1221	0	122	12:02:04	2141553	5	0	0	0	0	0	0	0	0	0	0	0	0	0	0	3	0	0	0	0	0	0		1	0	0	0	0	0	0	0
012813	12:02:04	10025	corsiblockEngFwrd	recallseqEngFwrd	9	6	747	0	122	12:02:04	2142353	5	0	0	0	0	0	0	0	0	0	0	0	0	0	0	3	0	0	0	0	0	0		1	0	0	0	0	0	0	0
012813	12:02:04	10025	corsiblockEngFwrd	recallseqEngFwrd	9	9	1019	0	122	12:02:04	2143419	5	0	0	0	0	0	0	0	0	0	0	0	0	0	0	3	0	0	0	0	0	0		1	0	0	0	0	0	0	0
012813	12:02:04	10025	corsiblockEngFwrd	recallseqEngFwrd	9	doneCorsiEng	1177	0	122	12:02:04	2144646	5	0	0	0	0	0	0	0	0	0	0	0	0	0	0	4	0	0	0	0	0	0		1	0	0	0	0	0	0	0
012813	12:02:04	10025	corsiblockEngFwrd	recallseqEngFwrd	9	3	978	0	122	12:02:04	2153749	5	0	0	0	0	0	0	0	0	0	0	0	0	0	0	4	0	0	0	0	0	0		1	0	0	0	0	0	0	0
012813	12:02:04	10025	corsiblockEngFwrd	recallseqEngFwrd	9	2	624	0	122	12:02:04	2154428	5	0	0	0	0	0	0	0	0	0	0	0	0	0	0	4	0	0	0	0	0	0		1	0	0	0	0	0	0	0
012813	12:02:04	10025	corsiblockEngFwrd	recallseqEngFwrd	9	4	656	0	122	12:02:04	2155134	5	0	0	0	0	0	0	0	0	0	0	0	0	0	0	4	0	0	0	0	0	0		1	0	0	0	0	0	0	0
012813	12:02:04	10025	corsiblockEngFwrd	recallseqEngFwrd	9	9	941	0	122	12:02:04	2156121	5	0	0	0	0	0	0	0	0	0	0	0	0	0	0	4	0	0	0	0	0	0		1	0	0	0	0	0	0	0
012813	12:02:04	10025	corsiblockEngFwrd	recallseqEngFwrd	9	1	1187	0	122	12:02:04	2157360	5	0	0	0	0	0	0	0	0	0	0	0	0	0	0	4	0	0	0	0	0	0		1	0	0	0	0	0	0	0
012813	12:02:04	10025	corsiblockEngFwrd	recallseqEngFwrd	9	doneCorsiEng	1084	0	122	12:02:04	2158493	5	0	0	0	0	0	0	0	0	0	0	0	0	0	0	5	0	0	0	0	0	0		1	0	0	0	0	0	0	0
012813	12:02:04	10025	corsiblockEngFwrd	recallseqEngFwrd	9	8	853	0	122	12:02:04	2168489	5	0	0	0	0	0	0	0	0	0	0	0	0	0	0	5	0	0	0	0	0	0		1	0	0	0	0	0	0	0
012813	12:02:04	10025	corsiblockEngFwrd	recallseqEngFwrd	9	7	667	0	122	12:02:04	2169209	5	0	0	0	0	0	0	0	0	0	0	0	0	0	0	5	0	0	0	0	0	0		1	0	0	0	0	0	0	0
012813	12:02:04	10025	corsiblockEngFwrd	recallseqEngFwrd	9	5	747	0	122	12:02:04	2170008	5	0	0	0	0	0	0	0	0	0	0	0	0	0	0	5	0	0	0	0	0	0		1	0	0	0	0	0	0	0
012813	12:02:04	10025	corsiblockEngFwrd	recallseqEngFwrd	9	6	499	0	122	12:02:04	2170555	5	0	0	0	0	0	0	0	0	0	0	0	0	0	0	5	0	0	0	0	0	0		1	0	0	0	0	0	0	0
012813	12:02:04	10025	corsiblockEngFwrd	recallseqEngFwrd	9	1	977	0	122	12:02:04	2171581	5	0	0	0	0	0	0	0	0	0	0	0	0	0	0	5	0	0	0	0	0	0		1	0	0	0	0	0	0	0
012813	12:02:04	10025	corsiblockEngFwrd	recallseqEngFwrd	9	8	726	0	122	12:02:04	2172354	5	0	0	0	0	0	0	0	0	0	0	0	0	0	0	5	0	0	0	0	0	0		1	0	0	0	0	0	0	0
012813	12:02:04	10025	corsiblockEngFwrd	recallseqEngFwrd	9	doneCorsiEng	3257	0	122	12:02:04	2175659	5	0	0	0	0	0	0	0	0	0	0	0	0	0	0	6	0	0	0	0	0	0		1	0	0	0	0	0	0	0
012813	12:02:04	10025	corsiblockEngFwrd	recallseqEngFwrd	9	7	812	0	122	12:02:04	2186601	5	0	0	0	0	0	0	0	0	0	0	0	0	0	0	6	0	0	0	0	0	0		1	0	0	0	0	0	0	0
012813	12:02:04	10025	corsiblockEngFwrd	recallseqEngFwrd	9	2	594	0	122	12:02:04	2187241	5	0	0	0	0	0	0	0	0	0	0	0	0	0	0	6	0	0	0	0	0	0		1	0	0	0	0	0	0	0
012813	12:02:04	10025	corsiblockEngFwrd	recallseqEngFwrd	9	9	602	0	122	12:02:04	2187894	5	0	0	0	0	0	0	0	0	0	0	0	0	0	0	6	0	0	0	0	0	0		1	0	0	0	0	0	0	0
012813	12:02:04	10025	corsiblockEngFwrd	recallseqEngFwrd	9	6	709	0	122	12:02:04	2188654	5	0	0	0	0	0	0	0	0	0	0	0	0	0	0	6	0	0	0	0	0	0		1	0	0	0	0	0	0	0
012813	12:02:04	10025	corsiblockEngFwrd	recallseqEngFwrd	9	4	868	0	122	12:02:04	2189574	5	0	0	0	0	0	0	0	0	0	0	0	0	0	0	6	0	0	0	0	0	0		1	0	0	0	0	0	0	0
012813	12:02:04	10025	corsiblockEngFwrd	recallseqEngFwrd	9	3	557	0	122	12:02:04	2190187	5	0	0	0	0	0	0	0	0	0	0	0	0	0	0	6	0	0	0	0	0	0		1	0	0	0	0	0	0	0
012813	12:02:04	10025	corsiblockEngFwrd	recallseqEngFwrd	9	5	808	0	122	12:02:04	2191040	5	0	0	0	0	0	0	0	0	0	0	0	0	0	0	6	0	0	0	0	0	0		1	0	0	0	0	0	0	0
012813	12:02:04	10025	corsiblockEngFwrd	recallseqEngFwrd	9	doneCorsiEng	843	0	122	12:02:04	2191933	5	0	0	0	0	0	0	0	0	0	0	0	0	0	0	7	0	0	0	0	0	0		1	0	0	0	0	0	0	0
012813	12:02:04	10025	corsiblockEngFwrd	recallseqEngFwrd	9	2	1175	0	122	12:02:04	2204221	5	0	0	0	0	0	0	0	0	0	0	0	0	0	0	7	0	0	0	0	0	0		1	0	0	0	0	0	0	0
012813	12:02:04	10025	corsiblockEngFwrd	recallseqEngFwrd	9	8	566	0	122	12:02:04	2204834	5	0	0	0	0	0	0	0	0	0	0	0	0	0	0	7	0	0	0	0	0	0		1	0	0	0	0	0	0	0
012813	12:02:04	10025	corsiblockEngFwrd	recallseqEngFwrd	9	5	473	0	122	12:02:04	2205354	5	0	0	0	0	0	0	0	0	0	0	0	0	0	0	7	0	0	0	0	0	0		1	0	0	0	0	0	0	0
012813	12:02:04	10025	corsiblockEngFwrd	recallseqEngFwrd	9	7	609	0	122	12:02:04	2206007	5	0	0	0	0	0	0	0	0	0	0	0	0	0	0	7	0	0	0	0	0	0		1	0	0	0	0	0	0	0
012813	12:02:04	10025	corsiblockEngFwrd	recallseqEngFwrd	9	3	916	0	122	12:02:04	2206980	5	0	0	0	0	0	0	0	0	0	0	0	0	0	0	7	0	0	0	0	0	0		1	0	0	0	0	0	0	0
012813	12:02:04	10025	corsiblockEngFwrd	recallseqEngFwrd	9	1	615	0	122	12:02:04	2207646	5	0	0	0	0	0	0	0	0	0	0	0	0	0	0	7	0	0	0	0	0	0		1	0	0	0	0	0	0	0
012813	12:02:04	10025	corsiblockEngFwrd	recallseqEngFwrd	9	4	556	0	122	12:02:04	2208259	5	0	0	0	0	0	0	0	0	0	0	0	0	0	0	7	0	0	0	0	0	0		1	0	0	0	0	0	0	0
012813	12:02:04	10025	corsiblockEngFwrd	recallseqEngFwrd	9	9	791	0	122	12:02:04	2209099	5	0	0	0	0	0	0	0	0	0	0	0	0	0	0	7	0	0	0	0	0	0		1	0	0	0	0	0	0	0
012813	12:02:04	10025	corsiblockEngFwrd	recallseqEngFwrd	9	doneCorsiEng	1047	0	122	12:02:04	2210192	5	0	0	0	0	0	0	0	0	0	0	0	0	0	0	8	0	0	0	0	0	0		1	0	0	0	0	0	0	0
012813	12:02:04	10025	corsiblockEngFwrd	recallseqEngFwrd	9	6	935	0	122	12:02:04	2223253	5	0	0	0	0	0	0	0	0	0	0	0	0	0	0	8	0	0	0	0	0	0		1	0	0	0	0	0	0	0
012813	12:02:04	10025	corsiblockEngFwrd	recallseqEngFwrd	9	1	901	0	122	12:02:04	2224199	5	0	0	0	0	0	0	0	0	0	0	0	0	0	0	8	0	0	0	0	0	0		1	0	0	0	0	0	0	0
012813	12:02:04	10025	corsiblockEngFwrd	recallseqEngFwrd	9	6	627	0	122	12:02:04	2224879	5	0	0	0	0	0	0	0	0	0	0	0	0	0	0	8	0	0	0	0	0	0		1	0	0	0	0	0	0	0
012813	12:02:04	10025	corsiblockEngFwrd	recallseqEngFwrd	9	3	851	0	122	12:02:04	2225785	5	0	0	0	0	0	0	0	0	0	0	0	0	0	0	8	0	0	0	0	0	0		1	0	0	0	0	0	0	0
012813	12:02:04	10025	corsiblockEngFwrd	recallseqEngFwrd	9	7	824	0	122	12:02:04	2226665	5	0	0	0	0	0	0	0	0	0	0	0	0	0	0	8	0	0	0	0	0	0		1	0	0	0	0	0	0	0
012813	12:02:04	10025	corsiblockEngFwrd	recallseqEngFwrd	9	5	609	0	122	12:02:04	2227331	5	0	0	0	0	0	0	0	0	0	0	0	0	0	0	8	0	0	0	0	0	0		1	0	0	0	0	0	0	0
012813	12:02:04	10025	corsiblockEngFwrd	recallseqEngFwrd	9	4	702	0	122	12:02:04	2228078	5	0	0	0	0	0	0	0	0	0	0	0	0	0	0	8	0	0	0	0	0	0		1	0	0	0	0	0	0	0
012813	12:02:04	10025	corsiblockEngFwrd	recallseqEngFwrd	9	2	588	0	122	12:02:04	2228717	5	0	0	0	0	0	0	0	0	0	0	0	0	0	0	8	0	0	0	0	0	0		1	0	0	0	0	0	0	0
012813	12:02:04	10025	corsiblockEngFwrd	recallseqEngFwrd	9	8	703	0	122	12:02:04	2229477	5	0	0	0	0	0	0	0	0	0	0	0	0	0	0	8	0	0	0	0	0	0		1	0	0	0	0	0	0	0
012813	12:02:04	10025	corsiblockEngFwrd	recallseqEngFwrd	9	doneCorsiEng	901	0	122	12:02:04	2230423	5	0	0	0	0	0	0	0	0	0	0	0	0	0	0	8	0	0	0	0	0	0		1	0	0	0	0	0	0	0
012813	12:02:04	10025	corsiblockEngFwrd	recallseqEngFwrd	9	9	718	0	122	12:02:04	2243231	5	0	0	0	0	0	0	0	0	0	0	0	0	0	0	8	0	0	0	0	0	0		1	0	0	0	0	0	0	0
012813	12:02:04	10025	corsiblockEngFwrd	recallseqEngFwrd	9	6	914	0	122	12:02:04	2244191	5	0	0	0	0	0	0	0	0	0	0	0	0	0	0	8	0	0	0	0	0	0		1	0	0	0	0	0	0	0
012813	12:02:04	10025	corsiblockEngFwrd	recallseqEngFwrd	9	9	778	0	122	12:02:04	2245017	5	0	0	0	0	0	0	0	0	0	0	0	0	0	0	8	0	0	0	0	0	0		1	0	0	0	0	0	0	0
012813	12:02:04	10025	corsiblockEngFwrd	recallseqEngFwrd	9	6	1048	0	122	12:02:04	2246110	5	0	0	0	0	0	0	0	0	0	0	0	0	0	0	8	0	0	0	0	0	0		1	0	0	0	0	0	0	0
012813	12:02:04	10025	corsiblockEngFwrd	recallseqEngFwrd	9	5	579	0	122	12:02:04	2246737	5	0	0	0	0	0	0	0	0	0	0	0	0	0	0	8	0	0	0	0	0	0		1	0	0	0	0	0	0	0
012813	12:02:04	10025	corsiblockEngFwrd	recallseqEngFwrd	9	8	888	0	122	12:02:04	2247670	5	0	0	0	0	0	0	0	0	0	0	0	0	0	0	8	0	0	0	0	0	0		1	0	0	0	0	0	0	0
012813	12:02:04	10025	corsiblockEngFwrd	recallseqEngFwrd	9	4	2811	0	122	12:02:04	2250535	5	0	0	0	0	0	0	0	0	0	0	0	0	0	0	8	0	0	0	0	0	0		1	0	0	0	0	0	0	0
012813	12:02:04	10025	corsiblockEngFwrd	recallseqEngFwrd	9	1	674	0	122	12:02:04	2251254	5	0	0	0	0	0	0	0	0	0	0	0	0	0	0	8	0	0	0	0	0	0		1	0	0	0	0	0	0	0
012813	12:02:04	10025	corsiblockEngFwrd	recallseqEngFwrd	9	7	602	0	122	12:02:04	2251908	5	0	0	0	0	0	0	0	0	0	0	0	0	0	0	8	0	0	0	0	0	0		1	0	0	0	0	0	0	0
012813	12:02:04	10025	corsiblockEngFwrd	recallseqEngFwrd	9	2	613	0	122	12:02:04	2252574	5	0	0	0	0	0	0	0	0	0	0	0	0	0	0	8	0	0	0	0	0	0		1	0	0	0	0	0	0	0
012813	12:02:04	10025	corsiblockEngFwrd	recallseqEngFwrd	9	doneCorsiEng	875	0	122	12:02:04	2253494	5	0	0	0	0	0	0	0	0	0	0	0	0	0	0	8	0	0	0	0	0	0		1	0	0	0	0	0	0	0
012813	12:02:04	10025	corsiblockEngRev	recallseqEngRev	10	1	1262	0	122	12:02:04	2746768	5	0	0	0	0	0	0	0	0	0	0	0	0	0	0	8	0	0	0	0	0	0		1	0	0	0	0	0	0	0
012813	12:02:04	10025	corsiblockEngRev	recallseqEngRev	10	9	935	0	122	12:02:04	2747755	5	0	0	0	0	0	0	0	0	0	0	0	0	0	0	8	0	0	0	0	0	0		1	0	0	0	0	0	0	0
012813	12:02:04	10025	corsiblockEngRev	recallseqEngRev	10	doneCorsiEng	941	0	122	12:02:04	2748741	5	0	0	0	0	0	0	0	0	0	0	0	0	0	0	8	2	0	0	0	0	0		1	0	0	0	0	0	0	0
012813	12:02:04	10025	corsiblockEngRev	recallseqEngRev	10	3	968	0	122	12:02:04	2755805	5	0	0	0	0	0	0	0	0	0	0	0	0	0	0	8	2	0	0	0	0	0		1	0	0	0	0	0	0	0
012813	12:02:04	10025	corsiblockEngRev	recallseqEngRev	10	2	882	0	122	12:02:04	2756738	5	0	0	0	0	0	0	0	0	0	0	0	0	0	0	8	2	0	0	0	0	0		1	0	0	0	0	0	0	0
012813	12:02:04	10025	corsiblockEngRev	recallseqEngRev	10	5	726	0	122	12:02:04	2757511	5	0	0	0	0	0	0	0	0	0	0	0	0	0	0	8	2	0	0	0	0	0		1	0	0	0	0	0	0	0
012813	12:02:04	10025	corsiblockEngRev	recallseqEngRev	10	doneCorsiEng	1065	0	122	12:02:04	2758630	5	0	0	0	0	0	0	0	0	0	0	0	0	0	0	8	3	0	0	0	0	0		1	0	0	0	0	0	0	0
012813	12:02:04	10025	corsiblockEngRev	recallseqEngRev	10	4	2092	0	122	12:02:04	2767853	5	0	0	0	0	0	0	0	0	0	0	0	0	0	0	8	3	0	0	0	0	0		1	0	0	0	0	0	0	0
012813	12:02:04	10025	corsiblockEngRev	recallseqEngRev	10	7	650	0	122	12:02:04	2768560	5	0	0	0	0	0	0	0	0	0	0	0	0	0	0	8	3	0	0	0	0	0		1	0	0	0	0	0	0	0
012813	12:02:04	10025	corsiblockEngRev	recallseqEngRev	10	6	575	0	122	12:02:04	2769186	5	0	0	0	0	0	0	0	0	0	0	0	0	0	0	8	3	0	0	0	0	0		1	0	0	0	0	0	0	0
012813	12:02:04	10025	corsiblockEngRev	recallseqEngRev	10	8	621	0	122	12:02:04	2769852	5	0	0	0	0	0	0	0	0	0	0	0	0	0	0	8	3	0	0	0	0	0		1	0	0	0	0	0	0	0
012813	12:02:04	10025	corsiblockEngRev	recallseqEngRev	10	doneCorsiEng	915	0	122	12:02:04	2770812	5	0	0	0	0	0	0	0	0	0	0	0	0	0	0	8	4	0	0	0	0	0		1	0	0	0	0	0	0	0
012813	12:02:04	10025	corsiblockEngRev	recallseqEngRev	10	2	831	0	122	12:02:04	2779768	5	0	0	0	0	0	0	0	0	0	0	0	0	0	0	8	4	0	0	0	0	0		1	0	0	0	0	0	0	0
012813	12:02:04	10025	corsiblockEngRev	recallseqEngRev	10	1	838	0	122	12:02:04	2780661	5	0	0	0	0	0	0	0	0	0	0	0	0	0	0	8	4	0	0	0	0	0		1	0	0	0	0	0	0	0
012813	12:02:04	10025	corsiblockEngRev	recallseqEngRev	10	4	937	0	122	12:02:04	2781647	5	0	0	0	0	0	0	0	0	0	0	0	0	0	0	8	4	0	0	0	0	0		1	0	0	0	0	0	0	0
012813	12:02:04	10025	corsiblockEngRev	recallseqEngRev	10	8	775	0	122	12:02:04	2782474	5	0	0	0	0	0	0	0	0	0	0	0	0	0	0	8	4	0	0	0	0	0		1	0	0	0	0	0	0	0
012813	12:02:04	10025	corsiblockEngRev	recallseqEngRev	10	6	781	0	122	12:02:04	2783300	5	0	0	0	0	0	0	0	0	0	0	0	0	0	0	8	4	0	0	0	0	0		1	0	0	0	0	0	0	0
012813	12:02:04	10025	corsiblockEngRev	recallseqEngRev	10	doneCorsiEng	770	0	122	12:02:04	2784127	5	0	0	0	0	0	0	0	0	0	0	0	0	0	0	8	5	0	0	0	0	0		1	0	0	0	0	0	0	0
012813	12:02:04	10025	corsiblockEngRev	recallseqEngRev	10	3	899	0	122	12:02:04	2794149	5	0	0	0	0	0	0	0	0	0	0	0	0	0	0	8	5	0	0	0	0	0		1	0	0	0	0	0	0	0
012813	12:02:04	10025	corsiblockEngRev	recallseqEngRev	10	6	801	0	122	12:02:04	2795002	5	0	0	0	0	0	0	0	0	0	0	0	0	0	0	8	5	0	0	0	0	0		1	0	0	0	0	0	0	0
012813	12:02:04	10025	corsiblockEngRev	recallseqEngRev	10	7	756	0	122	12:02:04	2795815	5	0	0	0	0	0	0	0	0	0	0	0	0	0	0	8	5	0	0	0	0	0		1	0	0	0	0	0	0	0
012813	12:02:04	10025	corsiblockEngRev	recallseqEngRev	10	5	2823	0	122	12:02:04	2798694	5	0	0	0	0	0	0	0	0	0	0	0	0	0	0	8	5	0	0	0	0	0		1	0	0	0	0	0	0	0
012813	12:02:04	10025	corsiblockEngRev	recallseqEngRev	10	3	656	0	122	12:02:04	2799400	5	0	0	0	0	0	0	0	0	0	0	0	0	0	0	8	5	0	0	0	0	0		1	0	0	0	0	0	0	0
012813	12:02:04	10025	corsiblockEngRev	recallseqEngRev	10	9	854	0	122	12:02:04	2800306	5	0	0	0	0	0	0	0	0	0	0	0	0	0	0	8	5	0	0	0	0	0		1	0	0	0	0	0	0	0
012813	12:02:04	10025	corsiblockEngRev	recallseqEngRev	10	doneCorsiEng	827	0	122	12:02:04	2801186	5	0	0	0	0	0	0	0	0	0	0	0	0	0	0	8	6	0	0	0	0	0		1	0	0	0	0	0	0	0
012813	12:02:04	10025	corsiblockEngRev	recallseqEngRev	10	1	1024	0	122	12:02:04	2812342	5	0	0	0	0	0	0	0	0	0	0	0	0	0	0	8	6	0	0	0	0	0		1	0	0	0	0	0	0	0
012813	12:02:04	10025	corsiblockEngRev	recallseqEngRev	10	2	544	0	122	12:02:04	2812981	5	0	0	0	0	0	0	0	0	0	0	0	0	0	0	8	6	0	0	0	0	0		1	0	0	0	0	0	0	0
012813	12:02:04	10025	corsiblockEngRev	recallseqEngRev	10	4	488	0	122	12:02:04	2813514	5	0	0	0	0	0	0	0	0	0	0	0	0	0	0	8	6	0	0	0	0	0		1	0	0	0	0	0	0	0
012813	12:02:04	10025	corsiblockEngRev	recallseqEngRev	10	8	611	0	122	12:02:04	2814181	5	0	0	0	0	0	0	0	0	0	0	0	0	0	0	8	6	0	0	0	0	0		1	0	0	0	0	0	0	0
012813	12:02:04	10025	corsiblockEngRev	recallseqEngRev	10	5	433	0	122	12:02:04	2814660	5	0	0	0	0	0	0	0	0	0	0	0	0	0	0	8	6	0	0	0	0	0		1	0	0	0	0	0	0	0
012813	12:02:04	10025	corsiblockEngRev	recallseqEngRev	10	9	912	0	122	12:02:04	2815620	5	0	0	0	0	0	0	0	0	0	0	0	0	0	0	8	6	0	0	0	0	0		1	0	0	0	0	0	0	0
012813	12:02:04	10025	corsiblockEngRev	recallseqEngRev	10	7	521	0	122	12:02:04	2816193	5	0	0	0	0	0	0	0	0	0	0	0	0	0	0	8	6	0	0	0	0	0		1	0	0	0	0	0	0	0
012813	12:02:04	10025	corsiblockEngRev	recallseqEngRev	10	doneCorsiEng	708	0	122	12:02:04	2816953	5	0	0	0	0	0	0	0	0	0	0	0	0	0	0	8	7	0	0	0	0	0		1	0	0	0	0	0	0	0
012813	12:02:04	10025	corsiblockEngRev	recallseqEngRev	10	5	1144	0	122	12:02:04	2829228	5	0	0	0	0	0	0	0	0	0	0	0	0	0	0	8	7	0	0	0	0	0		1	0	0	0	0	0	0	0
012813	12:02:04	10025	corsiblockEngRev	recallseqEngRev	10	2	688	0	122	12:02:04	2829961	5	0	0	0	0	0	0	0	0	0	0	0	0	0	0	8	7	0	0	0	0	0		1	0	0	0	0	0	0	0
012813	12:02:04	10025	corsiblockEngRev	recallseqEngRev	10	6	644	0	122	12:02:04	2830654	5	0	0	0	0	0	0	0	0	0	0	0	0	0	0	8	7	0	0	0	0	0		1	0	0	0	0	0	0	0
012813	12:02:04	10025	corsiblockEngRev	recallseqEngRev	10	3	535	0	122	12:02:04	2831240	5	0	0	0	0	0	0	0	0	0	0	0	0	0	0	8	7	0	0	0	0	0		1	0	0	0	0	0	0	0
012813	12:02:04	10025	corsiblockEngRev	recallseqEngRev	10	1	500	0	122	12:02:04	2831788	5	0	0	0	0	0	0	0	0	0	0	0	0	0	0	8	7	0	0	0	0	0		1	0	0	0	0	0	0	0
012813	12:02:04	10025	corsiblockEngRev	recallseqEngRev	10	7	804	0	122	12:02:04	2832653	5	0	0	0	0	0	0	0	0	0	0	0	0	0	0	8	7	0	0	0	0	0		1	0	0	0	0	0	0	0
012813	12:02:04	10025	corsiblockEngRev	recallseqEngRev	10	8	535	0	122	12:02:04	2833240	5	0	0	0	0	0	0	0	0	0	0	0	0	0	0	8	7	0	0	0	0	0		1	0	0	0	0	0	0	0
012813	12:02:04	10025	corsiblockEngRev	recallseqEngRev	10	doneCorsiEng	749	0	122	12:02:04	2834040	5	0	0	0	0	0	0	0	0	0	0	0	0	0	0	8	7	0	0	0	0	0		1	0	0	0	0	0	0	0
012813	12:02:04	10025	corsiblockEngRev	recallseqEngRev	10	5	988	0	122	12:02:04	2846127	5	0	0	0	0	0	0	0	0	0	0	0	0	0	0	8	7	0	0	0	0	0		1	0	0	0	0	0	0	0
012813	12:02:04	10025	corsiblockEngRev	recallseqEngRev	10	9	637	0	122	12:02:04	2846820	5	0	0	0	0	0	0	0	0	0	0	0	0	0	0	8	7	0	0	0	0	0		1	0	0	0	0	0	0	0
012813	12:02:04	10025	corsiblockEngRev	recallseqEngRev	10	8	719	0	122	12:02:04	2847594	5	0	0	0	0	0	0	0	0	0	0	0	0	0	0	8	7	0	0	0	0	0		1	0	0	0	0	0	0	0
012813	12:02:04	10025	corsiblockEngRev	recallseqEngRev	10	2	1971	0	122	12:02:04	2849619	5	0	0	0	0	0	0	0	0	0	0	0	0	0	0	8	7	0	0	0	0	0		1	0	0	0	0	0	0	0
012813	12:02:04	10025	corsiblockEngRev	recallseqEngRev	10	1	576	0	122	12:02:04	2850246	5	0	0	0	0	0	0	0	0	0	0	0	0	0	0	8	7	0	0	0	0	0		1	0	0	0	0	0	0	0
012813	12:02:04	10025	corsiblockEngRev	recallseqEngRev	10	3	807	0	122	12:02:04	2851099	5	0	0	0	0	0	0	0	0	0	0	0	0	0	0	8	7	0	0	0	0	0		1	0	0	0	0	0	0	0
012813	12:02:04	10025	corsiblockEngRev	recallseqEngRev	10	7	953	0	122	12:02:04	2852098	5	0	0	0	0	0	0	0	0	0	0	0	0	0	0	8	7	0	0	0	0	0		1	0	0	0	0	0	0	0
012813	12:02:04	10025	corsiblockEngRev	recallseqEngRev	10	doneCorsiEng	929	0	122	12:02:04	2853085	5	0	0	0	0	0	0	0	0	0	0	0	0	0	0	8	7	0	0	0	0	0		1	0	0	0	0	0	0	0
012813	12:02:04	10025	testEng6mo	WordsEng6mo	11	5Eng6mo	14812	0	122	12:02:04	2882419	5	0	0	0	0	3	0	0	0	0	0	0	0	0	0	8	7	0	0	0	0	0		1	0	0	0	0	0	0	0
012813	12:02:04	10025	testEng6mo	WordsEng6mo	11	6Eng6mo	192	0	122	12:02:04	2882659	5	0	0	0	0	3	3	0	0	0	0	0	0	0	0	8	7	0	0	0	0	0		1	0	0	0	0	0	0	0
012813	12:02:04	10025	testEng6mo	WordsEng6mo	11	7Eng6mo	227	0	122	12:02:04	2882952	5	0	0	0	0	3	3	3	0	0	0	0	0	0	0	8	7	0	0	0	0	0		1	0	0	0	0	0	0	0
012813	12:02:04	10025	testEng6mo	WordsEng6mo	11	8Eng6mo	265	0	122	12:02:04	2883285	5	0	0	0	0	3	3	3	3	0	0	0	0	0	0	8	7	0	0	0	0	0		1	0	0	0	0	0	0	0
012813	12:02:04	10025	testEng6mo	WordsEng6mo	11	3Eng6mo	518	0	122	12:02:04	2883859	5	0	0	3	0	3	3	3	3	0	0	0	0	0	0	8	7	0	0	0	0	0		1	0	0	0	0	0	0	0
012813	12:02:04	10025	testEng6mo	WordsEng6mo	11	2Eng6mo	337	0	122	12:02:04	2884245	5	0	3	3	0	3	3	3	3	0	0	0	0	0	0	8	7	0	0	0	0	0		1	0	0	0	0	0	0	0
012813	12:02:04	10025	testEng6mo	WordsEng6mo	11	1Eng6mo	313	0	122	12:02:04	2884618	5	3	3	3	0	3	3	3	3	0	0	0	0	0	0	8	7	0	0	0	0	0		1	0	0	0	0	0	0	0
012813	12:02:04	10025	testEng6mo	WordsEng6mo	11	4Eng6mo	4508	0	122	12:02:04	2889190	5	3	3	3	3	3	3	3	3	0	0	0	0	0	0	8	7	0	0	0	0	0		1	0	0	0	0	0	0	0
012813	12:02:04	10025	testEng6mo	WordsEng6mo	11	DoneEng6mo	1118	0	122	12:02:04	2890363	5	3	3	3	3	3	3	3	3	0	0	0	0	0	0	8	7	0	0	0	0	0		1	0	0	0	0	0	0	0
012813	12:02:04	10025	DigitSpanFwrdEng6mo	Score1FwrdEng6mo	12	DS1	3166	0	122	12:02:04	2904370	5	3	3	3	3	3	3	3	3	0	0	0	0	0	0	8	7	0	0	0	0	0		1	0	0	0	0	0	0	0
012813	12:02:04	10025	DigitSpanFwrdEng6mo	Gate1FwrdEng6mo	12	0	1	0	122	12:02:04	2904374	5	3	3	3	3	3	3	3	3	3	0	0	0	0	0	8	7	0	0	0	0	0		1	0	0	0	0	0	0	0
012813	12:02:04	10025	DigitSpanFwrdEng6mo	Score2FwrdEng6mo	12	DS1	2285	0	122	12:02:04	2913419	5	3	3	3	3	3	3	3	3	3	0	0	0	0	0	8	7	0	0	0	0	0		1	0	0	0	0	0	0	0
012813	12:02:04	10025	DigitSpanFwrdEng6mo	Gate3FwrdEng6mo	12	0	1	0	122	12:02:04	2913424	5	3	3	3	3	3	3	3	3	4	0	0	0	0	0	8	7	0	0	0	0	0		1	0	0	0	0	0	0	0
012813	12:02:04	10025	DigitSpanFwrdEng6mo	Score3FwrdEng6mo	12	DS1	3040	0	122	12:02:04	2924494	5	3	3	3	3	3	3	3	3	4	0	0	0	0	0	8	7	0	0	0	0	0		1	0	0	0	0	0	0	0
012813	12:02:04	10025	DigitSpanFwrdEng6mo	Gate5FwrdEng6mo	12	0	1	0	122	12:02:04	2924499	5	3	3	3	3	3	3	3	3	5	0	0	0	0	0	8	7	0	0	0	0	0		1	0	0	0	0	0	0	0
012813	12:02:04	10025	DigitSpanFwrdEng6mo	Score4FwrdEng6mo	12	DS1	2365	0	122	12:02:04	2936370	5	3	3	3	3	3	3	3	3	5	0	0	0	0	0	8	7	0	0	0	0	0		1	0	0	0	0	0	0	0
012813	12:02:04	10025	DigitSpanFwrdEng6mo	Gate7FwrdEng6mo	12	0	1	0	122	12:02:04	2936375	5	3	3	3	3	3	3	3	3	6	0	0	0	0	0	8	7	0	0	0	0	0		1	0	0	0	0	0	0	0
012813	12:02:04	10025	DigitSpanFwrdEng6mo	Score5FwrdEng6mo	12	DS1	3898	0	122	12:02:04	2951257	5	3	3	3	3	3	3	3	3	6	0	0	0	0	0	8	7	0	0	0	0	0		1	0	0	0	0	0	0	0
012813	12:02:04	10025	DigitSpanFwrdEng6mo	Gate9FwrdEng6mo	12	0	1	0	122	12:02:04	2951261	5	3	3	3	3	3	3	3	3	7	0	0	0	0	0	8	7	0	0	0	0	0		1	0	0	0	0	0	0	0
012813	12:02:04	10025	DigitSpanFwrdEng6mo	Score6FwrdEng6mo	12	DS2	7248	0	122	12:02:04	2971489	5	3	3	3	3	3	3	3	3	7	0	0	0	0	0	8	7	0	0	0	0	0		1	0	0	0	0	0	0	0
012813	12:02:04	10025	DigitSpanFwrdEng6mo	Gate11FwrdEng6mo	12	0	1	0	122	12:02:04	2971495	5	3	3	3	3	3	3	3	3	7	0	0	0	0	0	8	7	0	0	0	0	0		1	0	0	0	0	0	0	0
012813	12:02:04	10025	DigitSpanFwrdEng6mo	Score66FwrdEng6mo	12	DS1	4824	0	122	12:02:04	2989494	5	3	3	3	3	3	3	3	3	8	0	0	0	0	0	8	7	0	0	0	0	0		1	0	0	0	0	0	0	0
012813	12:02:04	10025	DigitSpanEng6mo	Score1Eng6mo	13	DS1	3128	0	122	12:02:04	3014484	5	3	3	3	3	3	3	3	3	8	0	0	0	0	0	8	7	0	0	0	0	0		1	0	0	0	0	0	0	0
012813	12:02:04	10025	DigitSpanEng6mo	Gate1Eng6mo	13	0	1	0	122	12:02:04	3014488	5	3	3	3	3	3	3	3	3	8	2	0	0	0	0	8	7	0	0	0	0	0		1	0	0	0	0	0	0	0
012813	12:02:04	10025	DigitSpanEng6mo	Score2Eng6mo	13	DS1	2648	0	122	12:02:04	3022067	5	3	3	3	3	3	3	3	3	8	2	0	0	0	0	8	7	0	0	0	0	0		1	0	0	0	0	0	0	0
012813	12:02:04	10025	DigitSpanEng6mo	Gate3Eng6mo	13	0	1	0	122	12:02:04	3022072	5	3	3	3	3	3	3	3	3	8	3	0	0	0	0	8	7	0	0	0	0	0		1	0	0	0	0	0	0	0
012813	12:02:04	10025	DigitSpanEng6mo	Score3Eng6mo	13	DS1	6932	0	122	12:02:04	3035555	5	3	3	3	3	3	3	3	3	8	3	0	0	0	0	8	7	0	0	0	0	0		1	0	0	0	0	0	0	0
012813	12:02:04	10025	DigitSpanEng6mo	Gate5Eng6mo	13	0	1	0	122	12:02:04	3035560	5	3	3	3	3	3	3	3	3	8	4	0	0	0	0	8	7	0	0	0	0	0		1	0	0	0	0	0	0	0
012813	12:02:04	10025	DigitSpanEng6mo	Score4Eng6mo	13	DS1	6551	0	122	12:02:04	3049869	5	3	3	3	3	3	3	3	3	8	4	0	0	0	0	8	7	0	0	0	0	0		1	0	0	0	0	0	0	0
012813	12:02:04	10025	DigitSpanEng6mo	Gate7Eng6mo	13	0	1	0	122	12:02:04	3049874	5	3	3	3	3	3	3	3	3	8	5	0	0	0	0	8	7	0	0	0	0	0		1	0	0	0	0	0	0	0
012813	12:02:04	10025	DigitSpanEng6mo	Score5Eng6mo	13	DS1	9788	0	122	12:02:04	3068861	5	3	3	3	3	3	3	3	3	8	5	0	0	0	0	8	7	0	0	0	0	0		1	0	0	0	0	0	0	0
012813	12:02:04	10025	DigitSpanEng6mo	Gate9Eng6mo	13	0	1	0	122	12:02:04	3068866	5	3	3	3	3	3	3	3	3	8	6	0	0	0	0	8	7	0	0	0	0	0		1	0	0	0	0	0	0	0
012813	12:02:04	10025	DigitSpanEng6mo	Score6Eng6mo	13	DS1	10824	0	122	12:02:04	3091625	5	3	3	3	3	3	3	3	3	8	7	0	0	0	0	8	7	0	0	0	0	0		1	0	0	0	0	0	0	0
012813	12:02:04	10025	Trial	ResponseIL	14	0	175	0	122	12:02:04	3149615	5	3	3	3	3	3	3	3	3	8	7	0	0	0	0	8	7	0	0	0	0	0		1	0	0	0	0	0	0	0
012813	12:02:04	10025	Trial	IncongruentLeft	14	203	328	1	122	12:02:04	3149961	5	3	3	3	3	3	3	3	3	8	7	0	0	0	0	8	7	0	0	0	0	0		1	0	0	0	0	0	0	0
012813	12:02:04	10025	Trial	ResponseCR	14	0	175	0	122	12:02:04	3151320	5	3	3	3	3	3	3	3	3	8	7	0	0	0	0	8	7	0	0	0	0	0		1	0	0	0	0	0	0	0
012813	12:02:04	10025	Trial	CongruentRight	14	205	190	1	122	12:02:04	3151533	5	3	3	3	3	3	3	3	3	8	7	0	0	0	0	8	7	0	0	0	0	0		1	0	0	0	0	0	0	0
012813	12:02:04	10025	Trial	ResponseIR	14	0	175	0	122	12:02:04	3153026	5	3	3	3	3	3	3	3	3	8	7	0	0	0	0	8	7	0	0	0	0	0		1	0	0	0	0	0	0	0
012813	12:02:04	10025	Trial	IncongruentRight	14	205	266	1	122	12:02:04	3153346	5	3	3	3	3	3	3	3	3	8	7	0	0	0	0	8	7	0	0	0	0	0		1	0	0	0	0	0	0	0
012813	12:02:04	10025	Trial	ResponseCL	14	0	175	0	122	12:02:04	3154759	5	3	3	3	3	3	3	3	3	8	7	0	0	0	0	8	7	0	0	0	0	0		1	0	0	0	0	0	0	0
012813	12:02:04	10025	Trial	CongruentLeft	14	203	175	1	122	12:02:04	3154959	5	3	3	3	3	3	3	3	3	8	7	0	0	0	0	8	7	0	0	0	0	0		1	0	0	0	0	0	0	0
012813	12:02:04	10025	Trial	ResponseCR	14	0	175	0	122	12:02:04	3156465	5	3	3	3	3	3	3	3	3	8	7	0	0	0	0	8	7	0	0	0	0	0		1	0	0	0	0	0	0	0
012813	12:02:04	10025	Trial	CongruentRight	14	205	150	1	122	12:02:04	3156638	5	3	3	3	3	3	3	3	3	8	7	0	0	0	0	8	7	0	0	0	0	0		1	0	0	0	0	0	0	0
012813	12:02:04	10025	Trial	ResponseIR	14	0	175	0	122	12:02:04	3158171	5	3	3	3	3	3	3	3	3	8	7	0	0	0	0	8	7	0	0	0	0	0		1	0	0	0	0	0	0	0
012813	12:02:04	10025	Trial	IncongruentRight	14	205	346	1	122	12:02:04	3158544	5	3	3	3	3	3	3	3	3	8	7	0	0	0	0	8	7	0	0	0	0	0		1	0	0	0	0	0	0	0
012813	12:02:04	10025	Trial	ResponseCL	14	0	175	0	122	12:02:04	3159877	5	3	3	3	3	3	3	3	3	8	7	0	0	0	0	8	7	0	0	0	0	0		1	0	0	0	0	0	0	0
012813	12:02:04	10025	Trial	CongruentLeft	14	203	162	1	122	12:02:04	3160063	5	3	3	3	3	3	3	3	3	8	7	0	0	0	0	8	7	0	0	0	0	0		1	0	0	0	0	0	0	0
012813	12:02:04	10025	Trial	ResponseIL	14	0	175	0	122	12:02:04	3161583	5	3	3	3	3	3	3	3	3	8	7	0	0	0	0	8	7	0	0	0	0	0		1	0	0	0	0	0	0	0
012813	12:02:04	10025	Trial	IncongruentLeft	14	205	151	0	122	12:02:04	3161756	5	3	3	3	3	3	3	3	3	8	7	0	0	0	0	8	7	0	0	0	0	0		1	0	0	0	0	0	0	0
012813	12:02:04	10025	Trial	ResponseIL	14	0	175	0	122	12:02:04	3163289	5	3	3	3	3	3	3	3	3	8	7	0	0	0	0	8	7	0	0	0	0	0		1	0	0	0	0	0	0	0
012813	12:02:04	10025	Trial	IncongruentLeft	14	203	301	1	122	12:02:04	3163609	5	3	3	3	3	3	3	3	3	8	7	0	0	0	0	8	7	0	0	0	0	0		1	0	0	0	0	0	0	0
012813	12:02:04	10025	Trial	ResponseCR	14	0	175	0	122	12:02:04	3164995	5	3	3	3	3	3	3	3	3	8	7	0	0	0	0	8	7	0	0	0	0	0		1	0	0	0	0	0	0	0
012813	12:02:04	10025	Trial	CongruentRight	14	205	355	1	122	12:02:04	3165368	5	3	3	3	3	3	3	3	3	8	7	0	0	0	0	8	7	0	0	0	0	0		1	0	0	0	0	0	0	0
012813	12:02:04	10025	Trial	ResponseIR	14	0	175	0	122	12:02:04	3166701	5	3	3	3	3	3	3	3	3	8	7	0	0	0	0	8	7	0	0	0	0	0		1	0	0	0	0	0	0	0
012813	12:02:04	10025	Trial	IncongruentRight	14	205	345	1	122	12:02:04	3167074	5	3	3	3	3	3	3	3	3	8	7	0	0	0	0	8	7	0	0	0	0	0		1	0	0	0	0	0	0	0
012813	12:02:04	10025	Trial	ResponseCL	14	0	175	0	122	12:02:04	3168407	5	3	3	3	3	3	3	3	3	8	7	0	0	0	0	8	7	0	0	0	0	0		1	0	0	0	0	0	0	0
012813	12:02:04	10025	Trial	CongruentLeft	14	203	175	1	122	12:02:04	3168606	5	3	3	3	3	3	3	3	3	8	7	0	0	0	0	8	7	0	0	0	0	0		1	0	0	0	0	0	0	0
012813	12:02:04	10025	Trial	ResponseCR	14	0	175	0	122	12:02:04	3170113	5	3	3	3	3	3	3	3	3	8	7	0	0	0	0	8	7	0	0	0	0	0		1	0	0	0	0	0	0	0
012813	12:02:04	10025	Trial	CongruentRight	14	205	181	1	122	12:02:04	3170313	5	3	3	3	3	3	3	3	3	8	7	0	0	0	0	8	7	0	0	0	0	0		1	0	0	0	0	0	0	0
012813	12:02:04	10025	Trial	ResponseIL	14	0	175	0	122	12:02:04	3171819	5	3	3	3	3	3	3	3	3	8	7	0	0	0	0	8	7	0	0	0	0	0		1	0	0	0	0	0	0	0
012813	12:02:04	10025	Trial	IncongruentLeft	14	203	331	1	122	12:02:04	3172178	5	3	3	3	3	3	3	3	3	8	7	0	0	0	0	8	7	0	0	0	0	0		1	0	0	0	0	0	0	0
012813	12:02:04	10025	Trial	ResponseIR	14	0	175	0	122	12:02:04	3173524	5	3	3	3	3	3	3	3	3	8	7	0	0	0	0	8	7	0	0	0	0	0		1	0	0	0	0	0	0	0
012813	12:02:04	10025	Trial	IncongruentRight	14	205	273	1	122	12:02:04	3173818	5	3	3	3	3	3	3	3	3	8	7	0	0	0	0	8	7	0	0	0	0	0		1	0	0	0	0	0	0	0
012813	12:02:04	10025	Trial	ResponseCR	14	0	175	0	122	12:02:04	3175230	5	3	3	3	3	3	3	3	3	8	7	0	0	0	0	8	7	0	0	0	0	0		1	0	0	0	0	0	0	0
012813	12:02:04	10025	Trial	CongruentRight	14	205	199	1	122	12:02:04	3175457	5	3	3	3	3	3	3	3	3	8	7	0	0	0	0	8	7	0	0	0	0	0		1	0	0	0	0	0	0	0
012813	12:02:04	10025	Trial	ResponseCL	14	0	175	0	122	12:02:04	3176936	5	3	3	3	3	3	3	3	3	8	7	0	0	0	0	8	7	0	0	0	0	0		1	0	0	0	0	0	0	0
012813	12:02:04	10025	Trial	CongruentLeft	14	203	189	1	122	12:02:04	3177150	5	3	3	3	3	3	3	3	3	8	7	0	0	0	0	8	7	0	0	0	0	0		1	0	0	0	0	0	0	0
012813	12:02:04	10025	Trial	ResponseCR	14	0	175	0	122	12:02:04	3178642	5	3	3	3	3	3	3	3	3	8	7	0	0	0	0	8	7	0	0	0	0	0		1	0	0	0	0	0	0	0
012813	12:02:04	10025	Trial	CongruentRight	14	205	179	1	122	12:02:04	3178842	5	3	3	3	3	3	3	3	3	8	7	0	0	0	0	8	7	0	0	0	0	0		1	0	0	0	0	0	0	0
012813	12:02:04	10025	Trial	ResponseIR	14	0	175	0	122	12:02:04	3180348	5	3	3	3	3	3	3	3	3	8	7	0	0	0	0	8	7	0	0	0	0	0		1	0	0	0	0	0	0	0
012813	12:02:04	10025	Trial	IncongruentRight	14	205	297	1	122	12:02:04	3180668	5	3	3	3	3	3	3	3	3	8	7	0	0	0	0	8	7	0	0	0	0	0		1	0	0	0	0	0	0	0
012813	12:02:04	10025	Trial	ResponseIL	14	0	175	0	122	12:02:04	3182054	5	3	3	3	3	3	3	3	3	8	7	0	0	0	0	8	7	0	0	0	0	0		1	0	0	0	0	0	0	0
012813	12:02:04	10025	Trial	IncongruentLeft	14	203	303	1	122	12:02:04	3182374	5	3	3	3	3	3	3	3	3	8	7	0	0	0	0	8	7	0	0	0	0	0		1	0	0	0	0	0	0	0
012813	12:02:04	10025	Trial	ResponseIL	14	0	175	0	122	12:02:04	3183760	5	3	3	3	3	3	3	3	3	8	7	0	0	0	0	8	7	0	0	0	0	0		1	0	0	0	0	0	0	0
012813	12:02:04	10025	Trial	IncongruentLeft	14	203	405	1	122	12:02:04	3184187	5	3	3	3	3	3	3	3	3	8	7	0	0	0	0	8	7	0	0	0	0	0		1	0	0	0	0	0	0	0
012813	12:02:04	10025	Trial	ResponseCL	14	0	175	0	122	12:02:04	3185466	5	3	3	3	3	3	3	3	3	8	7	0	0	0	0	8	7	0	0	0	0	0		1	0	0	0	0	0	0	0
012813	12:02:04	10025	Trial	CongruentLeft	14	203	187	1	122	12:02:04	3185679	5	3	3	3	3	3	3	3	3	8	7	0	0	0	0	8	7	0	0	0	0	0		1	0	0	0	0	0	0	0
012813	12:02:04	10025	Trial	ResponseCR	14	0	175	0	122	12:02:04	3187172	5	3	3	3	3	3	3	3	3	8	7	0	0	0	0	8	7	0	0	0	0	0		1	0	0	0	0	0	0	0
012813	12:02:04	10025	Trial	CongruentRight	14	205	241	1	122	12:02:04	3187439	5	3	3	3	3	3	3	3	3	8	7	0	0	0	0	8	7	0	0	0	0	0		1	0	0	0	0	0	0	0
012813	12:02:04	10025	Trial	ResponseIL	14	0	175	0	122	12:02:04	3188878	5	3	3	3	3	3	3	3	3	8	7	0	0	0	0	8	7	0	0	0	0	0		1	0	0	0	0	0	0	0
012813	12:02:04	10025	Trial	IncongruentLeft	14	203	247	1	122	12:02:04	3189145	5	3	3	3	3	3	3	3	3	8	7	0	0	0	0	8	7	0	0	0	0	0		1	0	0	0	0	0	0	0
012813	12:02:04	10025	Trial	ResponseIR	14	0	175	0	122	12:02:04	3190584	5	3	3	3	3	3	3	3	3	8	7	0	0	0	0	8	7	0	0	0	0	0		1	0	0	0	0	0	0	0
012813	12:02:04	10025	Trial	IncongruentRight	14	205	269	1	122	12:02:04	3190877	5	3	3	3	3	3	3	3	3	8	7	0	0	0	0	8	7	0	0	0	0	0		1	0	0	0	0	0	0	0
012813	12:02:04	10025	Trial	ResponseCR	14	0	175	0	122	12:02:04	3192290	5	3	3	3	3	3	3	3	3	8	7	0	0	0	0	8	7	0	0	0	0	0		1	0	0	0	0	0	0	0
012813	12:02:04	10025	Trial	CongruentRight	14	205	243	1	122	12:02:04	3192556	5	3	3	3	3	3	3	3	3	8	7	0	0	0	0	8	7	0	0	0	0	0		1	0	0	0	0	0	0	0
012813	12:02:04	10025	Trial	ResponseCL	14	0	175	0	122	12:02:04	3193996	5	3	3	3	3	3	3	3	3	8	7	0	0	0	0	8	7	0	0	0	0	0		1	0	0	0	0	0	0	0
012813	12:02:04	10025	Trial	CongruentLeft	14	203	185	1	122	12:02:04	3194209	5	3	3	3	3	3	3	3	3	8	7	0	0	0	0	8	7	0	0	0	0	0		1	0	0	0	0	0	0	0
012813	12:02:04	10025	Trial	ResponseIR	14	0	175	0	122	12:02:04	3195702	5	3	3	3	3	3	3	3	3	8	7	0	0	0	0	8	7	0	0	0	0	0		1	0	0	0	0	0	0	0
012813	12:02:04	10025	Trial	IncongruentRight	14	205	287	1	122	12:02:04	3196009	5	3	3	3	3	3	3	3	3	8	7	0	0	0	0	8	7	0	0	0	0	0		1	0	0	0	0	0	0	0
012813	12:02:04	10025	Trial	ResponseIL	14	0	175	0	122	12:02:04	3197408	5	3	3	3	3	3	3	3	3	8	7	0	0	0	0	8	7	0	0	0	0	0		1	0	0	0	0	0	0	0
012813	12:02:04	10025	Trial	IncongruentLeft	14	203	325	1	122	12:02:04	3197754	5	3	3	3	3	3	3	3	3	8	7	0	0	0	0	8	7	0	0	0	0	0		1	0	0	0	0	0	0	0
012813	12:02:04	10025	Trial	ResponseIR	14	0	175	0	122	12:02:04	3199114	5	3	3	3	3	3	3	3	3	8	7	0	0	0	0	8	7	0	0	0	0	0		1	0	0	0	0	0	0	0
012813	12:02:04	10025	Trial	IncongruentRight	14	205	283	1	122	12:02:04	3199420	5	3	3	3	3	3	3	3	3	8	7	0	0	0	0	8	7	0	0	0	0	0		1	0	0	0	0	0	0	0
012813	12:02:04	10025	Trial	ResponseCR	14	0	175	0	122	12:02:04	3200820	5	3	3	3	3	3	3	3	3	8	7	0	0	0	0	8	7	0	0	0	0	0		1	0	0	0	0	0	0	0
012813	12:02:04	10025	Trial	CongruentRight	14	205	257	1	122	12:02:04	3201100	5	3	3	3	3	3	3	3	3	8	7	0	0	0	0	8	7	0	0	0	0	0		1	0	0	0	0	0	0	0
012813	12:02:04	10025	Trial	ResponseIL	14	0	175	0	122	12:02:04	3202526	5	3	3	3	3	3	3	3	3	8	7	0	0	0	0	8	7	0	0	0	0	0		1	0	0	0	0	0	0	0
012813	12:02:04	10025	Trial	IncongruentLeft	14	203	231	1	122	12:02:04	3202779	5	3	3	3	3	3	3	3	3	8	7	0	0	0	0	8	7	0	0	0	0	0		1	0	0	0	0	0	0	0
012813	12:02:04	10025	Trial	ResponseCL	14	0	175	0	122	12:02:04	3204232	5	3	3	3	3	3	3	3	3	8	7	0	0	0	0	8	7	0	0	0	0	0		1	0	0	0	0	0	0	0
012813	12:02:04	10025	Trial	CongruentLeft	14	203	237	1	122	12:02:04	3204485	5	3	3	3	3	3	3	3	3	8	7	0	0	0	0	8	7	0	0	0	0	0		1	0	0	0	0	0	0	0
012813	12:02:04	10025	Trial	ResponseCR	14	0	175	0	122	12:02:04	3205938	5	3	3	3	3	3	3	3	3	8	7	0	0	0	0	8	7	0	0	0	0	0		1	0	0	0	0	0	0	0
012813	12:02:04	10025	Trial	CongruentRight	14	205	147	1	122	12:02:04	3206111	5	3	3	3	3	3	3	3	3	8	7	0	0	0	0	8	7	0	0	0	0	0		1	0	0	0	0	0	0	0
012813	12:02:04	10025	Trial	ResponseIL	14	0	175	0	122	12:02:04	3207644	5	3	3	3	3	3	3	3	3	8	7	0	0	0	0	8	7	0	0	0	0	0		1	0	0	0	0	0	0	0
012813	12:02:04	10025	Trial	IncongruentLeft	14	203	265	1	122	12:02:04	3207937	5	3	3	3	3	3	3	3	3	8	7	0	0	0	0	8	7	0	0	0	0	0		1	0	0	0	0	0	0	0
012813	12:02:04	10025	Trial	ResponseIR	14	0	175	0	122	12:02:04	3209350	5	3	3	3	3	3	3	3	3	8	7	0	0	0	0	8	7	0	0	0	0	0		1	0	0	0	0	0	0	0
012813	12:02:04	10025	Trial	IncongruentRight	14	205	303	1	122	12:02:04	3209670	5	3	3	3	3	3	3	3	3	8	7	0	0	0	0	8	7	0	0	0	0	0		1	0	0	0	0	0	0	0
012813	12:02:04	10025	Trial	ResponseIR	14	0	175	0	122	12:02:04	3211056	5	3	3	3	3	3	3	3	3	8	7	0	0	0	0	8	7	0	0	0	0	0		1	0	0	0	0	0	0	0
012813	12:02:04	10025	Trial	IncongruentRight	14	205	341	1	122	12:02:04	3211415	5	3	3	3	3	3	3	3	3	8	7	0	0	0	0	8	7	0	0	0	0	0		1	0	0	0	0	0	0	0
012813	12:02:04	10025	Trial	ResponseCL	14	0	175	0	122	12:02:04	3212762	5	3	3	3	3	3	3	3	3	8	7	0	0	0	0	8	7	0	0	0	0	0		1	0	0	0	0	0	0	0
012813	12:02:04	10025	Trial	CongruentLeft	14	203	171	1	122	12:02:04	3212962	5	3	3	3	3	3	3	3	3	8	7	0	0	0	0	8	7	0	0	0	0	0		1	0	0	0	0	0	0	0
012813	12:02:04	10025	Trial	ResponseIL	14	0	175	0	122	12:02:04	3214468	5	3	3	3	3	3	3	3	3	8	7	0	0	0	0	8	7	0	0	0	0	0		1	0	0	0	0	0	0	0
012813	12:02:04	10025	Trial	IncongruentLeft	14	203	353	1	122	12:02:04	3214841	5	3	3	3	3	3	3	3	3	8	7	0	0	0	0	8	7	0	0	0	0	0		1	0	0	0	0	0	0	0
012813	12:02:04	10025	Trial	ResponseCR	14	0	175	0	122	12:02:04	3216174	5	3	3	3	3	3	3	3	3	8	7	0	0	0	0	8	7	0	0	0	0	0		1	0	0	0	0	0	0	0
012813	12:02:04	10025	Trial	CongruentRight	14	205	247	1	122	12:02:04	3216440	5	3	3	3	3	3	3	3	3	8	7	0	0	0	0	8	7	0	0	0	0	0		1	0	0	0	0	0	0	0
012813	12:02:04	10025	Trial	ResponseCL	14	0	175	0	122	12:02:04	3217880	5	3	3	3	3	3	3	3	3	8	7	0	0	0	0	8	7	0	0	0	0	0		1	0	0	0	0	0	0	0
012813	12:02:04	10025	Trial	CongruentLeft	14	203	188	1	122	12:02:04	3218093	5	3	3	3	3	3	3	3	3	8	7	0	0	0	0	8	7	0	0	0	0	0		1	0	0	0	0	0	0	0
012813	12:02:04	10025	Trial	ResponseIR	14	0	175	0	122	12:02:04	3219585	5	3	3	3	3	3	3	3	3	8	7	0	0	0	0	8	7	0	0	0	0	0		1	0	0	0	0	0	0	0
012813	12:02:04	10025	Trial	IncongruentRight	14	205	338	1	122	12:02:04	3219945	5	3	3	3	3	3	3	3	3	8	7	0	0	0	0	8	7	0	0	0	0	0		1	0	0	0	0	0	0	0
012813	12:02:04	10025	Trial	ResponseCR	14	0	175	0	122	12:02:04	3221291	5	3	3	3	3	3	3	3	3	8	7	0	0	0	0	8	7	0	0	0	0	0		1	0	0	0	0	0	0	0
012813	12:02:04	10025	Trial	CongruentRight	14	205	185	1	122	12:02:04	3221505	5	3	3	3	3	3	3	3	3	8	7	0	0	0	0	8	7	0	0	0	0	0		1	0	0	0	0	0	0	0
012813	12:02:04	10025	Trial	ResponseIL	14	0	175	0	122	12:02:04	3222997	5	3	3	3	3	3	3	3	3	8	7	0	0	0	0	8	7	0	0	0	0	0		1	0	0	0	0	0	0	0
012813	12:02:04	10025	Trial	IncongruentLeft	14	203	319	1	122	12:02:04	3223344	5	3	3	3	3	3	3	3	3	8	7	0	0	0	0	8	7	0	0	0	0	0		1	0	0	0	0	0	0	0
012813	12:02:04	10025	Trial	ResponseCL	14	0	175	0	122	12:02:04	3224703	5	3	3	3	3	3	3	3	3	8	7	0	0	0	0	8	7	0	0	0	0	0		1	0	0	0	0	0	0	0
012813	12:02:04	10025	Trial	CongruentLeft	14	203	229	1	122	12:02:04	3224957	5	3	3	3	3	3	3	3	3	8	7	0	0	0	0	8	7	0	0	0	0	0		1	0	0	0	0	0	0	0
012813	12:02:04	10025	Trial	ResponseIL	14	0	175	0	122	12:02:04	3226409	5	3	3	3	3	3	3	3	3	8	7	0	0	0	0	8	7	0	0	0	0	0		1	0	0	0	0	0	0	0
012813	12:02:04	10025	Trial	IncongruentLeft	14	203	315	1	122	12:02:04	3226742	5	3	3	3	3	3	3	3	3	8	7	0	0	0	0	8	7	0	0	0	0	0		1	0	0	0	0	0	0	0
012813	12:02:04	10025	Trial	ResponseIR	14	0	175	0	122	12:02:04	3228115	5	3	3	3	3	3	3	3	3	8	7	0	0	0	0	8	7	0	0	0	0	0		1	0	0	0	0	0	0	0
012813	12:02:04	10025	Trial	IncongruentRight	14	205	336	1	122	12:02:04	3228475	5	3	3	3	3	3	3	3	3	8	7	0	0	0	0	8	7	0	0	0	0	0		1	0	0	0	0	0	0	0
012813	12:02:04	10025	Trial	ResponseCR	14	0	175	0	122	12:02:04	3229821	5	3	3	3	3	3	3	3	3	8	7	0	0	0	0	8	7	0	0	0	0	0		1	0	0	0	0	0	0	0
012813	12:02:04	10025	Trial	CongruentRight	14	205	279	1	122	12:02:04	3230128	5	3	3	3	3	3	3	3	3	8	7	0	0	0	0	8	7	0	0	0	0	0		1	0	0	0	0	0	0	0
012813	12:02:04	10025	Trial	ResponseCL	14	0	175	0	122	12:02:04	3231527	5	3	3	3	3	3	3	3	3	8	7	0	0	0	0	8	7	0	0	0	0	0		1	0	0	0	0	0	0	0
012813	12:02:04	10025	Trial	CongruentLeft	14	203	189	1	122	12:02:04	3231740	5	3	3	3	3	3	3	3	3	8	7	0	0	0	0	8	7	0	0	0	0	0		1	0	0	0	0	0	0	0
012813	12:02:04	10025	Trial	ResponseCL	14	0	175	0	122	12:02:04	3233233	5	3	3	3	3	3	3	3	3	8	7	0	0	0	0	8	7	0	0	0	0	0		1	0	0	0	0	0	0	0
012813	12:02:04	10025	Trial	CongruentLeft	14	203	227	1	122	12:02:04	3233486	5	3	3	3	3	3	3	3	3	8	7	0	0	0	0	8	7	0	0	0	0	0		1	0	0	0	0	0	0	0
012813	12:02:04	10025	Trial	ResponseIR	14	0	175	0	122	12:02:04	3234939	5	3	3	3	3	3	3	3	3	8	7	0	0	0	0	8	7	0	0	0	0	0		1	0	0	0	0	0	0	0
012813	12:02:04	10025	Trial	IncongruentRight	14	205	297	1	122	12:02:04	3235259	5	3	3	3	3	3	3	3	3	8	7	0	0	0	0	8	7	0	0	0	0	0		1	0	0	0	0	0	0	0
012813	12:02:04	10025	Trial	ResponseIL	14	0	175	0	122	12:02:04	3236645	5	3	3	3	3	3	3	3	3	8	7	0	0	0	0	8	7	0	0	0	0	0		1	0	0	0	0	0	0	0
012813	12:02:04	10025	Trial	IncongruentLeft	14	203	223	1	122	12:02:04	3236885	5	3	3	3	3	3	3	3	3	8	7	0	0	0	0	8	7	0	0	0	0	0		1	0	0	0	0	0	0	0
012813	12:02:04	10025	Trial	ResponseIR	14	0	175	0	122	12:02:04	3238351	5	3	3	3	3	3	3	3	3	8	7	0	0	0	0	8	7	0	0	0	0	0		1	0	0	0	0	0	0	0
012813	12:02:04	10025	Trial	IncongruentRight	14	205	357	1	122	12:02:04	3238724	5	3	3	3	3	3	3	3	3	8	7	0	0	0	0	8	7	0	0	0	0	0		1	0	0	0	0	0	0	0
012813	12:02:04	10025	Trial	ResponseCR	14	0	175	0	122	12:02:04	3240057	5	3	3	3	3	3	3	3	3	8	7	0	0	0	0	8	7	0	0	0	0	0		1	0	0	0	0	0	0	0
012813	12:02:04	10025	Trial	CongruentRight	14	205	235	1	122	12:02:04	3240310	5	3	3	3	3	3	3	3	3	8	7	0	0	0	0	8	7	0	0	0	0	0		1	0	0	0	0	0	0	0
012813	12:02:04	10025	Trial	ResponseCR	14	0	175	0	122	12:02:04	3241763	5	3	3	3	3	3	3	3	3	8	7	0	0	0	0	8	7	0	0	0	0	0		1	0	0	0	0	0	0	0
012813	12:02:04	10025	Trial	CongruentRight	14	205	192	1	122	12:02:04	3241976	5	3	3	3	3	3	3	3	3	8	7	0	0	0	0	8	7	0	0	0	0	0		1	0	0	0	0	0	0	0
012813	12:02:04	10025	Trial	ResponseIL	14	0	175	0	122	12:02:04	3243469	5	3	3	3	3	3	3	3	3	8	7	0	0	0	0	8	7	0	0	0	0	0		1	0	0	0	0	0	0	0
012813	12:02:04	10025	Trial	IncongruentLeft	14	203	183	1	122	12:02:04	3243669	5	3	3	3	3	3	3	3	3	8	7	0	0	0	0	8	7	0	0	0	0	0		1	0	0	0	0	0	0	0
012813	12:02:04	10025	Trial	ResponseCL	14	0	175	0	122	12:02:04	3245175	5	3	3	3	3	3	3	3	3	8	7	0	0	0	0	8	7	0	0	0	0	0		1	0	0	0	0	0	0	0
012813	12:02:04	10025	Trial	CongruentLeft	14	203	205	1	122	12:02:04	3245401	5	3	3	3	3	3	3	3	3	8	7	0	0	0	0	8	7	0	0	0	0	0		1	0	0	0	0	0	0	0
012813	12:02:04	10025	Trial	ResponseCR	14	0	175	0	122	12:02:04	3246881	5	3	3	3	3	3	3	3	3	8	7	0	0	0	0	8	7	0	0	0	0	0		1	0	0	0	0	0	0	0
012813	12:02:04	10025	Trial	CongruentRight	14	205	131	1	122	12:02:04	3247027	5	3	3	3	3	3	3	3	3	8	7	0	0	0	0	8	7	0	0	0	0	0		1	0	0	0	0	0	0	0
012813	12:02:04	10025	Trial	ResponseCL	14	0	175	0	122	12:02:04	3248587	5	3	3	3	3	3	3	3	3	8	7	0	0	0	0	8	7	0	0	0	0	0		1	0	0	0	0	0	0	0
012813	12:02:04	10025	Trial	CongruentLeft	14	203	105	1	122	12:02:04	3248720	5	3	3	3	3	3	3	3	3	8	7	0	0	0	0	8	7	0	0	0	0	0		1	0	0	0	0	0	0	0
012813	12:02:04	10025	Trial	ResponseIR	14	0	175	0	122	12:02:04	3250293	5	3	3	3	3	3	3	3	3	8	7	0	0	0	0	8	7	0	0	0	0	0		1	0	0	0	0	0	0	0
012813	12:02:04	10025	Trial	IncongruentRight	14	205	223	1	122	12:02:04	3250533	5	3	3	3	3	3	3	3	3	8	7	0	0	0	0	8	7	0	0	0	0	0		1	0	0	0	0	0	0	0
012813	12:02:04	10025	Trial	ResponseCR	14	0	175	0	122	12:02:04	3251999	5	3	3	3	3	3	3	3	3	8	7	0	0	0	0	8	7	0	0	0	0	0		1	0	0	0	0	0	0	0
012813	12:02:04	10025	Trial	CongruentRight	14	205	260	1	122	12:02:04	3252279	5	3	3	3	3	3	3	3	3	8	7	0	0	0	0	8	7	0	0	0	0	0		1	0	0	0	0	0	0	0
012813	12:02:04	10025	Trial	ResponseCL	14	0	175	0	122	12:02:04	3253705	5	3	3	3	3	3	3	3	3	8	7	0	0	0	0	8	7	0	0	0	0	0		1	0	0	0	0	0	0	0
012813	12:02:04	10025	Trial	CongruentLeft	14	203	170	1	122	12:02:04	3253891	5	3	3	3	3	3	3	3	3	8	7	0	0	0	0	8	7	0	0	0	0	0		1	0	0	0	0	0	0	0
012813	12:02:04	10025	Trial	ResponseIL	14	0	175	0	122	12:02:04	3255411	5	3	3	3	3	3	3	3	3	8	7	0	0	0	0	8	7	0	0	0	0	0		1	0	0	0	0	0	0	0
012813	12:02:04	10025	Trial	IncongruentLeft	14	203	304	1	122	12:02:04	3255744	5	3	3	3	3	3	3	3	3	8	7	0	0	0	0	8	7	0	0	0	0	0		1	0	0	0	0	0	0	0
012813	12:02:04	10025	Trial	ResponseIL	14	0	175	0	122	12:02:04	3257117	5	3	3	3	3	3	3	3	3	8	7	0	0	0	0	8	7	0	0	0	0	0		1	0	0	0	0	0	0	0
012813	12:02:04	10025	Trial	IncongruentLeft	14	203	262	1	122	12:02:04	3257397	5	3	3	3	3	3	3	3	3	8	7	0	0	0	0	8	7	0	0	0	0	0		1	0	0	0	0	0	0	0
012813	12:02:04	10025	Trial	ResponseCR	14	0	175	0	122	12:02:04	3258823	5	3	3	3	3	3	3	3	3	8	7	0	0	0	0	8	7	0	0	0	0	0		1	0	0	0	0	0	0	0
012813	12:02:04	10025	Trial	CongruentRight	14	205	172	1	122	12:02:04	3259022	5	3	3	3	3	3	3	3	3	8	7	0	0	0	0	8	7	0	0	0	0	0		1	0	0	0	0	0	0	0
012813	12:02:04	10025	Trial	ResponseIR	14	0	175	0	122	12:02:04	3260529	5	3	3	3	3	3	3	3	3	8	7	0	0	0	0	8	7	0	0	0	0	0		1	0	0	0	0	0	0	0
012813	12:02:04	10025	Trial	IncongruentRight	14	205	306	1	122	12:02:04	3260862	5	3	3	3	3	3	3	3	3	8	7	0	0	0	0	8	7	0	0	0	0	0		1	0	0	0	0	0	0	0
012813	12:02:04	10025	Trial	ResponseCL	14	0	175	0	122	12:02:04	3262234	5	3	3	3	3	3	3	3	3	8	7	0	0	0	0	8	7	0	0	0	0	0		1	0	0	0	0	0	0	0
012813	12:02:04	10025	Trial	CongruentLeft	14	203	185	1	122	12:02:04	3262448	5	3	3	3	3	3	3	3	3	8	7	0	0	0	0	8	7	0	0	0	0	0		1	0	0	0	0	0	0	0
012813	12:02:04	10025	Trial	ResponseIR	14	0	175	0	122	12:02:04	3263940	5	3	3	3	3	3	3	3	3	8	7	0	0	0	0	8	7	0	0	0	0	0		1	0	0	0	0	0	0	0
012813	12:02:04	10025	Trial	IncongruentRight	14	205	254	1	122	12:02:04	3264221	5	3	3	3	3	3	3	3	3	8	7	0	0	0	0	8	7	0	0	0	0	0		1	0	0	0	0	0	0	0
012813	12:02:04	10025	Trial	ResponseCR	14	0	175	0	122	12:02:04	3265646	5	3	3	3	3	3	3	3	3	8	7	0	0	0	0	8	7	0	0	0	0	0		1	0	0	0	0	0	0	0
012813	12:02:04	10025	Trial	CongruentRight	14	205	212	1	122	12:02:04	3265886	5	3	3	3	3	3	3	3	3	8	7	0	0	0	0	8	7	0	0	0	0	0		1	0	0	0	0	0	0	0
012813	12:02:04	10025	Trial	ResponseIL	14	0	175	0	122	12:02:04	3267352	5	3	3	3	3	3	3	3	3	8	7	0	0	0	0	8	7	0	0	0	0	0		1	0	0	0	0	0	0	0
012813	12:02:04	10025	Trial	IncongruentLeft	14	203	298	1	122	12:02:04	3267672	5	3	3	3	3	3	3	3	3	8	7	0	0	0	0	8	7	0	0	0	0	0		1	0	0	0	0	0	0	0
012813	12:02:04	10025	Trial	ResponseCL	14	0	175	0	122	12:02:04	3269059	5	3	3	3	3	3	3	3	3	8	7	0	0	0	0	8	7	0	0	0	0	0		1	0	0	0	0	0	0	0
012813	12:02:04	10025	Trial	CongruentLeft	14	203	224	1	122	12:02:04	3269312	5	3	3	3	3	3	3	3	3	8	7	0	0	0	0	8	7	0	0	0	0	0		1	0	0	0	0	0	0	0
012813	12:02:04	10025	Trial	ResponseCR	14	0	175	0	122	12:02:04	3270764	5	3	3	3	3	3	3	3	3	8	7	0	0	0	0	8	7	0	0	0	0	0		1	0	0	0	0	0	0	0
012813	12:02:04	10025	Trial	CongruentRight	14	205	198	1	122	12:02:04	3270991	5	3	3	3	3	3	3	3	3	8	7	0	0	0	0	8	7	0	0	0	0	0		1	0	0	0	0	0	0	0
012813	12:02:04	10025	Trial	ResponseIL	14	0	175	0	122	12:02:04	3272470	5	3	3	3	3	3	3	3	3	8	7	0	0	0	0	8	7	0	0	0	0	0		1	0	0	0	0	0	0	0
012813	12:02:04	10025	Trial	IncongruentLeft	14	203	236	1	122	12:02:04	3272723	5	3	3	3	3	3	3	3	3	8	7	0	0	0	0	8	7	0	0	0	0	0		1	0	0	0	0	0	0	0
012813	12:02:04	10025	Trial	ResponseCR	14	0	175	0	122	12:02:04	3274176	5	3	3	3	3	3	3	3	3	8	7	0	0	0	0	8	7	0	0	0	0	0		1	0	0	0	0	0	0	0
012813	12:02:04	10025	Trial	CongruentRight	14	205	146	1	122	12:02:04	3274350	5	3	3	3	3	3	3	3	3	8	7	0	0	0	0	8	7	0	0	0	0	0		1	0	0	0	0	0	0	0
012813	12:02:04	10025	Trial	ResponseCR	14	0	175	0	122	12:02:04	3275882	5	3	3	3	3	3	3	3	3	8	7	0	0	0	0	8	7	0	0	0	0	0		1	0	0	0	0	0	0	0
012813	12:02:04	10025	Trial	CongruentRight	14	205	200	1	122	12:02:04	3276109	5	3	3	3	3	3	3	3	3	8	7	0	0	0	0	8	7	0	0	0	0	0		1	0	0	0	0	0	0	0
012813	12:02:04	10025	Trial	ResponseIR	14	0	175	0	122	12:02:04	3277588	5	3	3	3	3	3	3	3	3	8	7	0	0	0	0	8	7	0	0	0	0	0		1	0	0	0	0	0	0	0
012813	12:02:04	10025	Trial	IncongruentRight	14	205	350	1	122	12:02:04	3277961	5	3	3	3	3	3	3	3	3	8	7	0	0	0	0	8	7	0	0	0	0	0		1	0	0	0	0	0	0	0
012813	12:02:04	10025	Trial	ResponseCL	14	0	175	0	122	12:02:04	3279294	5	3	3	3	3	3	3	3	3	8	7	0	0	0	0	8	7	0	0	0	0	0		1	0	0	0	0	0	0	0
012813	12:02:04	10025	Trial	CongruentLeft	14	203	164	1	122	12:02:04	3279481	5	3	3	3	3	3	3	3	3	8	7	0	0	0	0	8	7	0	0	0	0	0		1	0	0	0	0	0	0	0
012813	12:02:04	10025	Trial	ResponseIL	14	0	175	0	122	12:02:04	3281000	5	3	3	3	3	3	3	3	3	8	7	0	0	0	0	8	7	0	0	0	0	0		1	0	0	0	0	0	0	0
012813	12:02:04	10025	Trial	IncongruentLeft	14	203	362	1	122	12:02:04	3281387	5	3	3	3	3	3	3	3	3	8	7	0	0	0	0	8	7	0	0	0	0	0		1	0	0	0	0	0	0	0
012813	12:02:04	10025	Trial	ResponseCL	14	0	175	0	122	12:02:04	3282706	5	3	3	3	3	3	3	3	3	8	7	0	0	0	0	8	7	0	0	0	0	0		1	0	0	0	0	0	0	0
012813	12:02:04	10025	Trial	CongruentLeft	14	203	208	1	122	12:02:04	3282933	5	3	3	3	3	3	3	3	3	8	7	0	0	0	0	8	7	0	0	0	0	0		1	0	0	0	0	0	0	0
012813	12:02:04	10025	Trial	ResponseIR	14	0	175	0	122	12:02:04	3284412	5	3	3	3	3	3	3	3	3	8	7	0	0	0	0	8	7	0	0	0	0	0		1	0	0	0	0	0	0	0
012813	12:02:04	10025	Trial	IncongruentRight	14	205	294	1	122	12:02:04	3284732	5	3	3	3	3	3	3	3	3	8	7	0	0	0	0	8	7	0	0	0	0	0		1	0	0	0	0	0	0	0
012813	12:02:04	10025	Trial	ResponseIL	14	0	175	0	122	12:02:04	3286118	5	3	3	3	3	3	3	3	3	8	7	0	0	0	0	8	7	0	0	0	0	0		1	0	0	0	0	0	0	0
012813	12:02:04	10025	Trial	IncongruentLeft	14	203	268	1	122	12:02:04	3286411	5	3	3	3	3	3	3	3	3	8	7	0	0	0	0	8	7	0	0	0	0	0		1	0	0	0	0	0	0	0
012813	12:02:04	10025	Trial	ResponseCR	14	0	175	0	122	12:02:04	3287824	5	3	3	3	3	3	3	3	3	8	7	0	0	0	0	8	7	0	0	0	0	0		1	0	0	0	0	0	0	0
012813	12:02:04	10025	Trial	CongruentRight	14	205	210	1	122	12:02:04	3288050	5	3	3	3	3	3	3	3	3	8	7	0	0	0	0	8	7	0	0	0	0	0		1	0	0	0	0	0	0	0
012813	12:02:04	10025	Trial	ResponseCL	14	0	175	0	122	12:02:04	3289530	5	3	3	3	3	3	3	3	3	8	7	0	0	0	0	8	7	0	0	0	0	0		1	0	0	0	0	0	0	0
012813	12:02:04	10025	Trial	CongruentLeft	14	203	152	1	122	12:02:04	3289703	5	3	3	3	3	3	3	3	3	8	7	0	0	0	0	8	7	0	0	0	0	0		1	0	0	0	0	0	0	0
012813	12:02:04	10025	Trial	ResponseIL	14	0	175	0	122	12:02:04	3291236	5	3	3	3	3	3	3	3	3	8	7	0	0	0	0	8	7	0	0	0	0	0		1	0	0	0	0	0	0	0
012813	12:02:04	10025	Trial	IncongruentLeft	14	203	350	1	122	12:02:04	3291609	5	3	3	3	3	3	3	3	3	8	7	0	0	0	0	8	7	0	0	0	0	0		1	0	0	0	0	0	0	0
012813	12:02:04	10025	Trial	ResponseCL	14	0	175	0	122	12:02:04	3292942	5	3	3	3	3	3	3	3	3	8	7	0	0	0	0	8	7	0	0	0	0	0		1	0	0	0	0	0	0	0
012813	12:02:04	10025	Trial	CongruentLeft	14	203	180	1	122	12:02:04	3293141	5	3	3	3	3	3	3	3	3	8	7	0	0	0	0	8	7	0	0	0	0	0		1	0	0	0	0	0	0	0
012813	12:02:04	10025	Trial	ResponseIR	14	0	175	0	122	12:02:04	3294648	5	3	3	3	3	3	3	3	3	8	7	0	0	0	0	8	7	0	0	0	0	0		1	0	0	0	0	0	0	0
012813	12:02:04	10025	Trial	IncongruentRight	14	205	266	1	122	12:02:04	3294941	5	3	3	3	3	3	3	3	3	8	7	0	0	0	0	8	7	0	0	0	0	0		1	0	0	0	0	0	0	0
012813	12:02:04	10025	Trial	ResponseCR	14	0	175	0	122	12:02:04	3296354	5	3	3	3	3	3	3	3	3	8	7	0	0	0	0	8	7	0	0	0	0	0		1	0	0	0	0	0	0	0
012813	12:02:04	10025	Trial	CongruentRight	14	205	192	1	122	12:02:04	3296567	5	3	3	3	3	3	3	3	3	8	7	0	0	0	0	8	7	0	0	0	0	0		1	0	0	0	0	0	0	0
012813	12:02:04	10025	Trial	ResponseIL	14	0	175	0	122	12:02:04	3298060	5	3	3	3	3	3	3	3	3	8	7	0	0	0	0	8	7	0	0	0	0	0		1	0	0	0	0	0	0	0
012813	12:02:04	10025	Trial	IncongruentLeft	14	203	278	1	122	12:02:04	3298366	5	3	3	3	3	3	3	3	3	8	7	0	0	0	0	8	7	0	0	0	0	0		1	0	0	0	0	0	0	0
012813	12:02:04	10025	Trial	ResponseCL	14	0	175	0	122	12:02:04	3299766	5	3	3	3	3	3	3	3	3	8	7	0	0	0	0	8	7	0	0	0	0	0		1	0	0	0	0	0	0	0
012813	12:02:04	10025	Trial	CongruentLeft	14	203	204	1	122	12:02:04	3299992	5	3	3	3	3	3	3	3	3	8	7	0	0	0	0	8	7	0	0	0	0	0		1	0	0	0	0	0	0	0
012813	12:02:04	10025	Trial	ResponseIR	14	0	175	0	122	12:02:04	3301472	5	3	3	3	3	3	3	3	3	8	7	0	0	0	0	8	7	0	0	0	0	0		1	0	0	0	0	0	0	0
012813	12:02:04	10025	Trial	IncongruentRight	14	205	274	1	122	12:02:04	3301765	5	3	3	3	3	3	3	3	3	8	7	0	0	0	0	8	7	0	0	0	0	0		1	0	0	0	0	0	0	0
012813	12:02:04	10025	Trial	ResponseIL	14	0	175	0	122	12:02:04	3303178	5	3	3	3	3	3	3	3	3	8	7	0	0	0	0	8	7	0	0	0	0	0		1	0	0	0	0	0	0	0
012813	12:02:04	10025	Trial	IncongruentLeft	14	203	264	1	122	12:02:04	3303471	5	3	3	3	3	3	3	3	3	8	7	0	0	0	0	8	7	0	0	0	0	0		1	0	0	0	0	0	0	0
012813	12:02:04	10025	Trial	ResponseCL	14	0	175	0	122	12:02:04	3304884	5	3	3	3	3	3	3	3	3	8	7	0	0	0	0	8	7	0	0	0	0	0		1	0	0	0	0	0	0	0
012813	12:02:04	10025	Trial	CongruentLeft	14	203	142	1	122	12:02:04	3305043	5	3	3	3	3	3	3	3	3	8	7	0	0	0	0	8	7	0	0	0	0	0		1	0	0	0	0	0	0	0
012813	12:02:04	10025	Trial	ResponseIL	14	0	175	0	122	12:02:04	3306589	5	3	3	3	3	3	3	3	3	8	7	0	0	0	0	8	7	0	0	0	0	0		1	0	0	0	0	0	0	0
012813	12:02:04	10025	Trial	IncongruentLeft	14	203	260	1	122	12:02:04	3306869	5	3	3	3	3	3	3	3	3	8	7	0	0	0	0	8	7	0	0	0	0	0		1	0	0	0	0	0	0	0
012813	12:02:04	10025	Trial	ResponseCR	14	0	175	0	122	12:02:04	3308295	5	3	3	3	3	3	3	3	3	8	7	0	0	0	0	8	7	0	0	0	0	0		1	0	0	0	0	0	0	0
012813	12:02:04	10025	Trial	CongruentRight	14	205	250	1	122	12:02:04	3308562	5	3	3	3	3	3	3	3	3	8	7	0	0	0	0	8	7	0	0	0	0	0		1	0	0	0	0	0	0	0
012813	12:02:04	10025	Trial	ResponseCL	14	0	175	0	122	12:02:04	3310001	5	3	3	3	3	3	3	3	3	8	7	0	0	0	0	8	7	0	0	0	0	0		1	0	0	0	0	0	0	0
012813	12:02:04	10025	Trial	CongruentLeft	14	203	176	1	122	12:02:04	3310201	5	3	3	3	3	3	3	3	3	8	7	0	0	0	0	8	7	0	0	0	0	0		1	0	0	0	0	0	0	0
012813	12:02:04	10025	Trial	ResponseIR	14	0	175	0	122	12:02:04	3311707	5	3	3	3	3	3	3	3	3	8	7	0	0	0	0	8	7	0	0	0	0	0		1	0	0	0	0	0	0	0
012813	12:02:04	10025	Trial	IncongruentRight	14	205	310	1	122	12:02:04	3312040	5	3	3	3	3	3	3	3	3	8	7	0	0	0	0	8	7	0	0	0	0	0		1	0	0	0	0	0	0	0
012813	12:02:04	10025	Trial	ResponseCL	14	0	175	0	122	12:02:04	3313413	5	3	3	3	3	3	3	3	3	8	7	0	0	0	0	8	7	0	0	0	0	0		1	0	0	0	0	0	0	0
012813	12:02:04	10025	Trial	CongruentLeft	14	203	156	1	122	12:02:04	3313587	5	3	3	3	3	3	3	3	3	8	7	0	0	0	0	8	7	0	0	0	0	0		1	0	0	0	0	0	0	0
012813	12:02:04	10025	Trial	ResponseCR	14	0	175	0	122	12:02:04	3315119	5	3	3	3	3	3	3	3	3	8	7	0	0	0	0	8	7	0	0	0	0	0		1	0	0	0	0	0	0	0
012813	12:02:04	10025	Trial	CongruentRight	14	205	178	1	122	12:02:04	3315319	5	3	3	3	3	3	3	3	3	8	7	0	0	0	0	8	7	0	0	0	0	0		1	0	0	0	0	0	0	0
012813	12:02:04	10025	Trial	ResponseIL	14	0	175	0	122	12:02:04	3316825	5	3	3	3	3	3	3	3	3	8	7	0	0	0	0	8	7	0	0	0	0	0		1	0	0	0	0	0	0	0
012813	12:02:04	10025	Trial	IncongruentLeft	14	203	152	1	122	12:02:04	3316998	5	3	3	3	3	3	3	3	3	8	7	0	0	0	0	8	7	0	0	0	0	0		1	0	0	0	0	0	0	0
012813	12:02:04	10025	WordsAbsEng6mo	PAbsEng6mo1	16	Abs1	2814	0	122	12:02:04	3348918	5	3	3	3	3	3	3	3	3	8	7	0	0	0	0	8	7	0	0	0	0	0		1	0	0	0	0	0	0	0
012813	12:02:04	10025	WordsAbsEng6mo	AbsEng6mo1	16	Abs1	2643	0	122	12:02:04	3351597	5	3	3	3	3	3	3	3	3	8	7	1	0	0	0	8	7	0	0	0	0	0		1	0	0	0	0	0	0	0
012813	12:02:04	10025	WordsAbsEng6mo	AbsEng6mo2	16	Abs1	16387	0	122	12:02:04	3368018	5	3	3	3	3	3	3	3	3	8	7	2	0	0	0	8	7	0	0	0	0	0		1	0	0	0	0	0	0	0
012813	12:02:04	10025	WordsAbsEng6mo	AbsEng6mo3	16	Abs1	7607	0	122	12:02:04	3375654	5	3	3	3	3	3	3	3	3	8	7	3	0	0	0	8	7	0	0	0	0	0		1	0	0	0	0	0	0	0
012813	12:02:04	10025	Trial2BackEngS	NS	17	0	1000	1	122	12:02:04	3453209	5	3	3	3	3	3	3	3	3	8	7	3	0	0	0	8	7	0	0	0	0	0		1	0	0	0	0	0	0	0
012813	12:02:04	10025	Trial2BackEngS	NS	17	0	1000	1	122	12:02:04	3454715	5	3	3	3	3	3	3	3	3	8	7	3	0	0	0	8	7	0	0	0	0	0		1	0	0	0	0	0	0	0
012813	12:02:04	10025	Trial2BackEngS	NS	17	0	1000	1	122	12:02:04	3456221	5	3	3	3	3	3	3	3	3	8	7	3	0	0	0	8	7	0	0	0	0	0		1	0	0	0	0	0	0	0
012813	12:02:04	10025	Trial2BackEngS	YS	17	57	724	1	122	12:02:04	3457460	5	3	3	3	3	3	3	3	3	8	7	3	0	0	0	8	7	0	0	0	0	0		1	0	0	0	0	0	0	0
012813	12:02:04	10025	Trial2BackEngS	NS	17	0	1000	1	122	12:02:04	3459233	5	3	3	3	3	3	3	3	3	8	7	3	0	0	0	8	7	0	0	0	0	0		1	0	0	0	0	0	0	0
012813	12:02:04	10025	Trial2BackEngS	NS	17	0	1000	1	122	12:02:04	3460752	5	3	3	3	3	3	3	3	3	8	7	3	0	0	0	8	7	0	0	0	0	0		1	0	0	0	0	0	0	0
012813	12:02:04	10025	Trial2BackEngS	NS	17	0	1000	1	122	12:02:04	3462258	5	3	3	3	3	3	3	3	3	8	7	3	0	0	0	8	7	0	0	0	0	0		1	0	0	0	0	0	0	0
012813	12:02:04	10025	Trial2BackEngS	NS	17	0	1000	1	122	12:02:04	3463764	5	3	3	3	3	3	3	3	3	8	7	3	0	0	0	8	7	0	0	0	0	0		1	0	0	0	0	0	0	0
012813	12:02:04	10025	Trial2BackEngS	YS	17	57	588	1	122	12:02:04	3464871	5	3	3	3	3	3	3	3	3	8	7	3	0	0	0	8	7	0	0	0	0	0		1	0	0	0	0	0	0	0
