date	time	subject	blockcode	trialcode	values.TaskNumber	response	latency	correct	values.Score	script.starttime	script.elapsedtime	values.ScoreS7	values.Word1	values.Word2	values.Word3	values.Word4	values.Word5	values.Word6	values.Word7	values.Word8	values.DigitSpanFwrd	values.DigitSpanBack	values.ScoreAbs	values.Contour	values.Numbers	values.Hands	values.corsiblockspanFwrd	values.corsiblockspanRev	values.problemnumber	values.subjectattempts	values.targetmoves	values.subjectmoves	expressions.excessmoves	values.movestring	expressions.targetachieved	values.problemscore	values.totalscoreTOL	expressions.firstmovetime	expressions.executiontime	expressions.solutiontime	values.t_choicestart	values.t_choiceend
012513	08:06:30	10032	Language	Language	0	French	963	0	0	08:06:30	1087	0	0	0	0	0	0	0	0	0	0	0	0	0	0	0	0	0	0	0	0	0	0		1	0	0	0	0	0	0	0
012513	08:06:30	10032	Session	Session	0	6mo	532	0	0	08:06:30	1700	0	0	0	0	0	0	0	0	0	0	0	0	0	0	0	0	0	0	0	0	0	0		1	0	0	0	0	0	0	0
012513	08:06:30	10032	HandFr	HandFr	0	RightFr	390802	0	0	08:06:30	392569	0	0	0	0	0	0	0	0	0	0	0	0	0	0	0	0	0	0	0	0	0	0		1	0	0	0	0	0	0	0
012513	08:06:30	10032	AudioCheckFr	WordsFr	0	0	0	0	0	08:06:30	1261657	0	0	0	0	0	0	0	0	0	0	0	0	0	0	0	0	0	0	0	0	0	0		1	0	0	0	0	0	0	0
012513	08:06:30	10032	CubeFr	CubeFr	1	1Cube	35772	0	0	08:06:30	1299507	0	0	0	0	0	0	0	0	0	0	0	0	0	0	0	0	0	0	0	0	0	0		1	0	0	0	0	0	0	0
012513	08:06:30	10032	pm.simpleFrRight	blank.simpleFr	2	0	2200	1	0	08:06:30	1317273	0	0	0	0	0	0	0	0	0	0	0	0	0	0	0	0	0	0	0	0	0	0		1	0	0	0	0	0	0	0
012513	08:06:30	10032	pm.simpleFrRight	pm.simpleFr	2	57	636	0	0	08:06:30	1317926	0	0	0	0	0	0	0	0	0	0	0	0	0	0	0	0	0	0	0	0	0	0		1	0	0	0	0	0	0	0
012513	08:06:30	10032	pm.simpleFrRight	blank.simpleFr	2	0	2500	1	0	08:06:30	1320445	0	0	0	0	0	0	0	0	0	0	0	0	0	0	0	0	0	0	0	0	0	0		1	0	0	0	0	0	0	0
012513	08:06:30	10032	pm.simpleFrRight	pm.simpleFr	2	57	488	0	0	08:06:30	1320952	0	0	0	0	0	0	0	0	0	0	0	0	0	0	0	0	0	0	0	0	0	0		1	0	0	0	0	0	0	0
012513	08:06:30	10032	pm.simpleFrRight	blank.simpleFr	2	0	1600	1	0	08:06:30	1322564	0	0	0	0	0	0	0	0	0	0	0	0	0	0	0	0	0	0	0	0	0	0		1	0	0	0	0	0	0	0
012513	08:06:30	10032	pm.simpleFrRight	pm.simpleFr	2	57	641	0	0	08:06:30	1323231	0	0	0	0	0	0	0	0	0	0	0	0	0	0	0	0	0	0	0	0	0	0		1	0	0	0	0	0	0	0
012513	08:06:30	10032	pm.simpleFrRight	blank.simpleFr	2	0	1700	1	0	08:06:30	1324950	0	0	0	0	0	0	0	0	0	0	0	0	0	0	0	0	0	0	0	0	0	0		1	0	0	0	0	0	0	0
012513	08:06:30	10032	pm.simpleFrRight	pm.simpleFr	2	57	527	0	0	08:06:30	1325497	0	0	0	0	0	0	0	0	0	0	0	0	0	0	0	0	0	0	0	0	0	0		1	0	0	0	0	0	0	0
012513	08:06:30	10032	pm.simpleFrRight	blank.simpleFr	2	0	2300	1	0	08:06:30	1327816	0	0	0	0	0	0	0	0	0	0	0	0	0	0	0	0	0	0	0	0	0	0		1	0	0	0	0	0	0	0
012513	08:06:30	10032	pm.simpleFrRight	pm.simpleFr	2	57	480	0	0	08:06:30	1328322	0	0	0	0	0	0	0	0	0	0	0	0	0	0	0	0	0	0	0	0	0	0		1	0	0	0	0	0	0	0
012513	08:06:30	10032	pm.simpleFrRight	blank.simpleFr	2	0	1900	1	0	08:06:30	1330241	0	0	0	0	0	0	0	0	0	0	0	0	0	0	0	0	0	0	0	0	0	0		1	0	0	0	0	0	0	0
012513	08:06:30	10032	pm.simpleFrRight	pm.simpleFr	2	57	516	0	0	08:06:30	1330774	0	0	0	0	0	0	0	0	0	0	0	0	0	0	0	0	0	0	0	0	0	0		1	0	0	0	0	0	0	0
012513	08:06:30	10032	pm.simpleFrRight	blank.simpleFr	2	0	1500	1	0	08:06:30	1332294	0	0	0	0	0	0	0	0	0	0	0	0	0	0	0	0	0	0	0	0	0	0		1	0	0	0	0	0	0	0
012513	08:06:30	10032	pm.simpleFrRight	pm.simpleFr	2	57	560	0	0	08:06:30	1332880	0	0	0	0	0	0	0	0	0	0	0	0	0	0	0	0	0	0	0	0	0	0		1	0	0	0	0	0	0	0
012513	08:06:30	10032	pm.simpleFrRight	blank.simpleFr	2	0	2000	1	0	08:06:30	1334893	0	0	0	0	0	0	0	0	0	0	0	0	0	0	0	0	0	0	0	0	0	0		1	0	0	0	0	0	0	0
012513	08:06:30	10032	pm.simpleFrRight	pm.simpleFr	2	57	568	0	0	08:06:30	1335479	0	0	0	0	0	0	0	0	0	0	0	0	0	0	0	0	0	0	0	0	0	0		1	0	0	0	0	0	0	0
012513	08:06:30	10032	pm.simpleFrRight	blank.simpleFr	2	0	1800	1	0	08:06:30	1337292	0	0	0	0	0	0	0	0	0	0	0	0	0	0	0	0	0	0	0	0	0	0		1	0	0	0	0	0	0	0
012513	08:06:30	10032	pm.simpleFrRight	pm.simpleFr	2	57	409	0	0	08:06:30	1337718	0	0	0	0	0	0	0	0	0	0	0	0	0	0	0	0	0	0	0	0	0	0		1	0	0	0	0	0	0	0
012513	08:06:30	10032	pm.simpleFrRight	blank.simpleFr	2	0	2100	1	0	08:06:30	1339837	0	0	0	0	0	0	0	0	0	0	0	0	0	0	0	0	0	0	0	0	0	0		1	0	0	0	0	0	0	0
012513	08:06:30	10032	pm.simpleFrRight	pm.simpleFr	2	57	376	0	0	08:06:30	1340237	0	0	0	0	0	0	0	0	0	0	0	0	0	0	0	0	0	0	0	0	0	0		1	0	0	0	0	0	0	0
012513	08:06:30	10032	pm.simpleFrRight	blank.simpleFr	2	0	2400	1	0	08:06:30	1342650	0	0	0	0	0	0	0	0	0	0	0	0	0	0	0	0	0	0	0	0	0	0		1	0	0	0	0	0	0	0
012513	08:06:30	10032	pm.simpleFrRight	pm.simpleFr	2	57	332	0	0	08:06:30	1343009	0	0	0	0	0	0	0	0	0	0	0	0	0	0	0	0	0	0	0	0	0	0		1	0	0	0	0	0	0	0
012513	08:06:30	10032	pm.simpleFrRight	blank.simpleFr	2	0	1600	1	0	08:06:30	1344622	0	0	0	0	0	0	0	0	0	0	0	0	0	0	0	0	0	0	0	0	0	0		1	0	0	0	0	0	0	0
012513	08:06:30	10032	pm.simpleFrRight	pm.simpleFr	2	57	583	0	0	08:06:30	1345222	0	0	0	0	0	0	0	0	0	0	0	0	0	0	0	0	0	0	0	0	0	0		1	0	0	0	0	0	0	0
012513	08:06:30	10032	pm.simpleFrRight	blank.simpleFr	2	0	2200	1	0	08:06:30	1347436	0	0	0	0	0	0	0	0	0	0	0	0	0	0	0	0	0	0	0	0	0	0		1	0	0	0	0	0	0	0
012513	08:06:30	10032	pm.simpleFrRight	pm.simpleFr	2	57	330	0	0	08:06:30	1347781	0	0	0	0	0	0	0	0	0	0	0	0	0	0	0	0	0	0	0	0	0	0		1	0	0	0	0	0	0	0
012513	08:06:30	10032	pm.simpleFrRight	blank.simpleFr	2	0	2400	1	0	08:06:30	1350193	0	0	0	0	0	0	0	0	0	0	0	0	0	0	0	0	0	0	0	0	0	0		1	0	0	0	0	0	0	0
012513	08:06:30	10032	pm.simpleFrRight	pm.simpleFr	2	57	515	0	0	08:06:30	1350727	0	0	0	0	0	0	0	0	0	0	0	0	0	0	0	0	0	0	0	0	0	0		1	0	0	0	0	0	0	0
012513	08:06:30	10032	pm.simpleFrRight	blank.simpleFr	2	0	1900	1	0	08:06:30	1352646	0	0	0	0	0	0	0	0	0	0	0	0	0	0	0	0	0	0	0	0	0	0		1	0	0	0	0	0	0	0
012513	08:06:30	10032	pm.simpleFrRight	pm.simpleFr	2	57	351	0	0	08:06:30	1353019	0	0	0	0	0	0	0	0	0	0	0	0	0	0	0	0	0	0	0	0	0	0		1	0	0	0	0	0	0	0
012513	08:06:30	10032	pm.simpleFrRight	blank.simpleFr	2	0	1700	1	0	08:06:30	1354738	0	0	0	0	0	0	0	0	0	0	0	0	0	0	0	0	0	0	0	0	0	0		1	0	0	0	0	0	0	0
012513	08:06:30	10032	pm.simpleFrRight	pm.simpleFr	2	57	468	0	0	08:06:30	1355231	0	0	0	0	0	0	0	0	0	0	0	0	0	0	0	0	0	0	0	0	0	0		1	0	0	0	0	0	0	0
012513	08:06:30	10032	pm.simpleFrRight	blank.simpleFr	2	0	2000	1	0	08:06:30	1357244	0	0	0	0	0	0	0	0	0	0	0	0	0	0	0	0	0	0	0	0	0	0		1	0	0	0	0	0	0	0
012513	08:06:30	10032	pm.simpleFrRight	pm.simpleFr	2	57	393	0	0	08:06:30	1357657	0	0	0	0	0	0	0	0	0	0	0	0	0	0	0	0	0	0	0	0	0	0		1	0	0	0	0	0	0	0
012513	08:06:30	10032	pm.simpleFrRight	blank.simpleFr	2	0	1500	1	0	08:06:30	1359176	0	0	0	0	0	0	0	0	0	0	0	0	0	0	0	0	0	0	0	0	0	0		1	0	0	0	0	0	0	0
012513	08:06:30	10032	pm.simpleFrRight	pm.simpleFr	2	57	430	0	0	08:06:30	1359629	0	0	0	0	0	0	0	0	0	0	0	0	0	0	0	0	0	0	0	0	0	0		1	0	0	0	0	0	0	0
012513	08:06:30	10032	pm.simpleFrRight	blank.simpleFr	2	0	1800	1	0	08:06:30	1361442	0	0	0	0	0	0	0	0	0	0	0	0	0	0	0	0	0	0	0	0	0	0		1	0	0	0	0	0	0	0
012513	08:06:30	10032	pm.simpleFrRight	pm.simpleFr	2	57	306	0	0	08:06:30	1361775	0	0	0	0	0	0	0	0	0	0	0	0	0	0	0	0	0	0	0	0	0	0		1	0	0	0	0	0	0	0
012513	08:06:30	10032	pm.simpleFrRight	blank.simpleFr	2	0	2100	1	0	08:06:30	1363894	0	0	0	0	0	0	0	0	0	0	0	0	0	0	0	0	0	0	0	0	0	0		1	0	0	0	0	0	0	0
012513	08:06:30	10032	pm.simpleFrRight	pm.simpleFr	2	57	351	0	0	08:06:30	1364267	0	0	0	0	0	0	0	0	0	0	0	0	0	0	0	0	0	0	0	0	0	0		1	0	0	0	0	0	0	0
012513	08:06:30	10032	pm.simpleFrRight	blank.simpleFr	2	0	2500	1	0	08:06:30	1366786	0	0	0	0	0	0	0	0	0	0	0	0	0	0	0	0	0	0	0	0	0	0		1	0	0	0	0	0	0	0
012513	08:06:30	10032	pm.simpleFrRight	pm.simpleFr	2	57	274	0	0	08:06:30	1367080	0	0	0	0	0	0	0	0	0	0	0	0	0	0	0	0	0	0	0	0	0	0		1	0	0	0	0	0	0	0
012513	08:06:30	10032	pm.simpleFrRight	blank.simpleFr	2	0	2300	1	0	08:06:30	1369399	0	0	0	0	0	0	0	0	0	0	0	0	0	0	0	0	0	0	0	0	0	0		1	0	0	0	0	0	0	0
012513	08:06:30	10032	pm.simpleFrRight	pm.simpleFr	2	57	333	0	0	08:06:30	1369759	0	0	0	0	0	0	0	0	0	0	0	0	0	0	0	0	0	0	0	0	0	0		1	0	0	0	0	0	0	0
012513	08:06:30	10032	pm.simpleFrRight	blank.simpleFr	2	0	2100	1	0	08:06:30	1371878	0	0	0	0	0	0	0	0	0	0	0	0	0	0	0	0	0	0	0	0	0	0		1	0	0	0	0	0	0	0
012513	08:06:30	10032	pm.simpleFrRight	pm.simpleFr	2	57	495	0	0	08:06:30	1372398	0	0	0	0	0	0	0	0	0	0	0	0	0	0	0	0	0	0	0	0	0	0		1	0	0	0	0	0	0	0
012513	08:06:30	10032	pm.simpleFrRight	blank.simpleFr	2	0	2000	1	0	08:06:30	1374410	0	0	0	0	0	0	0	0	0	0	0	0	0	0	0	0	0	0	0	0	0	0		1	0	0	0	0	0	0	0
012513	08:06:30	10032	pm.simpleFrRight	pm.simpleFr	2	57	410	0	0	08:06:30	1374836	0	0	0	0	0	0	0	0	0	0	0	0	0	0	0	0	0	0	0	0	0	0		1	0	0	0	0	0	0	0
012513	08:06:30	10032	pm.simpleFrRight	blank.simpleFr	2	0	2400	1	0	08:06:30	1377249	0	0	0	0	0	0	0	0	0	0	0	0	0	0	0	0	0	0	0	0	0	0		1	0	0	0	0	0	0	0
012513	08:06:30	10032	pm.simpleFrRight	pm.simpleFr	2	57	404	0	0	08:06:30	1377676	0	0	0	0	0	0	0	0	0	0	0	0	0	0	0	0	0	0	0	0	0	0		1	0	0	0	0	0	0	0
012513	08:06:30	10032	pm.simpleFrRight	blank.simpleFr	2	0	1800	1	0	08:06:30	1379488	0	0	0	0	0	0	0	0	0	0	0	0	0	0	0	0	0	0	0	0	0	0		1	0	0	0	0	0	0	0
012513	08:06:30	10032	pm.simpleFrRight	pm.simpleFr	2	57	340	0	0	08:06:30	1379848	0	0	0	0	0	0	0	0	0	0	0	0	0	0	0	0	0	0	0	0	0	0		1	0	0	0	0	0	0	0
012513	08:06:30	10032	pm.simpleFrRight	blank.simpleFr	2	0	2200	1	0	08:06:30	1382060	0	0	0	0	0	0	0	0	0	0	0	0	0	0	0	0	0	0	0	0	0	0		1	0	0	0	0	0	0	0
012513	08:06:30	10032	pm.simpleFrRight	pm.simpleFr	2	57	360	0	0	08:06:30	1382447	0	0	0	0	0	0	0	0	0	0	0	0	0	0	0	0	0	0	0	0	0	0		1	0	0	0	0	0	0	0
012513	08:06:30	10032	pm.simpleFrRight	blank.simpleFr	2	0	2300	1	0	08:06:30	1384766	0	0	0	0	0	0	0	0	0	0	0	0	0	0	0	0	0	0	0	0	0	0		1	0	0	0	0	0	0	0
012513	08:06:30	10032	pm.simpleFrRight	pm.simpleFr	2	57	358	0	0	08:06:30	1385152	0	0	0	0	0	0	0	0	0	0	0	0	0	0	0	0	0	0	0	0	0	0		1	0	0	0	0	0	0	0
012513	08:06:30	10032	pm.simpleFrRight	blank.simpleFr	2	0	1600	1	0	08:06:30	1386765	0	0	0	0	0	0	0	0	0	0	0	0	0	0	0	0	0	0	0	0	0	0		1	0	0	0	0	0	0	0
012513	08:06:30	10032	pm.simpleFrRight	pm.simpleFr	2	57	310	0	0	08:06:30	1387098	0	0	0	0	0	0	0	0	0	0	0	0	0	0	0	0	0	0	0	0	0	0		1	0	0	0	0	0	0	0
012513	08:06:30	10032	pm.simpleFrRight	blank.simpleFr	2	0	2500	1	0	08:06:30	1389617	0	0	0	0	0	0	0	0	0	0	0	0	0	0	0	0	0	0	0	0	0	0		1	0	0	0	0	0	0	0
012513	08:06:30	10032	pm.simpleFrRight	pm.simpleFr	2	57	323	0	0	08:06:30	1389964	0	0	0	0	0	0	0	0	0	0	0	0	0	0	0	0	0	0	0	0	0	0		1	0	0	0	0	0	0	0
012513	08:06:30	10032	pm.simpleFrRight	blank.simpleFr	2	0	1700	1	0	08:06:30	1391683	0	0	0	0	0	0	0	0	0	0	0	0	0	0	0	0	0	0	0	0	0	0		1	0	0	0	0	0	0	0
012513	08:06:30	10032	pm.simpleFrRight	pm.simpleFr	2	57	385	0	0	08:06:30	1392096	0	0	0	0	0	0	0	0	0	0	0	0	0	0	0	0	0	0	0	0	0	0		1	0	0	0	0	0	0	0
012513	08:06:30	10032	pm.simpleFrRight	blank.simpleFr	2	0	1900	1	0	08:06:30	1394015	0	0	0	0	0	0	0	0	0	0	0	0	0	0	0	0	0	0	0	0	0	0		1	0	0	0	0	0	0	0
012513	08:06:30	10032	pm.simpleFrRight	pm.simpleFr	2	57	468	0	0	08:06:30	1394508	0	0	0	0	0	0	0	0	0	0	0	0	0	0	0	0	0	0	0	0	0	0		1	0	0	0	0	0	0	0
012513	08:06:30	10032	pm.simpleFrRight	blank.simpleFr	2	0	1500	1	0	08:06:30	1396028	0	0	0	0	0	0	0	0	0	0	0	0	0	0	0	0	0	0	0	0	0	0		1	0	0	0	0	0	0	0
012513	08:06:30	10032	pm.simpleFrRight	pm.simpleFr	2	57	583	0	0	08:06:30	1396628	0	0	0	0	0	0	0	0	0	0	0	0	0	0	0	0	0	0	0	0	0	0		1	0	0	0	0	0	0	0
012513	08:06:30	10032	pm.simpleFrRight	blank.simpleFr	2	0	1900	1	0	08:06:30	1398547	0	0	0	0	0	0	0	0	0	0	0	0	0	0	0	0	0	0	0	0	0	0		1	0	0	0	0	0	0	0
012513	08:06:30	10032	pm.simpleFrRight	pm.simpleFr	2	57	336	0	0	08:06:30	1398907	0	0	0	0	0	0	0	0	0	0	0	0	0	0	0	0	0	0	0	0	0	0		1	0	0	0	0	0	0	0
012513	08:06:30	10032	pm.simpleFrRight	blank.simpleFr	2	0	2200	1	0	08:06:30	1401119	0	0	0	0	0	0	0	0	0	0	0	0	0	0	0	0	0	0	0	0	0	0		1	0	0	0	0	0	0	0
012513	08:06:30	10032	pm.simpleFrRight	pm.simpleFr	2	57	339	0	0	08:06:30	1401479	0	0	0	0	0	0	0	0	0	0	0	0	0	0	0	0	0	0	0	0	0	0		1	0	0	0	0	0	0	0
012513	08:06:30	10032	pm.simpleFrRight	blank.simpleFr	2	0	2100	1	0	08:06:30	1403598	0	0	0	0	0	0	0	0	0	0	0	0	0	0	0	0	0	0	0	0	0	0		1	0	0	0	0	0	0	0
012513	08:06:30	10032	pm.simpleFrRight	pm.simpleFr	2	57	309	0	0	08:06:30	1403931	0	0	0	0	0	0	0	0	0	0	0	0	0	0	0	0	0	0	0	0	0	0		1	0	0	0	0	0	0	0
012513	08:06:30	10032	pm.simpleFrRight	blank.simpleFr	2	0	2300	1	0	08:06:30	1406251	0	0	0	0	0	0	0	0	0	0	0	0	0	0	0	0	0	0	0	0	0	0		1	0	0	0	0	0	0	0
012513	08:06:30	10032	pm.simpleFrRight	pm.simpleFr	2	57	297	0	0	08:06:30	1406570	0	0	0	0	0	0	0	0	0	0	0	0	0	0	0	0	0	0	0	0	0	0		1	0	0	0	0	0	0	0
012513	08:06:30	10032	pm.simpleFrRight	blank.simpleFr	2	0	1700	1	0	08:06:30	1408290	0	0	0	0	0	0	0	0	0	0	0	0	0	0	0	0	0	0	0	0	0	0		1	0	0	0	0	0	0	0
012513	08:06:30	10032	pm.simpleFrRight	pm.simpleFr	2	57	418	0	0	08:06:30	1408730	0	0	0	0	0	0	0	0	0	0	0	0	0	0	0	0	0	0	0	0	0	0		1	0	0	0	0	0	0	0
012513	08:06:30	10032	pm.simpleFrRight	blank.simpleFr	2	0	1600	1	0	08:06:30	1410342	0	0	0	0	0	0	0	0	0	0	0	0	0	0	0	0	0	0	0	0	0	0		1	0	0	0	0	0	0	0
012513	08:06:30	10032	pm.simpleFrRight	pm.simpleFr	2	57	461	0	0	08:06:30	1410822	0	0	0	0	0	0	0	0	0	0	0	0	0	0	0	0	0	0	0	0	0	0		1	0	0	0	0	0	0	0
012513	08:06:30	10032	pm.simpleFrRight	blank.simpleFr	2	0	2500	1	0	08:06:30	1413341	0	0	0	0	0	0	0	0	0	0	0	0	0	0	0	0	0	0	0	0	0	0		1	0	0	0	0	0	0	0
012513	08:06:30	10032	pm.simpleFrRight	pm.simpleFr	2	57	326	0	0	08:06:30	1413688	0	0	0	0	0	0	0	0	0	0	0	0	0	0	0	0	0	0	0	0	0	0		1	0	0	0	0	0	0	0
012513	08:06:30	10032	Trial2BackFr	N	3	0	1000	1	1	08:06:30	1490203	0	0	0	0	0	0	0	0	0	0	0	0	0	0	0	0	0	0	0	0	0	0		1	0	0	0	0	0	0	0
012513	08:06:30	10032	Trial2BackFr	N	3	0	1000	1	2	08:06:30	1491722	0	0	0	0	0	0	0	0	0	0	0	0	0	0	0	0	0	0	0	0	0	0		1	0	0	0	0	0	0	0
012513	08:06:30	10032	Trial2BackFr	N	3	0	1000	1	3	08:06:30	1493229	0	0	0	0	0	0	0	0	0	0	0	0	0	0	0	0	0	0	0	0	0	0		1	0	0	0	0	0	0	0
012513	08:06:30	10032	Trial2BackFr	N	3	0	1000	1	4	08:06:30	1494735	0	0	0	0	0	0	0	0	0	0	0	0	0	0	0	0	0	0	0	0	0	0		1	0	0	0	0	0	0	0
012513	08:06:30	10032	Trial2BackFr	N	3	0	1000	1	5	08:06:30	1496241	0	0	0	0	0	0	0	0	0	0	0	0	0	0	0	0	0	0	0	0	0	0		1	0	0	0	0	0	0	0
012513	08:06:30	10032	Trial2BackFr	N	3	0	1000	1	6	08:06:30	1497747	0	0	0	0	0	0	0	0	0	0	0	0	0	0	0	0	0	0	0	0	0	0		1	0	0	0	0	0	0	0
012513	08:06:30	10032	Trial2BackFr	N	3	0	1000	1	7	08:06:30	1499253	0	0	0	0	0	0	0	0	0	0	0	0	0	0	0	0	0	0	0	0	0	0		1	0	0	0	0	0	0	0
012513	08:06:30	10032	Trial2BackFr	N	3	0	1000	1	8	08:06:30	1500759	0	0	0	0	0	0	0	0	0	0	0	0	0	0	0	0	0	0	0	0	0	0		1	0	0	0	0	0	0	0
012513	08:06:30	10032	Trial2BackFr	Y	3	0	1000	0	8	08:06:30	1502265	0	0	0	0	0	0	0	0	0	0	0	0	0	0	0	0	0	0	0	0	0	0		1	0	0	0	0	0	0	0
012513	08:06:30	10032	Trial2BackFr	N	3	0	1000	1	9	08:06:30	1503784	0	0	0	0	0	0	0	0	0	0	0	0	0	0	0	0	0	0	0	0	0	0		1	0	0	0	0	0	0	0
012513	08:06:30	10032	Trial2BackFr	N	3	0	1000	1	10	08:06:30	1505290	0	0	0	0	0	0	0	0	0	0	0	0	0	0	0	0	0	0	0	0	0	0		1	0	0	0	0	0	0	0
012513	08:06:30	10032	Trial2BackFr	N	3	0	1000	1	11	08:06:30	1506796	0	0	0	0	0	0	0	0	0	0	0	0	0	0	0	0	0	0	0	0	0	0		1	0	0	0	0	0	0	0
012513	08:06:30	10032	Trial2BackFr	Y	3	0	1000	0	11	08:06:30	1508316	0	0	0	0	0	0	0	0	0	0	0	0	0	0	0	0	0	0	0	0	0	0		1	0	0	0	0	0	0	0
012513	08:06:30	10032	Trial2BackFr	N	3	0	1000	1	12	08:06:30	1509822	0	0	0	0	0	0	0	0	0	0	0	0	0	0	0	0	0	0	0	0	0	0		1	0	0	0	0	0	0	0
012513	08:06:30	10032	Trial2BackFr	N	3	0	1000	1	13	08:06:30	1511328	0	0	0	0	0	0	0	0	0	0	0	0	0	0	0	0	0	0	0	0	0	0		1	0	0	0	0	0	0	0
012513	08:06:30	10032	Trial2BackFr	N	3	0	1000	1	14	08:06:30	1512834	0	0	0	0	0	0	0	0	0	0	0	0	0	0	0	0	0	0	0	0	0	0		1	0	0	0	0	0	0	0
012513	08:06:30	10032	Trial2BackFr	N	3	0	1000	1	15	08:06:30	1514340	0	0	0	0	0	0	0	0	0	0	0	0	0	0	0	0	0	0	0	0	0	0		1	0	0	0	0	0	0	0
012513	08:06:30	10032	Trial2BackFr	N	3	0	1000	1	16	08:06:30	1515859	0	0	0	0	0	0	0	0	0	0	0	0	0	0	0	0	0	0	0	0	0	0		1	0	0	0	0	0	0	0
012513	08:06:30	10032	Trial2BackFr	Y	3	0	1000	0	16	08:06:30	1517366	0	0	0	0	0	0	0	0	0	0	0	0	0	0	0	0	0	0	0	0	0	0		1	0	0	0	0	0	0	0
012513	08:06:30	10032	Trial2BackFr	N	3	0	1000	1	17	08:06:30	1518872	0	0	0	0	0	0	0	0	0	0	0	0	0	0	0	0	0	0	0	0	0	0		1	0	0	0	0	0	0	0
012513	08:06:30	10032	Trial2BackFr	N	3	0	1000	1	18	08:06:30	1520391	0	0	0	0	0	0	0	0	0	0	0	0	0	0	0	0	0	0	0	0	0	0		1	0	0	0	0	0	0	0
012513	08:06:30	10032	Trial2BackFr	N	3	0	1000	1	19	08:06:30	1521897	0	0	0	0	0	0	0	0	0	0	0	0	0	0	0	0	0	0	0	0	0	0		1	0	0	0	0	0	0	0
012513	08:06:30	10032	Trial2BackFr	N	3	0	1000	1	20	08:06:30	1523403	0	0	0	0	0	0	0	0	0	0	0	0	0	0	0	0	0	0	0	0	0	0		1	0	0	0	0	0	0	0
012513	08:06:30	10032	Trial2BackFr	Y	3	57	634	1	21	08:06:30	1524549	0	0	0	0	0	0	0	0	0	0	0	0	0	0	0	0	0	0	0	0	0	0		1	0	0	0	0	0	0	0
012513	08:06:30	10032	Trial2BackFr	N	3	0	1000	1	22	08:06:30	1526415	0	0	0	0	0	0	0	0	0	0	0	0	0	0	0	0	0	0	0	0	0	0		1	0	0	0	0	0	0	0
012513	08:06:30	10032	Trial2BackFr	N	3	0	1000	1	23	08:06:30	1527921	0	0	0	0	0	0	0	0	0	0	0	0	0	0	0	0	0	0	0	0	0	0		1	0	0	0	0	0	0	0
012513	08:06:30	10032	Trial2BackFr	N	3	0	1000	1	24	08:06:30	1529427	0	0	0	0	0	0	0	0	0	0	0	0	0	0	0	0	0	0	0	0	0	0		1	0	0	0	0	0	0	0
012513	08:06:30	10032	Trial2BackFr	N	3	0	1000	1	25	08:06:30	1530933	0	0	0	0	0	0	0	0	0	0	0	0	0	0	0	0	0	0	0	0	0	0		1	0	0	0	0	0	0	0
012513	08:06:30	10032	Trial2BackFr	N	3	0	1000	1	26	08:06:30	1532439	0	0	0	0	0	0	0	0	0	0	0	0	0	0	0	0	0	0	0	0	0	0		1	0	0	0	0	0	0	0
012513	08:06:30	10032	Trial2BackFr	N	3	0	1000	1	27	08:06:30	1533945	0	0	0	0	0	0	0	0	0	0	0	0	0	0	0	0	0	0	0	0	0	0		1	0	0	0	0	0	0	0
012513	08:06:30	10032	Trial2BackFr	Y	3	0	1000	0	27	08:06:30	1535452	0	0	0	0	0	0	0	0	0	0	0	0	0	0	0	0	0	0	0	0	0	0		1	0	0	0	0	0	0	0
012513	08:06:30	10032	Trial2BackFr	N	3	0	1000	1	28	08:06:30	1536971	0	0	0	0	0	0	0	0	0	0	0	0	0	0	0	0	0	0	0	0	0	0		1	0	0	0	0	0	0	0
012513	08:06:30	10032	Trial2BackFr	N	3	0	1000	1	29	08:06:30	1538477	0	0	0	0	0	0	0	0	0	0	0	0	0	0	0	0	0	0	0	0	0	0		1	0	0	0	0	0	0	0
012513	08:06:30	10032	Trial2BackFr	N	3	0	1000	1	30	08:06:30	1539983	0	0	0	0	0	0	0	0	0	0	0	0	0	0	0	0	0	0	0	0	0	0		1	0	0	0	0	0	0	0
012513	08:06:30	10032	Trial2BackFr	Y	3	0	1000	0	30	08:06:30	1541489	0	0	0	0	0	0	0	0	0	0	0	0	0	0	0	0	0	0	0	0	0	0		1	0	0	0	0	0	0	0
012513	08:06:30	10032	Trial2BackFr	N	3	0	1000	1	31	08:06:30	1542995	0	0	0	0	0	0	0	0	0	0	0	0	0	0	0	0	0	0	0	0	0	0		1	0	0	0	0	0	0	0
012513	08:06:30	10032	Trial2BackFr	N	3	0	1000	1	32	08:06:30	1544501	0	0	0	0	0	0	0	0	0	0	0	0	0	0	0	0	0	0	0	0	0	0		1	0	0	0	0	0	0	0
012513	08:06:30	10032	Trial2BackFr	N	3	0	1000	1	33	08:06:30	1546007	0	0	0	0	0	0	0	0	0	0	0	0	0	0	0	0	0	0	0	0	0	0		1	0	0	0	0	0	0	0
012513	08:06:30	10032	Trial2BackFr	N	3	0	1000	1	34	08:06:30	1547513	0	0	0	0	0	0	0	0	0	0	0	0	0	0	0	0	0	0	0	0	0	0		1	0	0	0	0	0	0	0
012513	08:06:30	10032	Trial2BackFr	N	3	0	1000	1	35	08:06:30	1549033	0	0	0	0	0	0	0	0	0	0	0	0	0	0	0	0	0	0	0	0	0	0		1	0	0	0	0	0	0	0
012513	08:06:30	10032	Trial2BackFr	N	3	0	1000	1	36	08:06:30	1550539	0	0	0	0	0	0	0	0	0	0	0	0	0	0	0	0	0	0	0	0	0	0		1	0	0	0	0	0	0	0
012513	08:06:30	10032	Trial2BackFr	Y	3	0	1000	0	36	08:06:30	1552045	0	0	0	0	0	0	0	0	0	0	0	0	0	0	0	0	0	0	0	0	0	0		1	0	0	0	0	0	0	0
012513	08:06:30	10032	Trial2BackFr	N	3	0	1000	1	37	08:06:30	1553564	0	0	0	0	0	0	0	0	0	0	0	0	0	0	0	0	0	0	0	0	0	0		1	0	0	0	0	0	0	0
012513	08:06:30	10032	Trial2BackFr	N	3	0	1000	1	38	08:06:30	1555070	0	0	0	0	0	0	0	0	0	0	0	0	0	0	0	0	0	0	0	0	0	0		1	0	0	0	0	0	0	0
012513	08:06:30	10032	Trial2BackFr	N	3	0	1000	1	39	08:06:30	1556576	0	0	0	0	0	0	0	0	0	0	0	0	0	0	0	0	0	0	0	0	0	0		1	0	0	0	0	0	0	0
012513	08:06:30	10032	Trial2BackFr	N	3	0	1000	1	40	08:06:30	1558082	0	0	0	0	0	0	0	0	0	0	0	0	0	0	0	0	0	0	0	0	0	0		1	0	0	0	0	0	0	0
012513	08:06:30	10032	Trial2BackFr	Y	3	0	1000	0	40	08:06:30	1559588	0	0	0	0	0	0	0	0	0	0	0	0	0	0	0	0	0	0	0	0	0	0		1	0	0	0	0	0	0	0
012513	08:06:30	10032	Trial2BackFr	N	3	0	1000	1	41	08:06:30	1561094	0	0	0	0	0	0	0	0	0	0	0	0	0	0	0	0	0	0	0	0	0	0		1	0	0	0	0	0	0	0
012513	08:06:30	10032	Trial2BackFr	N	3	0	1000	1	42	08:06:30	1562601	0	0	0	0	0	0	0	0	0	0	0	0	0	0	0	0	0	0	0	0	0	0		1	0	0	0	0	0	0	0
012513	08:06:30	10032	Trial2BackFr	N	3	0	1000	1	43	08:06:30	1564107	0	0	0	0	0	0	0	0	0	0	0	0	0	0	0	0	0	0	0	0	0	0		1	0	0	0	0	0	0	0
012513	08:06:30	10032	Trial2BackFr	N	3	0	1000	1	44	08:06:30	1565626	0	0	0	0	0	0	0	0	0	0	0	0	0	0	0	0	0	0	0	0	0	0		1	0	0	0	0	0	0	0
012513	08:06:30	10032	Trial2BackFr	N	3	0	1000	1	45	08:06:30	1567132	0	0	0	0	0	0	0	0	0	0	0	0	0	0	0	0	0	0	0	0	0	0		1	0	0	0	0	0	0	0
012513	08:06:30	10032	Trial2BackFr	Y	3	0	1000	0	45	08:06:30	1568638	0	0	0	0	0	0	0	0	0	0	0	0	0	0	0	0	0	0	0	0	0	0		1	0	0	0	0	0	0	0
012513	08:06:30	10032	Trial2BackFr	N	3	0	1000	1	46	08:06:30	1570157	0	0	0	0	0	0	0	0	0	0	0	0	0	0	0	0	0	0	0	0	0	0		1	0	0	0	0	0	0	0
012513	08:06:30	10032	Trial2BackFr	N	3	0	1000	1	47	08:06:30	1571664	0	0	0	0	0	0	0	0	0	0	0	0	0	0	0	0	0	0	0	0	0	0		1	0	0	0	0	0	0	0
012513	08:06:30	10032	Trial2BackFr	N	3	0	1000	1	48	08:06:30	1573170	0	0	0	0	0	0	0	0	0	0	0	0	0	0	0	0	0	0	0	0	0	0		1	0	0	0	0	0	0	0
012513	08:06:30	10032	Trial2BackFr	N	3	0	1000	1	49	08:06:30	1574675	0	0	0	0	0	0	0	0	0	0	0	0	0	0	0	0	0	0	0	0	0	0		1	0	0	0	0	0	0	0
012513	08:06:30	10032	Trial2BackFr	N	3	0	1000	1	50	08:06:30	1576182	0	0	0	0	0	0	0	0	0	0	0	0	0	0	0	0	0	0	0	0	0	0		1	0	0	0	0	0	0	0
012513	08:06:30	10032	Trial2BackFr	N	3	0	1000	1	51	08:06:30	1577701	0	0	0	0	0	0	0	0	0	0	0	0	0	0	0	0	0	0	0	0	0	0		1	0	0	0	0	0	0	0
012513	08:06:30	10032	Trial2BackFr	Y	3	57	591	1	52	08:06:30	1578807	0	0	0	0	0	0	0	0	0	0	0	0	0	0	0	0	0	0	0	0	0	0		1	0	0	0	0	0	0	0
012513	08:06:30	10032	Trial2BackFr	N	3	0	1000	1	53	08:06:30	1580713	0	0	0	0	0	0	0	0	0	0	0	0	0	0	0	0	0	0	0	0	0	0		1	0	0	0	0	0	0	0
012513	08:06:30	10032	Trial2BackFr	N	3	0	1000	1	54	08:06:30	1582233	0	0	0	0	0	0	0	0	0	0	0	0	0	0	0	0	0	0	0	0	0	0		1	0	0	0	0	0	0	0
012513	08:06:30	10032	Trial2BackFr	Y	3	0	1000	0	54	08:06:30	1583739	0	0	0	0	0	0	0	0	0	0	0	0	0	0	0	0	0	0	0	0	0	0		1	0	0	0	0	0	0	0
012513	08:06:30	10032	Trial2BackFr	N	3	0	1000	1	55	08:06:30	1585245	0	0	0	0	0	0	0	0	0	0	0	0	0	0	0	0	0	0	0	0	0	0		1	0	0	0	0	0	0	0
012513	08:06:30	10032	Trial2BackFr	N	3	0	1000	1	56	08:06:30	1586751	0	0	0	0	0	0	0	0	0	0	0	0	0	0	0	0	0	0	0	0	0	0		1	0	0	0	0	0	0	0
012513	08:06:30	10032	Trial2BackFr	N	3	0	1000	1	57	08:06:30	1588270	0	0	0	0	0	0	0	0	0	0	0	0	0	0	0	0	0	0	0	0	0	0		1	0	0	0	0	0	0	0
012513	08:06:30	10032	Trial2BackFr	N	3	0	1000	1	58	08:06:30	1589776	0	0	0	0	0	0	0	0	0	0	0	0	0	0	0	0	0	0	0	0	0	0		1	0	0	0	0	0	0	0
012513	08:06:30	10032	Trial2BackFr	N	3	0	1000	1	59	08:06:30	1591282	0	0	0	0	0	0	0	0	0	0	0	0	0	0	0	0	0	0	0	0	0	0		1	0	0	0	0	0	0	0
012513	08:06:30	10032	Trial2BackFr	N	3	0	1000	1	60	08:06:30	1592802	0	0	0	0	0	0	0	0	0	0	0	0	0	0	0	0	0	0	0	0	0	0		1	0	0	0	0	0	0	0
012513	08:06:30	10032	Trial2BackFr	N	3	0	1000	1	61	08:06:30	1594308	0	0	0	0	0	0	0	0	0	0	0	0	0	0	0	0	0	0	0	0	0	0		1	0	0	0	0	0	0	0
012513	08:06:30	10032	Trial2BackFr	N	3	0	1000	1	62	08:06:30	1595814	0	0	0	0	0	0	0	0	0	0	0	0	0	0	0	0	0	0	0	0	0	0		1	0	0	0	0	0	0	0
012513	08:06:30	10032	Trial2BackFr	N	3	0	1000	1	63	08:06:30	1597320	0	0	0	0	0	0	0	0	0	0	0	0	0	0	0	0	0	0	0	0	0	0		1	0	0	0	0	0	0	0
012513	08:06:30	10032	Trial2BackFr	N	3	0	1000	1	64	08:06:30	1598826	0	0	0	0	0	0	0	0	0	0	0	0	0	0	0	0	0	0	0	0	0	0		1	0	0	0	0	0	0	0
012513	08:06:30	10032	Trial2BackFr	Y	3	57	617	1	65	08:06:30	1599959	0	0	0	0	0	0	0	0	0	0	0	0	0	0	0	0	0	0	0	0	0	0		1	0	0	0	0	0	0	0
012513	08:06:30	10032	Trial2BackFr	N	3	0	1000	1	66	08:06:30	1601838	0	0	0	0	0	0	0	0	0	0	0	0	0	0	0	0	0	0	0	0	0	0		1	0	0	0	0	0	0	0
012513	08:06:30	10032	Trial2BackFr	N	3	0	1000	1	67	08:06:30	1603344	0	0	0	0	0	0	0	0	0	0	0	0	0	0	0	0	0	0	0	0	0	0		1	0	0	0	0	0	0	0
012513	08:06:30	10032	Trial2BackFr	N	3	0	1000	1	68	08:06:30	1604850	0	0	0	0	0	0	0	0	0	0	0	0	0	0	0	0	0	0	0	0	0	0		1	0	0	0	0	0	0	0
012513	08:06:30	10032	Trial2BackFr	Y	3	57	737	1	69	08:06:30	1606103	0	0	0	0	0	0	0	0	0	0	0	0	0	0	0	0	0	0	0	0	0	0		1	0	0	0	0	0	0	0
012513	08:06:30	10032	Trial2BackFr	N	3	0	1000	1	70	08:06:30	1607862	0	0	0	0	0	0	0	0	0	0	0	0	0	0	0	0	0	0	0	0	0	0		1	0	0	0	0	0	0	0
012513	08:06:30	10032	Trial2BackFr	N	3	0	1000	1	71	08:06:30	1609368	0	0	0	0	0	0	0	0	0	0	0	0	0	0	0	0	0	0	0	0	0	0		1	0	0	0	0	0	0	0
012513	08:06:30	10032	Trial2BackFr	N	3	0	1000	1	72	08:06:30	1610888	0	0	0	0	0	0	0	0	0	0	0	0	0	0	0	0	0	0	0	0	0	0		1	0	0	0	0	0	0	0
012513	08:06:30	10032	Trial2BackFr	N	3	0	1000	1	73	08:06:30	1612393	0	0	0	0	0	0	0	0	0	0	0	0	0	0	0	0	0	0	0	0	0	0		1	0	0	0	0	0	0	0
012513	08:06:30	10032	Trial2BackFr	N	3	0	1000	1	74	08:06:30	1613900	0	0	0	0	0	0	0	0	0	0	0	0	0	0	0	0	0	0	0	0	0	0		1	0	0	0	0	0	0	0
012513	08:06:30	10032	Trial2BackFr	Y	3	57	487	1	75	08:06:30	1614899	0	0	0	0	0	0	0	0	0	0	0	0	0	0	0	0	0	0	0	0	0	0		1	0	0	0	0	0	0	0
012513	08:06:30	10032	Trial2BackFr	N	3	0	1000	1	76	08:06:30	1616912	0	0	0	0	0	0	0	0	0	0	0	0	0	0	0	0	0	0	0	0	0	0		1	0	0	0	0	0	0	0
012513	08:06:30	10032	Trial2BackFr	N	3	0	1000	1	77	08:06:30	1618418	0	0	0	0	0	0	0	0	0	0	0	0	0	0	0	0	0	0	0	0	0	0		1	0	0	0	0	0	0	0
012513	08:06:30	10032	Trial2BackFr	N	3	0	1000	1	78	08:06:30	1619924	0	0	0	0	0	0	0	0	0	0	0	0	0	0	0	0	0	0	0	0	0	0		1	0	0	0	0	0	0	0
012513	08:06:30	10032	Trial2BackFr	N	3	0	1000	1	79	08:06:30	1621430	0	0	0	0	0	0	0	0	0	0	0	0	0	0	0	0	0	0	0	0	0	0		1	0	0	0	0	0	0	0
012513	08:06:30	10032	Trial2BackFr	N	3	0	1000	1	80	08:06:30	1622936	0	0	0	0	0	0	0	0	0	0	0	0	0	0	0	0	0	0	0	0	0	0		1	0	0	0	0	0	0	0
012513	08:06:30	10032	Trial2BackFr	N	3	0	1000	1	81	08:06:30	1624442	0	0	0	0	0	0	0	0	0	0	0	0	0	0	0	0	0	0	0	0	0	0		1	0	0	0	0	0	0	0
012513	08:06:30	10032	Trial2BackFr	N	3	0	1000	1	82	08:06:30	1625948	0	0	0	0	0	0	0	0	0	0	0	0	0	0	0	0	0	0	0	0	0	0		1	0	0	0	0	0	0	0
012513	08:06:30	10032	Trial2BackFr	N	3	0	1000	1	83	08:06:30	1627454	0	0	0	0	0	0	0	0	0	0	0	0	0	0	0	0	0	0	0	0	0	0		1	0	0	0	0	0	0	0
012513	08:06:30	10032	Trial2BackFr	N	3	0	1000	1	84	08:06:30	1628960	0	0	0	0	0	0	0	0	0	0	0	0	0	0	0	0	0	0	0	0	0	0		1	0	0	0	0	0	0	0
012513	08:06:30	10032	Trial2BackFr	Y	3	57	514	1	85	08:06:30	1629986	0	0	0	0	0	0	0	0	0	0	0	0	0	0	0	0	0	0	0	0	0	0		1	0	0	0	0	0	0	0
012513	08:06:30	10032	Trial2BackFr	N	3	0	1000	1	86	08:06:30	1631972	0	0	0	0	0	0	0	0	0	0	0	0	0	0	0	0	0	0	0	0	0	0		1	0	0	0	0	0	0	0
012513	08:06:30	10032	Trial2BackFr	N	3	0	1000	1	87	08:06:30	1633478	0	0	0	0	0	0	0	0	0	0	0	0	0	0	0	0	0	0	0	0	0	0		1	0	0	0	0	0	0	0
012513	08:06:30	10032	Trial2BackFr	N	3	0	1000	1	88	08:06:30	1634984	0	0	0	0	0	0	0	0	0	0	0	0	0	0	0	0	0	0	0	0	0	0		1	0	0	0	0	0	0	0
012513	08:06:30	10032	Trial2BackFr	N	3	0	1000	1	89	08:06:30	1636491	0	0	0	0	0	0	0	0	0	0	0	0	0	0	0	0	0	0	0	0	0	0		1	0	0	0	0	0	0	0
012513	08:06:30	10032	Trial2BackFr	N	3	0	1000	1	90	08:06:30	1637997	0	0	0	0	0	0	0	0	0	0	0	0	0	0	0	0	0	0	0	0	0	0		1	0	0	0	0	0	0	0
012513	08:06:30	10032	Trial2BackFr	N	3	0	1000	1	91	08:06:30	1639503	0	0	0	0	0	0	0	0	0	0	0	0	0	0	0	0	0	0	0	0	0	0		1	0	0	0	0	0	0	0
012513	08:06:30	10032	Trial2BackFr	N	3	0	1000	1	92	08:06:30	1641009	0	0	0	0	0	0	0	0	0	0	0	0	0	0	0	0	0	0	0	0	0	0		1	0	0	0	0	0	0	0
012513	08:06:30	10032	Trial2BackFr	N	3	0	1000	1	93	08:06:30	1642515	0	0	0	0	0	0	0	0	0	0	0	0	0	0	0	0	0	0	0	0	0	0		1	0	0	0	0	0	0	0
012513	08:06:30	10032	Trial2BackFr	Y	3	0	1000	0	93	08:06:30	1644034	0	0	0	0	0	0	0	0	0	0	0	0	0	0	0	0	0	0	0	0	0	0		1	0	0	0	0	0	0	0
012513	08:06:30	10032	Trial2BackFr	N	3	0	1000	1	94	08:06:30	1645540	0	0	0	0	0	0	0	0	0	0	0	0	0	0	0	0	0	0	0	0	0	0		1	0	0	0	0	0	0	0
012513	08:06:30	10032	Trial2BackFr	N	3	0	1000	1	95	08:06:30	1647046	0	0	0	0	0	0	0	0	0	0	0	0	0	0	0	0	0	0	0	0	0	0		1	0	0	0	0	0	0	0
012513	08:06:30	10032	Trial2BackFr	N	3	0	1000	1	96	08:06:30	1648552	0	0	0	0	0	0	0	0	0	0	0	0	0	0	0	0	0	0	0	0	0	0		1	0	0	0	0	0	0	0
012513	08:06:30	10032	Trial2BackFr	N	3	0	1000	1	97	08:06:30	1650058	0	0	0	0	0	0	0	0	0	0	0	0	0	0	0	0	0	0	0	0	0	0		1	0	0	0	0	0	0	0
012513	08:06:30	10032	Trial2BackFr	Y	3	0	1000	0	97	08:06:30	1651565	0	0	0	0	0	0	0	0	0	0	0	0	0	0	0	0	0	0	0	0	0	0		1	0	0	0	0	0	0	0
012513	08:06:30	10032	Trial2BackFr	N	3	0	1000	1	98	08:06:30	1653084	0	0	0	0	0	0	0	0	0	0	0	0	0	0	0	0	0	0	0	0	0	0		1	0	0	0	0	0	0	0
012513	08:06:30	10032	Trial2BackFr	N	3	0	1000	1	99	08:06:30	1654590	0	0	0	0	0	0	0	0	0	0	0	0	0	0	0	0	0	0	0	0	0	0		1	0	0	0	0	0	0	0
012513	08:06:30	10032	Trial2BackFr	N	3	0	1000	1	100	08:06:30	1656096	0	0	0	0	0	0	0	0	0	0	0	0	0	0	0	0	0	0	0	0	0	0		1	0	0	0	0	0	0	0
012513	08:06:30	10032	Trial2BackFr	Y	3	57	770	1	101	08:06:30	1657375	0	0	0	0	0	0	0	0	0	0	0	0	0	0	0	0	0	0	0	0	0	0		1	0	0	0	0	0	0	0
012513	08:06:30	10032	Trial2BackFr	N	3	0	1000	1	102	08:06:30	1659108	0	0	0	0	0	0	0	0	0	0	0	0	0	0	0	0	0	0	0	0	0	0		1	0	0	0	0	0	0	0
012513	08:06:30	10032	Trial2BackFr	N	3	0	1000	1	103	08:06:30	1660614	0	0	0	0	0	0	0	0	0	0	0	0	0	0	0	0	0	0	0	0	0	0		1	0	0	0	0	0	0	0
012513	08:06:30	10032	Trial2BackFr	N	3	0	1000	1	104	08:06:30	1662120	0	0	0	0	0	0	0	0	0	0	0	0	0	0	0	0	0	0	0	0	0	0		1	0	0	0	0	0	0	0
012513	08:06:30	10032	Trial2BackFr	N	3	0	1000	1	105	08:06:30	1663640	0	0	0	0	0	0	0	0	0	0	0	0	0	0	0	0	0	0	0	0	0	0		1	0	0	0	0	0	0	0
012513	08:06:30	10032	Trial2BackFr	N	3	0	1000	1	106	08:06:30	1665146	0	0	0	0	0	0	0	0	0	0	0	0	0	0	0	0	0	0	0	0	0	0		1	0	0	0	0	0	0	0
012513	08:06:30	10032	Trial2BackFr	Y	3	0	1000	0	106	08:06:30	1666652	0	0	0	0	0	0	0	0	0	0	0	0	0	0	0	0	0	0	0	0	0	0		1	0	0	0	0	0	0	0
012513	08:06:30	10032	Trial2BackFr	N	3	0	1000	1	107	08:06:30	1668158	0	0	0	0	0	0	0	0	0	0	0	0	0	0	0	0	0	0	0	0	0	0		1	0	0	0	0	0	0	0
012513	08:06:30	10032	Trial2BackFr	N	3	0	1000	1	108	08:06:30	1669664	0	0	0	0	0	0	0	0	0	0	0	0	0	0	0	0	0	0	0	0	0	0		1	0	0	0	0	0	0	0
012513	08:06:30	10032	Trial2BackFr	N	3	0	1000	1	109	08:06:30	1671183	0	0	0	0	0	0	0	0	0	0	0	0	0	0	0	0	0	0	0	0	0	0		1	0	0	0	0	0	0	0
012513	08:06:30	10032	Trial2BackFr	Y	3	0	1000	0	109	08:06:30	1672689	0	0	0	0	0	0	0	0	0	0	0	0	0	0	0	0	0	0	0	0	0	0		1	0	0	0	0	0	0	0
012513	08:06:30	10032	Memory1R6moFr	ScoreFr	5	M1	16826	0	109	08:06:30	1723282	0	0	0	0	0	0	0	0	0	0	0	0	0	0	0	0	0	0	0	0	0	0		1	0	0	0	0	0	0	0
012513	08:06:30	10032	Memory1R6moFr	ScoreFr	5	M2	289	0	109	08:06:30	1723616	0	0	0	0	0	0	0	0	0	0	0	0	0	0	0	0	0	0	0	0	0	0		1	0	0	0	0	0	0	0
012513	08:06:30	10032	Memory1R6moFr	ScoreFr	5	M4	2140	0	109	08:06:30	1725801	0	0	0	0	0	0	0	0	0	0	0	0	0	0	0	0	0	0	0	0	0	0		1	0	0	0	0	0	0	0
012513	08:06:30	10032	Memory1R6moFr	ScoreFr	5	M5	293	0	109	08:06:30	1726161	0	0	0	0	0	0	0	0	0	0	0	0	0	0	0	0	0	0	0	0	0	0		1	0	0	0	0	0	0	0
012513	08:06:30	10032	Memory1R6moFr	ScoreFr	5	M7	1226	0	109	08:06:30	1727441	0	0	0	0	0	0	0	0	0	0	0	0	0	0	0	0	0	0	0	0	0	0		1	0	0	0	0	0	0	0
012513	08:06:30	10032	Memory1R6moFr	ScoreFr	5	Done	9914	0	109	08:06:30	1737410	0	0	0	0	0	0	0	0	0	0	0	0	0	0	0	0	0	0	0	0	0	0		1	0	0	0	0	0	0	0
012513	08:06:30	10032	Memory2R6moFr	ScoreFr2	5	88	20525	0	109	08:06:30	1775968	0	0	0	0	0	0	0	0	0	0	0	0	0	0	0	0	0	0	0	0	0	0		1	0	0	0	0	0	0	0
012513	08:06:30	10032	Memory2R6moFr	ScoreFr2	5	55	578	0	109	08:06:30	1776594	0	0	0	0	0	0	0	0	0	0	0	0	0	0	0	0	0	0	0	0	0	0		1	0	0	0	0	0	0	0
012513	08:06:30	10032	Memory2R6moFr	ScoreFr2	5	33	256	0	109	08:06:30	1776901	0	0	0	0	0	0	0	0	0	0	0	0	0	0	0	0	0	0	0	0	0	0		1	0	0	0	0	0	0	0
012513	08:06:30	10032	Memory2R6moFr	ScoreFr2	5	44	509	0	109	08:06:30	1777460	0	0	0	0	0	0	0	0	0	0	0	0	0	0	0	0	0	0	0	0	0	0		1	0	0	0	0	0	0	0
012513	08:06:30	10032	Memory2R6moFr	ScoreFr2	5	22	438	0	109	08:06:30	1777953	0	0	0	0	0	0	0	0	0	0	0	0	0	0	0	0	0	0	0	0	0	0		1	0	0	0	0	0	0	0
012513	08:06:30	10032	Memory2R6moFr	ScoreFr2	5	11	288	0	109	08:06:30	1778287	0	0	0	0	0	0	0	0	0	0	0	0	0	0	0	0	0	0	0	0	0	0		1	0	0	0	0	0	0	0
012513	08:06:30	10032	Memory2R6moFr	ScoreFr2	5	77	8011	0	109	08:06:30	1786350	0	0	0	0	0	0	0	0	0	0	0	0	0	0	0	0	0	0	0	0	0	0		1	0	0	0	0	0	0	0
012513	08:06:30	10032	Memory2R6moFr	ScoreFr2	5	Done	12035	0	109	08:06:30	1798438	0	0	0	0	0	0	0	0	0	0	0	0	0	0	0	0	0	0	0	0	0	0		1	0	0	0	0	0	0	0
012513	08:06:30	10032	Memory3R6moFr	ScoreFr3	5	111	20073	0	109	08:06:30	1837236	0	0	0	0	0	0	0	0	0	0	0	0	0	0	0	0	0	0	0	0	0	0		1	0	0	0	0	0	0	0
012513	08:06:30	10032	Memory3R6moFr	ScoreFr3	5	333	652	0	109	08:06:30	1837943	0	0	0	0	0	0	0	0	0	0	0	0	0	0	0	0	0	0	0	0	0	0		1	0	0	0	0	0	0	0
012513	08:06:30	10032	Memory3R6moFr	ScoreFr3	5	555	698	0	109	08:06:30	1838689	0	0	0	0	0	0	0	0	0	0	0	0	0	0	0	0	0	0	0	0	0	0		1	0	0	0	0	0	0	0
012513	08:06:30	10032	Memory3R6moFr	ScoreFr3	5	666	296	0	109	08:06:30	1839035	0	0	0	0	0	0	0	0	0	0	0	0	0	0	0	0	0	0	0	0	0	0		1	0	0	0	0	0	0	0
012513	08:06:30	10032	Memory3R6moFr	ScoreFr3	5	777	335	0	109	08:06:30	1839435	0	0	0	0	0	0	0	0	0	0	0	0	0	0	0	0	0	0	0	0	0	0		1	0	0	0	0	0	0	0
012513	08:06:30	10032	Memory3R6moFr	ScoreFr3	5	888	365	0	109	08:06:30	1839848	0	0	0	0	0	0	0	0	0	0	0	0	0	0	0	0	0	0	0	0	0	0		1	0	0	0	0	0	0	0
012513	08:06:30	10032	Memory3R6moFr	ScoreFr3	5	Done	23599	0	109	08:06:30	1863492	0	0	0	0	0	0	0	0	0	0	0	0	0	0	0	0	0	0	0	0	0	0		1	0	0	0	0	0	0	0
012513	08:06:30	10032	LoriaFrLH3	Stop	6	4	3620	0	109	08:06:30	1929507	0	0	0	0	0	0	0	0	0	0	0	0	0	0	0	0	0	0	0	0	0	0		1	0	0	0	0	0	0	0
012513	08:06:30	10032	FrTrail	Trails	7	1Trails	1268	0	109	08:06:30	1969689	0	0	0	0	0	0	0	0	0	0	0	0	0	0	0	0	0	0	0	0	0	0		1	0	0	0	0	0	0	0
012513	08:06:30	10032	Serial7Fr6mo	Serial7Fr6mo	8	73	5491	0	109	08:06:30	1992361	1	0	0	0	0	0	0	0	0	0	0	0	0	0	0	0	0	0	0	0	0	0		1	0	0	0	0	0	0	0
012513	08:06:30	10032	Serial7Fr6mo	Serial7Fr6mo	8	64	5942	0	109	08:06:30	1998320	1	0	0	0	0	0	0	0	0	0	0	0	0	0	0	0	0	0	0	0	0	0		1	0	0	0	0	0	0	0
012513	08:06:30	10032	Serial7Fr6mo	Serial7Fr6mo	8	57	8799	0	109	08:06:30	2007143	2	0	0	0	0	0	0	0	0	0	0	0	0	0	0	0	0	0	0	0	0	0		1	0	0	0	0	0	0	0
012513	08:06:30	10032	Serial7Fr6mo	Serial7Fr6mo	8	50	3719	0	109	08:06:30	2010889	3	0	0	0	0	0	0	0	0	0	0	0	0	0	0	0	0	0	0	0	0	0		1	0	0	0	0	0	0	0
012513	08:06:30	10032	Serial7Fr6mo	Serial7Fr6mo	8	43	9656	0	109	08:06:30	2020566	4	0	0	0	0	0	0	0	0	0	0	0	0	0	0	0	0	0	0	0	0	0		1	0	0	0	0	0	0	0
012513	08:06:30	10032	corsiblockFrFwrd	recallseqFrFwrd	9	doneCorsiFr	12152	0	109	08:06:30	2107197	4	0	0	0	0	0	0	0	0	0	0	0	0	0	0	0	0	0	0	0	0	0		1	0	0	0	0	0	0	0
012513	08:06:30	10032	corsiblockFrFwrd	recallseqFrFwrd	9	2	3122	0	109	08:06:30	2115407	4	0	0	0	0	0	0	0	0	0	0	0	0	0	0	0	0	0	0	0	0	0		1	0	0	0	0	0	0	0
012513	08:06:30	10032	corsiblockFrFwrd	recallseqFrFwrd	9	7	2365	0	109	08:06:30	2117819	4	0	0	0	0	0	0	0	0	0	0	0	0	0	0	0	0	0	0	0	0	0		1	0	0	0	0	0	0	0
012513	08:06:30	10032	corsiblockFrFwrd	recallseqFrFwrd	9	doneCorsiFr	5841	0	109	08:06:30	2123710	4	0	0	0	0	0	0	0	0	0	0	0	0	0	0	2	0	0	0	0	0	0		1	0	0	0	0	0	0	0
012513	08:06:30	10032	corsiblockFrFwrd	recallseqFrFwrd	9	8	3931	0	109	08:06:30	2132746	4	0	0	0	0	0	0	0	0	0	0	0	0	0	0	2	0	0	0	0	0	0		1	0	0	0	0	0	0	0
012513	08:06:30	10032	corsiblockFrFwrd	recallseqFrFwrd	9	4	1410	0	109	08:06:30	2134212	4	0	0	0	0	0	0	0	0	0	0	0	0	0	0	2	0	0	0	0	0	0		1	0	0	0	0	0	0	0
012513	08:06:30	10032	corsiblockFrFwrd	recallseqFrFwrd	9	5	1520	0	109	08:06:30	2135785	4	0	0	0	0	0	0	0	0	0	0	0	0	0	0	2	0	0	0	0	0	0		1	0	0	0	0	0	0	0
012513	08:06:30	10032	corsiblockFrFwrd	recallseqFrFwrd	9	doneCorsiFr	1691	0	109	08:06:30	2137531	4	0	0	0	0	0	0	0	0	0	0	0	0	0	0	3	0	0	0	0	0	0		1	0	0	0	0	0	0	0
012513	08:06:30	10032	corsiblockFrFwrd	recallseqFrFwrd	9	6	2926	0	109	08:06:30	2147594	4	0	0	0	0	0	0	0	0	0	0	0	0	0	0	3	0	0	0	0	0	0		1	0	0	0	0	0	0	0
012513	08:06:30	10032	corsiblockFrFwrd	recallseqFrFwrd	9	1	3370	0	109	08:06:30	2151019	4	0	0	0	0	0	0	0	0	0	0	0	0	0	0	3	0	0	0	0	0	0		1	0	0	0	0	0	0	0
012513	08:06:30	10032	corsiblockFrFwrd	recallseqFrFwrd	9	7	2153	0	109	08:06:30	2153218	4	0	0	0	0	0	0	0	0	0	0	0	0	0	0	3	0	0	0	0	0	0		1	0	0	0	0	0	0	0
012513	08:06:30	10032	corsiblockFrFwrd	recallseqFrFwrd	9	8	2018	0	109	08:06:30	2155284	4	0	0	0	0	0	0	0	0	0	0	0	0	0	0	3	0	0	0	0	0	0		1	0	0	0	0	0	0	0
012513	08:06:30	10032	corsiblockFrFwrd	recallseqFrFwrd	9	doneCorsiFr	2736	0	109	08:06:30	2158070	4	0	0	0	0	0	0	0	0	0	0	0	0	0	0	3	0	0	0	0	0	0		1	0	0	0	0	0	0	0
012513	08:06:30	10032	corsiblockFrFwrd	recallseqFrFwrd	9	5	2889	0	109	08:06:30	2168052	4	0	0	0	0	0	0	0	0	0	0	0	0	0	0	3	0	0	0	0	0	0		1	0	0	0	0	0	0	0
012513	08:06:30	10032	corsiblockFrFwrd	recallseqFrFwrd	9	4	2111	0	109	08:06:30	2170211	4	0	0	0	0	0	0	0	0	0	0	0	0	0	0	3	0	0	0	0	0	0		1	0	0	0	0	0	0	0
012513	08:06:30	10032	corsiblockFrFwrd	recallseqFrFwrd	9	2	1256	0	109	08:06:30	2171517	4	0	0	0	0	0	0	0	0	0	0	0	0	0	0	3	0	0	0	0	0	0		1	0	0	0	0	0	0	0
012513	08:06:30	10032	corsiblockFrFwrd	recallseqFrFwrd	9	6	2142	0	109	08:06:30	2173703	4	0	0	0	0	0	0	0	0	0	0	0	0	0	0	3	0	0	0	0	0	0		1	0	0	0	0	0	0	0
012513	08:06:30	10032	corsiblockFrFwrd	recallseqFrFwrd	9	doneCorsiFr	1907	0	109	08:06:30	2175662	4	0	0	0	0	0	0	0	0	0	0	0	0	0	0	3	0	0	0	0	0	0		1	0	0	0	0	0	0	0
012513	08:06:30	10032	corsiblockFrRev	recallseqFrRev	10	8	4541	0	109	08:06:30	2207623	4	0	0	0	0	0	0	0	0	0	0	0	0	0	0	3	0	0	0	0	0	0		1	0	0	0	0	0	0	0
012513	08:06:30	10032	corsiblockFrRev	recallseqFrRev	10	5	4860	0	109	08:06:30	2212528	4	0	0	0	0	0	0	0	0	0	0	0	0	0	0	3	0	0	0	0	0	0		1	0	0	0	0	0	0	0
012513	08:06:30	10032	corsiblockFrRev	recallseqFrRev	10	doneCorsiFr	2251	0	109	08:06:30	2214833	4	0	0	0	0	0	0	0	0	0	0	0	0	0	0	3	2	0	0	0	0	0		1	0	0	0	0	0	0	0
012513	08:06:30	10032	corsiblockFrRev	recallseqFrRev	10	2	1913	0	109	08:06:30	2222857	4	0	0	0	0	0	0	0	0	0	0	0	0	0	0	3	2	0	0	0	0	0		1	0	0	0	0	0	0	0
012513	08:06:30	10032	corsiblockFrRev	recallseqFrRev	10	1	1505	0	109	08:06:30	2224416	4	0	0	0	0	0	0	0	0	0	0	0	0	0	0	3	2	0	0	0	0	0		1	0	0	0	0	0	0	0
012513	08:06:30	10032	corsiblockFrRev	recallseqFrRev	10	7	1618	0	109	08:06:30	2226082	4	0	0	0	0	0	0	0	0	0	0	0	0	0	0	3	2	0	0	0	0	0		1	0	0	0	0	0	0	0
012513	08:06:30	10032	corsiblockFrRev	recallseqFrRev	10	doneCorsiFr	2776	0	109	08:06:30	2228908	4	0	0	0	0	0	0	0	0	0	0	0	0	0	0	3	3	0	0	0	0	0		1	0	0	0	0	0	0	0
012513	08:06:30	10032	corsiblockFrRev	recallseqFrRev	10	6	1590	0	109	08:06:30	2237611	4	0	0	0	0	0	0	0	0	0	0	0	0	0	0	3	3	0	0	0	0	0		1	0	0	0	0	0	0	0
012513	08:06:30	10032	corsiblockFrRev	recallseqFrRev	10	3	1903	0	109	08:06:30	2239570	4	0	0	0	0	0	0	0	0	0	0	0	0	0	0	3	3	0	0	0	0	0		1	0	0	0	0	0	0	0
012513	08:06:30	10032	corsiblockFrRev	recallseqFrRev	10	4	1032	0	109	08:06:30	2240649	4	0	0	0	0	0	0	0	0	0	0	0	0	0	0	3	3	0	0	0	0	0		1	0	0	0	0	0	0	0
012513	08:06:30	10032	corsiblockFrRev	recallseqFrRev	10	7	1648	0	109	08:06:30	2242342	4	0	0	0	0	0	0	0	0	0	0	0	0	0	0	3	3	0	0	0	0	0		1	0	0	0	0	0	0	0
012513	08:06:30	10032	corsiblockFrRev	recallseqFrRev	10	doneCorsiFr	2100	0	109	08:06:30	2244488	4	0	0	0	0	0	0	0	0	0	0	0	0	0	0	3	3	0	0	0	0	0		1	0	0	0	0	0	0	0
012513	08:06:30	10032	corsiblockFrRev	recallseqFrRev	10	5	2261	0	109	08:06:30	2253831	4	0	0	0	0	0	0	0	0	0	0	0	0	0	0	3	3	0	0	0	0	0		1	0	0	0	0	0	0	0
012513	08:06:30	10032	corsiblockFrRev	recallseqFrRev	10	3	1306	0	109	08:06:30	2255190	4	0	0	0	0	0	0	0	0	0	0	0	0	0	0	3	3	0	0	0	0	0		1	0	0	0	0	0	0	0
012513	08:06:30	10032	corsiblockFrRev	recallseqFrRev	10	7	3371	0	109	08:06:30	2258616	4	0	0	0	0	0	0	0	0	0	0	0	0	0	0	3	3	0	0	0	0	0		1	0	0	0	0	0	0	0
012513	08:06:30	10032	corsiblockFrRev	recallseqFrRev	10	1	1626	0	109	08:06:30	2260295	4	0	0	0	0	0	0	0	0	0	0	0	0	0	0	3	3	0	0	0	0	0		1	0	0	0	0	0	0	0
012513	08:06:30	10032	corsiblockFrRev	recallseqFrRev	10	doneCorsiFr	1978	0	109	08:06:30	2262321	4	0	0	0	0	0	0	0	0	0	0	0	0	0	0	3	3	0	0	0	0	0		1	0	0	0	0	0	0	0
012513	08:06:30	10032	testFr6mo	WordsFr6mo	11	3Fr6mo	14087	0	109	08:06:30	2287951	4	0	0	3	0	0	0	0	0	0	0	0	0	0	0	3	3	0	0	0	0	0		1	0	0	0	0	0	0	0
012513	08:06:30	10032	testFr6mo	WordsFr6mo	11	5Fr6mo	1173	0	109	08:06:30	2289190	4	0	0	3	0	3	0	0	0	0	0	0	0	0	0	3	3	0	0	0	0	0		1	0	0	0	0	0	0	0
012513	08:06:30	10032	testFr6mo	WordsFr6mo	11	7Fr6mo	1003	0	109	08:06:30	2290243	4	0	0	3	0	3	0	3	0	0	0	0	0	0	0	3	3	0	0	0	0	0		1	0	0	0	0	0	0	0
012513	08:06:30	10032	testFr6mo	WordsFr6mo	11	8Fr6mo	6430	0	109	08:06:30	2296720	4	0	0	3	0	3	0	3	3	0	0	0	0	0	0	3	3	0	0	0	0	0		1	0	0	0	0	0	0	0
012513	08:06:30	10032	testFr6mo	WordsFr6mo	11	2Fr6mo	3529	0	109	08:06:30	2300306	4	0	3	3	0	3	0	3	3	0	0	0	0	0	0	3	3	0	0	0	0	0		1	0	0	0	0	0	0	0
012513	08:06:30	10032	testFr6mo	WordsFr6mo	11	1Fr6mo	6922	0	109	08:06:30	2307290	4	3	3	3	0	3	0	3	3	0	0	0	0	0	0	3	3	0	0	0	0	0		1	0	0	0	0	0	0	0
012513	08:06:30	10032	testFr6mo	WordsFr6mo	11	6Fr6mo	17463	0	109	08:06:30	2324802	4	3	3	3	0	3	3	3	3	0	0	0	0	0	0	3	3	0	0	0	0	0		1	0	0	0	0	0	0	0
012513	08:06:30	10032	testFr6mo	WordsFr6mo	11	DoneFr6mo	13022	0	109	08:06:30	2337877	4	3	3	3	0	3	3	3	3	0	0	0	0	0	0	3	3	0	0	0	0	0		1	0	0	0	0	0	0	0
012513	08:06:30	10032	testFr6mo	Cat4Fr6mo	11	0	1	0	109	08:06:30	2337891	4	3	3	3	0	3	3	3	3	0	0	0	0	0	0	3	3	0	0	0	0	0		1	0	0	0	0	0	0	0
012513	08:06:30	10032	testFr6mo	Ch4Fr6mo	11	RR4Fr6mo	8412	0	109	08:06:30	2346340	4	3	3	3	1	3	3	3	3	0	0	0	0	0	0	3	3	0	0	0	0	0		1	0	0	0	0	0	0	0
012513	08:06:30	10032	DigitSpanFwrdFr6mo	Score1FwrdFr6mo	12	DS1	3572	0	109	08:06:30	2366878	4	3	3	3	1	3	3	3	3	0	0	0	0	0	0	3	3	0	0	0	0	0		1	0	0	0	0	0	0	0
012513	08:06:30	10032	DigitSpanFwrdFr6mo	Gate1FwrdFr6mo	12	0	1	0	109	08:06:30	2366883	4	3	3	3	1	3	3	3	3	3	0	0	0	0	0	3	3	0	0	0	0	0		1	0	0	0	0	0	0	0
012513	08:06:30	10032	DigitSpanFwrdFr6mo	Score2FwrdFr6mo	12	DS1	4041	0	109	08:06:30	2377234	4	3	3	3	1	3	3	3	3	3	0	0	0	0	0	3	3	0	0	0	0	0		1	0	0	0	0	0	0	0
012513	08:06:30	10032	DigitSpanFwrdFr6mo	Gate3FwrdFr6mo	12	0	1	0	109	08:06:30	2377240	4	3	3	3	1	3	3	3	3	4	0	0	0	0	0	3	3	0	0	0	0	0		1	0	0	0	0	0	0	0
012513	08:06:30	10032	DigitSpanFwrdFr6mo	Score3FwrdFr6mo	12	DS2	8945	0	109	08:06:30	2393427	4	3	3	3	1	3	3	3	3	4	0	0	0	0	0	3	3	0	0	0	0	0		1	0	0	0	0	0	0	0
012513	08:06:30	10032	DigitSpanFwrdFr6mo	Gate5FwrdFr6mo	12	0	1	0	109	08:06:30	2393431	4	3	3	3	1	3	3	3	3	4	0	0	0	0	0	3	3	0	0	0	0	0		1	0	0	0	0	0	0	0
012513	08:06:30	10032	DigitSpanFwrdFr6mo	Score33FwrdFr6mo	12	DS1	5542	0	109	08:06:30	2406182	4	3	3	3	1	3	3	3	3	4	0	0	0	0	0	3	3	0	0	0	0	0		1	0	0	0	0	0	0	0
012513	08:06:30	10032	DigitSpanFwrdFr6mo	Gate6FwrdFr6mo	12	0	1	0	109	08:06:30	2406187	4	3	3	3	1	3	3	3	3	5	0	0	0	0	0	3	3	0	0	0	0	0		1	0	0	0	0	0	0	0
012513	08:06:30	10032	DigitSpanFwrdFr6mo	Score4FwrdFr6mo	12	DS1	10321	0	109	08:06:30	2425015	4	3	3	3	1	3	3	3	3	5	0	0	0	0	0	3	3	0	0	0	0	0		1	0	0	0	0	0	0	0
012513	08:06:30	10032	DigitSpanFwrdFr6mo	Gate7FwrdFr6mo	12	0	1	0	109	08:06:30	2425021	4	3	3	3	1	3	3	3	3	6	0	0	0	0	0	3	3	0	0	0	0	0		1	0	0	0	0	0	0	0
012513	08:06:30	10032	DigitSpanFwrdFr6mo	Score5FwrdFr6mo	12	DS2	15281	0	109	08:06:30	2450244	4	3	3	3	1	3	3	3	3	6	0	0	0	0	0	3	3	0	0	0	0	0		1	0	0	0	0	0	0	0
012513	08:06:30	10032	DigitSpanFwrdFr6mo	Gate9FwrdFr6mo	12	0	1	0	109	08:06:30	2450249	4	3	3	3	1	3	3	3	3	6	0	0	0	0	0	3	3	0	0	0	0	0		1	0	0	0	0	0	0	0
012513	08:06:30	10032	DigitSpanFwrdFr6mo	Score55FwrdFr6mo	12	DS2	11269	0	109	08:06:30	2471076	4	3	3	3	1	3	3	3	3	6	0	0	0	0	0	3	3	0	0	0	0	0		1	0	0	0	0	0	0	0
012513	08:06:30	10032	DigitSpanFr6mo	Score1Fr6mo	13	DS1	4781	0	109	08:06:30	2492680	4	3	3	3	1	3	3	3	3	6	0	0	0	0	0	3	3	0	0	0	0	0		1	0	0	0	0	0	0	0
012513	08:06:30	10032	DigitSpanFr6mo	Gate1Fr6mo	13	0	1	0	109	08:06:30	2492685	4	3	3	3	1	3	3	3	3	6	2	0	0	0	0	3	3	0	0	0	0	0		1	0	0	0	0	0	0	0
012513	08:06:30	10032	DigitSpanFr6mo	Score2Fr6mo	13	DS1	4115	0	109	08:06:30	2501344	4	3	3	3	1	3	3	3	3	6	2	0	0	0	0	3	3	0	0	0	0	0		1	0	0	0	0	0	0	0
012513	08:06:30	10032	DigitSpanFr6mo	Gate3Fr6mo	13	0	1	0	109	08:06:30	2501350	4	3	3	3	1	3	3	3	3	6	3	0	0	0	0	3	3	0	0	0	0	0		1	0	0	0	0	0	0	0
012513	08:06:30	10032	DigitSpanFr6mo	Score3Fr6mo	13	DS2	7418	0	109	08:06:30	2514458	4	3	3	3	1	3	3	3	3	6	3	0	0	0	0	3	3	0	0	0	0	0		1	0	0	0	0	0	0	0
012513	08:06:30	10032	DigitSpanFr6mo	Gate5Fr6mo	13	0	1	0	109	08:06:30	2514463	4	3	3	3	1	3	3	3	3	6	3	0	0	0	0	3	3	0	0	0	0	0		1	0	0	0	0	0	0	0
012513	08:06:30	10032	DigitSpanFr6mo	Score33Fr6mo	13	DS2	7221	0	109	08:06:30	2527719	4	3	3	3	1	3	3	3	3	6	3	0	0	0	0	3	3	0	0	0	0	0		1	0	0	0	0	0	0	0
012513	08:06:30	10032	Trial	ResponseIL	14	0	175	0	109	08:06:30	2576793	4	3	3	3	1	3	3	3	3	6	3	0	0	0	0	3	3	0	0	0	0	0		1	0	0	0	0	0	0	0
012513	08:06:30	10032	Trial	IncongruentLeft	14	203	448	1	109	08:06:30	2577259	4	3	3	3	1	3	3	3	3	6	3	0	0	0	0	3	3	0	0	0	0	0		1	0	0	0	0	0	0	0
012513	08:06:30	10032	Trial	ResponseCR	14	0	175	0	109	08:06:30	2578499	4	3	3	3	1	3	3	3	3	6	3	0	0	0	0	3	3	0	0	0	0	0		1	0	0	0	0	0	0	0
012513	08:06:30	10032	Trial	CongruentRight	14	205	328	1	109	08:06:30	2578845	4	3	3	3	1	3	3	3	3	6	3	0	0	0	0	3	3	0	0	0	0	0		1	0	0	0	0	0	0	0
012513	08:06:30	10032	Trial	ResponseIR	14	0	175	0	109	08:06:30	2580205	4	3	3	3	1	3	3	3	3	6	3	0	0	0	0	3	3	0	0	0	0	0		1	0	0	0	0	0	0	0
012513	08:06:30	10032	Trial	IncongruentRight	14	205	510	1	109	08:06:30	2580739	4	3	3	3	1	3	3	3	3	6	3	0	0	0	0	3	3	0	0	0	0	0		1	0	0	0	0	0	0	0
012513	08:06:30	10032	Trial	ResponseCL	14	0	175	0	109	08:06:30	2581911	4	3	3	3	1	3	3	3	3	6	3	0	0	0	0	3	3	0	0	0	0	0		1	0	0	0	0	0	0	0
012513	08:06:30	10032	Trial	CongruentLeft	14	203	324	1	109	08:06:30	2582258	4	3	3	3	1	3	3	3	3	6	3	0	0	0	0	3	3	0	0	0	0	0		1	0	0	0	0	0	0	0
012513	08:06:30	10032	Trial	ResponseCR	14	0	175	0	109	08:06:30	2583617	4	3	3	3	1	3	3	3	3	6	3	0	0	0	0	3	3	0	0	0	0	0		1	0	0	0	0	0	0	0
012513	08:06:30	10032	Trial	CongruentRight	14	205	250	1	109	08:06:30	2583883	4	3	3	3	1	3	3	3	3	6	3	0	0	0	0	3	3	0	0	0	0	0		1	0	0	0	0	0	0	0
012513	08:06:30	10032	Trial	ResponseIR	14	0	175	0	109	08:06:30	2585323	4	3	3	3	1	3	3	3	3	6	3	0	0	0	0	3	3	0	0	0	0	0		1	0	0	0	0	0	0	0
012513	08:06:30	10032	Trial	IncongruentRight	14	205	352	1	109	08:06:30	2585696	4	3	3	3	1	3	3	3	3	6	3	0	0	0	0	3	3	0	0	0	0	0		1	0	0	0	0	0	0	0
012513	08:06:30	10032	Trial	ResponseCL	14	0	175	0	109	08:06:30	2587029	4	3	3	3	1	3	3	3	3	6	3	0	0	0	0	3	3	0	0	0	0	0		1	0	0	0	0	0	0	0
012513	08:06:30	10032	Trial	CongruentLeft	14	203	310	1	109	08:06:30	2587362	4	3	3	3	1	3	3	3	3	6	3	0	0	0	0	3	3	0	0	0	0	0		1	0	0	0	0	0	0	0
012513	08:06:30	10032	Trial	ResponseIL	14	0	175	0	109	08:06:30	2588735	4	3	3	3	1	3	3	3	3	6	3	0	0	0	0	3	3	0	0	0	0	0		1	0	0	0	0	0	0	0
012513	08:06:30	10032	Trial	IncongruentLeft	14	203	365	1	109	08:06:30	2589122	4	3	3	3	1	3	3	3	3	6	3	0	0	0	0	3	3	0	0	0	0	0		1	0	0	0	0	0	0	0
012513	08:06:30	10032	Trial	ResponseIL	14	0	175	0	109	08:06:30	2590441	4	3	3	3	1	3	3	3	3	6	3	0	0	0	0	3	3	0	0	0	0	0		1	0	0	0	0	0	0	0
012513	08:06:30	10032	Trial	IncongruentLeft	14	203	482	1	109	08:06:30	2590947	4	3	3	3	1	3	3	3	3	6	3	0	0	0	0	3	3	0	0	0	0	0		1	0	0	0	0	0	0	0
012513	08:06:30	10032	Trial	ResponseCR	14	0	175	0	109	08:06:30	2592147	4	3	3	3	1	3	3	3	3	6	3	0	0	0	0	3	3	0	0	0	0	0		1	0	0	0	0	0	0	0
012513	08:06:30	10032	Trial	CongruentRight	14	205	263	1	109	08:06:30	2592427	4	3	3	3	1	3	3	3	3	6	3	0	0	0	0	3	3	0	0	0	0	0		1	0	0	0	0	0	0	0
012513	08:06:30	10032	Trial	ResponseIR	14	0	175	0	109	08:06:30	2593854	4	3	3	3	1	3	3	3	3	6	3	0	0	0	0	3	3	0	0	0	0	0		1	0	0	0	0	0	0	0
012513	08:06:30	10032	Trial	IncongruentRight	14	205	317	1	109	08:06:30	2594199	4	3	3	3	1	3	3	3	3	6	3	0	0	0	0	3	3	0	0	0	0	0		1	0	0	0	0	0	0	0
012513	08:06:30	10032	Trial	ResponseCL	14	0	175	0	109	08:06:30	2595559	4	3	3	3	1	3	3	3	3	6	3	0	0	0	0	3	3	0	0	0	0	0		1	0	0	0	0	0	0	0
012513	08:06:30	10032	Trial	CongruentLeft	14	203	388	1	109	08:06:30	2595972	4	3	3	3	1	3	3	3	3	6	3	0	0	0	0	3	3	0	0	0	0	0		1	0	0	0	0	0	0	0
012513	08:06:30	10032	Trial	ResponseCR	14	0	175	0	109	08:06:30	2597265	4	3	3	3	1	3	3	3	3	6	3	0	0	0	0	3	3	0	0	0	0	0		1	0	0	0	0	0	0	0
012513	08:06:30	10032	Trial	CongruentRight	14	205	330	1	109	08:06:30	2597611	4	3	3	3	1	3	3	3	3	6	3	0	0	0	0	3	3	0	0	0	0	0		1	0	0	0	0	0	0	0
012513	08:06:30	10032	Trial	ResponseIL	14	0	175	0	109	08:06:30	2598971	4	3	3	3	1	3	3	3	3	6	3	0	0	0	0	3	3	0	0	0	0	0		1	0	0	0	0	0	0	0
012513	08:06:30	10032	Trial	IncongruentLeft	14	203	383	1	109	08:06:30	2599370	4	3	3	3	1	3	3	3	3	6	3	0	0	0	0	3	3	0	0	0	0	0		1	0	0	0	0	0	0	0
012513	08:06:30	10032	Trial	ResponseIR	14	0	175	0	109	08:06:30	2600677	4	3	3	3	1	3	3	3	3	6	3	0	0	0	0	3	3	0	0	0	0	0		1	0	0	0	0	0	0	0
012513	08:06:30	10032	Trial	IncongruentRight	14	205	309	1	109	08:06:30	2601010	4	3	3	3	1	3	3	3	3	6	3	0	0	0	0	3	3	0	0	0	0	0		1	0	0	0	0	0	0	0
012513	08:06:30	10032	Trial	ResponseCR	14	0	175	0	109	08:06:30	2602383	4	3	3	3	1	3	3	3	3	6	3	0	0	0	0	3	3	0	0	0	0	0		1	0	0	0	0	0	0	0
012513	08:06:30	10032	Trial	CongruentRight	14	205	362	1	109	08:06:30	2602769	4	3	3	3	1	3	3	3	3	6	3	0	0	0	0	3	3	0	0	0	0	0		1	0	0	0	0	0	0	0
012513	08:06:30	10032	Trial	ResponseCL	14	0	175	0	109	08:06:30	2604089	4	3	3	3	1	3	3	3	3	6	3	0	0	0	0	3	3	0	0	0	0	0		1	0	0	0	0	0	0	0
012513	08:06:30	10032	Trial	CongruentLeft	14	203	226	1	109	08:06:30	2604342	4	3	3	3	1	3	3	3	3	6	3	0	0	0	0	3	3	0	0	0	0	0		1	0	0	0	0	0	0	0
012513	08:06:30	10032	Trial	ResponseCR	14	0	175	0	109	08:06:30	2605795	4	3	3	3	1	3	3	3	3	6	3	0	0	0	0	3	3	0	0	0	0	0		1	0	0	0	0	0	0	0
012513	08:06:30	10032	Trial	CongruentRight	14	205	183	1	109	08:06:30	2605995	4	3	3	3	1	3	3	3	3	6	3	0	0	0	0	3	3	0	0	0	0	0		1	0	0	0	0	0	0	0
012513	08:06:30	10032	Trial	ResponseIR	14	0	175	0	109	08:06:30	2607501	4	3	3	3	1	3	3	3	3	6	3	0	0	0	0	3	3	0	0	0	0	0		1	0	0	0	0	0	0	0
012513	08:06:30	10032	Trial	IncongruentRight	14	205	412	1	109	08:06:30	2607941	4	3	3	3	1	3	3	3	3	6	3	0	0	0	0	3	3	0	0	0	0	0		1	0	0	0	0	0	0	0
012513	08:06:30	10032	Trial	ResponseIL	14	0	175	0	109	08:06:30	2609207	4	3	3	3	1	3	3	3	3	6	3	0	0	0	0	3	3	0	0	0	0	0		1	0	0	0	0	0	0	0
012513	08:06:30	10032	Trial	IncongruentLeft	14	203	259	1	109	08:06:30	2609486	4	3	3	3	1	3	3	3	3	6	3	0	0	0	0	3	3	0	0	0	0	0		1	0	0	0	0	0	0	0
012513	08:06:30	10032	Trial	ResponseIL	14	0	175	0	109	08:06:30	2610913	4	3	3	3	1	3	3	3	3	6	3	0	0	0	0	3	3	0	0	0	0	0		1	0	0	0	0	0	0	0
012513	08:06:30	10032	Trial	IncongruentLeft	14	205	138	0	109	08:06:30	2611073	4	3	3	3	1	3	3	3	3	6	3	0	0	0	0	3	3	0	0	0	0	0		1	0	0	0	0	0	0	0
012513	08:06:30	10032	Trial	ResponseCL	14	0	175	0	109	08:06:30	2612619	4	3	3	3	1	3	3	3	3	6	3	0	0	0	0	3	3	0	0	0	0	0		1	0	0	0	0	0	0	0
012513	08:06:30	10032	Trial	CongruentLeft	14	203	335	1	109	08:06:30	2612979	4	3	3	3	1	3	3	3	3	6	3	0	0	0	0	3	3	0	0	0	0	0		1	0	0	0	0	0	0	0
012513	08:06:30	10032	Trial	ResponseCR	14	0	175	0	109	08:06:30	2614325	4	3	3	3	1	3	3	3	3	6	3	0	0	0	0	3	3	0	0	0	0	0		1	0	0	0	0	0	0	0
012513	08:06:30	10032	Trial	CongruentRight	14	205	196	1	109	08:06:30	2614551	4	3	3	3	1	3	3	3	3	6	3	0	0	0	0	3	3	0	0	0	0	0		1	0	0	0	0	0	0	0
012513	08:06:30	10032	Trial	ResponseIL	14	0	175	0	109	08:06:30	2616031	4	3	3	3	1	3	3	3	3	6	3	0	0	0	0	3	3	0	0	0	0	0		1	0	0	0	0	0	0	0
012513	08:06:30	10032	Trial	IncongruentLeft	14	203	444	1	109	08:06:30	2616497	4	3	3	3	1	3	3	3	3	6	3	0	0	0	0	3	3	0	0	0	0	0		1	0	0	0	0	0	0	0
012513	08:06:30	10032	Trial	ResponseIR	14	0	175	0	109	08:06:30	2617736	4	3	3	3	1	3	3	3	3	6	3	0	0	0	0	3	3	0	0	0	0	0		1	0	0	0	0	0	0	0
012513	08:06:30	10032	Trial	IncongruentRight	14	205	241	1	109	08:06:30	2618003	4	3	3	3	1	3	3	3	3	6	3	0	0	0	0	3	3	0	0	0	0	0		1	0	0	0	0	0	0	0
012513	08:06:30	10032	Trial	ResponseCR	14	0	175	0	109	08:06:30	2619442	4	3	3	3	1	3	3	3	3	6	3	0	0	0	0	3	3	0	0	0	0	0		1	0	0	0	0	0	0	0
012513	08:06:30	10032	Trial	CongruentRight	14	205	345	1	109	08:06:30	2619816	4	3	3	3	1	3	3	3	3	6	3	0	0	0	0	3	3	0	0	0	0	0		1	0	0	0	0	0	0	0
012513	08:06:30	10032	Trial	ResponseCL	14	0	175	0	109	08:06:30	2621148	4	3	3	3	1	3	3	3	3	6	3	0	0	0	0	3	3	0	0	0	0	0		1	0	0	0	0	0	0	0
012513	08:06:30	10032	Trial	CongruentLeft	14	203	221	1	109	08:06:30	2621388	4	3	3	3	1	3	3	3	3	6	3	0	0	0	0	3	3	0	0	0	0	0		1	0	0	0	0	0	0	0
012513	08:06:30	10032	Trial	ResponseIR	14	0	175	0	109	08:06:30	2622854	4	3	3	3	1	3	3	3	3	6	3	0	0	0	0	3	3	0	0	0	0	0		1	0	0	0	0	0	0	0
012513	08:06:30	10032	Trial	IncongruentRight	14	205	307	1	109	08:06:30	2623188	4	3	3	3	1	3	3	3	3	6	3	0	0	0	0	3	3	0	0	0	0	0		1	0	0	0	0	0	0	0
012513	08:06:30	10032	Trial	ResponseIL	14	0	175	0	109	08:06:30	2624561	4	3	3	3	1	3	3	3	3	6	3	0	0	0	0	3	3	0	0	0	0	0		1	0	0	0	0	0	0	0
012513	08:06:30	10032	Trial	IncongruentLeft	14	203	345	1	109	08:06:30	2624934	4	3	3	3	1	3	3	3	3	6	3	0	0	0	0	3	3	0	0	0	0	0		1	0	0	0	0	0	0	0
012513	08:06:30	10032	Trial	ResponseIR	14	0	175	0	109	08:06:30	2626266	4	3	3	3	1	3	3	3	3	6	3	0	0	0	0	3	3	0	0	0	0	0		1	0	0	0	0	0	0	0
012513	08:06:30	10032	Trial	IncongruentRight	14	205	335	1	109	08:06:30	2626626	4	3	3	3	1	3	3	3	3	6	3	0	0	0	0	3	3	0	0	0	0	0		1	0	0	0	0	0	0	0
012513	08:06:30	10032	Trial	ResponseCR	14	0	175	0	109	08:06:30	2627973	4	3	3	3	1	3	3	3	3	6	3	0	0	0	0	3	3	0	0	0	0	0		1	0	0	0	0	0	0	0
012513	08:06:30	10032	Trial	CongruentRight	14	205	309	1	109	08:06:30	2628306	4	3	3	3	1	3	3	3	3	6	3	0	0	0	0	3	3	0	0	0	0	0		1	0	0	0	0	0	0	0
012513	08:06:30	10032	Trial	ResponseIL	14	0	175	0	109	08:06:30	2629678	4	3	3	3	1	3	3	3	3	6	3	0	0	0	0	3	3	0	0	0	0	0		1	0	0	0	0	0	0	0
012513	08:06:30	10032	Trial	IncongruentLeft	14	205	251	0	109	08:06:30	2629958	4	3	3	3	1	3	3	3	3	6	3	0	0	0	0	3	3	0	0	0	0	0		1	0	0	0	0	0	0	0
012513	08:06:30	10032	Trial	ResponseCL	14	0	175	0	109	08:06:30	2631385	4	3	3	3	1	3	3	3	3	6	3	0	0	0	0	3	3	0	0	0	0	0		1	0	0	0	0	0	0	0
012513	08:06:30	10032	Trial	CongruentLeft	14	205	273	0	109	08:06:30	2631677	4	3	3	3	1	3	3	3	3	6	3	0	0	0	0	3	3	0	0	0	0	0		1	0	0	0	0	0	0	0
012513	08:06:30	10032	Trial	ResponseCR	14	0	175	0	109	08:06:30	2633090	4	3	3	3	1	3	3	3	3	6	3	0	0	0	0	3	3	0	0	0	0	0		1	0	0	0	0	0	0	0
012513	08:06:30	10032	Trial	CongruentRight	14	205	471	1	109	08:06:30	2633584	4	3	3	3	1	3	3	3	3	6	3	0	0	0	0	3	3	0	0	0	0	0		1	0	0	0	0	0	0	0
012513	08:06:30	10032	Trial	ResponseIL	14	0	175	0	109	08:06:30	2634797	4	3	3	3	1	3	3	3	3	6	3	0	0	0	0	3	3	0	0	0	0	0		1	0	0	0	0	0	0	0
012513	08:06:30	10032	Trial	IncongruentLeft	14	203	365	1	109	08:06:30	2635183	4	3	3	3	1	3	3	3	3	6	3	0	0	0	0	3	3	0	0	0	0	0		1	0	0	0	0	0	0	0
012513	08:06:30	10032	Trial	ResponseIR	14	0	175	0	109	08:06:30	2636502	4	3	3	3	1	3	3	3	3	6	3	0	0	0	0	3	3	0	0	0	0	0		1	0	0	0	0	0	0	0
012513	08:06:30	10032	Trial	IncongruentRight	14	0	1000	0	109	08:06:30	2637515	4	3	3	3	1	3	3	3	3	6	3	0	0	0	0	3	3	0	0	0	0	0		1	0	0	0	0	0	0	0
012513	08:06:30	10032	Trial	ResponseIR	14	0	175	0	109	08:06:30	2638222	4	3	3	3	1	3	3	3	3	6	3	0	0	0	0	3	3	0	0	0	0	0		1	0	0	0	0	0	0	0
012513	08:06:30	10032	Trial	IncongruentRight	14	205	380	1	109	08:06:30	2638621	4	3	3	3	1	3	3	3	3	6	3	0	0	0	0	3	3	0	0	0	0	0		1	0	0	0	0	0	0	0
012513	08:06:30	10032	Trial	ResponseCL	14	0	175	0	109	08:06:30	2639928	4	3	3	3	1	3	3	3	3	6	3	0	0	0	0	3	3	0	0	0	0	0		1	0	0	0	0	0	0	0
012513	08:06:30	10032	Trial	CongruentLeft	14	203	274	1	109	08:06:30	2640221	4	3	3	3	1	3	3	3	3	6	3	0	0	0	0	3	3	0	0	0	0	0		1	0	0	0	0	0	0	0
012513	08:06:30	10032	Trial	ResponseIL	14	0	175	0	109	08:06:30	2641634	4	3	3	3	1	3	3	3	3	6	3	0	0	0	0	3	3	0	0	0	0	0		1	0	0	0	0	0	0	0
012513	08:06:30	10032	Trial	IncongruentLeft	14	205	136	0	109	08:06:30	2641793	4	3	3	3	1	3	3	3	3	6	3	0	0	0	0	3	3	0	0	0	0	0		1	0	0	0	0	0	0	0
012513	08:06:30	10032	Trial	ResponseCR	14	0	175	0	109	08:06:30	2643340	4	3	3	3	1	3	3	3	3	6	3	0	0	0	0	3	3	0	0	0	0	0		1	0	0	0	0	0	0	0
012513	08:06:30	10032	Trial	CongruentRight	14	205	494	1	109	08:06:30	2643860	4	3	3	3	1	3	3	3	3	6	3	0	0	0	0	3	3	0	0	0	0	0		1	0	0	0	0	0	0	0
012513	08:06:30	10032	Trial	ResponseCL	14	0	175	0	109	08:06:30	2645046	4	3	3	3	1	3	3	3	3	6	3	0	0	0	0	3	3	0	0	0	0	0		1	0	0	0	0	0	0	0
012513	08:06:30	10032	Trial	CongruentLeft	14	203	404	1	109	08:06:30	2645472	4	3	3	3	1	3	3	3	3	6	3	0	0	0	0	3	3	0	0	0	0	0		1	0	0	0	0	0	0	0
012513	08:06:30	10032	Trial	ResponseIR	14	0	175	0	109	08:06:30	2646751	4	3	3	3	1	3	3	3	3	6	3	0	0	0	0	3	3	0	0	0	0	0		1	0	0	0	0	0	0	0
012513	08:06:30	10032	Trial	IncongruentRight	14	205	329	1	109	08:06:30	2647098	4	3	3	3	1	3	3	3	3	6	3	0	0	0	0	3	3	0	0	0	0	0		1	0	0	0	0	0	0	0
012513	08:06:30	10032	Trial	ResponseCR	14	0	175	0	109	08:06:30	2648457	4	3	3	3	1	3	3	3	3	6	3	0	0	0	0	3	3	0	0	0	0	0		1	0	0	0	0	0	0	0
012513	08:06:30	10032	Trial	CongruentRight	14	205	272	1	109	08:06:30	2648750	4	3	3	3	1	3	3	3	3	6	3	0	0	0	0	3	3	0	0	0	0	0		1	0	0	0	0	0	0	0
012513	08:06:30	10032	Trial	ResponseIL	14	0	175	0	109	08:06:30	2650164	4	3	3	3	1	3	3	3	3	6	3	0	0	0	0	3	3	0	0	0	0	0		1	0	0	0	0	0	0	0
012513	08:06:30	10032	Trial	IncongruentLeft	14	203	310	1	109	08:06:30	2650497	4	3	3	3	1	3	3	3	3	6	3	0	0	0	0	3	3	0	0	0	0	0		1	0	0	0	0	0	0	0
012513	08:06:30	10032	Trial	ResponseCL	14	0	175	0	109	08:06:30	2651869	4	3	3	3	1	3	3	3	3	6	3	0	0	0	0	3	3	0	0	0	0	0		1	0	0	0	0	0	0	0
012513	08:06:30	10032	Trial	CongruentLeft	14	203	220	1	109	08:06:30	2652109	4	3	3	3	1	3	3	3	3	6	3	0	0	0	0	3	3	0	0	0	0	0		1	0	0	0	0	0	0	0
012513	08:06:30	10032	Trial	ResponseIL	14	0	175	0	109	08:06:30	2653576	4	3	3	3	1	3	3	3	3	6	3	0	0	0	0	3	3	0	0	0	0	0		1	0	0	0	0	0	0	0
012513	08:06:30	10032	Trial	IncongruentLeft	14	203	562	1	109	08:06:30	2654162	4	3	3	3	1	3	3	3	3	6	3	0	0	0	0	3	3	0	0	0	0	0		1	0	0	0	0	0	0	0
012513	08:06:30	10032	Trial	ResponseIR	14	0	175	0	109	08:06:30	2655281	4	3	3	3	1	3	3	3	3	6	3	0	0	0	0	3	3	0	0	0	0	0		1	0	0	0	0	0	0	0
012513	08:06:30	10032	Trial	IncongruentRight	14	205	279	1	109	08:06:30	2655588	4	3	3	3	1	3	3	3	3	6	3	0	0	0	0	3	3	0	0	0	0	0		1	0	0	0	0	0	0	0
012513	08:06:30	10032	Trial	ResponseCR	14	0	175	0	109	08:06:30	2656987	4	3	3	3	1	3	3	3	3	6	3	0	0	0	0	3	3	0	0	0	0	0		1	0	0	0	0	0	0	0
012513	08:06:30	10032	Trial	CongruentRight	14	205	333	1	109	08:06:30	2657348	4	3	3	3	1	3	3	3	3	6	3	0	0	0	0	3	3	0	0	0	0	0		1	0	0	0	0	0	0	0
012513	08:06:30	10032	Trial	ResponseCL	14	0	175	0	109	08:06:30	2658693	4	3	3	3	1	3	3	3	3	6	3	0	0	0	0	3	3	0	0	0	0	0		1	0	0	0	0	0	0	0
012513	08:06:30	10032	Trial	CongruentLeft	14	203	339	1	109	08:06:30	2659053	4	3	3	3	1	3	3	3	3	6	3	0	0	0	0	3	3	0	0	0	0	0		1	0	0	0	0	0	0	0
012513	08:06:30	10032	Trial	ResponseCL	14	0	175	0	109	08:06:30	2660399	4	3	3	3	1	3	3	3	3	6	3	0	0	0	0	3	3	0	0	0	0	0		1	0	0	0	0	0	0	0
012513	08:06:30	10032	Trial	CongruentLeft	14	203	268	1	109	08:06:30	2660693	4	3	3	3	1	3	3	3	3	6	3	0	0	0	0	3	3	0	0	0	0	0		1	0	0	0	0	0	0	0
012513	08:06:30	10032	Trial	ResponseIR	14	0	175	0	109	08:06:30	2662106	4	3	3	3	1	3	3	3	3	6	3	0	0	0	0	3	3	0	0	0	0	0		1	0	0	0	0	0	0	0
012513	08:06:30	10032	Trial	IncongruentRight	14	205	367	1	109	08:06:30	2662491	4	3	3	3	1	3	3	3	3	6	3	0	0	0	0	3	3	0	0	0	0	0		1	0	0	0	0	0	0	0
012513	08:06:30	10032	Trial	ResponseIL	14	0	175	0	109	08:06:30	2663811	4	3	3	3	1	3	3	3	3	6	3	0	0	0	0	3	3	0	0	0	0	0		1	0	0	0	0	0	0	0
012513	08:06:30	10032	Trial	IncongruentLeft	14	203	374	1	109	08:06:30	2664211	4	3	3	3	1	3	3	3	3	6	3	0	0	0	0	3	3	0	0	0	0	0		1	0	0	0	0	0	0	0
012513	08:06:30	10032	Trial	ResponseIR	14	0	175	0	109	08:06:30	2665517	4	3	3	3	1	3	3	3	3	6	3	0	0	0	0	3	3	0	0	0	0	0		1	0	0	0	0	0	0	0
012513	08:06:30	10032	Trial	IncongruentRight	14	205	315	1	109	08:06:30	2665850	4	3	3	3	1	3	3	3	3	6	3	0	0	0	0	3	3	0	0	0	0	0		1	0	0	0	0	0	0	0
012513	08:06:30	10032	Trial	ResponseCR	14	0	175	0	109	08:06:30	2667223	4	3	3	3	1	3	3	3	3	6	3	0	0	0	0	3	3	0	0	0	0	0		1	0	0	0	0	0	0	0
012513	08:06:30	10032	Trial	CongruentRight	14	205	337	1	109	08:06:30	2667583	4	3	3	3	1	3	3	3	3	6	3	0	0	0	0	3	3	0	0	0	0	0		1	0	0	0	0	0	0	0
012513	08:06:30	10032	Trial	ResponseCR	14	0	175	0	109	08:06:30	2668929	4	3	3	3	1	3	3	3	3	6	3	0	0	0	0	3	3	0	0	0	0	0		1	0	0	0	0	0	0	0
012513	08:06:30	10032	Trial	CongruentRight	14	205	375	1	109	08:06:30	2669329	4	3	3	3	1	3	3	3	3	6	3	0	0	0	0	3	3	0	0	0	0	0		1	0	0	0	0	0	0	0
012513	08:06:30	10032	Trial	ResponseIL	14	0	175	0	109	08:06:30	2670635	4	3	3	3	1	3	3	3	3	6	3	0	0	0	0	3	3	0	0	0	0	0		1	0	0	0	0	0	0	0
012513	08:06:30	10032	Trial	IncongruentLeft	14	203	302	1	109	08:06:30	2670955	4	3	3	3	1	3	3	3	3	6	3	0	0	0	0	3	3	0	0	0	0	0		1	0	0	0	0	0	0	0
012513	08:06:30	10032	Trial	ResponseCL	14	0	175	0	109	08:06:30	2672341	4	3	3	3	1	3	3	3	3	6	3	0	0	0	0	3	3	0	0	0	0	0		1	0	0	0	0	0	0	0
012513	08:06:30	10032	Trial	CongruentLeft	14	203	260	1	109	08:06:30	2672621	4	3	3	3	1	3	3	3	3	6	3	0	0	0	0	3	3	0	0	0	0	0		1	0	0	0	0	0	0	0
012513	08:06:30	10032	Trial	ResponseCR	14	0	175	0	109	08:06:30	2674047	4	3	3	3	1	3	3	3	3	6	3	0	0	0	0	3	3	0	0	0	0	0		1	0	0	0	0	0	0	0
012513	08:06:30	10032	Trial	CongruentRight	14	205	313	1	109	08:06:30	2674380	4	3	3	3	1	3	3	3	3	6	3	0	0	0	0	3	3	0	0	0	0	0		1	0	0	0	0	0	0	0
012513	08:06:30	10032	Trial	ResponseCL	14	0	175	0	109	08:06:30	2675753	4	3	3	3	1	3	3	3	3	6	3	0	0	0	0	3	3	0	0	0	0	0		1	0	0	0	0	0	0	0
012513	08:06:30	10032	Trial	CongruentLeft	14	203	191	1	109	08:06:30	2675967	4	3	3	3	1	3	3	3	3	6	3	0	0	0	0	3	3	0	0	0	0	0		1	0	0	0	0	0	0	0
012513	08:06:30	10032	Trial	ResponseIR	14	0	175	0	109	08:06:30	2677459	4	3	3	3	1	3	3	3	3	6	3	0	0	0	0	3	3	0	0	0	0	0		1	0	0	0	0	0	0	0
012513	08:06:30	10032	Trial	IncongruentRight	14	205	357	1	109	08:06:30	2677845	4	3	3	3	1	3	3	3	3	6	3	0	0	0	0	3	3	0	0	0	0	0		1	0	0	0	0	0	0	0
012513	08:06:30	10032	Trial	ResponseCR	14	0	175	0	109	08:06:30	2679165	4	3	3	3	1	3	3	3	3	6	3	0	0	0	0	3	3	0	0	0	0	0		1	0	0	0	0	0	0	0
012513	08:06:30	10032	Trial	CongruentRight	14	205	363	1	109	08:06:30	2679552	4	3	3	3	1	3	3	3	3	6	3	0	0	0	0	3	3	0	0	0	0	0		1	0	0	0	0	0	0	0
012513	08:06:30	10032	Trial	ResponseCL	14	0	175	0	109	08:06:30	2680871	4	3	3	3	1	3	3	3	3	6	3	0	0	0	0	3	3	0	0	0	0	0		1	0	0	0	0	0	0	0
012513	08:06:30	10032	Trial	CongruentLeft	14	203	289	1	109	08:06:30	2681178	4	3	3	3	1	3	3	3	3	6	3	0	0	0	0	3	3	0	0	0	0	0		1	0	0	0	0	0	0	0
012513	08:06:30	10032	Trial	ResponseIL	14	0	175	0	109	08:06:30	2682577	4	3	3	3	1	3	3	3	3	6	3	0	0	0	0	3	3	0	0	0	0	0		1	0	0	0	0	0	0	0
012513	08:06:30	10032	Trial	IncongruentLeft	14	203	295	1	109	08:06:30	2682897	4	3	3	3	1	3	3	3	3	6	3	0	0	0	0	3	3	0	0	0	0	0		1	0	0	0	0	0	0	0
012513	08:06:30	10032	Trial	ResponseIL	14	0	175	0	109	08:06:30	2684283	4	3	3	3	1	3	3	3	3	6	3	0	0	0	0	3	3	0	0	0	0	0		1	0	0	0	0	0	0	0
012513	08:06:30	10032	Trial	IncongruentLeft	14	203	317	1	109	08:06:30	2684630	4	3	3	3	1	3	3	3	3	6	3	0	0	0	0	3	3	0	0	0	0	0		1	0	0	0	0	0	0	0
012513	08:06:30	10032	Trial	ResponseCR	14	0	175	0	109	08:06:30	2685989	4	3	3	3	1	3	3	3	3	6	3	0	0	0	0	3	3	0	0	0	0	0		1	0	0	0	0	0	0	0
012513	08:06:30	10032	Trial	CongruentRight	14	205	227	1	109	08:06:30	2686242	4	3	3	3	1	3	3	3	3	6	3	0	0	0	0	3	3	0	0	0	0	0		1	0	0	0	0	0	0	0
012513	08:06:30	10032	Trial	ResponseIR	14	0	175	0	109	08:06:30	2687695	4	3	3	3	1	3	3	3	3	6	3	0	0	0	0	3	3	0	0	0	0	0		1	0	0	0	0	0	0	0
012513	08:06:30	10032	Trial	IncongruentRight	14	205	265	1	109	08:06:30	2687988	4	3	3	3	1	3	3	3	3	6	3	0	0	0	0	3	3	0	0	0	0	0		1	0	0	0	0	0	0	0
012513	08:06:30	10032	Trial	ResponseCL	14	0	175	0	109	08:06:30	2689401	4	3	3	3	1	3	3	3	3	6	3	0	0	0	0	3	3	0	0	0	0	0		1	0	0	0	0	0	0	0
012513	08:06:30	10032	Trial	CongruentLeft	14	203	303	1	109	08:06:30	2689721	4	3	3	3	1	3	3	3	3	6	3	0	0	0	0	3	3	0	0	0	0	0		1	0	0	0	0	0	0	0
012513	08:06:30	10032	Trial	ResponseIR	14	0	175	0	109	08:06:30	2691107	4	3	3	3	1	3	3	3	3	6	3	0	0	0	0	3	3	0	0	0	0	0		1	0	0	0	0	0	0	0
012513	08:06:30	10032	Trial	IncongruentRight	14	205	501	1	109	08:06:30	2691627	4	3	3	3	1	3	3	3	3	6	3	0	0	0	0	3	3	0	0	0	0	0		1	0	0	0	0	0	0	0
012513	08:06:30	10032	Trial	ResponseCR	14	0	175	0	109	08:06:30	2692813	4	3	3	3	1	3	3	3	3	6	3	0	0	0	0	3	3	0	0	0	0	0		1	0	0	0	0	0	0	0
012513	08:06:30	10032	Trial	CongruentRight	14	205	395	1	109	08:06:30	2693226	4	3	3	3	1	3	3	3	3	6	3	0	0	0	0	3	3	0	0	0	0	0		1	0	0	0	0	0	0	0
012513	08:06:30	10032	Trial	ResponseIL	14	0	175	0	109	08:06:30	2694519	4	3	3	3	1	3	3	3	3	6	3	0	0	0	0	3	3	0	0	0	0	0		1	0	0	0	0	0	0	0
012513	08:06:30	10032	Trial	IncongruentLeft	14	203	353	1	109	08:06:30	2694892	4	3	3	3	1	3	3	3	3	6	3	0	0	0	0	3	3	0	0	0	0	0		1	0	0	0	0	0	0	0
012513	08:06:30	10032	Trial	ResponseCL	14	0	175	0	109	08:06:30	2696225	4	3	3	3	1	3	3	3	3	6	3	0	0	0	0	3	3	0	0	0	0	0		1	0	0	0	0	0	0	0
012513	08:06:30	10032	Trial	CongruentLeft	14	203	567	1	109	08:06:30	2696811	4	3	3	3	1	3	3	3	3	6	3	0	0	0	0	3	3	0	0	0	0	0		1	0	0	0	0	0	0	0
012513	08:06:30	10032	Trial	ResponseCR	14	0	175	0	109	08:06:30	2697931	4	3	3	3	1	3	3	3	3	6	3	0	0	0	0	3	3	0	0	0	0	0		1	0	0	0	0	0	0	0
012513	08:06:30	10032	Trial	CongruentRight	14	205	349	1	109	08:06:30	2698304	4	3	3	3	1	3	3	3	3	6	3	0	0	0	0	3	3	0	0	0	0	0		1	0	0	0	0	0	0	0
012513	08:06:30	10032	Trial	ResponseIL	14	0	175	0	109	08:06:30	2699637	4	3	3	3	1	3	3	3	3	6	3	0	0	0	0	3	3	0	0	0	0	0		1	0	0	0	0	0	0	0
012513	08:06:30	10032	Trial	IncongruentLeft	14	203	392	1	109	08:06:30	2700050	4	3	3	3	1	3	3	3	3	6	3	0	0	0	0	3	3	0	0	0	0	0		1	0	0	0	0	0	0	0
012513	08:06:30	10032	Trial	ResponseCR	14	0	175	0	109	08:06:30	2701343	4	3	3	3	1	3	3	3	3	6	3	0	0	0	0	3	3	0	0	0	0	0		1	0	0	0	0	0	0	0
012513	08:06:30	10032	Trial	CongruentRight	14	205	265	1	109	08:06:30	2701636	4	3	3	3	1	3	3	3	3	6	3	0	0	0	0	3	3	0	0	0	0	0		1	0	0	0	0	0	0	0
012513	08:06:30	10032	Trial	ResponseCR	14	0	175	0	109	08:06:30	2703049	4	3	3	3	1	3	3	3	3	6	3	0	0	0	0	3	3	0	0	0	0	0		1	0	0	0	0	0	0	0
012513	08:06:30	10032	Trial	CongruentRight	14	205	335	1	109	08:06:30	2703409	4	3	3	3	1	3	3	3	3	6	3	0	0	0	0	3	3	0	0	0	0	0		1	0	0	0	0	0	0	0
012513	08:06:30	10032	Trial	ResponseIR	14	0	175	0	109	08:06:30	2704755	4	3	3	3	1	3	3	3	3	6	3	0	0	0	0	3	3	0	0	0	0	0		1	0	0	0	0	0	0	0
012513	08:06:30	10032	Trial	IncongruentRight	14	205	391	1	109	08:06:30	2705168	4	3	3	3	1	3	3	3	3	6	3	0	0	0	0	3	3	0	0	0	0	0		1	0	0	0	0	0	0	0
012513	08:06:30	10032	Trial	ResponseCL	14	0	175	0	109	08:06:30	2706461	4	3	3	3	1	3	3	3	3	6	3	0	0	0	0	3	3	0	0	0	0	0		1	0	0	0	0	0	0	0
012513	08:06:30	10032	Trial	CongruentLeft	14	203	379	1	109	08:06:30	2706861	4	3	3	3	1	3	3	3	3	6	3	0	0	0	0	3	3	0	0	0	0	0		1	0	0	0	0	0	0	0
012513	08:06:30	10032	Trial	ResponseIL	14	0	175	0	109	08:06:30	2708167	4	3	3	3	1	3	3	3	3	6	3	0	0	0	0	3	3	0	0	0	0	0		1	0	0	0	0	0	0	0
012513	08:06:30	10032	Trial	IncongruentLeft	14	203	289	1	109	08:06:30	2708473	4	3	3	3	1	3	3	3	3	6	3	0	0	0	0	3	3	0	0	0	0	0		1	0	0	0	0	0	0	0
012513	08:06:30	10032	Trial	ResponseCL	14	0	175	0	109	08:06:30	2709873	4	3	3	3	1	3	3	3	3	6	3	0	0	0	0	3	3	0	0	0	0	0		1	0	0	0	0	0	0	0
012513	08:06:30	10032	Trial	CongruentLeft	14	203	296	1	109	08:06:30	2710193	4	3	3	3	1	3	3	3	3	6	3	0	0	0	0	3	3	0	0	0	0	0		1	0	0	0	0	0	0	0
012513	08:06:30	10032	Trial	ResponseIR	14	0	175	0	109	08:06:30	2711579	4	3	3	3	1	3	3	3	3	6	3	0	0	0	0	3	3	0	0	0	0	0		1	0	0	0	0	0	0	0
012513	08:06:30	10032	Trial	IncongruentRight	14	205	333	1	109	08:06:30	2711939	4	3	3	3	1	3	3	3	3	6	3	0	0	0	0	3	3	0	0	0	0	0		1	0	0	0	0	0	0	0
012513	08:06:30	10032	Trial	ResponseIL	14	0	175	0	109	08:06:30	2713285	4	3	3	3	1	3	3	3	3	6	3	0	0	0	0	3	3	0	0	0	0	0		1	0	0	0	0	0	0	0
012513	08:06:30	10032	Trial	IncongruentLeft	14	203	563	1	109	08:06:30	2713871	4	3	3	3	1	3	3	3	3	6	3	0	0	0	0	3	3	0	0	0	0	0		1	0	0	0	0	0	0	0
012513	08:06:30	10032	Trial	ResponseCR	14	0	175	0	109	08:06:30	2714991	4	3	3	3	1	3	3	3	3	6	3	0	0	0	0	3	3	0	0	0	0	0		1	0	0	0	0	0	0	0
012513	08:06:30	10032	Trial	CongruentRight	14	205	296	1	109	08:06:30	2715311	4	3	3	3	1	3	3	3	3	6	3	0	0	0	0	3	3	0	0	0	0	0		1	0	0	0	0	0	0	0
012513	08:06:30	10032	Trial	ResponseCL	14	0	175	0	109	08:06:30	2716697	4	3	3	3	1	3	3	3	3	6	3	0	0	0	0	3	3	0	0	0	0	0		1	0	0	0	0	0	0	0
012513	08:06:30	10032	Trial	CongruentLeft	14	203	303	1	109	08:06:30	2717017	4	3	3	3	1	3	3	3	3	6	3	0	0	0	0	3	3	0	0	0	0	0		1	0	0	0	0	0	0	0
012513	08:06:30	10032	Trial	ResponseIL	14	0	175	0	109	08:06:30	2718403	4	3	3	3	1	3	3	3	3	6	3	0	0	0	0	3	3	0	0	0	0	0		1	0	0	0	0	0	0	0
012513	08:06:30	10032	Trial	IncongruentLeft	14	203	373	1	109	08:06:30	2718803	4	3	3	3	1	3	3	3	3	6	3	0	0	0	0	3	3	0	0	0	0	0		1	0	0	0	0	0	0	0
012513	08:06:30	10032	Trial	ResponseCL	14	0	175	0	109	08:06:30	2720109	4	3	3	3	1	3	3	3	3	6	3	0	0	0	0	3	3	0	0	0	0	0		1	0	0	0	0	0	0	0
012513	08:06:30	10032	Trial	CongruentLeft	14	203	443	1	109	08:06:30	2720575	4	3	3	3	1	3	3	3	3	6	3	0	0	0	0	3	3	0	0	0	0	0		1	0	0	0	0	0	0	0
012513	08:06:30	10032	Trial	ResponseIR	14	0	175	0	109	08:06:30	2721815	4	3	3	3	1	3	3	3	3	6	3	0	0	0	0	3	3	0	0	0	0	0		1	0	0	0	0	0	0	0
012513	08:06:30	10032	Trial	IncongruentRight	14	205	305	1	109	08:06:30	2722148	4	3	3	3	1	3	3	3	3	6	3	0	0	0	0	3	3	0	0	0	0	0		1	0	0	0	0	0	0	0
012513	08:06:30	10032	Trial	ResponseCR	14	0	175	0	109	08:06:30	2723521	4	3	3	3	1	3	3	3	3	6	3	0	0	0	0	3	3	0	0	0	0	0		1	0	0	0	0	0	0	0
012513	08:06:30	10032	Trial	CongruentRight	14	205	263	1	109	08:06:30	2723800	4	3	3	3	1	3	3	3	3	6	3	0	0	0	0	3	3	0	0	0	0	0		1	0	0	0	0	0	0	0
012513	08:06:30	10032	Trial	ResponseIL	14	0	175	0	109	08:06:30	2725227	4	3	3	3	1	3	3	3	3	6	3	0	0	0	0	3	3	0	0	0	0	0		1	0	0	0	0	0	0	0
012513	08:06:30	10032	Trial	IncongruentLeft	14	0	1000	0	109	08:06:30	2726239	4	3	3	3	1	3	3	3	3	6	3	0	0	0	0	3	3	0	0	0	0	0		1	0	0	0	0	0	0	0
012513	08:06:30	10032	Trial	ResponseCL	14	0	175	0	109	08:06:30	2726946	4	3	3	3	1	3	3	3	3	6	3	0	0	0	0	3	3	0	0	0	0	0		1	0	0	0	0	0	0	0
012513	08:06:30	10032	Trial	CongruentLeft	14	203	246	1	109	08:06:30	2727212	4	3	3	3	1	3	3	3	3	6	3	0	0	0	0	3	3	0	0	0	0	0		1	0	0	0	0	0	0	0
012513	08:06:30	10032	Trial	ResponseIR	14	0	175	0	109	08:06:30	2728652	4	3	3	3	1	3	3	3	3	6	3	0	0	0	0	3	3	0	0	0	0	0		1	0	0	0	0	0	0	0
012513	08:06:30	10032	Trial	IncongruentRight	14	205	316	1	109	08:06:30	2728985	4	3	3	3	1	3	3	3	3	6	3	0	0	0	0	3	3	0	0	0	0	0		1	0	0	0	0	0	0	0
012513	08:06:30	10032	Trial	ResponseIL	14	0	175	0	109	08:06:30	2730358	4	3	3	3	1	3	3	3	3	6	3	0	0	0	0	3	3	0	0	0	0	0		1	0	0	0	0	0	0	0
012513	08:06:30	10032	Trial	IncongruentLeft	14	203	433	1	109	08:06:30	2730811	4	3	3	3	1	3	3	3	3	6	3	0	0	0	0	3	3	0	0	0	0	0		1	0	0	0	0	0	0	0
012513	08:06:30	10032	Trial	ResponseCL	14	0	175	0	109	08:06:30	2732064	4	3	3	3	1	3	3	3	3	6	3	0	0	0	0	3	3	0	0	0	0	0		1	0	0	0	0	0	0	0
012513	08:06:30	10032	Trial	CongruentLeft	14	203	439	1	109	08:06:30	2732530	4	3	3	3	1	3	3	3	3	6	3	0	0	0	0	3	3	0	0	0	0	0		1	0	0	0	0	0	0	0
012513	08:06:30	10032	Trial	ResponseIL	14	0	175	0	109	08:06:30	2733770	4	3	3	3	1	3	3	3	3	6	3	0	0	0	0	3	3	0	0	0	0	0		1	0	0	0	0	0	0	0
012513	08:06:30	10032	Trial	IncongruentLeft	14	203	398	1	109	08:06:30	2734196	4	3	3	3	1	3	3	3	3	6	3	0	0	0	0	3	3	0	0	0	0	0		1	0	0	0	0	0	0	0
012513	08:06:30	10032	Trial	ResponseCR	14	0	175	0	109	08:06:30	2735476	4	3	3	3	1	3	3	3	3	6	3	0	0	0	0	3	3	0	0	0	0	0		1	0	0	0	0	0	0	0
012513	08:06:30	10032	Trial	CongruentRight	14	205	243	1	109	08:06:30	2735742	4	3	3	3	1	3	3	3	3	6	3	0	0	0	0	3	3	0	0	0	0	0		1	0	0	0	0	0	0	0
012513	08:06:30	10032	Trial	ResponseCL	14	0	175	0	109	08:06:30	2737182	4	3	3	3	1	3	3	3	3	6	3	0	0	0	0	3	3	0	0	0	0	0		1	0	0	0	0	0	0	0
012513	08:06:30	10032	Trial	CongruentLeft	14	203	377	1	109	08:06:30	2737582	4	3	3	3	1	3	3	3	3	6	3	0	0	0	0	3	3	0	0	0	0	0		1	0	0	0	0	0	0	0
012513	08:06:30	10032	Trial	ResponseIR	14	0	175	0	109	08:06:30	2738888	4	3	3	3	1	3	3	3	3	6	3	0	0	0	0	3	3	0	0	0	0	0		1	0	0	0	0	0	0	0
012513	08:06:30	10032	Trial	IncongruentRight	14	205	464	1	109	08:06:30	2739368	4	3	3	3	1	3	3	3	3	6	3	0	0	0	0	3	3	0	0	0	0	0		1	0	0	0	0	0	0	0
012513	08:06:30	10032	Trial	ResponseCL	14	0	175	0	109	08:06:30	2740594	4	3	3	3	1	3	3	3	3	6	3	0	0	0	0	3	3	0	0	0	0	0		1	0	0	0	0	0	0	0
012513	08:06:30	10032	Trial	CongruentLeft	14	203	263	1	109	08:06:30	2740873	4	3	3	3	1	3	3	3	3	6	3	0	0	0	0	3	3	0	0	0	0	0		1	0	0	0	0	0	0	0
012513	08:06:30	10032	Trial	ResponseCR	14	0	175	0	109	08:06:30	2742300	4	3	3	3	1	3	3	3	3	6	3	0	0	0	0	3	3	0	0	0	0	0		1	0	0	0	0	0	0	0
012513	08:06:30	10032	Trial	CongruentRight	14	205	204	1	109	08:06:30	2742526	4	3	3	3	1	3	3	3	3	6	3	0	0	0	0	3	3	0	0	0	0	0		1	0	0	0	0	0	0	0
012513	08:06:30	10032	Trial	ResponseIL	14	0	175	0	109	08:06:30	2744006	4	3	3	3	1	3	3	3	3	6	3	0	0	0	0	3	3	0	0	0	0	0		1	0	0	0	0	0	0	0
012513	08:06:30	10032	Trial	IncongruentLeft	14	203	241	1	109	08:06:30	2744272	4	3	3	3	1	3	3	3	3	6	3	0	0	0	0	3	3	0	0	0	0	0		1	0	0	0	0	0	0	0
012513	08:06:30	10032	WordsAbsFr6mo	PAbsFr6mo1	16	Abs1	5856	0	109	08:06:30	2763118	4	3	3	3	1	3	3	3	3	6	3	0	0	0	0	3	3	0	0	0	0	0		1	0	0	0	0	0	0	0
012513	08:06:30	10032	WordsAbsFr6mo	AbsFr6mo1	16	Abs1	3062	0	109	08:06:30	2766210	4	3	3	3	1	3	3	3	3	6	3	1	0	0	0	3	3	0	0	0	0	0		1	0	0	0	0	0	0	0
012513	08:06:30	10032	WordsAbsFr6mo	AbsFr6mo2	16	Abs2	11409	0	109	08:06:30	2777659	4	3	3	3	1	3	3	3	3	6	3	1	0	0	0	3	3	0	0	0	0	0		1	0	0	0	0	0	0	0
012513	08:06:30	10032	WordsAbsFr6mo	AbsFr6mo3	16	Abs2	9528	0	109	08:06:30	2787228	4	3	3	3	1	3	3	3	3	6	3	1	0	0	0	3	3	0	0	0	0	0		1	0	0	0	0	0	0	0
012513	08:06:30	10032	Trial2BackFrS	NS	17	0	1000	1	109	08:06:30	2846724	4	3	3	3	1	3	3	3	3	6	3	1	0	0	0	3	3	0	0	0	0	0		1	0	0	0	0	0	0	0
012513	08:06:30	10032	Trial2BackFrS	NS	17	0	1000	1	109	08:06:30	2848230	4	3	3	3	1	3	3	3	3	6	3	1	0	0	0	3	3	0	0	0	0	0		1	0	0	0	0	0	0	0
012513	08:06:30	10032	Trial2BackFrS	NS	17	0	1000	1	109	08:06:30	2849736	4	3	3	3	1	3	3	3	3	6	3	1	0	0	0	3	3	0	0	0	0	0		1	0	0	0	0	0	0	0
012513	08:06:30	10032	Trial2BackFrS	YS	17	0	1000	0	109	08:06:30	2851242	4	3	3	3	1	3	3	3	3	6	3	1	0	0	0	3	3	0	0	0	0	0		1	0	0	0	0	0	0	0
012513	08:06:30	10032	Trial2BackFrS	NS	17	0	1000	1	109	08:06:30	2852748	4	3	3	3	1	3	3	3	3	6	3	1	0	0	0	3	3	0	0	0	0	0		1	0	0	0	0	0	0	0
012513	08:06:30	10032	Trial2BackFrS	NS	17	0	1000	1	109	08:06:30	2854254	4	3	3	3	1	3	3	3	3	6	3	1	0	0	0	3	3	0	0	0	0	0		1	0	0	0	0	0	0	0
012513	08:06:30	10032	Trial2BackFrS	NS	17	0	1000	1	109	08:06:30	2855760	4	3	3	3	1	3	3	3	3	6	3	1	0	0	0	3	3	0	0	0	0	0		1	0	0	0	0	0	0	0
012513	08:06:30	10032	Trial2BackFrS	NS	17	0	1000	1	109	08:06:30	2857266	4	3	3	3	1	3	3	3	3	6	3	1	0	0	0	3	3	0	0	0	0	0		1	0	0	0	0	0	0	0
012513	08:06:30	10032	Trial2BackFrS	YS	17	0	1000	0	109	08:06:30	2858773	4	3	3	3	1	3	3	3	3	6	3	1	0	0	0	3	3	0	0	0	0	0		1	0	0	0	0	0	0	0
012513	08:06:30	10032	Trial2BackFrS	NS	17	0	1000	1	109	08:06:30	2860292	4	3	3	3	1	3	3	3	3	6	3	1	0	0	0	3	3	0	0	0	0	0		1	0	0	0	0	0	0	0
012513	08:06:30	10032	Trial2BackFrS	NS	17	0	1000	1	109	08:06:30	2861798	4	3	3	3	1	3	3	3	3	6	3	1	0	0	0	3	3	0	0	0	0	0		1	0	0	0	0	0	0	0
012513	08:06:30	10032	Trial2BackFrS	YS	17	0	1000	0	109	08:06:30	2863304	4	3	3	3	1	3	3	3	3	6	3	1	0	0	0	3	3	0	0	0	0	0		1	0	0	0	0	0	0	0
012513	08:06:30	10032	Trial2BackFrS	NS	17	0	1000	1	109	08:06:30	2864810	4	3	3	3	1	3	3	3	3	6	3	1	0	0	0	3	3	0	0	0	0	0		1	0	0	0	0	0	0	0
012513	08:06:30	10032	Trial2BackFrS	NS	17	0	1000	1	109	08:06:30	2866316	4	3	3	3	1	3	3	3	3	6	3	1	0	0	0	3	3	0	0	0	0	0		1	0	0	0	0	0	0	0
012513	08:06:30	10032	Trial2BackFrS	NS	17	0	1000	1	109	08:06:30	2867822	4	3	3	3	1	3	3	3	3	6	3	1	0	0	0	3	3	0	0	0	0	0		1	0	0	0	0	0	0	0
012513	08:06:30	10032	Trial2BackFrS	YS	17	0	1000	0	109	08:06:30	2869328	4	3	3	3	1	3	3	3	3	6	3	1	0	0	0	3	3	0	0	0	0	0		1	0	0	0	0	0	0	0
012513	08:06:30	10032	Trial2BackFrS	NS	17	0	1000	1	109	08:06:30	2870834	4	3	3	3	1	3	3	3	3	6	3	1	0	0	0	3	3	0	0	0	0	0		1	0	0	0	0	0	0	0
012513	08:06:30	10032	Trial2BackFrS	NS	17	0	1000	1	109	08:06:30	2872340	4	3	3	3	1	3	3	3	3	6	3	1	0	0	0	3	3	0	0	0	0	0		1	0	0	0	0	0	0	0
012513	08:06:30	10032	Trial2BackFrS	NS	17	57	676	0	109	08:06:30	2873526	4	3	3	3	1	3	3	3	3	6	3	1	0	0	0	3	3	0	0	0	0	0		1	0	0	0	0	0	0	0
012513	08:06:30	10032	Trial2BackFrS	NS	17	0	1000	1	109	08:06:30	2875352	4	3	3	3	1	3	3	3	3	6	3	1	0	0	0	3	3	0	0	0	0	0		1	0	0	0	0	0	0	0
012513	08:06:30	10032	Trial2BackFrS	YS	17	57	688	1	109	08:06:30	2876552	4	3	3	3	1	3	3	3	3	6	3	1	0	0	0	3	3	0	0	0	0	0		1	0	0	0	0	0	0	0
012513	08:06:30	10032	Trial2BackFrS	NS	17	0	1000	1	109	08:06:30	2878364	4	3	3	3	1	3	3	3	3	6	3	1	0	0	0	3	3	0	0	0	0	0		1	0	0	0	0	0	0	0
012513	08:06:30	10032	Trial2BackFrS	NS	17	0	1000	1	109	08:06:30	2879871	4	3	3	3	1	3	3	3	3	6	3	1	0	0	0	3	3	0	0	0	0	0		1	0	0	0	0	0	0	0
012513	08:06:30	10032	Trial2BackFrS	NS	17	0	1000	1	109	08:06:30	2881376	4	3	3	3	1	3	3	3	3	6	3	1	0	0	0	3	3	0	0	0	0	0		1	0	0	0	0	0	0	0
012513	08:06:30	10032	Trial2BackFrS	NS	17	0	1000	1	109	08:06:30	2882883	4	3	3	3	1	3	3	3	3	6	3	1	0	0	0	3	3	0	0	0	0	0		1	0	0	0	0	0	0	0
012513	08:06:30	10032	Trial2BackFrS	NS	17	0	1000	1	109	08:06:30	2884389	4	3	3	3	1	3	3	3	3	6	3	1	0	0	0	3	3	0	0	0	0	0		1	0	0	0	0	0	0	0
012513	08:06:30	10032	Trial2BackFrS	NS	17	0	1000	1	109	08:06:30	2885895	4	3	3	3	1	3	3	3	3	6	3	1	0	0	0	3	3	0	0	0	0	0		1	0	0	0	0	0	0	0
012513	08:06:30	10032	Trial2BackFrS	NS	17	0	1000	1	109	08:06:30	2887401	4	3	3	3	1	3	3	3	3	6	3	1	0	0	0	3	3	0	0	0	0	0		1	0	0	0	0	0	0	0
012513	08:06:30	10032	Trial2BackFrS	NS	17	0	1000	1	109	08:06:30	2888909	4	3	3	3	1	3	3	3	3	6	3	1	0	0	0	3	3	0	0	0	0	0		1	0	0	0	0	0	0	0
012513	08:06:30	10032	Trial2BackFrS	NS	17	0	1000	1	109	08:06:30	2890426	4	3	3	3	1	3	3	3	3	6	3	1	0	0	0	3	3	0	0	0	0	0		1	0	0	0	0	0	0	0
012513	08:06:30	10032	Trial2BackFrS	NS	17	0	1000	1	109	08:06:30	2891946	4	3	3	3	1	3	3	3	3	6	3	1	0	0	0	3	3	0	0	0	0	0		1	0	0	0	0	0	0	0
012513	08:06:30	10032	Trial2BackFrS	YS	17	0	1000	0	109	08:06:30	2893452	4	3	3	3	1	3	3	3	3	6	3	1	0	0	0	3	3	0	0	0	0	0		1	0	0	0	0	0	0	0
012513	08:06:30	10032	Trial2BackFrS	NS	17	0	1000	1	109	08:06:30	2894958	4	3	3	3	1	3	3	3	3	6	3	1	0	0	0	3	3	0	0	0	0	0		1	0	0	0	0	0	0	0
012513	08:06:30	10032	Trial2BackFrS	NS	17	0	1000	1	109	08:06:30	2896464	4	3	3	3	1	3	3	3	3	6	3	1	0	0	0	3	3	0	0	0	0	0		1	0	0	0	0	0	0	0
012513	08:06:30	10032	Trial2BackFrS	NS	17	0	1000	1	109	08:06:30	2897970	4	3	3	3	1	3	3	3	3	6	3	1	0	0	0	3	3	0	0	0	0	0		1	0	0	0	0	0	0	0
012513	08:06:30	10032	Trial2BackFrS	YS	17	0	1000	0	109	08:06:30	2899476	4	3	3	3	1	3	3	3	3	6	3	1	0	0	0	3	3	0	0	0	0	0		1	0	0	0	0	0	0	0
012513	08:06:30	10032	Trial2BackFrS	NS	17	57	739	0	109	08:06:30	2900729	4	3	3	3	1	3	3	3	3	6	3	1	0	0	0	3	3	0	0	0	0	0		1	0	0	0	0	0	0	0
012513	08:06:30	10032	Trial2BackFrS	NS	17	0	1000	1	109	08:06:30	2902488	4	3	3	3	1	3	3	3	3	6	3	1	0	0	0	3	3	0	0	0	0	0		1	0	0	0	0	0	0	0
012513	08:06:30	10032	Trial2BackFrS	NS	17	0	1000	1	109	08:06:30	2903994	4	3	3	3	1	3	3	3	3	6	3	1	0	0	0	3	3	0	0	0	0	0		1	0	0	0	0	0	0	0
012513	08:06:30	10032	Trial2BackFrS	NS	17	0	1000	1	109	08:06:30	2905500	4	3	3	3	1	3	3	3	3	6	3	1	0	0	0	3	3	0	0	0	0	0		1	0	0	0	0	0	0	0
012513	08:06:30	10032	Trial2BackFrS	NS	17	0	1000	1	109	08:06:30	2907006	4	3	3	3	1	3	3	3	3	6	3	1	0	0	0	3	3	0	0	0	0	0		1	0	0	0	0	0	0	0
012513	08:06:30	10032	Trial2BackFrS	NS	17	0	1000	1	109	08:06:30	2908512	4	3	3	3	1	3	3	3	3	6	3	1	0	0	0	3	3	0	0	0	0	0		1	0	0	0	0	0	0	0
012513	08:06:30	10032	Trial2BackFrS	NS	17	0	1000	1	109	08:06:30	2910018	4	3	3	3	1	3	3	3	3	6	3	1	0	0	0	3	3	0	0	0	0	0		1	0	0	0	0	0	0	0
012513	08:06:30	10032	Trial2BackFrS	YS	17	0	1000	0	109	08:06:30	2911524	4	3	3	3	1	3	3	3	3	6	3	1	0	0	0	3	3	0	0	0	0	0		1	0	0	0	0	0	0	0
012513	08:06:30	10032	Trial2BackFrS	NS	17	0	1000	1	109	08:06:30	2913030	4	3	3	3	1	3	3	3	3	6	3	1	0	0	0	3	3	0	0	0	0	0		1	0	0	0	0	0	0	0
012513	08:06:30	10032	Trial2BackFrS	NS	17	0	1000	1	109	08:06:30	2914537	4	3	3	3	1	3	3	3	3	6	3	1	0	0	0	3	3	0	0	0	0	0		1	0	0	0	0	0	0	0
012513	08:06:30	10032	Trial2BackFrS	NS	17	0	1000	1	109	08:06:30	2916043	4	3	3	3	1	3	3	3	3	6	3	1	0	0	0	3	3	0	0	0	0	0		1	0	0	0	0	0	0	0
012513	08:06:30	10032	Trial2BackFrS	NS	17	0	1000	1	109	08:06:30	2917549	4	3	3	3	1	3	3	3	3	6	3	1	0	0	0	3	3	0	0	0	0	0		1	0	0	0	0	0	0	0
012513	08:06:30	10032	Trial2BackFrS	YS	17	57	762	1	109	08:06:30	2918828	4	3	3	3	1	3	3	3	3	6	3	1	0	0	0	3	3	0	0	0	0	0		1	0	0	0	0	0	0	0
012513	08:06:30	10032	Trial2BackFrS	NS	17	0	1000	1	109	08:06:30	2920561	4	3	3	3	1	3	3	3	3	6	3	1	0	0	0	3	3	0	0	0	0	0		1	0	0	0	0	0	0	0
012513	08:06:30	10032	Trial2BackFrS	NS	17	0	1000	1	109	08:06:30	2922067	4	3	3	3	1	3	3	3	3	6	3	1	0	0	0	3	3	0	0	0	0	0		1	0	0	0	0	0	0	0
012513	08:06:30	10032	Trial2BackFrS	NS	17	0	1000	1	109	08:06:30	2923573	4	3	3	3	1	3	3	3	3	6	3	1	0	0	0	3	3	0	0	0	0	0		1	0	0	0	0	0	0	0
012513	08:06:30	10032	Trial2BackFrS	NS	17	0	1000	1	109	08:06:30	2925079	4	3	3	3	1	3	3	3	3	6	3	1	0	0	0	3	3	0	0	0	0	0		1	0	0	0	0	0	0	0
012513	08:06:30	10032	Trial2BackFrS	NS	17	0	1000	1	109	08:06:30	2926585	4	3	3	3	1	3	3	3	3	6	3	1	0	0	0	3	3	0	0	0	0	0		1	0	0	0	0	0	0	0
012513	08:06:30	10032	Trial2BackFrS	NS	17	0	1000	1	109	08:06:30	2928091	4	3	3	3	1	3	3	3	3	6	3	1	0	0	0	3	3	0	0	0	0	0		1	0	0	0	0	0	0	0
012513	08:06:30	10032	Trial2BackFrS	YS	17	0	1000	0	109	08:06:30	2929597	4	3	3	3	1	3	3	3	3	6	3	1	0	0	0	3	3	0	0	0	0	0		1	0	0	0	0	0	0	0
012513	08:06:30	10032	Trial2BackFrS	NS	17	0	1000	1	109	08:06:30	2931117	4	3	3	3	1	3	3	3	3	6	3	1	0	0	0	3	3	0	0	0	0	0		1	0	0	0	0	0	0	0
012513	08:06:30	10032	Trial2BackFrS	NS	17	0	1000	1	109	08:06:30	2932623	4	3	3	3	1	3	3	3	3	6	3	1	0	0	0	3	3	0	0	0	0	0		1	0	0	0	0	0	0	0
012513	08:06:30	10032	Trial2BackFrS	NS	17	0	1000	1	109	08:06:30	2934129	4	3	3	3	1	3	3	3	3	6	3	1	0	0	0	3	3	0	0	0	0	0		1	0	0	0	0	0	0	0
012513	08:06:30	10032	Trial2BackFrS	NS	17	0	1000	1	109	08:06:30	2935635	4	3	3	3	1	3	3	3	3	6	3	1	0	0	0	3	3	0	0	0	0	0		1	0	0	0	0	0	0	0
012513	08:06:30	10032	Trial2BackFrS	NS	17	0	1000	1	109	08:06:30	2937141	4	3	3	3	1	3	3	3	3	6	3	1	0	0	0	3	3	0	0	0	0	0		1	0	0	0	0	0	0	0
012513	08:06:30	10032	Trial2BackFrS	NS	17	0	1000	1	109	08:06:30	2938647	4	3	3	3	1	3	3	3	3	6	3	1	0	0	0	3	3	0	0	0	0	0		1	0	0	0	0	0	0	0
012513	08:06:30	10032	Trial2BackFrS	NS	17	57	960	0	109	08:06:30	2940126	4	3	3	3	1	3	3	3	3	6	3	1	0	0	0	3	3	0	0	0	0	0		1	0	0	0	0	0	0	0
012513	08:06:30	10032	Trial2BackFrS	YS	17	0	1000	0	109	08:06:30	2941659	4	3	3	3	1	3	3	3	3	6	3	1	0	0	0	3	3	0	0	0	0	0		1	0	0	0	0	0	0	0
012513	08:06:30	10032	Trial2BackFrS	NS	17	0	1000	1	109	08:06:30	2943165	4	3	3	3	1	3	3	3	3	6	3	1	0	0	0	3	3	0	0	0	0	0		1	0	0	0	0	0	0	0
012513	08:06:30	10032	Trial2BackFrS	NS	17	0	1000	1	109	08:06:30	2944671	4	3	3	3	1	3	3	3	3	6	3	1	0	0	0	3	3	0	0	0	0	0		1	0	0	0	0	0	0	0
012513	08:06:30	10032	Trial2BackFrS	NS	17	0	1000	1	109	08:06:30	2946177	4	3	3	3	1	3	3	3	3	6	3	1	0	0	0	3	3	0	0	0	0	0		1	0	0	0	0	0	0	0
012513	08:06:30	10032	Trial2BackFrS	NS	17	0	1000	1	109	08:06:30	2947683	4	3	3	3	1	3	3	3	3	6	3	1	0	0	0	3	3	0	0	0	0	0		1	0	0	0	0	0	0	0
012513	08:06:30	10032	Trial2BackFrS	YS	17	0	1000	0	109	08:06:30	2949189	4	3	3	3	1	3	3	3	3	6	3	1	0	0	0	3	3	0	0	0	0	0		1	0	0	0	0	0	0	0
012513	08:06:30	10032	Trial2BackFrS	NS	17	0	1000	1	109	08:06:30	2950695	4	3	3	3	1	3	3	3	3	6	3	1	0	0	0	3	3	0	0	0	0	0		1	0	0	0	0	0	0	0
012513	08:06:30	10032	Trial2BackFrS	NS	17	0	1000	1	109	08:06:30	2952201	4	3	3	3	1	3	3	3	3	6	3	1	0	0	0	3	3	0	0	0	0	0		1	0	0	0	0	0	0	0
012513	08:06:30	10032	Trial2BackFrS	YS	17	0	1000	0	109	08:06:30	2953721	4	3	3	3	1	3	3	3	3	6	3	1	0	0	0	3	3	0	0	0	0	0		1	0	0	0	0	0	0	0
012513	08:06:30	10032	Trial2BackFrS	NS	17	0	1000	1	109	08:06:30	2955253	4	3	3	3	1	3	3	3	3	6	3	1	0	0	0	3	3	0	0	0	0	0		1	0	0	0	0	0	0	0
012513	08:06:30	10032	Trial2BackFrS	NS	17	0	1000	1	109	08:06:30	2956759	4	3	3	3	1	3	3	3	3	6	3	1	0	0	0	3	3	0	0	0	0	0		1	0	0	0	0	0	0	0
012513	08:06:30	10032	Trial2BackFrS	NS	17	0	1000	1	109	08:06:30	2958265	4	3	3	3	1	3	3	3	3	6	3	1	0	0	0	3	3	0	0	0	0	0		1	0	0	0	0	0	0	0
012513	08:06:30	10032	Trial2BackFrS	NS	17	0	1000	1	109	08:06:30	2959772	4	3	3	3	1	3	3	3	3	6	3	1	0	0	0	3	3	0	0	0	0	0		1	0	0	0	0	0	0	0
012513	08:06:30	10032	Trial2BackFrS	NS	17	0	1000	1	109	08:06:30	2961278	4	3	3	3	1	3	3	3	3	6	3	1	0	0	0	3	3	0	0	0	0	0		1	0	0	0	0	0	0	0
012513	08:06:30	10032	Trial2BackFrS	NS	17	0	1000	1	109	08:06:30	2962784	4	3	3	3	1	3	3	3	3	6	3	1	0	0	0	3	3	0	0	0	0	0		1	0	0	0	0	0	0	0
012513	08:06:30	10032	Trial2BackFrS	YS	17	57	966	1	109	08:06:30	2964263	4	3	3	3	1	3	3	3	3	6	3	1	0	0	0	3	3	0	0	0	0	0		1	0	0	0	0	0	0	0
012513	08:06:30	10032	Trial2BackFrS	NS	17	0	1000	1	109	08:06:30	2965796	4	3	3	3	1	3	3	3	3	6	3	1	0	0	0	3	3	0	0	0	0	0		1	0	0	0	0	0	0	0
012513	08:06:30	10032	Trial2BackFrS	NS	17	0	1000	1	109	08:06:30	2967302	4	3	3	3	1	3	3	3	3	6	3	1	0	0	0	3	3	0	0	0	0	0		1	0	0	0	0	0	0	0
012513	08:06:30	10032	Trial2BackFrS	NS	17	0	1000	1	109	08:06:30	2968808	4	3	3	3	1	3	3	3	3	6	3	1	0	0	0	3	3	0	0	0	0	0		1	0	0	0	0	0	0	0
012513	08:06:30	10032	Trial2BackFrS	NS	17	0	1000	1	109	08:06:30	2970314	4	3	3	3	1	3	3	3	3	6	3	1	0	0	0	3	3	0	0	0	0	0		1	0	0	0	0	0	0	0
012513	08:06:30	10032	Trial2BackFrS	YS	17	0	1000	0	109	08:06:30	2971820	4	3	3	3	1	3	3	3	3	6	3	1	0	0	0	3	3	0	0	0	0	0		1	0	0	0	0	0	0	0
012513	08:06:30	10032	Trial2BackFrS	NS	17	0	1000	1	109	08:06:30	2973326	4	3	3	3	1	3	3	3	3	6	3	1	0	0	0	3	3	0	0	0	0	0		1	0	0	0	0	0	0	0
012513	08:06:30	10032	Trial2BackFrS	NS	17	0	1000	1	109	08:06:30	2974832	4	3	3	3	1	3	3	3	3	6	3	1	0	0	0	3	3	0	0	0	0	0		1	0	0	0	0	0	0	0
012513	08:06:30	10032	Trial2BackFrS	NS	17	0	1000	1	109	08:06:30	2976338	4	3	3	3	1	3	3	3	3	6	3	1	0	0	0	3	3	0	0	0	0	0		1	0	0	0	0	0	0	0
012513	08:06:30	10032	Trial2BackFrS	NS	17	0	1000	1	109	08:06:30	2977844	4	3	3	3	1	3	3	3	3	6	3	1	0	0	0	3	3	0	0	0	0	0		1	0	0	0	0	0	0	0
012513	08:06:30	10032	Trial2BackFrS	YS	17	0	1000	0	109	08:06:30	2979350	4	3	3	3	1	3	3	3	3	6	3	1	0	0	0	3	3	0	0	0	0	0		1	0	0	0	0	0	0	0
012513	08:06:30	10032	Trial2BackFrS	NS	17	0	1000	1	109	08:06:30	2980856	4	3	3	3	1	3	3	3	3	6	3	1	0	0	0	3	3	0	0	0	0	0		1	0	0	0	0	0	0	0
012513	08:06:30	10032	Trial2BackFrS	NS	17	0	1000	1	109	08:06:30	2982376	4	3	3	3	1	3	3	3	3	6	3	1	0	0	0	3	3	0	0	0	0	0		1	0	0	0	0	0	0	0
012513	08:06:30	10032	Trial2BackFrS	YS	17	57	494	1	109	08:06:30	2983389	4	3	3	3	1	3	3	3	3	6	3	1	0	0	0	3	3	0	0	0	0	0		1	0	0	0	0	0	0	0
012513	08:06:30	10032	Trial2BackFrS	NS	17	0	1000	1	109	08:06:30	2985388	4	3	3	3	1	3	3	3	3	6	3	1	0	0	0	3	3	0	0	0	0	0		1	0	0	0	0	0	0	0
012513	08:06:30	10032	Trial2BackFrS	NS	17	0	1000	1	109	08:06:30	2986894	4	3	3	3	1	3	3	3	3	6	3	1	0	0	0	3	3	0	0	0	0	0		1	0	0	0	0	0	0	0
012513	08:06:30	10032	Trial2BackFrS	NS	17	0	1000	1	109	08:06:30	2988400	4	3	3	3	1	3	3	3	3	6	3	1	0	0	0	3	3	0	0	0	0	0		1	0	0	0	0	0	0	0
012513	08:06:30	10032	Trial2BackFrS	NS	17	0	1000	1	109	08:06:30	2989906	4	3	3	3	1	3	3	3	3	6	3	1	0	0	0	3	3	0	0	0	0	0		1	0	0	0	0	0	0	0
012513	08:06:30	10032	Trial2BackFrS	NS	17	0	1000	1	109	08:06:30	2991412	4	3	3	3	1	3	3	3	3	6	3	1	0	0	0	3	3	0	0	0	0	0		1	0	0	0	0	0	0	0
012513	08:06:30	10032	Trial2BackFrS	NS	17	0	1000	1	109	08:06:30	2992919	4	3	3	3	1	3	3	3	3	6	3	1	0	0	0	3	3	0	0	0	0	0		1	0	0	0	0	0	0	0
012513	08:06:30	10032	Trial2BackFrS	NS	17	0	1000	1	109	08:06:30	2994424	4	3	3	3	1	3	3	3	3	6	3	1	0	0	0	3	3	0	0	0	0	0		1	0	0	0	0	0	0	0
012513	08:06:30	10032	Trial2BackFrS	NS	17	0	1000	1	109	08:06:30	2995944	4	3	3	3	1	3	3	3	3	6	3	1	0	0	0	3	3	0	0	0	0	0		1	0	0	0	0	0	0	0
012513	08:06:30	10032	Trial2BackFrS	YS	17	0	1000	0	109	08:06:30	2997450	4	3	3	3	1	3	3	3	3	6	3	1	0	0	0	3	3	0	0	0	0	0		1	0	0	0	0	0	0	0
012513	08:06:30	10032	Trial2BackFrS	NS	17	0	1000	1	109	08:06:30	2998956	4	3	3	3	1	3	3	3	3	6	3	1	0	0	0	3	3	0	0	0	0	0		1	0	0	0	0	0	0	0
012513	08:06:30	10032	Trial2BackFrS	NS	17	57	490	0	109	08:06:30	2999955	4	3	3	3	1	3	3	3	3	6	3	1	0	0	0	3	3	0	0	0	0	0		1	0	0	0	0	0	0	0
012513	08:06:30	10032	Trial2BackFrS	NS	17	0	1000	1	109	08:06:30	3001968	4	3	3	3	1	3	3	3	3	6	3	1	0	0	0	3	3	0	0	0	0	0		1	0	0	0	0	0	0	0
012513	08:06:30	10032	Trial2BackFrS	NS	17	0	1000	1	109	08:06:30	3003474	4	3	3	3	1	3	3	3	3	6	3	1	0	0	0	3	3	0	0	0	0	0		1	0	0	0	0	0	0	0
012513	08:06:30	10032	Trial2BackFrS	NS	17	0	1000	1	109	08:06:30	3004980	4	3	3	3	1	3	3	3	3	6	3	1	0	0	0	3	3	0	0	0	0	0		1	0	0	0	0	0	0	0
012513	08:06:30	10032	Trial2BackFrS	NS	17	0	1000	1	109	08:06:30	3006486	4	3	3	3	1	3	3	3	3	6	3	1	0	0	0	3	3	0	0	0	0	0		1	0	0	0	0	0	0	0
012513	08:06:30	10032	Trial2BackFrS	NS	17	57	607	0	109	08:06:30	3007605	4	3	3	3	1	3	3	3	3	6	3	1	0	0	0	3	3	0	0	0	0	0		1	0	0	0	0	0	0	0
012513	08:06:30	10032	Trial2BackFrS	YS	17	0	1000	0	109	08:06:30	3009498	4	3	3	3	1	3	3	3	3	6	3	1	0	0	0	3	3	0	0	0	0	0		1	0	0	0	0	0	0	0
012513	08:06:30	10032	Trial2BackFrS	NS	17	0	1000	1	109	08:06:30	3011005	4	3	3	3	1	3	3	3	3	6	3	1	0	0	0	3	3	0	0	0	0	0		1	0	0	0	0	0	0	0
012513	08:06:30	10032	Trial2BackFrS	NS	17	0	1000	1	109	08:06:30	3012510	4	3	3	3	1	3	3	3	3	6	3	1	0	0	0	3	3	0	0	0	0	0		1	0	0	0	0	0	0	0
012513	08:06:30	10032	Trial2BackFrS	NS	17	0	1000	1	109	08:06:30	3014016	4	3	3	3	1	3	3	3	3	6	3	1	0	0	0	3	3	0	0	0	0	0		1	0	0	0	0	0	0	0
012513	08:06:30	10032	Trial2BackFrS	NS	17	0	1000	1	109	08:06:30	3015536	4	3	3	3	1	3	3	3	3	6	3	1	0	0	0	3	3	0	0	0	0	0		1	0	0	0	0	0	0	0
012513	08:06:30	10032	Trial2BackFrS	NS	17	0	1000	1	109	08:06:30	3017042	4	3	3	3	1	3	3	3	3	6	3	1	0	0	0	3	3	0	0	0	0	0		1	0	0	0	0	0	0	0
012513	08:06:30	10032	Trial2BackFrS	NS	17	0	1000	1	109	08:06:30	3018548	4	3	3	3	1	3	3	3	3	6	3	1	0	0	0	3	3	0	0	0	0	0		1	0	0	0	0	0	0	0
012513	08:06:30	10032	Trial2BackFrS	NS	17	0	1000	1	109	08:06:30	3020054	4	3	3	3	1	3	3	3	3	6	3	1	0	0	0	3	3	0	0	0	0	0		1	0	0	0	0	0	0	0
012513	08:06:30	10032	Trial2BackFrS	NS	17	0	1000	1	109	08:06:30	3021560	4	3	3	3	1	3	3	3	3	6	3	1	0	0	0	3	3	0	0	0	0	0		1	0	0	0	0	0	0	0
012513	08:06:30	10032	Trial2BackFrS	NS	17	0	1000	1	109	08:06:30	3023066	4	3	3	3	1	3	3	3	3	6	3	1	0	0	0	3	3	0	0	0	0	0		1	0	0	0	0	0	0	0
012513	08:06:30	10032	Trial2BackFrS	YS	17	0	1000	0	109	08:06:30	3024572	4	3	3	3	1	3	3	3	3	6	3	1	0	0	0	3	3	0	0	0	0	0		1	0	0	0	0	0	0	0
012513	08:06:30	10032	Trial2BackFrS	NS	17	0	1000	1	109	08:06:30	3026078	4	3	3	3	1	3	3	3	3	6	3	1	0	0	0	3	3	0	0	0	0	0		1	0	0	0	0	0	0	0
012513	08:06:30	10032	ClockFr6mo	ClockFr6mo	19	Clock1	23736	0	109	08:06:30	3049949	4	3	3	3	1	3	3	3	3	6	3	1	1	0	0	3	3	0	0	0	0	0		1	0	0	0	0	0	0	0
012513	08:06:30	10032	ClockFr6mo	ClockFr6mo	19	Clock11	8863	0	109	08:06:30	3058891	4	3	3	3	1	3	3	3	3	6	3	1	1	1	0	3	3	0	0	0	0	0		1	0	0	0	0	0	0	0
012513	08:06:30	10032	ClockFr6mo	ClockFr6mo	19	Clock111	16967	0	109	08:06:30	3075938	4	3	3	3	1	3	3	3	3	6	3	1	1	1	1	3	3	0	0	0	0	0		1	0	0	0	0	0	0	0
012513	08:06:30	10032	ClockFr6mo	ClockFr6mo	19	Clockdone	835	0	109	08:06:30	3076831	4	3	3	3	1	3	3	3	3	6	3	1	1	1	1	3	3	0	0	0	0	0		1	0	0	0	0	0	0	0
012513	08:06:30	10032	FASFrVF6mo	StopFrVF6mo	20	9	4391	0	109	08:06:30	3191746	4	3	3	3	1	3	3	3	3	6	3	1	1	1	1	3	3	0	0	0	0	0		1	0	0	0	0	0	0	0
012513	08:06:30	10032	practiceTOLFR	choice	20	R	16995	0	109	08:06:30	3322083	4	3	3	3	1	3	3	3	3	6	3	1	1	1	1	3	3	0	1	2	0	-2	R	0	0	0	17069	0	0	3305013	3322082
012513	08:06:30	10032	practiceTOLFR	choice	20	B	4181	0	109	08:06:30	3332555	4	3	3	3	1	3	3	3	3	6	3	1	1	1	1	3	3	0	1	2	1	-1	R3B	0	0	0	17069	0	0	3328326	3332554
012513	08:06:30	10032	practiceTOLFR	feedbackFR	20	0	2000	0	109	08:06:30	3338508	4	3	3	3	1	3	3	3	3	6	3	1	1	1	1	3	3	0	1	2	2	0	R3B1	1	3	3	17069	14389	31458	3328326	3332554
012513	08:06:30	10032	testTOLFR	choice	20	B	16929	0	109	08:06:30	3364466	4	3	3	3	1	3	3	3	3	6	3	1	1	1	1	3	3	2	1	2	0	-2	B	0	0	0	17003	0	0	3347463	3364466
012513	08:06:30	10032	testTOLFR	choice	20	R	1873	0	109	08:06:30	3369082	4	3	3	3	1	3	3	3	3	6	3	1	1	1	1	3	3	2	1	2	1	-1	B3R	0	0	0	17003	0	0	3367157	3369081
012513	08:06:30	10032	testTOLFR	feedbackFR	20	0	2000	0	109	08:06:30	3375844	4	3	3	3	1	3	3	3	3	6	3	1	1	1	1	3	3	2	1	2	2	0	B3R2	1	3	3	17003	9341	26344	3367157	3369081
012513	08:06:30	10032	testTOLFR	choice	20	B	7269	0	109	08:06:30	3384193	4	3	3	3	1	3	3	3	3	6	3	1	1	1	1	3	3	4	1	3	0	-3	B	0	0	3	7336	0	0	3376857	3384193
012513	08:06:30	10032	testTOLFR	choice	20	R	6758	0	109	08:06:30	3395305	4	3	3	3	1	3	3	3	3	6	3	1	1	1	1	3	3	4	1	3	1	-2	B3R	0	0	3	7336	0	0	3388495	3395305
012513	08:06:30	10032	testTOLFR	choice	20	B	2775	0	109	08:06:30	3400585	4	3	3	3	1	3	3	3	3	6	3	1	1	1	1	3	3	4	1	3	2	-1	B3R2B	0	0	3	7336	0	0	3397765	3400585
012513	08:06:30	10032	testTOLFR	choice	20	B	558	0	109	08:06:30	3402393	4	3	3	3	1	3	3	3	3	6	3	1	1	1	1	3	3	4	1	3	3	0	B3R2B3B	0	0	3	7336	0	0	3401789	3402393
012513	08:06:30	10032	testTOLFR	feedbackFR	20	0	2000	0	109	08:06:30	3410081	4	3	3	3	1	3	3	3	3	6	3	1	1	1	1	3	3	4	1	3	4	1	B3R2B3B2	1	0	3	7336	23852	31188	3401789	3402393
012513	08:06:30	10032	testTOLFR	choice	20	B	11423	0	109	08:06:30	3422561	4	3	3	3	1	3	3	3	3	6	3	1	1	1	1	3	3	4	2	3	0	-3	B	0	0	3	11467	0	0	3411093	3422560
012513	08:06:30	10032	testTOLFR	choice	20	R	4164	0	109	08:06:30	3433720	4	3	3	3	1	3	3	3	3	6	3	1	1	1	1	3	3	4	2	3	1	-2	B3R	0	0	3	11467	0	0	3429516	3433720
012513	08:06:30	10032	testTOLFR	choice	20	B	3681	0	109	08:06:30	3441328	4	3	3	3	1	3	3	3	3	6	3	1	1	1	1	3	3	4	2	3	2	-1	B3R2B	0	0	3	11467	0	0	3437596	3441328
012513	08:06:30	10032	testTOLFR	feedbackFR	20	0	2000	0	109	08:06:30	3448256	4	3	3	3	1	3	3	3	3	6	3	1	1	1	1	3	3	4	2	3	3	0	B3R2B2	1	2	5	11467	23656	35123	3437596	3441328
012513	08:06:30	10032	testTOLFR	choice	20	R	19951	0	109	08:06:30	3469287	4	3	3	3	1	3	3	3	3	6	3	1	1	1	1	3	3	7	1	4	0	-4	R	0	0	5	20019	0	0	3449268	3469287
012513	08:06:30	10032	testTOLFR	choice	20	G	2833	0	109	08:06:30	3476719	4	3	3	3	1	3	3	3	3	6	3	1	1	1	1	3	3	7	1	4	1	-3	R2G	0	0	5	20019	0	0	3473835	3476719
012513	08:06:30	10032	testTOLFR	choice	20	R	2674	0	109	08:06:30	3484903	4	3	3	3	1	3	3	3	3	6	3	1	1	1	1	3	3	7	1	4	2	-2	R2G3R	0	0	5	20019	0	0	3482180	3484903
012513	08:06:30	10032	testTOLFR	choice	20	B	2509	0	109	08:06:30	3492815	4	3	3	3	1	3	3	3	3	6	3	1	1	1	1	3	3	7	1	4	3	-1	R2G3R1B	0	0	5	20019	0	0	3490252	3492815
012513	08:06:30	10032	testTOLFR	feedbackFR	20	0	2000	0	109	08:06:30	3500296	4	3	3	3	1	3	3	3	3	6	3	1	1	1	1	3	3	7	1	4	4	0	R2G3R1B1	1	3	8	20019	28972	48991	3490252	3492815
012513	08:06:30	10032	testTOLFR	choice	20	R	12729	0	109	08:06:30	3514111	4	3	3	3	1	3	3	3	3	6	3	1	1	1	1	3	3	10	1	5	0	-5	R	0	0	8	12801	0	0	3501309	3514110
012513	08:06:30	10032	testTOLFR	choice	20	G	6694	0	109	08:06:30	3527734	4	3	3	3	1	3	3	3	3	6	3	1	1	1	1	3	3	10	1	5	1	-4	R3G	0	0	8	12801	0	0	3520996	3527734
012513	08:06:30	10032	testTOLFR	choice	20	R	13566	0	109	08:06:30	3562662	4	3	3	3	1	3	3	3	3	6	3	1	1	1	1	3	3	10	1	5	2	-3	R3G2R	0	0	8	12801	0	0	3549050	3562661
012513	08:06:30	10032	testTOLFR	choice	20	G	3186	0	109	08:06:30	3570821	4	3	3	3	1	3	3	3	3	6	3	1	1	1	1	3	3	10	1	5	3	-2	R3G2R1G	0	0	8	12801	0	0	3567586	3570821
012513	08:06:30	10032	testTOLFR	choice	20	B	2007	0	109	08:06:30	3578478	4	3	3	3	1	3	3	3	3	6	3	1	1	1	1	3	3	10	1	5	4	-1	R3G2R1G3B	0	0	8	12801	0	0	3576419	3578478
012513	08:06:30	10032	testTOLFR	choice	20	G	2795	0	109	08:06:30	3585157	4	3	3	3	1	3	3	3	3	6	3	1	1	1	1	3	3	10	1	5	5	0	R3G2R1G3B1G	0	0	8	12801	0	0	3582314	3585157
012513	08:06:30	10032	testTOLFR	feedbackFR	20	0	2000	0	109	08:06:30	3592706	4	3	3	3	1	3	3	3	3	6	3	1	1	1	1	3	3	10	1	5	6	1	R3G2R1G3B1G1	1	0	8	12801	76557	89358	3582314	3585157
012513	08:06:30	10032	testTOLFR	choice	20	R	11834	0	109	08:06:30	3605605	4	3	3	3	1	3	3	3	3	6	3	1	1	1	1	3	3	10	2	5	0	-5	R	0	0	8	11884	0	0	3593720	3605604
012513	08:06:30	10032	testTOLFR	choice	20	B	5107	0	109	08:06:30	3615645	4	3	3	3	1	3	3	3	3	6	3	1	1	1	1	3	3	10	2	5	1	-4	R3B	0	0	8	11884	0	0	3610481	3615644
012513	08:06:30	10032	testTOLFR	choice	20	R	2555	0	109	08:06:30	3634844	4	3	3	3	1	3	3	3	3	6	3	1	1	1	1	3	3	10	2	5	2	-3	R3B1R	0	0	8	11884	0	0	3632233	3634844
012513	08:06:30	10032	testTOLFR	choice	20	B	6189	0	109	08:06:30	3651340	4	3	3	3	1	3	3	3	3	6	3	1	1	1	1	3	3	10	2	5	3	-2	R3B1R2B	0	0	8	11884	0	0	3645105	3651339
012513	08:06:30	10032	testTOLFR	choice	20	G	7311	0	109	08:06:30	3664404	4	3	3	3	1	3	3	3	3	6	3	1	1	1	1	3	3	10	2	5	4	-1	R3B1R2B3G	0	0	8	11884	0	0	3657040	3664403
012513	08:06:30	10032	testTOLFR	choice	20	nextround	25767	0	109	08:06:30	3705344	4	3	3	3	1	3	3	3	3	6	3	1	1	1	1	3	3	10	2	5	5	0	R3B1R2B3G2nextround	0	0	8	11884	0	0	3679279	3705343
