date	time	subject	blockcode	trialcode	values.TaskNumber	response	latency	correct	values.Score	script.starttime	script.elapsedtime	values.ScoreS7	values.Word1	values.Word2	values.Word3	values.Word4	values.Word5	values.Word6	values.Word7	values.Word8	values.DigitSpanFwrd	values.DigitSpanBack	values.ScoreAbs	values.Contour	values.Numbers	values.Hands	values.corsiblockspanFwrd	values.corsiblockspanRev	values.problemnumber	values.subjectattempts	values.targetmoves	values.subjectmoves	expressions.excessmoves	values.movestring	expressions.targetachieved	values.problemscore	values.totalscoreTOL	expressions.firstmovetime	expressions.executiontime	expressions.solutiontime	values.t_choicestart	values.t_choiceend
010713	10:41:23	10022	Language	Language	0	French	738066	0	0	10:41:23	738171	0	0	0	0	0	0	0	0	0	0	0	0	0	0	0	0	0	0	0	0	0	0		1	0	0	0	0	0	0	0
010713	10:41:23	10022	Session	Session	0	6mo	790	0	0	10:41:23	739023	0	0	0	0	0	0	0	0	0	0	0	0	0	0	0	0	0	0	0	0	0	0		1	0	0	0	0	0	0	0
010713	10:41:23	10022	HandFr	HandFr	0	RightFr	1441	0	0	10:41:23	740529	0	0	0	0	0	0	0	0	0	0	0	0	0	0	0	0	0	0	0	0	0	0		1	0	0	0	0	0	0	0
010713	10:41:23	10022	AudioCheckFr	WordsFr	0	0	0	0	0	10:41:23	2217984	0	0	0	0	0	0	0	0	0	0	0	0	0	0	0	0	0	0	0	0	0	0		1	0	0	0	0	0	0	0
010713	10:41:23	10022	CubeFr	CubeFr	1	1Cube	17556	0	0	10:41:23	2237509	0	0	0	0	0	0	0	0	0	0	0	0	0	0	0	0	0	0	0	0	0	0		1	0	0	0	0	0	0	0
010713	10:41:23	10022	pm.simpleFrRight	blank.simpleFr	2	0	1900	1	0	10:41:23	2251437	0	0	0	0	0	0	0	0	0	0	0	0	0	0	0	0	0	0	0	0	0	0		1	0	0	0	0	0	0	0
010713	10:41:23	10022	pm.simpleFrRight	pm.simpleFr	2	57	636	0	0	10:41:23	2252090	0	0	0	0	0	0	0	0	0	0	0	0	0	0	0	0	0	0	0	0	0	0		1	0	0	0	0	0	0	0
010713	10:41:23	10022	pm.simpleFrRight	blank.simpleFr	2	0	2300	1	0	10:41:23	2254409	0	0	0	0	0	0	0	0	0	0	0	0	0	0	0	0	0	0	0	0	0	0		1	0	0	0	0	0	0	0
010713	10:41:23	10022	pm.simpleFrRight	pm.simpleFr	2	57	304	0	0	10:41:23	2254742	0	0	0	0	0	0	0	0	0	0	0	0	0	0	0	0	0	0	0	0	0	0		1	0	0	0	0	0	0	0
010713	10:41:23	10022	pm.simpleFrRight	blank.simpleFr	2	0	2400	1	0	10:41:23	2257154	0	0	0	0	0	0	0	0	0	0	0	0	0	0	0	0	0	0	0	0	0	0		1	0	0	0	0	0	0	0
010713	10:41:23	10022	pm.simpleFrRight	pm.simpleFr	2	57	294	0	0	10:41:23	2257474	0	0	0	0	0	0	0	0	0	0	0	0	0	0	0	0	0	0	0	0	0	0		1	0	0	0	0	0	0	0
010713	10:41:23	10022	pm.simpleFrRight	blank.simpleFr	2	0	1500	1	0	10:41:23	2258994	0	0	0	0	0	0	0	0	0	0	0	0	0	0	0	0	0	0	0	0	0	0		1	0	0	0	0	0	0	0
010713	10:41:23	10022	pm.simpleFrRight	pm.simpleFr	2	57	375	0	0	10:41:23	2259393	0	0	0	0	0	0	0	0	0	0	0	0	0	0	0	0	0	0	0	0	0	0		1	0	0	0	0	0	0	0
010713	10:41:23	10022	pm.simpleFrRight	blank.simpleFr	2	0	2100	1	0	10:41:23	2261513	0	0	0	0	0	0	0	0	0	0	0	0	0	0	0	0	0	0	0	0	0	0		1	0	0	0	0	0	0	0
010713	10:41:23	10022	pm.simpleFrRight	pm.simpleFr	2	57	272	0	0	10:41:23	2261806	0	0	0	0	0	0	0	0	0	0	0	0	0	0	0	0	0	0	0	0	0	0		1	0	0	0	0	0	0	0
010713	10:41:23	10022	pm.simpleFrRight	blank.simpleFr	2	0	1800	1	0	10:41:23	2263618	0	0	0	0	0	0	0	0	0	0	0	0	0	0	0	0	0	0	0	0	0	0		1	0	0	0	0	0	0	0
010713	10:41:23	10022	pm.simpleFrRight	pm.simpleFr	2	57	310	0	0	10:41:23	2263951	0	0	0	0	0	0	0	0	0	0	0	0	0	0	0	0	0	0	0	0	0	0		1	0	0	0	0	0	0	0
010713	10:41:23	10022	pm.simpleFrRight	blank.simpleFr	2	0	1600	1	0	10:41:23	2265564	0	0	0	0	0	0	0	0	0	0	0	0	0	0	0	0	0	0	0	0	0	0		1	0	0	0	0	0	0	0
010713	10:41:23	10022	pm.simpleFrRight	pm.simpleFr	2	57	300	0	0	10:41:23	2265884	0	0	0	0	0	0	0	0	0	0	0	0	0	0	0	0	0	0	0	0	0	0		1	0	0	0	0	0	0	0
010713	10:41:23	10022	pm.simpleFrRight	blank.simpleFr	2	0	1700	1	0	10:41:23	2267603	0	0	0	0	0	0	0	0	0	0	0	0	0	0	0	0	0	0	0	0	0	0		1	0	0	0	0	0	0	0
010713	10:41:23	10022	pm.simpleFrRight	pm.simpleFr	2	57	309	0	0	10:41:23	2267937	0	0	0	0	0	0	0	0	0	0	0	0	0	0	0	0	0	0	0	0	0	0		1	0	0	0	0	0	0	0
010713	10:41:23	10022	pm.simpleFrRight	blank.simpleFr	2	0	2200	1	0	10:41:23	2270149	0	0	0	0	0	0	0	0	0	0	0	0	0	0	0	0	0	0	0	0	0	0		1	0	0	0	0	0	0	0
010713	10:41:23	10022	pm.simpleFrRight	pm.simpleFr	2	57	275	0	0	10:41:23	2270442	0	0	0	0	0	0	0	0	0	0	0	0	0	0	0	0	0	0	0	0	0	0		1	0	0	0	0	0	0	0
010713	10:41:23	10022	pm.simpleFrRight	blank.simpleFr	2	0	2500	1	0	10:41:23	2272961	0	0	0	0	0	0	0	0	0	0	0	0	0	0	0	0	0	0	0	0	0	0		1	0	0	0	0	0	0	0
010713	10:41:23	10022	pm.simpleFrRight	pm.simpleFr	2	57	253	0	0	10:41:23	2273268	0	0	0	0	0	0	0	0	0	0	0	0	0	0	0	0	0	0	0	0	0	0		1	0	0	0	0	0	0	0
010713	10:41:23	10022	pm.simpleFrRight	blank.simpleFr	2	0	2000	1	0	10:41:23	2275280	0	0	0	0	0	0	0	0	0	0	0	0	0	0	0	0	0	0	0	0	0	0		1	0	0	0	0	0	0	0
010713	10:41:23	10022	pm.simpleFrRight	pm.simpleFr	2	57	279	0	0	10:41:23	2275587	0	0	0	0	0	0	0	0	0	0	0	0	0	0	0	0	0	0	0	0	0	0		1	0	0	0	0	0	0	0
010713	10:41:23	10022	pm.simpleFrRight	blank.simpleFr	2	0	2000	1	0	10:41:23	2277599	0	0	0	0	0	0	0	0	0	0	0	0	0	0	0	0	0	0	0	0	0	0		1	0	0	0	0	0	0	0
010713	10:41:23	10022	pm.simpleFrRight	pm.simpleFr	2	57	313	0	0	10:41:23	2277933	0	0	0	0	0	0	0	0	0	0	0	0	0	0	0	0	0	0	0	0	0	0		1	0	0	0	0	0	0	0
010713	10:41:23	10022	pm.simpleFrRight	blank.simpleFr	2	0	2200	1	0	10:41:23	2280145	0	0	0	0	0	0	0	0	0	0	0	0	0	0	0	0	0	0	0	0	0	0		1	0	0	0	0	0	0	0
010713	10:41:23	10022	pm.simpleFrRight	pm.simpleFr	2	57	263	0	0	10:41:23	2280425	0	0	0	0	0	0	0	0	0	0	0	0	0	0	0	0	0	0	0	0	0	0		1	0	0	0	0	0	0	0
010713	10:41:23	10022	pm.simpleFrRight	blank.simpleFr	2	0	2400	1	0	10:41:23	2282837	0	0	0	0	0	0	0	0	0	0	0	0	0	0	0	0	0	0	0	0	0	0		1	0	0	0	0	0	0	0
010713	10:41:23	10022	pm.simpleFrRight	pm.simpleFr	2	57	243	0	0	10:41:23	2283104	0	0	0	0	0	0	0	0	0	0	0	0	0	0	0	0	0	0	0	0	0	0		1	0	0	0	0	0	0	0
010713	10:41:23	10022	pm.simpleFrRight	blank.simpleFr	2	0	1600	1	0	10:41:23	2284730	0	0	0	0	0	0	0	0	0	0	0	0	0	0	0	0	0	0	0	0	0	0		1	0	0	0	0	0	0	0
010713	10:41:23	10022	pm.simpleFrRight	pm.simpleFr	2	57	254	0	0	10:41:23	2285009	0	0	0	0	0	0	0	0	0	0	0	0	0	0	0	0	0	0	0	0	0	0		1	0	0	0	0	0	0	0
010713	10:41:23	10022	pm.simpleFrRight	blank.simpleFr	2	0	2500	1	0	10:41:23	2287529	0	0	0	0	0	0	0	0	0	0	0	0	0	0	0	0	0	0	0	0	0	0		1	0	0	0	0	0	0	0
010713	10:41:23	10022	pm.simpleFrRight	pm.simpleFr	2	57	223	0	0	10:41:23	2287769	0	0	0	0	0	0	0	0	0	0	0	0	0	0	0	0	0	0	0	0	0	0		1	0	0	0	0	0	0	0
010713	10:41:23	10022	pm.simpleFrRight	blank.simpleFr	2	0	2300	1	0	10:41:23	2290088	0	0	0	0	0	0	0	0	0	0	0	0	0	0	0	0	0	0	0	0	0	0		1	0	0	0	0	0	0	0
010713	10:41:23	10022	pm.simpleFrRight	pm.simpleFr	2	57	240	0	0	10:41:23	2290354	0	0	0	0	0	0	0	0	0	0	0	0	0	0	0	0	0	0	0	0	0	0		1	0	0	0	0	0	0	0
010713	10:41:23	10022	pm.simpleFrRight	blank.simpleFr	2	0	1800	1	0	10:41:23	2292167	0	0	0	0	0	0	0	0	0	0	0	0	0	0	0	0	0	0	0	0	0	0		1	0	0	0	0	0	0	0
010713	10:41:23	10022	pm.simpleFrRight	pm.simpleFr	2	57	289	0	0	10:41:23	2292473	0	0	0	0	0	0	0	0	0	0	0	0	0	0	0	0	0	0	0	0	0	0		1	0	0	0	0	0	0	0
010713	10:41:23	10022	pm.simpleFrRight	blank.simpleFr	2	0	1700	1	0	10:41:23	2294192	0	0	0	0	0	0	0	0	0	0	0	0	0	0	0	0	0	0	0	0	0	0		1	0	0	0	0	0	0	0
010713	10:41:23	10022	pm.simpleFrRight	pm.simpleFr	2	57	343	0	0	10:41:23	2294552	0	0	0	0	0	0	0	0	0	0	0	0	0	0	0	0	0	0	0	0	0	0		1	0	0	0	0	0	0	0
010713	10:41:23	10022	pm.simpleFrRight	blank.simpleFr	2	0	1900	1	0	10:41:23	2296472	0	0	0	0	0	0	0	0	0	0	0	0	0	0	0	0	0	0	0	0	0	0		1	0	0	0	0	0	0	0
010713	10:41:23	10022	pm.simpleFrRight	pm.simpleFr	2	57	272	0	0	10:41:23	2296765	0	0	0	0	0	0	0	0	0	0	0	0	0	0	0	0	0	0	0	0	0	0		1	0	0	0	0	0	0	0
010713	10:41:23	10022	pm.simpleFrRight	blank.simpleFr	2	0	1500	1	0	10:41:23	2298284	0	0	0	0	0	0	0	0	0	0	0	0	0	0	0	0	0	0	0	0	0	0		1	0	0	0	0	0	0	0
010713	10:41:23	10022	pm.simpleFrRight	pm.simpleFr	2	57	396	0	0	10:41:23	2298697	0	0	0	0	0	0	0	0	0	0	0	0	0	0	0	0	0	0	0	0	0	0		1	0	0	0	0	0	0	0
010713	10:41:23	10022	pm.simpleFrRight	blank.simpleFr	2	0	2100	1	0	10:41:23	2300817	0	0	0	0	0	0	0	0	0	0	0	0	0	0	0	0	0	0	0	0	0	0		1	0	0	0	0	0	0	0
010713	10:41:23	10022	pm.simpleFrRight	pm.simpleFr	2	57	279	0	0	10:41:23	2301123	0	0	0	0	0	0	0	0	0	0	0	0	0	0	0	0	0	0	0	0	0	0		1	0	0	0	0	0	0	0
010713	10:41:23	10022	pm.simpleFrRight	blank.simpleFr	2	0	1600	1	0	10:41:23	2302736	0	0	0	0	0	0	0	0	0	0	0	0	0	0	0	0	0	0	0	0	0	0		1	0	0	0	0	0	0	0
010713	10:41:23	10022	pm.simpleFrRight	pm.simpleFr	2	57	328	0	0	10:41:23	2303082	0	0	0	0	0	0	0	0	0	0	0	0	0	0	0	0	0	0	0	0	0	0		1	0	0	0	0	0	0	0
010713	10:41:23	10022	pm.simpleFrRight	blank.simpleFr	2	0	2300	1	0	10:41:23	2305401	0	0	0	0	0	0	0	0	0	0	0	0	0	0	0	0	0	0	0	0	0	0		1	0	0	0	0	0	0	0
010713	10:41:23	10022	pm.simpleFrRight	pm.simpleFr	2	57	254	0	0	10:41:23	2305681	0	0	0	0	0	0	0	0	0	0	0	0	0	0	0	0	0	0	0	0	0	0		1	0	0	0	0	0	0	0
010713	10:41:23	10022	pm.simpleFrRight	blank.simpleFr	2	0	2100	1	0	10:41:23	2307800	0	0	0	0	0	0	0	0	0	0	0	0	0	0	0	0	0	0	0	0	0	0		1	0	0	0	0	0	0	0
010713	10:41:23	10022	pm.simpleFrRight	pm.simpleFr	2	57	271	0	0	10:41:23	2308094	0	0	0	0	0	0	0	0	0	0	0	0	0	0	0	0	0	0	0	0	0	0		1	0	0	0	0	0	0	0
010713	10:41:23	10022	pm.simpleFrRight	blank.simpleFr	2	0	2500	1	0	10:41:23	2310613	0	0	0	0	0	0	0	0	0	0	0	0	0	0	0	0	0	0	0	0	0	0		1	0	0	0	0	0	0	0
010713	10:41:23	10022	pm.simpleFrRight	pm.simpleFr	2	57	258	0	0	10:41:23	2310893	0	0	0	0	0	0	0	0	0	0	0	0	0	0	0	0	0	0	0	0	0	0		1	0	0	0	0	0	0	0
010713	10:41:23	10022	pm.simpleFrRight	blank.simpleFr	2	0	1900	1	0	10:41:23	2312812	0	0	0	0	0	0	0	0	0	0	0	0	0	0	0	0	0	0	0	0	0	0		1	0	0	0	0	0	0	0
010713	10:41:23	10022	pm.simpleFrRight	pm.simpleFr	2	57	267	0	0	10:41:23	2313105	0	0	0	0	0	0	0	0	0	0	0	0	0	0	0	0	0	0	0	0	0	0		1	0	0	0	0	0	0	0
010713	10:41:23	10022	pm.simpleFrRight	blank.simpleFr	2	0	2400	1	0	10:41:23	2315517	0	0	0	0	0	0	0	0	0	0	0	0	0	0	0	0	0	0	0	0	0	0		1	0	0	0	0	0	0	0
010713	10:41:23	10022	pm.simpleFrRight	pm.simpleFr	2	57	265	0	0	10:41:23	2315811	0	0	0	0	0	0	0	0	0	0	0	0	0	0	0	0	0	0	0	0	0	0		1	0	0	0	0	0	0	0
010713	10:41:23	10022	pm.simpleFrRight	blank.simpleFr	2	0	2200	1	0	10:41:23	2318023	0	0	0	0	0	0	0	0	0	0	0	0	0	0	0	0	0	0	0	0	0	0		1	0	0	0	0	0	0	0
010713	10:41:23	10022	pm.simpleFrRight	pm.simpleFr	2	57	240	0	0	10:41:23	2318289	0	0	0	0	0	0	0	0	0	0	0	0	0	0	0	0	0	0	0	0	0	0		1	0	0	0	0	0	0	0
010713	10:41:23	10022	pm.simpleFrRight	blank.simpleFr	2	0	1800	1	0	10:41:23	2320102	0	0	0	0	0	0	0	0	0	0	0	0	0	0	0	0	0	0	0	0	0	0		1	0	0	0	0	0	0	0
010713	10:41:23	10022	pm.simpleFrRight	pm.simpleFr	2	57	257	0	0	10:41:23	2320382	0	0	0	0	0	0	0	0	0	0	0	0	0	0	0	0	0	0	0	0	0	0		1	0	0	0	0	0	0	0
010713	10:41:23	10022	pm.simpleFrRight	blank.simpleFr	2	0	1700	1	0	10:41:23	2322101	0	0	0	0	0	0	0	0	0	0	0	0	0	0	0	0	0	0	0	0	0	0		1	0	0	0	0	0	0	0
010713	10:41:23	10022	pm.simpleFrRight	pm.simpleFr	2	57	274	0	0	10:41:23	2322395	0	0	0	0	0	0	0	0	0	0	0	0	0	0	0	0	0	0	0	0	0	0		1	0	0	0	0	0	0	0
010713	10:41:23	10022	pm.simpleFrRight	blank.simpleFr	2	0	2000	1	0	10:41:23	2324407	0	0	0	0	0	0	0	0	0	0	0	0	0	0	0	0	0	0	0	0	0	0		1	0	0	0	0	0	0	0
010713	10:41:23	10022	pm.simpleFrRight	pm.simpleFr	2	57	256	0	0	10:41:23	2324687	0	0	0	0	0	0	0	0	0	0	0	0	0	0	0	0	0	0	0	0	0	0		1	0	0	0	0	0	0	0
010713	10:41:23	10022	pm.simpleFrRight	blank.simpleFr	2	0	1500	1	0	10:41:23	2326206	0	0	0	0	0	0	0	0	0	0	0	0	0	0	0	0	0	0	0	0	0	0		1	0	0	0	0	0	0	0
010713	10:41:23	10022	pm.simpleFrRight	pm.simpleFr	2	57	281	0	0	10:41:23	2326513	0	0	0	0	0	0	0	0	0	0	0	0	0	0	0	0	0	0	0	0	0	0		1	0	0	0	0	0	0	0
010713	10:41:23	10022	pm.simpleFrRight	blank.simpleFr	2	0	2300	1	0	10:41:23	2328832	0	0	0	0	0	0	0	0	0	0	0	0	0	0	0	0	0	0	0	0	0	0		1	0	0	0	0	0	0	0
010713	10:41:23	10022	pm.simpleFrRight	pm.simpleFr	2	57	263	0	0	10:41:23	2329112	0	0	0	0	0	0	0	0	0	0	0	0	0	0	0	0	0	0	0	0	0	0		1	0	0	0	0	0	0	0
010713	10:41:23	10022	pm.simpleFrRight	blank.simpleFr	2	0	2200	1	0	10:41:23	2331338	0	0	0	0	0	0	0	0	0	0	0	0	0	0	0	0	0	0	0	0	0	0		1	0	0	0	0	0	0	0
010713	10:41:23	10022	pm.simpleFrRight	pm.simpleFr	2	57	205	0	0	10:41:23	2331564	0	0	0	0	0	0	0	0	0	0	0	0	0	0	0	0	0	0	0	0	0	0		1	0	0	0	0	0	0	0
010713	10:41:23	10022	pm.simpleFrRight	blank.simpleFr	2	0	2400	1	0	10:41:23	2333976	0	0	0	0	0	0	0	0	0	0	0	0	0	0	0	0	0	0	0	0	0	0		1	0	0	0	0	0	0	0
010713	10:41:23	10022	pm.simpleFrRight	pm.simpleFr	2	57	254	0	0	10:41:23	2334256	0	0	0	0	0	0	0	0	0	0	0	0	0	0	0	0	0	0	0	0	0	0		1	0	0	0	0	0	0	0
010713	10:41:23	10022	pm.simpleFrRight	blank.simpleFr	2	0	1700	1	0	10:41:23	2335976	0	0	0	0	0	0	0	0	0	0	0	0	0	0	0	0	0	0	0	0	0	0		1	0	0	0	0	0	0	0
010713	10:41:23	10022	pm.simpleFrRight	pm.simpleFr	2	57	255	0	0	10:41:23	2336256	0	0	0	0	0	0	0	0	0	0	0	0	0	0	0	0	0	0	0	0	0	0		1	0	0	0	0	0	0	0
010713	10:41:23	10022	pm.simpleFrRight	blank.simpleFr	2	0	1600	1	0	10:41:23	2337868	0	0	0	0	0	0	0	0	0	0	0	0	0	0	0	0	0	0	0	0	0	0		1	0	0	0	0	0	0	0
010713	10:41:23	10022	pm.simpleFrRight	pm.simpleFr	2	57	282	0	0	10:41:23	2338175	0	0	0	0	0	0	0	0	0	0	0	0	0	0	0	0	0	0	0	0	0	0		1	0	0	0	0	0	0	0
010713	10:41:23	10022	pm.simpleFrRight	blank.simpleFr	2	0	1800	1	0	10:41:23	2339987	0	0	0	0	0	0	0	0	0	0	0	0	0	0	0	0	0	0	0	0	0	0		1	0	0	0	0	0	0	0
010713	10:41:23	10022	pm.simpleFrRight	pm.simpleFr	2	57	259	0	0	10:41:23	2340267	0	0	0	0	0	0	0	0	0	0	0	0	0	0	0	0	0	0	0	0	0	0		1	0	0	0	0	0	0	0
010713	10:41:23	10022	pm.simpleFrRight	blank.simpleFr	2	0	2100	1	0	10:41:23	2342386	0	0	0	0	0	0	0	0	0	0	0	0	0	0	0	0	0	0	0	0	0	0		1	0	0	0	0	0	0	0
010713	10:41:23	10022	pm.simpleFrRight	pm.simpleFr	2	57	228	0	0	10:41:23	2342640	0	0	0	0	0	0	0	0	0	0	0	0	0	0	0	0	0	0	0	0	0	0		1	0	0	0	0	0	0	0
010713	10:41:23	10022	Trial2BackFr	N	3	0	1000	1	1	10:41:23	2408320	0	0	0	0	0	0	0	0	0	0	0	0	0	0	0	0	0	0	0	0	0	0		1	0	0	0	0	0	0	0
010713	10:41:23	10022	Trial2BackFr	N	3	0	1000	1	2	10:41:23	2409839	0	0	0	0	0	0	0	0	0	0	0	0	0	0	0	0	0	0	0	0	0	0		1	0	0	0	0	0	0	0
010713	10:41:23	10022	Trial2BackFr	N	3	0	1000	1	3	10:41:23	2411346	0	0	0	0	0	0	0	0	0	0	0	0	0	0	0	0	0	0	0	0	0	0		1	0	0	0	0	0	0	0
010713	10:41:23	10022	Trial2BackFr	N	3	0	1000	1	4	10:41:23	2412865	0	0	0	0	0	0	0	0	0	0	0	0	0	0	0	0	0	0	0	0	0	0		1	0	0	0	0	0	0	0
010713	10:41:23	10022	Trial2BackFr	N	3	0	1000	1	5	10:41:23	2414370	0	0	0	0	0	0	0	0	0	0	0	0	0	0	0	0	0	0	0	0	0	0		1	0	0	0	0	0	0	0
010713	10:41:23	10022	Trial2BackFr	N	3	0	1000	1	6	10:41:23	2415877	0	0	0	0	0	0	0	0	0	0	0	0	0	0	0	0	0	0	0	0	0	0		1	0	0	0	0	0	0	0
010713	10:41:23	10022	Trial2BackFr	N	3	0	1000	1	7	10:41:23	2417383	0	0	0	0	0	0	0	0	0	0	0	0	0	0	0	0	0	0	0	0	0	0		1	0	0	0	0	0	0	0
010713	10:41:23	10022	Trial2BackFr	N	3	0	1000	1	8	10:41:23	2418889	0	0	0	0	0	0	0	0	0	0	0	0	0	0	0	0	0	0	0	0	0	0		1	0	0	0	0	0	0	0
010713	10:41:23	10022	Trial2BackFr	Y	3	57	897	1	9	10:41:23	2420302	0	0	0	0	0	0	0	0	0	0	0	0	0	0	0	0	0	0	0	0	0	0		1	0	0	0	0	0	0	0
010713	10:41:23	10022	Trial2BackFr	N	3	0	1000	1	10	10:41:23	2421901	0	0	0	0	0	0	0	0	0	0	0	0	0	0	0	0	0	0	0	0	0	0		1	0	0	0	0	0	0	0
010713	10:41:23	10022	Trial2BackFr	N	3	0	1000	1	11	10:41:23	2423420	0	0	0	0	0	0	0	0	0	0	0	0	0	0	0	0	0	0	0	0	0	0		1	0	0	0	0	0	0	0
010713	10:41:23	10022	Trial2BackFr	N	3	0	1000	1	12	10:41:23	2424940	0	0	0	0	0	0	0	0	0	0	0	0	0	0	0	0	0	0	0	0	0	0		1	0	0	0	0	0	0	0
010713	10:41:23	10022	Trial2BackFr	Y	3	57	542	1	13	10:41:23	2425993	0	0	0	0	0	0	0	0	0	0	0	0	0	0	0	0	0	0	0	0	0	0		1	0	0	0	0	0	0	0
010713	10:41:23	10022	Trial2BackFr	N	3	0	1000	1	14	10:41:23	2427952	0	0	0	0	0	0	0	0	0	0	0	0	0	0	0	0	0	0	0	0	0	0		1	0	0	0	0	0	0	0
010713	10:41:23	10022	Trial2BackFr	N	3	0	1000	1	15	10:41:23	2429458	0	0	0	0	0	0	0	0	0	0	0	0	0	0	0	0	0	0	0	0	0	0		1	0	0	0	0	0	0	0
010713	10:41:23	10022	Trial2BackFr	N	3	0	1000	1	16	10:41:23	2430964	0	0	0	0	0	0	0	0	0	0	0	0	0	0	0	0	0	0	0	0	0	0		1	0	0	0	0	0	0	0
010713	10:41:23	10022	Trial2BackFr	N	3	0	1000	1	17	10:41:23	2432470	0	0	0	0	0	0	0	0	0	0	0	0	0	0	0	0	0	0	0	0	0	0		1	0	0	0	0	0	0	0
010713	10:41:23	10022	Trial2BackFr	N	3	0	1000	1	18	10:41:23	2433976	0	0	0	0	0	0	0	0	0	0	0	0	0	0	0	0	0	0	0	0	0	0		1	0	0	0	0	0	0	0
010713	10:41:23	10022	Trial2BackFr	Y	3	57	513	1	19	10:41:23	2435002	0	0	0	0	0	0	0	0	0	0	0	0	0	0	0	0	0	0	0	0	0	0		1	0	0	0	0	0	0	0
010713	10:41:23	10022	Trial2BackFr	N	3	0	1000	1	20	10:41:23	2436988	0	0	0	0	0	0	0	0	0	0	0	0	0	0	0	0	0	0	0	0	0	0		1	0	0	0	0	0	0	0
010713	10:41:23	10022	Trial2BackFr	N	3	0	1000	1	21	10:41:23	2438494	0	0	0	0	0	0	0	0	0	0	0	0	0	0	0	0	0	0	0	0	0	0		1	0	0	0	0	0	0	0
010713	10:41:23	10022	Trial2BackFr	N	3	0	1000	1	22	10:41:23	2440000	0	0	0	0	0	0	0	0	0	0	0	0	0	0	0	0	0	0	0	0	0	0		1	0	0	0	0	0	0	0
010713	10:41:23	10022	Trial2BackFr	N	3	0	1000	1	23	10:41:23	2441506	0	0	0	0	0	0	0	0	0	0	0	0	0	0	0	0	0	0	0	0	0	0		1	0	0	0	0	0	0	0
010713	10:41:23	10022	Trial2BackFr	Y	3	57	599	1	24	10:41:23	2442613	0	0	0	0	0	0	0	0	0	0	0	0	0	0	0	0	0	0	0	0	0	0		1	0	0	0	0	0	0	0
010713	10:41:23	10022	Trial2BackFr	N	3	0	1000	1	25	10:41:23	2444518	0	0	0	0	0	0	0	0	0	0	0	0	0	0	0	0	0	0	0	0	0	0		1	0	0	0	0	0	0	0
010713	10:41:23	10022	Trial2BackFr	N	3	0	1000	1	26	10:41:23	2446024	0	0	0	0	0	0	0	0	0	0	0	0	0	0	0	0	0	0	0	0	0	0		1	0	0	0	0	0	0	0
010713	10:41:23	10022	Trial2BackFr	N	3	0	1000	1	27	10:41:23	2447544	0	0	0	0	0	0	0	0	0	0	0	0	0	0	0	0	0	0	0	0	0	0		1	0	0	0	0	0	0	0
010713	10:41:23	10022	Trial2BackFr	N	3	0	1000	1	28	10:41:23	2449063	0	0	0	0	0	0	0	0	0	0	0	0	0	0	0	0	0	0	0	0	0	0		1	0	0	0	0	0	0	0
010713	10:41:23	10022	Trial2BackFr	N	3	0	1000	1	29	10:41:23	2450583	0	0	0	0	0	0	0	0	0	0	0	0	0	0	0	0	0	0	0	0	0	0		1	0	0	0	0	0	0	0
010713	10:41:23	10022	Trial2BackFr	N	3	0	1000	1	30	10:41:23	2452089	0	0	0	0	0	0	0	0	0	0	0	0	0	0	0	0	0	0	0	0	0	0		1	0	0	0	0	0	0	0
010713	10:41:23	10022	Trial2BackFr	Y	3	57	592	1	31	10:41:23	2453195	0	0	0	0	0	0	0	0	0	0	0	0	0	0	0	0	0	0	0	0	0	0		1	0	0	0	0	0	0	0
010713	10:41:23	10022	Trial2BackFr	N	3	0	1000	1	32	10:41:23	2455101	0	0	0	0	0	0	0	0	0	0	0	0	0	0	0	0	0	0	0	0	0	0		1	0	0	0	0	0	0	0
010713	10:41:23	10022	Trial2BackFr	N	3	0	1000	1	33	10:41:23	2456607	0	0	0	0	0	0	0	0	0	0	0	0	0	0	0	0	0	0	0	0	0	0		1	0	0	0	0	0	0	0
010713	10:41:23	10022	Trial2BackFr	N	3	0	1000	1	34	10:41:23	2458113	0	0	0	0	0	0	0	0	0	0	0	0	0	0	0	0	0	0	0	0	0	0		1	0	0	0	0	0	0	0
010713	10:41:23	10022	Trial2BackFr	Y	3	0	1000	0	34	10:41:23	2459619	0	0	0	0	0	0	0	0	0	0	0	0	0	0	0	0	0	0	0	0	0	0		1	0	0	0	0	0	0	0
010713	10:41:23	10022	Trial2BackFr	N	3	0	1000	1	35	10:41:23	2461138	0	0	0	0	0	0	0	0	0	0	0	0	0	0	0	0	0	0	0	0	0	0		1	0	0	0	0	0	0	0
010713	10:41:23	10022	Trial2BackFr	N	3	0	1000	1	36	10:41:23	2462644	0	0	0	0	0	0	0	0	0	0	0	0	0	0	0	0	0	0	0	0	0	0		1	0	0	0	0	0	0	0
010713	10:41:23	10022	Trial2BackFr	N	3	0	1000	1	37	10:41:23	2464150	0	0	0	0	0	0	0	0	0	0	0	0	0	0	0	0	0	0	0	0	0	0		1	0	0	0	0	0	0	0
010713	10:41:23	10022	Trial2BackFr	N	3	0	1000	1	38	10:41:23	2465656	0	0	0	0	0	0	0	0	0	0	0	0	0	0	0	0	0	0	0	0	0	0		1	0	0	0	0	0	0	0
010713	10:41:23	10022	Trial2BackFr	N	3	0	1000	1	39	10:41:23	2467163	0	0	0	0	0	0	0	0	0	0	0	0	0	0	0	0	0	0	0	0	0	0		1	0	0	0	0	0	0	0
010713	10:41:23	10022	Trial2BackFr	N	3	57	558	0	39	10:41:23	2468229	0	0	0	0	0	0	0	0	0	0	0	0	0	0	0	0	0	0	0	0	0	0		1	0	0	0	0	0	0	0
010713	10:41:23	10022	Trial2BackFr	Y	3	0	1000	0	39	10:41:23	2470175	0	0	0	0	0	0	0	0	0	0	0	0	0	0	0	0	0	0	0	0	0	0		1	0	0	0	0	0	0	0
010713	10:41:23	10022	Trial2BackFr	N	3	0	1000	1	40	10:41:23	2471681	0	0	0	0	0	0	0	0	0	0	0	0	0	0	0	0	0	0	0	0	0	0		1	0	0	0	0	0	0	0
010713	10:41:23	10022	Trial2BackFr	N	3	0	1000	1	41	10:41:23	2473187	0	0	0	0	0	0	0	0	0	0	0	0	0	0	0	0	0	0	0	0	0	0		1	0	0	0	0	0	0	0
010713	10:41:23	10022	Trial2BackFr	N	3	0	1000	1	42	10:41:23	2474693	0	0	0	0	0	0	0	0	0	0	0	0	0	0	0	0	0	0	0	0	0	0		1	0	0	0	0	0	0	0
010713	10:41:23	10022	Trial2BackFr	N	3	0	1000	1	43	10:41:23	2476212	0	0	0	0	0	0	0	0	0	0	0	0	0	0	0	0	0	0	0	0	0	0		1	0	0	0	0	0	0	0
010713	10:41:23	10022	Trial2BackFr	Y	3	57	500	1	44	10:41:23	2477225	0	0	0	0	0	0	0	0	0	0	0	0	0	0	0	0	0	0	0	0	0	0		1	0	0	0	0	0	0	0
010713	10:41:23	10022	Trial2BackFr	N	3	0	1000	1	45	10:41:23	2479224	0	0	0	0	0	0	0	0	0	0	0	0	0	0	0	0	0	0	0	0	0	0		1	0	0	0	0	0	0	0
010713	10:41:23	10022	Trial2BackFr	N	3	0	1000	1	46	10:41:23	2480730	0	0	0	0	0	0	0	0	0	0	0	0	0	0	0	0	0	0	0	0	0	0		1	0	0	0	0	0	0	0
010713	10:41:23	10022	Trial2BackFr	N	3	0	1000	1	47	10:41:23	2482236	0	0	0	0	0	0	0	0	0	0	0	0	0	0	0	0	0	0	0	0	0	0		1	0	0	0	0	0	0	0
010713	10:41:23	10022	Trial2BackFr	N	3	0	1000	1	48	10:41:23	2483756	0	0	0	0	0	0	0	0	0	0	0	0	0	0	0	0	0	0	0	0	0	0		1	0	0	0	0	0	0	0
010713	10:41:23	10022	Trial2BackFr	N	3	0	1000	1	49	10:41:23	2485262	0	0	0	0	0	0	0	0	0	0	0	0	0	0	0	0	0	0	0	0	0	0		1	0	0	0	0	0	0	0
010713	10:41:23	10022	Trial2BackFr	Y	3	57	474	1	50	10:41:23	2486248	0	0	0	0	0	0	0	0	0	0	0	0	0	0	0	0	0	0	0	0	0	0		1	0	0	0	0	0	0	0
010713	10:41:23	10022	Trial2BackFr	N	3	0	1000	1	51	10:41:23	2488274	0	0	0	0	0	0	0	0	0	0	0	0	0	0	0	0	0	0	0	0	0	0		1	0	0	0	0	0	0	0
010713	10:41:23	10022	Trial2BackFr	N	3	0	1000	1	52	10:41:23	2489780	0	0	0	0	0	0	0	0	0	0	0	0	0	0	0	0	0	0	0	0	0	0		1	0	0	0	0	0	0	0
010713	10:41:23	10022	Trial2BackFr	N	3	0	1000	1	53	10:41:23	2491286	0	0	0	0	0	0	0	0	0	0	0	0	0	0	0	0	0	0	0	0	0	0		1	0	0	0	0	0	0	0
010713	10:41:23	10022	Trial2BackFr	N	3	0	1000	1	54	10:41:23	2492792	0	0	0	0	0	0	0	0	0	0	0	0	0	0	0	0	0	0	0	0	0	0		1	0	0	0	0	0	0	0
010713	10:41:23	10022	Trial2BackFr	N	3	0	1000	1	55	10:41:23	2494298	0	0	0	0	0	0	0	0	0	0	0	0	0	0	0	0	0	0	0	0	0	0		1	0	0	0	0	0	0	0
010713	10:41:23	10022	Trial2BackFr	N	3	0	1000	1	56	10:41:23	2495804	0	0	0	0	0	0	0	0	0	0	0	0	0	0	0	0	0	0	0	0	0	0		1	0	0	0	0	0	0	0
010713	10:41:23	10022	Trial2BackFr	Y	3	57	423	1	57	10:41:23	2496738	0	0	0	0	0	0	0	0	0	0	0	0	0	0	0	0	0	0	0	0	0	0		1	0	0	0	0	0	0	0
010713	10:41:23	10022	Trial2BackFr	N	3	0	1000	1	58	10:41:23	2498816	0	0	0	0	0	0	0	0	0	0	0	0	0	0	0	0	0	0	0	0	0	0		1	0	0	0	0	0	0	0
010713	10:41:23	10022	Trial2BackFr	N	3	0	1000	1	59	10:41:23	2500323	0	0	0	0	0	0	0	0	0	0	0	0	0	0	0	0	0	0	0	0	0	0		1	0	0	0	0	0	0	0
010713	10:41:23	10022	Trial2BackFr	Y	3	57	661	1	60	10:41:23	2501495	0	0	0	0	0	0	0	0	0	0	0	0	0	0	0	0	0	0	0	0	0	0		1	0	0	0	0	0	0	0
010713	10:41:23	10022	Trial2BackFr	N	3	0	1000	1	61	10:41:23	2503335	0	0	0	0	0	0	0	0	0	0	0	0	0	0	0	0	0	0	0	0	0	0		1	0	0	0	0	0	0	0
010713	10:41:23	10022	Trial2BackFr	N	3	0	1000	1	62	10:41:23	2504854	0	0	0	0	0	0	0	0	0	0	0	0	0	0	0	0	0	0	0	0	0	0		1	0	0	0	0	0	0	0
010713	10:41:23	10022	Trial2BackFr	N	3	0	1000	1	63	10:41:23	2506360	0	0	0	0	0	0	0	0	0	0	0	0	0	0	0	0	0	0	0	0	0	0		1	0	0	0	0	0	0	0
010713	10:41:23	10022	Trial2BackFr	N	3	0	1000	1	64	10:41:23	2507866	0	0	0	0	0	0	0	0	0	0	0	0	0	0	0	0	0	0	0	0	0	0		1	0	0	0	0	0	0	0
010713	10:41:23	10022	Trial2BackFr	N	3	0	1000	1	65	10:41:23	2509372	0	0	0	0	0	0	0	0	0	0	0	0	0	0	0	0	0	0	0	0	0	0		1	0	0	0	0	0	0	0
010713	10:41:23	10022	Trial2BackFr	N	3	0	1000	1	66	10:41:23	2510878	0	0	0	0	0	0	0	0	0	0	0	0	0	0	0	0	0	0	0	0	0	0		1	0	0	0	0	0	0	0
010713	10:41:23	10022	Trial2BackFr	N	3	57	409	0	66	10:41:23	2511798	0	0	0	0	0	0	0	0	0	0	0	0	0	0	0	0	0	0	0	0	0	0		1	0	0	0	0	0	0	0
010713	10:41:23	10022	Trial2BackFr	N	3	0	1000	1	67	10:41:23	2513890	0	0	0	0	0	0	0	0	0	0	0	0	0	0	0	0	0	0	0	0	0	0		1	0	0	0	0	0	0	0
010713	10:41:23	10022	Trial2BackFr	N	3	0	1000	1	68	10:41:23	2515396	0	0	0	0	0	0	0	0	0	0	0	0	0	0	0	0	0	0	0	0	0	0		1	0	0	0	0	0	0	0
010713	10:41:23	10022	Trial2BackFr	N	3	0	1000	1	69	10:41:23	2516902	0	0	0	0	0	0	0	0	0	0	0	0	0	0	0	0	0	0	0	0	0	0		1	0	0	0	0	0	0	0
010713	10:41:23	10022	Trial2BackFr	Y	3	57	465	1	70	10:41:23	2517875	0	0	0	0	0	0	0	0	0	0	0	0	0	0	0	0	0	0	0	0	0	0		1	0	0	0	0	0	0	0
010713	10:41:23	10022	Trial2BackFr	N	3	0	1000	1	71	10:41:23	2519915	0	0	0	0	0	0	0	0	0	0	0	0	0	0	0	0	0	0	0	0	0	0		1	0	0	0	0	0	0	0
010713	10:41:23	10022	Trial2BackFr	N	3	0	1000	1	72	10:41:23	2521421	0	0	0	0	0	0	0	0	0	0	0	0	0	0	0	0	0	0	0	0	0	0		1	0	0	0	0	0	0	0
010713	10:41:23	10022	Trial2BackFr	N	3	0	1000	1	73	10:41:23	2522927	0	0	0	0	0	0	0	0	0	0	0	0	0	0	0	0	0	0	0	0	0	0		1	0	0	0	0	0	0	0
010713	10:41:23	10022	Trial2BackFr	Y	3	57	504	1	74	10:41:23	2523939	0	0	0	0	0	0	0	0	0	0	0	0	0	0	0	0	0	0	0	0	0	0		1	0	0	0	0	0	0	0
010713	10:41:23	10022	Trial2BackFr	N	3	0	1000	1	75	10:41:23	2525939	0	0	0	0	0	0	0	0	0	0	0	0	0	0	0	0	0	0	0	0	0	0		1	0	0	0	0	0	0	0
010713	10:41:23	10022	Trial2BackFr	N	3	0	1000	1	76	10:41:23	2527445	0	0	0	0	0	0	0	0	0	0	0	0	0	0	0	0	0	0	0	0	0	0		1	0	0	0	0	0	0	0
010713	10:41:23	10022	Trial2BackFr	N	3	0	1000	1	77	10:41:23	2528951	0	0	0	0	0	0	0	0	0	0	0	0	0	0	0	0	0	0	0	0	0	0		1	0	0	0	0	0	0	0
010713	10:41:23	10022	Trial2BackFr	N	3	0	1000	1	78	10:41:23	2530457	0	0	0	0	0	0	0	0	0	0	0	0	0	0	0	0	0	0	0	0	0	0		1	0	0	0	0	0	0	0
010713	10:41:23	10022	Trial2BackFr	N	3	0	1000	1	79	10:41:23	2531963	0	0	0	0	0	0	0	0	0	0	0	0	0	0	0	0	0	0	0	0	0	0		1	0	0	0	0	0	0	0
010713	10:41:23	10022	Trial2BackFr	Y	3	57	428	1	80	10:41:23	2532909	0	0	0	0	0	0	0	0	0	0	0	0	0	0	0	0	0	0	0	0	0	0		1	0	0	0	0	0	0	0
010713	10:41:23	10022	Trial2BackFr	N	3	0	1000	1	81	10:41:23	2534975	0	0	0	0	0	0	0	0	0	0	0	0	0	0	0	0	0	0	0	0	0	0		1	0	0	0	0	0	0	0
010713	10:41:23	10022	Trial2BackFr	N	3	0	1000	1	82	10:41:23	2536481	0	0	0	0	0	0	0	0	0	0	0	0	0	0	0	0	0	0	0	0	0	0		1	0	0	0	0	0	0	0
010713	10:41:23	10022	Trial2BackFr	N	3	0	1000	1	83	10:41:23	2537987	0	0	0	0	0	0	0	0	0	0	0	0	0	0	0	0	0	0	0	0	0	0		1	0	0	0	0	0	0	0
010713	10:41:23	10022	Trial2BackFr	N	3	0	1000	1	84	10:41:23	2539507	0	0	0	0	0	0	0	0	0	0	0	0	0	0	0	0	0	0	0	0	0	0		1	0	0	0	0	0	0	0
010713	10:41:23	10022	Trial2BackFr	N	3	0	1000	1	85	10:41:23	2541026	0	0	0	0	0	0	0	0	0	0	0	0	0	0	0	0	0	0	0	0	0	0		1	0	0	0	0	0	0	0
010713	10:41:23	10022	Trial2BackFr	N	3	0	1000	1	86	10:41:23	2542532	0	0	0	0	0	0	0	0	0	0	0	0	0	0	0	0	0	0	0	0	0	0		1	0	0	0	0	0	0	0
010713	10:41:23	10022	Trial2BackFr	N	3	57	642	0	86	10:41:23	2543692	0	0	0	0	0	0	0	0	0	0	0	0	0	0	0	0	0	0	0	0	0	0		1	0	0	0	0	0	0	0
010713	10:41:23	10022	Trial2BackFr	N	3	0	1000	1	87	10:41:23	2545544	0	0	0	0	0	0	0	0	0	0	0	0	0	0	0	0	0	0	0	0	0	0		1	0	0	0	0	0	0	0
010713	10:41:23	10022	Trial2BackFr	N	3	0	1000	1	88	10:41:23	2547050	0	0	0	0	0	0	0	0	0	0	0	0	0	0	0	0	0	0	0	0	0	0		1	0	0	0	0	0	0	0
010713	10:41:23	10022	Trial2BackFr	Y	3	57	684	1	89	10:41:23	2548250	0	0	0	0	0	0	0	0	0	0	0	0	0	0	0	0	0	0	0	0	0	0		1	0	0	0	0	0	0	0
010713	10:41:23	10022	Trial2BackFr	N	3	0	1000	1	90	10:41:23	2550062	0	0	0	0	0	0	0	0	0	0	0	0	0	0	0	0	0	0	0	0	0	0		1	0	0	0	0	0	0	0
010713	10:41:23	10022	Trial2BackFr	N	3	0	1000	1	91	10:41:23	2551568	0	0	0	0	0	0	0	0	0	0	0	0	0	0	0	0	0	0	0	0	0	0		1	0	0	0	0	0	0	0
010713	10:41:23	10022	Trial2BackFr	N	3	0	1000	1	92	10:41:23	2553074	0	0	0	0	0	0	0	0	0	0	0	0	0	0	0	0	0	0	0	0	0	0		1	0	0	0	0	0	0	0
010713	10:41:23	10022	Trial2BackFr	N	3	0	1000	1	93	10:41:23	2554580	0	0	0	0	0	0	0	0	0	0	0	0	0	0	0	0	0	0	0	0	0	0		1	0	0	0	0	0	0	0
010713	10:41:23	10022	Trial2BackFr	N	3	0	1000	1	94	10:41:23	2556101	0	0	0	0	0	0	0	0	0	0	0	0	0	0	0	0	0	0	0	0	0	0		1	0	0	0	0	0	0	0
010713	10:41:23	10022	Trial2BackFr	N	3	0	1000	1	95	10:41:23	2557606	0	0	0	0	0	0	0	0	0	0	0	0	0	0	0	0	0	0	0	0	0	0		1	0	0	0	0	0	0	0
010713	10:41:23	10022	Trial2BackFr	N	3	0	1000	1	96	10:41:23	2559112	0	0	0	0	0	0	0	0	0	0	0	0	0	0	0	0	0	0	0	0	0	0		1	0	0	0	0	0	0	0
010713	10:41:23	10022	Trial2BackFr	N	3	0	1000	1	97	10:41:23	2560631	0	0	0	0	0	0	0	0	0	0	0	0	0	0	0	0	0	0	0	0	0	0		1	0	0	0	0	0	0	0
010713	10:41:23	10022	Trial2BackFr	Y	3	57	447	1	98	10:41:23	2561591	0	0	0	0	0	0	0	0	0	0	0	0	0	0	0	0	0	0	0	0	0	0		1	0	0	0	0	0	0	0
010713	10:41:23	10022	Trial2BackFr	N	3	0	1000	1	99	10:41:23	2563643	0	0	0	0	0	0	0	0	0	0	0	0	0	0	0	0	0	0	0	0	0	0		1	0	0	0	0	0	0	0
010713	10:41:23	10022	Trial2BackFr	N	3	0	1000	1	100	10:41:23	2565150	0	0	0	0	0	0	0	0	0	0	0	0	0	0	0	0	0	0	0	0	0	0		1	0	0	0	0	0	0	0
010713	10:41:23	10022	Trial2BackFr	N	3	0	1000	1	101	10:41:23	2566656	0	0	0	0	0	0	0	0	0	0	0	0	0	0	0	0	0	0	0	0	0	0		1	0	0	0	0	0	0	0
010713	10:41:23	10022	Trial2BackFr	N	3	0	1000	1	102	10:41:23	2568161	0	0	0	0	0	0	0	0	0	0	0	0	0	0	0	0	0	0	0	0	0	0		1	0	0	0	0	0	0	0
010713	10:41:23	10022	Trial2BackFr	Y	3	57	484	1	103	10:41:23	2569161	0	0	0	0	0	0	0	0	0	0	0	0	0	0	0	0	0	0	0	0	0	0		1	0	0	0	0	0	0	0
010713	10:41:23	10022	Trial2BackFr	N	3	0	1000	1	104	10:41:23	2571174	0	0	0	0	0	0	0	0	0	0	0	0	0	0	0	0	0	0	0	0	0	0		1	0	0	0	0	0	0	0
010713	10:41:23	10022	Trial2BackFr	N	3	0	1000	1	105	10:41:23	2572680	0	0	0	0	0	0	0	0	0	0	0	0	0	0	0	0	0	0	0	0	0	0		1	0	0	0	0	0	0	0
010713	10:41:23	10022	Trial2BackFr	N	3	0	1000	1	106	10:41:23	2574186	0	0	0	0	0	0	0	0	0	0	0	0	0	0	0	0	0	0	0	0	0	0		1	0	0	0	0	0	0	0
010713	10:41:23	10022	Trial2BackFr	Y	3	57	604	1	107	10:41:23	2575305	0	0	0	0	0	0	0	0	0	0	0	0	0	0	0	0	0	0	0	0	0	0		1	0	0	0	0	0	0	0
010713	10:41:23	10022	Trial2BackFr	N	3	0	1000	1	108	10:41:23	2577198	0	0	0	0	0	0	0	0	0	0	0	0	0	0	0	0	0	0	0	0	0	0		1	0	0	0	0	0	0	0
010713	10:41:23	10022	Trial2BackFr	N	3	0	1000	1	109	10:41:23	2578704	0	0	0	0	0	0	0	0	0	0	0	0	0	0	0	0	0	0	0	0	0	0		1	0	0	0	0	0	0	0
010713	10:41:23	10022	Trial2BackFr	N	3	0	1000	1	110	10:41:23	2580210	0	0	0	0	0	0	0	0	0	0	0	0	0	0	0	0	0	0	0	0	0	0		1	0	0	0	0	0	0	0
010713	10:41:23	10022	Trial2BackFr	N	3	0	1000	1	111	10:41:23	2581716	0	0	0	0	0	0	0	0	0	0	0	0	0	0	0	0	0	0	0	0	0	0		1	0	0	0	0	0	0	0
010713	10:41:23	10022	Trial2BackFr	N	3	0	1000	1	112	10:41:23	2583235	0	0	0	0	0	0	0	0	0	0	0	0	0	0	0	0	0	0	0	0	0	0		1	0	0	0	0	0	0	0
010713	10:41:23	10022	Trial2BackFr	Y	3	57	594	1	113	10:41:23	2584342	0	0	0	0	0	0	0	0	0	0	0	0	0	0	0	0	0	0	0	0	0	0		1	0	0	0	0	0	0	0
010713	10:41:23	10022	Trial2BackFr	N	3	0	1000	1	114	10:41:23	2586248	0	0	0	0	0	0	0	0	0	0	0	0	0	0	0	0	0	0	0	0	0	0		1	0	0	0	0	0	0	0
010713	10:41:23	10022	Trial2BackFr	N	3	0	1000	1	115	10:41:23	2587754	0	0	0	0	0	0	0	0	0	0	0	0	0	0	0	0	0	0	0	0	0	0		1	0	0	0	0	0	0	0
010713	10:41:23	10022	Trial2BackFr	N	3	0	1000	1	116	10:41:23	2589260	0	0	0	0	0	0	0	0	0	0	0	0	0	0	0	0	0	0	0	0	0	0		1	0	0	0	0	0	0	0
010713	10:41:23	10022	Trial2BackFr	Y	3	57	495	1	117	10:41:23	2590299	0	0	0	0	0	0	0	0	0	0	0	0	0	0	0	0	0	0	0	0	0	0		1	0	0	0	0	0	0	0
010713	10:41:23	10022	Trial3BackFr	NN	4	0	1000	1	117	10:41:23	2612010	0	0	0	0	0	0	0	0	0	0	0	0	0	0	0	0	0	0	0	0	0	0		1	0	0	0	0	0	0	0
010713	10:41:23	10022	Trial3BackFr	NN	4	0	1000	1	117	10:41:23	2613516	0	0	0	0	0	0	0	0	0	0	0	0	0	0	0	0	0	0	0	0	0	0		1	0	0	0	0	0	0	0
010713	10:41:23	10022	Trial3BackFr	NN	4	0	1000	1	117	10:41:23	2615023	0	0	0	0	0	0	0	0	0	0	0	0	0	0	0	0	0	0	0	0	0	0		1	0	0	0	0	0	0	0
010713	10:41:23	10022	Trial3BackFr	YY	4	57	710	1	117	10:41:23	2616249	0	0	0	0	0	0	0	0	0	0	0	0	0	0	0	0	0	0	0	0	0	0		1	0	0	0	0	0	0	0
010713	10:41:23	10022	Trial3BackFr	NN	4	0	1000	1	117	10:41:23	2618035	0	0	0	0	0	0	0	0	0	0	0	0	0	0	0	0	0	0	0	0	0	0		1	0	0	0	0	0	0	0
010713	10:41:23	10022	Trial3BackFr	NN	4	0	1000	1	117	10:41:23	2619541	0	0	0	0	0	0	0	0	0	0	0	0	0	0	0	0	0	0	0	0	0	0		1	0	0	0	0	0	0	0
010713	10:41:23	10022	Trial3BackFr	NN	4	0	1000	1	117	10:41:23	2621047	0	0	0	0	0	0	0	0	0	0	0	0	0	0	0	0	0	0	0	0	0	0		1	0	0	0	0	0	0	0
010713	10:41:23	10022	Trial3BackFr	NN	4	0	1000	1	117	10:41:23	2622553	0	0	0	0	0	0	0	0	0	0	0	0	0	0	0	0	0	0	0	0	0	0		1	0	0	0	0	0	0	0
010713	10:41:23	10022	Trial3BackFr	YY	4	57	415	1	117	10:41:23	2623486	0	0	0	0	0	0	0	0	0	0	0	0	0	0	0	0	0	0	0	0	0	0		1	0	0	0	0	0	0	0
010713	10:41:23	10022	Trial3BackFr	NN	4	0	1000	1	117	10:41:23	2625565	0	0	0	0	0	0	0	0	0	0	0	0	0	0	0	0	0	0	0	0	0	0		1	0	0	0	0	0	0	0
010713	10:41:23	10022	Trial3BackFr	NN	4	0	1000	1	117	10:41:23	2627098	0	0	0	0	0	0	0	0	0	0	0	0	0	0	0	0	0	0	0	0	0	0		1	0	0	0	0	0	0	0
010713	10:41:23	10022	Trial3BackFr	NN	4	0	1000	1	117	10:41:23	2628604	0	0	0	0	0	0	0	0	0	0	0	0	0	0	0	0	0	0	0	0	0	0		1	0	0	0	0	0	0	0
010713	10:41:23	10022	Trial3BackFr	NN	4	0	1000	1	117	10:41:23	2630110	0	0	0	0	0	0	0	0	0	0	0	0	0	0	0	0	0	0	0	0	0	0		1	0	0	0	0	0	0	0
010713	10:41:23	10022	Trial3BackFr	NN	4	0	1000	1	117	10:41:23	2631616	0	0	0	0	0	0	0	0	0	0	0	0	0	0	0	0	0	0	0	0	0	0		1	0	0	0	0	0	0	0
010713	10:41:23	10022	Trial3BackFr	NN	4	0	1000	1	117	10:41:23	2633122	0	0	0	0	0	0	0	0	0	0	0	0	0	0	0	0	0	0	0	0	0	0		1	0	0	0	0	0	0	0
010713	10:41:23	10022	Trial3BackFr	NN	4	0	1000	1	117	10:41:23	2634628	0	0	0	0	0	0	0	0	0	0	0	0	0	0	0	0	0	0	0	0	0	0		1	0	0	0	0	0	0	0
010713	10:41:23	10022	Trial3BackFr	YY	4	57	512	1	117	10:41:23	2635654	0	0	0	0	0	0	0	0	0	0	0	0	0	0	0	0	0	0	0	0	0	0		1	0	0	0	0	0	0	0
010713	10:41:23	10022	Trial3BackFr	NN	4	0	1000	1	117	10:41:23	2637640	0	0	0	0	0	0	0	0	0	0	0	0	0	0	0	0	0	0	0	0	0	0		1	0	0	0	0	0	0	0
010713	10:41:23	10022	Trial3BackFr	NN	4	0	1000	1	117	10:41:23	2639147	0	0	0	0	0	0	0	0	0	0	0	0	0	0	0	0	0	0	0	0	0	0		1	0	0	0	0	0	0	0
010713	10:41:23	10022	Trial3BackFr	NN	4	0	1000	1	117	10:41:23	2640652	0	0	0	0	0	0	0	0	0	0	0	0	0	0	0	0	0	0	0	0	0	0		1	0	0	0	0	0	0	0
010713	10:41:23	10022	Trial3BackFr	NN	4	0	1000	1	117	10:41:23	2642158	0	0	0	0	0	0	0	0	0	0	0	0	0	0	0	0	0	0	0	0	0	0		1	0	0	0	0	0	0	0
010713	10:41:23	10022	Trial3BackFr	NN	4	0	1000	1	117	10:41:23	2643664	0	0	0	0	0	0	0	0	0	0	0	0	0	0	0	0	0	0	0	0	0	0		1	0	0	0	0	0	0	0
010713	10:41:23	10022	Trial3BackFr	YY	4	57	788	1	117	10:41:23	2644970	0	0	0	0	0	0	0	0	0	0	0	0	0	0	0	0	0	0	0	0	0	0		1	0	0	0	0	0	0	0
010713	10:41:23	10022	Trial3BackFr	NN	4	0	1000	1	117	10:41:23	2646676	0	0	0	0	0	0	0	0	0	0	0	0	0	0	0	0	0	0	0	0	0	0		1	0	0	0	0	0	0	0
010713	10:41:23	10022	Trial3BackFr	NN	4	0	1000	1	117	10:41:23	2648182	0	0	0	0	0	0	0	0	0	0	0	0	0	0	0	0	0	0	0	0	0	0		1	0	0	0	0	0	0	0
010713	10:41:23	10022	Trial3BackFr	NN	4	0	1000	1	117	10:41:23	2649689	0	0	0	0	0	0	0	0	0	0	0	0	0	0	0	0	0	0	0	0	0	0		1	0	0	0	0	0	0	0
010713	10:41:23	10022	Trial3BackFr	YY	4	57	859	1	117	10:41:23	2651061	0	0	0	0	0	0	0	0	0	0	0	0	0	0	0	0	0	0	0	0	0	0		1	0	0	0	0	0	0	0
010713	10:41:23	10022	Trial3BackFr	NN	4	0	1000	1	117	10:41:23	2652701	0	0	0	0	0	0	0	0	0	0	0	0	0	0	0	0	0	0	0	0	0	0		1	0	0	0	0	0	0	0
010713	10:41:23	10022	Trial3BackFr	NN	4	0	1000	1	117	10:41:23	2654207	0	0	0	0	0	0	0	0	0	0	0	0	0	0	0	0	0	0	0	0	0	0		1	0	0	0	0	0	0	0
010713	10:41:23	10022	Trial3BackFr	NN	4	0	1000	1	117	10:41:23	2655713	0	0	0	0	0	0	0	0	0	0	0	0	0	0	0	0	0	0	0	0	0	0		1	0	0	0	0	0	0	0
010713	10:41:23	10022	Trial3BackFr	YY	4	57	499	1	117	10:41:23	2656726	0	0	0	0	0	0	0	0	0	0	0	0	0	0	0	0	0	0	0	0	0	0		1	0	0	0	0	0	0	0
010713	10:41:23	10022	Trial3BackFr	NN	4	0	1000	1	117	10:41:23	2658725	0	0	0	0	0	0	0	0	0	0	0	0	0	0	0	0	0	0	0	0	0	0		1	0	0	0	0	0	0	0
010713	10:41:23	10022	Trial3BackFr	NN	4	0	1000	1	117	10:41:23	2660231	0	0	0	0	0	0	0	0	0	0	0	0	0	0	0	0	0	0	0	0	0	0		1	0	0	0	0	0	0	0
010713	10:41:23	10022	Trial3BackFr	NN	4	0	1000	1	117	10:41:23	2661737	0	0	0	0	0	0	0	0	0	0	0	0	0	0	0	0	0	0	0	0	0	0		1	0	0	0	0	0	0	0
010713	10:41:23	10022	Trial3BackFr	NN	4	0	1000	1	117	10:41:23	2663243	0	0	0	0	0	0	0	0	0	0	0	0	0	0	0	0	0	0	0	0	0	0		1	0	0	0	0	0	0	0
010713	10:41:23	10022	Trial3BackFr	NN	4	0	1000	1	117	10:41:23	2664749	0	0	0	0	0	0	0	0	0	0	0	0	0	0	0	0	0	0	0	0	0	0		1	0	0	0	0	0	0	0
010713	10:41:23	10022	Trial3BackFr	NN	4	0	1000	1	117	10:41:23	2666255	0	0	0	0	0	0	0	0	0	0	0	0	0	0	0	0	0	0	0	0	0	0		1	0	0	0	0	0	0	0
010713	10:41:23	10022	Trial3BackFr	NN	4	0	1000	1	117	10:41:23	2667775	0	0	0	0	0	0	0	0	0	0	0	0	0	0	0	0	0	0	0	0	0	0		1	0	0	0	0	0	0	0
010713	10:41:23	10022	Trial3BackFr	NN	4	0	1000	1	117	10:41:23	2669281	0	0	0	0	0	0	0	0	0	0	0	0	0	0	0	0	0	0	0	0	0	0		1	0	0	0	0	0	0	0
010713	10:41:23	10022	Trial3BackFr	NN	4	57	499	0	117	10:41:23	2670294	0	0	0	0	0	0	0	0	0	0	0	0	0	0	0	0	0	0	0	0	0	0		1	0	0	0	0	0	0	0
010713	10:41:23	10022	Trial3BackFr	NN	4	0	1000	1	117	10:41:23	2672293	0	0	0	0	0	0	0	0	0	0	0	0	0	0	0	0	0	0	0	0	0	0		1	0	0	0	0	0	0	0
010713	10:41:23	10022	Trial3BackFr	YY	4	0	1000	0	117	10:41:23	2673812	0	0	0	0	0	0	0	0	0	0	0	0	0	0	0	0	0	0	0	0	0	0		1	0	0	0	0	0	0	0
010713	10:41:23	10022	Trial3BackFr	NN	4	0	1000	1	117	10:41:23	2675318	0	0	0	0	0	0	0	0	0	0	0	0	0	0	0	0	0	0	0	0	0	0		1	0	0	0	0	0	0	0
010713	10:41:23	10022	Trial3BackFr	NN	4	0	1000	1	117	10:41:23	2676824	0	0	0	0	0	0	0	0	0	0	0	0	0	0	0	0	0	0	0	0	0	0		1	0	0	0	0	0	0	0
010713	10:41:23	10022	Trial3BackFr	NN	4	0	1000	1	117	10:41:23	2678344	0	0	0	0	0	0	0	0	0	0	0	0	0	0	0	0	0	0	0	0	0	0		1	0	0	0	0	0	0	0
010713	10:41:23	10022	Trial3BackFr	NN	4	0	1000	1	117	10:41:23	2679850	0	0	0	0	0	0	0	0	0	0	0	0	0	0	0	0	0	0	0	0	0	0		1	0	0	0	0	0	0	0
010713	10:41:23	10022	Trial3BackFr	YY	4	57	524	1	117	10:41:23	2680902	0	0	0	0	0	0	0	0	0	0	0	0	0	0	0	0	0	0	0	0	0	0		1	0	0	0	0	0	0	0
010713	10:41:23	10022	Trial3BackFr	NN	4	0	1000	1	117	10:41:23	2682862	0	0	0	0	0	0	0	0	0	0	0	0	0	0	0	0	0	0	0	0	0	0		1	0	0	0	0	0	0	0
010713	10:41:23	10022	Trial3BackFr	NN	4	0	1000	1	117	10:41:23	2684368	0	0	0	0	0	0	0	0	0	0	0	0	0	0	0	0	0	0	0	0	0	0		1	0	0	0	0	0	0	0
010713	10:41:23	10022	Trial3BackFr	NN	4	0	1000	1	117	10:41:23	2685874	0	0	0	0	0	0	0	0	0	0	0	0	0	0	0	0	0	0	0	0	0	0		1	0	0	0	0	0	0	0
010713	10:41:23	10022	Trial3BackFr	NN	4	0	1000	1	117	10:41:23	2687380	0	0	0	0	0	0	0	0	0	0	0	0	0	0	0	0	0	0	0	0	0	0		1	0	0	0	0	0	0	0
010713	10:41:23	10022	Trial3BackFr	NN	4	0	1000	1	117	10:41:23	2688886	0	0	0	0	0	0	0	0	0	0	0	0	0	0	0	0	0	0	0	0	0	0		1	0	0	0	0	0	0	0
010713	10:41:23	10022	Trial3BackFr	YY	4	57	477	1	117	10:41:23	2689872	0	0	0	0	0	0	0	0	0	0	0	0	0	0	0	0	0	0	0	0	0	0		1	0	0	0	0	0	0	0
010713	10:41:23	10022	Trial3BackFr	NN	4	0	1000	1	117	10:41:23	2691898	0	0	0	0	0	0	0	0	0	0	0	0	0	0	0	0	0	0	0	0	0	0		1	0	0	0	0	0	0	0
010713	10:41:23	10022	Trial3BackFr	NN	4	0	1000	1	117	10:41:23	2693404	0	0	0	0	0	0	0	0	0	0	0	0	0	0	0	0	0	0	0	0	0	0		1	0	0	0	0	0	0	0
010713	10:41:23	10022	Trial3BackFr	NN	4	0	1000	1	117	10:41:23	2694910	0	0	0	0	0	0	0	0	0	0	0	0	0	0	0	0	0	0	0	0	0	0		1	0	0	0	0	0	0	0
010713	10:41:23	10022	Trial3BackFr	NN	4	0	1000	1	117	10:41:23	2696416	0	0	0	0	0	0	0	0	0	0	0	0	0	0	0	0	0	0	0	0	0	0		1	0	0	0	0	0	0	0
010713	10:41:23	10022	Trial3BackFr	NN	4	0	1000	1	117	10:41:23	2697922	0	0	0	0	0	0	0	0	0	0	0	0	0	0	0	0	0	0	0	0	0	0		1	0	0	0	0	0	0	0
010713	10:41:23	10022	Trial3BackFr	NN	4	0	1000	1	117	10:41:23	2699428	0	0	0	0	0	0	0	0	0	0	0	0	0	0	0	0	0	0	0	0	0	0		1	0	0	0	0	0	0	0
010713	10:41:23	10022	Trial3BackFr	YY	4	57	782	1	117	10:41:23	2700721	0	0	0	0	0	0	0	0	0	0	0	0	0	0	0	0	0	0	0	0	0	0		1	0	0	0	0	0	0	0
010713	10:41:23	10022	Trial3BackFr	NN	4	0	1000	1	117	10:41:23	2702440	0	0	0	0	0	0	0	0	0	0	0	0	0	0	0	0	0	0	0	0	0	0		1	0	0	0	0	0	0	0
010713	10:41:23	10022	Trial3BackFr	NN	4	0	1000	1	117	10:41:23	2703947	0	0	0	0	0	0	0	0	0	0	0	0	0	0	0	0	0	0	0	0	0	0		1	0	0	0	0	0	0	0
010713	10:41:23	10022	Trial3BackFr	NN	4	0	1000	1	117	10:41:23	2705453	0	0	0	0	0	0	0	0	0	0	0	0	0	0	0	0	0	0	0	0	0	0		1	0	0	0	0	0	0	0
010713	10:41:23	10022	Trial3BackFr	YY	4	57	566	1	117	10:41:23	2706532	0	0	0	0	0	0	0	0	0	0	0	0	0	0	0	0	0	0	0	0	0	0		1	0	0	0	0	0	0	0
010713	10:41:23	10022	Trial3BackFr	NN	4	0	1000	1	117	10:41:23	2708465	0	0	0	0	0	0	0	0	0	0	0	0	0	0	0	0	0	0	0	0	0	0		1	0	0	0	0	0	0	0
010713	10:41:23	10022	Trial3BackFr	NN	4	0	1000	1	117	10:41:23	2709984	0	0	0	0	0	0	0	0	0	0	0	0	0	0	0	0	0	0	0	0	0	0		1	0	0	0	0	0	0	0
010713	10:41:23	10022	Trial3BackFr	NN	4	0	1000	1	117	10:41:23	2711490	0	0	0	0	0	0	0	0	0	0	0	0	0	0	0	0	0	0	0	0	0	0		1	0	0	0	0	0	0	0
010713	10:41:23	10022	Trial3BackFr	NN	4	0	1000	1	117	10:41:23	2712996	0	0	0	0	0	0	0	0	0	0	0	0	0	0	0	0	0	0	0	0	0	0		1	0	0	0	0	0	0	0
010713	10:41:23	10022	Trial3BackFr	NN	4	0	1000	1	117	10:41:23	2714516	0	0	0	0	0	0	0	0	0	0	0	0	0	0	0	0	0	0	0	0	0	0		1	0	0	0	0	0	0	0
010713	10:41:23	10022	Trial3BackFr	NN	4	0	1000	1	117	10:41:23	2716022	0	0	0	0	0	0	0	0	0	0	0	0	0	0	0	0	0	0	0	0	0	0		1	0	0	0	0	0	0	0
010713	10:41:23	10022	Trial3BackFr	NN	4	0	1000	1	117	10:41:23	2717528	0	0	0	0	0	0	0	0	0	0	0	0	0	0	0	0	0	0	0	0	0	0		1	0	0	0	0	0	0	0
010713	10:41:23	10022	Trial3BackFr	NN	4	0	1000	1	117	10:41:23	2719034	0	0	0	0	0	0	0	0	0	0	0	0	0	0	0	0	0	0	0	0	0	0		1	0	0	0	0	0	0	0
010713	10:41:23	10022	Trial3BackFr	NN	4	0	1000	1	117	10:41:23	2720540	0	0	0	0	0	0	0	0	0	0	0	0	0	0	0	0	0	0	0	0	0	0		1	0	0	0	0	0	0	0
010713	10:41:23	10022	Trial3BackFr	YY	4	57	550	1	117	10:41:23	2721606	0	0	0	0	0	0	0	0	0	0	0	0	0	0	0	0	0	0	0	0	0	0		1	0	0	0	0	0	0	0
010713	10:41:23	10022	Trial3BackFr	NN	4	0	1000	1	117	10:41:23	2723552	0	0	0	0	0	0	0	0	0	0	0	0	0	0	0	0	0	0	0	0	0	0		1	0	0	0	0	0	0	0
010713	10:41:23	10022	Trial3BackFr	NN	4	0	1000	1	117	10:41:23	2725058	0	0	0	0	0	0	0	0	0	0	0	0	0	0	0	0	0	0	0	0	0	0		1	0	0	0	0	0	0	0
010713	10:41:23	10022	Trial3BackFr	NN	4	0	1000	1	117	10:41:23	2726564	0	0	0	0	0	0	0	0	0	0	0	0	0	0	0	0	0	0	0	0	0	0		1	0	0	0	0	0	0	0
010713	10:41:23	10022	Trial3BackFr	YY	4	57	894	1	117	10:41:23	2727977	0	0	0	0	0	0	0	0	0	0	0	0	0	0	0	0	0	0	0	0	0	0		1	0	0	0	0	0	0	0
010713	10:41:23	10022	Trial3BackFr	NN	4	0	1000	1	117	10:41:23	2729576	0	0	0	0	0	0	0	0	0	0	0	0	0	0	0	0	0	0	0	0	0	0		1	0	0	0	0	0	0	0
010713	10:41:23	10022	Trial3BackFr	NN	4	0	1000	1	117	10:41:23	2731082	0	0	0	0	0	0	0	0	0	0	0	0	0	0	0	0	0	0	0	0	0	0		1	0	0	0	0	0	0	0
010713	10:41:23	10022	Trial3BackFr	NN	4	0	1000	1	117	10:41:23	2732588	0	0	0	0	0	0	0	0	0	0	0	0	0	0	0	0	0	0	0	0	0	0		1	0	0	0	0	0	0	0
010713	10:41:23	10022	Trial3BackFr	NN	4	0	1000	1	117	10:41:23	2734094	0	0	0	0	0	0	0	0	0	0	0	0	0	0	0	0	0	0	0	0	0	0		1	0	0	0	0	0	0	0
010713	10:41:23	10022	Trial3BackFr	NN	4	0	1000	1	117	10:41:23	2735601	0	0	0	0	0	0	0	0	0	0	0	0	0	0	0	0	0	0	0	0	0	0		1	0	0	0	0	0	0	0
010713	10:41:23	10022	Trial3BackFr	YY	4	57	596	1	117	10:41:23	2736720	0	0	0	0	0	0	0	0	0	0	0	0	0	0	0	0	0	0	0	0	0	0		1	0	0	0	0	0	0	0
010713	10:41:23	10022	Trial3BackFr	NN	4	0	1000	1	117	10:41:23	2738612	0	0	0	0	0	0	0	0	0	0	0	0	0	0	0	0	0	0	0	0	0	0		1	0	0	0	0	0	0	0
010713	10:41:23	10022	Trial3BackFr	NN	4	0	1000	1	117	10:41:23	2740119	0	0	0	0	0	0	0	0	0	0	0	0	0	0	0	0	0	0	0	0	0	0		1	0	0	0	0	0	0	0
010713	10:41:23	10022	Trial3BackFr	NN	4	0	1000	1	117	10:41:23	2741624	0	0	0	0	0	0	0	0	0	0	0	0	0	0	0	0	0	0	0	0	0	0		1	0	0	0	0	0	0	0
010713	10:41:23	10022	Trial3BackFr	NN	4	0	1000	1	117	10:41:23	2743131	0	0	0	0	0	0	0	0	0	0	0	0	0	0	0	0	0	0	0	0	0	0		1	0	0	0	0	0	0	0
010713	10:41:23	10022	Trial3BackFr	NN	4	0	1000	1	117	10:41:23	2744637	0	0	0	0	0	0	0	0	0	0	0	0	0	0	0	0	0	0	0	0	0	0		1	0	0	0	0	0	0	0
010713	10:41:23	10022	Trial3BackFr	NN	4	57	453	0	117	10:41:23	2745609	0	0	0	0	0	0	0	0	0	0	0	0	0	0	0	0	0	0	0	0	0	0		1	0	0	0	0	0	0	0
010713	10:41:23	10022	Trial3BackFr	NN	4	0	1000	1	117	10:41:23	2747649	0	0	0	0	0	0	0	0	0	0	0	0	0	0	0	0	0	0	0	0	0	0		1	0	0	0	0	0	0	0
010713	10:41:23	10022	Trial3BackFr	NN	4	0	1000	1	117	10:41:23	2749168	0	0	0	0	0	0	0	0	0	0	0	0	0	0	0	0	0	0	0	0	0	0		1	0	0	0	0	0	0	0
010713	10:41:23	10022	Trial3BackFr	NN	4	0	1000	1	117	10:41:23	2750674	0	0	0	0	0	0	0	0	0	0	0	0	0	0	0	0	0	0	0	0	0	0		1	0	0	0	0	0	0	0
010713	10:41:23	10022	Trial3BackFr	YY	4	57	815	1	117	10:41:23	2752007	0	0	0	0	0	0	0	0	0	0	0	0	0	0	0	0	0	0	0	0	0	0		1	0	0	0	0	0	0	0
010713	10:41:23	10022	Trial3BackFr	NN	4	0	1000	1	117	10:41:23	2753686	0	0	0	0	0	0	0	0	0	0	0	0	0	0	0	0	0	0	0	0	0	0		1	0	0	0	0	0	0	0
010713	10:41:23	10022	Trial3BackFr	NN	4	0	1000	1	117	10:41:23	2755192	0	0	0	0	0	0	0	0	0	0	0	0	0	0	0	0	0	0	0	0	0	0		1	0	0	0	0	0	0	0
010713	10:41:23	10022	Trial3BackFr	NN	4	0	1000	1	117	10:41:23	2756698	0	0	0	0	0	0	0	0	0	0	0	0	0	0	0	0	0	0	0	0	0	0		1	0	0	0	0	0	0	0
010713	10:41:23	10022	Trial3BackFr	NN	4	0	1000	1	117	10:41:23	2758205	0	0	0	0	0	0	0	0	0	0	0	0	0	0	0	0	0	0	0	0	0	0		1	0	0	0	0	0	0	0
010713	10:41:23	10022	Trial3BackFr	NN	4	0	1000	1	117	10:41:23	2759724	0	0	0	0	0	0	0	0	0	0	0	0	0	0	0	0	0	0	0	0	0	0		1	0	0	0	0	0	0	0
010713	10:41:23	10022	Trial3BackFr	NN	4	0	1000	1	117	10:41:23	2761230	0	0	0	0	0	0	0	0	0	0	0	0	0	0	0	0	0	0	0	0	0	0		1	0	0	0	0	0	0	0
010713	10:41:23	10022	Trial3BackFr	NN	4	57	630	0	117	10:41:23	2762390	0	0	0	0	0	0	0	0	0	0	0	0	0	0	0	0	0	0	0	0	0	0		1	0	0	0	0	0	0	0
010713	10:41:23	10022	Trial3BackFr	NN	4	0	1000	1	117	10:41:23	2764242	0	0	0	0	0	0	0	0	0	0	0	0	0	0	0	0	0	0	0	0	0	0		1	0	0	0	0	0	0	0
010713	10:41:23	10022	Trial3BackFr	YY	4	0	1000	0	117	10:41:23	2765748	0	0	0	0	0	0	0	0	0	0	0	0	0	0	0	0	0	0	0	0	0	0		1	0	0	0	0	0	0	0
010713	10:41:23	10022	Trial3BackFr	NN	4	0	1000	1	117	10:41:23	2767254	0	0	0	0	0	0	0	0	0	0	0	0	0	0	0	0	0	0	0	0	0	0		1	0	0	0	0	0	0	0
010713	10:41:23	10022	Trial3BackFr	NN	4	0	1000	1	117	10:41:23	2768760	0	0	0	0	0	0	0	0	0	0	0	0	0	0	0	0	0	0	0	0	0	0		1	0	0	0	0	0	0	0
010713	10:41:23	10022	Trial3BackFr	NN	4	0	1000	1	117	10:41:23	2770266	0	0	0	0	0	0	0	0	0	0	0	0	0	0	0	0	0	0	0	0	0	0		1	0	0	0	0	0	0	0
010713	10:41:23	10022	Trial3BackFr	NN	4	0	1000	1	117	10:41:23	2771772	0	0	0	0	0	0	0	0	0	0	0	0	0	0	0	0	0	0	0	0	0	0		1	0	0	0	0	0	0	0
010713	10:41:23	10022	Trial3BackFr	YY	4	57	613	1	117	10:41:23	2772905	0	0	0	0	0	0	0	0	0	0	0	0	0	0	0	0	0	0	0	0	0	0		1	0	0	0	0	0	0	0
010713	10:41:23	10022	Trial3BackFr	NN	4	0	1000	1	117	10:41:23	2774784	0	0	0	0	0	0	0	0	0	0	0	0	0	0	0	0	0	0	0	0	0	0		1	0	0	0	0	0	0	0
010713	10:41:23	10022	Trial3BackFr	NN	4	0	1000	1	117	10:41:23	2776290	0	0	0	0	0	0	0	0	0	0	0	0	0	0	0	0	0	0	0	0	0	0		1	0	0	0	0	0	0	0
010713	10:41:23	10022	Trial3BackFr	NN	4	0	1000	1	117	10:41:23	2777797	0	0	0	0	0	0	0	0	0	0	0	0	0	0	0	0	0	0	0	0	0	0		1	0	0	0	0	0	0	0
010713	10:41:23	10022	Trial3BackFr	YY	4	57	652	1	117	10:41:23	2778969	0	0	0	0	0	0	0	0	0	0	0	0	0	0	0	0	0	0	0	0	0	0		1	0	0	0	0	0	0	0
010713	10:41:23	10022	Trial3BackFr	NN	4	0	1000	1	117	10:41:23	2780809	0	0	0	0	0	0	0	0	0	0	0	0	0	0	0	0	0	0	0	0	0	0		1	0	0	0	0	0	0	0
010713	10:41:23	10022	Trial3BackFr	NN	4	0	1000	1	117	10:41:23	2782315	0	0	0	0	0	0	0	0	0	0	0	0	0	0	0	0	0	0	0	0	0	0		1	0	0	0	0	0	0	0
010713	10:41:23	10022	Trial3BackFr	NN	4	0	1000	1	117	10:41:23	2783821	0	0	0	0	0	0	0	0	0	0	0	0	0	0	0	0	0	0	0	0	0	0		1	0	0	0	0	0	0	0
010713	10:41:23	10022	Trial3BackFr	NN	4	0	1000	1	117	10:41:23	2785327	0	0	0	0	0	0	0	0	0	0	0	0	0	0	0	0	0	0	0	0	0	0		1	0	0	0	0	0	0	0
010713	10:41:23	10022	Trial3BackFr	NN	4	0	1000	1	117	10:41:23	2786833	0	0	0	0	0	0	0	0	0	0	0	0	0	0	0	0	0	0	0	0	0	0		1	0	0	0	0	0	0	0
010713	10:41:23	10022	Trial3BackFr	YY	4	57	559	1	117	10:41:23	2787913	0	0	0	0	0	0	0	0	0	0	0	0	0	0	0	0	0	0	0	0	0	0		1	0	0	0	0	0	0	0
010713	10:41:23	10022	Trial3BackFr	NN	4	0	1000	1	117	10:41:23	2789845	0	0	0	0	0	0	0	0	0	0	0	0	0	0	0	0	0	0	0	0	0	0		1	0	0	0	0	0	0	0
010713	10:41:23	10022	Trial3BackFr	NN	4	0	1000	1	117	10:41:23	2791351	0	0	0	0	0	0	0	0	0	0	0	0	0	0	0	0	0	0	0	0	0	0		1	0	0	0	0	0	0	0
010713	10:41:23	10022	Trial3BackFr	NN	4	0	1000	1	117	10:41:23	2792857	0	0	0	0	0	0	0	0	0	0	0	0	0	0	0	0	0	0	0	0	0	0		1	0	0	0	0	0	0	0
010713	10:41:23	10022	Trial3BackFr	YY	4	57	535	1	117	10:41:23	2793910	0	0	0	0	0	0	0	0	0	0	0	0	0	0	0	0	0	0	0	0	0	0		1	0	0	0	0	0	0	0
010713	10:41:23	10022	Memory1R6moFr	ScoreFr	5	M1	14491	0	117	10:41:23	2843397	0	0	0	0	0	0	0	0	0	0	0	0	0	0	0	0	0	0	0	0	0	0		1	0	0	0	0	0	0	0
010713	10:41:23	10022	Memory1R6moFr	ScoreFr	5	M2	177	0	117	10:41:23	2843637	0	0	0	0	0	0	0	0	0	0	0	0	0	0	0	0	0	0	0	0	0	0		1	0	0	0	0	0	0	0
010713	10:41:23	10022	Memory1R6moFr	ScoreFr	5	M4	1865	0	117	10:41:23	2845569	0	0	0	0	0	0	0	0	0	0	0	0	0	0	0	0	0	0	0	0	0	0		1	0	0	0	0	0	0	0
010713	10:41:23	10022	Memory1R6moFr	ScoreFr	5	M5	137	0	117	10:41:23	2845769	0	0	0	0	0	0	0	0	0	0	0	0	0	0	0	0	0	0	0	0	0	0		1	0	0	0	0	0	0	0
010713	10:41:23	10022	Memory1R6moFr	ScoreFr	5	M8	1740	0	117	10:41:23	2847569	0	0	0	0	0	0	0	0	0	0	0	0	0	0	0	0	0	0	0	0	0	0		1	0	0	0	0	0	0	0
010713	10:41:23	10022	Memory1R6moFr	ScoreFr	5	Done	378	0	117	10:41:23	2848008	0	0	0	0	0	0	0	0	0	0	0	0	0	0	0	0	0	0	0	0	0	0		1	0	0	0	0	0	0	0
010713	10:41:23	10022	Memory2R6moFr	ScoreFr2	5	11	13054	0	117	10:41:23	2890298	0	0	0	0	0	0	0	0	0	0	0	0	0	0	0	0	0	0	0	0	0	0		1	0	0	0	0	0	0	0
010713	10:41:23	10022	Memory2R6moFr	ScoreFr2	5	22	298	0	117	10:41:23	2890658	0	0	0	0	0	0	0	0	0	0	0	0	0	0	0	0	0	0	0	0	0	0		1	0	0	0	0	0	0	0
010713	10:41:23	10022	Memory2R6moFr	ScoreFr2	5	33	288	0	117	10:41:23	2890991	0	0	0	0	0	0	0	0	0	0	0	0	0	0	0	0	0	0	0	0	0	0		1	0	0	0	0	0	0	0
010713	10:41:23	10022	Memory2R6moFr	ScoreFr2	5	44	4176	0	117	10:41:23	2895243	0	0	0	0	0	0	0	0	0	0	0	0	0	0	0	0	0	0	0	0	0	0		1	0	0	0	0	0	0	0
010713	10:41:23	10022	Memory2R6moFr	ScoreFr2	5	55	1636	0	117	10:41:23	2896962	0	0	0	0	0	0	0	0	0	0	0	0	0	0	0	0	0	0	0	0	0	0		1	0	0	0	0	0	0	0
010713	10:41:23	10022	Memory2R6moFr	ScoreFr2	5	66	242	0	117	10:41:23	2897268	0	0	0	0	0	0	0	0	0	0	0	0	0	0	0	0	0	0	0	0	0	0		1	0	0	0	0	0	0	0
010713	10:41:23	10022	Memory2R6moFr	ScoreFr2	5	77	240	0	117	10:41:23	2897575	0	0	0	0	0	0	0	0	0	0	0	0	0	0	0	0	0	0	0	0	0	0		1	0	0	0	0	0	0	0
010713	10:41:23	10022	Memory2R6moFr	ScoreFr2	5	88	365	0	117	10:41:23	2898009	0	0	0	0	0	0	0	0	0	0	0	0	0	0	0	0	0	0	0	0	0	0		1	0	0	0	0	0	0	0
010713	10:41:23	10022	Memory2R6moFr	ScoreFr2	5	Done	4413	0	117	10:41:23	2902493	0	0	0	0	0	0	0	0	0	0	0	0	0	0	0	0	0	0	0	0	0	0		1	0	0	0	0	0	0	0
010713	10:41:23	10022	Memory3R6moFr	ScoreFr3	5	111	9416	0	117	10:41:23	2929935	0	0	0	0	0	0	0	0	0	0	0	0	0	0	0	0	0	0	0	0	0	0		1	0	0	0	0	0	0	0
010713	10:41:23	10022	Memory3R6moFr	ScoreFr3	5	222	460	0	117	10:41:23	2930455	0	0	0	0	0	0	0	0	0	0	0	0	0	0	0	0	0	0	0	0	0	0		1	0	0	0	0	0	0	0
010713	10:41:23	10022	Memory3R6moFr	ScoreFr3	5	333	490	0	117	10:41:23	2931004	0	0	0	0	0	0	0	0	0	0	0	0	0	0	0	0	0	0	0	0	0	0		1	0	0	0	0	0	0	0
010713	10:41:23	10022	Memory3R6moFr	ScoreFr3	5	444	431	0	117	10:41:23	2931481	0	0	0	0	0	0	0	0	0	0	0	0	0	0	0	0	0	0	0	0	0	0		1	0	0	0	0	0	0	0
010713	10:41:23	10022	Memory3R6moFr	ScoreFr3	5	555	276	0	117	10:41:23	2931814	0	0	0	0	0	0	0	0	0	0	0	0	0	0	0	0	0	0	0	0	0	0		1	0	0	0	0	0	0	0
010713	10:41:23	10022	Memory3R6moFr	ScoreFr3	5	666	290	0	117	10:41:23	2932161	0	0	0	0	0	0	0	0	0	0	0	0	0	0	0	0	0	0	0	0	0	0		1	0	0	0	0	0	0	0
010713	10:41:23	10022	Memory3R6moFr	ScoreFr3	5	777	408	0	117	10:41:23	2932614	0	0	0	0	0	0	0	0	0	0	0	0	0	0	0	0	0	0	0	0	0	0		1	0	0	0	0	0	0	0
010713	10:41:23	10022	Memory3R6moFr	ScoreFr3	5	888	307	0	117	10:41:23	2932974	0	0	0	0	0	0	0	0	0	0	0	0	0	0	0	0	0	0	0	0	0	0		1	0	0	0	0	0	0	0
010713	10:41:23	10022	Memory3R6moFr	ScoreFr3	5	Done	428	0	117	10:41:23	2933454	0	0	0	0	0	0	0	0	0	0	0	0	0	0	0	0	0	0	0	0	0	0		1	0	0	0	0	0	0	0
010713	10:41:23	10022	LoriaFrLH3	Stop	6	10	5236	0	117	10:41:23	3027697	0	0	0	0	0	0	0	0	0	0	0	0	0	0	0	0	0	0	0	0	0	0		1	0	0	0	0	0	0	0
010713	10:41:23	10022	FrTrail	Trails	7	1Trails	625	0	117	10:41:23	3104251	0	0	0	0	0	0	0	0	0	0	0	0	0	0	0	0	0	0	0	0	0	0		1	0	0	0	0	0	0	0
010713	10:41:23	10022	Serial7Fr6mo	Serial7Fr6mo	8	72	6911	0	117	10:41:23	3138359	0	0	0	0	0	0	0	0	0	0	0	0	0	0	0	0	0	0	0	0	0	0		1	0	0	0	0	0	0	0
010713	10:41:23	10022	Serial7Fr6mo	Serial7Fr6mo	8	65	10368	0	117	10:41:23	3148742	1	0	0	0	0	0	0	0	0	0	0	0	0	0	0	0	0	0	0	0	0	0		1	0	0	0	0	0	0	0
010713	10:41:23	10022	Serial7Fr6mo	Serial7Fr6mo	8	57	32203	0	117	10:41:23	3180972	1	0	0	0	0	0	0	0	0	0	0	0	0	0	0	0	0	0	0	0	0	0		1	0	0	0	0	0	0	0
010713	10:41:23	10022	Serial7Fr6mo	Serial7Fr6mo	8	50	4277	0	117	10:41:23	3185264	2	0	0	0	0	0	0	0	0	0	0	0	0	0	0	0	0	0	0	0	0	0		1	0	0	0	0	0	0	0
010713	10:41:23	10022	Serial7Fr6mo	Serial7Fr6mo	8	43	4578	0	117	10:41:23	3189863	3	0	0	0	0	0	0	0	0	0	0	0	0	0	0	0	0	0	0	0	0	0		1	0	0	0	0	0	0	0
010713	10:41:23	10022	corsiblockFrFwrd	recallseqFrFwrd	9	1	4863	0	117	10:41:23	3240577	3	0	0	0	0	0	0	0	0	0	0	0	0	0	0	0	0	0	0	0	0	0		1	0	0	0	0	0	0	0
010713	10:41:23	10022	corsiblockFrFwrd	recallseqFrFwrd	9	3	1368	0	117	10:41:23	3241988	3	0	0	0	0	0	0	0	0	0	0	0	0	0	0	0	0	0	0	0	0	0		1	0	0	0	0	0	0	0
010713	10:41:23	10022	corsiblockFrFwrd	recallseqFrFwrd	9	doneCorsiFr	9195	0	117	10:41:23	3251238	3	0	0	0	0	0	0	0	0	0	0	0	0	0	0	2	0	0	0	0	0	0		1	0	0	0	0	0	0	0
010713	10:41:23	10022	corsiblockFrFwrd	recallseqFrFwrd	9	7	1356	0	117	10:41:23	3258714	3	0	0	0	0	0	0	0	0	0	0	0	0	0	0	2	0	0	0	0	0	0		1	0	0	0	0	0	0	0
010713	10:41:23	10022	corsiblockFrFwrd	recallseqFrFwrd	9	8	1125	0	117	10:41:23	3259901	3	0	0	0	0	0	0	0	0	0	0	0	0	0	0	2	0	0	0	0	0	0		1	0	0	0	0	0	0	0
010713	10:41:23	10022	corsiblockFrFwrd	recallseqFrFwrd	9	9	1177	0	117	10:41:23	3261167	3	0	0	0	0	0	0	0	0	0	0	0	0	0	0	2	0	0	0	0	0	0		1	0	0	0	0	0	0	0
010713	10:41:23	10022	corsiblockFrFwrd	recallseqFrFwrd	9	doneCorsiFr	2024	0	117	10:41:23	3263246	3	0	0	0	0	0	0	0	0	0	0	0	0	0	0	3	0	0	0	0	0	0		1	0	0	0	0	0	0	0
010713	10:41:23	10022	corsiblockFrFwrd	recallseqFrFwrd	9	4	1611	0	117	10:41:23	3271989	3	0	0	0	0	0	0	0	0	0	0	0	0	0	0	3	0	0	0	0	0	0		1	0	0	0	0	0	0	0
010713	10:41:23	10022	corsiblockFrFwrd	recallseqFrFwrd	9	6	574	0	117	10:41:23	3272629	3	0	0	0	0	0	0	0	0	0	0	0	0	0	0	3	0	0	0	0	0	0		1	0	0	0	0	0	0	0
010713	10:41:23	10022	corsiblockFrFwrd	recallseqFrFwrd	9	5	697	0	117	10:41:23	3273375	3	0	0	0	0	0	0	0	0	0	0	0	0	0	0	3	0	0	0	0	0	0		1	0	0	0	0	0	0	0
010713	10:41:23	10022	corsiblockFrFwrd	recallseqFrFwrd	9	2	1085	0	117	10:41:23	3274508	3	0	0	0	0	0	0	0	0	0	0	0	0	0	0	3	0	0	0	0	0	0		1	0	0	0	0	0	0	0
010713	10:41:23	10022	corsiblockFrFwrd	recallseqFrFwrd	9	doneCorsiFr	2498	0	117	10:41:23	3277054	3	0	0	0	0	0	0	0	0	0	0	0	0	0	0	3	0	0	0	0	0	0		1	0	0	0	0	0	0	0
010713	10:41:23	10022	corsiblockFrFwrd	recallseqFrFwrd	9	3	3723	0	117	10:41:23	3287865	3	0	0	0	0	0	0	0	0	0	0	0	0	0	0	3	0	0	0	0	0	0		1	0	0	0	0	0	0	0
010713	10:41:23	10022	corsiblockFrFwrd	recallseqFrFwrd	9	6	879	0	117	10:41:23	3288796	3	0	0	0	0	0	0	0	0	0	0	0	0	0	0	3	0	0	0	0	0	0		1	0	0	0	0	0	0	0
010713	10:41:23	10022	corsiblockFrFwrd	recallseqFrFwrd	9	5	890	0	117	10:41:23	3289742	3	0	0	0	0	0	0	0	0	0	0	0	0	0	0	3	0	0	0	0	0	0		1	0	0	0	0	0	0	0
010713	10:41:23	10022	corsiblockFrFwrd	recallseqFrFwrd	9	9	1128	0	117	10:41:23	3290915	3	0	0	0	0	0	0	0	0	0	0	0	0	0	0	3	0	0	0	0	0	0		1	0	0	0	0	0	0	0
010713	10:41:23	10022	corsiblockFrFwrd	recallseqFrFwrd	9	doneCorsiFr	4531	0	117	10:41:23	3295500	3	0	0	0	0	0	0	0	0	0	0	0	0	0	0	3	0	0	0	0	0	0		1	0	0	0	0	0	0	0
010713	10:41:23	10022	corsiblockFrRev	recallseqFrRev	10	6	1421	0	117	10:41:23	3310747	3	0	0	0	0	0	0	0	0	0	0	0	0	0	0	3	0	0	0	0	0	0		1	0	0	0	0	0	0	0
010713	10:41:23	10022	corsiblockFrRev	recallseqFrRev	10	3	984	0	117	10:41:23	3311786	3	0	0	0	0	0	0	0	0	0	0	0	0	0	0	3	0	0	0	0	0	0		1	0	0	0	0	0	0	0
010713	10:41:23	10022	corsiblockFrRev	recallseqFrRev	10	doneCorsiFr	1363	0	117	10:41:23	3313212	3	0	0	0	0	0	0	0	0	0	0	0	0	0	0	3	0	0	0	0	0	0		1	0	0	0	0	0	0	0
010713	10:41:23	10022	corsiblockFrRev	recallseqFrRev	10	4	1424	0	117	10:41:23	3319717	3	0	0	0	0	0	0	0	0	0	0	0	0	0	0	3	0	0	0	0	0	0		1	0	0	0	0	0	0	0
010713	10:41:23	10022	corsiblockFrRev	recallseqFrRev	10	8	1120	0	117	10:41:23	3320889	3	0	0	0	0	0	0	0	0	0	0	0	0	0	0	3	0	0	0	0	0	0		1	0	0	0	0	0	0	0
010713	10:41:23	10022	corsiblockFrRev	recallseqFrRev	10	doneCorsiFr	1713	0	117	10:41:23	3322662	3	0	0	0	0	0	0	0	0	0	0	0	0	0	0	3	0	0	0	0	0	0		1	0	0	0	0	0	0	0
010713	10:41:23	10022	testFr6mo	WordsFr6mo	11	1Fr6mo	13611	0	117	10:41:23	3349478	3	3	0	0	0	0	0	0	0	0	0	0	0	0	0	3	0	0	0	0	0	0		1	0	0	0	0	0	0	0
010713	10:41:23	10022	testFr6mo	WordsFr6mo	11	2Fr6mo	177	0	117	10:41:23	3349718	3	3	3	0	0	0	0	0	0	0	0	0	0	0	0	3	0	0	0	0	0	0		1	0	0	0	0	0	0	0
010713	10:41:23	10022	testFr6mo	WordsFr6mo	11	3Fr6mo	255	0	117	10:41:23	3350038	3	3	3	3	0	0	0	0	0	0	0	0	0	0	0	3	0	0	0	0	0	0		1	0	0	0	0	0	0	0
010713	10:41:23	10022	testFr6mo	WordsFr6mo	11	5Fr6mo	2375	0	117	10:41:23	3352477	3	3	3	3	0	3	0	0	0	0	0	0	0	0	0	3	0	0	0	0	0	0		1	0	0	0	0	0	0	0
010713	10:41:23	10022	testFr6mo	WordsFr6mo	11	6Fr6mo	235	0	117	10:41:23	3352770	3	3	3	3	0	3	3	0	0	0	0	0	0	0	0	3	0	0	0	0	0	0		1	0	0	0	0	0	0	0
010713	10:41:23	10022	testFr6mo	WordsFr6mo	11	8Fr6mo	384	0	117	10:41:23	3353225	3	3	3	3	0	3	3	0	3	0	0	0	0	0	0	3	0	0	0	0	0	0		1	0	0	0	0	0	0	0
010713	10:41:23	10022	testFr6mo	WordsFr6mo	11	4Fr6mo	8532	0	117	10:41:23	3361820	3	3	3	3	3	3	3	0	3	0	0	0	0	0	0	3	0	0	0	0	0	0		1	0	0	0	0	0	0	0
010713	10:41:23	10022	testFr6mo	WordsFr6mo	11	7Fr6mo	7962	0	117	10:41:23	3369843	3	3	3	3	3	3	3	3	3	0	0	0	0	0	0	3	0	0	0	0	0	0		1	0	0	0	0	0	0	0
010713	10:41:23	10022	testFr6mo	WordsFr6mo	11	DoneFr6mo	3220	0	117	10:41:23	3373122	3	3	3	3	3	3	3	3	3	0	0	0	0	0	0	3	0	0	0	0	0	0		1	0	0	0	0	0	0	0
010713	10:41:23	10022	DigitSpanFwrdFr6mo	Score1FwrdFr6mo	12	DS1	2467	0	117	10:41:23	3394033	3	3	3	3	3	3	3	3	3	0	0	0	0	0	0	3	0	0	0	0	0	0		1	0	0	0	0	0	0	0
010713	10:41:23	10022	DigitSpanFwrdFr6mo	Gate1FwrdFr6mo	12	0	1	0	117	10:41:23	3394038	3	3	3	3	3	3	3	3	3	3	0	0	0	0	0	3	0	0	0	0	0	0		1	0	0	0	0	0	0	0
010713	10:41:23	10022	DigitSpanFwrdFr6mo	Score2FwrdFr6mo	12	DS1	1916	0	117	10:41:23	3402256	3	3	3	3	3	3	3	3	3	3	0	0	0	0	0	3	0	0	0	0	0	0		1	0	0	0	0	0	0	0
010713	10:41:23	10022	DigitSpanFwrdFr6mo	Gate3FwrdFr6mo	12	0	1	0	117	10:41:23	3402262	3	3	3	3	3	3	3	3	3	4	0	0	0	0	0	3	0	0	0	0	0	0		1	0	0	0	0	0	0	0
010713	10:41:23	10022	DigitSpanFwrdFr6mo	Score3FwrdFr6mo	12	DS1	2623	0	117	10:41:23	3412119	3	3	3	3	3	3	3	3	3	4	0	0	0	0	0	3	0	0	0	0	0	0		1	0	0	0	0	0	0	0
010713	10:41:23	10022	DigitSpanFwrdFr6mo	Gate5FwrdFr6mo	12	0	1	0	117	10:41:23	3412125	3	3	3	3	3	3	3	3	3	5	0	0	0	0	0	3	0	0	0	0	0	0		1	0	0	0	0	0	0	0
010713	10:41:23	10022	DigitSpanFwrdFr6mo	Score4FwrdFr6mo	12	DS2	3878	0	117	10:41:23	3424514	3	3	3	3	3	3	3	3	3	5	0	0	0	0	0	3	0	0	0	0	0	0		1	0	0	0	0	0	0	0
010713	10:41:23	10022	DigitSpanFwrdFr6mo	Gate7FwrdFr6mo	12	0	1	0	117	10:41:23	3424520	3	3	3	3	3	3	3	3	3	5	0	0	0	0	0	3	0	0	0	0	0	0		1	0	0	0	0	0	0	0
010713	10:41:23	10022	DigitSpanFwrdFr6mo	Score44FwrdFr6mo	12	DS1	3520	0	117	10:41:23	3436336	3	3	3	3	3	3	3	3	3	5	0	0	0	0	0	3	0	0	0	0	0	0		1	0	0	0	0	0	0	0
010713	10:41:23	10022	DigitSpanFwrdFr6mo	Gate8FwrdFr6mo	12	0	1	0	117	10:41:23	3436341	3	3	3	3	3	3	3	3	3	6	0	0	0	0	0	3	0	0	0	0	0	0		1	0	0	0	0	0	0	0
010713	10:41:23	10022	DigitSpanFwrdFr6mo	Score5FwrdFr6mo	12	DS2	13757	0	117	10:41:23	3460046	3	3	3	3	3	3	3	3	3	6	0	0	0	0	0	3	0	0	0	0	0	0		1	0	0	0	0	0	0	0
010713	10:41:23	10022	DigitSpanFwrdFr6mo	Gate9FwrdFr6mo	12	0	1	0	117	10:41:23	3460052	3	3	3	3	3	3	3	3	3	6	0	0	0	0	0	3	0	0	0	0	0	0		1	0	0	0	0	0	0	0
010713	10:41:23	10022	DigitSpanFwrdFr6mo	Score55FwrdFr6mo	12	DS1	6289	0	117	10:41:23	3475906	3	3	3	3	3	3	3	3	3	6	0	0	0	0	0	3	0	0	0	0	0	0		1	0	0	0	0	0	0	0
010713	10:41:23	10022	DigitSpanFwrdFr6mo	Gate10FwrdFr6mo	12	0	1	0	117	10:41:23	3475912	3	3	3	3	3	3	3	3	3	7	0	0	0	0	0	3	0	0	0	0	0	0		1	0	0	0	0	0	0	0
010713	10:41:23	10022	DigitSpanFwrdFr6mo	Score6FwrdFr6mo	12	DS2	9365	0	117	10:41:23	3496391	3	3	3	3	3	3	3	3	3	7	0	0	0	0	0	3	0	0	0	0	0	0		1	0	0	0	0	0	0	0
010713	10:41:23	10022	DigitSpanFwrdFr6mo	Gate11FwrdFr6mo	12	0	1	0	117	10:41:23	3496396	3	3	3	3	3	3	3	3	3	7	0	0	0	0	0	3	0	0	0	0	0	0		1	0	0	0	0	0	0	0
010713	10:41:23	10022	DigitSpanFwrdFr6mo	Score66FwrdFr6mo	12	DS2	6063	0	117	10:41:23	3513424	3	3	3	3	3	3	3	3	3	7	0	0	0	0	0	3	0	0	0	0	0	0		1	0	0	0	0	0	0	0
010713	10:41:23	10022	DigitSpanFr6mo	Score1Fr6mo	13	DS1	1902	0	117	10:41:23	3527286	3	3	3	3	3	3	3	3	3	7	0	0	0	0	0	3	0	0	0	0	0	0		1	0	0	0	0	0	0	0
010713	10:41:23	10022	DigitSpanFr6mo	Gate1Fr6mo	13	0	1	0	117	10:41:23	3527290	3	3	3	3	3	3	3	3	3	7	2	0	0	0	0	3	0	0	0	0	0	0		1	0	0	0	0	0	0	0
010713	10:41:23	10022	DigitSpanFr6mo	Score2Fr6mo	13	DS1	7259	0	117	10:41:23	3539094	3	3	3	3	3	3	3	3	3	7	2	0	0	0	0	3	0	0	0	0	0	0		1	0	0	0	0	0	0	0
010713	10:41:23	10022	DigitSpanFr6mo	Gate3Fr6mo	13	0	1	0	117	10:41:23	3539100	3	3	3	3	3	3	3	3	3	7	3	0	0	0	0	3	0	0	0	0	0	0		1	0	0	0	0	0	0	0
010713	10:41:23	10022	DigitSpanFr6mo	Score3Fr6mo	13	DS2	7340	0	117	10:41:23	3552115	3	3	3	3	3	3	3	3	3	7	3	0	0	0	0	3	0	0	0	0	0	0		1	0	0	0	0	0	0	0
010713	10:41:23	10022	DigitSpanFr6mo	Gate5Fr6mo	13	0	1	0	117	10:41:23	3552121	3	3	3	3	3	3	3	3	3	7	3	0	0	0	0	3	0	0	0	0	0	0		1	0	0	0	0	0	0	0
010713	10:41:23	10022	DigitSpanFr6mo	Score33Fr6mo	13	DS1	3216	0	117	10:41:23	3561378	3	3	3	3	3	3	3	3	3	7	3	0	0	0	0	3	0	0	0	0	0	0		1	0	0	0	0	0	0	0
010713	10:41:23	10022	DigitSpanFr6mo	Gate6Fr6mo	13	0	1	0	117	10:41:23	3561383	3	3	3	3	3	3	3	3	3	7	4	0	0	0	0	3	0	0	0	0	0	0		1	0	0	0	0	0	0	0
010713	10:41:23	10022	DigitSpanFr6mo	Score4Fr6mo	13	DS1	3948	0	117	10:41:23	3572269	3	3	3	3	3	3	3	3	3	7	4	0	0	0	0	3	0	0	0	0	0	0		1	0	0	0	0	0	0	0
010713	10:41:23	10022	DigitSpanFr6mo	Gate7Fr6mo	13	0	1	0	117	10:41:23	3572275	3	3	3	3	3	3	3	3	3	7	5	0	0	0	0	3	0	0	0	0	0	0		1	0	0	0	0	0	0	0
010713	10:41:23	10022	DigitSpanFr6mo	Score5Fr6mo	13	DS2	17781	0	117	10:41:23	3598523	3	3	3	3	3	3	3	3	3	7	5	0	0	0	0	3	0	0	0	0	0	0		1	0	0	0	0	0	0	0
010713	10:41:23	10022	DigitSpanFr6mo	Gate9Fr6mo	13	0	1	0	117	10:41:23	3598529	3	3	3	3	3	3	3	3	3	7	5	0	0	0	0	3	0	0	0	0	0	0		1	0	0	0	0	0	0	0
010713	10:41:23	10022	DigitSpanFr6mo	Score55Fr6mo	13	DS2	4023	0	117	10:41:23	3610718	3	3	3	3	3	3	3	3	3	7	5	0	0	0	0	3	0	0	0	0	0	0		1	0	0	0	0	0	0	0
010713	10:41:23	10022	Trial	ResponseIL	14	0	175	0	117	10:41:23	3653794	3	3	3	3	3	3	3	3	3	7	5	0	0	0	0	3	0	0	0	0	0	0		1	0	0	0	0	0	0	0
010713	10:41:23	10022	Trial	IncongruentLeft	14	205	458	0	117	10:41:23	3654274	3	3	3	3	3	3	3	3	3	7	5	0	0	0	0	3	0	0	0	0	0	0		1	0	0	0	0	0	0	0
010713	10:41:23	10022	Trial	ResponseCR	14	0	175	0	117	10:41:23	3655500	3	3	3	3	3	3	3	3	3	7	5	0	0	0	0	3	0	0	0	0	0	0		1	0	0	0	0	0	0	0
010713	10:41:23	10022	Trial	CongruentRight	14	205	192	1	117	10:41:23	3655714	3	3	3	3	3	3	3	3	3	7	5	0	0	0	0	3	0	0	0	0	0	0		1	0	0	0	0	0	0	0
010713	10:41:23	10022	Trial	ResponseIR	14	0	175	0	117	10:41:23	3657206	3	3	3	3	3	3	3	3	3	7	5	0	0	0	0	3	0	0	0	0	0	0		1	0	0	0	0	0	0	0
010713	10:41:23	10022	Trial	IncongruentRight	14	205	326	1	117	10:41:23	3657553	3	3	3	3	3	3	3	3	3	7	5	0	0	0	0	3	0	0	0	0	0	0		1	0	0	0	0	0	0	0
010713	10:41:23	10022	Trial	ResponseCL	14	0	175	0	117	10:41:23	3658912	3	3	3	3	3	3	3	3	3	7	5	0	0	0	0	3	0	0	0	0	0	0		1	0	0	0	0	0	0	0
010713	10:41:23	10022	Trial	CongruentLeft	14	203	240	1	117	10:41:23	3659179	3	3	3	3	3	3	3	3	3	7	5	0	0	0	0	3	0	0	0	0	0	0		1	0	0	0	0	0	0	0
010713	10:41:23	10022	Trial	ResponseCR	14	0	175	0	117	10:41:23	3660618	3	3	3	3	3	3	3	3	3	7	5	0	0	0	0	3	0	0	0	0	0	0		1	0	0	0	0	0	0	0
010713	10:41:23	10022	Trial	CongruentRight	14	205	210	1	117	10:41:23	3660858	3	3	3	3	3	3	3	3	3	7	5	0	0	0	0	3	0	0	0	0	0	0		1	0	0	0	0	0	0	0
010713	10:41:23	10022	Trial	ResponseIR	14	0	175	0	117	10:41:23	3662324	3	3	3	3	3	3	3	3	3	7	5	0	0	0	0	3	0	0	0	0	0	0		1	0	0	0	0	0	0	0
010713	10:41:23	10022	Trial	IncongruentRight	14	205	360	1	117	10:41:23	3662711	3	3	3	3	3	3	3	3	3	7	5	0	0	0	0	3	0	0	0	0	0	0		1	0	0	0	0	0	0	0
010713	10:41:23	10022	Trial	ResponseCL	14	0	175	0	117	10:41:23	3664030	3	3	3	3	3	3	3	3	3	7	5	0	0	0	0	3	0	0	0	0	0	0		1	0	0	0	0	0	0	0
010713	10:41:23	10022	Trial	CongruentLeft	14	203	271	1	117	10:41:23	3664323	3	3	3	3	3	3	3	3	3	7	5	0	0	0	0	3	0	0	0	0	0	0		1	0	0	0	0	0	0	0
010713	10:41:23	10022	Trial	ResponseIL	14	0	175	0	117	10:41:23	3665736	3	3	3	3	3	3	3	3	3	7	5	0	0	0	0	3	0	0	0	0	0	0		1	0	0	0	0	0	0	0
010713	10:41:23	10022	Trial	IncongruentLeft	14	203	389	1	117	10:41:23	3666149	3	3	3	3	3	3	3	3	3	7	5	0	0	0	0	3	0	0	0	0	0	0		1	0	0	0	0	0	0	0
010713	10:41:23	10022	Trial	ResponseIL	14	0	175	0	117	10:41:23	3667443	3	3	3	3	3	3	3	3	3	7	5	0	0	0	0	3	0	0	0	0	0	0		1	0	0	0	0	0	0	0
010713	10:41:23	10022	Trial	IncongruentLeft	14	203	297	1	117	10:41:23	3667762	3	3	3	3	3	3	3	3	3	7	5	0	0	0	0	3	0	0	0	0	0	0		1	0	0	0	0	0	0	0
010713	10:41:23	10022	Trial	ResponseCR	14	0	175	0	117	10:41:23	3669148	3	3	3	3	3	3	3	3	3	7	5	0	0	0	0	3	0	0	0	0	0	0		1	0	0	0	0	0	0	0
010713	10:41:23	10022	Trial	CongruentRight	14	205	191	1	117	10:41:23	3669361	3	3	3	3	3	3	3	3	3	7	5	0	0	0	0	3	0	0	0	0	0	0		1	0	0	0	0	0	0	0
010713	10:41:23	10022	Trial	ResponseIR	14	0	175	0	117	10:41:23	3670854	3	3	3	3	3	3	3	3	3	7	5	0	0	0	0	3	0	0	0	0	0	0		1	0	0	0	0	0	0	0
010713	10:41:23	10022	Trial	IncongruentRight	14	203	262	0	117	10:41:23	3671134	3	3	3	3	3	3	3	3	3	7	5	0	0	0	0	3	0	0	0	0	0	0		1	0	0	0	0	0	0	0
010713	10:41:23	10022	Trial	ResponseCL	14	0	175	0	117	10:41:23	3672560	3	3	3	3	3	3	3	3	3	7	5	0	0	0	0	3	0	0	0	0	0	0		1	0	0	0	0	0	0	0
010713	10:41:23	10022	Trial	CongruentLeft	14	203	364	1	117	10:41:23	3672947	3	3	3	3	3	3	3	3	3	7	5	0	0	0	0	3	0	0	0	0	0	0		1	0	0	0	0	0	0	0
010713	10:41:23	10022	Trial	ResponseCR	14	0	175	0	117	10:41:23	3674266	3	3	3	3	3	3	3	3	3	7	5	0	0	0	0	3	0	0	0	0	0	0		1	0	0	0	0	0	0	0
010713	10:41:23	10022	Trial	CongruentRight	14	205	403	1	117	10:41:23	3674692	3	3	3	3	3	3	3	3	3	7	5	0	0	0	0	3	0	0	0	0	0	0		1	0	0	0	0	0	0	0
010713	10:41:23	10022	Trial	ResponseIL	14	0	175	0	117	10:41:23	3675974	3	3	3	3	3	3	3	3	3	7	5	0	0	0	0	3	0	0	0	0	0	0		1	0	0	0	0	0	0	0
010713	10:41:23	10022	Trial	IncongruentLeft	14	203	361	1	117	10:41:23	3676359	3	3	3	3	3	3	3	3	3	7	5	0	0	0	0	3	0	0	0	0	0	0		1	0	0	0	0	0	0	0
010713	10:41:23	10022	Trial	ResponseIR	14	0	175	0	117	10:41:23	3677678	3	3	3	3	3	3	3	3	3	7	5	0	0	0	0	3	0	0	0	0	0	0		1	0	0	0	0	0	0	0
010713	10:41:23	10022	Trial	IncongruentRight	14	205	253	1	117	10:41:23	3677958	3	3	3	3	3	3	3	3	3	7	5	0	0	0	0	3	0	0	0	0	0	0		1	0	0	0	0	0	0	0
010713	10:41:23	10022	Trial	ResponseCR	14	0	175	0	117	10:41:23	3679384	3	3	3	3	3	3	3	3	3	7	5	0	0	0	0	3	0	0	0	0	0	0		1	0	0	0	0	0	0	0
010713	10:41:23	10022	Trial	CongruentRight	14	205	360	1	117	10:41:23	3679770	3	3	3	3	3	3	3	3	3	7	5	0	0	0	0	3	0	0	0	0	0	0		1	0	0	0	0	0	0	0
010713	10:41:23	10022	Trial	ResponseCL	14	0	175	0	117	10:41:23	3681090	3	3	3	3	3	3	3	3	3	7	5	0	0	0	0	3	0	0	0	0	0	0		1	0	0	0	0	0	0	0
010713	10:41:23	10022	Trial	CongruentLeft	14	203	281	1	117	10:41:23	3681396	3	3	3	3	3	3	3	3	3	7	5	0	0	0	0	3	0	0	0	0	0	0		1	0	0	0	0	0	0	0
010713	10:41:23	10022	Trial	ResponseCR	14	0	175	0	117	10:41:23	3682796	3	3	3	3	3	3	3	3	3	7	5	0	0	0	0	3	0	0	0	0	0	0		1	0	0	0	0	0	0	0
010713	10:41:23	10022	Trial	CongruentRight	14	205	202	1	117	10:41:23	3683022	3	3	3	3	3	3	3	3	3	7	5	0	0	0	0	3	0	0	0	0	0	0		1	0	0	0	0	0	0	0
010713	10:41:23	10022	Trial	ResponseIR	14	0	175	0	117	10:41:23	3684502	3	3	3	3	3	3	3	3	3	7	5	0	0	0	0	3	0	0	0	0	0	0		1	0	0	0	0	0	0	0
010713	10:41:23	10022	Trial	IncongruentRight	14	205	326	1	117	10:41:23	3684848	3	3	3	3	3	3	3	3	3	7	5	0	0	0	0	3	0	0	0	0	0	0		1	0	0	0	0	0	0	0
010713	10:41:23	10022	Trial	ResponseIL	14	0	175	0	117	10:41:23	3686208	3	3	3	3	3	3	3	3	3	7	5	0	0	0	0	3	0	0	0	0	0	0		1	0	0	0	0	0	0	0
010713	10:41:23	10022	Trial	IncongruentLeft	14	203	203	1	117	10:41:23	3686434	3	3	3	3	3	3	3	3	3	7	5	0	0	0	0	3	0	0	0	0	0	0		1	0	0	0	0	0	0	0
010713	10:41:23	10022	Trial	ResponseIL	14	0	175	0	117	10:41:23	3687914	3	3	3	3	3	3	3	3	3	7	5	0	0	0	0	3	0	0	0	0	0	0		1	0	0	0	0	0	0	0
010713	10:41:23	10022	Trial	IncongruentLeft	14	203	348	1	117	10:41:23	3688287	3	3	3	3	3	3	3	3	3	7	5	0	0	0	0	3	0	0	0	0	0	0		1	0	0	0	0	0	0	0
010713	10:41:23	10022	Trial	ResponseCL	14	0	175	0	117	10:41:23	3689620	3	3	3	3	3	3	3	3	3	7	5	0	0	0	0	3	0	0	0	0	0	0		1	0	0	0	0	0	0	0
010713	10:41:23	10022	Trial	CongruentLeft	14	203	216	1	117	10:41:23	3689859	3	3	3	3	3	3	3	3	3	7	5	0	0	0	0	3	0	0	0	0	0	0		1	0	0	0	0	0	0	0
010713	10:41:23	10022	Trial	ResponseCR	14	0	175	0	117	10:41:23	3691326	3	3	3	3	3	3	3	3	3	7	5	0	0	0	0	3	0	0	0	0	0	0		1	0	0	0	0	0	0	0
010713	10:41:23	10022	Trial	CongruentRight	14	205	189	1	117	10:41:23	3691539	3	3	3	3	3	3	3	3	3	7	5	0	0	0	0	3	0	0	0	0	0	0		1	0	0	0	0	0	0	0
010713	10:41:23	10022	Trial	ResponseIL	14	0	175	0	117	10:41:23	3693032	3	3	3	3	3	3	3	3	3	7	5	0	0	0	0	3	0	0	0	0	0	0		1	0	0	0	0	0	0	0
010713	10:41:23	10022	Trial	IncongruentLeft	14	203	196	1	117	10:41:23	3693245	3	3	3	3	3	3	3	3	3	7	5	0	0	0	0	3	0	0	0	0	0	0		1	0	0	0	0	0	0	0
010713	10:41:23	10022	Trial	ResponseIR	14	0	175	0	117	10:41:23	3694738	3	3	3	3	3	3	3	3	3	7	5	0	0	0	0	3	0	0	0	0	0	0		1	0	0	0	0	0	0	0
010713	10:41:23	10022	Trial	IncongruentRight	14	203	297	0	117	10:41:23	3695057	3	3	3	3	3	3	3	3	3	7	5	0	0	0	0	3	0	0	0	0	0	0		1	0	0	0	0	0	0	0
010713	10:41:23	10022	Trial	ResponseCR	14	0	175	0	117	10:41:23	3696444	3	3	3	3	3	3	3	3	3	7	5	0	0	0	0	3	0	0	0	0	0	0		1	0	0	0	0	0	0	0
010713	10:41:23	10022	Trial	CongruentRight	14	205	320	1	117	10:41:23	3696790	3	3	3	3	3	3	3	3	3	7	5	0	0	0	0	3	0	0	0	0	0	0		1	0	0	0	0	0	0	0
010713	10:41:23	10022	Trial	ResponseCL	14	0	175	0	117	10:41:23	3698150	3	3	3	3	3	3	3	3	3	7	5	0	0	0	0	3	0	0	0	0	0	0		1	0	0	0	0	0	0	0
010713	10:41:23	10022	Trial	CongruentLeft	14	203	262	1	117	10:41:23	3698429	3	3	3	3	3	3	3	3	3	7	5	0	0	0	0	3	0	0	0	0	0	0		1	0	0	0	0	0	0	0
010713	10:41:23	10022	Trial	ResponseIR	14	0	175	0	117	10:41:23	3699856	3	3	3	3	3	3	3	3	3	7	5	0	0	0	0	3	0	0	0	0	0	0		1	0	0	0	0	0	0	0
010713	10:41:23	10022	Trial	IncongruentRight	14	205	348	1	117	10:41:23	3700229	3	3	3	3	3	3	3	3	3	7	5	0	0	0	0	3	0	0	0	0	0	0		1	0	0	0	0	0	0	0
010713	10:41:23	10022	Trial	ResponseIL	14	0	175	0	117	10:41:23	3701562	3	3	3	3	3	3	3	3	3	7	5	0	0	0	0	3	0	0	0	0	0	0		1	0	0	0	0	0	0	0
010713	10:41:23	10022	Trial	IncongruentLeft	14	203	433	1	117	10:41:23	3702017	3	3	3	3	3	3	3	3	3	7	5	0	0	0	0	3	0	0	0	0	0	0		1	0	0	0	0	0	0	0
010713	10:41:23	10022	Trial	ResponseIR	14	0	175	0	117	10:41:23	3703268	3	3	3	3	3	3	3	3	3	7	5	0	0	0	0	3	0	0	0	0	0	0		1	0	0	0	0	0	0	0
010713	10:41:23	10022	Trial	IncongruentRight	14	205	215	1	117	10:41:23	3703507	3	3	3	3	3	3	3	3	3	7	5	0	0	0	0	3	0	0	0	0	0	0		1	0	0	0	0	0	0	0
010713	10:41:23	10022	Trial	ResponseCR	14	0	175	0	117	10:41:23	3704974	3	3	3	3	3	3	3	3	3	7	5	0	0	0	0	3	0	0	0	0	0	0		1	0	0	0	0	0	0	0
010713	10:41:23	10022	Trial	CongruentRight	14	205	254	1	117	10:41:23	3705253	3	3	3	3	3	3	3	3	3	7	5	0	0	0	0	3	0	0	0	0	0	0		1	0	0	0	0	0	0	0
010713	10:41:23	10022	Trial	ResponseIL	14	0	175	0	117	10:41:23	3706679	3	3	3	3	3	3	3	3	3	7	5	0	0	0	0	3	0	0	0	0	0	0		1	0	0	0	0	0	0	0
010713	10:41:23	10022	Trial	IncongruentLeft	14	203	276	1	117	10:41:23	3706973	3	3	3	3	3	3	3	3	3	7	5	0	0	0	0	3	0	0	0	0	0	0		1	0	0	0	0	0	0	0
010713	10:41:23	10022	Trial	ResponseCL	14	0	175	0	117	10:41:23	3708385	3	3	3	3	3	3	3	3	3	7	5	0	0	0	0	3	0	0	0	0	0	0		1	0	0	0	0	0	0	0
010713	10:41:23	10022	Trial	CongruentLeft	14	203	521	1	117	10:41:23	3708932	3	3	3	3	3	3	3	3	3	7	5	0	0	0	0	3	0	0	0	0	0	0		1	0	0	0	0	0	0	0
010713	10:41:23	10022	Trial	ResponseCR	14	0	175	0	117	10:41:23	3710091	3	3	3	3	3	3	3	3	3	7	5	0	0	0	0	3	0	0	0	0	0	0		1	0	0	0	0	0	0	0
010713	10:41:23	10022	Trial	CongruentRight	14	205	207	1	117	10:41:23	3710318	3	3	3	3	3	3	3	3	3	7	5	0	0	0	0	3	0	0	0	0	0	0		1	0	0	0	0	0	0	0
010713	10:41:23	10022	Trial	ResponseIL	14	0	175	0	117	10:41:23	3711797	3	3	3	3	3	3	3	3	3	7	5	0	0	0	0	3	0	0	0	0	0	0		1	0	0	0	0	0	0	0
010713	10:41:23	10022	Trial	IncongruentLeft	14	203	358	1	117	10:41:23	3712184	3	3	3	3	3	3	3	3	3	7	5	0	0	0	0	3	0	0	0	0	0	0		1	0	0	0	0	0	0	0
010713	10:41:23	10022	Trial	ResponseIR	14	0	175	0	117	10:41:23	3713503	3	3	3	3	3	3	3	3	3	7	5	0	0	0	0	3	0	0	0	0	0	0		1	0	0	0	0	0	0	0
010713	10:41:23	10022	Trial	IncongruentRight	14	205	348	1	117	10:41:23	3713877	3	3	3	3	3	3	3	3	3	7	5	0	0	0	0	3	0	0	0	0	0	0		1	0	0	0	0	0	0	0
010713	10:41:23	10022	Trial	ResponseIR	14	0	175	0	117	10:41:23	3715209	3	3	3	3	3	3	3	3	3	7	5	0	0	0	0	3	0	0	0	0	0	0		1	0	0	0	0	0	0	0
010713	10:41:23	10022	Trial	IncongruentRight	14	205	442	1	117	10:41:23	3715677	3	3	3	3	3	3	3	3	3	7	5	0	0	0	0	3	0	0	0	0	0	0		1	0	0	0	0	0	0	0
010713	10:41:23	10022	Trial	ResponseCL	14	0	175	0	117	10:41:23	3716916	3	3	3	3	3	3	3	3	3	7	5	0	0	0	0	3	0	0	0	0	0	0		1	0	0	0	0	0	0	0
010713	10:41:23	10022	Trial	CongruentLeft	14	203	343	1	117	10:41:23	3717289	3	3	3	3	3	3	3	3	3	7	5	0	0	0	0	3	0	0	0	0	0	0		1	0	0	0	0	0	0	0
010713	10:41:23	10022	Trial	ResponseIL	14	0	175	0	117	10:41:23	3718621	3	3	3	3	3	3	3	3	3	7	5	0	0	0	0	3	0	0	0	0	0	0		1	0	0	0	0	0	0	0
010713	10:41:23	10022	Trial	IncongruentLeft	14	203	445	1	117	10:41:23	3719087	3	3	3	3	3	3	3	3	3	7	5	0	0	0	0	3	0	0	0	0	0	0		1	0	0	0	0	0	0	0
010713	10:41:23	10022	Trial	ResponseCR	14	0	175	0	117	10:41:23	3720330	3	3	3	3	3	3	3	3	3	7	5	0	0	0	0	3	0	0	0	0	0	0		1	0	0	0	0	0	0	0
010713	10:41:23	10022	Trial	CongruentRight	14	205	210	1	117	10:41:23	3720567	3	3	3	3	3	3	3	3	3	7	5	0	0	0	0	3	0	0	0	0	0	0		1	0	0	0	0	0	0	0
010713	10:41:23	10022	Trial	ResponseCL	14	0	175	0	117	10:41:23	3722033	3	3	3	3	3	3	3	3	3	7	5	0	0	0	0	3	0	0	0	0	0	0		1	0	0	0	0	0	0	0
010713	10:41:23	10022	Trial	CongruentLeft	14	203	297	1	117	10:41:23	3722353	3	3	3	3	3	3	3	3	3	7	5	0	0	0	0	3	0	0	0	0	0	0		1	0	0	0	0	0	0	0
010713	10:41:23	10022	Trial	ResponseIR	14	0	175	0	117	10:41:23	3723739	3	3	3	3	3	3	3	3	3	7	5	0	0	0	0	3	0	0	0	0	0	0		1	0	0	0	0	0	0	0
010713	10:41:23	10022	Trial	IncongruentRight	14	205	222	1	117	10:41:23	3723993	3	3	3	3	3	3	3	3	3	7	5	0	0	0	0	3	0	0	0	0	0	0		1	0	0	0	0	0	0	0
010713	10:41:23	10022	Trial	ResponseCR	14	0	175	0	117	10:41:23	3725445	3	3	3	3	3	3	3	3	3	7	5	0	0	0	0	3	0	0	0	0	0	0		1	0	0	0	0	0	0	0
010713	10:41:23	10022	Trial	CongruentRight	14	205	277	1	117	10:41:23	3725752	3	3	3	3	3	3	3	3	3	7	5	0	0	0	0	3	0	0	0	0	0	0		1	0	0	0	0	0	0	0
010713	10:41:23	10022	Trial	ResponseIL	14	0	175	0	117	10:41:23	3727151	3	3	3	3	3	3	3	3	3	7	5	0	0	0	0	3	0	0	0	0	0	0		1	0	0	0	0	0	0	0
010713	10:41:23	10022	Trial	IncongruentLeft	14	203	284	1	117	10:41:23	3727458	3	3	3	3	3	3	3	3	3	7	5	0	0	0	0	3	0	0	0	0	0	0		1	0	0	0	0	0	0	0
010713	10:41:23	10022	Trial	ResponseCL	14	0	175	0	117	10:41:23	3728857	3	3	3	3	3	3	3	3	3	7	5	0	0	0	0	3	0	0	0	0	0	0		1	0	0	0	0	0	0	0
010713	10:41:23	10022	Trial	CongruentLeft	14	203	257	1	117	10:41:23	3729137	3	3	3	3	3	3	3	3	3	7	5	0	0	0	0	3	0	0	0	0	0	0		1	0	0	0	0	0	0	0
010713	10:41:23	10022	Trial	ResponseIL	14	0	175	0	117	10:41:23	3730563	3	3	3	3	3	3	3	3	3	7	5	0	0	0	0	3	0	0	0	0	0	0		1	0	0	0	0	0	0	0
010713	10:41:23	10022	Trial	IncongruentLeft	14	203	375	1	117	10:41:23	3730963	3	3	3	3	3	3	3	3	3	7	5	0	0	0	0	3	0	0	0	0	0	0		1	0	0	0	0	0	0	0
010713	10:41:23	10022	Trial	ResponseIR	14	0	175	0	117	10:41:23	3732270	3	3	3	3	3	3	3	3	3	7	5	0	0	0	0	3	0	0	0	0	0	0		1	0	0	0	0	0	0	0
010713	10:41:23	10022	Trial	IncongruentRight	14	205	365	1	117	10:41:23	3732656	3	3	3	3	3	3	3	3	3	7	5	0	0	0	0	3	0	0	0	0	0	0		1	0	0	0	0	0	0	0
010713	10:41:23	10022	Trial	ResponseCR	14	0	175	0	117	10:41:23	3733975	3	3	3	3	3	3	3	3	3	7	5	0	0	0	0	3	0	0	0	0	0	0		1	0	0	0	0	0	0	0
010713	10:41:23	10022	Trial	CongruentRight	14	205	227	1	117	10:41:23	3734228	3	3	3	3	3	3	3	3	3	7	5	0	0	0	0	3	0	0	0	0	0	0		1	0	0	0	0	0	0	0
010713	10:41:23	10022	Trial	ResponseCL	14	0	175	0	117	10:41:23	3735681	3	3	3	3	3	3	3	3	3	7	5	0	0	0	0	3	0	0	0	0	0	0		1	0	0	0	0	0	0	0
010713	10:41:23	10022	Trial	CongruentLeft	14	203	313	1	117	10:41:23	3736015	3	3	3	3	3	3	3	3	3	7	5	0	0	0	0	3	0	0	0	0	0	0		1	0	0	0	0	0	0	0
010713	10:41:23	10022	Trial	ResponseCL	14	0	175	0	117	10:41:23	3737387	3	3	3	3	3	3	3	3	3	7	5	0	0	0	0	3	0	0	0	0	0	0		1	0	0	0	0	0	0	0
010713	10:41:23	10022	Trial	CongruentLeft	14	203	367	1	117	10:41:23	3737773	3	3	3	3	3	3	3	3	3	7	5	0	0	0	0	3	0	0	0	0	0	0		1	0	0	0	0	0	0	0
010713	10:41:23	10022	Trial	ResponseIR	14	0	175	0	117	10:41:23	3739093	3	3	3	3	3	3	3	3	3	7	5	0	0	0	0	3	0	0	0	0	0	0		1	0	0	0	0	0	0	0
010713	10:41:23	10022	Trial	IncongruentRight	14	205	309	1	117	10:41:23	3739426	3	3	3	3	3	3	3	3	3	7	5	0	0	0	0	3	0	0	0	0	0	0		1	0	0	0	0	0	0	0
010713	10:41:23	10022	Trial	ResponseIL	14	0	175	0	117	10:41:23	3740799	3	3	3	3	3	3	3	3	3	7	5	0	0	0	0	3	0	0	0	0	0	0		1	0	0	0	0	0	0	0
010713	10:41:23	10022	Trial	IncongruentLeft	14	203	331	1	117	10:41:23	3741159	3	3	3	3	3	3	3	3	3	7	5	0	0	0	0	3	0	0	0	0	0	0		1	0	0	0	0	0	0	0
010713	10:41:23	10022	Trial	ResponseIR	14	0	175	0	117	10:41:23	3742505	3	3	3	3	3	3	3	3	3	7	5	0	0	0	0	3	0	0	0	0	0	0		1	0	0	0	0	0	0	0
010713	10:41:23	10022	Trial	IncongruentRight	14	205	384	1	117	10:41:23	3742919	3	3	3	3	3	3	3	3	3	7	5	0	0	0	0	3	0	0	0	0	0	0		1	0	0	0	0	0	0	0
010713	10:41:23	10022	Trial	ResponseCR	14	0	175	0	117	10:41:23	3744211	3	3	3	3	3	3	3	3	3	7	5	0	0	0	0	3	0	0	0	0	0	0		1	0	0	0	0	0	0	0
010713	10:41:23	10022	Trial	CongruentRight	14	205	231	1	117	10:41:23	3744464	3	3	3	3	3	3	3	3	3	7	5	0	0	0	0	3	0	0	0	0	0	0		1	0	0	0	0	0	0	0
010713	10:41:23	10022	Trial	ResponseCR	14	0	175	0	117	10:41:23	3745917	3	3	3	3	3	3	3	3	3	7	5	0	0	0	0	3	0	0	0	0	0	0		1	0	0	0	0	0	0	0
010713	10:41:23	10022	Trial	CongruentRight	14	205	363	1	117	10:41:23	3746303	3	3	3	3	3	3	3	3	3	7	5	0	0	0	0	3	0	0	0	0	0	0		1	0	0	0	0	0	0	0
010713	10:41:23	10022	Trial	ResponseIL	14	0	175	0	117	10:41:23	3747623	3	3	3	3	3	3	3	3	3	7	5	0	0	0	0	3	0	0	0	0	0	0		1	0	0	0	0	0	0	0
010713	10:41:23	10022	Trial	IncongruentLeft	14	203	455	1	117	10:41:23	3748105	3	3	3	3	3	3	3	3	3	7	5	0	0	0	0	3	0	0	0	0	0	0		1	0	0	0	0	0	0	0
010713	10:41:23	10022	Trial	ResponseCL	14	0	175	0	117	10:41:23	3749329	3	3	3	3	3	3	3	3	3	7	5	0	0	0	0	3	0	0	0	0	0	0		1	0	0	0	0	0	0	0
010713	10:41:23	10022	Trial	CongruentLeft	14	203	489	1	117	10:41:23	3749837	3	3	3	3	3	3	3	3	3	7	5	0	0	0	0	3	0	0	0	0	0	0		1	0	0	0	0	0	0	0
010713	10:41:23	10022	Trial	ResponseCR	14	0	175	0	117	10:41:23	3751035	3	3	3	3	3	3	3	3	3	7	5	0	0	0	0	3	0	0	0	0	0	0		1	0	0	0	0	0	0	0
010713	10:41:23	10022	Trial	CongruentRight	14	205	239	1	117	10:41:23	3751301	3	3	3	3	3	3	3	3	3	7	5	0	0	0	0	3	0	0	0	0	0	0		1	0	0	0	0	0	0	0
010713	10:41:23	10022	Trial	ResponseCL	14	0	175	0	117	10:41:23	3752741	3	3	3	3	3	3	3	3	3	7	5	0	0	0	0	3	0	0	0	0	0	0		1	0	0	0	0	0	0	0
010713	10:41:23	10022	Trial	CongruentLeft	14	203	197	1	117	10:41:23	3752967	3	3	3	3	3	3	3	3	3	7	5	0	0	0	0	3	0	0	0	0	0	0		1	0	0	0	0	0	0	0
010713	10:41:23	10022	Trial	ResponseIR	14	0	175	0	117	10:41:23	3754447	3	3	3	3	3	3	3	3	3	7	5	0	0	0	0	3	0	0	0	0	0	0		1	0	0	0	0	0	0	0
010713	10:41:23	10022	Trial	IncongruentRight	14	205	331	1	117	10:41:23	3754807	3	3	3	3	3	3	3	3	3	7	5	0	0	0	0	3	0	0	0	0	0	0		1	0	0	0	0	0	0	0
010713	10:41:23	10022	Trial	ResponseCR	14	0	175	0	117	10:41:23	3756153	3	3	3	3	3	3	3	3	3	7	5	0	0	0	0	3	0	0	0	0	0	0		1	0	0	0	0	0	0	0
010713	10:41:23	10022	Trial	CongruentRight	14	205	209	1	117	10:41:23	3756379	3	3	3	3	3	3	3	3	3	7	5	0	0	0	0	3	0	0	0	0	0	0		1	0	0	0	0	0	0	0
010713	10:41:23	10022	Trial	ResponseCL	14	0	175	0	117	10:41:23	3757859	3	3	3	3	3	3	3	3	3	7	5	0	0	0	0	3	0	0	0	0	0	0		1	0	0	0	0	0	0	0
010713	10:41:23	10022	Trial	CongruentLeft	14	203	311	1	117	10:41:23	3758192	3	3	3	3	3	3	3	3	3	7	5	0	0	0	0	3	0	0	0	0	0	0		1	0	0	0	0	0	0	0
010713	10:41:23	10022	Trial	ResponseIL	14	0	175	0	117	10:41:23	3759565	3	3	3	3	3	3	3	3	3	7	5	0	0	0	0	3	0	0	0	0	0	0		1	0	0	0	0	0	0	0
010713	10:41:23	10022	Trial	IncongruentLeft	14	203	349	1	117	10:41:23	3759938	3	3	3	3	3	3	3	3	3	7	5	0	0	0	0	3	0	0	0	0	0	0		1	0	0	0	0	0	0	0
010713	10:41:23	10022	Trial	ResponseIL	14	0	175	0	117	10:41:23	3761271	3	3	3	3	3	3	3	3	3	7	5	0	0	0	0	3	0	0	0	0	0	0		1	0	0	0	0	0	0	0
010713	10:41:23	10022	Trial	IncongruentLeft	14	203	458	1	117	10:41:23	3761750	3	3	3	3	3	3	3	3	3	7	5	0	0	0	0	3	0	0	0	0	0	0		1	0	0	0	0	0	0	0
010713	10:41:23	10022	Trial	ResponseCR	14	0	175	0	117	10:41:23	3762977	3	3	3	3	3	3	3	3	3	7	5	0	0	0	0	3	0	0	0	0	0	0		1	0	0	0	0	0	0	0
010713	10:41:23	10022	Trial	CongruentRight	14	205	233	1	117	10:41:23	3763230	3	3	3	3	3	3	3	3	3	7	5	0	0	0	0	3	0	0	0	0	0	0		1	0	0	0	0	0	0	0
010713	10:41:23	10022	Trial	ResponseIR	14	0	175	0	117	10:41:23	3764683	3	3	3	3	3	3	3	3	3	7	5	0	0	0	0	3	0	0	0	0	0	0		1	0	0	0	0	0	0	0
010713	10:41:23	10022	Trial	IncongruentRight	14	203	271	0	117	10:41:23	3764976	3	3	3	3	3	3	3	3	3	7	5	0	0	0	0	3	0	0	0	0	0	0		1	0	0	0	0	0	0	0
010713	10:41:23	10022	Trial	ResponseCL	14	0	175	0	117	10:41:23	3766389	3	3	3	3	3	3	3	3	3	7	5	0	0	0	0	3	0	0	0	0	0	0		1	0	0	0	0	0	0	0
010713	10:41:23	10022	Trial	CongruentLeft	14	203	341	1	117	10:41:23	3766749	3	3	3	3	3	3	3	3	3	7	5	0	0	0	0	3	0	0	0	0	0	0		1	0	0	0	0	0	0	0
010713	10:41:23	10022	Trial	ResponseIR	14	0	175	0	117	10:41:23	3768095	3	3	3	3	3	3	3	3	3	7	5	0	0	0	0	3	0	0	0	0	0	0		1	0	0	0	0	0	0	0
010713	10:41:23	10022	Trial	IncongruentRight	14	205	331	1	117	10:41:23	3768455	3	3	3	3	3	3	3	3	3	7	5	0	0	0	0	3	0	0	0	0	0	0		1	0	0	0	0	0	0	0
010713	10:41:23	10022	Trial	ResponseCR	14	0	175	0	117	10:41:23	3769801	3	3	3	3	3	3	3	3	3	7	5	0	0	0	0	3	0	0	0	0	0	0		1	0	0	0	0	0	0	0
010713	10:41:23	10022	Trial	CongruentRight	14	205	219	1	117	10:41:23	3770054	3	3	3	3	3	3	3	3	3	7	5	0	0	0	0	3	0	0	0	0	0	0		1	0	0	0	0	0	0	0
010713	10:41:23	10022	Trial	ResponseIL	14	0	175	0	117	10:41:23	3771507	3	3	3	3	3	3	3	3	3	7	5	0	0	0	0	3	0	0	0	0	0	0		1	0	0	0	0	0	0	0
010713	10:41:23	10022	Trial	IncongruentLeft	14	203	374	1	117	10:41:23	3771906	3	3	3	3	3	3	3	3	3	7	5	0	0	0	0	3	0	0	0	0	0	0		1	0	0	0	0	0	0	0
010713	10:41:23	10022	Trial	ResponseCL	14	0	175	0	117	10:41:23	3773213	3	3	3	3	3	3	3	3	3	7	5	0	0	0	0	3	0	0	0	0	0	0		1	0	0	0	0	0	0	0
010713	10:41:23	10022	Trial	CongruentLeft	14	203	301	1	117	10:41:23	3773533	3	3	3	3	3	3	3	3	3	7	5	0	0	0	0	3	0	0	0	0	0	0		1	0	0	0	0	0	0	0
010713	10:41:23	10022	Trial	ResponseCR	14	0	175	0	117	10:41:23	3774919	3	3	3	3	3	3	3	3	3	7	5	0	0	0	0	3	0	0	0	0	0	0		1	0	0	0	0	0	0	0
010713	10:41:23	10022	Trial	CongruentRight	14	205	323	1	117	10:41:23	3775265	3	3	3	3	3	3	3	3	3	7	5	0	0	0	0	3	0	0	0	0	0	0		1	0	0	0	0	0	0	0
010713	10:41:23	10022	Trial	ResponseIL	14	0	175	0	117	10:41:23	3776625	3	3	3	3	3	3	3	3	3	7	5	0	0	0	0	3	0	0	0	0	0	0		1	0	0	0	0	0	0	0
010713	10:41:23	10022	Trial	IncongruentLeft	14	203	339	1	117	10:41:23	3776998	3	3	3	3	3	3	3	3	3	7	5	0	0	0	0	3	0	0	0	0	0	0		1	0	0	0	0	0	0	0
010713	10:41:23	10022	Trial	ResponseCR	14	0	175	0	117	10:41:23	3778331	3	3	3	3	3	3	3	3	3	7	5	0	0	0	0	3	0	0	0	0	0	0		1	0	0	0	0	0	0	0
010713	10:41:23	10022	Trial	CongruentRight	14	205	239	1	117	10:41:23	3778597	3	3	3	3	3	3	3	3	3	7	5	0	0	0	0	3	0	0	0	0	0	0		1	0	0	0	0	0	0	0
010713	10:41:23	10022	Trial	ResponseCR	14	0	175	0	117	10:41:23	3780037	3	3	3	3	3	3	3	3	3	7	5	0	0	0	0	3	0	0	0	0	0	0		1	0	0	0	0	0	0	0
010713	10:41:23	10022	Trial	CongruentRight	14	205	261	1	117	10:41:23	3780316	3	3	3	3	3	3	3	3	3	7	5	0	0	0	0	3	0	0	0	0	0	0		1	0	0	0	0	0	0	0
010713	10:41:23	10022	Trial	ResponseIR	14	0	175	0	117	10:41:23	3781743	3	3	3	3	3	3	3	3	3	7	5	0	0	0	0	3	0	0	0	0	0	0		1	0	0	0	0	0	0	0
010713	10:41:23	10022	Trial	IncongruentRight	14	205	363	1	117	10:41:23	3782129	3	3	3	3	3	3	3	3	3	7	5	0	0	0	0	3	0	0	0	0	0	0		1	0	0	0	0	0	0	0
010713	10:41:23	10022	Trial	ResponseCL	14	0	175	0	117	10:41:23	3783449	3	3	3	3	3	3	3	3	3	7	5	0	0	0	0	3	0	0	0	0	0	0		1	0	0	0	0	0	0	0
010713	10:41:23	10022	Trial	CongruentLeft	14	203	321	1	117	10:41:23	3783795	3	3	3	3	3	3	3	3	3	7	5	0	0	0	0	3	0	0	0	0	0	0		1	0	0	0	0	0	0	0
010713	10:41:23	10022	Trial	ResponseIL	14	0	175	0	117	10:41:23	3785154	3	3	3	3	3	3	3	3	3	7	5	0	0	0	0	3	0	0	0	0	0	0		1	0	0	0	0	0	0	0
010713	10:41:23	10022	Trial	IncongruentLeft	14	203	375	1	117	10:41:23	3785554	3	3	3	3	3	3	3	3	3	7	5	0	0	0	0	3	0	0	0	0	0	0		1	0	0	0	0	0	0	0
010713	10:41:23	10022	Trial	ResponseCL	14	0	175	0	117	10:41:23	3786860	3	3	3	3	3	3	3	3	3	7	5	0	0	0	0	3	0	0	0	0	0	0		1	0	0	0	0	0	0	0
010713	10:41:23	10022	Trial	CongruentLeft	14	203	237	1	117	10:41:23	3787127	3	3	3	3	3	3	3	3	3	7	5	0	0	0	0	3	0	0	0	0	0	0		1	0	0	0	0	0	0	0
010713	10:41:23	10022	Trial	ResponseIR	14	0	175	0	117	10:41:23	3788566	3	3	3	3	3	3	3	3	3	7	5	0	0	0	0	3	0	0	0	0	0	0		1	0	0	0	0	0	0	0
010713	10:41:23	10022	Trial	IncongruentRight	14	205	387	1	117	10:41:23	3788980	3	3	3	3	3	3	3	3	3	7	5	0	0	0	0	3	0	0	0	0	0	0		1	0	0	0	0	0	0	0
010713	10:41:23	10022	Trial	ResponseIL	14	0	175	0	117	10:41:23	3790273	3	3	3	3	3	3	3	3	3	7	5	0	0	0	0	3	0	0	0	0	0	0		1	0	0	0	0	0	0	0
010713	10:41:23	10022	Trial	IncongruentLeft	14	203	345	1	117	10:41:23	3790645	3	3	3	3	3	3	3	3	3	7	5	0	0	0	0	3	0	0	0	0	0	0		1	0	0	0	0	0	0	0
010713	10:41:23	10022	Trial	ResponseCR	14	0	175	0	117	10:41:23	3791979	3	3	3	3	3	3	3	3	3	7	5	0	0	0	0	3	0	0	0	0	0	0		1	0	0	0	0	0	0	0
010713	10:41:23	10022	Trial	CongruentRight	14	205	206	1	117	10:41:23	3792205	3	3	3	3	3	3	3	3	3	7	5	0	0	0	0	3	0	0	0	0	0	0		1	0	0	0	0	0	0	0
010713	10:41:23	10022	Trial	ResponseCL	14	0	175	0	117	10:41:23	3793684	3	3	3	3	3	3	3	3	3	7	5	0	0	0	0	3	0	0	0	0	0	0		1	0	0	0	0	0	0	0
010713	10:41:23	10022	Trial	CongruentLeft	14	203	196	1	117	10:41:23	3793911	3	3	3	3	3	3	3	3	3	7	5	0	0	0	0	3	0	0	0	0	0	0		1	0	0	0	0	0	0	0
010713	10:41:23	10022	Trial	ResponseIL	14	0	175	0	117	10:41:23	3795390	3	3	3	3	3	3	3	3	3	7	5	0	0	0	0	3	0	0	0	0	0	0		1	0	0	0	0	0	0	0
010713	10:41:23	10022	Trial	IncongruentLeft	14	203	394	1	117	10:41:23	3795809	3	3	3	3	3	3	3	3	3	7	5	0	0	0	0	3	0	0	0	0	0	0		1	0	0	0	0	0	0	0
010713	10:41:23	10022	Trial	ResponseCL	14	0	175	0	117	10:41:23	3797096	3	3	3	3	3	3	3	3	3	7	5	0	0	0	0	3	0	0	0	0	0	0		1	0	0	0	0	0	0	0
010713	10:41:23	10022	Trial	CongruentLeft	14	203	347	1	117	10:41:23	3797469	3	3	3	3	3	3	3	3	3	7	5	0	0	0	0	3	0	0	0	0	0	0		1	0	0	0	0	0	0	0
010713	10:41:23	10022	Trial	ResponseIR	14	0	175	0	117	10:41:23	3798802	3	3	3	3	3	3	3	3	3	7	5	0	0	0	0	3	0	0	0	0	0	0		1	0	0	0	0	0	0	0
010713	10:41:23	10022	Trial	IncongruentRight	14	205	199	1	117	10:41:23	3799029	3	3	3	3	3	3	3	3	3	7	5	0	0	0	0	3	0	0	0	0	0	0		1	0	0	0	0	0	0	0
010713	10:41:23	10022	Trial	ResponseCR	14	0	175	0	117	10:41:23	3800508	3	3	3	3	3	3	3	3	3	7	5	0	0	0	0	3	0	0	0	0	0	0		1	0	0	0	0	0	0	0
010713	10:41:23	10022	Trial	CongruentRight	14	205	189	1	117	10:41:23	3800721	3	3	3	3	3	3	3	3	3	7	5	0	0	0	0	3	0	0	0	0	0	0		1	0	0	0	0	0	0	0
010713	10:41:23	10022	Trial	ResponseIL	14	0	175	0	117	10:41:23	3802214	3	3	3	3	3	3	3	3	3	7	5	0	0	0	0	3	0	0	0	0	0	0		1	0	0	0	0	0	0	0
010713	10:41:23	10022	Trial	IncongruentLeft	14	203	243	1	117	10:41:23	3802481	3	3	3	3	3	3	3	3	3	7	5	0	0	0	0	3	0	0	0	0	0	0		1	0	0	0	0	0	0	0
010713	10:41:23	10022	Trial	ResponseCL	14	0	175	0	117	10:41:23	3803920	3	3	3	3	3	3	3	3	3	7	5	0	0	0	0	3	0	0	0	0	0	0		1	0	0	0	0	0	0	0
010713	10:41:23	10022	Trial	CongruentLeft	14	203	426	1	117	10:41:23	3804375	3	3	3	3	3	3	3	3	3	7	5	0	0	0	0	3	0	0	0	0	0	0		1	0	0	0	0	0	0	0
010713	10:41:23	10022	Trial	ResponseIR	14	0	175	0	117	10:41:23	3805628	3	3	3	3	3	3	3	3	3	7	5	0	0	0	0	3	0	0	0	0	0	0		1	0	0	0	0	0	0	0
010713	10:41:23	10022	Trial	IncongruentRight	14	205	350	1	117	10:41:23	3805999	3	3	3	3	3	3	3	3	3	7	5	0	0	0	0	3	0	0	0	0	0	0		1	0	0	0	0	0	0	0
010713	10:41:23	10022	Trial	ResponseIL	14	0	175	0	117	10:41:23	3807332	3	3	3	3	3	3	3	3	3	7	5	0	0	0	0	3	0	0	0	0	0	0		1	0	0	0	0	0	0	0
010713	10:41:23	10022	Trial	IncongruentLeft	14	203	244	1	117	10:41:23	3807599	3	3	3	3	3	3	3	3	3	7	5	0	0	0	0	3	0	0	0	0	0	0		1	0	0	0	0	0	0	0
010713	10:41:23	10022	Trial	ResponseCL	14	0	175	0	117	10:41:23	3809038	3	3	3	3	3	3	3	3	3	7	5	0	0	0	0	3	0	0	0	0	0	0		1	0	0	0	0	0	0	0
010713	10:41:23	10022	Trial	CongruentLeft	14	203	397	1	117	10:41:23	3809466	3	3	3	3	3	3	3	3	3	7	5	0	0	0	0	3	0	0	0	0	0	0		1	0	0	0	0	0	0	0
010713	10:41:23	10022	Trial	ResponseIL	14	0	175	0	117	10:41:23	3810744	3	3	3	3	3	3	3	3	3	7	5	0	0	0	0	3	0	0	0	0	0	0		1	0	0	0	0	0	0	0
010713	10:41:23	10022	Trial	IncongruentLeft	14	203	404	1	117	10:41:23	3811171	3	3	3	3	3	3	3	3	3	7	5	0	0	0	0	3	0	0	0	0	0	0		1	0	0	0	0	0	0	0
010713	10:41:23	10022	Trial	ResponseCR	14	0	175	0	117	10:41:23	3812450	3	3	3	3	3	3	3	3	3	7	5	0	0	0	0	3	0	0	0	0	0	0		1	0	0	0	0	0	0	0
010713	10:41:23	10022	Trial	CongruentRight	14	205	200	1	117	10:41:23	3812680	3	3	3	3	3	3	3	3	3	7	5	0	0	0	0	3	0	0	0	0	0	0		1	0	0	0	0	0	0	0
010713	10:41:23	10022	Trial	ResponseCL	14	0	175	0	117	10:41:23	3814156	3	3	3	3	3	3	3	3	3	7	5	0	0	0	0	3	0	0	0	0	0	0		1	0	0	0	0	0	0	0
010713	10:41:23	10022	Trial	CongruentLeft	14	203	205	1	117	10:41:23	3814383	3	3	3	3	3	3	3	3	3	7	5	0	0	0	0	3	0	0	0	0	0	0		1	0	0	0	0	0	0	0
010713	10:41:23	10022	Trial	ResponseIR	14	0	175	0	117	10:41:23	3815862	3	3	3	3	3	3	3	3	3	7	5	0	0	0	0	3	0	0	0	0	0	0		1	0	0	0	0	0	0	0
010713	10:41:23	10022	Trial	IncongruentRight	14	205	162	1	117	10:41:23	3816049	3	3	3	3	3	3	3	3	3	7	5	0	0	0	0	3	0	0	0	0	0	0		1	0	0	0	0	0	0	0
010713	10:41:23	10022	Trial	ResponseCL	14	0	175	0	117	10:41:23	3817568	3	3	3	3	3	3	3	3	3	7	5	0	0	0	0	3	0	0	0	0	0	0		1	0	0	0	0	0	0	0
010713	10:41:23	10022	Trial	CongruentLeft	14	203	248	1	117	10:41:23	3817834	3	3	3	3	3	3	3	3	3	7	5	0	0	0	0	3	0	0	0	0	0	0		1	0	0	0	0	0	0	0
010713	10:41:23	10022	Trial	ResponseCR	14	0	175	0	117	10:41:23	3819274	3	3	3	3	3	3	3	3	3	7	5	0	0	0	0	3	0	0	0	0	0	0		1	0	0	0	0	0	0	0
010713	10:41:23	10022	Trial	CongruentRight	14	205	174	1	117	10:41:23	3819474	3	3	3	3	3	3	3	3	3	7	5	0	0	0	0	3	0	0	0	0	0	0		1	0	0	0	0	0	0	0
010713	10:41:23	10022	Trial	ResponseIL	14	0	175	0	117	10:41:23	3820980	3	3	3	3	3	3	3	3	3	7	5	0	0	0	0	3	0	0	0	0	0	0		1	0	0	0	0	0	0	0
010713	10:41:23	10022	Trial	IncongruentLeft	14	203	213	1	117	10:41:23	3821220	3	3	3	3	3	3	3	3	3	7	5	0	0	0	0	3	0	0	0	0	0	0		1	0	0	0	0	0	0	0
010713	10:41:23	10022	WordsAbsFr6mo	PAbsFr6mo1	16	Abs1	10352	0	117	10:41:23	3845317	3	3	3	3	3	3	3	3	3	7	5	0	0	0	0	3	0	0	0	0	0	0		1	0	0	0	0	0	0	0
010713	10:41:23	10022	WordsAbsFr6mo	AbsFr6mo1	16	Abs1	5451	0	117	10:41:23	3850810	3	3	3	3	3	3	3	3	3	7	5	1	0	0	0	3	0	0	0	0	0	0		1	0	0	0	0	0	0	0
010713	10:41:23	10022	WordsAbsFr6mo	AbsFr6mo2	16	Abs2	12041	0	117	10:41:23	3862896	3	3	3	3	3	3	3	3	3	7	5	1	0	0	0	3	0	0	0	0	0	0		1	0	0	0	0	0	0	0
010713	10:41:23	10022	WordsAbsFr6mo	AbsFr6mo3	16	Abs2	5814	0	117	10:41:23	3868749	3	3	3	3	3	3	3	3	3	7	5	1	0	0	0	3	0	0	0	0	0	0		1	0	0	0	0	0	0	0
010713	10:41:23	10022	Trial2BackFrS	NS	17	0	1000	1	117	10:41:23	3932895	3	3	3	3	3	3	3	3	3	7	5	1	0	0	0	3	0	0	0	0	0	0		1	0	0	0	0	0	0	0
010713	10:41:23	10022	Trial2BackFrS	NS	17	0	1000	1	117	10:41:23	3934414	3	3	3	3	3	3	3	3	3	7	5	1	0	0	0	3	0	0	0	0	0	0		1	0	0	0	0	0	0	0
010713	10:41:23	10022	Trial2BackFrS	NS	17	0	1000	1	117	10:41:23	3935920	3	3	3	3	3	3	3	3	3	7	5	1	0	0	0	3	0	0	0	0	0	0		1	0	0	0	0	0	0	0
010713	10:41:23	10022	Trial2BackFrS	YS	17	57	843	1	117	10:41:23	3937280	3	3	3	3	3	3	3	3	3	7	5	1	0	0	0	3	0	0	0	0	0	0		1	0	0	0	0	0	0	0
010713	10:41:23	10022	Trial2BackFrS	NS	17	0	1000	1	117	10:41:23	3938932	3	3	3	3	3	3	3	3	3	7	5	1	0	0	0	3	0	0	0	0	0	0		1	0	0	0	0	0	0	0
010713	10:41:23	10022	Trial2BackFrS	NS	17	0	1000	1	117	10:41:23	3940438	3	3	3	3	3	3	3	3	3	7	5	1	0	0	0	3	0	0	0	0	0	0		1	0	0	0	0	0	0	0
010713	10:41:23	10022	Trial2BackFrS	NS	17	0	1000	1	117	10:41:23	3941944	3	3	3	3	3	3	3	3	3	7	5	1	0	0	0	3	0	0	0	0	0	0		1	0	0	0	0	0	0	0
010713	10:41:23	10022	Trial2BackFrS	NS	17	0	1000	1	117	10:41:23	3943450	3	3	3	3	3	3	3	3	3	7	5	1	0	0	0	3	0	0	0	0	0	0		1	0	0	0	0	0	0	0
010713	10:41:23	10022	Trial2BackFrS	YS	17	57	627	1	117	10:41:23	3944610	3	3	3	3	3	3	3	3	3	7	5	1	0	0	0	3	0	0	0	0	0	0		1	0	0	0	0	0	0	0
010713	10:41:23	10022	Trial2BackFrS	NS	17	0	1000	1	117	10:41:23	3946462	3	3	3	3	3	3	3	3	3	7	5	1	0	0	0	3	0	0	0	0	0	0		1	0	0	0	0	0	0	0
010713	10:41:23	10022	Trial2BackFrS	NS	17	0	1000	1	117	10:41:23	3947969	3	3	3	3	3	3	3	3	3	7	5	1	0	0	0	3	0	0	0	0	0	0		1	0	0	0	0	0	0	0
010713	10:41:23	10022	Trial2BackFrS	YS	17	0	1000	0	117	10:41:23	3949488	3	3	3	3	3	3	3	3	3	7	5	1	0	0	0	3	0	0	0	0	0	0		1	0	0	0	0	0	0	0
010713	10:41:23	10022	Trial2BackFrS	NS	17	0	1000	1	117	10:41:23	3950994	3	3	3	3	3	3	3	3	3	7	5	1	0	0	0	3	0	0	0	0	0	0		1	0	0	0	0	0	0	0
010713	10:41:23	10022	Trial2BackFrS	NS	17	0	1000	1	117	10:41:23	3952513	3	3	3	3	3	3	3	3	3	7	5	1	0	0	0	3	0	0	0	0	0	0		1	0	0	0	0	0	0	0
010713	10:41:23	10022	Trial2BackFrS	NS	17	0	1000	1	117	10:41:23	3954019	3	3	3	3	3	3	3	3	3	7	5	1	0	0	0	3	0	0	0	0	0	0		1	0	0	0	0	0	0	0
010713	10:41:23	10022	Trial2BackFrS	YS	17	57	753	1	117	10:41:23	3955299	3	3	3	3	3	3	3	3	3	7	5	1	0	0	0	3	0	0	0	0	0	0		1	0	0	0	0	0	0	0
010713	10:41:23	10022	Trial2BackFrS	NS	17	0	1000	1	117	10:41:23	3957032	3	3	3	3	3	3	3	3	3	7	5	1	0	0	0	3	0	0	0	0	0	0		1	0	0	0	0	0	0	0
010713	10:41:23	10022	Trial2BackFrS	NS	17	0	1000	1	117	10:41:23	3958538	3	3	3	3	3	3	3	3	3	7	5	1	0	0	0	3	0	0	0	0	0	0		1	0	0	0	0	0	0	0
010713	10:41:23	10022	Trial2BackFrS	NS	17	0	1000	1	117	10:41:23	3960057	3	3	3	3	3	3	3	3	3	7	5	1	0	0	0	3	0	0	0	0	0	0		1	0	0	0	0	0	0	0
010713	10:41:23	10022	Trial2BackFrS	NS	17	0	1000	1	117	10:41:23	3961563	3	3	3	3	3	3	3	3	3	7	5	1	0	0	0	3	0	0	0	0	0	0		1	0	0	0	0	0	0	0
010713	10:41:23	10022	Trial2BackFrS	YS	17	57	588	1	117	10:41:23	3962669	3	3	3	3	3	3	3	3	3	7	5	1	0	0	0	3	0	0	0	0	0	0		1	0	0	0	0	0	0	0
010713	10:41:23	10022	Trial2BackFrS	NS	17	0	1000	1	117	10:41:23	3964575	3	3	3	3	3	3	3	3	3	7	5	1	0	0	0	3	0	0	0	0	0	0		1	0	0	0	0	0	0	0
010713	10:41:23	10022	Trial2BackFrS	NS	17	0	1000	1	117	10:41:23	3966081	3	3	3	3	3	3	3	3	3	7	5	1	0	0	0	3	0	0	0	0	0	0		1	0	0	0	0	0	0	0
010713	10:41:23	10022	Trial2BackFrS	NS	17	0	1000	1	117	10:41:23	3967587	3	3	3	3	3	3	3	3	3	7	5	1	0	0	0	3	0	0	0	0	0	0		1	0	0	0	0	0	0	0
010713	10:41:23	10022	Trial2BackFrS	NS	17	57	788	0	117	10:41:23	3968893	3	3	3	3	3	3	3	3	3	7	5	1	0	0	0	3	0	0	0	0	0	0		1	0	0	0	0	0	0	0
010713	10:41:23	10022	Trial2BackFrS	NS	17	0	1000	1	117	10:41:23	3970599	3	3	3	3	3	3	3	3	3	7	5	1	0	0	0	3	0	0	0	0	0	0		1	0	0	0	0	0	0	0
010713	10:41:23	10022	Trial2BackFrS	NS	17	0	1000	1	117	10:41:23	3972106	3	3	3	3	3	3	3	3	3	7	5	1	0	0	0	3	0	0	0	0	0	0		1	0	0	0	0	0	0	0
010713	10:41:23	10022	Trial2BackFrS	NS	17	0	1000	1	117	10:41:23	3973625	3	3	3	3	3	3	3	3	3	7	5	1	0	0	0	3	0	0	0	0	0	0		1	0	0	0	0	0	0	0
010713	10:41:23	10022	Trial2BackFrS	NS	17	0	1000	1	117	10:41:23	3975144	3	3	3	3	3	3	3	3	3	7	5	1	0	0	0	3	0	0	0	0	0	0		1	0	0	0	0	0	0	0
010713	10:41:23	10022	Trial2BackFrS	NS	17	0	1000	1	117	10:41:23	3976664	3	3	3	3	3	3	3	3	3	7	5	1	0	0	0	3	0	0	0	0	0	0		1	0	0	0	0	0	0	0
010713	10:41:23	10022	Trial2BackFrS	NS	17	0	1000	1	117	10:41:23	3978170	3	3	3	3	3	3	3	3	3	7	5	1	0	0	0	3	0	0	0	0	0	0		1	0	0	0	0	0	0	0
010713	10:41:23	10022	Trial2BackFrS	YS	17	57	523	1	117	10:41:23	3979209	3	3	3	3	3	3	3	3	3	7	5	1	0	0	0	3	0	0	0	0	0	0		1	0	0	0	0	0	0	0
010713	10:41:23	10022	Trial2BackFrS	NS	17	0	1000	1	117	10:41:23	3981182	3	3	3	3	3	3	3	3	3	7	5	1	0	0	0	3	0	0	0	0	0	0		1	0	0	0	0	0	0	0
010713	10:41:23	10022	Trial2BackFrS	NS	17	0	1000	1	117	10:41:23	3982701	3	3	3	3	3	3	3	3	3	7	5	1	0	0	0	3	0	0	0	0	0	0		1	0	0	0	0	0	0	0
010713	10:41:23	10022	Trial2BackFrS	NS	17	0	1000	1	117	10:41:23	3984207	3	3	3	3	3	3	3	3	3	7	5	1	0	0	0	3	0	0	0	0	0	0		1	0	0	0	0	0	0	0
010713	10:41:23	10022	Trial2BackFrS	YS	17	57	619	1	117	10:41:23	3985340	3	3	3	3	3	3	3	3	3	7	5	1	0	0	0	3	0	0	0	0	0	0		1	0	0	0	0	0	0	0
010713	10:41:23	10022	Trial2BackFrS	NS	17	0	1000	1	117	10:41:23	3987219	3	3	3	3	3	3	3	3	3	7	5	1	0	0	0	3	0	0	0	0	0	0		1	0	0	0	0	0	0	0
010713	10:41:23	10022	Trial2BackFrS	NS	17	0	1000	1	117	10:41:23	3988725	3	3	3	3	3	3	3	3	3	7	5	1	0	0	0	3	0	0	0	0	0	0		1	0	0	0	0	0	0	0
010713	10:41:23	10022	Trial2BackFrS	NS	17	0	1000	1	117	10:41:23	3990231	3	3	3	3	3	3	3	3	3	7	5	1	0	0	0	3	0	0	0	0	0	0		1	0	0	0	0	0	0	0
010713	10:41:23	10022	Trial2BackFrS	NS	17	0	1000	1	117	10:41:23	3991737	3	3	3	3	3	3	3	3	3	7	5	1	0	0	0	3	0	0	0	0	0	0		1	0	0	0	0	0	0	0
010713	10:41:23	10022	Trial2BackFrS	NS	17	0	1000	1	117	10:41:23	3993243	3	3	3	3	3	3	3	3	3	7	5	1	0	0	0	3	0	0	0	0	0	0		1	0	0	0	0	0	0	0
010713	10:41:23	10022	Trial2BackFrS	NS	17	0	1000	1	117	10:41:23	3994763	3	3	3	3	3	3	3	3	3	7	5	1	0	0	0	3	0	0	0	0	0	0		1	0	0	0	0	0	0	0
010713	10:41:23	10022	Trial2BackFrS	NS	17	0	1000	1	117	10:41:23	3996269	3	3	3	3	3	3	3	3	3	7	5	1	0	0	0	3	0	0	0	0	0	0		1	0	0	0	0	0	0	0
010713	10:41:23	10022	Trial2BackFrS	YS	17	57	538	1	117	10:41:23	3997322	3	3	3	3	3	3	3	3	3	7	5	1	0	0	0	3	0	0	0	0	0	0		1	0	0	0	0	0	0	0
010713	10:41:23	10022	Trial2BackFrS	NS	17	0	1000	1	117	10:41:23	3999281	3	3	3	3	3	3	3	3	3	7	5	1	0	0	0	3	0	0	0	0	0	0		1	0	0	0	0	0	0	0
010713	10:41:23	10022	Trial2BackFrS	NS	17	0	1000	1	117	10:41:23	4000787	3	3	3	3	3	3	3	3	3	7	5	1	0	0	0	3	0	0	0	0	0	0		1	0	0	0	0	0	0	0
010713	10:41:23	10022	Trial2BackFrS	NS	17	0	1000	1	117	10:41:23	4002306	3	3	3	3	3	3	3	3	3	7	5	1	0	0	0	3	0	0	0	0	0	0		1	0	0	0	0	0	0	0
010713	10:41:23	10022	Trial2BackFrS	NS	17	0	1000	1	117	10:41:23	4003813	3	3	3	3	3	3	3	3	3	7	5	1	0	0	0	3	0	0	0	0	0	0		1	0	0	0	0	0	0	0
010713	10:41:23	10022	Trial2BackFrS	YS	17	57	546	1	117	10:41:23	4004879	3	3	3	3	3	3	3	3	3	7	5	1	0	0	0	3	0	0	0	0	0	0		1	0	0	0	0	0	0	0
010713	10:41:23	10022	Trial2BackFrS	NS	17	0	1000	1	117	10:41:23	4006825	3	3	3	3	3	3	3	3	3	7	5	1	0	0	0	3	0	0	0	0	0	0		1	0	0	0	0	0	0	0
010713	10:41:23	10022	Trial2BackFrS	NS	17	0	1000	1	117	10:41:23	4008331	3	3	3	3	3	3	3	3	3	7	5	1	0	0	0	3	0	0	0	0	0	0		1	0	0	0	0	0	0	0
010713	10:41:23	10022	Trial2BackFrS	NS	17	0	1000	1	117	10:41:23	4009837	3	3	3	3	3	3	3	3	3	7	5	1	0	0	0	3	0	0	0	0	0	0		1	0	0	0	0	0	0	0
010713	10:41:23	10022	Trial2BackFrS	NS	17	0	1000	1	117	10:41:23	4011343	3	3	3	3	3	3	3	3	3	7	5	1	0	0	0	3	0	0	0	0	0	0		1	0	0	0	0	0	0	0
010713	10:41:23	10022	Trial2BackFrS	NS	17	0	1000	1	117	10:41:23	4012849	3	3	3	3	3	3	3	3	3	7	5	1	0	0	0	3	0	0	0	0	0	0		1	0	0	0	0	0	0	0
010713	10:41:23	10022	Trial2BackFrS	NS	17	0	1000	1	117	10:41:23	4014355	3	3	3	3	3	3	3	3	3	7	5	1	0	0	0	3	0	0	0	0	0	0		1	0	0	0	0	0	0	0
010713	10:41:23	10022	Trial2BackFrS	YS	17	57	562	1	117	10:41:23	4015435	3	3	3	3	3	3	3	3	3	7	5	1	0	0	0	3	0	0	0	0	0	0		1	0	0	0	0	0	0	0
010713	10:41:23	10022	Trial2BackFrS	NS	17	0	1000	1	117	10:41:23	4017367	3	3	3	3	3	3	3	3	3	7	5	1	0	0	0	3	0	0	0	0	0	0		1	0	0	0	0	0	0	0
010713	10:41:23	10022	Trial2BackFrS	NS	17	0	1000	1	117	10:41:23	4018873	3	3	3	3	3	3	3	3	3	7	5	1	0	0	0	3	0	0	0	0	0	0		1	0	0	0	0	0	0	0
010713	10:41:23	10022	Trial2BackFrS	NS	17	0	1000	1	117	10:41:23	4020379	3	3	3	3	3	3	3	3	3	7	5	1	0	0	0	3	0	0	0	0	0	0		1	0	0	0	0	0	0	0
010713	10:41:23	10022	Trial2BackFrS	NS	17	0	1000	1	117	10:41:23	4021885	3	3	3	3	3	3	3	3	3	7	5	1	0	0	0	3	0	0	0	0	0	0		1	0	0	0	0	0	0	0
010713	10:41:23	10022	Trial2BackFrS	NS	17	0	1000	1	117	10:41:23	4023391	3	3	3	3	3	3	3	3	3	7	5	1	0	0	0	3	0	0	0	0	0	0		1	0	0	0	0	0	0	0
010713	10:41:23	10022	Trial2BackFrS	NS	17	0	1000	1	117	10:41:23	4024897	3	3	3	3	3	3	3	3	3	7	5	1	0	0	0	3	0	0	0	0	0	0		1	0	0	0	0	0	0	0
010713	10:41:23	10022	Trial2BackFrS	NS	17	0	1000	1	117	10:41:23	4026417	3	3	3	3	3	3	3	3	3	7	5	1	0	0	0	3	0	0	0	0	0	0		1	0	0	0	0	0	0	0
010713	10:41:23	10022	Trial2BackFrS	YS	17	57	584	1	117	10:41:23	4027510	3	3	3	3	3	3	3	3	3	7	5	1	0	0	0	3	0	0	0	0	0	0		1	0	0	0	0	0	0	0
010713	10:41:23	10022	Trial2BackFrS	NS	17	0	1000	1	117	10:41:23	4029429	3	3	3	3	3	3	3	3	3	7	5	1	0	0	0	3	0	0	0	0	0	0		1	0	0	0	0	0	0	0
010713	10:41:23	10022	Trial2BackFrS	NS	17	0	1000	1	117	10:41:23	4030935	3	3	3	3	3	3	3	3	3	7	5	1	0	0	0	3	0	0	0	0	0	0		1	0	0	0	0	0	0	0
010713	10:41:23	10022	Trial2BackFrS	NS	17	0	1000	1	117	10:41:23	4032441	3	3	3	3	3	3	3	3	3	7	5	1	0	0	0	3	0	0	0	0	0	0		1	0	0	0	0	0	0	0
010713	10:41:23	10022	Trial2BackFrS	NS	17	0	1000	1	117	10:41:23	4033947	3	3	3	3	3	3	3	3	3	7	5	1	0	0	0	3	0	0	0	0	0	0		1	0	0	0	0	0	0	0
010713	10:41:23	10022	Trial2BackFrS	YS	17	57	588	1	117	10:41:23	4035053	3	3	3	3	3	3	3	3	3	7	5	1	0	0	0	3	0	0	0	0	0	0		1	0	0	0	0	0	0	0
010713	10:41:23	10022	Trial2BackFrS	NS	17	0	1000	1	117	10:41:23	4036959	3	3	3	3	3	3	3	3	3	7	5	1	0	0	0	3	0	0	0	0	0	0		1	0	0	0	0	0	0	0
010713	10:41:23	10022	Trial2BackFrS	NS	17	0	1000	1	117	10:41:23	4038465	3	3	3	3	3	3	3	3	3	7	5	1	0	0	0	3	0	0	0	0	0	0		1	0	0	0	0	0	0	0
010713	10:41:23	10022	Trial2BackFrS	YS	17	57	583	1	117	10:41:23	4039558	3	3	3	3	3	3	3	3	3	7	5	1	0	0	0	3	0	0	0	0	0	0		1	0	0	0	0	0	0	0
010713	10:41:23	10022	Trial2BackFrS	NS	17	0	1000	1	117	10:41:23	4041477	3	3	3	3	3	3	3	3	3	7	5	1	0	0	0	3	0	0	0	0	0	0		1	0	0	0	0	0	0	0
010713	10:41:23	10022	Trial2BackFrS	NS	17	0	1000	1	117	10:41:23	4042983	3	3	3	3	3	3	3	3	3	7	5	1	0	0	0	3	0	0	0	0	0	0		1	0	0	0	0	0	0	0
010713	10:41:23	10022	Trial2BackFrS	NS	17	0	1000	1	117	10:41:23	4044503	3	3	3	3	3	3	3	3	3	7	5	1	0	0	0	3	0	0	0	0	0	0		1	0	0	0	0	0	0	0
010713	10:41:23	10022	Trial2BackFrS	NS	17	0	1000	1	117	10:41:23	4046009	3	3	3	3	3	3	3	3	3	7	5	1	0	0	0	3	0	0	0	0	0	0		1	0	0	0	0	0	0	0
010713	10:41:23	10022	Trial2BackFrS	NS	17	0	1000	1	117	10:41:23	4047528	3	3	3	3	3	3	3	3	3	7	5	1	0	0	0	3	0	0	0	0	0	0		1	0	0	0	0	0	0	0
010713	10:41:23	10022	Trial2BackFrS	NS	17	0	1000	1	117	10:41:23	4049034	3	3	3	3	3	3	3	3	3	7	5	1	0	0	0	3	0	0	0	0	0	0		1	0	0	0	0	0	0	0
010713	10:41:23	10022	Trial2BackFrS	YS	17	57	510	1	117	10:41:23	4050060	3	3	3	3	3	3	3	3	3	7	5	1	0	0	0	3	0	0	0	0	0	0		1	0	0	0	0	0	0	0
010713	10:41:23	10022	Trial2BackFrS	NS	17	0	1000	1	117	10:41:23	4052046	3	3	3	3	3	3	3	3	3	7	5	1	0	0	0	3	0	0	0	0	0	0		1	0	0	0	0	0	0	0
010713	10:41:23	10022	Trial2BackFrS	NS	17	0	1000	1	117	10:41:23	4053552	3	3	3	3	3	3	3	3	3	7	5	1	0	0	0	3	0	0	0	0	0	0		1	0	0	0	0	0	0	0
010713	10:41:23	10022	Trial2BackFrS	NS	17	0	1000	1	117	10:41:23	4055058	3	3	3	3	3	3	3	3	3	7	5	1	0	0	0	3	0	0	0	0	0	0		1	0	0	0	0	0	0	0
010713	10:41:23	10022	Trial2BackFrS	NS	17	0	1000	1	117	10:41:23	4056578	3	3	3	3	3	3	3	3	3	7	5	1	0	0	0	3	0	0	0	0	0	0		1	0	0	0	0	0	0	0
010713	10:41:23	10022	Trial2BackFrS	YS	17	0	1000	0	117	10:41:23	4058098	3	3	3	3	3	3	3	3	3	7	5	1	0	0	0	3	0	0	0	0	0	0		1	0	0	0	0	0	0	0
010713	10:41:23	10022	Trial2BackFrS	NS	17	0	1000	1	117	10:41:23	4059603	3	3	3	3	3	3	3	3	3	7	5	1	0	0	0	3	0	0	0	0	0	0		1	0	0	0	0	0	0	0
010713	10:41:23	10022	Trial2BackFrS	NS	17	0	1000	1	117	10:41:23	4061109	3	3	3	3	3	3	3	3	3	7	5	1	0	0	0	3	0	0	0	0	0	0		1	0	0	0	0	0	0	0
010713	10:41:23	10022	Trial2BackFrS	NS	17	0	1000	1	117	10:41:23	4062615	3	3	3	3	3	3	3	3	3	7	5	1	0	0	0	3	0	0	0	0	0	0		1	0	0	0	0	0	0	0
010713	10:41:23	10022	Trial2BackFrS	NS	17	57	640	0	117	10:41:23	4063775	3	3	3	3	3	3	3	3	3	7	5	1	0	0	0	3	0	0	0	0	0	0		1	0	0	0	0	0	0	0
010713	10:41:23	10022	Trial2BackFrS	YS	17	0	1000	0	117	10:41:23	4065627	3	3	3	3	3	3	3	3	3	7	5	1	0	0	0	3	0	0	0	0	0	0		1	0	0	0	0	0	0	0
010713	10:41:23	10022	Trial2BackFrS	NS	17	0	1000	1	117	10:41:23	4067134	3	3	3	3	3	3	3	3	3	7	5	1	0	0	0	3	0	0	0	0	0	0		1	0	0	0	0	0	0	0
010713	10:41:23	10022	Trial2BackFrS	NS	17	0	1000	1	117	10:41:23	4068640	3	3	3	3	3	3	3	3	3	7	5	1	0	0	0	3	0	0	0	0	0	0		1	0	0	0	0	0	0	0
010713	10:41:23	10022	Trial2BackFrS	YS	17	0	1000	0	117	10:41:23	4070159	3	3	3	3	3	3	3	3	3	7	5	1	0	0	0	3	0	0	0	0	0	0		1	0	0	0	0	0	0	0
010713	10:41:23	10022	Trial2BackFrS	NS	17	0	1000	1	117	10:41:23	4071665	3	3	3	3	3	3	3	3	3	7	5	1	0	0	0	3	0	0	0	0	0	0		1	0	0	0	0	0	0	0
010713	10:41:23	10022	Trial2BackFrS	NS	17	0	1000	1	117	10:41:23	4073171	3	3	3	3	3	3	3	3	3	7	5	1	0	0	0	3	0	0	0	0	0	0		1	0	0	0	0	0	0	0
010713	10:41:23	10022	Trial2BackFrS	NS	17	0	1000	1	117	10:41:23	4074677	3	3	3	3	3	3	3	3	3	7	5	1	0	0	0	3	0	0	0	0	0	0		1	0	0	0	0	0	0	0
010713	10:41:23	10022	Trial2BackFrS	NS	17	0	1000	1	117	10:41:23	4076183	3	3	3	3	3	3	3	3	3	7	5	1	0	0	0	3	0	0	0	0	0	0		1	0	0	0	0	0	0	0
010713	10:41:23	10022	Trial2BackFrS	NS	17	57	655	0	117	10:41:23	4077356	3	3	3	3	3	3	3	3	3	7	5	1	0	0	0	3	0	0	0	0	0	0		1	0	0	0	0	0	0	0
010713	10:41:23	10022	Trial2BackFrS	NS	17	0	1000	1	117	10:41:23	4079195	3	3	3	3	3	3	3	3	3	7	5	1	0	0	0	3	0	0	0	0	0	0		1	0	0	0	0	0	0	0
010713	10:41:23	10022	Trial2BackFrS	NS	17	0	1000	1	117	10:41:23	4080702	3	3	3	3	3	3	3	3	3	7	5	1	0	0	0	3	0	0	0	0	0	0		1	0	0	0	0	0	0	0
010713	10:41:23	10022	Trial2BackFrS	NS	17	0	1000	1	117	10:41:23	4082207	3	3	3	3	3	3	3	3	3	7	5	1	0	0	0	3	0	0	0	0	0	0		1	0	0	0	0	0	0	0
010713	10:41:23	10022	Trial2BackFrS	YS	17	0	1000	0	117	10:41:23	4083713	3	3	3	3	3	3	3	3	3	7	5	1	0	0	0	3	0	0	0	0	0	0		1	0	0	0	0	0	0	0
010713	10:41:23	10022	Trial2BackFrS	NS	17	0	1000	1	117	10:41:23	4085233	3	3	3	3	3	3	3	3	3	7	5	1	0	0	0	3	0	0	0	0	0	0		1	0	0	0	0	0	0	0
010713	10:41:23	10022	Trial2BackFrS	NS	17	57	562	0	117	10:41:23	4086312	3	3	3	3	3	3	3	3	3	7	5	1	0	0	0	3	0	0	0	0	0	0		1	0	0	0	0	0	0	0
010713	10:41:23	10022	Trial2BackFrS	NS	17	0	1000	1	117	10:41:23	4088245	3	3	3	3	3	3	3	3	3	7	5	1	0	0	0	3	0	0	0	0	0	0		1	0	0	0	0	0	0	0
010713	10:41:23	10022	Trial2BackFrS	NS	17	0	1000	1	117	10:41:23	4089751	3	3	3	3	3	3	3	3	3	7	5	1	0	0	0	3	0	0	0	0	0	0		1	0	0	0	0	0	0	0
010713	10:41:23	10022	Trial2BackFrS	NS	17	0	1000	1	117	10:41:23	4091257	3	3	3	3	3	3	3	3	3	7	5	1	0	0	0	3	0	0	0	0	0	0		1	0	0	0	0	0	0	0
010713	10:41:23	10022	Trial2BackFrS	NS	17	0	1000	1	117	10:41:23	4092763	3	3	3	3	3	3	3	3	3	7	5	1	0	0	0	3	0	0	0	0	0	0		1	0	0	0	0	0	0	0
010713	10:41:23	10022	Trial2BackFrS	NS	17	0	1000	1	117	10:41:23	4094269	3	3	3	3	3	3	3	3	3	7	5	1	0	0	0	3	0	0	0	0	0	0		1	0	0	0	0	0	0	0
010713	10:41:23	10022	Trial2BackFrS	YS	17	57	440	1	117	10:41:23	4095229	3	3	3	3	3	3	3	3	3	7	5	1	0	0	0	3	0	0	0	0	0	0		1	0	0	0	0	0	0	0
