date	time	subject	blockcode	trialcode	values.TaskNumber	response	latency	correct	values.Score	script.starttime	script.elapsedtime	values.ScoreS7	values.Word1	values.Word2	values.Word3	values.Word4	values.Word5	values.Word6	values.Word7	values.Word8	values.DigitSpanFwrd	values.DigitSpanBack	values.ScoreAbs	values.Contour	values.Numbers	values.Hands	values.corsiblockspanFwrd	values.corsiblockspanRev
120712	13:37:58	10014	Language	Language	0	French	212891	0	0	13:37:58	213002	0	0	0	0	0	0	0	0	0	0	0	0	0	0	0	0	0
120712	13:37:58	10014	Session	Session	0	6mo	1676	0	0	13:37:58	214735	0	0	0	0	0	0	0	0	0	0	0	0	0	0	0	0	0
120712	13:37:58	10014	HandFr	HandFr	0	RightFr	1863	0	0	13:37:58	216668	0	0	0	0	0	0	0	0	0	0	0	0	0	0	0	0	0
120712	13:37:58	10014	AudioCheckFr	WordsFr	0	0	0	0	0	13:37:58	501228	0	0	0	0	0	0	0	0	0	0	0	0	0	0	0	0	0
120712	13:37:58	10014	CubeFr	CubeFr	1	1Cube	30559	0	0	13:37:58	533662	0	0	0	0	0	0	0	0	0	0	0	0	0	0	0	0	0
120712	13:37:58	10014	pm.simpleFrRight	blank.simpleFr	2	0	2500	1	0	13:37:58	565170	0	0	0	0	0	0	0	0	0	0	0	0	0	0	0	0	0
120712	13:37:58	10014	pm.simpleFrRight	pm.simpleFr	2	57	962	0	0	13:37:58	566156	0	0	0	0	0	0	0	0	0	0	0	0	0	0	0	0	0
120712	13:37:58	10014	pm.simpleFrRight	blank.simpleFr	2	0	2200	1	0	13:37:58	568368	0	0	0	0	0	0	0	0	0	0	0	0	0	0	0	0	0
120712	13:37:58	10014	pm.simpleFrRight	pm.simpleFr	2	57	547	0	0	13:37:58	568941	0	0	0	0	0	0	0	0	0	0	0	0	0	0	0	0	0
120712	13:37:58	10014	pm.simpleFrRight	blank.simpleFr	2	0	2100	1	0	13:37:58	571061	0	0	0	0	0	0	0	0	0	0	0	0	0	0	0	0	0
120712	13:37:58	10014	pm.simpleFrRight	pm.simpleFr	2	57	415	0	0	13:37:58	571501	0	0	0	0	0	0	0	0	0	0	0	0	0	0	0	0	0
120712	13:37:58	10014	pm.simpleFrRight	blank.simpleFr	2	0	2000	1	0	13:37:58	573513	0	0	0	0	0	0	0	0	0	0	0	0	0	0	0	0	0
120712	13:37:58	10014	pm.simpleFrRight	pm.simpleFr	2	57	410	0	0	13:37:58	573953	0	0	0	0	0	0	0	0	0	0	0	0	0	0	0	0	0
120712	13:37:58	10014	pm.simpleFrRight	blank.simpleFr	2	0	1500	1	0	13:37:58	575472	0	0	0	0	0	0	0	0	0	0	0	0	0	0	0	0	0
120712	13:37:58	10014	pm.simpleFrRight	pm.simpleFr	2	57	483	0	0	13:37:58	575979	0	0	0	0	0	0	0	0	0	0	0	0	0	0	0	0	0
120712	13:37:58	10014	pm.simpleFrRight	blank.simpleFr	2	0	1700	1	0	13:37:58	577698	0	0	0	0	0	0	0	0	0	0	0	0	0	0	0	0	0
120712	13:37:58	10014	pm.simpleFrRight	pm.simpleFr	2	57	466	0	0	13:37:58	578191	0	0	0	0	0	0	0	0	0	0	0	0	0	0	0	0	0
120712	13:37:58	10014	pm.simpleFrRight	blank.simpleFr	2	0	1800	1	0	13:37:58	580004	0	0	0	0	0	0	0	0	0	0	0	0	0	0	0	0	0
120712	13:37:58	10014	pm.simpleFrRight	pm.simpleFr	2	57	335	0	0	13:37:58	580364	0	0	0	0	0	0	0	0	0	0	0	0	0	0	0	0	0
120712	13:37:58	10014	pm.simpleFrRight	blank.simpleFr	2	0	1600	1	0	13:37:58	581977	0	0	0	0	0	0	0	0	0	0	0	0	0	0	0	0	0
120712	13:37:58	10014	pm.simpleFrRight	pm.simpleFr	2	57	491	0	0	13:37:58	582496	0	0	0	0	0	0	0	0	0	0	0	0	0	0	0	0	0
120712	13:37:58	10014	pm.simpleFrRight	blank.simpleFr	2	0	2300	1	0	13:37:58	584815	0	0	0	0	0	0	0	0	0	0	0	0	0	0	0	0	0
120712	13:37:58	10014	pm.simpleFrRight	pm.simpleFr	2	57	467	0	0	13:37:58	585308	0	0	0	0	0	0	0	0	0	0	0	0	0	0	0	0	0
120712	13:37:58	10014	pm.simpleFrRight	blank.simpleFr	2	0	2400	1	0	13:37:58	587721	0	0	0	0	0	0	0	0	0	0	0	0	0	0	0	0	0
120712	13:37:58	10014	pm.simpleFrRight	pm.simpleFr	2	57	363	0	0	13:37:58	588107	0	0	0	0	0	0	0	0	0	0	0	0	0	0	0	0	0
120712	13:37:58	10014	pm.simpleFrRight	blank.simpleFr	2	0	1900	1	0	13:37:58	590027	0	0	0	0	0	0	0	0	0	0	0	0	0	0	0	0	0
120712	13:37:58	10014	pm.simpleFrRight	pm.simpleFr	2	57	329	0	0	13:37:58	590373	0	0	0	0	0	0	0	0	0	0	0	0	0	0	0	0	0
120712	13:37:58	10014	pm.simpleFrRight	blank.simpleFr	2	0	2100	1	0	13:37:58	592492	0	0	0	0	0	0	0	0	0	0	0	0	0	0	0	0	0
120712	13:37:58	10014	pm.simpleFrRight	pm.simpleFr	2	57	343	0	0	13:37:58	592852	0	0	0	0	0	0	0	0	0	0	0	0	0	0	0	0	0
120712	13:37:58	10014	pm.simpleFrRight	blank.simpleFr	2	0	2000	1	0	13:37:58	594865	0	0	0	0	0	0	0	0	0	0	0	0	0	0	0	0	0
120712	13:37:58	10014	pm.simpleFrRight	pm.simpleFr	2	57	466	0	0	13:37:58	595358	0	0	0	0	0	0	0	0	0	0	0	0	0	0	0	0	0
120712	13:37:58	10014	pm.simpleFrRight	blank.simpleFr	2	0	2200	1	0	13:37:58	597584	0	0	0	0	0	0	0	0	0	0	0	0	0	0	0	0	0
120712	13:37:58	10014	pm.simpleFrRight	pm.simpleFr	2	57	452	0	0	13:37:58	598063	0	0	0	0	0	0	0	0	0	0	0	0	0	0	0	0	0
120712	13:37:58	10014	pm.simpleFrRight	blank.simpleFr	2	0	1600	1	0	13:37:58	599676	0	0	0	0	0	0	0	0	0	0	0	0	0	0	0	0	0
120712	13:37:58	10014	pm.simpleFrRight	pm.simpleFr	2	57	537	0	0	13:37:58	600236	0	0	0	0	0	0	0	0	0	0	0	0	0	0	0	0	0
120712	13:37:58	10014	pm.simpleFrRight	blank.simpleFr	2	0	2400	1	0	13:37:58	602648	0	0	0	0	0	0	0	0	0	0	0	0	0	0	0	0	0
120712	13:37:58	10014	pm.simpleFrRight	pm.simpleFr	2	57	491	0	0	13:37:58	603168	0	0	0	0	0	0	0	0	0	0	0	0	0	0	0	0	0
120712	13:37:58	10014	pm.simpleFrRight	blank.simpleFr	2	0	1900	1	0	13:37:58	605087	0	0	0	0	0	0	0	0	0	0	0	0	0	0	0	0	0
120712	13:37:58	10014	pm.simpleFrRight	pm.simpleFr	2	57	404	0	0	13:37:58	605514	0	0	0	0	0	0	0	0	0	0	0	0	0	0	0	0	0
120712	13:37:58	10014	pm.simpleFrRight	blank.simpleFr	2	0	2500	1	0	13:37:58	608033	0	0	0	0	0	0	0	0	0	0	0	0	0	0	0	0	0
120712	13:37:58	10014	pm.simpleFrRight	pm.simpleFr	2	57	370	0	0	13:37:58	608419	0	0	0	0	0	0	0	0	0	0	0	0	0	0	0	0	0
120712	13:37:58	10014	pm.simpleFrRight	blank.simpleFr	2	0	1500	1	0	13:37:58	609939	0	0	0	0	0	0	0	0	0	0	0	0	0	0	0	0	0
120712	13:37:58	10014	pm.simpleFrRight	pm.simpleFr	2	57	368	0	0	13:37:58	610325	0	0	0	0	0	0	0	0	0	0	0	0	0	0	0	0	0
120712	13:37:58	10014	pm.simpleFrRight	blank.simpleFr	2	0	1700	1	0	13:37:58	612045	0	0	0	0	0	0	0	0	0	0	0	0	0	0	0	0	0
120712	13:37:58	10014	pm.simpleFrRight	pm.simpleFr	2	57	358	0	0	13:37:58	612431	0	0	0	0	0	0	0	0	0	0	0	0	0	0	0	0	0
120712	13:37:58	10014	pm.simpleFrRight	blank.simpleFr	2	0	2300	1	0	13:37:58	614750	0	0	0	0	0	0	0	0	0	0	0	0	0	0	0	0	0
120712	13:37:58	10014	pm.simpleFrRight	pm.simpleFr	2	57	325	0	0	13:37:58	615097	0	0	0	0	0	0	0	0	0	0	0	0	0	0	0	0	0
120712	13:37:58	10014	pm.simpleFrRight	blank.simpleFr	2	0	1800	1	0	13:37:58	616909	0	0	0	0	0	0	0	0	0	0	0	0	0	0	0	0	0
120712	13:37:58	10014	pm.simpleFrRight	pm.simpleFr	2	57	294	0	0	13:37:58	617229	0	0	0	0	0	0	0	0	0	0	0	0	0	0	0	0	0
120712	13:37:58	10014	pm.simpleFrRight	blank.simpleFr	2	0	1500	1	0	13:37:58	618749	0	0	0	0	0	0	0	0	0	0	0	0	0	0	0	0	0
120712	13:37:58	10014	pm.simpleFrRight	pm.simpleFr	2	57	279	0	0	13:37:58	619055	0	0	0	0	0	0	0	0	0	0	0	0	0	0	0	0	0
120712	13:37:58	10014	pm.simpleFrRight	blank.simpleFr	2	0	2000	1	0	13:37:58	621081	0	0	0	0	0	0	0	0	0	0	0	0	0	0	0	0	0
120712	13:37:58	10014	pm.simpleFrRight	pm.simpleFr	2	57	298	0	0	13:37:58	621401	0	0	0	0	0	0	0	0	0	0	0	0	0	0	0	0	0
120712	13:37:58	10014	pm.simpleFrRight	blank.simpleFr	2	0	2400	1	0	13:37:58	623813	0	0	0	0	0	0	0	0	0	0	0	0	0	0	0	0	0
120712	13:37:58	10014	pm.simpleFrRight	pm.simpleFr	2	57	302	0	0	13:37:58	624133	0	0	0	0	0	0	0	0	0	0	0	0	0	0	0	0	0
120712	13:37:58	10014	pm.simpleFrRight	blank.simpleFr	2	0	1900	1	0	13:37:58	626066	0	0	0	0	0	0	0	0	0	0	0	0	0	0	0	0	0
120712	13:37:58	10014	pm.simpleFrRight	pm.simpleFr	2	57	369	0	0	13:37:58	626452	0	0	0	0	0	0	0	0	0	0	0	0	0	0	0	0	0
120712	13:37:58	10014	pm.simpleFrRight	blank.simpleFr	2	0	2200	1	0	13:37:58	628665	0	0	0	0	0	0	0	0	0	0	0	0	0	0	0	0	0
120712	13:37:58	10014	pm.simpleFrRight	pm.simpleFr	2	57	362	0	0	13:37:58	629051	0	0	0	0	0	0	0	0	0	0	0	0	0	0	0	0	0
120712	13:37:58	10014	pm.simpleFrRight	blank.simpleFr	2	0	2300	1	0	13:37:58	631370	0	0	0	0	0	0	0	0	0	0	0	0	0	0	0	0	0
120712	13:37:58	10014	pm.simpleFrRight	pm.simpleFr	2	57	360	0	0	13:37:58	631757	0	0	0	0	0	0	0	0	0	0	0	0	0	0	0	0	0
120712	13:37:58	10014	pm.simpleFrRight	blank.simpleFr	2	0	1700	1	0	13:37:58	633476	0	0	0	0	0	0	0	0	0	0	0	0	0	0	0	0	0
120712	13:37:58	10014	pm.simpleFrRight	pm.simpleFr	2	57	479	0	0	13:37:58	633983	0	0	0	0	0	0	0	0	0	0	0	0	0	0	0	0	0
120712	13:37:58	10014	pm.simpleFrRight	blank.simpleFr	2	0	1600	1	0	13:37:58	635595	0	0	0	0	0	0	0	0	0	0	0	0	0	0	0	0	0
120712	13:37:58	10014	pm.simpleFrRight	pm.simpleFr	2	57	311	0	0	13:37:58	635928	0	0	0	0	0	0	0	0	0	0	0	0	0	0	0	0	0
120712	13:37:58	10014	pm.simpleFrRight	blank.simpleFr	2	0	2100	1	0	13:37:58	638048	0	0	0	0	0	0	0	0	0	0	0	0	0	0	0	0	0
120712	13:37:58	10014	pm.simpleFrRight	pm.simpleFr	2	57	339	0	0	13:37:58	638408	0	0	0	0	0	0	0	0	0	0	0	0	0	0	0	0	0
120712	13:37:58	10014	pm.simpleFrRight	blank.simpleFr	2	0	2500	1	0	13:37:58	640927	0	0	0	0	0	0	0	0	0	0	0	0	0	0	0	0	0
120712	13:37:58	10014	pm.simpleFrRight	pm.simpleFr	2	57	356	0	0	13:37:58	641300	0	0	0	0	0	0	0	0	0	0	0	0	0	0	0	0	0
120712	13:37:58	10014	pm.simpleFrRight	blank.simpleFr	2	0	1800	1	0	13:37:58	643112	0	0	0	0	0	0	0	0	0	0	0	0	0	0	0	0	0
120712	13:37:58	10014	pm.simpleFrRight	pm.simpleFr	2	57	330	0	0	13:37:58	643472	0	0	0	0	0	0	0	0	0	0	0	0	0	0	0	0	0
120712	13:37:58	10014	pm.simpleFrRight	blank.simpleFr	2	0	1500	1	0	13:37:58	644992	0	0	0	0	0	0	0	0	0	0	0	0	0	0	0	0	0
120712	13:37:58	10014	pm.simpleFrRight	pm.simpleFr	2	57	275	0	0	13:37:58	645285	0	0	0	0	0	0	0	0	0	0	0	0	0	0	0	0	0
120712	13:37:58	10014	pm.simpleFrRight	blank.simpleFr	2	0	1600	1	0	13:37:58	646897	0	0	0	0	0	0	0	0	0	0	0	0	0	0	0	0	0
120712	13:37:58	10014	pm.simpleFrRight	pm.simpleFr	2	57	305	0	0	13:37:58	647231	0	0	0	0	0	0	0	0	0	0	0	0	0	0	0	0	0
120712	13:37:58	10014	pm.simpleFrRight	blank.simpleFr	2	0	2300	1	0	13:37:58	649550	0	0	0	0	0	0	0	0	0	0	0	0	0	0	0	0	0
120712	13:37:58	10014	pm.simpleFrRight	pm.simpleFr	2	57	309	0	0	13:37:58	649883	0	0	0	0	0	0	0	0	0	0	0	0	0	0	0	0	0
120712	13:37:58	10014	pm.simpleFrRight	blank.simpleFr	2	0	1700	1	0	13:37:58	651602	0	0	0	0	0	0	0	0	0	0	0	0	0	0	0	0	0
120712	13:37:58	10014	pm.simpleFrRight	pm.simpleFr	2	57	320	0	0	13:37:58	651949	0	0	0	0	0	0	0	0	0	0	0	0	0	0	0	0	0
120712	13:37:58	10014	pm.simpleFrRight	blank.simpleFr	2	0	2100	1	0	13:37:58	654068	0	0	0	0	0	0	0	0	0	0	0	0	0	0	0	0	0
120712	13:37:58	10014	pm.simpleFrRight	pm.simpleFr	2	57	289	0	0	13:37:58	654388	0	0	0	0	0	0	0	0	0	0	0	0	0	0	0	0	0
120712	13:37:58	10014	pm.simpleFrRight	blank.simpleFr	2	0	2500	1	0	13:37:58	656933	0	0	0	0	0	0	0	0	0	0	0	0	0	0	0	0	0
120712	13:37:58	10014	pm.simpleFrRight	pm.simpleFr	2	57	301	0	0	13:37:58	657253	0	0	0	0	0	0	0	0	0	0	0	0	0	0	0	0	0
120712	13:37:58	10014	pm.simpleFrRight	blank.simpleFr	2	0	1800	1	0	13:37:58	659066	0	0	0	0	0	0	0	0	0	0	0	0	0	0	0	0	0
120712	13:37:58	10014	pm.simpleFrRight	pm.simpleFr	2	57	376	0	0	13:37:58	659466	0	0	0	0	0	0	0	0	0	0	0	0	0	0	0	0	0
120712	13:37:58	10014	Trial2BackFr	N	3	0	1000	1	1	13:37:58	713351	0	0	0	0	0	0	0	0	0	0	0	0	0	0	0	0	0
120712	13:37:58	10014	Trial2BackFr	N	3	0	1000	1	2	13:37:58	714871	0	0	0	0	0	0	0	0	0	0	0	0	0	0	0	0	0
120712	13:37:58	10014	Trial2BackFr	N	3	0	1000	1	3	13:37:58	716377	0	0	0	0	0	0	0	0	0	0	0	0	0	0	0	0	0
120712	13:37:58	10014	Trial2BackFr	N	3	0	1000	1	4	13:37:58	717883	0	0	0	0	0	0	0	0	0	0	0	0	0	0	0	0	0
120712	13:37:58	10014	Trial2BackFr	N	3	0	1000	1	5	13:37:58	719402	0	0	0	0	0	0	0	0	0	0	0	0	0	0	0	0	0
120712	13:37:58	10014	Trial2BackFr	N	3	0	1000	1	6	13:37:58	720908	0	0	0	0	0	0	0	0	0	0	0	0	0	0	0	0	0
120712	13:37:58	10014	Trial2BackFr	N	3	0	1000	1	7	13:37:58	722414	0	0	0	0	0	0	0	0	0	0	0	0	0	0	0	0	0
120712	13:37:58	10014	Trial2BackFr	N	3	0	1000	1	8	13:37:58	723920	0	0	0	0	0	0	0	0	0	0	0	0	0	0	0	0	0
120712	13:37:58	10014	Trial2BackFr	Y	3	57	533	1	9	13:37:58	724973	0	0	0	0	0	0	0	0	0	0	0	0	0	0	0	0	0
120712	13:37:58	10014	Trial2BackFr	N	3	0	1000	1	10	13:37:58	726933	0	0	0	0	0	0	0	0	0	0	0	0	0	0	0	0	0
120712	13:37:58	10014	Trial2BackFr	N	3	0	1000	1	11	13:37:58	728452	0	0	0	0	0	0	0	0	0	0	0	0	0	0	0	0	0
120712	13:37:58	10014	Trial2BackFr	N	3	0	1000	1	12	13:37:58	729971	0	0	0	0	0	0	0	0	0	0	0	0	0	0	0	0	0
120712	13:37:58	10014	Trial2BackFr	Y	3	57	546	1	13	13:37:58	731038	0	0	0	0	0	0	0	0	0	0	0	0	0	0	0	0	0
120712	13:37:58	10014	Trial2BackFr	N	3	0	1000	1	14	13:37:58	732984	0	0	0	0	0	0	0	0	0	0	0	0	0	0	0	0	0
120712	13:37:58	10014	Trial2BackFr	N	3	0	1000	1	15	13:37:58	734489	0	0	0	0	0	0	0	0	0	0	0	0	0	0	0	0	0
120712	13:37:58	10014	Trial2BackFr	N	3	0	1000	1	16	13:37:58	735996	0	0	0	0	0	0	0	0	0	0	0	0	0	0	0	0	0
120712	13:37:58	10014	Trial2BackFr	N	3	0	1000	1	17	13:37:58	737502	0	0	0	0	0	0	0	0	0	0	0	0	0	0	0	0	0
120712	13:37:58	10014	Trial2BackFr	N	3	0	1000	1	18	13:37:58	739008	0	0	0	0	0	0	0	0	0	0	0	0	0	0	0	0	0
120712	13:37:58	10014	Trial2BackFr	Y	3	57	390	1	19	13:37:58	739914	0	0	0	0	0	0	0	0	0	0	0	0	0	0	0	0	0
120712	13:37:58	10014	Trial2BackFr	N	3	0	1000	1	20	13:37:58	742020	0	0	0	0	0	0	0	0	0	0	0	0	0	0	0	0	0
120712	13:37:58	10014	Trial2BackFr	N	3	0	1000	1	21	13:37:58	743526	0	0	0	0	0	0	0	0	0	0	0	0	0	0	0	0	0
120712	13:37:58	10014	Trial2BackFr	N	3	0	1000	1	22	13:37:58	745032	0	0	0	0	0	0	0	0	0	0	0	0	0	0	0	0	0
120712	13:37:58	10014	Trial2BackFr	N	3	0	1000	1	23	13:37:58	746538	0	0	0	0	0	0	0	0	0	0	0	0	0	0	0	0	0
120712	13:37:58	10014	Trial2BackFr	Y	3	57	364	1	24	13:37:58	747418	0	0	0	0	0	0	0	0	0	0	0	0	0	0	0	0	0
120712	13:37:58	10014	Trial2BackFr	N	3	0	1000	1	25	13:37:58	749550	0	0	0	0	0	0	0	0	0	0	0	0	0	0	0	0	0
120712	13:37:58	10014	Trial2BackFr	N	3	0	1000	1	26	13:37:58	751056	0	0	0	0	0	0	0	0	0	0	0	0	0	0	0	0	0
120712	13:37:58	10014	Trial2BackFr	N	3	0	1000	1	27	13:37:58	752562	0	0	0	0	0	0	0	0	0	0	0	0	0	0	0	0	0
120712	13:37:58	10014	Trial2BackFr	N	3	0	1000	1	28	13:37:58	754069	0	0	0	0	0	0	0	0	0	0	0	0	0	0	0	0	0
120712	13:37:58	10014	Trial2BackFr	N	3	0	1000	1	29	13:37:58	755575	0	0	0	0	0	0	0	0	0	0	0	0	0	0	0	0	0
120712	13:37:58	10014	Trial2BackFr	N	3	0	1000	1	30	13:37:58	757081	0	0	0	0	0	0	0	0	0	0	0	0	0	0	0	0	0
120712	13:37:58	10014	Trial2BackFr	Y	3	57	381	1	31	13:37:58	757973	0	0	0	0	0	0	0	0	0	0	0	0	0	0	0	0	0
120712	13:37:58	10014	Trial2BackFr	N	3	0	1000	1	32	13:37:58	760093	0	0	0	0	0	0	0	0	0	0	0	0	0	0	0	0	0
120712	13:37:58	10014	Trial2BackFr	N	3	0	1000	1	33	13:37:58	761599	0	0	0	0	0	0	0	0	0	0	0	0	0	0	0	0	0
120712	13:37:58	10014	Trial2BackFr	N	3	0	1000	1	34	13:37:58	763105	0	0	0	0	0	0	0	0	0	0	0	0	0	0	0	0	0
120712	13:37:58	10014	Trial2BackFr	Y	3	57	596	1	35	13:37:58	764211	0	0	0	0	0	0	0	0	0	0	0	0	0	0	0	0	0
120712	13:37:58	10014	Trial2BackFr	N	3	0	1000	1	36	13:37:58	766117	0	0	0	0	0	0	0	0	0	0	0	0	0	0	0	0	0
120712	13:37:58	10014	Trial2BackFr	N	3	0	1000	1	37	13:37:58	767623	0	0	0	0	0	0	0	0	0	0	0	0	0	0	0	0	0
120712	13:37:58	10014	Trial2BackFr	N	3	0	1000	1	38	13:37:58	769129	0	0	0	0	0	0	0	0	0	0	0	0	0	0	0	0	0
120712	13:37:58	10014	Trial2BackFr	N	3	0	1000	1	39	13:37:58	770635	0	0	0	0	0	0	0	0	0	0	0	0	0	0	0	0	0
120712	13:37:58	10014	Trial2BackFr	N	3	0	1000	1	40	13:37:58	772142	0	0	0	0	0	0	0	0	0	0	0	0	0	0	0	0	0
120712	13:37:58	10014	Trial2BackFr	N	3	0	1000	1	41	13:37:58	773647	0	0	0	0	0	0	0	0	0	0	0	0	0	0	0	0	0
120712	13:37:58	10014	Trial2BackFr	Y	3	57	470	1	42	13:37:58	774634	0	0	0	0	0	0	0	0	0	0	0	0	0	0	0	0	0
120712	13:37:58	10014	Trial2BackFr	N	3	0	1000	1	43	13:37:58	776660	0	0	0	0	0	0	0	0	0	0	0	0	0	0	0	0	0
120712	13:37:58	10014	Trial2BackFr	N	3	0	1000	1	44	13:37:58	778166	0	0	0	0	0	0	0	0	0	0	0	0	0	0	0	0	0
120712	13:37:58	10014	Trial2BackFr	N	3	0	1000	1	45	13:37:58	779672	0	0	0	0	0	0	0	0	0	0	0	0	0	0	0	0	0
120712	13:37:58	10014	Trial2BackFr	N	3	0	1000	1	46	13:37:58	781178	0	0	0	0	0	0	0	0	0	0	0	0	0	0	0	0	0
120712	13:37:58	10014	Trial2BackFr	Y	3	57	460	1	47	13:37:58	782151	0	0	0	0	0	0	0	0	0	0	0	0	0	0	0	0	0
120712	13:37:58	10014	Trial2BackFr	N	3	0	1000	1	48	13:37:58	784190	0	0	0	0	0	0	0	0	0	0	0	0	0	0	0	0	0
120712	13:37:58	10014	Trial2BackFr	N	3	0	1000	1	49	13:37:58	785696	0	0	0	0	0	0	0	0	0	0	0	0	0	0	0	0	0
120712	13:37:58	10014	Trial2BackFr	N	3	0	1000	1	50	13:37:58	787202	0	0	0	0	0	0	0	0	0	0	0	0	0	0	0	0	0
120712	13:37:58	10014	Trial2BackFr	N	3	0	1000	1	51	13:37:58	788708	0	0	0	0	0	0	0	0	0	0	0	0	0	0	0	0	0
120712	13:37:58	10014	Trial2BackFr	N	3	0	1000	1	52	13:37:58	790214	0	0	0	0	0	0	0	0	0	0	0	0	0	0	0	0	0
120712	13:37:58	10014	Trial2BackFr	Y	3	57	383	1	53	13:37:58	791107	0	0	0	0	0	0	0	0	0	0	0	0	0	0	0	0	0
120712	13:37:58	10014	Trial2BackFr	N	3	0	1000	1	54	13:37:58	793226	0	0	0	0	0	0	0	0	0	0	0	0	0	0	0	0	0
120712	13:37:58	10014	Trial2BackFr	N	3	0	1000	1	55	13:37:58	794732	0	0	0	0	0	0	0	0	0	0	0	0	0	0	0	0	0
120712	13:37:58	10014	Trial2BackFr	N	3	0	1000	1	56	13:37:58	796239	0	0	0	0	0	0	0	0	0	0	0	0	0	0	0	0	0
120712	13:37:58	10014	Trial2BackFr	N	3	0	1000	1	57	13:37:58	797745	0	0	0	0	0	0	0	0	0	0	0	0	0	0	0	0	0
120712	13:37:58	10014	Trial2BackFr	N	3	0	1000	1	58	13:37:58	799251	0	0	0	0	0	0	0	0	0	0	0	0	0	0	0	0	0
120712	13:37:58	10014	Trial2BackFr	N	3	0	1000	1	59	13:37:58	800757	0	0	0	0	0	0	0	0	0	0	0	0	0	0	0	0	0
120712	13:37:58	10014	Trial2BackFr	Y	3	57	352	1	60	13:37:58	801623	0	0	0	0	0	0	0	0	0	0	0	0	0	0	0	0	0
120712	13:37:58	10014	Trial2BackFr	N	3	0	1000	1	61	13:37:58	803769	0	0	0	0	0	0	0	0	0	0	0	0	0	0	0	0	0
120712	13:37:58	10014	Trial2BackFr	N	3	0	1000	1	62	13:37:58	805275	0	0	0	0	0	0	0	0	0	0	0	0	0	0	0	0	0
120712	13:37:58	10014	Trial2BackFr	Y	3	0	1000	0	62	13:37:58	806781	0	0	0	0	0	0	0	0	0	0	0	0	0	0	0	0	0
120712	13:37:58	10014	Trial2BackFr	N	3	0	1000	1	63	13:37:58	808287	0	0	0	0	0	0	0	0	0	0	0	0	0	0	0	0	0
120712	13:37:58	10014	Trial2BackFr	N	3	0	1000	1	64	13:37:58	809793	0	0	0	0	0	0	0	0	0	0	0	0	0	0	0	0	0
120712	13:37:58	10014	Trial2BackFr	N	3	0	1000	1	65	13:37:58	811299	0	0	0	0	0	0	0	0	0	0	0	0	0	0	0	0	0
120712	13:37:58	10014	Trial2BackFr	N	3	0	1000	1	66	13:37:58	812805	0	0	0	0	0	0	0	0	0	0	0	0	0	0	0	0	0
120712	13:37:58	10014	Trial2BackFr	N	3	0	1000	1	67	13:37:58	814311	0	0	0	0	0	0	0	0	0	0	0	0	0	0	0	0	0
120712	13:37:58	10014	Trial2BackFr	N	3	0	1000	1	68	13:37:58	815818	0	0	0	0	0	0	0	0	0	0	0	0	0	0	0	0	0
120712	13:37:58	10014	Trial2BackFr	N	3	0	1000	1	69	13:37:58	817324	0	0	0	0	0	0	0	0	0	0	0	0	0	0	0	0	0
120712	13:37:58	10014	Trial2BackFr	N	3	0	1000	1	70	13:37:58	818830	0	0	0	0	0	0	0	0	0	0	0	0	0	0	0	0	0
120712	13:37:58	10014	Trial2BackFr	N	3	0	1000	1	71	13:37:58	820336	0	0	0	0	0	0	0	0	0	0	0	0	0	0	0	0	0
120712	13:37:58	10014	Trial2BackFr	N	3	0	1000	1	72	13:37:58	821842	0	0	0	0	0	0	0	0	0	0	0	0	0	0	0	0	0
120712	13:37:58	10014	Trial2BackFr	Y	3	57	563	1	73	13:37:58	822921	0	0	0	0	0	0	0	0	0	0	0	0	0	0	0	0	0
120712	13:37:58	10014	Trial2BackFr	N	3	0	1000	1	74	13:37:58	824854	0	0	0	0	0	0	0	0	0	0	0	0	0	0	0	0	0
120712	13:37:58	10014	Trial2BackFr	N	3	0	1000	1	75	13:37:58	826360	0	0	0	0	0	0	0	0	0	0	0	0	0	0	0	0	0
120712	13:37:58	10014	Trial2BackFr	N	3	0	1000	1	76	13:37:58	827866	0	0	0	0	0	0	0	0	0	0	0	0	0	0	0	0	0
120712	13:37:58	10014	Trial2BackFr	Y	3	57	586	1	77	13:37:58	828972	0	0	0	0	0	0	0	0	0	0	0	0	0	0	0	0	0
120712	13:37:58	10014	Trial2BackFr	N	3	0	1000	1	78	13:37:58	830878	0	0	0	0	0	0	0	0	0	0	0	0	0	0	0	0	0
120712	13:37:58	10014	Trial2BackFr	N	3	0	1000	1	79	13:37:58	832384	0	0	0	0	0	0	0	0	0	0	0	0	0	0	0	0	0
120712	13:37:58	10014	Trial2BackFr	N	3	0	1000	1	80	13:37:58	833890	0	0	0	0	0	0	0	0	0	0	0	0	0	0	0	0	0
120712	13:37:58	10014	Trial2BackFr	N	3	0	1000	1	81	13:37:58	835396	0	0	0	0	0	0	0	0	0	0	0	0	0	0	0	0	0
120712	13:37:58	10014	Trial2BackFr	N	3	0	1000	1	82	13:37:58	836903	0	0	0	0	0	0	0	0	0	0	0	0	0	0	0	0	0
120712	13:37:58	10014	Trial2BackFr	Y	3	57	462	1	83	13:37:58	837875	0	0	0	0	0	0	0	0	0	0	0	0	0	0	0	0	0
120712	13:37:58	10014	Trial2BackFr	N	3	0	1000	1	84	13:37:58	839915	0	0	0	0	0	0	0	0	0	0	0	0	0	0	0	0	0
120712	13:37:58	10014	Trial2BackFr	N	3	0	1000	1	85	13:37:58	841421	0	0	0	0	0	0	0	0	0	0	0	0	0	0	0	0	0
120712	13:37:58	10014	Trial2BackFr	N	3	0	1000	1	86	13:37:58	842927	0	0	0	0	0	0	0	0	0	0	0	0	0	0	0	0	0
120712	13:37:58	10014	Trial2BackFr	N	3	0	1000	1	87	13:37:58	844433	0	0	0	0	0	0	0	0	0	0	0	0	0	0	0	0	0
120712	13:37:58	10014	Trial2BackFr	N	3	0	1000	1	88	13:37:58	845939	0	0	0	0	0	0	0	0	0	0	0	0	0	0	0	0	0
120712	13:37:58	10014	Trial2BackFr	N	3	0	1000	1	89	13:37:58	847445	0	0	0	0	0	0	0	0	0	0	0	0	0	0	0	0	0
120712	13:37:58	10014	Trial2BackFr	N	3	0	1000	1	90	13:37:58	848951	0	0	0	0	0	0	0	0	0	0	0	0	0	0	0	0	0
120712	13:37:58	10014	Trial2BackFr	N	3	0	1000	1	91	13:37:58	850457	0	0	0	0	0	0	0	0	0	0	0	0	0	0	0	0	0
120712	13:37:58	10014	Trial2BackFr	N	3	0	1000	1	92	13:37:58	851963	0	0	0	0	0	0	0	0	0	0	0	0	0	0	0	0	0
120712	13:37:58	10014	Trial2BackFr	Y	3	57	649	1	93	13:37:58	853123	0	0	0	0	0	0	0	0	0	0	0	0	0	0	0	0	0
120712	13:37:58	10014	Trial2BackFr	N	3	0	1000	1	94	13:37:58	854975	0	0	0	0	0	0	0	0	0	0	0	0	0	0	0	0	0
120712	13:37:58	10014	Trial2BackFr	N	3	0	1000	1	95	13:37:58	856481	0	0	0	0	0	0	0	0	0	0	0	0	0	0	0	0	0
120712	13:37:58	10014	Trial2BackFr	N	3	0	1000	1	96	13:37:58	857988	0	0	0	0	0	0	0	0	0	0	0	0	0	0	0	0	0
120712	13:37:58	10014	Trial2BackFr	N	3	0	1000	1	97	13:37:58	859494	0	0	0	0	0	0	0	0	0	0	0	0	0	0	0	0	0
120712	13:37:58	10014	Trial2BackFr	N	3	0	1000	1	98	13:37:58	861000	0	0	0	0	0	0	0	0	0	0	0	0	0	0	0	0	0
120712	13:37:58	10014	Trial2BackFr	N	3	0	1000	1	99	13:37:58	862506	0	0	0	0	0	0	0	0	0	0	0	0	0	0	0	0	0
120712	13:37:58	10014	Trial2BackFr	N	3	0	1000	1	100	13:37:58	864012	0	0	0	0	0	0	0	0	0	0	0	0	0	0	0	0	0
120712	13:37:58	10014	Trial2BackFr	N	3	0	1000	1	101	13:37:58	865518	0	0	0	0	0	0	0	0	0	0	0	0	0	0	0	0	0
120712	13:37:58	10014	Trial2BackFr	Y	3	57	582	1	102	13:37:58	866611	0	0	0	0	0	0	0	0	0	0	0	0	0	0	0	0	0
120712	13:37:58	10014	Trial2BackFr	N	3	0	1000	1	103	13:37:58	868530	0	0	0	0	0	0	0	0	0	0	0	0	0	0	0	0	0
120712	13:37:58	10014	Trial2BackFr	N	3	0	1000	1	104	13:37:58	870036	0	0	0	0	0	0	0	0	0	0	0	0	0	0	0	0	0
120712	13:37:58	10014	Trial2BackFr	N	3	0	1000	1	105	13:37:58	871542	0	0	0	0	0	0	0	0	0	0	0	0	0	0	0	0	0
120712	13:37:58	10014	Trial2BackFr	N	3	0	1000	1	106	13:37:58	873048	0	0	0	0	0	0	0	0	0	0	0	0	0	0	0	0	0
120712	13:37:58	10014	Trial2BackFr	Y	3	57	508	1	107	13:37:58	874074	0	0	0	0	0	0	0	0	0	0	0	0	0	0	0	0	0
120712	13:37:58	10014	Trial2BackFr	N	3	0	1000	1	108	13:37:58	876061	0	0	0	0	0	0	0	0	0	0	0	0	0	0	0	0	0
120712	13:37:58	10014	Trial2BackFr	N	3	0	1000	1	109	13:37:58	877566	0	0	0	0	0	0	0	0	0	0	0	0	0	0	0	0	0
120712	13:37:58	10014	Trial2BackFr	N	3	0	1000	1	110	13:37:58	879073	0	0	0	0	0	0	0	0	0	0	0	0	0	0	0	0	0
120712	13:37:58	10014	Trial2BackFr	Y	3	57	419	1	111	13:37:58	880005	0	0	0	0	0	0	0	0	0	0	0	0	0	0	0	0	0
120712	13:37:58	10014	Trial2BackFr	N	3	0	1000	1	112	13:37:58	882085	0	0	0	0	0	0	0	0	0	0	0	0	0	0	0	0	0
120712	13:37:58	10014	Trial2BackFr	N	3	0	1000	1	113	13:37:58	883591	0	0	0	0	0	0	0	0	0	0	0	0	0	0	0	0	0
120712	13:37:58	10014	Trial2BackFr	N	3	0	1000	1	114	13:37:58	885097	0	0	0	0	0	0	0	0	0	0	0	0	0	0	0	0	0
120712	13:37:58	10014	Trial2BackFr	N	3	0	1000	1	115	13:37:58	886603	0	0	0	0	0	0	0	0	0	0	0	0	0	0	0	0	0
120712	13:37:58	10014	Trial2BackFr	N	3	0	1000	1	116	13:37:58	888109	0	0	0	0	0	0	0	0	0	0	0	0	0	0	0	0	0
120712	13:37:58	10014	Trial2BackFr	Y	3	57	615	1	117	13:37:58	889242	0	0	0	0	0	0	0	0	0	0	0	0	0	0	0	0	0
120712	13:37:58	10014	Trial2BackFr	N	3	0	1000	1	118	13:37:58	891121	0	0	0	0	0	0	0	0	0	0	0	0	0	0	0	0	0
120712	13:37:58	10014	Trial2BackFr	N	3	0	1000	1	119	13:37:58	892640	0	0	0	0	0	0	0	0	0	0	0	0	0	0	0	0	0
120712	13:37:58	10014	Trial2BackFr	N	3	0	1000	1	120	13:37:58	894147	0	0	0	0	0	0	0	0	0	0	0	0	0	0	0	0	0
120712	13:37:58	10014	Trial2BackFr	Y	3	57	673	1	121	13:37:58	895333	0	0	0	0	0	0	0	0	0	0	0	0	0	0	0	0	0
120712	13:37:58	10014	Trial3BackFr	NN	4	0	1000	1	121	13:37:58	908488	0	0	0	0	0	0	0	0	0	0	0	0	0	0	0	0	0
120712	13:37:58	10014	Trial3BackFr	NN	4	0	1000	1	121	13:37:58	909994	0	0	0	0	0	0	0	0	0	0	0	0	0	0	0	0	0
120712	13:37:58	10014	Trial3BackFr	NN	4	0	1000	1	121	13:37:58	911500	0	0	0	0	0	0	0	0	0	0	0	0	0	0	0	0	0
120712	13:37:58	10014	Trial3BackFr	YY	4	0	1000	0	121	13:37:58	913019	0	0	0	0	0	0	0	0	0	0	0	0	0	0	0	0	0
120712	13:37:58	10014	Trial3BackFr	NN	4	0	1000	1	121	13:37:58	914525	0	0	0	0	0	0	0	0	0	0	0	0	0	0	0	0	0
120712	13:37:58	10014	Trial3BackFr	NN	4	0	1000	1	121	13:37:58	916031	0	0	0	0	0	0	0	0	0	0	0	0	0	0	0	0	0
120712	13:37:58	10014	Trial3BackFr	NN	4	0	1000	1	121	13:37:58	917537	0	0	0	0	0	0	0	0	0	0	0	0	0	0	0	0	0
120712	13:37:58	10014	Trial3BackFr	NN	4	0	1000	1	121	13:37:58	919043	0	0	0	0	0	0	0	0	0	0	0	0	0	0	0	0	0
120712	13:37:58	10014	Trial3BackFr	YY	4	57	864	1	121	13:37:58	920416	0	0	0	0	0	0	0	0	0	0	0	0	0	0	0	0	0
120712	13:37:58	10014	Trial3BackFr	NN	4	0	1000	1	121	13:37:58	922056	0	0	0	0	0	0	0	0	0	0	0	0	0	0	0	0	0
120712	13:37:58	10014	Trial3BackFr	NN	4	0	1000	1	121	13:37:58	923562	0	0	0	0	0	0	0	0	0	0	0	0	0	0	0	0	0
120712	13:37:58	10014	Trial3BackFr	NN	4	0	1000	1	121	13:37:58	925068	0	0	0	0	0	0	0	0	0	0	0	0	0	0	0	0	0
120712	13:37:58	10014	Trial3BackFr	NN	4	0	1000	1	121	13:37:58	926574	0	0	0	0	0	0	0	0	0	0	0	0	0	0	0	0	0
120712	13:37:58	10014	Trial3BackFr	NN	4	0	1000	1	121	13:37:58	928080	0	0	0	0	0	0	0	0	0	0	0	0	0	0	0	0	0
120712	13:37:58	10014	Trial3BackFr	NN	4	0	1000	1	121	13:37:58	929586	0	0	0	0	0	0	0	0	0	0	0	0	0	0	0	0	0
120712	13:37:58	10014	Trial3BackFr	NN	4	0	1000	1	121	13:37:58	931092	0	0	0	0	0	0	0	0	0	0	0	0	0	0	0	0	0
120712	13:37:58	10014	Trial3BackFr	YY	4	57	975	1	121	13:37:58	932585	0	0	0	0	0	0	0	0	0	0	0	0	0	0	0	0	0
120712	13:37:58	10014	Trial3BackFr	NN	4	0	1000	1	121	13:37:58	934104	0	0	0	0	0	0	0	0	0	0	0	0	0	0	0	0	0
120712	13:37:58	10014	Trial3BackFr	NN	4	0	1000	1	121	13:37:58	935610	0	0	0	0	0	0	0	0	0	0	0	0	0	0	0	0	0
120712	13:37:58	10014	Trial3BackFr	NN	4	0	1000	1	121	13:37:58	937116	0	0	0	0	0	0	0	0	0	0	0	0	0	0	0	0	0
120712	13:37:58	10014	Trial3BackFr	NN	4	0	1000	1	121	13:37:58	938622	0	0	0	0	0	0	0	0	0	0	0	0	0	0	0	0	0
120712	13:37:58	10014	Trial3BackFr	NN	4	0	1000	1	121	13:37:58	940128	0	0	0	0	0	0	0	0	0	0	0	0	0	0	0	0	0
120712	13:37:58	10014	Trial3BackFr	YY	4	57	579	1	121	13:37:58	941221	0	0	0	0	0	0	0	0	0	0	0	0	0	0	0	0	0
120712	13:37:58	10014	Trial3BackFr	NN	4	0	1000	1	121	13:37:58	943141	0	0	0	0	0	0	0	0	0	0	0	0	0	0	0	0	0
120712	13:37:58	10014	Trial3BackFr	NN	4	0	1000	1	121	13:37:58	944647	0	0	0	0	0	0	0	0	0	0	0	0	0	0	0	0	0
120712	13:37:58	10014	Trial3BackFr	NN	4	0	1000	1	121	13:37:58	946153	0	0	0	0	0	0	0	0	0	0	0	0	0	0	0	0	0
120712	13:37:58	10014	Trial3BackFr	YY	4	57	746	1	121	13:37:58	947419	0	0	0	0	0	0	0	0	0	0	0	0	0	0	0	0	0
120712	13:37:58	10014	Trial3BackFr	NN	4	0	1000	1	121	13:37:58	949165	0	0	0	0	0	0	0	0	0	0	0	0	0	0	0	0	0
120712	13:37:58	10014	Trial3BackFr	NN	4	0	1000	1	121	13:37:58	950671	0	0	0	0	0	0	0	0	0	0	0	0	0	0	0	0	0
120712	13:37:58	10014	Trial3BackFr	NN	4	0	1000	1	121	13:37:58	952177	0	0	0	0	0	0	0	0	0	0	0	0	0	0	0	0	0
120712	13:37:58	10014	Trial3BackFr	YY	4	57	578	1	121	13:37:58	953270	0	0	0	0	0	0	0	0	0	0	0	0	0	0	0	0	0
120712	13:37:58	10014	Trial3BackFr	NN	4	0	1000	1	121	13:37:58	955189	0	0	0	0	0	0	0	0	0	0	0	0	0	0	0	0	0
120712	13:37:58	10014	Trial3BackFr	NN	4	0	1000	1	121	13:37:58	956695	0	0	0	0	0	0	0	0	0	0	0	0	0	0	0	0	0
120712	13:37:58	10014	Trial3BackFr	NN	4	0	1000	1	121	13:37:58	958201	0	0	0	0	0	0	0	0	0	0	0	0	0	0	0	0	0
120712	13:37:58	10014	Trial3BackFr	NN	4	0	1000	1	121	13:37:58	959707	0	0	0	0	0	0	0	0	0	0	0	0	0	0	0	0	0
120712	13:37:58	10014	Trial3BackFr	NN	4	0	1000	1	121	13:37:58	961213	0	0	0	0	0	0	0	0	0	0	0	0	0	0	0	0	0
120712	13:37:58	10014	Trial3BackFr	NN	4	0	1000	1	121	13:37:58	962719	0	0	0	0	0	0	0	0	0	0	0	0	0	0	0	0	0
120712	13:37:58	10014	Trial3BackFr	NN	4	0	1000	1	121	13:37:58	964239	0	0	0	0	0	0	0	0	0	0	0	0	0	0	0	0	0
120712	13:37:58	10014	Trial3BackFr	NN	4	0	1000	1	121	13:37:58	965745	0	0	0	0	0	0	0	0	0	0	0	0	0	0	0	0	0
120712	13:37:58	10014	Trial3BackFr	NN	4	0	1000	1	121	13:37:58	967251	0	0	0	0	0	0	0	0	0	0	0	0	0	0	0	0	0
120712	13:37:58	10014	Trial3BackFr	NN	4	0	1000	1	121	13:37:58	968757	0	0	0	0	0	0	0	0	0	0	0	0	0	0	0	0	0
120712	13:37:58	10014	Trial3BackFr	YY	4	57	285	1	121	13:37:58	969557	0	0	0	0	0	0	0	0	0	0	0	0	0	0	0	0	0
120712	13:37:58	10014	Trial3BackFr	NN	4	0	1000	1	121	13:37:58	971769	0	0	0	0	0	0	0	0	0	0	0	0	0	0	0	0	0
120712	13:37:58	10014	Trial3BackFr	NN	4	0	1000	1	121	13:37:58	973275	0	0	0	0	0	0	0	0	0	0	0	0	0	0	0	0	0
120712	13:37:58	10014	Trial3BackFr	NN	4	0	1000	1	121	13:37:58	974781	0	0	0	0	0	0	0	0	0	0	0	0	0	0	0	0	0
120712	13:37:58	10014	Trial3BackFr	NN	4	0	1000	1	121	13:37:58	976287	0	0	0	0	0	0	0	0	0	0	0	0	0	0	0	0	0
120712	13:37:58	10014	Trial3BackFr	YY	4	57	787	1	121	13:37:58	977593	0	0	0	0	0	0	0	0	0	0	0	0	0	0	0	0	0
120712	13:37:58	10014	Trial3BackFr	NN	4	0	1000	1	121	13:37:58	979300	0	0	0	0	0	0	0	0	0	0	0	0	0	0	0	0	0
120712	13:37:58	10014	Trial3BackFr	NN	4	0	1000	1	121	13:37:58	980806	0	0	0	0	0	0	0	0	0	0	0	0	0	0	0	0	0
120712	13:37:58	10014	Trial3BackFr	NN	4	0	1000	1	121	13:37:58	982312	0	0	0	0	0	0	0	0	0	0	0	0	0	0	0	0	0
120712	13:37:58	10014	Trial3BackFr	NN	4	0	1000	1	121	13:37:58	983818	0	0	0	0	0	0	0	0	0	0	0	0	0	0	0	0	0
120712	13:37:58	10014	Trial3BackFr	NN	4	0	1000	1	121	13:37:58	985324	0	0	0	0	0	0	0	0	0	0	0	0	0	0	0	0	0
120712	13:37:58	10014	Trial3BackFr	YY	4	57	406	1	121	13:37:58	986244	0	0	0	0	0	0	0	0	0	0	0	0	0	0	0	0	0
120712	13:37:58	10014	Trial3BackFr	NN	4	0	1000	1	121	13:37:58	988336	0	0	0	0	0	0	0	0	0	0	0	0	0	0	0	0	0
120712	13:37:58	10014	Trial3BackFr	NN	4	0	1000	1	121	13:37:58	989842	0	0	0	0	0	0	0	0	0	0	0	0	0	0	0	0	0
120712	13:37:58	10014	Trial3BackFr	NN	4	0	1000	1	121	13:37:58	991348	0	0	0	0	0	0	0	0	0	0	0	0	0	0	0	0	0
120712	13:37:58	10014	Trial3BackFr	NN	4	0	1000	1	121	13:37:58	992854	0	0	0	0	0	0	0	0	0	0	0	0	0	0	0	0	0
120712	13:37:58	10014	Trial3BackFr	NN	4	0	1000	1	121	13:37:58	994360	0	0	0	0	0	0	0	0	0	0	0	0	0	0	0	0	0
120712	13:37:58	10014	Trial3BackFr	NN	4	0	1000	1	121	13:37:58	995866	0	0	0	0	0	0	0	0	0	0	0	0	0	0	0	0	0
120712	13:37:58	10014	Trial3BackFr	YY	4	57	824	1	121	13:37:58	997199	0	0	0	0	0	0	0	0	0	0	0	0	0	0	0	0	0
120712	13:37:58	10014	Trial3BackFr	NN	4	0	1000	1	121	13:37:58	998879	0	0	0	0	0	0	0	0	0	0	0	0	0	0	0	0	0
120712	13:37:58	10014	Trial3BackFr	NN	4	0	1000	1	121	13:37:58	1000385	0	0	0	0	0	0	0	0	0	0	0	0	0	0	0	0	0
120712	13:37:58	10014	Trial3BackFr	NN	4	0	1000	1	121	13:37:58	1001904	0	0	0	0	0	0	0	0	0	0	0	0	0	0	0	0	0
120712	13:37:58	10014	Trial3BackFr	YY	4	57	802	1	121	13:37:58	1003223	0	0	0	0	0	0	0	0	0	0	0	0	0	0	0	0	0
120712	13:37:58	10014	Trial3BackFr	NN	4	0	1000	1	121	13:37:58	1004916	0	0	0	0	0	0	0	0	0	0	0	0	0	0	0	0	0
120712	13:37:58	10014	Trial3BackFr	NN	4	0	1000	1	121	13:37:58	1006422	0	0	0	0	0	0	0	0	0	0	0	0	0	0	0	0	0
120712	13:37:58	10014	Trial3BackFr	NN	4	0	1000	1	121	13:37:58	1007941	0	0	0	0	0	0	0	0	0	0	0	0	0	0	0	0	0
120712	13:37:58	10014	Trial3BackFr	NN	4	0	1000	1	121	13:37:58	1009448	0	0	0	0	0	0	0	0	0	0	0	0	0	0	0	0	0
120712	13:37:58	10014	Trial3BackFr	NN	4	0	1000	1	121	13:37:58	1010954	0	0	0	0	0	0	0	0	0	0	0	0	0	0	0	0	0
120712	13:37:58	10014	Trial3BackFr	NN	4	0	1000	1	121	13:37:58	1012460	0	0	0	0	0	0	0	0	0	0	0	0	0	0	0	0	0
120712	13:37:58	10014	Trial3BackFr	NN	4	57	774	0	121	13:37:58	1013753	0	0	0	0	0	0	0	0	0	0	0	0	0	0	0	0	0
120712	13:37:58	10014	Trial3BackFr	NN	4	0	1000	1	121	13:37:58	1015472	0	0	0	0	0	0	0	0	0	0	0	0	0	0	0	0	0
120712	13:37:58	10014	Trial3BackFr	NN	4	0	1000	1	121	13:37:58	1016978	0	0	0	0	0	0	0	0	0	0	0	0	0	0	0	0	0
120712	13:37:58	10014	Trial3BackFr	YY	4	0	1000	0	121	13:37:58	1018484	0	0	0	0	0	0	0	0	0	0	0	0	0	0	0	0	0
120712	13:37:58	10014	Trial3BackFr	NN	4	0	1000	1	121	13:37:58	1019990	0	0	0	0	0	0	0	0	0	0	0	0	0	0	0	0	0
120712	13:37:58	10014	Trial3BackFr	NN	4	0	1000	1	121	13:37:58	1021496	0	0	0	0	0	0	0	0	0	0	0	0	0	0	0	0	0
120712	13:37:58	10014	Trial3BackFr	NN	4	0	1000	1	121	13:37:58	1023002	0	0	0	0	0	0	0	0	0	0	0	0	0	0	0	0	0
120712	13:37:58	10014	Trial3BackFr	YY	4	57	583	1	121	13:37:58	1024095	0	0	0	0	0	0	0	0	0	0	0	0	0	0	0	0	0
120712	13:37:58	10014	Trial3BackFr	NN	4	0	1000	1	121	13:37:58	1026014	0	0	0	0	0	0	0	0	0	0	0	0	0	0	0	0	0
120712	13:37:58	10014	Trial3BackFr	NN	4	0	1000	1	121	13:37:58	1027521	0	0	0	0	0	0	0	0	0	0	0	0	0	0	0	0	0
120712	13:37:58	10014	Trial3BackFr	NN	4	0	1000	1	121	13:37:58	1029027	0	0	0	0	0	0	0	0	0	0	0	0	0	0	0	0	0
120712	13:37:58	10014	Trial3BackFr	NN	4	0	1000	1	121	13:37:58	1030533	0	0	0	0	0	0	0	0	0	0	0	0	0	0	0	0	0
120712	13:37:58	10014	Trial3BackFr	NN	4	0	1000	1	121	13:37:58	1032039	0	0	0	0	0	0	0	0	0	0	0	0	0	0	0	0	0
120712	13:37:58	10014	Trial3BackFr	YY	4	57	635	1	121	13:37:58	1033185	0	0	0	0	0	0	0	0	0	0	0	0	0	0	0	0	0
120712	13:37:58	10014	Trial3BackFr	NN	4	0	1000	1	121	13:37:58	1035051	0	0	0	0	0	0	0	0	0	0	0	0	0	0	0	0	0
120712	13:37:58	10014	Trial3BackFr	NN	4	0	1000	1	121	13:37:58	1036557	0	0	0	0	0	0	0	0	0	0	0	0	0	0	0	0	0
120712	13:37:58	10014	Trial3BackFr	NN	4	0	1000	1	121	13:37:58	1038063	0	0	0	0	0	0	0	0	0	0	0	0	0	0	0	0	0
120712	13:37:58	10014	Trial3BackFr	NN	4	0	1000	1	121	13:37:58	1039569	0	0	0	0	0	0	0	0	0	0	0	0	0	0	0	0	0
120712	13:37:58	10014	Trial3BackFr	NN	4	0	1000	1	121	13:37:58	1041075	0	0	0	0	0	0	0	0	0	0	0	0	0	0	0	0	0
120712	13:37:58	10014	Trial3BackFr	NN	4	0	1000	1	121	13:37:58	1042581	0	0	0	0	0	0	0	0	0	0	0	0	0	0	0	0	0
120712	13:37:58	10014	Trial3BackFr	NN	4	0	1000	1	121	13:37:58	1044087	0	0	0	0	0	0	0	0	0	0	0	0	0	0	0	0	0
120712	13:37:58	10014	Trial3BackFr	NN	4	57	586	0	121	13:37:58	1045194	0	0	0	0	0	0	0	0	0	0	0	0	0	0	0	0	0
120712	13:37:58	10014	Trial3BackFr	NN	4	0	1000	1	121	13:37:58	1047099	0	0	0	0	0	0	0	0	0	0	0	0	0	0	0	0	0
120712	13:37:58	10014	Trial3BackFr	YY	4	0	1000	0	121	13:37:58	1048606	0	0	0	0	0	0	0	0	0	0	0	0	0	0	0	0	0
120712	13:37:58	10014	Trial3BackFr	NN	4	0	1000	1	121	13:37:58	1050111	0	0	0	0	0	0	0	0	0	0	0	0	0	0	0	0	0
120712	13:37:58	10014	Trial3BackFr	NN	4	0	1000	1	121	13:37:58	1051618	0	0	0	0	0	0	0	0	0	0	0	0	0	0	0	0	0
120712	13:37:58	10014	Trial3BackFr	NN	4	0	1000	1	121	13:37:58	1053124	0	0	0	0	0	0	0	0	0	0	0	0	0	0	0	0	0
120712	13:37:58	10014	Trial3BackFr	NN	4	0	1000	1	121	13:37:58	1054630	0	0	0	0	0	0	0	0	0	0	0	0	0	0	0	0	0
120712	13:37:58	10014	Trial3BackFr	NN	4	0	1000	1	121	13:37:58	1056136	0	0	0	0	0	0	0	0	0	0	0	0	0	0	0	0	0
120712	13:37:58	10014	Trial3BackFr	NN	4	0	1000	1	121	13:37:58	1057642	0	0	0	0	0	0	0	0	0	0	0	0	0	0	0	0	0
120712	13:37:58	10014	Trial3BackFr	NN	4	0	1000	1	121	13:37:58	1059148	0	0	0	0	0	0	0	0	0	0	0	0	0	0	0	0	0
120712	13:37:58	10014	Trial3BackFr	NN	4	0	1000	1	121	13:37:58	1060654	0	0	0	0	0	0	0	0	0	0	0	0	0	0	0	0	0
120712	13:37:58	10014	Trial3BackFr	YY	4	0	1000	0	121	13:37:58	1062160	0	0	0	0	0	0	0	0	0	0	0	0	0	0	0	0	0
120712	13:37:58	10014	Trial3BackFr	NN	4	0	1000	1	121	13:37:58	1063666	0	0	0	0	0	0	0	0	0	0	0	0	0	0	0	0	0
120712	13:37:58	10014	Trial3BackFr	NN	4	0	1000	1	121	13:37:58	1065172	0	0	0	0	0	0	0	0	0	0	0	0	0	0	0	0	0
120712	13:37:58	10014	Trial3BackFr	NN	4	57	461	0	121	13:37:58	1066145	0	0	0	0	0	0	0	0	0	0	0	0	0	0	0	0	0
120712	13:37:58	10014	Trial3BackFr	NN	4	0	1000	1	121	13:37:58	1068184	0	0	0	0	0	0	0	0	0	0	0	0	0	0	0	0	0
120712	13:37:58	10014	Trial3BackFr	YY	4	0	1000	0	121	13:37:58	1069691	0	0	0	0	0	0	0	0	0	0	0	0	0	0	0	0	0
120712	13:37:58	10014	Trial3BackFr	NN	4	0	1000	1	121	13:37:58	1071197	0	0	0	0	0	0	0	0	0	0	0	0	0	0	0	0	0
120712	13:37:58	10014	Trial3BackFr	NN	4	0	1000	1	121	13:37:58	1072703	0	0	0	0	0	0	0	0	0	0	0	0	0	0	0	0	0
120712	13:37:58	10014	Trial3BackFr	NN	4	0	1000	1	121	13:37:58	1074209	0	0	0	0	0	0	0	0	0	0	0	0	0	0	0	0	0
120712	13:37:58	10014	Trial3BackFr	YY	4	57	384	1	121	13:37:58	1075102	0	0	0	0	0	0	0	0	0	0	0	0	0	0	0	0	0
120712	13:37:58	10014	Trial3BackFr	NN	4	0	1000	1	121	13:37:58	1077221	0	0	0	0	0	0	0	0	0	0	0	0	0	0	0	0	0
120712	13:37:58	10014	Trial3BackFr	NN	4	0	1000	1	121	13:37:58	1078727	0	0	0	0	0	0	0	0	0	0	0	0	0	0	0	0	0
120712	13:37:58	10014	Trial3BackFr	NN	4	0	1000	1	121	13:37:58	1080233	0	0	0	0	0	0	0	0	0	0	0	0	0	0	0	0	0
120712	13:37:58	10014	Trial3BackFr	NN	4	0	1000	1	121	13:37:58	1081739	0	0	0	0	0	0	0	0	0	0	0	0	0	0	0	0	0
120712	13:37:58	10014	Trial3BackFr	NN	4	57	470	0	121	13:37:58	1082725	0	0	0	0	0	0	0	0	0	0	0	0	0	0	0	0	0
120712	13:37:58	10014	Trial3BackFr	YY	4	0	1000	0	121	13:37:58	1084751	0	0	0	0	0	0	0	0	0	0	0	0	0	0	0	0	0
120712	13:37:58	10014	Trial3BackFr	NN	4	0	1000	1	121	13:37:58	1086257	0	0	0	0	0	0	0	0	0	0	0	0	0	0	0	0	0
120712	13:37:58	10014	Trial3BackFr	NN	4	0	1000	1	121	13:37:58	1087763	0	0	0	0	0	0	0	0	0	0	0	0	0	0	0	0	0
120712	13:37:58	10014	Trial3BackFr	NN	4	0	1000	1	121	13:37:58	1089269	0	0	0	0	0	0	0	0	0	0	0	0	0	0	0	0	0
120712	13:37:58	10014	Trial3BackFr	YY	4	0	1000	0	121	13:37:58	1090789	0	0	0	0	0	0	0	0	0	0	0	0	0	0	0	0	0
120712	13:37:58	10014	Memory1R6moFr	ScoreFr	5	M1	27084	0	121	13:37:58	1145514	0	0	0	0	0	0	0	0	0	0	0	0	0	0	0	0	0
120712	13:37:58	10014	Memory1R6moFr	ScoreFr	5	M2	316	0	121	13:37:58	1145874	0	0	0	0	0	0	0	0	0	0	0	0	0	0	0	0	0
120712	13:37:58	10014	Memory1R6moFr	ScoreFr	5	M3	549	0	121	13:37:58	1146474	0	0	0	0	0	0	0	0	0	0	0	0	0	0	0	0	0
120712	13:37:58	10014	Memory1R6moFr	ScoreFr	5	M6	2213	0	121	13:37:58	1148739	0	0	0	0	0	0	0	0	0	0	0	0	0	0	0	0	0
120712	13:37:58	10014	Memory1R6moFr	ScoreFr	5	M6	140	0	121	13:37:58	1148926	0	0	0	0	0	0	0	0	0	0	0	0	0	0	0	0	0
120712	13:37:58	10014	Memory1R6moFr	ScoreFr	5	M7	400	0	121	13:37:58	1149379	0	0	0	0	0	0	0	0	0	0	0	0	0	0	0	0	0
120712	13:37:58	10014	Memory1R6moFr	ScoreFr	5	M6	163	0	121	13:37:58	1149593	0	0	0	0	0	0	0	0	0	0	0	0	0	0	0	0	0
120712	13:37:58	10014	Memory1R6moFr	ScoreFr	5	Done	3806	0	121	13:37:58	1153444	0	0	0	0	0	0	0	0	0	0	0	0	0	0	0	0	0
120712	13:37:58	10014	Memory2R6moFr	ScoreFr2	5	11	14934	0	121	13:37:58	1185525	0	0	0	0	0	0	0	0	0	0	0	0	0	0	0	0	0
120712	13:37:58	10014	Memory2R6moFr	ScoreFr2	5	22	193	0	121	13:37:58	1185765	0	0	0	0	0	0	0	0	0	0	0	0	0	0	0	0	0
120712	13:37:58	10014	Memory2R6moFr	ScoreFr2	5	44	609	0	121	13:37:58	1186418	0	0	0	0	0	0	0	0	0	0	0	0	0	0	0	0	0
120712	13:37:58	10014	Memory2R6moFr	ScoreFr2	5	55	220	0	121	13:37:58	1186685	0	0	0	0	0	0	0	0	0	0	0	0	0	0	0	0	0
120712	13:37:58	10014	Memory2R6moFr	ScoreFr2	5	66	170	0	121	13:37:58	1186911	0	0	0	0	0	0	0	0	0	0	0	0	0	0	0	0	0
120712	13:37:58	10014	Memory2R6moFr	ScoreFr2	5	77	159	0	121	13:37:58	1187124	0	0	0	0	0	0	0	0	0	0	0	0	0	0	0	0	0
120712	13:37:58	10014	Memory2R6moFr	ScoreFr2	5	88	186	0	121	13:37:58	1187364	0	0	0	0	0	0	0	0	0	0	0	0	0	0	0	0	0
120712	13:37:58	10014	Memory2R6moFr	ScoreFr2	5	33	7602	0	121	13:37:58	1195015	0	0	0	0	0	0	0	0	0	0	0	0	0	0	0	0	0
120712	13:37:58	10014	Memory2R6moFr	ScoreFr2	5	Done	1015	0	121	13:37:58	1196081	0	0	0	0	0	0	0	0	0	0	0	0	0	0	0	0	0
120712	13:37:58	10014	Memory3R6moFr	ScoreFr3	5	111	21132	0	121	13:37:58	1236771	0	0	0	0	0	0	0	0	0	0	0	0	0	0	0	0	0
120712	13:37:58	10014	Memory3R6moFr	ScoreFr3	5	222	226	0	121	13:37:58	1237051	0	0	0	0	0	0	0	0	0	0	0	0	0	0	0	0	0
120712	13:37:58	10014	Memory3R6moFr	ScoreFr3	5	444	274	0	121	13:37:58	1237371	0	0	0	0	0	0	0	0	0	0	0	0	0	0	0	0	0
120712	13:37:58	10014	Memory3R6moFr	ScoreFr3	5	333	626	0	121	13:37:58	1238051	0	0	0	0	0	0	0	0	0	0	0	0	0	0	0	0	0
120712	13:37:58	10014	Memory3R6moFr	ScoreFr3	5	555	426	0	121	13:37:58	1238531	0	0	0	0	0	0	0	0	0	0	0	0	0	0	0	0	0
120712	13:37:58	10014	Memory3R6moFr	ScoreFr3	5	666	530	0	121	13:37:58	1239117	0	0	0	0	0	0	0	0	0	0	0	0	0	0	0	0	0
120712	13:37:58	10014	Memory3R6moFr	ScoreFr3	5	777	416	0	121	13:37:58	1239584	0	0	0	0	0	0	0	0	0	0	0	0	0	0	0	0	0
120712	13:37:58	10014	Memory3R6moFr	ScoreFr3	5	888	4008	0	121	13:37:58	1243649	0	0	0	0	0	0	0	0	0	0	0	0	0	0	0	0	0
120712	13:37:58	10014	Memory3R6moFr	ScoreFr3	5	Done	596	0	121	13:37:58	1244302	0	0	0	0	0	0	0	0	0	0	0	0	0	0	0	0	0
120712	13:37:58	10014	LoriaFrLH3	Stop	6	8	6714	0	121	13:37:58	1317248	0	0	0	0	0	0	0	0	0	0	0	0	0	0	0	0	0
120712	13:37:58	10014	FrTrail	Trails	7	1Trails	1055	0	121	13:37:58	1336959	0	0	0	0	0	0	0	0	0	0	0	0	0	0	0	0	0
120712	13:37:58	10014	Serial7Fr6mo	Serial7Fr6mo	8	73	3356	0	121	13:37:58	1416009	1	0	0	0	0	0	0	0	0	0	0	0	0	0	0	0	0
120712	13:37:58	10014	Serial7Fr6mo	Serial7Fr6mo	8	66	11500	0	121	13:37:58	1427525	2	0	0	0	0	0	0	0	0	0	0	0	0	0	0	0	0
120712	13:37:58	10014	Serial7Fr6mo	Serial7Fr6mo	8	58	5850	0	121	13:37:58	1433390	2	0	0	0	0	0	0	0	0	0	0	0	0	0	0	0	0
120712	13:37:58	10014	Serial7Fr6mo	Serial7Fr6mo	8	51	2698	0	121	13:37:58	1436111	3	0	0	0	0	0	0	0	0	0	0	0	0	0	0	0	0
120712	13:37:58	10014	Serial7Fr6mo	Serial7Fr6mo	8	42	3312	0	121	13:37:58	1439442	3	0	0	0	0	0	0	0	0	0	0	0	0	0	0	0	0
120712	13:37:58	10014	corsiblockFrFwrd	recallseqFrFwrd	9	8	998	0	121	13:37:58	1488635	3	0	0	0	0	0	0	0	0	0	0	0	0	0	0	0	0
120712	13:37:58	10014	corsiblockFrFwrd	recallseqFrFwrd	9	9	857	0	121	13:37:58	1489542	3	0	0	0	0	0	0	0	0	0	0	0	0	0	0	0	0
120712	13:37:58	10014	corsiblockFrFwrd	recallseqFrFwrd	9	doneCorsiFr	1751	0	121	13:37:58	1491341	3	0	0	0	0	0	0	0	0	0	0	0	0	0	0	2	0
120712	13:37:58	10014	corsiblockFrFwrd	recallseqFrFwrd	9	3	717	0	121	13:37:58	1498205	3	0	0	0	0	0	0	0	0	0	0	0	0	0	0	2	0
120712	13:37:58	10014	corsiblockFrFwrd	recallseqFrFwrd	9	1	648	0	121	13:37:58	1498898	3	0	0	0	0	0	0	0	0	0	0	0	0	0	0	2	0
120712	13:37:58	10014	corsiblockFrFwrd	recallseqFrFwrd	9	7	763	0	121	13:37:58	1499711	3	0	0	0	0	0	0	0	0	0	0	0	0	0	0	2	0
120712	13:37:58	10014	corsiblockFrFwrd	recallseqFrFwrd	9	doneCorsiFr	1230	0	121	13:37:58	1500990	3	0	0	0	0	0	0	0	0	0	0	0	0	0	0	3	0
120712	13:37:58	10014	corsiblockFrFwrd	recallseqFrFwrd	9	4	625	0	121	13:37:58	1508747	3	0	0	0	0	0	0	0	0	0	0	0	0	0	0	3	0
120712	13:37:58	10014	corsiblockFrFwrd	recallseqFrFwrd	9	6	721	0	121	13:37:58	1509520	3	0	0	0	0	0	0	0	0	0	0	0	0	0	0	3	0
120712	13:37:58	10014	corsiblockFrFwrd	recallseqFrFwrd	9	5	564	0	121	13:37:58	1510133	3	0	0	0	0	0	0	0	0	0	0	0	0	0	0	3	0
120712	13:37:58	10014	corsiblockFrFwrd	recallseqFrFwrd	9	2	815	0	121	13:37:58	1511000	3	0	0	0	0	0	0	0	0	0	0	0	0	0	0	3	0
120712	13:37:58	10014	corsiblockFrFwrd	recallseqFrFwrd	9	doneCorsiFr	1029	0	121	13:37:58	1512079	3	0	0	0	0	0	0	0	0	0	0	0	0	0	0	4	0
120712	13:37:58	10014	corsiblockFrFwrd	recallseqFrFwrd	9	1	519	0	121	13:37:58	1520729	3	0	0	0	0	0	0	0	0	0	0	0	0	0	0	4	0
120712	13:37:58	10014	corsiblockFrFwrd	recallseqFrFwrd	9	5	923	0	121	13:37:58	1521702	3	0	0	0	0	0	0	0	0	0	0	0	0	0	0	4	0
120712	13:37:58	10014	corsiblockFrFwrd	recallseqFrFwrd	9	9	702	0	121	13:37:58	1522449	3	0	0	0	0	0	0	0	0	0	0	0	0	0	0	4	0
120712	13:37:58	10014	corsiblockFrFwrd	recallseqFrFwrd	9	6	804	0	121	13:37:58	1523302	3	0	0	0	0	0	0	0	0	0	0	0	0	0	0	4	0
120712	13:37:58	10014	corsiblockFrFwrd	recallseqFrFwrd	9	2	687	0	121	13:37:58	1524035	3	0	0	0	0	0	0	0	0	0	0	0	0	0	0	4	0
120712	13:37:58	10014	corsiblockFrFwrd	recallseqFrFwrd	9	doneCorsiFr	1338	0	121	13:37:58	1525421	3	0	0	0	0	0	0	0	0	0	0	0	0	0	0	4	0
120712	13:37:58	10014	corsiblockFrFwrd	recallseqFrFwrd	9	7	554	0	121	13:37:58	1534057	3	0	0	0	0	0	0	0	0	0	0	0	0	0	0	4	0
120712	13:37:58	10014	corsiblockFrFwrd	recallseqFrFwrd	9	3	819	0	121	13:37:58	1534924	3	0	0	0	0	0	0	0	0	0	0	0	0	0	0	4	0
120712	13:37:58	10014	corsiblockFrFwrd	recallseqFrFwrd	9	2	848	0	121	13:37:58	1535817	3	0	0	0	0	0	0	0	0	0	0	0	0	0	0	4	0
120712	13:37:58	10014	corsiblockFrFwrd	recallseqFrFwrd	9	8	764	0	121	13:37:58	1536630	3	0	0	0	0	0	0	0	0	0	0	0	0	0	0	4	0
120712	13:37:58	10014	corsiblockFrFwrd	recallseqFrFwrd	9	4	726	0	121	13:37:58	1537403	3	0	0	0	0	0	0	0	0	0	0	0	0	0	0	4	0
120712	13:37:58	10014	corsiblockFrFwrd	recallseqFrFwrd	9	doneCorsiFr	954	0	121	13:37:58	1538402	3	0	0	0	0	0	0	0	0	0	0	0	0	0	0	5	0
120712	13:37:58	10014	corsiblockFrFwrd	recallseqFrFwrd	9	3	767	0	121	13:37:58	1547305	3	0	0	0	0	0	0	0	0	0	0	0	0	0	0	5	0
120712	13:37:58	10014	corsiblockFrFwrd	recallseqFrFwrd	9	7	571	0	121	13:37:58	1547932	3	0	0	0	0	0	0	0	0	0	0	0	0	0	0	5	0
120712	13:37:58	10014	corsiblockFrFwrd	recallseqFrFwrd	9	1	552	0	121	13:37:58	1548532	3	0	0	0	0	0	0	0	0	0	0	0	0	0	0	5	0
120712	13:37:58	10014	corsiblockFrFwrd	recallseqFrFwrd	9	2	1192	0	121	13:37:58	1549771	3	0	0	0	0	0	0	0	0	0	0	0	0	0	0	5	0
120712	13:37:58	10014	corsiblockFrFwrd	recallseqFrFwrd	9	9	497	0	121	13:37:58	1550318	3	0	0	0	0	0	0	0	0	0	0	0	0	0	0	5	0
120712	13:37:58	10014	corsiblockFrFwrd	recallseqFrFwrd	9	6	830	0	121	13:37:58	1551197	3	0	0	0	0	0	0	0	0	0	0	0	0	0	0	5	0
120712	13:37:58	10014	corsiblockFrFwrd	recallseqFrFwrd	9	doneCorsiFr	607	0	121	13:37:58	1551850	3	0	0	0	0	0	0	0	0	0	0	0	0	0	0	6	0
120712	13:37:58	10014	corsiblockFrFwrd	recallseqFrFwrd	9	5	741	0	121	13:37:58	1562713	3	0	0	0	0	0	0	0	0	0	0	0	0	0	0	6	0
120712	13:37:58	10014	corsiblockFrFwrd	recallseqFrFwrd	9	8	619	0	121	13:37:58	1563379	3	0	0	0	0	0	0	0	0	0	0	0	0	0	0	6	0
120712	13:37:58	10014	corsiblockFrFwrd	recallseqFrFwrd	9	2	833	0	121	13:37:58	1564259	3	0	0	0	0	0	0	0	0	0	0	0	0	0	0	6	0
120712	13:37:58	10014	corsiblockFrFwrd	recallseqFrFwrd	9	7	537	0	121	13:37:58	1564845	3	0	0	0	0	0	0	0	0	0	0	0	0	0	0	6	0
120712	13:37:58	10014	corsiblockFrFwrd	recallseqFrFwrd	9	5	775	0	121	13:37:58	1565671	3	0	0	0	0	0	0	0	0	0	0	0	0	0	0	6	0
120712	13:37:58	10014	corsiblockFrFwrd	recallseqFrFwrd	9	8	964	0	121	13:37:58	1566684	3	0	0	0	0	0	0	0	0	0	0	0	0	0	0	6	0
120712	13:37:58	10014	corsiblockFrFwrd	recallseqFrFwrd	9	1	960	0	121	13:37:58	1567697	3	0	0	0	0	0	0	0	0	0	0	0	0	0	0	6	0
120712	13:37:58	10014	corsiblockFrFwrd	recallseqFrFwrd	9	3	875	0	121	13:37:58	1568617	3	0	0	0	0	0	0	0	0	0	0	0	0	0	0	6	0
120712	13:37:58	10014	corsiblockFrFwrd	recallseqFrFwrd	9	doneCorsiFr	867	0	121	13:37:58	1569537	3	0	0	0	0	0	0	0	0	0	0	0	0	0	0	6	0
120712	13:37:58	10014	corsiblockFrFwrd	recallseqFrFwrd	9	9	774	0	121	13:37:58	1580399	3	0	0	0	0	0	0	0	0	0	0	0	0	0	0	6	0
120712	13:37:58	10014	corsiblockFrFwrd	recallseqFrFwrd	9	8	796	0	121	13:37:58	1581252	3	0	0	0	0	0	0	0	0	0	0	0	0	0	0	6	0
120712	13:37:58	10014	corsiblockFrFwrd	recallseqFrFwrd	9	6	567	0	121	13:37:58	1581865	3	0	0	0	0	0	0	0	0	0	0	0	0	0	0	6	0
120712	13:37:58	10014	corsiblockFrFwrd	recallseqFrFwrd	9	4	442	0	121	13:37:58	1582358	3	0	0	0	0	0	0	0	0	0	0	0	0	0	0	6	0
120712	13:37:58	10014	corsiblockFrFwrd	recallseqFrFwrd	9	2	581	0	121	13:37:58	1582985	3	0	0	0	0	0	0	0	0	0	0	0	0	0	0	6	0
120712	13:37:58	10014	corsiblockFrFwrd	recallseqFrFwrd	9	6	675	0	121	13:37:58	1583704	3	0	0	0	0	0	0	0	0	0	0	0	0	0	0	6	0
120712	13:37:58	10014	corsiblockFrFwrd	recallseqFrFwrd	9	3	515	0	121	13:37:58	1584264	3	0	0	0	0	0	0	0	0	0	0	0	0	0	0	6	0
120712	13:37:58	10014	corsiblockFrFwrd	recallseqFrFwrd	9	doneCorsiFr	771	0	121	13:37:58	1585091	3	0	0	0	0	0	0	0	0	0	0	0	0	0	0	7	0
120712	13:37:58	10014	corsiblockFrFwrd	recallseqFrFwrd	9	7	730	0	121	13:37:58	1595940	3	0	0	0	0	0	0	0	0	0	0	0	0	0	0	7	0
120712	13:37:58	10014	corsiblockFrFwrd	recallseqFrFwrd	9	1	560	0	121	13:37:58	1596553	3	0	0	0	0	0	0	0	0	0	0	0	0	0	0	7	0
120712	13:37:58	10014	corsiblockFrFwrd	recallseqFrFwrd	9	5	667	0	121	13:37:58	1597272	3	0	0	0	0	0	0	0	0	0	0	0	0	0	0	7	0
120712	13:37:58	10014	corsiblockFrFwrd	recallseqFrFwrd	9	9	683	0	121	13:37:58	1598005	3	0	0	0	0	0	0	0	0	0	0	0	0	0	0	7	0
120712	13:37:58	10014	corsiblockFrFwrd	recallseqFrFwrd	9	2	790	0	121	13:37:58	1598845	3	0	0	0	0	0	0	0	0	0	0	0	0	0	0	7	0
120712	13:37:58	10014	corsiblockFrFwrd	recallseqFrFwrd	9	8	582	0	121	13:37:58	1599472	3	0	0	0	0	0	0	0	0	0	0	0	0	0	0	7	0
120712	13:37:58	10014	corsiblockFrFwrd	recallseqFrFwrd	9	1	2068	0	121	13:37:58	1601591	3	0	0	0	0	0	0	0	0	0	0	0	0	0	0	7	0
120712	13:37:58	10014	corsiblockFrFwrd	recallseqFrFwrd	9	doneCorsiFr	1085	0	121	13:37:58	1602724	3	0	0	0	0	0	0	0	0	0	0	0	0	0	0	7	0
120712	13:37:58	10014	corsiblockFrFwrd	recallseqFrFwrd	9	8	852	0	121	13:37:58	1614666	3	0	0	0	0	0	0	0	0	0	0	0	0	0	0	7	0
120712	13:37:58	10014	corsiblockFrFwrd	recallseqFrFwrd	9	3	850	0	121	13:37:58	1615572	3	0	0	0	0	0	0	0	0	0	0	0	0	0	0	7	0
120712	13:37:58	10014	corsiblockFrFwrd	recallseqFrFwrd	9	5	695	0	121	13:37:58	1616318	3	0	0	0	0	0	0	0	0	0	0	0	0	0	0	7	0
120712	13:37:58	10014	corsiblockFrFwrd	recallseqFrFwrd	9	6	1037	0	121	13:37:58	1617411	3	0	0	0	0	0	0	0	0	0	0	0	0	0	0	7	0
120712	13:37:58	10014	corsiblockFrFwrd	recallseqFrFwrd	9	9	800	0	121	13:37:58	1618264	3	0	0	0	0	0	0	0	0	0	0	0	0	0	0	7	0
120712	13:37:58	10014	corsiblockFrFwrd	recallseqFrFwrd	9	4	1259	0	121	13:37:58	1619570	3	0	0	0	0	0	0	0	0	0	0	0	0	0	0	7	0
120712	13:37:58	10014	corsiblockFrFwrd	recallseqFrFwrd	9	2	1121	0	121	13:37:58	1620743	3	0	0	0	0	0	0	0	0	0	0	0	0	0	0	7	0
120712	13:37:58	10014	corsiblockFrFwrd	recallseqFrFwrd	9	5	732	0	121	13:37:58	1621529	3	0	0	0	0	0	0	0	0	0	0	0	0	0	0	7	0
120712	13:37:58	10014	corsiblockFrFwrd	recallseqFrFwrd	9	doneCorsiFr	1194	0	121	13:37:58	1622769	3	0	0	0	0	0	0	0	0	0	0	0	0	0	0	7	0
120712	13:37:58	10014	corsiblockFrRev	recallseqFrRev	10	2	1092	0	121	13:37:58	1637417	3	0	0	0	0	0	0	0	0	0	0	0	0	0	0	7	0
120712	13:37:58	10014	corsiblockFrRev	recallseqFrRev	10	8	562	0	121	13:37:58	1638030	3	0	0	0	0	0	0	0	0	0	0	0	0	0	0	7	0
120712	13:37:58	10014	corsiblockFrRev	recallseqFrRev	10	doneCorsiFr	845	0	121	13:37:58	1638923	3	0	0	0	0	0	0	0	0	0	0	0	0	0	0	7	2
120712	13:37:58	10014	corsiblockFrRev	recallseqFrRev	10	7	730	0	121	13:37:58	1645787	3	0	0	0	0	0	0	0	0	0	0	0	0	0	0	7	2
120712	13:37:58	10014	corsiblockFrRev	recallseqFrRev	10	3	1384	0	121	13:37:58	1647226	3	0	0	0	0	0	0	0	0	0	0	0	0	0	0	7	2
120712	13:37:58	10014	corsiblockFrRev	recallseqFrRev	10	5	649	0	121	13:37:58	1647919	3	0	0	0	0	0	0	0	0	0	0	0	0	0	0	7	2
120712	13:37:58	10014	corsiblockFrRev	recallseqFrRev	10	doneCorsiFr	731	0	121	13:37:58	1648706	3	0	0	0	0	0	0	0	0	0	0	0	0	0	0	7	2
120712	13:37:58	10014	corsiblockFrRev	recallseqFrRev	10	6	1099	0	121	13:37:58	1655889	3	0	0	0	0	0	0	0	0	0	0	0	0	0	0	7	2
120712	13:37:58	10014	corsiblockFrRev	recallseqFrRev	10	4	769	0	121	13:37:58	1656715	3	0	0	0	0	0	0	0	0	0	0	0	0	0	0	7	2
120712	13:37:58	10014	corsiblockFrRev	recallseqFrRev	10	1	719	0	121	13:37:58	1657489	3	0	0	0	0	0	0	0	0	0	0	0	0	0	0	7	2
120712	13:37:58	10014	corsiblockFrRev	recallseqFrRev	10	doneCorsiFr	706	0	121	13:37:58	1658248	3	0	0	0	0	0	0	0	0	0	0	0	0	0	0	7	3
120712	13:37:58	10014	corsiblockFrRev	recallseqFrRev	10	3	802	0	121	13:37:58	1665166	3	0	0	0	0	0	0	0	0	0	0	0	0	0	0	7	3
120712	13:37:58	10014	corsiblockFrRev	recallseqFrRev	10	5	508	0	121	13:37:58	1665725	3	0	0	0	0	0	0	0	0	0	0	0	0	0	0	7	3
120712	13:37:58	10014	corsiblockFrRev	recallseqFrRev	10	6	469	0	121	13:37:58	1666245	3	0	0	0	0	0	0	0	0	0	0	0	0	0	0	7	3
120712	13:37:58	10014	corsiblockFrRev	recallseqFrRev	10	9	525	0	121	13:37:58	1666818	3	0	0	0	0	0	0	0	0	0	0	0	0	0	0	7	3
120712	13:37:58	10014	corsiblockFrRev	recallseqFrRev	10	doneCorsiFr	976	0	121	13:37:58	1667845	3	0	0	0	0	0	0	0	0	0	0	0	0	0	0	7	4
120712	13:37:58	10014	corsiblockFrRev	recallseqFrRev	10	1	973	0	121	13:37:58	1676975	3	0	0	0	0	0	0	0	0	0	0	0	0	0	0	7	4
120712	13:37:58	10014	corsiblockFrRev	recallseqFrRev	10	9	684	0	121	13:37:58	1677707	3	0	0	0	0	0	0	0	0	0	0	0	0	0	0	7	4
120712	13:37:58	10014	corsiblockFrRev	recallseqFrRev	10	7	606	0	121	13:37:58	1678360	3	0	0	0	0	0	0	0	0	0	0	0	0	0	0	7	4
120712	13:37:58	10014	corsiblockFrRev	recallseqFrRev	10	4	538	0	121	13:37:58	1678947	3	0	0	0	0	0	0	0	0	0	0	0	0	0	0	7	4
120712	13:37:58	10014	corsiblockFrRev	recallseqFrRev	10	8	471	0	121	13:37:58	1679467	3	0	0	0	0	0	0	0	0	0	0	0	0	0	0	7	4
120712	13:37:58	10014	corsiblockFrRev	recallseqFrRev	10	doneCorsiFr	943	0	121	13:37:58	1680466	3	0	0	0	0	0	0	0	0	0	0	0	0	0	0	7	5
120712	13:37:58	10014	corsiblockFrRev	recallseqFrRev	10	2	579	0	121	13:37:58	1690209	3	0	0	0	0	0	0	0	0	0	0	0	0	0	0	7	5
120712	13:37:58	10014	corsiblockFrRev	recallseqFrRev	10	4	592	0	121	13:37:58	1690849	3	0	0	0	0	0	0	0	0	0	0	0	0	0	0	7	5
120712	13:37:58	10014	corsiblockFrRev	recallseqFrRev	10	1	625	0	121	13:37:58	1691529	3	0	0	0	0	0	0	0	0	0	0	0	0	0	0	7	5
120712	13:37:58	10014	corsiblockFrRev	recallseqFrRev	10	7	642	0	121	13:37:58	1692221	3	0	0	0	0	0	0	0	0	0	0	0	0	0	0	7	5
120712	13:37:58	10014	corsiblockFrRev	recallseqFrRev	10	2	556	0	121	13:37:58	1692835	3	0	0	0	0	0	0	0	0	0	0	0	0	0	0	7	5
120712	13:37:58	10014	corsiblockFrRev	recallseqFrRev	10	8	607	0	121	13:37:58	1693488	3	0	0	0	0	0	0	0	0	0	0	0	0	0	0	7	5
120712	13:37:58	10014	corsiblockFrRev	recallseqFrRev	10	doneCorsiFr	690	0	121	13:37:58	1694234	3	0	0	0	0	0	0	0	0	0	0	0	0	0	0	7	5
120712	13:37:58	10014	corsiblockFrRev	recallseqFrRev	10	3	691	0	121	13:37:58	1704017	3	0	0	0	0	0	0	0	0	0	0	0	0	0	0	7	5
120712	13:37:58	10014	corsiblockFrRev	recallseqFrRev	10	6	576	0	121	13:37:58	1704643	3	0	0	0	0	0	0	0	0	0	0	0	0	0	0	7	5
120712	13:37:58	10014	corsiblockFrRev	recallseqFrRev	10	9	814	0	121	13:37:58	1705510	3	0	0	0	0	0	0	0	0	0	0	0	0	0	0	7	5
120712	13:37:58	10014	corsiblockFrRev	recallseqFrRev	10	5	755	0	121	13:37:58	1706336	3	0	0	0	0	0	0	0	0	0	0	0	0	0	0	7	5
120712	13:37:58	10014	corsiblockFrRev	recallseqFrRev	10	3	713	0	121	13:37:58	1707096	3	0	0	0	0	0	0	0	0	0	0	0	0	0	0	7	5
120712	13:37:58	10014	corsiblockFrRev	recallseqFrRev	10	doneCorsiFr	906	0	121	13:37:58	1708055	3	0	0	0	0	0	0	0	0	0	0	0	0	0	0	7	5
120712	13:37:58	10014	testFr6mo	WordsFr6mo	11	1Fr6mo	16885	0	121	13:37:58	1734112	3	3	0	0	0	0	0	0	0	0	0	0	0	0	0	7	5
120712	13:37:58	10014	testFr6mo	WordsFr6mo	11	2Fr6mo	180	0	121	13:37:58	1734352	3	3	3	0	0	0	0	0	0	0	0	0	0	0	0	7	5
120712	13:37:58	10014	testFr6mo	WordsFr6mo	11	3Fr6mo	285	0	121	13:37:58	1734698	3	3	3	3	0	0	0	0	0	0	0	0	0	0	0	7	5
120712	13:37:58	10014	testFr6mo	WordsFr6mo	11	4Fr6mo	231	0	121	13:37:58	1734978	3	3	3	3	3	0	0	0	0	0	0	0	0	0	0	7	5
120712	13:37:58	10014	testFr6mo	WordsFr6mo	11	5Fr6mo	282	0	121	13:37:58	1735325	3	3	3	3	3	3	0	0	0	0	0	0	0	0	0	7	5
120712	13:37:58	10014	testFr6mo	WordsFr6mo	11	7Fr6mo	656	0	121	13:37:58	1736045	3	3	3	3	3	3	0	3	0	0	0	0	0	0	0	7	5
120712	13:37:58	10014	testFr6mo	WordsFr6mo	11	7Fr6mo	309	0	121	13:37:58	1736404	3	3	3	3	3	3	0	3	0	0	0	0	0	0	0	7	5
120712	13:37:58	10014	testFr6mo	WordsFr6mo	11	6Fr6mo	327	0	121	13:37:58	1736791	3	3	3	3	3	3	3	3	0	0	0	0	0	0	0	7	5
120712	13:37:58	10014	testFr6mo	WordsFr6mo	11	7Fr6mo	230	0	121	13:37:58	1737084	3	3	3	3	3	3	3	3	0	0	0	0	0	0	0	7	5
120712	13:37:58	10014	testFr6mo	WordsFr6mo	11	8Fr6mo	269	0	121	13:37:58	1737404	3	3	3	3	3	3	3	3	3	0	0	0	0	0	0	7	5
120712	13:37:58	10014	testFr6mo	WordsFr6mo	11	DoneFr6mo	505	0	121	13:37:58	1737977	3	3	3	3	3	3	3	3	3	0	0	0	0	0	0	7	5
120712	13:37:58	10014	DigitSpanFwrdFr6mo	Score1FwrdFr6mo	12	DS1	2729	0	121	13:37:58	1759861	3	3	3	3	3	3	3	3	3	0	0	0	0	0	0	7	5
120712	13:37:58	10014	DigitSpanFwrdFr6mo	Gate1FwrdFr6mo	12	0	1	0	121	13:37:58	1759865	3	3	3	3	3	3	3	3	3	3	0	0	0	0	0	7	5
120712	13:37:58	10014	DigitSpanFwrdFr6mo	Score2FwrdFr6mo	12	DS1	2829	0	121	13:37:58	1769004	3	3	3	3	3	3	3	3	3	3	0	0	0	0	0	7	5
120712	13:37:58	10014	DigitSpanFwrdFr6mo	Gate3FwrdFr6mo	12	0	1	0	121	13:37:58	1769009	3	3	3	3	3	3	3	3	3	4	0	0	0	0	0	7	5
120712	13:37:58	10014	DigitSpanFwrdFr6mo	Score3FwrdFr6mo	12	DS2	6294	0	121	13:37:58	1782532	3	3	3	3	3	3	3	3	3	4	0	0	0	0	0	7	5
120712	13:37:58	10014	DigitSpanFwrdFr6mo	Gate5FwrdFr6mo	12	0	1	0	121	13:37:58	1782537	3	3	3	3	3	3	3	3	3	4	0	0	0	0	0	7	5
120712	13:37:58	10014	DigitSpanFwrdFr6mo	Score33FwrdFr6mo	12	DS1	5760	0	121	13:37:58	1795501	3	3	3	3	3	3	3	3	3	4	0	0	0	0	0	7	5
120712	13:37:58	10014	DigitSpanFwrdFr6mo	Gate6FwrdFr6mo	12	0	1	0	121	13:37:58	1795506	3	3	3	3	3	3	3	3	3	5	0	0	0	0	0	7	5
120712	13:37:58	10014	DigitSpanFwrdFr6mo	Score4FwrdFr6mo	12	DS2	8406	0	121	13:37:58	1812414	3	3	3	3	3	3	3	3	3	5	0	0	0	0	0	7	5
120712	13:37:58	10014	DigitSpanFwrdFr6mo	Gate7FwrdFr6mo	12	0	1	0	121	13:37:58	1812419	3	3	3	3	3	3	3	3	3	5	0	0	0	0	0	7	5
120712	13:37:58	10014	DigitSpanFwrdFr6mo	Score44FwrdFr6mo	12	DS1	5249	0	121	13:37:58	1825969	3	3	3	3	3	3	3	3	3	5	0	0	0	0	0	7	5
120712	13:37:58	10014	DigitSpanFwrdFr6mo	Gate8FwrdFr6mo	12	0	1	0	121	13:37:58	1825973	3	3	3	3	3	3	3	3	3	6	0	0	0	0	0	7	5
120712	13:37:58	10014	DigitSpanFwrdFr6mo	Score5FwrdFr6mo	12	DS2	7658	0	121	13:37:58	1843575	3	3	3	3	3	3	3	3	3	6	0	0	0	0	0	7	5
120712	13:37:58	10014	DigitSpanFwrdFr6mo	Gate9FwrdFr6mo	12	0	1	0	121	13:37:58	1843580	3	3	3	3	3	3	3	3	3	6	0	0	0	0	0	7	5
120712	13:37:58	10014	DigitSpanFwrdFr6mo	Score55FwrdFr6mo	12	DS2	11283	0	121	13:37:58	1864407	3	3	3	3	3	3	3	3	3	6	0	0	0	0	0	7	5
120712	13:37:58	10014	DigitSpanFr6mo	Score1Fr6mo	13	DS1	2767	0	121	13:37:58	1879174	3	3	3	3	3	3	3	3	3	6	0	0	0	0	0	7	5
120712	13:37:58	10014	DigitSpanFr6mo	Gate1Fr6mo	13	0	1	0	121	13:37:58	1879178	3	3	3	3	3	3	3	3	3	6	2	0	0	0	0	7	5
120712	13:37:58	10014	DigitSpanFr6mo	Score2Fr6mo	13	DS1	7945	0	121	13:37:58	1891676	3	3	3	3	3	3	3	3	3	6	2	0	0	0	0	7	5
120712	13:37:58	10014	DigitSpanFr6mo	Gate3Fr6mo	13	0	1	0	121	13:37:58	1891681	3	3	3	3	3	3	3	3	3	6	3	0	0	0	0	7	5
120712	13:37:58	10014	DigitSpanFr6mo	Score3Fr6mo	13	DS1	5801	0	121	13:37:58	1903178	3	3	3	3	3	3	3	3	3	6	3	0	0	0	0	7	5
120712	13:37:58	10014	DigitSpanFr6mo	Gate5Fr6mo	13	0	1	0	121	13:37:58	1903183	3	3	3	3	3	3	3	3	3	6	4	0	0	0	0	7	5
120712	13:37:58	10014	DigitSpanFr6mo	Score4Fr6mo	13	DS1	7259	0	121	13:37:58	1917372	3	3	3	3	3	3	3	3	3	6	4	0	0	0	0	7	5
120712	13:37:58	10014	DigitSpanFr6mo	Gate7Fr6mo	13	0	1	0	121	13:37:58	1917377	3	3	3	3	3	3	3	3	3	6	5	0	0	0	0	7	5
120712	13:37:58	10014	DigitSpanFr6mo	Score5Fr6mo	13	DS2	7116	0	121	13:37:58	1932966	3	3	3	3	3	3	3	3	3	6	5	0	0	0	0	7	5
120712	13:37:58	10014	DigitSpanFr6mo	Gate9Fr6mo	13	0	1	0	121	13:37:58	1932971	3	3	3	3	3	3	3	3	3	6	5	0	0	0	0	7	5
120712	13:37:58	10014	DigitSpanFr6mo	Score55Fr6mo	13	DS2	7711	0	121	13:37:58	1948853	3	3	3	3	3	3	3	3	3	6	5	0	0	0	0	7	5
120712	13:37:58	10014	Trial	ResponseIL	14	0	175	0	121	13:37:58	1998234	3	3	3	3	3	3	3	3	3	6	5	0	0	0	0	7	5
120712	13:37:58	10014	Trial	IncongruentLeft	14	203	330	1	121	13:37:58	1998580	3	3	3	3	3	3	3	3	3	6	5	0	0	0	0	7	5
120712	13:37:58	10014	Trial	ResponseCR	14	0	175	0	121	13:37:58	1999940	3	3	3	3	3	3	3	3	3	6	5	0	0	0	0	7	5
120712	13:37:58	10014	Trial	CongruentRight	14	0	1000	0	121	13:37:58	2000953	3	3	3	3	3	3	3	3	3	6	5	0	0	0	0	7	5
120712	13:37:58	10014	Trial	ResponseIR	14	0	175	0	121	13:37:58	2001659	3	3	3	3	3	3	3	3	3	6	5	0	0	0	0	7	5
120712	13:37:58	10014	Trial	IncongruentRight	14	203	137	0	121	13:37:58	2001819	3	3	3	3	3	3	3	3	3	6	5	0	0	0	0	7	5
120712	13:37:58	10014	Trial	ResponseCL	14	0	175	0	121	13:37:58	2003379	3	3	3	3	3	3	3	3	3	6	5	0	0	0	0	7	5
120712	13:37:58	10014	Trial	CongruentLeft	14	203	145	1	121	13:37:58	2003552	3	3	3	3	3	3	3	3	3	6	5	0	0	0	0	7	5
120712	13:37:58	10014	Trial	ResponseCR	14	0	175	0	121	13:37:58	2005085	3	3	3	3	3	3	3	3	3	6	5	0	0	0	0	7	5
120712	13:37:58	10014	Trial	CongruentRight	14	205	119	1	121	13:37:58	2005231	3	3	3	3	3	3	3	3	3	6	5	0	0	0	0	7	5
120712	13:37:58	10014	Trial	ResponseIR	14	0	175	0	121	13:37:58	2006791	3	3	3	3	3	3	3	3	3	6	5	0	0	0	0	7	5
120712	13:37:58	10014	Trial	IncongruentRight	14	0	1000	0	121	13:37:58	2007803	3	3	3	3	3	3	3	3	3	6	5	0	0	0	0	7	5
120712	13:37:58	10014	Trial	ResponseCL	14	0	175	0	121	13:37:58	2008510	3	3	3	3	3	3	3	3	3	6	5	0	0	0	0	7	5
120712	13:37:58	10014	Trial	CongruentLeft	14	203	118	1	121	13:37:58	2008657	3	3	3	3	3	3	3	3	3	6	5	0	0	0	0	7	5
120712	13:37:58	10014	Trial	ResponseIL	14	0	175	0	121	13:37:58	2010216	3	3	3	3	3	3	3	3	3	6	5	0	0	0	0	7	5
120712	13:37:58	10014	Trial	IncongruentLeft	14	0	1000	0	121	13:37:58	2011229	3	3	3	3	3	3	3	3	3	6	5	0	0	0	0	7	5
120712	13:37:58	10014	Trial	ResponseIL	14	0	175	0	121	13:37:58	2011935	3	3	3	3	3	3	3	3	3	6	5	0	0	0	0	7	5
120712	13:37:58	10014	Trial	IncongruentLeft	14	203	84	1	121	13:37:58	2012042	3	3	3	3	3	3	3	3	3	6	5	0	0	0	0	7	5
120712	13:37:58	10014	Trial	ResponseCR	14	0	175	0	121	13:37:58	2013641	3	3	3	3	3	3	3	3	3	6	5	0	0	0	0	7	5
120712	13:37:58	10014	Trial	CongruentRight	14	205	282	1	121	13:37:58	2013948	3	3	3	3	3	3	3	3	3	6	5	0	0	0	0	7	5
120712	13:37:58	10014	Trial	ResponseIR	14	0	175	0	121	13:37:58	2015347	3	3	3	3	3	3	3	3	3	6	5	0	0	0	0	7	5
120712	13:37:58	10014	Trial	IncongruentRight	14	203	128	0	121	13:37:58	2015494	3	3	3	3	3	3	3	3	3	6	5	0	0	0	0	7	5
120712	13:37:58	10014	Trial	ResponseCL	14	0	175	0	121	13:37:58	2017053	3	3	3	3	3	3	3	3	3	6	5	0	0	0	0	7	5
120712	13:37:58	10014	Trial	CongruentLeft	14	0	1000	0	121	13:37:58	2018066	3	3	3	3	3	3	3	3	3	6	5	0	0	0	0	7	5
120712	13:37:58	10014	Trial	ResponseCR	14	0	175	0	121	13:37:58	2018772	3	3	3	3	3	3	3	3	3	6	5	0	0	0	0	7	5
120712	13:37:58	10014	Trial	CongruentRight	14	205	159	1	121	13:37:58	2018959	3	3	3	3	3	3	3	3	3	6	5	0	0	0	0	7	5
120712	13:37:58	10014	Trial	ResponseIL	14	0	175	0	121	13:37:58	2020479	3	3	3	3	3	3	3	3	3	6	5	0	0	0	0	7	5
120712	13:37:58	10014	Trial	IncongruentLeft	14	203	133	1	121	13:37:58	2020638	3	3	3	3	3	3	3	3	3	6	5	0	0	0	0	7	5
120712	13:37:58	10014	Trial	ResponseIR	14	0	175	0	121	13:37:58	2022184	3	3	3	3	3	3	3	3	3	6	5	0	0	0	0	7	5
120712	13:37:58	10014	Trial	IncongruentRight	14	205	203	1	121	13:37:58	2022411	3	3	3	3	3	3	3	3	3	6	5	0	0	0	0	7	5
120712	13:37:58	10014	Trial	ResponseCR	14	0	175	0	121	13:37:58	2023890	3	3	3	3	3	3	3	3	3	6	5	0	0	0	0	7	5
120712	13:37:58	10014	Trial	CongruentRight	14	205	257	1	121	13:37:58	2024170	3	3	3	3	3	3	3	3	3	6	5	0	0	0	0	7	5
120712	13:37:58	10014	Trial	ResponseCL	14	0	175	0	121	13:37:58	2025596	3	3	3	3	3	3	3	3	3	6	5	0	0	0	0	7	5
120712	13:37:58	10014	Trial	CongruentLeft	14	203	119	1	121	13:37:58	2025743	3	3	3	3	3	3	3	3	3	6	5	0	0	0	0	7	5
120712	13:37:58	10014	Trial	ResponseCR	14	0	175	0	121	13:37:58	2027302	3	3	3	3	3	3	3	3	3	6	5	0	0	0	0	7	5
120712	13:37:58	10014	Trial	CongruentRight	14	205	93	1	121	13:37:58	2027422	3	3	3	3	3	3	3	3	3	6	5	0	0	0	0	7	5
120712	13:37:58	10014	Trial	ResponseIR	14	0	175	0	121	13:37:58	2029008	3	3	3	3	3	3	3	3	3	6	5	0	0	0	0	7	5
120712	13:37:58	10014	Trial	IncongruentRight	14	203	98	0	121	13:37:58	2029128	3	3	3	3	3	3	3	3	3	6	5	0	0	0	0	7	5
120712	13:37:58	10014	Trial	ResponseIL	14	0	175	0	121	13:37:58	2030714	3	3	3	3	3	3	3	3	3	6	5	0	0	0	0	7	5
120712	13:37:58	10014	Trial	IncongruentLeft	14	203	281	1	121	13:37:58	2031021	3	3	3	3	3	3	3	3	3	6	5	0	0	0	0	7	5
120712	13:37:58	10014	Trial	ResponseIL	14	0	175	0	121	13:37:58	2032420	3	3	3	3	3	3	3	3	3	6	5	0	0	0	0	7	5
120712	13:37:58	10014	Trial	IncongruentLeft	14	203	174	1	121	13:37:58	2032620	3	3	3	3	3	3	3	3	3	6	5	0	0	0	0	7	5
120712	13:37:58	10014	Trial	ResponseCL	14	0	175	0	121	13:37:58	2034126	3	3	3	3	3	3	3	3	3	6	5	0	0	0	0	7	5
120712	13:37:58	10014	Trial	CongruentLeft	14	0	1000	0	121	13:37:58	2035139	3	3	3	3	3	3	3	3	3	6	5	0	0	0	0	7	5
120712	13:37:58	10014	Trial	ResponseCR	14	0	175	0	121	13:37:58	2035846	3	3	3	3	3	3	3	3	3	6	5	0	0	0	0	7	5
120712	13:37:58	10014	Trial	CongruentRight	14	205	110	1	121	13:37:58	2035979	3	3	3	3	3	3	3	3	3	6	5	0	0	0	0	7	5
120712	13:37:58	10014	Trial	ResponseIL	14	0	175	0	121	13:37:58	2037552	3	3	3	3	3	3	3	3	3	6	5	0	0	0	0	7	5
120712	13:37:58	10014	Trial	IncongruentLeft	14	203	178	1	121	13:37:58	2037752	3	3	3	3	3	3	3	3	3	6	5	0	0	0	0	7	5
120712	13:37:58	10014	Trial	ResponseIR	14	0	175	0	121	13:37:58	2039258	3	3	3	3	3	3	3	3	3	6	5	0	0	0	0	7	5
120712	13:37:58	10014	Trial	IncongruentRight	14	205	57	1	121	13:37:58	2039338	3	3	3	3	3	3	3	3	3	6	5	0	0	0	0	7	5
120712	13:37:58	10014	Trial	ResponseCR	14	0	175	0	121	13:37:58	2040964	3	3	3	3	3	3	3	3	3	6	5	0	0	0	0	7	5
120712	13:37:58	10014	Trial	CongruentRight	14	205	399	1	121	13:37:58	2041390	3	3	3	3	3	3	3	3	3	6	5	0	0	0	0	7	5
120712	13:37:58	10014	Trial	ResponseCL	14	0	175	0	121	13:37:58	2042670	3	3	3	3	3	3	3	3	3	6	5	0	0	0	0	7	5
120712	13:37:58	10014	Trial	CongruentLeft	14	203	373	1	121	13:37:58	2043070	3	3	3	3	3	3	3	3	3	6	5	0	0	0	0	7	5
120712	13:37:58	10014	Trial	ResponseIR	14	0	175	0	121	13:37:58	2044376	3	3	3	3	3	3	3	3	3	6	5	0	0	0	0	7	5
120712	13:37:58	10014	Trial	IncongruentRight	14	0	1000	0	121	13:37:58	2045389	3	3	3	3	3	3	3	3	3	6	5	0	0	0	0	7	5
120712	13:37:58	10014	Trial	ResponseIL	14	0	175	0	121	13:37:58	2046095	3	3	3	3	3	3	3	3	3	6	5	0	0	0	0	7	5
120712	13:37:58	10014	Trial	IncongruentLeft	14	0	1000	0	121	13:37:58	2047108	3	3	3	3	3	3	3	3	3	6	5	0	0	0	0	7	5
120712	13:37:58	10014	Trial	ResponseIR	14	0	175	0	121	13:37:58	2047814	3	3	3	3	3	3	3	3	3	6	5	0	0	0	0	7	5
120712	13:37:58	10014	Trial	IncongruentRight	14	205	301	1	121	13:37:58	2048134	3	3	3	3	3	3	3	3	3	6	5	0	0	0	0	7	5
120712	13:37:58	10014	Trial	ResponseCR	14	0	175	0	121	13:37:58	2049520	3	3	3	3	3	3	3	3	3	6	5	0	0	0	0	7	5
120712	13:37:58	10014	Trial	CongruentRight	14	205	258	1	121	13:37:58	2049800	3	3	3	3	3	3	3	3	3	6	5	0	0	0	0	7	5
120712	13:37:58	10014	Trial	ResponseIL	14	0	175	0	121	13:37:58	2051226	3	3	3	3	3	3	3	3	3	6	5	0	0	0	0	7	5
120712	13:37:58	10014	Trial	IncongruentLeft	14	203	153	1	121	13:37:58	2051400	3	3	3	3	3	3	3	3	3	6	5	0	0	0	0	7	5
120712	13:37:58	10014	Trial	ResponseCL	14	0	175	0	121	13:37:58	2052932	3	3	3	3	3	3	3	3	3	6	5	0	0	0	0	7	5
120712	13:37:58	10014	Trial	CongruentLeft	14	203	398	1	121	13:37:58	2053359	3	3	3	3	3	3	3	3	3	6	5	0	0	0	0	7	5
120712	13:37:58	10014	Trial	ResponseCR	14	0	175	0	121	13:37:58	2054639	3	3	3	3	3	3	3	3	3	6	5	0	0	0	0	7	5
120712	13:37:58	10014	Trial	CongruentRight	14	205	292	1	121	13:37:58	2054958	3	3	3	3	3	3	3	3	3	6	5	0	0	0	0	7	5
120712	13:37:58	10014	Trial	ResponseIL	14	0	175	0	121	13:37:58	2056344	3	3	3	3	3	3	3	3	3	6	5	0	0	0	0	7	5
120712	13:37:58	10014	Trial	IncongruentLeft	14	203	219	1	121	13:37:58	2056584	3	3	3	3	3	3	3	3	3	6	5	0	0	0	0	7	5
120712	13:37:58	10014	Trial	ResponseIR	14	0	175	0	121	13:37:58	2058050	3	3	3	3	3	3	3	3	3	6	5	0	0	0	0	7	5
120712	13:37:58	10014	Trial	IncongruentRight	14	203	112	0	121	13:37:58	2058184	3	3	3	3	3	3	3	3	3	6	5	0	0	0	0	7	5
120712	13:37:58	10014	Trial	ResponseIR	14	0	175	0	121	13:37:58	2059756	3	3	3	3	3	3	3	3	3	6	5	0	0	0	0	7	5
120712	13:37:58	10014	Trial	IncongruentRight	14	203	119	0	121	13:37:58	2059903	3	3	3	3	3	3	3	3	3	6	5	0	0	0	0	7	5
120712	13:37:58	10014	Trial	ResponseCL	14	0	175	0	121	13:37:58	2061462	3	3	3	3	3	3	3	3	3	6	5	0	0	0	0	7	5
120712	13:37:58	10014	Trial	CongruentLeft	14	203	156	1	121	13:37:58	2061635	3	3	3	3	3	3	3	3	3	6	5	0	0	0	0	7	5
120712	13:37:58	10014	Trial	ResponseIL	14	0	175	0	121	13:37:58	2063168	3	3	3	3	3	3	3	3	3	6	5	0	0	0	0	7	5
120712	13:37:58	10014	Trial	IncongruentLeft	14	203	98	1	121	13:37:58	2063288	3	3	3	3	3	3	3	3	3	6	5	0	0	0	0	7	5
120712	13:37:58	10014	Trial	ResponseCR	14	0	175	0	121	13:37:58	2064874	3	3	3	3	3	3	3	3	3	6	5	0	0	0	0	7	5
120712	13:37:58	10014	Trial	CongruentRight	14	205	184	1	121	13:37:58	2065087	3	3	3	3	3	3	3	3	3	6	5	0	0	0	0	7	5
120712	13:37:58	10014	Trial	ResponseCL	14	0	175	0	121	13:37:58	2066580	3	3	3	3	3	3	3	3	3	6	5	0	0	0	0	7	5
120712	13:37:58	10014	Trial	CongruentLeft	14	203	126	1	121	13:37:58	2066727	3	3	3	3	3	3	3	3	3	6	5	0	0	0	0	7	5
120712	13:37:58	10014	Trial	ResponseIR	14	0	175	0	121	13:37:58	2068286	3	3	3	3	3	3	3	3	3	6	5	0	0	0	0	7	5
120712	13:37:58	10014	Trial	IncongruentRight	14	203	100	0	121	13:37:58	2068406	3	3	3	3	3	3	3	3	3	6	5	0	0	0	0	7	5
120712	13:37:58	10014	Trial	ResponseCR	14	0	175	0	121	13:37:58	2069992	3	3	3	3	3	3	3	3	3	6	5	0	0	0	0	7	5
120712	13:37:58	10014	Trial	CongruentRight	14	205	202	1	121	13:37:58	2070219	3	3	3	3	3	3	3	3	3	6	5	0	0	0	0	7	5
120712	13:37:58	10014	Trial	ResponseIL	14	0	175	0	121	13:37:58	2071699	3	3	3	3	3	3	3	3	3	6	5	0	0	0	0	7	5
120712	13:37:58	10014	Trial	IncongruentLeft	14	203	160	1	121	13:37:58	2071885	3	3	3	3	3	3	3	3	3	6	5	0	0	0	0	7	5
120712	13:37:58	10014	Trial	ResponseCL	14	0	175	0	121	13:37:58	2073404	3	3	3	3	3	3	3	3	3	6	5	0	0	0	0	7	5
120712	13:37:58	10014	Trial	CongruentLeft	14	203	118	1	121	13:37:58	2073551	3	3	3	3	3	3	3	3	3	6	5	0	0	0	0	7	5
120712	13:37:58	10014	Trial	ResponseIL	14	0	175	0	121	13:37:58	2075110	3	3	3	3	3	3	3	3	3	6	5	0	0	0	0	7	5
120712	13:37:58	10014	Trial	IncongruentLeft	14	203	300	1	121	13:37:58	2075430	3	3	3	3	3	3	3	3	3	6	5	0	0	0	0	7	5
120712	13:37:58	10014	Trial	ResponseIR	14	0	175	0	121	13:37:58	2076816	3	3	3	3	3	3	3	3	3	6	5	0	0	0	0	7	5
120712	13:37:58	10014	Trial	IncongruentRight	14	203	114	0	121	13:37:58	2076950	3	3	3	3	3	3	3	3	3	6	5	0	0	0	0	7	5
120712	13:37:58	10014	Trial	ResponseCR	14	0	175	0	121	13:37:58	2078522	3	3	3	3	3	3	3	3	3	6	5	0	0	0	0	7	5
120712	13:37:58	10014	Trial	CongruentRight	14	205	219	1	121	13:37:58	2078762	3	3	3	3	3	3	3	3	3	6	5	0	0	0	0	7	5
120712	13:37:58	10014	Trial	ResponseCL	14	0	175	0	121	13:37:58	2080228	3	3	3	3	3	3	3	3	3	6	5	0	0	0	0	7	5
120712	13:37:58	10014	Trial	CongruentLeft	14	203	206	1	121	13:37:58	2080455	3	3	3	3	3	3	3	3	3	6	5	0	0	0	0	7	5
120712	13:37:58	10014	Trial	ResponseCL	14	0	175	0	121	13:37:58	2081934	3	3	3	3	3	3	3	3	3	6	5	0	0	0	0	7	5
120712	13:37:58	10014	Trial	CongruentLeft	14	203	132	1	121	13:37:58	2082094	3	3	3	3	3	3	3	3	3	6	5	0	0	0	0	7	5
120712	13:37:58	10014	Trial	ResponseIR	14	0	175	0	121	13:37:58	2083640	3	3	3	3	3	3	3	3	3	6	5	0	0	0	0	7	5
120712	13:37:58	10014	Trial	IncongruentRight	14	205	330	1	121	13:37:58	2083987	3	3	3	3	3	3	3	3	3	6	5	0	0	0	0	7	5
120712	13:37:58	10014	Trial	ResponseIL	14	0	175	0	121	13:37:58	2085346	3	3	3	3	3	3	3	3	3	6	5	0	0	0	0	7	5
120712	13:37:58	10014	Trial	IncongruentLeft	14	203	256	1	121	13:37:58	2085626	3	3	3	3	3	3	3	3	3	6	5	0	0	0	0	7	5
120712	13:37:58	10014	Trial	ResponseIR	14	0	175	0	121	13:37:58	2087052	3	3	3	3	3	3	3	3	3	6	5	0	0	0	0	7	5
120712	13:37:58	10014	Trial	IncongruentRight	14	205	246	1	121	13:37:58	2087319	3	3	3	3	3	3	3	3	3	6	5	0	0	0	0	7	5
120712	13:37:58	10014	Trial	ResponseCR	14	0	175	0	121	13:37:58	2088758	3	3	3	3	3	3	3	3	3	6	5	0	0	0	0	7	5
120712	13:37:58	10014	Trial	CongruentRight	14	205	156	1	121	13:37:58	2088932	3	3	3	3	3	3	3	3	3	6	5	0	0	0	0	7	5
120712	13:37:58	10014	Trial	ResponseCR	14	0	175	0	121	13:37:58	2090464	3	3	3	3	3	3	3	3	3	6	5	0	0	0	0	7	5
120712	13:37:58	10014	Trial	CongruentRight	14	205	178	1	121	13:37:58	2090664	3	3	3	3	3	3	3	3	3	6	5	0	0	0	0	7	5
120712	13:37:58	10014	Trial	ResponseIL	14	0	175	0	121	13:37:58	2092170	3	3	3	3	3	3	3	3	3	6	5	0	0	0	0	7	5
120712	13:37:58	10014	Trial	IncongruentLeft	14	203	216	1	121	13:37:58	2092410	3	3	3	3	3	3	3	3	3	6	5	0	0	0	0	7	5
120712	13:37:58	10014	Trial	ResponseCL	14	0	175	0	121	13:37:58	2093876	3	3	3	3	3	3	3	3	3	6	5	0	0	0	0	7	5
120712	13:37:58	10014	Trial	CongruentLeft	14	203	174	1	121	13:37:58	2094076	3	3	3	3	3	3	3	3	3	6	5	0	0	0	0	7	5
120712	13:37:58	10014	Trial	ResponseCR	14	0	175	0	121	13:37:58	2095582	3	3	3	3	3	3	3	3	3	6	5	0	0	0	0	7	5
120712	13:37:58	10014	Trial	CongruentRight	14	205	244	1	121	13:37:58	2095849	3	3	3	3	3	3	3	3	3	6	5	0	0	0	0	7	5
120712	13:37:58	10014	Trial	ResponseCL	14	0	175	0	121	13:37:58	2097288	3	3	3	3	3	3	3	3	3	6	5	0	0	0	0	7	5
120712	13:37:58	10014	Trial	CongruentLeft	14	203	138	1	121	13:37:58	2097448	3	3	3	3	3	3	3	3	3	6	5	0	0	0	0	7	5
120712	13:37:58	10014	Trial	ResponseIR	14	0	175	0	121	13:37:58	2098994	3	3	3	3	3	3	3	3	3	6	5	0	0	0	0	7	5
120712	13:37:58	10014	Trial	IncongruentRight	14	203	144	0	121	13:37:58	2099168	3	3	3	3	3	3	3	3	3	6	5	0	0	0	0	7	5
120712	13:37:58	10014	Trial	ResponseCR	14	0	175	0	121	13:37:58	2100700	3	3	3	3	3	3	3	3	3	6	5	0	0	0	0	7	5
120712	13:37:58	10014	Trial	CongruentRight	14	205	229	1	121	13:37:58	2100953	3	3	3	3	3	3	3	3	3	6	5	0	0	0	0	7	5
120712	13:37:58	10014	Trial	ResponseCL	14	0	175	0	121	13:37:58	2102406	3	3	3	3	3	3	3	3	3	6	5	0	0	0	0	7	5
120712	13:37:58	10014	Trial	CongruentLeft	14	203	204	1	121	13:37:58	2102633	3	3	3	3	3	3	3	3	3	6	5	0	0	0	0	7	5
120712	13:37:58	10014	Trial	ResponseIL	14	0	175	0	121	13:37:58	2104112	3	3	3	3	3	3	3	3	3	6	5	0	0	0	0	7	5
120712	13:37:58	10014	Trial	IncongruentLeft	14	205	226	0	121	13:37:58	2104366	3	3	3	3	3	3	3	3	3	6	5	0	0	0	0	7	5
120712	13:37:58	10014	Trial	ResponseIL	14	0	175	0	121	13:37:58	2105818	3	3	3	3	3	3	3	3	3	6	5	0	0	0	0	7	5
120712	13:37:58	10014	Trial	IncongruentLeft	14	203	312	1	121	13:37:58	2106151	3	3	3	3	3	3	3	3	3	6	5	0	0	0	0	7	5
120712	13:37:58	10014	Trial	ResponseCR	14	0	175	0	121	13:37:58	2107524	3	3	3	3	3	3	3	3	3	6	5	0	0	0	0	7	5
120712	13:37:58	10014	Trial	CongruentRight	14	205	190	1	121	13:37:58	2107738	3	3	3	3	3	3	3	3	3	6	5	0	0	0	0	7	5
120712	13:37:58	10014	Trial	ResponseIR	14	0	175	0	121	13:37:58	2109230	3	3	3	3	3	3	3	3	3	6	5	0	0	0	0	7	5
120712	13:37:58	10014	Trial	IncongruentRight	14	205	388	1	121	13:37:58	2109643	3	3	3	3	3	3	3	3	3	6	5	0	0	0	0	7	5
120712	13:37:58	10014	Trial	ResponseCL	14	0	175	0	121	13:37:58	2110936	3	3	3	3	3	3	3	3	3	6	5	0	0	0	0	7	5
120712	13:37:58	10014	Trial	CongruentLeft	14	203	202	1	121	13:37:58	2111163	3	3	3	3	3	3	3	3	3	6	5	0	0	0	0	7	5
120712	13:37:58	10014	Trial	ResponseIR	14	0	175	0	121	13:37:58	2112642	3	3	3	3	3	3	3	3	3	6	5	0	0	0	0	7	5
120712	13:37:58	10014	Trial	IncongruentRight	14	205	272	1	121	13:37:58	2112935	3	3	3	3	3	3	3	3	3	6	5	0	0	0	0	7	5
120712	13:37:58	10014	Trial	ResponseCR	14	0	175	0	121	13:37:58	2114348	3	3	3	3	3	3	3	3	3	6	5	0	0	0	0	7	5
120712	13:37:58	10014	Trial	CongruentRight	14	205	182	1	121	13:37:58	2114548	3	3	3	3	3	3	3	3	3	6	5	0	0	0	0	7	5
120712	13:37:58	10014	Trial	ResponseIL	14	0	175	0	121	13:37:58	2116054	3	3	3	3	3	3	3	3	3	6	5	0	0	0	0	7	5
120712	13:37:58	10014	Trial	IncongruentLeft	14	205	124	0	121	13:37:58	2116201	3	3	3	3	3	3	3	3	3	6	5	0	0	0	0	7	5
120712	13:37:58	10014	Trial	ResponseCL	14	0	175	0	121	13:37:58	2117760	3	3	3	3	3	3	3	3	3	6	5	0	0	0	0	7	5
120712	13:37:58	10014	Trial	CongruentLeft	14	203	162	1	121	13:37:58	2117947	3	3	3	3	3	3	3	3	3	6	5	0	0	0	0	7	5
120712	13:37:58	10014	Trial	ResponseCR	14	0	175	0	121	13:37:58	2119466	3	3	3	3	3	3	3	3	3	6	5	0	0	0	0	7	5
120712	13:37:58	10014	Trial	CongruentRight	14	205	295	1	121	13:37:58	2119786	3	3	3	3	3	3	3	3	3	6	5	0	0	0	0	7	5
120712	13:37:58	10014	Trial	ResponseIL	14	0	175	0	121	13:37:58	2121172	3	3	3	3	3	3	3	3	3	6	5	0	0	0	0	7	5
120712	13:37:58	10014	Trial	IncongruentLeft	14	203	206	1	121	13:37:58	2121399	3	3	3	3	3	3	3	3	3	6	5	0	0	0	0	7	5
120712	13:37:58	10014	Trial	ResponseCR	14	0	175	0	121	13:37:58	2122878	3	3	3	3	3	3	3	3	3	6	5	0	0	0	0	7	5
120712	13:37:58	10014	Trial	CongruentRight	14	205	228	1	121	13:37:58	2123131	3	3	3	3	3	3	3	3	3	6	5	0	0	0	0	7	5
120712	13:37:58	10014	Trial	ResponseCR	14	0	175	0	121	13:37:58	2124584	3	3	3	3	3	3	3	3	3	6	5	0	0	0	0	7	5
120712	13:37:58	10014	Trial	CongruentRight	14	205	202	1	121	13:37:58	2124811	3	3	3	3	3	3	3	3	3	6	5	0	0	0	0	7	5
120712	13:37:58	10014	Trial	ResponseIR	14	0	175	0	121	13:37:58	2126304	3	3	3	3	3	3	3	3	3	6	5	0	0	0	0	7	5
120712	13:37:58	10014	Trial	IncongruentRight	14	205	230	1	121	13:37:58	2126570	3	3	3	3	3	3	3	3	3	6	5	0	0	0	0	7	5
120712	13:37:58	10014	Trial	ResponseCL	14	0	175	0	121	13:37:58	2128010	3	3	3	3	3	3	3	3	3	6	5	0	0	0	0	7	5
120712	13:37:58	10014	Trial	CongruentLeft	14	203	172	1	121	13:37:58	2128223	3	3	3	3	3	3	3	3	3	6	5	0	0	0	0	7	5
120712	13:37:58	10014	Trial	ResponseIL	14	0	175	0	121	13:37:58	2129729	3	3	3	3	3	3	3	3	3	6	5	0	0	0	0	7	5
120712	13:37:58	10014	Trial	IncongruentLeft	14	203	293	1	121	13:37:58	2130075	3	3	3	3	3	3	3	3	3	6	5	0	0	0	0	7	5
120712	13:37:58	10014	Trial	ResponseCL	14	0	175	0	121	13:37:58	2131448	3	3	3	3	3	3	3	3	3	6	5	0	0	0	0	7	5
120712	13:37:58	10014	Trial	CongruentLeft	14	203	157	1	121	13:37:58	2131661	3	3	3	3	3	3	3	3	3	6	5	0	0	0	0	7	5
120712	13:37:58	10014	Trial	ResponseIR	14	0	175	0	121	13:37:58	2133181	3	3	3	3	3	3	3	3	3	6	5	0	0	0	0	7	5
120712	13:37:58	10014	Trial	IncongruentRight	14	205	342	1	121	13:37:58	2133541	3	3	3	3	3	3	3	3	3	6	5	0	0	0	0	7	5
120712	13:37:58	10014	Trial	ResponseIL	14	0	175	0	121	13:37:58	2134914	3	3	3	3	3	3	3	3	3	6	5	0	0	0	0	7	5
120712	13:37:58	10014	Trial	IncongruentLeft	14	203	273	1	121	13:37:58	2135207	3	3	3	3	3	3	3	3	3	6	5	0	0	0	0	7	5
120712	13:37:58	10014	Trial	ResponseCR	14	0	175	0	121	13:37:58	2136620	3	3	3	3	3	3	3	3	3	6	5	0	0	0	0	7	5
120712	13:37:58	10014	Trial	CongruentRight	14	205	73	1	121	13:37:58	2136726	3	3	3	3	3	3	3	3	3	6	5	0	0	0	0	7	5
120712	13:37:58	10014	Trial	ResponseCL	14	0	175	0	121	13:37:58	2138326	3	3	3	3	3	3	3	3	3	6	5	0	0	0	0	7	5
120712	13:37:58	10014	Trial	CongruentLeft	14	203	192	1	121	13:37:58	2138552	3	3	3	3	3	3	3	3	3	6	5	0	0	0	0	7	5
120712	13:37:58	10014	Trial	ResponseIL	14	0	175	0	121	13:37:58	2140045	3	3	3	3	3	3	3	3	3	6	5	0	0	0	0	7	5
120712	13:37:58	10014	Trial	IncongruentLeft	14	205	88	0	121	13:37:58	2140165	3	3	3	3	3	3	3	3	3	6	5	0	0	0	0	7	5
120712	13:37:58	10014	Trial	ResponseCL	14	0	175	0	121	13:37:58	2141751	3	3	3	3	3	3	3	3	3	6	5	0	0	0	0	7	5
120712	13:37:58	10014	Trial	CongruentLeft	14	203	78	1	121	13:37:58	2141871	3	3	3	3	3	3	3	3	3	6	5	0	0	0	0	7	5
120712	13:37:58	10014	Trial	ResponseIR	14	0	175	0	121	13:37:58	2143457	3	3	3	3	3	3	3	3	3	6	5	0	0	0	0	7	5
120712	13:37:58	10014	Trial	IncongruentRight	14	205	180	1	121	13:37:58	2143670	3	3	3	3	3	3	3	3	3	6	5	0	0	0	0	7	5
120712	13:37:58	10014	Trial	ResponseCR	14	0	175	0	121	13:37:58	2145163	3	3	3	3	3	3	3	3	3	6	5	0	0	0	0	7	5
120712	13:37:58	10014	Trial	CongruentRight	14	205	250	1	121	13:37:58	2145443	3	3	3	3	3	3	3	3	3	6	5	0	0	0	0	7	5
120712	13:37:58	10014	Trial	ResponseIL	14	0	175	0	121	13:37:58	2146896	3	3	3	3	3	3	3	3	3	6	5	0	0	0	0	7	5
120712	13:37:58	10014	Trial	IncongruentLeft	14	203	213	1	121	13:37:58	2147149	3	3	3	3	3	3	3	3	3	6	5	0	0	0	0	7	5
120712	13:37:58	10014	Trial	ResponseCL	14	0	175	0	121	13:37:58	2148628	3	3	3	3	3	3	3	3	3	6	5	0	0	0	0	7	5
120712	13:37:58	10014	Trial	CongruentLeft	14	203	135	1	121	13:37:58	2148815	3	3	3	3	3	3	3	3	3	6	5	0	0	0	0	7	5
120712	13:37:58	10014	Trial	ResponseIR	14	0	175	0	121	13:37:58	2150334	3	3	3	3	3	3	3	3	3	6	5	0	0	0	0	7	5
120712	13:37:58	10014	Trial	IncongruentRight	14	205	249	1	121	13:37:58	2150627	3	3	3	3	3	3	3	3	3	6	5	0	0	0	0	7	5
120712	13:37:58	10014	Trial	ResponseIL	14	0	175	0	121	13:37:58	2152040	3	3	3	3	3	3	3	3	3	6	5	0	0	0	0	7	5
120712	13:37:58	10014	Trial	IncongruentLeft	14	203	389	1	121	13:37:58	2152467	3	3	3	3	3	3	3	3	3	6	5	0	0	0	0	7	5
120712	13:37:58	10014	Trial	ResponseCL	14	0	175	0	121	13:37:58	2153746	3	3	3	3	3	3	3	3	3	6	5	0	0	0	0	7	5
120712	13:37:58	10014	Trial	CongruentLeft	14	203	230	1	121	13:37:58	2154026	3	3	3	3	3	3	3	3	3	6	5	0	0	0	0	7	5
120712	13:37:58	10014	Trial	ResponseIL	14	0	175	0	121	13:37:58	2155452	3	3	3	3	3	3	3	3	3	6	5	0	0	0	0	7	5
120712	13:37:58	10014	Trial	IncongruentLeft	14	203	152	1	121	13:37:58	2155652	3	3	3	3	3	3	3	3	3	6	5	0	0	0	0	7	5
120712	13:37:58	10014	Trial	ResponseCR	14	0	175	0	121	13:37:58	2157158	3	3	3	3	3	3	3	3	3	6	5	0	0	0	0	7	5
120712	13:37:58	10014	Trial	CongruentRight	14	205	131	1	121	13:37:58	2157332	3	3	3	3	3	3	3	3	3	6	5	0	0	0	0	7	5
120712	13:37:58	10014	Trial	ResponseCL	14	0	175	0	121	13:37:58	2158864	3	3	3	3	3	3	3	3	3	6	5	0	0	0	0	7	5
120712	13:37:58	10014	Trial	CongruentLeft	14	203	141	1	121	13:37:58	2159051	3	3	3	3	3	3	3	3	3	6	5	0	0	0	0	7	5
120712	13:37:58	10014	Trial	ResponseIR	14	0	175	0	121	13:37:58	2160570	3	3	3	3	3	3	3	3	3	6	5	0	0	0	0	7	5
120712	13:37:58	10014	Trial	IncongruentRight	14	203	63	0	121	13:37:58	2160677	3	3	3	3	3	3	3	3	3	6	5	0	0	0	0	7	5
120712	13:37:58	10014	Trial	ResponseCL	14	0	175	0	121	13:37:58	2162276	3	3	3	3	3	3	3	3	3	6	5	0	0	0	0	7	5
120712	13:37:58	10014	Trial	CongruentLeft	14	203	101	1	121	13:37:58	2162423	3	3	3	3	3	3	3	3	3	6	5	0	0	0	0	7	5
120712	13:37:58	10014	Trial	ResponseCR	14	0	175	0	121	13:37:58	2163982	3	3	3	3	3	3	3	3	3	6	5	0	0	0	0	7	5
120712	13:37:58	10014	Trial	CongruentRight	14	205	190	1	121	13:37:58	2164222	3	3	3	3	3	3	3	3	3	6	5	0	0	0	0	7	5
120712	13:37:58	10014	Trial	ResponseIL	14	0	175	0	121	13:37:58	2165688	3	3	3	3	3	3	3	3	3	6	5	0	0	0	0	7	5
120712	13:37:58	10014	Trial	IncongruentLeft	14	203	126	1	121	13:37:58	2165861	3	3	3	3	3	3	3	3	3	6	5	0	0	0	0	7	5
120712	13:37:58	10014	WordsAbsFr6mo	PAbsFr6mo1	16	Abs1	4708	0	121	13:37:58	2177470	3	3	3	3	3	3	3	3	3	6	5	0	0	0	0	7	5
120712	13:37:58	10014	WordsAbsFr6mo	AbsFr6mo1	16	Abs1	2545	0	121	13:37:58	2180082	3	3	3	3	3	3	3	3	3	6	5	1	0	0	0	7	5
120712	13:37:58	10014	WordsAbsFr6mo	AbsFr6mo2	16	Abs1	20383	0	121	13:37:58	2200501	3	3	3	3	3	3	3	3	3	6	5	2	0	0	0	7	5
120712	13:37:58	10014	WordsAbsFr6mo	AbsFr6mo3	16	Abs1	18924	0	121	13:37:58	2219467	3	3	3	3	3	3	3	3	3	6	5	3	0	0	0	7	5
120712	13:37:58	10014	Trial2BackFrS	NS	17	0	1000	1	121	13:37:58	2258078	3	3	3	3	3	3	3	3	3	6	5	3	0	0	0	7	5
120712	13:37:58	10014	Trial2BackFrS	NS	17	0	1000	1	121	13:37:58	2259598	3	3	3	3	3	3	3	3	3	6	5	3	0	0	0	7	5
120712	13:37:58	10014	Trial2BackFrS	NS	17	0	1000	1	121	13:37:58	2261104	3	3	3	3	3	3	3	3	3	6	5	3	0	0	0	7	5
120712	13:37:58	10014	Trial2BackFrS	YS	17	57	533	1	121	13:37:58	2262157	3	3	3	3	3	3	3	3	3	6	5	3	0	0	0	7	5
120712	13:37:58	10014	Trial2BackFrS	NS	17	0	1000	1	121	13:37:58	2264116	3	3	3	3	3	3	3	3	3	6	5	3	0	0	0	7	5
120712	13:37:58	10014	Trial2BackFrS	NS	17	0	1000	1	121	13:37:58	2265622	3	3	3	3	3	3	3	3	3	6	5	3	0	0	0	7	5
120712	13:37:58	10014	Trial2BackFrS	NS	17	0	1000	1	121	13:37:58	2267128	3	3	3	3	3	3	3	3	3	6	5	3	0	0	0	7	5
120712	13:37:58	10014	Trial2BackFrS	NS	17	0	1000	1	121	13:37:58	2268634	3	3	3	3	3	3	3	3	3	6	5	3	0	0	0	7	5
120712	13:37:58	10014	Trial2BackFrS	YS	17	57	490	1	121	13:37:58	2269634	3	3	3	3	3	3	3	3	3	6	5	3	0	0	0	7	5
120712	13:37:58	10014	Trial2BackFrS	NS	17	0	1000	1	121	13:37:58	2271646	3	3	3	3	3	3	3	3	3	6	5	3	0	0	0	7	5
120712	13:37:58	10014	Trial2BackFrS	NS	17	0	1000	1	121	13:37:58	2273153	3	3	3	3	3	3	3	3	3	6	5	3	0	0	0	7	5
120712	13:37:58	10014	Trial2BackFrS	YS	17	0	1000	0	121	13:37:58	2274659	3	3	3	3	3	3	3	3	3	6	5	3	0	0	0	7	5
120712	13:37:58	10014	Trial2BackFrS	NS	17	0	1000	1	121	13:37:58	2276164	3	3	3	3	3	3	3	3	3	6	5	3	0	0	0	7	5
120712	13:37:58	10014	Trial2BackFrS	NS	17	0	1000	1	121	13:37:58	2277671	3	3	3	3	3	3	3	3	3	6	5	3	0	0	0	7	5
120712	13:37:58	10014	Trial2BackFrS	NS	17	0	1000	1	121	13:37:58	2279177	3	3	3	3	3	3	3	3	3	6	5	3	0	0	0	7	5
120712	13:37:58	10014	Trial2BackFrS	YS	17	57	428	1	121	13:37:58	2280123	3	3	3	3	3	3	3	3	3	6	5	3	0	0	0	7	5
120712	13:37:58	10014	Trial2BackFrS	NS	17	0	1000	1	121	13:37:58	2282189	3	3	3	3	3	3	3	3	3	6	5	3	0	0	0	7	5
120712	13:37:58	10014	Trial2BackFrS	NS	17	0	1000	1	121	13:37:58	2283695	3	3	3	3	3	3	3	3	3	6	5	3	0	0	0	7	5
120712	13:37:58	10014	Trial2BackFrS	NS	17	0	1000	1	121	13:37:58	2285201	3	3	3	3	3	3	3	3	3	6	5	3	0	0	0	7	5
120712	13:37:58	10014	Trial2BackFrS	NS	17	0	1000	1	121	13:37:58	2286707	3	3	3	3	3	3	3	3	3	6	5	3	0	0	0	7	5
120712	13:37:58	10014	Trial2BackFrS	YS	17	57	353	1	121	13:37:58	2287573	3	3	3	3	3	3	3	3	3	6	5	3	0	0	0	7	5
120712	13:37:58	10014	Trial2BackFrS	NS	17	0	1000	1	121	13:37:58	2289719	3	3	3	3	3	3	3	3	3	6	5	3	0	0	0	7	5
120712	13:37:58	10014	Trial2BackFrS	NS	17	0	1000	1	121	13:37:58	2291225	3	3	3	3	3	3	3	3	3	6	5	3	0	0	0	7	5
120712	13:37:58	10014	Trial2BackFrS	NS	17	0	1000	1	121	13:37:58	2292731	3	3	3	3	3	3	3	3	3	6	5	3	0	0	0	7	5
120712	13:37:58	10014	Trial2BackFrS	NS	17	57	777	0	121	13:37:58	2294024	3	3	3	3	3	3	3	3	3	6	5	3	0	0	0	7	5
120712	13:37:58	10014	Trial2BackFrS	NS	17	0	1000	1	121	13:37:58	2295744	3	3	3	3	3	3	3	3	3	6	5	3	0	0	0	7	5
120712	13:37:58	10014	Trial2BackFrS	NS	17	0	1000	1	121	13:37:58	2297250	3	3	3	3	3	3	3	3	3	6	5	3	0	0	0	7	5
120712	13:37:58	10014	Trial2BackFrS	NS	17	0	1000	1	121	13:37:58	2298756	3	3	3	3	3	3	3	3	3	6	5	3	0	0	0	7	5
120712	13:37:58	10014	Trial2BackFrS	NS	17	0	1000	1	121	13:37:58	2300262	3	3	3	3	3	3	3	3	3	6	5	3	0	0	0	7	5
120712	13:37:58	10014	Trial2BackFrS	NS	17	0	1000	1	121	13:37:58	2301768	3	3	3	3	3	3	3	3	3	6	5	3	0	0	0	7	5
120712	13:37:58	10014	Trial2BackFrS	NS	17	0	1000	1	121	13:37:58	2303287	3	3	3	3	3	3	3	3	3	6	5	3	0	0	0	7	5
120712	13:37:58	10014	Trial2BackFrS	YS	17	57	493	1	121	13:37:58	2304300	3	3	3	3	3	3	3	3	3	6	5	3	0	0	0	7	5
120712	13:37:58	10014	Trial2BackFrS	NS	17	0	1000	1	121	13:37:58	2306300	3	3	3	3	3	3	3	3	3	6	5	3	0	0	0	7	5
120712	13:37:58	10014	Trial2BackFrS	NS	17	0	1000	1	121	13:37:58	2307805	3	3	3	3	3	3	3	3	3	6	5	3	0	0	0	7	5
120712	13:37:58	10014	Trial2BackFrS	NS	17	0	1000	1	121	13:37:58	2309325	3	3	3	3	3	3	3	3	3	6	5	3	0	0	0	7	5
120712	13:37:58	10014	Trial2BackFrS	YS	17	57	615	1	121	13:37:58	2310458	3	3	3	3	3	3	3	3	3	6	5	3	0	0	0	7	5
120712	13:37:58	10014	Trial2BackFrS	NS	17	0	1000	1	121	13:37:58	2312337	3	3	3	3	3	3	3	3	3	6	5	3	0	0	0	7	5
120712	13:37:58	10014	Trial2BackFrS	NS	17	0	1000	1	121	13:37:58	2313843	3	3	3	3	3	3	3	3	3	6	5	3	0	0	0	7	5
120712	13:37:58	10014	Trial2BackFrS	NS	17	0	1000	1	121	13:37:58	2315349	3	3	3	3	3	3	3	3	3	6	5	3	0	0	0	7	5
120712	13:37:58	10014	Trial2BackFrS	NS	17	0	1000	1	121	13:37:58	2316855	3	3	3	3	3	3	3	3	3	6	5	3	0	0	0	7	5
120712	13:37:58	10014	Trial2BackFrS	NS	17	0	1000	1	121	13:37:58	2318361	3	3	3	3	3	3	3	3	3	6	5	3	0	0	0	7	5
120712	13:37:58	10014	Trial2BackFrS	NS	17	0	1000	1	121	13:37:58	2319867	3	3	3	3	3	3	3	3	3	6	5	3	0	0	0	7	5
120712	13:37:58	10014	Trial2BackFrS	NS	17	57	456	0	121	13:37:58	2320840	3	3	3	3	3	3	3	3	3	6	5	3	0	0	0	7	5
120712	13:37:58	10014	Trial2BackFrS	YS	17	0	1000	0	121	13:37:58	2322879	3	3	3	3	3	3	3	3	3	6	5	3	0	0	0	7	5
120712	13:37:58	10014	Trial2BackFrS	NS	17	0	1000	1	121	13:37:58	2324386	3	3	3	3	3	3	3	3	3	6	5	3	0	0	0	7	5
120712	13:37:58	10014	Trial2BackFrS	NS	17	0	1000	1	121	13:37:58	2325892	3	3	3	3	3	3	3	3	3	6	5	3	0	0	0	7	5
120712	13:37:58	10014	Trial2BackFrS	NS	17	0	1000	1	121	13:37:58	2327398	3	3	3	3	3	3	3	3	3	6	5	3	0	0	0	7	5
120712	13:37:58	10014	Trial2BackFrS	NS	17	0	1000	1	121	13:37:58	2328904	3	3	3	3	3	3	3	3	3	6	5	3	0	0	0	7	5
120712	13:37:58	10014	Trial2BackFrS	YS	17	57	348	1	121	13:37:58	2329770	3	3	3	3	3	3	3	3	3	6	5	3	0	0	0	7	5
120712	13:37:58	10014	Trial2BackFrS	NS	17	0	1000	1	121	13:37:58	2331916	3	3	3	3	3	3	3	3	3	6	5	3	0	0	0	7	5
120712	13:37:58	10014	Trial2BackFrS	NS	17	0	1000	1	121	13:37:58	2333422	3	3	3	3	3	3	3	3	3	6	5	3	0	0	0	7	5
120712	13:37:58	10014	Trial2BackFrS	NS	17	0	1000	1	121	13:37:58	2334928	3	3	3	3	3	3	3	3	3	6	5	3	0	0	0	7	5
120712	13:37:58	10014	Trial2BackFrS	NS	17	0	1000	1	121	13:37:58	2336434	3	3	3	3	3	3	3	3	3	6	5	3	0	0	0	7	5
120712	13:37:58	10014	Trial2BackFrS	NS	17	0	1000	1	121	13:37:58	2337940	3	3	3	3	3	3	3	3	3	6	5	3	0	0	0	7	5
120712	13:37:58	10014	Trial2BackFrS	NS	17	0	1000	1	121	13:37:58	2339446	3	3	3	3	3	3	3	3	3	6	5	3	0	0	0	7	5
120712	13:37:58	10014	Trial2BackFrS	YS	17	57	462	1	121	13:37:58	2340419	3	3	3	3	3	3	3	3	3	6	5	3	0	0	0	7	5
120712	13:37:58	10014	Trial2BackFrS	NS	17	0	1000	1	121	13:37:58	2342458	3	3	3	3	3	3	3	3	3	6	5	3	0	0	0	7	5
120712	13:37:58	10014	Trial2BackFrS	NS	17	0	1000	1	121	13:37:58	2343965	3	3	3	3	3	3	3	3	3	6	5	3	0	0	0	7	5
120712	13:37:58	10014	Trial2BackFrS	NS	17	0	1000	1	121	13:37:58	2345471	3	3	3	3	3	3	3	3	3	6	5	3	0	0	0	7	5
120712	13:37:58	10014	Trial2BackFrS	NS	17	0	1000	1	121	13:37:58	2346977	3	3	3	3	3	3	3	3	3	6	5	3	0	0	0	7	5
120712	13:37:58	10014	Trial2BackFrS	NS	17	0	1000	1	121	13:37:58	2348483	3	3	3	3	3	3	3	3	3	6	5	3	0	0	0	7	5
120712	13:37:58	10014	Trial2BackFrS	NS	17	0	1000	1	121	13:37:58	2349989	3	3	3	3	3	3	3	3	3	6	5	3	0	0	0	7	5
120712	13:37:58	10014	Trial2BackFrS	NS	17	0	1000	1	121	13:37:58	2351495	3	3	3	3	3	3	3	3	3	6	5	3	0	0	0	7	5
120712	13:37:58	10014	Trial2BackFrS	YS	17	57	733	1	121	13:37:58	2352748	3	3	3	3	3	3	3	3	3	6	5	3	0	0	0	7	5
120712	13:37:58	10014	Trial2BackFrS	NS	17	0	1000	1	121	13:37:58	2354507	3	3	3	3	3	3	3	3	3	6	5	3	0	0	0	7	5
120712	13:37:58	10014	Trial2BackFrS	NS	17	0	1000	1	121	13:37:58	2356013	3	3	3	3	3	3	3	3	3	6	5	3	0	0	0	7	5
120712	13:37:58	10014	Trial2BackFrS	NS	17	0	1000	1	121	13:37:58	2357519	3	3	3	3	3	3	3	3	3	6	5	3	0	0	0	7	5
120712	13:37:58	10014	Trial2BackFrS	NS	17	0	1000	1	121	13:37:58	2359025	3	3	3	3	3	3	3	3	3	6	5	3	0	0	0	7	5
120712	13:37:58	10014	Trial2BackFrS	YS	17	57	466	1	121	13:37:58	2360011	3	3	3	3	3	3	3	3	3	6	5	3	0	0	0	7	5
120712	13:37:58	10014	Trial2BackFrS	NS	17	0	1000	1	121	13:37:58	2362037	3	3	3	3	3	3	3	3	3	6	5	3	0	0	0	7	5
120712	13:37:58	10014	Trial2BackFrS	NS	17	0	1000	1	121	13:37:58	2363543	3	3	3	3	3	3	3	3	3	6	5	3	0	0	0	7	5
120712	13:37:58	10014	Trial2BackFrS	YS	17	57	956	1	121	13:37:58	2365009	3	3	3	3	3	3	3	3	3	6	5	3	0	0	0	7	5
120712	13:37:58	10014	Trial2BackFrS	NS	17	0	1000	1	121	13:37:58	2366556	3	3	3	3	3	3	3	3	3	6	5	3	0	0	0	7	5
120712	13:37:58	10014	Trial2BackFrS	NS	17	57	567	0	121	13:37:58	2367635	3	3	3	3	3	3	3	3	3	6	5	3	0	0	0	7	5
120712	13:37:58	10014	Trial2BackFrS	NS	17	0	1000	1	121	13:37:58	2369568	3	3	3	3	3	3	3	3	3	6	5	3	0	0	0	7	5
120712	13:37:58	10014	Trial2BackFrS	NS	17	0	1000	1	121	13:37:58	2371074	3	3	3	3	3	3	3	3	3	6	5	3	0	0	0	7	5
120712	13:37:58	10014	Trial2BackFrS	NS	17	57	737	0	121	13:37:58	2372326	3	3	3	3	3	3	3	3	3	6	5	3	0	0	0	7	5
120712	13:37:58	10014	Trial2BackFrS	NS	17	0	1000	1	121	13:37:58	2374086	3	3	3	3	3	3	3	3	3	6	5	3	0	0	0	7	5
120712	13:37:58	10014	Trial2BackFrS	YS	17	0	1000	0	121	13:37:58	2375592	3	3	3	3	3	3	3	3	3	6	5	3	0	0	0	7	5
120712	13:37:58	10014	Trial2BackFrS	NS	17	0	1000	1	121	13:37:58	2377098	3	3	3	3	3	3	3	3	3	6	5	3	0	0	0	7	5
120712	13:37:58	10014	Trial2BackFrS	NS	17	0	1000	1	121	13:37:58	2378617	3	3	3	3	3	3	3	3	3	6	5	3	0	0	0	7	5
120712	13:37:58	10014	Trial2BackFrS	NS	17	0	1000	1	121	13:37:58	2380124	3	3	3	3	3	3	3	3	3	6	5	3	0	0	0	7	5
120712	13:37:58	10014	Trial2BackFrS	NS	17	0	1000	1	121	13:37:58	2381630	3	3	3	3	3	3	3	3	3	6	5	3	0	0	0	7	5
120712	13:37:58	10014	Trial2BackFrS	YS	17	57	630	1	121	13:37:58	2382776	3	3	3	3	3	3	3	3	3	6	5	3	0	0	0	7	5
120712	13:37:58	10014	Trial2BackFrS	NS	17	0	1000	1	121	13:37:58	2384642	3	3	3	3	3	3	3	3	3	6	5	3	0	0	0	7	5
120712	13:37:58	10014	Trial2BackFrS	NS	17	0	1000	1	121	13:37:58	2386148	3	3	3	3	3	3	3	3	3	6	5	3	0	0	0	7	5
120712	13:37:58	10014	Trial2BackFrS	NS	17	0	1000	1	121	13:37:58	2387654	3	3	3	3	3	3	3	3	3	6	5	3	0	0	0	7	5
120712	13:37:58	10014	Trial2BackFrS	NS	17	57	573	0	121	13:37:58	2388747	3	3	3	3	3	3	3	3	3	6	5	3	0	0	0	7	5
120712	13:37:58	10014	Trial2BackFrS	YS	17	0	1000	0	121	13:37:58	2390666	3	3	3	3	3	3	3	3	3	6	5	3	0	0	0	7	5
120712	13:37:58	10014	Trial2BackFrS	NS	17	0	1000	1	121	13:37:58	2392172	3	3	3	3	3	3	3	3	3	6	5	3	0	0	0	7	5
120712	13:37:58	10014	Trial2BackFrS	NS	17	0	1000	1	121	13:37:58	2393678	3	3	3	3	3	3	3	3	3	6	5	3	0	0	0	7	5
120712	13:37:58	10014	Trial2BackFrS	YS	17	57	437	1	121	13:37:58	2394624	3	3	3	3	3	3	3	3	3	6	5	3	0	0	0	7	5
120712	13:37:58	10014	Trial2BackFrS	NS	17	0	1000	1	121	13:37:58	2396690	3	3	3	3	3	3	3	3	3	6	5	3	0	0	0	7	5
120712	13:37:58	10014	Trial2BackFrS	NS	17	0	1000	1	121	13:37:58	2398196	3	3	3	3	3	3	3	3	3	6	5	3	0	0	0	7	5
120712	13:37:58	10014	Trial2BackFrS	NS	17	0	1000	1	121	13:37:58	2399716	3	3	3	3	3	3	3	3	3	6	5	3	0	0	0	7	5
120712	13:37:58	10014	Trial2BackFrS	NS	17	0	1000	1	121	13:37:58	2401222	3	3	3	3	3	3	3	3	3	6	5	3	0	0	0	7	5
120712	13:37:58	10014	Trial2BackFrS	NS	17	0	1000	1	121	13:37:58	2402728	3	3	3	3	3	3	3	3	3	6	5	3	0	0	0	7	5
120712	13:37:58	10014	Trial2BackFrS	NS	17	0	1000	1	121	13:37:58	2404234	3	3	3	3	3	3	3	3	3	6	5	3	0	0	0	7	5
120712	13:37:58	10014	Trial2BackFrS	NS	17	0	1000	1	121	13:37:58	2405740	3	3	3	3	3	3	3	3	3	6	5	3	0	0	0	7	5
120712	13:37:58	10014	Trial2BackFrS	NS	17	0	1000	1	121	13:37:58	2407246	3	3	3	3	3	3	3	3	3	6	5	3	0	0	0	7	5
120712	13:37:58	10014	Trial2BackFrS	YS	17	57	437	1	121	13:37:58	2408192	3	3	3	3	3	3	3	3	3	6	5	3	0	0	0	7	5
120712	13:37:58	10014	Trial2BackFrS	NS	17	0	1000	1	121	13:37:58	2410258	3	3	3	3	3	3	3	3	3	6	5	3	0	0	0	7	5
120712	13:37:58	10014	Trial2BackFrS	NS	17	0	1000	1	121	13:37:58	2411764	3	3	3	3	3	3	3	3	3	6	5	3	0	0	0	7	5
120712	13:37:58	10014	Trial2BackFrS	NS	17	57	734	0	121	13:37:58	2413017	3	3	3	3	3	3	3	3	3	6	5	3	0	0	0	7	5
120712	13:37:58	10014	Trial2BackFrS	NS	17	0	1000	1	121	13:37:58	2414777	3	3	3	3	3	3	3	3	3	6	5	3	0	0	0	7	5
120712	13:37:58	10014	Trial2BackFrS	NS	17	0	1000	1	121	13:37:58	2416283	3	3	3	3	3	3	3	3	3	6	5	3	0	0	0	7	5
120712	13:37:58	10014	Trial2BackFrS	NS	17	0	1000	1	121	13:37:58	2417789	3	3	3	3	3	3	3	3	3	6	5	3	0	0	0	7	5
120712	13:37:58	10014	Trial2BackFrS	NS	17	0	1000	1	121	13:37:58	2419295	3	3	3	3	3	3	3	3	3	6	5	3	0	0	0	7	5
120712	13:37:58	10014	Trial2BackFrS	YS	17	57	468	1	121	13:37:58	2420281	3	3	3	3	3	3	3	3	3	6	5	3	0	0	0	7	5
120712	13:37:58	10014	Trial2BackFrS	NS	17	0	1000	1	121	13:37:58	2422307	3	3	3	3	3	3	3	3	3	6	5	3	0	0	0	7	5
120712	13:37:58	10014	Trial2BackFrS	NS	17	0	1000	1	121	13:37:58	2423813	3	3	3	3	3	3	3	3	3	6	5	3	0	0	0	7	5
120712	13:37:58	10014	Trial2BackFrS	NS	17	0	1000	1	121	13:37:58	2425319	3	3	3	3	3	3	3	3	3	6	5	3	0	0	0	7	5
120712	13:37:58	10014	Trial2BackFrS	NS	17	0	1000	1	121	13:37:58	2426825	3	3	3	3	3	3	3	3	3	6	5	3	0	0	0	7	5
120712	13:37:58	10014	Trial2BackFrS	NS	17	0	1000	1	121	13:37:58	2428331	3	3	3	3	3	3	3	3	3	6	5	3	0	0	0	7	5
120712	13:37:58	10014	Trial2BackFrS	NS	17	0	1000	1	121	13:37:58	2429837	3	3	3	3	3	3	3	3	3	6	5	3	0	0	0	7	5
120712	13:37:58	10014	Trial2BackFrS	NS	17	0	1000	1	121	13:37:58	2431343	3	3	3	3	3	3	3	3	3	6	5	3	0	0	0	7	5
120712	13:37:58	10014	Trial2BackFrS	NS	17	0	1000	1	121	13:37:58	2432849	3	3	3	3	3	3	3	3	3	6	5	3	0	0	0	7	5
120712	13:37:58	10014	Trial2BackFrS	NS	17	0	1000	1	121	13:37:58	2434356	3	3	3	3	3	3	3	3	3	6	5	3	0	0	0	7	5
120712	13:37:58	10014	Trial2BackFrS	YS	17	57	559	1	121	13:37:58	2435435	3	3	3	3	3	3	3	3	3	6	5	3	0	0	0	7	5
120712	13:37:58	10014	Trial2BackFrS	NS	17	0	1000	1	121	13:37:58	2437368	3	3	3	3	3	3	3	3	3	6	5	3	0	0	0	7	5
120712	13:37:58	10014	Trial3BackFrS	NNS	18	0	1000	1	121	13:37:58	2448697	3	3	3	3	3	3	3	3	3	6	5	3	0	0	0	7	5
120712	13:37:58	10014	Trial3BackFrS	NNS	18	0	1000	1	121	13:37:58	2450216	3	3	3	3	3	3	3	3	3	6	5	3	0	0	0	7	5
120712	13:37:58	10014	Trial3BackFrS	NNS	18	0	1000	1	121	13:37:58	2451722	3	3	3	3	3	3	3	3	3	6	5	3	0	0	0	7	5
120712	13:37:58	10014	Trial3BackFrS	YYS	18	57	680	1	121	13:37:58	2452922	3	3	3	3	3	3	3	3	3	6	5	3	0	0	0	7	5
120712	13:37:58	10014	Trial3BackFrS	NNS	18	0	1000	1	121	13:37:58	2454734	3	3	3	3	3	3	3	3	3	6	5	3	0	0	0	7	5
120712	13:37:58	10014	Trial3BackFrS	NNS	18	0	1000	1	121	13:37:58	2456253	3	3	3	3	3	3	3	3	3	6	5	3	0	0	0	7	5
120712	13:37:58	10014	Trial3BackFrS	NNS	18	0	1000	1	121	13:37:58	2457773	3	3	3	3	3	3	3	3	3	6	5	3	0	0	0	7	5
120712	13:37:58	10014	Trial3BackFrS	NNS	18	0	1000	1	121	13:37:58	2459279	3	3	3	3	3	3	3	3	3	6	5	3	0	0	0	7	5
120712	13:37:58	10014	Trial3BackFrS	YYS	18	57	755	1	121	13:37:58	2460545	3	3	3	3	3	3	3	3	3	6	5	3	0	0	0	7	5
120712	13:37:58	10014	Trial3BackFrS	NNS	18	0	1000	1	121	13:37:58	2462291	3	3	3	3	3	3	3	3	3	6	5	3	0	0	0	7	5
120712	13:37:58	10014	Trial3BackFrS	NNS	18	0	1000	1	121	13:37:58	2463797	3	3	3	3	3	3	3	3	3	6	5	3	0	0	0	7	5
120712	13:37:58	10014	Trial3BackFrS	NNS	18	0	1000	1	121	13:37:58	2465303	3	3	3	3	3	3	3	3	3	6	5	3	0	0	0	7	5
120712	13:37:58	10014	Trial3BackFrS	NNS	18	0	1000	1	121	13:37:58	2466809	3	3	3	3	3	3	3	3	3	6	5	3	0	0	0	7	5
120712	13:37:58	10014	Trial3BackFrS	NNS	18	57	553	0	121	13:37:58	2467876	3	3	3	3	3	3	3	3	3	6	5	3	0	0	0	7	5
120712	13:37:58	10014	Trial3BackFrS	NNS	18	0	1000	1	121	13:37:58	2469821	3	3	3	3	3	3	3	3	3	6	5	3	0	0	0	7	5
120712	13:37:58	10014	Trial3BackFrS	NNS	18	0	1000	1	121	13:37:58	2471328	3	3	3	3	3	3	3	3	3	6	5	3	0	0	0	7	5
120712	13:37:58	10014	Trial3BackFrS	YYS	18	0	1000	0	121	13:37:58	2472834	3	3	3	3	3	3	3	3	3	6	5	3	0	0	0	7	5
120712	13:37:58	10014	Trial3BackFrS	NNS	18	0	1000	1	121	13:37:58	2474340	3	3	3	3	3	3	3	3	3	6	5	3	0	0	0	7	5
120712	13:37:58	10014	Trial3BackFrS	NNS	18	0	1000	1	121	13:37:58	2475846	3	3	3	3	3	3	3	3	3	6	5	3	0	0	0	7	5
120712	13:37:58	10014	Trial3BackFrS	NNS	18	0	1000	1	121	13:37:58	2477352	3	3	3	3	3	3	3	3	3	6	5	3	0	0	0	7	5
120712	13:37:58	10014	Trial3BackFrS	NNS	18	0	1000	1	121	13:37:58	2478858	3	3	3	3	3	3	3	3	3	6	5	3	0	0	0	7	5
120712	13:37:58	10014	Trial3BackFrS	NNS	18	57	472	0	121	13:37:58	2479844	3	3	3	3	3	3	3	3	3	6	5	3	0	0	0	7	5
120712	13:37:58	10014	Trial3BackFrS	YYS	18	0	1000	0	121	13:37:58	2481870	3	3	3	3	3	3	3	3	3	6	5	3	0	0	0	7	5
120712	13:37:58	10014	Trial3BackFrS	NNS	18	0	1000	1	121	13:37:58	2483377	3	3	3	3	3	3	3	3	3	6	5	3	0	0	0	7	5
120712	13:37:58	10014	Trial3BackFrS	NNS	18	0	1000	1	121	13:37:58	2484882	3	3	3	3	3	3	3	3	3	6	5	3	0	0	0	7	5
120712	13:37:58	10014	Trial3BackFrS	NNS	18	0	1000	1	121	13:37:58	2486388	3	3	3	3	3	3	3	3	3	6	5	3	0	0	0	7	5
120712	13:37:58	10014	Trial3BackFrS	YYS	18	57	429	1	121	13:37:58	2487334	3	3	3	3	3	3	3	3	3	6	5	3	0	0	0	7	5
120712	13:37:58	10014	Trial3BackFrS	NNS	18	0	1000	1	121	13:37:58	2489400	3	3	3	3	3	3	3	3	3	6	5	3	0	0	0	7	5
120712	13:37:58	10014	Trial3BackFrS	NNS	18	0	1000	1	121	13:37:58	2490907	3	3	3	3	3	3	3	3	3	6	5	3	0	0	0	7	5
120712	13:37:58	10014	Trial3BackFrS	NNS	18	0	1000	1	121	13:37:58	2492413	3	3	3	3	3	3	3	3	3	6	5	3	0	0	0	7	5
120712	13:37:58	10014	Trial3BackFrS	YYS	18	57	741	1	121	13:37:58	2493665	3	3	3	3	3	3	3	3	3	6	5	3	0	0	0	7	5
120712	13:37:58	10014	Trial3BackFrS	NNS	18	0	1000	1	121	13:37:58	2495425	3	3	3	3	3	3	3	3	3	6	5	3	0	0	0	7	5
120712	13:37:58	10014	Trial3BackFrS	NNS	18	0	1000	1	121	13:37:58	2496931	3	3	3	3	3	3	3	3	3	6	5	3	0	0	0	7	5
120712	13:37:58	10014	Trial3BackFrS	NNS	18	57	911	0	121	13:37:58	2498357	3	3	3	3	3	3	3	3	3	6	5	3	0	0	0	7	5
120712	13:37:58	10014	Trial3BackFrS	NNS	18	0	1000	1	121	13:37:58	2499943	3	3	3	3	3	3	3	3	3	6	5	3	0	0	0	7	5
120712	13:37:58	10014	Trial3BackFrS	NNS	18	0	1000	1	121	13:37:58	2501449	3	3	3	3	3	3	3	3	3	6	5	3	0	0	0	7	5
120712	13:37:58	10014	Trial3BackFrS	NNS	18	0	1000	1	121	13:37:58	2502955	3	3	3	3	3	3	3	3	3	6	5	3	0	0	0	7	5
120712	13:37:58	10014	Trial3BackFrS	NNS	18	0	1000	1	121	13:37:58	2504461	3	3	3	3	3	3	3	3	3	6	5	3	0	0	0	7	5
120712	13:37:58	10014	Trial3BackFrS	NNS	18	57	612	0	121	13:37:58	2505594	3	3	3	3	3	3	3	3	3	6	5	3	0	0	0	7	5
120712	13:37:58	10014	Trial3BackFrS	NNS	18	0	1000	1	121	13:37:58	2507473	3	3	3	3	3	3	3	3	3	6	5	3	0	0	0	7	5
120712	13:37:58	10014	Trial3BackFrS	NNS	18	0	1000	1	121	13:37:58	2508979	3	3	3	3	3	3	3	3	3	6	5	3	0	0	0	7	5
120712	13:37:58	10014	Trial3BackFrS	YYS	18	0	1000	0	121	13:37:58	2510485	3	3	3	3	3	3	3	3	3	6	5	3	0	0	0	7	5
120712	13:37:58	10014	Trial3BackFrS	NNS	18	0	1000	1	121	13:37:58	2511992	3	3	3	3	3	3	3	3	3	6	5	3	0	0	0	7	5
120712	13:37:58	10014	Trial3BackFrS	NNS	18	0	1000	1	121	13:37:58	2513498	3	3	3	3	3	3	3	3	3	6	5	3	0	0	0	7	5
120712	13:37:58	10014	Trial3BackFrS	NNS	18	0	1000	1	121	13:37:58	2515004	3	3	3	3	3	3	3	3	3	6	5	3	0	0	0	7	5
120712	13:37:58	10014	Trial3BackFrS	NNS	18	57	598	0	121	13:37:58	2516110	3	3	3	3	3	3	3	3	3	6	5	3	0	0	0	7	5
120712	13:37:58	10014	Trial3BackFrS	YYS	18	0	1000	0	121	13:37:58	2518016	3	3	3	3	3	3	3	3	3	6	5	3	0	0	0	7	5
120712	13:37:58	10014	Trial3BackFrS	NNS	18	0	1000	1	121	13:37:58	2519535	3	3	3	3	3	3	3	3	3	6	5	3	0	0	0	7	5
120712	13:37:58	10014	Trial3BackFrS	NNS	18	0	1000	1	121	13:37:58	2521041	3	3	3	3	3	3	3	3	3	6	5	3	0	0	0	7	5
120712	13:37:58	10014	Trial3BackFrS	NNS	18	0	1000	1	121	13:37:58	2522547	3	3	3	3	3	3	3	3	3	6	5	3	0	0	0	7	5
120712	13:37:58	10014	Trial3BackFrS	NNS	18	0	1000	1	121	13:37:58	2524053	3	3	3	3	3	3	3	3	3	6	5	3	0	0	0	7	5
120712	13:37:58	10014	Trial3BackFrS	NNS	18	0	1000	1	121	13:37:58	2525559	3	3	3	3	3	3	3	3	3	6	5	3	0	0	0	7	5
120712	13:37:58	10014	Trial3BackFrS	YYS	18	57	458	1	121	13:37:58	2526532	3	3	3	3	3	3	3	3	3	6	5	3	0	0	0	7	5
120712	13:37:58	10014	Trial3BackFrS	NNS	18	0	1000	1	121	13:37:58	2528572	3	3	3	3	3	3	3	3	3	6	5	3	0	0	0	7	5
120712	13:37:58	10014	Trial3BackFrS	NNS	18	0	1000	1	121	13:37:58	2530078	3	3	3	3	3	3	3	3	3	6	5	3	0	0	0	7	5
120712	13:37:58	10014	Trial3BackFrS	NNS	18	0	1000	1	121	13:37:58	2531584	3	3	3	3	3	3	3	3	3	6	5	3	0	0	0	7	5
120712	13:37:58	10014	Trial3BackFrS	NNS	18	0	1000	1	121	13:37:58	2533090	3	3	3	3	3	3	3	3	3	6	5	3	0	0	0	7	5
120712	13:37:58	10014	Trial3BackFrS	NNS	18	0	1000	1	121	13:37:58	2534596	3	3	3	3	3	3	3	3	3	6	5	3	0	0	0	7	5
120712	13:37:58	10014	Trial3BackFrS	NNS	18	57	573	0	121	13:37:58	2535689	3	3	3	3	3	3	3	3	3	6	5	3	0	0	0	7	5
120712	13:37:58	10014	Trial3BackFrS	YYS	18	0	1000	0	121	13:37:58	2537608	3	3	3	3	3	3	3	3	3	6	5	3	0	0	0	7	5
120712	13:37:58	10014	Trial3BackFrS	NNS	18	0	1000	1	121	13:37:58	2539114	3	3	3	3	3	3	3	3	3	6	5	3	0	0	0	7	5
120712	13:37:58	10014	Trial3BackFrS	NNS	18	0	1000	1	121	13:37:58	2540620	3	3	3	3	3	3	3	3	3	6	5	3	0	0	0	7	5
120712	13:37:58	10014	Trial3BackFrS	NNS	18	0	1000	1	121	13:37:58	2542126	3	3	3	3	3	3	3	3	3	6	5	3	0	0	0	7	5
120712	13:37:58	10014	Trial3BackFrS	YYS	18	57	547	1	121	13:37:58	2543193	3	3	3	3	3	3	3	3	3	6	5	3	0	0	0	7	5
120712	13:37:58	10014	Trial3BackFrS	NNS	18	0	1000	1	121	13:37:58	2545138	3	3	3	3	3	3	3	3	3	6	5	3	0	0	0	7	5
120712	13:37:58	10014	Trial3BackFrS	NNS	18	0	1000	1	121	13:37:58	2546644	3	3	3	3	3	3	3	3	3	6	5	3	0	0	0	7	5
120712	13:37:58	10014	Trial3BackFrS	NNS	18	0	1000	1	121	13:37:58	2548151	3	3	3	3	3	3	3	3	3	6	5	3	0	0	0	7	5
120712	13:37:58	10014	Trial3BackFrS	NNS	18	0	1000	1	121	13:37:58	2549657	3	3	3	3	3	3	3	3	3	6	5	3	0	0	0	7	5
120712	13:37:58	10014	Trial3BackFrS	NNS	18	57	792	0	121	13:37:58	2550963	3	3	3	3	3	3	3	3	3	6	5	3	0	0	0	7	5
120712	13:37:58	10014	Trial3BackFrS	NNS	18	0	1000	1	121	13:37:58	2552669	3	3	3	3	3	3	3	3	3	6	5	3	0	0	0	7	5
120712	13:37:58	10014	Trial3BackFrS	NNS	18	0	1000	1	121	13:37:58	2554175	3	3	3	3	3	3	3	3	3	6	5	3	0	0	0	7	5
120712	13:37:58	10014	Trial3BackFrS	NNS	18	0	1000	1	121	13:37:58	2555681	3	3	3	3	3	3	3	3	3	6	5	3	0	0	0	7	5
120712	13:37:58	10014	Trial3BackFrS	NNS	18	0	1000	1	121	13:37:58	2557187	3	3	3	3	3	3	3	3	3	6	5	3	0	0	0	7	5
120712	13:37:58	10014	Trial3BackFrS	YYS	18	0	1000	0	121	13:37:58	2558693	3	3	3	3	3	3	3	3	3	6	5	3	0	0	0	7	5
120712	13:37:58	10014	Trial3BackFrS	NNS	18	57	636	0	121	13:37:58	2559839	3	3	3	3	3	3	3	3	3	6	5	3	0	0	0	7	5
120712	13:37:58	10014	Trial3BackFrS	NNS	18	0	1000	1	121	13:37:58	2561705	3	3	3	3	3	3	3	3	3	6	5	3	0	0	0	7	5
120712	13:37:58	10014	Trial3BackFrS	NNS	18	0	1000	1	121	13:37:58	2563225	3	3	3	3	3	3	3	3	3	6	5	3	0	0	0	7	5
120712	13:37:58	10014	Trial3BackFrS	YYS	18	0	1000	0	121	13:37:58	2564731	3	3	3	3	3	3	3	3	3	6	5	3	0	0	0	7	5
120712	13:37:58	10014	Trial3BackFrS	NNS	18	0	1000	1	121	13:37:58	2566237	3	3	3	3	3	3	3	3	3	6	5	3	0	0	0	7	5
120712	13:37:58	10014	Trial3BackFrS	NNS	18	0	1000	1	121	13:37:58	2567743	3	3	3	3	3	3	3	3	3	6	5	3	0	0	0	7	5
120712	13:37:58	10014	Trial3BackFrS	NNS	18	57	706	0	121	13:37:58	2568969	3	3	3	3	3	3	3	3	3	6	5	3	0	0	0	7	5
120712	13:37:58	10014	Trial3BackFrS	NNS	18	0	1000	1	121	13:37:58	2570755	3	3	3	3	3	3	3	3	3	6	5	3	0	0	0	7	5
120712	13:37:58	10014	Trial3BackFrS	NNS	18	0	1000	1	121	13:37:58	2572261	3	3	3	3	3	3	3	3	3	6	5	3	0	0	0	7	5
120712	13:37:58	10014	Trial3BackFrS	YYS	18	0	1000	0	121	13:37:58	2573767	3	3	3	3	3	3	3	3	3	6	5	3	0	0	0	7	5
120712	13:37:58	10014	Trial3BackFrS	NNS	18	0	1000	1	121	13:37:58	2575287	3	3	3	3	3	3	3	3	3	6	5	3	0	0	0	7	5
120712	13:37:58	10014	Trial3BackFrS	NNS	18	0	1000	1	121	13:37:58	2576793	3	3	3	3	3	3	3	3	3	6	5	3	0	0	0	7	5
120712	13:37:58	10014	Trial3BackFrS	NNS	18	57	552	0	121	13:37:58	2577859	3	3	3	3	3	3	3	3	3	6	5	3	0	0	0	7	5
120712	13:37:58	10014	Trial3BackFrS	NNS	18	0	1000	1	121	13:37:58	2579805	3	3	3	3	3	3	3	3	3	6	5	3	0	0	0	7	5
120712	13:37:58	10014	Trial3BackFrS	NNS	18	0	1000	1	121	13:37:58	2581311	3	3	3	3	3	3	3	3	3	6	5	3	0	0	0	7	5
120712	13:37:58	10014	Trial3BackFrS	NNS	18	57	641	0	121	13:37:58	2582470	3	3	3	3	3	3	3	3	3	6	5	3	0	0	0	7	5
120712	13:37:58	10014	Trial3BackFrS	NNS	18	0	1000	1	121	13:37:58	2584323	3	3	3	3	3	3	3	3	3	6	5	3	0	0	0	7	5
120712	13:37:58	10014	Trial3BackFrS	NNS	18	0	1000	1	121	13:37:58	2585829	3	3	3	3	3	3	3	3	3	6	5	3	0	0	0	7	5
120712	13:37:58	10014	Trial3BackFrS	NNS	18	0	1000	1	121	13:37:58	2587335	3	3	3	3	3	3	3	3	3	6	5	3	0	0	0	7	5
