date	time	subject	blockcode	trialcode	values.TaskNumber	response	latency	correct	values.Score	script.starttime	script.elapsedtime	values.ScoreS7	values.Word1	values.Word2	values.Word3	values.Word4	values.Word5	values.Word6	values.Word7	values.Word8	values.DigitSpanFwrd	values.DigitSpanBack	values.ScoreAbs	values.Contour	values.Numbers	values.Hands	values.corsiblockspanFwrd	values.corsiblockspanRev
121012	13:47:32	10016	Language	Language	0	English	3204	0	0	13:47:32	3321	0	0	0	0	0	0	0	0	0	0	0	0	0	0	0	0	0
121012	13:47:32	10016	Session	Session	0	6mo	704	0	0	13:47:32	4094	0	0	0	0	0	0	0	0	0	0	0	0	0	0	0	0	0
121012	13:47:32	10016	HandEng	HandEng	0	Right	321579	0	0	13:47:32	325737	0	0	0	0	0	0	0	0	0	0	0	0	0	0	0	0	0
121012	13:47:32	10016	CubeEng	CubeEng	1	1Cube	25058	0	0	13:47:32	920936	0	0	0	0	0	0	0	0	0	0	0	0	0	0	0	0	0
121012	13:47:32	10016	pm.simpleEngRight	blank.simpleEng	2	0	2400	1	0	13:47:32	942820	0	0	0	0	0	0	0	0	0	0	0	0	0	0	0	0	0
121012	13:47:32	10016	pm.simpleEngRight	pm.simpleEng	2	57	274	0	0	13:47:32	943113	0	0	0	0	0	0	0	0	0	0	0	0	0	0	0	0	0
121012	13:47:32	10016	pm.simpleEngRight	blank.simpleEng	2	0	1800	1	0	13:47:32	944926	0	0	0	0	0	0	0	0	0	0	0	0	0	0	0	0	0
121012	13:47:32	10016	pm.simpleEngRight	pm.simpleEng	2	57	761	0	0	13:47:32	945712	0	0	0	0	0	0	0	0	0	0	0	0	0	0	0	0	0
121012	13:47:32	10016	pm.simpleEngRight	blank.simpleEng	2	0	1700	1	0	13:47:32	947432	0	0	0	0	0	0	0	0	0	0	0	0	0	0	0	0	0
121012	13:47:32	10016	pm.simpleEngRight	pm.simpleEng	2	57	239	0	0	13:47:32	947698	0	0	0	0	0	0	0	0	0	0	0	0	0	0	0	0	0
121012	13:47:32	10016	pm.simpleEngRight	blank.simpleEng	2	0	1900	1	0	13:47:32	949617	0	0	0	0	0	0	0	0	0	0	0	0	0	0	0	0	0
121012	13:47:32	10016	pm.simpleEngRight	pm.simpleEng	2	57	261	0	0	13:47:32	949897	0	0	0	0	0	0	0	0	0	0	0	0	0	0	0	0	0
121012	13:47:32	10016	pm.simpleEngRight	blank.simpleEng	2	0	2500	1	0	13:47:32	952416	0	0	0	0	0	0	0	0	0	0	0	0	0	0	0	0	0
121012	13:47:32	10016	pm.simpleEngRight	pm.simpleEng	2	57	278	0	0	13:47:32	952723	0	0	0	0	0	0	0	0	0	0	0	0	0	0	0	0	0
121012	13:47:32	10016	pm.simpleEngRight	blank.simpleEng	2	0	2100	1	0	13:47:32	954842	0	0	0	0	0	0	0	0	0	0	0	0	0	0	0	0	0
121012	13:47:32	10016	pm.simpleEngRight	pm.simpleEng	2	57	285	0	0	13:47:32	955149	0	0	0	0	0	0	0	0	0	0	0	0	0	0	0	0	0
121012	13:47:32	10016	pm.simpleEngRight	blank.simpleEng	2	0	2300	1	0	13:47:32	957468	0	0	0	0	0	0	0	0	0	0	0	0	0	0	0	0	0
121012	13:47:32	10016	pm.simpleEngRight	pm.simpleEng	2	57	251	0	0	13:47:32	957747	0	0	0	0	0	0	0	0	0	0	0	0	0	0	0	0	0
121012	13:47:32	10016	pm.simpleEngRight	blank.simpleEng	2	0	1500	1	0	13:47:32	959267	0	0	0	0	0	0	0	0	0	0	0	0	0	0	0	0	0
121012	13:47:32	10016	pm.simpleEngRight	pm.simpleEng	2	57	356	0	0	13:47:32	959640	0	0	0	0	0	0	0	0	0	0	0	0	0	0	0	0	0
121012	13:47:32	10016	pm.simpleEngRight	blank.simpleEng	2	0	2200	1	0	13:47:32	961852	0	0	0	0	0	0	0	0	0	0	0	0	0	0	0	0	0
121012	13:47:32	10016	pm.simpleEngRight	pm.simpleEng	2	57	314	0	0	13:47:32	962185	0	0	0	0	0	0	0	0	0	0	0	0	0	0	0	0	0
121012	13:47:32	10016	pm.simpleEngRight	blank.simpleEng	2	0	1600	1	0	13:47:32	963798	0	0	0	0	0	0	0	0	0	0	0	0	0	0	0	0	0
121012	13:47:32	10016	pm.simpleEngRight	pm.simpleEng	2	57	320	0	0	13:47:32	964145	0	0	0	0	0	0	0	0	0	0	0	0	0	0	0	0	0
121012	13:47:32	10016	pm.simpleEngRight	blank.simpleEng	2	0	2000	1	0	13:47:32	966157	0	0	0	0	0	0	0	0	0	0	0	0	0	0	0	0	0
121012	13:47:32	10016	pm.simpleEngRight	pm.simpleEng	2	57	313	0	0	13:47:32	966490	0	0	0	0	0	0	0	0	0	0	0	0	0	0	0	0	0
121012	13:47:32	10016	pm.simpleEngRight	blank.simpleEng	2	0	2300	1	0	13:47:32	968810	0	0	0	0	0	0	0	0	0	0	0	0	0	0	0	0	0
121012	13:47:32	10016	pm.simpleEngRight	pm.simpleEng	2	57	284	0	0	13:47:32	969116	0	0	0	0	0	0	0	0	0	0	0	0	0	0	0	0	0
121012	13:47:32	10016	pm.simpleEngRight	blank.simpleEng	2	0	1500	1	0	13:47:32	970636	0	0	0	0	0	0	0	0	0	0	0	0	0	0	0	0	0
121012	13:47:32	10016	pm.simpleEngRight	pm.simpleEng	2	57	522	0	0	13:47:32	971182	0	0	0	0	0	0	0	0	0	0	0	0	0	0	0	0	0
121012	13:47:32	10016	pm.simpleEngRight	blank.simpleEng	2	0	1700	1	0	13:47:32	972901	0	0	0	0	0	0	0	0	0	0	0	0	0	0	0	0	0
121012	13:47:32	10016	pm.simpleEngRight	pm.simpleEng	2	57	321	0	0	13:47:32	973248	0	0	0	0	0	0	0	0	0	0	0	0	0	0	0	0	0
121012	13:47:32	10016	pm.simpleEngRight	blank.simpleEng	2	0	2400	1	0	13:47:32	975660	0	0	0	0	0	0	0	0	0	0	0	0	0	0	0	0	0
121012	13:47:32	10016	pm.simpleEngRight	pm.simpleEng	2	57	266	0	0	13:47:32	975953	0	0	0	0	0	0	0	0	0	0	0	0	0	0	0	0	0
121012	13:47:32	10016	pm.simpleEngRight	blank.simpleEng	2	0	1900	1	0	13:47:32	977873	0	0	0	0	0	0	0	0	0	0	0	0	0	0	0	0	0
121012	13:47:32	10016	pm.simpleEngRight	pm.simpleEng	2	57	261	0	0	13:47:32	978152	0	0	0	0	0	0	0	0	0	0	0	0	0	0	0	0	0
121012	13:47:32	10016	pm.simpleEngRight	blank.simpleEng	2	0	1600	1	0	13:47:32	979765	0	0	0	0	0	0	0	0	0	0	0	0	0	0	0	0	0
121012	13:47:32	10016	pm.simpleEngRight	pm.simpleEng	2	57	305	0	0	13:47:32	980098	0	0	0	0	0	0	0	0	0	0	0	0	0	0	0	0	0
121012	13:47:32	10016	pm.simpleEngRight	blank.simpleEng	2	0	2000	1	0	13:47:32	982111	0	0	0	0	0	0	0	0	0	0	0	0	0	0	0	0	0
121012	13:47:32	10016	pm.simpleEngRight	pm.simpleEng	2	57	263	0	0	13:47:32	982391	0	0	0	0	0	0	0	0	0	0	0	0	0	0	0	0	0
121012	13:47:32	10016	pm.simpleEngRight	blank.simpleEng	2	0	2200	1	0	13:47:32	984617	0	0	0	0	0	0	0	0	0	0	0	0	0	0	0	0	0
121012	13:47:32	10016	pm.simpleEngRight	pm.simpleEng	2	57	285	0	0	13:47:32	984923	0	0	0	0	0	0	0	0	0	0	0	0	0	0	0	0	0
121012	13:47:32	10016	pm.simpleEngRight	blank.simpleEng	2	0	1800	1	0	13:47:32	986736	0	0	0	0	0	0	0	0	0	0	0	0	0	0	0	0	0
121012	13:47:32	10016	pm.simpleEngRight	pm.simpleEng	2	57	278	0	0	13:47:32	987042	0	0	0	0	0	0	0	0	0	0	0	0	0	0	0	0	0
121012	13:47:32	10016	pm.simpleEngRight	blank.simpleEng	2	0	2100	1	0	13:47:32	989161	0	0	0	0	0	0	0	0	0	0	0	0	0	0	0	0	0
121012	13:47:32	10016	pm.simpleEngRight	pm.simpleEng	2	57	324	0	0	13:47:32	989508	0	0	0	0	0	0	0	0	0	0	0	0	0	0	0	0	0
121012	13:47:32	10016	pm.simpleEngRight	blank.simpleEng	2	0	2500	1	0	13:47:32	992027	0	0	0	0	0	0	0	0	0	0	0	0	0	0	0	0	0
121012	13:47:32	10016	pm.simpleEngRight	pm.simpleEng	2	57	283	0	0	13:47:32	992333	0	0	0	0	0	0	0	0	0	0	0	0	0	0	0	0	0
121012	13:47:32	10016	pm.simpleEngRight	blank.simpleEng	2	0	2300	1	0	13:47:32	994652	0	0	0	0	0	0	0	0	0	0	0	0	0	0	0	0	0
121012	13:47:32	10016	pm.simpleEngRight	pm.simpleEng	2	57	233	0	0	13:47:32	994906	0	0	0	0	0	0	0	0	0	0	0	0	0	0	0	0	0
121012	13:47:32	10016	pm.simpleEngRight	blank.simpleEng	2	0	2000	1	0	13:47:32	996918	0	0	0	0	0	0	0	0	0	0	0	0	0	0	0	0	0
121012	13:47:32	10016	pm.simpleEngRight	pm.simpleEng	2	57	255	0	0	13:47:32	997198	0	0	0	0	0	0	0	0	0	0	0	0	0	0	0	0	0
121012	13:47:32	10016	pm.simpleEngRight	blank.simpleEng	2	0	1500	1	0	13:47:32	998718	0	0	0	0	0	0	0	0	0	0	0	0	0	0	0	0	0
121012	13:47:32	10016	pm.simpleEngRight	pm.simpleEng	2	57	264	0	0	13:47:32	998997	0	0	0	0	0	0	0	0	0	0	0	0	0	0	0	0	0
121012	13:47:32	10016	pm.simpleEngRight	blank.simpleEng	2	0	2400	1	0	13:47:32	1001410	0	0	0	0	0	0	0	0	0	0	0	0	0	0	0	0	0
121012	13:47:32	10016	pm.simpleEngRight	pm.simpleEng	2	57	244	0	0	13:47:32	1001676	0	0	0	0	0	0	0	0	0	0	0	0	0	0	0	0	0
121012	13:47:32	10016	pm.simpleEngRight	blank.simpleEng	2	0	2100	1	0	13:47:32	1003795	0	0	0	0	0	0	0	0	0	0	0	0	0	0	0	0	0
121012	13:47:32	10016	pm.simpleEngRight	pm.simpleEng	2	57	242	0	0	13:47:32	1004062	0	0	0	0	0	0	0	0	0	0	0	0	0	0	0	0	0
121012	13:47:32	10016	pm.simpleEngRight	blank.simpleEng	2	0	2200	1	0	13:47:32	1006274	0	0	0	0	0	0	0	0	0	0	0	0	0	0	0	0	0
121012	13:47:32	10016	pm.simpleEngRight	pm.simpleEng	2	57	243	0	0	13:47:32	1006541	0	0	0	0	0	0	0	0	0	0	0	0	0	0	0	0	0
121012	13:47:32	10016	pm.simpleEngRight	blank.simpleEng	2	0	1700	1	0	13:47:32	1008260	0	0	0	0	0	0	0	0	0	0	0	0	0	0	0	0	0
121012	13:47:32	10016	pm.simpleEngRight	pm.simpleEng	2	57	369	0	0	13:47:32	1008647	0	0	0	0	0	0	0	0	0	0	0	0	0	0	0	0	0
121012	13:47:32	10016	pm.simpleEngRight	blank.simpleEng	2	0	2500	1	0	13:47:32	1011166	0	0	0	0	0	0	0	0	0	0	0	0	0	0	0	0	0
121012	13:47:32	10016	pm.simpleEngRight	pm.simpleEng	2	57	247	0	0	13:47:32	1011432	0	0	0	0	0	0	0	0	0	0	0	0	0	0	0	0	0
121012	13:47:32	10016	pm.simpleEngRight	blank.simpleEng	2	0	1600	1	0	13:47:32	1013045	0	0	0	0	0	0	0	0	0	0	0	0	0	0	0	0	0
121012	13:47:32	10016	pm.simpleEngRight	pm.simpleEng	2	57	320	0	0	13:47:32	1013392	0	0	0	0	0	0	0	0	0	0	0	0	0	0	0	0	0
121012	13:47:32	10016	pm.simpleEngRight	blank.simpleEng	2	0	1900	1	0	13:47:32	1015311	0	0	0	0	0	0	0	0	0	0	0	0	0	0	0	0	0
121012	13:47:32	10016	pm.simpleEngRight	pm.simpleEng	2	57	247	0	0	13:47:32	1015577	0	0	0	0	0	0	0	0	0	0	0	0	0	0	0	0	0
121012	13:47:32	10016	pm.simpleEngRight	blank.simpleEng	2	0	1800	1	0	13:47:32	1017390	0	0	0	0	0	0	0	0	0	0	0	0	0	0	0	0	0
121012	13:47:32	10016	pm.simpleEngRight	pm.simpleEng	2	57	263	0	0	13:47:32	1017670	0	0	0	0	0	0	0	0	0	0	0	0	0	0	0	0	0
121012	13:47:32	10016	pm.simpleEngRight	blank.simpleEng	2	0	1600	1	0	13:47:32	1019283	0	0	0	0	0	0	0	0	0	0	0	0	0	0	0	0	0
121012	13:47:32	10016	pm.simpleEngRight	pm.simpleEng	2	57	401	0	0	13:47:32	1019709	0	0	0	0	0	0	0	0	0	0	0	0	0	0	0	0	0
121012	13:47:32	10016	pm.simpleEngRight	blank.simpleEng	2	0	2300	1	0	13:47:32	1022028	0	0	0	0	0	0	0	0	0	0	0	0	0	0	0	0	0
121012	13:47:32	10016	pm.simpleEngRight	pm.simpleEng	2	57	249	0	0	13:47:32	1022295	0	0	0	0	0	0	0	0	0	0	0	0	0	0	0	0	0
121012	13:47:32	10016	pm.simpleEngRight	blank.simpleEng	2	0	2200	1	0	13:47:32	1024507	0	0	0	0	0	0	0	0	0	0	0	0	0	0	0	0	0
121012	13:47:32	10016	pm.simpleEngRight	pm.simpleEng	2	57	1306	0	0	13:47:32	1025840	0	0	0	0	0	0	0	0	0	0	0	0	0	0	0	0	0
121012	13:47:32	10016	pm.simpleEngRight	blank.simpleEng	2	0	2000	1	0	13:47:32	1027852	0	0	0	0	0	0	0	0	0	0	0	0	0	0	0	0	0
121012	13:47:32	10016	pm.simpleEngRight	pm.simpleEng	2	57	280	0	0	13:47:32	1028159	0	0	0	0	0	0	0	0	0	0	0	0	0	0	0	0	0
121012	13:47:32	10016	pm.simpleEngRight	blank.simpleEng	2	0	1800	1	0	13:47:32	1029972	0	0	0	0	0	0	0	0	0	0	0	0	0	0	0	0	0
121012	13:47:32	10016	pm.simpleEngRight	pm.simpleEng	2	57	257	0	0	13:47:32	1030252	0	0	0	0	0	0	0	0	0	0	0	0	0	0	0	0	0
121012	13:47:32	10016	pm.simpleEngRight	blank.simpleEng	2	0	2100	1	0	13:47:32	1032371	0	0	0	0	0	0	0	0	0	0	0	0	0	0	0	0	0
121012	13:47:32	10016	pm.simpleEngRight	pm.simpleEng	2	57	242	0	0	13:47:32	1032637	0	0	0	0	0	0	0	0	0	0	0	0	0	0	0	0	0
121012	13:47:32	10016	pm.simpleEngRight	blank.simpleEng	2	0	1500	1	0	13:47:32	1034157	0	0	0	0	0	0	0	0	0	0	0	0	0	0	0	0	0
121012	13:47:32	10016	pm.simpleEngRight	pm.simpleEng	2	57	392	0	0	13:47:32	1034570	0	0	0	0	0	0	0	0	0	0	0	0	0	0	0	0	0
121012	13:47:32	10016	Trial2BackEng	N	3	0	1000	1	1	13:47:32	1068449	0	0	0	0	0	0	0	0	0	0	0	0	0	0	0	0	0
121012	13:47:32	10016	Trial2BackEng	N	3	0	1000	1	2	13:47:32	1069955	0	0	0	0	0	0	0	0	0	0	0	0	0	0	0	0	0
121012	13:47:32	10016	Trial2BackEng	N	3	0	1000	1	3	13:47:32	1071462	0	0	0	0	0	0	0	0	0	0	0	0	0	0	0	0	0
121012	13:47:32	10016	Trial2BackEng	N	3	0	1000	1	4	13:47:32	1072968	0	0	0	0	0	0	0	0	0	0	0	0	0	0	0	0	0
121012	13:47:32	10016	Trial2BackEng	N	3	0	1000	1	5	13:47:32	1074474	0	0	0	0	0	0	0	0	0	0	0	0	0	0	0	0	0
121012	13:47:32	10016	Trial2BackEng	N	3	0	1000	1	6	13:47:32	1075980	0	0	0	0	0	0	0	0	0	0	0	0	0	0	0	0	0
121012	13:47:32	10016	Trial2BackEng	N	3	0	1000	1	7	13:47:32	1077486	0	0	0	0	0	0	0	0	0	0	0	0	0	0	0	0	0
121012	13:47:32	10016	Trial2BackEng	N	3	0	1000	1	8	13:47:32	1078992	0	0	0	0	0	0	0	0	0	0	0	0	0	0	0	0	0
121012	13:47:32	10016	Trial2BackEng	Y	3	57	936	1	9	13:47:32	1080445	0	0	0	0	0	0	0	0	0	0	0	0	0	0	0	0	0
121012	13:47:32	10016	Trial2BackEng	N	3	0	1000	1	10	13:47:32	1082004	0	0	0	0	0	0	0	0	0	0	0	0	0	0	0	0	0
121012	13:47:32	10016	Trial2BackEng	N	3	0	1000	1	11	13:47:32	1083510	0	0	0	0	0	0	0	0	0	0	0	0	0	0	0	0	0
121012	13:47:32	10016	Trial2BackEng	N	3	0	1000	1	12	13:47:32	1085016	0	0	0	0	0	0	0	0	0	0	0	0	0	0	0	0	0
121012	13:47:32	10016	Trial2BackEng	Y	3	57	432	1	13	13:47:32	1085962	0	0	0	0	0	0	0	0	0	0	0	0	0	0	0	0	0
121012	13:47:32	10016	Trial2BackEng	N	3	0	1000	1	14	13:47:32	1088028	0	0	0	0	0	0	0	0	0	0	0	0	0	0	0	0	0
121012	13:47:32	10016	Trial2BackEng	N	3	0	1000	1	15	13:47:32	1089534	0	0	0	0	0	0	0	0	0	0	0	0	0	0	0	0	0
121012	13:47:32	10016	Trial2BackEng	N	3	0	1000	1	16	13:47:32	1091040	0	0	0	0	0	0	0	0	0	0	0	0	0	0	0	0	0
121012	13:47:32	10016	Trial2BackEng	N	3	0	1000	1	17	13:47:32	1092546	0	0	0	0	0	0	0	0	0	0	0	0	0	0	0	0	0
121012	13:47:32	10016	Trial2BackEng	N	3	0	1000	1	18	13:47:32	1094052	0	0	0	0	0	0	0	0	0	0	0	0	0	0	0	0	0
121012	13:47:32	10016	Trial2BackEng	Y	3	57	515	1	19	13:47:32	1095079	0	0	0	0	0	0	0	0	0	0	0	0	0	0	0	0	0
121012	13:47:32	10016	Trial2BackEng	N	3	0	1000	1	20	13:47:32	1097064	0	0	0	0	0	0	0	0	0	0	0	0	0	0	0	0	0
121012	13:47:32	10016	Trial2BackEng	N	3	0	1000	1	21	13:47:32	1098571	0	0	0	0	0	0	0	0	0	0	0	0	0	0	0	0	0
121012	13:47:32	10016	Trial2BackEng	N	3	0	1000	1	22	13:47:32	1100077	0	0	0	0	0	0	0	0	0	0	0	0	0	0	0	0	0
121012	13:47:32	10016	Trial2BackEng	N	3	0	1000	1	23	13:47:32	1101583	0	0	0	0	0	0	0	0	0	0	0	0	0	0	0	0	0
121012	13:47:32	10016	Trial2BackEng	Y	3	57	425	1	24	13:47:32	1102515	0	0	0	0	0	0	0	0	0	0	0	0	0	0	0	0	0
121012	13:47:32	10016	Trial2BackEng	N	3	0	1000	1	25	13:47:32	1104595	0	0	0	0	0	0	0	0	0	0	0	0	0	0	0	0	0
121012	13:47:32	10016	Trial2BackEng	N	3	0	1000	1	26	13:47:32	1106101	0	0	0	0	0	0	0	0	0	0	0	0	0	0	0	0	0
121012	13:47:32	10016	Trial2BackEng	N	3	0	1000	1	27	13:47:32	1107607	0	0	0	0	0	0	0	0	0	0	0	0	0	0	0	0	0
121012	13:47:32	10016	Trial2BackEng	N	3	0	1000	1	28	13:47:32	1109113	0	0	0	0	0	0	0	0	0	0	0	0	0	0	0	0	0
121012	13:47:32	10016	Trial2BackEng	N	3	0	1000	1	29	13:47:32	1110619	0	0	0	0	0	0	0	0	0	0	0	0	0	0	0	0	0
121012	13:47:32	10016	Trial2BackEng	N	3	0	1000	1	30	13:47:32	1112125	0	0	0	0	0	0	0	0	0	0	0	0	0	0	0	0	0
121012	13:47:32	10016	Trial2BackEng	Y	3	0	1000	0	30	13:47:32	1113631	0	0	0	0	0	0	0	0	0	0	0	0	0	0	0	0	0
121012	13:47:32	10016	Trial2BackEng	N	3	0	1000	1	31	13:47:32	1115137	0	0	0	0	0	0	0	0	0	0	0	0	0	0	0	0	0
121012	13:47:32	10016	Trial2BackEng	N	3	0	1000	1	32	13:47:32	1116643	0	0	0	0	0	0	0	0	0	0	0	0	0	0	0	0	0
121012	13:47:32	10016	Trial2BackEng	N	3	0	1000	1	33	13:47:32	1118163	0	0	0	0	0	0	0	0	0	0	0	0	0	0	0	0	0
121012	13:47:32	10016	Trial2BackEng	Y	3	57	533	1	34	13:47:32	1119216	0	0	0	0	0	0	0	0	0	0	0	0	0	0	0	0	0
121012	13:47:32	10016	Trial2BackEng	N	3	0	1000	1	35	13:47:32	1121175	0	0	0	0	0	0	0	0	0	0	0	0	0	0	0	0	0
121012	13:47:32	10016	Trial2BackEng	N	3	0	1000	1	36	13:47:32	1122681	0	0	0	0	0	0	0	0	0	0	0	0	0	0	0	0	0
121012	13:47:32	10016	Trial2BackEng	N	3	0	1000	1	37	13:47:32	1124200	0	0	0	0	0	0	0	0	0	0	0	0	0	0	0	0	0
121012	13:47:32	10016	Trial2BackEng	N	3	0	1000	1	38	13:47:32	1125719	0	0	0	0	0	0	0	0	0	0	0	0	0	0	0	0	0
121012	13:47:32	10016	Trial2BackEng	N	3	0	1000	1	39	13:47:32	1127225	0	0	0	0	0	0	0	0	0	0	0	0	0	0	0	0	0
121012	13:47:32	10016	Trial2BackEng	N	3	0	1000	1	40	13:47:32	1128732	0	0	0	0	0	0	0	0	0	0	0	0	0	0	0	0	0
121012	13:47:32	10016	Trial2BackEng	Y	3	57	475	1	41	13:47:32	1129718	0	0	0	0	0	0	0	0	0	0	0	0	0	0	0	0	0
121012	13:47:32	10016	Trial2BackEng	N	3	0	1000	1	42	13:47:32	1131744	0	0	0	0	0	0	0	0	0	0	0	0	0	0	0	0	0
121012	13:47:32	10016	Trial2BackEng	N	3	0	1000	1	43	13:47:32	1133250	0	0	0	0	0	0	0	0	0	0	0	0	0	0	0	0	0
121012	13:47:32	10016	Trial2BackEng	N	3	0	1000	1	44	13:47:32	1134756	0	0	0	0	0	0	0	0	0	0	0	0	0	0	0	0	0
121012	13:47:32	10016	Trial2BackEng	N	3	0	1000	1	45	13:47:32	1136262	0	0	0	0	0	0	0	0	0	0	0	0	0	0	0	0	0
121012	13:47:32	10016	Trial2BackEng	Y	3	57	545	1	46	13:47:32	1137315	0	0	0	0	0	0	0	0	0	0	0	0	0	0	0	0	0
121012	13:47:32	10016	Trial2BackEng	N	3	0	1000	1	47	13:47:32	1139274	0	0	0	0	0	0	0	0	0	0	0	0	0	0	0	0	0
121012	13:47:32	10016	Trial2BackEng	N	3	0	1000	1	48	13:47:32	1140781	0	0	0	0	0	0	0	0	0	0	0	0	0	0	0	0	0
121012	13:47:32	10016	Trial2BackEng	N	3	0	1000	1	49	13:47:32	1142286	0	0	0	0	0	0	0	0	0	0	0	0	0	0	0	0	0
121012	13:47:32	10016	Trial2BackEng	N	3	0	1000	1	50	13:47:32	1143806	0	0	0	0	0	0	0	0	0	0	0	0	0	0	0	0	0
121012	13:47:32	10016	Trial2BackEng	N	3	0	1000	1	51	13:47:32	1145311	0	0	0	0	0	0	0	0	0	0	0	0	0	0	0	0	0
121012	13:47:32	10016	Trial2BackEng	Y	3	57	439	1	52	13:47:32	1146271	0	0	0	0	0	0	0	0	0	0	0	0	0	0	0	0	0
121012	13:47:32	10016	Trial2BackEng	N	3	0	1000	1	53	13:47:32	1148324	0	0	0	0	0	0	0	0	0	0	0	0	0	0	0	0	0
121012	13:47:32	10016	Trial2BackEng	N	3	0	1000	1	54	13:47:32	1149843	0	0	0	0	0	0	0	0	0	0	0	0	0	0	0	0	0
121012	13:47:32	10016	Trial2BackEng	N	3	0	1000	1	55	13:47:32	1151363	0	0	0	0	0	0	0	0	0	0	0	0	0	0	0	0	0
121012	13:47:32	10016	Trial2BackEng	N	3	0	1000	1	56	13:47:32	1152869	0	0	0	0	0	0	0	0	0	0	0	0	0	0	0	0	0
121012	13:47:32	10016	Trial2BackEng	N	3	0	1000	1	57	13:47:32	1154388	0	0	0	0	0	0	0	0	0	0	0	0	0	0	0	0	0
121012	13:47:32	10016	Trial2BackEng	N	3	0	1000	1	58	13:47:32	1155894	0	0	0	0	0	0	0	0	0	0	0	0	0	0	0	0	0
121012	13:47:32	10016	Trial2BackEng	Y	3	57	448	1	59	13:47:32	1156853	0	0	0	0	0	0	0	0	0	0	0	0	0	0	0	0	0
121012	13:47:32	10016	Trial2BackEng	N	3	0	1000	1	60	13:47:32	1158906	0	0	0	0	0	0	0	0	0	0	0	0	0	0	0	0	0
121012	13:47:32	10016	Trial2BackEng	N	3	0	1000	1	61	13:47:32	1160426	0	0	0	0	0	0	0	0	0	0	0	0	0	0	0	0	0
121012	13:47:32	10016	Trial2BackEng	Y	3	57	860	1	62	13:47:32	1161798	0	0	0	0	0	0	0	0	0	0	0	0	0	0	0	0	0
121012	13:47:32	10016	Trial2BackEng	N	3	0	1000	1	63	13:47:32	1163438	0	0	0	0	0	0	0	0	0	0	0	0	0	0	0	0	0
121012	13:47:32	10016	Trial2BackEng	N	3	0	1000	1	64	13:47:32	1164944	0	0	0	0	0	0	0	0	0	0	0	0	0	0	0	0	0
121012	13:47:32	10016	Trial2BackEng	N	3	0	1000	1	65	13:47:32	1166449	0	0	0	0	0	0	0	0	0	0	0	0	0	0	0	0	0
121012	13:47:32	10016	Trial2BackEng	N	3	0	1000	1	66	13:47:32	1167956	0	0	0	0	0	0	0	0	0	0	0	0	0	0	0	0	0
121012	13:47:32	10016	Trial2BackEng	N	3	0	1000	1	67	13:47:32	1169462	0	0	0	0	0	0	0	0	0	0	0	0	0	0	0	0	0
121012	13:47:32	10016	Trial2BackEng	N	3	0	1000	1	68	13:47:32	1170968	0	0	0	0	0	0	0	0	0	0	0	0	0	0	0	0	0
121012	13:47:32	10016	Trial2BackEng	N	3	0	1000	1	69	13:47:32	1172474	0	0	0	0	0	0	0	0	0	0	0	0	0	0	0	0	0
121012	13:47:32	10016	Trial2BackEng	N	3	0	1000	1	70	13:47:32	1173993	0	0	0	0	0	0	0	0	0	0	0	0	0	0	0	0	0
121012	13:47:32	10016	Trial2BackEng	N	3	0	1000	1	71	13:47:32	1175499	0	0	0	0	0	0	0	0	0	0	0	0	0	0	0	0	0
121012	13:47:32	10016	Trial2BackEng	N	3	0	1000	1	72	13:47:32	1177005	0	0	0	0	0	0	0	0	0	0	0	0	0	0	0	0	0
121012	13:47:32	10016	Trial2BackEng	Y	3	57	392	1	73	13:47:32	1177912	0	0	0	0	0	0	0	0	0	0	0	0	0	0	0	0	0
121012	13:47:32	10016	Trial2BackEng	N	3	0	1000	1	74	13:47:32	1180017	0	0	0	0	0	0	0	0	0	0	0	0	0	0	0	0	0
121012	13:47:32	10016	Trial2BackEng	N	3	0	1000	1	75	13:47:32	1181524	0	0	0	0	0	0	0	0	0	0	0	0	0	0	0	0	0
121012	13:47:32	10016	Trial2BackEng	N	3	0	1000	1	76	13:47:32	1183030	0	0	0	0	0	0	0	0	0	0	0	0	0	0	0	0	0
121012	13:47:32	10016	Trial2BackEng	Y	3	57	544	1	77	13:47:32	1184083	0	0	0	0	0	0	0	0	0	0	0	0	0	0	0	0	0
121012	13:47:32	10016	Trial2BackEng	N	3	0	1000	1	78	13:47:32	1186042	0	0	0	0	0	0	0	0	0	0	0	0	0	0	0	0	0
121012	13:47:32	10016	Trial2BackEng	N	3	0	1000	1	79	13:47:32	1187548	0	0	0	0	0	0	0	0	0	0	0	0	0	0	0	0	0
121012	13:47:32	10016	Trial2BackEng	N	3	0	1000	1	80	13:47:32	1189067	0	0	0	0	0	0	0	0	0	0	0	0	0	0	0	0	0
121012	13:47:32	10016	Trial2BackEng	N	3	0	1000	1	81	13:47:32	1190573	0	0	0	0	0	0	0	0	0	0	0	0	0	0	0	0	0
121012	13:47:32	10016	Trial2BackEng	N	3	0	1000	1	82	13:47:32	1192079	0	0	0	0	0	0	0	0	0	0	0	0	0	0	0	0	0
121012	13:47:32	10016	Trial2BackEng	Y	3	57	774	1	83	13:47:32	1193373	0	0	0	0	0	0	0	0	0	0	0	0	0	0	0	0	0
121012	13:47:32	10016	Trial2BackEng	N	3	0	1000	1	84	13:47:32	1195091	0	0	0	0	0	0	0	0	0	0	0	0	0	0	0	0	0
121012	13:47:32	10016	Trial2BackEng	N	3	0	1000	1	85	13:47:32	1196597	0	0	0	0	0	0	0	0	0	0	0	0	0	0	0	0	0
121012	13:47:32	10016	Trial2BackEng	N	3	0	1000	1	86	13:47:32	1198117	0	0	0	0	0	0	0	0	0	0	0	0	0	0	0	0	0
121012	13:47:32	10016	Trial2BackEng	N	3	0	1000	1	87	13:47:32	1199623	0	0	0	0	0	0	0	0	0	0	0	0	0	0	0	0	0
121012	13:47:32	10016	Trial2BackEng	N	3	0	1000	1	88	13:47:32	1201129	0	0	0	0	0	0	0	0	0	0	0	0	0	0	0	0	0
121012	13:47:32	10016	Trial2BackEng	N	3	0	1000	1	89	13:47:32	1202635	0	0	0	0	0	0	0	0	0	0	0	0	0	0	0	0	0
121012	13:47:32	10016	Trial2BackEng	N	3	0	1000	1	90	13:47:32	1204141	0	0	0	0	0	0	0	0	0	0	0	0	0	0	0	0	0
121012	13:47:32	10016	Trial2BackEng	N	3	0	1000	1	91	13:47:32	1205647	0	0	0	0	0	0	0	0	0	0	0	0	0	0	0	0	0
121012	13:47:32	10016	Trial2BackEng	N	3	0	1000	1	92	13:47:32	1207153	0	0	0	0	0	0	0	0	0	0	0	0	0	0	0	0	0
121012	13:47:32	10016	Trial2BackEng	Y	3	57	436	1	93	13:47:32	1208099	0	0	0	0	0	0	0	0	0	0	0	0	0	0	0	0	0
121012	13:47:32	10016	Trial2BackEng	N	3	0	1000	1	94	13:47:32	1210165	0	0	0	0	0	0	0	0	0	0	0	0	0	0	0	0	0
121012	13:47:32	10016	Trial2BackEng	N	3	0	1000	1	95	13:47:32	1211671	0	0	0	0	0	0	0	0	0	0	0	0	0	0	0	0	0
121012	13:47:32	10016	Trial2BackEng	N	3	0	1000	1	96	13:47:32	1213177	0	0	0	0	0	0	0	0	0	0	0	0	0	0	0	0	0
121012	13:47:32	10016	Trial2BackEng	N	3	0	1000	1	97	13:47:32	1214697	0	0	0	0	0	0	0	0	0	0	0	0	0	0	0	0	0
121012	13:47:32	10016	Trial2BackEng	N	3	0	1000	1	98	13:47:32	1216203	0	0	0	0	0	0	0	0	0	0	0	0	0	0	0	0	0
121012	13:47:32	10016	Trial2BackEng	N	3	0	1000	1	99	13:47:32	1217709	0	0	0	0	0	0	0	0	0	0	0	0	0	0	0	0	0
121012	13:47:32	10016	Trial2BackEng	N	3	0	1000	1	100	13:47:32	1219215	0	0	0	0	0	0	0	0	0	0	0	0	0	0	0	0	0
121012	13:47:32	10016	Trial2BackEng	N	3	0	1000	1	101	13:47:32	1220721	0	0	0	0	0	0	0	0	0	0	0	0	0	0	0	0	0
121012	13:47:32	10016	Trial2BackEng	Y	3	57	307	1	102	13:47:32	1221547	0	0	0	0	0	0	0	0	0	0	0	0	0	0	0	0	0
121012	13:47:32	10016	Trial2BackEng	N	3	0	1000	1	103	13:47:32	1223733	0	0	0	0	0	0	0	0	0	0	0	0	0	0	0	0	0
121012	13:47:32	10016	Trial2BackEng	N	3	0	1000	1	104	13:47:32	1225239	0	0	0	0	0	0	0	0	0	0	0	0	0	0	0	0	0
121012	13:47:32	10016	Trial2BackEng	N	3	0	1000	1	105	13:47:32	1226745	0	0	0	0	0	0	0	0	0	0	0	0	0	0	0	0	0
121012	13:47:32	10016	Trial2BackEng	N	3	0	1000	1	106	13:47:32	1228251	0	0	0	0	0	0	0	0	0	0	0	0	0	0	0	0	0
121012	13:47:32	10016	Trial2BackEng	Y	3	57	777	1	107	13:47:32	1229544	0	0	0	0	0	0	0	0	0	0	0	0	0	0	0	0	0
121012	13:47:32	10016	Trial2BackEng	N	3	0	1000	1	108	13:47:32	1231264	0	0	0	0	0	0	0	0	0	0	0	0	0	0	0	0	0
121012	13:47:32	10016	Trial2BackEng	N	3	0	1000	1	109	13:47:32	1232769	0	0	0	0	0	0	0	0	0	0	0	0	0	0	0	0	0
121012	13:47:32	10016	Trial2BackEng	N	3	0	1000	1	110	13:47:32	1234276	0	0	0	0	0	0	0	0	0	0	0	0	0	0	0	0	0
121012	13:47:32	10016	Trial2BackEng	Y	3	57	545	1	111	13:47:32	1235328	0	0	0	0	0	0	0	0	0	0	0	0	0	0	0	0	0
121012	13:47:32	10016	Trial2BackEng	N	3	0	1000	1	112	13:47:32	1237288	0	0	0	0	0	0	0	0	0	0	0	0	0	0	0	0	0
121012	13:47:32	10016	Trial2BackEng	N	3	0	1000	1	113	13:47:32	1238794	0	0	0	0	0	0	0	0	0	0	0	0	0	0	0	0	0
121012	13:47:32	10016	Trial2BackEng	N	3	0	1000	1	114	13:47:32	1240300	0	0	0	0	0	0	0	0	0	0	0	0	0	0	0	0	0
121012	13:47:32	10016	Trial2BackEng	N	3	0	1000	1	115	13:47:32	1241806	0	0	0	0	0	0	0	0	0	0	0	0	0	0	0	0	0
121012	13:47:32	10016	Trial2BackEng	N	3	0	1000	1	116	13:47:32	1243312	0	0	0	0	0	0	0	0	0	0	0	0	0	0	0	0	0
121012	13:47:32	10016	Trial2BackEng	Y	3	57	804	1	117	13:47:32	1244631	0	0	0	0	0	0	0	0	0	0	0	0	0	0	0	0	0
121012	13:47:32	10016	Trial2BackEng	N	3	0	1000	1	118	13:47:32	1246324	0	0	0	0	0	0	0	0	0	0	0	0	0	0	0	0	0
121012	13:47:32	10016	Trial2BackEng	N	3	0	1000	1	119	13:47:32	1247830	0	0	0	0	0	0	0	0	0	0	0	0	0	0	0	0	0
121012	13:47:32	10016	Trial2BackEng	N	3	0	1000	1	120	13:47:32	1249336	0	0	0	0	0	0	0	0	0	0	0	0	0	0	0	0	0
121012	13:47:32	10016	Trial2BackEng	Y	3	57	588	1	121	13:47:32	1250442	0	0	0	0	0	0	0	0	0	0	0	0	0	0	0	0	0
121012	13:47:32	10016	Trial3BackEng	NN	4	0	1000	1	121	13:47:32	1263863	0	0	0	0	0	0	0	0	0	0	0	0	0	0	0	0	0
121012	13:47:32	10016	Trial3BackEng	NN	4	0	1000	1	121	13:47:32	1265370	0	0	0	0	0	0	0	0	0	0	0	0	0	0	0	0	0
121012	13:47:32	10016	Trial3BackEng	NN	4	0	1000	1	121	13:47:32	1266876	0	0	0	0	0	0	0	0	0	0	0	0	0	0	0	0	0
121012	13:47:32	10016	Trial3BackEng	YY	4	57	600	1	121	13:47:32	1267995	0	0	0	0	0	0	0	0	0	0	0	0	0	0	0	0	0
121012	13:47:32	10016	Trial3BackEng	NN	4	0	1000	1	121	13:47:32	1269888	0	0	0	0	0	0	0	0	0	0	0	0	0	0	0	0	0
121012	13:47:32	10016	Trial3BackEng	NN	4	0	1000	1	121	13:47:32	1271407	0	0	0	0	0	0	0	0	0	0	0	0	0	0	0	0	0
121012	13:47:32	10016	Trial3BackEng	NN	4	0	1000	1	121	13:47:32	1272913	0	0	0	0	0	0	0	0	0	0	0	0	0	0	0	0	0
121012	13:47:32	10016	Trial3BackEng	NN	4	0	1000	1	121	13:47:32	1274419	0	0	0	0	0	0	0	0	0	0	0	0	0	0	0	0	0
121012	13:47:32	10016	Trial3BackEng	YY	4	57	576	1	121	13:47:32	1275512	0	0	0	0	0	0	0	0	0	0	0	0	0	0	0	0	0
121012	13:47:32	10016	Trial3BackEng	NN	4	0	1000	1	121	13:47:32	1277431	0	0	0	0	0	0	0	0	0	0	0	0	0	0	0	0	0
121012	13:47:32	10016	Trial3BackEng	NN	4	0	1000	1	121	13:47:32	1278951	0	0	0	0	0	0	0	0	0	0	0	0	0	0	0	0	0
121012	13:47:32	10016	Trial3BackEng	NN	4	0	1000	1	121	13:47:32	1280457	0	0	0	0	0	0	0	0	0	0	0	0	0	0	0	0	0
121012	13:47:32	10016	Trial3BackEng	NN	4	0	1000	1	121	13:47:32	1281963	0	0	0	0	0	0	0	0	0	0	0	0	0	0	0	0	0
121012	13:47:32	10016	Trial3BackEng	NN	4	0	1000	1	121	13:47:32	1283469	0	0	0	0	0	0	0	0	0	0	0	0	0	0	0	0	0
121012	13:47:32	10016	Trial3BackEng	NN	4	0	1000	1	121	13:47:32	1284975	0	0	0	0	0	0	0	0	0	0	0	0	0	0	0	0	0
121012	13:47:32	10016	Trial3BackEng	NN	4	0	1000	1	121	13:47:32	1286494	0	0	0	0	0	0	0	0	0	0	0	0	0	0	0	0	0
121012	13:47:32	10016	Trial3BackEng	YY	4	0	1000	0	121	13:47:32	1288000	0	0	0	0	0	0	0	0	0	0	0	0	0	0	0	0	0
121012	13:47:32	10016	Trial3BackEng	NN	4	0	1000	1	121	13:47:32	1289506	0	0	0	0	0	0	0	0	0	0	0	0	0	0	0	0	0
121012	13:47:32	10016	Trial3BackEng	NN	4	0	1000	1	121	13:47:32	1291012	0	0	0	0	0	0	0	0	0	0	0	0	0	0	0	0	0
121012	13:47:32	10016	Trial3BackEng	NN	4	0	1000	1	121	13:47:32	1292519	0	0	0	0	0	0	0	0	0	0	0	0	0	0	0	0	0
121012	13:47:32	10016	Trial3BackEng	NN	4	0	1000	1	121	13:47:32	1294025	0	0	0	0	0	0	0	0	0	0	0	0	0	0	0	0	0
121012	13:47:32	10016	Trial3BackEng	NN	4	0	1000	1	121	13:47:32	1295531	0	0	0	0	0	0	0	0	0	0	0	0	0	0	0	0	0
121012	13:47:32	10016	Trial3BackEng	YY	4	57	440	1	121	13:47:32	1296490	0	0	0	0	0	0	0	0	0	0	0	0	0	0	0	0	0
121012	13:47:32	10016	Trial3BackEng	NN	4	0	1000	1	121	13:47:32	1298543	0	0	0	0	0	0	0	0	0	0	0	0	0	0	0	0	0
121012	13:47:32	10016	Trial3BackEng	NN	4	0	1000	1	121	13:47:32	1300049	0	0	0	0	0	0	0	0	0	0	0	0	0	0	0	0	0
121012	13:47:32	10016	Trial3BackEng	NN	4	0	1000	1	121	13:47:32	1301555	0	0	0	0	0	0	0	0	0	0	0	0	0	0	0	0	0
121012	13:47:32	10016	Trial3BackEng	YY	4	57	496	1	121	13:47:32	1302568	0	0	0	0	0	0	0	0	0	0	0	0	0	0	0	0	0
121012	13:47:32	10016	Trial3BackEng	NN	4	0	1000	1	121	13:47:32	1304567	0	0	0	0	0	0	0	0	0	0	0	0	0	0	0	0	0
121012	13:47:32	10016	Trial3BackEng	NN	4	0	1000	1	121	13:47:32	1306073	0	0	0	0	0	0	0	0	0	0	0	0	0	0	0	0	0
121012	13:47:32	10016	Trial3BackEng	NN	4	0	1000	1	121	13:47:32	1307579	0	0	0	0	0	0	0	0	0	0	0	0	0	0	0	0	0
121012	13:47:32	10016	Trial3BackEng	YY	4	57	487	1	121	13:47:32	1308579	0	0	0	0	0	0	0	0	0	0	0	0	0	0	0	0	0
121012	13:47:32	10016	Trial3BackEng	NN	4	0	1000	1	121	13:47:32	1310591	0	0	0	0	0	0	0	0	0	0	0	0	0	0	0	0	0
121012	13:47:32	10016	Trial3BackEng	NN	4	0	1000	1	121	13:47:32	1312097	0	0	0	0	0	0	0	0	0	0	0	0	0	0	0	0	0
121012	13:47:32	10016	Trial3BackEng	NN	4	0	1000	1	121	13:47:32	1313603	0	0	0	0	0	0	0	0	0	0	0	0	0	0	0	0	0
121012	13:47:32	10016	Trial3BackEng	NN	4	0	1000	1	121	13:47:32	1315109	0	0	0	0	0	0	0	0	0	0	0	0	0	0	0	0	0
121012	13:47:32	10016	Trial3BackEng	NN	4	0	1000	1	121	13:47:32	1316615	0	0	0	0	0	0	0	0	0	0	0	0	0	0	0	0	0
121012	13:47:32	10016	Trial3BackEng	NN	4	0	1000	1	121	13:47:32	1318135	0	0	0	0	0	0	0	0	0	0	0	0	0	0	0	0	0
121012	13:47:32	10016	Trial3BackEng	NN	4	0	1000	1	121	13:47:32	1319641	0	0	0	0	0	0	0	0	0	0	0	0	0	0	0	0	0
121012	13:47:32	10016	Trial3BackEng	NN	4	0	1000	1	121	13:47:32	1321147	0	0	0	0	0	0	0	0	0	0	0	0	0	0	0	0	0
121012	13:47:32	10016	Trial3BackEng	NN	4	0	1000	1	121	13:47:32	1322653	0	0	0	0	0	0	0	0	0	0	0	0	0	0	0	0	0
121012	13:47:32	10016	Trial3BackEng	NN	4	0	1000	1	121	13:47:32	1324159	0	0	0	0	0	0	0	0	0	0	0	0	0	0	0	0	0
121012	13:47:32	10016	Trial3BackEng	YY	4	57	419	1	121	13:47:32	1325092	0	0	0	0	0	0	0	0	0	0	0	0	0	0	0	0	0
121012	13:47:32	10016	Trial3BackEng	NN	4	0	1000	1	121	13:47:32	1327171	0	0	0	0	0	0	0	0	0	0	0	0	0	0	0	0	0
121012	13:47:32	10016	Trial3BackEng	NN	4	0	1000	1	121	13:47:32	1328677	0	0	0	0	0	0	0	0	0	0	0	0	0	0	0	0	0
121012	13:47:32	10016	Trial3BackEng	NN	4	0	1000	1	121	13:47:32	1330183	0	0	0	0	0	0	0	0	0	0	0	0	0	0	0	0	0
121012	13:47:32	10016	Trial3BackEng	NN	4	0	1000	1	121	13:47:32	1331689	0	0	0	0	0	0	0	0	0	0	0	0	0	0	0	0	0
121012	13:47:32	10016	Trial3BackEng	YY	4	57	681	1	121	13:47:32	1332889	0	0	0	0	0	0	0	0	0	0	0	0	0	0	0	0	0
121012	13:47:32	10016	Trial3BackEng	NN	4	0	1000	1	121	13:47:32	1334701	0	0	0	0	0	0	0	0	0	0	0	0	0	0	0	0	0
121012	13:47:32	10016	Trial3BackEng	NN	4	0	1000	1	121	13:47:32	1336208	0	0	0	0	0	0	0	0	0	0	0	0	0	0	0	0	0
121012	13:47:32	10016	Trial3BackEng	NN	4	0	1000	1	121	13:47:32	1337713	0	0	0	0	0	0	0	0	0	0	0	0	0	0	0	0	0
121012	13:47:32	10016	Trial3BackEng	NN	4	0	1000	1	121	13:47:32	1339220	0	0	0	0	0	0	0	0	0	0	0	0	0	0	0	0	0
121012	13:47:32	10016	Trial3BackEng	NN	4	0	1000	1	121	13:47:32	1340726	0	0	0	0	0	0	0	0	0	0	0	0	0	0	0	0	0
121012	13:47:32	10016	Trial3BackEng	YY	4	57	412	1	121	13:47:32	1341659	0	0	0	0	0	0	0	0	0	0	0	0	0	0	0	0	0
121012	13:47:32	10016	Trial3BackEng	NN	4	0	1000	1	121	13:47:32	1343738	0	0	0	0	0	0	0	0	0	0	0	0	0	0	0	0	0
121012	13:47:32	10016	Trial3BackEng	NN	4	0	1000	1	121	13:47:32	1345244	0	0	0	0	0	0	0	0	0	0	0	0	0	0	0	0	0
121012	13:47:32	10016	Trial3BackEng	NN	4	0	1000	1	121	13:47:32	1346750	0	0	0	0	0	0	0	0	0	0	0	0	0	0	0	0	0
121012	13:47:32	10016	Trial3BackEng	NN	4	0	1000	1	121	13:47:32	1348256	0	0	0	0	0	0	0	0	0	0	0	0	0	0	0	0	0
121012	13:47:32	10016	Trial3BackEng	NN	4	0	1000	1	121	13:47:32	1349775	0	0	0	0	0	0	0	0	0	0	0	0	0	0	0	0	0
121012	13:47:32	10016	Trial3BackEng	NN	4	0	1000	1	121	13:47:32	1351375	0	0	0	0	0	0	0	0	0	0	0	0	0	0	0	0	0
121012	13:47:32	10016	Trial3BackEng	YY	4	57	435	1	121	13:47:32	1352321	0	0	0	0	0	0	0	0	0	0	0	0	0	0	0	0	0
121012	13:47:32	10016	Trial3BackEng	NN	4	0	1000	1	121	13:47:32	1354387	0	0	0	0	0	0	0	0	0	0	0	0	0	0	0	0	0
121012	13:47:32	10016	Trial3BackEng	NN	4	0	1000	1	121	13:47:32	1355893	0	0	0	0	0	0	0	0	0	0	0	0	0	0	0	0	0
121012	13:47:32	10016	Trial3BackEng	NN	4	0	1000	1	121	13:47:32	1357412	0	0	0	0	0	0	0	0	0	0	0	0	0	0	0	0	0
121012	13:47:32	10016	Trial3BackEng	YY	4	57	477	1	121	13:47:32	1358398	0	0	0	0	0	0	0	0	0	0	0	0	0	0	0	0	0
121012	13:47:32	10016	Trial3BackEng	NN	4	0	1000	1	121	13:47:32	1360424	0	0	0	0	0	0	0	0	0	0	0	0	0	0	0	0	0
121012	13:47:32	10016	Trial3BackEng	NN	4	0	1000	1	121	13:47:32	1361930	0	0	0	0	0	0	0	0	0	0	0	0	0	0	0	0	0
121012	13:47:32	10016	Trial3BackEng	NN	4	0	1000	1	121	13:47:32	1363437	0	0	0	0	0	0	0	0	0	0	0	0	0	0	0	0	0
121012	13:47:32	10016	Trial3BackEng	NN	4	0	1000	1	121	13:47:32	1364943	0	0	0	0	0	0	0	0	0	0	0	0	0	0	0	0	0
121012	13:47:32	10016	Trial3BackEng	NN	4	0	1000	1	121	13:47:32	1366449	0	0	0	0	0	0	0	0	0	0	0	0	0	0	0	0	0
121012	13:47:32	10016	Trial3BackEng	NN	4	0	1000	1	121	13:47:32	1367955	0	0	0	0	0	0	0	0	0	0	0	0	0	0	0	0	0
121012	13:47:32	10016	Trial3BackEng	NN	4	0	1000	1	121	13:47:32	1369461	0	0	0	0	0	0	0	0	0	0	0	0	0	0	0	0	0
121012	13:47:32	10016	Trial3BackEng	NN	4	0	1000	1	121	13:47:32	1370967	0	0	0	0	0	0	0	0	0	0	0	0	0	0	0	0	0
121012	13:47:32	10016	Trial3BackEng	NN	4	0	1000	1	121	13:47:32	1372473	0	0	0	0	0	0	0	0	0	0	0	0	0	0	0	0	0
121012	13:47:32	10016	Trial3BackEng	YY	4	57	696	1	121	13:47:32	1373686	0	0	0	0	0	0	0	0	0	0	0	0	0	0	0	0	0
121012	13:47:32	10016	Trial3BackEng	NN	4	0	1000	1	121	13:47:32	1375485	0	0	0	0	0	0	0	0	0	0	0	0	0	0	0	0	0
121012	13:47:32	10016	Trial3BackEng	NN	4	0	1000	1	121	13:47:32	1376991	0	0	0	0	0	0	0	0	0	0	0	0	0	0	0	0	0
121012	13:47:32	10016	Trial3BackEng	NN	4	0	1000	1	121	13:47:32	1378497	0	0	0	0	0	0	0	0	0	0	0	0	0	0	0	0	0
121012	13:47:32	10016	Trial3BackEng	YY	4	57	496	1	121	13:47:32	1379510	0	0	0	0	0	0	0	0	0	0	0	0	0	0	0	0	0
121012	13:47:32	10016	Trial3BackEng	NN	4	0	1000	1	121	13:47:32	1381509	0	0	0	0	0	0	0	0	0	0	0	0	0	0	0	0	0
121012	13:47:32	10016	Trial3BackEng	NN	4	0	1000	1	121	13:47:32	1383029	0	0	0	0	0	0	0	0	0	0	0	0	0	0	0	0	0
121012	13:47:32	10016	Trial3BackEng	NN	4	0	1000	1	121	13:47:32	1384535	0	0	0	0	0	0	0	0	0	0	0	0	0	0	0	0	0
121012	13:47:32	10016	Trial3BackEng	NN	4	0	1000	1	121	13:47:32	1386041	0	0	0	0	0	0	0	0	0	0	0	0	0	0	0	0	0
121012	13:47:32	10016	Trial3BackEng	NN	4	0	1000	1	121	13:47:32	1387547	0	0	0	0	0	0	0	0	0	0	0	0	0	0	0	0	0
121012	13:47:32	10016	Trial3BackEng	YY	4	57	598	1	121	13:47:32	1388653	0	0	0	0	0	0	0	0	0	0	0	0	0	0	0	0	0
121012	13:47:32	10016	Trial3BackEng	NN	4	0	1000	1	121	13:47:32	1390559	0	0	0	0	0	0	0	0	0	0	0	0	0	0	0	0	0
121012	13:47:32	10016	Trial3BackEng	NN	4	0	1000	1	121	13:47:32	1392065	0	0	0	0	0	0	0	0	0	0	0	0	0	0	0	0	0
121012	13:47:32	10016	Trial3BackEng	NN	4	0	1000	1	121	13:47:32	1393571	0	0	0	0	0	0	0	0	0	0	0	0	0	0	0	0	0
121012	13:47:32	10016	Trial3BackEng	NN	4	0	1000	1	121	13:47:32	1395077	0	0	0	0	0	0	0	0	0	0	0	0	0	0	0	0	0
121012	13:47:32	10016	Trial3BackEng	NN	4	0	1000	1	121	13:47:32	1396583	0	0	0	0	0	0	0	0	0	0	0	0	0	0	0	0	0
121012	13:47:32	10016	Trial3BackEng	NN	4	0	1000	1	121	13:47:32	1398089	0	0	0	0	0	0	0	0	0	0	0	0	0	0	0	0	0
121012	13:47:32	10016	Trial3BackEng	NN	4	0	1000	1	121	13:47:32	1399608	0	0	0	0	0	0	0	0	0	0	0	0	0	0	0	0	0
121012	13:47:32	10016	Trial3BackEng	NN	4	0	1000	1	121	13:47:32	1401115	0	0	0	0	0	0	0	0	0	0	0	0	0	0	0	0	0
121012	13:47:32	10016	Trial3BackEng	NN	4	0	1000	1	121	13:47:32	1402634	0	0	0	0	0	0	0	0	0	0	0	0	0	0	0	0	0
121012	13:47:32	10016	Trial3BackEng	YY	4	0	1000	0	121	13:47:32	1404140	0	0	0	0	0	0	0	0	0	0	0	0	0	0	0	0	0
121012	13:47:32	10016	Trial3BackEng	NN	4	0	1000	1	121	13:47:32	1405646	0	0	0	0	0	0	0	0	0	0	0	0	0	0	0	0	0
121012	13:47:32	10016	Trial3BackEng	NN	4	0	1000	1	121	13:47:32	1407152	0	0	0	0	0	0	0	0	0	0	0	0	0	0	0	0	0
121012	13:47:32	10016	Trial3BackEng	NN	4	0	1000	1	121	13:47:32	1408658	0	0	0	0	0	0	0	0	0	0	0	0	0	0	0	0	0
121012	13:47:32	10016	Trial3BackEng	NN	4	0	1000	1	121	13:47:32	1410164	0	0	0	0	0	0	0	0	0	0	0	0	0	0	0	0	0
121012	13:47:32	10016	Trial3BackEng	NN	4	0	1000	1	121	13:47:32	1411670	0	0	0	0	0	0	0	0	0	0	0	0	0	0	0	0	0
121012	13:47:32	10016	Trial3BackEng	NN	4	0	1000	1	121	13:47:32	1413176	0	0	0	0	0	0	0	0	0	0	0	0	0	0	0	0	0
121012	13:47:32	10016	Trial3BackEng	NN	4	0	1000	1	121	13:47:32	1414682	0	0	0	0	0	0	0	0	0	0	0	0	0	0	0	0	0
121012	13:47:32	10016	Trial3BackEng	NN	4	0	1000	1	121	13:47:32	1416188	0	0	0	0	0	0	0	0	0	0	0	0	0	0	0	0	0
121012	13:47:32	10016	Trial3BackEng	YY	4	57	595	1	121	13:47:32	1417295	0	0	0	0	0	0	0	0	0	0	0	0	0	0	0	0	0
121012	13:47:32	10016	Trial3BackEng	NN	4	0	1000	1	121	13:47:32	1419201	0	0	0	0	0	0	0	0	0	0	0	0	0	0	0	0	0
121012	13:47:32	10016	Trial3BackEng	NN	4	0	1000	1	121	13:47:32	1420707	0	0	0	0	0	0	0	0	0	0	0	0	0	0	0	0	0
121012	13:47:32	10016	Trial3BackEng	NN	4	0	1000	1	121	13:47:32	1422213	0	0	0	0	0	0	0	0	0	0	0	0	0	0	0	0	0
121012	13:47:32	10016	Trial3BackEng	NN	4	0	1000	1	121	13:47:32	1423732	0	0	0	0	0	0	0	0	0	0	0	0	0	0	0	0	0
121012	13:47:32	10016	Trial3BackEng	YY	4	57	604	1	121	13:47:32	1424852	0	0	0	0	0	0	0	0	0	0	0	0	0	0	0	0	0
121012	13:47:32	10016	Trial3BackEng	NN	4	0	1000	1	121	13:47:32	1426744	0	0	0	0	0	0	0	0	0	0	0	0	0	0	0	0	0
121012	13:47:32	10016	Trial3BackEng	NN	4	0	1000	1	121	13:47:32	1428250	0	0	0	0	0	0	0	0	0	0	0	0	0	0	0	0	0
121012	13:47:32	10016	Trial3BackEng	NN	4	0	1000	1	121	13:47:32	1429756	0	0	0	0	0	0	0	0	0	0	0	0	0	0	0	0	0
121012	13:47:32	10016	Trial3BackEng	YY	4	57	451	1	121	13:47:32	1430716	0	0	0	0	0	0	0	0	0	0	0	0	0	0	0	0	0
121012	13:47:32	10016	Trial3BackEng	NN	4	0	1000	1	121	13:47:32	1432769	0	0	0	0	0	0	0	0	0	0	0	0	0	0	0	0	0
121012	13:47:32	10016	Trial3BackEng	NN	4	0	1000	1	121	13:47:32	1434274	0	0	0	0	0	0	0	0	0	0	0	0	0	0	0	0	0
121012	13:47:32	10016	Trial3BackEng	NN	4	0	1000	1	121	13:47:32	1435780	0	0	0	0	0	0	0	0	0	0	0	0	0	0	0	0	0
121012	13:47:32	10016	Trial3BackEng	NN	4	0	1000	1	121	13:47:32	1437287	0	0	0	0	0	0	0	0	0	0	0	0	0	0	0	0	0
121012	13:47:32	10016	Trial3BackEng	NN	4	0	1000	1	121	13:47:32	1438806	0	0	0	0	0	0	0	0	0	0	0	0	0	0	0	0	0
121012	13:47:32	10016	Trial3BackEng	YY	4	57	633	1	121	13:47:32	1439952	0	0	0	0	0	0	0	0	0	0	0	0	0	0	0	0	0
121012	13:47:32	10016	Trial3BackEng	NN	4	0	1000	1	121	13:47:32	1441818	0	0	0	0	0	0	0	0	0	0	0	0	0	0	0	0	0
121012	13:47:32	10016	Trial3BackEng	NN	4	0	1000	1	121	13:47:32	1443324	0	0	0	0	0	0	0	0	0	0	0	0	0	0	0	0	0
121012	13:47:32	10016	Trial3BackEng	NN	4	0	1000	1	121	13:47:32	1444830	0	0	0	0	0	0	0	0	0	0	0	0	0	0	0	0	0
121012	13:47:32	10016	Trial3BackEng	YY	4	57	609	1	121	13:47:32	1445950	0	0	0	0	0	0	0	0	0	0	0	0	0	0	0	0	0
121012	13:47:32	10016	Memory1R6mo	Score	5	M8	13893	0	121	13:47:32	1486067	0	0	0	0	0	0	0	0	0	0	0	0	0	0	0	0	0
121012	13:47:32	10016	Memory1R6mo	Score	5	M5	752	0	121	13:47:32	1486867	0	0	0	0	0	0	0	0	0	0	0	0	0	0	0	0	0
121012	13:47:32	10016	Memory1R6mo	Score	5	M4	256	0	121	13:47:32	1487173	0	0	0	0	0	0	0	0	0	0	0	0	0	0	0	0	0
121012	13:47:32	10016	Memory1R6mo	Score	5	M3	261	0	121	13:47:32	1487480	0	0	0	0	0	0	0	0	0	0	0	0	0	0	0	0	0
121012	13:47:32	10016	Memory1R6mo	Score	5	M2	275	0	121	13:47:32	1487800	0	0	0	0	0	0	0	0	0	0	0	0	0	0	0	0	0
121012	13:47:32	10016	Memory1R6mo	Score	5	M1	251	0	121	13:47:32	1488106	0	0	0	0	0	0	0	0	0	0	0	0	0	0	0	0	0
121012	13:47:32	10016	Memory1R6mo	Score	5	Done	2760	0	121	13:47:32	1490918	0	0	0	0	0	0	0	0	0	0	0	0	0	0	0	0	0
121012	13:47:32	10016	Memory2R6mo	Score2	5	11	13011	0	121	13:47:32	1523812	0	0	0	0	0	0	0	0	0	0	0	0	0	0	0	0	0
121012	13:47:32	10016	Memory2R6mo	Score2	5	22	222	0	121	13:47:32	1524079	0	0	0	0	0	0	0	0	0	0	0	0	0	0	0	0	0
121012	13:47:32	10016	Memory2R6mo	Score2	5	33	251	0	121	13:47:32	1524385	0	0	0	0	0	0	0	0	0	0	0	0	0	0	0	0	0
121012	13:47:32	10016	Memory2R6mo	Score2	5	44	417	0	121	13:47:32	1524851	0	0	0	0	0	0	0	0	0	0	0	0	0	0	0	0	0
121012	13:47:32	10016	Memory2R6mo	Score2	5	55	254	0	121	13:47:32	1525158	0	0	0	0	0	0	0	0	0	0	0	0	0	0	0	0	0
121012	13:47:32	10016	Memory2R6mo	Score2	5	66	268	0	121	13:47:32	1525478	0	0	0	0	0	0	0	0	0	0	0	0	0	0	0	0	0
121012	13:47:32	10016	Memory2R6mo	Score2	5	77	324	0	121	13:47:32	1525851	0	0	0	0	0	0	0	0	0	0	0	0	0	0	0	0	0
121012	13:47:32	10016	Memory2R6mo	Score2	5	88	230	0	121	13:47:32	1526131	0	0	0	0	0	0	0	0	0	0	0	0	0	0	0	0	0
121012	13:47:32	10016	Memory2R6mo	Score2	5	Done	1151	0	121	13:47:32	1527330	0	0	0	0	0	0	0	0	0	0	0	0	0	0	0	0	0
121012	13:47:32	10016	Memory3R6mo	Score3	5	111	10230	0	121	13:47:32	1557638	0	0	0	0	0	0	0	0	0	0	0	0	0	0	0	0	0
121012	13:47:32	10016	Memory3R6mo	Score3	5	222	235	0	121	13:47:32	1557918	0	0	0	0	0	0	0	0	0	0	0	0	0	0	0	0	0
121012	13:47:32	10016	Memory3R6mo	Score3	5	333	227	0	121	13:47:32	1558198	0	0	0	0	0	0	0	0	0	0	0	0	0	0	0	0	0
121012	13:47:32	10016	Memory3R6mo	Score3	5	444	235	0	121	13:47:32	1558478	0	0	0	0	0	0	0	0	0	0	0	0	0	0	0	0	0
121012	13:47:32	10016	Memory3R6mo	Score3	5	555	227	0	121	13:47:32	1558758	0	0	0	0	0	0	0	0	0	0	0	0	0	0	0	0	0
121012	13:47:32	10016	Memory3R6mo	Score3	5	666	243	0	121	13:47:32	1559051	0	0	0	0	0	0	0	0	0	0	0	0	0	0	0	0	0
121012	13:47:32	10016	Memory3R6mo	Score3	5	777	422	0	121	13:47:32	1559517	0	0	0	0	0	0	0	0	0	0	0	0	0	0	0	0	0
121012	13:47:32	10016	Memory3R6mo	Score3	5	888	188	0	121	13:47:32	1559757	0	0	0	0	0	0	0	0	0	0	0	0	0	0	0	0	0
121012	13:47:32	10016	Memory3R6mo	Score3	5	Done	988	0	121	13:47:32	1560797	0	0	0	0	0	0	0	0	0	0	0	0	0	0	0	0	0
121012	13:47:32	10016	LoriaEngLH3	Stop	6	9	3395	0	121	13:47:32	1615003	0	0	0	0	0	0	0	0	0	0	0	0	0	0	0	0	0
121012	13:47:32	10016	EngTrail	Trails	7	1Trails	655	0	121	13:47:32	1631435	0	0	0	0	0	0	0	0	0	0	0	0	0	0	0	0	0
121012	13:47:32	10016	Serial7Eng6mo	Serial7Eng6mo	8	73	3668	0	121	13:47:32	1663223	1	0	0	0	0	0	0	0	0	0	0	0	0	0	0	0	0
121012	13:47:32	10016	Serial7Eng6mo	Serial7Eng6mo	8	66	2171	0	121	13:47:32	1665409	2	0	0	0	0	0	0	0	0	0	0	0	0	0	0	0	0
121012	13:47:32	10016	Serial7Eng6mo	Serial7Eng6mo	8	59	3224	0	121	13:47:32	1668648	3	0	0	0	0	0	0	0	0	0	0	0	0	0	0	0	0
121012	13:47:32	10016	Serial7Eng6mo	Serial7Eng6mo	8	52	2273	0	121	13:47:32	1670941	4	0	0	0	0	0	0	0	0	0	0	0	0	0	0	0	0
121012	13:47:32	10016	Serial7Eng6mo	Serial7Eng6mo	8	45	2245	0	121	13:47:32	1673207	5	0	0	0	0	0	0	0	0	0	0	0	0	0	0	0	0
121012	13:47:32	10016	corsiblockEngFwrd	recallseqEngFwrd	9	5	902	0	121	13:47:32	1695904	5	0	0	0	0	0	0	0	0	0	0	0	0	0	0	0	0
121012	13:47:32	10016	corsiblockEngFwrd	recallseqEngFwrd	9	7	1239	0	121	13:47:32	1697197	5	0	0	0	0	0	0	0	0	0	0	0	0	0	0	0	0
121012	13:47:32	10016	corsiblockEngFwrd	recallseqEngFwrd	9	doneCorsiEng	2586	0	121	13:47:32	1699835	5	0	0	0	0	0	0	0	0	0	0	0	0	0	0	2	0
121012	13:47:32	10016	corsiblockEngFwrd	recallseqEngFwrd	9	4	559	0	121	13:47:32	1706539	5	0	0	0	0	0	0	0	0	0	0	0	0	0	0	2	0
121012	13:47:32	10016	corsiblockEngFwrd	recallseqEngFwrd	9	2	763	0	121	13:47:32	1707352	5	0	0	0	0	0	0	0	0	0	0	0	0	0	0	2	0
121012	13:47:32	10016	corsiblockEngFwrd	recallseqEngFwrd	9	8	775	0	121	13:47:32	1708179	5	0	0	0	0	0	0	0	0	0	0	0	0	0	0	2	0
121012	13:47:32	10016	corsiblockEngFwrd	recallseqEngFwrd	9	doneCorsiEng	1348	0	121	13:47:32	1709578	5	0	0	0	0	0	0	0	0	0	0	0	0	0	0	3	0
121012	13:47:32	10016	corsiblockEngFwrd	recallseqEngFwrd	9	3	798	0	121	13:47:32	1717508	5	0	0	0	0	0	0	0	0	0	0	0	0	0	0	3	0
121012	13:47:32	10016	corsiblockEngFwrd	recallseqEngFwrd	9	6	850	0	121	13:47:32	1718415	5	0	0	0	0	0	0	0	0	0	0	0	0	0	0	3	0
121012	13:47:32	10016	corsiblockEngFwrd	recallseqEngFwrd	9	1	743	0	121	13:47:32	1719214	5	0	0	0	0	0	0	0	0	0	0	0	0	0	0	3	0
121012	13:47:32	10016	corsiblockEngFwrd	recallseqEngFwrd	9	9	936	0	121	13:47:32	1720201	5	0	0	0	0	0	0	0	0	0	0	0	0	0	0	3	0
121012	13:47:32	10016	corsiblockEngFwrd	recallseqEngFwrd	9	doneCorsiEng	1158	0	121	13:47:32	1721413	5	0	0	0	0	0	0	0	0	0	0	0	0	0	0	4	0
121012	13:47:32	10016	corsiblockEngFwrd	recallseqEngFwrd	9	7	982	0	121	13:47:32	1730543	5	0	0	0	0	0	0	0	0	0	0	0	0	0	0	4	0
121012	13:47:32	10016	corsiblockEngFwrd	recallseqEngFwrd	9	1	767	0	121	13:47:32	1731356	5	0	0	0	0	0	0	0	0	0	0	0	0	0	0	4	0
121012	13:47:32	10016	corsiblockEngFwrd	recallseqEngFwrd	9	3	914	0	121	13:47:32	1732316	5	0	0	0	0	0	0	0	0	0	0	0	0	0	0	4	0
121012	13:47:32	10016	corsiblockEngFwrd	recallseqEngFwrd	9	9	970	0	121	13:47:32	1733342	5	0	0	0	0	0	0	0	0	0	0	0	0	0	0	4	0
121012	13:47:32	10016	corsiblockEngFwrd	recallseqEngFwrd	9	4	904	0	121	13:47:32	1734302	5	0	0	0	0	0	0	0	0	0	0	0	0	0	0	4	0
121012	13:47:32	10016	corsiblockEngFwrd	recallseqEngFwrd	9	doneCorsiEng	1408	0	121	13:47:32	1735754	5	0	0	0	0	0	0	0	0	0	0	0	0	0	0	5	0
121012	13:47:32	10016	corsiblockEngFwrd	recallseqEngFwrd	9	8	711	0	121	13:47:32	1745590	5	0	0	0	0	0	0	0	0	0	0	0	0	0	0	5	0
121012	13:47:32	10016	corsiblockEngFwrd	recallseqEngFwrd	9	6	743	0	121	13:47:32	1746390	5	0	0	0	0	0	0	0	0	0	0	0	0	0	0	5	0
121012	13:47:32	10016	corsiblockEngFwrd	recallseqEngFwrd	9	2	632	0	121	13:47:32	1747070	5	0	0	0	0	0	0	0	0	0	0	0	0	0	0	5	0
121012	13:47:32	10016	corsiblockEngFwrd	recallseqEngFwrd	9	5	1792	0	121	13:47:32	1748909	5	0	0	0	0	0	0	0	0	0	0	0	0	0	0	5	0
121012	13:47:32	10016	corsiblockEngFwrd	recallseqEngFwrd	9	7	641	0	121	13:47:32	1749602	5	0	0	0	0	0	0	0	0	0	0	0	0	0	0	5	0
121012	13:47:32	10016	corsiblockEngFwrd	recallseqEngFwrd	9	1	659	0	121	13:47:32	1750308	5	0	0	0	0	0	0	0	0	0	0	0	0	0	0	5	0
121012	13:47:32	10016	corsiblockEngFwrd	recallseqEngFwrd	9	doneCorsiEng	1057	0	121	13:47:32	1751415	5	0	0	0	0	0	0	0	0	0	0	0	0	0	0	6	0
121012	13:47:32	10016	corsiblockEngFwrd	recallseqEngFwrd	9	3	794	0	121	13:47:32	1762330	5	0	0	0	0	0	0	0	0	0	0	0	0	0	0	6	0
121012	13:47:32	10016	corsiblockEngFwrd	recallseqEngFwrd	9	2	555	0	121	13:47:32	1762930	5	0	0	0	0	0	0	0	0	0	0	0	0	0	0	6	0
121012	13:47:32	10016	corsiblockEngFwrd	recallseqEngFwrd	9	6	1923	0	121	13:47:32	1764902	5	0	0	0	0	0	0	0	0	0	0	0	0	0	0	6	0
121012	13:47:32	10016	corsiblockEngFwrd	recallseqEngFwrd	9	4	471	0	121	13:47:32	1765422	5	0	0	0	0	0	0	0	0	0	0	0	0	0	0	6	0
121012	13:47:32	10016	corsiblockEngFwrd	recallseqEngFwrd	9	5	375	0	121	13:47:32	1765849	5	0	0	0	0	0	0	0	0	0	0	0	0	0	0	6	0
121012	13:47:32	10016	corsiblockEngFwrd	recallseqEngFwrd	9	9	645	0	121	13:47:32	1766542	5	0	0	0	0	0	0	0	0	0	0	0	0	0	0	6	0
121012	13:47:32	10016	corsiblockEngFwrd	recallseqEngFwrd	9	8	687	0	121	13:47:32	1767275	5	0	0	0	0	0	0	0	0	0	0	0	0	0	0	6	0
121012	13:47:32	10016	corsiblockEngFwrd	recallseqEngFwrd	9	doneCorsiEng	1250	0	121	13:47:32	1768581	5	0	0	0	0	0	0	0	0	0	0	0	0	0	0	6	0
121012	13:47:32	10016	corsiblockEngFwrd	recallseqEngFwrd	9	resetCorsiEng	2012	0	121	13:47:32	1780683	5	0	0	0	0	0	0	0	0	0	0	0	0	0	0	6	0
121012	13:47:32	10016	corsiblockEngFwrd	recallseqEngFwrd	9	3	2666	0	121	13:47:32	1783402	5	0	0	0	0	0	0	0	0	0	0	0	0	0	0	6	0
121012	13:47:32	10016	corsiblockEngFwrd	recallseqEngFwrd	9	2	811	0	121	13:47:32	1784268	5	0	0	0	0	0	0	0	0	0	0	0	0	0	0	6	0
121012	13:47:32	10016	corsiblockEngFwrd	recallseqEngFwrd	9	4	665	0	121	13:47:32	1784988	5	0	0	0	0	0	0	0	0	0	0	0	0	0	0	6	0
121012	13:47:32	10016	corsiblockEngFwrd	recallseqEngFwrd	9	5	506	0	121	13:47:32	1785548	5	0	0	0	0	0	0	0	0	0	0	0	0	0	0	6	0
121012	13:47:32	10016	corsiblockEngFwrd	recallseqEngFwrd	9	8	833	0	121	13:47:32	1786427	5	0	0	0	0	0	0	0	0	0	0	0	0	0	0	6	0
121012	13:47:32	10016	corsiblockEngFwrd	recallseqEngFwrd	9	1	762	0	121	13:47:32	1787240	5	0	0	0	0	0	0	0	0	0	0	0	0	0	0	6	0
121012	13:47:32	10016	corsiblockEngFwrd	recallseqEngFwrd	9	9	693	0	121	13:47:32	1787987	5	0	0	0	0	0	0	0	0	0	0	0	0	0	0	6	0
121012	13:47:32	10016	corsiblockEngFwrd	recallseqEngFwrd	9	doneCorsiEng	898	0	121	13:47:32	1788933	5	0	0	0	0	0	0	0	0	0	0	0	0	0	0	6	0
121012	13:47:32	10016	corsiblockEngRev	recallseqEngRev	10	4	800	0	121	13:47:32	1798849	5	0	0	0	0	0	0	0	0	0	0	0	0	0	0	6	0
121012	13:47:32	10016	corsiblockEngRev	recallseqEngRev	10	9	740	0	121	13:47:32	1799635	5	0	0	0	0	0	0	0	0	0	0	0	0	0	0	6	0
121012	13:47:32	10016	corsiblockEngRev	recallseqEngRev	10	doneCorsiEng	849	0	121	13:47:32	1800541	5	0	0	0	0	0	0	0	0	0	0	0	0	0	0	6	2
121012	13:47:32	10016	corsiblockEngRev	recallseqEngRev	10	8	748	0	121	13:47:32	1807432	5	0	0	0	0	0	0	0	0	0	0	0	0	0	0	6	2
121012	13:47:32	10016	corsiblockEngRev	recallseqEngRev	10	2	1044	0	121	13:47:32	1808525	5	0	0	0	0	0	0	0	0	0	0	0	0	0	0	6	2
121012	13:47:32	10016	corsiblockEngRev	recallseqEngRev	10	7	479	0	121	13:47:32	1809058	5	0	0	0	0	0	0	0	0	0	0	0	0	0	0	6	2
121012	13:47:32	10016	corsiblockEngRev	recallseqEngRev	10	doneCorsiEng	730	0	121	13:47:32	1809844	5	0	0	0	0	0	0	0	0	0	0	0	0	0	0	6	3
121012	13:47:32	10016	corsiblockEngRev	recallseqEngRev	10	5	893	0	121	13:47:32	1817881	5	0	0	0	0	0	0	0	0	0	0	0	0	0	0	6	3
121012	13:47:32	10016	corsiblockEngRev	recallseqEngRev	10	1	827	0	121	13:47:32	1818761	5	0	0	0	0	0	0	0	0	0	0	0	0	0	0	6	3
121012	13:47:32	10016	corsiblockEngRev	recallseqEngRev	10	6	611	0	121	13:47:32	1819427	5	0	0	0	0	0	0	0	0	0	0	0	0	0	0	6	3
121012	13:47:32	10016	corsiblockEngRev	recallseqEngRev	10	3	609	0	121	13:47:32	1820080	5	0	0	0	0	0	0	0	0	0	0	0	0	0	0	6	3
121012	13:47:32	10016	corsiblockEngRev	recallseqEngRev	10	doneCorsiEng	884	0	121	13:47:32	1821013	5	0	0	0	0	0	0	0	0	0	0	0	0	0	0	6	4
121012	13:47:32	10016	corsiblockEngRev	recallseqEngRev	10	1	1212	0	121	13:47:32	1830369	5	0	0	0	0	0	0	0	0	0	0	0	0	0	0	6	4
121012	13:47:32	10016	corsiblockEngRev	recallseqEngRev	10	2	562	0	121	13:47:32	1830982	5	0	0	0	0	0	0	0	0	0	0	0	0	0	0	6	4
121012	13:47:32	10016	corsiblockEngRev	recallseqEngRev	10	3	781	0	121	13:47:32	1831809	5	0	0	0	0	0	0	0	0	0	0	0	0	0	0	6	4
121012	13:47:32	10016	corsiblockEngRev	recallseqEngRev	10	4	611	0	121	13:47:32	1832475	5	0	0	0	0	0	0	0	0	0	0	0	0	0	0	6	4
121012	13:47:32	10016	corsiblockEngRev	recallseqEngRev	10	9	897	0	121	13:47:32	1833422	5	0	0	0	0	0	0	0	0	0	0	0	0	0	0	6	4
121012	13:47:32	10016	corsiblockEngRev	recallseqEngRev	10	doneCorsiEng	1102	0	121	13:47:32	1834568	5	0	0	0	0	0	0	0	0	0	0	0	0	0	0	6	5
121012	13:47:32	10016	corsiblockEngRev	recallseqEngRev	10	2	722	0	121	13:47:32	1844430	5	0	0	0	0	0	0	0	0	0	0	0	0	0	0	6	5
121012	13:47:32	10016	corsiblockEngRev	recallseqEngRev	10	9	805	0	121	13:47:32	1845283	5	0	0	0	0	0	0	0	0	0	0	0	0	0	0	6	5
121012	13:47:32	10016	corsiblockEngRev	recallseqEngRev	10	6	729	0	121	13:47:32	1846056	5	0	0	0	0	0	0	0	0	0	0	0	0	0	0	6	5
121012	13:47:32	10016	corsiblockEngRev	recallseqEngRev	10	5	1219	0	121	13:47:32	1847323	5	0	0	0	0	0	0	0	0	0	0	0	0	0	0	6	5
121012	13:47:32	10016	corsiblockEngRev	recallseqEngRev	10	4	441	0	121	13:47:32	1847816	5	0	0	0	0	0	0	0	0	0	0	0	0	0	0	6	5
121012	13:47:32	10016	corsiblockEngRev	recallseqEngRev	10	7	476	0	121	13:47:32	1848335	5	0	0	0	0	0	0	0	0	0	0	0	0	0	0	6	5
121012	13:47:32	10016	corsiblockEngRev	recallseqEngRev	10	8	492	0	121	13:47:32	1848882	5	0	0	0	0	0	0	0	0	0	0	0	0	0	0	6	5
121012	13:47:32	10016	corsiblockEngRev	recallseqEngRev	10	doneCorsiEng	1033	0	121	13:47:32	1849961	5	0	0	0	0	0	0	0	0	0	0	0	0	0	0	6	5
121012	13:47:32	10016	corsiblockEngRev	recallseqEngRev	10	3	957	0	121	13:47:32	1860011	5	0	0	0	0	0	0	0	0	0	0	0	0	0	0	6	5
121012	13:47:32	10016	corsiblockEngRev	recallseqEngRev	10	7	512	0	121	13:47:32	1860571	5	0	0	0	0	0	0	0	0	0	0	0	0	0	0	6	5
121012	13:47:32	10016	corsiblockEngRev	recallseqEngRev	10	1	672	0	121	13:47:32	1861290	5	0	0	0	0	0	0	0	0	0	0	0	0	0	0	6	5
121012	13:47:32	10016	corsiblockEngRev	recallseqEngRev	10	5	833	0	121	13:47:32	1862170	5	0	0	0	0	0	0	0	0	0	0	0	0	0	0	6	5
121012	13:47:32	10016	corsiblockEngRev	recallseqEngRev	10	6	673	0	121	13:47:32	1862890	5	0	0	0	0	0	0	0	0	0	0	0	0	0	0	6	5
121012	13:47:32	10016	corsiblockEngRev	recallseqEngRev	10	8	1065	0	121	13:47:32	1864009	5	0	0	0	0	0	0	0	0	0	0	0	0	0	0	6	5
121012	13:47:32	10016	corsiblockEngRev	recallseqEngRev	10	doneCorsiEng	858	0	121	13:47:32	1864915	5	0	0	0	0	0	0	0	0	0	0	0	0	0	0	6	6
121012	13:47:32	10016	corsiblockEngRev	recallseqEngRev	10	9	1003	0	121	13:47:32	1875045	5	0	0	0	0	0	0	0	0	0	0	0	0	0	0	6	6
121012	13:47:32	10016	corsiblockEngRev	recallseqEngRev	10	6	606	0	121	13:47:32	1875698	5	0	0	0	0	0	0	0	0	0	0	0	0	0	0	6	6
121012	13:47:32	10016	corsiblockEngRev	recallseqEngRev	10	3	777	0	121	13:47:32	1876524	5	0	0	0	0	0	0	0	0	0	0	0	0	0	0	6	6
121012	13:47:32	10016	corsiblockEngRev	recallseqEngRev	10	1	647	0	121	13:47:32	1877217	5	0	0	0	0	0	0	0	0	0	0	0	0	0	0	6	6
121012	13:47:32	10016	corsiblockEngRev	recallseqEngRev	10	8	786	0	121	13:47:32	1878057	5	0	0	0	0	0	0	0	0	0	0	0	0	0	0	6	6
121012	13:47:32	10016	corsiblockEngRev	recallseqEngRev	10	5	514	0	121	13:47:32	1878617	5	0	0	0	0	0	0	0	0	0	0	0	0	0	0	6	6
121012	13:47:32	10016	corsiblockEngRev	recallseqEngRev	10	4	378	0	121	13:47:32	1879043	5	0	0	0	0	0	0	0	0	0	0	0	0	0	0	6	6
121012	13:47:32	10016	corsiblockEngRev	recallseqEngRev	10	doneCorsiEng	808	0	121	13:47:32	1879896	5	0	0	0	0	0	0	0	0	0	0	0	0	0	0	6	7
121012	13:47:32	10016	corsiblockEngRev	recallseqEngRev	10	3	802	0	121	13:47:32	1891838	5	0	0	0	0	0	0	0	0	0	0	0	0	0	0	6	7
121012	13:47:32	10016	corsiblockEngRev	recallseqEngRev	10	7	605	0	121	13:47:32	1892491	5	0	0	0	0	0	0	0	0	0	0	0	0	0	0	6	7
121012	13:47:32	10016	corsiblockEngRev	recallseqEngRev	10	2	503	0	121	13:47:32	1893051	5	0	0	0	0	0	0	0	0	0	0	0	0	0	0	6	7
121012	13:47:32	10016	corsiblockEngRev	recallseqEngRev	10	1	768	0	121	13:47:32	1893864	5	0	0	0	0	0	0	0	0	0	0	0	0	0	0	6	7
121012	13:47:32	10016	corsiblockEngRev	recallseqEngRev	10	4	826	0	121	13:47:32	1894743	5	0	0	0	0	0	0	0	0	0	0	0	0	0	0	6	7
121012	13:47:32	10016	corsiblockEngRev	recallseqEngRev	10	5	507	0	121	13:47:32	1895303	5	0	0	0	0	0	0	0	0	0	0	0	0	0	0	6	7
121012	13:47:32	10016	corsiblockEngRev	recallseqEngRev	10	7	547	0	121	13:47:32	1895903	5	0	0	0	0	0	0	0	0	0	0	0	0	0	0	6	7
121012	13:47:32	10016	corsiblockEngRev	recallseqEngRev	10	2	531	0	121	13:47:32	1896489	5	0	0	0	0	0	0	0	0	0	0	0	0	0	0	6	7
121012	13:47:32	10016	corsiblockEngRev	recallseqEngRev	10	doneCorsiEng	1097	0	121	13:47:32	1897636	5	0	0	0	0	0	0	0	0	0	0	0	0	0	0	6	7
121012	13:47:32	10016	corsiblockEngRev	recallseqEngRev	10	9	659	0	121	13:47:32	1909378	5	0	0	0	0	0	0	0	0	0	0	0	0	0	0	6	7
121012	13:47:32	10016	corsiblockEngRev	recallseqEngRev	10	4	608	0	121	13:47:32	1910031	5	0	0	0	0	0	0	0	0	0	0	0	0	0	0	6	7
121012	13:47:32	10016	corsiblockEngRev	recallseqEngRev	10	8	539	0	121	13:47:32	1910617	5	0	0	0	0	0	0	0	0	0	0	0	0	0	0	6	7
121012	13:47:32	10016	corsiblockEngRev	recallseqEngRev	10	9	657	0	121	13:47:32	1911323	5	0	0	0	0	0	0	0	0	0	0	0	0	0	0	6	7
121012	13:47:32	10016	corsiblockEngRev	recallseqEngRev	10	7	335	0	121	13:47:32	1911710	5	0	0	0	0	0	0	0	0	0	0	0	0	0	0	6	7
121012	13:47:32	10016	corsiblockEngRev	recallseqEngRev	10	8	556	0	121	13:47:32	1912323	5	0	0	0	0	0	0	0	0	0	0	0	0	0	0	6	7
121012	13:47:32	10016	corsiblockEngRev	recallseqEngRev	10	5	407	0	121	13:47:32	1912776	5	0	0	0	0	0	0	0	0	0	0	0	0	0	0	6	7
121012	13:47:32	10016	corsiblockEngRev	recallseqEngRev	10	6	418	0	121	13:47:32	1913243	5	0	0	0	0	0	0	0	0	0	0	0	0	0	0	6	7
121012	13:47:32	10016	corsiblockEngRev	recallseqEngRev	10	doneCorsiEng	607	0	121	13:47:32	1913896	5	0	0	0	0	0	0	0	0	0	0	0	0	0	0	6	7
121012	13:47:32	10016	testEng6mo	WordsEng6mo	11	1Eng6mo	13959	0	121	13:47:32	1935514	5	3	0	0	0	0	0	0	0	0	0	0	0	0	0	6	7
121012	13:47:32	10016	testEng6mo	WordsEng6mo	11	2Eng6mo	168	0	121	13:47:32	1935727	5	3	3	0	0	0	0	0	0	0	0	0	0	0	0	6	7
121012	13:47:32	10016	testEng6mo	WordsEng6mo	11	3Eng6mo	203	0	121	13:47:32	1935980	5	3	3	3	0	0	0	0	0	0	0	0	0	0	0	6	7
121012	13:47:32	10016	testEng6mo	WordsEng6mo	11	5Eng6mo	206	0	121	13:47:32	1936233	5	3	3	3	0	3	0	0	0	0	0	0	0	0	0	6	7
121012	13:47:32	10016	testEng6mo	WordsEng6mo	11	4Eng6mo	320	0	121	13:47:32	1936606	5	3	3	3	3	3	0	0	0	0	0	0	0	0	0	6	7
121012	13:47:32	10016	testEng6mo	WordsEng6mo	11	6Eng6mo	483	0	121	13:47:32	1937140	5	3	3	3	3	3	3	0	0	0	0	0	0	0	0	6	7
121012	13:47:32	10016	testEng6mo	WordsEng6mo	11	7Eng6mo	302	0	121	13:47:32	1937486	5	3	3	3	3	3	3	3	0	0	0	0	0	0	0	6	7
121012	13:47:32	10016	testEng6mo	WordsEng6mo	11	8Eng6mo	299	0	121	13:47:32	1937833	5	3	3	3	3	3	3	3	3	0	0	0	0	0	0	6	7
121012	13:47:32	10016	testEng6mo	WordsEng6mo	11	DoneEng6mo	553	0	121	13:47:32	1938433	5	3	3	3	3	3	3	3	3	0	0	0	0	0	0	6	7
121012	13:47:32	10016	DigitSpanFwrdEng6mo	Score1FwrdEng6mo	12	DS1	2198	0	121	13:47:32	1950840	5	3	3	3	3	3	3	3	3	0	0	0	0	0	0	6	7
121012	13:47:32	10016	DigitSpanFwrdEng6mo	Gate1FwrdEng6mo	12	0	1	0	121	13:47:32	1950845	5	3	3	3	3	3	3	3	3	3	0	0	0	0	0	6	7
121012	13:47:32	10016	DigitSpanFwrdEng6mo	Score2FwrdEng6mo	12	DS1	2332	0	121	13:47:32	1959943	5	3	3	3	3	3	3	3	3	3	0	0	0	0	0	6	7
121012	13:47:32	10016	DigitSpanFwrdEng6mo	Gate3FwrdEng6mo	12	0	1	0	121	13:47:32	1959948	5	3	3	3	3	3	3	3	3	4	0	0	0	0	0	6	7
121012	13:47:32	10016	DigitSpanFwrdEng6mo	Score3FwrdEng6mo	12	DS1	2426	0	121	13:47:32	1970406	5	3	3	3	3	3	3	3	3	4	0	0	0	0	0	6	7
121012	13:47:32	10016	DigitSpanFwrdEng6mo	Gate5FwrdEng6mo	12	0	1	0	121	13:47:32	1970411	5	3	3	3	3	3	3	3	3	5	0	0	0	0	0	6	7
121012	13:47:32	10016	DigitSpanFwrdEng6mo	Score4FwrdEng6mo	12	DS1	2927	0	121	13:47:32	1982854	5	3	3	3	3	3	3	3	3	5	0	0	0	0	0	6	7
121012	13:47:32	10016	DigitSpanFwrdEng6mo	Gate7FwrdEng6mo	12	0	1	0	121	13:47:32	1982859	5	3	3	3	3	3	3	3	3	6	0	0	0	0	0	6	7
121012	13:47:32	10016	DigitSpanFwrdEng6mo	Score5FwrdEng6mo	12	DS2	4316	0	121	13:47:32	1998168	5	3	3	3	3	3	3	3	3	6	0	0	0	0	0	6	7
121012	13:47:32	10016	DigitSpanFwrdEng6mo	Gate9FwrdEng6mo	12	0	1	0	121	13:47:32	1998173	5	3	3	3	3	3	3	3	3	6	0	0	0	0	0	6	7
121012	13:47:32	10016	DigitSpanFwrdEng6mo	Score55FwrdEng6mo	12	DS2	4728	0	121	13:47:32	2014028	5	3	3	3	3	3	3	3	3	6	0	0	0	0	0	6	7
121012	13:47:32	10016	DigitSpanEng6mo	Score1Eng6mo	13	DS1	4101	0	121	13:47:32	2027197	5	3	3	3	3	3	3	3	3	6	0	0	0	0	0	6	7
121012	13:47:32	10016	DigitSpanEng6mo	Gate1Eng6mo	13	0	1	0	121	13:47:32	2027201	5	3	3	3	3	3	3	3	3	6	2	0	0	0	0	6	7
121012	13:47:32	10016	DigitSpanEng6mo	Score2Eng6mo	13	DS1	3568	0	121	13:47:32	2035699	5	3	3	3	3	3	3	3	3	6	2	0	0	0	0	6	7
121012	13:47:32	10016	DigitSpanEng6mo	Gate3Eng6mo	13	0	1	0	121	13:47:32	2035703	5	3	3	3	3	3	3	3	3	6	3	0	0	0	0	6	7
121012	13:47:32	10016	DigitSpanEng6mo	Score3Eng6mo	13	DS1	4140	0	121	13:47:32	2046388	5	3	3	3	3	3	3	3	3	6	3	0	0	0	0	6	7
121012	13:47:32	10016	DigitSpanEng6mo	Gate5Eng6mo	13	0	1	0	121	13:47:32	2046393	5	3	3	3	3	3	3	3	3	6	4	0	0	0	0	6	7
121012	13:47:32	10016	DigitSpanEng6mo	Score4Eng6mo	13	DS1	6118	0	121	13:47:32	2060276	5	3	3	3	3	3	3	3	3	6	4	0	0	0	0	6	7
121012	13:47:32	10016	DigitSpanEng6mo	Gate7Eng6mo	13	0	1	0	121	13:47:32	2060281	5	3	3	3	3	3	3	3	3	6	5	0	0	0	0	6	7
121012	13:47:32	10016	DigitSpanEng6mo	Score5Eng6mo	13	DS2	11121	0	121	13:47:32	2080615	5	3	3	3	3	3	3	3	3	6	5	0	0	0	0	6	7
121012	13:47:32	10016	DigitSpanEng6mo	Gate9Eng6mo	13	0	1	0	121	13:47:32	2080619	5	3	3	3	3	3	3	3	3	6	5	0	0	0	0	6	7
121012	13:47:32	10016	DigitSpanEng6mo	Score55Eng6mo	13	DS2	10364	0	121	13:47:32	2100500	5	3	3	3	3	3	3	3	3	6	5	0	0	0	0	6	7
121012	13:47:32	10016	Trial	ResponseIL	14	0	175	0	121	13:47:32	2140111	5	3	3	3	3	3	3	3	3	6	5	0	0	0	0	6	7
121012	13:47:32	10016	Trial	IncongruentLeft	14	203	300	1	121	13:47:32	2140430	5	3	3	3	3	3	3	3	3	6	5	0	0	0	0	6	7
121012	13:47:32	10016	Trial	ResponseCR	14	0	175	0	121	13:47:32	2141816	5	3	3	3	3	3	3	3	3	6	5	0	0	0	0	6	7
121012	13:47:32	10016	Trial	CongruentRight	14	205	163	1	121	13:47:32	2142003	5	3	3	3	3	3	3	3	3	6	5	0	0	0	0	6	7
121012	13:47:32	10016	Trial	ResponseIR	14	0	175	0	121	13:47:32	2143522	5	3	3	3	3	3	3	3	3	6	5	0	0	0	0	6	7
121012	13:47:32	10016	Trial	IncongruentRight	14	205	281	1	121	13:47:32	2143829	5	3	3	3	3	3	3	3	3	6	5	0	0	0	0	6	7
121012	13:47:32	10016	Trial	ResponseCL	14	0	175	0	121	13:47:32	2145228	5	3	3	3	3	3	3	3	3	6	5	0	0	0	0	6	7
121012	13:47:32	10016	Trial	CongruentLeft	14	203	207	1	121	13:47:32	2145455	5	3	3	3	3	3	3	3	3	6	5	0	0	0	0	6	7
121012	13:47:32	10016	Trial	ResponseCR	14	0	175	0	121	13:47:32	2146934	5	3	3	3	3	3	3	3	3	6	5	0	0	0	0	6	7
121012	13:47:32	10016	Trial	CongruentRight	14	205	181	1	121	13:47:32	2147134	5	3	3	3	3	3	3	3	3	6	5	0	0	0	0	6	7
121012	13:47:32	10016	Trial	ResponseIR	14	0	175	0	121	13:47:32	2148640	5	3	3	3	3	3	3	3	3	6	5	0	0	0	0	6	7
121012	13:47:32	10016	Trial	IncongruentRight	14	205	267	1	121	13:47:32	2148934	5	3	3	3	3	3	3	3	3	6	5	0	0	0	0	6	7
121012	13:47:32	10016	Trial	ResponseCL	14	0	175	0	121	13:47:32	2150346	5	3	3	3	3	3	3	3	3	6	5	0	0	0	0	6	7
121012	13:47:32	10016	Trial	CongruentLeft	14	203	161	1	121	13:47:32	2150533	5	3	3	3	3	3	3	3	3	6	5	0	0	0	0	6	7
121012	13:47:32	10016	Trial	ResponseIL	14	0	175	0	121	13:47:32	2152052	5	3	3	3	3	3	3	3	3	6	5	0	0	0	0	6	7
121012	13:47:32	10016	Trial	IncongruentLeft	14	203	359	1	121	13:47:32	2152439	5	3	3	3	3	3	3	3	3	6	5	0	0	0	0	6	7
121012	13:47:32	10016	Trial	ResponseIL	14	0	175	0	121	13:47:32	2153759	5	3	3	3	3	3	3	3	3	6	5	0	0	0	0	6	7
121012	13:47:32	10016	Trial	IncongruentLeft	14	203	413	1	121	13:47:32	2154198	5	3	3	3	3	3	3	3	3	6	5	0	0	0	0	6	7
121012	13:47:32	10016	Trial	ResponseCR	14	0	175	0	121	13:47:32	2155465	5	3	3	3	3	3	3	3	3	6	5	0	0	0	0	6	7
121012	13:47:32	10016	Trial	CongruentRight	14	205	163	1	121	13:47:32	2155651	5	3	3	3	3	3	3	3	3	6	5	0	0	0	0	6	7
121012	13:47:32	10016	Trial	ResponseIR	14	0	175	0	121	13:47:32	2157170	5	3	3	3	3	3	3	3	3	6	5	0	0	0	0	6	7
121012	13:47:32	10016	Trial	IncongruentRight	14	205	281	1	121	13:47:32	2157477	5	3	3	3	3	3	3	3	3	6	5	0	0	0	0	6	7
121012	13:47:32	10016	Trial	ResponseCL	14	0	175	0	121	13:47:32	2158876	5	3	3	3	3	3	3	3	3	6	5	0	0	0	0	6	7
121012	13:47:32	10016	Trial	CongruentLeft	14	203	223	1	121	13:47:32	2159116	5	3	3	3	3	3	3	3	3	6	5	0	0	0	0	6	7
121012	13:47:32	10016	Trial	ResponseCR	14	0	175	0	121	13:47:32	2160582	5	3	3	3	3	3	3	3	3	6	5	0	0	0	0	6	7
121012	13:47:32	10016	Trial	CongruentRight	14	205	245	1	121	13:47:32	2160849	5	3	3	3	3	3	3	3	3	6	5	0	0	0	0	6	7
121012	13:47:32	10016	Trial	ResponseIL	14	0	175	0	121	13:47:32	2162288	5	3	3	3	3	3	3	3	3	6	5	0	0	0	0	6	7
121012	13:47:32	10016	Trial	IncongruentLeft	14	203	203	1	121	13:47:32	2162515	5	3	3	3	3	3	3	3	3	6	5	0	0	0	0	6	7
121012	13:47:32	10016	Trial	ResponseIR	14	0	175	0	121	13:47:32	2163994	5	3	3	3	3	3	3	3	3	6	5	0	0	0	0	6	7
121012	13:47:32	10016	Trial	IncongruentRight	14	205	257	1	121	13:47:32	2164274	5	3	3	3	3	3	3	3	3	6	5	0	0	0	0	6	7
121012	13:47:32	10016	Trial	ResponseCR	14	0	175	0	121	13:47:32	2165700	5	3	3	3	3	3	3	3	3	6	5	0	0	0	0	6	7
121012	13:47:32	10016	Trial	CongruentRight	14	205	167	1	121	13:47:32	2165887	5	3	3	3	3	3	3	3	3	6	5	0	0	0	0	6	7
121012	13:47:32	10016	Trial	ResponseCL	14	0	175	0	121	13:47:32	2167406	5	3	3	3	3	3	3	3	3	6	5	0	0	0	0	6	7
121012	13:47:32	10016	Trial	CongruentLeft	14	203	397	1	121	13:47:32	2167833	5	3	3	3	3	3	3	3	3	6	5	0	0	0	0	6	7
121012	13:47:32	10016	Trial	ResponseCR	14	0	175	0	121	13:47:32	2169112	5	3	3	3	3	3	3	3	3	6	5	0	0	0	0	6	7
121012	13:47:32	10016	Trial	CongruentRight	14	205	243	1	121	13:47:32	2169379	5	3	3	3	3	3	3	3	3	6	5	0	0	0	0	6	7
121012	13:47:32	10016	Trial	ResponseIR	14	0	175	0	121	13:47:32	2170818	5	3	3	3	3	3	3	3	3	6	5	0	0	0	0	6	7
121012	13:47:32	10016	Trial	IncongruentRight	14	205	346	1	121	13:47:32	2171191	5	3	3	3	3	3	3	3	3	6	5	0	0	0	0	6	7
121012	13:47:32	10016	Trial	ResponseIL	14	0	175	0	121	13:47:32	2172524	5	3	3	3	3	3	3	3	3	6	5	0	0	0	0	6	7
121012	13:47:32	10016	Trial	IncongruentLeft	14	203	223	1	121	13:47:32	2172764	5	3	3	3	3	3	3	3	3	6	5	0	0	0	0	6	7
121012	13:47:32	10016	Trial	ResponseIL	14	0	175	0	121	13:47:32	2174230	5	3	3	3	3	3	3	3	3	6	5	0	0	0	0	6	7
121012	13:47:32	10016	Trial	IncongruentLeft	14	203	373	1	121	13:47:32	2174630	5	3	3	3	3	3	3	3	3	6	5	0	0	0	0	6	7
121012	13:47:32	10016	Trial	ResponseCL	14	0	175	0	121	13:47:32	2175936	5	3	3	3	3	3	3	3	3	6	5	0	0	0	0	6	7
121012	13:47:32	10016	Trial	CongruentLeft	14	203	331	1	121	13:47:32	2176296	5	3	3	3	3	3	3	3	3	6	5	0	0	0	0	6	7
121012	13:47:32	10016	Trial	ResponseCR	14	0	175	0	121	13:47:32	2177642	5	3	3	3	3	3	3	3	3	6	5	0	0	0	0	6	7
121012	13:47:32	10016	Trial	CongruentRight	14	205	321	1	121	13:47:32	2177988	5	3	3	3	3	3	3	3	3	6	5	0	0	0	0	6	7
121012	13:47:32	10016	Trial	ResponseIL	14	0	175	0	121	13:47:32	2179348	5	3	3	3	3	3	3	3	3	6	5	0	0	0	0	6	7
121012	13:47:32	10016	Trial	IncongruentLeft	14	203	247	1	121	13:47:32	2179614	5	3	3	3	3	3	3	3	3	6	5	0	0	0	0	6	7
121012	13:47:32	10016	Trial	ResponseIR	14	0	175	0	121	13:47:32	2181054	5	3	3	3	3	3	3	3	3	6	5	0	0	0	0	6	7
121012	13:47:32	10016	Trial	IncongruentRight	14	205	237	1	121	13:47:32	2181307	5	3	3	3	3	3	3	3	3	6	5	0	0	0	0	6	7
121012	13:47:32	10016	Trial	ResponseCR	14	0	175	0	121	13:47:32	2182760	5	3	3	3	3	3	3	3	3	6	5	0	0	0	0	6	7
121012	13:47:32	10016	Trial	CongruentRight	14	205	179	1	121	13:47:32	2182960	5	3	3	3	3	3	3	3	3	6	5	0	0	0	0	6	7
121012	13:47:32	10016	Trial	ResponseCL	14	0	175	0	121	13:47:32	2184466	5	3	3	3	3	3	3	3	3	6	5	0	0	0	0	6	7
121012	13:47:32	10016	Trial	CongruentLeft	14	203	185	1	121	13:47:32	2184679	5	3	3	3	3	3	3	3	3	6	5	0	0	0	0	6	7
121012	13:47:32	10016	Trial	ResponseIR	14	0	175	0	121	13:47:32	2186172	5	3	3	3	3	3	3	3	3	6	5	0	0	0	0	6	7
121012	13:47:32	10016	Trial	IncongruentRight	14	205	239	1	121	13:47:32	2186438	5	3	3	3	3	3	3	3	3	6	5	0	0	0	0	6	7
121012	13:47:32	10016	Trial	ResponseIL	14	0	175	0	121	13:47:32	2187878	5	3	3	3	3	3	3	3	3	6	5	0	0	0	0	6	7
121012	13:47:32	10016	Trial	IncongruentLeft	14	203	213	1	121	13:47:32	2188118	5	3	3	3	3	3	3	3	3	6	5	0	0	0	0	6	7
121012	13:47:32	10016	Trial	ResponseIR	14	0	175	0	121	13:47:32	2189584	5	3	3	3	3	3	3	3	3	6	5	0	0	0	0	6	7
121012	13:47:32	10016	Trial	IncongruentRight	14	205	331	1	121	13:47:32	2189944	5	3	3	3	3	3	3	3	3	6	5	0	0	0	0	6	7
121012	13:47:32	10016	Trial	ResponseCR	14	0	175	0	121	13:47:32	2191290	5	3	3	3	3	3	3	3	3	6	5	0	0	0	0	6	7
121012	13:47:32	10016	Trial	CongruentRight	14	205	241	1	121	13:47:32	2191556	5	3	3	3	3	3	3	3	3	6	5	0	0	0	0	6	7
121012	13:47:32	10016	Trial	ResponseIL	14	0	175	0	121	13:47:32	2192996	5	3	3	3	3	3	3	3	3	6	5	0	0	0	0	6	7
121012	13:47:32	10016	Trial	IncongruentLeft	14	203	215	1	121	13:47:32	2193236	5	3	3	3	3	3	3	3	3	6	5	0	0	0	0	6	7
121012	13:47:32	10016	Trial	ResponseCL	14	0	175	0	121	13:47:32	2194702	5	3	3	3	3	3	3	3	3	6	5	0	0	0	0	6	7
121012	13:47:32	10016	Trial	CongruentLeft	14	203	173	1	121	13:47:32	2194902	5	3	3	3	3	3	3	3	3	6	5	0	0	0	0	6	7
121012	13:47:32	10016	Trial	ResponseCR	14	0	175	0	121	13:47:32	2196408	5	3	3	3	3	3	3	3	3	6	5	0	0	0	0	6	7
121012	13:47:32	10016	Trial	CongruentRight	14	205	195	1	121	13:47:32	2196621	5	3	3	3	3	3	3	3	3	6	5	0	0	0	0	6	7
121012	13:47:32	10016	Trial	ResponseIL	14	0	175	0	121	13:47:32	2198114	5	3	3	3	3	3	3	3	3	6	5	0	0	0	0	6	7
121012	13:47:32	10016	Trial	IncongruentLeft	14	203	233	1	121	13:47:32	2198367	5	3	3	3	3	3	3	3	3	6	5	0	0	0	0	6	7
121012	13:47:32	10016	Trial	ResponseIR	14	0	175	0	121	13:47:32	2199820	5	3	3	3	3	3	3	3	3	6	5	0	0	0	0	6	7
121012	13:47:32	10016	Trial	IncongruentRight	14	205	255	1	121	13:47:32	2200100	5	3	3	3	3	3	3	3	3	6	5	0	0	0	0	6	7
121012	13:47:32	10016	Trial	ResponseIR	14	0	175	0	121	13:47:32	2201526	5	3	3	3	3	3	3	3	3	6	5	0	0	0	0	6	7
121012	13:47:32	10016	Trial	IncongruentRight	14	205	229	1	121	13:47:32	2201779	5	3	3	3	3	3	3	3	3	6	5	0	0	0	0	6	7
121012	13:47:32	10016	Trial	ResponseCL	14	0	175	0	121	13:47:32	2203232	5	3	3	3	3	3	3	3	3	6	5	0	0	0	0	6	7
121012	13:47:32	10016	Trial	CongruentLeft	14	203	235	1	121	13:47:32	2203485	5	3	3	3	3	3	3	3	3	6	5	0	0	0	0	6	7
121012	13:47:32	10016	Trial	ResponseIL	14	0	175	0	121	13:47:32	2204938	5	3	3	3	3	3	3	3	3	6	5	0	0	0	0	6	7
121012	13:47:32	10016	Trial	IncongruentLeft	14	203	257	1	121	13:47:32	2205218	5	3	3	3	3	3	3	3	3	6	5	0	0	0	0	6	7
121012	13:47:32	10016	Trial	ResponseCR	14	0	175	0	121	13:47:32	2206644	5	3	3	3	3	3	3	3	3	6	5	0	0	0	0	6	7
121012	13:47:32	10016	Trial	CongruentRight	14	205	199	1	121	13:47:32	2206870	5	3	3	3	3	3	3	3	3	6	5	0	0	0	0	6	7
121012	13:47:32	10016	Trial	ResponseCL	14	0	175	0	121	13:47:32	2208350	5	3	3	3	3	3	3	3	3	6	5	0	0	0	0	6	7
121012	13:47:32	10016	Trial	CongruentLeft	14	203	191	1	121	13:47:32	2208563	5	3	3	3	3	3	3	3	3	6	5	0	0	0	0	6	7
121012	13:47:32	10016	Trial	ResponseIR	14	0	175	0	121	13:47:32	2210056	5	3	3	3	3	3	3	3	3	6	5	0	0	0	0	6	7
121012	13:47:32	10016	Trial	IncongruentRight	14	205	243	1	121	13:47:32	2210322	5	3	3	3	3	3	3	3	3	6	5	0	0	0	0	6	7
121012	13:47:32	10016	Trial	ResponseCR	14	0	175	0	121	13:47:32	2211762	5	3	3	3	3	3	3	3	3	6	5	0	0	0	0	6	7
121012	13:47:32	10016	Trial	CongruentRight	14	205	217	1	121	13:47:32	2212001	5	3	3	3	3	3	3	3	3	6	5	0	0	0	0	6	7
121012	13:47:32	10016	Trial	ResponseIL	14	0	175	0	121	13:47:32	2213468	5	3	3	3	3	3	3	3	3	6	5	0	0	0	0	6	7
121012	13:47:32	10016	Trial	IncongruentLeft	14	203	271	1	121	13:47:32	2213760	5	3	3	3	3	3	3	3	3	6	5	0	0	0	0	6	7
121012	13:47:32	10016	Trial	ResponseCL	14	0	175	0	121	13:47:32	2215174	5	3	3	3	3	3	3	3	3	6	5	0	0	0	0	6	7
121012	13:47:32	10016	Trial	CongruentLeft	14	203	293	1	121	13:47:32	2215493	5	3	3	3	3	3	3	3	3	6	5	0	0	0	0	6	7
121012	13:47:32	10016	Trial	ResponseIL	14	0	175	0	121	13:47:32	2216880	5	3	3	3	3	3	3	3	3	6	5	0	0	0	0	6	7
121012	13:47:32	10016	Trial	IncongruentLeft	14	203	347	1	121	13:47:32	2217253	5	3	3	3	3	3	3	3	3	6	5	0	0	0	0	6	7
121012	13:47:32	10016	Trial	ResponseIR	14	0	175	0	121	13:47:32	2218586	5	3	3	3	3	3	3	3	3	6	5	0	0	0	0	6	7
121012	13:47:32	10016	Trial	IncongruentRight	14	205	241	1	121	13:47:32	2218852	5	3	3	3	3	3	3	3	3	6	5	0	0	0	0	6	7
121012	13:47:32	10016	Trial	ResponseCR	14	0	175	0	121	13:47:32	2220291	5	3	3	3	3	3	3	3	3	6	5	0	0	0	0	6	7
121012	13:47:32	10016	Trial	CongruentRight	14	205	327	1	121	13:47:32	2220638	5	3	3	3	3	3	3	3	3	6	5	0	0	0	0	6	7
121012	13:47:32	10016	Trial	ResponseCL	14	0	175	0	121	13:47:32	2221998	5	3	3	3	3	3	3	3	3	6	5	0	0	0	0	6	7
121012	13:47:32	10016	Trial	CongruentLeft	14	203	301	1	121	13:47:32	2222317	5	3	3	3	3	3	3	3	3	6	5	0	0	0	0	6	7
121012	13:47:32	10016	Trial	ResponseCL	14	0	175	0	121	13:47:32	2223703	5	3	3	3	3	3	3	3	3	6	5	0	0	0	0	6	7
121012	13:47:32	10016	Trial	CongruentLeft	14	203	307	1	121	13:47:32	2224037	5	3	3	3	3	3	3	3	3	6	5	0	0	0	0	6	7
121012	13:47:32	10016	Trial	ResponseIR	14	0	175	0	121	13:47:32	2225409	5	3	3	3	3	3	3	3	3	6	5	0	0	0	0	6	7
121012	13:47:32	10016	Trial	IncongruentRight	14	205	217	1	121	13:47:32	2225649	5	3	3	3	3	3	3	3	3	6	5	0	0	0	0	6	7
121012	13:47:32	10016	Trial	ResponseIL	14	0	175	0	121	13:47:32	2227115	5	3	3	3	3	3	3	3	3	6	5	0	0	0	0	6	7
121012	13:47:32	10016	Trial	IncongruentLeft	14	203	318	1	121	13:47:32	2227462	5	3	3	3	3	3	3	3	3	6	5	0	0	0	0	6	7
121012	13:47:32	10016	Trial	ResponseIR	14	0	175	0	121	13:47:32	2228821	5	3	3	3	3	3	3	3	3	6	5	0	0	0	0	6	7
121012	13:47:32	10016	Trial	IncongruentRight	14	205	357	1	121	13:47:32	2229195	5	3	3	3	3	3	3	3	3	6	5	0	0	0	0	6	7
121012	13:47:32	10016	Trial	ResponseCR	14	0	175	0	121	13:47:32	2230527	5	3	3	3	3	3	3	3	3	6	5	0	0	0	0	6	7
121012	13:47:32	10016	Trial	CongruentRight	14	205	251	1	121	13:47:32	2230808	5	3	3	3	3	3	3	3	3	6	5	0	0	0	0	6	7
121012	13:47:32	10016	Trial	ResponseCR	14	0	175	0	121	13:47:32	2232234	5	3	3	3	3	3	3	3	3	6	5	0	0	0	0	6	7
121012	13:47:32	10016	Trial	CongruentRight	14	205	209	1	121	13:47:32	2232460	5	3	3	3	3	3	3	3	3	6	5	0	0	0	0	6	7
121012	13:47:32	10016	Trial	ResponseIL	14	0	175	0	121	13:47:32	2233939	5	3	3	3	3	3	3	3	3	6	5	0	0	0	0	6	7
121012	13:47:32	10016	Trial	IncongruentLeft	14	203	183	1	121	13:47:32	2234139	5	3	3	3	3	3	3	3	3	6	5	0	0	0	0	6	7
121012	13:47:32	10016	Trial	ResponseCL	14	0	175	0	121	13:47:32	2235645	5	3	3	3	3	3	3	3	3	6	5	0	0	0	0	6	7
121012	13:47:32	10016	Trial	CongruentLeft	14	203	220	1	121	13:47:32	2235885	5	3	3	3	3	3	3	3	3	6	5	0	0	0	0	6	7
121012	13:47:32	10016	Trial	ResponseCR	14	0	175	0	121	13:47:32	2237351	5	3	3	3	3	3	3	3	3	6	5	0	0	0	0	6	7
121012	13:47:32	10016	Trial	CongruentRight	14	205	147	1	121	13:47:32	2237525	5	3	3	3	3	3	3	3	3	6	5	0	0	0	0	6	7
121012	13:47:32	10016	Trial	ResponseCL	14	0	175	0	121	13:47:32	2239057	5	3	3	3	3	3	3	3	3	6	5	0	0	0	0	6	7
121012	13:47:32	10016	Trial	CongruentLeft	14	203	216	1	121	13:47:32	2239297	5	3	3	3	3	3	3	3	3	6	5	0	0	0	0	6	7
121012	13:47:32	10016	Trial	ResponseIR	14	0	175	0	121	13:47:32	2240763	5	3	3	3	3	3	3	3	3	6	5	0	0	0	0	6	7
121012	13:47:32	10016	Trial	IncongruentRight	14	205	207	1	121	13:47:32	2240990	5	3	3	3	3	3	3	3	3	6	5	0	0	0	0	6	7
121012	13:47:32	10016	Trial	ResponseCR	14	0	175	0	121	13:47:32	2242469	5	3	3	3	3	3	3	3	3	6	5	0	0	0	0	6	7
121012	13:47:32	10016	Trial	CongruentRight	14	205	149	1	121	13:47:32	2242642	5	3	3	3	3	3	3	3	3	6	5	0	0	0	0	6	7
121012	13:47:32	10016	Trial	ResponseCL	14	0	175	0	121	13:47:32	2244175	5	3	3	3	3	3	3	3	3	6	5	0	0	0	0	6	7
121012	13:47:32	10016	Trial	CongruentLeft	14	203	250	1	121	13:47:32	2244442	5	3	3	3	3	3	3	3	3	6	5	0	0	0	0	6	7
121012	13:47:32	10016	Trial	ResponseIL	14	0	175	0	121	13:47:32	2245881	5	3	3	3	3	3	3	3	3	6	5	0	0	0	0	6	7
121012	13:47:32	10016	Trial	IncongruentLeft	14	203	224	1	121	13:47:32	2246134	5	3	3	3	3	3	3	3	3	6	5	0	0	0	0	6	7
121012	13:47:32	10016	Trial	ResponseIL	14	0	175	0	121	13:47:32	2247587	5	3	3	3	3	3	3	3	3	6	5	0	0	0	0	6	7
121012	13:47:32	10016	Trial	IncongruentLeft	14	203	326	1	121	13:47:32	2247934	5	3	3	3	3	3	3	3	3	6	5	0	0	0	0	6	7
121012	13:47:32	10016	Trial	ResponseCR	14	0	175	0	121	13:47:32	2249293	5	3	3	3	3	3	3	3	3	6	5	0	0	0	0	6	7
121012	13:47:32	10016	Trial	CongruentRight	14	205	188	1	121	13:47:32	2249506	5	3	3	3	3	3	3	3	3	6	5	0	0	0	0	6	7
121012	13:47:32	10016	Trial	ResponseIR	14	0	175	0	121	13:47:32	2250999	5	3	3	3	3	3	3	3	3	6	5	0	0	0	0	6	7
121012	13:47:32	10016	Trial	IncongruentRight	14	205	274	1	121	13:47:32	2251292	5	3	3	3	3	3	3	3	3	6	5	0	0	0	0	6	7
121012	13:47:32	10016	Trial	ResponseCL	14	0	175	0	121	13:47:32	2252705	5	3	3	3	3	3	3	3	3	6	5	0	0	0	0	6	7
121012	13:47:32	10016	Trial	CongruentLeft	14	203	232	1	121	13:47:32	2252958	5	3	3	3	3	3	3	3	3	6	5	0	0	0	0	6	7
121012	13:47:32	10016	Trial	ResponseIR	14	0	175	0	121	13:47:32	2254411	5	3	3	3	3	3	3	3	3	6	5	0	0	0	0	6	7
121012	13:47:32	10016	Trial	IncongruentRight	14	205	222	1	121	13:47:32	2254651	5	3	3	3	3	3	3	3	3	6	5	0	0	0	0	6	7
121012	13:47:32	10016	Trial	ResponseCR	14	0	175	0	121	13:47:32	2256117	5	3	3	3	3	3	3	3	3	6	5	0	0	0	0	6	7
121012	13:47:32	10016	Trial	CongruentRight	14	205	181	1	121	13:47:32	2256317	5	3	3	3	3	3	3	3	3	6	5	0	0	0	0	6	7
121012	13:47:32	10016	Trial	ResponseIL	14	0	175	0	121	13:47:32	2257823	5	3	3	3	3	3	3	3	3	6	5	0	0	0	0	6	7
121012	13:47:32	10016	Trial	IncongruentLeft	14	203	234	1	121	13:47:32	2258076	5	3	3	3	3	3	3	3	3	6	5	0	0	0	0	6	7
121012	13:47:32	10016	Trial	ResponseCL	14	0	175	0	121	13:47:32	2259529	5	3	3	3	3	3	3	3	3	6	5	0	0	0	0	6	7
121012	13:47:32	10016	Trial	CongruentLeft	14	203	225	1	121	13:47:32	2259782	5	3	3	3	3	3	3	3	3	6	5	0	0	0	0	6	7
121012	13:47:32	10016	Trial	ResponseCR	14	0	175	0	121	13:47:32	2261235	5	3	3	3	3	3	3	3	3	6	5	0	0	0	0	6	7
121012	13:47:32	10016	Trial	CongruentRight	14	205	134	1	121	13:47:32	2261395	5	3	3	3	3	3	3	3	3	6	5	0	0	0	0	6	7
121012	13:47:32	10016	Trial	ResponseIL	14	0	175	0	121	13:47:32	2262941	5	3	3	3	3	3	3	3	3	6	5	0	0	0	0	6	7
121012	13:47:32	10016	Trial	IncongruentLeft	14	203	204	1	121	13:47:32	2263168	5	3	3	3	3	3	3	3	3	6	5	0	0	0	0	6	7
121012	13:47:32	10016	Trial	ResponseCR	14	0	175	0	121	13:47:32	2264647	5	3	3	3	3	3	3	3	3	6	5	0	0	0	0	6	7
121012	13:47:32	10016	Trial	CongruentRight	14	205	146	1	121	13:47:32	2264820	5	3	3	3	3	3	3	3	3	6	5	0	0	0	0	6	7
121012	13:47:32	10016	Trial	ResponseCR	14	0	175	0	121	13:47:32	2266353	5	3	3	3	3	3	3	3	3	6	5	0	0	0	0	6	7
121012	13:47:32	10016	Trial	CongruentRight	14	205	216	1	121	13:47:32	2266593	5	3	3	3	3	3	3	3	3	6	5	0	0	0	0	6	7
121012	13:47:32	10016	Trial	ResponseIR	14	0	175	0	121	13:47:32	2268059	5	3	3	3	3	3	3	3	3	6	5	0	0	0	0	6	7
121012	13:47:32	10016	Trial	IncongruentRight	14	205	302	1	121	13:47:32	2268379	5	3	3	3	3	3	3	3	3	6	5	0	0	0	0	6	7
121012	13:47:32	10016	Trial	ResponseCL	14	0	175	0	121	13:47:32	2269765	5	3	3	3	3	3	3	3	3	6	5	0	0	0	0	6	7
121012	13:47:32	10016	Trial	CongruentLeft	14	203	244	1	121	13:47:32	2270031	5	3	3	3	3	3	3	3	3	6	5	0	0	0	0	6	7
121012	13:47:32	10016	Trial	ResponseIL	14	0	175	0	121	13:47:32	2271471	5	3	3	3	3	3	3	3	3	6	5	0	0	0	0	6	7
121012	13:47:32	10016	Trial	IncongruentLeft	14	203	282	1	121	13:47:32	2271777	5	3	3	3	3	3	3	3	3	6	5	0	0	0	0	6	7
121012	13:47:32	10016	Trial	ResponseCL	14	0	175	0	121	13:47:32	2273177	5	3	3	3	3	3	3	3	3	6	5	0	0	0	0	6	7
121012	13:47:32	10016	Trial	CongruentLeft	14	203	368	1	121	13:47:32	2273563	5	3	3	3	3	3	3	3	3	6	5	0	0	0	0	6	7
121012	13:47:32	10016	Trial	ResponseIR	14	0	175	0	121	13:47:32	2274883	5	3	3	3	3	3	3	3	3	6	5	0	0	0	0	6	7
121012	13:47:32	10016	Trial	IncongruentRight	14	205	214	1	121	13:47:32	2275123	5	3	3	3	3	3	3	3	3	6	5	0	0	0	0	6	7
121012	13:47:32	10016	Trial	ResponseIL	14	0	175	0	121	13:47:32	2276589	5	3	3	3	3	3	3	3	3	6	5	0	0	0	0	6	7
121012	13:47:32	10016	Trial	IncongruentLeft	14	203	300	1	121	13:47:32	2276909	5	3	3	3	3	3	3	3	3	6	5	0	0	0	0	6	7
121012	13:47:32	10016	Trial	ResponseCR	14	0	175	0	121	13:47:32	2278295	5	3	3	3	3	3	3	3	3	6	5	0	0	0	0	6	7
121012	13:47:32	10016	Trial	CongruentRight	14	205	130	1	121	13:47:32	2278441	5	3	3	3	3	3	3	3	3	6	5	0	0	0	0	6	7
121012	13:47:32	10016	Trial	ResponseCL	14	0	175	0	121	13:47:32	2280001	5	3	3	3	3	3	3	3	3	6	5	0	0	0	0	6	7
121012	13:47:32	10016	Trial	CongruentLeft	14	203	184	1	121	13:47:32	2280214	5	3	3	3	3	3	3	3	3	6	5	0	0	0	0	6	7
121012	13:47:32	10016	Trial	ResponseIL	14	0	175	0	121	13:47:32	2281707	5	3	3	3	3	3	3	3	3	6	5	0	0	0	0	6	7
121012	13:47:32	10016	Trial	IncongruentLeft	14	203	286	1	121	13:47:32	2282013	5	3	3	3	3	3	3	3	3	6	5	0	0	0	0	6	7
121012	13:47:32	10016	Trial	ResponseCL	14	0	175	0	121	13:47:32	2283413	5	3	3	3	3	3	3	3	3	6	5	0	0	0	0	6	7
121012	13:47:32	10016	Trial	CongruentLeft	14	203	276	1	121	13:47:32	2283706	5	3	3	3	3	3	3	3	3	6	5	0	0	0	0	6	7
121012	13:47:32	10016	Trial	ResponseIR	14	0	175	0	121	13:47:32	2285119	5	3	3	3	3	3	3	3	3	6	5	0	0	0	0	6	7
121012	13:47:32	10016	Trial	IncongruentRight	14	205	250	1	121	13:47:32	2285385	5	3	3	3	3	3	3	3	3	6	5	0	0	0	0	6	7
121012	13:47:32	10016	Trial	ResponseCR	14	0	175	0	121	13:47:32	2286825	5	3	3	3	3	3	3	3	3	6	5	0	0	0	0	6	7
121012	13:47:32	10016	Trial	CongruentRight	14	205	208	1	121	13:47:32	2287051	5	3	3	3	3	3	3	3	3	6	5	0	0	0	0	6	7
121012	13:47:32	10016	Trial	ResponseIL	14	0	175	0	121	13:47:32	2288531	5	3	3	3	3	3	3	3	3	6	5	0	0	0	0	6	7
121012	13:47:32	10016	Trial	IncongruentLeft	14	203	390	1	121	13:47:32	2288944	5	3	3	3	3	3	3	3	3	6	5	0	0	0	0	6	7
121012	13:47:32	10016	Trial	ResponseCL	14	0	175	0	121	13:47:32	2290237	5	3	3	3	3	3	3	3	3	6	5	0	0	0	0	6	7
121012	13:47:32	10016	Trial	CongruentLeft	14	203	220	1	121	13:47:32	2290476	5	3	3	3	3	3	3	3	3	6	5	0	0	0	0	6	7
121012	13:47:32	10016	Trial	ResponseIR	14	0	175	0	121	13:47:32	2291943	5	3	3	3	3	3	3	3	3	6	5	0	0	0	0	6	7
121012	13:47:32	10016	Trial	IncongruentRight	14	205	209	1	121	13:47:32	2292169	5	3	3	3	3	3	3	3	3	6	5	0	0	0	0	6	7
121012	13:47:32	10016	Trial	ResponseIL	14	0	175	0	121	13:47:32	2293649	5	3	3	3	3	3	3	3	3	6	5	0	0	0	0	6	7
121012	13:47:32	10016	Trial	IncongruentLeft	14	203	264	1	121	13:47:32	2293942	5	3	3	3	3	3	3	3	3	6	5	0	0	0	0	6	7
121012	13:47:32	10016	Trial	ResponseCL	14	0	175	0	121	13:47:32	2295355	5	3	3	3	3	3	3	3	3	6	5	0	0	0	0	6	7
121012	13:47:32	10016	Trial	CongruentLeft	14	203	190	1	121	13:47:32	2295568	5	3	3	3	3	3	3	3	3	6	5	0	0	0	0	6	7
121012	13:47:32	10016	Trial	ResponseIL	14	0	175	0	121	13:47:32	2297061	5	3	3	3	3	3	3	3	3	6	5	0	0	0	0	6	7
121012	13:47:32	10016	Trial	IncongruentLeft	14	205	116	0	121	13:47:32	2297194	5	3	3	3	3	3	3	3	3	6	5	0	0	0	0	6	7
121012	13:47:32	10016	Trial	ResponseCR	14	0	175	0	121	13:47:32	2298767	5	3	3	3	3	3	3	3	3	6	5	0	0	0	0	6	7
121012	13:47:32	10016	Trial	CongruentRight	14	205	282	1	121	13:47:32	2299073	5	3	3	3	3	3	3	3	3	6	5	0	0	0	0	6	7
121012	13:47:32	10016	Trial	ResponseCL	14	0	175	0	121	13:47:32	2300473	5	3	3	3	3	3	3	3	3	6	5	0	0	0	0	6	7
121012	13:47:32	10016	Trial	CongruentLeft	14	203	208	1	121	13:47:32	2300699	5	3	3	3	3	3	3	3	3	6	5	0	0	0	0	6	7
121012	13:47:32	10016	Trial	ResponseIR	14	0	175	0	121	13:47:32	2302178	5	3	3	3	3	3	3	3	3	6	5	0	0	0	0	6	7
121012	13:47:32	10016	Trial	IncongruentRight	14	205	246	1	121	13:47:32	2302445	5	3	3	3	3	3	3	3	3	6	5	0	0	0	0	6	7
121012	13:47:32	10016	Trial	ResponseCL	14	0	175	0	121	13:47:32	2303885	5	3	3	3	3	3	3	3	3	6	5	0	0	0	0	6	7
121012	13:47:32	10016	Trial	CongruentLeft	14	203	188	1	121	13:47:32	2304098	5	3	3	3	3	3	3	3	3	6	5	0	0	0	0	6	7
121012	13:47:32	10016	Trial	ResponseCR	14	0	175	0	121	13:47:32	2305590	5	3	3	3	3	3	3	3	3	6	5	0	0	0	0	6	7
121012	13:47:32	10016	Trial	CongruentRight	14	205	178	1	121	13:47:32	2305790	5	3	3	3	3	3	3	3	3	6	5	0	0	0	0	6	7
121012	13:47:32	10016	Trial	ResponseIL	14	0	175	0	121	13:47:32	2307297	5	3	3	3	3	3	3	3	3	6	5	0	0	0	0	6	7
121012	13:47:32	10016	Trial	IncongruentLeft	14	203	232	1	121	13:47:32	2307550	5	3	3	3	3	3	3	3	3	6	5	0	0	0	0	6	7
121012	13:47:32	10016	WordsAbsEng6mo	PAbsEng6mo1	16	Abs1	4694	0	121	13:47:32	2319052	5	3	3	3	3	3	3	3	3	6	5	0	0	0	0	6	7
121012	13:47:32	10016	WordsAbsEng6mo	AbsEng6mo1	16	Abs1	3667	0	121	13:47:32	2322757	5	3	3	3	3	3	3	3	3	6	5	1	0	0	0	6	7
121012	13:47:32	10016	WordsAbsEng6mo	AbsEng6mo2	16	Abs2	13745	0	121	13:47:32	2336538	5	3	3	3	3	3	3	3	3	6	5	1	0	0	0	6	7
121012	13:47:32	10016	WordsAbsEng6mo	AbsEng6mo3	16	Abs1	15212	0	121	13:47:32	2351785	5	3	3	3	3	3	3	3	3	6	5	2	0	0	0	6	7
121012	13:47:32	10016	Trial2BackEngS	NS	17	0	1000	1	121	13:47:32	2387877	5	3	3	3	3	3	3	3	3	6	5	2	0	0	0	6	7
121012	13:47:32	10016	Trial2BackEngS	NS	17	0	1000	1	121	13:47:32	2389383	5	3	3	3	3	3	3	3	3	6	5	2	0	0	0	6	7
121012	13:47:32	10016	Trial2BackEngS	NS	17	0	1000	1	121	13:47:32	2390889	5	3	3	3	3	3	3	3	3	6	5	2	0	0	0	6	7
121012	13:47:32	10016	Trial2BackEngS	YS	17	0	1000	0	121	13:47:32	2392395	5	3	3	3	3	3	3	3	3	6	5	2	0	0	0	6	7
121012	13:47:32	10016	Trial2BackEngS	NS	17	0	1000	1	121	13:47:32	2393902	5	3	3	3	3	3	3	3	3	6	5	2	0	0	0	6	7
121012	13:47:32	10016	Trial2BackEngS	NS	17	0	1000	1	121	13:47:32	2395407	5	3	3	3	3	3	3	3	3	6	5	2	0	0	0	6	7
121012	13:47:32	10016	Trial2BackEngS	NS	17	0	1000	1	121	13:47:32	2396913	5	3	3	3	3	3	3	3	3	6	5	2	0	0	0	6	7
121012	13:47:32	10016	Trial2BackEngS	NS	17	0	1000	1	121	13:47:32	2398420	5	3	3	3	3	3	3	3	3	6	5	2	0	0	0	6	7
121012	13:47:32	10016	Trial2BackEngS	YS	17	57	583	1	121	13:47:32	2399512	5	3	3	3	3	3	3	3	3	6	5	2	0	0	0	6	7
121012	13:47:32	10016	Trial2BackEngS	NS	17	0	1000	1	121	13:47:32	2401432	5	3	3	3	3	3	3	3	3	6	5	2	0	0	0	6	7
121012	13:47:32	10016	Trial2BackEngS	NS	17	0	1000	1	121	13:47:32	2402938	5	3	3	3	3	3	3	3	3	6	5	2	0	0	0	6	7
121012	13:47:32	10016	Trial2BackEngS	YS	17	0	1000	0	121	13:47:32	2404444	5	3	3	3	3	3	3	3	3	6	5	2	0	0	0	6	7
121012	13:47:32	10016	Trial2BackEngS	NS	17	0	1000	1	121	13:47:32	2405950	5	3	3	3	3	3	3	3	3	6	5	2	0	0	0	6	7
121012	13:47:32	10016	Trial2BackEngS	NS	17	0	1000	1	121	13:47:32	2407456	5	3	3	3	3	3	3	3	3	6	5	2	0	0	0	6	7
121012	13:47:32	10016	Trial2BackEngS	NS	17	0	1000	1	121	13:47:32	2408962	5	3	3	3	3	3	3	3	3	6	5	2	0	0	0	6	7
121012	13:47:32	10016	Trial2BackEngS	YS	17	0	1000	0	121	13:47:32	2410468	5	3	3	3	3	3	3	3	3	6	5	2	0	0	0	6	7
121012	13:47:32	10016	Trial2BackEngS	NS	17	0	1000	1	121	13:47:32	2411974	5	3	3	3	3	3	3	3	3	6	5	2	0	0	0	6	7
121012	13:47:32	10016	Trial2BackEngS	NS	17	0	1000	1	121	13:47:32	2413493	5	3	3	3	3	3	3	3	3	6	5	2	0	0	0	6	7
121012	13:47:32	10016	Trial2BackEngS	NS	17	0	1000	1	121	13:47:32	2414999	5	3	3	3	3	3	3	3	3	6	5	2	0	0	0	6	7
121012	13:47:32	10016	Trial2BackEngS	NS	17	0	1000	1	121	13:47:32	2416505	5	3	3	3	3	3	3	3	3	6	5	2	0	0	0	6	7
121012	13:47:32	10016	Trial2BackEngS	YS	17	57	433	1	121	13:47:32	2417452	5	3	3	3	3	3	3	3	3	6	5	2	0	0	0	6	7
121012	13:47:32	10016	Trial2BackEngS	NS	17	0	1000	1	121	13:47:32	2419518	5	3	3	3	3	3	3	3	3	6	5	2	0	0	0	6	7
121012	13:47:32	10016	Trial2BackEngS	NS	17	0	1000	1	121	13:47:32	2421037	5	3	3	3	3	3	3	3	3	6	5	2	0	0	0	6	7
121012	13:47:32	10016	Trial2BackEngS	NS	17	0	1000	1	121	13:47:32	2422543	5	3	3	3	3	3	3	3	3	6	5	2	0	0	0	6	7
121012	13:47:32	10016	Trial2BackEngS	NS	17	57	859	0	121	13:47:32	2423916	5	3	3	3	3	3	3	3	3	6	5	2	0	0	0	6	7
121012	13:47:32	10016	Trial2BackEngS	NS	17	0	1000	1	121	13:47:32	2425555	5	3	3	3	3	3	3	3	3	6	5	2	0	0	0	6	7
121012	13:47:32	10016	Trial2BackEngS	NS	17	0	1000	1	121	13:47:32	2427061	5	3	3	3	3	3	3	3	3	6	5	2	0	0	0	6	7
121012	13:47:32	10016	Trial2BackEngS	NS	17	0	1000	1	121	13:47:32	2428567	5	3	3	3	3	3	3	3	3	6	5	2	0	0	0	6	7
121012	13:47:32	10016	Trial2BackEngS	NS	17	0	1000	1	121	13:47:32	2430087	5	3	3	3	3	3	3	3	3	6	5	2	0	0	0	6	7
121012	13:47:32	10016	Trial2BackEngS	NS	17	0	1000	1	121	13:47:32	2431593	5	3	3	3	3	3	3	3	3	6	5	2	0	0	0	6	7
121012	13:47:32	10016	Trial2BackEngS	NS	17	57	577	0	121	13:47:32	2432685	5	3	3	3	3	3	3	3	3	6	5	2	0	0	0	6	7
121012	13:47:32	10016	Trial2BackEngS	YS	17	0	1000	0	121	13:47:32	2434605	5	3	3	3	3	3	3	3	3	6	5	2	0	0	0	6	7
121012	13:47:32	10016	Trial2BackEngS	NS	17	0	1000	1	121	13:47:32	2436124	5	3	3	3	3	3	3	3	3	6	5	2	0	0	0	6	7
121012	13:47:32	10016	Trial2BackEngS	NS	17	0	1000	1	121	13:47:32	2437630	5	3	3	3	3	3	3	3	3	6	5	2	0	0	0	6	7
121012	13:47:32	10016	Trial2BackEngS	NS	17	0	1000	1	121	13:47:32	2439136	5	3	3	3	3	3	3	3	3	6	5	2	0	0	0	6	7
121012	13:47:32	10016	Trial2BackEngS	YS	17	57	425	1	121	13:47:32	2440083	5	3	3	3	3	3	3	3	3	6	5	2	0	0	0	6	7
121012	13:47:32	10016	Trial2BackEngS	NS	17	0	1000	1	121	13:47:32	2442148	5	3	3	3	3	3	3	3	3	6	5	2	0	0	0	6	7
121012	13:47:32	10016	Trial2BackEngS	NS	17	0	1000	1	121	13:47:32	2443655	5	3	3	3	3	3	3	3	3	6	5	2	0	0	0	6	7
121012	13:47:32	10016	Trial2BackEngS	NS	17	0	1000	1	121	13:47:32	2445161	5	3	3	3	3	3	3	3	3	6	5	2	0	0	0	6	7
121012	13:47:32	10016	Trial2BackEngS	NS	17	0	1000	1	121	13:47:32	2446667	5	3	3	3	3	3	3	3	3	6	5	2	0	0	0	6	7
121012	13:47:32	10016	Trial2BackEngS	NS	17	0	1000	1	121	13:47:32	2448186	5	3	3	3	3	3	3	3	3	6	5	2	0	0	0	6	7
121012	13:47:32	10016	Trial2BackEngS	NS	17	0	1000	1	121	13:47:32	2449692	5	3	3	3	3	3	3	3	3	6	5	2	0	0	0	6	7
121012	13:47:32	10016	Trial2BackEngS	NS	17	0	1000	1	121	13:47:32	2451198	5	3	3	3	3	3	3	3	3	6	5	2	0	0	0	6	7
121012	13:47:32	10016	Trial2BackEngS	YS	17	57	443	1	121	13:47:32	2452158	5	3	3	3	3	3	3	3	3	6	5	2	0	0	0	6	7
121012	13:47:32	10016	Trial2BackEngS	NS	17	0	1000	1	121	13:47:32	2454210	5	3	3	3	3	3	3	3	3	6	5	2	0	0	0	6	7
121012	13:47:32	10016	Trial2BackEngS	NS	17	0	1000	1	121	13:47:32	2455716	5	3	3	3	3	3	3	3	3	6	5	2	0	0	0	6	7
121012	13:47:32	10016	Trial2BackEngS	NS	17	0	1000	1	121	13:47:32	2457236	5	3	3	3	3	3	3	3	3	6	5	2	0	0	0	6	7
121012	13:47:32	10016	Trial2BackEngS	NS	17	0	1000	1	121	13:47:32	2458742	5	3	3	3	3	3	3	3	3	6	5	2	0	0	0	6	7
121012	13:47:32	10016	Trial2BackEngS	YS	17	57	467	1	121	13:47:32	2459728	5	3	3	3	3	3	3	3	3	6	5	2	0	0	0	6	7
121012	13:47:32	10016	Trial2BackEngS	NS	17	0	1000	1	121	13:47:32	2461754	5	3	3	3	3	3	3	3	3	6	5	2	0	0	0	6	7
121012	13:47:32	10016	Trial2BackEngS	NS	17	0	1000	1	121	13:47:32	2463260	5	3	3	3	3	3	3	3	3	6	5	2	0	0	0	6	7
121012	13:47:32	10016	Trial2BackEngS	NS	17	0	1000	1	121	13:47:32	2464766	5	3	3	3	3	3	3	3	3	6	5	2	0	0	0	6	7
121012	13:47:32	10016	Trial2BackEngS	NS	17	0	1000	1	121	13:47:32	2466272	5	3	3	3	3	3	3	3	3	6	5	2	0	0	0	6	7
121012	13:47:32	10016	Trial2BackEngS	NS	17	0	1000	1	121	13:47:32	2467778	5	3	3	3	3	3	3	3	3	6	5	2	0	0	0	6	7
121012	13:47:32	10016	Trial2BackEngS	NS	17	0	1000	1	121	13:47:32	2469284	5	3	3	3	3	3	3	3	3	6	5	2	0	0	0	6	7
121012	13:47:32	10016	Trial2BackEngS	YS	17	57	549	1	121	13:47:32	2470350	5	3	3	3	3	3	3	3	3	6	5	2	0	0	0	6	7
121012	13:47:32	10016	Trial2BackEngS	NS	17	0	1000	1	121	13:47:32	2472296	5	3	3	3	3	3	3	3	3	6	5	2	0	0	0	6	7
121012	13:47:32	10016	Trial2BackEngS	NS	17	0	1000	1	121	13:47:32	2473802	5	3	3	3	3	3	3	3	3	6	5	2	0	0	0	6	7
121012	13:47:32	10016	Trial2BackEngS	NS	17	0	1000	1	121	13:47:32	2475308	5	3	3	3	3	3	3	3	3	6	5	2	0	0	0	6	7
121012	13:47:32	10016	Trial2BackEngS	NS	17	0	1000	1	121	13:47:32	2476814	5	3	3	3	3	3	3	3	3	6	5	2	0	0	0	6	7
121012	13:47:32	10016	Trial2BackEngS	NS	17	0	1000	1	121	13:47:32	2478320	5	3	3	3	3	3	3	3	3	6	5	2	0	0	0	6	7
121012	13:47:32	10016	Trial2BackEngS	NS	17	0	1000	1	121	13:47:32	2479827	5	3	3	3	3	3	3	3	3	6	5	2	0	0	0	6	7
121012	13:47:32	10016	Trial2BackEngS	NS	17	0	1000	1	121	13:47:32	2481346	5	3	3	3	3	3	3	3	3	6	5	2	0	0	0	6	7
121012	13:47:32	10016	Trial2BackEngS	YS	17	57	391	1	121	13:47:32	2482252	5	3	3	3	3	3	3	3	3	6	5	2	0	0	0	6	7
121012	13:47:32	10016	Trial2BackEngS	NS	17	0	1000	1	121	13:47:32	2484358	5	3	3	3	3	3	3	3	3	6	5	2	0	0	0	6	7
121012	13:47:32	10016	Trial2BackEngS	NS	17	0	1000	1	121	13:47:32	2485864	5	3	3	3	3	3	3	3	3	6	5	2	0	0	0	6	7
121012	13:47:32	10016	Trial2BackEngS	NS	17	0	1000	1	121	13:47:32	2487384	5	3	3	3	3	3	3	3	3	6	5	2	0	0	0	6	7
121012	13:47:32	10016	Trial2BackEngS	NS	17	0	1000	1	121	13:47:32	2488890	5	3	3	3	3	3	3	3	3	6	5	2	0	0	0	6	7
121012	13:47:32	10016	Trial2BackEngS	YS	17	57	431	1	121	13:47:32	2489836	5	3	3	3	3	3	3	3	3	6	5	2	0	0	0	6	7
121012	13:47:32	10016	Trial2BackEngS	NS	17	0	1000	1	121	13:47:32	2491902	5	3	3	3	3	3	3	3	3	6	5	2	0	0	0	6	7
121012	13:47:32	10016	Trial2BackEngS	NS	17	0	1000	1	121	13:47:32	2493408	5	3	3	3	3	3	3	3	3	6	5	2	0	0	0	6	7
121012	13:47:32	10016	Trial2BackEngS	YS	17	57	601	1	121	13:47:32	2494527	5	3	3	3	3	3	3	3	3	6	5	2	0	0	0	6	7
121012	13:47:32	10016	Trial2BackEngS	NS	17	0	1000	1	121	13:47:32	2496420	5	3	3	3	3	3	3	3	3	6	5	2	0	0	0	6	7
121012	13:47:32	10016	Trial2BackEngS	NS	17	0	1000	1	121	13:47:32	2497939	5	3	3	3	3	3	3	3	3	6	5	2	0	0	0	6	7
121012	13:47:32	10016	Trial2BackEngS	NS	17	0	1000	1	121	13:47:32	2499445	5	3	3	3	3	3	3	3	3	6	5	2	0	0	0	6	7
121012	13:47:32	10016	Trial2BackEngS	NS	17	0	1000	1	121	13:47:32	2500951	5	3	3	3	3	3	3	3	3	6	5	2	0	0	0	6	7
121012	13:47:32	10016	Trial2BackEngS	NS	17	0	1000	1	121	13:47:32	2502457	5	3	3	3	3	3	3	3	3	6	5	2	0	0	0	6	7
121012	13:47:32	10016	Trial2BackEngS	NS	17	0	1000	1	121	13:47:32	2503963	5	3	3	3	3	3	3	3	3	6	5	2	0	0	0	6	7
121012	13:47:32	10016	Trial2BackEngS	YS	17	57	604	1	121	13:47:32	2505083	5	3	3	3	3	3	3	3	3	6	5	2	0	0	0	6	7
121012	13:47:32	10016	Trial2BackEngS	NS	17	0	1000	1	121	13:47:32	2506976	5	3	3	3	3	3	3	3	3	6	5	2	0	0	0	6	7
121012	13:47:32	10016	Trial2BackEngS	NS	17	0	1000	1	121	13:47:32	2508495	5	3	3	3	3	3	3	3	3	6	5	2	0	0	0	6	7
121012	13:47:32	10016	Trial2BackEngS	NS	17	0	1000	1	121	13:47:32	2510001	5	3	3	3	3	3	3	3	3	6	5	2	0	0	0	6	7
121012	13:47:32	10016	Trial2BackEngS	NS	17	0	1000	1	121	13:47:32	2511507	5	3	3	3	3	3	3	3	3	6	5	2	0	0	0	6	7
121012	13:47:32	10016	Trial2BackEngS	YS	17	0	1000	0	121	13:47:32	2513013	5	3	3	3	3	3	3	3	3	6	5	2	0	0	0	6	7
121012	13:47:32	10016	Trial2BackEngS	NS	17	57	579	0	121	13:47:32	2514106	5	3	3	3	3	3	3	3	3	6	5	2	0	0	0	6	7
121012	13:47:32	10016	Trial2BackEngS	NS	17	0	1000	1	121	13:47:32	2516025	5	3	3	3	3	3	3	3	3	6	5	2	0	0	0	6	7
121012	13:47:32	10016	Trial2BackEngS	NS	17	0	1000	1	121	13:47:32	2517531	5	3	3	3	3	3	3	3	3	6	5	2	0	0	0	6	7
121012	13:47:32	10016	Trial2BackEngS	NS	17	57	668	0	121	13:47:32	2518717	5	3	3	3	3	3	3	3	3	6	5	2	0	0	0	6	7
121012	13:47:32	10016	Trial2BackEngS	YS	17	0	1000	0	121	13:47:32	2520543	5	3	3	3	3	3	3	3	3	6	5	2	0	0	0	6	7
121012	13:47:32	10016	Trial2BackEngS	NS	17	0	1000	1	121	13:47:32	2522049	5	3	3	3	3	3	3	3	3	6	5	2	0	0	0	6	7
121012	13:47:32	10016	Trial2BackEngS	NS	17	0	1000	1	121	13:47:32	2523555	5	3	3	3	3	3	3	3	3	6	5	2	0	0	0	6	7
121012	13:47:32	10016	Trial2BackEngS	YS	17	57	724	1	121	13:47:32	2524795	5	3	3	3	3	3	3	3	3	6	5	2	0	0	0	6	7
121012	13:47:32	10016	Trial2BackEngS	NS	17	0	1000	1	121	13:47:32	2526568	5	3	3	3	3	3	3	3	3	6	5	2	0	0	0	6	7
121012	13:47:32	10016	Trial2BackEngS	NS	17	0	1000	1	121	13:47:32	2528074	5	3	3	3	3	3	3	3	3	6	5	2	0	0	0	6	7
121012	13:47:32	10016	Trial2BackEngS	NS	17	0	1000	1	121	13:47:32	2529580	5	3	3	3	3	3	3	3	3	6	5	2	0	0	0	6	7
121012	13:47:32	10016	Trial2BackEngS	NS	17	0	1000	1	121	13:47:32	2531086	5	3	3	3	3	3	3	3	3	6	5	2	0	0	0	6	7
121012	13:47:32	10016	Trial2BackEngS	NS	17	0	1000	1	121	13:47:32	2532592	5	3	3	3	3	3	3	3	3	6	5	2	0	0	0	6	7
121012	13:47:32	10016	Trial2BackEngS	NS	17	0	1000	1	121	13:47:32	2534098	5	3	3	3	3	3	3	3	3	6	5	2	0	0	0	6	7
121012	13:47:32	10016	Trial2BackEngS	NS	17	0	1000	1	121	13:47:32	2535604	5	3	3	3	3	3	3	3	3	6	5	2	0	0	0	6	7
121012	13:47:32	10016	Trial2BackEngS	NS	17	0	1000	1	121	13:47:32	2537110	5	3	3	3	3	3	3	3	3	6	5	2	0	0	0	6	7
121012	13:47:32	10016	Trial2BackEngS	YS	17	57	593	1	121	13:47:32	2538216	5	3	3	3	3	3	3	3	3	6	5	2	0	0	0	6	7
121012	13:47:32	10016	Trial2BackEngS	NS	17	0	1000	1	121	13:47:32	2540122	5	3	3	3	3	3	3	3	3	6	5	2	0	0	0	6	7
121012	13:47:32	10016	Trial2BackEngS	NS	17	0	1000	1	121	13:47:32	2541641	5	3	3	3	3	3	3	3	3	6	5	2	0	0	0	6	7
121012	13:47:32	10016	Trial2BackEngS	NS	17	0	1000	1	121	13:47:32	2543148	5	3	3	3	3	3	3	3	3	6	5	2	0	0	0	6	7
121012	13:47:32	10016	Trial2BackEngS	NS	17	0	1000	1	121	13:47:32	2544654	5	3	3	3	3	3	3	3	3	6	5	2	0	0	0	6	7
121012	13:47:32	10016	Trial2BackEngS	NS	17	0	1000	1	121	13:47:32	2546160	5	3	3	3	3	3	3	3	3	6	5	2	0	0	0	6	7
121012	13:47:32	10016	Trial2BackEngS	NS	17	0	1000	1	121	13:47:32	2547666	5	3	3	3	3	3	3	3	3	6	5	2	0	0	0	6	7
121012	13:47:32	10016	Trial2BackEngS	NS	17	0	1000	1	121	13:47:32	2549172	5	3	3	3	3	3	3	3	3	6	5	2	0	0	0	6	7
121012	13:47:32	10016	Trial2BackEngS	YS	17	57	419	1	121	13:47:32	2550105	5	3	3	3	3	3	3	3	3	6	5	2	0	0	0	6	7
121012	13:47:32	10016	Trial2BackEngS	NS	17	0	1000	1	121	13:47:32	2552184	5	3	3	3	3	3	3	3	3	6	5	2	0	0	0	6	7
121012	13:47:32	10016	Trial2BackEngS	NS	17	0	1000	1	121	13:47:32	2553703	5	3	3	3	3	3	3	3	3	6	5	2	0	0	0	6	7
121012	13:47:32	10016	Trial2BackEngS	NS	17	0	1000	1	121	13:47:32	2555209	5	3	3	3	3	3	3	3	3	6	5	2	0	0	0	6	7
121012	13:47:32	10016	Trial2BackEngS	NS	17	0	1000	1	121	13:47:32	2556715	5	3	3	3	3	3	3	3	3	6	5	2	0	0	0	6	7
121012	13:47:32	10016	Trial2BackEngS	NS	17	0	1000	1	121	13:47:32	2558221	5	3	3	3	3	3	3	3	3	6	5	2	0	0	0	6	7
121012	13:47:32	10016	Trial2BackEngS	NS	17	0	1000	1	121	13:47:32	2559727	5	3	3	3	3	3	3	3	3	6	5	2	0	0	0	6	7
121012	13:47:32	10016	Trial2BackEngS	NS	17	0	1000	1	121	13:47:32	2561234	5	3	3	3	3	3	3	3	3	6	5	2	0	0	0	6	7
121012	13:47:32	10016	Trial2BackEngS	NS	17	0	1000	1	121	13:47:32	2562740	5	3	3	3	3	3	3	3	3	6	5	2	0	0	0	6	7
121012	13:47:32	10016	Trial2BackEngS	NS	17	0	1000	1	121	13:47:32	2564246	5	3	3	3	3	3	3	3	3	6	5	2	0	0	0	6	7
121012	13:47:32	10016	Trial2BackEngS	YS	17	0	1000	0	121	13:47:32	2565752	5	3	3	3	3	3	3	3	3	6	5	2	0	0	0	6	7
121012	13:47:32	10016	Trial2BackEngS	NS	17	0	1000	1	121	13:47:32	2567258	5	3	3	3	3	3	3	3	3	6	5	2	0	0	0	6	7
121012	13:47:32	10016	ClockEng6mo	ClockEng6mo	19	Clock1	41717	0	121	13:47:32	2609094	5	3	3	3	3	3	3	3	3	6	5	2	1	0	0	6	7
121012	13:47:32	10016	ClockEng6mo	ClockEng6mo	19	Clock11	604	0	121	13:47:32	2609747	5	3	3	3	3	3	3	3	3	6	5	2	1	1	0	6	7
121012	13:47:32	10016	ClockEng6mo	ClockEng6mo	19	Clock111	518	0	121	13:47:32	2610321	5	3	3	3	3	3	3	3	3	6	5	2	1	1	1	6	7
121012	13:47:32	10016	ClockEng6mo	ClockEng6mo	19	Clockdone	481	0	121	13:47:32	2610854	5	3	3	3	3	3	3	3	3	6	5	2	1	1	1	6	7
121012	13:47:32	10016	FASEngVF6mo	StopEngVF6mo	20	20	5337	0	121	13:47:32	2696048	5	3	3	3	3	3	3	3	3	6	5	2	1	1	1	6	7
