date	time	subject	blockcode	trialcode	values.TaskNumber	response	latency	correct	values.Score	script.starttime	script.elapsedtime	values.ScoreS7	values.Word1	values.Word2	values.Word3	values.Word4	values.Word5	values.Word6	values.Word7	values.Word8	values.DigitSpanFwrd	values.DigitSpanBack	values.ScoreAbs	values.Contour	values.Numbers	values.Hands	values.corsiblockspanFwrd	values.corsiblockspanRev
120612	08:36:22	10012	Language	Language	0	English	394898	0	0	08:36:22	395024	0	0	0	0	0	0	0	0	0	0	0	0	0	0	0	0	0
120612	08:36:22	10012	Session	Session	0	6mo	752	0	0	08:36:22	395837	0	0	0	0	0	0	0	0	0	0	0	0	0	0	0	0	0
120612	08:36:22	10012	HandEng	HandEng	0	Right	141171	0	0	08:36:22	537087	0	0	0	0	0	0	0	0	0	0	0	0	0	0	0	0	0
120612	08:36:22	10012	CubeEng	CubeEng	1	1Cube	23137	0	0	08:36:22	728556	0	0	0	0	0	0	0	0	0	0	0	0	0	0	0	0	0
120612	08:36:22	10012	pm.simpleEngRight	blank.simpleEng	2	0	2200	1	0	08:36:22	752733	0	0	0	0	0	0	0	0	0	0	0	0	0	0	0	0	0
120612	08:36:22	10012	pm.simpleEngRight	pm.simpleEng	2	57	524	0	0	08:36:22	753279	0	0	0	0	0	0	0	0	0	0	0	0	0	0	0	0	0
120612	08:36:22	10012	pm.simpleEngRight	blank.simpleEng	2	0	2400	1	0	08:36:22	755692	0	0	0	0	0	0	0	0	0	0	0	0	0	0	0	0	0
120612	08:36:22	10012	pm.simpleEngRight	pm.simpleEng	2	57	349	0	0	08:36:22	756065	0	0	0	0	0	0	0	0	0	0	0	0	0	0	0	0	0
120612	08:36:22	10012	pm.simpleEngRight	blank.simpleEng	2	0	2000	1	0	08:36:22	758077	0	0	0	0	0	0	0	0	0	0	0	0	0	0	0	0	0
120612	08:36:22	10012	pm.simpleEngRight	pm.simpleEng	2	57	267	0	0	08:36:22	758371	0	0	0	0	0	0	0	0	0	0	0	0	0	0	0	0	0
120612	08:36:22	10012	pm.simpleEngRight	blank.simpleEng	2	0	1800	1	0	08:36:22	760196	0	0	0	0	0	0	0	0	0	0	0	0	0	0	0	0	0
120612	08:36:22	10012	pm.simpleEngRight	pm.simpleEng	2	57	292	0	0	08:36:22	760516	0	0	0	0	0	0	0	0	0	0	0	0	0	0	0	0	0
120612	08:36:22	10012	pm.simpleEngRight	blank.simpleEng	2	0	2100	1	0	08:36:22	762635	0	0	0	0	0	0	0	0	0	0	0	0	0	0	0	0	0
120612	08:36:22	10012	pm.simpleEngRight	pm.simpleEng	2	57	301	0	0	08:36:22	762955	0	0	0	0	0	0	0	0	0	0	0	0	0	0	0	0	0
120612	08:36:22	10012	pm.simpleEngRight	blank.simpleEng	2	0	2300	1	0	08:36:22	765274	0	0	0	0	0	0	0	0	0	0	0	0	0	0	0	0	0
120612	08:36:22	10012	pm.simpleEngRight	pm.simpleEng	2	57	318	0	0	08:36:22	765621	0	0	0	0	0	0	0	0	0	0	0	0	0	0	0	0	0
120612	08:36:22	10012	pm.simpleEngRight	blank.simpleEng	2	0	1700	1	0	08:36:22	767340	0	0	0	0	0	0	0	0	0	0	0	0	0	0	0	0	0
120612	08:36:22	10012	pm.simpleEngRight	pm.simpleEng	2	57	300	0	0	08:36:22	767660	0	0	0	0	0	0	0	0	0	0	0	0	0	0	0	0	0
120612	08:36:22	10012	pm.simpleEngRight	blank.simpleEng	2	0	2500	1	0	08:36:22	770179	0	0	0	0	0	0	0	0	0	0	0	0	0	0	0	0	0
120612	08:36:22	10012	pm.simpleEngRight	pm.simpleEng	2	57	341	0	0	08:36:22	770539	0	0	0	0	0	0	0	0	0	0	0	0	0	0	0	0	0
120612	08:36:22	10012	pm.simpleEngRight	blank.simpleEng	2	0	1500	1	0	08:36:22	772058	0	0	0	0	0	0	0	0	0	0	0	0	0	0	0	0	0
120612	08:36:22	10012	pm.simpleEngRight	pm.simpleEng	2	57	334	0	0	08:36:22	772418	0	0	0	0	0	0	0	0	0	0	0	0	0	0	0	0	0
120612	08:36:22	10012	pm.simpleEngRight	blank.simpleEng	2	0	1600	1	0	08:36:22	774031	0	0	0	0	0	0	0	0	0	0	0	0	0	0	0	0	0
120612	08:36:22	10012	pm.simpleEngRight	pm.simpleEng	2	57	345	0	0	08:36:22	774404	0	0	0	0	0	0	0	0	0	0	0	0	0	0	0	0	0
120612	08:36:22	10012	pm.simpleEngRight	blank.simpleEng	2	0	1900	1	0	08:36:22	776323	0	0	0	0	0	0	0	0	0	0	0	0	0	0	0	0	0
120612	08:36:22	10012	pm.simpleEngRight	pm.simpleEng	2	57	276	0	0	08:36:22	776617	0	0	0	0	0	0	0	0	0	0	0	0	0	0	0	0	0
120612	08:36:22	10012	pm.simpleEngRight	blank.simpleEng	2	0	1600	1	0	08:36:22	778229	0	0	0	0	0	0	0	0	0	0	0	0	0	0	0	0	0
120612	08:36:22	10012	pm.simpleEngRight	pm.simpleEng	2	57	323	0	0	08:36:22	778576	0	0	0	0	0	0	0	0	0	0	0	0	0	0	0	0	0
120612	08:36:22	10012	pm.simpleEngRight	blank.simpleEng	2	0	2000	1	0	08:36:22	780588	0	0	0	0	0	0	0	0	0	0	0	0	0	0	0	0	0
120612	08:36:22	10012	pm.simpleEngRight	pm.simpleEng	2	57	444	0	0	08:36:22	781055	0	0	0	0	0	0	0	0	0	0	0	0	0	0	0	0	0
120612	08:36:22	10012	pm.simpleEngRight	blank.simpleEng	2	0	1800	1	0	08:36:22	782867	0	0	0	0	0	0	0	0	0	0	0	0	0	0	0	0	0
120612	08:36:22	10012	pm.simpleEngRight	pm.simpleEng	2	57	276	0	0	08:36:22	783161	0	0	0	0	0	0	0	0	0	0	0	0	0	0	0	0	0
120612	08:36:22	10012	pm.simpleEngRight	blank.simpleEng	2	0	1900	1	0	08:36:22	785080	0	0	0	0	0	0	0	0	0	0	0	0	0	0	0	0	0
120612	08:36:22	10012	pm.simpleEngRight	pm.simpleEng	2	57	352	0	0	08:36:22	785453	0	0	0	0	0	0	0	0	0	0	0	0	0	0	0	0	0
120612	08:36:22	10012	pm.simpleEngRight	blank.simpleEng	2	0	2400	1	0	08:36:22	787865	0	0	0	0	0	0	0	0	0	0	0	0	0	0	0	0	0
120612	08:36:22	10012	pm.simpleEngRight	pm.simpleEng	2	57	366	0	0	08:36:22	788252	0	0	0	0	0	0	0	0	0	0	0	0	0	0	0	0	0
120612	08:36:22	10012	pm.simpleEngRight	blank.simpleEng	2	0	1700	1	0	08:36:22	789971	0	0	0	0	0	0	0	0	0	0	0	0	0	0	0	0	0
120612	08:36:22	10012	pm.simpleEngRight	pm.simpleEng	2	57	612	0	0	08:36:22	790611	0	0	0	0	0	0	0	0	0	0	0	0	0	0	0	0	0
120612	08:36:22	10012	pm.simpleEngRight	blank.simpleEng	2	0	2300	1	0	08:36:22	792930	0	0	0	0	0	0	0	0	0	0	0	0	0	0	0	0	0
120612	08:36:22	10012	pm.simpleEngRight	pm.simpleEng	2	57	357	0	0	08:36:22	793316	0	0	0	0	0	0	0	0	0	0	0	0	0	0	0	0	0
120612	08:36:22	10012	pm.simpleEngRight	blank.simpleEng	2	0	2100	1	0	08:36:22	795436	0	0	0	0	0	0	0	0	0	0	0	0	0	0	0	0	0
120612	08:36:22	10012	pm.simpleEngRight	pm.simpleEng	2	57	300	0	0	08:36:22	795755	0	0	0	0	0	0	0	0	0	0	0	0	0	0	0	0	0
120612	08:36:22	10012	pm.simpleEngRight	blank.simpleEng	2	0	2200	1	0	08:36:22	797968	0	0	0	0	0	0	0	0	0	0	0	0	0	0	0	0	0
120612	08:36:22	10012	pm.simpleEngRight	pm.simpleEng	2	57	312	0	0	08:36:22	798301	0	0	0	0	0	0	0	0	0	0	0	0	0	0	0	0	0
120612	08:36:22	10012	pm.simpleEngRight	blank.simpleEng	2	0	2500	1	0	08:36:22	800820	0	0	0	0	0	0	0	0	0	0	0	0	0	0	0	0	0
120612	08:36:22	10012	pm.simpleEngRight	pm.simpleEng	2	57	291	0	0	08:36:22	801140	0	0	0	0	0	0	0	0	0	0	0	0	0	0	0	0	0
120612	08:36:22	10012	pm.simpleEngRight	blank.simpleEng	2	0	1500	1	0	08:36:22	802659	0	0	0	0	0	0	0	0	0	0	0	0	0	0	0	0	0
120612	08:36:22	10012	pm.simpleEngRight	pm.simpleEng	2	57	388	0	0	08:36:22	803072	0	0	0	0	0	0	0	0	0	0	0	0	0	0	0	0	0
120612	08:36:22	10012	pm.simpleEngRight	blank.simpleEng	2	0	2400	1	0	08:36:22	805485	0	0	0	0	0	0	0	0	0	0	0	0	0	0	0	0	0
120612	08:36:22	10012	pm.simpleEngRight	pm.simpleEng	2	57	298	0	0	08:36:22	805805	0	0	0	0	0	0	0	0	0	0	0	0	0	0	0	0	0
120612	08:36:22	10012	pm.simpleEngRight	blank.simpleEng	2	0	1800	1	0	08:36:22	807617	0	0	0	0	0	0	0	0	0	0	0	0	0	0	0	0	0
120612	08:36:22	10012	pm.simpleEngRight	pm.simpleEng	2	57	358	0	0	08:36:22	808004	0	0	0	0	0	0	0	0	0	0	0	0	0	0	0	0	0
120612	08:36:22	10012	pm.simpleEngRight	blank.simpleEng	2	0	1900	1	0	08:36:22	809923	0	0	0	0	0	0	0	0	0	0	0	0	0	0	0	0	0
120612	08:36:22	10012	pm.simpleEngRight	pm.simpleEng	2	57	276	0	0	08:36:22	810216	0	0	0	0	0	0	0	0	0	0	0	0	0	0	0	0	0
120612	08:36:22	10012	pm.simpleEngRight	blank.simpleEng	2	0	2300	1	0	08:36:22	812535	0	0	0	0	0	0	0	0	0	0	0	0	0	0	0	0	0
120612	08:36:22	10012	pm.simpleEngRight	pm.simpleEng	2	57	272	0	0	08:36:22	812829	0	0	0	0	0	0	0	0	0	0	0	0	0	0	0	0	0
120612	08:36:22	10012	pm.simpleEngRight	blank.simpleEng	2	0	2500	1	0	08:36:22	815348	0	0	0	0	0	0	0	0	0	0	0	0	0	0	0	0	0
120612	08:36:22	10012	pm.simpleEngRight	pm.simpleEng	2	57	291	0	0	08:36:22	815668	0	0	0	0	0	0	0	0	0	0	0	0	0	0	0	0	0
120612	08:36:22	10012	pm.simpleEngRight	blank.simpleEng	2	0	2000	1	0	08:36:22	817693	0	0	0	0	0	0	0	0	0	0	0	0	0	0	0	0	0
120612	08:36:22	10012	pm.simpleEngRight	pm.simpleEng	2	57	410	0	0	08:36:22	818120	0	0	0	0	0	0	0	0	0	0	0	0	0	0	0	0	0
120612	08:36:22	10012	pm.simpleEngRight	blank.simpleEng	2	0	1700	1	0	08:36:22	819839	0	0	0	0	0	0	0	0	0	0	0	0	0	0	0	0	0
120612	08:36:22	10012	pm.simpleEngRight	pm.simpleEng	2	57	408	0	0	08:36:22	820266	0	0	0	0	0	0	0	0	0	0	0	0	0	0	0	0	0
120612	08:36:22	10012	pm.simpleEngRight	blank.simpleEng	2	0	1600	1	0	08:36:22	821878	0	0	0	0	0	0	0	0	0	0	0	0	0	0	0	0	0
120612	08:36:22	10012	pm.simpleEngRight	pm.simpleEng	2	57	401	0	0	08:36:22	822305	0	0	0	0	0	0	0	0	0	0	0	0	0	0	0	0	0
120612	08:36:22	10012	pm.simpleEngRight	blank.simpleEng	2	0	2100	1	0	08:36:22	824424	0	0	0	0	0	0	0	0	0	0	0	0	0	0	0	0	0
120612	08:36:22	10012	pm.simpleEngRight	pm.simpleEng	2	57	255	0	0	08:36:22	824704	0	0	0	0	0	0	0	0	0	0	0	0	0	0	0	0	0
120612	08:36:22	10012	pm.simpleEngRight	blank.simpleEng	2	0	1500	1	0	08:36:22	826223	0	0	0	0	0	0	0	0	0	0	0	0	0	0	0	0	0
120612	08:36:22	10012	pm.simpleEngRight	pm.simpleEng	2	57	344	0	0	08:36:22	826583	0	0	0	0	0	0	0	0	0	0	0	0	0	0	0	0	0
120612	08:36:22	10012	pm.simpleEngRight	blank.simpleEng	2	0	2200	1	0	08:36:22	828795	0	0	0	0	0	0	0	0	0	0	0	0	0	0	0	0	0
120612	08:36:22	10012	pm.simpleEngRight	pm.simpleEng	2	57	507	0	0	08:36:22	829329	0	0	0	0	0	0	0	0	0	0	0	0	0	0	0	0	0
120612	08:36:22	10012	pm.simpleEngRight	blank.simpleEng	2	0	2500	1	0	08:36:22	831848	0	0	0	0	0	0	0	0	0	0	0	0	0	0	0	0	0
120612	08:36:22	10012	pm.simpleEngRight	pm.simpleEng	2	57	287	0	0	08:36:22	832154	0	0	0	0	0	0	0	0	0	0	0	0	0	0	0	0	0
120612	08:36:22	10012	pm.simpleEngRight	blank.simpleEng	2	0	1500	1	0	08:36:22	833674	0	0	0	0	0	0	0	0	0	0	0	0	0	0	0	0	0
120612	08:36:22	10012	pm.simpleEngRight	pm.simpleEng	2	57	364	0	0	08:36:22	834060	0	0	0	0	0	0	0	0	0	0	0	0	0	0	0	0	0
120612	08:36:22	10012	pm.simpleEngRight	blank.simpleEng	2	0	1800	1	0	08:36:22	835873	0	0	0	0	0	0	0	0	0	0	0	0	0	0	0	0	0
120612	08:36:22	10012	pm.simpleEngRight	pm.simpleEng	2	57	310	0	0	08:36:22	836206	0	0	0	0	0	0	0	0	0	0	0	0	0	0	0	0	0
120612	08:36:22	10012	pm.simpleEngRight	blank.simpleEng	2	0	2400	1	0	08:36:22	838631	0	0	0	0	0	0	0	0	0	0	0	0	0	0	0	0	0
120612	08:36:22	10012	pm.simpleEngRight	pm.simpleEng	2	57	334	0	0	08:36:22	838991	0	0	0	0	0	0	0	0	0	0	0	0	0	0	0	0	0
120612	08:36:22	10012	pm.simpleEngRight	blank.simpleEng	2	0	2200	1	0	08:36:22	841204	0	0	0	0	0	0	0	0	0	0	0	0	0	0	0	0	0
120612	08:36:22	10012	pm.simpleEngRight	pm.simpleEng	2	57	323	0	0	08:36:22	841550	0	0	0	0	0	0	0	0	0	0	0	0	0	0	0	0	0
120612	08:36:22	10012	pm.simpleEngRight	blank.simpleEng	2	0	1600	1	0	08:36:22	843163	0	0	0	0	0	0	0	0	0	0	0	0	0	0	0	0	0
120612	08:36:22	10012	pm.simpleEngRight	pm.simpleEng	2	57	363	0	0	08:36:22	843549	0	0	0	0	0	0	0	0	0	0	0	0	0	0	0	0	0
120612	08:36:22	10012	pm.simpleEngRight	blank.simpleEng	2	0	2000	1	0	08:36:22	845562	0	0	0	0	0	0	0	0	0	0	0	0	0	0	0	0	0
120612	08:36:22	10012	pm.simpleEngRight	pm.simpleEng	2	57	428	0	0	08:36:22	846015	0	0	0	0	0	0	0	0	0	0	0	0	0	0	0	0	0
120612	08:36:22	10012	Trial2BackEng	N	3	0	1000	1	1	08:36:22	881774	0	0	0	0	0	0	0	0	0	0	0	0	0	0	0	0	0
120612	08:36:22	10012	Trial2BackEng	N	3	0	1000	1	2	08:36:22	883293	0	0	0	0	0	0	0	0	0	0	0	0	0	0	0	0	0
120612	08:36:22	10012	Trial2BackEng	N	3	0	1000	1	3	08:36:22	884799	0	0	0	0	0	0	0	0	0	0	0	0	0	0	0	0	0
120612	08:36:22	10012	Trial2BackEng	N	3	0	1000	1	4	08:36:22	886305	0	0	0	0	0	0	0	0	0	0	0	0	0	0	0	0	0
120612	08:36:22	10012	Trial2BackEng	N	3	0	1000	1	5	08:36:22	887812	0	0	0	0	0	0	0	0	0	0	0	0	0	0	0	0	0
120612	08:36:22	10012	Trial2BackEng	N	3	0	1000	1	6	08:36:22	889318	0	0	0	0	0	0	0	0	0	0	0	0	0	0	0	0	0
120612	08:36:22	10012	Trial2BackEng	N	3	0	1000	1	7	08:36:22	890824	0	0	0	0	0	0	0	0	0	0	0	0	0	0	0	0	0
120612	08:36:22	10012	Trial2BackEng	N	3	0	1000	1	8	08:36:22	892330	0	0	0	0	0	0	0	0	0	0	0	0	0	0	0	0	0
120612	08:36:22	10012	Trial2BackEng	Y	3	57	768	1	9	08:36:22	893609	0	0	0	0	0	0	0	0	0	0	0	0	0	0	0	0	0
120612	08:36:22	10012	Trial2BackEng	N	3	0	1000	1	10	08:36:22	895342	0	0	0	0	0	0	0	0	0	0	0	0	0	0	0	0	0
120612	08:36:22	10012	Trial2BackEng	N	3	0	1000	1	11	08:36:22	896848	0	0	0	0	0	0	0	0	0	0	0	0	0	0	0	0	0
120612	08:36:22	10012	Trial2BackEng	N	3	0	1000	1	12	08:36:22	898354	0	0	0	0	0	0	0	0	0	0	0	0	0	0	0	0	0
120612	08:36:22	10012	Trial2BackEng	Y	3	57	663	1	13	08:36:22	899527	0	0	0	0	0	0	0	0	0	0	0	0	0	0	0	0	0
120612	08:36:22	10012	Trial2BackEng	N	3	0	1000	1	14	08:36:22	901366	0	0	0	0	0	0	0	0	0	0	0	0	0	0	0	0	0
120612	08:36:22	10012	Trial2BackEng	N	3	0	1000	1	15	08:36:22	902872	0	0	0	0	0	0	0	0	0	0	0	0	0	0	0	0	0
120612	08:36:22	10012	Trial2BackEng	N	3	0	1000	1	16	08:36:22	904378	0	0	0	0	0	0	0	0	0	0	0	0	0	0	0	0	0
120612	08:36:22	10012	Trial2BackEng	N	3	0	1000	1	17	08:36:22	905884	0	0	0	0	0	0	0	0	0	0	0	0	0	0	0	0	0
120612	08:36:22	10012	Trial2BackEng	N	3	0	1000	1	18	08:36:22	907390	0	0	0	0	0	0	0	0	0	0	0	0	0	0	0	0	0
120612	08:36:22	10012	Trial2BackEng	Y	3	57	491	1	19	08:36:22	908390	0	0	0	0	0	0	0	0	0	0	0	0	0	0	0	0	0
120612	08:36:22	10012	Trial2BackEng	N	3	0	1000	1	20	08:36:22	910402	0	0	0	0	0	0	0	0	0	0	0	0	0	0	0	0	0
120612	08:36:22	10012	Trial2BackEng	N	3	0	1000	1	21	08:36:22	911908	0	0	0	0	0	0	0	0	0	0	0	0	0	0	0	0	0
120612	08:36:22	10012	Trial2BackEng	N	3	0	1000	1	22	08:36:22	913415	0	0	0	0	0	0	0	0	0	0	0	0	0	0	0	0	0
120612	08:36:22	10012	Trial2BackEng	N	3	0	1000	1	23	08:36:22	914921	0	0	0	0	0	0	0	0	0	0	0	0	0	0	0	0	0
120612	08:36:22	10012	Trial2BackEng	Y	3	57	609	1	24	08:36:22	916040	0	0	0	0	0	0	0	0	0	0	0	0	0	0	0	0	0
120612	08:36:22	10012	Trial2BackEng	N	3	0	1000	1	25	08:36:22	917933	0	0	0	0	0	0	0	0	0	0	0	0	0	0	0	0	0
120612	08:36:22	10012	Trial2BackEng	N	3	0	1000	1	26	08:36:22	919439	0	0	0	0	0	0	0	0	0	0	0	0	0	0	0	0	0
120612	08:36:22	10012	Trial2BackEng	N	3	0	1000	1	27	08:36:22	920958	0	0	0	0	0	0	0	0	0	0	0	0	0	0	0	0	0
120612	08:36:22	10012	Trial2BackEng	N	3	0	1000	1	28	08:36:22	922464	0	0	0	0	0	0	0	0	0	0	0	0	0	0	0	0	0
120612	08:36:22	10012	Trial2BackEng	N	3	0	1000	1	29	08:36:22	923970	0	0	0	0	0	0	0	0	0	0	0	0	0	0	0	0	0
120612	08:36:22	10012	Trial2BackEng	N	3	0	1000	1	30	08:36:22	925476	0	0	0	0	0	0	0	0	0	0	0	0	0	0	0	0	0
120612	08:36:22	10012	Trial2BackEng	Y	3	57	517	1	31	08:36:22	926503	0	0	0	0	0	0	0	0	0	0	0	0	0	0	0	0	0
120612	08:36:22	10012	Trial2BackEng	N	3	0	1000	1	32	08:36:22	928488	0	0	0	0	0	0	0	0	0	0	0	0	0	0	0	0	0
120612	08:36:22	10012	Trial2BackEng	N	3	0	1000	1	33	08:36:22	929994	0	0	0	0	0	0	0	0	0	0	0	0	0	0	0	0	0
120612	08:36:22	10012	Trial2BackEng	N	3	0	1000	1	34	08:36:22	931501	0	0	0	0	0	0	0	0	0	0	0	0	0	0	0	0	0
120612	08:36:22	10012	Trial2BackEng	Y	3	57	509	1	35	08:36:22	932527	0	0	0	0	0	0	0	0	0	0	0	0	0	0	0	0	0
120612	08:36:22	10012	Trial2BackEng	N	3	0	1000	1	36	08:36:22	934513	0	0	0	0	0	0	0	0	0	0	0	0	0	0	0	0	0
120612	08:36:22	10012	Trial2BackEng	N	3	0	1000	1	37	08:36:22	936019	0	0	0	0	0	0	0	0	0	0	0	0	0	0	0	0	0
120612	08:36:22	10012	Trial2BackEng	N	3	0	1000	1	38	08:36:22	937525	0	0	0	0	0	0	0	0	0	0	0	0	0	0	0	0	0
120612	08:36:22	10012	Trial2BackEng	N	3	0	1000	1	39	08:36:22	939031	0	0	0	0	0	0	0	0	0	0	0	0	0	0	0	0	0
120612	08:36:22	10012	Trial2BackEng	N	3	0	1000	1	40	08:36:22	940537	0	0	0	0	0	0	0	0	0	0	0	0	0	0	0	0	0
120612	08:36:22	10012	Trial2BackEng	N	3	0	1000	1	41	08:36:22	942043	0	0	0	0	0	0	0	0	0	0	0	0	0	0	0	0	0
120612	08:36:22	10012	Trial2BackEng	Y	3	0	1000	0	41	08:36:22	943549	0	0	0	0	0	0	0	0	0	0	0	0	0	0	0	0	0
120612	08:36:22	10012	Trial2BackEng	N	3	57	251	0	41	08:36:22	944309	0	0	0	0	0	0	0	0	0	0	0	0	0	0	0	0	0
120612	08:36:22	10012	Trial2BackEng	N	3	0	1000	1	42	08:36:22	946561	0	0	0	0	0	0	0	0	0	0	0	0	0	0	0	0	0
120612	08:36:22	10012	Trial2BackEng	N	3	0	1000	1	43	08:36:22	948067	0	0	0	0	0	0	0	0	0	0	0	0	0	0	0	0	0
120612	08:36:22	10012	Trial2BackEng	N	3	0	1000	1	44	08:36:22	949573	0	0	0	0	0	0	0	0	0	0	0	0	0	0	0	0	0
120612	08:36:22	10012	Trial2BackEng	Y	3	0	1000	0	44	08:36:22	951079	0	0	0	0	0	0	0	0	0	0	0	0	0	0	0	0	0
120612	08:36:22	10012	Trial2BackEng	N	3	0	1000	1	45	08:36:22	952585	0	0	0	0	0	0	0	0	0	0	0	0	0	0	0	0	0
120612	08:36:22	10012	Trial2BackEng	N	3	0	1000	1	46	08:36:22	954091	0	0	0	0	0	0	0	0	0	0	0	0	0	0	0	0	0
120612	08:36:22	10012	Trial2BackEng	N	3	0	1000	1	47	08:36:22	955597	0	0	0	0	0	0	0	0	0	0	0	0	0	0	0	0	0
120612	08:36:22	10012	Trial2BackEng	N	3	0	1000	1	48	08:36:22	957103	0	0	0	0	0	0	0	0	0	0	0	0	0	0	0	0	0
120612	08:36:22	10012	Trial2BackEng	N	3	0	1000	1	49	08:36:22	958609	0	0	0	0	0	0	0	0	0	0	0	0	0	0	0	0	0
120612	08:36:22	10012	Trial2BackEng	Y	3	57	550	1	50	08:36:22	959676	0	0	0	0	0	0	0	0	0	0	0	0	0	0	0	0	0
120612	08:36:22	10012	Trial2BackEng	N	3	0	1000	1	51	08:36:22	961622	0	0	0	0	0	0	0	0	0	0	0	0	0	0	0	0	0
120612	08:36:22	10012	Trial2BackEng	N	3	0	1000	1	52	08:36:22	963128	0	0	0	0	0	0	0	0	0	0	0	0	0	0	0	0	0
120612	08:36:22	10012	Trial2BackEng	N	3	0	1000	1	53	08:36:22	964634	0	0	0	0	0	0	0	0	0	0	0	0	0	0	0	0	0
120612	08:36:22	10012	Trial2BackEng	N	3	0	1000	1	54	08:36:22	966140	0	0	0	0	0	0	0	0	0	0	0	0	0	0	0	0	0
120612	08:36:22	10012	Trial2BackEng	N	3	0	1000	1	55	08:36:22	967646	0	0	0	0	0	0	0	0	0	0	0	0	0	0	0	0	0
120612	08:36:22	10012	Trial2BackEng	N	3	0	1000	1	56	08:36:22	969152	0	0	0	0	0	0	0	0	0	0	0	0	0	0	0	0	0
120612	08:36:22	10012	Trial2BackEng	Y	3	57	600	1	57	08:36:22	970271	0	0	0	0	0	0	0	0	0	0	0	0	0	0	0	0	0
120612	08:36:22	10012	Trial2BackEng	N	3	0	1000	1	58	08:36:22	972164	0	0	0	0	0	0	0	0	0	0	0	0	0	0	0	0	0
120612	08:36:22	10012	Trial2BackEng	N	3	0	1000	1	59	08:36:22	973670	0	0	0	0	0	0	0	0	0	0	0	0	0	0	0	0	0
120612	08:36:22	10012	Trial2BackEng	Y	3	0	1000	0	59	08:36:22	975176	0	0	0	0	0	0	0	0	0	0	0	0	0	0	0	0	0
120612	08:36:22	10012	Trial2BackEng	N	3	0	1000	1	60	08:36:22	976682	0	0	0	0	0	0	0	0	0	0	0	0	0	0	0	0	0
120612	08:36:22	10012	Trial2BackEng	N	3	0	1000	1	61	08:36:22	978188	0	0	0	0	0	0	0	0	0	0	0	0	0	0	0	0	0
120612	08:36:22	10012	Trial2BackEng	N	3	0	1000	1	62	08:36:22	979694	0	0	0	0	0	0	0	0	0	0	0	0	0	0	0	0	0
120612	08:36:22	10012	Trial2BackEng	N	3	0	1000	1	63	08:36:22	981200	0	0	0	0	0	0	0	0	0	0	0	0	0	0	0	0	0
120612	08:36:22	10012	Trial2BackEng	N	3	0	1000	1	64	08:36:22	982706	0	0	0	0	0	0	0	0	0	0	0	0	0	0	0	0	0
120612	08:36:22	10012	Trial2BackEng	N	3	0	1000	1	65	08:36:22	984213	0	0	0	0	0	0	0	0	0	0	0	0	0	0	0	0	0
120612	08:36:22	10012	Trial2BackEng	N	3	0	1000	1	66	08:36:22	985719	0	0	0	0	0	0	0	0	0	0	0	0	0	0	0	0	0
120612	08:36:22	10012	Trial2BackEng	N	3	0	1000	1	67	08:36:22	987225	0	0	0	0	0	0	0	0	0	0	0	0	0	0	0	0	0
120612	08:36:22	10012	Trial2BackEng	N	3	0	1000	1	68	08:36:22	988731	0	0	0	0	0	0	0	0	0	0	0	0	0	0	0	0	0
120612	08:36:22	10012	Trial2BackEng	N	3	0	1000	1	69	08:36:22	990237	0	0	0	0	0	0	0	0	0	0	0	0	0	0	0	0	0
120612	08:36:22	10012	Trial2BackEng	Y	3	57	461	1	70	08:36:22	991210	0	0	0	0	0	0	0	0	0	0	0	0	0	0	0	0	0
120612	08:36:22	10012	Trial2BackEng	N	3	0	1000	1	71	08:36:22	993249	0	0	0	0	0	0	0	0	0	0	0	0	0	0	0	0	0
120612	08:36:22	10012	Trial2BackEng	N	3	0	1000	1	72	08:36:22	994755	0	0	0	0	0	0	0	0	0	0	0	0	0	0	0	0	0
120612	08:36:22	10012	Trial2BackEng	N	3	0	1000	1	73	08:36:22	996261	0	0	0	0	0	0	0	0	0	0	0	0	0	0	0	0	0
120612	08:36:22	10012	Trial2BackEng	Y	3	57	898	1	74	08:36:22	997674	0	0	0	0	0	0	0	0	0	0	0	0	0	0	0	0	0
120612	08:36:22	10012	Trial2BackEng	N	3	0	1000	1	75	08:36:22	999273	0	0	0	0	0	0	0	0	0	0	0	0	0	0	0	0	0
120612	08:36:22	10012	Trial2BackEng	N	3	0	1000	1	76	08:36:22	1000779	0	0	0	0	0	0	0	0	0	0	0	0	0	0	0	0	0
120612	08:36:22	10012	Trial2BackEng	N	3	0	1000	1	77	08:36:22	1002285	0	0	0	0	0	0	0	0	0	0	0	0	0	0	0	0	0
120612	08:36:22	10012	Trial2BackEng	N	3	0	1000	1	78	08:36:22	1003791	0	0	0	0	0	0	0	0	0	0	0	0	0	0	0	0	0
120612	08:36:22	10012	Trial2BackEng	N	3	0	1000	1	79	08:36:22	1005297	0	0	0	0	0	0	0	0	0	0	0	0	0	0	0	0	0
120612	08:36:22	10012	Trial2BackEng	Y	3	57	437	1	80	08:36:22	1006244	0	0	0	0	0	0	0	0	0	0	0	0	0	0	0	0	0
120612	08:36:22	10012	Trial2BackEng	N	3	0	1000	1	81	08:36:22	1008309	0	0	0	0	0	0	0	0	0	0	0	0	0	0	0	0	0
120612	08:36:22	10012	Trial2BackEng	N	3	0	1000	1	82	08:36:22	1009816	0	0	0	0	0	0	0	0	0	0	0	0	0	0	0	0	0
120612	08:36:22	10012	Trial2BackEng	N	3	0	1000	1	83	08:36:22	1011321	0	0	0	0	0	0	0	0	0	0	0	0	0	0	0	0	0
120612	08:36:22	10012	Trial2BackEng	N	3	0	1000	1	84	08:36:22	1012828	0	0	0	0	0	0	0	0	0	0	0	0	0	0	0	0	0
120612	08:36:22	10012	Trial2BackEng	N	3	0	1000	1	85	08:36:22	1014347	0	0	0	0	0	0	0	0	0	0	0	0	0	0	0	0	0
120612	08:36:22	10012	Trial2BackEng	N	3	0	1000	1	86	08:36:22	1015866	0	0	0	0	0	0	0	0	0	0	0	0	0	0	0	0	0
120612	08:36:22	10012	Trial2BackEng	N	3	0	1000	1	87	08:36:22	1017372	0	0	0	0	0	0	0	0	0	0	0	0	0	0	0	0	0
120612	08:36:22	10012	Trial2BackEng	N	3	0	1000	1	88	08:36:22	1018878	0	0	0	0	0	0	0	0	0	0	0	0	0	0	0	0	0
120612	08:36:22	10012	Trial2BackEng	N	3	0	1000	1	89	08:36:22	1020384	0	0	0	0	0	0	0	0	0	0	0	0	0	0	0	0	0
120612	08:36:22	10012	Trial2BackEng	Y	3	57	422	1	90	08:36:22	1021318	0	0	0	0	0	0	0	0	0	0	0	0	0	0	0	0	0
120612	08:36:22	10012	Trial2BackEng	N	3	0	1000	1	91	08:36:22	1023397	0	0	0	0	0	0	0	0	0	0	0	0	0	0	0	0	0
120612	08:36:22	10012	Trial2BackEng	N	3	0	1000	1	92	08:36:22	1024903	0	0	0	0	0	0	0	0	0	0	0	0	0	0	0	0	0
120612	08:36:22	10012	Trial2BackEng	N	3	0	1000	1	93	08:36:22	1026409	0	0	0	0	0	0	0	0	0	0	0	0	0	0	0	0	0
120612	08:36:22	10012	Trial2BackEng	N	3	0	1000	1	94	08:36:22	1027915	0	0	0	0	0	0	0	0	0	0	0	0	0	0	0	0	0
120612	08:36:22	10012	Trial2BackEng	N	3	0	1000	1	95	08:36:22	1029421	0	0	0	0	0	0	0	0	0	0	0	0	0	0	0	0	0
120612	08:36:22	10012	Trial2BackEng	N	3	0	1000	1	96	08:36:22	1030927	0	0	0	0	0	0	0	0	0	0	0	0	0	0	0	0	0
120612	08:36:22	10012	Trial2BackEng	N	3	0	1000	1	97	08:36:22	1032433	0	0	0	0	0	0	0	0	0	0	0	0	0	0	0	0	0
120612	08:36:22	10012	Trial2BackEng	N	3	0	1000	1	98	08:36:22	1033939	0	0	0	0	0	0	0	0	0	0	0	0	0	0	0	0	0
120612	08:36:22	10012	Trial2BackEng	Y	3	0	1000	0	98	08:36:22	1035445	0	0	0	0	0	0	0	0	0	0	0	0	0	0	0	0	0
120612	08:36:22	10012	Trial2BackEng	N	3	0	1000	1	99	08:36:22	1036951	0	0	0	0	0	0	0	0	0	0	0	0	0	0	0	0	0
120612	08:36:22	10012	Trial2BackEng	N	3	0	1000	1	100	08:36:22	1038457	0	0	0	0	0	0	0	0	0	0	0	0	0	0	0	0	0
120612	08:36:22	10012	Trial2BackEng	N	3	0	1000	1	101	08:36:22	1039963	0	0	0	0	0	0	0	0	0	0	0	0	0	0	0	0	0
120612	08:36:22	10012	Trial2BackEng	N	3	0	1000	1	102	08:36:22	1041469	0	0	0	0	0	0	0	0	0	0	0	0	0	0	0	0	0
120612	08:36:22	10012	Trial2BackEng	Y	3	57	409	1	103	08:36:22	1042389	0	0	0	0	0	0	0	0	0	0	0	0	0	0	0	0	0
120612	08:36:22	10012	Trial2BackEng	N	3	0	1000	1	104	08:36:22	1044481	0	0	0	0	0	0	0	0	0	0	0	0	0	0	0	0	0
120612	08:36:22	10012	Trial2BackEng	N	3	0	1000	1	105	08:36:22	1045987	0	0	0	0	0	0	0	0	0	0	0	0	0	0	0	0	0
120612	08:36:22	10012	Trial2BackEng	N	3	0	1000	1	106	08:36:22	1047494	0	0	0	0	0	0	0	0	0	0	0	0	0	0	0	0	0
120612	08:36:22	10012	Trial2BackEng	Y	3	57	464	1	107	08:36:22	1048466	0	0	0	0	0	0	0	0	0	0	0	0	0	0	0	0	0
120612	08:36:22	10012	Trial2BackEng	N	3	0	1000	1	108	08:36:22	1050506	0	0	0	0	0	0	0	0	0	0	0	0	0	0	0	0	0
120612	08:36:22	10012	Trial2BackEng	N	3	0	1000	1	109	08:36:22	1052012	0	0	0	0	0	0	0	0	0	0	0	0	0	0	0	0	0
120612	08:36:22	10012	Trial2BackEng	N	3	0	1000	1	110	08:36:22	1053531	0	0	0	0	0	0	0	0	0	0	0	0	0	0	0	0	0
120612	08:36:22	10012	Trial2BackEng	N	3	0	1000	1	111	08:36:22	1055050	0	0	0	0	0	0	0	0	0	0	0	0	0	0	0	0	0
120612	08:36:22	10012	Trial2BackEng	N	3	0	1000	1	112	08:36:22	1056557	0	0	0	0	0	0	0	0	0	0	0	0	0	0	0	0	0
120612	08:36:22	10012	Trial2BackEng	Y	3	57	585	1	113	08:36:22	1057663	0	0	0	0	0	0	0	0	0	0	0	0	0	0	0	0	0
120612	08:36:22	10012	Trial2BackEng	N	3	0	1000	1	114	08:36:22	1059569	0	0	0	0	0	0	0	0	0	0	0	0	0	0	0	0	0
120612	08:36:22	10012	Trial2BackEng	N	3	0	1000	1	115	08:36:22	1061075	0	0	0	0	0	0	0	0	0	0	0	0	0	0	0	0	0
120612	08:36:22	10012	Trial2BackEng	N	3	0	1000	1	116	08:36:22	1062581	0	0	0	0	0	0	0	0	0	0	0	0	0	0	0	0	0
120612	08:36:22	10012	Trial2BackEng	Y	3	0	1000	0	116	08:36:22	1064087	0	0	0	0	0	0	0	0	0	0	0	0	0	0	0	0	0
120612	08:36:22	10012	Memory1R6mo	Score	5	M1	13464	0	116	08:36:22	1108336	0	0	0	0	0	0	0	0	0	0	0	0	0	0	0	0	0
120612	08:36:22	10012	Memory1R6mo	Score	5	M2	174	0	116	08:36:22	1108562	0	0	0	0	0	0	0	0	0	0	0	0	0	0	0	0	0
120612	08:36:22	10012	Memory1R6mo	Score	5	M3	262	0	116	08:36:22	1108882	0	0	0	0	0	0	0	0	0	0	0	0	0	0	0	0	0
120612	08:36:22	10012	Memory1R6mo	Score	5	M4	195	0	116	08:36:22	1109122	0	0	0	0	0	0	0	0	0	0	0	0	0	0	0	0	0
120612	08:36:22	10012	Memory1R6mo	Score	5	M5	187	0	116	08:36:22	1109362	0	0	0	0	0	0	0	0	0	0	0	0	0	0	0	0	0
120612	08:36:22	10012	Memory1R6mo	Score	5	M6	155	0	116	08:36:22	1109562	0	0	0	0	0	0	0	0	0	0	0	0	0	0	0	0	0
120612	08:36:22	10012	Memory1R6mo	Score	5	M7	155	0	116	08:36:22	1109762	0	0	0	0	0	0	0	0	0	0	0	0	0	0	0	0	0
120612	08:36:22	10012	Memory1R6mo	Score	5	M8	283	0	116	08:36:22	1110095	0	0	0	0	0	0	0	0	0	0	0	0	0	0	0	0	0
120612	08:36:22	10012	Memory1R6mo	Score	5	Done	613	0	116	08:36:22	1110761	0	0	0	0	0	0	0	0	0	0	0	0	0	0	0	0	0
120612	08:36:22	10012	Memory2R6mo	Score2	5	11	17789	0	116	08:36:22	1148533	0	0	0	0	0	0	0	0	0	0	0	0	0	0	0	0	0
120612	08:36:22	10012	Memory2R6mo	Score2	5	22	167	0	116	08:36:22	1148746	0	0	0	0	0	0	0	0	0	0	0	0	0	0	0	0	0
120612	08:36:22	10012	Memory2R6mo	Score2	5	44	466	0	116	08:36:22	1149266	0	0	0	0	0	0	0	0	0	0	0	0	0	0	0	0	0
120612	08:36:22	10012	Memory2R6mo	Score2	5	66	194	0	116	08:36:22	1149506	0	0	0	0	0	0	0	0	0	0	0	0	0	0	0	0	0
120612	08:36:22	10012	Memory2R6mo	Score2	5	55	378	0	116	08:36:22	1149932	0	0	0	0	0	0	0	0	0	0	0	0	0	0	0	0	0
120612	08:36:22	10012	Memory2R6mo	Score2	5	77	440	0	116	08:36:22	1150426	0	0	0	0	0	0	0	0	0	0	0	0	0	0	0	0	0
120612	08:36:22	10012	Memory2R6mo	Score2	5	88	211	0	116	08:36:22	1150692	0	0	0	0	0	0	0	0	0	0	0	0	0	0	0	0	0
120612	08:36:22	10012	Memory2R6mo	Score2	5	Done	11472	0	116	08:36:22	1162221	0	0	0	0	0	0	0	0	0	0	0	0	0	0	0	0	0
120612	08:36:22	10012	Memory3R6mo	Score3	5	888	15249	0	116	08:36:22	1197846	0	0	0	0	0	0	0	0	0	0	0	0	0	0	0	0	0
120612	08:36:22	10012	Memory3R6mo	Score3	5	666	685	0	116	08:36:22	1198579	0	0	0	0	0	0	0	0	0	0	0	0	0	0	0	0	0
120612	08:36:22	10012	Memory3R6mo	Score3	5	555	512	0	116	08:36:22	1199139	0	0	0	0	0	0	0	0	0	0	0	0	0	0	0	0	0
120612	08:36:22	10012	Memory3R6mo	Score3	5	444	424	0	116	08:36:22	1199619	0	0	0	0	0	0	0	0	0	0	0	0	0	0	0	0	0
120612	08:36:22	10012	Memory3R6mo	Score3	5	333	376	0	116	08:36:22	1200045	0	0	0	0	0	0	0	0	0	0	0	0	0	0	0	0	0
120612	08:36:22	10012	Memory3R6mo	Score3	5	222	366	0	116	08:36:22	1200458	0	0	0	0	0	0	0	0	0	0	0	0	0	0	0	0	0
120612	08:36:22	10012	Memory3R6mo	Score3	5	111	344	0	116	08:36:22	1200858	0	0	0	0	0	0	0	0	0	0	0	0	0	0	0	0	0
120612	08:36:22	10012	Memory3R6mo	Score3	5	Done	11744	0	116	08:36:22	1212653	0	0	0	0	0	0	0	0	0	0	0	0	0	0	0	0	0
120612	08:36:22	10012	LoriaEngLH3	Stop	6	7	3659	0	116	08:36:22	1275096	0	0	0	0	0	0	0	0	0	0	0	0	0	0	0	0	0
120612	08:36:22	10012	EngTrail	Trails	7	1Trails	785	0	116	08:36:22	1293767	0	0	0	0	0	0	0	0	0	0	0	0	0	0	0	0	0
120612	08:36:22	10012	Serial7Eng6mo	Serial7Eng6mo	8	73	3196	0	116	08:36:22	1318438	1	0	0	0	0	0	0	0	0	0	0	0	0	0	0	0	0
120612	08:36:22	10012	Serial7Eng6mo	Serial7Eng6mo	8	66	3245	0	116	08:36:22	1321704	2	0	0	0	0	0	0	0	0	0	0	0	0	0	0	0	0
120612	08:36:22	10012	Serial7Eng6mo	Serial7Eng6mo	8	59	2986	0	116	08:36:22	1324716	3	0	0	0	0	0	0	0	0	0	0	0	0	0	0	0	0
120612	08:36:22	10012	Serial7Eng6mo	Serial7Eng6mo	8	52	2919	0	116	08:36:22	1327650	4	0	0	0	0	0	0	0	0	0	0	0	0	0	0	0	0
120612	08:36:22	10012	Serial7Eng6mo	Serial7Eng6mo	8	45	2914	0	116	08:36:22	1330581	5	0	0	0	0	0	0	0	0	0	0	0	0	0	0	0	0
120612	08:36:22	10012	corsiblockEngFwrd	recallseqEngFwrd	9	2	2346	0	116	08:36:22	1363021	5	0	0	0	0	0	0	0	0	0	0	0	0	0	0	0	0
120612	08:36:22	10012	corsiblockEngFwrd	recallseqEngFwrd	9	3	1340	0	116	08:36:22	1364407	5	0	0	0	0	0	0	0	0	0	0	0	0	0	0	0	0
120612	08:36:22	10012	corsiblockEngFwrd	recallseqEngFwrd	9	doneCorsiEng	1841	0	116	08:36:22	1366300	5	0	0	0	0	0	0	0	0	0	0	0	0	0	0	2	0
120612	08:36:22	10012	corsiblockEngFwrd	recallseqEngFwrd	9	4	1057	0	116	08:36:22	1373497	5	0	0	0	0	0	0	0	0	0	0	0	0	0	0	2	0
120612	08:36:22	10012	corsiblockEngFwrd	recallseqEngFwrd	9	7	1159	0	116	08:36:22	1374710	5	0	0	0	0	0	0	0	0	0	0	0	0	0	0	2	0
120612	08:36:22	10012	corsiblockEngFwrd	recallseqEngFwrd	9	6	858	0	116	08:36:22	1375616	5	0	0	0	0	0	0	0	0	0	0	0	0	0	0	2	0
120612	08:36:22	10012	corsiblockEngFwrd	recallseqEngFwrd	9	doneCorsiEng	864	0	116	08:36:22	1376536	5	0	0	0	0	0	0	0	0	0	0	0	0	0	0	3	0
120612	08:36:22	10012	corsiblockEngFwrd	recallseqEngFwrd	9	8	1611	0	116	08:36:22	1385279	5	0	0	0	0	0	0	0	0	0	0	0	0	0	0	3	0
120612	08:36:22	10012	corsiblockEngFwrd	recallseqEngFwrd	9	9	1049	0	116	08:36:22	1386385	5	0	0	0	0	0	0	0	0	0	0	0	0	0	0	3	0
120612	08:36:22	10012	corsiblockEngFwrd	recallseqEngFwrd	9	1	1168	0	116	08:36:22	1387598	5	0	0	0	0	0	0	0	0	0	0	0	0	0	0	3	0
120612	08:36:22	10012	corsiblockEngFwrd	recallseqEngFwrd	9	5	1058	0	116	08:36:22	1388704	5	0	0	0	0	0	0	0	0	0	0	0	0	0	0	3	0
120612	08:36:22	10012	corsiblockEngFwrd	recallseqEngFwrd	9	doneCorsiEng	1128	0	116	08:36:22	1389877	5	0	0	0	0	0	0	0	0	0	0	0	0	0	0	4	0
120612	08:36:22	10012	corsiblockEngFwrd	recallseqEngFwrd	9	9	1929	0	116	08:36:22	1399939	5	0	0	0	0	0	0	0	0	0	0	0	0	0	0	4	0
120612	08:36:22	10012	corsiblockEngFwrd	recallseqEngFwrd	9	1	1460	0	116	08:36:22	1401446	5	0	0	0	0	0	0	0	0	0	0	0	0	0	0	4	0
120612	08:36:22	10012	corsiblockEngFwrd	recallseqEngFwrd	9	6	1186	0	116	08:36:22	1402685	5	0	0	0	0	0	0	0	0	0	0	0	0	0	0	4	0
120612	08:36:22	10012	corsiblockEngFwrd	recallseqEngFwrd	9	5	629	0	116	08:36:22	1403378	5	0	0	0	0	0	0	0	0	0	0	0	0	0	0	4	0
120612	08:36:22	10012	corsiblockEngFwrd	recallseqEngFwrd	9	2	1118	0	116	08:36:22	1404551	5	0	0	0	0	0	0	0	0	0	0	0	0	0	0	4	0
120612	08:36:22	10012	corsiblockEngFwrd	recallseqEngFwrd	9	doneCorsiEng	1632	0	116	08:36:22	1406230	5	0	0	0	0	0	0	0	0	0	0	0	0	0	0	4	0
120612	08:36:22	10012	corsiblockEngFwrd	recallseqEngFwrd	9	3	1700	0	116	08:36:22	1416013	5	0	0	0	0	0	0	0	0	0	0	0	0	0	0	4	0
120612	08:36:22	10012	corsiblockEngFwrd	recallseqEngFwrd	9	7	1298	0	116	08:36:22	1417359	5	0	0	0	0	0	0	0	0	0	0	0	0	0	0	4	0
120612	08:36:22	10012	corsiblockEngFwrd	recallseqEngFwrd	9	8	896	0	116	08:36:22	1418305	5	0	0	0	0	0	0	0	0	0	0	0	0	0	0	4	0
120612	08:36:22	10012	corsiblockEngFwrd	recallseqEngFwrd	9	4	1254	0	116	08:36:22	1419612	5	0	0	0	0	0	0	0	0	0	0	0	0	0	0	4	0
120612	08:36:22	10012	corsiblockEngFwrd	recallseqEngFwrd	9	8	939	0	116	08:36:22	1420598	5	0	0	0	0	0	0	0	0	0	0	0	0	0	0	4	0
120612	08:36:22	10012	corsiblockEngFwrd	recallseqEngFwrd	9	doneCorsiEng	1153	0	116	08:36:22	1421797	5	0	0	0	0	0	0	0	0	0	0	0	0	0	0	5	0
120612	08:36:22	10012	corsiblockEngFwrd	recallseqEngFwrd	9	7	2458	0	116	08:36:22	1432366	5	0	0	0	0	0	0	0	0	0	0	0	0	0	0	5	0
120612	08:36:22	10012	corsiblockEngFwrd	recallseqEngFwrd	9	4	736	0	116	08:36:22	1433153	5	0	0	0	0	0	0	0	0	0	0	0	0	0	0	5	0
120612	08:36:22	10012	corsiblockEngFwrd	recallseqEngFwrd	9	5	646	0	116	08:36:22	1433846	5	0	0	0	0	0	0	0	0	0	0	0	0	0	0	5	0
120612	08:36:22	10012	corsiblockEngFwrd	recallseqEngFwrd	9	2	1001	0	116	08:36:22	1434899	5	0	0	0	0	0	0	0	0	0	0	0	0	0	0	5	0
120612	08:36:22	10012	corsiblockEngFwrd	recallseqEngFwrd	9	6	772	0	116	08:36:22	1435725	5	0	0	0	0	0	0	0	0	0	0	0	0	0	0	5	0
120612	08:36:22	10012	corsiblockEngFwrd	recallseqEngFwrd	9	3	874	0	116	08:36:22	1436645	5	0	0	0	0	0	0	0	0	0	0	0	0	0	0	5	0
120612	08:36:22	10012	corsiblockEngFwrd	recallseqEngFwrd	9	doneCorsiEng	1010	0	116	08:36:22	1437711	5	0	0	0	0	0	0	0	0	0	0	0	0	0	0	6	0
120612	08:36:22	10012	corsiblockEngFwrd	recallseqEngFwrd	9	1	1543	0	116	08:36:22	1449386	5	0	0	0	0	0	0	0	0	0	0	0	0	0	0	6	0
120612	08:36:22	10012	corsiblockEngFwrd	recallseqEngFwrd	9	9	940	0	116	08:36:22	1450372	5	0	0	0	0	0	0	0	0	0	0	0	0	0	0	6	0
120612	08:36:22	10012	corsiblockEngFwrd	recallseqEngFwrd	9	8	1026	0	116	08:36:22	1451452	5	0	0	0	0	0	0	0	0	0	0	0	0	0	0	6	0
120612	08:36:22	10012	corsiblockEngFwrd	recallseqEngFwrd	9	4	1187	0	116	08:36:22	1452692	5	0	0	0	0	0	0	0	0	0	0	0	0	0	0	6	0
120612	08:36:22	10012	corsiblockEngFwrd	recallseqEngFwrd	9	8	1251	0	116	08:36:22	1453998	5	0	0	0	0	0	0	0	0	0	0	0	0	0	0	6	0
120612	08:36:22	10012	corsiblockEngFwrd	recallseqEngFwrd	9	2	1249	0	116	08:36:22	1455291	5	0	0	0	0	0	0	0	0	0	0	0	0	0	0	6	0
120612	08:36:22	10012	corsiblockEngFwrd	recallseqEngFwrd	9	7	764	0	116	08:36:22	1456103	5	0	0	0	0	0	0	0	0	0	0	0	0	0	0	6	0
120612	08:36:22	10012	corsiblockEngFwrd	recallseqEngFwrd	9	doneCorsiEng	1351	0	116	08:36:22	1457503	5	0	0	0	0	0	0	0	0	0	0	0	0	0	0	6	0
120612	08:36:22	10012	corsiblockEngFwrd	recallseqEngFwrd	9	6	4477	0	116	08:36:22	1472070	5	0	0	0	0	0	0	0	0	0	0	0	0	0	0	6	0
120612	08:36:22	10012	corsiblockEngFwrd	recallseqEngFwrd	9	2	903	0	116	08:36:22	1473030	5	0	0	0	0	0	0	0	0	0	0	0	0	0	0	6	0
120612	08:36:22	10012	corsiblockEngFwrd	recallseqEngFwrd	9	3	1056	0	116	08:36:22	1474136	5	0	0	0	0	0	0	0	0	0	0	0	0	0	0	6	0
120612	08:36:22	10012	corsiblockEngFwrd	recallseqEngFwrd	9	9	1406	0	116	08:36:22	1475589	5	0	0	0	0	0	0	0	0	0	0	0	0	0	0	6	0
120612	08:36:22	10012	corsiblockEngFwrd	recallseqEngFwrd	9	3	2265	0	116	08:36:22	1477908	5	0	0	0	0	0	0	0	0	0	0	0	0	0	0	6	0
120612	08:36:22	10012	corsiblockEngFwrd	recallseqEngFwrd	9	8	1050	0	116	08:36:22	1479014	5	0	0	0	0	0	0	0	0	0	0	0	0	0	0	6	0
120612	08:36:22	10012	corsiblockEngFwrd	recallseqEngFwrd	9	6	816	0	116	08:36:22	1479881	5	0	0	0	0	0	0	0	0	0	0	0	0	0	0	6	0
120612	08:36:22	10012	corsiblockEngFwrd	recallseqEngFwrd	9	doneCorsiEng	1917	0	116	08:36:22	1481853	5	0	0	0	0	0	0	0	0	0	0	0	0	0	0	6	0
120612	08:36:22	10012	corsiblockEngRev	recallseqEngRev	10	9	4318	0	116	08:36:22	1498660	5	0	0	0	0	0	0	0	0	0	0	0	0	0	0	6	0
120612	08:36:22	10012	corsiblockEngRev	recallseqEngRev	10	2	754	0	116	08:36:22	1499459	5	0	0	0	0	0	0	0	0	0	0	0	0	0	0	6	0
120612	08:36:22	10012	corsiblockEngRev	recallseqEngRev	10	doneCorsiEng	1466	0	116	08:36:22	1500979	5	0	0	0	0	0	0	0	0	0	0	0	0	0	0	6	0
120612	08:36:22	10012	corsiblockEngRev	recallseqEngRev	10	4	7212	0	116	08:36:22	1513280	5	0	0	0	0	0	0	0	0	0	0	0	0	0	0	6	0
120612	08:36:22	10012	corsiblockEngRev	recallseqEngRev	10	8	1405	0	116	08:36:22	1514733	5	0	0	0	0	0	0	0	0	0	0	0	0	0	0	6	0
120612	08:36:22	10012	corsiblockEngRev	recallseqEngRev	10	doneCorsiEng	1512	0	116	08:36:22	1516293	5	0	0	0	0	0	0	0	0	0	0	0	0	0	0	6	2
120612	08:36:22	10012	corsiblockEngRev	recallseqEngRev	10	6	3232	0	116	08:36:22	1524636	5	0	0	0	0	0	0	0	0	0	0	0	0	0	0	6	2
120612	08:36:22	10012	corsiblockEngRev	recallseqEngRev	10	resetCorsiEng	2697	0	116	08:36:22	1527381	5	0	0	0	0	0	0	0	0	0	0	0	0	0	0	6	2
120612	08:36:22	10012	corsiblockEngRev	recallseqEngRev	10	3	1000	0	116	08:36:22	1528434	5	0	0	0	0	0	0	0	0	0	0	0	0	0	0	6	2
120612	08:36:22	10012	corsiblockEngRev	recallseqEngRev	10	5	890	0	116	08:36:22	1529380	5	0	0	0	0	0	0	0	0	0	0	0	0	0	0	6	2
120612	08:36:22	10012	corsiblockEngRev	recallseqEngRev	10	6	704	0	116	08:36:22	1530140	5	0	0	0	0	0	0	0	0	0	0	0	0	0	0	6	2
120612	08:36:22	10012	corsiblockEngRev	recallseqEngRev	10	doneCorsiEng	2032	0	116	08:36:22	1532219	5	0	0	0	0	0	0	0	0	0	0	0	0	0	0	6	3
120612	08:36:22	10012	corsiblockEngRev	recallseqEngRev	10	1	1748	0	116	08:36:22	1541096	5	0	0	0	0	0	0	0	0	0	0	0	0	0	0	6	3
120612	08:36:22	10012	corsiblockEngRev	recallseqEngRev	10	8	1109	0	116	08:36:22	1542255	5	0	0	0	0	0	0	0	0	0	0	0	0	0	0	6	3
120612	08:36:22	10012	corsiblockEngRev	recallseqEngRev	10	7	965	0	116	08:36:22	1543268	5	0	0	0	0	0	0	0	0	0	0	0	0	0	0	6	3
120612	08:36:22	10012	corsiblockEngRev	recallseqEngRev	10	1	1016	0	116	08:36:22	1544335	5	0	0	0	0	0	0	0	0	0	0	0	0	0	0	6	3
120612	08:36:22	10012	corsiblockEngRev	recallseqEngRev	10	doneCorsiEng	2470	0	116	08:36:22	1546853	5	0	0	0	0	0	0	0	0	0	0	0	0	0	0	6	4
120612	08:36:22	10012	corsiblockEngRev	recallseqEngRev	10	9	1764	0	116	08:36:22	1556756	5	0	0	0	0	0	0	0	0	0	0	0	0	0	0	6	4
120612	08:36:22	10012	corsiblockEngRev	recallseqEngRev	10	3	1184	0	116	08:36:22	1557996	5	0	0	0	0	0	0	0	0	0	0	0	0	0	0	6	4
120612	08:36:22	10012	corsiblockEngRev	recallseqEngRev	10	6	992	0	116	08:36:22	1559035	5	0	0	0	0	0	0	0	0	0	0	0	0	0	0	6	4
120612	08:36:22	10012	corsiblockEngRev	recallseqEngRev	10	7	1177	0	116	08:36:22	1560261	5	0	0	0	0	0	0	0	0	0	0	0	0	0	0	6	4
120612	08:36:22	10012	corsiblockEngRev	recallseqEngRev	10	4	951	0	116	08:36:22	1561261	5	0	0	0	0	0	0	0	0	0	0	0	0	0	0	6	4
120612	08:36:22	10012	corsiblockEngRev	recallseqEngRev	10	doneCorsiEng	1063	0	116	08:36:22	1562380	5	0	0	0	0	0	0	0	0	0	0	0	0	0	0	6	5
120612	08:36:22	10012	corsiblockEngRev	recallseqEngRev	10	9	2283	0	116	08:36:22	1573789	5	0	0	0	0	0	0	0	0	0	0	0	0	0	0	6	5
120612	08:36:22	10012	corsiblockEngRev	recallseqEngRev	10	3	919	0	116	08:36:22	1574762	5	0	0	0	0	0	0	0	0	0	0	0	0	0	0	6	5
120612	08:36:22	10012	corsiblockEngRev	recallseqEngRev	10	1	993	0	116	08:36:22	1575802	5	0	0	0	0	0	0	0	0	0	0	0	0	0	0	6	5
120612	08:36:22	10012	corsiblockEngRev	recallseqEngRev	10	2	2514	0	116	08:36:22	1578361	5	0	0	0	0	0	0	0	0	0	0	0	0	0	0	6	5
120612	08:36:22	10012	corsiblockEngRev	recallseqEngRev	10	7	707	0	116	08:36:22	1579120	5	0	0	0	0	0	0	0	0	0	0	0	0	0	0	6	5
120612	08:36:22	10012	corsiblockEngRev	recallseqEngRev	10	5	739	0	116	08:36:22	1579907	5	0	0	0	0	0	0	0	0	0	0	0	0	0	0	6	5
120612	08:36:22	10012	corsiblockEngRev	recallseqEngRev	10	doneCorsiEng	1257	0	116	08:36:22	1581213	5	0	0	0	0	0	0	0	0	0	0	0	0	0	0	6	5
120612	08:36:22	10012	corsiblockEngRev	recallseqEngRev	10	5	2306	0	116	08:36:22	1592608	5	0	0	0	0	0	0	0	0	0	0	0	0	0	0	6	5
120612	08:36:22	10012	corsiblockEngRev	recallseqEngRev	10	6	915	0	116	08:36:22	1593568	5	0	0	0	0	0	0	0	0	0	0	0	0	0	0	6	5
120612	08:36:22	10012	corsiblockEngRev	recallseqEngRev	10	5	971	0	116	08:36:22	1594594	5	0	0	0	0	0	0	0	0	0	0	0	0	0	0	6	5
120612	08:36:22	10012	corsiblockEngRev	recallseqEngRev	10	8	681	0	116	08:36:22	1595327	5	0	0	0	0	0	0	0	0	0	0	0	0	0	0	6	5
120612	08:36:22	10012	corsiblockEngRev	recallseqEngRev	10	4	868	0	116	08:36:22	1596247	5	0	0	0	0	0	0	0	0	0	0	0	0	0	0	6	5
120612	08:36:22	10012	corsiblockEngRev	recallseqEngRev	10	2	780	0	116	08:36:22	1597073	5	0	0	0	0	0	0	0	0	0	0	0	0	0	0	6	5
120612	08:36:22	10012	corsiblockEngRev	recallseqEngRev	10	doneCorsiEng	2866	0	116	08:36:22	1599992	5	0	0	0	0	0	0	0	0	0	0	0	0	0	0	6	5
120612	08:36:22	10012	testEng6mo	WordsEng6mo	11	3Eng6mo	28640	0	116	08:36:22	1637617	5	0	0	3	0	0	0	0	0	0	0	0	0	0	0	6	5
120612	08:36:22	10012	testEng6mo	WordsEng6mo	11	6Eng6mo	1706	0	116	08:36:22	1639376	5	0	0	3	0	0	3	0	0	0	0	0	0	0	0	6	5
120612	08:36:22	10012	testEng6mo	WordsEng6mo	11	DoneEng6mo	754	0	116	08:36:22	1640176	5	0	0	3	0	0	3	0	0	0	0	0	0	0	0	6	5
120612	08:36:22	10012	testEng6mo	Cat1Eng6mo	11	R1Eng6mo	8032	0	116	08:36:22	1648239	5	2	0	3	0	0	3	0	0	0	0	0	0	0	0	6	5
120612	08:36:22	10012	testEng6mo	Cat2Eng6mo	11	W2Eng6mo	11697	0	116	08:36:22	1659967	5	2	0	3	0	0	3	0	0	0	0	0	0	0	0	6	5
120612	08:36:22	10012	testEng6mo	Ch2Eng6mo	11	RR2Eng6mo	6840	0	116	08:36:22	1666845	5	2	1	3	0	0	3	0	0	0	0	0	0	0	0	6	5
120612	08:36:22	10012	testEng6mo	Cat4Eng6mo	11	0	1	0	116	08:36:22	1666853	5	2	1	3	0	0	3	0	0	0	0	0	0	0	0	6	5
120612	08:36:22	10012	testEng6mo	Ch4Eng6mo	11	RR4Eng6mo	4123	0	116	08:36:22	1671003	5	2	1	3	1	0	3	0	0	0	0	0	0	0	0	6	5
120612	08:36:22	10012	testEng6mo	Cat5Eng6mo	11	W5Eng6mo	4188	0	116	08:36:22	1675228	5	2	1	3	1	0	3	0	0	0	0	0	0	0	0	6	5
120612	08:36:22	10012	testEng6mo	Ch5Eng6mo	11	RR5Eng6mo	8379	0	116	08:36:22	1683638	5	2	1	3	1	1	3	0	0	0	0	0	0	0	0	6	5
120612	08:36:22	10012	testEng6mo	Cat7Eng6mo	11	W7Eng6mo	6585	0	116	08:36:22	1690262	5	2	1	3	1	1	3	0	0	0	0	0	0	0	0	6	5
120612	08:36:22	10012	testEng6mo	Ch7Eng6mo	11	RR7Eng6mo	3449	0	116	08:36:22	1693740	5	2	1	3	1	1	3	1	0	0	0	0	0	0	0	6	5
120612	08:36:22	10012	testEng6mo	Cat8Eng6mo	11	W8Eng6mo	7818	0	116	08:36:22	1701591	5	2	1	3	1	1	3	1	0	0	0	0	0	0	0	6	5
120612	08:36:22	10012	testEng6mo	Ch8Eng6mo	11	RR8Eng6mo	4600	0	116	08:36:22	1706229	5	2	1	3	1	1	3	1	1	0	0	0	0	0	0	6	5
120612	08:36:22	10012	DigitSpanFwrdEng6mo	Score1FwrdEng6mo	12	DS1	3680	0	116	08:36:22	1723222	5	2	1	3	1	1	3	1	1	0	0	0	0	0	0	6	5
120612	08:36:22	10012	DigitSpanFwrdEng6mo	Gate1FwrdEng6mo	12	0	1	0	116	08:36:22	1723226	5	2	1	3	1	1	3	1	1	3	0	0	0	0	0	6	5
120612	08:36:22	10012	DigitSpanFwrdEng6mo	Score2FwrdEng6mo	12	DS1	2281	0	116	08:36:22	1732285	5	2	1	3	1	1	3	1	1	3	0	0	0	0	0	6	5
120612	08:36:22	10012	DigitSpanFwrdEng6mo	Gate3FwrdEng6mo	12	0	1	0	116	08:36:22	1732290	5	2	1	3	1	1	3	1	1	4	0	0	0	0	0	6	5
120612	08:36:22	10012	DigitSpanFwrdEng6mo	Score3FwrdEng6mo	12	DS1	2482	0	116	08:36:22	1742827	5	2	1	3	1	1	3	1	1	4	0	0	0	0	0	6	5
120612	08:36:22	10012	DigitSpanFwrdEng6mo	Gate5FwrdEng6mo	12	0	1	0	116	08:36:22	1742831	5	2	1	3	1	1	3	1	1	5	0	0	0	0	0	6	5
120612	08:36:22	10012	DigitSpanFwrdEng6mo	Score4FwrdEng6mo	12	DS1	2505	0	116	08:36:22	1754862	5	2	1	3	1	1	3	1	1	5	0	0	0	0	0	6	5
120612	08:36:22	10012	DigitSpanFwrdEng6mo	Gate7FwrdEng6mo	12	0	1	0	116	08:36:22	1754867	5	2	1	3	1	1	3	1	1	6	0	0	0	0	0	6	5
120612	08:36:22	10012	DigitSpanFwrdEng6mo	Score5FwrdEng6mo	12	DS1	5612	0	116	08:36:22	1771469	5	2	1	3	1	1	3	1	1	6	0	0	0	0	0	6	5
120612	08:36:22	10012	DigitSpanFwrdEng6mo	Gate9FwrdEng6mo	12	0	1	0	116	08:36:22	1771474	5	2	1	3	1	1	3	1	1	7	0	0	0	0	0	6	5
120612	08:36:22	10012	DigitSpanFwrdEng6mo	Score6FwrdEng6mo	12	DS1	6243	0	116	08:36:22	1790688	5	2	1	3	1	1	3	1	1	8	0	0	0	0	0	6	5
120612	08:36:22	10012	DigitSpanEng6mo	Score1Eng6mo	13	DS1	1975	0	116	08:36:22	1804282	5	2	1	3	1	1	3	1	1	8	0	0	0	0	0	6	5
120612	08:36:22	10012	DigitSpanEng6mo	Gate1Eng6mo	13	0	1	0	116	08:36:22	1804287	5	2	1	3	1	1	3	1	1	8	2	0	0	0	0	6	5
120612	08:36:22	10012	DigitSpanEng6mo	Score2Eng6mo	13	DS1	1738	0	116	08:36:22	1810959	5	2	1	3	1	1	3	1	1	8	2	0	0	0	0	6	5
120612	08:36:22	10012	DigitSpanEng6mo	Gate3Eng6mo	13	0	1	0	116	08:36:22	1810964	5	2	1	3	1	1	3	1	1	8	3	0	0	0	0	6	5
120612	08:36:22	10012	DigitSpanEng6mo	Score3Eng6mo	13	DS1	3642	0	116	08:36:22	1821169	5	2	1	3	1	1	3	1	1	8	3	0	0	0	0	6	5
120612	08:36:22	10012	DigitSpanEng6mo	Gate5Eng6mo	13	0	1	0	116	08:36:22	1821173	5	2	1	3	1	1	3	1	1	8	4	0	0	0	0	6	5
120612	08:36:22	10012	DigitSpanEng6mo	Score4Eng6mo	13	DS1	6913	0	116	08:36:22	1835843	5	2	1	3	1	1	3	1	1	8	4	0	0	0	0	6	5
120612	08:36:22	10012	DigitSpanEng6mo	Gate7Eng6mo	13	0	1	0	116	08:36:22	1835847	5	2	1	3	1	1	3	1	1	8	5	0	0	0	0	6	5
120612	08:36:22	10012	DigitSpanEng6mo	Score5Eng6mo	13	DS1	12191	0	116	08:36:22	1857234	5	2	1	3	1	1	3	1	1	8	5	0	0	0	0	6	5
120612	08:36:22	10012	DigitSpanEng6mo	Gate9Eng6mo	13	0	1	0	116	08:36:22	1857238	5	2	1	3	1	1	3	1	1	8	6	0	0	0	0	6	5
120612	08:36:22	10012	DigitSpanEng6mo	Score6Eng6mo	13	DS2	11869	0	116	08:36:22	1881051	5	2	1	3	1	1	3	1	1	8	6	0	0	0	0	6	5
120612	08:36:22	10012	DigitSpanEng6mo	Gate11Eng6mo	13	0	1	0	116	08:36:22	1881055	5	2	1	3	1	1	3	1	1	8	6	0	0	0	0	6	5
120612	08:36:22	10012	DigitSpanEng6mo	Score66Eng6mo	13	DS2	16457	0	116	08:36:22	1908280	5	2	1	3	1	1	3	1	1	8	6	0	0	0	0	6	5
120612	08:36:22	10012	Trial	ResponseIL	14	0	175	0	116	08:36:22	1954821	5	2	1	3	1	1	3	1	1	8	6	0	0	0	0	6	5
120612	08:36:22	10012	Trial	IncongruentLeft	14	203	488	1	116	08:36:22	1955328	5	2	1	3	1	1	3	1	1	8	6	0	0	0	0	6	5
120612	08:36:22	10012	Trial	ResponseCR	14	0	175	0	116	08:36:22	1956527	5	2	1	3	1	1	3	1	1	8	6	0	0	0	0	6	5
120612	08:36:22	10012	Trial	CongruentRight	14	205	286	1	116	08:36:22	1956834	5	2	1	3	1	1	3	1	1	8	6	0	0	0	0	6	5
120612	08:36:22	10012	Trial	ResponseIR	14	0	175	0	116	08:36:22	1958233	5	2	1	3	1	1	3	1	1	8	6	0	0	0	0	6	5
120612	08:36:22	10012	Trial	IncongruentRight	14	203	276	0	116	08:36:22	1958526	5	2	1	3	1	1	3	1	1	8	6	0	0	0	0	6	5
120612	08:36:22	10012	Trial	ResponseCL	14	0	175	0	116	08:36:22	1959939	5	2	1	3	1	1	3	1	1	8	6	0	0	0	0	6	5
120612	08:36:22	10012	Trial	CongruentLeft	14	203	298	1	116	08:36:22	1960259	5	2	1	3	1	1	3	1	1	8	6	0	0	0	0	6	5
120612	08:36:22	10012	Trial	ResponseCR	14	0	175	0	116	08:36:22	1961645	5	2	1	3	1	1	3	1	1	8	6	0	0	0	0	6	5
120612	08:36:22	10012	Trial	CongruentRight	14	205	464	1	116	08:36:22	1962138	5	2	1	3	1	1	3	1	1	8	6	0	0	0	0	6	5
120612	08:36:22	10012	Trial	ResponseIR	14	0	175	0	116	08:36:22	1963351	5	2	1	3	1	1	3	1	1	8	6	0	0	0	0	6	5
120612	08:36:22	10012	Trial	IncongruentRight	14	203	374	0	116	08:36:22	1963751	5	2	1	3	1	1	3	1	1	8	6	0	0	0	0	6	5
120612	08:36:22	10012	Trial	ResponseCL	14	0	175	0	116	08:36:22	1965057	5	2	1	3	1	1	3	1	1	8	6	0	0	0	0	6	5
120612	08:36:22	10012	Trial	CongruentLeft	14	203	524	1	116	08:36:22	1965604	5	2	1	3	1	1	3	1	1	8	6	0	0	0	0	6	5
120612	08:36:22	10012	Trial	ResponseIL	14	0	175	0	116	08:36:22	1966763	5	2	1	3	1	1	3	1	1	8	6	0	0	0	0	6	5
120612	08:36:22	10012	Trial	IncongruentLeft	14	203	434	1	116	08:36:22	1967216	5	2	1	3	1	1	3	1	1	8	6	0	0	0	0	6	5
120612	08:36:22	10012	Trial	ResponseIL	14	0	175	0	116	08:36:22	1968469	5	2	1	3	1	1	3	1	1	8	6	0	0	0	0	6	5
120612	08:36:22	10012	Trial	IncongruentLeft	14	203	328	1	116	08:36:22	1968815	5	2	1	3	1	1	3	1	1	8	6	0	0	0	0	6	5
120612	08:36:22	10012	Trial	ResponseCR	14	0	175	0	116	08:36:22	1970175	5	2	1	3	1	1	3	1	1	8	6	0	0	0	0	6	5
120612	08:36:22	10012	Trial	CongruentRight	14	205	270	1	116	08:36:22	1970468	5	2	1	3	1	1	3	1	1	8	6	0	0	0	0	6	5
120612	08:36:22	10012	Trial	ResponseIR	14	0	175	0	116	08:36:22	1971881	5	2	1	3	1	1	3	1	1	8	6	0	0	0	0	6	5
120612	08:36:22	10012	Trial	IncongruentRight	14	205	405	1	116	08:36:22	1972308	5	2	1	3	1	1	3	1	1	8	6	0	0	0	0	6	5
120612	08:36:22	10012	Trial	ResponseCL	14	0	175	0	116	08:36:22	1973587	5	2	1	3	1	1	3	1	1	8	6	0	0	0	0	6	5
120612	08:36:22	10012	Trial	CongruentLeft	14	203	298	1	116	08:36:22	1973907	5	2	1	3	1	1	3	1	1	8	6	0	0	0	0	6	5
120612	08:36:22	10012	Trial	ResponseCR	14	0	175	0	116	08:36:22	1975293	5	2	1	3	1	1	3	1	1	8	6	0	0	0	0	6	5
120612	08:36:22	10012	Trial	CongruentRight	14	205	240	1	116	08:36:22	1975559	5	2	1	3	1	1	3	1	1	8	6	0	0	0	0	6	5
120612	08:36:22	10012	Trial	ResponseIL	14	0	175	0	116	08:36:22	1976999	5	2	1	3	1	1	3	1	1	8	6	0	0	0	0	6	5
120612	08:36:22	10012	Trial	IncongruentLeft	14	205	262	0	116	08:36:22	1977279	5	2	1	3	1	1	3	1	1	8	6	0	0	0	0	6	5
120612	08:36:22	10012	Trial	ResponseIR	14	0	175	0	116	08:36:22	1978705	5	2	1	3	1	1	3	1	1	8	6	0	0	0	0	6	5
120612	08:36:22	10012	Trial	IncongruentRight	14	205	652	1	116	08:36:22	1979385	5	2	1	3	1	1	3	1	1	8	6	0	0	0	0	6	5
120612	08:36:22	10012	Trial	ResponseCR	14	0	175	0	116	08:36:22	1980411	5	2	1	3	1	1	3	1	1	8	6	0	0	0	0	6	5
120612	08:36:22	10012	Trial	CongruentRight	14	205	578	1	116	08:36:22	1981011	5	2	1	3	1	1	3	1	1	8	6	0	0	0	0	6	5
120612	08:36:22	10012	Trial	ResponseCL	14	0	175	0	116	08:36:22	1982117	5	2	1	3	1	1	3	1	1	8	6	0	0	0	0	6	5
120612	08:36:22	10012	Trial	CongruentLeft	14	203	360	1	116	08:36:22	1982503	5	2	1	3	1	1	3	1	1	8	6	0	0	0	0	6	5
120612	08:36:22	10012	Trial	ResponseCR	14	0	175	0	116	08:36:22	1983823	5	2	1	3	1	1	3	1	1	8	6	0	0	0	0	6	5
120612	08:36:22	10012	Trial	CongruentRight	14	205	237	1	116	08:36:22	1984089	5	2	1	3	1	1	3	1	1	8	6	0	0	0	0	6	5
120612	08:36:22	10012	Trial	ResponseIR	14	0	175	0	116	08:36:22	1985529	5	2	1	3	1	1	3	1	1	8	6	0	0	0	0	6	5
120612	08:36:22	10012	Trial	IncongruentRight	14	203	324	0	116	08:36:22	1985875	5	2	1	3	1	1	3	1	1	8	6	0	0	0	0	6	5
120612	08:36:22	10012	Trial	ResponseIL	14	0	175	0	116	08:36:22	1987235	5	2	1	3	1	1	3	1	1	8	6	0	0	0	0	6	5
120612	08:36:22	10012	Trial	IncongruentLeft	14	203	570	1	116	08:36:22	1987821	5	2	1	3	1	1	3	1	1	8	6	0	0	0	0	6	5
120612	08:36:22	10012	Trial	ResponseIL	14	0	175	0	116	08:36:22	1988941	5	2	1	3	1	1	3	1	1	8	6	0	0	0	0	6	5
120612	08:36:22	10012	Trial	IncongruentLeft	14	203	641	1	116	08:36:22	1989607	5	2	1	3	1	1	3	1	1	8	6	0	0	0	0	6	5
120612	08:36:22	10012	Trial	ResponseCL	14	0	175	0	116	08:36:22	1990647	5	2	1	3	1	1	3	1	1	8	6	0	0	0	0	6	5
120612	08:36:22	10012	Trial	CongruentLeft	14	203	518	1	116	08:36:22	1991193	5	2	1	3	1	1	3	1	1	8	6	0	0	0	0	6	5
120612	08:36:22	10012	Trial	ResponseCR	14	0	175	0	116	08:36:22	1992353	5	2	1	3	1	1	3	1	1	8	6	0	0	0	0	6	5
120612	08:36:22	10012	Trial	CongruentRight	14	205	412	1	116	08:36:22	1992793	5	2	1	3	1	1	3	1	1	8	6	0	0	0	0	6	5
120612	08:36:22	10012	Trial	ResponseIL	14	0	175	0	116	08:36:22	1994059	5	2	1	3	1	1	3	1	1	8	6	0	0	0	0	6	5
120612	08:36:22	10012	Trial	IncongruentLeft	14	203	402	1	116	08:36:22	1994485	5	2	1	3	1	1	3	1	1	8	6	0	0	0	0	6	5
120612	08:36:22	10012	Trial	ResponseIR	14	0	175	0	116	08:36:22	1995765	5	2	1	3	1	1	3	1	1	8	6	0	0	0	0	6	5
120612	08:36:22	10012	Trial	IncongruentRight	14	205	408	1	116	08:36:22	1996191	5	2	1	3	1	1	3	1	1	8	6	0	0	0	0	6	5
120612	08:36:22	10012	Trial	ResponseCR	14	0	175	0	116	08:36:22	1997471	5	2	1	3	1	1	3	1	1	8	6	0	0	0	0	6	5
120612	08:36:22	10012	Trial	CongruentRight	14	205	270	1	116	08:36:22	1997764	5	2	1	3	1	1	3	1	1	8	6	0	0	0	0	6	5
120612	08:36:22	10012	Trial	ResponseCL	14	0	175	0	116	08:36:22	1999177	5	2	1	3	1	1	3	1	1	8	6	0	0	0	0	6	5
120612	08:36:22	10012	Trial	CongruentLeft	14	203	436	1	116	08:36:22	1999630	5	2	1	3	1	1	3	1	1	8	6	0	0	0	0	6	5
120612	08:36:22	10012	Trial	ResponseIR	14	0	175	0	116	08:36:22	2000883	5	2	1	3	1	1	3	1	1	8	6	0	0	0	0	6	5
120612	08:36:22	10012	Trial	IncongruentRight	14	205	378	1	116	08:36:22	2001282	5	2	1	3	1	1	3	1	1	8	6	0	0	0	0	6	5
120612	08:36:22	10012	Trial	ResponseIL	14	0	175	0	116	08:36:22	2002589	5	2	1	3	1	1	3	1	1	8	6	0	0	0	0	6	5
120612	08:36:22	10012	Trial	IncongruentLeft	14	203	416	1	116	08:36:22	2003028	5	2	1	3	1	1	3	1	1	8	6	0	0	0	0	6	5
120612	08:36:22	10012	Trial	ResponseIR	14	0	175	0	116	08:36:22	2004295	5	2	1	3	1	1	3	1	1	8	6	0	0	0	0	6	5
120612	08:36:22	10012	Trial	IncongruentRight	14	205	502	1	116	08:36:22	2004814	5	2	1	3	1	1	3	1	1	8	6	0	0	0	0	6	5
120612	08:36:22	10012	Trial	ResponseCR	14	0	175	0	116	08:36:22	2006000	5	2	1	3	1	1	3	1	1	8	6	0	0	0	0	6	5
120612	08:36:22	10012	Trial	CongruentRight	14	205	588	1	116	08:36:22	2006613	5	2	1	3	1	1	3	1	1	8	6	0	0	0	0	6	5
120612	08:36:22	10012	Trial	ResponseIL	14	0	175	0	116	08:36:22	2007707	5	2	1	3	1	1	3	1	1	8	6	0	0	0	0	6	5
120612	08:36:22	10012	Trial	IncongruentLeft	14	203	434	1	116	08:36:22	2008160	5	2	1	3	1	1	3	1	1	8	6	0	0	0	0	6	5
120612	08:36:22	10012	Trial	ResponseCL	14	0	175	0	116	08:36:22	2009413	5	2	1	3	1	1	3	1	1	8	6	0	0	0	0	6	5
120612	08:36:22	10012	Trial	CongruentLeft	14	203	504	1	116	08:36:22	2009946	5	2	1	3	1	1	3	1	1	8	6	0	0	0	0	6	5
120612	08:36:22	10012	Trial	ResponseCR	14	0	175	0	116	08:36:22	2011119	5	2	1	3	1	1	3	1	1	8	6	0	0	0	0	6	5
120612	08:36:22	10012	Trial	CongruentRight	14	205	270	1	116	08:36:22	2011412	5	2	1	3	1	1	3	1	1	8	6	0	0	0	0	6	5
120612	08:36:22	10012	Trial	ResponseIL	14	0	175	0	116	08:36:22	2012825	5	2	1	3	1	1	3	1	1	8	6	0	0	0	0	6	5
120612	08:36:22	10012	Trial	IncongruentLeft	14	203	419	1	116	08:36:22	2013264	5	2	1	3	1	1	3	1	1	8	6	0	0	0	0	6	5
120612	08:36:22	10012	Trial	ResponseIR	14	0	175	0	116	08:36:22	2014531	5	2	1	3	1	1	3	1	1	8	6	0	0	0	0	6	5
120612	08:36:22	10012	Trial	IncongruentRight	14	205	346	1	116	08:36:22	2014904	5	2	1	3	1	1	3	1	1	8	6	0	0	0	0	6	5
120612	08:36:22	10012	Trial	ResponseIR	14	0	175	0	116	08:36:22	2016237	5	2	1	3	1	1	3	1	1	8	6	0	0	0	0	6	5
120612	08:36:22	10012	Trial	IncongruentRight	14	205	304	1	116	08:36:22	2016570	5	2	1	3	1	1	3	1	1	8	6	0	0	0	0	6	5
120612	08:36:22	10012	Trial	ResponseCL	14	0	175	0	116	08:36:22	2017942	5	2	1	3	1	1	3	1	1	8	6	0	0	0	0	6	5
120612	08:36:22	10012	Trial	CongruentLeft	14	203	342	1	116	08:36:22	2018302	5	2	1	3	1	1	3	1	1	8	6	0	0	0	0	6	5
120612	08:36:22	10012	Trial	ResponseIL	14	0	175	0	116	08:36:22	2019648	5	2	1	3	1	1	3	1	1	8	6	0	0	0	0	6	5
120612	08:36:22	10012	Trial	IncongruentLeft	14	203	492	1	116	08:36:22	2020168	5	2	1	3	1	1	3	1	1	8	6	0	0	0	0	6	5
120612	08:36:22	10012	Trial	ResponseCR	14	0	175	0	116	08:36:22	2021354	5	2	1	3	1	1	3	1	1	8	6	0	0	0	0	6	5
120612	08:36:22	10012	Trial	CongruentRight	14	205	370	1	116	08:36:22	2021741	5	2	1	3	1	1	3	1	1	8	6	0	0	0	0	6	5
120612	08:36:22	10012	Trial	ResponseCL	14	0	175	0	116	08:36:22	2023060	5	2	1	3	1	1	3	1	1	8	6	0	0	0	0	6	5
120612	08:36:22	10012	Trial	CongruentLeft	14	203	440	1	116	08:36:22	2023527	5	2	1	3	1	1	3	1	1	8	6	0	0	0	0	6	5
120612	08:36:22	10012	Trial	ResponseIR	14	0	175	0	116	08:36:22	2024767	5	2	1	3	1	1	3	1	1	8	6	0	0	0	0	6	5
120612	08:36:22	10012	Trial	IncongruentRight	14	205	350	1	116	08:36:22	2025139	5	2	1	3	1	1	3	1	1	8	6	0	0	0	0	6	5
120612	08:36:22	10012	Trial	ResponseCR	14	0	175	0	116	08:36:22	2026472	5	2	1	3	1	1	3	1	1	8	6	0	0	0	0	6	5
120612	08:36:22	10012	Trial	CongruentRight	14	205	276	1	116	08:36:22	2026765	5	2	1	3	1	1	3	1	1	8	6	0	0	0	0	6	5
120612	08:36:22	10012	Trial	ResponseIL	14	0	175	0	116	08:36:22	2028178	5	2	1	3	1	1	3	1	1	8	6	0	0	0	0	6	5
120612	08:36:22	10012	Trial	IncongruentLeft	14	203	458	1	116	08:36:22	2028658	5	2	1	3	1	1	3	1	1	8	6	0	0	0	0	6	5
120612	08:36:22	10012	Trial	ResponseCL	14	0	175	0	116	08:36:22	2029884	5	2	1	3	1	1	3	1	1	8	6	0	0	0	0	6	5
120612	08:36:22	10012	Trial	CongruentLeft	14	203	352	1	116	08:36:22	2030257	5	2	1	3	1	1	3	1	1	8	6	0	0	0	0	6	5
120612	08:36:22	10012	Trial	ResponseIL	14	0	175	0	116	08:36:22	2031590	5	2	1	3	1	1	3	1	1	8	6	0	0	0	0	6	5
120612	08:36:22	10012	Trial	IncongruentLeft	14	203	374	1	116	08:36:22	2031990	5	2	1	3	1	1	3	1	1	8	6	0	0	0	0	6	5
120612	08:36:22	10012	Trial	ResponseIR	14	0	175	0	116	08:36:22	2033296	5	2	1	3	1	1	3	1	1	8	6	0	0	0	0	6	5
120612	08:36:22	10012	Trial	IncongruentRight	14	205	428	1	116	08:36:22	2033749	5	2	1	3	1	1	3	1	1	8	6	0	0	0	0	6	5
120612	08:36:22	10012	Trial	ResponseCR	14	0	175	0	116	08:36:22	2035002	5	2	1	3	1	1	3	1	1	8	6	0	0	0	0	6	5
120612	08:36:22	10012	Trial	CongruentRight	14	205	386	1	116	08:36:22	2035415	5	2	1	3	1	1	3	1	1	8	6	0	0	0	0	6	5
120612	08:36:22	10012	Trial	ResponseCL	14	0	175	0	116	08:36:22	2036708	5	2	1	3	1	1	3	1	1	8	6	0	0	0	0	6	5
120612	08:36:22	10012	Trial	CongruentLeft	14	203	552	1	116	08:36:22	2037281	5	2	1	3	1	1	3	1	1	8	6	0	0	0	0	6	5
120612	08:36:22	10012	Trial	ResponseCL	14	0	175	0	116	08:36:22	2038414	5	2	1	3	1	1	3	1	1	8	6	0	0	0	0	6	5
120612	08:36:22	10012	Trial	CongruentLeft	14	203	542	1	116	08:36:22	2038974	5	2	1	3	1	1	3	1	1	8	6	0	0	0	0	6	5
120612	08:36:22	10012	Trial	ResponseIR	14	0	175	0	116	08:36:22	2040120	5	2	1	3	1	1	3	1	1	8	6	0	0	0	0	6	5
120612	08:36:22	10012	Trial	IncongruentRight	14	205	371	1	116	08:36:22	2040520	5	2	1	3	1	1	3	1	1	8	6	0	0	0	0	6	5
120612	08:36:22	10012	Trial	ResponseIL	14	0	175	0	116	08:36:22	2041826	5	2	1	3	1	1	3	1	1	8	6	0	0	0	0	6	5
120612	08:36:22	10012	Trial	IncongruentLeft	14	203	442	1	116	08:36:22	2042293	5	2	1	3	1	1	3	1	1	8	6	0	0	0	0	6	5
120612	08:36:22	10012	Trial	ResponseIR	14	0	175	0	116	08:36:22	2043532	5	2	1	3	1	1	3	1	1	8	6	0	0	0	0	6	5
120612	08:36:22	10012	Trial	IncongruentRight	14	205	304	1	116	08:36:22	2043852	5	2	1	3	1	1	3	1	1	8	6	0	0	0	0	6	5
120612	08:36:22	10012	Trial	ResponseCR	14	0	175	0	116	08:36:22	2045238	5	2	1	3	1	1	3	1	1	8	6	0	0	0	0	6	5
120612	08:36:22	10012	Trial	CongruentRight	14	205	247	1	116	08:36:22	2045505	5	2	1	3	1	1	3	1	1	8	6	0	0	0	0	6	5
120612	08:36:22	10012	Trial	ResponseCR	14	0	175	0	116	08:36:22	2046944	5	2	1	3	1	1	3	1	1	8	6	0	0	0	0	6	5
120612	08:36:22	10012	Trial	CongruentRight	14	205	332	1	116	08:36:22	2047304	5	2	1	3	1	1	3	1	1	8	6	0	0	0	0	6	5
120612	08:36:22	10012	Trial	ResponseIL	14	0	175	0	116	08:36:22	2048650	5	2	1	3	1	1	3	1	1	8	6	0	0	0	0	6	5
120612	08:36:22	10012	Trial	IncongruentLeft	14	205	497	0	116	08:36:22	2049170	5	2	1	3	1	1	3	1	1	8	6	0	0	0	0	6	5
120612	08:36:22	10012	Trial	ResponseCL	14	0	175	0	116	08:36:22	2050356	5	2	1	3	1	1	3	1	1	8	6	0	0	0	0	6	5
120612	08:36:22	10012	Trial	CongruentLeft	14	203	423	1	116	08:36:22	2050796	5	2	1	3	1	1	3	1	1	8	6	0	0	0	0	6	5
120612	08:36:22	10012	Trial	ResponseCR	14	0	175	0	116	08:36:22	2052062	5	2	1	3	1	1	3	1	1	8	6	0	0	0	0	6	5
120612	08:36:22	10012	Trial	CongruentRight	14	205	573	1	116	08:36:22	2052662	5	2	1	3	1	1	3	1	1	8	6	0	0	0	0	6	5
120612	08:36:22	10012	Trial	ResponseCL	14	0	175	0	116	08:36:22	2053768	5	2	1	3	1	1	3	1	1	8	6	0	0	0	0	6	5
120612	08:36:22	10012	Trial	CongruentLeft	14	203	435	1	116	08:36:22	2054221	5	2	1	3	1	1	3	1	1	8	6	0	0	0	0	6	5
120612	08:36:22	10012	Trial	ResponseIR	14	0	175	0	116	08:36:22	2055474	5	2	1	3	1	1	3	1	1	8	6	0	0	0	0	6	5
120612	08:36:22	10012	Trial	IncongruentRight	14	205	377	1	116	08:36:22	2055874	5	2	1	3	1	1	3	1	1	8	6	0	0	0	0	6	5
120612	08:36:22	10012	Trial	ResponseCR	14	0	175	0	116	08:36:22	2057180	5	2	1	3	1	1	3	1	1	8	6	0	0	0	0	6	5
120612	08:36:22	10012	Trial	CongruentRight	14	205	240	1	116	08:36:22	2057447	5	2	1	3	1	1	3	1	1	8	6	0	0	0	0	6	5
120612	08:36:22	10012	Trial	ResponseCL	14	0	175	0	116	08:36:22	2058886	5	2	1	3	1	1	3	1	1	8	6	0	0	0	0	6	5
120612	08:36:22	10012	Trial	CongruentLeft	14	203	390	1	116	08:36:22	2059299	5	2	1	3	1	1	3	1	1	8	6	0	0	0	0	6	5
120612	08:36:22	10012	Trial	ResponseIL	14	0	175	0	116	08:36:22	2060592	5	2	1	3	1	1	3	1	1	8	6	0	0	0	0	6	5
120612	08:36:22	10012	Trial	IncongruentLeft	14	205	188	0	116	08:36:22	2060805	5	2	1	3	1	1	3	1	1	8	6	0	0	0	0	6	5
120612	08:36:22	10012	Trial	ResponseIL	14	0	175	0	116	08:36:22	2062298	5	2	1	3	1	1	3	1	1	8	6	0	0	0	0	6	5
120612	08:36:22	10012	Trial	IncongruentLeft	14	205	193	0	116	08:36:22	2062511	5	2	1	3	1	1	3	1	1	8	6	0	0	0	0	6	5
120612	08:36:22	10012	Trial	ResponseCR	14	0	175	0	116	08:36:22	2064004	5	2	1	3	1	1	3	1	1	8	6	0	0	0	0	6	5
120612	08:36:22	10012	Trial	CongruentRight	14	205	184	1	116	08:36:22	2064204	5	2	1	3	1	1	3	1	1	8	6	0	0	0	0	6	5
120612	08:36:22	10012	Trial	ResponseIR	14	0	175	0	116	08:36:22	2065710	5	2	1	3	1	1	3	1	1	8	6	0	0	0	0	6	5
120612	08:36:22	10012	Trial	IncongruentRight	14	205	429	1	116	08:36:22	2066163	5	2	1	3	1	1	3	1	1	8	6	0	0	0	0	6	5
120612	08:36:22	10012	Trial	ResponseCL	14	0	175	0	116	08:36:22	2067416	5	2	1	3	1	1	3	1	1	8	6	0	0	0	0	6	5
120612	08:36:22	10012	Trial	CongruentLeft	14	203	435	1	116	08:36:22	2067869	5	2	1	3	1	1	3	1	1	8	6	0	0	0	0	6	5
120612	08:36:22	10012	Trial	ResponseIR	14	0	175	0	116	08:36:22	2069122	5	2	1	3	1	1	3	1	1	8	6	0	0	0	0	6	5
120612	08:36:22	10012	Trial	IncongruentRight	14	205	521	1	116	08:36:22	2069668	5	2	1	3	1	1	3	1	1	8	6	0	0	0	0	6	5
120612	08:36:22	10012	Trial	ResponseCR	14	0	175	0	116	08:36:22	2070828	5	2	1	3	1	1	3	1	1	8	6	0	0	0	0	6	5
120612	08:36:22	10012	Trial	CongruentRight	14	205	384	1	116	08:36:22	2071228	5	2	1	3	1	1	3	1	1	8	6	0	0	0	0	6	5
120612	08:36:22	10012	Trial	ResponseIL	14	0	175	0	116	08:36:22	2072534	5	2	1	3	1	1	3	1	1	8	6	0	0	0	0	6	5
120612	08:36:22	10012	Trial	IncongruentLeft	14	203	357	1	116	08:36:22	2072920	5	2	1	3	1	1	3	1	1	8	6	0	0	0	0	6	5
120612	08:36:22	10012	Trial	ResponseCL	14	0	175	0	116	08:36:22	2074240	5	2	1	3	1	1	3	1	1	8	6	0	0	0	0	6	5
120612	08:36:22	10012	Trial	CongruentLeft	14	203	364	1	116	08:36:22	2074626	5	2	1	3	1	1	3	1	1	8	6	0	0	0	0	6	5
120612	08:36:22	10012	Trial	ResponseCR	14	0	175	0	116	08:36:22	2075946	5	2	1	3	1	1	3	1	1	8	6	0	0	0	0	6	5
120612	08:36:22	10012	Trial	CongruentRight	14	205	481	1	116	08:36:22	2076452	5	2	1	3	1	1	3	1	1	8	6	0	0	0	0	6	5
120612	08:36:22	10012	Trial	ResponseIL	14	0	175	0	116	08:36:22	2077652	5	2	1	3	1	1	3	1	1	8	6	0	0	0	0	6	5
120612	08:36:22	10012	Trial	IncongruentLeft	14	203	456	1	116	08:36:22	2078132	5	2	1	3	1	1	3	1	1	8	6	0	0	0	0	6	5
120612	08:36:22	10012	Trial	ResponseCR	14	0	175	0	116	08:36:22	2079358	5	2	1	3	1	1	3	1	1	8	6	0	0	0	0	6	5
120612	08:36:22	10012	Trial	CongruentRight	14	205	397	1	116	08:36:22	2079784	5	2	1	3	1	1	3	1	1	8	6	0	0	0	0	6	5
120612	08:36:22	10012	Trial	ResponseCR	14	0	175	0	116	08:36:22	2081064	5	2	1	3	1	1	3	1	1	8	6	0	0	0	0	6	5
120612	08:36:22	10012	Trial	CongruentRight	14	205	307	1	116	08:36:22	2081397	5	2	1	3	1	1	3	1	1	8	6	0	0	0	0	6	5
120612	08:36:22	10012	Trial	ResponseIR	14	0	175	0	116	08:36:22	2082770	5	2	1	3	1	1	3	1	1	8	6	0	0	0	0	6	5
120612	08:36:22	10012	Trial	IncongruentRight	14	205	473	1	116	08:36:22	2083263	5	2	1	3	1	1	3	1	1	8	6	0	0	0	0	6	5
120612	08:36:22	10012	Trial	ResponseCL	14	0	175	0	116	08:36:22	2084476	5	2	1	3	1	1	3	1	1	8	6	0	0	0	0	6	5
120612	08:36:22	10012	Trial	CongruentLeft	14	203	447	1	116	08:36:22	2084942	5	2	1	3	1	1	3	1	1	8	6	0	0	0	0	6	5
120612	08:36:22	10012	Trial	ResponseIL	14	0	175	0	116	08:36:22	2086182	5	2	1	3	1	1	3	1	1	8	6	0	0	0	0	6	5
120612	08:36:22	10012	Trial	IncongruentLeft	14	203	501	1	116	08:36:22	2086701	5	2	1	3	1	1	3	1	1	8	6	0	0	0	0	6	5
120612	08:36:22	10012	Trial	ResponseCL	14	0	175	0	116	08:36:22	2087887	5	2	1	3	1	1	3	1	1	8	6	0	0	0	0	6	5
120612	08:36:22	10012	Trial	CongruentLeft	14	203	379	1	116	08:36:22	2088287	5	2	1	3	1	1	3	1	1	8	6	0	0	0	0	6	5
120612	08:36:22	10012	Trial	ResponseIR	14	0	175	0	116	08:36:22	2089594	5	2	1	3	1	1	3	1	1	8	6	0	0	0	0	6	5
120612	08:36:22	10012	Trial	IncongruentRight	14	205	305	1	116	08:36:22	2089927	5	2	1	3	1	1	3	1	1	8	6	0	0	0	0	6	5
120612	08:36:22	10012	Trial	ResponseIL	14	0	175	0	116	08:36:22	2091300	5	2	1	3	1	1	3	1	1	8	6	0	0	0	0	6	5
120612	08:36:22	10012	Trial	IncongruentLeft	14	205	247	0	116	08:36:22	2091566	5	2	1	3	1	1	3	1	1	8	6	0	0	0	0	6	5
120612	08:36:22	10012	Trial	ResponseCR	14	0	175	0	116	08:36:22	2093006	5	2	1	3	1	1	3	1	1	8	6	0	0	0	0	6	5
120612	08:36:22	10012	Trial	CongruentRight	14	205	525	1	116	08:36:22	2093552	5	2	1	3	1	1	3	1	1	8	6	0	0	0	0	6	5
120612	08:36:22	10012	Trial	ResponseCL	14	0	175	0	116	08:36:22	2094712	5	2	1	3	1	1	3	1	1	8	6	0	0	0	0	6	5
120612	08:36:22	10012	Trial	CongruentLeft	14	203	483	1	116	08:36:22	2095218	5	2	1	3	1	1	3	1	1	8	6	0	0	0	0	6	5
120612	08:36:22	10012	Trial	ResponseIL	14	0	175	0	116	08:36:22	2096418	5	2	1	3	1	1	3	1	1	8	6	0	0	0	0	6	5
120612	08:36:22	10012	Trial	IncongruentLeft	14	203	489	1	116	08:36:22	2096924	5	2	1	3	1	1	3	1	1	8	6	0	0	0	0	6	5
120612	08:36:22	10012	Trial	ResponseCL	14	0	175	0	116	08:36:22	2098124	5	2	1	3	1	1	3	1	1	8	6	0	0	0	0	6	5
120612	08:36:22	10012	Trial	CongruentLeft	14	203	335	1	116	08:36:22	2098483	5	2	1	3	1	1	3	1	1	8	6	0	0	0	0	6	5
120612	08:36:22	10012	Trial	ResponseIR	14	0	175	0	116	08:36:22	2099830	5	2	1	3	1	1	3	1	1	8	6	0	0	0	0	6	5
120612	08:36:22	10012	Trial	IncongruentRight	14	205	373	1	116	08:36:22	2100229	5	2	1	3	1	1	3	1	1	8	6	0	0	0	0	6	5
120612	08:36:22	10012	Trial	ResponseCR	14	0	175	0	116	08:36:22	2101535	5	2	1	3	1	1	3	1	1	8	6	0	0	0	0	6	5
120612	08:36:22	10012	Trial	CongruentRight	14	205	266	1	116	08:36:22	2101829	5	2	1	3	1	1	3	1	1	8	6	0	0	0	0	6	5
120612	08:36:22	10012	Trial	ResponseIL	14	0	175	0	116	08:36:22	2103241	5	2	1	3	1	1	3	1	1	8	6	0	0	0	0	6	5
120612	08:36:22	10012	Trial	IncongruentLeft	14	203	273	1	116	08:36:22	2103535	5	2	1	3	1	1	3	1	1	8	6	0	0	0	0	6	5
120612	08:36:22	10012	Trial	ResponseCL	14	0	175	0	116	08:36:22	2104947	5	2	1	3	1	1	3	1	1	8	6	0	0	0	0	6	5
120612	08:36:22	10012	Trial	CongruentLeft	14	203	359	1	116	08:36:22	2105334	5	2	1	3	1	1	3	1	1	8	6	0	0	0	0	6	5
120612	08:36:22	10012	Trial	ResponseIR	14	0	175	0	116	08:36:22	2106653	5	2	1	3	1	1	3	1	1	8	6	0	0	0	0	6	5
120612	08:36:22	10012	Trial	IncongruentRight	14	205	365	1	116	08:36:22	2107040	5	2	1	3	1	1	3	1	1	8	6	0	0	0	0	6	5
120612	08:36:22	10012	Trial	ResponseIL	14	0	175	0	116	08:36:22	2108359	5	2	1	3	1	1	3	1	1	8	6	0	0	0	0	6	5
120612	08:36:22	10012	Trial	IncongruentLeft	14	205	275	0	116	08:36:22	2108652	5	2	1	3	1	1	3	1	1	8	6	0	0	0	0	6	5
120612	08:36:22	10012	Trial	ResponseCL	14	0	175	0	116	08:36:22	2110066	5	2	1	3	1	1	3	1	1	8	6	0	0	0	0	6	5
120612	08:36:22	10012	Trial	CongruentLeft	14	203	345	1	116	08:36:22	2110439	5	2	1	3	1	1	3	1	1	8	6	0	0	0	0	6	5
120612	08:36:22	10012	Trial	ResponseIL	14	0	175	0	116	08:36:22	2111771	5	2	1	3	1	1	3	1	1	8	6	0	0	0	0	6	5
120612	08:36:22	10012	Trial	IncongruentLeft	14	203	447	1	116	08:36:22	2112238	5	2	1	3	1	1	3	1	1	8	6	0	0	0	0	6	5
120612	08:36:22	10012	Trial	ResponseCR	14	0	175	0	116	08:36:22	2113478	5	2	1	3	1	1	3	1	1	8	6	0	0	0	0	6	5
120612	08:36:22	10012	Trial	CongruentRight	14	205	245	1	116	08:36:22	2113744	5	2	1	3	1	1	3	1	1	8	6	0	0	0	0	6	5
120612	08:36:22	10012	Trial	ResponseCL	14	0	175	0	116	08:36:22	2115183	5	2	1	3	1	1	3	1	1	8	6	0	0	0	0	6	5
120612	08:36:22	10012	Trial	CongruentLeft	14	203	394	1	116	08:36:22	2115597	5	2	1	3	1	1	3	1	1	8	6	0	0	0	0	6	5
120612	08:36:22	10012	Trial	ResponseIR	14	0	175	0	116	08:36:22	2116889	5	2	1	3	1	1	3	1	1	8	6	0	0	0	0	6	5
120612	08:36:22	10012	Trial	IncongruentRight	14	205	305	1	116	08:36:22	2117222	5	2	1	3	1	1	3	1	1	8	6	0	0	0	0	6	5
120612	08:36:22	10012	Trial	ResponseCL	14	0	175	0	116	08:36:22	2118595	5	2	1	3	1	1	3	1	1	8	6	0	0	0	0	6	5
120612	08:36:22	10012	Trial	CongruentLeft	14	203	230	1	116	08:36:22	2118848	5	2	1	3	1	1	3	1	1	8	6	0	0	0	0	6	5
120612	08:36:22	10012	Trial	ResponseCR	14	0	175	0	116	08:36:22	2120301	5	2	1	3	1	1	3	1	1	8	6	0	0	0	0	6	5
120612	08:36:22	10012	Trial	CongruentRight	14	205	269	1	116	08:36:22	2120594	5	2	1	3	1	1	3	1	1	8	6	0	0	0	0	6	5
120612	08:36:22	10012	Trial	ResponseIL	14	0	175	0	116	08:36:22	2122007	5	2	1	3	1	1	3	1	1	8	6	0	0	0	0	6	5
120612	08:36:22	10012	Trial	IncongruentLeft	14	203	499	1	116	08:36:22	2122527	5	2	1	3	1	1	3	1	1	8	6	0	0	0	0	6	5
120612	08:36:22	10012	WordsAbsEng6mo	PAbsEng6mo1	16	Abs1	4227	0	116	08:36:22	2134762	5	2	1	3	1	1	3	1	1	8	6	0	0	0	0	6	5
120612	08:36:22	10012	WordsAbsEng6mo	AbsEng6mo1	16	Abs1	2370	0	116	08:36:22	2137174	5	2	1	3	1	1	3	1	1	8	6	1	0	0	0	6	5
120612	08:36:22	10012	WordsAbsEng6mo	AbsEng6mo2	16	Abs1	14270	0	116	08:36:22	2151475	5	2	1	3	1	1	3	1	1	8	6	2	0	0	0	6	5
120612	08:36:22	10012	WordsAbsEng6mo	AbsEng6mo3	16	Abs1	5425	0	116	08:36:22	2156940	5	2	1	3	1	1	3	1	1	8	6	3	0	0	0	6	5
120612	08:36:22	10012	Trial2BackEngS	NS	17	0	1000	1	116	08:36:22	2200682	5	2	1	3	1	1	3	1	1	8	6	3	0	0	0	6	5
120612	08:36:22	10012	Trial2BackEngS	NS	17	0	1000	1	116	08:36:22	2202202	5	2	1	3	1	1	3	1	1	8	6	3	0	0	0	6	5
120612	08:36:22	10012	Trial2BackEngS	NS	17	0	1000	1	116	08:36:22	2203707	5	2	1	3	1	1	3	1	1	8	6	3	0	0	0	6	5
120612	08:36:22	10012	Trial2BackEngS	YS	17	0	1000	0	116	08:36:22	2205214	5	2	1	3	1	1	3	1	1	8	6	3	0	0	0	6	5
120612	08:36:22	10012	Trial2BackEngS	NS	17	0	1000	1	116	08:36:22	2206720	5	2	1	3	1	1	3	1	1	8	6	3	0	0	0	6	5
120612	08:36:22	10012	Trial2BackEngS	NS	17	0	1000	1	116	08:36:22	2208239	5	2	1	3	1	1	3	1	1	8	6	3	0	0	0	6	5
120612	08:36:22	10012	Trial2BackEngS	NS	17	0	1000	1	116	08:36:22	2209745	5	2	1	3	1	1	3	1	1	8	6	3	0	0	0	6	5
120612	08:36:22	10012	Trial2BackEngS	NS	17	0	1000	1	116	08:36:22	2211251	5	2	1	3	1	1	3	1	1	8	6	3	0	0	0	6	5
120612	08:36:22	10012	Trial2BackEngS	YS	17	0	1000	0	116	08:36:22	2212757	5	2	1	3	1	1	3	1	1	8	6	3	0	0	0	6	5
120612	08:36:22	10012	Trial2BackEngS	NS	17	0	1000	1	116	08:36:22	2214263	5	2	1	3	1	1	3	1	1	8	6	3	0	0	0	6	5
120612	08:36:22	10012	Trial2BackEngS	NS	17	0	1000	1	116	08:36:22	2215769	5	2	1	3	1	1	3	1	1	8	6	3	0	0	0	6	5
120612	08:36:22	10012	Trial2BackEngS	YS	17	0	1000	0	116	08:36:22	2217275	5	2	1	3	1	1	3	1	1	8	6	3	0	0	0	6	5
120612	08:36:22	10012	Trial2BackEngS	NS	17	0	1000	1	116	08:36:22	2218781	5	2	1	3	1	1	3	1	1	8	6	3	0	0	0	6	5
120612	08:36:22	10012	Trial2BackEngS	NS	17	0	1000	1	116	08:36:22	2220287	5	2	1	3	1	1	3	1	1	8	6	3	0	0	0	6	5
120612	08:36:22	10012	Trial2BackEngS	NS	17	0	1000	1	116	08:36:22	2221793	5	2	1	3	1	1	3	1	1	8	6	3	0	0	0	6	5
120612	08:36:22	10012	Trial2BackEngS	YS	17	0	1000	0	116	08:36:22	2223300	5	2	1	3	1	1	3	1	1	8	6	3	0	0	0	6	5
120612	08:36:22	10012	Trial2BackEngS	NS	17	0	1000	1	116	08:36:22	2224806	5	2	1	3	1	1	3	1	1	8	6	3	0	0	0	6	5
120612	08:36:22	10012	Trial2BackEngS	NS	17	0	1000	1	116	08:36:22	2226312	5	2	1	3	1	1	3	1	1	8	6	3	0	0	0	6	5
120612	08:36:22	10012	Trial2BackEngS	NS	17	0	1000	1	116	08:36:22	2227818	5	2	1	3	1	1	3	1	1	8	6	3	0	0	0	6	5
120612	08:36:22	10012	Trial2BackEngS	NS	17	0	1000	1	116	08:36:22	2229337	5	2	1	3	1	1	3	1	1	8	6	3	0	0	0	6	5
120612	08:36:22	10012	Trial2BackEngS	YS	17	0	1000	0	116	08:36:22	2230843	5	2	1	3	1	1	3	1	1	8	6	3	0	0	0	6	5
120612	08:36:22	10012	Trial2BackEngS	NS	17	0	1000	1	116	08:36:22	2232349	5	2	1	3	1	1	3	1	1	8	6	3	0	0	0	6	5
120612	08:36:22	10012	Trial2BackEngS	NS	17	0	1000	1	116	08:36:22	2233855	5	2	1	3	1	1	3	1	1	8	6	3	0	0	0	6	5
120612	08:36:22	10012	Trial2BackEngS	NS	17	0	1000	1	116	08:36:22	2235361	5	2	1	3	1	1	3	1	1	8	6	3	0	0	0	6	5
120612	08:36:22	10012	Trial2BackEngS	NS	17	0	1000	1	116	08:36:22	2236867	5	2	1	3	1	1	3	1	1	8	6	3	0	0	0	6	5
120612	08:36:22	10012	Trial2BackEngS	NS	17	0	1000	1	116	08:36:22	2238373	5	2	1	3	1	1	3	1	1	8	6	3	0	0	0	6	5
120612	08:36:22	10012	Trial2BackEngS	NS	17	0	1000	1	116	08:36:22	2239879	5	2	1	3	1	1	3	1	1	8	6	3	0	0	0	6	5
120612	08:36:22	10012	Trial2BackEngS	NS	17	0	1000	1	116	08:36:22	2241386	5	2	1	3	1	1	3	1	1	8	6	3	0	0	0	6	5
120612	08:36:22	10012	Trial2BackEngS	NS	17	0	1000	1	116	08:36:22	2242892	5	2	1	3	1	1	3	1	1	8	6	3	0	0	0	6	5
120612	08:36:22	10012	Trial2BackEngS	NS	17	0	1000	1	116	08:36:22	2244411	5	2	1	3	1	1	3	1	1	8	6	3	0	0	0	6	5
120612	08:36:22	10012	Trial2BackEngS	NS	17	0	1000	1	116	08:36:22	2245917	5	2	1	3	1	1	3	1	1	8	6	3	0	0	0	6	5
120612	08:36:22	10012	Trial2BackEngS	YS	17	0	1000	0	116	08:36:22	2247423	5	2	1	3	1	1	3	1	1	8	6	3	0	0	0	6	5
120612	08:36:22	10012	Trial2BackEngS	NS	17	0	1000	1	116	08:36:22	2248929	5	2	1	3	1	1	3	1	1	8	6	3	0	0	0	6	5
120612	08:36:22	10012	Trial2BackEngS	NS	17	0	1000	1	116	08:36:22	2250435	5	2	1	3	1	1	3	1	1	8	6	3	0	0	0	6	5
120612	08:36:22	10012	Trial2BackEngS	NS	17	0	1000	1	116	08:36:22	2251941	5	2	1	3	1	1	3	1	1	8	6	3	0	0	0	6	5
120612	08:36:22	10012	Trial2BackEngS	YS	17	0	1000	0	116	08:36:22	2253447	5	2	1	3	1	1	3	1	1	8	6	3	0	0	0	6	5
120612	08:36:22	10012	Trial2BackEngS	NS	17	0	1000	1	116	08:36:22	2254953	5	2	1	3	1	1	3	1	1	8	6	3	0	0	0	6	5
120612	08:36:22	10012	Trial2BackEngS	NS	17	0	1000	1	116	08:36:22	2256473	5	2	1	3	1	1	3	1	1	8	6	3	0	0	0	6	5
120612	08:36:22	10012	Trial2BackEngS	NS	17	0	1000	1	116	08:36:22	2257979	5	2	1	3	1	1	3	1	1	8	6	3	0	0	0	6	5
120612	08:36:22	10012	Trial2BackEngS	NS	17	0	1000	1	116	08:36:22	2259485	5	2	1	3	1	1	3	1	1	8	6	3	0	0	0	6	5
120612	08:36:22	10012	Trial2BackEngS	NS	17	0	1000	1	116	08:36:22	2260991	5	2	1	3	1	1	3	1	1	8	6	3	0	0	0	6	5
120612	08:36:22	10012	Trial2BackEngS	NS	17	0	1000	1	116	08:36:22	2262497	5	2	1	3	1	1	3	1	1	8	6	3	0	0	0	6	5
120612	08:36:22	10012	Trial2BackEngS	NS	17	0	1000	1	116	08:36:22	2264003	5	2	1	3	1	1	3	1	1	8	6	3	0	0	0	6	5
120612	08:36:22	10012	Trial2BackEngS	YS	17	0	1000	0	116	08:36:22	2265509	5	2	1	3	1	1	3	1	1	8	6	3	0	0	0	6	5
120612	08:36:22	10012	Trial2BackEngS	NS	17	0	1000	1	116	08:36:22	2267015	5	2	1	3	1	1	3	1	1	8	6	3	0	0	0	6	5
120612	08:36:22	10012	Trial2BackEngS	NS	17	0	1000	1	116	08:36:22	2268521	5	2	1	3	1	1	3	1	1	8	6	3	0	0	0	6	5
120612	08:36:22	10012	Trial2BackEngS	NS	17	0	1000	1	116	08:36:22	2270027	5	2	1	3	1	1	3	1	1	8	6	3	0	0	0	6	5
120612	08:36:22	10012	Trial2BackEngS	NS	17	0	1000	1	116	08:36:22	2271547	5	2	1	3	1	1	3	1	1	8	6	3	0	0	0	6	5
120612	08:36:22	10012	Trial2BackEngS	YS	17	0	1000	0	116	08:36:22	2273053	5	2	1	3	1	1	3	1	1	8	6	3	0	0	0	6	5
120612	08:36:22	10012	Trial2BackEngS	NS	17	0	1000	1	116	08:36:22	2274559	5	2	1	3	1	1	3	1	1	8	6	3	0	0	0	6	5
120612	08:36:22	10012	Trial2BackEngS	NS	17	0	1000	1	116	08:36:22	2276065	5	2	1	3	1	1	3	1	1	8	6	3	0	0	0	6	5
120612	08:36:22	10012	Trial2BackEngS	NS	17	0	1000	1	116	08:36:22	2277571	5	2	1	3	1	1	3	1	1	8	6	3	0	0	0	6	5
120612	08:36:22	10012	Trial2BackEngS	NS	17	0	1000	1	116	08:36:22	2279077	5	2	1	3	1	1	3	1	1	8	6	3	0	0	0	6	5
120612	08:36:22	10012	Trial2BackEngS	NS	17	0	1000	1	116	08:36:22	2280583	5	2	1	3	1	1	3	1	1	8	6	3	0	0	0	6	5
120612	08:36:22	10012	Trial2BackEngS	NS	17	0	1000	1	116	08:36:22	2282089	5	2	1	3	1	1	3	1	1	8	6	3	0	0	0	6	5
120612	08:36:22	10012	Trial2BackEngS	YS	17	0	1000	0	116	08:36:22	2283595	5	2	1	3	1	1	3	1	1	8	6	3	0	0	0	6	5
120612	08:36:22	10012	Trial2BackEngS	NS	17	0	1000	1	116	08:36:22	2285114	5	2	1	3	1	1	3	1	1	8	6	3	0	0	0	6	5
120612	08:36:22	10012	Trial2BackEngS	NS	17	0	1000	1	116	08:36:22	2286621	5	2	1	3	1	1	3	1	1	8	6	3	0	0	0	6	5
120612	08:36:22	10012	Trial2BackEngS	NS	17	0	1000	1	116	08:36:22	2288127	5	2	1	3	1	1	3	1	1	8	6	3	0	0	0	6	5
120612	08:36:22	10012	Trial2BackEngS	NS	17	0	1000	1	116	08:36:22	2289633	5	2	1	3	1	1	3	1	1	8	6	3	0	0	0	6	5
120612	08:36:22	10012	Trial2BackEngS	NS	17	0	1000	1	116	08:36:22	2291139	5	2	1	3	1	1	3	1	1	8	6	3	0	0	0	6	5
120612	08:36:22	10012	Trial2BackEngS	NS	17	0	1000	1	116	08:36:22	2292658	5	2	1	3	1	1	3	1	1	8	6	3	0	0	0	6	5
120612	08:36:22	10012	Trial2BackEngS	NS	17	0	1000	1	116	08:36:22	2294164	5	2	1	3	1	1	3	1	1	8	6	3	0	0	0	6	5
120612	08:36:22	10012	Trial2BackEngS	YS	17	57	966	1	116	08:36:22	2295644	5	2	1	3	1	1	3	1	1	8	6	3	0	0	0	6	5
120612	08:36:22	10012	Trial2BackEngS	NS	17	0	1000	1	116	08:36:22	2297176	5	2	1	3	1	1	3	1	1	8	6	3	0	0	0	6	5
120612	08:36:22	10012	Trial2BackEngS	NS	17	0	1000	1	116	08:36:22	2298682	5	2	1	3	1	1	3	1	1	8	6	3	0	0	0	6	5
120612	08:36:22	10012	Trial2BackEngS	NS	17	0	1000	1	116	08:36:22	2300202	5	2	1	3	1	1	3	1	1	8	6	3	0	0	0	6	5
120612	08:36:22	10012	Trial2BackEngS	NS	17	0	1000	1	116	08:36:22	2301708	5	2	1	3	1	1	3	1	1	8	6	3	0	0	0	6	5
120612	08:36:22	10012	Trial2BackEngS	YS	17	0	1000	0	116	08:36:22	2303214	5	2	1	3	1	1	3	1	1	8	6	3	0	0	0	6	5
120612	08:36:22	10012	Trial2BackEngS	NS	17	0	1000	1	116	08:36:22	2304720	5	2	1	3	1	1	3	1	1	8	6	3	0	0	0	6	5
120612	08:36:22	10012	Trial2BackEngS	NS	17	0	1000	1	116	08:36:22	2306226	5	2	1	3	1	1	3	1	1	8	6	3	0	0	0	6	5
120612	08:36:22	10012	Trial2BackEngS	YS	17	0	1000	0	116	08:36:22	2307745	5	2	1	3	1	1	3	1	1	8	6	3	0	0	0	6	5
120612	08:36:22	10012	Trial2BackEngS	NS	17	0	1000	1	116	08:36:22	2309251	5	2	1	3	1	1	3	1	1	8	6	3	0	0	0	6	5
120612	08:36:22	10012	Trial2BackEngS	NS	17	0	1000	1	116	08:36:22	2310757	5	2	1	3	1	1	3	1	1	8	6	3	0	0	0	6	5
120612	08:36:22	10012	Trial2BackEngS	NS	17	0	1000	1	116	08:36:22	2312277	5	2	1	3	1	1	3	1	1	8	6	3	0	0	0	6	5
120612	08:36:22	10012	Trial2BackEngS	NS	17	0	1000	1	116	08:36:22	2313796	5	2	1	3	1	1	3	1	1	8	6	3	0	0	0	6	5
120612	08:36:22	10012	Trial2BackEngS	NS	17	0	1000	1	116	08:36:22	2315302	5	2	1	3	1	1	3	1	1	8	6	3	0	0	0	6	5
120612	08:36:22	10012	Trial2BackEngS	NS	17	0	1000	1	116	08:36:22	2316808	5	2	1	3	1	1	3	1	1	8	6	3	0	0	0	6	5
120612	08:36:22	10012	Trial2BackEngS	YS	17	0	1000	0	116	08:36:22	2318314	5	2	1	3	1	1	3	1	1	8	6	3	0	0	0	6	5
120612	08:36:22	10012	Trial2BackEngS	NS	17	57	16	0	116	08:36:22	2318848	5	2	1	3	1	1	3	1	1	8	6	3	0	0	0	6	5
120612	08:36:22	10012	Trial2BackEngS	NS	17	0	1000	1	116	08:36:22	2321326	5	2	1	3	1	1	3	1	1	8	6	3	0	0	0	6	5
120612	08:36:22	10012	Trial2BackEngS	NS	17	0	1000	1	116	08:36:22	2322833	5	2	1	3	1	1	3	1	1	8	6	3	0	0	0	6	5
120612	08:36:22	10012	Trial2BackEngS	NS	17	0	1000	1	116	08:36:22	2324339	5	2	1	3	1	1	3	1	1	8	6	3	0	0	0	6	5
120612	08:36:22	10012	Trial2BackEngS	YS	17	57	519	1	116	08:36:22	2325378	5	2	1	3	1	1	3	1	1	8	6	3	0	0	0	6	5
120612	08:36:22	10012	Trial2BackEngS	NS	17	0	1000	1	116	08:36:22	2327351	5	2	1	3	1	1	3	1	1	8	6	3	0	0	0	6	5
120612	08:36:22	10012	Trial2BackEngS	NS	17	0	1000	1	116	08:36:22	2328857	5	2	1	3	1	1	3	1	1	8	6	3	0	0	0	6	5
120612	08:36:22	10012	Trial2BackEngS	NS	17	0	1000	1	116	08:36:22	2330363	5	2	1	3	1	1	3	1	1	8	6	3	0	0	0	6	5
120612	08:36:22	10012	Trial2BackEngS	NS	17	0	1000	1	116	08:36:22	2331869	5	2	1	3	1	1	3	1	1	8	6	3	0	0	0	6	5
120612	08:36:22	10012	Trial2BackEngS	YS	17	0	1000	0	116	08:36:22	2333375	5	2	1	3	1	1	3	1	1	8	6	3	0	0	0	6	5
120612	08:36:22	10012	Trial2BackEngS	NS	17	0	1000	1	116	08:36:22	2334881	5	2	1	3	1	1	3	1	1	8	6	3	0	0	0	6	5
120612	08:36:22	10012	Trial2BackEngS	NS	17	0	1000	1	116	08:36:22	2336387	5	2	1	3	1	1	3	1	1	8	6	3	0	0	0	6	5
120612	08:36:22	10012	Trial2BackEngS	YS	17	57	774	1	116	08:36:22	2337680	5	2	1	3	1	1	3	1	1	8	6	3	0	0	0	6	5
120612	08:36:22	10012	Trial2BackEngS	NS	17	0	1000	1	116	08:36:22	2339399	5	2	1	3	1	1	3	1	1	8	6	3	0	0	0	6	5
120612	08:36:22	10012	Trial2BackEngS	NS	17	0	1000	1	116	08:36:22	2340905	5	2	1	3	1	1	3	1	1	8	6	3	0	0	0	6	5
120612	08:36:22	10012	Trial2BackEngS	NS	17	0	1000	1	116	08:36:22	2342411	5	2	1	3	1	1	3	1	1	8	6	3	0	0	0	6	5
120612	08:36:22	10012	Trial2BackEngS	NS	17	0	1000	1	116	08:36:22	2343917	5	2	1	3	1	1	3	1	1	8	6	3	0	0	0	6	5
120612	08:36:22	10012	Trial2BackEngS	NS	17	0	1000	1	116	08:36:22	2345423	5	2	1	3	1	1	3	1	1	8	6	3	0	0	0	6	5
120612	08:36:22	10012	Trial2BackEngS	NS	17	0	1000	1	116	08:36:22	2346943	5	2	1	3	1	1	3	1	1	8	6	3	0	0	0	6	5
120612	08:36:22	10012	Trial2BackEngS	NS	17	0	1000	1	116	08:36:22	2348449	5	2	1	3	1	1	3	1	1	8	6	3	0	0	0	6	5
120612	08:36:22	10012	Trial2BackEngS	NS	17	0	1000	1	116	08:36:22	2349955	5	2	1	3	1	1	3	1	1	8	6	3	0	0	0	6	5
120612	08:36:22	10012	Trial2BackEngS	YS	17	0	1000	0	116	08:36:22	2351461	5	2	1	3	1	1	3	1	1	8	6	3	0	0	0	6	5
120612	08:36:22	10012	Trial2BackEngS	NS	17	0	1000	1	116	08:36:22	2352967	5	2	1	3	1	1	3	1	1	8	6	3	0	0	0	6	5
120612	08:36:22	10012	Trial2BackEngS	NS	17	0	1000	1	116	08:36:22	2354473	5	2	1	3	1	1	3	1	1	8	6	3	0	0	0	6	5
120612	08:36:22	10012	Trial2BackEngS	NS	17	0	1000	1	116	08:36:22	2355979	5	2	1	3	1	1	3	1	1	8	6	3	0	0	0	6	5
120612	08:36:22	10012	Trial2BackEngS	NS	17	0	1000	1	116	08:36:22	2357485	5	2	1	3	1	1	3	1	1	8	6	3	0	0	0	6	5
120612	08:36:22	10012	Trial2BackEngS	NS	17	0	1000	1	116	08:36:22	2358991	5	2	1	3	1	1	3	1	1	8	6	3	0	0	0	6	5
120612	08:36:22	10012	Trial2BackEngS	NS	17	57	714	0	116	08:36:22	2360217	5	2	1	3	1	1	3	1	1	8	6	3	0	0	0	6	5
120612	08:36:22	10012	Trial2BackEngS	NS	17	0	1000	1	116	08:36:22	2362003	5	2	1	3	1	1	3	1	1	8	6	3	0	0	0	6	5
120612	08:36:22	10012	Trial2BackEngS	YS	17	0	1000	0	116	08:36:22	2363509	5	2	1	3	1	1	3	1	1	8	6	3	0	0	0	6	5
120612	08:36:22	10012	Trial2BackEngS	NS	17	0	1000	1	116	08:36:22	2365015	5	2	1	3	1	1	3	1	1	8	6	3	0	0	0	6	5
120612	08:36:22	10012	Trial2BackEngS	NS	17	0	1000	1	116	08:36:22	2366535	5	2	1	3	1	1	3	1	1	8	6	3	0	0	0	6	5
120612	08:36:22	10012	Trial2BackEngS	NS	17	0	1000	1	116	08:36:22	2368041	5	2	1	3	1	1	3	1	1	8	6	3	0	0	0	6	5
120612	08:36:22	10012	Trial2BackEngS	NS	17	0	1000	1	116	08:36:22	2369547	5	2	1	3	1	1	3	1	1	8	6	3	0	0	0	6	5
120612	08:36:22	10012	Trial2BackEngS	NS	17	0	1000	1	116	08:36:22	2371053	5	2	1	3	1	1	3	1	1	8	6	3	0	0	0	6	5
120612	08:36:22	10012	Trial2BackEngS	NS	17	0	1000	1	116	08:36:22	2372559	5	2	1	3	1	1	3	1	1	8	6	3	0	0	0	6	5
120612	08:36:22	10012	Trial2BackEngS	NS	17	0	1000	1	116	08:36:22	2374078	5	2	1	3	1	1	3	1	1	8	6	3	0	0	0	6	5
120612	08:36:22	10012	Trial2BackEngS	NS	17	0	1000	1	116	08:36:22	2375584	5	2	1	3	1	1	3	1	1	8	6	3	0	0	0	6	5
120612	08:36:22	10012	Trial2BackEngS	NS	17	0	1000	1	116	08:36:22	2377091	5	2	1	3	1	1	3	1	1	8	6	3	0	0	0	6	5
120612	08:36:22	10012	Trial2BackEngS	YS	17	57	758	1	116	08:36:22	2378357	5	2	1	3	1	1	3	1	1	8	6	3	0	0	0	6	5
120612	08:36:22	10012	Trial2BackEngS	NS	17	0	1000	1	116	08:36:22	2380103	5	2	1	3	1	1	3	1	1	8	6	3	0	0	0	6	5
120612	08:36:22	10012	ClockEng6mo	ClockEng6mo	19	Clock1	37238	0	116	08:36:22	2417461	5	2	1	3	1	1	3	1	1	8	6	3	1	0	0	6	5
120612	08:36:22	10012	ClockEng6mo	ClockEng6mo	19	Clock11	563	0	116	08:36:22	2418074	5	2	1	3	1	1	3	1	1	8	6	3	1	1	0	6	5
120612	08:36:22	10012	ClockEng6mo	ClockEng6mo	19	Clock111	1128	0	116	08:36:22	2419247	5	2	1	3	1	1	3	1	1	8	6	3	1	1	1	6	5
120612	08:36:22	10012	ClockEng6mo	ClockEng6mo	19	Clockdone	665	0	116	08:36:22	2419967	5	2	1	3	1	1	3	1	1	8	6	3	1	1	1	6	5
120612	08:36:22	10012	FASEngVF6mo	StopEngVF6mo	20	17	4884	0	116	08:36:22	2505734	5	2	1	3	1	1	3	1	1	8	6	3	1	1	1	6	5
