date	time	subject	blockcode	trialcode	values.TaskNumber	response	latency	correct	values.Score	script.starttime	script.elapsedtime	values.ScoreS7	values.Word1	values.Word2	values.Word3	values.Word4	values.Word5	values.Word6	values.Word7	values.Word8	values.DigitSpanFwrd	values.DigitSpanBack	values.ScoreAbs	values.Contour	values.Numbers	values.Hands	values.corsiblockspanFwrd	values.corsiblockspanRev
121712	09:29:02	10015	Language	Language	0	French	143501	0	0	09:29:02	143764	0	0	0	0	0	0	0	0	0	0	0	0	0	0	0	0	0
121712	09:29:02	10015	Session	Session	0	6mo	1112	0	0	09:29:02	144938	0	0	0	0	0	0	0	0	0	0	0	0	0	0	0	0	0
121712	09:29:02	10015	HandFr	HandFr	0	RightFr	1105	0	0	09:29:02	146110	0	0	0	0	0	0	0	0	0	0	0	0	0	0	0	0	0
121712	09:29:02	10015	AudioCheckFr	WordsFr	0	0	0	0	0	09:29:02	600312	0	0	0	0	0	0	0	0	0	0	0	0	0	0	0	0	0
121712	09:29:02	10015	CubeFr	CubeFr	1	1Cube	31143	0	0	09:29:02	633598	0	0	0	0	0	0	0	0	0	0	0	0	0	0	0	0	0
121712	09:29:02	10015	pm.simpleFrRight	blank.simpleFr	2	0	1800	1	0	09:29:02	654203	0	0	0	0	0	0	0	0	0	0	0	0	0	0	0	0	0
121712	09:29:02	10015	pm.simpleFrRight	pm.simpleFr	2	57	475	0	0	09:29:02	654696	0	0	0	0	0	0	0	0	0	0	0	0	0	0	0	0	0
121712	09:29:02	10015	pm.simpleFrRight	blank.simpleFr	2	0	1500	1	0	09:29:02	656215	0	0	0	0	0	0	0	0	0	0	0	0	0	0	0	0	0
121712	09:29:02	10015	pm.simpleFrRight	pm.simpleFr	2	57	431	0	0	09:29:02	656668	0	0	0	0	0	0	0	0	0	0	0	0	0	0	0	0	0
121712	09:29:02	10015	pm.simpleFrRight	blank.simpleFr	2	0	1700	1	0	09:29:02	658388	0	0	0	0	0	0	0	0	0	0	0	0	0	0	0	0	0
121712	09:29:02	10015	pm.simpleFrRight	pm.simpleFr	2	57	402	0	0	09:29:02	658814	0	0	0	0	0	0	0	0	0	0	0	0	0	0	0	0	0
121712	09:29:02	10015	pm.simpleFrRight	blank.simpleFr	2	0	2200	1	0	09:29:02	661027	0	0	0	0	0	0	0	0	0	0	0	0	0	0	0	0	0
121712	09:29:02	10015	pm.simpleFrRight	pm.simpleFr	2	57	323	0	0	09:29:02	661373	0	0	0	0	0	0	0	0	0	0	0	0	0	0	0	0	0
121712	09:29:02	10015	pm.simpleFrRight	blank.simpleFr	2	0	2000	1	0	09:29:02	663386	0	0	0	0	0	0	0	0	0	0	0	0	0	0	0	0	0
121712	09:29:02	10015	pm.simpleFrRight	pm.simpleFr	2	57	268	0	0	09:29:02	663679	0	0	0	0	0	0	0	0	0	0	0	0	0	0	0	0	0
121712	09:29:02	10015	pm.simpleFrRight	blank.simpleFr	2	0	2500	1	0	09:29:02	666198	0	0	0	0	0	0	0	0	0	0	0	0	0	0	0	0	0
121712	09:29:02	10015	pm.simpleFrRight	pm.simpleFr	2	57	319	0	0	09:29:02	666545	0	0	0	0	0	0	0	0	0	0	0	0	0	0	0	0	0
121712	09:29:02	10015	pm.simpleFrRight	blank.simpleFr	2	0	2400	1	0	09:29:02	668957	0	0	0	0	0	0	0	0	0	0	0	0	0	0	0	0	0
121712	09:29:02	10015	pm.simpleFrRight	pm.simpleFr	2	57	312	0	0	09:29:02	669290	0	0	0	0	0	0	0	0	0	0	0	0	0	0	0	0	0
121712	09:29:02	10015	pm.simpleFrRight	blank.simpleFr	2	0	1900	1	0	09:29:02	671209	0	0	0	0	0	0	0	0	0	0	0	0	0	0	0	0	0
121712	09:29:02	10015	pm.simpleFrRight	pm.simpleFr	2	57	364	0	0	09:29:02	671596	0	0	0	0	0	0	0	0	0	0	0	0	0	0	0	0	0
121712	09:29:02	10015	pm.simpleFrRight	blank.simpleFr	2	0	1600	1	0	09:29:02	673209	0	0	0	0	0	0	0	0	0	0	0	0	0	0	0	0	0
121712	09:29:02	10015	pm.simpleFrRight	pm.simpleFr	2	57	365	0	0	09:29:02	673595	0	0	0	0	0	0	0	0	0	0	0	0	0	0	0	0	0
121712	09:29:02	10015	pm.simpleFrRight	blank.simpleFr	2	0	2300	1	0	09:29:02	675914	0	0	0	0	0	0	0	0	0	0	0	0	0	0	0	0	0
121712	09:29:02	10015	pm.simpleFrRight	pm.simpleFr	2	57	315	0	0	09:29:02	676247	0	0	0	0	0	0	0	0	0	0	0	0	0	0	0	0	0
121712	09:29:02	10015	pm.simpleFrRight	blank.simpleFr	2	0	2100	1	0	09:29:02	678367	0	0	0	0	0	0	0	0	0	0	0	0	0	0	0	0	0
121712	09:29:02	10015	pm.simpleFrRight	pm.simpleFr	2	57	295	0	0	09:29:02	678686	0	0	0	0	0	0	0	0	0	0	0	0	0	0	0	0	0
121712	09:29:02	10015	pm.simpleFrRight	blank.simpleFr	2	0	1800	1	0	09:29:02	680499	0	0	0	0	0	0	0	0	0	0	0	0	0	0	0	0	0
121712	09:29:02	10015	pm.simpleFrRight	pm.simpleFr	2	57	322	0	0	09:29:02	680846	0	0	0	0	0	0	0	0	0	0	0	0	0	0	0	0	0
121712	09:29:02	10015	pm.simpleFrRight	blank.simpleFr	2	0	2400	1	0	09:29:02	683258	0	0	0	0	0	0	0	0	0	0	0	0	0	0	0	0	0
121712	09:29:02	10015	pm.simpleFrRight	pm.simpleFr	2	57	363	0	0	09:29:02	683644	0	0	0	0	0	0	0	0	0	0	0	0	0	0	0	0	0
121712	09:29:02	10015	pm.simpleFrRight	blank.simpleFr	2	0	1700	1	0	09:29:02	685364	0	0	0	0	0	0	0	0	0	0	0	0	0	0	0	0	0
121712	09:29:02	10015	pm.simpleFrRight	pm.simpleFr	2	57	386	0	0	09:29:02	685777	0	0	0	0	0	0	0	0	0	0	0	0	0	0	0	0	0
121712	09:29:02	10015	pm.simpleFrRight	blank.simpleFr	2	0	2200	1	0	09:29:02	687989	0	0	0	0	0	0	0	0	0	0	0	0	0	0	0	0	0
121712	09:29:02	10015	pm.simpleFrRight	pm.simpleFr	2	57	304	0	0	09:29:02	688323	0	0	0	0	0	0	0	0	0	0	0	0	0	0	0	0	0
121712	09:29:02	10015	pm.simpleFrRight	blank.simpleFr	2	0	1600	1	0	09:29:02	689935	0	0	0	0	0	0	0	0	0	0	0	0	0	0	0	0	0
121712	09:29:02	10015	pm.simpleFrRight	pm.simpleFr	2	57	374	0	0	09:29:02	690335	0	0	0	0	0	0	0	0	0	0	0	0	0	0	0	0	0
121712	09:29:02	10015	pm.simpleFrRight	blank.simpleFr	2	0	1500	1	0	09:29:02	691855	0	0	0	0	0	0	0	0	0	0	0	0	0	0	0	0	0
121712	09:29:02	10015	pm.simpleFrRight	pm.simpleFr	2	57	327	0	0	09:29:02	692201	0	0	0	0	0	0	0	0	0	0	0	0	0	0	0	0	0
121712	09:29:02	10015	pm.simpleFrRight	blank.simpleFr	2	0	2100	1	0	09:29:02	694320	0	0	0	0	0	0	0	0	0	0	0	0	0	0	0	0	0
121712	09:29:02	10015	pm.simpleFrRight	pm.simpleFr	2	57	325	0	0	09:29:02	694667	0	0	0	0	0	0	0	0	0	0	0	0	0	0	0	0	0
121712	09:29:02	10015	pm.simpleFrRight	blank.simpleFr	2	0	1900	1	0	09:29:02	696586	0	0	0	0	0	0	0	0	0	0	0	0	0	0	0	0	0
121712	09:29:02	10015	pm.simpleFrRight	pm.simpleFr	2	57	363	0	0	09:29:02	696972	0	0	0	0	0	0	0	0	0	0	0	0	0	0	0	0	0
121712	09:29:02	10015	pm.simpleFrRight	blank.simpleFr	2	0	2000	1	0	09:29:02	698985	0	0	0	0	0	0	0	0	0	0	0	0	0	0	0	0	0
121712	09:29:02	10015	pm.simpleFrRight	pm.simpleFr	2	57	284	0	0	09:29:02	699291	0	0	0	0	0	0	0	0	0	0	0	0	0	0	0	0	0
121712	09:29:02	10015	pm.simpleFrRight	blank.simpleFr	2	0	2500	1	0	09:29:02	701811	0	0	0	0	0	0	0	0	0	0	0	0	0	0	0	0	0
121712	09:29:02	10015	pm.simpleFrRight	pm.simpleFr	2	57	306	0	0	09:29:02	702144	0	0	0	0	0	0	0	0	0	0	0	0	0	0	0	0	0
121712	09:29:02	10015	pm.simpleFrRight	blank.simpleFr	2	0	2300	1	0	09:29:02	704463	0	0	0	0	0	0	0	0	0	0	0	0	0	0	0	0	0
121712	09:29:02	10015	pm.simpleFrRight	pm.simpleFr	2	57	294	0	0	09:29:02	704783	0	0	0	0	0	0	0	0	0	0	0	0	0	0	0	0	0
121712	09:29:02	10015	pm.simpleFrRight	blank.simpleFr	2	0	2200	1	0	09:29:02	706995	0	0	0	0	0	0	0	0	0	0	0	0	0	0	0	0	0
121712	09:29:02	10015	pm.simpleFrRight	pm.simpleFr	2	57	290	0	0	09:29:02	707302	0	0	0	0	0	0	0	0	0	0	0	0	0	0	0	0	0
121712	09:29:02	10015	pm.simpleFrRight	blank.simpleFr	2	0	1600	1	0	09:29:02	708915	0	0	0	0	0	0	0	0	0	0	0	0	0	0	0	0	0
121712	09:29:02	10015	pm.simpleFrRight	pm.simpleFr	2	57	434	0	0	09:29:02	709368	0	0	0	0	0	0	0	0	0	0	0	0	0	0	0	0	0
121712	09:29:02	10015	pm.simpleFrRight	blank.simpleFr	2	0	2400	1	0	09:29:02	711780	0	0	0	0	0	0	0	0	0	0	0	0	0	0	0	0	0
121712	09:29:02	10015	pm.simpleFrRight	pm.simpleFr	2	57	289	0	0	09:29:02	712087	0	0	0	0	0	0	0	0	0	0	0	0	0	0	0	0	0
121712	09:29:02	10015	pm.simpleFrRight	blank.simpleFr	2	0	1900	1	0	09:29:02	714006	0	0	0	0	0	0	0	0	0	0	0	0	0	0	0	0	0
121712	09:29:02	10015	pm.simpleFrRight	pm.simpleFr	2	57	319	0	0	09:29:02	714352	0	0	0	0	0	0	0	0	0	0	0	0	0	0	0	0	0
121712	09:29:02	10015	pm.simpleFrRight	blank.simpleFr	2	0	2100	1	0	09:29:02	716472	0	0	0	0	0	0	0	0	0	0	0	0	0	0	0	0	0
121712	09:29:02	10015	pm.simpleFrRight	pm.simpleFr	2	57	301	0	0	09:29:02	716791	0	0	0	0	0	0	0	0	0	0	0	0	0	0	0	0	0
121712	09:29:02	10015	pm.simpleFrRight	blank.simpleFr	2	0	1800	1	0	09:29:02	718604	0	0	0	0	0	0	0	0	0	0	0	0	0	0	0	0	0
121712	09:29:02	10015	pm.simpleFrRight	pm.simpleFr	2	57	345	0	0	09:29:02	718977	0	0	0	0	0	0	0	0	0	0	0	0	0	0	0	0	0
121712	09:29:02	10015	pm.simpleFrRight	blank.simpleFr	2	0	2300	1	0	09:29:02	721296	0	0	0	0	0	0	0	0	0	0	0	0	0	0	0	0	0
121712	09:29:02	10015	pm.simpleFrRight	pm.simpleFr	2	57	292	0	0	09:29:02	721616	0	0	0	0	0	0	0	0	0	0	0	0	0	0	0	0	0
121712	09:29:02	10015	pm.simpleFrRight	blank.simpleFr	2	0	1500	1	0	09:29:02	723136	0	0	0	0	0	0	0	0	0	0	0	0	0	0	0	0	0
121712	09:29:02	10015	pm.simpleFrRight	pm.simpleFr	2	57	405	0	0	09:29:02	723562	0	0	0	0	0	0	0	0	0	0	0	0	0	0	0	0	0
121712	09:29:02	10015	pm.simpleFrRight	blank.simpleFr	2	0	1700	1	0	09:29:02	725281	0	0	0	0	0	0	0	0	0	0	0	0	0	0	0	0	0
121712	09:29:02	10015	pm.simpleFrRight	pm.simpleFr	2	57	275	0	0	09:29:02	725575	0	0	0	0	0	0	0	0	0	0	0	0	0	0	0	0	0
121712	09:29:02	10015	pm.simpleFrRight	blank.simpleFr	2	0	2500	1	0	09:29:02	728094	0	0	0	0	0	0	0	0	0	0	0	0	0	0	0	0	0
121712	09:29:02	10015	pm.simpleFrRight	pm.simpleFr	2	57	279	0	0	09:29:02	728400	0	0	0	0	0	0	0	0	0	0	0	0	0	0	0	0	0
121712	09:29:02	10015	pm.simpleFrRight	blank.simpleFr	2	0	2000	1	0	09:29:02	730413	0	0	0	0	0	0	0	0	0	0	0	0	0	0	0	0	0
121712	09:29:02	10015	pm.simpleFrRight	pm.simpleFr	2	57	296	0	0	09:29:02	730733	0	0	0	0	0	0	0	0	0	0	0	0	0	0	0	0	0
121712	09:29:02	10015	pm.simpleFrRight	blank.simpleFr	2	0	2100	1	0	09:29:02	732852	0	0	0	0	0	0	0	0	0	0	0	0	0	0	0	0	0
121712	09:29:02	10015	pm.simpleFrRight	pm.simpleFr	2	57	241	0	0	09:29:02	733118	0	0	0	0	0	0	0	0	0	0	0	0	0	0	0	0	0
121712	09:29:02	10015	pm.simpleFrRight	blank.simpleFr	2	0	2000	1	0	09:29:02	735131	0	0	0	0	0	0	0	0	0	0	0	0	0	0	0	0	0
121712	09:29:02	10015	pm.simpleFrRight	pm.simpleFr	2	57	266	0	0	09:29:02	735424	0	0	0	0	0	0	0	0	0	0	0	0	0	0	0	0	0
121712	09:29:02	10015	pm.simpleFrRight	blank.simpleFr	2	0	2400	1	0	09:29:02	737836	0	0	0	0	0	0	0	0	0	0	0	0	0	0	0	0	0
121712	09:29:02	10015	pm.simpleFrRight	pm.simpleFr	2	57	280	0	0	09:29:02	738143	0	0	0	0	0	0	0	0	0	0	0	0	0	0	0	0	0
121712	09:29:02	10015	pm.simpleFrRight	blank.simpleFr	2	0	2500	1	0	09:29:02	740662	0	0	0	0	0	0	0	0	0	0	0	0	0	0	0	0	0
121712	09:29:02	10015	pm.simpleFrRight	pm.simpleFr	2	57	270	0	0	09:29:02	740955	0	0	0	0	0	0	0	0	0	0	0	0	0	0	0	0	0
121712	09:29:02	10015	pm.simpleFrRight	blank.simpleFr	2	0	2200	1	0	09:29:02	743168	0	0	0	0	0	0	0	0	0	0	0	0	0	0	0	0	0
121712	09:29:02	10015	pm.simpleFrRight	pm.simpleFr	2	57	293	0	0	09:29:02	743488	0	0	0	0	0	0	0	0	0	0	0	0	0	0	0	0	0
121712	09:29:02	10015	pm.simpleFrRight	blank.simpleFr	2	0	2300	1	0	09:29:02	745807	0	0	0	0	0	0	0	0	0	0	0	0	0	0	0	0	0
121712	09:29:02	10015	pm.simpleFrRight	pm.simpleFr	2	57	278	0	0	09:29:02	746113	0	0	0	0	0	0	0	0	0	0	0	0	0	0	0	0	0
121712	09:29:02	10015	pm.simpleFrRight	blank.simpleFr	2	0	1500	1	0	09:29:02	747633	0	0	0	0	0	0	0	0	0	0	0	0	0	0	0	0	0
121712	09:29:02	10015	pm.simpleFrRight	pm.simpleFr	2	57	340	0	0	09:29:02	747992	0	0	0	0	0	0	0	0	0	0	0	0	0	0	0	0	0
121712	09:29:02	10015	Trial2BackFr	N	3	0	1000	1	1	09:29:02	797253	0	0	0	0	0	0	0	0	0	0	0	0	0	0	0	0	0
121712	09:29:02	10015	Trial2BackFr	N	3	0	1000	1	2	09:29:02	798759	0	0	0	0	0	0	0	0	0	0	0	0	0	0	0	0	0
121712	09:29:02	10015	Trial2BackFr	N	3	0	1000	1	3	09:29:02	800265	0	0	0	0	0	0	0	0	0	0	0	0	0	0	0	0	0
121712	09:29:02	10015	Trial2BackFr	N	3	0	1000	1	4	09:29:02	801771	0	0	0	0	0	0	0	0	0	0	0	0	0	0	0	0	0
121712	09:29:02	10015	Trial2BackFr	N	3	0	1000	1	5	09:29:02	803277	0	0	0	0	0	0	0	0	0	0	0	0	0	0	0	0	0
121712	09:29:02	10015	Trial2BackFr	N	3	0	1000	1	6	09:29:02	804783	0	0	0	0	0	0	0	0	0	0	0	0	0	0	0	0	0
121712	09:29:02	10015	Trial2BackFr	N	3	0	1000	1	7	09:29:02	806289	0	0	0	0	0	0	0	0	0	0	0	0	0	0	0	0	0
121712	09:29:02	10015	Trial2BackFr	N	3	0	1000	1	8	09:29:02	807795	0	0	0	0	0	0	0	0	0	0	0	0	0	0	0	0	0
121712	09:29:02	10015	Trial2BackFr	Y	3	57	405	1	9	09:29:02	808715	0	0	0	0	0	0	0	0	0	0	0	0	0	0	0	0	0
121712	09:29:02	10015	Trial2BackFr	N	3	0	1000	1	10	09:29:02	810807	0	0	0	0	0	0	0	0	0	0	0	0	0	0	0	0	0
121712	09:29:02	10015	Trial2BackFr	N	3	0	1000	1	11	09:29:02	812314	0	0	0	0	0	0	0	0	0	0	0	0	0	0	0	0	0
121712	09:29:02	10015	Trial2BackFr	N	3	0	1000	1	12	09:29:02	813820	0	0	0	0	0	0	0	0	0	0	0	0	0	0	0	0	0
121712	09:29:02	10015	Trial2BackFr	Y	3	57	444	1	13	09:29:02	814779	0	0	0	0	0	0	0	0	0	0	0	0	0	0	0	0	0
121712	09:29:02	10015	Trial2BackFr	N	3	0	1000	1	14	09:29:02	816832	0	0	0	0	0	0	0	0	0	0	0	0	0	0	0	0	0
121712	09:29:02	10015	Trial2BackFr	N	3	0	1000	1	15	09:29:02	818338	0	0	0	0	0	0	0	0	0	0	0	0	0	0	0	0	0
121712	09:29:02	10015	Trial2BackFr	N	3	0	1000	1	16	09:29:02	819844	0	0	0	0	0	0	0	0	0	0	0	0	0	0	0	0	0
121712	09:29:02	10015	Trial2BackFr	N	3	0	1000	1	17	09:29:02	821350	0	0	0	0	0	0	0	0	0	0	0	0	0	0	0	0	0
121712	09:29:02	10015	Trial2BackFr	N	3	0	1000	1	18	09:29:02	822856	0	0	0	0	0	0	0	0	0	0	0	0	0	0	0	0	0
121712	09:29:02	10015	Trial2BackFr	Y	3	57	544	1	19	09:29:02	823909	0	0	0	0	0	0	0	0	0	0	0	0	0	0	0	0	0
121712	09:29:02	10015	Trial2BackFr	N	3	0	1000	1	20	09:29:02	825868	0	0	0	0	0	0	0	0	0	0	0	0	0	0	0	0	0
121712	09:29:02	10015	Trial2BackFr	N	3	0	1000	1	21	09:29:02	827374	0	0	0	0	0	0	0	0	0	0	0	0	0	0	0	0	0
121712	09:29:02	10015	Trial2BackFr	N	3	0	1000	1	22	09:29:02	828881	0	0	0	0	0	0	0	0	0	0	0	0	0	0	0	0	0
121712	09:29:02	10015	Trial2BackFr	N	3	0	1000	1	23	09:29:02	830387	0	0	0	0	0	0	0	0	0	0	0	0	0	0	0	0	0
121712	09:29:02	10015	Trial2BackFr	Y	3	57	517	1	24	09:29:02	831413	0	0	0	0	0	0	0	0	0	0	0	0	0	0	0	0	0
121712	09:29:02	10015	Trial2BackFr	N	3	0	1000	1	25	09:29:02	833399	0	0	0	0	0	0	0	0	0	0	0	0	0	0	0	0	0
121712	09:29:02	10015	Trial2BackFr	N	3	0	1000	1	26	09:29:02	834905	0	0	0	0	0	0	0	0	0	0	0	0	0	0	0	0	0
121712	09:29:02	10015	Trial2BackFr	N	3	0	1000	1	27	09:29:02	836411	0	0	0	0	0	0	0	0	0	0	0	0	0	0	0	0	0
121712	09:29:02	10015	Trial2BackFr	N	3	0	1000	1	28	09:29:02	837917	0	0	0	0	0	0	0	0	0	0	0	0	0	0	0	0	0
121712	09:29:02	10015	Trial2BackFr	N	3	0	1000	1	29	09:29:02	839423	0	0	0	0	0	0	0	0	0	0	0	0	0	0	0	0	0
121712	09:29:02	10015	Trial2BackFr	N	3	0	1000	1	30	09:29:02	840929	0	0	0	0	0	0	0	0	0	0	0	0	0	0	0	0	0
121712	09:29:02	10015	Trial2BackFr	Y	3	57	503	1	31	09:29:02	841942	0	0	0	0	0	0	0	0	0	0	0	0	0	0	0	0	0
121712	09:29:02	10015	Trial2BackFr	N	3	0	1000	1	32	09:29:02	843941	0	0	0	0	0	0	0	0	0	0	0	0	0	0	0	0	0
121712	09:29:02	10015	Trial2BackFr	N	3	0	1000	1	33	09:29:02	845447	0	0	0	0	0	0	0	0	0	0	0	0	0	0	0	0	0
121712	09:29:02	10015	Trial2BackFr	N	3	0	1000	1	34	09:29:02	846953	0	0	0	0	0	0	0	0	0	0	0	0	0	0	0	0	0
121712	09:29:02	10015	Trial2BackFr	Y	3	57	575	1	35	09:29:02	848046	0	0	0	0	0	0	0	0	0	0	0	0	0	0	0	0	0
121712	09:29:02	10015	Trial2BackFr	N	3	0	1000	1	36	09:29:02	849966	0	0	0	0	0	0	0	0	0	0	0	0	0	0	0	0	0
121712	09:29:02	10015	Trial2BackFr	N	3	0	1000	1	37	09:29:02	851472	0	0	0	0	0	0	0	0	0	0	0	0	0	0	0	0	0
121712	09:29:02	10015	Trial2BackFr	N	3	0	1000	1	38	09:29:02	852978	0	0	0	0	0	0	0	0	0	0	0	0	0	0	0	0	0
121712	09:29:02	10015	Trial2BackFr	N	3	0	1000	1	39	09:29:02	854484	0	0	0	0	0	0	0	0	0	0	0	0	0	0	0	0	0
121712	09:29:02	10015	Trial2BackFr	N	3	0	1000	1	40	09:29:02	855990	0	0	0	0	0	0	0	0	0	0	0	0	0	0	0	0	0
121712	09:29:02	10015	Trial2BackFr	N	3	57	562	0	40	09:29:02	857069	0	0	0	0	0	0	0	0	0	0	0	0	0	0	0	0	0
121712	09:29:02	10015	Trial2BackFr	Y	3	0	1000	0	40	09:29:02	859002	0	0	0	0	0	0	0	0	0	0	0	0	0	0	0	0	0
121712	09:29:02	10015	Trial2BackFr	N	3	0	1000	1	41	09:29:02	860508	0	0	0	0	0	0	0	0	0	0	0	0	0	0	0	0	0
121712	09:29:02	10015	Trial2BackFr	N	3	0	1000	1	42	09:29:02	862014	0	0	0	0	0	0	0	0	0	0	0	0	0	0	0	0	0
121712	09:29:02	10015	Trial2BackFr	N	3	0	1000	1	43	09:29:02	863520	0	0	0	0	0	0	0	0	0	0	0	0	0	0	0	0	0
121712	09:29:02	10015	Trial2BackFr	N	3	0	1000	1	44	09:29:02	865026	0	0	0	0	0	0	0	0	0	0	0	0	0	0	0	0	0
121712	09:29:02	10015	Trial2BackFr	Y	3	57	469	1	45	09:29:02	866013	0	0	0	0	0	0	0	0	0	0	0	0	0	0	0	0	0
121712	09:29:02	10015	Trial2BackFr	N	3	0	1000	1	46	09:29:02	868038	0	0	0	0	0	0	0	0	0	0	0	0	0	0	0	0	0
121712	09:29:02	10015	Trial2BackFr	N	3	0	1000	1	47	09:29:02	869544	0	0	0	0	0	0	0	0	0	0	0	0	0	0	0	0	0
121712	09:29:02	10015	Trial2BackFr	N	3	0	1000	1	48	09:29:02	871050	0	0	0	0	0	0	0	0	0	0	0	0	0	0	0	0	0
121712	09:29:02	10015	Trial2BackFr	N	3	0	1000	1	49	09:29:02	872557	0	0	0	0	0	0	0	0	0	0	0	0	0	0	0	0	0
121712	09:29:02	10015	Trial2BackFr	N	3	0	1000	1	50	09:29:02	874063	0	0	0	0	0	0	0	0	0	0	0	0	0	0	0	0	0
121712	09:29:02	10015	Trial2BackFr	Y	3	57	505	1	51	09:29:02	875076	0	0	0	0	0	0	0	0	0	0	0	0	0	0	0	0	0
121712	09:29:02	10015	Trial2BackFr	N	3	0	1000	1	52	09:29:02	877075	0	0	0	0	0	0	0	0	0	0	0	0	0	0	0	0	0
121712	09:29:02	10015	Trial2BackFr	N	3	0	1000	1	53	09:29:02	878581	0	0	0	0	0	0	0	0	0	0	0	0	0	0	0	0	0
121712	09:29:02	10015	Trial2BackFr	N	3	0	1000	1	54	09:29:02	880087	0	0	0	0	0	0	0	0	0	0	0	0	0	0	0	0	0
121712	09:29:02	10015	Trial2BackFr	N	3	0	1000	1	55	09:29:02	881593	0	0	0	0	0	0	0	0	0	0	0	0	0	0	0	0	0
121712	09:29:02	10015	Trial2BackFr	N	3	0	1000	1	56	09:29:02	883099	0	0	0	0	0	0	0	0	0	0	0	0	0	0	0	0	0
121712	09:29:02	10015	Trial2BackFr	N	3	0	1000	1	57	09:29:02	884605	0	0	0	0	0	0	0	0	0	0	0	0	0	0	0	0	0
121712	09:29:02	10015	Trial2BackFr	Y	3	57	522	1	58	09:29:02	885645	0	0	0	0	0	0	0	0	0	0	0	0	0	0	0	0	0
121712	09:29:02	10015	Trial2BackFr	N	3	0	1000	1	59	09:29:02	887617	0	0	0	0	0	0	0	0	0	0	0	0	0	0	0	0	0
121712	09:29:02	10015	Trial2BackFr	N	3	0	1000	1	60	09:29:02	889123	0	0	0	0	0	0	0	0	0	0	0	0	0	0	0	0	0
121712	09:29:02	10015	Trial2BackFr	Y	3	57	660	1	61	09:29:02	890296	0	0	0	0	0	0	0	0	0	0	0	0	0	0	0	0	0
121712	09:29:02	10015	Trial2BackFr	N	3	0	1000	1	62	09:29:02	892135	0	0	0	0	0	0	0	0	0	0	0	0	0	0	0	0	0
121712	09:29:02	10015	Trial2BackFr	N	3	0	1000	1	63	09:29:02	893642	0	0	0	0	0	0	0	0	0	0	0	0	0	0	0	0	0
121712	09:29:02	10015	Trial2BackFr	N	3	0	1000	1	64	09:29:02	895161	0	0	0	0	0	0	0	0	0	0	0	0	0	0	0	0	0
121712	09:29:02	10015	Trial2BackFr	N	3	0	1000	1	65	09:29:02	896667	0	0	0	0	0	0	0	0	0	0	0	0	0	0	0	0	0
121712	09:29:02	10015	Trial2BackFr	N	3	0	1000	1	66	09:29:02	898173	0	0	0	0	0	0	0	0	0	0	0	0	0	0	0	0	0
121712	09:29:02	10015	Trial2BackFr	N	3	0	1000	1	67	09:29:02	899679	0	0	0	0	0	0	0	0	0	0	0	0	0	0	0	0	0
121712	09:29:02	10015	Trial2BackFr	N	3	0	1000	1	68	09:29:02	901185	0	0	0	0	0	0	0	0	0	0	0	0	0	0	0	0	0
121712	09:29:02	10015	Trial2BackFr	N	3	0	1000	1	69	09:29:02	902705	0	0	0	0	0	0	0	0	0	0	0	0	0	0	0	0	0
121712	09:29:02	10015	Trial2BackFr	N	3	0	1000	1	70	09:29:02	904211	0	0	0	0	0	0	0	0	0	0	0	0	0	0	0	0	0
121712	09:29:02	10015	Trial2BackFr	N	3	0	1000	1	71	09:29:02	905717	0	0	0	0	0	0	0	0	0	0	0	0	0	0	0	0	0
121712	09:29:02	10015	Trial2BackFr	Y	3	57	450	1	72	09:29:02	906677	0	0	0	0	0	0	0	0	0	0	0	0	0	0	0	0	0
121712	09:29:02	10015	Trial2BackFr	N	3	0	1000	1	73	09:29:02	908729	0	0	0	0	0	0	0	0	0	0	0	0	0	0	0	0	0
121712	09:29:02	10015	Trial2BackFr	N	3	0	1000	1	74	09:29:02	910235	0	0	0	0	0	0	0	0	0	0	0	0	0	0	0	0	0
121712	09:29:02	10015	Trial2BackFr	N	3	0	1000	1	75	09:29:02	911741	0	0	0	0	0	0	0	0	0	0	0	0	0	0	0	0	0
121712	09:29:02	10015	Trial2BackFr	Y	3	57	490	1	76	09:29:02	912741	0	0	0	0	0	0	0	0	0	0	0	0	0	0	0	0	0
121712	09:29:02	10015	Trial2BackFr	N	3	0	1000	1	77	09:29:02	914753	0	0	0	0	0	0	0	0	0	0	0	0	0	0	0	0	0
121712	09:29:02	10015	Trial2BackFr	N	3	0	1000	1	78	09:29:02	916259	0	0	0	0	0	0	0	0	0	0	0	0	0	0	0	0	0
121712	09:29:02	10015	Trial2BackFr	N	3	0	1000	1	79	09:29:02	917765	0	0	0	0	0	0	0	0	0	0	0	0	0	0	0	0	0
121712	09:29:02	10015	Trial2BackFr	N	3	0	1000	1	80	09:29:02	919271	0	0	0	0	0	0	0	0	0	0	0	0	0	0	0	0	0
121712	09:29:02	10015	Trial2BackFr	N	3	0	1000	1	81	09:29:02	920778	0	0	0	0	0	0	0	0	0	0	0	0	0	0	0	0	0
121712	09:29:02	10015	Trial2BackFr	Y	3	57	413	1	82	09:29:02	921711	0	0	0	0	0	0	0	0	0	0	0	0	0	0	0	0	0
121712	09:29:02	10015	Trial2BackFr	N	3	0	1000	1	83	09:29:02	923790	0	0	0	0	0	0	0	0	0	0	0	0	0	0	0	0	0
121712	09:29:02	10015	Trial2BackFr	N	3	0	1000	1	84	09:29:02	925296	0	0	0	0	0	0	0	0	0	0	0	0	0	0	0	0	0
121712	09:29:02	10015	Trial2BackFr	N	3	0	1000	1	85	09:29:02	926802	0	0	0	0	0	0	0	0	0	0	0	0	0	0	0	0	0
121712	09:29:02	10015	Trial2BackFr	N	3	0	1000	1	86	09:29:02	928321	0	0	0	0	0	0	0	0	0	0	0	0	0	0	0	0	0
121712	09:29:02	10015	Trial2BackFr	N	3	0	1000	1	87	09:29:02	929827	0	0	0	0	0	0	0	0	0	0	0	0	0	0	0	0	0
121712	09:29:02	10015	Trial2BackFr	N	3	0	1000	1	88	09:29:02	931333	0	0	0	0	0	0	0	0	0	0	0	0	0	0	0	0	0
121712	09:29:02	10015	Trial2BackFr	N	3	0	1000	1	89	09:29:02	932839	0	0	0	0	0	0	0	0	0	0	0	0	0	0	0	0	0
121712	09:29:02	10015	Trial2BackFr	N	3	0	1000	1	90	09:29:02	934346	0	0	0	0	0	0	0	0	0	0	0	0	0	0	0	0	0
121712	09:29:02	10015	Trial2BackFr	N	3	0	1000	1	91	09:29:02	935852	0	0	0	0	0	0	0	0	0	0	0	0	0	0	0	0	0
121712	09:29:02	10015	Trial2BackFr	Y	3	57	491	1	92	09:29:02	936851	0	0	0	0	0	0	0	0	0	0	0	0	0	0	0	0	0
121712	09:29:02	10015	Trial2BackFr	N	3	0	1000	1	93	09:29:02	938864	0	0	0	0	0	0	0	0	0	0	0	0	0	0	0	0	0
121712	09:29:02	10015	Trial2BackFr	N	3	0	1000	1	94	09:29:02	940370	0	0	0	0	0	0	0	0	0	0	0	0	0	0	0	0	0
121712	09:29:02	10015	Trial2BackFr	N	3	0	1000	1	95	09:29:02	941876	0	0	0	0	0	0	0	0	0	0	0	0	0	0	0	0	0
121712	09:29:02	10015	Trial2BackFr	N	3	0	1000	1	96	09:29:02	943382	0	0	0	0	0	0	0	0	0	0	0	0	0	0	0	0	0
121712	09:29:02	10015	Trial2BackFr	N	3	0	1000	1	97	09:29:02	944888	0	0	0	0	0	0	0	0	0	0	0	0	0	0	0	0	0
121712	09:29:02	10015	Trial2BackFr	N	3	0	1000	1	98	09:29:02	946394	0	0	0	0	0	0	0	0	0	0	0	0	0	0	0	0	0
121712	09:29:02	10015	Trial2BackFr	N	3	0	1000	1	99	09:29:02	947900	0	0	0	0	0	0	0	0	0	0	0	0	0	0	0	0	0
121712	09:29:02	10015	Trial2BackFr	N	3	0	1000	1	100	09:29:02	949406	0	0	0	0	0	0	0	0	0	0	0	0	0	0	0	0	0
121712	09:29:02	10015	Trial2BackFr	Y	3	57	424	1	101	09:29:02	950339	0	0	0	0	0	0	0	0	0	0	0	0	0	0	0	0	0
121712	09:29:02	10015	Trial2BackFr	N	3	0	1000	1	102	09:29:02	952418	0	0	0	0	0	0	0	0	0	0	0	0	0	0	0	0	0
121712	09:29:02	10015	Trial2BackFr	N	3	0	1000	1	103	09:29:02	953924	0	0	0	0	0	0	0	0	0	0	0	0	0	0	0	0	0
121712	09:29:02	10015	Trial2BackFr	N	3	0	1000	1	104	09:29:02	955431	0	0	0	0	0	0	0	0	0	0	0	0	0	0	0	0	0
121712	09:29:02	10015	Trial2BackFr	N	3	0	1000	1	105	09:29:02	956936	0	0	0	0	0	0	0	0	0	0	0	0	0	0	0	0	0
121712	09:29:02	10015	Trial2BackFr	Y	3	57	462	1	106	09:29:02	957909	0	0	0	0	0	0	0	0	0	0	0	0	0	0	0	0	0
121712	09:29:02	10015	Trial2BackFr	N	3	0	1000	1	107	09:29:02	959949	0	0	0	0	0	0	0	0	0	0	0	0	0	0	0	0	0
121712	09:29:02	10015	Trial2BackFr	N	3	0	1000	1	108	09:29:02	961455	0	0	0	0	0	0	0	0	0	0	0	0	0	0	0	0	0
121712	09:29:02	10015	Trial2BackFr	N	3	0	1000	1	109	09:29:02	962961	0	0	0	0	0	0	0	0	0	0	0	0	0	0	0	0	0
121712	09:29:02	10015	Trial2BackFr	Y	3	57	533	1	110	09:29:02	964014	0	0	0	0	0	0	0	0	0	0	0	0	0	0	0	0	0
121712	09:29:02	10015	Trial2BackFr	N	3	0	1000	1	111	09:29:02	965973	0	0	0	0	0	0	0	0	0	0	0	0	0	0	0	0	0
121712	09:29:02	10015	Trial2BackFr	N	3	0	1000	1	112	09:29:02	967479	0	0	0	0	0	0	0	0	0	0	0	0	0	0	0	0	0
121712	09:29:02	10015	Trial2BackFr	N	3	0	1000	1	113	09:29:02	968985	0	0	0	0	0	0	0	0	0	0	0	0	0	0	0	0	0
121712	09:29:02	10015	Trial2BackFr	N	3	0	1000	1	114	09:29:02	970491	0	0	0	0	0	0	0	0	0	0	0	0	0	0	0	0	0
121712	09:29:02	10015	Trial2BackFr	N	3	0	1000	1	115	09:29:02	971997	0	0	0	0	0	0	0	0	0	0	0	0	0	0	0	0	0
121712	09:29:02	10015	Trial2BackFr	Y	3	57	553	1	116	09:29:02	973063	0	0	0	0	0	0	0	0	0	0	0	0	0	0	0	0	0
121712	09:29:02	10015	Trial2BackFr	N	3	0	1000	1	117	09:29:02	975010	0	0	0	0	0	0	0	0	0	0	0	0	0	0	0	0	0
121712	09:29:02	10015	Trial2BackFr	N	3	0	1000	1	118	09:29:02	976516	0	0	0	0	0	0	0	0	0	0	0	0	0	0	0	0	0
121712	09:29:02	10015	Trial2BackFr	N	3	0	1000	1	119	09:29:02	978022	0	0	0	0	0	0	0	0	0	0	0	0	0	0	0	0	0
121712	09:29:02	10015	Trial2BackFr	Y	3	57	512	1	120	09:29:02	979048	0	0	0	0	0	0	0	0	0	0	0	0	0	0	0	0	0
121712	09:29:02	10015	Trial3BackFr	NN	4	0	1000	1	120	09:29:02	990577	0	0	0	0	0	0	0	0	0	0	0	0	0	0	0	0	0
121712	09:29:02	10015	Trial3BackFr	NN	4	0	1000	1	120	09:29:02	992083	0	0	0	0	0	0	0	0	0	0	0	0	0	0	0	0	0
121712	09:29:02	10015	Trial3BackFr	NN	4	0	1000	1	120	09:29:02	993589	0	0	0	0	0	0	0	0	0	0	0	0	0	0	0	0	0
121712	09:29:02	10015	Trial3BackFr	YY	4	57	401	1	120	09:29:02	994508	0	0	0	0	0	0	0	0	0	0	0	0	0	0	0	0	0
121712	09:29:02	10015	Trial3BackFr	NN	4	0	1000	1	120	09:29:02	996601	0	0	0	0	0	0	0	0	0	0	0	0	0	0	0	0	0
121712	09:29:02	10015	Trial3BackFr	NN	4	0	1000	1	120	09:29:02	998107	0	0	0	0	0	0	0	0	0	0	0	0	0	0	0	0	0
121712	09:29:02	10015	Trial3BackFr	NN	4	0	1000	1	120	09:29:02	999613	0	0	0	0	0	0	0	0	0	0	0	0	0	0	0	0	0
121712	09:29:02	10015	Trial3BackFr	NN	4	0	1000	1	120	09:29:02	1001119	0	0	0	0	0	0	0	0	0	0	0	0	0	0	0	0	0
121712	09:29:02	10015	Trial3BackFr	YY	4	57	742	1	120	09:29:02	1002372	0	0	0	0	0	0	0	0	0	0	0	0	0	0	0	0	0
121712	09:29:02	10015	Trial3BackFr	NN	4	0	1000	1	120	09:29:02	1004131	0	0	0	0	0	0	0	0	0	0	0	0	0	0	0	0	0
121712	09:29:02	10015	Trial3BackFr	NN	4	0	1000	1	120	09:29:02	1005637	0	0	0	0	0	0	0	0	0	0	0	0	0	0	0	0	0
121712	09:29:02	10015	Trial3BackFr	NN	4	0	1000	1	120	09:29:02	1007143	0	0	0	0	0	0	0	0	0	0	0	0	0	0	0	0	0
121712	09:29:02	10015	Trial3BackFr	NN	4	0	1000	1	120	09:29:02	1008650	0	0	0	0	0	0	0	0	0	0	0	0	0	0	0	0	0
121712	09:29:02	10015	Trial3BackFr	NN	4	0	1000	1	120	09:29:02	1010156	0	0	0	0	0	0	0	0	0	0	0	0	0	0	0	0	0
121712	09:29:02	10015	Trial3BackFr	NN	4	0	1000	1	120	09:29:02	1011662	0	0	0	0	0	0	0	0	0	0	0	0	0	0	0	0	0
121712	09:29:02	10015	Trial3BackFr	NN	4	0	1000	1	120	09:29:02	1013168	0	0	0	0	0	0	0	0	0	0	0	0	0	0	0	0	0
121712	09:29:02	10015	Trial3BackFr	YY	4	57	598	1	120	09:29:02	1014274	0	0	0	0	0	0	0	0	0	0	0	0	0	0	0	0	0
121712	09:29:02	10015	Trial3BackFr	NN	4	0	1000	1	120	09:29:02	1016180	0	0	0	0	0	0	0	0	0	0	0	0	0	0	0	0	0
121712	09:29:02	10015	Trial3BackFr	NN	4	0	1000	1	120	09:29:02	1017686	0	0	0	0	0	0	0	0	0	0	0	0	0	0	0	0	0
121712	09:29:02	10015	Trial3BackFr	NN	4	0	1000	1	120	09:29:02	1019192	0	0	0	0	0	0	0	0	0	0	0	0	0	0	0	0	0
121712	09:29:02	10015	Trial3BackFr	NN	4	0	1000	1	120	09:29:02	1020698	0	0	0	0	0	0	0	0	0	0	0	0	0	0	0	0	0
121712	09:29:02	10015	Trial3BackFr	NN	4	0	1000	1	120	09:29:02	1022204	0	0	0	0	0	0	0	0	0	0	0	0	0	0	0	0	0
121712	09:29:02	10015	Trial3BackFr	YY	4	57	489	1	120	09:29:02	1023204	0	0	0	0	0	0	0	0	0	0	0	0	0	0	0	0	0
121712	09:29:02	10015	Trial3BackFr	NN	4	0	1000	1	120	09:29:02	1025216	0	0	0	0	0	0	0	0	0	0	0	0	0	0	0	0	0
121712	09:29:02	10015	Trial3BackFr	NN	4	0	1000	1	120	09:29:02	1026722	0	0	0	0	0	0	0	0	0	0	0	0	0	0	0	0	0
121712	09:29:02	10015	Trial3BackFr	NN	4	0	1000	1	120	09:29:02	1028228	0	0	0	0	0	0	0	0	0	0	0	0	0	0	0	0	0
121712	09:29:02	10015	Trial3BackFr	YY	4	57	913	1	120	09:29:02	1029655	0	0	0	0	0	0	0	0	0	0	0	0	0	0	0	0	0
121712	09:29:02	10015	Trial3BackFr	NN	4	0	1000	1	120	09:29:02	1031241	0	0	0	0	0	0	0	0	0	0	0	0	0	0	0	0	0
121712	09:29:02	10015	Trial3BackFr	NN	4	0	1000	1	120	09:29:02	1032747	0	0	0	0	0	0	0	0	0	0	0	0	0	0	0	0	0
121712	09:29:02	10015	Trial3BackFr	NN	4	0	1000	1	120	09:29:02	1034253	0	0	0	0	0	0	0	0	0	0	0	0	0	0	0	0	0
121712	09:29:02	10015	Trial3BackFr	YY	4	57	616	1	120	09:29:02	1035386	0	0	0	0	0	0	0	0	0	0	0	0	0	0	0	0	0
121712	09:29:02	10015	Trial3BackFr	NN	4	0	1000	1	120	09:29:02	1037265	0	0	0	0	0	0	0	0	0	0	0	0	0	0	0	0	0
121712	09:29:02	10015	Trial3BackFr	NN	4	0	1000	1	120	09:29:02	1038771	0	0	0	0	0	0	0	0	0	0	0	0	0	0	0	0	0
121712	09:29:02	10015	Trial3BackFr	NN	4	0	1000	1	120	09:29:02	1040277	0	0	0	0	0	0	0	0	0	0	0	0	0	0	0	0	0
121712	09:29:02	10015	Trial3BackFr	NN	4	0	1000	1	120	09:29:02	1041783	0	0	0	0	0	0	0	0	0	0	0	0	0	0	0	0	0
121712	09:29:02	10015	Trial3BackFr	NN	4	0	1000	1	120	09:29:02	1043289	0	0	0	0	0	0	0	0	0	0	0	0	0	0	0	0	0
121712	09:29:02	10015	Trial3BackFr	NN	4	0	1000	1	120	09:29:02	1044795	0	0	0	0	0	0	0	0	0	0	0	0	0	0	0	0	0
121712	09:29:02	10015	Trial3BackFr	NN	4	0	1000	1	120	09:29:02	1046301	0	0	0	0	0	0	0	0	0	0	0	0	0	0	0	0	0
121712	09:29:02	10015	Trial3BackFr	NN	4	0	1000	1	120	09:29:02	1047807	0	0	0	0	0	0	0	0	0	0	0	0	0	0	0	0	0
121712	09:29:02	10015	Trial3BackFr	NN	4	0	1000	1	120	09:29:02	1049313	0	0	0	0	0	0	0	0	0	0	0	0	0	0	0	0	0
121712	09:29:02	10015	Trial3BackFr	NN	4	0	1000	1	120	09:29:02	1050820	0	0	0	0	0	0	0	0	0	0	0	0	0	0	0	0	0
121712	09:29:02	10015	Trial3BackFr	YY	4	57	561	1	120	09:29:02	1051899	0	0	0	0	0	0	0	0	0	0	0	0	0	0	0	0	0
121712	09:29:02	10015	Trial3BackFr	NN	4	0	1000	1	120	09:29:02	1053832	0	0	0	0	0	0	0	0	0	0	0	0	0	0	0	0	0
121712	09:29:02	10015	Trial3BackFr	NN	4	0	1000	1	120	09:29:02	1055338	0	0	0	0	0	0	0	0	0	0	0	0	0	0	0	0	0
121712	09:29:02	10015	Trial3BackFr	NN	4	0	1000	1	120	09:29:02	1056844	0	0	0	0	0	0	0	0	0	0	0	0	0	0	0	0	0
121712	09:29:02	10015	Trial3BackFr	NN	4	0	1000	1	120	09:29:02	1058350	0	0	0	0	0	0	0	0	0	0	0	0	0	0	0	0	0
121712	09:29:02	10015	Trial3BackFr	YY	4	57	407	1	120	09:29:02	1059270	0	0	0	0	0	0	0	0	0	0	0	0	0	0	0	0	0
121712	09:29:02	10015	Trial3BackFr	NN	4	0	1000	1	120	09:29:02	1061362	0	0	0	0	0	0	0	0	0	0	0	0	0	0	0	0	0
121712	09:29:02	10015	Trial3BackFr	NN	4	0	1000	1	120	09:29:02	1062868	0	0	0	0	0	0	0	0	0	0	0	0	0	0	0	0	0
121712	09:29:02	10015	Trial3BackFr	NN	4	0	1000	1	120	09:29:02	1064374	0	0	0	0	0	0	0	0	0	0	0	0	0	0	0	0	0
121712	09:29:02	10015	Trial3BackFr	NN	4	0	1000	1	120	09:29:02	1065880	0	0	0	0	0	0	0	0	0	0	0	0	0	0	0	0	0
121712	09:29:02	10015	Trial3BackFr	NN	4	0	1000	1	120	09:29:02	1067386	0	0	0	0	0	0	0	0	0	0	0	0	0	0	0	0	0
121712	09:29:02	10015	Trial3BackFr	YY	4	57	714	1	120	09:29:02	1068612	0	0	0	0	0	0	0	0	0	0	0	0	0	0	0	0	0
121712	09:29:02	10015	Trial3BackFr	NN	4	0	1000	1	120	09:29:02	1070398	0	0	0	0	0	0	0	0	0	0	0	0	0	0	0	0	0
121712	09:29:02	10015	Trial3BackFr	NN	4	0	1000	1	120	09:29:02	1071905	0	0	0	0	0	0	0	0	0	0	0	0	0	0	0	0	0
121712	09:29:02	10015	Trial3BackFr	NN	4	0	1000	1	120	09:29:02	1073411	0	0	0	0	0	0	0	0	0	0	0	0	0	0	0	0	0
121712	09:29:02	10015	Trial3BackFr	NN	4	0	1000	1	120	09:29:02	1074917	0	0	0	0	0	0	0	0	0	0	0	0	0	0	0	0	0
121712	09:29:02	10015	Trial3BackFr	NN	4	0	1000	1	120	09:29:02	1076423	0	0	0	0	0	0	0	0	0	0	0	0	0	0	0	0	0
121712	09:29:02	10015	Trial3BackFr	NN	4	0	1000	1	120	09:29:02	1077929	0	0	0	0	0	0	0	0	0	0	0	0	0	0	0	0	0
121712	09:29:02	10015	Trial3BackFr	YY	4	57	572	1	120	09:29:02	1079008	0	0	0	0	0	0	0	0	0	0	0	0	0	0	0	0	0
121712	09:29:02	10015	Trial3BackFr	NN	4	0	1000	1	120	09:29:02	1080941	0	0	0	0	0	0	0	0	0	0	0	0	0	0	0	0	0
121712	09:29:02	10015	Trial3BackFr	NN	4	0	1000	1	120	09:29:02	1082447	0	0	0	0	0	0	0	0	0	0	0	0	0	0	0	0	0
121712	09:29:02	10015	Trial3BackFr	NN	4	0	1000	1	120	09:29:02	1083953	0	0	0	0	0	0	0	0	0	0	0	0	0	0	0	0	0
121712	09:29:02	10015	Trial3BackFr	YY	4	57	483	1	120	09:29:02	1084953	0	0	0	0	0	0	0	0	0	0	0	0	0	0	0	0	0
121712	09:29:02	10015	Trial3BackFr	NN	4	0	1000	1	120	09:29:02	1086965	0	0	0	0	0	0	0	0	0	0	0	0	0	0	0	0	0
121712	09:29:02	10015	Trial3BackFr	NN	4	0	1000	1	120	09:29:02	1088471	0	0	0	0	0	0	0	0	0	0	0	0	0	0	0	0	0
121712	09:29:02	10015	Trial3BackFr	NN	4	0	1000	1	120	09:29:02	1089977	0	0	0	0	0	0	0	0	0	0	0	0	0	0	0	0	0
121712	09:29:02	10015	Trial3BackFr	NN	4	0	1000	1	120	09:29:02	1091484	0	0	0	0	0	0	0	0	0	0	0	0	0	0	0	0	0
121712	09:29:02	10015	Trial3BackFr	NN	4	0	1000	1	120	09:29:02	1092990	0	0	0	0	0	0	0	0	0	0	0	0	0	0	0	0	0
121712	09:29:02	10015	Trial3BackFr	NN	4	0	1000	1	120	09:29:02	1094496	0	0	0	0	0	0	0	0	0	0	0	0	0	0	0	0	0
121712	09:29:02	10015	Trial3BackFr	NN	4	0	1000	1	120	09:29:02	1096002	0	0	0	0	0	0	0	0	0	0	0	0	0	0	0	0	0
121712	09:29:02	10015	Trial3BackFr	NN	4	0	1000	1	120	09:29:02	1097508	0	0	0	0	0	0	0	0	0	0	0	0	0	0	0	0	0
121712	09:29:02	10015	Trial3BackFr	NN	4	0	1000	1	120	09:29:02	1099014	0	0	0	0	0	0	0	0	0	0	0	0	0	0	0	0	0
121712	09:29:02	10015	Trial3BackFr	YY	4	57	686	1	120	09:29:02	1100213	0	0	0	0	0	0	0	0	0	0	0	0	0	0	0	0	0
121712	09:29:02	10015	Trial3BackFr	NN	4	0	1000	1	120	09:29:02	1102026	0	0	0	0	0	0	0	0	0	0	0	0	0	0	0	0	0
121712	09:29:02	10015	Trial3BackFr	NN	4	0	1000	1	120	09:29:02	1103532	0	0	0	0	0	0	0	0	0	0	0	0	0	0	0	0	0
121712	09:29:02	10015	Trial3BackFr	NN	4	0	1000	1	120	09:29:02	1105038	0	0	0	0	0	0	0	0	0	0	0	0	0	0	0	0	0
121712	09:29:02	10015	Trial3BackFr	YY	4	57	422	1	120	09:29:02	1105971	0	0	0	0	0	0	0	0	0	0	0	0	0	0	0	0	0
121712	09:29:02	10015	Trial3BackFr	NN	4	0	1000	1	120	09:29:02	1108050	0	0	0	0	0	0	0	0	0	0	0	0	0	0	0	0	0
121712	09:29:02	10015	Trial3BackFr	NN	4	0	1000	1	120	09:29:02	1109556	0	0	0	0	0	0	0	0	0	0	0	0	0	0	0	0	0
121712	09:29:02	10015	Trial3BackFr	NN	4	0	1000	1	120	09:29:02	1111062	0	0	0	0	0	0	0	0	0	0	0	0	0	0	0	0	0
121712	09:29:02	10015	Trial3BackFr	NN	4	0	1000	1	120	09:29:02	1112568	0	0	0	0	0	0	0	0	0	0	0	0	0	0	0	0	0
121712	09:29:02	10015	Trial3BackFr	NN	4	0	1000	1	120	09:29:02	1114075	0	0	0	0	0	0	0	0	0	0	0	0	0	0	0	0	0
121712	09:29:02	10015	Trial3BackFr	YY	4	57	633	1	120	09:29:02	1115221	0	0	0	0	0	0	0	0	0	0	0	0	0	0	0	0	0
121712	09:29:02	10015	Trial3BackFr	NN	4	0	1000	1	120	09:29:02	1117087	0	0	0	0	0	0	0	0	0	0	0	0	0	0	0	0	0
121712	09:29:02	10015	Trial3BackFr	NN	4	0	1000	1	120	09:29:02	1118593	0	0	0	0	0	0	0	0	0	0	0	0	0	0	0	0	0
121712	09:29:02	10015	Trial3BackFr	NN	4	0	1000	1	120	09:29:02	1120099	0	0	0	0	0	0	0	0	0	0	0	0	0	0	0	0	0
121712	09:29:02	10015	Trial3BackFr	NN	4	0	1000	1	120	09:29:02	1121605	0	0	0	0	0	0	0	0	0	0	0	0	0	0	0	0	0
121712	09:29:02	10015	Trial3BackFr	NN	4	0	1000	1	120	09:29:02	1123111	0	0	0	0	0	0	0	0	0	0	0	0	0	0	0	0	0
121712	09:29:02	10015	Trial3BackFr	NN	4	0	1000	1	120	09:29:02	1124617	0	0	0	0	0	0	0	0	0	0	0	0	0	0	0	0	0
121712	09:29:02	10015	Trial3BackFr	NN	4	0	1000	1	120	09:29:02	1126123	0	0	0	0	0	0	0	0	0	0	0	0	0	0	0	0	0
121712	09:29:02	10015	Trial3BackFr	NN	4	0	1000	1	120	09:29:02	1127629	0	0	0	0	0	0	0	0	0	0	0	0	0	0	0	0	0
121712	09:29:02	10015	Trial3BackFr	NN	4	0	1000	1	120	09:29:02	1129135	0	0	0	0	0	0	0	0	0	0	0	0	0	0	0	0	0
121712	09:29:02	10015	Trial3BackFr	YY	4	57	596	1	120	09:29:02	1130242	0	0	0	0	0	0	0	0	0	0	0	0	0	0	0	0	0
121712	09:29:02	10015	Trial3BackFr	NN	4	0	1000	1	120	09:29:02	1132147	0	0	0	0	0	0	0	0	0	0	0	0	0	0	0	0	0
121712	09:29:02	10015	Trial3BackFr	NN	4	0	1000	1	120	09:29:02	1133654	0	0	0	0	0	0	0	0	0	0	0	0	0	0	0	0	0
121712	09:29:02	10015	Trial3BackFr	NN	4	0	1000	1	120	09:29:02	1135173	0	0	0	0	0	0	0	0	0	0	0	0	0	0	0	0	0
121712	09:29:02	10015	Trial3BackFr	NN	4	0	1000	1	120	09:29:02	1136679	0	0	0	0	0	0	0	0	0	0	0	0	0	0	0	0	0
121712	09:29:02	10015	Trial3BackFr	NN	4	0	1000	1	120	09:29:02	1138185	0	0	0	0	0	0	0	0	0	0	0	0	0	0	0	0	0
121712	09:29:02	10015	Trial3BackFr	NN	4	0	1000	1	120	09:29:02	1139691	0	0	0	0	0	0	0	0	0	0	0	0	0	0	0	0	0
121712	09:29:02	10015	Trial3BackFr	NN	4	0	1000	1	120	09:29:02	1141197	0	0	0	0	0	0	0	0	0	0	0	0	0	0	0	0	0
121712	09:29:02	10015	Trial3BackFr	NN	4	0	1000	1	120	09:29:02	1142703	0	0	0	0	0	0	0	0	0	0	0	0	0	0	0	0	0
121712	09:29:02	10015	Trial3BackFr	YY	4	0	1000	0	120	09:29:02	1144209	0	0	0	0	0	0	0	0	0	0	0	0	0	0	0	0	0
121712	09:29:02	10015	Trial3BackFr	NN	4	0	1000	1	120	09:29:02	1145715	0	0	0	0	0	0	0	0	0	0	0	0	0	0	0	0	0
121712	09:29:02	10015	Trial3BackFr	NN	4	0	1000	1	120	09:29:02	1147221	0	0	0	0	0	0	0	0	0	0	0	0	0	0	0	0	0
121712	09:29:02	10015	Trial3BackFr	NN	4	0	1000	1	120	09:29:02	1148728	0	0	0	0	0	0	0	0	0	0	0	0	0	0	0	0	0
121712	09:29:02	10015	Trial3BackFr	NN	4	0	1000	1	120	09:29:02	1150234	0	0	0	0	0	0	0	0	0	0	0	0	0	0	0	0	0
121712	09:29:02	10015	Trial3BackFr	YY	4	57	426	1	120	09:29:02	1151180	0	0	0	0	0	0	0	0	0	0	0	0	0	0	0	0	0
121712	09:29:02	10015	Trial3BackFr	NN	4	0	1000	1	120	09:29:02	1153246	0	0	0	0	0	0	0	0	0	0	0	0	0	0	0	0	0
121712	09:29:02	10015	Trial3BackFr	NN	4	0	1000	1	120	09:29:02	1154752	0	0	0	0	0	0	0	0	0	0	0	0	0	0	0	0	0
121712	09:29:02	10015	Trial3BackFr	NN	4	0	1000	1	120	09:29:02	1156258	0	0	0	0	0	0	0	0	0	0	0	0	0	0	0	0	0
121712	09:29:02	10015	Trial3BackFr	YY	4	57	577	1	120	09:29:02	1157351	0	0	0	0	0	0	0	0	0	0	0	0	0	0	0	0	0
121712	09:29:02	10015	Trial3BackFr	NN	4	0	1000	1	120	09:29:02	1159270	0	0	0	0	0	0	0	0	0	0	0	0	0	0	0	0	0
121712	09:29:02	10015	Trial3BackFr	NN	4	0	1000	1	120	09:29:02	1160776	0	0	0	0	0	0	0	0	0	0	0	0	0	0	0	0	0
121712	09:29:02	10015	Trial3BackFr	NN	4	0	1000	1	120	09:29:02	1162282	0	0	0	0	0	0	0	0	0	0	0	0	0	0	0	0	0
121712	09:29:02	10015	Trial3BackFr	NN	4	0	1000	1	120	09:29:02	1163788	0	0	0	0	0	0	0	0	0	0	0	0	0	0	0	0	0
121712	09:29:02	10015	Trial3BackFr	NN	4	0	1000	1	120	09:29:02	1165294	0	0	0	0	0	0	0	0	0	0	0	0	0	0	0	0	0
121712	09:29:02	10015	Trial3BackFr	YY	4	57	389	1	120	09:29:02	1166201	0	0	0	0	0	0	0	0	0	0	0	0	0	0	0	0	0
121712	09:29:02	10015	Trial3BackFr	NN	4	0	1000	1	120	09:29:02	1168306	0	0	0	0	0	0	0	0	0	0	0	0	0	0	0	0	0
121712	09:29:02	10015	Trial3BackFr	NN	4	0	1000	1	120	09:29:02	1169813	0	0	0	0	0	0	0	0	0	0	0	0	0	0	0	0	0
121712	09:29:02	10015	Trial3BackFr	NN	4	0	1000	1	120	09:29:02	1171319	0	0	0	0	0	0	0	0	0	0	0	0	0	0	0	0	0
121712	09:29:02	10015	Trial3BackFr	YY	4	57	492	1	120	09:29:02	1172332	0	0	0	0	0	0	0	0	0	0	0	0	0	0	0	0	0
121712	09:29:02	10015	Memory1R6moFr	ScoreFr	5	M1	19271	0	120	09:29:02	1217687	0	0	0	0	0	0	0	0	0	0	0	0	0	0	0	0	0
121712	09:29:02	10015	Memory1R6moFr	ScoreFr	5	M2	241	0	120	09:29:02	1217980	0	0	0	0	0	0	0	0	0	0	0	0	0	0	0	0	0
121712	09:29:02	10015	Memory1R6moFr	ScoreFr	5	M4	1934	0	120	09:29:02	1219980	0	0	0	0	0	0	0	0	0	0	0	0	0	0	0	0	0
121712	09:29:02	10015	Memory1R6moFr	ScoreFr	5	M5	141	0	120	09:29:02	1220166	0	0	0	0	0	0	0	0	0	0	0	0	0	0	0	0	0
121712	09:29:02	10015	Memory1R6moFr	ScoreFr	5	M7	1618	0	120	09:29:02	1221832	0	0	0	0	0	0	0	0	0	0	0	0	0	0	0	0	0
121712	09:29:02	10015	Memory1R6moFr	ScoreFr	5	M8	152	0	120	09:29:02	1222032	0	0	0	0	0	0	0	0	0	0	0	0	0	0	0	0	0
121712	09:29:02	10015	Memory1R6moFr	ScoreFr	5	Done	608	0	120	09:29:02	1222685	0	0	0	0	0	0	0	0	0	0	0	0	0	0	0	0	0
121712	09:29:02	10015	Memory2R6moFr	ScoreFr2	5	11	11962	0	120	09:29:02	1253407	0	0	0	0	0	0	0	0	0	0	0	0	0	0	0	0	0
121712	09:29:02	10015	Memory2R6moFr	ScoreFr2	5	22	186	0	120	09:29:02	1253646	0	0	0	0	0	0	0	0	0	0	0	0	0	0	0	0	0
121712	09:29:02	10015	Memory2R6moFr	ScoreFr2	5	22	156	0	120	09:29:02	1253860	0	0	0	0	0	0	0	0	0	0	0	0	0	0	0	0	0
121712	09:29:02	10015	Memory2R6moFr	ScoreFr2	5	44	158	0	120	09:29:02	1254086	0	0	0	0	0	0	0	0	0	0	0	0	0	0	0	0	0
121712	09:29:02	10015	Memory2R6moFr	ScoreFr2	5	22	338	0	120	09:29:02	1254473	0	0	0	0	0	0	0	0	0	0	0	0	0	0	0	0	0
121712	09:29:02	10015	Memory2R6moFr	ScoreFr2	5	33	264	0	120	09:29:02	1254792	0	0	0	0	0	0	0	0	0	0	0	0	0	0	0	0	0
121712	09:29:02	10015	Memory2R6moFr	ScoreFr2	5	55	391	0	120	09:29:02	1255232	0	0	0	0	0	0	0	0	0	0	0	0	0	0	0	0	0
121712	09:29:02	10015	Memory2R6moFr	ScoreFr2	5	66	186	0	120	09:29:02	1255486	0	0	0	0	0	0	0	0	0	0	0	0	0	0	0	0	0
121712	09:29:02	10015	Memory2R6moFr	ScoreFr2	5	88	290	0	120	09:29:02	1255832	0	0	0	0	0	0	0	0	0	0	0	0	0	0	0	0	0
121712	09:29:02	10015	Memory2R6moFr	ScoreFr2	5	77	400	0	120	09:29:02	1256285	0	0	0	0	0	0	0	0	0	0	0	0	0	0	0	0	0
121712	09:29:02	10015	Memory2R6moFr	ScoreFr2	5	Done	459	0	120	09:29:02	1256792	0	0	0	0	0	0	0	0	0	0	0	0	0	0	0	0	0
121712	09:29:02	10015	Memory3R6moFr	ScoreFr3	5	111	8935	0	120	09:29:02	1283888	0	0	0	0	0	0	0	0	0	0	0	0	0	0	0	0	0
121712	09:29:02	10015	Memory3R6moFr	ScoreFr3	5	222	168	0	120	09:29:02	1284101	0	0	0	0	0	0	0	0	0	0	0	0	0	0	0	0	0
121712	09:29:02	10015	Memory3R6moFr	ScoreFr3	5	333	267	0	120	09:29:02	1284421	0	0	0	0	0	0	0	0	0	0	0	0	0	0	0	0	0
121712	09:29:02	10015	Memory3R6moFr	ScoreFr3	5	555	235	0	120	09:29:02	1284701	0	0	0	0	0	0	0	0	0	0	0	0	0	0	0	0	0
121712	09:29:02	10015	Memory3R6moFr	ScoreFr3	5	444	603	0	120	09:29:02	1285354	0	0	0	0	0	0	0	0	0	0	0	0	0	0	0	0	0
121712	09:29:02	10015	Memory3R6moFr	ScoreFr3	5	666	494	0	120	09:29:02	1285900	0	0	0	0	0	0	0	0	0	0	0	0	0	0	0	0	0
121712	09:29:02	10015	Memory3R6moFr	ScoreFr3	5	777	427	0	120	09:29:02	1286380	0	0	0	0	0	0	0	0	0	0	0	0	0	0	0	0	0
121712	09:29:02	10015	Memory3R6moFr	ScoreFr3	5	888	499	0	120	09:29:02	1286927	0	0	0	0	0	0	0	0	0	0	0	0	0	0	0	0	0
121712	09:29:02	10015	Memory3R6moFr	ScoreFr3	5	Done	1153	0	120	09:29:02	1288126	0	0	0	0	0	0	0	0	0	0	0	0	0	0	0	0	0
121712	09:29:02	10015	LoriaFrLH3	Stop	6	8	4097	0	120	09:29:02	1350343	0	0	0	0	0	0	0	0	0	0	0	0	0	0	0	0	0
121712	09:29:02	10015	FrTrail	Trails	7	1Trails	3351	0	120	09:29:02	1373839	0	0	0	0	0	0	0	0	0	0	0	0	0	0	0	0	0
121712	09:29:02	10015	Serial7Fr6mo	Serial7Fr6mo	8	73	3447	0	120	09:29:02	1430164	1	0	0	0	0	0	0	0	0	0	0	0	0	0	0	0	0
121712	09:29:02	10015	Serial7Fr6mo	Serial7Fr6mo	8	66	2437	0	120	09:29:02	1432617	2	0	0	0	0	0	0	0	0	0	0	0	0	0	0	0	0
121712	09:29:02	10015	Serial7Fr6mo	Serial7Fr6mo	8	59	1977	0	120	09:29:02	1434616	3	0	0	0	0	0	0	0	0	0	0	0	0	0	0	0	0
121712	09:29:02	10015	Serial7Fr6mo	Serial7Fr6mo	8	52	1984	0	120	09:29:02	1436615	4	0	0	0	0	0	0	0	0	0	0	0	0	0	0	0	0
121712	09:29:02	10015	Serial7Fr6mo	Serial7Fr6mo	8	45	1801	0	120	09:29:02	1438441	5	0	0	0	0	0	0	0	0	0	0	0	0	0	0	0	0
121712	09:29:02	10015	corsiblockFrFwrd	recallseqFrFwrd	9	2	1549	0	120	09:29:02	1460872	5	0	0	0	0	0	0	0	0	0	0	0	0	0	0	0	0
121712	09:29:02	10015	corsiblockFrFwrd	recallseqFrFwrd	9	7	765	0	120	09:29:02	1461685	5	0	0	0	0	0	0	0	0	0	0	0	0	0	0	0	0
121712	09:29:02	10015	corsiblockFrFwrd	recallseqFrFwrd	9	doneCorsiFr	1344	0	120	09:29:02	1463085	5	0	0	0	0	0	0	0	0	0	0	0	0	0	0	2	0
121712	09:29:02	10015	corsiblockFrFwrd	recallseqFrFwrd	9	4	1261	0	120	09:29:02	1470482	5	0	0	0	0	0	0	0	0	0	0	0	0	0	0	2	0
121712	09:29:02	10015	corsiblockFrFwrd	recallseqFrFwrd	9	1	852	0	120	09:29:02	1471388	5	0	0	0	0	0	0	0	0	0	0	0	0	0	0	2	0
121712	09:29:02	10015	corsiblockFrFwrd	recallseqFrFwrd	9	3	985	0	120	09:29:02	1472428	5	0	0	0	0	0	0	0	0	0	0	0	0	0	0	2	0
121712	09:29:02	10015	corsiblockFrFwrd	recallseqFrFwrd	9	doneCorsiFr	1185	0	120	09:29:02	1473667	5	0	0	0	0	0	0	0	0	0	0	0	0	0	0	3	0
121712	09:29:02	10015	corsiblockFrFwrd	recallseqFrFwrd	9	6	813	0	120	09:29:02	1481611	5	0	0	0	0	0	0	0	0	0	0	0	0	0	0	3	0
121712	09:29:02	10015	corsiblockFrFwrd	recallseqFrFwrd	9	5	459	0	120	09:29:02	1482117	5	0	0	0	0	0	0	0	0	0	0	0	0	0	0	3	0
121712	09:29:02	10015	corsiblockFrFwrd	recallseqFrFwrd	9	9	1488	0	120	09:29:02	1483650	5	0	0	0	0	0	0	0	0	0	0	0	0	0	0	3	0
121712	09:29:02	10015	corsiblockFrFwrd	recallseqFrFwrd	9	8	939	0	120	09:29:02	1484636	5	0	0	0	0	0	0	0	0	0	0	0	0	0	0	3	0
121712	09:29:02	10015	corsiblockFrFwrd	recallseqFrFwrd	9	doneCorsiFr	1049	0	120	09:29:02	1485742	5	0	0	0	0	0	0	0	0	0	0	0	0	0	0	4	0
121712	09:29:02	10015	corsiblockFrFwrd	recallseqFrFwrd	9	1	450	0	120	09:29:02	1494326	5	0	0	0	0	0	0	0	0	0	0	0	0	0	0	4	0
121712	09:29:02	10015	corsiblockFrFwrd	recallseqFrFwrd	9	3	687	0	120	09:29:02	1495059	5	0	0	0	0	0	0	0	0	0	0	0	0	0	0	4	0
121712	09:29:02	10015	corsiblockFrFwrd	recallseqFrFwrd	9	8	682	0	120	09:29:02	1495792	5	0	0	0	0	0	0	0	0	0	0	0	0	0	0	4	0
121712	09:29:02	10015	corsiblockFrFwrd	recallseqFrFwrd	9	5	485	0	120	09:29:02	1496325	5	0	0	0	0	0	0	0	0	0	0	0	0	0	0	4	0
121712	09:29:02	10015	corsiblockFrFwrd	recallseqFrFwrd	9	7	808	0	120	09:29:02	1497178	5	0	0	0	0	0	0	0	0	0	0	0	0	0	0	4	0
121712	09:29:02	10015	corsiblockFrFwrd	recallseqFrFwrd	9	doneCorsiFr	1203	0	120	09:29:02	1498431	5	0	0	0	0	0	0	0	0	0	0	0	0	0	0	5	0
121712	09:29:02	10015	corsiblockFrFwrd	recallseqFrFwrd	9	6	791	0	120	09:29:02	1508333	5	0	0	0	0	0	0	0	0	0	0	0	0	0	0	5	0
121712	09:29:02	10015	corsiblockFrFwrd	recallseqFrFwrd	9	9	855	0	120	09:29:02	1509240	5	0	0	0	0	0	0	0	0	0	0	0	0	0	0	5	0
121712	09:29:02	10015	corsiblockFrFwrd	recallseqFrFwrd	9	2	789	0	120	09:29:02	1510079	5	0	0	0	0	0	0	0	0	0	0	0	0	0	0	5	0
121712	09:29:02	10015	corsiblockFrFwrd	recallseqFrFwrd	9	4	550	0	120	09:29:02	1510679	5	0	0	0	0	0	0	0	0	0	0	0	0	0	0	5	0
121712	09:29:02	10015	corsiblockFrFwrd	recallseqFrFwrd	9	6	422	0	120	09:29:02	1511146	5	0	0	0	0	0	0	0	0	0	0	0	0	0	0	5	0
121712	09:29:02	10015	corsiblockFrFwrd	recallseqFrFwrd	9	8	667	0	120	09:29:02	1511865	5	0	0	0	0	0	0	0	0	0	0	0	0	0	0	5	0
121712	09:29:02	10015	corsiblockFrFwrd	recallseqFrFwrd	9	doneCorsiFr	931	0	120	09:29:02	1512852	5	0	0	0	0	0	0	0	0	0	0	0	0	0	0	6	0
121712	09:29:02	10015	corsiblockFrFwrd	recallseqFrFwrd	9	2	919	0	120	09:29:02	1523914	5	0	0	0	0	0	0	0	0	0	0	0	0	0	0	6	0
121712	09:29:02	10015	corsiblockFrFwrd	recallseqFrFwrd	9	1	754	0	120	09:29:02	1524714	5	0	0	0	0	0	0	0	0	0	0	0	0	0	0	6	0
121712	09:29:02	10015	corsiblockFrFwrd	recallseqFrFwrd	9	9	667	0	120	09:29:02	1525433	5	0	0	0	0	0	0	0	0	0	0	0	0	0	0	6	0
121712	09:29:02	10015	corsiblockFrFwrd	recallseqFrFwrd	9	3	771	0	120	09:29:02	1526260	5	0	0	0	0	0	0	0	0	0	0	0	0	0	0	6	0
121712	09:29:02	10015	corsiblockFrFwrd	recallseqFrFwrd	9	7	489	0	120	09:29:02	1526793	5	0	0	0	0	0	0	0	0	0	0	0	0	0	0	6	0
121712	09:29:02	10015	corsiblockFrFwrd	recallseqFrFwrd	9	4	516	0	120	09:29:02	1527366	5	0	0	0	0	0	0	0	0	0	0	0	0	0	0	6	0
121712	09:29:02	10015	corsiblockFrFwrd	recallseqFrFwrd	9	5	903	0	120	09:29:02	1528326	5	0	0	0	0	0	0	0	0	0	0	0	0	0	0	6	0
121712	09:29:02	10015	corsiblockFrFwrd	recallseqFrFwrd	9	doneCorsiFr	735	0	120	09:29:02	1529112	5	0	0	0	0	0	0	0	0	0	0	0	0	0	0	6	0
121712	09:29:02	10015	corsiblockFrFwrd	recallseqFrFwrd	9	1	552	0	120	09:29:02	1539748	5	0	0	0	0	0	0	0	0	0	0	0	0	0	0	6	0
121712	09:29:02	10015	corsiblockFrFwrd	recallseqFrFwrd	9	9	1121	0	120	09:29:02	1540921	5	0	0	0	0	0	0	0	0	0	0	0	0	0	0	6	0
121712	09:29:02	10015	corsiblockFrFwrd	recallseqFrFwrd	9	5	652	0	120	09:29:02	1541627	5	0	0	0	0	0	0	0	0	0	0	0	0	0	0	6	0
121712	09:29:02	10015	corsiblockFrFwrd	recallseqFrFwrd	9	3	634	0	120	09:29:02	1542307	5	0	0	0	0	0	0	0	0	0	0	0	0	0	0	6	0
121712	09:29:02	10015	corsiblockFrFwrd	recallseqFrFwrd	9	6	482	0	120	09:29:02	1542840	5	0	0	0	0	0	0	0	0	0	0	0	0	0	0	6	0
121712	09:29:02	10015	corsiblockFrFwrd	recallseqFrFwrd	9	2	1613	0	120	09:29:02	1544506	5	0	0	0	0	0	0	0	0	0	0	0	0	0	0	6	0
121712	09:29:02	10015	corsiblockFrFwrd	recallseqFrFwrd	9	7	507	0	120	09:29:02	1545066	5	0	0	0	0	0	0	0	0	0	0	0	0	0	0	6	0
121712	09:29:02	10015	corsiblockFrFwrd	recallseqFrFwrd	9	doneCorsiFr	795	0	120	09:29:02	1545905	5	0	0	0	0	0	0	0	0	0	0	0	0	0	0	6	0
121712	09:29:02	10015	corsiblockFrRev	recallseqFrRev	10	1	601	0	120	09:29:02	1554689	5	0	0	0	0	0	0	0	0	0	0	0	0	0	0	6	0
121712	09:29:02	10015	corsiblockFrRev	recallseqFrRev	10	8	932	0	120	09:29:02	1555675	5	0	0	0	0	0	0	0	0	0	0	0	0	0	0	6	0
121712	09:29:02	10015	corsiblockFrRev	recallseqFrRev	10	doneCorsiFr	834	0	120	09:29:02	1556555	5	0	0	0	0	0	0	0	0	0	0	0	0	0	0	6	2
121712	09:29:02	10015	corsiblockFrRev	recallseqFrRev	10	6	516	0	120	09:29:02	1563205	5	0	0	0	0	0	0	0	0	0	0	0	0	0	0	6	2
121712	09:29:02	10015	corsiblockFrRev	recallseqFrRev	10	2	543	0	120	09:29:02	1563805	5	0	0	0	0	0	0	0	0	0	0	0	0	0	0	6	2
121712	09:29:02	10015	corsiblockFrRev	recallseqFrRev	10	4	551	0	120	09:29:02	1564405	5	0	0	0	0	0	0	0	0	0	0	0	0	0	0	6	2
121712	09:29:02	10015	corsiblockFrRev	recallseqFrRev	10	doneCorsiFr	727	0	120	09:29:02	1565178	5	0	0	0	0	0	0	0	0	0	0	0	0	0	0	6	3
121712	09:29:02	10015	corsiblockFrRev	recallseqFrRev	10	5	629	0	120	09:29:02	1572935	5	0	0	0	0	0	0	0	0	0	0	0	0	0	0	6	3
121712	09:29:02	10015	corsiblockFrRev	recallseqFrRev	10	9	2069	0	120	09:29:02	1575054	5	0	0	0	0	0	0	0	0	0	0	0	0	0	0	6	3
121712	09:29:02	10015	corsiblockFrRev	recallseqFrRev	10	3	758	0	120	09:29:02	1575867	5	0	0	0	0	0	0	0	0	0	0	0	0	0	0	6	3
121712	09:29:02	10015	corsiblockFrRev	recallseqFrRev	10	7	537	0	120	09:29:02	1576453	5	0	0	0	0	0	0	0	0	0	0	0	0	0	0	6	3
121712	09:29:02	10015	corsiblockFrRev	recallseqFrRev	10	doneCorsiFr	838	0	120	09:29:02	1577346	5	0	0	0	0	0	0	0	0	0	0	0	0	0	0	6	4
121712	09:29:02	10015	corsiblockFrRev	recallseqFrRev	10	7	454	0	120	09:29:02	1585930	5	0	0	0	0	0	0	0	0	0	0	0	0	0	0	6	4
121712	09:29:02	10015	corsiblockFrRev	recallseqFrRev	10	3	579	0	120	09:29:02	1586556	5	0	0	0	0	0	0	0	0	0	0	0	0	0	0	6	4
121712	09:29:02	10015	corsiblockFrRev	recallseqFrRev	10	6	592	0	120	09:29:02	1587196	5	0	0	0	0	0	0	0	0	0	0	0	0	0	0	6	4
121712	09:29:02	10015	corsiblockFrRev	recallseqFrRev	10	5	344	0	120	09:29:02	1587596	5	0	0	0	0	0	0	0	0	0	0	0	0	0	0	6	4
121712	09:29:02	10015	corsiblockFrRev	recallseqFrRev	10	4	401	0	120	09:29:02	1588049	5	0	0	0	0	0	0	0	0	0	0	0	0	0	0	6	4
121712	09:29:02	10015	corsiblockFrRev	recallseqFrRev	10	doneCorsiFr	595	0	120	09:29:02	1588689	5	0	0	0	0	0	0	0	0	0	0	0	0	0	0	6	5
121712	09:29:02	10015	corsiblockFrRev	recallseqFrRev	10	2	593	0	120	09:29:02	1598418	5	0	0	0	0	0	0	0	0	0	0	0	0	0	0	6	5
121712	09:29:02	10015	corsiblockFrRev	recallseqFrRev	10	7	426	0	120	09:29:02	1598898	5	0	0	0	0	0	0	0	0	0	0	0	0	0	0	6	5
121712	09:29:02	10015	corsiblockFrRev	recallseqFrRev	10	8	578	0	120	09:29:02	1599524	5	0	0	0	0	0	0	0	0	0	0	0	0	0	0	6	5
121712	09:29:02	10015	corsiblockFrRev	recallseqFrRev	10	2	1191	0	120	09:29:02	1600764	5	0	0	0	0	0	0	0	0	0	0	0	0	0	0	6	5
121712	09:29:02	10015	corsiblockFrRev	recallseqFrRev	10	1	1824	0	120	09:29:02	1602643	5	0	0	0	0	0	0	0	0	0	0	0	0	0	0	6	5
121712	09:29:02	10015	corsiblockFrRev	recallseqFrRev	10	9	593	0	120	09:29:02	1603283	5	0	0	0	0	0	0	0	0	0	0	0	0	0	0	6	5
121712	09:29:02	10015	corsiblockFrRev	recallseqFrRev	10	doneCorsiFr	1057	0	120	09:29:02	1604389	5	0	0	0	0	0	0	0	0	0	0	0	0	0	0	6	5
121712	09:29:02	10015	corsiblockFrRev	recallseqFrRev	10	4	498	0	120	09:29:02	1613972	5	0	0	0	0	0	0	0	0	0	0	0	0	0	0	6	5
121712	09:29:02	10015	corsiblockFrRev	recallseqFrRev	10	9	495	0	120	09:29:02	1614518	5	0	0	0	0	0	0	0	0	0	0	0	0	0	0	6	5
121712	09:29:02	10015	corsiblockFrRev	recallseqFrRev	10	3	629	0	120	09:29:02	1615198	5	0	0	0	0	0	0	0	0	0	0	0	0	0	0	6	5
121712	09:29:02	10015	corsiblockFrRev	recallseqFrRev	10	1	565	0	120	09:29:02	1615811	5	0	0	0	0	0	0	0	0	0	0	0	0	0	0	6	5
121712	09:29:02	10015	corsiblockFrRev	recallseqFrRev	10	8	2225	0	120	09:29:02	1618090	5	0	0	0	0	0	0	0	0	0	0	0	0	0	0	6	5
121712	09:29:02	10015	corsiblockFrRev	recallseqFrRev	10	5	433	0	120	09:29:02	1618570	5	0	0	0	0	0	0	0	0	0	0	0	0	0	0	6	5
121712	09:29:02	10015	corsiblockFrRev	recallseqFrRev	10	doneCorsiFr	690	0	120	09:29:02	1619316	5	0	0	0	0	0	0	0	0	0	0	0	0	0	0	6	6
121712	09:29:02	10015	corsiblockFrRev	recallseqFrRev	10	1	351	0	120	09:29:02	1628779	5	0	0	0	0	0	0	0	0	0	0	0	0	0	0	6	6
121712	09:29:02	10015	corsiblockFrRev	recallseqFrRev	10	7	464	0	120	09:29:02	1629299	5	0	0	0	0	0	0	0	0	0	0	0	0	0	0	6	6
121712	09:29:02	10015	corsiblockFrRev	recallseqFrRev	10	8	400	0	120	09:29:02	1629752	5	0	0	0	0	0	0	0	0	0	0	0	0	0	0	6	6
121712	09:29:02	10015	corsiblockFrRev	recallseqFrRev	10	6	891	0	120	09:29:02	1630699	5	0	0	0	0	0	0	0	0	0	0	0	0	0	0	6	6
121712	09:29:02	10015	corsiblockFrRev	recallseqFrRev	10	9	769	0	120	09:29:02	1631512	5	0	0	0	0	0	0	0	0	0	0	0	0	0	0	6	6
121712	09:29:02	10015	corsiblockFrRev	recallseqFrRev	10	6	1459	0	120	09:29:02	1633018	5	0	0	0	0	0	0	0	0	0	0	0	0	0	0	6	6
121712	09:29:02	10015	corsiblockFrRev	recallseqFrRev	10	3	386	0	120	09:29:02	1633458	5	0	0	0	0	0	0	0	0	0	0	0	0	0	0	6	6
121712	09:29:02	10015	corsiblockFrRev	recallseqFrRev	10	doneCorsiFr	674	0	120	09:29:02	1634177	5	0	0	0	0	0	0	0	0	0	0	0	0	0	0	6	6
121712	09:29:02	10015	corsiblockFrRev	recallseqFrRev	10	7	502	0	120	09:29:02	1644760	5	0	0	0	0	0	0	0	0	0	0	0	0	0	0	6	6
121712	09:29:02	10015	corsiblockFrRev	recallseqFrRev	10	5	635	0	120	09:29:02	1645440	5	0	0	0	0	0	0	0	0	0	0	0	0	0	0	6	6
121712	09:29:02	10015	corsiblockFrRev	recallseqFrRev	10	3	556	0	120	09:29:02	1646039	5	0	0	0	0	0	0	0	0	0	0	0	0	0	0	6	6
121712	09:29:02	10015	corsiblockFrRev	recallseqFrRev	10	5	476	0	120	09:29:02	1646572	5	0	0	0	0	0	0	0	0	0	0	0	0	0	0	6	6
121712	09:29:02	10015	corsiblockFrRev	recallseqFrRev	10	4	870	0	120	09:29:02	1647492	5	0	0	0	0	0	0	0	0	0	0	0	0	0	0	6	6
121712	09:29:02	10015	corsiblockFrRev	recallseqFrRev	10	2	1551	0	120	09:29:02	1649091	5	0	0	0	0	0	0	0	0	0	0	0	0	0	0	6	6
121712	09:29:02	10015	corsiblockFrRev	recallseqFrRev	10	8	512	0	120	09:29:02	1649651	5	0	0	0	0	0	0	0	0	0	0	0	0	0	0	6	6
121712	09:29:02	10015	corsiblockFrRev	recallseqFrRev	10	doneCorsiFr	768	0	120	09:29:02	1650464	5	0	0	0	0	0	0	0	0	0	0	0	0	0	0	6	6
121712	09:29:02	10015	testFr6mo	WordsFr6mo	11	1Fr6mo	668	0	120	09:29:02	1668790	5	3	0	0	0	0	0	0	0	0	0	0	0	0	0	6	6
121712	09:29:02	10015	testFr6mo	WordsFr6mo	11	2Fr6mo	253	0	120	09:29:02	1669097	5	3	3	0	0	0	0	0	0	0	0	0	0	0	0	6	6
121712	09:29:02	10015	testFr6mo	WordsFr6mo	11	3Fr6mo	442	0	120	09:29:02	1669590	5	3	3	3	0	0	0	0	0	0	0	0	0	0	0	6	6
121712	09:29:02	10015	testFr6mo	WordsFr6mo	11	4Fr6mo	342	0	120	09:29:02	1669977	5	3	3	3	3	0	0	0	0	0	0	0	0	0	0	6	6
121712	09:29:02	10015	testFr6mo	WordsFr6mo	11	5Fr6mo	459	0	120	09:29:02	1670483	5	3	3	3	3	3	0	0	0	0	0	0	0	0	0	6	6
121712	09:29:02	10015	testFr6mo	WordsFr6mo	11	6Fr6mo	352	0	120	09:29:02	1670883	5	3	3	3	3	3	3	0	0	0	0	0	0	0	0	6	6
121712	09:29:02	10015	testFr6mo	WordsFr6mo	11	7Fr6mo	2657	0	120	09:29:02	1673589	5	3	3	3	3	3	3	3	0	0	0	0	0	0	0	6	6
121712	09:29:02	10015	testFr6mo	WordsFr6mo	11	DoneFr6mo	12663	0	120	09:29:02	1686304	5	3	3	3	3	3	3	3	0	0	0	0	0	0	0	6	6
121712	09:29:02	10015	testFr6mo	Cat8Fr6mo	11	R8Fr6mo	3460	0	120	09:29:02	1689808	5	3	3	3	3	3	3	3	2	0	0	0	0	0	0	6	6
121712	09:29:02	10015	DigitSpanFwrdFr6mo	Score1FwrdFr6mo	12	DS1	3590	0	120	09:29:02	1708788	5	3	3	3	3	3	3	3	2	0	0	0	0	0	0	6	6
121712	09:29:02	10015	DigitSpanFwrdFr6mo	Gate1FwrdFr6mo	12	0	1	0	120	09:29:02	1708792	5	3	3	3	3	3	3	3	2	3	0	0	0	0	0	6	6
121712	09:29:02	10015	DigitSpanFwrdFr6mo	Score2FwrdFr6mo	12	DS1	3456	0	120	09:29:02	1718557	5	3	3	3	3	3	3	3	2	3	0	0	0	0	0	6	6
121712	09:29:02	10015	DigitSpanFwrdFr6mo	Gate3FwrdFr6mo	12	0	1	0	120	09:29:02	1718562	5	3	3	3	3	3	3	3	2	4	0	0	0	0	0	6	6
121712	09:29:02	10015	DigitSpanFwrdFr6mo	Score3FwrdFr6mo	12	DS1	2953	0	120	09:29:02	1728753	5	3	3	3	3	3	3	3	2	4	0	0	0	0	0	6	6
121712	09:29:02	10015	DigitSpanFwrdFr6mo	Gate5FwrdFr6mo	12	0	1	0	120	09:29:02	1728757	5	3	3	3	3	3	3	3	2	5	0	0	0	0	0	6	6
121712	09:29:02	10015	DigitSpanFwrdFr6mo	Score4FwrdFr6mo	12	DS1	3498	0	120	09:29:02	1740762	5	3	3	3	3	3	3	3	2	5	0	0	0	0	0	6	6
121712	09:29:02	10015	DigitSpanFwrdFr6mo	Gate7FwrdFr6mo	12	0	1	0	120	09:29:02	1740766	5	3	3	3	3	3	3	3	2	6	0	0	0	0	0	6	6
121712	09:29:02	10015	DigitSpanFwrdFr6mo	Score5FwrdFr6mo	12	DS1	4347	0	120	09:29:02	1755063	5	3	3	3	3	3	3	3	2	6	0	0	0	0	0	6	6
121712	09:29:02	10015	DigitSpanFwrdFr6mo	Gate9FwrdFr6mo	12	0	1	0	120	09:29:02	1755067	5	3	3	3	3	3	3	3	2	7	0	0	0	0	0	6	6
121712	09:29:02	10015	DigitSpanFwrdFr6mo	Score6FwrdFr6mo	12	DS2	8878	0	120	09:29:02	1775055	5	3	3	3	3	3	3	3	2	7	0	0	0	0	0	6	6
121712	09:29:02	10015	DigitSpanFwrdFr6mo	Gate11FwrdFr6mo	12	0	1	0	120	09:29:02	1775059	5	3	3	3	3	3	3	3	2	7	0	0	0	0	0	6	6
121712	09:29:02	10015	DigitSpanFwrdFr6mo	Score66FwrdFr6mo	12	DS1	5528	0	120	09:29:02	1791542	5	3	3	3	3	3	3	3	2	8	0	0	0	0	0	6	6
121712	09:29:02	10015	DigitSpanFr6mo	Score1Fr6mo	13	DS1	2421	0	120	09:29:02	1807056	5	3	3	3	3	3	3	3	2	8	0	0	0	0	0	6	6
121712	09:29:02	10015	DigitSpanFr6mo	Gate1Fr6mo	13	0	1	0	120	09:29:02	1807062	5	3	3	3	3	3	3	3	2	8	2	0	0	0	0	6	6
121712	09:29:02	10015	DigitSpanFr6mo	Score2Fr6mo	13	DS1	2597	0	120	09:29:02	1814213	5	3	3	3	3	3	3	3	2	8	2	0	0	0	0	6	6
121712	09:29:02	10015	DigitSpanFr6mo	Gate3Fr6mo	13	0	1	0	120	09:29:02	1814218	5	3	3	3	3	3	3	3	2	8	3	0	0	0	0	6	6
121712	09:29:02	10015	DigitSpanFr6mo	Score3Fr6mo	13	DS1	3978	0	120	09:29:02	1823889	5	3	3	3	3	3	3	3	2	8	3	0	0	0	0	6	6
121712	09:29:02	10015	DigitSpanFr6mo	Gate5Fr6mo	13	0	1	0	120	09:29:02	1823893	5	3	3	3	3	3	3	3	2	8	4	0	0	0	0	6	6
121712	09:29:02	10015	DigitSpanFr6mo	Score4Fr6mo	13	DS1	4790	0	120	09:29:02	1835617	5	3	3	3	3	3	3	3	2	8	4	0	0	0	0	6	6
121712	09:29:02	10015	DigitSpanFr6mo	Gate7Fr6mo	13	0	1	0	120	09:29:02	1835622	5	3	3	3	3	3	3	3	2	8	5	0	0	0	0	6	6
121712	09:29:02	10015	DigitSpanFr6mo	Score5Fr6mo	13	DS1	4737	0	120	09:29:02	1848826	5	3	3	3	3	3	3	3	2	8	5	0	0	0	0	6	6
121712	09:29:02	10015	DigitSpanFr6mo	Gate9Fr6mo	13	0	1	0	120	09:29:02	1848830	5	3	3	3	3	3	3	3	2	8	6	0	0	0	0	6	6
121712	09:29:02	10015	DigitSpanFr6mo	Score6Fr6mo	13	DS2	10308	0	120	09:29:02	1868898	5	3	3	3	3	3	3	3	2	8	6	0	0	0	0	6	6
121712	09:29:02	10015	DigitSpanFr6mo	Gate11Fr6mo	13	0	1	0	120	09:29:02	1868902	5	3	3	3	3	3	3	3	2	8	6	0	0	0	0	6	6
121712	09:29:02	10015	DigitSpanFr6mo	Score66Fr6mo	13	DS1	6302	0	120	09:29:02	1884785	5	3	3	3	3	3	3	3	2	8	7	0	0	0	0	6	6
121712	09:29:02	10015	Trial	ResponseIL	14	0	175	0	120	09:29:02	1934618	5	3	3	3	3	3	3	3	2	8	7	0	0	0	0	6	6
121712	09:29:02	10015	Trial	IncongruentLeft	14	203	395	1	120	09:29:02	1935032	5	3	3	3	3	3	3	3	2	8	7	0	0	0	0	6	6
121712	09:29:02	10015	Trial	ResponseCR	14	0	175	0	120	09:29:02	1936324	5	3	3	3	3	3	3	3	2	8	7	0	0	0	0	6	6
121712	09:29:02	10015	Trial	CongruentRight	14	205	209	1	120	09:29:02	1936551	5	3	3	3	3	3	3	3	2	8	7	0	0	0	0	6	6
121712	09:29:02	10015	Trial	ResponseIR	14	0	175	0	120	09:29:02	1938030	5	3	3	3	3	3	3	3	2	8	7	0	0	0	0	6	6
121712	09:29:02	10015	Trial	IncongruentRight	14	205	328	1	120	09:29:02	1938377	5	3	3	3	3	3	3	3	2	8	7	0	0	0	0	6	6
121712	09:29:02	10015	Trial	ResponseCL	14	0	175	0	120	09:29:02	1939737	5	3	3	3	3	3	3	3	2	8	7	0	0	0	0	6	6
121712	09:29:02	10015	Trial	CongruentLeft	14	203	269	1	120	09:29:02	1940030	5	3	3	3	3	3	3	3	2	8	7	0	0	0	0	6	6
121712	09:29:02	10015	Trial	ResponseCR	14	0	175	0	120	09:29:02	1941442	5	3	3	3	3	3	3	3	2	8	7	0	0	0	0	6	6
121712	09:29:02	10015	Trial	CongruentRight	14	205	226	1	120	09:29:02	1941695	5	3	3	3	3	3	3	3	2	8	7	0	0	0	0	6	6
121712	09:29:02	10015	Trial	ResponseIR	14	0	175	0	120	09:29:02	1943148	5	3	3	3	3	3	3	3	2	8	7	0	0	0	0	6	6
121712	09:29:02	10015	Trial	IncongruentRight	14	205	281	1	120	09:29:02	1943455	5	3	3	3	3	3	3	3	2	8	7	0	0	0	0	6	6
121712	09:29:02	10015	Trial	ResponseCL	14	0	175	0	120	09:29:02	1944854	5	3	3	3	3	3	3	3	2	8	7	0	0	0	0	6	6
121712	09:29:02	10015	Trial	CongruentLeft	14	203	271	1	120	09:29:02	1945147	5	3	3	3	3	3	3	3	2	8	7	0	0	0	0	6	6
121712	09:29:02	10015	Trial	ResponseIL	14	0	175	0	120	09:29:02	1946560	5	3	3	3	3	3	3	3	2	8	7	0	0	0	0	6	6
121712	09:29:02	10015	Trial	IncongruentLeft	14	203	341	1	120	09:29:02	1946920	5	3	3	3	3	3	3	3	2	8	7	0	0	0	0	6	6
121712	09:29:02	10015	Trial	ResponseIL	14	0	175	0	120	09:29:02	1948267	5	3	3	3	3	3	3	3	2	8	7	0	0	0	0	6	6
121712	09:29:02	10015	Trial	IncongruentLeft	14	203	299	1	120	09:29:02	1948586	5	3	3	3	3	3	3	3	2	8	7	0	0	0	0	6	6
121712	09:29:02	10015	Trial	ResponseCR	14	0	175	0	120	09:29:02	1949972	5	3	3	3	3	3	3	3	2	8	7	0	0	0	0	6	6
121712	09:29:02	10015	Trial	CongruentRight	14	205	225	1	120	09:29:02	1950225	5	3	3	3	3	3	3	3	2	8	7	0	0	0	0	6	6
121712	09:29:02	10015	Trial	ResponseIR	14	0	175	0	120	09:29:02	1951678	5	3	3	3	3	3	3	3	2	8	7	0	0	0	0	6	6
121712	09:29:02	10015	Trial	IncongruentRight	14	205	327	1	120	09:29:02	1952025	5	3	3	3	3	3	3	3	2	8	7	0	0	0	0	6	6
121712	09:29:02	10015	Trial	ResponseCL	14	0	175	0	120	09:29:02	1953384	5	3	3	3	3	3	3	3	2	8	7	0	0	0	0	6	6
121712	09:29:02	10015	Trial	CongruentLeft	14	203	269	1	120	09:29:02	1953678	5	3	3	3	3	3	3	3	2	8	7	0	0	0	0	6	6
121712	09:29:02	10015	Trial	ResponseCR	14	0	175	0	120	09:29:02	1955090	5	3	3	3	3	3	3	3	2	8	7	0	0	0	0	6	6
121712	09:29:02	10015	Trial	CongruentRight	14	205	259	1	120	09:29:02	1955370	5	3	3	3	3	3	3	3	2	8	7	0	0	0	0	6	6
121712	09:29:02	10015	Trial	ResponseIL	14	0	175	0	120	09:29:02	1956796	5	3	3	3	3	3	3	3	2	8	7	0	0	0	0	6	6
121712	09:29:02	10015	Trial	IncongruentLeft	14	203	329	1	120	09:29:02	1957143	5	3	3	3	3	3	3	3	2	8	7	0	0	0	0	6	6
121712	09:29:02	10015	Trial	ResponseIR	14	0	175	0	120	09:29:02	1958502	5	3	3	3	3	3	3	3	2	8	7	0	0	0	0	6	6
121712	09:29:02	10015	Trial	IncongruentRight	14	205	255	1	120	09:29:02	1958782	5	3	3	3	3	3	3	3	2	8	7	0	0	0	0	6	6
121712	09:29:02	10015	Trial	ResponseCR	14	0	175	0	120	09:29:02	1960208	5	3	3	3	3	3	3	3	2	8	7	0	0	0	0	6	6
121712	09:29:02	10015	Trial	CongruentRight	14	205	229	1	120	09:29:02	1960461	5	3	3	3	3	3	3	3	2	8	7	0	0	0	0	6	6
121712	09:29:02	10015	Trial	ResponseCL	14	0	175	0	120	09:29:02	1961914	5	3	3	3	3	3	3	3	2	8	7	0	0	0	0	6	6
121712	09:29:02	10015	Trial	CongruentLeft	14	203	219	1	120	09:29:02	1962154	5	3	3	3	3	3	3	3	2	8	7	0	0	0	0	6	6
121712	09:29:02	10015	Trial	ResponseCR	14	0	175	0	120	09:29:02	1963620	5	3	3	3	3	3	3	3	2	8	7	0	0	0	0	6	6
121712	09:29:02	10015	Trial	CongruentRight	14	205	161	1	120	09:29:02	1963807	5	3	3	3	3	3	3	3	2	8	7	0	0	0	0	6	6
121712	09:29:02	10015	Trial	ResponseIR	14	0	175	0	120	09:29:02	1965327	5	3	3	3	3	3	3	3	2	8	7	0	0	0	0	6	6
121712	09:29:02	10015	Trial	IncongruentRight	14	205	295	1	120	09:29:02	1965646	5	3	3	3	3	3	3	3	2	8	7	0	0	0	0	6	6
121712	09:29:02	10015	Trial	ResponseIL	14	0	175	0	120	09:29:02	1967032	5	3	3	3	3	3	3	3	2	8	7	0	0	0	0	6	6
121712	09:29:02	10015	Trial	IncongruentLeft	14	203	301	1	120	09:29:02	1967352	5	3	3	3	3	3	3	3	2	8	7	0	0	0	0	6	6
121712	09:29:02	10015	Trial	ResponseIL	14	0	175	0	120	09:29:02	1968738	5	3	3	3	3	3	3	3	2	8	7	0	0	0	0	6	6
121712	09:29:02	10015	Trial	IncongruentLeft	14	203	307	1	120	09:29:02	1969072	5	3	3	3	3	3	3	3	2	8	7	0	0	0	0	6	6
121712	09:29:02	10015	Trial	ResponseCL	14	0	175	0	120	09:29:02	1970444	5	3	3	3	3	3	3	3	2	8	7	0	0	0	0	6	6
121712	09:29:02	10015	Trial	CongruentLeft	14	203	248	1	120	09:29:02	1970711	5	3	3	3	3	3	3	3	2	8	7	0	0	0	0	6	6
121712	09:29:02	10015	Trial	ResponseCR	14	0	175	0	120	09:29:02	1972150	5	3	3	3	3	3	3	3	2	8	7	0	0	0	0	6	6
121712	09:29:02	10015	Trial	CongruentRight	14	205	191	1	120	09:29:02	1972363	5	3	3	3	3	3	3	3	2	8	7	0	0	0	0	6	6
121712	09:29:02	10015	Trial	ResponseIL	14	0	175	0	120	09:29:02	1973856	5	3	3	3	3	3	3	3	2	8	7	0	0	0	0	6	6
121712	09:29:02	10015	Trial	IncongruentLeft	14	203	277	1	120	09:29:02	1974149	5	3	3	3	3	3	3	3	2	8	7	0	0	0	0	6	6
121712	09:29:02	10015	Trial	ResponseIR	14	0	175	0	120	09:29:02	1975562	5	3	3	3	3	3	3	3	2	8	7	0	0	0	0	6	6
121712	09:29:02	10015	Trial	IncongruentRight	14	205	267	1	120	09:29:02	1975856	5	3	3	3	3	3	3	3	2	8	7	0	0	0	0	6	6
121712	09:29:02	10015	Trial	ResponseCR	14	0	175	0	120	09:29:02	1977268	5	3	3	3	3	3	3	3	2	8	7	0	0	0	0	6	6
121712	09:29:02	10015	Trial	CongruentRight	14	205	208	1	120	09:29:02	1977495	5	3	3	3	3	3	3	3	2	8	7	0	0	0	0	6	6
121712	09:29:02	10015	Trial	ResponseCL	14	0	175	0	120	09:29:02	1978974	5	3	3	3	3	3	3	3	2	8	7	0	0	0	0	6	6
121712	09:29:02	10015	Trial	CongruentLeft	14	203	215	1	120	09:29:02	1979214	5	3	3	3	3	3	3	3	2	8	7	0	0	0	0	6	6
121712	09:29:02	10015	Trial	ResponseIR	14	0	175	0	120	09:29:02	1980680	5	3	3	3	3	3	3	3	2	8	7	0	0	0	0	6	6
121712	09:29:02	10015	Trial	IncongruentRight	14	205	173	1	120	09:29:02	1980880	5	3	3	3	3	3	3	3	2	8	7	0	0	0	0	6	6
121712	09:29:02	10015	Trial	ResponseIL	14	0	175	0	120	09:29:02	1982386	5	3	3	3	3	3	3	3	2	8	7	0	0	0	0	6	6
121712	09:29:02	10015	Trial	IncongruentLeft	14	203	195	1	120	09:29:02	1982599	5	3	3	3	3	3	3	3	2	8	7	0	0	0	0	6	6
121712	09:29:02	10015	Trial	ResponseIR	14	0	175	0	120	09:29:02	1984092	5	3	3	3	3	3	3	3	2	8	7	0	0	0	0	6	6
121712	09:29:02	10015	Trial	IncongruentRight	14	205	281	1	120	09:29:02	1984399	5	3	3	3	3	3	3	3	2	8	7	0	0	0	0	6	6
121712	09:29:02	10015	Trial	ResponseCR	14	0	175	0	120	09:29:02	1985798	5	3	3	3	3	3	3	3	2	8	7	0	0	0	0	6	6
121712	09:29:02	10015	Trial	CongruentRight	14	205	207	1	120	09:29:02	1986025	5	3	3	3	3	3	3	3	2	8	7	0	0	0	0	6	6
121712	09:29:02	10015	Trial	ResponseIL	14	0	175	0	120	09:29:02	1987504	5	3	3	3	3	3	3	3	2	8	7	0	0	0	0	6	6
121712	09:29:02	10015	Trial	IncongruentLeft	14	203	293	1	120	09:29:02	1987824	5	3	3	3	3	3	3	3	2	8	7	0	0	0	0	6	6
121712	09:29:02	10015	Trial	ResponseCL	14	0	175	0	120	09:29:02	1989210	5	3	3	3	3	3	3	3	2	8	7	0	0	0	0	6	6
121712	09:29:02	10015	Trial	CongruentLeft	14	203	219	1	120	09:29:02	1989450	5	3	3	3	3	3	3	3	2	8	7	0	0	0	0	6	6
121712	09:29:02	10015	Trial	ResponseCR	14	0	175	0	120	09:29:02	1990916	5	3	3	3	3	3	3	3	2	8	7	0	0	0	0	6	6
121712	09:29:02	10015	Trial	CongruentRight	14	205	177	1	120	09:29:02	1991116	5	3	3	3	3	3	3	3	2	8	7	0	0	0	0	6	6
121712	09:29:02	10015	Trial	ResponseIL	14	0	175	0	120	09:29:02	1992622	5	3	3	3	3	3	3	3	2	8	7	0	0	0	0	6	6
121712	09:29:02	10015	Trial	IncongruentLeft	14	203	214	1	120	09:29:02	1992862	5	3	3	3	3	3	3	3	2	8	7	0	0	0	0	6	6
121712	09:29:02	10015	Trial	ResponseIR	14	0	175	0	120	09:29:02	1994328	5	3	3	3	3	3	3	3	2	8	7	0	0	0	0	6	6
121712	09:29:02	10015	Trial	IncongruentRight	14	205	253	1	120	09:29:02	1994608	5	3	3	3	3	3	3	3	2	8	7	0	0	0	0	6	6
121712	09:29:02	10015	Trial	ResponseIR	14	0	175	0	120	09:29:02	1996034	5	3	3	3	3	3	3	3	2	8	7	0	0	0	0	6	6
121712	09:29:02	10015	Trial	IncongruentRight	14	205	339	1	120	09:29:02	1996394	5	3	3	3	3	3	3	3	2	8	7	0	0	0	0	6	6
121712	09:29:02	10015	Trial	ResponseCL	14	0	175	0	120	09:29:02	1997740	5	3	3	3	3	3	3	3	2	8	7	0	0	0	0	6	6
121712	09:29:02	10015	Trial	CongruentLeft	14	203	201	1	120	09:29:02	1997967	5	3	3	3	3	3	3	3	2	8	7	0	0	0	0	6	6
121712	09:29:02	10015	Trial	ResponseIL	14	0	175	0	120	09:29:02	1999446	5	3	3	3	3	3	3	3	2	8	7	0	0	0	0	6	6
121712	09:29:02	10015	Trial	IncongruentLeft	14	203	334	1	120	09:29:02	1999806	5	3	3	3	3	3	3	3	2	8	7	0	0	0	0	6	6
121712	09:29:02	10015	Trial	ResponseCR	14	0	175	0	120	09:29:02	2001152	5	3	3	3	3	3	3	3	2	8	7	0	0	0	0	6	6
121712	09:29:02	10015	Trial	CongruentRight	14	205	196	1	120	09:29:02	2001365	5	3	3	3	3	3	3	3	2	8	7	0	0	0	0	6	6
121712	09:29:02	10015	Trial	ResponseCL	14	0	175	0	120	09:29:02	2002858	5	3	3	3	3	3	3	3	2	8	7	0	0	0	0	6	6
121712	09:29:02	10015	Trial	CongruentLeft	14	203	218	1	120	09:29:02	2003098	5	3	3	3	3	3	3	3	2	8	7	0	0	0	0	6	6
121712	09:29:02	10015	Trial	ResponseIR	14	0	175	0	120	09:29:02	2004564	5	3	3	3	3	3	3	3	2	8	7	0	0	0	0	6	6
121712	09:29:02	10015	Trial	IncongruentRight	14	205	193	1	120	09:29:02	2004778	5	3	3	3	3	3	3	3	2	8	7	0	0	0	0	6	6
121712	09:29:02	10015	Trial	ResponseCR	14	0	175	0	120	09:29:02	2006270	5	3	3	3	3	3	3	3	2	8	7	0	0	0	0	6	6
121712	09:29:02	10015	Trial	CongruentRight	14	205	230	1	120	09:29:02	2006523	5	3	3	3	3	3	3	3	2	8	7	0	0	0	0	6	6
121712	09:29:02	10015	Trial	ResponseIL	14	0	175	0	120	09:29:02	2007976	5	3	3	3	3	3	3	3	2	8	7	0	0	0	0	6	6
121712	09:29:02	10015	Trial	IncongruentLeft	14	203	188	1	120	09:29:02	2008190	5	3	3	3	3	3	3	3	2	8	7	0	0	0	0	6	6
121712	09:29:02	10015	Trial	ResponseCL	14	0	175	0	120	09:29:02	2009682	5	3	3	3	3	3	3	3	2	8	7	0	0	0	0	6	6
121712	09:29:02	10015	Trial	CongruentLeft	14	203	242	1	120	09:29:02	2009949	5	3	3	3	3	3	3	3	2	8	7	0	0	0	0	6	6
121712	09:29:02	10015	Trial	ResponseIL	14	0	175	0	120	09:29:02	2011388	5	3	3	3	3	3	3	3	2	8	7	0	0	0	0	6	6
121712	09:29:02	10015	Trial	IncongruentLeft	14	203	297	1	120	09:29:02	2011708	5	3	3	3	3	3	3	3	2	8	7	0	0	0	0	6	6
121712	09:29:02	10015	Trial	ResponseIR	14	0	175	0	120	09:29:02	2013094	5	3	3	3	3	3	3	3	2	8	7	0	0	0	0	6	6
121712	09:29:02	10015	Trial	IncongruentRight	14	205	303	1	120	09:29:02	2013414	5	3	3	3	3	3	3	3	2	8	7	0	0	0	0	6	6
121712	09:29:02	10015	Trial	ResponseCR	14	0	175	0	120	09:29:02	2014800	5	3	3	3	3	3	3	3	2	8	7	0	0	0	0	6	6
121712	09:29:02	10015	Trial	CongruentRight	14	205	164	1	120	09:29:02	2014987	5	3	3	3	3	3	3	3	2	8	7	0	0	0	0	6	6
121712	09:29:02	10015	Trial	ResponseCL	14	0	175	0	120	09:29:02	2016506	5	3	3	3	3	3	3	3	2	8	7	0	0	0	0	6	6
121712	09:29:02	10015	Trial	CongruentLeft	14	203	234	1	120	09:29:02	2016760	5	3	3	3	3	3	3	3	2	8	7	0	0	0	0	6	6
121712	09:29:02	10015	Trial	ResponseCL	14	0	175	0	120	09:29:02	2018213	5	3	3	3	3	3	3	3	2	8	7	0	0	0	0	6	6
121712	09:29:02	10015	Trial	CongruentLeft	14	203	224	1	120	09:29:02	2018465	5	3	3	3	3	3	3	3	2	8	7	0	0	0	0	6	6
121712	09:29:02	10015	Trial	ResponseIR	14	0	175	0	120	09:29:02	2019918	5	3	3	3	3	3	3	3	2	8	7	0	0	0	0	6	6
121712	09:29:02	10015	Trial	IncongruentRight	14	205	294	1	120	09:29:02	2020238	5	3	3	3	3	3	3	3	2	8	7	0	0	0	0	6	6
121712	09:29:02	10015	Trial	ResponseIL	14	0	175	0	120	09:29:02	2021624	5	3	3	3	3	3	3	3	2	8	7	0	0	0	0	6	6
121712	09:29:02	10015	Trial	IncongruentLeft	14	203	300	1	120	09:29:02	2021944	5	3	3	3	3	3	3	3	2	8	7	0	0	0	0	6	6
121712	09:29:02	10015	Trial	ResponseIR	14	0	175	0	120	09:29:02	2023330	5	3	3	3	3	3	3	3	2	8	7	0	0	0	0	6	6
121712	09:29:02	10015	Trial	IncongruentRight	14	205	274	1	120	09:29:02	2023623	5	3	3	3	3	3	3	3	2	8	7	0	0	0	0	6	6
121712	09:29:02	10015	Trial	ResponseCR	14	0	175	0	120	09:29:02	2025036	5	3	3	3	3	3	3	3	2	8	7	0	0	0	0	6	6
121712	09:29:02	10015	Trial	CongruentRight	14	205	216	1	120	09:29:02	2025276	5	3	3	3	3	3	3	3	2	8	7	0	0	0	0	6	6
121712	09:29:02	10015	Trial	ResponseCR	14	0	175	0	120	09:29:02	2026742	5	3	3	3	3	3	3	3	2	8	7	0	0	0	0	6	6
121712	09:29:02	10015	Trial	CongruentRight	14	205	222	1	120	09:29:02	2026982	5	3	3	3	3	3	3	3	2	8	7	0	0	0	0	6	6
121712	09:29:02	10015	Trial	ResponseIL	14	0	175	0	120	09:29:02	2028448	5	3	3	3	3	3	3	3	2	8	7	0	0	0	0	6	6
121712	09:29:02	10015	Trial	IncongruentLeft	14	203	228	1	120	09:29:02	2028701	5	3	3	3	3	3	3	3	2	8	7	0	0	0	0	6	6
121712	09:29:02	10015	Trial	ResponseCL	14	0	175	0	120	09:29:02	2030154	5	3	3	3	3	3	3	3	2	8	7	0	0	0	0	6	6
121712	09:29:02	10015	Trial	CongruentLeft	14	203	218	1	120	09:29:02	2030394	5	3	3	3	3	3	3	3	2	8	7	0	0	0	0	6	6
121712	09:29:02	10015	Trial	ResponseCR	14	0	175	0	120	09:29:02	2031860	5	3	3	3	3	3	3	3	2	8	7	0	0	0	0	6	6
121712	09:29:02	10015	Trial	CongruentRight	14	205	304	1	120	09:29:02	2032193	5	3	3	3	3	3	3	3	2	8	7	0	0	0	0	6	6
121712	09:29:02	10015	Trial	ResponseCL	14	0	175	0	120	09:29:02	2033566	5	3	3	3	3	3	3	3	2	8	7	0	0	0	0	6	6
121712	09:29:02	10015	Trial	CongruentLeft	14	203	246	1	120	09:29:02	2033833	5	3	3	3	3	3	3	3	2	8	7	0	0	0	0	6	6
121712	09:29:02	10015	Trial	ResponseIR	14	0	175	0	120	09:29:02	2035272	5	3	3	3	3	3	3	3	2	8	7	0	0	0	0	6	6
121712	09:29:02	10015	Trial	IncongruentRight	14	205	300	1	120	09:29:02	2035592	5	3	3	3	3	3	3	3	2	8	7	0	0	0	0	6	6
121712	09:29:02	10015	Trial	ResponseCR	14	0	175	0	120	09:29:02	2036978	5	3	3	3	3	3	3	3	2	8	7	0	0	0	0	6	6
121712	09:29:02	10015	Trial	CongruentRight	14	205	226	1	120	09:29:02	2037231	5	3	3	3	3	3	3	3	2	8	7	0	0	0	0	6	6
121712	09:29:02	10015	Trial	ResponseCL	14	0	175	0	120	09:29:02	2038684	5	3	3	3	3	3	3	3	2	8	7	0	0	0	0	6	6
121712	09:29:02	10015	Trial	CongruentLeft	14	203	200	1	120	09:29:02	2038911	5	3	3	3	3	3	3	3	2	8	7	0	0	0	0	6	6
121712	09:29:02	10015	Trial	ResponseIL	14	0	175	0	120	09:29:02	2040390	5	3	3	3	3	3	3	3	2	8	7	0	0	0	0	6	6
121712	09:29:02	10015	Trial	IncongruentLeft	14	203	334	1	120	09:29:02	2040750	5	3	3	3	3	3	3	3	2	8	7	0	0	0	0	6	6
121712	09:29:02	10015	Trial	ResponseIL	14	0	175	0	120	09:29:02	2042096	5	3	3	3	3	3	3	3	2	8	7	0	0	0	0	6	6
121712	09:29:02	10015	Trial	IncongruentLeft	14	203	308	1	120	09:29:02	2042429	5	3	3	3	3	3	3	3	2	8	7	0	0	0	0	6	6
121712	09:29:02	10015	Trial	ResponseCR	14	0	175	0	120	09:29:02	2043802	5	3	3	3	3	3	3	3	2	8	7	0	0	0	0	6	6
121712	09:29:02	10015	Trial	CongruentRight	14	205	314	1	120	09:29:02	2044135	5	3	3	3	3	3	3	3	2	8	7	0	0	0	0	6	6
121712	09:29:02	10015	Trial	ResponseIR	14	0	175	0	120	09:29:02	2045508	5	3	3	3	3	3	3	3	2	8	7	0	0	0	0	6	6
121712	09:29:02	10015	Trial	IncongruentRight	14	205	288	1	120	09:29:02	2045815	5	3	3	3	3	3	3	3	2	8	7	0	0	0	0	6	6
121712	09:29:02	10015	Trial	ResponseCL	14	0	175	0	120	09:29:02	2047214	5	3	3	3	3	3	3	3	2	8	7	0	0	0	0	6	6
121712	09:29:02	10015	Trial	CongruentLeft	14	203	230	1	120	09:29:02	2047468	5	3	3	3	3	3	3	3	2	8	7	0	0	0	0	6	6
121712	09:29:02	10015	Trial	ResponseIR	14	0	175	0	120	09:29:02	2048920	5	3	3	3	3	3	3	3	2	8	7	0	0	0	0	6	6
121712	09:29:02	10015	Trial	IncongruentRight	14	205	252	1	120	09:29:02	2049200	5	3	3	3	3	3	3	3	2	8	7	0	0	0	0	6	6
121712	09:29:02	10015	Trial	ResponseCR	14	0	175	0	120	09:29:02	2050626	5	3	3	3	3	3	3	3	2	8	7	0	0	0	0	6	6
121712	09:29:02	10015	Trial	CongruentRight	14	205	210	1	120	09:29:02	2050852	5	3	3	3	3	3	3	3	2	8	7	0	0	0	0	6	6
121712	09:29:02	10015	Trial	ResponseIL	14	0	175	0	120	09:29:02	2052332	5	3	3	3	3	3	3	3	2	8	7	0	0	0	0	6	6
121712	09:29:02	10015	Trial	IncongruentLeft	14	203	280	1	120	09:29:02	2052639	5	3	3	3	3	3	3	3	2	8	7	0	0	0	0	6	6
121712	09:29:02	10015	Trial	ResponseCL	14	0	175	0	120	09:29:02	2054038	5	3	3	3	3	3	3	3	2	8	7	0	0	0	0	6	6
121712	09:29:02	10015	Trial	CongruentLeft	14	203	286	1	120	09:29:02	2054345	5	3	3	3	3	3	3	3	2	8	7	0	0	0	0	6	6
121712	09:29:02	10015	Trial	ResponseCR	14	0	175	0	120	09:29:02	2055744	5	3	3	3	3	3	3	3	2	8	7	0	0	0	0	6	6
121712	09:29:02	10015	Trial	CongruentRight	14	205	180	1	120	09:29:02	2055944	5	3	3	3	3	3	3	3	2	8	7	0	0	0	0	6	6
121712	09:29:02	10015	Trial	ResponseIL	14	0	175	0	120	09:29:02	2057450	5	3	3	3	3	3	3	3	2	8	7	0	0	0	0	6	6
121712	09:29:02	10015	Trial	IncongruentLeft	14	203	282	1	120	09:29:02	2057757	5	3	3	3	3	3	3	3	2	8	7	0	0	0	0	6	6
121712	09:29:02	10015	Trial	ResponseCR	14	0	175	0	120	09:29:02	2059156	5	3	3	3	3	3	3	3	2	8	7	0	0	0	0	6	6
121712	09:29:02	10015	Trial	CongruentRight	14	205	208	1	120	09:29:02	2059382	5	3	3	3	3	3	3	3	2	8	7	0	0	0	0	6	6
121712	09:29:02	10015	Trial	ResponseCR	14	0	175	0	120	09:29:02	2060863	5	3	3	3	3	3	3	3	2	8	7	0	0	0	0	6	6
121712	09:29:02	10015	Trial	CongruentRight	14	205	213	1	120	09:29:02	2061102	5	3	3	3	3	3	3	3	2	8	7	0	0	0	0	6	6
121712	09:29:02	10015	Trial	ResponseIR	14	0	175	0	120	09:29:02	2062568	5	3	3	3	3	3	3	3	2	8	7	0	0	0	0	6	6
121712	09:29:02	10015	Trial	IncongruentRight	14	205	268	1	120	09:29:02	2062861	5	3	3	3	3	3	3	3	2	8	7	0	0	0	0	6	6
121712	09:29:02	10015	Trial	ResponseCL	14	0	175	0	120	09:29:02	2064274	5	3	3	3	3	3	3	3	2	8	7	0	0	0	0	6	6
121712	09:29:02	10015	Trial	CongruentLeft	14	203	322	1	120	09:29:02	2064621	5	3	3	3	3	3	3	3	2	8	7	0	0	0	0	6	6
121712	09:29:02	10015	Trial	ResponseIL	14	0	175	0	120	09:29:02	2065980	5	3	3	3	3	3	3	3	2	8	7	0	0	0	0	6	6
121712	09:29:02	10015	Trial	IncongruentLeft	14	203	312	1	120	09:29:02	2066313	5	3	3	3	3	3	3	3	2	8	7	0	0	0	0	6	6
121712	09:29:02	10015	Trial	ResponseCL	14	0	175	0	120	09:29:02	2067687	5	3	3	3	3	3	3	3	2	8	7	0	0	0	0	6	6
121712	09:29:02	10015	Trial	CongruentLeft	14	203	222	1	120	09:29:02	2067926	5	3	3	3	3	3	3	3	2	8	7	0	0	0	0	6	6
121712	09:29:02	10015	Trial	ResponseIR	14	0	175	0	120	09:29:02	2069392	5	3	3	3	3	3	3	3	2	8	7	0	0	0	0	6	6
121712	09:29:02	10015	Trial	IncongruentRight	14	205	276	1	120	09:29:02	2069685	5	3	3	3	3	3	3	3	2	8	7	0	0	0	0	6	6
121712	09:29:02	10015	Trial	ResponseIL	14	0	175	0	120	09:29:02	2071098	5	3	3	3	3	3	3	3	2	8	7	0	0	0	0	6	6
121712	09:29:02	10015	Trial	IncongruentLeft	14	203	282	1	120	09:29:02	2071405	5	3	3	3	3	3	3	3	2	8	7	0	0	0	0	6	6
121712	09:29:02	10015	Trial	ResponseCR	14	0	175	0	120	09:29:02	2072804	5	3	3	3	3	3	3	3	2	8	7	0	0	0	0	6	6
121712	09:29:02	10015	Trial	CongruentRight	14	205	192	1	120	09:29:02	2073018	5	3	3	3	3	3	3	3	2	8	7	0	0	0	0	6	6
121712	09:29:02	10015	Trial	ResponseCL	14	0	175	0	120	09:29:02	2074510	5	3	3	3	3	3	3	3	2	8	7	0	0	0	0	6	6
121712	09:29:02	10015	Trial	CongruentLeft	14	203	214	1	120	09:29:02	2074750	5	3	3	3	3	3	3	3	2	8	7	0	0	0	0	6	6
121712	09:29:02	10015	Trial	ResponseIL	14	0	175	0	120	09:29:02	2076216	5	3	3	3	3	3	3	3	2	8	7	0	0	0	0	6	6
121712	09:29:02	10015	Trial	IncongruentLeft	14	205	156	0	120	09:29:02	2076390	5	3	3	3	3	3	3	3	2	8	7	0	0	0	0	6	6
121712	09:29:02	10015	Trial	ResponseCL	14	0	175	0	120	09:29:02	2077922	5	3	3	3	3	3	3	3	2	8	7	0	0	0	0	6	6
121712	09:29:02	10015	Trial	CongruentLeft	14	203	290	1	120	09:29:02	2078229	5	3	3	3	3	3	3	3	2	8	7	0	0	0	0	6	6
121712	09:29:02	10015	Trial	ResponseIR	14	0	175	0	120	09:29:02	2079628	5	3	3	3	3	3	3	3	2	8	7	0	0	0	0	6	6
121712	09:29:02	10015	Trial	IncongruentRight	14	205	216	1	120	09:29:02	2079868	5	3	3	3	3	3	3	3	2	8	7	0	0	0	0	6	6
121712	09:29:02	10015	Trial	ResponseCR	14	0	175	0	120	09:29:02	2081334	5	3	3	3	3	3	3	3	2	8	7	0	0	0	0	6	6
121712	09:29:02	10015	Trial	CongruentRight	14	205	222	1	120	09:29:02	2081574	5	3	3	3	3	3	3	3	2	8	7	0	0	0	0	6	6
121712	09:29:02	10015	Trial	ResponseIL	14	0	175	0	120	09:29:02	2083040	5	3	3	3	3	3	3	3	2	8	7	0	0	0	0	6	6
121712	09:29:02	10015	Trial	IncongruentLeft	14	203	260	1	120	09:29:02	2083320	5	3	3	3	3	3	3	3	2	8	7	0	0	0	0	6	6
121712	09:29:02	10015	Trial	ResponseCL	14	0	175	0	120	09:29:02	2084746	5	3	3	3	3	3	3	3	2	8	7	0	0	0	0	6	6
121712	09:29:02	10015	Trial	CongruentLeft	14	203	282	1	120	09:29:02	2085053	5	3	3	3	3	3	3	3	2	8	7	0	0	0	0	6	6
121712	09:29:02	10015	Trial	ResponseIR	14	0	175	0	120	09:29:02	2086452	5	3	3	3	3	3	3	3	2	8	7	0	0	0	0	6	6
121712	09:29:02	10015	Trial	IncongruentRight	14	205	256	1	120	09:29:02	2086732	5	3	3	3	3	3	3	3	2	8	7	0	0	0	0	6	6
121712	09:29:02	10015	Trial	ResponseIL	14	0	175	0	120	09:29:02	2088158	5	3	3	3	3	3	3	3	2	8	7	0	0	0	0	6	6
121712	09:29:02	10015	Trial	IncongruentLeft	14	203	277	1	120	09:29:02	2088465	5	3	3	3	3	3	3	3	2	8	7	0	0	0	0	6	6
121712	09:29:02	10015	Trial	ResponseCL	14	0	175	0	120	09:29:02	2089864	5	3	3	3	3	3	3	3	2	8	7	0	0	0	0	6	6
121712	09:29:02	10015	Trial	CongruentLeft	14	203	252	1	120	09:29:02	2090144	5	3	3	3	3	3	3	3	2	8	7	0	0	0	0	6	6
121712	09:29:02	10015	Trial	ResponseIL	14	0	175	0	120	09:29:02	2091570	5	3	3	3	3	3	3	3	2	8	7	0	0	0	0	6	6
121712	09:29:02	10015	Trial	IncongruentLeft	14	203	306	1	120	09:29:02	2091903	5	3	3	3	3	3	3	3	2	8	7	0	0	0	0	6	6
121712	09:29:02	10015	Trial	ResponseCR	14	0	175	0	120	09:29:02	2093276	5	3	3	3	3	3	3	3	2	8	7	0	0	0	0	6	6
121712	09:29:02	10015	Trial	CongruentRight	14	205	232	1	120	09:29:02	2093529	5	3	3	3	3	3	3	3	2	8	7	0	0	0	0	6	6
121712	09:29:02	10015	Trial	ResponseCL	14	0	175	0	120	09:29:02	2094982	5	3	3	3	3	3	3	3	2	8	7	0	0	0	0	6	6
121712	09:29:02	10015	Trial	CongruentLeft	14	203	238	1	120	09:29:02	2095249	5	3	3	3	3	3	3	3	2	8	7	0	0	0	0	6	6
121712	09:29:02	10015	Trial	ResponseIR	14	0	175	0	120	09:29:02	2096688	5	3	3	3	3	3	3	3	2	8	7	0	0	0	0	6	6
121712	09:29:02	10015	Trial	IncongruentRight	14	205	276	1	120	09:29:02	2096981	5	3	3	3	3	3	3	3	2	8	7	0	0	0	0	6	6
121712	09:29:02	10015	Trial	ResponseCL	14	0	175	0	120	09:29:02	2098394	5	3	3	3	3	3	3	3	2	8	7	0	0	0	0	6	6
121712	09:29:02	10015	Trial	CongruentLeft	14	203	202	1	120	09:29:02	2098621	5	3	3	3	3	3	3	3	2	8	7	0	0	0	0	6	6
121712	09:29:02	10015	Trial	ResponseCR	14	0	175	0	120	09:29:02	2100100	5	3	3	3	3	3	3	3	2	8	7	0	0	0	0	6	6
121712	09:29:02	10015	Trial	CongruentRight	14	205	208	1	120	09:29:02	2100327	5	3	3	3	3	3	3	3	2	8	7	0	0	0	0	6	6
121712	09:29:02	10015	Trial	ResponseIL	14	0	175	0	120	09:29:02	2101806	5	3	3	3	3	3	3	3	2	8	7	0	0	0	0	6	6
121712	09:29:02	10015	Trial	IncongruentLeft	14	203	245	1	120	09:29:02	2102072	5	3	3	3	3	3	3	3	2	8	7	0	0	0	0	6	6
121712	09:29:02	10015	WordsAbsFr6mo	PAbsFr6mo1	16	Abs1	3494	0	120	09:29:02	2115481	5	3	3	3	3	3	3	3	2	8	7	0	0	0	0	6	6
121712	09:29:02	10015	WordsAbsFr6mo	AbsFr6mo1	16	Abs1	3515	0	120	09:29:02	2119026	5	3	3	3	3	3	3	3	2	8	7	1	0	0	0	6	6
121712	09:29:02	10015	WordsAbsFr6mo	AbsFr6mo2	16	Abs2	8162	0	120	09:29:02	2127223	5	3	3	3	3	3	3	3	2	8	7	1	0	0	0	6	6
121712	09:29:02	10015	WordsAbsFr6mo	AbsFr6mo3	16	Abs1	13692	0	120	09:29:02	2140951	5	3	3	3	3	3	3	3	2	8	7	2	0	0	0	6	6
121712	09:29:02	10015	Trial2BackFrS	NS	17	0	1000	1	120	09:29:02	2178869	5	3	3	3	3	3	3	3	2	8	7	2	0	0	0	6	6
121712	09:29:02	10015	Trial2BackFrS	NS	17	0	1000	1	120	09:29:02	2180375	5	3	3	3	3	3	3	3	2	8	7	2	0	0	0	6	6
121712	09:29:02	10015	Trial2BackFrS	NS	17	0	1000	1	120	09:29:02	2181881	5	3	3	3	3	3	3	3	2	8	7	2	0	0	0	6	6
121712	09:29:02	10015	Trial2BackFrS	YS	17	57	590	1	120	09:29:02	2182987	5	3	3	3	3	3	3	3	2	8	7	2	0	0	0	6	6
121712	09:29:02	10015	Trial2BackFrS	NS	17	0	1000	1	120	09:29:02	2184893	5	3	3	3	3	3	3	3	2	8	7	2	0	0	0	6	6
121712	09:29:02	10015	Trial2BackFrS	NS	17	0	1000	1	120	09:29:02	2186399	5	3	3	3	3	3	3	3	2	8	7	2	0	0	0	6	6
121712	09:29:02	10015	Trial2BackFrS	NS	17	0	1000	1	120	09:29:02	2187905	5	3	3	3	3	3	3	3	2	8	7	2	0	0	0	6	6
121712	09:29:02	10015	Trial2BackFrS	NS	17	0	1000	1	120	09:29:02	2189412	5	3	3	3	3	3	3	3	2	8	7	2	0	0	0	6	6
121712	09:29:02	10015	Trial2BackFrS	YS	17	57	387	1	120	09:29:02	2190318	5	3	3	3	3	3	3	3	2	8	7	2	0	0	0	6	6
121712	09:29:02	10015	Trial2BackFrS	NS	17	0	1000	1	120	09:29:02	2192424	5	3	3	3	3	3	3	3	2	8	7	2	0	0	0	6	6
121712	09:29:02	10015	Trial2BackFrS	NS	17	0	1000	1	120	09:29:02	2193930	5	3	3	3	3	3	3	3	2	8	7	2	0	0	0	6	6
121712	09:29:02	10015	Trial2BackFrS	YS	17	0	1000	0	120	09:29:02	2195436	5	3	3	3	3	3	3	3	2	8	7	2	0	0	0	6	6
121712	09:29:02	10015	Trial2BackFrS	NS	17	0	1000	1	120	09:29:02	2196942	5	3	3	3	3	3	3	3	2	8	7	2	0	0	0	6	6
121712	09:29:02	10015	Trial2BackFrS	NS	17	0	1000	1	120	09:29:02	2198448	5	3	3	3	3	3	3	3	2	8	7	2	0	0	0	6	6
121712	09:29:02	10015	Trial2BackFrS	NS	17	0	1000	1	120	09:29:02	2199954	5	3	3	3	3	3	3	3	2	8	7	2	0	0	0	6	6
121712	09:29:02	10015	Trial2BackFrS	YS	17	0	1000	0	120	09:29:02	2201460	5	3	3	3	3	3	3	3	2	8	7	2	0	0	0	6	6
121712	09:29:02	10015	Trial2BackFrS	NS	17	0	1000	1	120	09:29:02	2202966	5	3	3	3	3	3	3	3	2	8	7	2	0	0	0	6	6
121712	09:29:02	10015	Trial2BackFrS	NS	17	0	1000	1	120	09:29:02	2204472	5	3	3	3	3	3	3	3	2	8	7	2	0	0	0	6	6
121712	09:29:02	10015	Trial2BackFrS	NS	17	0	1000	1	120	09:29:02	2205978	5	3	3	3	3	3	3	3	2	8	7	2	0	0	0	6	6
121712	09:29:02	10015	Trial2BackFrS	NS	17	0	1000	1	120	09:29:02	2207484	5	3	3	3	3	3	3	3	2	8	7	2	0	0	0	6	6
121712	09:29:02	10015	Trial2BackFrS	YS	17	57	458	1	120	09:29:02	2208457	5	3	3	3	3	3	3	3	2	8	7	2	0	0	0	6	6
121712	09:29:02	10015	Trial2BackFrS	NS	17	0	1000	1	120	09:29:02	2210497	5	3	3	3	3	3	3	3	2	8	7	2	0	0	0	6	6
121712	09:29:02	10015	Trial2BackFrS	NS	17	0	1000	1	120	09:29:02	2212003	5	3	3	3	3	3	3	3	2	8	7	2	0	0	0	6	6
121712	09:29:02	10015	Trial2BackFrS	NS	17	0	1000	1	120	09:29:02	2213509	5	3	3	3	3	3	3	3	2	8	7	2	0	0	0	6	6
121712	09:29:02	10015	Trial2BackFrS	NS	17	57	754	0	120	09:29:02	2214775	5	3	3	3	3	3	3	3	2	8	7	2	0	0	0	6	6
121712	09:29:02	10015	Trial2BackFrS	NS	17	0	1000	1	120	09:29:02	2216521	5	3	3	3	3	3	3	3	2	8	7	2	0	0	0	6	6
121712	09:29:02	10015	Trial2BackFrS	NS	17	0	1000	1	120	09:29:02	2218027	5	3	3	3	3	3	3	3	2	8	7	2	0	0	0	6	6
121712	09:29:02	10015	Trial2BackFrS	NS	17	0	1000	1	120	09:29:02	2219533	5	3	3	3	3	3	3	3	2	8	7	2	0	0	0	6	6
121712	09:29:02	10015	Trial2BackFrS	NS	17	0	1000	1	120	09:29:02	2221039	5	3	3	3	3	3	3	3	2	8	7	2	0	0	0	6	6
121712	09:29:02	10015	Trial2BackFrS	NS	17	0	1000	1	120	09:29:02	2222545	5	3	3	3	3	3	3	3	2	8	7	2	0	0	0	6	6
121712	09:29:02	10015	Trial2BackFrS	NS	17	0	1000	1	120	09:29:02	2224051	5	3	3	3	3	3	3	3	2	8	7	2	0	0	0	6	6
121712	09:29:02	10015	Trial2BackFrS	YS	17	0	1000	0	120	09:29:02	2225557	5	3	3	3	3	3	3	3	2	8	7	2	0	0	0	6	6
121712	09:29:02	10015	Trial2BackFrS	NS	17	0	1000	1	120	09:29:02	2227064	5	3	3	3	3	3	3	3	2	8	7	2	0	0	0	6	6
121712	09:29:02	10015	Trial2BackFrS	NS	17	0	1000	1	120	09:29:02	2228609	5	3	3	3	3	3	3	3	2	8	7	2	0	0	0	6	6
121712	09:29:02	10015	Trial2BackFrS	NS	17	0	1000	1	120	09:29:02	2230115	5	3	3	3	3	3	3	3	2	8	7	2	0	0	0	6	6
121712	09:29:02	10015	Trial2BackFrS	YS	17	57	867	1	120	09:29:02	2231502	5	3	3	3	3	3	3	3	2	8	7	2	0	0	0	6	6
121712	09:29:02	10015	Trial2BackFrS	NS	17	0	1000	1	120	09:29:02	2233128	5	3	3	3	3	3	3	3	2	8	7	2	0	0	0	6	6
121712	09:29:02	10015	Trial2BackFrS	NS	17	0	1000	1	120	09:29:02	2234634	5	3	3	3	3	3	3	3	2	8	7	2	0	0	0	6	6
121712	09:29:02	10015	Trial2BackFrS	NS	17	0	1000	1	120	09:29:02	2236140	5	3	3	3	3	3	3	3	2	8	7	2	0	0	0	6	6
121712	09:29:02	10015	Trial2BackFrS	NS	17	0	1000	1	120	09:29:02	2237646	5	3	3	3	3	3	3	3	2	8	7	2	0	0	0	6	6
121712	09:29:02	10015	Trial2BackFrS	NS	17	0	1000	1	120	09:29:02	2239152	5	3	3	3	3	3	3	3	2	8	7	2	0	0	0	6	6
121712	09:29:02	10015	Trial2BackFrS	NS	17	0	1000	1	120	09:29:02	2240658	5	3	3	3	3	3	3	3	2	8	7	2	0	0	0	6	6
121712	09:29:02	10015	Trial2BackFrS	NS	17	0	1000	1	120	09:29:02	2242164	5	3	3	3	3	3	3	3	2	8	7	2	0	0	0	6	6
121712	09:29:02	10015	Trial2BackFrS	YS	17	57	418	1	120	09:29:02	2243097	5	3	3	3	3	3	3	3	2	8	7	2	0	0	0	6	6
121712	09:29:02	10015	Trial2BackFrS	NS	17	0	1000	1	120	09:29:02	2245176	5	3	3	3	3	3	3	3	2	8	7	2	0	0	0	6	6
121712	09:29:02	10015	Trial2BackFrS	NS	17	0	1000	1	120	09:29:02	2246682	5	3	3	3	3	3	3	3	2	8	7	2	0	0	0	6	6
121712	09:29:02	10015	Trial2BackFrS	NS	17	0	1000	1	120	09:29:02	2248188	5	3	3	3	3	3	3	3	2	8	7	2	0	0	0	6	6
121712	09:29:02	10015	Trial2BackFrS	NS	17	0	1000	1	120	09:29:02	2249694	5	3	3	3	3	3	3	3	2	8	7	2	0	0	0	6	6
121712	09:29:02	10015	Trial2BackFrS	YS	17	57	343	1	120	09:29:02	2250547	5	3	3	3	3	3	3	3	2	8	7	2	0	0	0	6	6
121712	09:29:02	10015	Trial2BackFrS	NS	17	0	1000	1	120	09:29:02	2252707	5	3	3	3	3	3	3	3	2	8	7	2	0	0	0	6	6
121712	09:29:02	10015	Trial2BackFrS	NS	17	0	1000	1	120	09:29:02	2254213	5	3	3	3	3	3	3	3	2	8	7	2	0	0	0	6	6
121712	09:29:02	10015	Trial2BackFrS	NS	17	0	1000	1	120	09:29:02	2255719	5	3	3	3	3	3	3	3	2	8	7	2	0	0	0	6	6
121712	09:29:02	10015	Trial2BackFrS	NS	17	0	1000	1	120	09:29:02	2257225	5	3	3	3	3	3	3	3	2	8	7	2	0	0	0	6	6
121712	09:29:02	10015	Trial2BackFrS	NS	17	0	1000	1	120	09:29:02	2258731	5	3	3	3	3	3	3	3	2	8	7	2	0	0	0	6	6
121712	09:29:02	10015	Trial2BackFrS	NS	17	0	1000	1	120	09:29:02	2260237	5	3	3	3	3	3	3	3	2	8	7	2	0	0	0	6	6
121712	09:29:02	10015	Trial2BackFrS	YS	17	57	473	1	120	09:29:02	2261223	5	3	3	3	3	3	3	3	2	8	7	2	0	0	0	6	6
121712	09:29:02	10015	Trial2BackFrS	NS	17	0	1000	1	120	09:29:02	2263249	5	3	3	3	3	3	3	3	2	8	7	2	0	0	0	6	6
121712	09:29:02	10015	Trial2BackFrS	NS	17	0	1000	1	120	09:29:02	2264755	5	3	3	3	3	3	3	3	2	8	7	2	0	0	0	6	6
121712	09:29:02	10015	Trial2BackFrS	NS	17	0	1000	1	120	09:29:02	2266261	5	3	3	3	3	3	3	3	2	8	7	2	0	0	0	6	6
121712	09:29:02	10015	Trial2BackFrS	NS	17	0	1000	1	120	09:29:02	2267767	5	3	3	3	3	3	3	3	2	8	7	2	0	0	0	6	6
121712	09:29:02	10015	Trial2BackFrS	NS	17	0	1000	1	120	09:29:02	2269273	5	3	3	3	3	3	3	3	2	8	7	2	0	0	0	6	6
121712	09:29:02	10015	Trial2BackFrS	NS	17	0	1000	1	120	09:29:02	2270779	5	3	3	3	3	3	3	3	2	8	7	2	0	0	0	6	6
121712	09:29:02	10015	Trial2BackFrS	NS	17	0	1000	1	120	09:29:02	2272286	5	3	3	3	3	3	3	3	2	8	7	2	0	0	0	6	6
121712	09:29:02	10015	Trial2BackFrS	YS	17	57	440	1	120	09:29:02	2273245	5	3	3	3	3	3	3	3	2	8	7	2	0	0	0	6	6
121712	09:29:02	10015	Trial2BackFrS	NS	17	0	1000	1	120	09:29:02	2275298	5	3	3	3	3	3	3	3	2	8	7	2	0	0	0	6	6
121712	09:29:02	10015	Trial2BackFrS	NS	17	0	1000	1	120	09:29:02	2276804	5	3	3	3	3	3	3	3	2	8	7	2	0	0	0	6	6
121712	09:29:02	10015	Trial2BackFrS	NS	17	0	1000	1	120	09:29:02	2278310	5	3	3	3	3	3	3	3	2	8	7	2	0	0	0	6	6
121712	09:29:02	10015	Trial2BackFrS	NS	17	0	1000	1	120	09:29:02	2279816	5	3	3	3	3	3	3	3	2	8	7	2	0	0	0	6	6
121712	09:29:02	10015	Trial2BackFrS	YS	17	57	574	1	120	09:29:02	2280909	5	3	3	3	3	3	3	3	2	8	7	2	0	0	0	6	6
121712	09:29:02	10015	Trial2BackFrS	NS	17	0	1000	1	120	09:29:02	2282828	5	3	3	3	3	3	3	3	2	8	7	2	0	0	0	6	6
121712	09:29:02	10015	Trial2BackFrS	NS	17	0	1000	1	120	09:29:02	2284334	5	3	3	3	3	3	3	3	2	8	7	2	0	0	0	6	6
121712	09:29:02	10015	Trial2BackFrS	YS	17	57	455	1	120	09:29:02	2285307	5	3	3	3	3	3	3	3	2	8	7	2	0	0	0	6	6
121712	09:29:02	10015	Trial2BackFrS	NS	17	0	1000	1	120	09:29:02	2287346	5	3	3	3	3	3	3	3	2	8	7	2	0	0	0	6	6
121712	09:29:02	10015	Trial2BackFrS	NS	17	0	1000	1	120	09:29:02	2288866	5	3	3	3	3	3	3	3	2	8	7	2	0	0	0	6	6
121712	09:29:02	10015	Trial2BackFrS	NS	17	0	1000	1	120	09:29:02	2290372	5	3	3	3	3	3	3	3	2	8	7	2	0	0	0	6	6
121712	09:29:02	10015	Trial2BackFrS	NS	17	0	1000	1	120	09:29:02	2291878	5	3	3	3	3	3	3	3	2	8	7	2	0	0	0	6	6
121712	09:29:02	10015	Trial2BackFrS	NS	17	0	1000	1	120	09:29:02	2293397	5	3	3	3	3	3	3	3	2	8	7	2	0	0	0	6	6
121712	09:29:02	10015	Trial2BackFrS	NS	17	0	1000	1	120	09:29:02	2294903	5	3	3	3	3	3	3	3	2	8	7	2	0	0	0	6	6
121712	09:29:02	10015	Trial2BackFrS	YS	17	57	414	1	120	09:29:02	2295836	5	3	3	3	3	3	3	3	2	8	7	2	0	0	0	6	6
121712	09:29:02	10015	Trial2BackFrS	NS	17	0	1000	1	120	09:29:02	2297915	5	3	3	3	3	3	3	3	2	8	7	2	0	0	0	6	6
121712	09:29:02	10015	Trial2BackFrS	NS	17	0	1000	1	120	09:29:02	2299421	5	3	3	3	3	3	3	3	2	8	7	2	0	0	0	6	6
121712	09:29:02	10015	Trial2BackFrS	NS	17	0	1000	1	120	09:29:02	2300928	5	3	3	3	3	3	3	3	2	8	7	2	0	0	0	6	6
121712	09:29:02	10015	Trial2BackFrS	NS	17	0	1000	1	120	09:29:02	2302434	5	3	3	3	3	3	3	3	2	8	7	2	0	0	0	6	6
121712	09:29:02	10015	Trial2BackFrS	YS	17	57	372	1	120	09:29:02	2303313	5	3	3	3	3	3	3	3	2	8	7	2	0	0	0	6	6
121712	09:29:02	10015	Trial2BackFrS	NS	17	0	1000	1	120	09:29:02	2305446	5	3	3	3	3	3	3	3	2	8	7	2	0	0	0	6	6
121712	09:29:02	10015	Trial2BackFrS	NS	17	0	1000	1	120	09:29:02	2306952	5	3	3	3	3	3	3	3	2	8	7	2	0	0	0	6	6
121712	09:29:02	10015	Trial2BackFrS	NS	17	0	1000	1	120	09:29:02	2308458	5	3	3	3	3	3	3	3	2	8	7	2	0	0	0	6	6
121712	09:29:02	10015	Trial2BackFrS	NS	17	57	459	0	120	09:29:02	2309431	5	3	3	3	3	3	3	3	2	8	7	2	0	0	0	6	6
121712	09:29:02	10015	Trial2BackFrS	YS	17	0	1000	0	120	09:29:02	2311470	5	3	3	3	3	3	3	3	2	8	7	2	0	0	0	6	6
121712	09:29:02	10015	Trial2BackFrS	NS	17	0	1000	1	120	09:29:02	2312976	5	3	3	3	3	3	3	3	2	8	7	2	0	0	0	6	6
121712	09:29:02	10015	Trial2BackFrS	NS	17	0	1000	1	120	09:29:02	2314482	5	3	3	3	3	3	3	3	2	8	7	2	0	0	0	6	6
121712	09:29:02	10015	Trial2BackFrS	YS	17	57	483	1	120	09:29:02	2315482	5	3	3	3	3	3	3	3	2	8	7	2	0	0	0	6	6
121712	09:29:02	10015	Trial2BackFrS	NS	17	0	1000	1	120	09:29:02	2317495	5	3	3	3	3	3	3	3	2	8	7	2	0	0	0	6	6
121712	09:29:02	10015	Trial2BackFrS	NS	17	0	1000	1	120	09:29:02	2319001	5	3	3	3	3	3	3	3	2	8	7	2	0	0	0	6	6
121712	09:29:02	10015	Trial2BackFrS	NS	17	0	1000	1	120	09:29:02	2320520	5	3	3	3	3	3	3	3	2	8	7	2	0	0	0	6	6
121712	09:29:02	10015	Trial2BackFrS	NS	17	0	1000	1	120	09:29:02	2322026	5	3	3	3	3	3	3	3	2	8	7	2	0	0	0	6	6
121712	09:29:02	10015	Trial2BackFrS	NS	17	0	1000	1	120	09:29:02	2323532	5	3	3	3	3	3	3	3	2	8	7	2	0	0	0	6	6
121712	09:29:02	10015	Trial2BackFrS	NS	17	0	1000	1	120	09:29:02	2325038	5	3	3	3	3	3	3	3	2	8	7	2	0	0	0	6	6
121712	09:29:02	10015	Trial2BackFrS	NS	17	0	1000	1	120	09:29:02	2326544	5	3	3	3	3	3	3	3	2	8	7	2	0	0	0	6	6
121712	09:29:02	10015	Trial2BackFrS	NS	17	0	1000	1	120	09:29:02	2328050	5	3	3	3	3	3	3	3	2	8	7	2	0	0	0	6	6
121712	09:29:02	10015	Trial2BackFrS	YS	17	57	371	1	120	09:29:02	2328930	5	3	3	3	3	3	3	3	2	8	7	2	0	0	0	6	6
121712	09:29:02	10015	Trial2BackFrS	NS	17	0	1000	1	120	09:29:02	2331062	5	3	3	3	3	3	3	3	2	8	7	2	0	0	0	6	6
121712	09:29:02	10015	Trial2BackFrS	NS	17	0	1000	1	120	09:29:02	2332582	5	3	3	3	3	3	3	3	2	8	7	2	0	0	0	6	6
121712	09:29:02	10015	Trial2BackFrS	NS	17	0	1000	1	120	09:29:02	2334088	5	3	3	3	3	3	3	3	2	8	7	2	0	0	0	6	6
121712	09:29:02	10015	Trial2BackFrS	NS	17	0	1000	1	120	09:29:02	2335594	5	3	3	3	3	3	3	3	2	8	7	2	0	0	0	6	6
121712	09:29:02	10015	Trial2BackFrS	NS	17	0	1000	1	120	09:29:02	2337100	5	3	3	3	3	3	3	3	2	8	7	2	0	0	0	6	6
121712	09:29:02	10015	Trial2BackFrS	NS	17	0	1000	1	120	09:29:02	2338606	5	3	3	3	3	3	3	3	2	8	7	2	0	0	0	6	6
121712	09:29:02	10015	Trial2BackFrS	NS	17	0	1000	1	120	09:29:02	2340112	5	3	3	3	3	3	3	3	2	8	7	2	0	0	0	6	6
121712	09:29:02	10015	Trial2BackFrS	YS	17	57	421	1	120	09:29:02	2341045	5	3	3	3	3	3	3	3	2	8	7	2	0	0	0	6	6
121712	09:29:02	10015	Trial2BackFrS	NS	17	0	1000	1	120	09:29:02	2343124	5	3	3	3	3	3	3	3	2	8	7	2	0	0	0	6	6
121712	09:29:02	10015	Trial2BackFrS	NS	17	0	1000	1	120	09:29:02	2344630	5	3	3	3	3	3	3	3	2	8	7	2	0	0	0	6	6
121712	09:29:02	10015	Trial2BackFrS	NS	17	0	1000	1	120	09:29:02	2346136	5	3	3	3	3	3	3	3	2	8	7	2	0	0	0	6	6
121712	09:29:02	10015	Trial2BackFrS	NS	17	0	1000	1	120	09:29:02	2347643	5	3	3	3	3	3	3	3	2	8	7	2	0	0	0	6	6
121712	09:29:02	10015	Trial2BackFrS	NS	17	0	1000	1	120	09:29:02	2349148	5	3	3	3	3	3	3	3	2	8	7	2	0	0	0	6	6
121712	09:29:02	10015	Trial2BackFrS	NS	17	0	1000	1	120	09:29:02	2350655	5	3	3	3	3	3	3	3	2	8	7	2	0	0	0	6	6
121712	09:29:02	10015	Trial2BackFrS	NS	17	0	1000	1	120	09:29:02	2352161	5	3	3	3	3	3	3	3	2	8	7	2	0	0	0	6	6
121712	09:29:02	10015	Trial2BackFrS	NS	17	0	1000	1	120	09:29:02	2353667	5	3	3	3	3	3	3	3	2	8	7	2	0	0	0	6	6
121712	09:29:02	10015	Trial2BackFrS	NS	17	0	1000	1	120	09:29:02	2355173	5	3	3	3	3	3	3	3	2	8	7	2	0	0	0	6	6
121712	09:29:02	10015	Trial2BackFrS	YS	17	57	437	1	120	09:29:02	2356146	5	3	3	3	3	3	3	3	2	8	7	2	0	0	0	6	6
121712	09:29:02	10015	Trial2BackFrS	NS	17	0	1000	1	120	09:29:02	2358212	5	3	3	3	3	3	3	3	2	8	7	2	0	0	0	6	6
121712	09:29:02	10015	Trial3BackFrS	NNS	18	0	1000	1	120	09:29:02	2368661	5	3	3	3	3	3	3	3	2	8	7	2	0	0	0	6	6
121712	09:29:02	10015	Trial3BackFrS	NNS	18	0	1000	1	120	09:29:02	2370167	5	3	3	3	3	3	3	3	2	8	7	2	0	0	0	6	6
121712	09:29:02	10015	Trial3BackFrS	NNS	18	0	1000	1	120	09:29:02	2371673	5	3	3	3	3	3	3	3	2	8	7	2	0	0	0	6	6
121712	09:29:02	10015	Trial3BackFrS	YYS	18	57	619	1	120	09:29:02	2372806	5	3	3	3	3	3	3	3	2	8	7	2	0	0	0	6	6
121712	09:29:02	10015	Trial3BackFrS	NNS	18	0	1000	1	120	09:29:02	2374685	5	3	3	3	3	3	3	3	2	8	7	2	0	0	0	6	6
121712	09:29:02	10015	Trial3BackFrS	NNS	18	0	1000	1	120	09:29:02	2376205	5	3	3	3	3	3	3	3	2	8	7	2	0	0	0	6	6
121712	09:29:02	10015	Trial3BackFrS	NNS	18	0	1000	1	120	09:29:02	2377711	5	3	3	3	3	3	3	3	2	8	7	2	0	0	0	6	6
121712	09:29:02	10015	Trial3BackFrS	NNS	18	0	1000	1	120	09:29:02	2379217	5	3	3	3	3	3	3	3	2	8	7	2	0	0	0	6	6
121712	09:29:02	10015	Trial3BackFrS	YYS	18	57	484	1	120	09:29:02	2380216	5	3	3	3	3	3	3	3	2	8	7	2	0	0	0	6	6
121712	09:29:02	10015	Trial3BackFrS	NNS	18	0	1000	1	120	09:29:02	2382229	5	3	3	3	3	3	3	3	2	8	7	2	0	0	0	6	6
121712	09:29:02	10015	Trial3BackFrS	NNS	18	0	1000	1	120	09:29:02	2383735	5	3	3	3	3	3	3	3	2	8	7	2	0	0	0	6	6
121712	09:29:02	10015	Trial3BackFrS	NNS	18	0	1000	1	120	09:29:02	2385241	5	3	3	3	3	3	3	3	2	8	7	2	0	0	0	6	6
121712	09:29:02	10015	Trial3BackFrS	NNS	18	0	1000	1	120	09:29:02	2386747	5	3	3	3	3	3	3	3	2	8	7	2	0	0	0	6	6
121712	09:29:02	10015	Trial3BackFrS	NNS	18	0	1000	1	120	09:29:02	2388267	5	3	3	3	3	3	3	3	2	8	7	2	0	0	0	6	6
121712	09:29:02	10015	Trial3BackFrS	NNS	18	0	1000	1	120	09:29:02	2389786	5	3	3	3	3	3	3	3	2	8	7	2	0	0	0	6	6
121712	09:29:02	10015	Trial3BackFrS	NNS	18	0	1000	1	120	09:29:02	2391292	5	3	3	3	3	3	3	3	2	8	7	2	0	0	0	6	6
121712	09:29:02	10015	Trial3BackFrS	YYS	18	0	1000	0	120	09:29:02	2392798	5	3	3	3	3	3	3	3	2	8	7	2	0	0	0	6	6
121712	09:29:02	10015	Trial3BackFrS	NNS	18	0	1000	1	120	09:29:02	2394304	5	3	3	3	3	3	3	3	2	8	7	2	0	0	0	6	6
121712	09:29:02	10015	Trial3BackFrS	NNS	18	0	1000	1	120	09:29:02	2395810	5	3	3	3	3	3	3	3	2	8	7	2	0	0	0	6	6
121712	09:29:02	10015	Trial3BackFrS	NNS	18	57	626	0	120	09:29:02	2396956	5	3	3	3	3	3	3	3	2	8	7	2	0	0	0	6	6
121712	09:29:02	10015	Trial3BackFrS	NNS	18	0	1000	1	120	09:29:02	2398822	5	3	3	3	3	3	3	3	2	8	7	2	0	0	0	6	6
121712	09:29:02	10015	Trial3BackFrS	NNS	18	0	1000	1	120	09:29:02	2400328	5	3	3	3	3	3	3	3	2	8	7	2	0	0	0	6	6
121712	09:29:02	10015	Trial3BackFrS	YYS	18	0	1000	0	120	09:29:02	2401834	5	3	3	3	3	3	3	3	2	8	7	2	0	0	0	6	6
121712	09:29:02	10015	Trial3BackFrS	NNS	18	0	1000	1	120	09:29:02	2403340	5	3	3	3	3	3	3	3	2	8	7	2	0	0	0	6	6
121712	09:29:02	10015	Trial3BackFrS	NNS	18	57	455	0	120	09:29:02	2404313	5	3	3	3	3	3	3	3	2	8	7	2	0	0	0	6	6
121712	09:29:02	10015	Trial3BackFrS	NNS	18	0	1000	1	120	09:29:02	2406353	5	3	3	3	3	3	3	3	2	8	7	2	0	0	0	6	6
121712	09:29:02	10015	Trial3BackFrS	YYS	18	0	1000	0	120	09:29:02	2407859	5	3	3	3	3	3	3	3	2	8	7	2	0	0	0	6	6
121712	09:29:02	10015	Trial3BackFrS	NNS	18	0	1000	1	120	09:29:02	2409365	5	3	3	3	3	3	3	3	2	8	7	2	0	0	0	6	6
121712	09:29:02	10015	Trial3BackFrS	NNS	18	0	1000	1	120	09:29:02	2410871	5	3	3	3	3	3	3	3	2	8	7	2	0	0	0	6	6
121712	09:29:02	10015	Trial3BackFrS	NNS	18	0	1000	1	120	09:29:02	2412377	5	3	3	3	3	3	3	3	2	8	7	2	0	0	0	6	6
121712	09:29:02	10015	Trial3BackFrS	YYS	18	57	443	1	120	09:29:02	2413336	5	3	3	3	3	3	3	3	2	8	7	2	0	0	0	6	6
121712	09:29:02	10015	Trial3BackFrS	NNS	18	0	1000	1	120	09:29:02	2415389	5	3	3	3	3	3	3	3	2	8	7	2	0	0	0	6	6
121712	09:29:02	10015	Trial3BackFrS	NNS	18	0	1000	1	120	09:29:02	2416895	5	3	3	3	3	3	3	3	2	8	7	2	0	0	0	6	6
121712	09:29:02	10015	Trial3BackFrS	NNS	18	0	1000	1	120	09:29:02	2418401	5	3	3	3	3	3	3	3	2	8	7	2	0	0	0	6	6
121712	09:29:02	10015	Trial3BackFrS	NNS	18	0	1000	1	120	09:29:02	2419907	5	3	3	3	3	3	3	3	2	8	7	2	0	0	0	6	6
121712	09:29:02	10015	Trial3BackFrS	NNS	18	0	1000	1	120	09:29:02	2421413	5	3	3	3	3	3	3	3	2	8	7	2	0	0	0	6	6
121712	09:29:02	10015	Trial3BackFrS	NNS	18	0	1000	1	120	09:29:02	2422919	5	3	3	3	3	3	3	3	2	8	7	2	0	0	0	6	6
121712	09:29:02	10015	Trial3BackFrS	NNS	18	0	1000	1	120	09:29:02	2424439	5	3	3	3	3	3	3	3	2	8	7	2	0	0	0	6	6
121712	09:29:02	10015	Trial3BackFrS	NNS	18	0	1000	1	120	09:29:02	2425945	5	3	3	3	3	3	3	3	2	8	7	2	0	0	0	6	6
121712	09:29:02	10015	Trial3BackFrS	NNS	18	0	1000	1	120	09:29:02	2427451	5	3	3	3	3	3	3	3	2	8	7	2	0	0	0	6	6
121712	09:29:02	10015	Trial3BackFrS	NNS	18	0	1000	1	120	09:29:02	2428957	5	3	3	3	3	3	3	3	2	8	7	2	0	0	0	6	6
121712	09:29:02	10015	Trial3BackFrS	YYS	18	57	646	1	120	09:29:02	2430116	5	3	3	3	3	3	3	3	2	8	7	2	0	0	0	6	6
121712	09:29:02	10015	Trial3BackFrS	NNS	18	0	1000	1	120	09:29:02	2431969	5	3	3	3	3	3	3	3	2	8	7	2	0	0	0	6	6
121712	09:29:02	10015	Trial3BackFrS	NNS	18	0	1000	1	120	09:29:02	2433475	5	3	3	3	3	3	3	3	2	8	7	2	0	0	0	6	6
121712	09:29:02	10015	Trial3BackFrS	NNS	18	0	1000	1	120	09:29:02	2434995	5	3	3	3	3	3	3	3	2	8	7	2	0	0	0	6	6
121712	09:29:02	10015	Trial3BackFrS	NNS	18	0	1000	1	120	09:29:02	2436501	5	3	3	3	3	3	3	3	2	8	7	2	0	0	0	6	6
121712	09:29:02	10015	Trial3BackFrS	YYS	18	57	623	1	120	09:29:02	2437633	5	3	3	3	3	3	3	3	2	8	7	2	0	0	0	6	6
121712	09:29:02	10015	Trial3BackFrS	NNS	18	0	1000	1	120	09:29:02	2439513	5	3	3	3	3	3	3	3	2	8	7	2	0	0	0	6	6
121712	09:29:02	10015	Trial3BackFrS	NNS	18	0	1000	1	120	09:29:02	2441019	5	3	3	3	3	3	3	3	2	8	7	2	0	0	0	6	6
121712	09:29:02	10015	Trial3BackFrS	NNS	18	0	1000	1	120	09:29:02	2442525	5	3	3	3	3	3	3	3	2	8	7	2	0	0	0	6	6
121712	09:29:02	10015	Trial3BackFrS	NNS	18	0	1000	1	120	09:29:02	2444044	5	3	3	3	3	3	3	3	2	8	7	2	0	0	0	6	6
121712	09:29:02	10015	Trial3BackFrS	NNS	18	0	1000	1	120	09:29:02	2445550	5	3	3	3	3	3	3	3	2	8	7	2	0	0	0	6	6
121712	09:29:02	10015	Trial3BackFrS	YYS	18	57	485	1	120	09:29:02	2446550	5	3	3	3	3	3	3	3	2	8	7	2	0	0	0	6	6
121712	09:29:02	10015	Trial3BackFrS	NNS	18	0	1000	1	120	09:29:02	2448563	5	3	3	3	3	3	3	3	2	8	7	2	0	0	0	6	6
121712	09:29:02	10015	Trial3BackFrS	NNS	18	0	1000	1	120	09:29:02	2450069	5	3	3	3	3	3	3	3	2	8	7	2	0	0	0	6	6
121712	09:29:02	10015	Trial3BackFrS	NNS	18	0	1000	1	120	09:29:02	2451575	5	3	3	3	3	3	3	3	2	8	7	2	0	0	0	6	6
121712	09:29:02	10015	Trial3BackFrS	NNS	18	0	1000	1	120	09:29:02	2453081	5	3	3	3	3	3	3	3	2	8	7	2	0	0	0	6	6
121712	09:29:02	10015	Trial3BackFrS	NNS	18	0	1000	1	120	09:29:02	2454587	5	3	3	3	3	3	3	3	2	8	7	2	0	0	0	6	6
121712	09:29:02	10015	Trial3BackFrS	NNS	18	0	1000	1	120	09:29:02	2456093	5	3	3	3	3	3	3	3	2	8	7	2	0	0	0	6	6
121712	09:29:02	10015	Trial3BackFrS	YYS	18	0	1000	0	120	09:29:02	2457599	5	3	3	3	3	3	3	3	2	8	7	2	0	0	0	6	6
121712	09:29:02	10015	Trial3BackFrS	NNS	18	57	388	0	120	09:29:02	2458505	5	3	3	3	3	3	3	3	2	8	7	2	0	0	0	6	6
121712	09:29:02	10015	Trial3BackFrS	NNS	18	0	1000	1	120	09:29:02	2460611	5	3	3	3	3	3	3	3	2	8	7	2	0	0	0	6	6
121712	09:29:02	10015	Trial3BackFrS	NNS	18	0	1000	1	120	09:29:02	2462117	5	3	3	3	3	3	3	3	2	8	7	2	0	0	0	6	6
121712	09:29:02	10015	Trial3BackFrS	YYS	18	57	734	1	120	09:29:02	2463370	5	3	3	3	3	3	3	3	2	8	7	2	0	0	0	6	6
121712	09:29:02	10015	Trial3BackFrS	NNS	18	0	1000	1	120	09:29:02	2465129	5	3	3	3	3	3	3	3	2	8	7	2	0	0	0	6	6
121712	09:29:02	10015	Trial3BackFrS	NNS	18	0	1000	1	120	09:29:02	2466635	5	3	3	3	3	3	3	3	2	8	7	2	0	0	0	6	6
121712	09:29:02	10015	Trial3BackFrS	NNS	18	0	1000	1	120	09:29:02	2468141	5	3	3	3	3	3	3	3	2	8	7	2	0	0	0	6	6
121712	09:29:02	10015	Trial3BackFrS	NNS	18	0	1000	1	120	09:29:02	2469648	5	3	3	3	3	3	3	3	2	8	7	2	0	0	0	6	6
121712	09:29:02	10015	Trial3BackFrS	NNS	18	0	1000	1	120	09:29:02	2471167	5	3	3	3	3	3	3	3	2	8	7	2	0	0	0	6	6
121712	09:29:02	10015	Trial3BackFrS	NNS	18	0	1000	1	120	09:29:02	2472673	5	3	3	3	3	3	3	3	2	8	7	2	0	0	0	6	6
121712	09:29:02	10015	Trial3BackFrS	NNS	18	0	1000	1	120	09:29:02	2474179	5	3	3	3	3	3	3	3	2	8	7	2	0	0	0	6	6
121712	09:29:02	10015	Trial3BackFrS	NNS	18	0	1000	1	120	09:29:02	2475685	5	3	3	3	3	3	3	3	2	8	7	2	0	0	0	6	6
121712	09:29:02	10015	Trial3BackFrS	NNS	18	0	1000	1	120	09:29:02	2477191	5	3	3	3	3	3	3	3	2	8	7	2	0	0	0	6	6
121712	09:29:02	10015	Trial3BackFrS	YYS	18	57	555	1	120	09:29:02	2478258	5	3	3	3	3	3	3	3	2	8	7	2	0	0	0	6	6
121712	09:29:02	10015	Trial3BackFrS	NNS	18	0	1000	1	120	09:29:02	2480203	5	3	3	3	3	3	3	3	2	8	7	2	0	0	0	6	6
121712	09:29:02	10015	Trial3BackFrS	NNS	18	0	1000	1	120	09:29:02	2481709	5	3	3	3	3	3	3	3	2	8	7	2	0	0	0	6	6
121712	09:29:02	10015	Trial3BackFrS	NNS	18	0	1000	1	120	09:29:02	2483216	5	3	3	3	3	3	3	3	2	8	7	2	0	0	0	6	6
121712	09:29:02	10015	Trial3BackFrS	YYS	18	57	467	1	120	09:29:02	2484202	5	3	3	3	3	3	3	3	2	8	7	2	0	0	0	6	6
121712	09:29:02	10015	Trial3BackFrS	NNS	18	0	1000	1	120	09:29:02	2486228	5	3	3	3	3	3	3	3	2	8	7	2	0	0	0	6	6
121712	09:29:02	10015	Trial3BackFrS	NNS	18	0	1000	1	120	09:29:02	2487734	5	3	3	3	3	3	3	3	2	8	7	2	0	0	0	6	6
121712	09:29:02	10015	Trial3BackFrS	NNS	18	0	1000	1	120	09:29:02	2489240	5	3	3	3	3	3	3	3	2	8	7	2	0	0	0	6	6
121712	09:29:02	10015	Trial3BackFrS	NNS	18	0	1000	1	120	09:29:02	2490746	5	3	3	3	3	3	3	3	2	8	7	2	0	0	0	6	6
121712	09:29:02	10015	Trial3BackFrS	NNS	18	0	1000	1	120	09:29:02	2492252	5	3	3	3	3	3	3	3	2	8	7	2	0	0	0	6	6
121712	09:29:02	10015	Trial3BackFrS	YYS	18	0	1000	0	120	09:29:02	2493758	5	3	3	3	3	3	3	3	2	8	7	2	0	0	0	6	6
121712	09:29:02	10015	Trial3BackFrS	NNS	18	0	1000	1	120	09:29:02	2495264	5	3	3	3	3	3	3	3	2	8	7	2	0	0	0	6	6
121712	09:29:02	10015	Trial3BackFrS	NNS	18	0	1000	1	120	09:29:02	2496770	5	3	3	3	3	3	3	3	2	8	7	2	0	0	0	6	6
121712	09:29:02	10015	Trial3BackFrS	NNS	18	0	1000	1	120	09:29:02	2498276	5	3	3	3	3	3	3	3	2	8	7	2	0	0	0	6	6
121712	09:29:02	10015	Trial3BackFrS	NNS	18	0	1000	1	120	09:29:02	2499782	5	3	3	3	3	3	3	3	2	8	7	2	0	0	0	6	6
121712	09:29:02	10015	Trial3BackFrS	NNS	18	57	604	0	120	09:29:02	2500902	5	3	3	3	3	3	3	3	2	8	7	2	0	0	0	6	6
121712	09:29:02	10015	Trial3BackFrS	NNS	18	0	1000	1	120	09:29:02	2502794	5	3	3	3	3	3	3	3	2	8	7	2	0	0	0	6	6
121712	09:29:02	10015	Trial3BackFrS	NNS	18	0	1000	1	120	09:29:02	2504301	5	3	3	3	3	3	3	3	2	8	7	2	0	0	0	6	6
121712	09:29:02	10015	Trial3BackFrS	NNS	18	0	1000	1	120	09:29:02	2505807	5	3	3	3	3	3	3	3	2	8	7	2	0	0	0	6	6
121712	09:29:02	10015	Trial3BackFrS	NNS	18	0	1000	1	120	09:29:02	2507313	5	3	3	3	3	3	3	3	2	8	7	2	0	0	0	6	6
121712	09:29:02	10015	Trial3BackFrS	YYS	18	57	562	1	120	09:29:02	2508392	5	3	3	3	3	3	3	3	2	8	7	2	0	0	0	6	6
121712	09:29:02	10015	Trial3BackFrS	NNS	18	0	1000	1	120	09:29:02	2510325	5	3	3	3	3	3	3	3	2	8	7	2	0	0	0	6	6
121712	09:29:02	10015	Trial3BackFrS	NNS	18	0	1000	1	120	09:29:02	2511831	5	3	3	3	3	3	3	3	2	8	7	2	0	0	0	6	6
121712	09:29:02	10015	Trial3BackFrS	NNS	18	0	1000	1	120	09:29:02	2513337	5	3	3	3	3	3	3	3	2	8	7	2	0	0	0	6	6
121712	09:29:02	10015	Trial3BackFrS	NNS	18	0	1000	1	120	09:29:02	2514843	5	3	3	3	3	3	3	3	2	8	7	2	0	0	0	6	6
121712	09:29:02	10015	Trial3BackFrS	NNS	18	0	1000	1	120	09:29:02	2516349	5	3	3	3	3	3	3	3	2	8	7	2	0	0	0	6	6
121712	09:29:02	10015	Trial3BackFrS	NNS	18	57	549	0	120	09:29:02	2517415	5	3	3	3	3	3	3	3	2	8	7	2	0	0	0	6	6
121712	09:29:02	10015	Trial3BackFrS	NNS	18	0	1000	1	120	09:29:02	2519361	5	3	3	3	3	3	3	3	2	8	7	2	0	0	0	6	6
121712	09:29:02	10015	Trial3BackFrS	NNS	18	0	1000	1	120	09:29:02	2520867	5	3	3	3	3	3	3	3	2	8	7	2	0	0	0	6	6
121712	09:29:02	10015	Trial3BackFrS	YYS	18	0	1000	0	120	09:29:02	2522373	5	3	3	3	3	3	3	3	2	8	7	2	0	0	0	6	6
121712	09:29:02	10015	Trial3BackFrS	NNS	18	0	1000	1	120	09:29:02	2523879	5	3	3	3	3	3	3	3	2	8	7	2	0	0	0	6	6
121712	09:29:02	10015	Trial3BackFrS	NNS	18	0	1000	1	120	09:29:02	2525386	5	3	3	3	3	3	3	3	2	8	7	2	0	0	0	6	6
121712	09:29:02	10015	Trial3BackFrS	NNS	18	0	1000	1	120	09:29:02	2526892	5	3	3	3	3	3	3	3	2	8	7	2	0	0	0	6	6
121712	09:29:02	10015	Trial3BackFrS	NNS	18	0	1000	1	120	09:29:02	2528411	5	3	3	3	3	3	3	3	2	8	7	2	0	0	0	6	6
