date	time	subject	blockcode	trialcode	values.TaskNumber	response	latency	correct	values.Score	script.starttime	script.elapsedtime	values.ScoreS7	values.Word1	values.Word2	values.Word3	values.Word4	values.Word5	values.Word6	values.Word7	values.Word8	values.DigitSpanFwrd	values.DigitSpanBack	values.ScoreAbs	values.Contour	values.Numbers	values.Hands	values.corsiblockspanFwrd	values.corsiblockspanRev	values.problemnumber	values.subjectattempts	values.targetmoves	values.subjectmoves	expressions.excessmoves	values.movestring	expressions.targetachieved	values.problemscore	values.totalscoreTOL	expressions.firstmovetime	expressions.executiontime	expressions.solutiontime	values.t_choicestart	values.t_choiceend
010813	13:37:26	10023	Language	Language	0	English	26338	0	0	13:37:26	26467	0	0	0	0	0	0	0	0	0	0	0	0	0	0	0	0	0	0	0	0	0	0		1	0	0	0	0	0	0	0
010813	13:37:26	10023	Session	Session	0	6mo	709	0	0	13:37:26	27240	0	0	0	0	0	0	0	0	0	0	0	0	0	0	0	0	0	0	0	0	0	0		1	0	0	0	0	0	0	0
010813	13:37:26	10023	HandEng	HandEng	0	Right	848	0	0	13:37:26	28146	0	0	0	0	0	0	0	0	0	0	0	0	0	0	0	0	0	0	0	0	0	0		1	0	0	0	0	0	0	0
010813	13:37:26	10023	CubeEng	CubeEng	1	1Cube	26721	0	0	13:37:26	1681619	0	0	0	0	0	0	0	0	0	0	0	0	0	0	0	0	0	0	0	0	0	0		1	0	0	0	0	0	0	0
010813	13:37:26	10023	pm.simpleEngRight	blank.simpleEng	2	0	2000	1	0	13:37:26	1694853	0	0	0	0	0	0	0	0	0	0	0	0	0	0	0	0	0	0	0	0	0	0		1	0	0	0	0	0	0	0
010813	13:37:26	10023	pm.simpleEngRight	pm.simpleEng	2	57	448	0	0	13:37:26	1695319	0	0	0	0	0	0	0	0	0	0	0	0	0	0	0	0	0	0	0	0	0	0		1	0	0	0	0	0	0	0
010813	13:37:26	10023	pm.simpleEngRight	blank.simpleEng	2	0	1700	1	0	13:37:26	1697039	0	0	0	0	0	0	0	0	0	0	0	0	0	0	0	0	0	0	0	0	0	0		1	0	0	0	0	0	0	0
010813	13:37:26	10023	pm.simpleEngRight	pm.simpleEng	2	57	346	0	0	13:37:26	1697412	0	0	0	0	0	0	0	0	0	0	0	0	0	0	0	0	0	0	0	0	0	0		1	0	0	0	0	0	0	0
010813	13:37:26	10023	pm.simpleEngRight	blank.simpleEng	2	0	2200	1	0	13:37:26	1699624	0	0	0	0	0	0	0	0	0	0	0	0	0	0	0	0	0	0	0	0	0	0		1	0	0	0	0	0	0	0
010813	13:37:26	10023	pm.simpleEngRight	pm.simpleEng	2	57	285	0	0	13:37:26	1699931	0	0	0	0	0	0	0	0	0	0	0	0	0	0	0	0	0	0	0	0	0	0		1	0	0	0	0	0	0	0
010813	13:37:26	10023	pm.simpleEngRight	blank.simpleEng	2	0	2400	1	0	13:37:26	1702343	0	0	0	0	0	0	0	0	0	0	0	0	0	0	0	0	0	0	0	0	0	0		1	0	0	0	0	0	0	0
010813	13:37:26	10023	pm.simpleEngRight	pm.simpleEng	2	57	285	0	0	13:37:26	1702650	0	0	0	0	0	0	0	0	0	0	0	0	0	0	0	0	0	0	0	0	0	0		1	0	0	0	0	0	0	0
010813	13:37:26	10023	pm.simpleEngRight	blank.simpleEng	2	0	2100	1	0	13:37:26	1704769	0	0	0	0	0	0	0	0	0	0	0	0	0	0	0	0	0	0	0	0	0	0		1	0	0	0	0	0	0	0
010813	13:37:26	10023	pm.simpleEngRight	pm.simpleEng	2	57	260	0	0	13:37:26	1705049	0	0	0	0	0	0	0	0	0	0	0	0	0	0	0	0	0	0	0	0	0	0		1	0	0	0	0	0	0	0
010813	13:37:26	10023	pm.simpleEngRight	blank.simpleEng	2	0	1500	1	0	13:37:26	1706568	0	0	0	0	0	0	0	0	0	0	0	0	0	0	0	0	0	0	0	0	0	0		1	0	0	0	0	0	0	0
010813	13:37:26	10023	pm.simpleEngRight	pm.simpleEng	2	57	428	0	0	13:37:26	1707021	0	0	0	0	0	0	0	0	0	0	0	0	0	0	0	0	0	0	0	0	0	0		1	0	0	0	0	0	0	0
010813	13:37:26	10023	pm.simpleEngRight	blank.simpleEng	2	0	2500	1	0	13:37:26	1709540	0	0	0	0	0	0	0	0	0	0	0	0	0	0	0	0	0	0	0	0	0	0		1	0	0	0	0	0	0	0
010813	13:37:26	10023	pm.simpleEngRight	pm.simpleEng	2	57	400	0	0	13:37:26	1709967	0	0	0	0	0	0	0	0	0	0	0	0	0	0	0	0	0	0	0	0	0	0		1	0	0	0	0	0	0	0
010813	13:37:26	10023	pm.simpleEngRight	blank.simpleEng	2	0	1900	1	0	13:37:26	1711886	0	0	0	0	0	0	0	0	0	0	0	0	0	0	0	0	0	0	0	0	0	0		1	0	0	0	0	0	0	0
010813	13:37:26	10023	pm.simpleEngRight	pm.simpleEng	2	57	342	0	0	13:37:26	1712246	0	0	0	0	0	0	0	0	0	0	0	0	0	0	0	0	0	0	0	0	0	0		1	0	0	0	0	0	0	0
010813	13:37:26	10023	pm.simpleEngRight	blank.simpleEng	2	0	1600	1	0	13:37:26	1713859	0	0	0	0	0	0	0	0	0	0	0	0	0	0	0	0	0	0	0	0	0	0		1	0	0	0	0	0	0	0
010813	13:37:26	10023	pm.simpleEngRight	pm.simpleEng	2	57	273	0	0	13:37:26	1714152	0	0	0	0	0	0	0	0	0	0	0	0	0	0	0	0	0	0	0	0	0	0		1	0	0	0	0	0	0	0
010813	13:37:26	10023	pm.simpleEngRight	blank.simpleEng	2	0	1800	1	0	13:37:26	1715964	0	0	0	0	0	0	0	0	0	0	0	0	0	0	0	0	0	0	0	0	0	0		1	0	0	0	0	0	0	0
010813	13:37:26	10023	pm.simpleEngRight	pm.simpleEng	2	57	312	0	0	13:37:26	1716298	0	0	0	0	0	0	0	0	0	0	0	0	0	0	0	0	0	0	0	0	0	0		1	0	0	0	0	0	0	0
010813	13:37:26	10023	pm.simpleEngRight	blank.simpleEng	2	0	2300	1	0	13:37:26	1718617	0	0	0	0	0	0	0	0	0	0	0	0	0	0	0	0	0	0	0	0	0	0		1	0	0	0	0	0	0	0
010813	13:37:26	10023	pm.simpleEngRight	pm.simpleEng	2	57	383	0	0	13:37:26	1719016	0	0	0	0	0	0	0	0	0	0	0	0	0	0	0	0	0	0	0	0	0	0		1	0	0	0	0	0	0	0
010813	13:37:26	10023	pm.simpleEngRight	blank.simpleEng	2	0	1800	1	0	13:37:26	1720829	0	0	0	0	0	0	0	0	0	0	0	0	0	0	0	0	0	0	0	0	0	0		1	0	0	0	0	0	0	0
010813	13:37:26	10023	pm.simpleEngRight	pm.simpleEng	2	57	327	0	0	13:37:26	1721176	0	0	0	0	0	0	0	0	0	0	0	0	0	0	0	0	0	0	0	0	0	0		1	0	0	0	0	0	0	0
010813	13:37:26	10023	pm.simpleEngRight	blank.simpleEng	2	0	2400	1	0	13:37:26	1723588	0	0	0	0	0	0	0	0	0	0	0	0	0	0	0	0	0	0	0	0	0	0		1	0	0	0	0	0	0	0
010813	13:37:26	10023	pm.simpleEngRight	pm.simpleEng	2	57	272	0	0	13:37:26	1723881	0	0	0	0	0	0	0	0	0	0	0	0	0	0	0	0	0	0	0	0	0	0		1	0	0	0	0	0	0	0
010813	13:37:26	10023	pm.simpleEngRight	blank.simpleEng	2	0	2000	1	0	13:37:26	1725894	0	0	0	0	0	0	0	0	0	0	0	0	0	0	0	0	0	0	0	0	0	0		1	0	0	0	0	0	0	0
010813	13:37:26	10023	pm.simpleEngRight	pm.simpleEng	2	57	302	0	0	13:37:26	1726213	0	0	0	0	0	0	0	0	0	0	0	0	0	0	0	0	0	0	0	0	0	0		1	0	0	0	0	0	0	0
010813	13:37:26	10023	pm.simpleEngRight	blank.simpleEng	2	0	1700	1	0	13:37:26	1727933	0	0	0	0	0	0	0	0	0	0	0	0	0	0	0	0	0	0	0	0	0	0		1	0	0	0	0	0	0	0
010813	13:37:26	10023	pm.simpleEngRight	pm.simpleEng	2	57	327	0	0	13:37:26	1728279	0	0	0	0	0	0	0	0	0	0	0	0	0	0	0	0	0	0	0	0	0	0		1	0	0	0	0	0	0	0
010813	13:37:26	10023	pm.simpleEngRight	blank.simpleEng	2	0	2500	1	0	13:37:26	1730798	0	0	0	0	0	0	0	0	0	0	0	0	0	0	0	0	0	0	0	0	0	0		1	0	0	0	0	0	0	0
010813	13:37:26	10023	pm.simpleEngRight	pm.simpleEng	2	57	245	0	0	13:37:26	1731065	0	0	0	0	0	0	0	0	0	0	0	0	0	0	0	0	0	0	0	0	0	0		1	0	0	0	0	0	0	0
010813	13:37:26	10023	pm.simpleEngRight	blank.simpleEng	2	0	1600	1	0	13:37:26	1732677	0	0	0	0	0	0	0	0	0	0	0	0	0	0	0	0	0	0	0	0	0	0		1	0	0	0	0	0	0	0
010813	13:37:26	10023	pm.simpleEngRight	pm.simpleEng	2	57	334	0	0	13:37:26	1733037	0	0	0	0	0	0	0	0	0	0	0	0	0	0	0	0	0	0	0	0	0	0		1	0	0	0	0	0	0	0
010813	13:37:26	10023	pm.simpleEngRight	blank.simpleEng	2	0	2100	1	0	13:37:26	1735156	0	0	0	0	0	0	0	0	0	0	0	0	0	0	0	0	0	0	0	0	0	0		1	0	0	0	0	0	0	0
010813	13:37:26	10023	pm.simpleEngRight	pm.simpleEng	2	57	271	0	0	13:37:26	1735450	0	0	0	0	0	0	0	0	0	0	0	0	0	0	0	0	0	0	0	0	0	0		1	0	0	0	0	0	0	0
010813	13:37:26	10023	pm.simpleEngRight	blank.simpleEng	2	0	2300	1	0	13:37:26	1737769	0	0	0	0	0	0	0	0	0	0	0	0	0	0	0	0	0	0	0	0	0	0		1	0	0	0	0	0	0	0
010813	13:37:26	10023	pm.simpleEngRight	pm.simpleEng	2	57	315	0	0	13:37:26	1738102	0	0	0	0	0	0	0	0	0	0	0	0	0	0	0	0	0	0	0	0	0	0		1	0	0	0	0	0	0	0
010813	13:37:26	10023	pm.simpleEngRight	blank.simpleEng	2	0	1900	1	0	13:37:26	1740021	0	0	0	0	0	0	0	0	0	0	0	0	0	0	0	0	0	0	0	0	0	0		1	0	0	0	0	0	0	0
010813	13:37:26	10023	pm.simpleEngRight	pm.simpleEng	2	57	414	0	0	13:37:26	1740461	0	0	0	0	0	0	0	0	0	0	0	0	0	0	0	0	0	0	0	0	0	0		1	0	0	0	0	0	0	0
010813	13:37:26	10023	pm.simpleEngRight	blank.simpleEng	2	0	1500	1	0	13:37:26	1741980	0	0	0	0	0	0	0	0	0	0	0	0	0	0	0	0	0	0	0	0	0	0		1	0	0	0	0	0	0	0
010813	13:37:26	10023	pm.simpleEngRight	pm.simpleEng	2	57	311	0	0	13:37:26	1742313	0	0	0	0	0	0	0	0	0	0	0	0	0	0	0	0	0	0	0	0	0	0		1	0	0	0	0	0	0	0
010813	13:37:26	10023	pm.simpleEngRight	blank.simpleEng	2	0	2200	1	0	13:37:26	1744526	0	0	0	0	0	0	0	0	0	0	0	0	0	0	0	0	0	0	0	0	0	0		1	0	0	0	0	0	0	0
010813	13:37:26	10023	pm.simpleEngRight	pm.simpleEng	2	57	277	0	0	13:37:26	1744832	0	0	0	0	0	0	0	0	0	0	0	0	0	0	0	0	0	0	0	0	0	0		1	0	0	0	0	0	0	0
010813	13:37:26	10023	pm.simpleEngRight	blank.simpleEng	2	0	2200	1	0	13:37:26	1747058	0	0	0	0	0	0	0	0	0	0	0	0	0	0	0	0	0	0	0	0	0	0		1	0	0	0	0	0	0	0
010813	13:37:26	10023	pm.simpleEngRight	pm.simpleEng	2	57	289	0	0	13:37:26	1747365	0	0	0	0	0	0	0	0	0	0	0	0	0	0	0	0	0	0	0	0	0	0		1	0	0	0	0	0	0	0
010813	13:37:26	10023	pm.simpleEngRight	blank.simpleEng	2	0	2000	1	0	13:37:26	1749377	0	0	0	0	0	0	0	0	0	0	0	0	0	0	0	0	0	0	0	0	0	0		1	0	0	0	0	0	0	0
010813	13:37:26	10023	pm.simpleEngRight	pm.simpleEng	2	57	322	0	0	13:37:26	1749724	0	0	0	0	0	0	0	0	0	0	0	0	0	0	0	0	0	0	0	0	0	0		1	0	0	0	0	0	0	0
010813	13:37:26	10023	pm.simpleEngRight	blank.simpleEng	2	0	2100	1	0	13:37:26	1751843	0	0	0	0	0	0	0	0	0	0	0	0	0	0	0	0	0	0	0	0	0	0		1	0	0	0	0	0	0	0
010813	13:37:26	10023	pm.simpleEngRight	pm.simpleEng	2	57	352	0	0	13:37:26	1752216	0	0	0	0	0	0	0	0	0	0	0	0	0	0	0	0	0	0	0	0	0	0		1	0	0	0	0	0	0	0
010813	13:37:26	10023	pm.simpleEngRight	blank.simpleEng	2	0	1500	1	0	13:37:26	1753735	0	0	0	0	0	0	0	0	0	0	0	0	0	0	0	0	0	0	0	0	0	0		1	0	0	0	0	0	0	0
010813	13:37:26	10023	pm.simpleEngRight	pm.simpleEng	2	57	379	0	0	13:37:26	1754135	0	0	0	0	0	0	0	0	0	0	0	0	0	0	0	0	0	0	0	0	0	0		1	0	0	0	0	0	0	0
010813	13:37:26	10023	pm.simpleEngRight	blank.simpleEng	2	0	2400	1	0	13:37:26	1756547	0	0	0	0	0	0	0	0	0	0	0	0	0	0	0	0	0	0	0	0	0	0		1	0	0	0	0	0	0	0
010813	13:37:26	10023	pm.simpleEngRight	pm.simpleEng	2	57	351	0	0	13:37:26	1756921	0	0	0	0	0	0	0	0	0	0	0	0	0	0	0	0	0	0	0	0	0	0		1	0	0	0	0	0	0	0
010813	13:37:26	10023	pm.simpleEngRight	blank.simpleEng	2	0	1900	1	0	13:37:26	1758840	0	0	0	0	0	0	0	0	0	0	0	0	0	0	0	0	0	0	0	0	0	0		1	0	0	0	0	0	0	0
010813	13:37:26	10023	pm.simpleEngRight	pm.simpleEng	2	57	316	0	0	13:37:26	1759173	0	0	0	0	0	0	0	0	0	0	0	0	0	0	0	0	0	0	0	0	0	0		1	0	0	0	0	0	0	0
010813	13:37:26	10023	pm.simpleEngRight	blank.simpleEng	2	0	1800	1	0	13:37:26	1760986	0	0	0	0	0	0	0	0	0	0	0	0	0	0	0	0	0	0	0	0	0	0		1	0	0	0	0	0	0	0
010813	13:37:26	10023	pm.simpleEngRight	pm.simpleEng	2	57	297	0	0	13:37:26	1761305	0	0	0	0	0	0	0	0	0	0	0	0	0	0	0	0	0	0	0	0	0	0		1	0	0	0	0	0	0	0
010813	13:37:26	10023	pm.simpleEngRight	blank.simpleEng	2	0	1600	1	0	13:37:26	1762918	0	0	0	0	0	0	0	0	0	0	0	0	0	0	0	0	0	0	0	0	0	0		1	0	0	0	0	0	0	0
010813	13:37:26	10023	pm.simpleEngRight	pm.simpleEng	2	57	397	0	0	13:37:26	1763331	0	0	0	0	0	0	0	0	0	0	0	0	0	0	0	0	0	0	0	0	0	0		1	0	0	0	0	0	0	0
010813	13:37:26	10023	pm.simpleEngRight	blank.simpleEng	2	0	2500	1	0	13:37:26	1765850	0	0	0	0	0	0	0	0	0	0	0	0	0	0	0	0	0	0	0	0	0	0		1	0	0	0	0	0	0	0
010813	13:37:26	10023	pm.simpleEngRight	pm.simpleEng	2	57	328	0	0	13:37:26	1766197	0	0	0	0	0	0	0	0	0	0	0	0	0	0	0	0	0	0	0	0	0	0		1	0	0	0	0	0	0	0
010813	13:37:26	10023	pm.simpleEngRight	blank.simpleEng	2	0	2300	1	0	13:37:26	1768516	0	0	0	0	0	0	0	0	0	0	0	0	0	0	0	0	0	0	0	0	0	0		1	0	0	0	0	0	0	0
010813	13:37:26	10023	pm.simpleEngRight	pm.simpleEng	2	57	399	0	0	13:37:26	1768942	0	0	0	0	0	0	0	0	0	0	0	0	0	0	0	0	0	0	0	0	0	0		1	0	0	0	0	0	0	0
010813	13:37:26	10023	pm.simpleEngRight	blank.simpleEng	2	0	1700	1	0	13:37:26	1770662	0	0	0	0	0	0	0	0	0	0	0	0	0	0	0	0	0	0	0	0	0	0		1	0	0	0	0	0	0	0
010813	13:37:26	10023	pm.simpleEngRight	pm.simpleEng	2	57	365	0	0	13:37:26	1771048	0	0	0	0	0	0	0	0	0	0	0	0	0	0	0	0	0	0	0	0	0	0		1	0	0	0	0	0	0	0
010813	13:37:26	10023	pm.simpleEngRight	blank.simpleEng	2	0	1500	1	0	13:37:26	1772568	0	0	0	0	0	0	0	0	0	0	0	0	0	0	0	0	0	0	0	0	0	0		1	0	0	0	0	0	0	0
010813	13:37:26	10023	pm.simpleEngRight	pm.simpleEng	2	57	427	0	0	13:37:26	1773021	0	0	0	0	0	0	0	0	0	0	0	0	0	0	0	0	0	0	0	0	0	0		1	0	0	0	0	0	0	0
010813	13:37:26	10023	pm.simpleEngRight	blank.simpleEng	2	0	1600	1	0	13:37:26	1774633	0	0	0	0	0	0	0	0	0	0	0	0	0	0	0	0	0	0	0	0	0	0		1	0	0	0	0	0	0	0
010813	13:37:26	10023	pm.simpleEngRight	pm.simpleEng	2	57	313	0	0	13:37:26	1774966	0	0	0	0	0	0	0	0	0	0	0	0	0	0	0	0	0	0	0	0	0	0		1	0	0	0	0	0	0	0
010813	13:37:26	10023	pm.simpleEngRight	blank.simpleEng	2	0	2400	1	0	13:37:26	1777379	0	0	0	0	0	0	0	0	0	0	0	0	0	0	0	0	0	0	0	0	0	0		1	0	0	0	0	0	0	0
010813	13:37:26	10023	pm.simpleEngRight	pm.simpleEng	2	57	287	0	0	13:37:26	1777686	0	0	0	0	0	0	0	0	0	0	0	0	0	0	0	0	0	0	0	0	0	0		1	0	0	0	0	0	0	0
010813	13:37:26	10023	pm.simpleEngRight	blank.simpleEng	2	0	1900	1	0	13:37:26	1779645	0	0	0	0	0	0	0	0	0	0	0	0	0	0	0	0	0	0	0	0	0	0		1	0	0	0	0	0	0	0
010813	13:37:26	10023	pm.simpleEngRight	pm.simpleEng	2	57	294	0	0	13:37:26	1779965	0	0	0	0	0	0	0	0	0	0	0	0	0	0	0	0	0	0	0	0	0	0		1	0	0	0	0	0	0	0
010813	13:37:26	10023	pm.simpleEngRight	blank.simpleEng	2	0	2500	1	0	13:37:26	1782483	0	0	0	0	0	0	0	0	0	0	0	0	0	0	0	0	0	0	0	0	0	0		1	0	0	0	0	0	0	0
010813	13:37:26	10023	pm.simpleEngRight	pm.simpleEng	2	57	302	0	0	13:37:26	1782803	0	0	0	0	0	0	0	0	0	0	0	0	0	0	0	0	0	0	0	0	0	0		1	0	0	0	0	0	0	0
010813	13:37:26	10023	pm.simpleEngRight	blank.simpleEng	2	0	2300	1	0	13:37:26	1785122	0	0	0	0	0	0	0	0	0	0	0	0	0	0	0	0	0	0	0	0	0	0		1	0	0	0	0	0	0	0
010813	13:37:26	10023	pm.simpleEngRight	pm.simpleEng	2	57	335	0	0	13:37:26	1785482	0	0	0	0	0	0	0	0	0	0	0	0	0	0	0	0	0	0	0	0	0	0		1	0	0	0	0	0	0	0
010813	13:37:26	10023	pm.simpleEngRight	blank.simpleEng	2	0	2000	1	0	13:37:26	1787508	0	0	0	0	0	0	0	0	0	0	0	0	0	0	0	0	0	0	0	0	0	0		1	0	0	0	0	0	0	0
010813	13:37:26	10023	pm.simpleEngRight	pm.simpleEng	2	57	285	0	0	13:37:26	1787814	0	0	0	0	0	0	0	0	0	0	0	0	0	0	0	0	0	0	0	0	0	0		1	0	0	0	0	0	0	0
010813	13:37:26	10023	Trial2BackEng	N	3	0	1000	1	1	13:37:26	1833129	0	0	0	0	0	0	0	0	0	0	0	0	0	0	0	0	0	0	0	0	0	0		1	0	0	0	0	0	0	0
010813	13:37:26	10023	Trial2BackEng	N	3	0	1000	1	2	13:37:26	1834635	0	0	0	0	0	0	0	0	0	0	0	0	0	0	0	0	0	0	0	0	0	0		1	0	0	0	0	0	0	0
010813	13:37:26	10023	Trial2BackEng	N	3	0	1000	1	3	13:37:26	1836141	0	0	0	0	0	0	0	0	0	0	0	0	0	0	0	0	0	0	0	0	0	0		1	0	0	0	0	0	0	0
010813	13:37:26	10023	Trial2BackEng	N	3	0	1000	1	4	13:37:26	1837647	0	0	0	0	0	0	0	0	0	0	0	0	0	0	0	0	0	0	0	0	0	0		1	0	0	0	0	0	0	0
010813	13:37:26	10023	Trial2BackEng	N	3	0	1000	1	5	13:37:26	1839153	0	0	0	0	0	0	0	0	0	0	0	0	0	0	0	0	0	0	0	0	0	0		1	0	0	0	0	0	0	0
010813	13:37:26	10023	Trial2BackEng	N	3	0	1000	1	6	13:37:26	1840673	0	0	0	0	0	0	0	0	0	0	0	0	0	0	0	0	0	0	0	0	0	0		1	0	0	0	0	0	0	0
010813	13:37:26	10023	Trial2BackEng	N	3	0	1000	1	7	13:37:26	1842192	0	0	0	0	0	0	0	0	0	0	0	0	0	0	0	0	0	0	0	0	0	0		1	0	0	0	0	0	0	0
010813	13:37:26	10023	Trial2BackEng	N	3	0	1000	1	8	13:37:26	1843698	0	0	0	0	0	0	0	0	0	0	0	0	0	0	0	0	0	0	0	0	0	0		1	0	0	0	0	0	0	0
010813	13:37:26	10023	Trial2BackEng	Y	3	0	1000	0	8	13:37:26	1845217	0	0	0	0	0	0	0	0	0	0	0	0	0	0	0	0	0	0	0	0	0	0		1	0	0	0	0	0	0	0
010813	13:37:26	10023	Trial2BackEng	N	3	0	1000	1	9	13:37:26	1846723	0	0	0	0	0	0	0	0	0	0	0	0	0	0	0	0	0	0	0	0	0	0		1	0	0	0	0	0	0	0
010813	13:37:26	10023	Trial2BackEng	N	3	0	1000	1	10	13:37:26	1848243	0	0	0	0	0	0	0	0	0	0	0	0	0	0	0	0	0	0	0	0	0	0		1	0	0	0	0	0	0	0
010813	13:37:26	10023	Trial2BackEng	N	3	0	1000	1	11	13:37:26	1849749	0	0	0	0	0	0	0	0	0	0	0	0	0	0	0	0	0	0	0	0	0	0		1	0	0	0	0	0	0	0
010813	13:37:26	10023	Trial2BackEng	Y	3	57	575	1	12	13:37:26	1850842	0	0	0	0	0	0	0	0	0	0	0	0	0	0	0	0	0	0	0	0	0	0		1	0	0	0	0	0	0	0
010813	13:37:26	10023	Trial2BackEng	N	3	0	1000	1	13	13:37:26	1852761	0	0	0	0	0	0	0	0	0	0	0	0	0	0	0	0	0	0	0	0	0	0		1	0	0	0	0	0	0	0
010813	13:37:26	10023	Trial2BackEng	N	3	0	1000	1	14	13:37:26	1854267	0	0	0	0	0	0	0	0	0	0	0	0	0	0	0	0	0	0	0	0	0	0		1	0	0	0	0	0	0	0
010813	13:37:26	10023	Trial2BackEng	N	3	0	1000	1	15	13:37:26	1855773	0	0	0	0	0	0	0	0	0	0	0	0	0	0	0	0	0	0	0	0	0	0		1	0	0	0	0	0	0	0
010813	13:37:26	10023	Trial2BackEng	N	3	0	1000	1	16	13:37:26	1857279	0	0	0	0	0	0	0	0	0	0	0	0	0	0	0	0	0	0	0	0	0	0		1	0	0	0	0	0	0	0
010813	13:37:26	10023	Trial2BackEng	N	3	0	1000	1	17	13:37:26	1858798	0	0	0	0	0	0	0	0	0	0	0	0	0	0	0	0	0	0	0	0	0	0		1	0	0	0	0	0	0	0
010813	13:37:26	10023	Trial2BackEng	Y	3	0	1000	0	17	13:37:26	1860305	0	0	0	0	0	0	0	0	0	0	0	0	0	0	0	0	0	0	0	0	0	0		1	0	0	0	0	0	0	0
010813	13:37:26	10023	Trial2BackEng	N	3	0	1000	1	18	13:37:26	1861811	0	0	0	0	0	0	0	0	0	0	0	0	0	0	0	0	0	0	0	0	0	0		1	0	0	0	0	0	0	0
010813	13:37:26	10023	Trial2BackEng	N	3	57	641	0	18	13:37:26	1862970	0	0	0	0	0	0	0	0	0	0	0	0	0	0	0	0	0	0	0	0	0	0		1	0	0	0	0	0	0	0
010813	13:37:26	10023	Trial2BackEng	N	3	0	1000	1	19	13:37:26	1864823	0	0	0	0	0	0	0	0	0	0	0	0	0	0	0	0	0	0	0	0	0	0		1	0	0	0	0	0	0	0
010813	13:37:26	10023	Trial2BackEng	N	3	0	1000	1	20	13:37:26	1866329	0	0	0	0	0	0	0	0	0	0	0	0	0	0	0	0	0	0	0	0	0	0		1	0	0	0	0	0	0	0
010813	13:37:26	10023	Trial2BackEng	Y	3	57	843	1	21	13:37:26	1867688	0	0	0	0	0	0	0	0	0	0	0	0	0	0	0	0	0	0	0	0	0	0		1	0	0	0	0	0	0	0
010813	13:37:26	10023	Trial2BackEng	N	3	0	1000	1	22	13:37:26	1869341	0	0	0	0	0	0	0	0	0	0	0	0	0	0	0	0	0	0	0	0	0	0		1	0	0	0	0	0	0	0
010813	13:37:26	10023	Trial2BackEng	N	3	0	1000	1	23	13:37:26	1870847	0	0	0	0	0	0	0	0	0	0	0	0	0	0	0	0	0	0	0	0	0	0		1	0	0	0	0	0	0	0
010813	13:37:26	10023	Trial2BackEng	N	3	0	1000	1	24	13:37:26	1872353	0	0	0	0	0	0	0	0	0	0	0	0	0	0	0	0	0	0	0	0	0	0		1	0	0	0	0	0	0	0
010813	13:37:26	10023	Trial2BackEng	N	3	0	1000	1	25	13:37:26	1873872	0	0	0	0	0	0	0	0	0	0	0	0	0	0	0	0	0	0	0	0	0	0		1	0	0	0	0	0	0	0
010813	13:37:26	10023	Trial2BackEng	N	3	0	1000	1	26	13:37:26	1875378	0	0	0	0	0	0	0	0	0	0	0	0	0	0	0	0	0	0	0	0	0	0		1	0	0	0	0	0	0	0
010813	13:37:26	10023	Trial2BackEng	N	3	0	1000	1	27	13:37:26	1876884	0	0	0	0	0	0	0	0	0	0	0	0	0	0	0	0	0	0	0	0	0	0		1	0	0	0	0	0	0	0
010813	13:37:26	10023	Trial2BackEng	Y	3	0	1000	0	27	13:37:26	1878390	0	0	0	0	0	0	0	0	0	0	0	0	0	0	0	0	0	0	0	0	0	0		1	0	0	0	0	0	0	0
010813	13:37:26	10023	Trial2BackEng	N	3	0	1000	1	28	13:37:26	1879910	0	0	0	0	0	0	0	0	0	0	0	0	0	0	0	0	0	0	0	0	0	0		1	0	0	0	0	0	0	0
010813	13:37:26	10023	Trial2BackEng	N	3	57	493	0	28	13:37:26	1880923	0	0	0	0	0	0	0	0	0	0	0	0	0	0	0	0	0	0	0	0	0	0		1	0	0	0	0	0	0	0
010813	13:37:26	10023	Trial2BackEng	N	3	0	1000	1	29	13:37:26	1882922	0	0	0	0	0	0	0	0	0	0	0	0	0	0	0	0	0	0	0	0	0	0		1	0	0	0	0	0	0	0
010813	13:37:26	10023	Trial2BackEng	Y	3	57	985	1	30	13:37:26	1884428	0	0	0	0	0	0	0	0	0	0	0	0	0	0	0	0	0	0	0	0	0	0		1	0	0	0	0	0	0	0
010813	13:37:26	10023	Trial2BackEng	N	3	0	1000	1	31	13:37:26	1885934	0	0	0	0	0	0	0	0	0	0	0	0	0	0	0	0	0	0	0	0	0	0		1	0	0	0	0	0	0	0
010813	13:37:26	10023	Trial2BackEng	N	3	0	1000	1	32	13:37:26	1887440	0	0	0	0	0	0	0	0	0	0	0	0	0	0	0	0	0	0	0	0	0	0		1	0	0	0	0	0	0	0
010813	13:37:26	10023	Trial2BackEng	N	3	0	1000	1	33	13:37:26	1888959	0	0	0	0	0	0	0	0	0	0	0	0	0	0	0	0	0	0	0	0	0	0		1	0	0	0	0	0	0	0
010813	13:37:26	10023	Trial2BackEng	N	3	0	1000	1	34	13:37:26	1890465	0	0	0	0	0	0	0	0	0	0	0	0	0	0	0	0	0	0	0	0	0	0		1	0	0	0	0	0	0	0
010813	13:37:26	10023	Trial2BackEng	N	3	0	1000	1	35	13:37:26	1891971	0	0	0	0	0	0	0	0	0	0	0	0	0	0	0	0	0	0	0	0	0	0		1	0	0	0	0	0	0	0
010813	13:37:26	10023	Trial2BackEng	N	3	57	607	0	35	13:37:26	1893091	0	0	0	0	0	0	0	0	0	0	0	0	0	0	0	0	0	0	0	0	0	0		1	0	0	0	0	0	0	0
010813	13:37:26	10023	Trial2BackEng	Y	3	0	1000	0	35	13:37:26	1894983	0	0	0	0	0	0	0	0	0	0	0	0	0	0	0	0	0	0	0	0	0	0		1	0	0	0	0	0	0	0
010813	13:37:26	10023	Trial2BackEng	N	3	0	1000	1	36	13:37:26	1896489	0	0	0	0	0	0	0	0	0	0	0	0	0	0	0	0	0	0	0	0	0	0		1	0	0	0	0	0	0	0
010813	13:37:26	10023	Trial2BackEng	N	3	0	1000	1	37	13:37:26	1897995	0	0	0	0	0	0	0	0	0	0	0	0	0	0	0	0	0	0	0	0	0	0		1	0	0	0	0	0	0	0
010813	13:37:26	10023	Trial2BackEng	N	3	0	1000	1	38	13:37:26	1899515	0	0	0	0	0	0	0	0	0	0	0	0	0	0	0	0	0	0	0	0	0	0		1	0	0	0	0	0	0	0
010813	13:37:26	10023	Trial2BackEng	N	3	0	1000	1	39	13:37:26	1901021	0	0	0	0	0	0	0	0	0	0	0	0	0	0	0	0	0	0	0	0	0	0		1	0	0	0	0	0	0	0
010813	13:37:26	10023	Trial2BackEng	Y	3	57	469	1	40	13:37:26	1902007	0	0	0	0	0	0	0	0	0	0	0	0	0	0	0	0	0	0	0	0	0	0		1	0	0	0	0	0	0	0
010813	13:37:26	10023	Trial2BackEng	N	3	0	1000	1	41	13:37:26	1904033	0	0	0	0	0	0	0	0	0	0	0	0	0	0	0	0	0	0	0	0	0	0		1	0	0	0	0	0	0	0
010813	13:37:26	10023	Trial2BackEng	N	3	0	1000	1	42	13:37:26	1905539	0	0	0	0	0	0	0	0	0	0	0	0	0	0	0	0	0	0	0	0	0	0		1	0	0	0	0	0	0	0
010813	13:37:26	10023	Trial2BackEng	N	3	0	1000	1	43	13:37:26	1907058	0	0	0	0	0	0	0	0	0	0	0	0	0	0	0	0	0	0	0	0	0	0		1	0	0	0	0	0	0	0
010813	13:37:26	10023	Trial2BackEng	N	3	0	1000	1	44	13:37:26	1908564	0	0	0	0	0	0	0	0	0	0	0	0	0	0	0	0	0	0	0	0	0	0		1	0	0	0	0	0	0	0
010813	13:37:26	10023	Trial2BackEng	N	3	0	1000	1	45	13:37:26	1910070	0	0	0	0	0	0	0	0	0	0	0	0	0	0	0	0	0	0	0	0	0	0		1	0	0	0	0	0	0	0
010813	13:37:26	10023	Trial2BackEng	Y	3	57	924	1	46	13:37:26	1911510	0	0	0	0	0	0	0	0	0	0	0	0	0	0	0	0	0	0	0	0	0	0		1	0	0	0	0	0	0	0
010813	13:37:26	10023	Trial2BackEng	N	3	0	1000	1	47	13:37:26	1913083	0	0	0	0	0	0	0	0	0	0	0	0	0	0	0	0	0	0	0	0	0	0		1	0	0	0	0	0	0	0
010813	13:37:26	10023	Trial2BackEng	N	3	0	1000	1	48	13:37:26	1914602	0	0	0	0	0	0	0	0	0	0	0	0	0	0	0	0	0	0	0	0	0	0		1	0	0	0	0	0	0	0
010813	13:37:26	10023	Trial2BackEng	N	3	0	1000	1	49	13:37:26	1916108	0	0	0	0	0	0	0	0	0	0	0	0	0	0	0	0	0	0	0	0	0	0		1	0	0	0	0	0	0	0
010813	13:37:26	10023	Trial2BackEng	N	3	0	1000	1	50	13:37:26	1917614	0	0	0	0	0	0	0	0	0	0	0	0	0	0	0	0	0	0	0	0	0	0		1	0	0	0	0	0	0	0
010813	13:37:26	10023	Trial2BackEng	N	3	0	1000	1	51	13:37:26	1919120	0	0	0	0	0	0	0	0	0	0	0	0	0	0	0	0	0	0	0	0	0	0		1	0	0	0	0	0	0	0
010813	13:37:26	10023	Trial2BackEng	N	3	0	1000	1	52	13:37:26	1920626	0	0	0	0	0	0	0	0	0	0	0	0	0	0	0	0	0	0	0	0	0	0		1	0	0	0	0	0	0	0
010813	13:37:26	10023	Trial2BackEng	Y	3	57	656	1	53	13:37:26	1921799	0	0	0	0	0	0	0	0	0	0	0	0	0	0	0	0	0	0	0	0	0	0		1	0	0	0	0	0	0	0
010813	13:37:26	10023	Trial2BackEng	N	3	0	1000	1	54	13:37:26	1923638	0	0	0	0	0	0	0	0	0	0	0	0	0	0	0	0	0	0	0	0	0	0		1	0	0	0	0	0	0	0
010813	13:37:26	10023	Trial2BackEng	N	3	57	155	0	54	13:37:26	1924304	0	0	0	0	0	0	0	0	0	0	0	0	0	0	0	0	0	0	0	0	0	0		1	0	0	0	0	0	0	0
010813	13:37:26	10023	Trial2BackEng	Y	3	0	1000	0	54	13:37:26	1926650	0	0	0	0	0	0	0	0	0	0	0	0	0	0	0	0	0	0	0	0	0	0		1	0	0	0	0	0	0	0
010813	13:37:26	10023	Trial2BackEng	N	3	0	1000	1	55	13:37:26	1928156	0	0	0	0	0	0	0	0	0	0	0	0	0	0	0	0	0	0	0	0	0	0		1	0	0	0	0	0	0	0
010813	13:37:26	10023	Trial2BackEng	N	3	0	1000	1	56	13:37:26	1929662	0	0	0	0	0	0	0	0	0	0	0	0	0	0	0	0	0	0	0	0	0	0		1	0	0	0	0	0	0	0
010813	13:37:26	10023	Trial2BackEng	N	3	0	1000	1	57	13:37:26	1931168	0	0	0	0	0	0	0	0	0	0	0	0	0	0	0	0	0	0	0	0	0	0		1	0	0	0	0	0	0	0
010813	13:37:26	10023	Trial2BackEng	N	3	0	1000	1	58	13:37:26	1932674	0	0	0	0	0	0	0	0	0	0	0	0	0	0	0	0	0	0	0	0	0	0		1	0	0	0	0	0	0	0
010813	13:37:26	10023	Trial2BackEng	N	3	0	1000	1	59	13:37:26	1934180	0	0	0	0	0	0	0	0	0	0	0	0	0	0	0	0	0	0	0	0	0	0		1	0	0	0	0	0	0	0
010813	13:37:26	10023	Trial2BackEng	N	3	0	1000	1	60	13:37:26	1935700	0	0	0	0	0	0	0	0	0	0	0	0	0	0	0	0	0	0	0	0	0	0		1	0	0	0	0	0	0	0
010813	13:37:26	10023	Trial2BackEng	N	3	0	1000	1	61	13:37:26	1937206	0	0	0	0	0	0	0	0	0	0	0	0	0	0	0	0	0	0	0	0	0	0		1	0	0	0	0	0	0	0
010813	13:37:26	10023	Trial2BackEng	N	3	0	1000	1	62	13:37:26	1938712	0	0	0	0	0	0	0	0	0	0	0	0	0	0	0	0	0	0	0	0	0	0		1	0	0	0	0	0	0	0
010813	13:37:26	10023	Trial2BackEng	N	3	0	1000	1	63	13:37:26	1940218	0	0	0	0	0	0	0	0	0	0	0	0	0	0	0	0	0	0	0	0	0	0		1	0	0	0	0	0	0	0
010813	13:37:26	10023	Trial2BackEng	N	3	0	1000	1	64	13:37:26	1941737	0	0	0	0	0	0	0	0	0	0	0	0	0	0	0	0	0	0	0	0	0	0		1	0	0	0	0	0	0	0
010813	13:37:26	10023	Trial2BackEng	Y	3	0	1000	0	64	13:37:26	1943243	0	0	0	0	0	0	0	0	0	0	0	0	0	0	0	0	0	0	0	0	0	0		1	0	0	0	0	0	0	0
010813	13:37:26	10023	Trial2BackEng	N	3	0	1000	1	65	13:37:26	1944763	0	0	0	0	0	0	0	0	0	0	0	0	0	0	0	0	0	0	0	0	0	0		1	0	0	0	0	0	0	0
010813	13:37:26	10023	Trial2BackEng	N	3	0	1000	1	66	13:37:26	1946269	0	0	0	0	0	0	0	0	0	0	0	0	0	0	0	0	0	0	0	0	0	0		1	0	0	0	0	0	0	0
010813	13:37:26	10023	Trial2BackEng	N	3	0	1000	1	67	13:37:26	1947788	0	0	0	0	0	0	0	0	0	0	0	0	0	0	0	0	0	0	0	0	0	0		1	0	0	0	0	0	0	0
010813	13:37:26	10023	Trial2BackEng	Y	3	57	773	1	68	13:37:26	1949081	0	0	0	0	0	0	0	0	0	0	0	0	0	0	0	0	0	0	0	0	0	0		1	0	0	0	0	0	0	0
010813	13:37:26	10023	Trial2BackEng	N	3	0	1000	1	69	13:37:26	1950800	0	0	0	0	0	0	0	0	0	0	0	0	0	0	0	0	0	0	0	0	0	0		1	0	0	0	0	0	0	0
010813	13:37:26	10023	Trial2BackEng	N	3	0	1000	1	70	13:37:26	1952306	0	0	0	0	0	0	0	0	0	0	0	0	0	0	0	0	0	0	0	0	0	0		1	0	0	0	0	0	0	0
010813	13:37:26	10023	Trial2BackEng	N	3	0	1000	1	71	13:37:26	1953812	0	0	0	0	0	0	0	0	0	0	0	0	0	0	0	0	0	0	0	0	0	0		1	0	0	0	0	0	0	0
010813	13:37:26	10023	Trial2BackEng	N	3	0	1000	1	72	13:37:26	1955332	0	0	0	0	0	0	0	0	0	0	0	0	0	0	0	0	0	0	0	0	0	0		1	0	0	0	0	0	0	0
010813	13:37:26	10023	Trial2BackEng	N	3	0	1000	1	73	13:37:26	1956838	0	0	0	0	0	0	0	0	0	0	0	0	0	0	0	0	0	0	0	0	0	0		1	0	0	0	0	0	0	0
010813	13:37:26	10023	Trial2BackEng	Y	3	57	683	1	74	13:37:26	1958037	0	0	0	0	0	0	0	0	0	0	0	0	0	0	0	0	0	0	0	0	0	0		1	0	0	0	0	0	0	0
010813	13:37:26	10023	Trial2BackEng	N	3	0	1000	1	75	13:37:26	1959850	0	0	0	0	0	0	0	0	0	0	0	0	0	0	0	0	0	0	0	0	0	0		1	0	0	0	0	0	0	0
010813	13:37:26	10023	Trial2BackEng	N	3	0	1000	1	76	13:37:26	1961369	0	0	0	0	0	0	0	0	0	0	0	0	0	0	0	0	0	0	0	0	0	0		1	0	0	0	0	0	0	0
010813	13:37:26	10023	Trial2BackEng	N	3	0	1000	1	77	13:37:26	1962875	0	0	0	0	0	0	0	0	0	0	0	0	0	0	0	0	0	0	0	0	0	0		1	0	0	0	0	0	0	0
010813	13:37:26	10023	Trial2BackEng	N	3	0	1000	1	78	13:37:26	1964381	0	0	0	0	0	0	0	0	0	0	0	0	0	0	0	0	0	0	0	0	0	0		1	0	0	0	0	0	0	0
010813	13:37:26	10023	Trial2BackEng	N	3	0	1000	1	79	13:37:26	1965887	0	0	0	0	0	0	0	0	0	0	0	0	0	0	0	0	0	0	0	0	0	0		1	0	0	0	0	0	0	0
010813	13:37:26	10023	Trial2BackEng	N	3	0	1000	1	80	13:37:26	1967393	0	0	0	0	0	0	0	0	0	0	0	0	0	0	0	0	0	0	0	0	0	0		1	0	0	0	0	0	0	0
010813	13:37:26	10023	Trial2BackEng	N	3	0	1000	1	81	13:37:26	1968899	0	0	0	0	0	0	0	0	0	0	0	0	0	0	0	0	0	0	0	0	0	0		1	0	0	0	0	0	0	0
010813	13:37:26	10023	Trial2BackEng	N	3	0	1000	1	82	13:37:26	1970419	0	0	0	0	0	0	0	0	0	0	0	0	0	0	0	0	0	0	0	0	0	0		1	0	0	0	0	0	0	0
010813	13:37:26	10023	Trial2BackEng	N	3	0	1000	1	83	13:37:26	1971925	0	0	0	0	0	0	0	0	0	0	0	0	0	0	0	0	0	0	0	0	0	0		1	0	0	0	0	0	0	0
010813	13:37:26	10023	Trial2BackEng	Y	3	57	555	1	84	13:37:26	1972991	0	0	0	0	0	0	0	0	0	0	0	0	0	0	0	0	0	0	0	0	0	0		1	0	0	0	0	0	0	0
010813	13:37:26	10023	Trial2BackEng	N	3	0	1000	1	85	13:37:26	1974937	0	0	0	0	0	0	0	0	0	0	0	0	0	0	0	0	0	0	0	0	0	0		1	0	0	0	0	0	0	0
010813	13:37:26	10023	Trial2BackEng	N	3	0	1000	1	86	13:37:26	1976443	0	0	0	0	0	0	0	0	0	0	0	0	0	0	0	0	0	0	0	0	0	0		1	0	0	0	0	0	0	0
010813	13:37:26	10023	Trial2BackEng	N	3	0	1000	1	87	13:37:26	1977962	0	0	0	0	0	0	0	0	0	0	0	0	0	0	0	0	0	0	0	0	0	0		1	0	0	0	0	0	0	0
010813	13:37:26	10023	Trial2BackEng	N	3	0	1000	1	88	13:37:26	1979482	0	0	0	0	0	0	0	0	0	0	0	0	0	0	0	0	0	0	0	0	0	0		1	0	0	0	0	0	0	0
010813	13:37:26	10023	Trial2BackEng	N	3	0	1000	1	89	13:37:26	1980988	0	0	0	0	0	0	0	0	0	0	0	0	0	0	0	0	0	0	0	0	0	0		1	0	0	0	0	0	0	0
010813	13:37:26	10023	Trial2BackEng	N	3	0	1000	1	90	13:37:26	1982494	0	0	0	0	0	0	0	0	0	0	0	0	0	0	0	0	0	0	0	0	0	0		1	0	0	0	0	0	0	0
010813	13:37:26	10023	Trial2BackEng	N	3	0	1000	1	91	13:37:26	1984000	0	0	0	0	0	0	0	0	0	0	0	0	0	0	0	0	0	0	0	0	0	0		1	0	0	0	0	0	0	0
010813	13:37:26	10023	Trial2BackEng	N	3	0	1000	1	92	13:37:26	1985506	0	0	0	0	0	0	0	0	0	0	0	0	0	0	0	0	0	0	0	0	0	0		1	0	0	0	0	0	0	0
010813	13:37:26	10023	Trial2BackEng	Y	3	57	430	1	93	13:37:26	1986452	0	0	0	0	0	0	0	0	0	0	0	0	0	0	0	0	0	0	0	0	0	0		1	0	0	0	0	0	0	0
010813	13:37:26	10023	Trial2BackEng	N	3	0	1000	1	94	13:37:26	1988518	0	0	0	0	0	0	0	0	0	0	0	0	0	0	0	0	0	0	0	0	0	0		1	0	0	0	0	0	0	0
010813	13:37:26	10023	Trial2BackEng	N	3	0	1000	1	95	13:37:26	1990024	0	0	0	0	0	0	0	0	0	0	0	0	0	0	0	0	0	0	0	0	0	0		1	0	0	0	0	0	0	0
010813	13:37:26	10023	Trial2BackEng	N	3	0	1000	1	96	13:37:26	1991530	0	0	0	0	0	0	0	0	0	0	0	0	0	0	0	0	0	0	0	0	0	0		1	0	0	0	0	0	0	0
010813	13:37:26	10023	Trial2BackEng	N	3	0	1000	1	97	13:37:26	1993036	0	0	0	0	0	0	0	0	0	0	0	0	0	0	0	0	0	0	0	0	0	0		1	0	0	0	0	0	0	0
010813	13:37:26	10023	Trial2BackEng	Y	3	57	723	1	98	13:37:26	1994275	0	0	0	0	0	0	0	0	0	0	0	0	0	0	0	0	0	0	0	0	0	0		1	0	0	0	0	0	0	0
010813	13:37:26	10023	Trial2BackEng	N	3	0	1000	1	99	13:37:26	1996048	0	0	0	0	0	0	0	0	0	0	0	0	0	0	0	0	0	0	0	0	0	0		1	0	0	0	0	0	0	0
010813	13:37:26	10023	Trial2BackEng	N	3	0	1000	1	100	13:37:26	1997554	0	0	0	0	0	0	0	0	0	0	0	0	0	0	0	0	0	0	0	0	0	0		1	0	0	0	0	0	0	0
010813	13:37:26	10023	Trial2BackEng	N	3	0	1000	1	101	13:37:26	1999074	0	0	0	0	0	0	0	0	0	0	0	0	0	0	0	0	0	0	0	0	0	0		1	0	0	0	0	0	0	0
010813	13:37:26	10023	Trial2BackEng	Y	3	0	1000	0	101	13:37:26	2000593	0	0	0	0	0	0	0	0	0	0	0	0	0	0	0	0	0	0	0	0	0	0		1	0	0	0	0	0	0	0
010813	13:37:26	10023	Trial2BackEng	N	3	0	1000	1	102	13:37:26	2002099	0	0	0	0	0	0	0	0	0	0	0	0	0	0	0	0	0	0	0	0	0	0		1	0	0	0	0	0	0	0
010813	13:37:26	10023	Trial2BackEng	N	3	0	1000	1	103	13:37:26	2003605	0	0	0	0	0	0	0	0	0	0	0	0	0	0	0	0	0	0	0	0	0	0		1	0	0	0	0	0	0	0
010813	13:37:26	10023	Trial2BackEng	N	3	0	1000	1	104	13:37:26	2005124	0	0	0	0	0	0	0	0	0	0	0	0	0	0	0	0	0	0	0	0	0	0		1	0	0	0	0	0	0	0
010813	13:37:26	10023	Trial2BackEng	N	3	0	1000	1	105	13:37:26	2006630	0	0	0	0	0	0	0	0	0	0	0	0	0	0	0	0	0	0	0	0	0	0		1	0	0	0	0	0	0	0
010813	13:37:26	10023	Trial2BackEng	N	3	0	1000	1	106	13:37:26	2008150	0	0	0	0	0	0	0	0	0	0	0	0	0	0	0	0	0	0	0	0	0	0		1	0	0	0	0	0	0	0
010813	13:37:26	10023	Trial2BackEng	Y	3	57	665	1	107	13:37:26	2009322	0	0	0	0	0	0	0	0	0	0	0	0	0	0	0	0	0	0	0	0	0	0		1	0	0	0	0	0	0	0
010813	13:37:26	10023	Trial2BackEng	N	3	0	1000	1	108	13:37:26	2011162	0	0	0	0	0	0	0	0	0	0	0	0	0	0	0	0	0	0	0	0	0	0		1	0	0	0	0	0	0	0
010813	13:37:26	10023	Trial2BackEng	N	3	0	1000	1	109	13:37:26	2012668	0	0	0	0	0	0	0	0	0	0	0	0	0	0	0	0	0	0	0	0	0	0		1	0	0	0	0	0	0	0
010813	13:37:26	10023	Trial2BackEng	N	3	0	1000	1	110	13:37:26	2014174	0	0	0	0	0	0	0	0	0	0	0	0	0	0	0	0	0	0	0	0	0	0		1	0	0	0	0	0	0	0
010813	13:37:26	10023	Trial2BackEng	Y	3	57	800	1	111	13:37:26	2015493	0	0	0	0	0	0	0	0	0	0	0	0	0	0	0	0	0	0	0	0	0	0		1	0	0	0	0	0	0	0
010813	13:37:26	10023	Memory1R6mo	Score	5	M1	15283	0	111	13:37:26	2061475	0	0	0	0	0	0	0	0	0	0	0	0	0	0	0	0	0	0	0	0	0	0		1	0	0	0	0	0	0	0
010813	13:37:26	10023	Memory1R6mo	Score	5	M3	196	0	111	13:37:26	2061715	0	0	0	0	0	0	0	0	0	0	0	0	0	0	0	0	0	0	0	0	0	0		1	0	0	0	0	0	0	0
010813	13:37:26	10023	Memory1R6mo	Score	5	M2	628	0	111	13:37:26	2062394	0	0	0	0	0	0	0	0	0	0	0	0	0	0	0	0	0	0	0	0	0	0		1	0	0	0	0	0	0	0
010813	13:37:26	10023	Memory1R6mo	Score	5	M4	244	0	111	13:37:26	2062687	0	0	0	0	0	0	0	0	0	0	0	0	0	0	0	0	0	0	0	0	0	0		1	0	0	0	0	0	0	0
010813	13:37:26	10023	Memory1R6mo	Score	5	Done	2631	0	111	13:37:26	2065366	0	0	0	0	0	0	0	0	0	0	0	0	0	0	0	0	0	0	0	0	0	0		1	0	0	0	0	0	0	0
010813	13:37:26	10023	Memory2R6mo	Score2	5	11	9983	0	111	13:37:26	2094874	0	0	0	0	0	0	0	0	0	0	0	0	0	0	0	0	0	0	0	0	0	0		1	0	0	0	0	0	0	0
010813	13:37:26	10023	Memory2R6mo	Score2	5	22	155	0	111	13:37:26	2095074	0	0	0	0	0	0	0	0	0	0	0	0	0	0	0	0	0	0	0	0	0	0		1	0	0	0	0	0	0	0
010813	13:37:26	10023	Memory2R6mo	Score2	5	33	196	0	111	13:37:26	2095314	0	0	0	0	0	0	0	0	0	0	0	0	0	0	0	0	0	0	0	0	0	0		1	0	0	0	0	0	0	0
010813	13:37:26	10023	Memory2R6mo	Score2	5	44	204	0	111	13:37:26	2095567	0	0	0	0	0	0	0	0	0	0	0	0	0	0	0	0	0	0	0	0	0	0		1	0	0	0	0	0	0	0
010813	13:37:26	10023	Memory2R6mo	Score2	5	55	190	0	111	13:37:26	2095807	0	0	0	0	0	0	0	0	0	0	0	0	0	0	0	0	0	0	0	0	0	0		1	0	0	0	0	0	0	0
010813	13:37:26	10023	Memory2R6mo	Score2	5	66	161	0	111	13:37:26	2096033	0	0	0	0	0	0	0	0	0	0	0	0	0	0	0	0	0	0	0	0	0	0		1	0	0	0	0	0	0	0
010813	13:37:26	10023	Memory2R6mo	Score2	5	77	196	0	111	13:37:26	2096273	0	0	0	0	0	0	0	0	0	0	0	0	0	0	0	0	0	0	0	0	0	0		1	0	0	0	0	0	0	0
010813	13:37:26	10023	Memory2R6mo	Score2	5	88	300	0	111	13:37:26	2096620	0	0	0	0	0	0	0	0	0	0	0	0	0	0	0	0	0	0	0	0	0	0		1	0	0	0	0	0	0	0
010813	13:37:26	10023	Memory2R6mo	Score2	5	Done	442	0	111	13:37:26	2097113	0	0	0	0	0	0	0	0	0	0	0	0	0	0	0	0	0	0	0	0	0	0		1	0	0	0	0	0	0	0
010813	13:37:26	10023	Memory3R6mo	Score3	5	111	9171	0	111	13:37:26	2126328	0	0	0	0	0	0	0	0	0	0	0	0	0	0	0	0	0	0	0	0	0	0		1	0	0	0	0	0	0	0
010813	13:37:26	10023	Memory3R6mo	Score3	5	333	173	0	111	13:37:26	2126554	0	0	0	0	0	0	0	0	0	0	0	0	0	0	0	0	0	0	0	0	0	0		1	0	0	0	0	0	0	0
010813	13:37:26	10023	Memory3R6mo	Score3	5	222	290	0	111	13:37:26	2126901	0	0	0	0	0	0	0	0	0	0	0	0	0	0	0	0	0	0	0	0	0	0		1	0	0	0	0	0	0	0
010813	13:37:26	10023	Memory3R6mo	Score3	5	444	304	0	111	13:37:26	2127261	0	0	0	0	0	0	0	0	0	0	0	0	0	0	0	0	0	0	0	0	0	0		1	0	0	0	0	0	0	0
010813	13:37:26	10023	Memory3R6mo	Score3	5	666	264	0	111	13:37:26	2127580	0	0	0	0	0	0	0	0	0	0	0	0	0	0	0	0	0	0	0	0	0	0		1	0	0	0	0	0	0	0
010813	13:37:26	10023	Memory3R6mo	Score3	5	555	304	0	111	13:37:26	2127940	0	0	0	0	0	0	0	0	0	0	0	0	0	0	0	0	0	0	0	0	0	0		1	0	0	0	0	0	0	0
010813	13:37:26	10023	Memory3R6mo	Score3	5	777	416	0	111	13:37:26	2128407	0	0	0	0	0	0	0	0	0	0	0	0	0	0	0	0	0	0	0	0	0	0		1	0	0	0	0	0	0	0
010813	13:37:26	10023	Memory3R6mo	Score3	5	888	222	0	111	13:37:26	2128673	0	0	0	0	0	0	0	0	0	0	0	0	0	0	0	0	0	0	0	0	0	0		1	0	0	0	0	0	0	0
010813	13:37:26	10023	Memory3R6mo	Score3	5	Done	571	0	111	13:37:26	2129300	0	0	0	0	0	0	0	0	0	0	0	0	0	0	0	0	0	0	0	0	0	0		1	0	0	0	0	0	0	0
010813	13:37:26	10023	LoriaEngLH3	Stop	6	4	3515	0	111	13:37:26	2197406	0	0	0	0	0	0	0	0	0	0	0	0	0	0	0	0	0	0	0	0	0	0		1	0	0	0	0	0	0	0
010813	13:37:26	10023	EngTrail	Trails	7	1Trails	907	0	111	13:37:26	2226446	0	0	0	0	0	0	0	0	0	0	0	0	0	0	0	0	0	0	0	0	0	0		1	0	0	0	0	0	0	0
010813	13:37:26	10023	Serial7Eng6mo	Serial7Eng6mo	8	73	5597	0	111	13:37:26	2244333	1	0	0	0	0	0	0	0	0	0	0	0	0	0	0	0	0	0	0	0	0	0		1	0	0	0	0	0	0	0
010813	13:37:26	10023	Serial7Eng6mo	Serial7Eng6mo	8	66	2558	0	111	13:37:26	2246907	2	0	0	0	0	0	0	0	0	0	0	0	0	0	0	0	0	0	0	0	0	0		1	0	0	0	0	0	0	0
010813	13:37:26	10023	Serial7Eng6mo	Serial7Eng6mo	8	59	3103	0	111	13:37:26	2250038	3	0	0	0	0	0	0	0	0	0	0	0	0	0	0	0	0	0	0	0	0	0		1	0	0	0	0	0	0	0
010813	13:37:26	10023	Serial7Eng6mo	Serial7Eng6mo	8	52	2109	0	111	13:37:26	2252171	4	0	0	0	0	0	0	0	0	0	0	0	0	0	0	0	0	0	0	0	0	0		1	0	0	0	0	0	0	0
010813	13:37:26	10023	Serial7Eng6mo	Serial7Eng6mo	8	47	3497	0	111	13:37:26	2255690	4	0	0	0	0	0	0	0	0	0	0	0	0	0	0	0	0	0	0	0	0	0		1	0	0	0	0	0	0	0
010813	13:37:26	10023	corsiblockEngFwrd	recallseqEngFwrd	9	7	1457	0	111	13:37:26	2287409	4	0	0	0	0	0	0	0	0	0	0	0	0	0	0	0	0	0	0	0	0	0		1	0	0	0	0	0	0	0
010813	13:37:26	10023	corsiblockEngFwrd	recallseqEngFwrd	9	2	1287	0	111	13:37:26	2288742	4	0	0	0	0	0	0	0	0	0	0	0	0	0	0	0	0	0	0	0	0	0		1	0	0	0	0	0	0	0
010813	13:37:26	10023	corsiblockEngFwrd	recallseqEngFwrd	9	doneCorsiEng	3394	0	111	13:37:26	2292181	4	0	0	0	0	0	0	0	0	0	0	0	0	0	0	2	0	0	0	0	0	0		1	0	0	0	0	0	0	0
010813	13:37:26	10023	corsiblockEngFwrd	recallseqEngFwrd	9	8	950	0	111	13:37:26	2299258	4	0	0	0	0	0	0	0	0	0	0	0	0	0	0	2	0	0	0	0	0	0		1	0	0	0	0	0	0	0
010813	13:37:26	10023	corsiblockEngFwrd	recallseqEngFwrd	9	6	1118	0	111	13:37:26	2300431	4	0	0	0	0	0	0	0	0	0	0	0	0	0	0	2	0	0	0	0	0	0		1	0	0	0	0	0	0	0
010813	13:37:26	10023	corsiblockEngFwrd	recallseqEngFwrd	9	3	810	0	111	13:37:26	2301297	4	0	0	0	0	0	0	0	0	0	0	0	0	0	0	2	0	0	0	0	0	0		1	0	0	0	0	0	0	0
010813	13:37:26	10023	corsiblockEngFwrd	recallseqEngFwrd	9	doneCorsiEng	1687	0	111	13:37:26	2303030	4	0	0	0	0	0	0	0	0	0	0	0	0	0	0	3	0	0	0	0	0	0		1	0	0	0	0	0	0	0
010813	13:37:26	10023	corsiblockEngFwrd	recallseqEngFwrd	9	9	1165	0	111	13:37:26	2311320	4	0	0	0	0	0	0	0	0	0	0	0	0	0	0	3	0	0	0	0	0	0		1	0	0	0	0	0	0	0
010813	13:37:26	10023	corsiblockEngFwrd	recallseqEngFwrd	9	4	1360	0	111	13:37:26	2312732	4	0	0	0	0	0	0	0	0	0	0	0	0	0	0	3	0	0	0	0	0	0		1	0	0	0	0	0	0	0
010813	13:37:26	10023	corsiblockEngFwrd	recallseqEngFwrd	9	5	796	0	111	13:37:26	2313572	4	0	0	0	0	0	0	0	0	0	0	0	0	0	0	3	0	0	0	0	0	0		1	0	0	0	0	0	0	0
010813	13:37:26	10023	corsiblockEngFwrd	recallseqEngFwrd	9	1	1692	0	111	13:37:26	2315318	4	0	0	0	0	0	0	0	0	0	0	0	0	0	0	3	0	0	0	0	0	0		1	0	0	0	0	0	0	0
010813	13:37:26	10023	corsiblockEngFwrd	recallseqEngFwrd	9	doneCorsiEng	3002	0	111	13:37:26	2318370	4	0	0	0	0	0	0	0	0	0	0	0	0	0	0	4	0	0	0	0	0	0		1	0	0	0	0	0	0	0
010813	13:37:26	10023	corsiblockEngFwrd	recallseqEngFwrd	9	8	1273	0	111	13:37:26	2327766	4	0	0	0	0	0	0	0	0	0	0	0	0	0	0	4	0	0	0	0	0	0		1	0	0	0	0	0	0	0
010813	13:37:26	10023	corsiblockEngFwrd	recallseqEngFwrd	9	5	977	0	111	13:37:26	2328792	4	0	0	0	0	0	0	0	0	0	0	0	0	0	0	4	0	0	0	0	0	0		1	0	0	0	0	0	0	0
010813	13:37:26	10023	corsiblockEngFwrd	recallseqEngFwrd	9	3	775	0	111	13:37:26	2329619	4	0	0	0	0	0	0	0	0	0	0	0	0	0	0	4	0	0	0	0	0	0		1	0	0	0	0	0	0	0
010813	13:37:26	10023	corsiblockEngFwrd	recallseqEngFwrd	9	9	1309	0	111	13:37:26	2330978	4	0	0	0	0	0	0	0	0	0	0	0	0	0	0	4	0	0	0	0	0	0		1	0	0	0	0	0	0	0
010813	13:37:26	10023	corsiblockEngFwrd	recallseqEngFwrd	9	1	805	0	111	13:37:26	2331831	4	0	0	0	0	0	0	0	0	0	0	0	0	0	0	4	0	0	0	0	0	0		1	0	0	0	0	0	0	0
010813	13:37:26	10023	corsiblockEngFwrd	recallseqEngFwrd	9	doneCorsiEng	1640	0	111	13:37:26	2333524	4	0	0	0	0	0	0	0	0	0	0	0	0	0	0	4	0	0	0	0	0	0		1	0	0	0	0	0	0	0
010813	13:37:26	10023	corsiblockEngFwrd	recallseqEngFwrd	9	2	830	0	111	13:37:26	2342440	4	0	0	0	0	0	0	0	0	0	0	0	0	0	0	4	0	0	0	0	0	0		1	0	0	0	0	0	0	0
010813	13:37:26	10023	corsiblockEngFwrd	recallseqEngFwrd	9	5	823	0	111	13:37:26	2343320	4	0	0	0	0	0	0	0	0	0	0	0	0	0	0	4	0	0	0	0	0	0		1	0	0	0	0	0	0	0
010813	13:37:26	10023	corsiblockEngFwrd	recallseqEngFwrd	9	6	791	0	111	13:37:26	2344159	4	0	0	0	0	0	0	0	0	0	0	0	0	0	0	4	0	0	0	0	0	0		1	0	0	0	0	0	0	0
010813	13:37:26	10023	corsiblockEngFwrd	recallseqEngFwrd	9	9	959	0	111	13:37:26	2345172	4	0	0	0	0	0	0	0	0	0	0	0	0	0	0	4	0	0	0	0	0	0		1	0	0	0	0	0	0	0
010813	13:37:26	10023	corsiblockEngFwrd	recallseqEngFwrd	9	2	1051	0	111	13:37:26	2346278	4	0	0	0	0	0	0	0	0	0	0	0	0	0	0	4	0	0	0	0	0	0		1	0	0	0	0	0	0	0
010813	13:37:26	10023	corsiblockEngFwrd	recallseqEngFwrd	9	doneCorsiEng	1272	0	111	13:37:26	2347598	4	0	0	0	0	0	0	0	0	0	0	0	0	0	0	5	0	0	0	0	0	0		1	0	0	0	0	0	0	0
010813	13:37:26	10023	corsiblockEngFwrd	recallseqEngFwrd	9	9	1353	0	111	13:37:26	2357061	4	0	0	0	0	0	0	0	0	0	0	0	0	0	0	5	0	0	0	0	0	0		1	0	0	0	0	0	0	0
010813	13:37:26	10023	corsiblockEngFwrd	recallseqEngFwrd	9	4	986	0	111	13:37:26	2358100	4	0	0	0	0	0	0	0	0	0	0	0	0	0	0	5	0	0	0	0	0	0		1	0	0	0	0	0	0	0
010813	13:37:26	10023	corsiblockEngFwrd	recallseqEngFwrd	9	2	922	0	111	13:37:26	2359073	4	0	0	0	0	0	0	0	0	0	0	0	0	0	0	5	0	0	0	0	0	0		1	0	0	0	0	0	0	0
010813	13:37:26	10023	corsiblockEngFwrd	recallseqEngFwrd	9	5	957	0	111	13:37:26	2360086	4	0	0	0	0	0	0	0	0	0	0	0	0	0	0	5	0	0	0	0	0	0		1	0	0	0	0	0	0	0
010813	13:37:26	10023	corsiblockEngFwrd	recallseqEngFwrd	9	2	2256	0	111	13:37:26	2362392	4	0	0	0	0	0	0	0	0	0	0	0	0	0	0	5	0	0	0	0	0	0		1	0	0	0	0	0	0	0
010813	13:37:26	10023	corsiblockEngFwrd	recallseqEngFwrd	9	6	1310	0	111	13:37:26	2363751	4	0	0	0	0	0	0	0	0	0	0	0	0	0	0	5	0	0	0	0	0	0		1	0	0	0	0	0	0	0
010813	13:37:26	10023	corsiblockEngFwrd	recallseqEngFwrd	9	doneCorsiEng	1023	0	111	13:37:26	2364831	4	0	0	0	0	0	0	0	0	0	0	0	0	0	0	5	0	0	0	0	0	0		1	0	0	0	0	0	0	0
010813	13:37:26	10023	corsiblockEngFwrd	recallseqEngFwrd	9	3	1331	0	111	13:37:26	2375253	4	0	0	0	0	0	0	0	0	0	0	0	0	0	0	5	0	0	0	0	0	0		1	0	0	0	0	0	0	0
010813	13:37:26	10023	corsiblockEngFwrd	recallseqEngFwrd	9	4	825	0	111	13:37:26	2376133	4	0	0	0	0	0	0	0	0	0	0	0	0	0	0	5	0	0	0	0	0	0		1	0	0	0	0	0	0	0
010813	13:37:26	10023	corsiblockEngFwrd	recallseqEngFwrd	9	8	1065	0	111	13:37:26	2377252	4	0	0	0	0	0	0	0	0	0	0	0	0	0	0	5	0	0	0	0	0	0		1	0	0	0	0	0	0	0
010813	13:37:26	10023	corsiblockEngFwrd	recallseqEngFwrd	9	4	1898	0	111	13:37:26	2379198	4	0	0	0	0	0	0	0	0	0	0	0	0	0	0	5	0	0	0	0	0	0		1	0	0	0	0	0	0	0
010813	13:37:26	10023	corsiblockEngFwrd	recallseqEngFwrd	9	1	1472	0	111	13:37:26	2380717	4	0	0	0	0	0	0	0	0	0	0	0	0	0	0	5	0	0	0	0	0	0		1	0	0	0	0	0	0	0
010813	13:37:26	10023	corsiblockEngFwrd	recallseqEngFwrd	9	doneCorsiEng	1504	0	111	13:37:26	2382277	4	0	0	0	0	0	0	0	0	0	0	0	0	0	0	5	0	0	0	0	0	0		1	0	0	0	0	0	0	0
010813	13:37:26	10023	corsiblockEngRev	recallseqEngRev	10	6	1477	0	111	13:37:26	2396684	4	0	0	0	0	0	0	0	0	0	0	0	0	0	0	5	0	0	0	0	0	0		1	0	0	0	0	0	0	0
010813	13:37:26	10023	corsiblockEngRev	recallseqEngRev	10	8	897	0	111	13:37:26	2397630	4	0	0	0	0	0	0	0	0	0	0	0	0	0	0	5	0	0	0	0	0	0		1	0	0	0	0	0	0	0
010813	13:37:26	10023	corsiblockEngRev	recallseqEngRev	10	doneCorsiEng	1119	0	111	13:37:26	2398803	4	0	0	0	0	0	0	0	0	0	0	0	0	0	0	5	2	0	0	0	0	0		1	0	0	0	0	0	0	0
010813	13:37:26	10023	corsiblockEngRev	recallseqEngRev	10	1	1292	0	111	13:37:26	2406227	4	0	0	0	0	0	0	0	0	0	0	0	0	0	0	5	2	0	0	0	0	0		1	0	0	0	0	0	0	0
010813	13:37:26	10023	corsiblockEngRev	recallseqEngRev	10	4	778	0	111	13:37:26	2407053	4	0	0	0	0	0	0	0	0	0	0	0	0	0	0	5	2	0	0	0	0	0		1	0	0	0	0	0	0	0
010813	13:37:26	10023	corsiblockEngRev	recallseqEngRev	10	9	880	0	111	13:37:26	2407986	4	0	0	0	0	0	0	0	0	0	0	0	0	0	0	5	2	0	0	0	0	0		1	0	0	0	0	0	0	0
010813	13:37:26	10023	corsiblockEngRev	recallseqEngRev	10	doneCorsiEng	946	0	111	13:37:26	2408986	4	0	0	0	0	0	0	0	0	0	0	0	0	0	0	5	3	0	0	0	0	0		1	0	0	0	0	0	0	0
010813	13:37:26	10023	corsiblockEngRev	recallseqEngRev	10	7	990	0	111	13:37:26	2417102	4	0	0	0	0	0	0	0	0	0	0	0	0	0	0	5	3	0	0	0	0	0		1	0	0	0	0	0	0	0
010813	13:37:26	10023	corsiblockEngRev	recallseqEngRev	10	5	870	0	111	13:37:26	2418022	4	0	0	0	0	0	0	0	0	0	0	0	0	0	0	5	3	0	0	0	0	0		1	0	0	0	0	0	0	0
010813	13:37:26	10023	corsiblockEngRev	recallseqEngRev	10	4	782	0	111	13:37:26	2418848	4	0	0	0	0	0	0	0	0	0	0	0	0	0	0	5	3	0	0	0	0	0		1	0	0	0	0	0	0	0
010813	13:37:26	10023	corsiblockEngRev	recallseqEngRev	10	3	884	0	111	13:37:26	2419781	4	0	0	0	0	0	0	0	0	0	0	0	0	0	0	5	3	0	0	0	0	0		1	0	0	0	0	0	0	0
010813	13:37:26	10023	corsiblockEngRev	recallseqEngRev	10	doneCorsiEng	1327	0	111	13:37:26	2421154	4	0	0	0	0	0	0	0	0	0	0	0	0	0	0	5	3	0	0	0	0	0		1	0	0	0	0	0	0	0
010813	13:37:26	10023	corsiblockEngRev	recallseqEngRev	10	6	1261	0	111	13:37:26	2429497	4	0	0	0	0	0	0	0	0	0	0	0	0	0	0	5	3	0	0	0	0	0		1	0	0	0	0	0	0	0
010813	13:37:26	10023	corsiblockEngRev	recallseqEngRev	10	8	1035	0	111	13:37:26	2430577	4	0	0	0	0	0	0	0	0	0	0	0	0	0	0	5	3	0	0	0	0	0		1	0	0	0	0	0	0	0
010813	13:37:26	10023	corsiblockEngRev	recallseqEngRev	10	4	1347	0	111	13:37:26	2431976	4	0	0	0	0	0	0	0	0	0	0	0	0	0	0	5	3	0	0	0	0	0		1	0	0	0	0	0	0	0
010813	13:37:26	10023	corsiblockEngRev	recallseqEngRev	10	1	1044	0	111	13:37:26	2433069	4	0	0	0	0	0	0	0	0	0	0	0	0	0	0	5	3	0	0	0	0	0		1	0	0	0	0	0	0	0
010813	13:37:26	10023	corsiblockEngRev	recallseqEngRev	10	doneCorsiEng	1935	0	111	13:37:26	2435055	4	0	0	0	0	0	0	0	0	0	0	0	0	0	0	5	3	0	0	0	0	0		1	0	0	0	0	0	0	0
010813	13:37:26	10023	testEng6mo	WordsEng6mo	11	1Eng6mo	895	0	111	13:37:26	2455646	4	3	0	0	0	0	0	0	0	0	0	0	0	0	0	5	3	0	0	0	0	0		1	0	0	0	0	0	0	0
010813	13:37:26	10023	testEng6mo	WordsEng6mo	11	2Eng6mo	165	0	111	13:37:26	2455860	4	3	3	0	0	0	0	0	0	0	0	0	0	0	0	5	3	0	0	0	0	0		1	0	0	0	0	0	0	0
010813	13:37:26	10023	testEng6mo	WordsEng6mo	11	3Eng6mo	424	0	111	13:37:26	2456340	4	3	3	3	0	0	0	0	0	0	0	0	0	0	0	5	3	0	0	0	0	0		1	0	0	0	0	0	0	0
010813	13:37:26	10023	testEng6mo	WordsEng6mo	11	4Eng6mo	224	0	111	13:37:26	2456620	4	3	3	3	3	0	0	0	0	0	0	0	0	0	0	5	3	0	0	0	0	0		1	0	0	0	0	0	0	0
010813	13:37:26	10023	testEng6mo	WordsEng6mo	11	6Eng6mo	216	0	111	13:37:26	2456886	4	3	3	3	3	0	3	0	0	0	0	0	0	0	0	5	3	0	0	0	0	0		1	0	0	0	0	0	0	0
010813	13:37:26	10023	testEng6mo	WordsEng6mo	11	5Eng6mo	478	0	111	13:37:26	2457419	4	3	3	3	3	3	3	0	0	0	0	0	0	0	0	5	3	0	0	0	0	0		1	0	0	0	0	0	0	0
010813	13:37:26	10023	testEng6mo	WordsEng6mo	11	7Eng6mo	369	0	111	13:37:26	2457832	4	3	3	3	3	3	3	3	0	0	0	0	0	0	0	5	3	0	0	0	0	0		1	0	0	0	0	0	0	0
010813	13:37:26	10023	testEng6mo	WordsEng6mo	11	DoneEng6mo	8059	0	111	13:37:26	2465936	4	3	3	3	3	3	3	3	0	0	0	0	0	0	0	5	3	0	0	0	0	0		1	0	0	0	0	0	0	0
010813	13:37:26	10023	testEng6mo	Cat8Eng6mo	11	W8Eng6mo	7172	0	111	13:37:26	2473159	4	3	3	3	3	3	3	3	0	0	0	0	0	0	0	5	3	0	0	0	0	0		1	0	0	0	0	0	0	0
010813	13:37:26	10023	testEng6mo	Ch8Eng6mo	11	RR8Eng6mo	3178	0	111	13:37:26	2476371	4	3	3	3	3	3	3	3	1	0	0	0	0	0	0	5	3	0	0	0	0	0		1	0	0	0	0	0	0	0
010813	13:37:26	10023	DigitSpanFwrdEng6mo	Score1FwrdEng6mo	12	DS1	3631	0	111	13:37:26	2491138	4	3	3	3	3	3	3	3	1	0	0	0	0	0	0	5	3	0	0	0	0	0		1	0	0	0	0	0	0	0
010813	13:37:26	10023	DigitSpanFwrdEng6mo	Gate1FwrdEng6mo	12	0	1	0	111	13:37:26	2491143	4	3	3	3	3	3	3	3	1	3	0	0	0	0	0	5	3	0	0	0	0	0		1	0	0	0	0	0	0	0
010813	13:37:26	10023	DigitSpanFwrdEng6mo	Score2FwrdEng6mo	12	DS1	3718	0	111	13:37:26	2501640	4	3	3	3	3	3	3	3	1	3	0	0	0	0	0	5	3	0	0	0	0	0		1	0	0	0	0	0	0	0
010813	13:37:26	10023	DigitSpanFwrdEng6mo	Gate3FwrdEng6mo	12	0	1	0	111	13:37:26	2501645	4	3	3	3	3	3	3	3	1	4	0	0	0	0	0	5	3	0	0	0	0	0		1	0	0	0	0	0	0	0
010813	13:37:26	10023	DigitSpanFwrdEng6mo	Score3FwrdEng6mo	12	DS1	4474	0	111	13:37:26	2514142	4	3	3	3	3	3	3	3	1	4	0	0	0	0	0	5	3	0	0	0	0	0		1	0	0	0	0	0	0	0
010813	13:37:26	10023	DigitSpanFwrdEng6mo	Gate5FwrdEng6mo	12	0	1	0	111	13:37:26	2514147	4	3	3	3	3	3	3	3	1	5	0	0	0	0	0	5	3	0	0	0	0	0		1	0	0	0	0	0	0	0
010813	13:37:26	10023	DigitSpanFwrdEng6mo	Score4FwrdEng6mo	12	DS1	3696	0	111	13:37:26	2527363	4	3	3	3	3	3	3	3	1	5	0	0	0	0	0	5	3	0	0	0	0	0		1	0	0	0	0	0	0	0
010813	13:37:26	10023	DigitSpanFwrdEng6mo	Gate7FwrdEng6mo	12	0	1	0	111	13:37:26	2527368	4	3	3	3	3	3	3	3	1	6	0	0	0	0	0	5	3	0	0	0	0	0		1	0	0	0	0	0	0	0
010813	13:37:26	10023	DigitSpanFwrdEng6mo	Score5FwrdEng6mo	12	DS2	6240	0	111	13:37:26	2544596	4	3	3	3	3	3	3	3	1	6	0	0	0	0	0	5	3	0	0	0	0	0		1	0	0	0	0	0	0	0
010813	13:37:26	10023	DigitSpanFwrdEng6mo	Gate9FwrdEng6mo	12	0	1	0	111	13:37:26	2544601	4	3	3	3	3	3	3	3	1	6	0	0	0	0	0	5	3	0	0	0	0	0		1	0	0	0	0	0	0	0
010813	13:37:26	10023	DigitSpanFwrdEng6mo	Score55FwrdEng6mo	12	DS1	10748	0	111	13:37:26	2566480	4	3	3	3	3	3	3	3	1	6	0	0	0	0	0	5	3	0	0	0	0	0		1	0	0	0	0	0	0	0
010813	13:37:26	10023	DigitSpanFwrdEng6mo	Gate10FwrdEng6mo	12	0	1	0	111	13:37:26	2566485	4	3	3	3	3	3	3	3	1	7	0	0	0	0	0	5	3	0	0	0	0	0		1	0	0	0	0	0	0	0
010813	13:37:26	10023	DigitSpanFwrdEng6mo	Score6FwrdEng6mo	12	DS2	6109	0	111	13:37:26	2585552	4	3	3	3	3	3	3	3	1	7	0	0	0	0	0	5	3	0	0	0	0	0		1	0	0	0	0	0	0	0
010813	13:37:26	10023	DigitSpanFwrdEng6mo	Gate11FwrdEng6mo	12	0	1	0	111	13:37:26	2585558	4	3	3	3	3	3	3	3	1	7	0	0	0	0	0	5	3	0	0	0	0	0		1	0	0	0	0	0	0	0
010813	13:37:26	10023	DigitSpanFwrdEng6mo	Score66FwrdEng6mo	12	DS2	8492	0	111	13:37:26	2607210	4	3	3	3	3	3	3	3	1	7	0	0	0	0	0	5	3	0	0	0	0	0		1	0	0	0	0	0	0	0
010813	13:37:26	10023	DigitSpanEng6mo	Score1Eng6mo	13	DS1	4620	0	111	13:37:26	2624043	4	3	3	3	3	3	3	3	1	7	0	0	0	0	0	5	3	0	0	0	0	0		1	0	0	0	0	0	0	0
010813	13:37:26	10023	DigitSpanEng6mo	Gate1Eng6mo	13	0	1	0	111	13:37:26	2624047	4	3	3	3	3	3	3	3	1	7	2	0	0	0	0	5	3	0	0	0	0	0		1	0	0	0	0	0	0	0
010813	13:37:26	10023	DigitSpanEng6mo	Score2Eng6mo	13	DS1	6120	0	111	13:37:26	2635105	4	3	3	3	3	3	3	3	1	7	2	0	0	0	0	5	3	0	0	0	0	0		1	0	0	0	0	0	0	0
010813	13:37:26	10023	DigitSpanEng6mo	Gate3Eng6mo	13	0	1	0	111	13:37:26	2635110	4	3	3	3	3	3	3	3	1	7	3	0	0	0	0	5	3	0	0	0	0	0		1	0	0	0	0	0	0	0
010813	13:37:26	10023	DigitSpanEng6mo	Score3Eng6mo	13	DS2	9151	0	111	13:37:26	2650818	4	3	3	3	3	3	3	3	1	7	3	0	0	0	0	5	3	0	0	0	0	0		1	0	0	0	0	0	0	0
010813	13:37:26	10023	DigitSpanEng6mo	Gate5Eng6mo	13	0	1	0	111	13:37:26	2650823	4	3	3	3	3	3	3	3	1	7	3	0	0	0	0	5	3	0	0	0	0	0		1	0	0	0	0	0	0	0
010813	13:37:26	10023	DigitSpanEng6mo	Score33Eng6mo	13	DS2	11379	0	111	13:37:26	2668504	4	3	3	3	3	3	3	3	1	7	3	0	0	0	0	5	3	0	0	0	0	0		1	0	0	0	0	0	0	0
010813	13:37:26	10023	Trial	ResponseIL	14	0	175	0	111	13:37:26	2729839	4	3	3	3	3	3	3	3	1	7	3	0	0	0	0	5	3	0	0	0	0	0		1	0	0	0	0	0	0	0
010813	13:37:26	10023	Trial	IncongruentLeft	14	0	1000	0	111	13:37:26	2730852	4	3	3	3	3	3	3	3	1	7	3	0	0	0	0	5	3	0	0	0	0	0		1	0	0	0	0	0	0	0
010813	13:37:26	10023	Trial	ResponseCR	14	0	175	0	111	13:37:26	2731558	4	3	3	3	3	3	3	3	1	7	3	0	0	0	0	5	3	0	0	0	0	0		1	0	0	0	0	0	0	0
010813	13:37:26	10023	Trial	CongruentRight	14	0	1000	0	111	13:37:26	2732571	4	3	3	3	3	3	3	3	1	7	3	0	0	0	0	5	3	0	0	0	0	0		1	0	0	0	0	0	0	0
010813	13:37:26	10023	Trial	ResponseIR	14	0	175	0	111	13:37:26	2733277	4	3	3	3	3	3	3	3	1	7	3	0	0	0	0	5	3	0	0	0	0	0		1	0	0	0	0	0	0	0
010813	13:37:26	10023	Trial	IncongruentRight	14	0	1000	0	111	13:37:26	2734290	4	3	3	3	3	3	3	3	1	7	3	0	0	0	0	5	3	0	0	0	0	0		1	0	0	0	0	0	0	0
010813	13:37:26	10023	Trial	ResponseCL	14	0	175	0	111	13:37:26	2734997	4	3	3	3	3	3	3	3	1	7	3	0	0	0	0	5	3	0	0	0	0	0		1	0	0	0	0	0	0	0
010813	13:37:26	10023	Trial	CongruentLeft	14	203	415	1	111	13:37:26	2735437	4	3	3	3	3	3	3	3	1	7	3	0	0	0	0	5	3	0	0	0	0	0		1	0	0	0	0	0	0	0
010813	13:37:26	10023	Trial	ResponseCR	14	0	175	0	111	13:37:26	2736703	4	3	3	3	3	3	3	3	1	7	3	0	0	0	0	5	3	0	0	0	0	0		1	0	0	0	0	0	0	0
010813	13:37:26	10023	Trial	CongruentRight	14	205	437	1	111	13:37:26	2737156	4	3	3	3	3	3	3	3	1	7	3	0	0	0	0	5	3	0	0	0	0	0		1	0	0	0	0	0	0	0
010813	13:37:26	10023	Trial	ResponseIR	14	0	175	0	111	13:37:26	2738409	4	3	3	3	3	3	3	3	1	7	3	0	0	0	0	5	3	0	0	0	0	0		1	0	0	0	0	0	0	0
010813	13:37:26	10023	Trial	IncongruentRight	14	203	203	0	111	13:37:26	2738635	4	3	3	3	3	3	3	3	1	7	3	0	0	0	0	5	3	0	0	0	0	0		1	0	0	0	0	0	0	0
010813	13:37:26	10023	Trial	ResponseCL	14	0	175	0	111	13:37:26	2740115	4	3	3	3	3	3	3	3	1	7	3	0	0	0	0	5	3	0	0	0	0	0		1	0	0	0	0	0	0	0
010813	13:37:26	10023	Trial	CongruentLeft	14	203	209	1	111	13:37:26	2740341	4	3	3	3	3	3	3	3	1	7	3	0	0	0	0	5	3	0	0	0	0	0		1	0	0	0	0	0	0	0
010813	13:37:26	10023	Trial	ResponseIL	14	0	175	0	111	13:37:26	2741821	4	3	3	3	3	3	3	3	1	7	3	0	0	0	0	5	3	0	0	0	0	0		1	0	0	0	0	0	0	0
010813	13:37:26	10023	Trial	IncongruentLeft	14	205	167	0	111	13:37:26	2742007	4	3	3	3	3	3	3	3	1	7	3	0	0	0	0	5	3	0	0	0	0	0		1	0	0	0	0	0	0	0
010813	13:37:26	10023	Trial	ResponseIL	14	0	175	0	111	13:37:26	2743527	4	3	3	3	3	3	3	3	1	7	3	0	0	0	0	5	3	0	0	0	0	0		1	0	0	0	0	0	0	0
010813	13:37:26	10023	Trial	IncongruentLeft	14	203	365	1	111	13:37:26	2743913	4	3	3	3	3	3	3	3	1	7	3	0	0	0	0	5	3	0	0	0	0	0		1	0	0	0	0	0	0	0
010813	13:37:26	10023	Trial	ResponseCR	14	0	175	0	111	13:37:26	2745233	4	3	3	3	3	3	3	3	1	7	3	0	0	0	0	5	3	0	0	0	0	0		1	0	0	0	0	0	0	0
010813	13:37:26	10023	Trial	CongruentRight	14	205	179	1	111	13:37:26	2745432	4	3	3	3	3	3	3	3	1	7	3	0	0	0	0	5	3	0	0	0	0	0		1	0	0	0	0	0	0	0
010813	13:37:26	10023	Trial	ResponseIR	14	0	175	0	111	13:37:26	2746939	4	3	3	3	3	3	3	3	1	7	3	0	0	0	0	5	3	0	0	0	0	0		1	0	0	0	0	0	0	0
010813	13:37:26	10023	Trial	IncongruentRight	14	203	153	0	111	13:37:26	2747112	4	3	3	3	3	3	3	3	1	7	3	0	0	0	0	5	3	0	0	0	0	0		1	0	0	0	0	0	0	0
010813	13:37:26	10023	Trial	ResponseCL	14	0	175	0	111	13:37:26	2748644	4	3	3	3	3	3	3	3	1	7	3	0	0	0	0	5	3	0	0	0	0	0		1	0	0	0	0	0	0	0
010813	13:37:26	10023	Trial	CongruentLeft	14	205	175	0	111	13:37:26	2748844	4	3	3	3	3	3	3	3	1	7	3	0	0	0	0	5	3	0	0	0	0	0		1	0	0	0	0	0	0	0
010813	13:37:26	10023	Trial	ResponseCR	14	0	175	0	111	13:37:26	2750350	4	3	3	3	3	3	3	3	1	7	3	0	0	0	0	5	3	0	0	0	0	0		1	0	0	0	0	0	0	0
010813	13:37:26	10023	Trial	CongruentRight	14	205	517	1	111	13:37:26	2750883	4	3	3	3	3	3	3	3	1	7	3	0	0	0	0	5	3	0	0	0	0	0		1	0	0	0	0	0	0	0
010813	13:37:26	10023	Trial	ResponseIL	14	0	175	0	111	13:37:26	2752056	4	3	3	3	3	3	3	3	1	7	3	0	0	0	0	5	3	0	0	0	0	0		1	0	0	0	0	0	0	0
010813	13:37:26	10023	Trial	IncongruentLeft	14	203	267	1	111	13:37:26	2752350	4	3	3	3	3	3	3	3	1	7	3	0	0	0	0	5	3	0	0	0	0	0		1	0	0	0	0	0	0	0
010813	13:37:26	10023	Trial	ResponseIR	14	0	175	0	111	13:37:26	2753762	4	3	3	3	3	3	3	3	1	7	3	0	0	0	0	5	3	0	0	0	0	0		1	0	0	0	0	0	0	0
010813	13:37:26	10023	Trial	IncongruentRight	14	205	433	1	111	13:37:26	2754215	4	3	3	3	3	3	3	3	1	7	3	0	0	0	0	5	3	0	0	0	0	0		1	0	0	0	0	0	0	0
010813	13:37:26	10023	Trial	ResponseCR	14	0	175	0	111	13:37:26	2755468	4	3	3	3	3	3	3	3	1	7	3	0	0	0	0	5	3	0	0	0	0	0		1	0	0	0	0	0	0	0
010813	13:37:26	10023	Trial	CongruentRight	14	205	391	1	111	13:37:26	2755881	4	3	3	3	3	3	3	3	1	7	3	0	0	0	0	5	3	0	0	0	0	0		1	0	0	0	0	0	0	0
010813	13:37:26	10023	Trial	ResponseCL	14	0	175	0	111	13:37:26	2757174	4	3	3	3	3	3	3	3	1	7	3	0	0	0	0	5	3	0	0	0	0	0		1	0	0	0	0	0	0	0
010813	13:37:26	10023	Trial	CongruentLeft	14	203	173	1	111	13:37:26	2757374	4	3	3	3	3	3	3	3	1	7	3	0	0	0	0	5	3	0	0	0	0	0		1	0	0	0	0	0	0	0
010813	13:37:26	10023	Trial	ResponseCR	14	0	175	0	111	13:37:26	2758880	4	3	3	3	3	3	3	3	1	7	3	0	0	0	0	5	3	0	0	0	0	0		1	0	0	0	0	0	0	0
010813	13:37:26	10023	Trial	CongruentRight	14	205	211	1	111	13:37:26	2759120	4	3	3	3	3	3	3	3	1	7	3	0	0	0	0	5	3	0	0	0	0	0		1	0	0	0	0	0	0	0
010813	13:37:26	10023	Trial	ResponseIR	14	0	175	0	111	13:37:26	2760586	4	3	3	3	3	3	3	3	1	7	3	0	0	0	0	5	3	0	0	0	0	0		1	0	0	0	0	0	0	0
010813	13:37:26	10023	Trial	IncongruentRight	14	203	153	0	111	13:37:26	2760759	4	3	3	3	3	3	3	3	1	7	3	0	0	0	0	5	3	0	0	0	0	0		1	0	0	0	0	0	0	0
010813	13:37:26	10023	Trial	ResponseIL	14	0	175	0	111	13:37:26	2762292	4	3	3	3	3	3	3	3	1	7	3	0	0	0	0	5	3	0	0	0	0	0		1	0	0	0	0	0	0	0
010813	13:37:26	10023	Trial	IncongruentLeft	14	203	431	1	111	13:37:26	2762745	4	3	3	3	3	3	3	3	1	7	3	0	0	0	0	5	3	0	0	0	0	0		1	0	0	0	0	0	0	0
010813	13:37:26	10023	Trial	ResponseIL	14	0	175	0	111	13:37:26	2763998	4	3	3	3	3	3	3	3	1	7	3	0	0	0	0	5	3	0	0	0	0	0		1	0	0	0	0	0	0	0
010813	13:37:26	10023	Trial	IncongruentLeft	14	203	533	1	111	13:37:26	2764558	4	3	3	3	3	3	3	3	1	7	3	0	0	0	0	5	3	0	0	0	0	0		1	0	0	0	0	0	0	0
010813	13:37:26	10023	Trial	ResponseCL	14	0	175	0	111	13:37:26	2765704	4	3	3	3	3	3	3	3	1	7	3	0	0	0	0	5	3	0	0	0	0	0		1	0	0	0	0	0	0	0
010813	13:37:26	10023	Trial	CongruentLeft	14	203	427	1	111	13:37:26	2766157	4	3	3	3	3	3	3	3	1	7	3	0	0	0	0	5	3	0	0	0	0	0		1	0	0	0	0	0	0	0
010813	13:37:26	10023	Trial	ResponseCR	14	0	175	0	111	13:37:26	2767410	4	3	3	3	3	3	3	3	1	7	3	0	0	0	0	5	3	0	0	0	0	0		1	0	0	0	0	0	0	0
010813	13:37:26	10023	Trial	CongruentRight	14	205	257	1	111	13:37:26	2767690	4	3	3	3	3	3	3	3	1	7	3	0	0	0	0	5	3	0	0	0	0	0		1	0	0	0	0	0	0	0
010813	13:37:26	10023	Trial	ResponseIL	14	0	175	0	111	13:37:26	2769116	4	3	3	3	3	3	3	3	1	7	3	0	0	0	0	5	3	0	0	0	0	0		1	0	0	0	0	0	0	0
010813	13:37:26	10023	Trial	IncongruentLeft	14	203	407	1	111	13:37:26	2769542	4	3	3	3	3	3	3	3	1	7	3	0	0	0	0	5	3	0	0	0	0	0		1	0	0	0	0	0	0	0
010813	13:37:26	10023	Trial	ResponseIR	14	0	175	0	111	13:37:26	2770822	4	3	3	3	3	3	3	3	1	7	3	0	0	0	0	5	3	0	0	0	0	0		1	0	0	0	0	0	0	0
010813	13:37:26	10023	Trial	IncongruentRight	14	205	221	1	111	13:37:26	2771062	4	3	3	3	3	3	3	3	1	7	3	0	0	0	0	5	3	0	0	0	0	0		1	0	0	0	0	0	0	0
010813	13:37:26	10023	Trial	ResponseCR	14	0	175	0	111	13:37:26	2772528	4	3	3	3	3	3	3	3	1	7	3	0	0	0	0	5	3	0	0	0	0	0		1	0	0	0	0	0	0	0
010813	13:37:26	10023	Trial	CongruentRight	14	203	243	0	111	13:37:26	2772794	4	3	3	3	3	3	3	3	1	7	3	0	0	0	0	5	3	0	0	0	0	0		1	0	0	0	0	0	0	0
010813	13:37:26	10023	Trial	ResponseCL	14	0	175	0	111	13:37:26	2774234	4	3	3	3	3	3	3	3	1	7	3	0	0	0	0	5	3	0	0	0	0	0		1	0	0	0	0	0	0	0
010813	13:37:26	10023	Trial	CongruentLeft	14	203	377	1	111	13:37:26	2774634	4	3	3	3	3	3	3	3	1	7	3	0	0	0	0	5	3	0	0	0	0	0		1	0	0	0	0	0	0	0
010813	13:37:26	10023	Trial	ResponseIR	14	0	175	0	111	13:37:26	2775940	4	3	3	3	3	3	3	3	1	7	3	0	0	0	0	5	3	0	0	0	0	0		1	0	0	0	0	0	0	0
010813	13:37:26	10023	Trial	IncongruentRight	14	205	286	1	111	13:37:26	2776246	4	3	3	3	3	3	3	3	1	7	3	0	0	0	0	5	3	0	0	0	0	0		1	0	0	0	0	0	0	0
010813	13:37:26	10023	Trial	ResponseIL	14	0	175	0	111	13:37:26	2777646	4	3	3	3	3	3	3	3	1	7	3	0	0	0	0	5	3	0	0	0	0	0		1	0	0	0	0	0	0	0
010813	13:37:26	10023	Trial	IncongruentLeft	14	203	372	1	111	13:37:26	2778046	4	3	3	3	3	3	3	3	1	7	3	0	0	0	0	5	3	0	0	0	0	0		1	0	0	0	0	0	0	0
010813	13:37:26	10023	Trial	ResponseIR	14	0	175	0	111	13:37:26	2779352	4	3	3	3	3	3	3	3	1	7	3	0	0	0	0	5	3	0	0	0	0	0		1	0	0	0	0	0	0	0
010813	13:37:26	10023	Trial	IncongruentRight	14	205	426	1	111	13:37:26	2779805	4	3	3	3	3	3	3	3	1	7	3	0	0	0	0	5	3	0	0	0	0	0		1	0	0	0	0	0	0	0
010813	13:37:26	10023	Trial	ResponseCR	14	0	175	0	111	13:37:26	2781058	4	3	3	3	3	3	3	3	1	7	3	0	0	0	0	5	3	0	0	0	0	0		1	0	0	0	0	0	0	0
010813	13:37:26	10023	Trial	CongruentRight	14	203	225	0	111	13:37:26	2781311	4	3	3	3	3	3	3	3	1	7	3	0	0	0	0	5	3	0	0	0	0	0		1	0	0	0	0	0	0	0
010813	13:37:26	10023	Trial	ResponseIL	14	0	175	0	111	13:37:26	2782764	4	3	3	3	3	3	3	3	1	7	3	0	0	0	0	5	3	0	0	0	0	0		1	0	0	0	0	0	0	0
010813	13:37:26	10023	Trial	IncongruentLeft	14	203	534	1	111	13:37:26	2783324	4	3	3	3	3	3	3	3	1	7	3	0	0	0	0	5	3	0	0	0	0	0		1	0	0	0	0	0	0	0
010813	13:37:26	10023	Trial	ResponseCL	14	0	175	0	111	13:37:26	2784470	4	3	3	3	3	3	3	3	1	7	3	0	0	0	0	5	3	0	0	0	0	0		1	0	0	0	0	0	0	0
010813	13:37:26	10023	Trial	CongruentLeft	14	203	396	1	111	13:37:26	2784883	4	3	3	3	3	3	3	3	1	7	3	0	0	0	0	5	3	0	0	0	0	0		1	0	0	0	0	0	0	0
010813	13:37:26	10023	Trial	ResponseCR	14	0	175	0	111	13:37:26	2786176	4	3	3	3	3	3	3	3	1	7	3	0	0	0	0	5	3	0	0	0	0	0		1	0	0	0	0	0	0	0
010813	13:37:26	10023	Trial	CongruentRight	14	205	226	1	111	13:37:26	2786429	4	3	3	3	3	3	3	3	1	7	3	0	0	0	0	5	3	0	0	0	0	0		1	0	0	0	0	0	0	0
010813	13:37:26	10023	Trial	ResponseIL	14	0	175	0	111	13:37:26	2787882	4	3	3	3	3	3	3	3	1	7	3	0	0	0	0	5	3	0	0	0	0	0		1	0	0	0	0	0	0	0
010813	13:37:26	10023	Trial	IncongruentLeft	14	203	345	1	111	13:37:26	2788255	4	3	3	3	3	3	3	3	1	7	3	0	0	0	0	5	3	0	0	0	0	0		1	0	0	0	0	0	0	0
010813	13:37:26	10023	Trial	ResponseIR	14	0	175	0	111	13:37:26	2789588	4	3	3	3	3	3	3	3	1	7	3	0	0	0	0	5	3	0	0	0	0	0		1	0	0	0	0	0	0	0
010813	13:37:26	10023	Trial	IncongruentRight	14	205	303	1	111	13:37:26	2789907	4	3	3	3	3	3	3	3	1	7	3	0	0	0	0	5	3	0	0	0	0	0		1	0	0	0	0	0	0	0
010813	13:37:26	10023	Trial	ResponseIR	14	0	175	0	111	13:37:26	2791294	4	3	3	3	3	3	3	3	1	7	3	0	0	0	0	5	3	0	0	0	0	0		1	0	0	0	0	0	0	0
010813	13:37:26	10023	Trial	IncongruentRight	14	205	452	1	111	13:37:26	2791773	4	3	3	3	3	3	3	3	1	7	3	0	0	0	0	5	3	0	0	0	0	0		1	0	0	0	0	0	0	0
010813	13:37:26	10023	Trial	ResponseCL	14	0	175	0	111	13:37:26	2792999	4	3	3	3	3	3	3	3	1	7	3	0	0	0	0	5	3	0	0	0	0	0		1	0	0	0	0	0	0	0
010813	13:37:26	10023	Trial	CongruentLeft	14	203	218	1	111	13:37:26	2793239	4	3	3	3	3	3	3	3	1	7	3	0	0	0	0	5	3	0	0	0	0	0		1	0	0	0	0	0	0	0
010813	13:37:26	10023	Trial	ResponseIL	14	0	175	0	111	13:37:26	2794706	4	3	3	3	3	3	3	3	1	7	3	0	0	0	0	5	3	0	0	0	0	0		1	0	0	0	0	0	0	0
010813	13:37:26	10023	Trial	IncongruentLeft	14	205	160	0	111	13:37:26	2794892	4	3	3	3	3	3	3	3	1	7	3	0	0	0	0	5	3	0	0	0	0	0		1	0	0	0	0	0	0	0
010813	13:37:26	10023	Trial	ResponseCR	14	0	175	0	111	13:37:26	2796411	4	3	3	3	3	3	3	3	1	7	3	0	0	0	0	5	3	0	0	0	0	0		1	0	0	0	0	0	0	0
010813	13:37:26	10023	Trial	CongruentRight	14	203	198	0	111	13:37:26	2796638	4	3	3	3	3	3	3	3	1	7	3	0	0	0	0	5	3	0	0	0	0	0		1	0	0	0	0	0	0	0
010813	13:37:26	10023	Trial	ResponseCL	14	0	175	0	111	13:37:26	2798117	4	3	3	3	3	3	3	3	1	7	3	0	0	0	0	5	3	0	0	0	0	0		1	0	0	0	0	0	0	0
010813	13:37:26	10023	Trial	CongruentLeft	14	203	428	1	111	13:37:26	2798570	4	3	3	3	3	3	3	3	1	7	3	0	0	0	0	5	3	0	0	0	0	0		1	0	0	0	0	0	0	0
010813	13:37:26	10023	Trial	ResponseIR	14	0	175	0	111	13:37:26	2799823	4	3	3	3	3	3	3	3	1	7	3	0	0	0	0	5	3	0	0	0	0	0		1	0	0	0	0	0	0	0
010813	13:37:26	10023	Trial	IncongruentRight	14	205	258	1	111	13:37:26	2800103	4	3	3	3	3	3	3	3	1	7	3	0	0	0	0	5	3	0	0	0	0	0		1	0	0	0	0	0	0	0
010813	13:37:26	10023	Trial	ResponseCR	14	0	175	0	111	13:37:26	2801529	4	3	3	3	3	3	3	3	1	7	3	0	0	0	0	5	3	0	0	0	0	0		1	0	0	0	0	0	0	0
010813	13:37:26	10023	Trial	CongruentRight	14	205	424	1	111	13:37:26	2801982	4	3	3	3	3	3	3	3	1	7	3	0	0	0	0	5	3	0	0	0	0	0		1	0	0	0	0	0	0	0
010813	13:37:26	10023	Trial	ResponseIL	14	0	175	0	111	13:37:26	2803235	4	3	3	3	3	3	3	3	1	7	3	0	0	0	0	5	3	0	0	0	0	0		1	0	0	0	0	0	0	0
010813	13:37:26	10023	Trial	IncongruentLeft	14	203	350	1	111	13:37:26	2803608	4	3	3	3	3	3	3	3	1	7	3	0	0	0	0	5	3	0	0	0	0	0		1	0	0	0	0	0	0	0
010813	13:37:26	10023	Trial	ResponseCL	14	0	175	0	111	13:37:26	2804941	4	3	3	3	3	3	3	3	1	7	3	0	0	0	0	5	3	0	0	0	0	0		1	0	0	0	0	0	0	0
010813	13:37:26	10023	Trial	CongruentLeft	14	203	453	1	111	13:37:26	2805421	4	3	3	3	3	3	3	3	1	7	3	0	0	0	0	5	3	0	0	0	0	0		1	0	0	0	0	0	0	0
010813	13:37:26	10023	Trial	ResponseIL	14	0	175	0	111	13:37:26	2806647	4	3	3	3	3	3	3	3	1	7	3	0	0	0	0	5	3	0	0	0	0	0		1	0	0	0	0	0	0	0
010813	13:37:26	10023	Trial	IncongruentLeft	14	203	522	1	111	13:37:26	2807193	4	3	3	3	3	3	3	3	1	7	3	0	0	0	0	5	3	0	0	0	0	0		1	0	0	0	0	0	0	0
010813	13:37:26	10023	Trial	ResponseIR	14	0	175	0	111	13:37:26	2808353	4	3	3	3	3	3	3	3	1	7	3	0	0	0	0	5	3	0	0	0	0	0		1	0	0	0	0	0	0	0
010813	13:37:26	10023	Trial	IncongruentRight	14	205	256	1	111	13:37:26	2808633	4	3	3	3	3	3	3	3	1	7	3	0	0	0	0	5	3	0	0	0	0	0		1	0	0	0	0	0	0	0
010813	13:37:26	10023	Trial	ResponseCR	14	0	175	0	111	13:37:26	2810059	4	3	3	3	3	3	3	3	1	7	3	0	0	0	0	5	3	0	0	0	0	0		1	0	0	0	0	0	0	0
010813	13:37:26	10023	Trial	CongruentRight	14	205	310	1	111	13:37:26	2810392	4	3	3	3	3	3	3	3	1	7	3	0	0	0	0	5	3	0	0	0	0	0		1	0	0	0	0	0	0	0
010813	13:37:26	10023	Trial	ResponseCL	14	0	175	0	111	13:37:26	2811765	4	3	3	3	3	3	3	3	1	7	3	0	0	0	0	5	3	0	0	0	0	0		1	0	0	0	0	0	0	0
010813	13:37:26	10023	Trial	CongruentLeft	14	203	188	1	111	13:37:26	2811978	4	3	3	3	3	3	3	3	1	7	3	0	0	0	0	5	3	0	0	0	0	0		1	0	0	0	0	0	0	0
010813	13:37:26	10023	Trial	ResponseCL	14	0	175	0	111	13:37:26	2813471	4	3	3	3	3	3	3	3	1	7	3	0	0	0	0	5	3	0	0	0	0	0		1	0	0	0	0	0	0	0
010813	13:37:26	10023	Trial	CongruentLeft	14	203	482	1	111	13:37:26	2813977	4	3	3	3	3	3	3	3	1	7	3	0	0	0	0	5	3	0	0	0	0	0		1	0	0	0	0	0	0	0
010813	13:37:26	10023	Trial	ResponseIR	14	0	175	0	111	13:37:26	2815177	4	3	3	3	3	3	3	3	1	7	3	0	0	0	0	5	3	0	0	0	0	0		1	0	0	0	0	0	0	0
010813	13:37:26	10023	Trial	IncongruentRight	14	205	376	1	111	13:37:26	2815577	4	3	3	3	3	3	3	3	1	7	3	0	0	0	0	5	3	0	0	0	0	0		1	0	0	0	0	0	0	0
010813	13:37:26	10023	Trial	ResponseIL	14	0	175	0	111	13:37:26	2816883	4	3	3	3	3	3	3	3	1	7	3	0	0	0	0	5	3	0	0	0	0	0		1	0	0	0	0	0	0	0
010813	13:37:26	10023	Trial	IncongruentLeft	14	203	430	1	111	13:37:26	2817336	4	3	3	3	3	3	3	3	1	7	3	0	0	0	0	5	3	0	0	0	0	0		1	0	0	0	0	0	0	0
010813	13:37:26	10023	Trial	ResponseIR	14	0	175	0	111	13:37:26	2818589	4	3	3	3	3	3	3	3	1	7	3	0	0	0	0	5	3	0	0	0	0	0		1	0	0	0	0	0	0	0
010813	13:37:26	10023	Trial	IncongruentRight	14	205	259	1	111	13:37:26	2818869	4	3	3	3	3	3	3	3	1	7	3	0	0	0	0	5	3	0	0	0	0	0		1	0	0	0	0	0	0	0
010813	13:37:26	10023	Trial	ResponseCR	14	0	175	0	111	13:37:26	2820295	4	3	3	3	3	3	3	3	1	7	3	0	0	0	0	5	3	0	0	0	0	0		1	0	0	0	0	0	0	0
010813	13:37:26	10023	Trial	CongruentRight	14	205	474	1	111	13:37:26	2820788	4	3	3	3	3	3	3	3	1	7	3	0	0	0	0	5	3	0	0	0	0	0		1	0	0	0	0	0	0	0
010813	13:37:26	10023	Trial	ResponseCR	14	0	175	0	111	13:37:26	2822001	4	3	3	3	3	3	3	3	1	7	3	0	0	0	0	5	3	0	0	0	0	0		1	0	0	0	0	0	0	0
010813	13:37:26	10023	Trial	CongruentRight	14	205	449	1	111	13:37:26	2822467	4	3	3	3	3	3	3	3	1	7	3	0	0	0	0	5	3	0	0	0	0	0		1	0	0	0	0	0	0	0
010813	13:37:26	10023	Trial	ResponseIL	14	0	175	0	111	13:37:26	2823707	4	3	3	3	3	3	3	3	1	7	3	0	0	0	0	5	3	0	0	0	0	0		1	0	0	0	0	0	0	0
010813	13:37:26	10023	Trial	IncongruentLeft	14	203	310	1	111	13:37:26	2824040	4	3	3	3	3	3	3	3	1	7	3	0	0	0	0	5	3	0	0	0	0	0		1	0	0	0	0	0	0	0
010813	13:37:26	10023	Trial	ResponseCL	14	0	175	0	111	13:37:26	2825413	4	3	3	3	3	3	3	3	1	7	3	0	0	0	0	5	3	0	0	0	0	0		1	0	0	0	0	0	0	0
010813	13:37:26	10023	Trial	CongruentLeft	14	203	428	1	111	13:37:26	2825866	4	3	3	3	3	3	3	3	1	7	3	0	0	0	0	5	3	0	0	0	0	0		1	0	0	0	0	0	0	0
010813	13:37:26	10023	Trial	ResponseCR	14	0	175	0	111	13:37:26	2827119	4	3	3	3	3	3	3	3	1	7	3	0	0	0	0	5	3	0	0	0	0	0		1	0	0	0	0	0	0	0
010813	13:37:26	10023	Trial	CongruentRight	14	205	210	1	111	13:37:26	2827345	4	3	3	3	3	3	3	3	1	7	3	0	0	0	0	5	3	0	0	0	0	0		1	0	0	0	0	0	0	0
010813	13:37:26	10023	Trial	ResponseCL	14	0	175	0	111	13:37:26	2828825	4	3	3	3	3	3	3	3	1	7	3	0	0	0	0	5	3	0	0	0	0	0		1	0	0	0	0	0	0	0
010813	13:37:26	10023	Trial	CongruentLeft	14	203	216	1	111	13:37:26	2829065	4	3	3	3	3	3	3	3	1	7	3	0	0	0	0	5	3	0	0	0	0	0		1	0	0	0	0	0	0	0
010813	13:37:26	10023	Trial	ResponseIR	14	0	175	0	111	13:37:26	2830531	4	3	3	3	3	3	3	3	1	7	3	0	0	0	0	5	3	0	0	0	0	0		1	0	0	0	0	0	0	0
010813	13:37:26	10023	Trial	IncongruentRight	14	205	270	1	111	13:37:26	2830824	4	3	3	3	3	3	3	3	1	7	3	0	0	0	0	5	3	0	0	0	0	0		1	0	0	0	0	0	0	0
010813	13:37:26	10023	Trial	ResponseCR	14	0	175	0	111	13:37:26	2832237	4	3	3	3	3	3	3	3	1	7	3	0	0	0	0	5	3	0	0	0	0	0		1	0	0	0	0	0	0	0
010813	13:37:26	10023	Trial	CongruentRight	14	205	484	1	111	13:37:26	2832743	4	3	3	3	3	3	3	3	1	7	3	0	0	0	0	5	3	0	0	0	0	0		1	0	0	0	0	0	0	0
010813	13:37:26	10023	Trial	ResponseCL	14	0	175	0	111	13:37:26	2833943	4	3	3	3	3	3	3	3	1	7	3	0	0	0	0	5	3	0	0	0	0	0		1	0	0	0	0	0	0	0
010813	13:37:26	10023	Trial	CongruentLeft	14	203	298	1	111	13:37:26	2834262	4	3	3	3	3	3	3	3	1	7	3	0	0	0	0	5	3	0	0	0	0	0		1	0	0	0	0	0	0	0
010813	13:37:26	10023	Trial	ResponseIL	14	0	175	0	111	13:37:26	2835649	4	3	3	3	3	3	3	3	1	7	3	0	0	0	0	5	3	0	0	0	0	0		1	0	0	0	0	0	0	0
010813	13:37:26	10023	Trial	IncongruentLeft	14	205	272	0	111	13:37:26	2835941	4	3	3	3	3	3	3	3	1	7	3	0	0	0	0	5	3	0	0	0	0	0		1	0	0	0	0	0	0	0
010813	13:37:26	10023	Trial	ResponseIL	14	0	175	0	111	13:37:26	2837355	4	3	3	3	3	3	3	3	1	7	3	0	0	0	0	5	3	0	0	0	0	0		1	0	0	0	0	0	0	0
010813	13:37:26	10023	Trial	IncongruentLeft	14	203	182	1	111	13:37:26	2837554	4	3	3	3	3	3	3	3	1	7	3	0	0	0	0	5	3	0	0	0	0	0		1	0	0	0	0	0	0	0
010813	13:37:26	10023	Trial	ResponseCR	14	0	175	0	111	13:37:26	2839060	4	3	3	3	3	3	3	3	1	7	3	0	0	0	0	5	3	0	0	0	0	0		1	0	0	0	0	0	0	0
010813	13:37:26	10023	Trial	CongruentRight	14	205	204	1	111	13:37:26	2839287	4	3	3	3	3	3	3	3	1	7	3	0	0	0	0	5	3	0	0	0	0	0		1	0	0	0	0	0	0	0
010813	13:37:26	10023	Trial	ResponseIR	14	0	175	0	111	13:37:26	2840766	4	3	3	3	3	3	3	3	1	7	3	0	0	0	0	5	3	0	0	0	0	0		1	0	0	0	0	0	0	0
010813	13:37:26	10023	Trial	IncongruentRight	14	203	210	0	111	13:37:26	2840993	4	3	3	3	3	3	3	3	1	7	3	0	0	0	0	5	3	0	0	0	0	0		1	0	0	0	0	0	0	0
010813	13:37:26	10023	Trial	ResponseCL	14	0	175	0	111	13:37:26	2842472	4	3	3	3	3	3	3	3	1	7	3	0	0	0	0	5	3	0	0	0	0	0		1	0	0	0	0	0	0	0
010813	13:37:26	10023	Trial	CongruentLeft	14	203	216	1	111	13:37:26	2842712	4	3	3	3	3	3	3	3	1	7	3	0	0	0	0	5	3	0	0	0	0	0		1	0	0	0	0	0	0	0
010813	13:37:26	10023	Trial	ResponseIR	14	0	175	0	111	13:37:26	2844178	4	3	3	3	3	3	3	3	1	7	3	0	0	0	0	5	3	0	0	0	0	0		1	0	0	0	0	0	0	0
010813	13:37:26	10023	Trial	IncongruentRight	14	205	382	1	111	13:37:26	2844578	4	3	3	3	3	3	3	3	1	7	3	0	0	0	0	5	3	0	0	0	0	0		1	0	0	0	0	0	0	0
010813	13:37:26	10023	Trial	ResponseCR	14	0	175	0	111	13:37:26	2845884	4	3	3	3	3	3	3	3	1	7	3	0	0	0	0	5	3	0	0	0	0	0		1	0	0	0	0	0	0	0
010813	13:37:26	10023	Trial	CongruentRight	14	205	372	1	111	13:37:26	2846284	4	3	3	3	3	3	3	3	1	7	3	0	0	0	0	5	3	0	0	0	0	0		1	0	0	0	0	0	0	0
010813	13:37:26	10023	Trial	ResponseIL	14	0	175	0	111	13:37:26	2847590	4	3	3	3	3	3	3	3	1	7	3	0	0	0	0	5	3	0	0	0	0	0		1	0	0	0	0	0	0	0
010813	13:37:26	10023	Trial	IncongruentLeft	14	203	378	1	111	13:37:26	2847990	4	3	3	3	3	3	3	3	1	7	3	0	0	0	0	5	3	0	0	0	0	0		1	0	0	0	0	0	0	0
010813	13:37:26	10023	Trial	ResponseCL	14	0	175	0	111	13:37:26	2849296	4	3	3	3	3	3	3	3	1	7	3	0	0	0	0	5	3	0	0	0	0	0		1	0	0	0	0	0	0	0
010813	13:37:26	10023	Trial	CongruentLeft	14	203	415	1	111	13:37:26	2849736	4	3	3	3	3	3	3	3	1	7	3	0	0	0	0	5	3	0	0	0	0	0		1	0	0	0	0	0	0	0
010813	13:37:26	10023	Trial	ResponseCR	14	0	175	0	111	13:37:26	2851002	4	3	3	3	3	3	3	3	1	7	3	0	0	0	0	5	3	0	0	0	0	0		1	0	0	0	0	0	0	0
010813	13:37:26	10023	Trial	CongruentRight	14	205	262	1	111	13:37:26	2851282	4	3	3	3	3	3	3	3	1	7	3	0	0	0	0	5	3	0	0	0	0	0		1	0	0	0	0	0	0	0
010813	13:37:26	10023	Trial	ResponseIL	14	0	175	0	111	13:37:26	2852708	4	3	3	3	3	3	3	3	1	7	3	0	0	0	0	5	3	0	0	0	0	0		1	0	0	0	0	0	0	0
010813	13:37:26	10023	Trial	IncongruentLeft	14	203	364	1	111	13:37:26	2853095	4	3	3	3	3	3	3	3	1	7	3	0	0	0	0	5	3	0	0	0	0	0		1	0	0	0	0	0	0	0
010813	13:37:26	10023	Trial	ResponseCR	14	0	175	0	111	13:37:26	2854414	4	3	3	3	3	3	3	3	1	7	3	0	0	0	0	5	3	0	0	0	0	0		1	0	0	0	0	0	0	0
010813	13:37:26	10023	Trial	CongruentRight	14	205	194	1	111	13:37:26	2854627	4	3	3	3	3	3	3	3	1	7	3	0	0	0	0	5	3	0	0	0	0	0		1	0	0	0	0	0	0	0
010813	13:37:26	10023	Trial	ResponseCR	14	0	175	0	111	13:37:26	2856120	4	3	3	3	3	3	3	3	1	7	3	0	0	0	0	5	3	0	0	0	0	0		1	0	0	0	0	0	0	0
010813	13:37:26	10023	Trial	CongruentRight	14	205	376	1	111	13:37:26	2856520	4	3	3	3	3	3	3	3	1	7	3	0	0	0	0	5	3	0	0	0	0	0		1	0	0	0	0	0	0	0
010813	13:37:26	10023	Trial	ResponseIR	14	0	175	0	111	13:37:26	2857826	4	3	3	3	3	3	3	3	1	7	3	0	0	0	0	5	3	0	0	0	0	0		1	0	0	0	0	0	0	0
010813	13:37:26	10023	Trial	IncongruentRight	14	203	222	0	111	13:37:26	2858066	4	3	3	3	3	3	3	3	1	7	3	0	0	0	0	5	3	0	0	0	0	0		1	0	0	0	0	0	0	0
010813	13:37:26	10023	Trial	ResponseCL	14	0	175	0	111	13:37:26	2859532	4	3	3	3	3	3	3	3	1	7	3	0	0	0	0	5	3	0	0	0	0	0		1	0	0	0	0	0	0	0
010813	13:37:26	10023	Trial	CongruentLeft	14	203	420	1	111	13:37:26	2859972	4	3	3	3	3	3	3	3	1	7	3	0	0	0	0	5	3	0	0	0	0	0		1	0	0	0	0	0	0	0
010813	13:37:26	10023	Trial	ResponseIL	14	0	175	0	111	13:37:26	2861238	4	3	3	3	3	3	3	3	1	7	3	0	0	0	0	5	3	0	0	0	0	0		1	0	0	0	0	0	0	0
010813	13:37:26	10023	Trial	IncongruentLeft	14	203	666	1	111	13:37:26	2861931	4	3	3	3	3	3	3	3	1	7	3	0	0	0	0	5	3	0	0	0	0	0		1	0	0	0	0	0	0	0
010813	13:37:26	10023	Trial	ResponseCL	14	0	175	0	111	13:37:26	2862944	4	3	3	3	3	3	3	3	1	7	3	0	0	0	0	5	3	0	0	0	0	0		1	0	0	0	0	0	0	0
010813	13:37:26	10023	Trial	CongruentLeft	14	203	576	1	111	13:37:26	2863544	4	3	3	3	3	3	3	3	1	7	3	0	0	0	0	5	3	0	0	0	0	0		1	0	0	0	0	0	0	0
010813	13:37:26	10023	Trial	ResponseIR	14	0	175	0	111	13:37:26	2864650	4	3	3	3	3	3	3	3	1	7	3	0	0	0	0	5	3	0	0	0	0	0		1	0	0	0	0	0	0	0
010813	13:37:26	10023	Trial	IncongruentRight	14	205	230	1	111	13:37:26	2864903	4	3	3	3	3	3	3	3	1	7	3	0	0	0	0	5	3	0	0	0	0	0		1	0	0	0	0	0	0	0
010813	13:37:26	10023	Trial	ResponseIL	14	0	175	0	111	13:37:26	2866356	4	3	3	3	3	3	3	3	1	7	3	0	0	0	0	5	3	0	0	0	0	0		1	0	0	0	0	0	0	0
010813	13:37:26	10023	Trial	IncongruentLeft	14	203	347	1	111	13:37:26	2866729	4	3	3	3	3	3	3	3	1	7	3	0	0	0	0	5	3	0	0	0	0	0		1	0	0	0	0	0	0	0
010813	13:37:26	10023	Trial	ResponseCR	14	0	175	0	111	13:37:26	2868062	4	3	3	3	3	3	3	3	1	7	3	0	0	0	0	5	3	0	0	0	0	0		1	0	0	0	0	0	0	0
010813	13:37:26	10023	Trial	CongruentRight	14	205	257	1	111	13:37:26	2868342	4	3	3	3	3	3	3	3	1	7	3	0	0	0	0	5	3	0	0	0	0	0		1	0	0	0	0	0	0	0
010813	13:37:26	10023	Trial	ResponseCL	14	0	175	0	111	13:37:26	2869768	4	3	3	3	3	3	3	3	1	7	3	0	0	0	0	5	3	0	0	0	0	0		1	0	0	0	0	0	0	0
010813	13:37:26	10023	Trial	CongruentLeft	14	203	248	1	111	13:37:26	2870034	4	3	3	3	3	3	3	3	1	7	3	0	0	0	0	5	3	0	0	0	0	0		1	0	0	0	0	0	0	0
010813	13:37:26	10023	Trial	ResponseIL	14	0	175	0	111	13:37:26	2871474	4	3	3	3	3	3	3	3	1	7	3	0	0	0	0	5	3	0	0	0	0	0		1	0	0	0	0	0	0	0
010813	13:37:26	10023	Trial	IncongruentLeft	14	205	206	0	111	13:37:26	2871700	4	3	3	3	3	3	3	3	1	7	3	0	0	0	0	5	3	0	0	0	0	0		1	0	0	0	0	0	0	0
010813	13:37:26	10023	Trial	ResponseCL	14	0	175	0	111	13:37:26	2873180	4	3	3	3	3	3	3	3	1	7	3	0	0	0	0	5	3	0	0	0	0	0		1	0	0	0	0	0	0	0
010813	13:37:26	10023	Trial	CongruentLeft	14	203	275	1	111	13:37:26	2873473	4	3	3	3	3	3	3	3	1	7	3	0	0	0	0	5	3	0	0	0	0	0		1	0	0	0	0	0	0	0
010813	13:37:26	10023	Trial	ResponseIR	14	0	175	0	111	13:37:26	2874886	4	3	3	3	3	3	3	3	1	7	3	0	0	0	0	5	3	0	0	0	0	0		1	0	0	0	0	0	0	0
010813	13:37:26	10023	Trial	IncongruentRight	14	205	409	1	111	13:37:26	2875312	4	3	3	3	3	3	3	3	1	7	3	0	0	0	0	5	3	0	0	0	0	0		1	0	0	0	0	0	0	0
010813	13:37:26	10023	Trial	ResponseCR	14	0	175	0	111	13:37:26	2876592	4	3	3	3	3	3	3	3	1	7	3	0	0	0	0	5	3	0	0	0	0	0		1	0	0	0	0	0	0	0
010813	13:37:26	10023	Trial	CongruentRight	14	205	608	1	111	13:37:26	2877218	4	3	3	3	3	3	3	3	1	7	3	0	0	0	0	5	3	0	0	0	0	0		1	0	0	0	0	0	0	0
010813	13:37:26	10023	Trial	ResponseIL	14	0	175	0	111	13:37:26	2878298	4	3	3	3	3	3	3	3	1	7	3	0	0	0	0	5	3	0	0	0	0	0		1	0	0	0	0	0	0	0
010813	13:37:26	10023	Trial	IncongruentLeft	14	203	357	1	111	13:37:26	2878684	4	3	3	3	3	3	3	3	1	7	3	0	0	0	0	5	3	0	0	0	0	0		1	0	0	0	0	0	0	0
010813	13:37:26	10023	Trial	ResponseCL	14	0	175	0	111	13:37:26	2880004	4	3	3	3	3	3	3	3	1	7	3	0	0	0	0	5	3	0	0	0	0	0		1	0	0	0	0	0	0	0
010813	13:37:26	10023	Trial	CongruentLeft	14	203	284	1	111	13:37:26	2880310	4	3	3	3	3	3	3	3	1	7	3	0	0	0	0	5	3	0	0	0	0	0		1	0	0	0	0	0	0	0
010813	13:37:26	10023	Trial	ResponseIR	14	0	175	0	111	13:37:26	2881709	4	3	3	3	3	3	3	3	1	7	3	0	0	0	0	5	3	0	0	0	0	0		1	0	0	0	0	0	0	0
010813	13:37:26	10023	Trial	IncongruentRight	14	205	337	1	111	13:37:26	2882069	4	3	3	3	3	3	3	3	1	7	3	0	0	0	0	5	3	0	0	0	0	0		1	0	0	0	0	0	0	0
010813	13:37:26	10023	Trial	ResponseIL	14	0	175	0	111	13:37:26	2883415	4	3	3	3	3	3	3	3	1	7	3	0	0	0	0	5	3	0	0	0	0	0		1	0	0	0	0	0	0	0
010813	13:37:26	10023	Trial	IncongruentLeft	14	203	264	1	111	13:37:26	2883695	4	3	3	3	3	3	3	3	1	7	3	0	0	0	0	5	3	0	0	0	0	0		1	0	0	0	0	0	0	0
010813	13:37:26	10023	Trial	ResponseCL	14	0	175	0	111	13:37:26	2885121	4	3	3	3	3	3	3	3	1	7	3	0	0	0	0	5	3	0	0	0	0	0		1	0	0	0	0	0	0	0
010813	13:37:26	10023	Trial	CongruentLeft	14	203	269	1	111	13:37:26	2885415	4	3	3	3	3	3	3	3	1	7	3	0	0	0	0	5	3	0	0	0	0	0		1	0	0	0	0	0	0	0
010813	13:37:26	10023	Trial	ResponseIL	14	0	175	0	111	13:37:26	2886827	4	3	3	3	3	3	3	3	1	7	3	0	0	0	0	5	3	0	0	0	0	0		1	0	0	0	0	0	0	0
010813	13:37:26	10023	Trial	IncongruentLeft	14	203	468	1	111	13:37:26	2887320	4	3	3	3	3	3	3	3	1	7	3	0	0	0	0	5	3	0	0	0	0	0		1	0	0	0	0	0	0	0
010813	13:37:26	10023	Trial	ResponseCR	14	0	175	0	111	13:37:26	2888533	4	3	3	3	3	3	3	3	1	7	3	0	0	0	0	5	3	0	0	0	0	0		1	0	0	0	0	0	0	0
010813	13:37:26	10023	Trial	CongruentRight	14	205	265	1	111	13:37:26	2888827	4	3	3	3	3	3	3	3	1	7	3	0	0	0	0	5	3	0	0	0	0	0		1	0	0	0	0	0	0	0
010813	13:37:26	10023	Trial	ResponseCL	14	0	175	0	111	13:37:26	2890239	4	3	3	3	3	3	3	3	1	7	3	0	0	0	0	5	3	0	0	0	0	0		1	0	0	0	0	0	0	0
010813	13:37:26	10023	Trial	CongruentLeft	14	203	207	1	111	13:37:26	2890466	4	3	3	3	3	3	3	3	1	7	3	0	0	0	0	5	3	0	0	0	0	0		1	0	0	0	0	0	0	0
010813	13:37:26	10023	Trial	ResponseIR	14	0	175	0	111	13:37:26	2891945	4	3	3	3	3	3	3	3	1	7	3	0	0	0	0	5	3	0	0	0	0	0		1	0	0	0	0	0	0	0
010813	13:37:26	10023	Trial	IncongruentRight	14	205	453	1	111	13:37:26	2892425	4	3	3	3	3	3	3	3	1	7	3	0	0	0	0	5	3	0	0	0	0	0		1	0	0	0	0	0	0	0
010813	13:37:26	10023	Trial	ResponseCL	14	0	175	0	111	13:37:26	2893651	4	3	3	3	3	3	3	3	1	7	3	0	0	0	0	5	3	0	0	0	0	0		1	0	0	0	0	0	0	0
010813	13:37:26	10023	Trial	CongruentLeft	14	203	315	1	111	13:37:26	2893984	4	3	3	3	3	3	3	3	1	7	3	0	0	0	0	5	3	0	0	0	0	0		1	0	0	0	0	0	0	0
010813	13:37:26	10023	Trial	ResponseCR	14	0	175	0	111	13:37:26	2895357	4	3	3	3	3	3	3	3	1	7	3	0	0	0	0	5	3	0	0	0	0	0		1	0	0	0	0	0	0	0
010813	13:37:26	10023	Trial	CongruentRight	14	205	290	1	111	13:37:26	2895664	4	3	3	3	3	3	3	3	1	7	3	0	0	0	0	5	3	0	0	0	0	0		1	0	0	0	0	0	0	0
010813	13:37:26	10023	Trial	ResponseIL	14	0	175	0	111	13:37:26	2897063	4	3	3	3	3	3	3	3	1	7	3	0	0	0	0	5	3	0	0	0	0	0		1	0	0	0	0	0	0	0
010813	13:37:26	10023	Trial	IncongruentLeft	14	203	439	1	111	13:37:26	2897530	4	3	3	3	3	3	3	3	1	7	3	0	0	0	0	5	3	0	0	0	0	0		1	0	0	0	0	0	0	0
010813	13:37:26	10023	WordsAbsEng6mo	PAbsEng6mo1	16	Abs1	5549	0	111	13:37:26	2910884	4	3	3	3	3	3	3	3	1	7	3	0	0	0	0	5	3	0	0	0	0	0		1	0	0	0	0	0	0	0
010813	13:37:26	10023	WordsAbsEng6mo	AbsEng6mo1	16	Abs1	3390	0	111	13:37:26	2914309	4	3	3	3	3	3	3	3	1	7	3	1	0	0	0	5	3	0	0	0	0	0		1	0	0	0	0	0	0	0
010813	13:37:26	10023	WordsAbsEng6mo	AbsEng6mo2	16	Abs1	5796	0	111	13:37:26	2920147	4	3	3	3	3	3	3	3	1	7	3	2	0	0	0	5	3	0	0	0	0	0		1	0	0	0	0	0	0	0
010813	13:37:26	10023	WordsAbsEng6mo	AbsEng6mo3	16	Abs1	4454	0	111	13:37:26	2924638	4	3	3	3	3	3	3	3	1	7	3	3	0	0	0	5	3	0	0	0	0	0		1	0	0	0	0	0	0	0
010813	13:37:26	10023	Trial2BackEngS	NS	17	0	1000	1	111	13:37:26	2962143	4	3	3	3	3	3	3	3	1	7	3	3	0	0	0	5	3	0	0	0	0	0		1	0	0	0	0	0	0	0
010813	13:37:26	10023	Trial2BackEngS	NS	17	0	1000	1	111	13:37:26	2963649	4	3	3	3	3	3	3	3	1	7	3	3	0	0	0	5	3	0	0	0	0	0		1	0	0	0	0	0	0	0
010813	13:37:26	10023	Trial2BackEngS	NS	17	0	1000	1	111	13:37:26	2965155	4	3	3	3	3	3	3	3	1	7	3	3	0	0	0	5	3	0	0	0	0	0		1	0	0	0	0	0	0	0
010813	13:37:26	10023	Trial2BackEngS	YS	17	0	1000	0	111	13:37:26	2966661	4	3	3	3	3	3	3	3	1	7	3	3	0	0	0	5	3	0	0	0	0	0		1	0	0	0	0	0	0	0
010813	13:37:26	10023	Trial2BackEngS	NS	17	57	812	0	111	13:37:26	2967980	4	3	3	3	3	3	3	3	1	7	3	3	0	0	0	5	3	0	0	0	0	0		1	0	0	0	0	0	0	0
010813	13:37:26	10023	Trial2BackEngS	NS	17	0	1000	1	111	13:37:26	2969673	4	3	3	3	3	3	3	3	1	7	3	3	0	0	0	5	3	0	0	0	0	0		1	0	0	0	0	0	0	0
010813	13:37:26	10023	Trial2BackEngS	NS	17	0	1000	1	111	13:37:26	2971179	4	3	3	3	3	3	3	3	1	7	3	3	0	0	0	5	3	0	0	0	0	0		1	0	0	0	0	0	0	0
010813	13:37:26	10023	Trial2BackEngS	NS	17	0	1000	1	111	13:37:26	2972685	4	3	3	3	3	3	3	3	1	7	3	3	0	0	0	5	3	0	0	0	0	0		1	0	0	0	0	0	0	0
010813	13:37:26	10023	Trial2BackEngS	YS	17	57	851	1	111	13:37:26	2974044	4	3	3	3	3	3	3	3	1	7	3	3	0	0	0	5	3	0	0	0	0	0		1	0	0	0	0	0	0	0
010813	13:37:26	10023	Trial2BackEngS	NS	17	0	1000	1	111	13:37:26	2975697	4	3	3	3	3	3	3	3	1	7	3	3	0	0	0	5	3	0	0	0	0	0		1	0	0	0	0	0	0	0
010813	13:37:26	10023	Trial2BackEngS	NS	17	0	1000	1	111	13:37:26	2977203	4	3	3	3	3	3	3	3	1	7	3	3	0	0	0	5	3	0	0	0	0	0		1	0	0	0	0	0	0	0
010813	13:37:26	10023	Trial2BackEngS	YS	17	0	1000	0	111	13:37:26	2978709	4	3	3	3	3	3	3	3	1	7	3	3	0	0	0	5	3	0	0	0	0	0		1	0	0	0	0	0	0	0
010813	13:37:26	10023	Trial2BackEngS	NS	17	0	1000	1	111	13:37:26	2980215	4	3	3	3	3	3	3	3	1	7	3	3	0	0	0	5	3	0	0	0	0	0		1	0	0	0	0	0	0	0
010813	13:37:26	10023	Trial2BackEngS	NS	17	0	1000	1	111	13:37:26	2981721	4	3	3	3	3	3	3	3	1	7	3	3	0	0	0	5	3	0	0	0	0	0		1	0	0	0	0	0	0	0
010813	13:37:26	10023	Trial2BackEngS	NS	17	0	1000	1	111	13:37:26	2983241	4	3	3	3	3	3	3	3	1	7	3	3	0	0	0	5	3	0	0	0	0	0		1	0	0	0	0	0	0	0
010813	13:37:26	10023	Trial2BackEngS	YS	17	57	679	1	111	13:37:26	2984440	4	3	3	3	3	3	3	3	1	7	3	3	0	0	0	5	3	0	0	0	0	0		1	0	0	0	0	0	0	0
010813	13:37:26	10023	Trial2BackEngS	NS	17	0	1000	1	111	13:37:26	2986253	4	3	3	3	3	3	3	3	1	7	3	3	0	0	0	5	3	0	0	0	0	0		1	0	0	0	0	0	0	0
010813	13:37:26	10023	Trial2BackEngS	NS	17	0	1000	1	111	13:37:26	2987759	4	3	3	3	3	3	3	3	1	7	3	3	0	0	0	5	3	0	0	0	0	0		1	0	0	0	0	0	0	0
010813	13:37:26	10023	Trial2BackEngS	NS	17	0	1000	1	111	13:37:26	2989265	4	3	3	3	3	3	3	3	1	7	3	3	0	0	0	5	3	0	0	0	0	0		1	0	0	0	0	0	0	0
010813	13:37:26	10023	Trial2BackEngS	NS	17	0	1000	1	111	13:37:26	2990771	4	3	3	3	3	3	3	3	1	7	3	3	0	0	0	5	3	0	0	0	0	0		1	0	0	0	0	0	0	0
010813	13:37:26	10023	Trial2BackEngS	YS	17	57	653	1	111	13:37:26	2991944	4	3	3	3	3	3	3	3	1	7	3	3	0	0	0	5	3	0	0	0	0	0		1	0	0	0	0	0	0	0
010813	13:37:26	10023	Trial2BackEngS	NS	17	0	1000	1	111	13:37:26	2993783	4	3	3	3	3	3	3	3	1	7	3	3	0	0	0	5	3	0	0	0	0	0		1	0	0	0	0	0	0	0
010813	13:37:26	10023	Trial2BackEngS	NS	17	0	1000	1	111	13:37:26	2995289	4	3	3	3	3	3	3	3	1	7	3	3	0	0	0	5	3	0	0	0	0	0		1	0	0	0	0	0	0	0
010813	13:37:26	10023	Trial2BackEngS	NS	17	0	1000	1	111	13:37:26	2996795	4	3	3	3	3	3	3	3	1	7	3	3	0	0	0	5	3	0	0	0	0	0		1	0	0	0	0	0	0	0
010813	13:37:26	10023	Trial2BackEngS	NS	17	57	932	0	111	13:37:26	2998248	4	3	3	3	3	3	3	3	1	7	3	3	0	0	0	5	3	0	0	0	0	0		1	0	0	0	0	0	0	0
010813	13:37:26	10023	Trial2BackEngS	NS	17	0	1000	1	111	13:37:26	2999807	4	3	3	3	3	3	3	3	1	7	3	3	0	0	0	5	3	0	0	0	0	0		1	0	0	0	0	0	0	0
010813	13:37:26	10023	Trial2BackEngS	NS	17	0	1000	1	111	13:37:26	3001313	4	3	3	3	3	3	3	3	1	7	3	3	0	0	0	5	3	0	0	0	0	0		1	0	0	0	0	0	0	0
010813	13:37:26	10023	Trial2BackEngS	NS	17	0	1000	1	111	13:37:26	3002833	4	3	3	3	3	3	3	3	1	7	3	3	0	0	0	5	3	0	0	0	0	0		1	0	0	0	0	0	0	0
010813	13:37:26	10023	Trial2BackEngS	NS	17	0	1000	1	111	13:37:26	3004339	4	3	3	3	3	3	3	3	1	7	3	3	0	0	0	5	3	0	0	0	0	0		1	0	0	0	0	0	0	0
010813	13:37:26	10023	Trial2BackEngS	NS	17	0	1000	1	111	13:37:26	3005845	4	3	3	3	3	3	3	3	1	7	3	3	0	0	0	5	3	0	0	0	0	0		1	0	0	0	0	0	0	0
010813	13:37:26	10023	Trial2BackEngS	NS	17	0	1000	1	111	13:37:26	3007351	4	3	3	3	3	3	3	3	1	7	3	3	0	0	0	5	3	0	0	0	0	0		1	0	0	0	0	0	0	0
010813	13:37:26	10023	Trial2BackEngS	YS	17	57	680	1	111	13:37:26	3008550	4	3	3	3	3	3	3	3	1	7	3	3	0	0	0	5	3	0	0	0	0	0		1	0	0	0	0	0	0	0
010813	13:37:26	10023	Trial2BackEngS	NS	17	0	1000	1	111	13:37:26	3010363	4	3	3	3	3	3	3	3	1	7	3	3	0	0	0	5	3	0	0	0	0	0		1	0	0	0	0	0	0	0
010813	13:37:26	10023	Trial2BackEngS	NS	17	0	1000	1	111	13:37:26	3011869	4	3	3	3	3	3	3	3	1	7	3	3	0	0	0	5	3	0	0	0	0	0		1	0	0	0	0	0	0	0
010813	13:37:26	10023	Trial2BackEngS	NS	17	0	1000	1	111	13:37:26	3013375	4	3	3	3	3	3	3	3	1	7	3	3	0	0	0	5	3	0	0	0	0	0		1	0	0	0	0	0	0	0
010813	13:37:26	10023	Trial2BackEngS	YS	17	57	960	1	111	13:37:26	3014854	4	3	3	3	3	3	3	3	1	7	3	3	0	0	0	5	3	0	0	0	0	0		1	0	0	0	0	0	0	0
010813	13:37:26	10023	Trial2BackEngS	NS	17	0	1000	1	111	13:37:26	3016387	4	3	3	3	3	3	3	3	1	7	3	3	0	0	0	5	3	0	0	0	0	0		1	0	0	0	0	0	0	0
010813	13:37:26	10023	Trial2BackEngS	NS	17	0	1000	1	111	13:37:26	3017906	4	3	3	3	3	3	3	3	1	7	3	3	0	0	0	5	3	0	0	0	0	0		1	0	0	0	0	0	0	0
010813	13:37:26	10023	Trial2BackEngS	NS	17	57	892	0	111	13:37:26	3019319	4	3	3	3	3	3	3	3	1	7	3	3	0	0	0	5	3	0	0	0	0	0		1	0	0	0	0	0	0	0
010813	13:37:26	10023	Trial2BackEngS	NS	17	0	1000	1	111	13:37:26	3020918	4	3	3	3	3	3	3	3	1	7	3	3	0	0	0	5	3	0	0	0	0	0		1	0	0	0	0	0	0	0
010813	13:37:26	10023	Trial2BackEngS	NS	17	0	1000	1	111	13:37:26	3022424	4	3	3	3	3	3	3	3	1	7	3	3	0	0	0	5	3	0	0	0	0	0		1	0	0	0	0	0	0	0
010813	13:37:26	10023	Trial2BackEngS	NS	17	0	1000	1	111	13:37:26	3023930	4	3	3	3	3	3	3	3	1	7	3	3	0	0	0	5	3	0	0	0	0	0		1	0	0	0	0	0	0	0
010813	13:37:26	10023	Trial2BackEngS	NS	17	57	852	0	111	13:37:26	3025303	4	3	3	3	3	3	3	3	1	7	3	3	0	0	0	5	3	0	0	0	0	0		1	0	0	0	0	0	0	0
010813	13:37:26	10023	Trial2BackEngS	YS	17	0	1000	0	111	13:37:26	3026943	4	3	3	3	3	3	3	3	1	7	3	3	0	0	0	5	3	0	0	0	0	0		1	0	0	0	0	0	0	0
010813	13:37:26	10023	Trial2BackEngS	NS	17	0	1000	1	111	13:37:26	3028449	4	3	3	3	3	3	3	3	1	7	3	3	0	0	0	5	3	0	0	0	0	0		1	0	0	0	0	0	0	0
010813	13:37:26	10023	Trial2BackEngS	NS	17	57	734	0	111	13:37:26	3029701	4	3	3	3	3	3	3	3	1	7	3	3	0	0	0	5	3	0	0	0	0	0		1	0	0	0	0	0	0	0
010813	13:37:26	10023	Trial2BackEngS	NS	17	0	1000	1	111	13:37:26	3031461	4	3	3	3	3	3	3	3	1	7	3	3	0	0	0	5	3	0	0	0	0	0		1	0	0	0	0	0	0	0
010813	13:37:26	10023	Trial2BackEngS	NS	17	0	1000	1	111	13:37:26	3032967	4	3	3	3	3	3	3	3	1	7	3	3	0	0	0	5	3	0	0	0	0	0		1	0	0	0	0	0	0	0
010813	13:37:26	10023	Trial2BackEngS	YS	17	57	568	1	111	13:37:26	3034046	4	3	3	3	3	3	3	3	1	7	3	3	0	0	0	5	3	0	0	0	0	0		1	0	0	0	0	0	0	0
010813	13:37:26	10023	Trial2BackEngS	NS	17	0	1000	1	111	13:37:26	3035979	4	3	3	3	3	3	3	3	1	7	3	3	0	0	0	5	3	0	0	0	0	0		1	0	0	0	0	0	0	0
010813	13:37:26	10023	Trial2BackEngS	NS	17	0	1000	1	111	13:37:26	3037485	4	3	3	3	3	3	3	3	1	7	3	3	0	0	0	5	3	0	0	0	0	0		1	0	0	0	0	0	0	0
010813	13:37:26	10023	Trial2BackEngS	NS	17	57	721	0	111	13:37:26	3038724	4	3	3	3	3	3	3	3	1	7	3	3	0	0	0	5	3	0	0	0	0	0		1	0	0	0	0	0	0	0
010813	13:37:26	10023	Trial2BackEngS	NS	17	0	1000	1	111	13:37:26	3040497	4	3	3	3	3	3	3	3	1	7	3	3	0	0	0	5	3	0	0	0	0	0		1	0	0	0	0	0	0	0
010813	13:37:26	10023	Trial2BackEngS	NS	17	0	1000	1	111	13:37:26	3042003	4	3	3	3	3	3	3	3	1	7	3	3	0	0	0	5	3	0	0	0	0	0		1	0	0	0	0	0	0	0
010813	13:37:26	10023	Trial2BackEngS	NS	17	0	1000	1	111	13:37:26	3043509	4	3	3	3	3	3	3	3	1	7	3	3	0	0	0	5	3	0	0	0	0	0		1	0	0	0	0	0	0	0
010813	13:37:26	10023	Trial2BackEngS	YS	17	57	569	1	111	13:37:26	3044588	4	3	3	3	3	3	3	3	1	7	3	3	0	0	0	5	3	0	0	0	0	0		1	0	0	0	0	0	0	0
010813	13:37:26	10023	Trial2BackEngS	NS	17	0	1000	1	111	13:37:26	3046521	4	3	3	3	3	3	3	3	1	7	3	3	0	0	0	5	3	0	0	0	0	0		1	0	0	0	0	0	0	0
010813	13:37:26	10023	Trial2BackEngS	NS	17	0	1000	1	111	13:37:26	3048040	4	3	3	3	3	3	3	3	1	7	3	3	0	0	0	5	3	0	0	0	0	0		1	0	0	0	0	0	0	0
010813	13:37:26	10023	Trial2BackEngS	NS	17	0	1000	1	111	13:37:26	3049547	4	3	3	3	3	3	3	3	1	7	3	3	0	0	0	5	3	0	0	0	0	0		1	0	0	0	0	0	0	0
010813	13:37:26	10023	Trial2BackEngS	NS	17	0	1000	1	111	13:37:26	3051053	4	3	3	3	3	3	3	3	1	7	3	3	0	0	0	5	3	0	0	0	0	0		1	0	0	0	0	0	0	0
010813	13:37:26	10023	Trial2BackEngS	NS	17	0	1000	1	111	13:37:26	3052559	4	3	3	3	3	3	3	3	1	7	3	3	0	0	0	5	3	0	0	0	0	0		1	0	0	0	0	0	0	0
010813	13:37:26	10023	Trial2BackEngS	NS	17	0	1000	1	111	13:37:26	3054078	4	3	3	3	3	3	3	3	1	7	3	3	0	0	0	5	3	0	0	0	0	0		1	0	0	0	0	0	0	0
010813	13:37:26	10023	Trial2BackEngS	NS	17	57	480	0	111	13:37:26	3055078	4	3	3	3	3	3	3	3	1	7	3	3	0	0	0	5	3	0	0	0	0	0		1	0	0	0	0	0	0	0
010813	13:37:26	10023	Trial2BackEngS	YS	17	0	1000	0	111	13:37:26	3057090	4	3	3	3	3	3	3	3	1	7	3	3	0	0	0	5	3	0	0	0	0	0		1	0	0	0	0	0	0	0
010813	13:37:26	10023	Trial2BackEngS	NS	17	0	1000	1	111	13:37:26	3058596	4	3	3	3	3	3	3	3	1	7	3	3	0	0	0	5	3	0	0	0	0	0		1	0	0	0	0	0	0	0
010813	13:37:26	10023	Trial2BackEngS	NS	17	57	937	0	111	13:37:26	3060049	4	3	3	3	3	3	3	3	1	7	3	3	0	0	0	5	3	0	0	0	0	0		1	0	0	0	0	0	0	0
010813	13:37:26	10023	Trial2BackEngS	NS	17	0	1000	1	111	13:37:26	3061608	4	3	3	3	3	3	3	3	1	7	3	3	0	0	0	5	3	0	0	0	0	0		1	0	0	0	0	0	0	0
010813	13:37:26	10023	Trial2BackEngS	NS	17	0	1000	1	111	13:37:26	3063114	4	3	3	3	3	3	3	3	1	7	3	3	0	0	0	5	3	0	0	0	0	0		1	0	0	0	0	0	0	0
010813	13:37:26	10023	Trial2BackEngS	YS	17	57	547	1	111	13:37:26	3064180	4	3	3	3	3	3	3	3	1	7	3	3	0	0	0	5	3	0	0	0	0	0		1	0	0	0	0	0	0	0
010813	13:37:26	10023	Trial2BackEngS	NS	17	0	1000	1	111	13:37:26	3066126	4	3	3	3	3	3	3	3	1	7	3	3	0	0	0	5	3	0	0	0	0	0		1	0	0	0	0	0	0	0
010813	13:37:26	10023	Trial2BackEngS	NS	17	0	1000	1	111	13:37:26	3067632	4	3	3	3	3	3	3	3	1	7	3	3	0	0	0	5	3	0	0	0	0	0		1	0	0	0	0	0	0	0
010813	13:37:26	10023	Trial2BackEngS	YS	17	57	893	1	111	13:37:26	3069045	4	3	3	3	3	3	3	3	1	7	3	3	0	0	0	5	3	0	0	0	0	0		1	0	0	0	0	0	0	0
010813	13:37:26	10023	Trial2BackEngS	NS	17	0	1000	1	111	13:37:26	3070645	4	3	3	3	3	3	3	3	1	7	3	3	0	0	0	5	3	0	0	0	0	0		1	0	0	0	0	0	0	0
010813	13:37:26	10023	Trial2BackEngS	NS	17	0	1000	1	111	13:37:26	3072164	4	3	3	3	3	3	3	3	1	7	3	3	0	0	0	5	3	0	0	0	0	0		1	0	0	0	0	0	0	0
010813	13:37:26	10023	Trial2BackEngS	NS	17	0	1000	1	111	13:37:26	3073683	4	3	3	3	3	3	3	3	1	7	3	3	0	0	0	5	3	0	0	0	0	0		1	0	0	0	0	0	0	0
010813	13:37:26	10023	Trial2BackEngS	NS	17	0	1000	1	111	13:37:26	3075189	4	3	3	3	3	3	3	3	1	7	3	3	0	0	0	5	3	0	0	0	0	0		1	0	0	0	0	0	0	0
010813	13:37:26	10023	Trial2BackEngS	NS	17	0	1000	1	111	13:37:26	3076695	4	3	3	3	3	3	3	3	1	7	3	3	0	0	0	5	3	0	0	0	0	0		1	0	0	0	0	0	0	0
010813	13:37:26	10023	Trial2BackEngS	NS	17	0	1000	1	111	13:37:26	3078201	4	3	3	3	3	3	3	3	1	7	3	3	0	0	0	5	3	0	0	0	0	0		1	0	0	0	0	0	0	0
010813	13:37:26	10023	Trial2BackEngS	YS	17	57	659	1	111	13:37:26	3079374	4	3	3	3	3	3	3	3	1	7	3	3	0	0	0	5	3	0	0	0	0	0		1	0	0	0	0	0	0	0
010813	13:37:26	10023	Trial2BackEngS	NS	17	0	1000	1	111	13:37:26	3081213	4	3	3	3	3	3	3	3	1	7	3	3	0	0	0	5	3	0	0	0	0	0		1	0	0	0	0	0	0	0
010813	13:37:26	10023	Trial2BackEngS	NS	17	57	831	0	111	13:37:26	3082559	4	3	3	3	3	3	3	3	1	7	3	3	0	0	0	5	3	0	0	0	0	0		1	0	0	0	0	0	0	0
010813	13:37:26	10023	Trial2BackEngS	NS	17	0	1000	1	111	13:37:26	3084225	4	3	3	3	3	3	3	3	1	7	3	3	0	0	0	5	3	0	0	0	0	0		1	0	0	0	0	0	0	0
010813	13:37:26	10023	Trial2BackEngS	NS	17	0	1000	1	111	13:37:26	3085732	4	3	3	3	3	3	3	3	1	7	3	3	0	0	0	5	3	0	0	0	0	0		1	0	0	0	0	0	0	0
010813	13:37:26	10023	Trial2BackEngS	YS	17	0	1000	0	111	13:37:26	3087251	4	3	3	3	3	3	3	3	1	7	3	3	0	0	0	5	3	0	0	0	0	0		1	0	0	0	0	0	0	0
010813	13:37:26	10023	Trial2BackEngS	NS	17	0	1000	1	111	13:37:26	3088757	4	3	3	3	3	3	3	3	1	7	3	3	0	0	0	5	3	0	0	0	0	0		1	0	0	0	0	0	0	0
010813	13:37:26	10023	Trial2BackEngS	NS	17	0	1000	1	111	13:37:26	3090263	4	3	3	3	3	3	3	3	1	7	3	3	0	0	0	5	3	0	0	0	0	0		1	0	0	0	0	0	0	0
010813	13:37:26	10023	Trial2BackEngS	NS	17	57	757	0	111	13:37:26	3091529	4	3	3	3	3	3	3	3	1	7	3	3	0	0	0	5	3	0	0	0	0	0		1	0	0	0	0	0	0	0
010813	13:37:26	10023	Trial2BackEngS	NS	17	0	1000	1	111	13:37:26	3093275	4	3	3	3	3	3	3	3	1	7	3	3	0	0	0	5	3	0	0	0	0	0		1	0	0	0	0	0	0	0
010813	13:37:26	10023	Trial2BackEngS	YS	17	0	1000	0	111	13:37:26	3094794	4	3	3	3	3	3	3	3	1	7	3	3	0	0	0	5	3	0	0	0	0	0		1	0	0	0	0	0	0	0
010813	13:37:26	10023	Trial2BackEngS	NS	17	0	1000	1	111	13:37:26	3096300	4	3	3	3	3	3	3	3	1	7	3	3	0	0	0	5	3	0	0	0	0	0		1	0	0	0	0	0	0	0
010813	13:37:26	10023	Trial2BackEngS	NS	17	0	1000	1	111	13:37:26	3097806	4	3	3	3	3	3	3	3	1	7	3	3	0	0	0	5	3	0	0	0	0	0		1	0	0	0	0	0	0	0
010813	13:37:26	10023	Trial2BackEngS	YS	17	57	702	1	111	13:37:26	3099019	4	3	3	3	3	3	3	3	1	7	3	3	0	0	0	5	3	0	0	0	0	0		1	0	0	0	0	0	0	0
010813	13:37:26	10023	Trial2BackEngS	NS	17	0	1000	1	111	13:37:26	3100819	4	3	3	3	3	3	3	3	1	7	3	3	0	0	0	5	3	0	0	0	0	0		1	0	0	0	0	0	0	0
010813	13:37:26	10023	Trial2BackEngS	NS	17	0	1000	1	111	13:37:26	3102325	4	3	3	3	3	3	3	3	1	7	3	3	0	0	0	5	3	0	0	0	0	0		1	0	0	0	0	0	0	0
010813	13:37:26	10023	Trial2BackEngS	NS	17	0	1000	1	111	13:37:26	3103844	4	3	3	3	3	3	3	3	1	7	3	3	0	0	0	5	3	0	0	0	0	0		1	0	0	0	0	0	0	0
010813	13:37:26	10023	Trial2BackEngS	NS	17	0	1000	1	111	13:37:26	3105350	4	3	3	3	3	3	3	3	1	7	3	3	0	0	0	5	3	0	0	0	0	0		1	0	0	0	0	0	0	0
010813	13:37:26	10023	Trial2BackEngS	NS	17	0	1000	1	111	13:37:26	3106856	4	3	3	3	3	3	3	3	1	7	3	3	0	0	0	5	3	0	0	0	0	0		1	0	0	0	0	0	0	0
010813	13:37:26	10023	Trial2BackEngS	NS	17	0	1000	1	111	13:37:26	3108362	4	3	3	3	3	3	3	3	1	7	3	3	0	0	0	5	3	0	0	0	0	0		1	0	0	0	0	0	0	0
010813	13:37:26	10023	Trial2BackEngS	NS	17	0	1000	1	111	13:37:26	3109868	4	3	3	3	3	3	3	3	1	7	3	3	0	0	0	5	3	0	0	0	0	0		1	0	0	0	0	0	0	0
010813	13:37:26	10023	Trial2BackEngS	NS	17	0	1000	1	111	13:37:26	3111374	4	3	3	3	3	3	3	3	1	7	3	3	0	0	0	5	3	0	0	0	0	0		1	0	0	0	0	0	0	0
010813	13:37:26	10023	Trial2BackEngS	YS	17	57	567	1	111	13:37:26	3112454	4	3	3	3	3	3	3	3	1	7	3	3	0	0	0	5	3	0	0	0	0	0		1	0	0	0	0	0	0	0
010813	13:37:26	10023	Trial2BackEngS	NS	17	0	1000	1	111	13:37:26	3114386	4	3	3	3	3	3	3	3	1	7	3	3	0	0	0	5	3	0	0	0	0	0		1	0	0	0	0	0	0	0
010813	13:37:26	10023	Trial2BackEngS	NS	17	0	1000	1	111	13:37:26	3115892	4	3	3	3	3	3	3	3	1	7	3	3	0	0	0	5	3	0	0	0	0	0		1	0	0	0	0	0	0	0
010813	13:37:26	10023	Trial2BackEngS	NS	17	0	1000	1	111	13:37:26	3117398	4	3	3	3	3	3	3	3	1	7	3	3	0	0	0	5	3	0	0	0	0	0		1	0	0	0	0	0	0	0
010813	13:37:26	10023	Trial2BackEngS	NS	17	0	1000	1	111	13:37:26	3118904	4	3	3	3	3	3	3	3	1	7	3	3	0	0	0	5	3	0	0	0	0	0		1	0	0	0	0	0	0	0
010813	13:37:26	10023	Trial2BackEngS	NS	17	0	1000	1	111	13:37:26	3120424	4	3	3	3	3	3	3	3	1	7	3	3	0	0	0	5	3	0	0	0	0	0		1	0	0	0	0	0	0	0
010813	13:37:26	10023	Trial2BackEngS	NS	17	0	1000	1	111	13:37:26	3121930	4	3	3	3	3	3	3	3	1	7	3	3	0	0	0	5	3	0	0	0	0	0		1	0	0	0	0	0	0	0
010813	13:37:26	10023	Trial2BackEngS	NS	17	0	1000	1	111	13:37:26	3123436	4	3	3	3	3	3	3	3	1	7	3	3	0	0	0	5	3	0	0	0	0	0		1	0	0	0	0	0	0	0
010813	13:37:26	10023	Trial2BackEngS	YS	17	0	1000	0	111	13:37:26	3124942	4	3	3	3	3	3	3	3	1	7	3	3	0	0	0	5	3	0	0	0	0	0		1	0	0	0	0	0	0	0
010813	13:37:26	10023	Trial2BackEngS	NS	17	0	1000	1	111	13:37:26	3126448	4	3	3	3	3	3	3	3	1	7	3	3	0	0	0	5	3	0	0	0	0	0		1	0	0	0	0	0	0	0
010813	13:37:26	10023	Trial2BackEngS	NS	17	0	1000	1	111	13:37:26	3127954	4	3	3	3	3	3	3	3	1	7	3	3	0	0	0	5	3	0	0	0	0	0		1	0	0	0	0	0	0	0
010813	13:37:26	10023	Trial2BackEngS	NS	17	0	1000	1	111	13:37:26	3129473	4	3	3	3	3	3	3	3	1	7	3	3	0	0	0	5	3	0	0	0	0	0		1	0	0	0	0	0	0	0
010813	13:37:26	10023	Trial2BackEngS	NS	17	0	1000	1	111	13:37:26	3130980	4	3	3	3	3	3	3	3	1	7	3	3	0	0	0	5	3	0	0	0	0	0		1	0	0	0	0	0	0	0
010813	13:37:26	10023	Trial2BackEngS	NS	17	0	1000	1	111	13:37:26	3132485	4	3	3	3	3	3	3	3	1	7	3	3	0	0	0	5	3	0	0	0	0	0		1	0	0	0	0	0	0	0
010813	13:37:26	10023	Trial2BackEngS	NS	17	57	630	0	111	13:37:26	3133632	4	3	3	3	3	3	3	3	1	7	3	3	0	0	0	5	3	0	0	0	0	0		1	0	0	0	0	0	0	0
010813	13:37:26	10023	Trial2BackEngS	NS	17	0	1000	1	111	13:37:26	3135498	4	3	3	3	3	3	3	3	1	7	3	3	0	0	0	5	3	0	0	0	0	0		1	0	0	0	0	0	0	0
010813	13:37:26	10023	Trial2BackEngS	NS	17	0	1000	1	111	13:37:26	3137004	4	3	3	3	3	3	3	3	1	7	3	3	0	0	0	5	3	0	0	0	0	0		1	0	0	0	0	0	0	0
010813	13:37:26	10023	Trial2BackEngS	NS	17	0	1000	1	111	13:37:26	3138523	4	3	3	3	3	3	3	3	1	7	3	3	0	0	0	5	3	0	0	0	0	0		1	0	0	0	0	0	0	0
010813	13:37:26	10023	Trial2BackEngS	YS	17	0	1000	0	111	13:37:26	3140029	4	3	3	3	3	3	3	3	1	7	3	3	0	0	0	5	3	0	0	0	0	0		1	0	0	0	0	0	0	0
010813	13:37:26	10023	Trial2BackEngS	NS	17	0	1000	1	111	13:37:26	3141535	4	3	3	3	3	3	3	3	1	7	3	3	0	0	0	5	3	0	0	0	0	0		1	0	0	0	0	0	0	0
010813	13:37:26	10023	ClockEng6mo	ClockEng6mo	19	Clock1	40369	0	111	13:37:26	3182025	4	3	3	3	3	3	3	3	1	7	3	3	1	0	0	5	3	0	0	0	0	0		1	0	0	0	0	0	0	0
010813	13:37:26	10023	ClockEng6mo	ClockEng6mo	19	Clock11	16276	0	111	13:37:26	3198365	4	3	3	3	3	3	3	3	1	7	3	3	1	1	0	5	3	0	0	0	0	0		1	0	0	0	0	0	0	0
010813	13:37:26	10023	ClockEng6mo	ClockEng6mo	19	Clock111	549	0	111	13:37:26	3198965	4	3	3	3	3	3	3	3	1	7	3	3	1	1	1	5	3	0	0	0	0	0		1	0	0	0	0	0	0	0
010813	13:37:26	10023	ClockEng6mo	ClockEng6mo	19	Clockdone	526	0	111	13:37:26	3199538	4	3	3	3	3	3	3	3	1	7	3	3	1	1	1	5	3	0	0	0	0	0		1	0	0	0	0	0	0	0
010813	13:37:26	10023	FASEngVF6mo	StopEngVF6mo	20	22	4369	0	111	13:37:26	3299458	4	3	3	3	3	3	3	3	1	7	3	3	1	1	1	5	3	0	0	0	0	0		1	0	0	0	0	0	0	0
010813	13:37:26	10023	practiceTOLENG	choice	20	R	6347	0	111	13:37:26	3386358	4	3	3	3	3	3	3	3	1	7	3	3	1	1	1	5	3	0	1	2	0	-2	R	0	0	0	6431	0	0	3379927	3386358
010813	13:37:26	10023	practiceTOLENG	choice	20	B	1450	0	111	13:37:26	3393430	4	3	3	3	3	3	3	3	1	7	3	3	1	1	1	5	3	0	1	2	1	-1	R3B	0	0	0	6431	0	0	3391930	3393430
010813	13:37:26	10023	practiceTOLENG	feedbackENG	20	0	2000	0	111	13:37:26	3397546	4	3	3	3	3	3	3	3	1	7	3	3	1	1	1	5	3	0	1	2	2	0	R3B1	1	3	3	6431	9149	15580	3391930	3393430
010813	13:37:26	10023	testTOLENG	choice	20	B	4108	0	111	13:37:26	3409230	4	3	3	3	3	3	3	3	1	7	3	3	1	1	1	5	3	2	1	2	0	-2	B	0	0	0	4180	0	0	3405049	3409229
010813	13:37:26	10023	testTOLENG	choice	20	R	1214	0	111	13:37:26	3412373	4	3	3	3	3	3	3	3	1	7	3	3	1	1	1	5	3	2	1	2	1	-1	B3R	0	0	0	4180	0	0	3411113	3412373
010813	13:37:26	10023	testTOLENG	feedbackENG	20	0	2000	0	111	13:37:26	3415828	4	3	3	3	3	3	3	3	1	7	3	3	1	1	1	5	3	2	1	2	2	0	B3R2	1	3	3	4180	4564	8744	3411113	3412373
010813	13:37:26	10023	testTOLENG	choice	20	B	4542	0	111	13:37:26	3421445	4	3	3	3	3	3	3	3	1	7	3	3	1	1	1	5	3	4	1	3	0	-3	B	0	0	3	4605	0	0	3416840	3421445
010813	13:37:26	10023	testTOLENG	choice	20	R	1428	0	111	13:37:26	3424701	4	3	3	3	3	3	3	3	1	7	3	3	1	1	1	5	3	4	1	3	1	-2	B3R	0	0	3	4605	0	0	3423233	3424701
010813	13:37:26	10023	testTOLENG	choice	20	B	1325	0	111	13:37:26	3427797	4	3	3	3	3	3	3	3	1	7	3	3	1	1	1	5	3	4	1	3	2	-1	B3R2B	0	0	3	4605	0	0	3426432	3427797
010813	13:37:26	10023	testTOLENG	feedbackENG	20	0	2000	0	111	13:37:26	3432123	4	3	3	3	3	3	3	3	1	7	3	3	1	1	1	5	3	4	1	3	3	0	B3R2B2	1	3	6	4605	8643	13248	3426432	3427797
010813	13:37:26	10023	testTOLENG	choice	20	R	3674	0	111	13:37:26	3436877	4	3	3	3	3	3	3	3	1	7	3	3	1	1	1	5	3	7	1	4	0	-4	R	0	0	6	3740	0	0	3433136	3436876
010813	13:37:26	10023	testTOLENG	choice	20	G	871	0	111	13:37:26	3442205	4	3	3	3	3	3	3	3	1	7	3	3	1	1	1	5	3	7	1	4	1	-3	R2G	0	0	6	3740	0	0	3441281	3442204
010813	13:37:26	10023	testTOLENG	choice	20	R	1369	0	111	13:37:26	3445661	4	3	3	3	3	3	3	3	1	7	3	3	1	1	1	5	3	7	1	4	2	-2	R2G3R	0	0	6	3740	0	0	3444241	3445660
010813	13:37:26	10023	testTOLENG	choice	20	B	1018	0	111	13:37:26	3448429	4	3	3	3	3	3	3	3	1	7	3	3	1	1	1	5	3	7	1	4	3	-1	R2G3R1B	0	0	6	3740	0	0	3447361	3448428
010813	13:37:26	10023	testTOLENG	feedbackENG	20	0	2000	0	111	13:37:26	3452181	4	3	3	3	3	3	3	3	1	7	3	3	1	1	1	5	3	7	1	4	4	0	R2G3R1B1	1	3	9	3740	13269	17009	3447361	3448428
010813	13:37:26	10023	testTOLENG	choice	20	R	3415	0	111	13:37:26	3456676	4	3	3	3	3	3	3	3	1	7	3	3	1	1	1	5	3	10	1	5	0	-5	R	0	0	9	3482	0	0	3453194	3456676
010813	13:37:26	10023	testTOLENG	choice	20	G	1401	0	111	13:37:26	3461900	4	3	3	3	3	3	3	3	1	7	3	3	1	1	1	5	3	10	1	5	1	-4	R3G	0	0	9	3482	0	0	3460448	3461900
010813	13:37:26	10023	testTOLENG	choice	20	R	924	0	111	13:37:26	3467740	4	3	3	3	3	3	3	3	1	7	3	3	1	1	1	5	3	10	1	5	2	-3	R3G2R	0	0	9	3482	0	0	3466760	3467740
010813	13:37:26	10023	testTOLENG	choice	20	G	765	0	111	13:37:26	3471180	4	3	3	3	3	3	3	3	1	7	3	3	1	1	1	5	3	10	1	5	3	-2	R3G2R1G	0	0	9	3482	0	0	3470360	3471179
010813	13:37:26	10023	testTOLENG	choice	20	B	1147	0	111	13:37:26	3473748	4	3	3	3	3	3	3	3	1	7	3	3	1	1	1	5	3	10	1	5	4	-1	R3G2R1G3B	0	0	9	3482	0	0	3472552	3473747
010813	13:37:26	10023	testTOLENG	choice	20	G	1217	0	111	13:37:26	3476164	4	3	3	3	3	3	3	3	1	7	3	3	1	1	1	5	3	10	1	5	5	0	R3G2R1G3B1G	0	0	9	3482	0	0	3474888	3476163
010813	13:37:26	10023	testTOLENG	feedbackENG	20	0	2000	0	111	13:37:26	3479374	4	3	3	3	3	3	3	3	1	7	3	3	1	1	1	5	3	10	1	5	6	1	R3G2R1G3B1G1	1	0	9	3482	20660	24142	3474888	3476163
010813	13:37:26	10023	testTOLENG	choice	20	R	6926	0	111	13:37:26	3487363	4	3	3	3	3	3	3	3	1	7	3	3	1	1	1	5	3	10	2	5	0	-5	R	0	0	9	6974	0	0	3480389	3487363
010813	13:37:26	10023	testTOLENG	choice	20	G	1132	0	111	13:37:26	3492964	4	3	3	3	3	3	3	3	1	7	3	3	1	1	1	5	3	10	2	5	1	-4	R3G	0	0	9	6974	0	0	3491786	3492964
010813	13:37:26	10023	testTOLENG	choice	20	R	1295	0	111	13:37:26	3497259	4	3	3	3	3	3	3	3	1	7	3	3	1	1	1	5	3	10	2	5	2	-3	R3G2R	0	0	9	6974	0	0	3495912	3497259
010813	13:37:26	10023	testTOLENG	choice	20	G	1414	0	111	13:37:26	3502043	4	3	3	3	3	3	3	3	1	7	3	3	1	1	1	5	3	10	2	5	3	-2	R3G2R1G	0	0	9	6974	0	0	3500584	3502043
010813	13:37:26	10023	testTOLENG	choice	20	B	1439	0	111	13:37:26	3508412	4	3	3	3	3	3	3	3	1	7	3	3	1	1	1	5	3	10	2	5	4	-1	R3G2R1G3B	0	0	9	6974	0	0	3506927	3508412
010813	13:37:26	10023	testTOLENG	choice	20	G	1098	0	111	13:37:26	3511123	4	3	3	3	3	3	3	3	1	7	3	3	1	1	1	5	3	10	2	5	5	0	R3G2R1G3B1G	0	0	9	6974	0	0	3509975	3511122
010813	13:37:26	10023	testTOLENG	feedbackENG	20	0	2000	0	111	13:37:26	3515229	4	3	3	3	3	3	3	3	1	7	3	3	1	1	1	5	3	10	2	5	6	1	R3G2R1G3B1G1	1	0	9	6974	25828	32802	3509975	3511122
010813	13:37:26	10023	testTOLENG	choice	20	R	13441	0	111	13:37:26	3529730	4	3	3	3	3	3	3	3	1	7	3	3	1	1	1	5	3	10	3	5	0	-5	R	0	0	9	13489	0	0	3516241	3529730
010813	13:37:26	10023	testTOLENG	choice	20	G	1530	0	111	13:37:26	3539970	4	3	3	3	3	3	3	3	1	7	3	3	1	1	1	5	3	10	3	5	1	-4	R2G	0	0	9	13489	0	0	3538397	3539969
010813	13:37:26	10023	testTOLENG	choice	20	R	907	0	111	13:37:26	3543066	4	3	3	3	3	3	3	3	1	7	3	3	1	1	1	5	3	10	3	5	2	-3	R2G3R	0	0	9	13489	0	0	3542110	3543065
010813	13:37:26	10023	testTOLENG	choice	20	B	1043	0	111	13:37:26	3548106	4	3	3	3	3	3	3	3	1	7	3	3	1	1	1	5	3	10	3	5	3	-2	R2G3R1B	0	0	9	13489	0	0	3547006	3548105
010813	13:37:26	10023	testTOLENG	choice	20	G	1025	0	111	13:37:26	3550434	4	3	3	3	3	3	3	3	1	7	3	3	1	1	1	5	3	10	3	5	4	-1	R2G3R1B1G	0	0	9	13489	0	0	3549358	3550433
010813	13:37:26	10023	testTOLENG	feedbackENG	20	0	2000	0	111	13:37:26	3553636	4	3	3	3	3	3	3	3	1	7	3	3	1	1	1	5	3	10	3	5	5	0	R2G3R1B1G1	1	1	10	13489	21868	35357	3549358	3550433
