date	time	subject	blockcode	trialcode	values.TaskNumber	response	latency	correct	values.Score	script.starttime	script.elapsedtime	values.ScoreS7	values.Word1	values.Word2	values.Word3	values.Word4	values.Word5	values.Word6	values.Word7	values.Word8	values.DigitSpanFwrd	values.DigitSpanBack	values.ScoreAbs	values.Contour	values.Numbers	values.Hands	values.corsiblockspanFwrd	values.corsiblockspanRev
121912	10:02:21	10010	Language	Language	0	English	603790	0	0	10:02:21	603922	0	0	0	0	0	0	0	0	0	0	0	0	0	0	0	0	0
121912	10:02:21	10010	Session	Session	0	6mo	943	0	0	10:02:21	604921	0	0	0	0	0	0	0	0	0	0	0	0	0	0	0	0	0
121912	10:02:21	10010	HandEng	HandEng	0	Right	4055	0	0	10:02:21	609039	0	0	0	0	0	0	0	0	0	0	0	0	0	0	0	0	0
121912	10:02:21	10010	CubeEng	CubeEng	1	1Cube	44526	0	0	10:02:21	936773	0	0	0	0	0	0	0	0	0	0	0	0	0	0	0	0	0
121912	10:02:21	10010	pm.simpleEngRight	blank.simpleEng	2	0	2200	1	0	10:02:21	960764	0	0	0	0	0	0	0	0	0	0	0	0	0	0	0	0	0
121912	10:02:21	10010	pm.simpleEngRight	pm.simpleEng	2	57	297	0	0	10:02:21	961083	0	0	0	0	0	0	0	0	0	0	0	0	0	0	0	0	0
121912	10:02:21	10010	pm.simpleEngRight	blank.simpleEng	2	0	2300	1	0	10:02:21	963402	0	0	0	0	0	0	0	0	0	0	0	0	0	0	0	0	0
121912	10:02:21	10010	pm.simpleEngRight	pm.simpleEng	2	57	234	0	0	10:02:21	963655	0	0	0	0	0	0	0	0	0	0	0	0	0	0	0	0	0
121912	10:02:21	10010	pm.simpleEngRight	blank.simpleEng	2	0	1700	1	0	10:02:21	965375	0	0	0	0	0	0	0	0	0	0	0	0	0	0	0	0	0
121912	10:02:21	10010	pm.simpleEngRight	pm.simpleEng	2	57	262	0	0	10:02:21	965655	0	0	0	0	0	0	0	0	0	0	0	0	0	0	0	0	0
121912	10:02:21	10010	pm.simpleEngRight	blank.simpleEng	2	0	2400	1	0	10:02:21	968067	0	0	0	0	0	0	0	0	0	0	0	0	0	0	0	0	0
121912	10:02:21	10010	pm.simpleEngRight	pm.simpleEng	2	57	241	0	0	10:02:21	968334	0	0	0	0	0	0	0	0	0	0	0	0	0	0	0	0	0
121912	10:02:21	10010	pm.simpleEngRight	blank.simpleEng	2	0	1500	1	0	10:02:21	969853	0	0	0	0	0	0	0	0	0	0	0	0	0	0	0	0	0
121912	10:02:21	10010	pm.simpleEngRight	pm.simpleEng	2	57	311	0	0	10:02:21	970186	0	0	0	0	0	0	0	0	0	0	0	0	0	0	0	0	0
121912	10:02:21	10010	pm.simpleEngRight	blank.simpleEng	2	0	1800	1	0	10:02:21	971999	0	0	0	0	0	0	0	0	0	0	0	0	0	0	0	0	0
121912	10:02:21	10010	pm.simpleEngRight	pm.simpleEng	2	57	229	0	0	10:02:21	972252	0	0	0	0	0	0	0	0	0	0	0	0	0	0	0	0	0
121912	10:02:21	10010	pm.simpleEngRight	blank.simpleEng	2	0	1900	1	0	10:02:21	974171	0	0	0	0	0	0	0	0	0	0	0	0	0	0	0	0	0
121912	10:02:21	10010	pm.simpleEngRight	pm.simpleEng	2	57	233	0	0	10:02:21	974425	0	0	0	0	0	0	0	0	0	0	0	0	0	0	0	0	0
121912	10:02:21	10010	pm.simpleEngRight	blank.simpleEng	2	0	2100	1	0	10:02:21	976544	0	0	0	0	0	0	0	0	0	0	0	0	0	0	0	0	0
121912	10:02:21	10010	pm.simpleEngRight	pm.simpleEng	2	57	245	0	0	10:02:21	976810	0	0	0	0	0	0	0	0	0	0	0	0	0	0	0	0	0
121912	10:02:21	10010	pm.simpleEngRight	blank.simpleEng	2	0	1600	1	0	10:02:21	978423	0	0	0	0	0	0	0	0	0	0	0	0	0	0	0	0	0
121912	10:02:21	10010	pm.simpleEngRight	pm.simpleEng	2	57	269	0	0	10:02:21	978716	0	0	0	0	0	0	0	0	0	0	0	0	0	0	0	0	0
121912	10:02:21	10010	pm.simpleEngRight	blank.simpleEng	2	0	2500	1	0	10:02:21	981235	0	0	0	0	0	0	0	0	0	0	0	0	0	0	0	0	0
121912	10:02:21	10010	pm.simpleEngRight	pm.simpleEng	2	57	240	0	0	10:02:21	981502	0	0	0	0	0	0	0	0	0	0	0	0	0	0	0	0	0
121912	10:02:21	10010	pm.simpleEngRight	blank.simpleEng	2	0	2000	1	0	10:02:21	983514	0	0	0	0	0	0	0	0	0	0	0	0	0	0	0	0	0
121912	10:02:21	10010	pm.simpleEngRight	pm.simpleEng	2	57	250	0	0	10:02:21	983781	0	0	0	0	0	0	0	0	0	0	0	0	0	0	0	0	0
121912	10:02:21	10010	pm.simpleEngRight	blank.simpleEng	2	0	1600	1	0	10:02:21	985394	0	0	0	0	0	0	0	0	0	0	0	0	0	0	0	0	0
121912	10:02:21	10010	pm.simpleEngRight	pm.simpleEng	2	57	243	0	0	10:02:21	985660	0	0	0	0	0	0	0	0	0	0	0	0	0	0	0	0	0
121912	10:02:21	10010	pm.simpleEngRight	blank.simpleEng	2	0	2300	1	0	10:02:21	987979	0	0	0	0	0	0	0	0	0	0	0	0	0	0	0	0	0
121912	10:02:21	10010	pm.simpleEngRight	pm.simpleEng	2	57	265	0	0	10:02:21	988273	0	0	0	0	0	0	0	0	0	0	0	0	0	0	0	0	0
121912	10:02:21	10010	pm.simpleEngRight	blank.simpleEng	2	0	1900	1	0	10:02:21	990191	0	0	0	0	0	0	0	0	0	0	0	0	0	0	0	0	0
121912	10:02:21	10010	pm.simpleEngRight	pm.simpleEng	2	57	260	0	0	10:02:21	990471	0	0	0	0	0	0	0	0	0	0	0	0	0	0	0	0	0
121912	10:02:21	10010	pm.simpleEngRight	blank.simpleEng	2	0	1500	1	0	10:02:21	991991	0	0	0	0	0	0	0	0	0	0	0	0	0	0	0	0	0
121912	10:02:21	10010	pm.simpleEngRight	pm.simpleEng	2	57	221	0	0	10:02:21	992231	0	0	0	0	0	0	0	0	0	0	0	0	0	0	0	0	0
121912	10:02:21	10010	pm.simpleEngRight	blank.simpleEng	2	0	1800	1	0	10:02:21	994043	0	0	0	0	0	0	0	0	0	0	0	0	0	0	0	0	0
121912	10:02:21	10010	pm.simpleEngRight	pm.simpleEng	2	57	248	0	0	10:02:21	994310	0	0	0	0	0	0	0	0	0	0	0	0	0	0	0	0	0
121912	10:02:21	10010	pm.simpleEngRight	blank.simpleEng	2	0	2100	1	0	10:02:21	996429	0	0	0	0	0	0	0	0	0	0	0	0	0	0	0	0	0
121912	10:02:21	10010	pm.simpleEngRight	pm.simpleEng	2	57	247	0	0	10:02:21	996695	0	0	0	0	0	0	0	0	0	0	0	0	0	0	0	0	0
121912	10:02:21	10010	pm.simpleEngRight	blank.simpleEng	2	0	1700	1	0	10:02:21	998415	0	0	0	0	0	0	0	0	0	0	0	0	0	0	0	0	0
121912	10:02:21	10010	pm.simpleEngRight	pm.simpleEng	2	57	245	0	0	10:02:21	998682	0	0	0	0	0	0	0	0	0	0	0	0	0	0	0	0	0
121912	10:02:21	10010	pm.simpleEngRight	blank.simpleEng	2	0	2000	1	0	10:02:21	1000694	0	0	0	0	0	0	0	0	0	0	0	0	0	0	0	0	0
121912	10:02:21	10010	pm.simpleEngRight	pm.simpleEng	2	57	238	0	0	10:02:21	1000961	0	0	0	0	0	0	0	0	0	0	0	0	0	0	0	0	0
121912	10:02:21	10010	pm.simpleEngRight	blank.simpleEng	2	0	2200	1	0	10:02:21	1003186	0	0	0	0	0	0	0	0	0	0	0	0	0	0	0	0	0
121912	10:02:21	10010	pm.simpleEngRight	pm.simpleEng	2	57	241	0	0	10:02:21	1003453	0	0	0	0	0	0	0	0	0	0	0	0	0	0	0	0	0
121912	10:02:21	10010	pm.simpleEngRight	blank.simpleEng	2	0	2500	1	0	10:02:21	1005972	0	0	0	0	0	0	0	0	0	0	0	0	0	0	0	0	0
121912	10:02:21	10010	pm.simpleEngRight	pm.simpleEng	2	57	240	0	0	10:02:21	1006238	0	0	0	0	0	0	0	0	0	0	0	0	0	0	0	0	0
121912	10:02:21	10010	pm.simpleEngRight	blank.simpleEng	2	0	2400	1	0	10:02:21	1008664	0	0	0	0	0	0	0	0	0	0	0	0	0	0	0	0	0
121912	10:02:21	10010	pm.simpleEngRight	pm.simpleEng	2	57	251	0	0	10:02:21	1008944	0	0	0	0	0	0	0	0	0	0	0	0	0	0	0	0	0
121912	10:02:21	10010	pm.simpleEngRight	blank.simpleEng	2	0	1500	1	0	10:02:21	1010463	0	0	0	0	0	0	0	0	0	0	0	0	0	0	0	0	0
121912	10:02:21	10010	pm.simpleEngRight	pm.simpleEng	2	57	228	0	0	10:02:21	1010717	0	0	0	0	0	0	0	0	0	0	0	0	0	0	0	0	0
121912	10:02:21	10010	pm.simpleEngRight	blank.simpleEng	2	0	1800	1	0	10:02:21	1012529	0	0	0	0	0	0	0	0	0	0	0	0	0	0	0	0	0
121912	10:02:21	10010	pm.simpleEngRight	pm.simpleEng	2	57	210	0	0	10:02:21	1012756	0	0	0	0	0	0	0	0	0	0	0	0	0	0	0	0	0
121912	10:02:21	10010	pm.simpleEngRight	blank.simpleEng	2	0	2500	1	0	10:02:21	1015275	0	0	0	0	0	0	0	0	0	0	0	0	0	0	0	0	0
121912	10:02:21	10010	pm.simpleEngRight	pm.simpleEng	2	57	233	0	0	10:02:21	1015528	0	0	0	0	0	0	0	0	0	0	0	0	0	0	0	0	0
121912	10:02:21	10010	pm.simpleEngRight	blank.simpleEng	2	0	1700	1	0	10:02:21	1017247	0	0	0	0	0	0	0	0	0	0	0	0	0	0	0	0	0
121912	10:02:21	10010	pm.simpleEngRight	pm.simpleEng	2	57	228	0	0	10:02:21	1017500	0	0	0	0	0	0	0	0	0	0	0	0	0	0	0	0	0
121912	10:02:21	10010	pm.simpleEngRight	blank.simpleEng	2	57	1911	0	0	10:02:21	1020432	0	0	0	0	0	0	0	0	0	0	0	0	0	0	0	0	0
121912	10:02:21	10010	pm.simpleEngRight	blank.simpleEng	2	0	1600	1	0	10:02:21	1022045	0	0	0	0	0	0	0	0	0	0	0	0	0	0	0	0	0
121912	10:02:21	10010	pm.simpleEngRight	pm.simpleEng	2	57	262	0	0	10:02:21	1022325	0	0	0	0	0	0	0	0	0	0	0	0	0	0	0	0	0
121912	10:02:21	10010	pm.simpleEngRight	blank.simpleEng	2	0	2000	1	0	10:02:21	1024338	0	0	0	0	0	0	0	0	0	0	0	0	0	0	0	0	0
121912	10:02:21	10010	pm.simpleEngRight	pm.simpleEng	2	57	356	0	0	10:02:21	1024711	0	0	0	0	0	0	0	0	0	0	0	0	0	0	0	0	0
121912	10:02:21	10010	pm.simpleEngRight	blank.simpleEng	2	0	1900	1	0	10:02:21	1026630	0	0	0	0	0	0	0	0	0	0	0	0	0	0	0	0	0
121912	10:02:21	10010	pm.simpleEngRight	pm.simpleEng	2	57	285	0	0	10:02:21	1026937	0	0	0	0	0	0	0	0	0	0	0	0	0	0	0	0	0
121912	10:02:21	10010	pm.simpleEngRight	blank.simpleEng	2	0	2100	1	0	10:02:21	1029056	0	0	0	0	0	0	0	0	0	0	0	0	0	0	0	0	0
121912	10:02:21	10010	pm.simpleEngRight	pm.simpleEng	2	57	339	0	0	10:02:21	1029416	0	0	0	0	0	0	0	0	0	0	0	0	0	0	0	0	0
121912	10:02:21	10010	pm.simpleEngRight	blank.simpleEng	2	0	2200	1	0	10:02:21	1031642	0	0	0	0	0	0	0	0	0	0	0	0	0	0	0	0	0
121912	10:02:21	10010	pm.simpleEngRight	pm.simpleEng	2	57	329	0	0	10:02:21	1031988	0	0	0	0	0	0	0	0	0	0	0	0	0	0	0	0	0
121912	10:02:21	10010	pm.simpleEngRight	blank.simpleEng	2	0	2300	1	0	10:02:21	1034307	0	0	0	0	0	0	0	0	0	0	0	0	0	0	0	0	0
121912	10:02:21	10010	pm.simpleEngRight	pm.simpleEng	2	57	240	0	0	10:02:21	1034574	0	0	0	0	0	0	0	0	0	0	0	0	0	0	0	0	0
121912	10:02:21	10010	pm.simpleEngRight	blank.simpleEng	2	0	1500	1	0	10:02:21	1036093	0	0	0	0	0	0	0	0	0	0	0	0	0	0	0	0	0
121912	10:02:21	10010	pm.simpleEngRight	pm.simpleEng	2	57	310	0	0	10:02:21	1036426	0	0	0	0	0	0	0	0	0	0	0	0	0	0	0	0	0
121912	10:02:21	10010	pm.simpleEngRight	blank.simpleEng	2	0	1600	1	0	10:02:21	1038039	0	0	0	0	0	0	0	0	0	0	0	0	0	0	0	0	0
121912	10:02:21	10010	pm.simpleEngRight	pm.simpleEng	2	57	268	0	0	10:02:21	1038332	0	0	0	0	0	0	0	0	0	0	0	0	0	0	0	0	0
121912	10:02:21	10010	pm.simpleEngRight	blank.simpleEng	2	0	2400	1	0	10:02:21	1040758	0	0	0	0	0	0	0	0	0	0	0	0	0	0	0	0	0
121912	10:02:21	10010	pm.simpleEngRight	pm.simpleEng	2	57	253	0	0	10:02:21	1041038	0	0	0	0	0	0	0	0	0	0	0	0	0	0	0	0	0
121912	10:02:21	10010	pm.simpleEngRight	blank.simpleEng	2	0	2500	1	0	10:02:21	1043557	0	0	0	0	0	0	0	0	0	0	0	0	0	0	0	0	0
121912	10:02:21	10010	pm.simpleEngRight	pm.simpleEng	2	57	254	0	0	10:02:21	1043836	0	0	0	0	0	0	0	0	0	0	0	0	0	0	0	0	0
121912	10:02:21	10010	pm.simpleEngRight	blank.simpleEng	2	0	2200	1	0	10:02:21	1046049	0	0	0	0	0	0	0	0	0	0	0	0	0	0	0	0	0
121912	10:02:21	10010	pm.simpleEngRight	pm.simpleEng	2	57	258	0	0	10:02:21	1046329	0	0	0	0	0	0	0	0	0	0	0	0	0	0	0	0	0
121912	10:02:21	10010	pm.simpleEngRight	blank.simpleEng	2	0	1700	1	0	10:02:21	1048048	0	0	0	0	0	0	0	0	0	0	0	0	0	0	0	0	0
121912	10:02:21	10010	pm.simpleEngRight	pm.simpleEng	2	57	242	0	0	10:02:21	1048315	0	0	0	0	0	0	0	0	0	0	0	0	0	0	0	0	0
121912	10:02:21	10010	pm.simpleEngRight	blank.simpleEng	2	0	2300	1	0	10:02:21	1050634	0	0	0	0	0	0	0	0	0	0	0	0	0	0	0	0	0
121912	10:02:21	10010	pm.simpleEngRight	pm.simpleEng	2	57	217	0	0	10:02:21	1050874	0	0	0	0	0	0	0	0	0	0	0	0	0	0	0	0	0
121912	10:02:21	10010	pm.simpleEngRight	blank.simpleEng	2	0	2100	1	0	10:02:21	1052993	0	0	0	0	0	0	0	0	0	0	0	0	0	0	0	0	0
121912	10:02:21	10010	pm.simpleEngRight	pm.simpleEng	2	57	242	0	0	10:02:21	1053259	0	0	0	0	0	0	0	0	0	0	0	0	0	0	0	0	0
121912	10:02:21	10010	Trial2BackEng	N	3	0	1000	1	1	10:02:21	1099947	0	0	0	0	0	0	0	0	0	0	0	0	0	0	0	0	0
121912	10:02:21	10010	Trial2BackEng	N	3	0	1000	1	2	10:02:21	1101453	0	0	0	0	0	0	0	0	0	0	0	0	0	0	0	0	0
121912	10:02:21	10010	Trial2BackEng	N	3	0	1000	1	3	10:02:21	1102959	0	0	0	0	0	0	0	0	0	0	0	0	0	0	0	0	0
121912	10:02:21	10010	Trial2BackEng	N	3	0	1000	1	4	10:02:21	1104465	0	0	0	0	0	0	0	0	0	0	0	0	0	0	0	0	0
121912	10:02:21	10010	Trial2BackEng	N	3	0	1000	1	5	10:02:21	1105971	0	0	0	0	0	0	0	0	0	0	0	0	0	0	0	0	0
121912	10:02:21	10010	Trial2BackEng	N	3	0	1000	1	6	10:02:21	1107491	0	0	0	0	0	0	0	0	0	0	0	0	0	0	0	0	0
121912	10:02:21	10010	Trial2BackEng	N	3	0	1000	1	7	10:02:21	1108997	0	0	0	0	0	0	0	0	0	0	0	0	0	0	0	0	0
121912	10:02:21	10010	Trial2BackEng	N	3	0	1000	1	8	10:02:21	1110503	0	0	0	0	0	0	0	0	0	0	0	0	0	0	0	0	0
121912	10:02:21	10010	Trial2BackEng	Y	3	57	511	1	9	10:02:21	1111529	0	0	0	0	0	0	0	0	0	0	0	0	0	0	0	0	0
121912	10:02:21	10010	Trial2BackEng	N	3	0	1000	1	10	10:02:21	1113515	0	0	0	0	0	0	0	0	0	0	0	0	0	0	0	0	0
121912	10:02:21	10010	Trial2BackEng	N	3	0	1000	1	11	10:02:21	1115021	0	0	0	0	0	0	0	0	0	0	0	0	0	0	0	0	0
121912	10:02:21	10010	Trial2BackEng	N	3	0	1000	1	12	10:02:21	1116527	0	0	0	0	0	0	0	0	0	0	0	0	0	0	0	0	0
121912	10:02:21	10010	Trial2BackEng	Y	3	57	550	1	13	10:02:21	1117593	0	0	0	0	0	0	0	0	0	0	0	0	0	0	0	0	0
121912	10:02:21	10010	Trial2BackEng	N	3	0	1000	1	14	10:02:21	1119539	0	0	0	0	0	0	0	0	0	0	0	0	0	0	0	0	0
121912	10:02:21	10010	Trial2BackEng	N	3	0	1000	1	15	10:02:21	1121045	0	0	0	0	0	0	0	0	0	0	0	0	0	0	0	0	0
121912	10:02:21	10010	Trial2BackEng	N	3	0	1000	1	16	10:02:21	1122551	0	0	0	0	0	0	0	0	0	0	0	0	0	0	0	0	0
121912	10:02:21	10010	Trial2BackEng	N	3	0	1000	1	17	10:02:21	1124057	0	0	0	0	0	0	0	0	0	0	0	0	0	0	0	0	0
121912	10:02:21	10010	Trial2BackEng	N	3	0	1000	1	18	10:02:21	1125564	0	0	0	0	0	0	0	0	0	0	0	0	0	0	0	0	0
121912	10:02:21	10010	Trial2BackEng	Y	3	57	506	1	19	10:02:21	1126590	0	0	0	0	0	0	0	0	0	0	0	0	0	0	0	0	0
121912	10:02:21	10010	Trial2BackEng	N	3	0	1000	1	20	10:02:21	1128576	0	0	0	0	0	0	0	0	0	0	0	0	0	0	0	0	0
121912	10:02:21	10010	Trial2BackEng	N	3	0	1000	1	21	10:02:21	1130082	0	0	0	0	0	0	0	0	0	0	0	0	0	0	0	0	0
121912	10:02:21	10010	Trial2BackEng	N	3	0	1000	1	22	10:02:21	1131588	0	0	0	0	0	0	0	0	0	0	0	0	0	0	0	0	0
121912	10:02:21	10010	Trial2BackEng	N	3	57	690	0	22	10:02:21	1132787	0	0	0	0	0	0	0	0	0	0	0	0	0	0	0	0	0
121912	10:02:21	10010	Trial2BackEng	Y	3	0	1000	0	22	10:02:21	1134600	0	0	0	0	0	0	0	0	0	0	0	0	0	0	0	0	0
121912	10:02:21	10010	Trial2BackEng	N	3	0	1000	1	23	10:02:21	1136106	0	0	0	0	0	0	0	0	0	0	0	0	0	0	0	0	0
121912	10:02:21	10010	Trial2BackEng	N	3	0	1000	1	24	10:02:21	1137612	0	0	0	0	0	0	0	0	0	0	0	0	0	0	0	0	0
121912	10:02:21	10010	Trial2BackEng	N	3	0	1000	1	25	10:02:21	1139118	0	0	0	0	0	0	0	0	0	0	0	0	0	0	0	0	0
121912	10:02:21	10010	Trial2BackEng	N	3	0	1000	1	26	10:02:21	1140624	0	0	0	0	0	0	0	0	0	0	0	0	0	0	0	0	0
121912	10:02:21	10010	Trial2BackEng	N	3	0	1000	1	27	10:02:21	1142130	0	0	0	0	0	0	0	0	0	0	0	0	0	0	0	0	0
121912	10:02:21	10010	Trial2BackEng	N	3	0	1000	1	28	10:02:21	1143636	0	0	0	0	0	0	0	0	0	0	0	0	0	0	0	0	0
121912	10:02:21	10010	Trial2BackEng	Y	3	57	689	1	29	10:02:21	1144836	0	0	0	0	0	0	0	0	0	0	0	0	0	0	0	0	0
121912	10:02:21	10010	Trial2BackEng	N	3	0	1000	1	30	10:02:21	1146648	0	0	0	0	0	0	0	0	0	0	0	0	0	0	0	0	0
121912	10:02:21	10010	Trial2BackEng	N	3	0	1000	1	31	10:02:21	1148154	0	0	0	0	0	0	0	0	0	0	0	0	0	0	0	0	0
121912	10:02:21	10010	Trial2BackEng	N	3	0	1000	1	32	10:02:21	1149660	0	0	0	0	0	0	0	0	0	0	0	0	0	0	0	0	0
121912	10:02:21	10010	Trial2BackEng	Y	3	57	632	1	33	10:02:21	1150807	0	0	0	0	0	0	0	0	0	0	0	0	0	0	0	0	0
121912	10:02:21	10010	Trial2BackEng	N	3	0	1000	1	34	10:02:21	1152673	0	0	0	0	0	0	0	0	0	0	0	0	0	0	0	0	0
121912	10:02:21	10010	Trial2BackEng	N	3	0	1000	1	35	10:02:21	1154178	0	0	0	0	0	0	0	0	0	0	0	0	0	0	0	0	0
121912	10:02:21	10010	Trial2BackEng	N	3	0	1000	1	36	10:02:21	1155685	0	0	0	0	0	0	0	0	0	0	0	0	0	0	0	0	0
121912	10:02:21	10010	Trial2BackEng	N	3	0	1000	1	37	10:02:21	1157204	0	0	0	0	0	0	0	0	0	0	0	0	0	0	0	0	0
121912	10:02:21	10010	Trial2BackEng	N	3	0	1000	1	38	10:02:21	1158710	0	0	0	0	0	0	0	0	0	0	0	0	0	0	0	0	0
121912	10:02:21	10010	Trial2BackEng	N	3	0	1000	1	39	10:02:21	1160216	0	0	0	0	0	0	0	0	0	0	0	0	0	0	0	0	0
121912	10:02:21	10010	Trial2BackEng	Y	3	57	700	1	40	10:02:21	1161429	0	0	0	0	0	0	0	0	0	0	0	0	0	0	0	0	0
121912	10:02:21	10010	Trial2BackEng	N	3	0	1000	1	41	10:02:21	1163228	0	0	0	0	0	0	0	0	0	0	0	0	0	0	0	0	0
121912	10:02:21	10010	Trial2BackEng	N	3	0	1000	1	42	10:02:21	1164734	0	0	0	0	0	0	0	0	0	0	0	0	0	0	0	0	0
121912	10:02:21	10010	Trial2BackEng	N	3	0	1000	1	43	10:02:21	1166240	0	0	0	0	0	0	0	0	0	0	0	0	0	0	0	0	0
121912	10:02:21	10010	Trial2BackEng	N	3	0	1000	1	44	10:02:21	1167746	0	0	0	0	0	0	0	0	0	0	0	0	0	0	0	0	0
121912	10:02:21	10010	Trial2BackEng	Y	3	57	738	1	45	10:02:21	1168999	0	0	0	0	0	0	0	0	0	0	0	0	0	0	0	0	0
121912	10:02:21	10010	Trial2BackEng	N	3	0	1000	1	46	10:02:21	1170759	0	0	0	0	0	0	0	0	0	0	0	0	0	0	0	0	0
121912	10:02:21	10010	Trial2BackEng	N	3	0	1000	1	47	10:02:21	1172265	0	0	0	0	0	0	0	0	0	0	0	0	0	0	0	0	0
121912	10:02:21	10010	Trial2BackEng	N	3	0	1000	1	48	10:02:21	1173771	0	0	0	0	0	0	0	0	0	0	0	0	0	0	0	0	0
121912	10:02:21	10010	Trial2BackEng	N	3	0	1000	1	49	10:02:21	1175277	0	0	0	0	0	0	0	0	0	0	0	0	0	0	0	0	0
121912	10:02:21	10010	Trial2BackEng	N	3	0	1000	1	50	10:02:21	1176783	0	0	0	0	0	0	0	0	0	0	0	0	0	0	0	0	0
121912	10:02:21	10010	Trial2BackEng	Y	3	57	405	1	51	10:02:21	1177702	0	0	0	0	0	0	0	0	0	0	0	0	0	0	0	0	0
121912	10:02:21	10010	Trial2BackEng	N	3	0	1000	1	52	10:02:21	1179795	0	0	0	0	0	0	0	0	0	0	0	0	0	0	0	0	0
121912	10:02:21	10010	Trial2BackEng	N	3	0	1000	1	53	10:02:21	1181301	0	0	0	0	0	0	0	0	0	0	0	0	0	0	0	0	0
121912	10:02:21	10010	Trial2BackEng	N	3	0	1000	1	54	10:02:21	1182807	0	0	0	0	0	0	0	0	0	0	0	0	0	0	0	0	0
121912	10:02:21	10010	Trial2BackEng	N	3	0	1000	1	55	10:02:21	1184313	0	0	0	0	0	0	0	0	0	0	0	0	0	0	0	0	0
121912	10:02:21	10010	Trial2BackEng	N	3	0	1000	1	56	10:02:21	1185819	0	0	0	0	0	0	0	0	0	0	0	0	0	0	0	0	0
121912	10:02:21	10010	Trial2BackEng	N	3	0	1000	1	57	10:02:21	1187338	0	0	0	0	0	0	0	0	0	0	0	0	0	0	0	0	0
121912	10:02:21	10010	Trial2BackEng	Y	3	57	441	1	58	10:02:21	1188298	0	0	0	0	0	0	0	0	0	0	0	0	0	0	0	0	0
121912	10:02:21	10010	Trial2BackEng	N	3	0	1000	1	59	10:02:21	1190351	0	0	0	0	0	0	0	0	0	0	0	0	0	0	0	0	0
121912	10:02:21	10010	Trial2BackEng	N	3	0	1000	1	60	10:02:21	1191856	0	0	0	0	0	0	0	0	0	0	0	0	0	0	0	0	0
121912	10:02:21	10010	Trial2BackEng	Y	3	57	563	1	61	10:02:21	1192936	0	0	0	0	0	0	0	0	0	0	0	0	0	0	0	0	0
121912	10:02:21	10010	Trial2BackEng	N	3	0	1000	1	62	10:02:21	1194869	0	0	0	0	0	0	0	0	0	0	0	0	0	0	0	0	0
121912	10:02:21	10010	Trial2BackEng	N	3	0	1000	1	63	10:02:21	1196375	0	0	0	0	0	0	0	0	0	0	0	0	0	0	0	0	0
121912	10:02:21	10010	Trial2BackEng	N	3	0	1000	1	64	10:02:21	1197881	0	0	0	0	0	0	0	0	0	0	0	0	0	0	0	0	0
121912	10:02:21	10010	Trial2BackEng	N	3	0	1000	1	65	10:02:21	1199400	0	0	0	0	0	0	0	0	0	0	0	0	0	0	0	0	0
121912	10:02:21	10010	Trial2BackEng	N	3	0	1000	1	66	10:02:21	1200906	0	0	0	0	0	0	0	0	0	0	0	0	0	0	0	0	0
121912	10:02:21	10010	Trial2BackEng	N	3	0	1000	1	67	10:02:21	1202412	0	0	0	0	0	0	0	0	0	0	0	0	0	0	0	0	0
121912	10:02:21	10010	Trial2BackEng	N	3	0	1000	1	68	10:02:21	1203918	0	0	0	0	0	0	0	0	0	0	0	0	0	0	0	0	0
121912	10:02:21	10010	Trial2BackEng	N	3	0	1000	1	69	10:02:21	1205425	0	0	0	0	0	0	0	0	0	0	0	0	0	0	0	0	0
121912	10:02:21	10010	Trial2BackEng	N	3	0	1000	1	70	10:02:21	1206931	0	0	0	0	0	0	0	0	0	0	0	0	0	0	0	0	0
121912	10:02:21	10010	Trial2BackEng	N	3	0	1000	1	71	10:02:21	1208437	0	0	0	0	0	0	0	0	0	0	0	0	0	0	0	0	0
121912	10:02:21	10010	Trial2BackEng	Y	3	57	479	1	72	10:02:21	1209436	0	0	0	0	0	0	0	0	0	0	0	0	0	0	0	0	0
121912	10:02:21	10010	Trial2BackEng	N	3	0	1000	1	73	10:02:21	1211449	0	0	0	0	0	0	0	0	0	0	0	0	0	0	0	0	0
121912	10:02:21	10010	Trial2BackEng	N	3	0	1000	1	74	10:02:21	1212955	0	0	0	0	0	0	0	0	0	0	0	0	0	0	0	0	0
121912	10:02:21	10010	Trial2BackEng	N	3	0	1000	1	75	10:02:21	1214461	0	0	0	0	0	0	0	0	0	0	0	0	0	0	0	0	0
121912	10:02:21	10010	Trial2BackEng	Y	3	57	614	1	76	10:02:21	1215594	0	0	0	0	0	0	0	0	0	0	0	0	0	0	0	0	0
121912	10:02:21	10010	Trial2BackEng	N	3	0	1000	1	77	10:02:21	1217473	0	0	0	0	0	0	0	0	0	0	0	0	0	0	0	0	0
121912	10:02:21	10010	Trial2BackEng	N	3	0	1000	1	78	10:02:21	1218979	0	0	0	0	0	0	0	0	0	0	0	0	0	0	0	0	0
121912	10:02:21	10010	Trial2BackEng	N	3	0	1000	1	79	10:02:21	1220485	0	0	0	0	0	0	0	0	0	0	0	0	0	0	0	0	0
121912	10:02:21	10010	Trial2BackEng	N	3	0	1000	1	80	10:02:21	1221991	0	0	0	0	0	0	0	0	0	0	0	0	0	0	0	0	0
121912	10:02:21	10010	Trial2BackEng	N	3	0	1000	1	81	10:02:21	1223497	0	0	0	0	0	0	0	0	0	0	0	0	0	0	0	0	0
121912	10:02:21	10010	Trial2BackEng	Y	3	57	554	1	82	10:02:21	1224563	0	0	0	0	0	0	0	0	0	0	0	0	0	0	0	0	0
121912	10:02:21	10010	Trial2BackEng	N	3	0	1000	1	83	10:02:21	1226509	0	0	0	0	0	0	0	0	0	0	0	0	0	0	0	0	0
121912	10:02:21	10010	Trial2BackEng	N	3	0	1000	1	84	10:02:21	1228015	0	0	0	0	0	0	0	0	0	0	0	0	0	0	0	0	0
121912	10:02:21	10010	Trial2BackEng	N	3	0	1000	1	85	10:02:21	1229521	0	0	0	0	0	0	0	0	0	0	0	0	0	0	0	0	0
121912	10:02:21	10010	Trial2BackEng	N	3	0	1000	1	86	10:02:21	1231041	0	0	0	0	0	0	0	0	0	0	0	0	0	0	0	0	0
121912	10:02:21	10010	Trial2BackEng	N	3	0	1000	1	87	10:02:21	1232547	0	0	0	0	0	0	0	0	0	0	0	0	0	0	0	0	0
121912	10:02:21	10010	Trial2BackEng	N	3	0	1000	1	88	10:02:21	1234053	0	0	0	0	0	0	0	0	0	0	0	0	0	0	0	0	0
121912	10:02:21	10010	Trial2BackEng	N	3	0	1000	1	89	10:02:21	1235559	0	0	0	0	0	0	0	0	0	0	0	0	0	0	0	0	0
121912	10:02:21	10010	Trial2BackEng	N	3	0	1000	1	90	10:02:21	1237065	0	0	0	0	0	0	0	0	0	0	0	0	0	0	0	0	0
121912	10:02:21	10010	Trial2BackEng	N	3	0	1000	1	91	10:02:21	1238571	0	0	0	0	0	0	0	0	0	0	0	0	0	0	0	0	0
121912	10:02:21	10010	Trial2BackEng	Y	3	57	359	1	92	10:02:21	1239451	0	0	0	0	0	0	0	0	0	0	0	0	0	0	0	0	0
121912	10:02:21	10010	Trial2BackEng	N	3	0	1000	1	93	10:02:21	1241583	0	0	0	0	0	0	0	0	0	0	0	0	0	0	0	0	0
121912	10:02:21	10010	Trial2BackEng	N	3	0	1000	1	94	10:02:21	1243089	0	0	0	0	0	0	0	0	0	0	0	0	0	0	0	0	0
121912	10:02:21	10010	Trial2BackEng	N	3	0	1000	1	95	10:02:21	1244595	0	0	0	0	0	0	0	0	0	0	0	0	0	0	0	0	0
121912	10:02:21	10010	Trial2BackEng	N	3	0	1000	1	96	10:02:21	1246101	0	0	0	0	0	0	0	0	0	0	0	0	0	0	0	0	0
121912	10:02:21	10010	Trial2BackEng	N	3	0	1000	1	97	10:02:21	1247607	0	0	0	0	0	0	0	0	0	0	0	0	0	0	0	0	0
121912	10:02:21	10010	Trial2BackEng	N	3	0	1000	1	98	10:02:21	1249113	0	0	0	0	0	0	0	0	0	0	0	0	0	0	0	0	0
121912	10:02:21	10010	Trial2BackEng	N	3	0	1000	1	99	10:02:21	1250620	0	0	0	0	0	0	0	0	0	0	0	0	0	0	0	0	0
121912	10:02:21	10010	Trial2BackEng	N	3	0	1000	1	100	10:02:21	1252126	0	0	0	0	0	0	0	0	0	0	0	0	0	0	0	0	0
121912	10:02:21	10010	Trial2BackEng	Y	3	57	533	1	101	10:02:21	1253178	0	0	0	0	0	0	0	0	0	0	0	0	0	0	0	0	0
121912	10:02:21	10010	Trial2BackEng	N	3	0	1000	1	102	10:02:21	1255138	0	0	0	0	0	0	0	0	0	0	0	0	0	0	0	0	0
121912	10:02:21	10010	Trial2BackEng	N	3	0	1000	1	103	10:02:21	1256644	0	0	0	0	0	0	0	0	0	0	0	0	0	0	0	0	0
121912	10:02:21	10010	Trial2BackEng	N	3	0	1000	1	104	10:02:21	1258150	0	0	0	0	0	0	0	0	0	0	0	0	0	0	0	0	0
121912	10:02:21	10010	Trial2BackEng	N	3	0	1000	1	105	10:02:21	1259656	0	0	0	0	0	0	0	0	0	0	0	0	0	0	0	0	0
121912	10:02:21	10010	Trial2BackEng	Y	3	57	714	1	106	10:02:21	1260882	0	0	0	0	0	0	0	0	0	0	0	0	0	0	0	0	0
121912	10:02:21	10010	Trial2BackEng	N	3	0	1000	1	107	10:02:21	1262668	0	0	0	0	0	0	0	0	0	0	0	0	0	0	0	0	0
121912	10:02:21	10010	Trial2BackEng	N	3	0	1000	1	108	10:02:21	1264174	0	0	0	0	0	0	0	0	0	0	0	0	0	0	0	0	0
121912	10:02:21	10010	Trial2BackEng	N	3	0	1000	1	109	10:02:21	1265680	0	0	0	0	0	0	0	0	0	0	0	0	0	0	0	0	0
121912	10:02:21	10010	Trial2BackEng	Y	3	57	642	1	110	10:02:21	1266840	0	0	0	0	0	0	0	0	0	0	0	0	0	0	0	0	0
121912	10:02:21	10010	Trial2BackEng	N	3	0	1000	1	111	10:02:21	1268692	0	0	0	0	0	0	0	0	0	0	0	0	0	0	0	0	0
121912	10:02:21	10010	Trial2BackEng	N	3	0	1000	1	112	10:02:21	1270198	0	0	0	0	0	0	0	0	0	0	0	0	0	0	0	0	0
121912	10:02:21	10010	Trial2BackEng	N	3	0	1000	1	113	10:02:21	1271704	0	0	0	0	0	0	0	0	0	0	0	0	0	0	0	0	0
121912	10:02:21	10010	Trial2BackEng	N	3	0	1000	1	114	10:02:21	1273210	0	0	0	0	0	0	0	0	0	0	0	0	0	0	0	0	0
121912	10:02:21	10010	Trial2BackEng	N	3	0	1000	1	115	10:02:21	1274716	0	0	0	0	0	0	0	0	0	0	0	0	0	0	0	0	0
121912	10:02:21	10010	Trial2BackEng	Y	3	0	1000	0	115	10:02:21	1276222	0	0	0	0	0	0	0	0	0	0	0	0	0	0	0	0	0
121912	10:02:21	10010	Trial2BackEng	N	3	0	1000	1	116	10:02:21	1277729	0	0	0	0	0	0	0	0	0	0	0	0	0	0	0	0	0
121912	10:02:21	10010	Trial2BackEng	N	3	0	1000	1	117	10:02:21	1279235	0	0	0	0	0	0	0	0	0	0	0	0	0	0	0	0	0
121912	10:02:21	10010	Trial2BackEng	N	3	0	1000	1	118	10:02:21	1280740	0	0	0	0	0	0	0	0	0	0	0	0	0	0	0	0	0
121912	10:02:21	10010	Trial2BackEng	Y	3	57	493	1	119	10:02:21	1281754	0	0	0	0	0	0	0	0	0	0	0	0	0	0	0	0	0
121912	10:02:21	10010	Trial3BackEng	NN	4	0	1000	1	119	10:02:21	1315153	0	0	0	0	0	0	0	0	0	0	0	0	0	0	0	0	0
121912	10:02:21	10010	Trial3BackEng	NN	4	0	1000	1	119	10:02:21	1316659	0	0	0	0	0	0	0	0	0	0	0	0	0	0	0	0	0
121912	10:02:21	10010	Trial3BackEng	NN	4	0	1000	1	119	10:02:21	1318166	0	0	0	0	0	0	0	0	0	0	0	0	0	0	0	0	0
121912	10:02:21	10010	Trial3BackEng	YY	4	57	427	1	119	10:02:21	1319112	0	0	0	0	0	0	0	0	0	0	0	0	0	0	0	0	0
121912	10:02:21	10010	Trial3BackEng	NN	4	0	1000	1	119	10:02:21	1321178	0	0	0	0	0	0	0	0	0	0	0	0	0	0	0	0	0
121912	10:02:21	10010	Trial3BackEng	NN	4	0	1000	1	119	10:02:21	1322684	0	0	0	0	0	0	0	0	0	0	0	0	0	0	0	0	0
121912	10:02:21	10010	Trial3BackEng	NN	4	0	1000	1	119	10:02:21	1324190	0	0	0	0	0	0	0	0	0	0	0	0	0	0	0	0	0
121912	10:02:21	10010	Trial3BackEng	NN	4	0	1000	1	119	10:02:21	1325696	0	0	0	0	0	0	0	0	0	0	0	0	0	0	0	0	0
121912	10:02:21	10010	Trial3BackEng	YY	4	57	497	1	119	10:02:21	1326709	0	0	0	0	0	0	0	0	0	0	0	0	0	0	0	0	0
121912	10:02:21	10010	Trial3BackEng	NN	4	0	1000	1	119	10:02:21	1328708	0	0	0	0	0	0	0	0	0	0	0	0	0	0	0	0	0
121912	10:02:21	10010	Trial3BackEng	NN	4	0	1000	1	119	10:02:21	1330214	0	0	0	0	0	0	0	0	0	0	0	0	0	0	0	0	0
121912	10:02:21	10010	Trial3BackEng	NN	4	0	1000	1	119	10:02:21	1331720	0	0	0	0	0	0	0	0	0	0	0	0	0	0	0	0	0
121912	10:02:21	10010	Trial3BackEng	NN	4	0	1000	1	119	10:02:21	1333226	0	0	0	0	0	0	0	0	0	0	0	0	0	0	0	0	0
121912	10:02:21	10010	Trial3BackEng	NN	4	0	1000	1	119	10:02:21	1334732	0	0	0	0	0	0	0	0	0	0	0	0	0	0	0	0	0
121912	10:02:21	10010	Trial3BackEng	NN	4	0	1000	1	119	10:02:21	1336238	0	0	0	0	0	0	0	0	0	0	0	0	0	0	0	0	0
121912	10:02:21	10010	Trial3BackEng	NN	4	0	1000	1	119	10:02:21	1337744	0	0	0	0	0	0	0	0	0	0	0	0	0	0	0	0	0
121912	10:02:21	10010	Trial3BackEng	YY	4	57	627	1	119	10:02:21	1338904	0	0	0	0	0	0	0	0	0	0	0	0	0	0	0	0	0
121912	10:02:21	10010	Trial3BackEng	NN	4	0	1000	1	119	10:02:21	1340756	0	0	0	0	0	0	0	0	0	0	0	0	0	0	0	0	0
121912	10:02:21	10010	Trial3BackEng	NN	4	0	1000	1	119	10:02:21	1342262	0	0	0	0	0	0	0	0	0	0	0	0	0	0	0	0	0
121912	10:02:21	10010	Trial3BackEng	NN	4	0	1000	1	119	10:02:21	1343768	0	0	0	0	0	0	0	0	0	0	0	0	0	0	0	0	0
121912	10:02:21	10010	Trial3BackEng	NN	4	0	1000	1	119	10:02:21	1345274	0	0	0	0	0	0	0	0	0	0	0	0	0	0	0	0	0
121912	10:02:21	10010	Trial3BackEng	NN	4	0	1000	1	119	10:02:21	1346780	0	0	0	0	0	0	0	0	0	0	0	0	0	0	0	0	0
121912	10:02:21	10010	Trial3BackEng	YY	4	57	835	1	119	10:02:21	1348126	0	0	0	0	0	0	0	0	0	0	0	0	0	0	0	0	0
121912	10:02:21	10010	Trial3BackEng	NN	4	0	1000	1	119	10:02:21	1349793	0	0	0	0	0	0	0	0	0	0	0	0	0	0	0	0	0
121912	10:02:21	10010	Trial3BackEng	NN	4	0	1000	1	119	10:02:21	1351299	0	0	0	0	0	0	0	0	0	0	0	0	0	0	0	0	0
121912	10:02:21	10010	Trial3BackEng	NN	4	0	1000	1	119	10:02:21	1352805	0	0	0	0	0	0	0	0	0	0	0	0	0	0	0	0	0
121912	10:02:21	10010	Trial3BackEng	YY	4	0	1000	0	119	10:02:21	1354311	0	0	0	0	0	0	0	0	0	0	0	0	0	0	0	0	0
121912	10:02:21	10010	Trial3BackEng	NN	4	0	1000	1	119	10:02:21	1355817	0	0	0	0	0	0	0	0	0	0	0	0	0	0	0	0	0
121912	10:02:21	10010	Trial3BackEng	NN	4	0	1000	1	119	10:02:21	1357323	0	0	0	0	0	0	0	0	0	0	0	0	0	0	0	0	0
121912	10:02:21	10010	Trial3BackEng	NN	4	57	597	0	119	10:02:21	1358429	0	0	0	0	0	0	0	0	0	0	0	0	0	0	0	0	0
121912	10:02:21	10010	Trial3BackEng	YY	4	0	1000	0	119	10:02:21	1360335	0	0	0	0	0	0	0	0	0	0	0	0	0	0	0	0	0
121912	10:02:21	10010	Trial3BackEng	NN	4	0	1000	1	119	10:02:21	1361841	0	0	0	0	0	0	0	0	0	0	0	0	0	0	0	0	0
121912	10:02:21	10010	Trial3BackEng	NN	4	0	1000	1	119	10:02:21	1363347	0	0	0	0	0	0	0	0	0	0	0	0	0	0	0	0	0
121912	10:02:21	10010	Trial3BackEng	NN	4	0	1000	1	119	10:02:21	1364853	0	0	0	0	0	0	0	0	0	0	0	0	0	0	0	0	0
121912	10:02:21	10010	Trial3BackEng	NN	4	0	1000	1	119	10:02:21	1366359	0	0	0	0	0	0	0	0	0	0	0	0	0	0	0	0	0
121912	10:02:21	10010	Trial3BackEng	NN	4	0	1000	1	119	10:02:21	1367865	0	0	0	0	0	0	0	0	0	0	0	0	0	0	0	0	0
121912	10:02:21	10010	Trial3BackEng	NN	4	0	1000	1	119	10:02:21	1369371	0	0	0	0	0	0	0	0	0	0	0	0	0	0	0	0	0
121912	10:02:21	10010	Trial3BackEng	NN	4	0	1000	1	119	10:02:21	1370877	0	0	0	0	0	0	0	0	0	0	0	0	0	0	0	0	0
121912	10:02:21	10010	Trial3BackEng	NN	4	0	1000	1	119	10:02:21	1372383	0	0	0	0	0	0	0	0	0	0	0	0	0	0	0	0	0
121912	10:02:21	10010	Trial3BackEng	NN	4	0	1000	1	119	10:02:21	1373903	0	0	0	0	0	0	0	0	0	0	0	0	0	0	0	0	0
121912	10:02:21	10010	Trial3BackEng	NN	4	0	1000	1	119	10:02:21	1375409	0	0	0	0	0	0	0	0	0	0	0	0	0	0	0	0	0
121912	10:02:21	10010	Trial3BackEng	YY	4	57	654	1	119	10:02:21	1376582	0	0	0	0	0	0	0	0	0	0	0	0	0	0	0	0	0
121912	10:02:21	10010	Trial3BackEng	NN	4	0	1000	1	119	10:02:21	1378421	0	0	0	0	0	0	0	0	0	0	0	0	0	0	0	0	0
121912	10:02:21	10010	Trial3BackEng	NN	4	0	1000	1	119	10:02:21	1379940	0	0	0	0	0	0	0	0	0	0	0	0	0	0	0	0	0
121912	10:02:21	10010	Trial3BackEng	NN	4	0	1000	1	119	10:02:21	1381446	0	0	0	0	0	0	0	0	0	0	0	0	0	0	0	0	0
121912	10:02:21	10010	Trial3BackEng	NN	4	0	1000	1	119	10:02:21	1382953	0	0	0	0	0	0	0	0	0	0	0	0	0	0	0	0	0
121912	10:02:21	10010	Trial3BackEng	YY	4	57	775	1	119	10:02:21	1384245	0	0	0	0	0	0	0	0	0	0	0	0	0	0	0	0	0
121912	10:02:21	10010	Trial3BackEng	NN	4	0	1000	1	119	10:02:21	1385965	0	0	0	0	0	0	0	0	0	0	0	0	0	0	0	0	0
121912	10:02:21	10010	Trial3BackEng	NN	4	0	1000	1	119	10:02:21	1387471	0	0	0	0	0	0	0	0	0	0	0	0	0	0	0	0	0
121912	10:02:21	10010	Trial3BackEng	NN	4	0	1000	1	119	10:02:21	1388977	0	0	0	0	0	0	0	0	0	0	0	0	0	0	0	0	0
121912	10:02:21	10010	Trial3BackEng	NN	4	0	1000	1	119	10:02:21	1390483	0	0	0	0	0	0	0	0	0	0	0	0	0	0	0	0	0
121912	10:02:21	10010	Trial3BackEng	NN	4	0	1000	1	119	10:02:21	1391989	0	0	0	0	0	0	0	0	0	0	0	0	0	0	0	0	0
121912	10:02:21	10010	Trial3BackEng	YY	4	57	746	1	119	10:02:21	1393255	0	0	0	0	0	0	0	0	0	0	0	0	0	0	0	0	0
121912	10:02:21	10010	Trial3BackEng	NN	4	0	1000	1	119	10:02:21	1395001	0	0	0	0	0	0	0	0	0	0	0	0	0	0	0	0	0
121912	10:02:21	10010	Trial3BackEng	NN	4	0	1000	1	119	10:02:21	1396507	0	0	0	0	0	0	0	0	0	0	0	0	0	0	0	0	0
121912	10:02:21	10010	Trial3BackEng	NN	4	0	1000	1	119	10:02:21	1398013	0	0	0	0	0	0	0	0	0	0	0	0	0	0	0	0	0
121912	10:02:21	10010	Trial3BackEng	NN	4	0	1000	1	119	10:02:21	1399519	0	0	0	0	0	0	0	0	0	0	0	0	0	0	0	0	0
121912	10:02:21	10010	Trial3BackEng	NN	4	57	768	0	119	10:02:21	1400799	0	0	0	0	0	0	0	0	0	0	0	0	0	0	0	0	0
121912	10:02:21	10010	Trial3BackEng	NN	4	0	1000	1	119	10:02:21	1402531	0	0	0	0	0	0	0	0	0	0	0	0	0	0	0	0	0
121912	10:02:21	10010	Trial3BackEng	YY	4	0	1000	0	119	10:02:21	1404037	0	0	0	0	0	0	0	0	0	0	0	0	0	0	0	0	0
121912	10:02:21	10010	Trial3BackEng	NN	4	0	1000	1	119	10:02:21	1405557	0	0	0	0	0	0	0	0	0	0	0	0	0	0	0	0	0
121912	10:02:21	10010	Trial3BackEng	NN	4	0	1000	1	119	10:02:21	1407063	0	0	0	0	0	0	0	0	0	0	0	0	0	0	0	0	0
121912	10:02:21	10010	Trial3BackEng	NN	4	0	1000	1	119	10:02:21	1408569	0	0	0	0	0	0	0	0	0	0	0	0	0	0	0	0	0
121912	10:02:21	10010	Trial3BackEng	YY	4	57	646	1	119	10:02:21	1409728	0	0	0	0	0	0	0	0	0	0	0	0	0	0	0	0	0
121912	10:02:21	10010	Trial3BackEng	NN	4	0	1000	1	119	10:02:21	1411581	0	0	0	0	0	0	0	0	0	0	0	0	0	0	0	0	0
121912	10:02:21	10010	Trial3BackEng	NN	4	0	1000	1	119	10:02:21	1413087	0	0	0	0	0	0	0	0	0	0	0	0	0	0	0	0	0
121912	10:02:21	10010	Trial3BackEng	NN	4	0	1000	1	119	10:02:21	1414593	0	0	0	0	0	0	0	0	0	0	0	0	0	0	0	0	0
121912	10:02:21	10010	Trial3BackEng	NN	4	57	781	0	119	10:02:21	1415886	0	0	0	0	0	0	0	0	0	0	0	0	0	0	0	0	0
121912	10:02:21	10010	Trial3BackEng	NN	4	0	1000	1	119	10:02:21	1417605	0	0	0	0	0	0	0	0	0	0	0	0	0	0	0	0	0
121912	10:02:21	10010	Trial3BackEng	NN	4	0	1000	1	119	10:02:21	1419111	0	0	0	0	0	0	0	0	0	0	0	0	0	0	0	0	0
121912	10:02:21	10010	Trial3BackEng	NN	4	0	1000	1	119	10:02:21	1420617	0	0	0	0	0	0	0	0	0	0	0	0	0	0	0	0	0
121912	10:02:21	10010	Trial3BackEng	NN	4	0	1000	1	119	10:02:21	1422137	0	0	0	0	0	0	0	0	0	0	0	0	0	0	0	0	0
121912	10:02:21	10010	Trial3BackEng	NN	4	0	1000	1	119	10:02:21	1423643	0	0	0	0	0	0	0	0	0	0	0	0	0	0	0	0	0
121912	10:02:21	10010	Trial3BackEng	YY	4	57	643	1	119	10:02:21	1424802	0	0	0	0	0	0	0	0	0	0	0	0	0	0	0	0	0
121912	10:02:21	10010	Trial3BackEng	NN	4	0	1000	1	119	10:02:21	1426655	0	0	0	0	0	0	0	0	0	0	0	0	0	0	0	0	0
121912	10:02:21	10010	Trial3BackEng	NN	4	0	1000	1	119	10:02:21	1428161	0	0	0	0	0	0	0	0	0	0	0	0	0	0	0	0	0
121912	10:02:21	10010	Trial3BackEng	NN	4	0	1000	1	119	10:02:21	1429667	0	0	0	0	0	0	0	0	0	0	0	0	0	0	0	0	0
121912	10:02:21	10010	Trial3BackEng	YY	4	57	523	1	119	10:02:21	1430707	0	0	0	0	0	0	0	0	0	0	0	0	0	0	0	0	0
121912	10:02:21	10010	Trial3BackEng	NN	4	0	1000	1	119	10:02:21	1432679	0	0	0	0	0	0	0	0	0	0	0	0	0	0	0	0	0
121912	10:02:21	10010	Trial3BackEng	NN	4	0	1000	1	119	10:02:21	1434185	0	0	0	0	0	0	0	0	0	0	0	0	0	0	0	0	0
121912	10:02:21	10010	Trial3BackEng	NN	4	0	1000	1	119	10:02:21	1435691	0	0	0	0	0	0	0	0	0	0	0	0	0	0	0	0	0
121912	10:02:21	10010	Trial3BackEng	NN	4	0	1000	1	119	10:02:21	1437197	0	0	0	0	0	0	0	0	0	0	0	0	0	0	0	0	0
121912	10:02:21	10010	Trial3BackEng	NN	4	0	1000	1	119	10:02:21	1438703	0	0	0	0	0	0	0	0	0	0	0	0	0	0	0	0	0
121912	10:02:21	10010	Trial3BackEng	YY	4	0	1000	0	119	10:02:21	1440209	0	0	0	0	0	0	0	0	0	0	0	0	0	0	0	0	0
121912	10:02:21	10010	Trial3BackEng	NN	4	57	716	0	119	10:02:21	1441435	0	0	0	0	0	0	0	0	0	0	0	0	0	0	0	0	0
121912	10:02:21	10010	Trial3BackEng	NN	4	0	1000	1	119	10:02:21	1443221	0	0	0	0	0	0	0	0	0	0	0	0	0	0	0	0	0
121912	10:02:21	10010	Trial3BackEng	NN	4	0	1000	1	119	10:02:21	1444728	0	0	0	0	0	0	0	0	0	0	0	0	0	0	0	0	0
121912	10:02:21	10010	Trial3BackEng	NN	4	0	1000	1	119	10:02:21	1446234	0	0	0	0	0	0	0	0	0	0	0	0	0	0	0	0	0
121912	10:02:21	10010	Trial3BackEng	NN	4	0	1000	1	119	10:02:21	1447740	0	0	0	0	0	0	0	0	0	0	0	0	0	0	0	0	0
121912	10:02:21	10010	Trial3BackEng	NN	4	57	770	0	119	10:02:21	1449019	0	0	0	0	0	0	0	0	0	0	0	0	0	0	0	0	0
121912	10:02:21	10010	Trial3BackEng	NN	4	0	1000	1	119	10:02:21	1450752	0	0	0	0	0	0	0	0	0	0	0	0	0	0	0	0	0
121912	10:02:21	10010	Trial3BackEng	NN	4	0	1000	1	119	10:02:21	1452258	0	0	0	0	0	0	0	0	0	0	0	0	0	0	0	0	0
121912	10:02:21	10010	Trial3BackEng	NN	4	0	1000	1	119	10:02:21	1453764	0	0	0	0	0	0	0	0	0	0	0	0	0	0	0	0	0
121912	10:02:21	10010	Trial3BackEng	YY	4	57	666	1	119	10:02:21	1454950	0	0	0	0	0	0	0	0	0	0	0	0	0	0	0	0	0
121912	10:02:21	10010	Trial3BackEng	NN	4	0	1000	1	119	10:02:21	1456776	0	0	0	0	0	0	0	0	0	0	0	0	0	0	0	0	0
121912	10:02:21	10010	Trial3BackEng	NN	4	0	1000	1	119	10:02:21	1458282	0	0	0	0	0	0	0	0	0	0	0	0	0	0	0	0	0
121912	10:02:21	10010	Trial3BackEng	NN	4	0	1000	1	119	10:02:21	1459801	0	0	0	0	0	0	0	0	0	0	0	0	0	0	0	0	0
121912	10:02:21	10010	Trial3BackEng	NN	4	0	1000	1	119	10:02:21	1461307	0	0	0	0	0	0	0	0	0	0	0	0	0	0	0	0	0
121912	10:02:21	10010	Trial3BackEng	NN	4	0	1000	1	119	10:02:21	1462813	0	0	0	0	0	0	0	0	0	0	0	0	0	0	0	0	0
121912	10:02:21	10010	Trial3BackEng	NN	4	0	1000	1	119	10:02:21	1464320	0	0	0	0	0	0	0	0	0	0	0	0	0	0	0	0	0
121912	10:02:21	10010	Trial3BackEng	NN	4	0	1000	1	119	10:02:21	1465839	0	0	0	0	0	0	0	0	0	0	0	0	0	0	0	0	0
121912	10:02:21	10010	Trial3BackEng	NN	4	0	1000	1	119	10:02:21	1467345	0	0	0	0	0	0	0	0	0	0	0	0	0	0	0	0	0
121912	10:02:21	10010	Trial3BackEng	YY	4	0	1000	0	119	10:02:21	1468851	0	0	0	0	0	0	0	0	0	0	0	0	0	0	0	0	0
121912	10:02:21	10010	Trial3BackEng	NN	4	0	1000	1	119	10:02:21	1470357	0	0	0	0	0	0	0	0	0	0	0	0	0	0	0	0	0
121912	10:02:21	10010	Trial3BackEng	NN	4	0	1000	1	119	10:02:21	1471863	0	0	0	0	0	0	0	0	0	0	0	0	0	0	0	0	0
121912	10:02:21	10010	Trial3BackEng	NN	4	0	1000	1	119	10:02:21	1473369	0	0	0	0	0	0	0	0	0	0	0	0	0	0	0	0	0
121912	10:02:21	10010	Trial3BackEng	NN	4	0	1000	1	119	10:02:21	1474875	0	0	0	0	0	0	0	0	0	0	0	0	0	0	0	0	0
121912	10:02:21	10010	Trial3BackEng	YY	4	57	642	1	119	10:02:21	1476035	0	0	0	0	0	0	0	0	0	0	0	0	0	0	0	0	0
121912	10:02:21	10010	Trial3BackEng	NN	4	0	1000	1	119	10:02:21	1477887	0	0	0	0	0	0	0	0	0	0	0	0	0	0	0	0	0
121912	10:02:21	10010	Trial3BackEng	NN	4	0	1000	1	119	10:02:21	1479393	0	0	0	0	0	0	0	0	0	0	0	0	0	0	0	0	0
121912	10:02:21	10010	Trial3BackEng	NN	4	0	1000	1	119	10:02:21	1480900	0	0	0	0	0	0	0	0	0	0	0	0	0	0	0	0	0
121912	10:02:21	10010	Trial3BackEng	YY	4	57	601	1	119	10:02:21	1482019	0	0	0	0	0	0	0	0	0	0	0	0	0	0	0	0	0
121912	10:02:21	10010	Trial3BackEng	NN	4	0	1000	1	119	10:02:21	1483912	0	0	0	0	0	0	0	0	0	0	0	0	0	0	0	0	0
121912	10:02:21	10010	Trial3BackEng	NN	4	0	1000	1	119	10:02:21	1485418	0	0	0	0	0	0	0	0	0	0	0	0	0	0	0	0	0
121912	10:02:21	10010	Trial3BackEng	NN	4	0	1000	1	119	10:02:21	1486924	0	0	0	0	0	0	0	0	0	0	0	0	0	0	0	0	0
121912	10:02:21	10010	Trial3BackEng	NN	4	0	1000	1	119	10:02:21	1488430	0	0	0	0	0	0	0	0	0	0	0	0	0	0	0	0	0
121912	10:02:21	10010	Trial3BackEng	NN	4	0	1000	1	119	10:02:21	1489936	0	0	0	0	0	0	0	0	0	0	0	0	0	0	0	0	0
121912	10:02:21	10010	Trial3BackEng	YY	4	57	573	1	119	10:02:21	1491029	0	0	0	0	0	0	0	0	0	0	0	0	0	0	0	0	0
121912	10:02:21	10010	Trial3BackEng	NN	4	0	1000	1	119	10:02:21	1492948	0	0	0	0	0	0	0	0	0	0	0	0	0	0	0	0	0
121912	10:02:21	10010	Trial3BackEng	NN	4	0	1000	1	119	10:02:21	1494454	0	0	0	0	0	0	0	0	0	0	0	0	0	0	0	0	0
121912	10:02:21	10010	Trial3BackEng	NN	4	0	1000	1	119	10:02:21	1495973	0	0	0	0	0	0	0	0	0	0	0	0	0	0	0	0	0
121912	10:02:21	10010	Trial3BackEng	YY	4	57	487	1	119	10:02:21	1496973	0	0	0	0	0	0	0	0	0	0	0	0	0	0	0	0	0
121912	10:02:21	10010	Memory1R6mo	Score	5	M1	20279	0	119	10:02:21	1548805	0	0	0	0	0	0	0	0	0	0	0	0	0	0	0	0	0
121912	10:02:21	10010	Memory1R6mo	Score	5	M2	361	0	119	10:02:21	1549219	0	0	0	0	0	0	0	0	0	0	0	0	0	0	0	0	0
121912	10:02:21	10010	Memory1R6mo	Score	5	M3	276	0	119	10:02:21	1549538	0	0	0	0	0	0	0	0	0	0	0	0	0	0	0	0	0
121912	10:02:21	10010	Memory1R6mo	Score	5	M5	300	0	119	10:02:21	1549885	0	0	0	0	0	0	0	0	0	0	0	0	0	0	0	0	0
121912	10:02:21	10010	Memory1R6mo	Score	5	M4	593	0	119	10:02:21	1550525	0	0	0	0	0	0	0	0	0	0	0	0	0	0	0	0	0
121912	10:02:21	10010	Memory1R6mo	Score	5	M7	530	0	119	10:02:21	1551098	0	0	0	0	0	0	0	0	0	0	0	0	0	0	0	0	0
121912	10:02:21	10010	Memory1R6mo	Score	5	M8	16508	0	119	10:02:21	1567651	0	0	0	0	0	0	0	0	0	0	0	0	0	0	0	0	0
121912	10:02:21	10010	Memory1R6mo	Score	5	Done	45314	0	119	10:02:21	1613020	0	0	0	0	0	0	0	0	0	0	0	0	0	0	0	0	0
121912	10:02:21	10010	Memory2R6mo	Score2	5	11	14974	0	119	10:02:21	1647419	0	0	0	0	0	0	0	0	0	0	0	0	0	0	0	0	0
121912	10:02:21	10010	Memory2R6mo	Score2	5	22	153	0	119	10:02:21	1647619	0	0	0	0	0	0	0	0	0	0	0	0	0	0	0	0	0
121912	10:02:21	10010	Memory2R6mo	Score2	5	33	226	0	119	10:02:21	1647899	0	0	0	0	0	0	0	0	0	0	0	0	0	0	0	0	0
121912	10:02:21	10010	Memory2R6mo	Score2	5	44	202	0	119	10:02:21	1648152	0	0	0	0	0	0	0	0	0	0	0	0	0	0	0	0	0
121912	10:02:21	10010	Memory2R6mo	Score2	5	55	172	0	119	10:02:21	1648379	0	0	0	0	0	0	0	0	0	0	0	0	0	0	0	0	0
121912	10:02:21	10010	Memory2R6mo	Score2	5	66	178	0	119	10:02:21	1648605	0	0	0	0	0	0	0	0	0	0	0	0	0	0	0	0	0
121912	10:02:21	10010	Memory2R6mo	Score2	5	77	199	0	119	10:02:21	1648858	0	0	0	0	0	0	0	0	0	0	0	0	0	0	0	0	0
121912	10:02:21	10010	Memory2R6mo	Score2	5	88	258	0	119	10:02:21	1649165	0	0	0	0	0	0	0	0	0	0	0	0	0	0	0	0	0
121912	10:02:21	10010	Memory2R6mo	Score2	5	Done	447	0	119	10:02:21	1649658	0	0	0	0	0	0	0	0	0	0	0	0	0	0	0	0	0
121912	10:02:21	10010	Memory3R6mo	Score3	5	111	20674	0	119	10:02:21	1691254	0	0	0	0	0	0	0	0	0	0	0	0	0	0	0	0	0
121912	10:02:21	10010	Memory3R6mo	Score3	5	333	189	0	119	10:02:21	1691494	0	0	0	0	0	0	0	0	0	0	0	0	0	0	0	0	0
121912	10:02:21	10010	Memory3R6mo	Score3	5	222	285	0	119	10:02:21	1691828	0	0	0	0	0	0	0	0	0	0	0	0	0	0	0	0	0
121912	10:02:21	10010	Memory3R6mo	Score3	5	444	399	0	119	10:02:21	1692281	0	0	0	0	0	0	0	0	0	0	0	0	0	0	0	0	0
121912	10:02:21	10010	Memory3R6mo	Score3	5	555	202	0	119	10:02:21	1692534	0	0	0	0	0	0	0	0	0	0	0	0	0	0	0	0	0
121912	10:02:21	10010	Memory3R6mo	Score3	5	666	301	0	119	10:02:21	1692881	0	0	0	0	0	0	0	0	0	0	0	0	0	0	0	0	0
121912	10:02:21	10010	Memory3R6mo	Score3	5	777	331	0	119	10:02:21	1693267	0	0	0	0	0	0	0	0	0	0	0	0	0	0	0	0	0
121912	10:02:21	10010	Memory3R6mo	Score3	5	888	328	0	119	10:02:21	1693640	0	0	0	0	0	0	0	0	0	0	0	0	0	0	0	0	0
121912	10:02:21	10010	Memory3R6mo	Score3	5	Done	1043	0	119	10:02:21	1694733	0	0	0	0	0	0	0	0	0	0	0	0	0	0	0	0	0
121912	10:02:21	10010	LoriaEngLH3	Stop	6	7	3673	0	119	10:02:21	1758255	0	0	0	0	0	0	0	0	0	0	0	0	0	0	0	0	0
121912	10:02:21	10010	EngTrail	Trails	7	1Trails	12894	0	119	10:02:21	1805608	0	0	0	0	0	0	0	0	0	0	0	0	0	0	0	0	0
121912	10:02:21	10010	Serial7Eng6mo	Serial7Eng6mo	8	73	4558	0	119	10:02:21	1827507	1	0	0	0	0	0	0	0	0	0	0	0	0	0	0	0	0
121912	10:02:21	10010	Serial7Eng6mo	Serial7Eng6mo	8	66	2632	0	119	10:02:21	1830160	2	0	0	0	0	0	0	0	0	0	0	0	0	0	0	0	0
121912	10:02:21	10010	Serial7Eng6mo	Serial7Eng6mo	8	59	2747	0	119	10:02:21	1832932	3	0	0	0	0	0	0	0	0	0	0	0	0	0	0	0	0
121912	10:02:21	10010	Serial7Eng6mo	Serial7Eng6mo	8	52	3005	0	119	10:02:21	1835958	4	0	0	0	0	0	0	0	0	0	0	0	0	0	0	0	0
121912	10:02:21	10010	Serial7Eng6mo	Serial7Eng6mo	8	45	6422	0	119	10:02:21	1842396	5	0	0	0	0	0	0	0	0	0	0	0	0	0	0	0	0
121912	10:02:21	10010	corsiblockEngFwrd	recallseqEngFwrd	9	2	1148	0	119	10:02:21	1887484	5	0	0	0	0	0	0	0	0	0	0	0	0	0	0	0	0
121912	10:02:21	10010	corsiblockEngFwrd	recallseqEngFwrd	9	9	788	0	119	10:02:21	1888324	5	0	0	0	0	0	0	0	0	0	0	0	0	0	0	0	0
121912	10:02:21	10010	corsiblockEngFwrd	recallseqEngFwrd	9	doneCorsiEng	1757	0	119	10:02:21	1890136	5	0	0	0	0	0	0	0	0	0	0	0	0	0	0	2	0
121912	10:02:21	10010	corsiblockEngFwrd	recallseqEngFwrd	9	1	931	0	119	10:02:21	1897200	5	0	0	0	0	0	0	0	0	0	0	0	0	0	0	2	0
121912	10:02:21	10010	corsiblockEngFwrd	recallseqEngFwrd	9	3	680	0	119	10:02:21	1897933	5	0	0	0	0	0	0	0	0	0	0	0	0	0	0	2	0
121912	10:02:21	10010	corsiblockEngFwrd	recallseqEngFwrd	9	8	827	0	119	10:02:21	1898813	5	0	0	0	0	0	0	0	0	0	0	0	0	0	0	2	0
121912	10:02:21	10010	corsiblockEngFwrd	recallseqEngFwrd	9	doneCorsiEng	851	0	119	10:02:21	1899719	5	0	0	0	0	0	0	0	0	0	0	0	0	0	0	3	0
121912	10:02:21	10010	corsiblockEngFwrd	recallseqEngFwrd	9	5	732	0	119	10:02:21	1907582	5	0	0	0	0	0	0	0	0	0	0	0	0	0	0	3	0
121912	10:02:21	10010	corsiblockEngFwrd	recallseqEngFwrd	9	7	946	0	119	10:02:21	1908582	5	0	0	0	0	0	0	0	0	0	0	0	0	0	0	3	0
121912	10:02:21	10010	corsiblockEngFwrd	recallseqEngFwrd	9	6	426	0	119	10:02:21	1909062	5	0	0	0	0	0	0	0	0	0	0	0	0	0	0	3	0
121912	10:02:21	10010	corsiblockEngFwrd	recallseqEngFwrd	9	4	314	0	119	10:02:21	1909422	5	0	0	0	0	0	0	0	0	0	0	0	0	0	0	3	0
121912	10:02:21	10010	corsiblockEngFwrd	recallseqEngFwrd	9	doneCorsiEng	730	0	119	10:02:21	1910208	5	0	0	0	0	0	0	0	0	0	0	0	0	0	0	4	0
121912	10:02:21	10010	corsiblockEngFwrd	recallseqEngFwrd	9	1	579	0	119	10:02:21	1918911	5	0	0	0	0	0	0	0	0	0	0	0	0	0	0	4	0
121912	10:02:21	10010	corsiblockEngFwrd	recallseqEngFwrd	9	9	712	0	119	10:02:21	1919671	5	0	0	0	0	0	0	0	0	0	0	0	0	0	0	4	0
121912	10:02:21	10010	corsiblockEngFwrd	recallseqEngFwrd	9	4	697	0	119	10:02:21	1920417	5	0	0	0	0	0	0	0	0	0	0	0	0	0	0	4	0
121912	10:02:21	10010	corsiblockEngFwrd	recallseqEngFwrd	9	2	374	0	119	10:02:21	1920844	5	0	0	0	0	0	0	0	0	0	0	0	0	0	0	4	0
121912	10:02:21	10010	corsiblockEngFwrd	recallseqEngFwrd	9	5	612	0	119	10:02:21	1921510	5	0	0	0	0	0	0	0	0	0	0	0	0	0	0	4	0
121912	10:02:21	10010	corsiblockEngFwrd	recallseqEngFwrd	9	doneCorsiEng	649	0	119	10:02:21	1922217	5	0	0	0	0	0	0	0	0	0	0	0	0	0	0	5	0
121912	10:02:21	10010	corsiblockEngFwrd	recallseqEngFwrd	9	8	763	0	119	10:02:21	1932106	5	0	0	0	0	0	0	0	0	0	0	0	0	0	0	5	0
121912	10:02:21	10010	corsiblockEngFwrd	recallseqEngFwrd	9	3	502	0	119	10:02:21	1932652	5	0	0	0	0	0	0	0	0	0	0	0	0	0	0	5	0
121912	10:02:21	10010	corsiblockEngFwrd	recallseqEngFwrd	9	7	1179	0	119	10:02:21	1933879	5	0	0	0	0	0	0	0	0	0	0	0	0	0	0	5	0
121912	10:02:21	10010	corsiblockEngFwrd	recallseqEngFwrd	9	9	945	0	119	10:02:21	1934878	5	0	0	0	0	0	0	0	0	0	0	0	0	0	0	5	0
121912	10:02:21	10010	corsiblockEngFwrd	recallseqEngFwrd	9	8	857	0	119	10:02:21	1935784	5	0	0	0	0	0	0	0	0	0	0	0	0	0	0	5	0
121912	10:02:21	10010	corsiblockEngFwrd	recallseqEngFwrd	9	doneCorsiEng	1679	0	119	10:02:21	1937517	5	0	0	0	0	0	0	0	0	0	0	0	0	0	0	5	0
121912	10:02:21	10010	corsiblockEngFwrd	recallseqEngFwrd	9	4	533	0	119	10:02:21	1947140	5	0	0	0	0	0	0	0	0	0	0	0	0	0	0	5	0
121912	10:02:21	10010	corsiblockEngFwrd	recallseqEngFwrd	9	6	507	0	119	10:02:21	1947700	5	0	0	0	0	0	0	0	0	0	0	0	0	0	0	5	0
121912	10:02:21	10010	corsiblockEngFwrd	recallseqEngFwrd	9	2	724	0	119	10:02:21	1948473	5	0	0	0	0	0	0	0	0	0	0	0	0	0	0	5	0
121912	10:02:21	10010	corsiblockEngFwrd	recallseqEngFwrd	9	3	462	0	119	10:02:21	1948979	5	0	0	0	0	0	0	0	0	0	0	0	0	0	0	5	0
121912	10:02:21	10010	corsiblockEngFwrd	recallseqEngFwrd	9	5	620	0	119	10:02:21	1949645	5	0	0	0	0	0	0	0	0	0	0	0	0	0	0	5	0
121912	10:02:21	10010	corsiblockEngFwrd	recallseqEngFwrd	9	7	1202	0	119	10:02:21	1950898	5	0	0	0	0	0	0	0	0	0	0	0	0	0	0	5	0
121912	10:02:21	10010	corsiblockEngFwrd	recallseqEngFwrd	9	2	509	0	119	10:02:21	1951458	5	0	0	0	0	0	0	0	0	0	0	0	0	0	0	5	0
121912	10:02:21	10010	corsiblockEngFwrd	recallseqEngFwrd	9	doneCorsiEng	845	0	119	10:02:21	1952351	5	0	0	0	0	0	0	0	0	0	0	0	0	0	0	5	0
121912	10:02:21	10010	corsiblockEngRev	recallseqEngRev	10	4	617	0	119	10:02:21	1962720	5	0	0	0	0	0	0	0	0	0	0	0	0	0	0	5	0
121912	10:02:21	10010	corsiblockEngRev	recallseqEngRev	10	5	447	0	119	10:02:21	1963213	5	0	0	0	0	0	0	0	0	0	0	0	0	0	0	5	0
121912	10:02:21	10010	corsiblockEngRev	recallseqEngRev	10	doneCorsiEng	689	0	119	10:02:21	1963960	5	0	0	0	0	0	0	0	0	0	0	0	0	0	0	5	2
121912	10:02:21	10010	corsiblockEngRev	recallseqEngRev	10	6	548	0	119	10:02:21	1970650	5	0	0	0	0	0	0	0	0	0	0	0	0	0	0	5	2
121912	10:02:21	10010	corsiblockEngRev	recallseqEngRev	10	3	396	0	119	10:02:21	1971103	5	0	0	0	0	0	0	0	0	0	0	0	0	0	0	5	2
121912	10:02:21	10010	corsiblockEngRev	recallseqEngRev	10	8	727	0	119	10:02:21	1971876	5	0	0	0	0	0	0	0	0	0	0	0	0	0	0	5	2
121912	10:02:21	10010	corsiblockEngRev	recallseqEngRev	10	doneCorsiEng	1794	0	119	10:02:21	1973716	5	0	0	0	0	0	0	0	0	0	0	0	0	0	0	5	3
121912	10:02:21	10010	corsiblockEngRev	recallseqEngRev	10	7	728	0	119	10:02:21	1981579	5	0	0	0	0	0	0	0	0	0	0	0	0	0	0	5	3
121912	10:02:21	10010	corsiblockEngRev	recallseqEngRev	10	9	323	0	119	10:02:21	1981952	5	0	0	0	0	0	0	0	0	0	0	0	0	0	0	5	3
121912	10:02:21	10010	corsiblockEngRev	recallseqEngRev	10	1	462	0	119	10:02:21	1982459	5	0	0	0	0	0	0	0	0	0	0	0	0	0	0	5	3
121912	10:02:21	10010	corsiblockEngRev	recallseqEngRev	10	2	467	0	119	10:02:21	1982979	5	0	0	0	0	0	0	0	0	0	0	0	0	0	0	5	3
121912	10:02:21	10010	corsiblockEngRev	recallseqEngRev	10	doneCorsiEng	867	0	119	10:02:21	1983898	5	0	0	0	0	0	0	0	0	0	0	0	0	0	0	5	4
121912	10:02:21	10010	corsiblockEngRev	recallseqEngRev	10	8	655	0	119	10:02:21	1992681	5	0	0	0	0	0	0	0	0	0	0	0	0	0	0	5	4
121912	10:02:21	10010	corsiblockEngRev	recallseqEngRev	10	4	916	0	119	10:02:21	1993654	5	0	0	0	0	0	0	0	0	0	0	0	0	0	0	5	4
121912	10:02:21	10010	corsiblockEngRev	recallseqEngRev	10	7	664	0	119	10:02:21	1994374	5	0	0	0	0	0	0	0	0	0	0	0	0	0	0	5	4
121912	10:02:21	10010	corsiblockEngRev	recallseqEngRev	10	3	576	0	119	10:02:21	1995001	5	0	0	0	0	0	0	0	0	0	0	0	0	0	0	5	4
121912	10:02:21	10010	corsiblockEngRev	recallseqEngRev	10	2	573	0	119	10:02:21	1995627	5	0	0	0	0	0	0	0	0	0	0	0	0	0	0	5	4
121912	10:02:21	10010	corsiblockEngRev	recallseqEngRev	10	doneCorsiEng	875	0	119	10:02:21	1996547	5	0	0	0	0	0	0	0	0	0	0	0	0	0	0	5	5
121912	10:02:21	10010	corsiblockEngRev	recallseqEngRev	10	6	801	0	119	10:02:21	2006489	5	0	0	0	0	0	0	0	0	0	0	0	0	0	0	5	5
121912	10:02:21	10010	corsiblockEngRev	recallseqEngRev	10	9	837	0	119	10:02:21	2007382	5	0	0	0	0	0	0	0	0	0	0	0	0	0	0	5	5
121912	10:02:21	10010	corsiblockEngRev	recallseqEngRev	10	6	975	0	119	10:02:21	2008408	5	0	0	0	0	0	0	0	0	0	0	0	0	0	0	5	5
121912	10:02:21	10010	corsiblockEngRev	recallseqEngRev	10	2	1029	0	119	10:02:21	2009488	5	0	0	0	0	0	0	0	0	0	0	0	0	0	0	5	5
121912	10:02:21	10010	corsiblockEngRev	recallseqEngRev	10	1	606	0	119	10:02:21	2010141	5	0	0	0	0	0	0	0	0	0	0	0	0	0	0	5	5
121912	10:02:21	10010	corsiblockEngRev	recallseqEngRev	10	doneCorsiEng	1040	0	119	10:02:21	2011234	5	0	0	0	0	0	0	0	0	0	0	0	0	0	0	5	5
121912	10:02:21	10010	corsiblockEngRev	recallseqEngRev	10	4	1415	0	119	10:02:21	2021736	5	0	0	0	0	0	0	0	0	0	0	0	0	0	0	5	5
121912	10:02:21	10010	corsiblockEngRev	recallseqEngRev	10	1	917	0	119	10:02:21	2022709	5	0	0	0	0	0	0	0	0	0	0	0	0	0	0	5	5
121912	10:02:21	10010	corsiblockEngRev	recallseqEngRev	10	3	736	0	119	10:02:21	2023496	5	0	0	0	0	0	0	0	0	0	0	0	0	0	0	5	5
121912	10:02:21	10010	corsiblockEngRev	recallseqEngRev	10	7	878	0	119	10:02:21	2024429	5	0	0	0	0	0	0	0	0	0	0	0	0	0	0	5	5
121912	10:02:21	10010	corsiblockEngRev	recallseqEngRev	10	2	777	0	119	10:02:21	2025255	5	0	0	0	0	0	0	0	0	0	0	0	0	0	0	5	5
121912	10:02:21	10010	corsiblockEngRev	recallseqEngRev	10	4	3862	0	119	10:02:21	2029173	5	0	0	0	0	0	0	0	0	0	0	0	0	0	0	5	5
121912	10:02:21	10010	corsiblockEngRev	recallseqEngRev	10	doneCorsiEng	944	0	119	10:02:21	2030173	5	0	0	0	0	0	0	0	0	0	0	0	0	0	0	5	5
121912	10:02:21	10010	testEng6mo	WordsEng6mo	11	1Eng6mo	745	0	119	10:02:21	2059788	5	3	0	0	0	0	0	0	0	0	0	0	0	0	0	5	5
121912	10:02:21	10010	testEng6mo	WordsEng6mo	11	3Eng6mo	353	0	119	10:02:21	2060188	5	3	0	3	0	0	0	0	0	0	0	0	0	0	0	5	5
121912	10:02:21	10010	testEng6mo	WordsEng6mo	11	5Eng6mo	289	0	119	10:02:21	2060521	5	3	0	3	0	3	0	0	0	0	0	0	0	0	0	5	5
121912	10:02:21	10010	testEng6mo	WordsEng6mo	11	5Eng6mo	236	0	119	10:02:21	2060801	5	3	0	3	0	3	0	0	0	0	0	0	0	0	0	5	5
121912	10:02:21	10010	testEng6mo	WordsEng6mo	11	4Eng6mo	540	0	119	10:02:21	2061388	5	3	0	3	3	3	0	0	0	0	0	0	0	0	0	5	5
121912	10:02:21	10010	testEng6mo	WordsEng6mo	11	5Eng6mo	201	0	119	10:02:21	2061640	5	3	0	3	3	3	0	0	0	0	0	0	0	0	0	5	5
121912	10:02:21	10010	testEng6mo	WordsEng6mo	11	7Eng6mo	300	0	119	10:02:21	2061987	5	3	0	3	3	3	0	3	0	0	0	0	0	0	0	5	5
121912	10:02:21	10010	testEng6mo	WordsEng6mo	11	6Eng6mo	690	0	119	10:02:21	2062733	5	3	0	3	3	3	3	3	0	0	0	0	0	0	0	5	5
121912	10:02:21	10010	testEng6mo	WordsEng6mo	11	8Eng6mo	439	0	119	10:02:21	2063226	5	3	0	3	3	3	3	3	3	0	0	0	0	0	0	5	5
121912	10:02:21	10010	testEng6mo	WordsEng6mo	11	2Eng6mo	3274	0	119	10:02:21	2066545	5	3	3	3	3	3	3	3	3	0	0	0	0	0	0	5	5
121912	10:02:21	10010	testEng6mo	WordsEng6mo	11	DoneEng6mo	644	0	119	10:02:21	2067238	5	3	3	3	3	3	3	3	3	0	0	0	0	0	0	5	5
121912	10:02:21	10010	DigitSpanFwrdEng6mo	Score1FwrdEng6mo	12	DS1	3432	0	119	10:02:21	2084564	5	3	3	3	3	3	3	3	3	0	0	0	0	0	0	5	5
121912	10:02:21	10010	DigitSpanFwrdEng6mo	Gate1FwrdEng6mo	12	0	1	0	119	10:02:21	2084569	5	3	3	3	3	3	3	3	3	3	0	0	0	0	0	5	5
121912	10:02:21	10010	DigitSpanFwrdEng6mo	Score2FwrdEng6mo	12	DS1	3939	0	119	10:02:21	2095266	5	3	3	3	3	3	3	3	3	3	0	0	0	0	0	5	5
121912	10:02:21	10010	DigitSpanFwrdEng6mo	Gate3FwrdEng6mo	12	0	1	0	119	10:02:21	2095271	5	3	3	3	3	3	3	3	3	4	0	0	0	0	0	5	5
121912	10:02:21	10010	DigitSpanFwrdEng6mo	Score3FwrdEng6mo	12	DS1	4139	0	119	10:02:21	2107435	5	3	3	3	3	3	3	3	3	4	0	0	0	0	0	5	5
121912	10:02:21	10010	DigitSpanFwrdEng6mo	Gate5FwrdEng6mo	12	0	1	0	119	10:02:21	2107440	5	3	3	3	3	3	3	3	3	5	0	0	0	0	0	5	5
121912	10:02:21	10010	DigitSpanFwrdEng6mo	Score4FwrdEng6mo	12	DS1	3669	0	119	10:02:21	2120629	5	3	3	3	3	3	3	3	3	5	0	0	0	0	0	5	5
121912	10:02:21	10010	DigitSpanFwrdEng6mo	Gate7FwrdEng6mo	12	0	1	0	119	10:02:21	2120634	5	3	3	3	3	3	3	3	3	6	0	0	0	0	0	5	5
121912	10:02:21	10010	DigitSpanFwrdEng6mo	Score5FwrdEng6mo	12	DS2	4080	0	119	10:02:21	2135703	5	3	3	3	3	3	3	3	3	6	0	0	0	0	0	5	5
121912	10:02:21	10010	DigitSpanFwrdEng6mo	Gate9FwrdEng6mo	12	0	1	0	119	10:02:21	2135708	5	3	3	3	3	3	3	3	3	6	0	0	0	0	0	5	5
121912	10:02:21	10010	DigitSpanFwrdEng6mo	Score55FwrdEng6mo	12	DS2	12275	0	119	10:02:21	2159121	5	3	3	3	3	3	3	3	3	6	0	0	0	0	0	5	5
121912	10:02:21	10010	DigitSpanEng6mo	Score1Eng6mo	13	DS1	2940	0	119	10:02:21	2172368	5	3	3	3	3	3	3	3	3	6	0	0	0	0	0	5	5
121912	10:02:21	10010	DigitSpanEng6mo	Gate1Eng6mo	13	0	1	0	119	10:02:21	2172373	5	3	3	3	3	3	3	3	3	6	2	0	0	0	0	5	5
121912	10:02:21	10010	DigitSpanEng6mo	Score2Eng6mo	13	DS1	2303	0	119	10:02:21	2179606	5	3	3	3	3	3	3	3	3	6	2	0	0	0	0	5	5
121912	10:02:21	10010	DigitSpanEng6mo	Gate3Eng6mo	13	0	1	0	119	10:02:21	2179610	5	3	3	3	3	3	3	3	3	6	3	0	0	0	0	5	5
121912	10:02:21	10010	DigitSpanEng6mo	Score3Eng6mo	13	DS1	2184	0	119	10:02:21	2188362	5	3	3	3	3	3	3	3	3	6	3	0	0	0	0	5	5
121912	10:02:21	10010	DigitSpanEng6mo	Gate5Eng6mo	13	0	1	0	119	10:02:21	2188367	5	3	3	3	3	3	3	3	3	6	4	0	0	0	0	5	5
121912	10:02:21	10010	DigitSpanEng6mo	Score4Eng6mo	13	DS2	9627	0	119	10:02:21	2205755	5	3	3	3	3	3	3	3	3	6	4	0	0	0	0	5	5
121912	10:02:21	10010	DigitSpanEng6mo	Gate7Eng6mo	13	0	1	0	119	10:02:21	2205759	5	3	3	3	3	3	3	3	3	6	4	0	0	0	0	5	5
121912	10:02:21	10010	DigitSpanEng6mo	Score44Eng6mo	13	DS2	8255	0	119	10:02:21	2221682	5	3	3	3	3	3	3	3	3	6	4	0	0	0	0	5	5
121912	10:02:21	10010	Trial	ResponseIL	14	0	175	0	119	10:02:21	2275740	5	3	3	3	3	3	3	3	3	6	4	0	0	0	0	5	5
121912	10:02:21	10010	Trial	IncongruentLeft	14	203	268	1	119	10:02:21	2276033	5	3	3	3	3	3	3	3	3	6	4	0	0	0	0	5	5
121912	10:02:21	10010	Trial	ResponseCR	14	0	175	0	119	10:02:21	2277446	5	3	3	3	3	3	3	3	3	6	4	0	0	0	0	5	5
121912	10:02:21	10010	Trial	CongruentRight	14	205	210	1	119	10:02:21	2277672	5	3	3	3	3	3	3	3	3	6	4	0	0	0	0	5	5
121912	10:02:21	10010	Trial	ResponseIR	14	0	175	0	119	10:02:21	2279152	5	3	3	3	3	3	3	3	3	6	4	0	0	0	0	5	5
121912	10:02:21	10010	Trial	IncongruentRight	14	205	312	1	119	10:02:21	2279485	5	3	3	3	3	3	3	3	3	6	4	0	0	0	0	5	5
121912	10:02:21	10010	Trial	ResponseCL	14	0	175	0	119	10:02:21	2280858	5	3	3	3	3	3	3	3	3	6	4	0	0	0	0	5	5
121912	10:02:21	10010	Trial	CongruentLeft	14	203	174	1	119	10:02:21	2281058	5	3	3	3	3	3	3	3	3	6	4	0	0	0	0	5	5
121912	10:02:21	10010	Trial	ResponseCR	14	0	175	0	119	10:02:21	2282564	5	3	3	3	3	3	3	3	3	6	4	0	0	0	0	5	5
121912	10:02:21	10010	Trial	CongruentRight	14	205	148	1	119	10:02:21	2282737	5	3	3	3	3	3	3	3	3	6	4	0	0	0	0	5	5
121912	10:02:21	10010	Trial	ResponseIR	14	0	175	0	119	10:02:21	2284270	5	3	3	3	3	3	3	3	3	6	4	0	0	0	0	5	5
121912	10:02:21	10010	Trial	IncongruentRight	14	203	314	0	119	10:02:21	2284603	5	3	3	3	3	3	3	3	3	6	4	0	0	0	0	5	5
121912	10:02:21	10010	Trial	ResponseCL	14	0	175	0	119	10:02:21	2285976	5	3	3	3	3	3	3	3	3	6	4	0	0	0	0	5	5
121912	10:02:21	10010	Trial	CongruentLeft	14	203	352	1	119	10:02:21	2286349	5	3	3	3	3	3	3	3	3	6	4	0	0	0	0	5	5
121912	10:02:21	10010	Trial	ResponseIL	14	0	175	0	119	10:02:21	2287682	5	3	3	3	3	3	3	3	3	6	4	0	0	0	0	5	5
121912	10:02:21	10010	Trial	IncongruentLeft	14	203	326	1	119	10:02:21	2288028	5	3	3	3	3	3	3	3	3	6	4	0	0	0	0	5	5
121912	10:02:21	10010	Trial	ResponseIL	14	0	175	0	119	10:02:21	2289388	5	3	3	3	3	3	3	3	3	6	4	0	0	0	0	5	5
121912	10:02:21	10010	Trial	IncongruentLeft	14	203	332	1	119	10:02:21	2289748	5	3	3	3	3	3	3	3	3	6	4	0	0	0	0	5	5
121912	10:02:21	10010	Trial	ResponseCR	14	0	175	0	119	10:02:21	2291094	5	3	3	3	3	3	3	3	3	6	4	0	0	0	0	5	5
121912	10:02:21	10010	Trial	CongruentRight	14	205	162	1	119	10:02:21	2291280	5	3	3	3	3	3	3	3	3	6	4	0	0	0	0	5	5
121912	10:02:21	10010	Trial	ResponseIR	14	0	175	0	119	10:02:21	2292800	5	3	3	3	3	3	3	3	3	6	4	0	0	0	0	5	5
121912	10:02:21	10010	Trial	IncongruentRight	14	205	280	1	119	10:02:21	2293106	5	3	3	3	3	3	3	3	3	6	4	0	0	0	0	5	5
121912	10:02:21	10010	Trial	ResponseCL	14	0	175	0	119	10:02:21	2294506	5	3	3	3	3	3	3	3	3	6	4	0	0	0	0	5	5
121912	10:02:21	10010	Trial	CongruentLeft	14	203	302	1	119	10:02:21	2294825	5	3	3	3	3	3	3	3	3	6	4	0	0	0	0	5	5
121912	10:02:21	10010	Trial	ResponseCR	14	0	175	0	119	10:02:21	2296212	5	3	3	3	3	3	3	3	3	6	4	0	0	0	0	5	5
121912	10:02:21	10010	Trial	CongruentRight	14	205	292	1	119	10:02:21	2296531	5	3	3	3	3	3	3	3	3	6	4	0	0	0	0	5	5
121912	10:02:21	10010	Trial	ResponseIL	14	0	175	0	119	10:02:21	2297918	5	3	3	3	3	3	3	3	3	6	4	0	0	0	0	5	5
121912	10:02:21	10010	Trial	IncongruentLeft	14	203	330	1	119	10:02:21	2298264	5	3	3	3	3	3	3	3	3	6	4	0	0	0	0	5	5
121912	10:02:21	10010	Trial	ResponseIR	14	0	175	0	119	10:02:21	2299624	5	3	3	3	3	3	3	3	3	6	4	0	0	0	0	5	5
121912	10:02:21	10010	Trial	IncongruentRight	14	205	320	1	119	10:02:21	2299970	5	3	3	3	3	3	3	3	3	6	4	0	0	0	0	5	5
121912	10:02:21	10010	Trial	ResponseCR	14	0	175	0	119	10:02:21	2301330	5	3	3	3	3	3	3	3	3	6	4	0	0	0	0	5	5
121912	10:02:21	10010	Trial	CongruentRight	14	205	358	1	119	10:02:21	2301716	5	3	3	3	3	3	3	3	3	6	4	0	0	0	0	5	5
121912	10:02:21	10010	Trial	ResponseCL	14	0	175	0	119	10:02:21	2303036	5	3	3	3	3	3	3	3	3	6	4	0	0	0	0	5	5
121912	10:02:21	10010	Trial	CongruentLeft	14	203	299	1	119	10:02:21	2303355	5	3	3	3	3	3	3	3	3	6	4	0	0	0	0	5	5
121912	10:02:21	10010	Trial	ResponseCR	14	0	175	0	119	10:02:21	2304742	5	3	3	3	3	3	3	3	3	6	4	0	0	0	0	5	5
121912	10:02:21	10010	Trial	CongruentRight	14	205	210	1	119	10:02:21	2304968	5	3	3	3	3	3	3	3	3	6	4	0	0	0	0	5	5
121912	10:02:21	10010	Trial	ResponseIR	14	0	175	0	119	10:02:21	2306448	5	3	3	3	3	3	3	3	3	6	4	0	0	0	0	5	5
121912	10:02:21	10010	Trial	IncongruentRight	14	205	311	1	119	10:02:21	2306780	5	3	3	3	3	3	3	3	3	6	4	0	0	0	0	5	5
121912	10:02:21	10010	Trial	ResponseIL	14	0	175	0	119	10:02:21	2308153	5	3	3	3	3	3	3	3	3	6	4	0	0	0	0	5	5
121912	10:02:21	10010	Trial	IncongruentLeft	14	203	286	1	119	10:02:21	2308460	5	3	3	3	3	3	3	3	3	6	4	0	0	0	0	5	5
121912	10:02:21	10010	Trial	ResponseIL	14	0	175	0	119	10:02:21	2309859	5	3	3	3	3	3	3	3	3	6	4	0	0	0	0	5	5
121912	10:02:21	10010	Trial	IncongruentLeft	14	203	340	1	119	10:02:21	2310219	5	3	3	3	3	3	3	3	3	6	4	0	0	0	0	5	5
121912	10:02:21	10010	Trial	ResponseCL	14	0	175	0	119	10:02:21	2311566	5	3	3	3	3	3	3	3	3	6	4	0	0	0	0	5	5
121912	10:02:21	10010	Trial	CongruentLeft	14	203	281	1	119	10:02:21	2311872	5	3	3	3	3	3	3	3	3	6	4	0	0	0	0	5	5
121912	10:02:21	10010	Trial	ResponseCR	14	0	175	0	119	10:02:21	2313271	5	3	3	3	3	3	3	3	3	6	4	0	0	0	0	5	5
121912	10:02:21	10010	Trial	CongruentRight	14	205	191	1	119	10:02:21	2313485	5	3	3	3	3	3	3	3	3	6	4	0	0	0	0	5	5
121912	10:02:21	10010	Trial	ResponseIL	14	0	175	0	119	10:02:21	2314977	5	3	3	3	3	3	3	3	3	6	4	0	0	0	0	5	5
121912	10:02:21	10010	Trial	IncongruentLeft	14	203	277	1	119	10:02:21	2315284	5	3	3	3	3	3	3	3	3	6	4	0	0	0	0	5	5
121912	10:02:21	10010	Trial	ResponseIR	14	0	175	0	119	10:02:21	2316683	5	3	3	3	3	3	3	3	3	6	4	0	0	0	0	5	5
121912	10:02:21	10010	Trial	IncongruentRight	14	205	267	1	119	10:02:21	2316976	5	3	3	3	3	3	3	3	3	6	4	0	0	0	0	5	5
121912	10:02:21	10010	Trial	ResponseCR	14	0	175	0	119	10:02:21	2318389	5	3	3	3	3	3	3	3	3	6	4	0	0	0	0	5	5
121912	10:02:21	10010	Trial	CongruentRight	14	205	225	1	119	10:02:21	2318643	5	3	3	3	3	3	3	3	3	6	4	0	0	0	0	5	5
121912	10:02:21	10010	Trial	ResponseCL	14	0	175	0	119	10:02:21	2320095	5	3	3	3	3	3	3	3	3	6	4	0	0	0	0	5	5
121912	10:02:21	10010	Trial	CongruentLeft	14	203	199	1	119	10:02:21	2320322	5	3	3	3	3	3	3	3	3	6	4	0	0	0	0	5	5
121912	10:02:21	10010	Trial	ResponseIR	14	0	175	0	119	10:02:21	2321801	5	3	3	3	3	3	3	3	3	6	4	0	0	0	0	5	5
121912	10:02:21	10010	Trial	IncongruentRight	14	205	365	1	119	10:02:21	2322188	5	3	3	3	3	3	3	3	3	6	4	0	0	0	0	5	5
121912	10:02:21	10010	Trial	ResponseIL	14	0	175	0	119	10:02:21	2323507	5	3	3	3	3	3	3	3	3	6	4	0	0	0	0	5	5
121912	10:02:21	10010	Trial	IncongruentLeft	14	203	291	1	119	10:02:21	2323827	5	3	3	3	3	3	3	3	3	6	4	0	0	0	0	5	5
121912	10:02:21	10010	Trial	ResponseIR	14	0	175	0	119	10:02:21	2325213	5	3	3	3	3	3	3	3	3	6	4	0	0	0	0	5	5
121912	10:02:21	10010	Trial	IncongruentRight	14	205	362	1	119	10:02:21	2325600	5	3	3	3	3	3	3	3	3	6	4	0	0	0	0	5	5
121912	10:02:21	10010	Trial	ResponseCR	14	0	175	0	119	10:02:21	2326919	5	3	3	3	3	3	3	3	3	6	4	0	0	0	0	5	5
121912	10:02:21	10010	Trial	CongruentRight	14	205	239	1	119	10:02:21	2327186	5	3	3	3	3	3	3	3	3	6	4	0	0	0	0	5	5
121912	10:02:21	10010	Trial	ResponseIL	14	0	175	0	119	10:02:21	2328625	5	3	3	3	3	3	3	3	3	6	4	0	0	0	0	5	5
121912	10:02:21	10010	Trial	IncongruentLeft	14	203	341	1	119	10:02:21	2328985	5	3	3	3	3	3	3	3	3	6	4	0	0	0	0	5	5
121912	10:02:21	10010	Trial	ResponseCL	14	0	175	0	119	10:02:21	2330331	5	3	3	3	3	3	3	3	3	6	4	0	0	0	0	5	5
121912	10:02:21	10010	Trial	CongruentLeft	14	203	299	1	119	10:02:21	2330651	5	3	3	3	3	3	3	3	3	6	4	0	0	0	0	5	5
121912	10:02:21	10010	Trial	ResponseCR	14	0	175	0	119	10:02:21	2332037	5	3	3	3	3	3	3	3	3	6	4	0	0	0	0	5	5
121912	10:02:21	10010	Trial	CongruentRight	14	205	273	1	119	10:02:21	2332330	5	3	3	3	3	3	3	3	3	6	4	0	0	0	0	5	5
121912	10:02:21	10010	Trial	ResponseIL	14	0	175	0	119	10:02:21	2333743	5	3	3	3	3	3	3	3	3	6	4	0	0	0	0	5	5
121912	10:02:21	10010	Trial	IncongruentLeft	14	203	247	1	119	10:02:21	2334010	5	3	3	3	3	3	3	3	3	6	4	0	0	0	0	5	5
121912	10:02:21	10010	Trial	ResponseIR	14	0	175	0	119	10:02:21	2335449	5	3	3	3	3	3	3	3	3	6	4	0	0	0	0	5	5
121912	10:02:21	10010	Trial	IncongruentRight	14	205	237	1	119	10:02:21	2335716	5	3	3	3	3	3	3	3	3	6	4	0	0	0	0	5	5
121912	10:02:21	10010	Trial	ResponseIR	14	0	175	0	119	10:02:21	2337155	5	3	3	3	3	3	3	3	3	6	4	0	0	0	0	5	5
121912	10:02:21	10010	Trial	IncongruentRight	14	205	323	1	119	10:02:21	2337502	5	3	3	3	3	3	3	3	3	6	4	0	0	0	0	5	5
121912	10:02:21	10010	Trial	ResponseCL	14	0	175	0	119	10:02:21	2338861	5	3	3	3	3	3	3	3	3	6	4	0	0	0	0	5	5
121912	10:02:21	10010	Trial	CongruentLeft	14	203	201	1	119	10:02:21	2339088	5	3	3	3	3	3	3	3	3	6	4	0	0	0	0	5	5
121912	10:02:21	10010	Trial	ResponseIL	14	0	175	0	119	10:02:21	2340567	5	3	3	3	3	3	3	3	3	6	4	0	0	0	0	5	5
121912	10:02:21	10010	Trial	IncongruentLeft	14	203	271	1	119	10:02:21	2340860	5	3	3	3	3	3	3	3	3	6	4	0	0	0	0	5	5
121912	10:02:21	10010	Trial	ResponseCR	14	0	175	0	119	10:02:21	2342273	5	3	3	3	3	3	3	3	3	6	4	0	0	0	0	5	5
121912	10:02:21	10010	Trial	CongruentRight	14	205	213	1	119	10:02:21	2342513	5	3	3	3	3	3	3	3	3	6	4	0	0	0	0	5	5
121912	10:02:21	10010	Trial	ResponseCL	14	0	175	0	119	10:02:21	2343979	5	3	3	3	3	3	3	3	3	6	4	0	0	0	0	5	5
121912	10:02:21	10010	Trial	CongruentLeft	14	203	203	1	119	10:02:21	2344206	5	3	3	3	3	3	3	3	3	6	4	0	0	0	0	5	5
121912	10:02:21	10010	Trial	ResponseIR	14	0	175	0	119	10:02:21	2345685	5	3	3	3	3	3	3	3	3	6	4	0	0	0	0	5	5
121912	10:02:21	10010	Trial	IncongruentRight	14	205	257	1	119	10:02:21	2345965	5	3	3	3	3	3	3	3	3	6	4	0	0	0	0	5	5
121912	10:02:21	10010	Trial	ResponseCR	14	0	175	0	119	10:02:21	2347391	5	3	3	3	3	3	3	3	3	6	4	0	0	0	0	5	5
121912	10:02:21	10010	Trial	CongruentRight	14	205	215	1	119	10:02:21	2347631	5	3	3	3	3	3	3	3	3	6	4	0	0	0	0	5	5
121912	10:02:21	10010	Trial	ResponseIL	14	0	175	0	119	10:02:21	2349097	5	3	3	3	3	3	3	3	3	6	4	0	0	0	0	5	5
121912	10:02:21	10010	Trial	IncongruentLeft	14	203	301	1	119	10:02:21	2349417	5	3	3	3	3	3	3	3	3	6	4	0	0	0	0	5	5
121912	10:02:21	10010	Trial	ResponseCL	14	0	175	0	119	10:02:21	2350803	5	3	3	3	3	3	3	3	3	6	4	0	0	0	0	5	5
121912	10:02:21	10010	Trial	CongruentLeft	14	203	290	1	119	10:02:21	2351123	5	3	3	3	3	3	3	3	3	6	4	0	0	0	0	5	5
121912	10:02:21	10010	Trial	ResponseIL	14	0	175	0	119	10:02:21	2352509	5	3	3	3	3	3	3	3	3	6	4	0	0	0	0	5	5
121912	10:02:21	10010	Trial	IncongruentLeft	14	203	393	1	119	10:02:21	2352922	5	3	3	3	3	3	3	3	3	6	4	0	0	0	0	5	5
121912	10:02:21	10010	Trial	ResponseIR	14	0	175	0	119	10:02:21	2354215	5	3	3	3	3	3	3	3	3	6	4	0	0	0	0	5	5
121912	10:02:21	10010	Trial	IncongruentRight	14	205	229	1	119	10:02:21	2354495	5	3	3	3	3	3	3	3	3	6	4	0	0	0	0	5	5
121912	10:02:21	10010	Trial	ResponseCR	14	0	175	0	119	10:02:21	2355948	5	3	3	3	3	3	3	3	3	6	4	0	0	0	0	5	5
121912	10:02:21	10010	Trial	CongruentRight	14	205	282	1	119	10:02:21	2356254	5	3	3	3	3	3	3	3	3	6	4	0	0	0	0	5	5
121912	10:02:21	10010	Trial	ResponseCL	14	0	175	0	119	10:02:21	2357654	5	3	3	3	3	3	3	3	3	6	4	0	0	0	0	5	5
121912	10:02:21	10010	Trial	CongruentLeft	14	203	272	1	119	10:02:21	2357947	5	3	3	3	3	3	3	3	3	6	4	0	0	0	0	5	5
121912	10:02:21	10010	Trial	ResponseCL	14	0	175	0	119	10:02:21	2359360	5	3	3	3	3	3	3	3	3	6	4	0	0	0	0	5	5
121912	10:02:21	10010	Trial	CongruentLeft	14	203	182	1	119	10:02:21	2359559	5	3	3	3	3	3	3	3	3	6	4	0	0	0	0	5	5
121912	10:02:21	10010	Trial	ResponseIR	14	0	175	0	119	10:02:21	2361066	5	3	3	3	3	3	3	3	3	6	4	0	0	0	0	5	5
121912	10:02:21	10010	Trial	IncongruentRight	14	205	268	1	119	10:02:21	2361359	5	3	3	3	3	3	3	3	3	6	4	0	0	0	0	5	5
121912	10:02:21	10010	Trial	ResponseIL	14	0	175	0	119	10:02:21	2362771	5	3	3	3	3	3	3	3	3	6	4	0	0	0	0	5	5
121912	10:02:21	10010	Trial	IncongruentLeft	14	203	275	1	119	10:02:21	2363065	5	3	3	3	3	3	3	3	3	6	4	0	0	0	0	5	5
121912	10:02:21	10010	Trial	ResponseIR	14	0	175	0	119	10:02:21	2364477	5	3	3	3	3	3	3	3	3	6	4	0	0	0	0	5	5
121912	10:02:21	10010	Trial	IncongruentRight	14	205	248	1	119	10:02:21	2364744	5	3	3	3	3	3	3	3	3	6	4	0	0	0	0	5	5
121912	10:02:21	10010	Trial	ResponseCR	14	0	175	0	119	10:02:21	2366183	5	3	3	3	3	3	3	3	3	6	4	0	0	0	0	5	5
121912	10:02:21	10010	Trial	CongruentRight	14	205	271	1	119	10:02:21	2366477	5	3	3	3	3	3	3	3	3	6	4	0	0	0	0	5	5
121912	10:02:21	10010	Trial	ResponseCR	14	0	175	0	119	10:02:21	2367889	5	3	3	3	3	3	3	3	3	6	4	0	0	0	0	5	5
121912	10:02:21	10010	Trial	CongruentRight	14	205	212	1	119	10:02:21	2368129	5	3	3	3	3	3	3	3	3	6	4	0	0	0	0	5	5
121912	10:02:21	10010	Trial	ResponseIL	14	0	175	0	119	10:02:21	2369595	5	3	3	3	3	3	3	3	3	6	4	0	0	0	0	5	5
121912	10:02:21	10010	Trial	IncongruentLeft	14	203	298	1	119	10:02:21	2369915	5	3	3	3	3	3	3	3	3	6	4	0	0	0	0	5	5
121912	10:02:21	10010	Trial	ResponseCL	14	0	175	0	119	10:02:21	2371301	5	3	3	3	3	3	3	3	3	6	4	0	0	0	0	5	5
121912	10:02:21	10010	Trial	CongruentLeft	14	203	208	1	119	10:02:21	2371528	5	3	3	3	3	3	3	3	3	6	4	0	0	0	0	5	5
121912	10:02:21	10010	Trial	ResponseCR	14	0	175	0	119	10:02:21	2373008	5	3	3	3	3	3	3	3	3	6	4	0	0	0	0	5	5
121912	10:02:21	10010	Trial	CongruentRight	14	205	214	1	119	10:02:21	2373247	5	3	3	3	3	3	3	3	3	6	4	0	0	0	0	5	5
121912	10:02:21	10010	Trial	ResponseCL	14	0	175	0	119	10:02:21	2374713	5	3	3	3	3	3	3	3	3	6	4	0	0	0	0	5	5
121912	10:02:21	10010	Trial	CongruentLeft	14	205	236	0	119	10:02:21	2374966	5	3	3	3	3	3	3	3	3	6	4	0	0	0	0	5	5
121912	10:02:21	10010	Trial	ResponseIR	14	0	175	0	119	10:02:21	2376419	5	3	3	3	3	3	3	3	3	6	4	0	0	0	0	5	5
121912	10:02:21	10010	Trial	IncongruentRight	14	205	338	1	119	10:02:21	2376779	5	3	3	3	3	3	3	3	3	6	4	0	0	0	0	5	5
121912	10:02:21	10010	Trial	ResponseCR	14	0	175	0	119	10:02:21	2378125	5	3	3	3	3	3	3	3	3	6	4	0	0	0	0	5	5
121912	10:02:21	10010	Trial	CongruentRight	14	205	248	1	119	10:02:21	2378392	5	3	3	3	3	3	3	3	3	6	4	0	0	0	0	5	5
121912	10:02:21	10010	Trial	ResponseCL	14	0	175	0	119	10:02:21	2379831	5	3	3	3	3	3	3	3	3	6	4	0	0	0	0	5	5
121912	10:02:21	10010	Trial	CongruentLeft	14	203	270	1	119	10:02:21	2380124	5	3	3	3	3	3	3	3	3	6	4	0	0	0	0	5	5
121912	10:02:21	10010	Trial	ResponseIL	14	0	175	0	119	10:02:21	2381537	5	3	3	3	3	3	3	3	3	6	4	0	0	0	0	5	5
121912	10:02:21	10010	Trial	IncongruentLeft	14	203	292	1	119	10:02:21	2381857	5	3	3	3	3	3	3	3	3	6	4	0	0	0	0	5	5
121912	10:02:21	10010	Trial	ResponseIL	14	0	175	0	119	10:02:21	2383243	5	3	3	3	3	3	3	3	3	6	4	0	0	0	0	5	5
121912	10:02:21	10010	Trial	IncongruentLeft	14	203	282	1	119	10:02:21	2383550	5	3	3	3	3	3	3	3	3	6	4	0	0	0	0	5	5
121912	10:02:21	10010	Trial	ResponseCR	14	0	175	0	119	10:02:21	2384949	5	3	3	3	3	3	3	3	3	6	4	0	0	0	0	5	5
121912	10:02:21	10010	Trial	CongruentRight	14	205	368	1	119	10:02:21	2385336	5	3	3	3	3	3	3	3	3	6	4	0	0	0	0	5	5
121912	10:02:21	10010	Trial	ResponseIR	14	0	175	0	119	10:02:21	2386655	5	3	3	3	3	3	3	3	3	6	4	0	0	0	0	5	5
121912	10:02:21	10010	Trial	IncongruentRight	14	205	326	1	119	10:02:21	2387002	5	3	3	3	3	3	3	3	3	6	4	0	0	0	0	5	5
121912	10:02:21	10010	Trial	ResponseCL	14	0	175	0	119	10:02:21	2388361	5	3	3	3	3	3	3	3	3	6	4	0	0	0	0	5	5
121912	10:02:21	10010	Trial	CongruentLeft	14	203	220	1	119	10:02:21	2388601	5	3	3	3	3	3	3	3	3	6	4	0	0	0	0	5	5
121912	10:02:21	10010	Trial	ResponseIR	14	0	175	0	119	10:02:21	2390067	5	3	3	3	3	3	3	3	3	6	4	0	0	0	0	5	5
121912	10:02:21	10010	Trial	IncongruentRight	14	205	290	1	119	10:02:21	2390374	5	3	3	3	3	3	3	3	3	6	4	0	0	0	0	5	5
121912	10:02:21	10010	Trial	ResponseCR	14	0	175	0	119	10:02:21	2391773	5	3	3	3	3	3	3	3	3	6	4	0	0	0	0	5	5
121912	10:02:21	10010	Trial	CongruentRight	14	205	232	1	119	10:02:21	2392026	5	3	3	3	3	3	3	3	3	6	4	0	0	0	0	5	5
121912	10:02:21	10010	Trial	ResponseIL	14	0	175	0	119	10:02:21	2393479	5	3	3	3	3	3	3	3	3	6	4	0	0	0	0	5	5
121912	10:02:21	10010	Trial	IncongruentLeft	14	203	334	1	119	10:02:21	2393839	5	3	3	3	3	3	3	3	3	6	4	0	0	0	0	5	5
121912	10:02:21	10010	Trial	ResponseCL	14	0	175	0	119	10:02:21	2395185	5	3	3	3	3	3	3	3	3	6	4	0	0	0	0	5	5
121912	10:02:21	10010	Trial	CongruentLeft	14	203	308	1	119	10:02:21	2395518	5	3	3	3	3	3	3	3	3	6	4	0	0	0	0	5	5
121912	10:02:21	10010	Trial	ResponseCR	14	0	175	0	119	10:02:21	2396891	5	3	3	3	3	3	3	3	3	6	4	0	0	0	0	5	5
121912	10:02:21	10010	Trial	CongruentRight	14	205	218	1	119	10:02:21	2397131	5	3	3	3	3	3	3	3	3	6	4	0	0	0	0	5	5
121912	10:02:21	10010	Trial	ResponseIL	14	0	175	0	119	10:02:21	2398597	5	3	3	3	3	3	3	3	3	6	4	0	0	0	0	5	5
121912	10:02:21	10010	Trial	IncongruentLeft	14	203	257	1	119	10:02:21	2398877	5	3	3	3	3	3	3	3	3	6	4	0	0	0	0	5	5
121912	10:02:21	10010	Trial	ResponseCR	14	0	175	0	119	10:02:21	2400303	5	3	3	3	3	3	3	3	3	6	4	0	0	0	0	5	5
121912	10:02:21	10010	Trial	CongruentRight	14	205	406	1	119	10:02:21	2400730	5	3	3	3	3	3	3	3	3	6	4	0	0	0	0	5	5
121912	10:02:21	10010	Trial	ResponseCR	14	0	175	0	119	10:02:21	2402009	5	3	3	3	3	3	3	3	3	6	4	0	0	0	0	5	5
121912	10:02:21	10010	Trial	CongruentRight	14	205	459	1	119	10:02:21	2402489	5	3	3	3	3	3	3	3	3	6	4	0	0	0	0	5	5
121912	10:02:21	10010	Trial	ResponseIR	14	0	175	0	119	10:02:21	2403715	5	3	3	3	3	3	3	3	3	6	4	0	0	0	0	5	5
121912	10:02:21	10010	Trial	IncongruentRight	14	205	465	1	119	10:02:21	2404208	5	3	3	3	3	3	3	3	3	6	4	0	0	0	0	5	5
121912	10:02:21	10010	Trial	ResponseCL	14	0	175	0	119	10:02:21	2405421	5	3	3	3	3	3	3	3	3	6	4	0	0	0	0	5	5
121912	10:02:21	10010	Trial	CongruentLeft	14	203	280	1	119	10:02:21	2405727	5	3	3	3	3	3	3	3	3	6	4	0	0	0	0	5	5
121912	10:02:21	10010	Trial	ResponseIL	14	0	175	0	119	10:02:21	2407127	5	3	3	3	3	3	3	3	3	6	4	0	0	0	0	5	5
121912	10:02:21	10010	Trial	IncongruentLeft	14	203	270	1	119	10:02:21	2407420	5	3	3	3	3	3	3	3	3	6	4	0	0	0	0	5	5
121912	10:02:21	10010	Trial	ResponseCL	14	0	175	0	119	10:02:21	2408833	5	3	3	3	3	3	3	3	3	6	4	0	0	0	0	5	5
121912	10:02:21	10010	Trial	CongruentLeft	14	203	228	1	119	10:02:21	2409086	5	3	3	3	3	3	3	3	3	6	4	0	0	0	0	5	5
121912	10:02:21	10010	Trial	ResponseIR	14	0	175	0	119	10:02:21	2410539	5	3	3	3	3	3	3	3	3	6	4	0	0	0	0	5	5
121912	10:02:21	10010	Trial	IncongruentRight	14	205	298	1	119	10:02:21	2410859	5	3	3	3	3	3	3	3	3	6	4	0	0	0	0	5	5
121912	10:02:21	10010	Trial	ResponseIL	14	0	175	0	119	10:02:21	2412245	5	3	3	3	3	3	3	3	3	6	4	0	0	0	0	5	5
121912	10:02:21	10010	Trial	IncongruentLeft	14	203	272	1	119	10:02:21	2412538	5	3	3	3	3	3	3	3	3	6	4	0	0	0	0	5	5
121912	10:02:21	10010	Trial	ResponseCR	14	0	175	0	119	10:02:21	2413951	5	3	3	3	3	3	3	3	3	6	4	0	0	0	0	5	5
121912	10:02:21	10010	Trial	CongruentRight	14	205	198	1	119	10:02:21	2414177	5	3	3	3	3	3	3	3	3	6	4	0	0	0	0	5	5
121912	10:02:21	10010	Trial	ResponseCL	14	0	175	0	119	10:02:21	2415657	5	3	3	3	3	3	3	3	3	6	4	0	0	0	0	5	5
121912	10:02:21	10010	Trial	CongruentLeft	14	203	267	1	119	10:02:21	2415950	5	3	3	3	3	3	3	3	3	6	4	0	0	0	0	5	5
121912	10:02:21	10010	Trial	ResponseIL	14	0	175	0	119	10:02:21	2417363	5	3	3	3	3	3	3	3	3	6	4	0	0	0	0	5	5
121912	10:02:21	10010	Trial	IncongruentLeft	14	203	242	1	119	10:02:21	2417629	5	3	3	3	3	3	3	3	3	6	4	0	0	0	0	5	5
121912	10:02:21	10010	Trial	ResponseCL	14	0	175	0	119	10:02:21	2419069	5	3	3	3	3	3	3	3	3	6	4	0	0	0	0	5	5
121912	10:02:21	10010	Trial	CongruentLeft	14	203	312	1	119	10:02:21	2419402	5	3	3	3	3	3	3	3	3	6	4	0	0	0	0	5	5
121912	10:02:21	10010	Trial	ResponseIR	14	0	175	0	119	10:02:21	2420775	5	3	3	3	3	3	3	3	3	6	4	0	0	0	0	5	5
121912	10:02:21	10010	Trial	IncongruentRight	14	205	286	1	119	10:02:21	2421081	5	3	3	3	3	3	3	3	3	6	4	0	0	0	0	5	5
121912	10:02:21	10010	Trial	ResponseCR	14	0	175	0	119	10:02:21	2422481	5	3	3	3	3	3	3	3	3	6	4	0	0	0	0	5	5
121912	10:02:21	10010	Trial	CongruentRight	14	205	196	1	119	10:02:21	2422694	5	3	3	3	3	3	3	3	3	6	4	0	0	0	0	5	5
121912	10:02:21	10010	Trial	ResponseIL	14	0	175	0	119	10:02:21	2424187	5	3	3	3	3	3	3	3	3	6	4	0	0	0	0	5	5
121912	10:02:21	10010	Trial	IncongruentLeft	14	203	250	1	119	10:02:21	2424453	5	3	3	3	3	3	3	3	3	6	4	0	0	0	0	5	5
121912	10:02:21	10010	Trial	ResponseCL	14	0	175	0	119	10:02:21	2425893	5	3	3	3	3	3	3	3	3	6	4	0	0	0	0	5	5
121912	10:02:21	10010	Trial	CongruentLeft	14	203	192	1	119	10:02:21	2426106	5	3	3	3	3	3	3	3	3	6	4	0	0	0	0	5	5
121912	10:02:21	10010	Trial	ResponseIR	14	0	175	0	119	10:02:21	2427599	5	3	3	3	3	3	3	3	3	6	4	0	0	0	0	5	5
121912	10:02:21	10010	Trial	IncongruentRight	14	205	245	1	119	10:02:21	2427865	5	3	3	3	3	3	3	3	3	6	4	0	0	0	0	5	5
121912	10:02:21	10010	Trial	ResponseIL	14	0	175	0	119	10:02:21	2429305	5	3	3	3	3	3	3	3	3	6	4	0	0	0	0	5	5
121912	10:02:21	10010	Trial	IncongruentLeft	14	203	236	1	119	10:02:21	2429558	5	3	3	3	3	3	3	3	3	6	4	0	0	0	0	5	5
121912	10:02:21	10010	Trial	ResponseCL	14	0	175	0	119	10:02:21	2431011	5	3	3	3	3	3	3	3	3	6	4	0	0	0	0	5	5
121912	10:02:21	10010	Trial	CongruentLeft	14	203	226	1	119	10:02:21	2431264	5	3	3	3	3	3	3	3	3	6	4	0	0	0	0	5	5
121912	10:02:21	10010	Trial	ResponseIL	14	0	175	0	119	10:02:21	2432717	5	3	3	3	3	3	3	3	3	6	4	0	0	0	0	5	5
121912	10:02:21	10010	Trial	IncongruentLeft	14	203	360	1	119	10:02:21	2433103	5	3	3	3	3	3	3	3	3	6	4	0	0	0	0	5	5
121912	10:02:21	10010	Trial	ResponseCR	14	0	175	0	119	10:02:21	2434423	5	3	3	3	3	3	3	3	3	6	4	0	0	0	0	5	5
121912	10:02:21	10010	Trial	CongruentRight	14	205	238	1	119	10:02:21	2434689	5	3	3	3	3	3	3	3	3	6	4	0	0	0	0	5	5
121912	10:02:21	10010	Trial	ResponseCL	14	0	175	0	119	10:02:21	2436129	5	3	3	3	3	3	3	3	3	6	4	0	0	0	0	5	5
121912	10:02:21	10010	Trial	CongruentLeft	14	203	196	1	119	10:02:21	2436342	5	3	3	3	3	3	3	3	3	6	4	0	0	0	0	5	5
121912	10:02:21	10010	Trial	ResponseIR	14	0	175	0	119	10:02:21	2437835	5	3	3	3	3	3	3	3	3	6	4	0	0	0	0	5	5
121912	10:02:21	10010	Trial	IncongruentRight	14	205	250	1	119	10:02:21	2438101	5	3	3	3	3	3	3	3	3	6	4	0	0	0	0	5	5
121912	10:02:21	10010	Trial	ResponseCL	14	0	175	0	119	10:02:21	2439541	5	3	3	3	3	3	3	3	3	6	4	0	0	0	0	5	5
121912	10:02:21	10010	Trial	CongruentLeft	14	203	160	1	119	10:02:21	2439727	5	3	3	3	3	3	3	3	3	6	4	0	0	0	0	5	5
121912	10:02:21	10010	Trial	ResponseCR	14	0	175	0	119	10:02:21	2441247	5	3	3	3	3	3	3	3	3	6	4	0	0	0	0	5	5
121912	10:02:21	10010	Trial	CongruentRight	14	205	182	1	119	10:02:21	2441446	5	3	3	3	3	3	3	3	3	6	4	0	0	0	0	5	5
121912	10:02:21	10010	Trial	ResponseIL	14	0	175	0	119	10:02:21	2442952	5	3	3	3	3	3	3	3	3	6	4	0	0	0	0	5	5
121912	10:02:21	10010	Trial	IncongruentLeft	14	203	187	1	119	10:02:21	2443166	5	3	3	3	3	3	3	3	3	6	4	0	0	0	0	5	5
121912	10:02:21	10010	WordsAbsEng6mo	PAbsEng6mo1	16	Abs1	4348	0	119	10:02:21	2455574	5	3	3	3	3	3	3	3	3	6	4	0	0	0	0	5	5
121912	10:02:21	10010	WordsAbsEng6mo	AbsEng6mo1	16	Abs1	3683	0	119	10:02:21	2459293	5	3	3	3	3	3	3	3	3	6	4	1	0	0	0	5	5
121912	10:02:21	10010	WordsAbsEng6mo	AbsEng6mo2	16	Abs2	29540	0	119	10:02:21	2488867	5	3	3	3	3	3	3	3	3	6	4	1	0	0	0	5	5
121912	10:02:21	10010	WordsAbsEng6mo	AbsEng6mo3	16	Abs1	13597	0	119	10:02:21	2502502	5	3	3	3	3	3	3	3	3	6	4	2	0	0	0	5	5
121912	10:02:21	10010	Trial2BackEngS	NS	17	0	1000	1	119	10:02:21	2543032	5	3	3	3	3	3	3	3	3	6	4	2	0	0	0	5	5
121912	10:02:21	10010	Trial2BackEngS	NS	17	0	1000	1	119	10:02:21	2544538	5	3	3	3	3	3	3	3	3	6	4	2	0	0	0	5	5
121912	10:02:21	10010	Trial2BackEngS	NS	17	0	1000	1	119	10:02:21	2546044	5	3	3	3	3	3	3	3	3	6	4	2	0	0	0	5	5
121912	10:02:21	10010	Trial2BackEngS	YS	17	0	1000	0	119	10:02:21	2547550	5	3	3	3	3	3	3	3	3	6	4	2	0	0	0	5	5
121912	10:02:21	10010	Trial2BackEngS	NS	17	0	1000	1	119	10:02:21	2549056	5	3	3	3	3	3	3	3	3	6	4	2	0	0	0	5	5
121912	10:02:21	10010	Trial2BackEngS	NS	17	0	1000	1	119	10:02:21	2550562	5	3	3	3	3	3	3	3	3	6	4	2	0	0	0	5	5
121912	10:02:21	10010	Trial2BackEngS	NS	17	0	1000	1	119	10:02:21	2552082	5	3	3	3	3	3	3	3	3	6	4	2	0	0	0	5	5
121912	10:02:21	10010	Trial2BackEngS	NS	17	57	468	0	119	10:02:21	2553068	5	3	3	3	3	3	3	3	3	6	4	2	0	0	0	5	5
121912	10:02:21	10010	Trial2BackEngS	YS	17	0	1000	0	119	10:02:21	2555094	5	3	3	3	3	3	3	3	3	6	4	2	0	0	0	5	5
121912	10:02:21	10010	Trial2BackEngS	NS	17	0	1000	1	119	10:02:21	2556613	5	3	3	3	3	3	3	3	3	6	4	2	0	0	0	5	5
121912	10:02:21	10010	Trial2BackEngS	NS	17	0	1000	1	119	10:02:21	2558119	5	3	3	3	3	3	3	3	3	6	4	2	0	0	0	5	5
121912	10:02:21	10010	Trial2BackEngS	YS	17	0	1000	0	119	10:02:21	2559625	5	3	3	3	3	3	3	3	3	6	4	2	0	0	0	5	5
121912	10:02:21	10010	Trial2BackEngS	NS	17	0	1000	1	119	10:02:21	2561131	5	3	3	3	3	3	3	3	3	6	4	2	0	0	0	5	5
121912	10:02:21	10010	Trial2BackEngS	NS	17	0	1000	1	119	10:02:21	2562637	5	3	3	3	3	3	3	3	3	6	4	2	0	0	0	5	5
121912	10:02:21	10010	Trial2BackEngS	NS	17	0	1000	1	119	10:02:21	2564143	5	3	3	3	3	3	3	3	3	6	4	2	0	0	0	5	5
121912	10:02:21	10010	Trial2BackEngS	YS	17	57	470	1	119	10:02:21	2565130	5	3	3	3	3	3	3	3	3	6	4	2	0	0	0	5	5
121912	10:02:21	10010	Trial2BackEngS	NS	17	0	1000	1	119	10:02:21	2567156	5	3	3	3	3	3	3	3	3	6	4	2	0	0	0	5	5
121912	10:02:21	10010	Trial2BackEngS	NS	17	0	1000	1	119	10:02:21	2568662	5	3	3	3	3	3	3	3	3	6	4	2	0	0	0	5	5
121912	10:02:21	10010	Trial2BackEngS	NS	17	0	1000	1	119	10:02:21	2570168	5	3	3	3	3	3	3	3	3	6	4	2	0	0	0	5	5
121912	10:02:21	10010	Trial2BackEngS	NS	17	0	1000	1	119	10:02:21	2571674	5	3	3	3	3	3	3	3	3	6	4	2	0	0	0	5	5
121912	10:02:21	10010	Trial2BackEngS	YS	17	0	1000	0	119	10:02:21	2573180	5	3	3	3	3	3	3	3	3	6	4	2	0	0	0	5	5
121912	10:02:21	10010	Trial2BackEngS	NS	17	0	1000	1	119	10:02:21	2574686	5	3	3	3	3	3	3	3	3	6	4	2	0	0	0	5	5
121912	10:02:21	10010	Trial2BackEngS	NS	17	0	1000	1	119	10:02:21	2576205	5	3	3	3	3	3	3	3	3	6	4	2	0	0	0	5	5
121912	10:02:21	10010	Trial2BackEngS	NS	17	0	1000	1	119	10:02:21	2577711	5	3	3	3	3	3	3	3	3	6	4	2	0	0	0	5	5
121912	10:02:21	10010	Trial2BackEngS	NS	17	0	1000	1	119	10:02:21	2579217	5	3	3	3	3	3	3	3	3	6	4	2	0	0	0	5	5
121912	10:02:21	10010	Trial2BackEngS	NS	17	0	1000	1	119	10:02:21	2580723	5	3	3	3	3	3	3	3	3	6	4	2	0	0	0	5	5
121912	10:02:21	10010	Trial2BackEngS	NS	17	0	1000	1	119	10:02:21	2582229	5	3	3	3	3	3	3	3	3	6	4	2	0	0	0	5	5
121912	10:02:21	10010	Trial2BackEngS	NS	17	0	1000	1	119	10:02:21	2583735	5	3	3	3	3	3	3	3	3	6	4	2	0	0	0	5	5
121912	10:02:21	10010	Trial2BackEngS	NS	17	57	862	0	119	10:02:21	2585108	5	3	3	3	3	3	3	3	3	6	4	2	0	0	0	5	5
121912	10:02:21	10010	Trial2BackEngS	NS	17	0	1000	1	119	10:02:21	2586748	5	3	3	3	3	3	3	3	3	6	4	2	0	0	0	5	5
121912	10:02:21	10010	Trial2BackEngS	NS	17	0	1000	1	119	10:02:21	2588254	5	3	3	3	3	3	3	3	3	6	4	2	0	0	0	5	5
121912	10:02:21	10010	Trial2BackEngS	YS	17	57	551	1	119	10:02:21	2589320	5	3	3	3	3	3	3	3	3	6	4	2	0	0	0	5	5
121912	10:02:21	10010	Trial2BackEngS	NS	17	0	1000	1	119	10:02:21	2591266	5	3	3	3	3	3	3	3	3	6	4	2	0	0	0	5	5
121912	10:02:21	10010	Trial2BackEngS	NS	17	0	1000	1	119	10:02:21	2592772	5	3	3	3	3	3	3	3	3	6	4	2	0	0	0	5	5
121912	10:02:21	10010	Trial2BackEngS	NS	17	0	1000	1	119	10:02:21	2594278	5	3	3	3	3	3	3	3	3	6	4	2	0	0	0	5	5
121912	10:02:21	10010	Trial2BackEngS	YS	17	57	447	1	119	10:02:21	2595237	5	3	3	3	3	3	3	3	3	6	4	2	0	0	0	5	5
121912	10:02:21	10010	Trial2BackEngS	NS	17	0	1000	1	119	10:02:21	2597290	5	3	3	3	3	3	3	3	3	6	4	2	0	0	0	5	5
121912	10:02:21	10010	Trial2BackEngS	NS	17	0	1000	1	119	10:02:21	2598796	5	3	3	3	3	3	3	3	3	6	4	2	0	0	0	5	5
121912	10:02:21	10010	Trial2BackEngS	NS	17	0	1000	1	119	10:02:21	2600302	5	3	3	3	3	3	3	3	3	6	4	2	0	0	0	5	5
121912	10:02:21	10010	Trial2BackEngS	NS	17	0	1000	1	119	10:02:21	2601808	5	3	3	3	3	3	3	3	3	6	4	2	0	0	0	5	5
121912	10:02:21	10010	Trial2BackEngS	NS	17	0	1000	1	119	10:02:21	2603314	5	3	3	3	3	3	3	3	3	6	4	2	0	0	0	5	5
121912	10:02:21	10010	Trial2BackEngS	NS	17	0	1000	1	119	10:02:21	2604820	5	3	3	3	3	3	3	3	3	6	4	2	0	0	0	5	5
121912	10:02:21	10010	Trial2BackEngS	NS	17	57	512	0	119	10:02:21	2605847	5	3	3	3	3	3	3	3	3	6	4	2	0	0	0	5	5
121912	10:02:21	10010	Trial2BackEngS	YS	17	0	1000	0	119	10:02:21	2607832	5	3	3	3	3	3	3	3	3	6	4	2	0	0	0	5	5
121912	10:02:21	10010	Trial2BackEngS	NS	17	0	1000	1	119	10:02:21	2609338	5	3	3	3	3	3	3	3	3	6	4	2	0	0	0	5	5
121912	10:02:21	10010	Trial2BackEngS	NS	17	0	1000	1	119	10:02:21	2610844	5	3	3	3	3	3	3	3	3	6	4	2	0	0	0	5	5
121912	10:02:21	10010	Trial2BackEngS	NS	17	0	1000	1	119	10:02:21	2612350	5	3	3	3	3	3	3	3	3	6	4	2	0	0	0	5	5
121912	10:02:21	10010	Trial2BackEngS	NS	17	0	1000	1	119	10:02:21	2613857	5	3	3	3	3	3	3	3	3	6	4	2	0	0	0	5	5
121912	10:02:21	10010	Trial2BackEngS	YS	17	57	612	1	119	10:02:21	2614976	5	3	3	3	3	3	3	3	3	6	4	2	0	0	0	5	5
121912	10:02:21	10010	Trial2BackEngS	NS	17	0	1000	1	119	10:02:21	2616869	5	3	3	3	3	3	3	3	3	6	4	2	0	0	0	5	5
121912	10:02:21	10010	Trial2BackEngS	NS	17	0	1000	1	119	10:02:21	2618375	5	3	3	3	3	3	3	3	3	6	4	2	0	0	0	5	5
121912	10:02:21	10010	Trial2BackEngS	NS	17	0	1000	1	119	10:02:21	2619881	5	3	3	3	3	3	3	3	3	6	4	2	0	0	0	5	5
121912	10:02:21	10010	Trial2BackEngS	NS	17	0	1000	1	119	10:02:21	2621387	5	3	3	3	3	3	3	3	3	6	4	2	0	0	0	5	5
121912	10:02:21	10010	Trial2BackEngS	NS	17	0	1000	1	119	10:02:21	2622893	5	3	3	3	3	3	3	3	3	6	4	2	0	0	0	5	5
121912	10:02:21	10010	Trial2BackEngS	NS	17	0	1000	1	119	10:02:21	2624399	5	3	3	3	3	3	3	3	3	6	4	2	0	0	0	5	5
121912	10:02:21	10010	Trial2BackEngS	YS	17	57	453	1	119	10:02:21	2625372	5	3	3	3	3	3	3	3	3	6	4	2	0	0	0	5	5
121912	10:02:21	10010	Trial2BackEngS	NS	17	0	1000	1	119	10:02:21	2627411	5	3	3	3	3	3	3	3	3	6	4	2	0	0	0	5	5
121912	10:02:21	10010	Trial2BackEngS	NS	17	0	1000	1	119	10:02:21	2628917	5	3	3	3	3	3	3	3	3	6	4	2	0	0	0	5	5
121912	10:02:21	10010	Trial2BackEngS	NS	17	0	1000	1	119	10:02:21	2630423	5	3	3	3	3	3	3	3	3	6	4	2	0	0	0	5	5
121912	10:02:21	10010	Trial2BackEngS	NS	17	57	957	0	119	10:02:21	2631890	5	3	3	3	3	3	3	3	3	6	4	2	0	0	0	5	5
121912	10:02:21	10010	Trial2BackEngS	NS	17	0	1000	1	119	10:02:21	2633435	5	3	3	3	3	3	3	3	3	6	4	2	0	0	0	5	5
121912	10:02:21	10010	Trial2BackEngS	NS	17	0	1000	1	119	10:02:21	2634955	5	3	3	3	3	3	3	3	3	6	4	2	0	0	0	5	5
121912	10:02:21	10010	Trial2BackEngS	NS	17	0	1000	1	119	10:02:21	2636474	5	3	3	3	3	3	3	3	3	6	4	2	0	0	0	5	5
121912	10:02:21	10010	Trial2BackEngS	YS	17	0	1000	0	119	10:02:21	2637980	5	3	3	3	3	3	3	3	3	6	4	2	0	0	0	5	5
121912	10:02:21	10010	Trial2BackEngS	NS	17	0	1000	1	119	10:02:21	2639486	5	3	3	3	3	3	3	3	3	6	4	2	0	0	0	5	5
121912	10:02:21	10010	Trial2BackEngS	NS	17	0	1000	1	119	10:02:21	2640992	5	3	3	3	3	3	3	3	3	6	4	2	0	0	0	5	5
121912	10:02:21	10010	Trial2BackEngS	NS	17	57	643	0	119	10:02:21	2642152	5	3	3	3	3	3	3	3	3	6	4	2	0	0	0	5	5
121912	10:02:21	10010	Trial2BackEngS	NS	17	0	1000	1	119	10:02:21	2644004	5	3	3	3	3	3	3	3	3	6	4	2	0	0	0	5	5
121912	10:02:21	10010	Trial2BackEngS	YS	17	0	1000	0	119	10:02:21	2645510	5	3	3	3	3	3	3	3	3	6	4	2	0	0	0	5	5
121912	10:02:21	10010	Trial2BackEngS	NS	17	0	1000	1	119	10:02:21	2647017	5	3	3	3	3	3	3	3	3	6	4	2	0	0	0	5	5
121912	10:02:21	10010	Trial2BackEngS	NS	17	0	1000	1	119	10:02:21	2648536	5	3	3	3	3	3	3	3	3	6	4	2	0	0	0	5	5
121912	10:02:21	10010	Trial2BackEngS	YS	17	0	1000	0	119	10:02:21	2650042	5	3	3	3	3	3	3	3	3	6	4	2	0	0	0	5	5
121912	10:02:21	10010	Trial2BackEngS	NS	17	0	1000	1	119	10:02:21	2651548	5	3	3	3	3	3	3	3	3	6	4	2	0	0	0	5	5
121912	10:02:21	10010	Trial2BackEngS	NS	17	0	1000	1	119	10:02:21	2653054	5	3	3	3	3	3	3	3	3	6	4	2	0	0	0	5	5
121912	10:02:21	10010	Trial2BackEngS	NS	17	0	1000	1	119	10:02:21	2654560	5	3	3	3	3	3	3	3	3	6	4	2	0	0	0	5	5
121912	10:02:21	10010	Trial2BackEngS	NS	17	0	1000	1	119	10:02:21	2656066	5	3	3	3	3	3	3	3	3	6	4	2	0	0	0	5	5
121912	10:02:21	10010	Trial2BackEngS	NS	17	57	849	0	119	10:02:21	2657426	5	3	3	3	3	3	3	3	3	6	4	2	0	0	0	5	5
121912	10:02:21	10010	Trial2BackEngS	NS	17	0	1000	1	119	10:02:21	2659078	5	3	3	3	3	3	3	3	3	6	4	2	0	0	0	5	5
121912	10:02:21	10010	Trial2BackEngS	YS	17	0	1000	0	119	10:02:21	2660584	5	3	3	3	3	3	3	3	3	6	4	2	0	0	0	5	5
121912	10:02:21	10010	Trial2BackEngS	NS	17	0	1000	1	119	10:02:21	2662104	5	3	3	3	3	3	3	3	3	6	4	2	0	0	0	5	5
121912	10:02:21	10010	Trial2BackEngS	NS	17	0	1000	1	119	10:02:21	2663610	5	3	3	3	3	3	3	3	3	6	4	2	0	0	0	5	5
121912	10:02:21	10010	Trial2BackEngS	NS	17	0	1000	1	119	10:02:21	2665116	5	3	3	3	3	3	3	3	3	6	4	2	0	0	0	5	5
121912	10:02:21	10010	Trial2BackEngS	NS	17	0	1000	1	119	10:02:21	2666622	5	3	3	3	3	3	3	3	3	6	4	2	0	0	0	5	5
121912	10:02:21	10010	Trial2BackEngS	YS	17	0	1000	0	119	10:02:21	2668141	5	3	3	3	3	3	3	3	3	6	4	2	0	0	0	5	5
121912	10:02:21	10010	Trial2BackEngS	NS	17	0	1000	1	119	10:02:21	2669647	5	3	3	3	3	3	3	3	3	6	4	2	0	0	0	5	5
121912	10:02:21	10010	Trial2BackEngS	NS	17	57	660	0	119	10:02:21	2670820	5	3	3	3	3	3	3	3	3	6	4	2	0	0	0	5	5
121912	10:02:21	10010	Trial2BackEngS	NS	17	0	1000	1	119	10:02:21	2672659	5	3	3	3	3	3	3	3	3	6	4	2	0	0	0	5	5
121912	10:02:21	10010	Trial2BackEngS	NS	17	0	1000	1	119	10:02:21	2674179	5	3	3	3	3	3	3	3	3	6	4	2	0	0	0	5	5
121912	10:02:21	10010	Trial2BackEngS	YS	17	0	1000	0	119	10:02:21	2675685	5	3	3	3	3	3	3	3	3	6	4	2	0	0	0	5	5
121912	10:02:21	10010	Trial2BackEngS	NS	17	0	1000	1	119	10:02:21	2677191	5	3	3	3	3	3	3	3	3	6	4	2	0	0	0	5	5
121912	10:02:21	10010	Trial2BackEngS	NS	17	0	1000	1	119	10:02:21	2678710	5	3	3	3	3	3	3	3	3	6	4	2	0	0	0	5	5
121912	10:02:21	10010	Trial2BackEngS	YS	17	57	380	1	119	10:02:21	2679603	5	3	3	3	3	3	3	3	3	6	4	2	0	0	0	5	5
121912	10:02:21	10010	Trial2BackEngS	NS	17	0	1000	1	119	10:02:21	2681722	5	3	3	3	3	3	3	3	3	6	4	2	0	0	0	5	5
121912	10:02:21	10010	Trial2BackEngS	NS	17	0	1000	1	119	10:02:21	2683229	5	3	3	3	3	3	3	3	3	6	4	2	0	0	0	5	5
121912	10:02:21	10010	Trial2BackEngS	NS	17	0	1000	1	119	10:02:21	2684748	5	3	3	3	3	3	3	3	3	6	4	2	0	0	0	5	5
121912	10:02:21	10010	Trial2BackEngS	NS	17	0	1000	1	119	10:02:21	2686254	5	3	3	3	3	3	3	3	3	6	4	2	0	0	0	5	5
121912	10:02:21	10010	Trial2BackEngS	NS	17	0	1000	1	119	10:02:21	2687760	5	3	3	3	3	3	3	3	3	6	4	2	0	0	0	5	5
121912	10:02:21	10010	Trial2BackEngS	NS	17	0	1000	1	119	10:02:21	2689266	5	3	3	3	3	3	3	3	3	6	4	2	0	0	0	5	5
121912	10:02:21	10010	Trial2BackEngS	NS	17	0	1000	1	119	10:02:21	2690772	5	3	3	3	3	3	3	3	3	6	4	2	0	0	0	5	5
121912	10:02:21	10010	Trial2BackEngS	NS	17	57	430	0	119	10:02:21	2691719	5	3	3	3	3	3	3	3	3	6	4	2	0	0	0	5	5
121912	10:02:21	10010	Trial2BackEngS	YS	17	0	1000	0	119	10:02:21	2693784	5	3	3	3	3	3	3	3	3	6	4	2	0	0	0	5	5
121912	10:02:21	10010	Trial2BackEngS	NS	17	0	1000	1	119	10:02:21	2695290	5	3	3	3	3	3	3	3	3	6	4	2	0	0	0	5	5
121912	10:02:21	10010	Trial2BackEngS	NS	17	0	1000	1	119	10:02:21	2696810	5	3	3	3	3	3	3	3	3	6	4	2	0	0	0	5	5
121912	10:02:21	10010	Trial2BackEngS	NS	17	0	1000	1	119	10:02:21	2698316	5	3	3	3	3	3	3	3	3	6	4	2	0	0	0	5	5
121912	10:02:21	10010	Trial2BackEngS	NS	17	0	1000	1	119	10:02:21	2699822	5	3	3	3	3	3	3	3	3	6	4	2	0	0	0	5	5
121912	10:02:21	10010	Trial2BackEngS	NS	17	0	1000	1	119	10:02:21	2701328	5	3	3	3	3	3	3	3	3	6	4	2	0	0	0	5	5
121912	10:02:21	10010	Trial2BackEngS	NS	17	0	1000	1	119	10:02:21	2702834	5	3	3	3	3	3	3	3	3	6	4	2	0	0	0	5	5
121912	10:02:21	10010	Trial2BackEngS	NS	17	0	1000	1	119	10:02:21	2704340	5	3	3	3	3	3	3	3	3	6	4	2	0	0	0	5	5
121912	10:02:21	10010	Trial2BackEngS	YS	17	57	638	1	119	10:02:21	2705486	5	3	3	3	3	3	3	3	3	6	4	2	0	0	0	5	5
121912	10:02:21	10010	Trial2BackEngS	NS	17	0	1000	1	119	10:02:21	2707352	5	3	3	3	3	3	3	3	3	6	4	2	0	0	0	5	5
121912	10:02:21	10010	Trial2BackEngS	NS	17	0	1000	1	119	10:02:21	2708858	5	3	3	3	3	3	3	3	3	6	4	2	0	0	0	5	5
121912	10:02:21	10010	Trial2BackEngS	NS	17	0	1000	1	119	10:02:21	2710364	5	3	3	3	3	3	3	3	3	6	4	2	0	0	0	5	5
121912	10:02:21	10010	Trial2BackEngS	NS	17	0	1000	1	119	10:02:21	2711870	5	3	3	3	3	3	3	3	3	6	4	2	0	0	0	5	5
121912	10:02:21	10010	Trial2BackEngS	NS	17	0	1000	1	119	10:02:21	2713376	5	3	3	3	3	3	3	3	3	6	4	2	0	0	0	5	5
121912	10:02:21	10010	Trial2BackEngS	NS	17	0	1000	1	119	10:02:21	2714882	5	3	3	3	3	3	3	3	3	6	4	2	0	0	0	5	5
121912	10:02:21	10010	Trial2BackEngS	NS	17	0	1000	1	119	10:02:21	2716388	5	3	3	3	3	3	3	3	3	6	4	2	0	0	0	5	5
121912	10:02:21	10010	Trial2BackEngS	NS	17	0	1000	1	119	10:02:21	2717894	5	3	3	3	3	3	3	3	3	6	4	2	0	0	0	5	5
121912	10:02:21	10010	Trial2BackEngS	NS	17	0	1000	1	119	10:02:21	2719401	5	3	3	3	3	3	3	3	3	6	4	2	0	0	0	5	5
121912	10:02:21	10010	Trial2BackEngS	YS	17	57	557	1	119	10:02:21	2720467	5	3	3	3	3	3	3	3	3	6	4	2	0	0	0	5	5
121912	10:02:21	10010	Trial2BackEngS	NS	17	0	1000	1	119	10:02:21	2722413	5	3	3	3	3	3	3	3	3	6	4	2	0	0	0	5	5
121912	10:02:21	10010	ClockEng6mo	ClockEng6mo	19	Clock1	47383	0	119	10:02:21	2769927	5	3	3	3	3	3	3	3	3	6	4	2	1	0	0	5	5
121912	10:02:21	10010	ClockEng6mo	ClockEng6mo	19	Clock11	805	0	119	10:02:21	2770780	5	3	3	3	3	3	3	3	3	6	4	2	1	1	0	5	5
121912	10:02:21	10010	ClockEng6mo	ClockEng6mo	19	Clock111	1280	0	119	10:02:21	2772113	5	3	3	3	3	3	3	3	3	6	4	2	1	1	1	5	5
121912	10:02:21	10010	ClockEng6mo	ClockEng6mo	19	Clockdone	491	0	119	10:02:21	2772659	5	3	3	3	3	3	3	3	3	6	4	2	1	1	1	5	5
121912	10:02:21	10010	FASEngVF6mo	StopEngVF6mo	20	16	6793	0	119	10:02:21	2865263	5	3	3	3	3	3	3	3	3	6	4	2	1	1	1	5	5
