date	time	subject	blockcode	trialcode	values.TaskNumber	response	latency	correct	values.Score	script.starttime	script.elapsedtime	values.ScoreS7	values.Word1	values.Word2	values.Word3	values.Word4	values.Word5	values.Word6	values.Word7	values.Word8	values.DigitSpanFwrd	values.DigitSpanBack	values.ScoreAbs	values.Contour	values.Numbers	values.Hands	values.corsiblockspanFwrd	values.corsiblockspanRev
101612	07:59:24	10002	Language	Language	0	French	8538	0	0	07:59:24	8658	0	0	0	0	0	0	0	0	0	0	0	0	0	0	0	0	0
101612	07:59:24	10002	Session	Session	0	6mo	732	0	0	07:59:24	9458	0	0	0	0	0	0	0	0	0	0	0	0	0	0	0	0	0
101612	07:59:24	10002	HandFr	HandFr	0	RightFr	1110	0	0	07:59:24	10644	0	0	0	0	0	0	0	0	0	0	0	0	0	0	0	0	0
101612	07:59:24	10002	AudioCheckFr	WordsFr	0	0	0	0	0	07:59:24	663942	0	0	0	0	0	0	0	0	0	0	0	0	0	0	0	0	0
101612	07:59:24	10002	CubeFr	CubeFr	1	1Cube	19088	0	0	07:59:24	684277	0	0	0	0	0	0	0	0	0	0	0	0	0	0	0	0	0
101612	07:59:24	10002	pm.simpleFrRight	blank.simpleFr	2	0	2000	1	0	07:59:24	712906	0	0	0	0	0	0	0	0	0	0	0	0	0	0	0	0	0
101612	07:59:24	10002	pm.simpleFrRight	pm.simpleFr	2	57	464	0	0	07:59:24	713399	0	0	0	0	0	0	0	0	0	0	0	0	0	0	0	0	0
101612	07:59:24	10002	pm.simpleFrRight	blank.simpleFr	2	0	1500	1	0	07:59:24	714918	0	0	0	0	0	0	0	0	0	0	0	0	0	0	0	0	0
101612	07:59:24	10002	pm.simpleFrRight	pm.simpleFr	2	57	387	0	0	07:59:24	715331	0	0	0	0	0	0	0	0	0	0	0	0	0	0	0	0	0
101612	07:59:24	10002	pm.simpleFrRight	blank.simpleFr	2	0	2200	1	0	07:59:24	717544	0	0	0	0	0	0	0	0	0	0	0	0	0	0	0	0	0
101612	07:59:24	10002	pm.simpleFrRight	pm.simpleFr	2	57	705	0	0	07:59:24	718277	0	0	0	0	0	0	0	0	0	0	0	0	0	0	0	0	0
101612	07:59:24	10002	pm.simpleFrRight	blank.simpleFr	2	0	1700	1	0	07:59:24	719996	0	0	0	0	0	0	0	0	0	0	0	0	0	0	0	0	0
101612	07:59:24	10002	pm.simpleFrRight	pm.simpleFr	2	57	366	0	0	07:59:24	720383	0	0	0	0	0	0	0	0	0	0	0	0	0	0	0	0	0
101612	07:59:24	10002	pm.simpleFrRight	blank.simpleFr	2	0	1900	1	0	07:59:24	722302	0	0	0	0	0	0	0	0	0	0	0	0	0	0	0	0	0
101612	07:59:24	10002	pm.simpleFrRight	pm.simpleFr	2	57	251	0	0	07:59:24	722582	0	0	0	0	0	0	0	0	0	0	0	0	0	0	0	0	0
101612	07:59:24	10002	pm.simpleFrRight	blank.simpleFr	2	0	2100	1	0	07:59:24	724701	0	0	0	0	0	0	0	0	0	0	0	0	0	0	0	0	0
101612	07:59:24	10002	pm.simpleFrRight	pm.simpleFr	2	57	220	0	0	07:59:24	724941	0	0	0	0	0	0	0	0	0	0	0	0	0	0	0	0	0
101612	07:59:24	10002	pm.simpleFrRight	blank.simpleFr	2	0	2300	1	0	07:59:24	727260	0	0	0	0	0	0	0	0	0	0	0	0	0	0	0	0	0
101612	07:59:24	10002	pm.simpleFrRight	pm.simpleFr	2	57	269	0	0	07:59:24	727553	0	0	0	0	0	0	0	0	0	0	0	0	0	0	0	0	0
101612	07:59:24	10002	pm.simpleFrRight	blank.simpleFr	2	0	1800	1	0	07:59:24	729366	0	0	0	0	0	0	0	0	0	0	0	0	0	0	0	0	0
101612	07:59:24	10002	pm.simpleFrRight	pm.simpleFr	2	57	275	0	0	07:59:24	729659	0	0	0	0	0	0	0	0	0	0	0	0	0	0	0	0	0
101612	07:59:24	10002	pm.simpleFrRight	blank.simpleFr	2	0	2400	1	0	07:59:24	732071	0	0	0	0	0	0	0	0	0	0	0	0	0	0	0	0	0
101612	07:59:24	10002	pm.simpleFrRight	pm.simpleFr	2	57	306	0	0	07:59:24	732404	0	0	0	0	0	0	0	0	0	0	0	0	0	0	0	0	0
101612	07:59:24	10002	pm.simpleFrRight	blank.simpleFr	2	0	1600	1	0	07:59:24	734017	0	0	0	0	0	0	0	0	0	0	0	0	0	0	0	0	0
101612	07:59:24	10002	pm.simpleFrRight	pm.simpleFr	2	57	344	0	0	07:59:24	734390	0	0	0	0	0	0	0	0	0	0	0	0	0	0	0	0	0
101612	07:59:24	10002	pm.simpleFrRight	blank.simpleFr	2	0	2500	1	0	07:59:24	736909	0	0	0	0	0	0	0	0	0	0	0	0	0	0	0	0	0
101612	07:59:24	10002	pm.simpleFrRight	pm.simpleFr	2	57	252	0	0	07:59:24	737189	0	0	0	0	0	0	0	0	0	0	0	0	0	0	0	0	0
101612	07:59:24	10002	pm.simpleFrRight	blank.simpleFr	2	0	1500	1	0	07:59:24	738708	0	0	0	0	0	0	0	0	0	0	0	0	0	0	0	0	0
101612	07:59:24	10002	pm.simpleFrRight	pm.simpleFr	2	57	420	0	0	07:59:24	739148	0	0	0	0	0	0	0	0	0	0	0	0	0	0	0	0	0
101612	07:59:24	10002	pm.simpleFrRight	blank.simpleFr	2	0	2100	1	0	07:59:24	741267	0	0	0	0	0	0	0	0	0	0	0	0	0	0	0	0	0
101612	07:59:24	10002	pm.simpleFrRight	pm.simpleFr	2	57	293	0	0	07:59:24	741587	0	0	0	0	0	0	0	0	0	0	0	0	0	0	0	0	0
101612	07:59:24	10002	pm.simpleFrRight	blank.simpleFr	2	0	1800	1	0	07:59:24	743400	0	0	0	0	0	0	0	0	0	0	0	0	0	0	0	0	0
101612	07:59:24	10002	pm.simpleFrRight	pm.simpleFr	2	57	241	0	0	07:59:24	743666	0	0	0	0	0	0	0	0	0	0	0	0	0	0	0	0	0
101612	07:59:24	10002	pm.simpleFrRight	blank.simpleFr	2	0	2000	1	0	07:59:24	745679	0	0	0	0	0	0	0	0	0	0	0	0	0	0	0	0	0
101612	07:59:24	10002	pm.simpleFrRight	pm.simpleFr	2	57	266	0	0	07:59:24	745972	0	0	0	0	0	0	0	0	0	0	0	0	0	0	0	0	0
101612	07:59:24	10002	pm.simpleFrRight	blank.simpleFr	2	0	1700	1	0	07:59:24	747691	0	0	0	0	0	0	0	0	0	0	0	0	0	0	0	0	0
101612	07:59:24	10002	pm.simpleFrRight	pm.simpleFr	2	57	333	0	0	07:59:24	748051	0	0	0	0	0	0	0	0	0	0	0	0	0	0	0	0	0
101612	07:59:24	10002	pm.simpleFrRight	blank.simpleFr	2	0	2200	1	0	07:59:24	750264	0	0	0	0	0	0	0	0	0	0	0	0	0	0	0	0	0
101612	07:59:24	10002	pm.simpleFrRight	pm.simpleFr	2	57	305	0	0	07:59:24	750597	0	0	0	0	0	0	0	0	0	0	0	0	0	0	0	0	0
101612	07:59:24	10002	pm.simpleFrRight	blank.simpleFr	2	0	2400	1	0	07:59:24	753023	0	0	0	0	0	0	0	0	0	0	0	0	0	0	0	0	0
101612	07:59:24	10002	pm.simpleFrRight	pm.simpleFr	2	57	346	0	0	07:59:24	753396	0	0	0	0	0	0	0	0	0	0	0	0	0	0	0	0	0
101612	07:59:24	10002	pm.simpleFrRight	blank.simpleFr	2	0	2300	1	0	07:59:24	755715	0	0	0	0	0	0	0	0	0	0	0	0	0	0	0	0	0
101612	07:59:24	10002	pm.simpleFrRight	pm.simpleFr	2	57	326	0	0	07:59:24	756061	0	0	0	0	0	0	0	0	0	0	0	0	0	0	0	0	0
101612	07:59:24	10002	pm.simpleFrRight	blank.simpleFr	2	0	1900	1	0	07:59:24	757981	0	0	0	0	0	0	0	0	0	0	0	0	0	0	0	0	0
101612	07:59:24	10002	pm.simpleFrRight	pm.simpleFr	2	57	363	0	0	07:59:24	758367	0	0	0	0	0	0	0	0	0	0	0	0	0	0	0	0	0
101612	07:59:24	10002	pm.simpleFrRight	blank.simpleFr	2	0	2500	1	0	07:59:24	760886	0	0	0	0	0	0	0	0	0	0	0	0	0	0	0	0	0
101612	07:59:24	10002	pm.simpleFrRight	pm.simpleFr	2	57	291	0	0	07:59:24	761206	0	0	0	0	0	0	0	0	0	0	0	0	0	0	0	0	0
101612	07:59:24	10002	pm.simpleFrRight	blank.simpleFr	2	0	1600	1	0	07:59:24	762819	0	0	0	0	0	0	0	0	0	0	0	0	0	0	0	0	0
101612	07:59:24	10002	pm.simpleFrRight	pm.simpleFr	2	57	422	0	0	07:59:24	763258	0	0	0	0	0	0	0	0	0	0	0	0	0	0	0	0	0
101612	07:59:24	10002	pm.simpleFrRight	blank.simpleFr	2	0	1900	1	0	07:59:24	765178	0	0	0	0	0	0	0	0	0	0	0	0	0	0	0	0	0
101612	07:59:24	10002	pm.simpleFrRight	pm.simpleFr	2	57	382	0	0	07:59:24	765578	0	0	0	0	0	0	0	0	0	0	0	0	0	0	0	0	0
101612	07:59:24	10002	pm.simpleFrRight	blank.simpleFr	2	0	2400	1	0	07:59:24	767990	0	0	0	0	0	0	0	0	0	0	0	0	0	0	0	0	0
101612	07:59:24	10002	pm.simpleFrRight	pm.simpleFr	2	57	306	0	0	07:59:24	768323	0	0	0	0	0	0	0	0	0	0	0	0	0	0	0	0	0
101612	07:59:24	10002	pm.simpleFrRight	blank.simpleFr	2	0	2300	1	0	07:59:24	770642	0	0	0	0	0	0	0	0	0	0	0	0	0	0	0	0	0
101612	07:59:24	10002	pm.simpleFrRight	pm.simpleFr	2	57	278	0	0	07:59:24	770949	0	0	0	0	0	0	0	0	0	0	0	0	0	0	0	0	0
101612	07:59:24	10002	pm.simpleFrRight	blank.simpleFr	2	0	1800	1	0	07:59:24	772761	0	0	0	0	0	0	0	0	0	0	0	0	0	0	0	0	0
101612	07:59:24	10002	pm.simpleFrRight	pm.simpleFr	2	57	239	0	0	07:59:24	773028	0	0	0	0	0	0	0	0	0	0	0	0	0	0	0	0	0
101612	07:59:24	10002	pm.simpleFrRight	blank.simpleFr	2	0	2100	1	0	07:59:24	775147	0	0	0	0	0	0	0	0	0	0	0	0	0	0	0	0	0
101612	07:59:24	10002	pm.simpleFrRight	pm.simpleFr	2	57	301	0	0	07:59:24	775467	0	0	0	0	0	0	0	0	0	0	0	0	0	0	0	0	0
101612	07:59:24	10002	pm.simpleFrRight	blank.simpleFr	2	0	1700	1	0	07:59:24	777186	0	0	0	0	0	0	0	0	0	0	0	0	0	0	0	0	0
101612	07:59:24	10002	pm.simpleFrRight	pm.simpleFr	2	57	342	0	0	07:59:24	777546	0	0	0	0	0	0	0	0	0	0	0	0	0	0	0	0	0
101612	07:59:24	10002	pm.simpleFrRight	blank.simpleFr	2	0	1500	1	0	07:59:24	779065	0	0	0	0	0	0	0	0	0	0	0	0	0	0	0	0	0
101612	07:59:24	10002	pm.simpleFrRight	pm.simpleFr	2	57	255	0	0	07:59:24	779345	0	0	0	0	0	0	0	0	0	0	0	0	0	0	0	0	0
101612	07:59:24	10002	pm.simpleFrRight	blank.simpleFr	2	0	1600	1	0	07:59:24	780971	0	0	0	0	0	0	0	0	0	0	0	0	0	0	0	0	0
101612	07:59:24	10002	pm.simpleFrRight	pm.simpleFr	2	57	284	0	0	07:59:24	781278	0	0	0	0	0	0	0	0	0	0	0	0	0	0	0	0	0
101612	07:59:24	10002	pm.simpleFrRight	blank.simpleFr	2	0	2200	1	0	07:59:24	783490	0	0	0	0	0	0	0	0	0	0	0	0	0	0	0	0	0
101612	07:59:24	10002	pm.simpleFrRight	pm.simpleFr	2	57	230	0	0	07:59:24	783744	0	0	0	0	0	0	0	0	0	0	0	0	0	0	0	0	0
101612	07:59:24	10002	pm.simpleFrRight	blank.simpleFr	2	0	2500	1	0	07:59:24	786262	0	0	0	0	0	0	0	0	0	0	0	0	0	0	0	0	0
101612	07:59:24	10002	pm.simpleFrRight	pm.simpleFr	2	57	241	0	0	07:59:24	786529	0	0	0	0	0	0	0	0	0	0	0	0	0	0	0	0	0
101612	07:59:24	10002	pm.simpleFrRight	blank.simpleFr	2	0	2000	1	0	07:59:24	788542	0	0	0	0	0	0	0	0	0	0	0	0	0	0	0	0	0
101612	07:59:24	10002	pm.simpleFrRight	pm.simpleFr	2	57	330	0	0	07:59:24	788888	0	0	0	0	0	0	0	0	0	0	0	0	0	0	0	0	0
101612	07:59:24	10002	pm.simpleFrRight	blank.simpleFr	2	0	1600	1	0	07:59:24	790501	0	0	0	0	0	0	0	0	0	0	0	0	0	0	0	0	0
101612	07:59:24	10002	pm.simpleFrRight	pm.simpleFr	2	57	323	0	0	07:59:24	790847	0	0	0	0	0	0	0	0	0	0	0	0	0	0	0	0	0
101612	07:59:24	10002	pm.simpleFrRight	blank.simpleFr	2	0	1700	1	0	07:59:24	792567	0	0	0	0	0	0	0	0	0	0	0	0	0	0	0	0	0
101612	07:59:24	10002	pm.simpleFrRight	pm.simpleFr	2	57	273	0	0	07:59:24	792860	0	0	0	0	0	0	0	0	0	0	0	0	0	0	0	0	0
101612	07:59:24	10002	pm.simpleFrRight	blank.simpleFr	2	0	2000	1	0	07:59:24	794886	0	0	0	0	0	0	0	0	0	0	0	0	0	0	0	0	0
101612	07:59:24	10002	pm.simpleFrRight	pm.simpleFr	2	57	274	0	0	07:59:24	795179	0	0	0	0	0	0	0	0	0	0	0	0	0	0	0	0	0
101612	07:59:24	10002	pm.simpleFrRight	blank.simpleFr	2	0	2300	1	0	07:59:24	797498	0	0	0	0	0	0	0	0	0	0	0	0	0	0	0	0	0
101612	07:59:24	10002	pm.simpleFrRight	pm.simpleFr	2	57	269	0	0	07:59:24	797791	0	0	0	0	0	0	0	0	0	0	0	0	0	0	0	0	0
101612	07:59:24	10002	pm.simpleFrRight	blank.simpleFr	2	0	2200	1	0	07:59:24	800017	0	0	0	0	0	0	0	0	0	0	0	0	0	0	0	0	0
101612	07:59:24	10002	pm.simpleFrRight	pm.simpleFr	2	57	310	0	0	07:59:24	800350	0	0	0	0	0	0	0	0	0	0	0	0	0	0	0	0	0
101612	07:59:24	10002	pm.simpleFrRight	blank.simpleFr	2	0	2100	1	0	07:59:24	802469	0	0	0	0	0	0	0	0	0	0	0	0	0	0	0	0	0
101612	07:59:24	10002	pm.simpleFrRight	pm.simpleFr	2	57	290	0	0	07:59:24	802776	0	0	0	0	0	0	0	0	0	0	0	0	0	0	0	0	0
101612	07:59:24	10002	pm.simpleFrRight	blank.simpleFr	2	0	2400	1	0	07:59:24	805188	0	0	0	0	0	0	0	0	0	0	0	0	0	0	0	0	0
101612	07:59:24	10002	pm.simpleFrRight	pm.simpleFr	2	57	291	0	0	07:59:24	805508	0	0	0	0	0	0	0	0	0	0	0	0	0	0	0	0	0
101612	07:59:24	10002	Trial2BackFr	N	3	0	1000	1	1	07:59:24	867617	0	0	0	0	0	0	0	0	0	0	0	0	0	0	0	0	0
101612	07:59:24	10002	Trial2BackFr	N	3	0	1000	1	2	07:59:24	869122	0	0	0	0	0	0	0	0	0	0	0	0	0	0	0	0	0
101612	07:59:24	10002	Trial2BackFr	N	3	0	1000	1	3	07:59:24	870629	0	0	0	0	0	0	0	0	0	0	0	0	0	0	0	0	0
101612	07:59:24	10002	Trial2BackFr	N	3	0	1000	1	4	07:59:24	872135	0	0	0	0	0	0	0	0	0	0	0	0	0	0	0	0	0
101612	07:59:24	10002	Trial2BackFr	N	3	0	1000	1	5	07:59:24	873641	0	0	0	0	0	0	0	0	0	0	0	0	0	0	0	0	0
101612	07:59:24	10002	Trial2BackFr	N	3	0	1000	1	6	07:59:24	875147	0	0	0	0	0	0	0	0	0	0	0	0	0	0	0	0	0
101612	07:59:24	10002	Trial2BackFr	N	3	0	1000	1	7	07:59:24	876653	0	0	0	0	0	0	0	0	0	0	0	0	0	0	0	0	0
101612	07:59:24	10002	Trial2BackFr	N	3	0	1000	1	8	07:59:24	878159	0	0	0	0	0	0	0	0	0	0	0	0	0	0	0	0	0
101612	07:59:24	10002	Trial2BackFr	Y	3	57	780	1	9	07:59:24	879452	0	0	0	0	0	0	0	0	0	0	0	0	0	0	0	0	0
101612	07:59:24	10002	Trial2BackFr	N	3	0	1000	1	10	07:59:24	881171	0	0	0	0	0	0	0	0	0	0	0	0	0	0	0	0	0
101612	07:59:24	10002	Trial2BackFr	N	3	0	1000	1	11	07:59:24	882690	0	0	0	0	0	0	0	0	0	0	0	0	0	0	0	0	0
101612	07:59:24	10002	Trial2BackFr	N	3	0	1000	1	12	07:59:24	884196	0	0	0	0	0	0	0	0	0	0	0	0	0	0	0	0	0
101612	07:59:24	10002	Trial2BackFr	Y	3	57	758	1	13	07:59:24	885462	0	0	0	0	0	0	0	0	0	0	0	0	0	0	0	0	0
101612	07:59:24	10002	Trial2BackFr	N	3	0	1000	1	14	07:59:24	887209	0	0	0	0	0	0	0	0	0	0	0	0	0	0	0	0	0
101612	07:59:24	10002	Trial2BackFr	N	3	0	1000	1	15	07:59:24	888715	0	0	0	0	0	0	0	0	0	0	0	0	0	0	0	0	0
101612	07:59:24	10002	Trial2BackFr	N	3	0	1000	1	16	07:59:24	890221	0	0	0	0	0	0	0	0	0	0	0	0	0	0	0	0	0
101612	07:59:24	10002	Trial2BackFr	N	3	0	1000	1	17	07:59:24	891727	0	0	0	0	0	0	0	0	0	0	0	0	0	0	0	0	0
101612	07:59:24	10002	Trial2BackFr	N	3	0	1000	1	18	07:59:24	893233	0	0	0	0	0	0	0	0	0	0	0	0	0	0	0	0	0
101612	07:59:24	10002	Trial2BackFr	Y	3	57	569	1	19	07:59:24	894312	0	0	0	0	0	0	0	0	0	0	0	0	0	0	0	0	0
101612	07:59:24	10002	Trial2BackFr	N	3	0	1000	1	20	07:59:24	896245	0	0	0	0	0	0	0	0	0	0	0	0	0	0	0	0	0
101612	07:59:24	10002	Trial2BackFr	N	3	0	1000	1	21	07:59:24	897751	0	0	0	0	0	0	0	0	0	0	0	0	0	0	0	0	0
101612	07:59:24	10002	Trial2BackFr	N	3	0	1000	1	22	07:59:24	899257	0	0	0	0	0	0	0	0	0	0	0	0	0	0	0	0	0
101612	07:59:24	10002	Trial2BackFr	N	3	0	1000	1	23	07:59:24	900776	0	0	0	0	0	0	0	0	0	0	0	0	0	0	0	0	0
101612	07:59:24	10002	Trial2BackFr	Y	3	0	1000	0	23	07:59:24	902283	0	0	0	0	0	0	0	0	0	0	0	0	0	0	0	0	0
101612	07:59:24	10002	Trial2BackFr	N	3	0	1000	1	24	07:59:24	903789	0	0	0	0	0	0	0	0	0	0	0	0	0	0	0	0	0
101612	07:59:24	10002	Trial2BackFr	N	3	0	1000	1	25	07:59:24	905295	0	0	0	0	0	0	0	0	0	0	0	0	0	0	0	0	0
101612	07:59:24	10002	Trial2BackFr	N	3	0	1000	1	26	07:59:24	906800	0	0	0	0	0	0	0	0	0	0	0	0	0	0	0	0	0
101612	07:59:24	10002	Trial2BackFr	N	3	0	1000	1	27	07:59:24	908307	0	0	0	0	0	0	0	0	0	0	0	0	0	0	0	0	0
101612	07:59:24	10002	Trial2BackFr	N	3	0	1000	1	28	07:59:24	909813	0	0	0	0	0	0	0	0	0	0	0	0	0	0	0	0	0
101612	07:59:24	10002	Trial2BackFr	N	3	0	1000	1	29	07:59:24	911319	0	0	0	0	0	0	0	0	0	0	0	0	0	0	0	0	0
101612	07:59:24	10002	Trial2BackFr	Y	3	57	995	1	30	07:59:24	912825	0	0	0	0	0	0	0	0	0	0	0	0	0	0	0	0	0
101612	07:59:24	10002	Trial2BackFr	N	3	0	1000	1	31	07:59:24	914331	0	0	0	0	0	0	0	0	0	0	0	0	0	0	0	0	0
101612	07:59:24	10002	Trial2BackFr	N	3	0	1000	1	32	07:59:24	915837	0	0	0	0	0	0	0	0	0	0	0	0	0	0	0	0	0
101612	07:59:24	10002	Trial2BackFr	N	3	0	1000	1	33	07:59:24	917343	0	0	0	0	0	0	0	0	0	0	0	0	0	0	0	0	0
101612	07:59:24	10002	Trial2BackFr	Y	3	57	682	1	34	07:59:24	918543	0	0	0	0	0	0	0	0	0	0	0	0	0	0	0	0	0
101612	07:59:24	10002	Trial2BackFr	N	3	0	1000	1	35	07:59:24	920355	0	0	0	0	0	0	0	0	0	0	0	0	0	0	0	0	0
101612	07:59:24	10002	Trial2BackFr	N	3	0	1000	1	36	07:59:24	921861	0	0	0	0	0	0	0	0	0	0	0	0	0	0	0	0	0
101612	07:59:24	10002	Trial2BackFr	N	3	0	1000	1	37	07:59:24	923367	0	0	0	0	0	0	0	0	0	0	0	0	0	0	0	0	0
101612	07:59:24	10002	Trial2BackFr	N	3	0	1000	1	38	07:59:24	924873	0	0	0	0	0	0	0	0	0	0	0	0	0	0	0	0	0
101612	07:59:24	10002	Trial2BackFr	N	3	0	1000	1	39	07:59:24	926379	0	0	0	0	0	0	0	0	0	0	0	0	0	0	0	0	0
101612	07:59:24	10002	Trial2BackFr	N	3	0	1000	1	40	07:59:24	927885	0	0	0	0	0	0	0	0	0	0	0	0	0	0	0	0	0
101612	07:59:24	10002	Trial2BackFr	Y	3	57	587	1	41	07:59:24	928993	0	0	0	0	0	0	0	0	0	0	0	0	0	0	0	0	0
101612	07:59:24	10002	Trial2BackFr	N	3	0	1000	1	42	07:59:24	930898	0	0	0	0	0	0	0	0	0	0	0	0	0	0	0	0	0
101612	07:59:24	10002	Trial2BackFr	N	3	0	1000	1	43	07:59:24	932404	0	0	0	0	0	0	0	0	0	0	0	0	0	0	0	0	0
101612	07:59:24	10002	Trial2BackFr	N	3	0	1000	1	44	07:59:24	933910	0	0	0	0	0	0	0	0	0	0	0	0	0	0	0	0	0
101612	07:59:24	10002	Trial2BackFr	N	3	0	1000	1	45	07:59:24	935416	0	0	0	0	0	0	0	0	0	0	0	0	0	0	0	0	0
101612	07:59:24	10002	Trial2BackFr	Y	3	57	737	1	46	07:59:24	936669	0	0	0	0	0	0	0	0	0	0	0	0	0	0	0	0	0
101612	07:59:24	10002	Trial2BackFr	N	3	0	1000	1	47	07:59:24	938428	0	0	0	0	0	0	0	0	0	0	0	0	0	0	0	0	0
101612	07:59:24	10002	Trial2BackFr	N	3	0	1000	1	48	07:59:24	939934	0	0	0	0	0	0	0	0	0	0	0	0	0	0	0	0	0
101612	07:59:24	10002	Trial2BackFr	N	3	0	1000	1	49	07:59:24	941453	0	0	0	0	0	0	0	0	0	0	0	0	0	0	0	0	0
101612	07:59:24	10002	Trial2BackFr	N	3	0	1000	1	50	07:59:24	942959	0	0	0	0	0	0	0	0	0	0	0	0	0	0	0	0	0
101612	07:59:24	10002	Trial2BackFr	N	3	0	1000	1	51	07:59:24	944479	0	0	0	0	0	0	0	0	0	0	0	0	0	0	0	0	0
101612	07:59:24	10002	Trial2BackFr	Y	3	57	666	1	52	07:59:24	945665	0	0	0	0	0	0	0	0	0	0	0	0	0	0	0	0	0
101612	07:59:24	10002	Trial2BackFr	N	3	0	1000	1	53	07:59:24	947491	0	0	0	0	0	0	0	0	0	0	0	0	0	0	0	0	0
101612	07:59:24	10002	Trial2BackFr	N	3	0	1000	1	54	07:59:24	948997	0	0	0	0	0	0	0	0	0	0	0	0	0	0	0	0	0
101612	07:59:24	10002	Trial2BackFr	N	3	0	1000	1	55	07:59:24	950503	0	0	0	0	0	0	0	0	0	0	0	0	0	0	0	0	0
101612	07:59:24	10002	Trial2BackFr	N	3	0	1000	1	56	07:59:24	952009	0	0	0	0	0	0	0	0	0	0	0	0	0	0	0	0	0
101612	07:59:24	10002	Trial2BackFr	N	3	0	1000	1	57	07:59:24	953515	0	0	0	0	0	0	0	0	0	0	0	0	0	0	0	0	0
101612	07:59:24	10002	Trial2BackFr	N	3	0	1000	1	58	07:59:24	955021	0	0	0	0	0	0	0	0	0	0	0	0	0	0	0	0	0
101612	07:59:24	10002	Trial2BackFr	Y	3	0	1000	0	58	07:59:24	956527	0	0	0	0	0	0	0	0	0	0	0	0	0	0	0	0	0
101612	07:59:24	10002	Trial2BackFr	N	3	0	1000	1	59	07:59:24	958033	0	0	0	0	0	0	0	0	0	0	0	0	0	0	0	0	0
101612	07:59:24	10002	Trial2BackFr	N	3	0	1000	1	60	07:59:24	959539	0	0	0	0	0	0	0	0	0	0	0	0	0	0	0	0	0
101612	07:59:24	10002	Trial2BackFr	Y	3	57	645	1	61	07:59:24	960699	0	0	0	0	0	0	0	0	0	0	0	0	0	0	0	0	0
101612	07:59:24	10002	Trial2BackFr	N	3	0	1000	1	62	07:59:24	962551	0	0	0	0	0	0	0	0	0	0	0	0	0	0	0	0	0
101612	07:59:24	10002	Trial2BackFr	N	3	0	1000	1	63	07:59:24	964057	0	0	0	0	0	0	0	0	0	0	0	0	0	0	0	0	0
101612	07:59:24	10002	Trial2BackFr	N	3	0	1000	1	64	07:59:24	965563	0	0	0	0	0	0	0	0	0	0	0	0	0	0	0	0	0
101612	07:59:24	10002	Trial2BackFr	N	3	0	1000	1	65	07:59:24	967070	0	0	0	0	0	0	0	0	0	0	0	0	0	0	0	0	0
101612	07:59:24	10002	Trial2BackFr	N	3	0	1000	1	66	07:59:24	968575	0	0	0	0	0	0	0	0	0	0	0	0	0	0	0	0	0
101612	07:59:24	10002	Trial2BackFr	N	3	0	1000	1	67	07:59:24	970095	0	0	0	0	0	0	0	0	0	0	0	0	0	0	0	0	0
101612	07:59:24	10002	Trial2BackFr	N	3	0	1000	1	68	07:59:24	971601	0	0	0	0	0	0	0	0	0	0	0	0	0	0	0	0	0
101612	07:59:24	10002	Trial2BackFr	N	3	0	1000	1	69	07:59:24	973107	0	0	0	0	0	0	0	0	0	0	0	0	0	0	0	0	0
101612	07:59:24	10002	Trial2BackFr	N	3	0	1000	1	70	07:59:24	974613	0	0	0	0	0	0	0	0	0	0	0	0	0	0	0	0	0
101612	07:59:24	10002	Trial2BackFr	N	3	0	1000	1	71	07:59:24	976119	0	0	0	0	0	0	0	0	0	0	0	0	0	0	0	0	0
101612	07:59:24	10002	Trial2BackFr	Y	3	57	561	1	72	07:59:24	977199	0	0	0	0	0	0	0	0	0	0	0	0	0	0	0	0	0
101612	07:59:24	10002	Trial2BackFr	N	3	0	1000	1	73	07:59:24	979131	0	0	0	0	0	0	0	0	0	0	0	0	0	0	0	0	0
101612	07:59:24	10002	Trial2BackFr	N	3	0	1000	1	74	07:59:24	980637	0	0	0	0	0	0	0	0	0	0	0	0	0	0	0	0	0
101612	07:59:24	10002	Trial2BackFr	N	3	0	1000	1	75	07:59:24	982144	0	0	0	0	0	0	0	0	0	0	0	0	0	0	0	0	0
101612	07:59:24	10002	Trial2BackFr	Y	3	57	856	1	76	07:59:24	983516	0	0	0	0	0	0	0	0	0	0	0	0	0	0	0	0	0
101612	07:59:24	10002	Trial2BackFr	N	3	0	1000	1	77	07:59:24	985156	0	0	0	0	0	0	0	0	0	0	0	0	0	0	0	0	0
101612	07:59:24	10002	Trial2BackFr	N	3	0	1000	1	78	07:59:24	986675	0	0	0	0	0	0	0	0	0	0	0	0	0	0	0	0	0
101612	07:59:24	10002	Trial2BackFr	N	3	0	1000	1	79	07:59:24	988181	0	0	0	0	0	0	0	0	0	0	0	0	0	0	0	0	0
101612	07:59:24	10002	Trial2BackFr	N	3	0	1000	1	80	07:59:24	989700	0	0	0	0	0	0	0	0	0	0	0	0	0	0	0	0	0
101612	07:59:24	10002	Trial2BackFr	N	3	0	1000	1	81	07:59:24	991206	0	0	0	0	0	0	0	0	0	0	0	0	0	0	0	0	0
101612	07:59:24	10002	Trial2BackFr	Y	3	57	369	1	82	07:59:24	992086	0	0	0	0	0	0	0	0	0	0	0	0	0	0	0	0	0
101612	07:59:24	10002	Trial2BackFr	N	3	0	1000	1	83	07:59:24	994219	0	0	0	0	0	0	0	0	0	0	0	0	0	0	0	0	0
101612	07:59:24	10002	Trial2BackFr	N	3	0	1000	1	84	07:59:24	995725	0	0	0	0	0	0	0	0	0	0	0	0	0	0	0	0	0
101612	07:59:24	10002	Trial2BackFr	N	3	0	1000	1	85	07:59:24	997231	0	0	0	0	0	0	0	0	0	0	0	0	0	0	0	0	0
101612	07:59:24	10002	Trial2BackFr	N	3	0	1000	1	86	07:59:24	998750	0	0	0	0	0	0	0	0	0	0	0	0	0	0	0	0	0
101612	07:59:24	10002	Trial2BackFr	N	3	0	1000	1	87	07:59:24	1000256	0	0	0	0	0	0	0	0	0	0	0	0	0	0	0	0	0
101612	07:59:24	10002	Trial2BackFr	N	3	0	1000	1	88	07:59:24	1001762	0	0	0	0	0	0	0	0	0	0	0	0	0	0	0	0	0
101612	07:59:24	10002	Trial2BackFr	N	3	0	1000	1	89	07:59:24	1003268	0	0	0	0	0	0	0	0	0	0	0	0	0	0	0	0	0
101612	07:59:24	10002	Trial2BackFr	N	3	0	1000	1	90	07:59:24	1004774	0	0	0	0	0	0	0	0	0	0	0	0	0	0	0	0	0
101612	07:59:24	10002	Trial2BackFr	N	3	0	1000	1	91	07:59:24	1006280	0	0	0	0	0	0	0	0	0	0	0	0	0	0	0	0	0
101612	07:59:24	10002	Trial2BackFr	Y	3	57	847	1	92	07:59:24	1007640	0	0	0	0	0	0	0	0	0	0	0	0	0	0	0	0	0
101612	07:59:24	10002	Trial2BackFr	N	3	0	1000	1	93	07:59:24	1009292	0	0	0	0	0	0	0	0	0	0	0	0	0	0	0	0	0
101612	07:59:24	10002	Trial2BackFr	N	3	0	1000	1	94	07:59:24	1010799	0	0	0	0	0	0	0	0	0	0	0	0	0	0	0	0	0
101612	07:59:24	10002	Trial2BackFr	N	3	0	1000	1	95	07:59:24	1012305	0	0	0	0	0	0	0	0	0	0	0	0	0	0	0	0	0
101612	07:59:24	10002	Trial2BackFr	N	3	0	1000	1	96	07:59:24	1013811	0	0	0	0	0	0	0	0	0	0	0	0	0	0	0	0	0
101612	07:59:24	10002	Trial2BackFr	N	3	0	1000	1	97	07:59:24	1015316	0	0	0	0	0	0	0	0	0	0	0	0	0	0	0	0	0
101612	07:59:24	10002	Trial2BackFr	N	3	0	1000	1	98	07:59:24	1016823	0	0	0	0	0	0	0	0	0	0	0	0	0	0	0	0	0
101612	07:59:24	10002	Trial2BackFr	N	3	0	1000	1	99	07:59:24	1018329	0	0	0	0	0	0	0	0	0	0	0	0	0	0	0	0	0
101612	07:59:24	10002	Trial2BackFr	N	3	0	1000	1	100	07:59:24	1019835	0	0	0	0	0	0	0	0	0	0	0	0	0	0	0	0	0
101612	07:59:24	10002	Trial2BackFr	Y	3	57	380	1	101	07:59:24	1020728	0	0	0	0	0	0	0	0	0	0	0	0	0	0	0	0	0
101612	07:59:24	10002	Trial2BackFr	N	3	0	1000	1	102	07:59:24	1022847	0	0	0	0	0	0	0	0	0	0	0	0	0	0	0	0	0
101612	07:59:24	10002	Trial2BackFr	N	3	0	1000	1	103	07:59:24	1024353	0	0	0	0	0	0	0	0	0	0	0	0	0	0	0	0	0
101612	07:59:24	10002	Trial2BackFr	N	3	0	1000	1	104	07:59:24	1025859	0	0	0	0	0	0	0	0	0	0	0	0	0	0	0	0	0
101612	07:59:24	10002	Trial2BackFr	N	3	0	1000	1	105	07:59:24	1027365	0	0	0	0	0	0	0	0	0	0	0	0	0	0	0	0	0
101612	07:59:24	10002	Trial2BackFr	Y	3	0	1000	0	105	07:59:24	1028871	0	0	0	0	0	0	0	0	0	0	0	0	0	0	0	0	0
101612	07:59:24	10002	Trial2BackFr	N	3	0	1000	1	106	07:59:24	1030377	0	0	0	0	0	0	0	0	0	0	0	0	0	0	0	0	0
101612	07:59:24	10002	Trial2BackFr	N	3	0	1000	1	107	07:59:24	1031883	0	0	0	0	0	0	0	0	0	0	0	0	0	0	0	0	0
101612	07:59:24	10002	Trial2BackFr	N	3	0	1000	1	108	07:59:24	1033389	0	0	0	0	0	0	0	0	0	0	0	0	0	0	0	0	0
101612	07:59:24	10002	Trial2BackFr	Y	3	57	633	1	109	07:59:24	1034535	0	0	0	0	0	0	0	0	0	0	0	0	0	0	0	0	0
101612	07:59:24	10002	Trial2BackFr	N	3	0	1000	1	110	07:59:24	1036401	0	0	0	0	0	0	0	0	0	0	0	0	0	0	0	0	0
101612	07:59:24	10002	Trial2BackFr	N	3	0	1000	1	111	07:59:24	1037908	0	0	0	0	0	0	0	0	0	0	0	0	0	0	0	0	0
101612	07:59:24	10002	Trial2BackFr	N	3	0	1000	1	112	07:59:24	1039414	0	0	0	0	0	0	0	0	0	0	0	0	0	0	0	0	0
101612	07:59:24	10002	Trial2BackFr	N	3	0	1000	1	113	07:59:24	1040920	0	0	0	0	0	0	0	0	0	0	0	0	0	0	0	0	0
101612	07:59:24	10002	Trial2BackFr	N	3	0	1000	1	114	07:59:24	1042426	0	0	0	0	0	0	0	0	0	0	0	0	0	0	0	0	0
101612	07:59:24	10002	Trial2BackFr	Y	3	0	1000	0	114	07:59:24	1043932	0	0	0	0	0	0	0	0	0	0	0	0	0	0	0	0	0
101612	07:59:24	10002	Trial2BackFr	N	3	0	1000	1	115	07:59:24	1045438	0	0	0	0	0	0	0	0	0	0	0	0	0	0	0	0	0
101612	07:59:24	10002	Trial2BackFr	N	3	0	1000	1	116	07:59:24	1046944	0	0	0	0	0	0	0	0	0	0	0	0	0	0	0	0	0
101612	07:59:24	10002	Trial2BackFr	N	3	0	1000	1	117	07:59:24	1048450	0	0	0	0	0	0	0	0	0	0	0	0	0	0	0	0	0
101612	07:59:24	10002	Trial2BackFr	Y	3	57	661	1	118	07:59:24	1049623	0	0	0	0	0	0	0	0	0	0	0	0	0	0	0	0	0
101612	07:59:24	10002	Trial3BackFr	NN	4	0	1000	1	118	07:59:24	1065750	0	0	0	0	0	0	0	0	0	0	0	0	0	0	0	0	0
101612	07:59:24	10002	Trial3BackFr	NN	4	0	1000	1	118	07:59:24	1067256	0	0	0	0	0	0	0	0	0	0	0	0	0	0	0	0	0
101612	07:59:24	10002	Trial3BackFr	NN	4	0	1000	1	118	07:59:24	1068762	0	0	0	0	0	0	0	0	0	0	0	0	0	0	0	0	0
101612	07:59:24	10002	Trial3BackFr	YY	4	57	412	1	118	07:59:24	1069695	0	0	0	0	0	0	0	0	0	0	0	0	0	0	0	0	0
101612	07:59:24	10002	Trial3BackFr	NN	4	0	1000	1	118	07:59:24	1071774	0	0	0	0	0	0	0	0	0	0	0	0	0	0	0	0	0
101612	07:59:24	10002	Trial3BackFr	NN	4	0	1000	1	118	07:59:24	1073280	0	0	0	0	0	0	0	0	0	0	0	0	0	0	0	0	0
101612	07:59:24	10002	Trial3BackFr	NN	4	0	1000	1	118	07:59:24	1074786	0	0	0	0	0	0	0	0	0	0	0	0	0	0	0	0	0
101612	07:59:24	10002	Trial3BackFr	NN	4	0	1000	1	118	07:59:24	1076292	0	0	0	0	0	0	0	0	0	0	0	0	0	0	0	0	0
101612	07:59:24	10002	Trial3BackFr	YY	4	57	402	1	118	07:59:24	1077212	0	0	0	0	0	0	0	0	0	0	0	0	0	0	0	0	0
101612	07:59:24	10002	Trial3BackFr	NN	4	0	1000	1	118	07:59:24	1079304	0	0	0	0	0	0	0	0	0	0	0	0	0	0	0	0	0
101612	07:59:24	10002	Trial3BackFr	NN	4	0	1000	1	118	07:59:24	1080810	0	0	0	0	0	0	0	0	0	0	0	0	0	0	0	0	0
101612	07:59:24	10002	Trial3BackFr	NN	4	0	1000	1	118	07:59:24	1082316	0	0	0	0	0	0	0	0	0	0	0	0	0	0	0	0	0
101612	07:59:24	10002	Trial3BackFr	NN	4	0	1000	1	118	07:59:24	1083822	0	0	0	0	0	0	0	0	0	0	0	0	0	0	0	0	0
101612	07:59:24	10002	Trial3BackFr	NN	4	0	1000	1	118	07:59:24	1085328	0	0	0	0	0	0	0	0	0	0	0	0	0	0	0	0	0
101612	07:59:24	10002	Trial3BackFr	NN	4	0	1000	1	118	07:59:24	1086834	0	0	0	0	0	0	0	0	0	0	0	0	0	0	0	0	0
101612	07:59:24	10002	Trial3BackFr	NN	4	0	1000	1	118	07:59:24	1088340	0	0	0	0	0	0	0	0	0	0	0	0	0	0	0	0	0
101612	07:59:24	10002	Trial3BackFr	YY	4	57	673	1	118	07:59:24	1089527	0	0	0	0	0	0	0	0	0	0	0	0	0	0	0	0	0
101612	07:59:24	10002	Trial3BackFr	NN	4	0	1000	1	118	07:59:24	1091352	0	0	0	0	0	0	0	0	0	0	0	0	0	0	0	0	0
101612	07:59:24	10002	Trial3BackFr	NN	4	0	1000	1	118	07:59:24	1092859	0	0	0	0	0	0	0	0	0	0	0	0	0	0	0	0	0
101612	07:59:24	10002	Trial3BackFr	NN	4	0	1000	1	118	07:59:24	1094365	0	0	0	0	0	0	0	0	0	0	0	0	0	0	0	0	0
101612	07:59:24	10002	Trial3BackFr	NN	4	0	1000	1	118	07:59:24	1095871	0	0	0	0	0	0	0	0	0	0	0	0	0	0	0	0	0
101612	07:59:24	10002	Trial3BackFr	NN	4	0	1000	1	118	07:59:24	1097377	0	0	0	0	0	0	0	0	0	0	0	0	0	0	0	0	0
101612	07:59:24	10002	Trial3BackFr	YY	4	57	404	1	118	07:59:24	1098297	0	0	0	0	0	0	0	0	0	0	0	0	0	0	0	0	0
101612	07:59:24	10002	Trial3BackFr	NN	4	0	1000	1	118	07:59:24	1100389	0	0	0	0	0	0	0	0	0	0	0	0	0	0	0	0	0
101612	07:59:24	10002	Trial3BackFr	NN	4	0	1000	1	118	07:59:24	1101895	0	0	0	0	0	0	0	0	0	0	0	0	0	0	0	0	0
101612	07:59:24	10002	Trial3BackFr	NN	4	0	1000	1	118	07:59:24	1103401	0	0	0	0	0	0	0	0	0	0	0	0	0	0	0	0	0
101612	07:59:24	10002	Trial3BackFr	YY	4	57	940	1	118	07:59:24	1104854	0	0	0	0	0	0	0	0	0	0	0	0	0	0	0	0	0
101612	07:59:24	10002	Trial3BackFr	NN	4	0	1000	1	118	07:59:24	1106413	0	0	0	0	0	0	0	0	0	0	0	0	0	0	0	0	0
101612	07:59:24	10002	Trial3BackFr	NN	4	0	1000	1	118	07:59:24	1107919	0	0	0	0	0	0	0	0	0	0	0	0	0	0	0	0	0
101612	07:59:24	10002	Trial3BackFr	NN	4	0	1000	1	118	07:59:24	1109425	0	0	0	0	0	0	0	0	0	0	0	0	0	0	0	0	0
101612	07:59:24	10002	Trial3BackFr	YY	4	57	932	1	118	07:59:24	1110865	0	0	0	0	0	0	0	0	0	0	0	0	0	0	0	0	0
101612	07:59:24	10002	Trial3BackFr	NN	4	0	1000	1	118	07:59:24	1112437	0	0	0	0	0	0	0	0	0	0	0	0	0	0	0	0	0
101612	07:59:24	10002	Trial3BackFr	NN	4	0	1000	1	118	07:59:24	1113943	0	0	0	0	0	0	0	0	0	0	0	0	0	0	0	0	0
101612	07:59:24	10002	Trial3BackFr	NN	4	0	1000	1	118	07:59:24	1115490	0	0	0	0	0	0	0	0	0	0	0	0	0	0	0	0	0
101612	07:59:24	10002	Trial3BackFr	NN	4	0	1000	1	118	07:59:24	1117009	0	0	0	0	0	0	0	0	0	0	0	0	0	0	0	0	0
101612	07:59:24	10002	Trial3BackFr	NN	4	0	1000	1	118	07:59:24	1118515	0	0	0	0	0	0	0	0	0	0	0	0	0	0	0	0	0
101612	07:59:24	10002	Trial3BackFr	NN	4	0	1000	1	118	07:59:24	1120021	0	0	0	0	0	0	0	0	0	0	0	0	0	0	0	0	0
101612	07:59:24	10002	Trial3BackFr	NN	4	0	1000	1	118	07:59:24	1121527	0	0	0	0	0	0	0	0	0	0	0	0	0	0	0	0	0
101612	07:59:24	10002	Trial3BackFr	NN	4	0	1000	1	118	07:59:24	1123033	0	0	0	0	0	0	0	0	0	0	0	0	0	0	0	0	0
101612	07:59:24	10002	Trial3BackFr	NN	4	0	1000	1	118	07:59:24	1124539	0	0	0	0	0	0	0	0	0	0	0	0	0	0	0	0	0
101612	07:59:24	10002	Trial3BackFr	NN	4	0	1000	1	118	07:59:24	1126045	0	0	0	0	0	0	0	0	0	0	0	0	0	0	0	0	0
101612	07:59:24	10002	Trial3BackFr	YY	4	57	695	1	118	07:59:24	1127258	0	0	0	0	0	0	0	0	0	0	0	0	0	0	0	0	0
101612	07:59:24	10002	Trial3BackFr	NN	4	0	1000	1	118	07:59:24	1129057	0	0	0	0	0	0	0	0	0	0	0	0	0	0	0	0	0
101612	07:59:24	10002	Trial3BackFr	NN	4	0	1000	1	118	07:59:24	1130563	0	0	0	0	0	0	0	0	0	0	0	0	0	0	0	0	0
101612	07:59:24	10002	Trial3BackFr	NN	4	0	1000	1	118	07:59:24	1132069	0	0	0	0	0	0	0	0	0	0	0	0	0	0	0	0	0
101612	07:59:24	10002	Trial3BackFr	NN	4	0	1000	1	118	07:59:24	1133575	0	0	0	0	0	0	0	0	0	0	0	0	0	0	0	0	0
101612	07:59:24	10002	Trial3BackFr	YY	4	57	893	1	118	07:59:24	1134988	0	0	0	0	0	0	0	0	0	0	0	0	0	0	0	0	0
101612	07:59:24	10002	Trial3BackFr	NN	4	0	1000	1	118	07:59:24	1136588	0	0	0	0	0	0	0	0	0	0	0	0	0	0	0	0	0
101612	07:59:24	10002	Trial3BackFr	NN	4	0	1000	1	118	07:59:24	1138094	0	0	0	0	0	0	0	0	0	0	0	0	0	0	0	0	0
101612	07:59:24	10002	Trial3BackFr	NN	4	0	1000	1	118	07:59:24	1139600	0	0	0	0	0	0	0	0	0	0	0	0	0	0	0	0	0
101612	07:59:24	10002	Trial3BackFr	NN	4	0	1000	1	118	07:59:24	1141119	0	0	0	0	0	0	0	0	0	0	0	0	0	0	0	0	0
101612	07:59:24	10002	Trial3BackFr	NN	4	0	1000	1	118	07:59:24	1142625	0	0	0	0	0	0	0	0	0	0	0	0	0	0	0	0	0
101612	07:59:24	10002	Trial3BackFr	YY	4	57	755	1	118	07:59:24	1143892	0	0	0	0	0	0	0	0	0	0	0	0	0	0	0	0	0
101612	07:59:24	10002	Trial3BackFr	NN	4	0	1000	1	118	07:59:24	1145637	0	0	0	0	0	0	0	0	0	0	0	0	0	0	0	0	0
101612	07:59:24	10002	Trial3BackFr	NN	4	0	1000	1	118	07:59:24	1147143	0	0	0	0	0	0	0	0	0	0	0	0	0	0	0	0	0
101612	07:59:24	10002	Trial3BackFr	NN	4	0	1000	1	118	07:59:24	1148649	0	0	0	0	0	0	0	0	0	0	0	0	0	0	0	0	0
101612	07:59:24	10002	Trial3BackFr	NN	4	0	1000	1	118	07:59:24	1150155	0	0	0	0	0	0	0	0	0	0	0	0	0	0	0	0	0
101612	07:59:24	10002	Trial3BackFr	NN	4	57	696	0	118	07:59:24	1151368	0	0	0	0	0	0	0	0	0	0	0	0	0	0	0	0	0
101612	07:59:24	10002	Trial3BackFr	NN	4	0	1000	1	118	07:59:24	1153167	0	0	0	0	0	0	0	0	0	0	0	0	0	0	0	0	0
101612	07:59:24	10002	Trial3BackFr	YY	4	0	1000	0	118	07:59:24	1154674	0	0	0	0	0	0	0	0	0	0	0	0	0	0	0	0	0
101612	07:59:24	10002	Trial3BackFr	NN	4	0	1000	1	118	07:59:24	1156180	0	0	0	0	0	0	0	0	0	0	0	0	0	0	0	0	0
101612	07:59:24	10002	Trial3BackFr	NN	4	0	1000	1	118	07:59:24	1157686	0	0	0	0	0	0	0	0	0	0	0	0	0	0	0	0	0
101612	07:59:24	10002	Trial3BackFr	NN	4	0	1000	1	118	07:59:24	1159192	0	0	0	0	0	0	0	0	0	0	0	0	0	0	0	0	0
101612	07:59:24	10002	Trial3BackFr	YY	4	0	1000	0	118	07:59:24	1160698	0	0	0	0	0	0	0	0	0	0	0	0	0	0	0	0	0
101612	07:59:24	10002	Trial3BackFr	NN	4	0	1000	1	118	07:59:24	1162204	0	0	0	0	0	0	0	0	0	0	0	0	0	0	0	0	0
101612	07:59:24	10002	Trial3BackFr	NN	4	0	1000	1	118	07:59:24	1163710	0	0	0	0	0	0	0	0	0	0	0	0	0	0	0	0	0
101612	07:59:24	10002	Trial3BackFr	NN	4	0	1000	1	118	07:59:24	1165216	0	0	0	0	0	0	0	0	0	0	0	0	0	0	0	0	0
101612	07:59:24	10002	Trial3BackFr	NN	4	0	1000	1	118	07:59:24	1166722	0	0	0	0	0	0	0	0	0	0	0	0	0	0	0	0	0
101612	07:59:24	10002	Trial3BackFr	NN	4	0	1000	1	118	07:59:24	1168228	0	0	0	0	0	0	0	0	0	0	0	0	0	0	0	0	0
101612	07:59:24	10002	Trial3BackFr	NN	4	0	1000	1	118	07:59:24	1169734	0	0	0	0	0	0	0	0	0	0	0	0	0	0	0	0	0
101612	07:59:24	10002	Trial3BackFr	NN	4	0	1000	1	118	07:59:24	1171254	0	0	0	0	0	0	0	0	0	0	0	0	0	0	0	0	0
101612	07:59:24	10002	Trial3BackFr	NN	4	0	1000	1	118	07:59:24	1172773	0	0	0	0	0	0	0	0	0	0	0	0	0	0	0	0	0
101612	07:59:24	10002	Trial3BackFr	NN	4	0	1000	1	118	07:59:24	1174279	0	0	0	0	0	0	0	0	0	0	0	0	0	0	0	0	0
101612	07:59:24	10002	Trial3BackFr	YY	4	0	1000	0	118	07:59:24	1175785	0	0	0	0	0	0	0	0	0	0	0	0	0	0	0	0	0
101612	07:59:24	10002	Trial3BackFr	NN	4	0	1000	1	118	07:59:24	1177291	0	0	0	0	0	0	0	0	0	0	0	0	0	0	0	0	0
101612	07:59:24	10002	Trial3BackFr	NN	4	0	1000	1	118	07:59:24	1178797	0	0	0	0	0	0	0	0	0	0	0	0	0	0	0	0	0
101612	07:59:24	10002	Trial3BackFr	NN	4	0	1000	1	118	07:59:24	1180303	0	0	0	0	0	0	0	0	0	0	0	0	0	0	0	0	0
101612	07:59:24	10002	Trial3BackFr	YY	4	57	852	1	118	07:59:24	1181676	0	0	0	0	0	0	0	0	0	0	0	0	0	0	0	0	0
101612	07:59:24	10002	Trial3BackFr	NN	4	0	1000	1	118	07:59:24	1183315	0	0	0	0	0	0	0	0	0	0	0	0	0	0	0	0	0
101612	07:59:24	10002	Trial3BackFr	NN	4	0	1000	1	118	07:59:24	1184821	0	0	0	0	0	0	0	0	0	0	0	0	0	0	0	0	0
101612	07:59:24	10002	Trial3BackFr	NN	4	0	1000	1	118	07:59:24	1186327	0	0	0	0	0	0	0	0	0	0	0	0	0	0	0	0	0
101612	07:59:24	10002	Trial3BackFr	NN	4	0	1000	1	118	07:59:24	1187833	0	0	0	0	0	0	0	0	0	0	0	0	0	0	0	0	0
101612	07:59:24	10002	Trial3BackFr	NN	4	0	1000	1	118	07:59:24	1189366	0	0	0	0	0	0	0	0	0	0	0	0	0	0	0	0	0
101612	07:59:24	10002	Trial3BackFr	YY	4	0	1000	0	118	07:59:24	1190872	0	0	0	0	0	0	0	0	0	0	0	0	0	0	0	0	0
101612	07:59:24	10002	Trial3BackFr	NN	4	0	1000	1	118	07:59:24	1192378	0	0	0	0	0	0	0	0	0	0	0	0	0	0	0	0	0
101612	07:59:24	10002	Trial3BackFr	NN	4	0	1000	1	118	07:59:24	1193885	0	0	0	0	0	0	0	0	0	0	0	0	0	0	0	0	0
101612	07:59:24	10002	Trial3BackFr	NN	4	0	1000	1	118	07:59:24	1195390	0	0	0	0	0	0	0	0	0	0	0	0	0	0	0	0	0
101612	07:59:24	10002	Trial3BackFr	NN	4	0	1000	1	118	07:59:24	1196896	0	0	0	0	0	0	0	0	0	0	0	0	0	0	0	0	0
101612	07:59:24	10002	Trial3BackFr	NN	4	0	1000	1	118	07:59:24	1198402	0	0	0	0	0	0	0	0	0	0	0	0	0	0	0	0	0
101612	07:59:24	10002	Trial3BackFr	NN	4	0	1000	1	118	07:59:24	1199909	0	0	0	0	0	0	0	0	0	0	0	0	0	0	0	0	0
101612	07:59:24	10002	Trial3BackFr	NN	4	0	1000	1	118	07:59:24	1201415	0	0	0	0	0	0	0	0	0	0	0	0	0	0	0	0	0
101612	07:59:24	10002	Trial3BackFr	NN	4	0	1000	1	118	07:59:24	1202921	0	0	0	0	0	0	0	0	0	0	0	0	0	0	0	0	0
101612	07:59:24	10002	Trial3BackFr	NN	4	0	1000	1	118	07:59:24	1204427	0	0	0	0	0	0	0	0	0	0	0	0	0	0	0	0	0
101612	07:59:24	10002	Trial3BackFr	YY	4	0	1000	0	118	07:59:24	1205933	0	0	0	0	0	0	0	0	0	0	0	0	0	0	0	0	0
101612	07:59:24	10002	Trial3BackFr	NN	4	0	1000	1	118	07:59:24	1207439	0	0	0	0	0	0	0	0	0	0	0	0	0	0	0	0	0
101612	07:59:24	10002	Trial3BackFr	NN	4	0	1000	1	118	07:59:24	1208945	0	0	0	0	0	0	0	0	0	0	0	0	0	0	0	0	0
101612	07:59:24	10002	Trial3BackFr	NN	4	0	1000	1	118	07:59:24	1210451	0	0	0	0	0	0	0	0	0	0	0	0	0	0	0	0	0
101612	07:59:24	10002	Trial3BackFr	NN	4	0	1000	1	118	07:59:24	1211957	0	0	0	0	0	0	0	0	0	0	0	0	0	0	0	0	0
101612	07:59:24	10002	Trial3BackFr	NN	4	0	1000	1	118	07:59:24	1213463	0	0	0	0	0	0	0	0	0	0	0	0	0	0	0	0	0
101612	07:59:24	10002	Trial3BackFr	NN	4	0	1000	1	118	07:59:24	1214969	0	0	0	0	0	0	0	0	0	0	0	0	0	0	0	0	0
101612	07:59:24	10002	Trial3BackFr	NN	4	0	1000	1	118	07:59:24	1216475	0	0	0	0	0	0	0	0	0	0	0	0	0	0	0	0	0
101612	07:59:24	10002	Trial3BackFr	NN	4	0	1000	1	118	07:59:24	1217981	0	0	0	0	0	0	0	0	0	0	0	0	0	0	0	0	0
101612	07:59:24	10002	Trial3BackFr	YY	4	57	773	1	118	07:59:24	1219274	0	0	0	0	0	0	0	0	0	0	0	0	0	0	0	0	0
101612	07:59:24	10002	Trial3BackFr	NN	4	0	1000	1	118	07:59:24	1220993	0	0	0	0	0	0	0	0	0	0	0	0	0	0	0	0	0
101612	07:59:24	10002	Trial3BackFr	NN	4	0	1000	1	118	07:59:24	1222499	0	0	0	0	0	0	0	0	0	0	0	0	0	0	0	0	0
101612	07:59:24	10002	Trial3BackFr	NN	4	0	1000	1	118	07:59:24	1224005	0	0	0	0	0	0	0	0	0	0	0	0	0	0	0	0	0
101612	07:59:24	10002	Trial3BackFr	NN	4	0	1000	1	118	07:59:24	1225511	0	0	0	0	0	0	0	0	0	0	0	0	0	0	0	0	0
101612	07:59:24	10002	Trial3BackFr	YY	4	57	987	1	118	07:59:24	1227017	0	0	0	0	0	0	0	0	0	0	0	0	0	0	0	0	0
101612	07:59:24	10002	Trial3BackFr	NN	4	0	1000	1	118	07:59:24	1228524	0	0	0	0	0	0	0	0	0	0	0	0	0	0	0	0	0
101612	07:59:24	10002	Trial3BackFr	NN	4	0	1000	1	118	07:59:24	1230030	0	0	0	0	0	0	0	0	0	0	0	0	0	0	0	0	0
101612	07:59:24	10002	Trial3BackFr	NN	4	0	1000	1	118	07:59:24	1231536	0	0	0	0	0	0	0	0	0	0	0	0	0	0	0	0	0
101612	07:59:24	10002	Trial3BackFr	YY	4	0	1000	0	118	07:59:24	1233042	0	0	0	0	0	0	0	0	0	0	0	0	0	0	0	0	0
101612	07:59:24	10002	Trial3BackFr	NN	4	0	1000	1	118	07:59:24	1234562	0	0	0	0	0	0	0	0	0	0	0	0	0	0	0	0	0
101612	07:59:24	10002	Trial3BackFr	NN	4	57	817	0	118	07:59:24	1235894	0	0	0	0	0	0	0	0	0	0	0	0	0	0	0	0	0
101612	07:59:24	10002	Trial3BackFr	NN	4	0	1000	1	118	07:59:24	1237573	0	0	0	0	0	0	0	0	0	0	0	0	0	0	0	0	0
101612	07:59:24	10002	Trial3BackFr	NN	4	0	1000	1	118	07:59:24	1239079	0	0	0	0	0	0	0	0	0	0	0	0	0	0	0	0	0
101612	07:59:24	10002	Trial3BackFr	NN	4	0	1000	1	118	07:59:24	1240585	0	0	0	0	0	0	0	0	0	0	0	0	0	0	0	0	0
101612	07:59:24	10002	Trial3BackFr	YY	4	0	1000	0	118	07:59:24	1242091	0	0	0	0	0	0	0	0	0	0	0	0	0	0	0	0	0
101612	07:59:24	10002	Trial3BackFr	NN	4	0	1000	1	118	07:59:24	1243597	0	0	0	0	0	0	0	0	0	0	0	0	0	0	0	0	0
101612	07:59:24	10002	Trial3BackFr	NN	4	0	1000	1	118	07:59:24	1245103	0	0	0	0	0	0	0	0	0	0	0	0	0	0	0	0	0
101612	07:59:24	10002	Trial3BackFr	NN	4	0	1000	1	118	07:59:24	1246623	0	0	0	0	0	0	0	0	0	0	0	0	0	0	0	0	0
101612	07:59:24	10002	Trial3BackFr	YY	4	57	771	1	118	07:59:24	1247903	0	0	0	0	0	0	0	0	0	0	0	0	0	0	0	0	0
101612	07:59:24	10002	Memory1R6moFr	ScoreFr	5	M1	16587	0	118	07:59:24	1292418	0	0	0	0	0	0	0	0	0	0	0	0	0	0	0	0	0
101612	07:59:24	10002	Memory1R6moFr	ScoreFr	5	M2	165	0	118	07:59:24	1292644	0	0	0	0	0	0	0	0	0	0	0	0	0	0	0	0	0
101612	07:59:24	10002	Memory1R6moFr	ScoreFr	5	M3	906	0	118	07:59:24	1293618	0	0	0	0	0	0	0	0	0	0	0	0	0	0	0	0	0
101612	07:59:24	10002	Memory1R6moFr	ScoreFr	5	M5	901	0	118	07:59:24	1294577	0	0	0	0	0	0	0	0	0	0	0	0	0	0	0	0	0
101612	07:59:24	10002	Memory1R6moFr	ScoreFr	5	M6	1614	0	118	07:59:24	1296257	0	0	0	0	0	0	0	0	0	0	0	0	0	0	0	0	0
101612	07:59:24	10002	Memory1R6moFr	ScoreFr	5	M7	206	0	118	07:59:24	1296523	0	0	0	0	0	0	0	0	0	0	0	0	0	0	0	0	0
101612	07:59:24	10002	Memory1R6moFr	ScoreFr	5	Done	26504	0	118	07:59:24	1323072	0	0	0	0	0	0	0	0	0	0	0	0	0	0	0	0	0
101612	07:59:24	10002	Memory2R6moFr	ScoreFr2	5	11	21359	0	118	07:59:24	1362896	0	0	0	0	0	0	0	0	0	0	0	0	0	0	0	0	0
101612	07:59:24	10002	Memory2R6moFr	ScoreFr2	5	22	523	0	118	07:59:24	1363469	0	0	0	0	0	0	0	0	0	0	0	0	0	0	0	0	0
101612	07:59:24	10002	Memory2R6moFr	ScoreFr2	5	33	285	0	118	07:59:24	1363802	0	0	0	0	0	0	0	0	0	0	0	0	0	0	0	0	0
101612	07:59:24	10002	Memory2R6moFr	ScoreFr2	5	44	264	0	118	07:59:24	1364122	0	0	0	0	0	0	0	0	0	0	0	0	0	0	0	0	0
101612	07:59:24	10002	Memory2R6moFr	ScoreFr2	5	55	281	0	118	07:59:24	1364455	0	0	0	0	0	0	0	0	0	0	0	0	0	0	0	0	0
101612	07:59:24	10002	Memory2R6moFr	ScoreFr2	5	66	331	0	118	07:59:24	1364842	0	0	0	0	0	0	0	0	0	0	0	0	0	0	0	0	0
101612	07:59:24	10002	Memory2R6moFr	ScoreFr2	5	88	457	0	118	07:59:24	1365348	0	0	0	0	0	0	0	0	0	0	0	0	0	0	0	0	0
101612	07:59:24	10002	Memory2R6moFr	ScoreFr2	5	77	36893	0	118	07:59:24	1402293	0	0	0	0	0	0	0	0	0	0	0	0	0	0	0	0	0
101612	07:59:24	10002	Memory2R6moFr	ScoreFr2	5	Done	676	0	118	07:59:24	1403013	0	0	0	0	0	0	0	0	0	0	0	0	0	0	0	0	0
101612	07:59:24	10002	Memory3R6moFr	ScoreFr3	5	111	17955	0	118	07:59:24	1441051	0	0	0	0	0	0	0	0	0	0	0	0	0	0	0	0	0
101612	07:59:24	10002	Memory3R6moFr	ScoreFr3	5	222	214	0	118	07:59:24	1441318	0	0	0	0	0	0	0	0	0	0	0	0	0	0	0	0	0
101612	07:59:24	10002	Memory3R6moFr	ScoreFr3	5	333	235	0	118	07:59:24	1441597	0	0	0	0	0	0	0	0	0	0	0	0	0	0	0	0	0
101612	07:59:24	10002	Memory3R6moFr	ScoreFr3	5	444	235	0	118	07:59:24	1441877	0	0	0	0	0	0	0	0	0	0	0	0	0	0	0	0	0
101612	07:59:24	10002	Memory3R6moFr	ScoreFr3	5	555	227	0	118	07:59:24	1442157	0	0	0	0	0	0	0	0	0	0	0	0	0	0	0	0	0
101612	07:59:24	10002	Memory3R6moFr	ScoreFr3	5	666	196	0	118	07:59:24	1442397	0	0	0	0	0	0	0	0	0	0	0	0	0	0	0	0	0
101612	07:59:24	10002	Memory3R6moFr	ScoreFr3	5	777	227	0	118	07:59:24	1442677	0	0	0	0	0	0	0	0	0	0	0	0	0	0	0	0	0
101612	07:59:24	10002	Memory3R6moFr	ScoreFr3	5	888	180	0	118	07:59:24	1442903	0	0	0	0	0	0	0	0	0	0	0	0	0	0	0	0	0
101612	07:59:24	10002	Memory3R6moFr	ScoreFr3	5	Done	306	0	118	07:59:24	1443263	0	0	0	0	0	0	0	0	0	0	0	0	0	0	0	0	0
101612	07:59:24	10002	LoriaFrLH3	Stop	6	11	4105	0	118	07:59:24	1536894	0	0	0	0	0	0	0	0	0	0	0	0	0	0	0	0	0
101612	07:59:24	10002	FrTrail	Trails	7	1Trails	936	0	118	07:59:24	1560376	0	0	0	0	0	0	0	0	0	0	0	0	0	0	0	0	0
101612	07:59:24	10002	Serial7Fr6mo	Serial7Fr6mo	8	73	5281	0	118	07:59:24	1642198	1	0	0	0	0	0	0	0	0	0	0	0	0	0	0	0	0
101612	07:59:24	10002	Serial7Fr6mo	Serial7Fr6mo	8	66	2809	0	118	07:59:24	1645024	2	0	0	0	0	0	0	0	0	0	0	0	0	0	0	0	0
101612	07:59:24	10002	Serial7Fr6mo	Serial7Fr6mo	8	59	2639	0	118	07:59:24	1647689	3	0	0	0	0	0	0	0	0	0	0	0	0	0	0	0	0
101612	07:59:24	10002	Serial7Fr6mo	Serial7Fr6mo	8	52	2489	0	118	07:59:24	1650195	4	0	0	0	0	0	0	0	0	0	0	0	0	0	0	0	0
101612	07:59:24	10002	Serial7Fr6mo	Serial7Fr6mo	8	45	2380	0	118	07:59:24	1652594	5	0	0	0	0	0	0	0	0	0	0	0	0	0	0	0	0
101612	07:59:24	10002	corsiblockFrFwrd	recallseqFrFwrd	9	3	3653	0	118	07:59:24	1683288	5	0	0	0	0	0	0	0	0	0	0	0	0	0	0	0	0
101612	07:59:24	10002	corsiblockFrFwrd	recallseqFrFwrd	9	9	1100	0	118	07:59:24	1684434	5	0	0	0	0	0	0	0	0	0	0	0	0	0	0	0	0
101612	07:59:24	10002	corsiblockFrFwrd	recallseqFrFwrd	9	doneCorsiFr	1394	0	118	07:59:24	1685874	5	0	0	0	0	0	0	0	0	0	0	0	0	0	0	2	0
101612	07:59:24	10002	corsiblockFrFwrd	recallseqFrFwrd	9	1	1157	0	118	07:59:24	1693164	5	0	0	0	0	0	0	0	0	0	0	0	0	0	0	2	0
101612	07:59:24	10002	corsiblockFrFwrd	recallseqFrFwrd	9	4	616	0	118	07:59:24	1693831	5	0	0	0	0	0	0	0	0	0	0	0	0	0	0	2	0
101612	07:59:24	10002	corsiblockFrFwrd	recallseqFrFwrd	9	6	366	0	118	07:59:24	1694244	5	0	0	0	0	0	0	0	0	0	0	0	0	0	0	2	0
101612	07:59:24	10002	corsiblockFrFwrd	recallseqFrFwrd	9	doneCorsiFr	817	0	118	07:59:24	1695110	5	0	0	0	0	0	0	0	0	0	0	0	0	0	0	3	0
101612	07:59:24	10002	corsiblockFrFwrd	recallseqFrFwrd	9	8	763	0	118	07:59:24	1703013	5	0	0	0	0	0	0	0	0	0	0	0	0	0	0	3	0
101612	07:59:24	10002	corsiblockFrFwrd	recallseqFrFwrd	9	2	502	0	118	07:59:24	1703560	5	0	0	0	0	0	0	0	0	0	0	0	0	0	0	3	0
101612	07:59:24	10002	corsiblockFrFwrd	recallseqFrFwrd	9	7	460	0	118	07:59:24	1704067	5	0	0	0	0	0	0	0	0	0	0	0	0	0	0	3	0
101612	07:59:24	10002	corsiblockFrFwrd	recallseqFrFwrd	9	5	666	0	118	07:59:24	1704786	5	0	0	0	0	0	0	0	0	0	0	0	0	0	0	3	0
101612	07:59:24	10002	corsiblockFrFwrd	recallseqFrFwrd	9	doneCorsiFr	586	0	118	07:59:24	1705426	5	0	0	0	0	0	0	0	0	0	0	0	0	0	0	4	0
101612	07:59:24	10002	corsiblockFrFwrd	recallseqFrFwrd	9	7	1421	0	118	07:59:24	1714969	5	0	0	0	0	0	0	0	0	0	0	0	0	0	0	4	0
101612	07:59:24	10002	corsiblockFrFwrd	recallseqFrFwrd	9	8	835	0	118	07:59:24	1715848	5	0	0	0	0	0	0	0	0	0	0	0	0	0	0	4	0
101612	07:59:24	10002	corsiblockFrFwrd	recallseqFrFwrd	9	4	1819	0	118	07:59:24	1717714	5	0	0	0	0	0	0	0	0	0	0	0	0	0	0	4	0
101612	07:59:24	10002	corsiblockFrFwrd	recallseqFrFwrd	9	2	401	0	118	07:59:24	1718168	5	0	0	0	0	0	0	0	0	0	0	0	0	0	0	4	0
101612	07:59:24	10002	corsiblockFrFwrd	recallseqFrFwrd	9	3	788	0	118	07:59:24	1719007	5	0	0	0	0	0	0	0	0	0	0	0	0	0	0	4	0
101612	07:59:24	10002	corsiblockFrFwrd	recallseqFrFwrd	9	doneCorsiFr	1381	0	118	07:59:24	1720433	5	0	0	0	0	0	0	0	0	0	0	0	0	0	0	5	0
101612	07:59:24	10002	corsiblockFrFwrd	recallseqFrFwrd	9	9	1083	0	118	07:59:24	1730629	5	0	0	0	0	0	0	0	0	0	0	0	0	0	0	5	0
101612	07:59:24	10002	corsiblockFrFwrd	recallseqFrFwrd	9	1	830	0	118	07:59:24	1731509	5	0	0	0	0	0	0	0	0	0	0	0	0	0	0	5	0
101612	07:59:24	10002	corsiblockFrFwrd	recallseqFrFwrd	9	6	1063	0	118	07:59:24	1732628	5	0	0	0	0	0	0	0	0	0	0	0	0	0	0	5	0
101612	07:59:24	10002	corsiblockFrFwrd	recallseqFrFwrd	9	5	887	0	118	07:59:24	1733561	5	0	0	0	0	0	0	0	0	0	0	0	0	0	0	5	0
101612	07:59:24	10002	corsiblockFrFwrd	recallseqFrFwrd	9	4	426	0	118	07:59:24	1734041	5	0	0	0	0	0	0	0	0	0	0	0	0	0	0	5	0
101612	07:59:24	10002	corsiblockFrFwrd	recallseqFrFwrd	9	8	698	0	118	07:59:24	1734787	5	0	0	0	0	0	0	0	0	0	0	0	0	0	0	5	0
101612	07:59:24	10002	corsiblockFrFwrd	recallseqFrFwrd	9	doneCorsiFr	896	0	118	07:59:24	1735734	5	0	0	0	0	0	0	0	0	0	0	0	0	0	0	6	0
101612	07:59:24	10002	corsiblockFrFwrd	recallseqFrFwrd	9	3	1761	0	118	07:59:24	1747622	5	0	0	0	0	0	0	0	0	0	0	0	0	0	0	6	0
101612	07:59:24	10002	corsiblockFrFwrd	recallseqFrFwrd	9	1	629	0	118	07:59:24	1748302	5	0	0	0	0	0	0	0	0	0	0	0	0	0	0	6	0
101612	07:59:24	10002	corsiblockFrFwrd	recallseqFrFwrd	9	5	869	0	118	07:59:24	1749221	5	0	0	0	0	0	0	0	0	0	0	0	0	0	0	6	0
101612	07:59:24	10002	corsiblockFrFwrd	recallseqFrFwrd	9	9	1462	0	118	07:59:24	1750728	5	0	0	0	0	0	0	0	0	0	0	0	0	0	0	6	0
101612	07:59:24	10002	corsiblockFrFwrd	recallseqFrFwrd	9	7	539	0	118	07:59:24	1751314	5	0	0	0	0	0	0	0	0	0	0	0	0	0	0	6	0
101612	07:59:24	10002	corsiblockFrFwrd	recallseqFrFwrd	9	6	849	0	118	07:59:24	1752207	5	0	0	0	0	0	0	0	0	0	0	0	0	0	0	6	0
101612	07:59:24	10002	corsiblockFrFwrd	recallseqFrFwrd	9	2	524	0	118	07:59:24	1752780	5	0	0	0	0	0	0	0	0	0	0	0	0	0	0	6	0
101612	07:59:24	10002	corsiblockFrFwrd	recallseqFrFwrd	9	doneCorsiFr	735	0	118	07:59:24	1753567	5	0	0	0	0	0	0	0	0	0	0	0	0	0	0	6	0
101612	07:59:24	10002	corsiblockFrFwrd	recallseqFrFwrd	9	9	1144	0	118	07:59:24	1764802	5	0	0	0	0	0	0	0	0	0	0	0	0	0	0	6	0
101612	07:59:24	10002	corsiblockFrFwrd	recallseqFrFwrd	9	6	681	0	118	07:59:24	1765535	5	0	0	0	0	0	0	0	0	0	0	0	0	0	0	6	0
101612	07:59:24	10002	corsiblockFrFwrd	recallseqFrFwrd	9	5	402	0	118	07:59:24	1766015	5	0	0	0	0	0	0	0	0	0	0	0	0	0	0	6	0
101612	07:59:24	10002	corsiblockFrFwrd	recallseqFrFwrd	9	2	627	0	118	07:59:24	1766695	5	0	0	0	0	0	0	0	0	0	0	0	0	0	0	6	0
101612	07:59:24	10002	corsiblockFrFwrd	recallseqFrFwrd	9	1	652	0	118	07:59:24	1767401	5	0	0	0	0	0	0	0	0	0	0	0	0	0	0	6	0
101612	07:59:24	10002	corsiblockFrFwrd	recallseqFrFwrd	9	7	586	0	118	07:59:24	1768041	5	0	0	0	0	0	0	0	0	0	0	0	0	0	0	6	0
101612	07:59:24	10002	corsiblockFrFwrd	recallseqFrFwrd	9	3	714	0	118	07:59:24	1768800	5	0	0	0	0	0	0	0	0	0	0	0	0	0	0	6	0
101612	07:59:24	10002	corsiblockFrFwrd	recallseqFrFwrd	9	doneCorsiFr	1258	0	118	07:59:24	1770107	5	0	0	0	0	0	0	0	0	0	0	0	0	0	0	7	0
101612	07:59:24	10002	corsiblockFrFwrd	recallseqFrFwrd	9	8	716	0	118	07:59:24	1780942	5	0	0	0	0	0	0	0	0	0	0	0	0	0	0	7	0
101612	07:59:24	10002	corsiblockFrFwrd	recallseqFrFwrd	9	4	580	0	118	07:59:24	1781569	5	0	0	0	0	0	0	0	0	0	0	0	0	0	0	7	0
101612	07:59:24	10002	corsiblockFrFwrd	recallseqFrFwrd	9	6	586	0	118	07:59:24	1782208	5	0	0	0	0	0	0	0	0	0	0	0	0	0	0	7	0
101612	07:59:24	10002	corsiblockFrFwrd	recallseqFrFwrd	9	5	370	0	118	07:59:24	1782635	5	0	0	0	0	0	0	0	0	0	0	0	0	0	0	7	0
101612	07:59:24	10002	corsiblockFrFwrd	recallseqFrFwrd	9	4	2176	0	118	07:59:24	1784861	5	0	0	0	0	0	0	0	0	0	0	0	0	0	0	7	0
101612	07:59:24	10002	corsiblockFrFwrd	recallseqFrFwrd	9	8	437	0	118	07:59:24	1785354	5	0	0	0	0	0	0	0	0	0	0	0	0	0	0	7	0
101612	07:59:24	10002	corsiblockFrFwrd	recallseqFrFwrd	9	9	1649	0	118	07:59:24	1787046	5	0	0	0	0	0	0	0	0	0	0	0	0	0	0	7	0
101612	07:59:24	10002	corsiblockFrFwrd	recallseqFrFwrd	9	2	420	0	118	07:59:24	1787513	5	0	0	0	0	0	0	0	0	0	0	0	0	0	0	7	0
101612	07:59:24	10002	corsiblockFrFwrd	recallseqFrFwrd	9	doneCorsiFr	666	0	118	07:59:24	1788233	5	0	0	0	0	0	0	0	0	0	0	0	0	0	0	7	0
101612	07:59:24	10002	corsiblockFrFwrd	recallseqFrFwrd	9	1	6582	0	118	07:59:24	1805905	5	0	0	0	0	0	0	0	0	0	0	0	0	0	0	7	0
101612	07:59:24	10002	corsiblockFrFwrd	recallseqFrFwrd	9	3	544	0	118	07:59:24	1806505	5	0	0	0	0	0	0	0	0	0	0	0	0	0	0	7	0
101612	07:59:24	10002	corsiblockFrFwrd	recallseqFrFwrd	9	4	497	0	118	07:59:24	1807052	5	0	0	0	0	0	0	0	0	0	0	0	0	0	0	7	0
101612	07:59:24	10002	corsiblockFrFwrd	recallseqFrFwrd	9	5	430	0	118	07:59:24	1807532	5	0	0	0	0	0	0	0	0	0	0	0	0	0	0	7	0
101612	07:59:24	10002	corsiblockFrFwrd	recallseqFrFwrd	9	2	1022	0	118	07:59:24	1808598	5	0	0	0	0	0	0	0	0	0	0	0	0	0	0	7	0
101612	07:59:24	10002	corsiblockFrFwrd	recallseqFrFwrd	9	6	724	0	118	07:59:24	1809371	5	0	0	0	0	0	0	0	0	0	0	0	0	0	0	7	0
101612	07:59:24	10002	corsiblockFrFwrd	recallseqFrFwrd	9	1	655	0	118	07:59:24	1810077	5	0	0	0	0	0	0	0	0	0	0	0	0	0	0	7	0
101612	07:59:24	10002	corsiblockFrFwrd	recallseqFrFwrd	9	7	669	0	118	07:59:24	1810797	5	0	0	0	0	0	0	0	0	0	0	0	0	0	0	7	0
101612	07:59:24	10002	corsiblockFrFwrd	recallseqFrFwrd	9	doneCorsiFr	805	0	118	07:59:24	1811650	5	0	0	0	0	0	0	0	0	0	0	0	0	0	0	7	0
101612	07:59:24	10002	corsiblockFrRev	recallseqFrRev	10	4	522	0	118	07:59:24	1824445	5	0	0	0	0	0	0	0	0	0	0	0	0	0	0	7	0
101612	07:59:24	10002	corsiblockFrRev	recallseqFrRev	10	5	429	0	118	07:59:24	1824925	5	0	0	0	0	0	0	0	0	0	0	0	0	0	0	7	0
101612	07:59:24	10002	corsiblockFrRev	recallseqFrRev	10	doneCorsiFr	781	0	118	07:59:24	1825751	5	0	0	0	0	0	0	0	0	0	0	0	0	0	0	7	2
101612	07:59:24	10002	corsiblockFrRev	recallseqFrRev	10	7	564	0	118	07:59:24	1832441	5	0	0	0	0	0	0	0	0	0	0	0	0	0	0	7	2
101612	07:59:24	10002	corsiblockFrRev	recallseqFrRev	10	6	728	0	118	07:59:24	1833214	5	0	0	0	0	0	0	0	0	0	0	0	0	0	0	7	2
101612	07:59:24	10002	corsiblockFrRev	recallseqFrRev	10	8	571	0	118	07:59:24	1833841	5	0	0	0	0	0	0	0	0	0	0	0	0	0	0	7	2
101612	07:59:24	10002	corsiblockFrRev	recallseqFrRev	10	doneCorsiFr	568	0	118	07:59:24	1834454	5	0	0	0	0	0	0	0	0	0	0	0	0	0	0	7	3
101612	07:59:24	10002	corsiblockFrRev	recallseqFrRev	10	2	630	0	118	07:59:24	1842211	5	0	0	0	0	0	0	0	0	0	0	0	0	0	0	7	3
101612	07:59:24	10002	corsiblockFrRev	recallseqFrRev	10	9	550	0	118	07:59:24	1842810	5	0	0	0	0	0	0	0	0	0	0	0	0	0	0	7	3
101612	07:59:24	10002	corsiblockFrRev	recallseqFrRev	10	3	694	0	118	07:59:24	1843557	5	0	0	0	0	0	0	0	0	0	0	0	0	0	0	7	3
101612	07:59:24	10002	corsiblockFrRev	recallseqFrRev	10	1	492	0	118	07:59:24	1844103	5	0	0	0	0	0	0	0	0	0	0	0	0	0	0	7	3
101612	07:59:24	10002	corsiblockFrRev	recallseqFrRev	10	doneCorsiFr	1058	0	118	07:59:24	1845210	5	0	0	0	0	0	0	0	0	0	0	0	0	0	0	7	4
101612	07:59:24	10002	corsiblockFrRev	recallseqFrRev	10	5	1410	0	118	07:59:24	1854752	5	0	0	0	0	0	0	0	0	0	0	0	0	0	0	7	4
101612	07:59:24	10002	corsiblockFrRev	recallseqFrRev	10	9	680	0	118	07:59:24	1855485	5	0	0	0	0	0	0	0	0	0	0	0	0	0	0	7	4
101612	07:59:24	10002	corsiblockFrRev	recallseqFrRev	10	2	651	0	118	07:59:24	1856192	5	0	0	0	0	0	0	0	0	0	0	0	0	0	0	7	4
101612	07:59:24	10002	corsiblockFrRev	recallseqFrRev	10	6	1281	0	118	07:59:24	1857525	5	0	0	0	0	0	0	0	0	0	0	0	0	0	0	7	4
101612	07:59:24	10002	corsiblockFrRev	recallseqFrRev	10	8	1300	0	118	07:59:24	1858871	5	0	0	0	0	0	0	0	0	0	0	0	0	0	0	7	4
101612	07:59:24	10002	corsiblockFrRev	recallseqFrRev	10	doneCorsiFr	810	0	118	07:59:24	1859737	5	0	0	0	0	0	0	0	0	0	0	0	0	0	0	7	5
101612	07:59:24	10002	corsiblockFrRev	recallseqFrRev	10	2	635	0	118	07:59:24	1869493	5	0	0	0	0	0	0	0	0	0	0	0	0	0	0	7	5
101612	07:59:24	10002	corsiblockFrRev	recallseqFrRev	10	1	747	0	118	07:59:24	1870293	5	0	0	0	0	0	0	0	0	0	0	0	0	0	0	7	5
101612	07:59:24	10002	corsiblockFrRev	recallseqFrRev	10	3	532	0	118	07:59:24	1870879	5	0	0	0	0	0	0	0	0	0	0	0	0	0	0	7	5
101612	07:59:24	10002	corsiblockFrRev	recallseqFrRev	10	4	817	0	118	07:59:24	1871745	5	0	0	0	0	0	0	0	0	0	0	0	0	0	0	7	5
101612	07:59:24	10002	corsiblockFrRev	recallseqFrRev	10	7	575	0	118	07:59:24	1872372	5	0	0	0	0	0	0	0	0	0	0	0	0	0	0	7	5
101612	07:59:24	10002	corsiblockFrRev	recallseqFrRev	10	1	2420	0	118	07:59:24	1874838	5	0	0	0	0	0	0	0	0	0	0	0	0	0	0	7	5
101612	07:59:24	10002	corsiblockFrRev	recallseqFrRev	10	doneCorsiFr	1051	0	118	07:59:24	1875944	5	0	0	0	0	0	0	0	0	0	0	0	0	0	0	7	5
101612	07:59:24	10002	corsiblockFrRev	recallseqFrRev	10	9	1140	0	118	07:59:24	1886166	5	0	0	0	0	0	0	0	0	0	0	0	0	0	0	7	5
101612	07:59:24	10002	corsiblockFrRev	recallseqFrRev	10	7	418	0	118	07:59:24	1886633	5	0	0	0	0	0	0	0	0	0	0	0	0	0	0	7	5
101612	07:59:24	10002	corsiblockFrRev	recallseqFrRev	10	8	607	0	118	07:59:24	1887286	5	0	0	0	0	0	0	0	0	0	0	0	0	0	0	7	5
101612	07:59:24	10002	corsiblockFrRev	recallseqFrRev	10	4	842	0	118	07:59:24	1888179	5	0	0	0	0	0	0	0	0	0	0	0	0	0	0	7	5
101612	07:59:24	10002	corsiblockFrRev	recallseqFrRev	10	6	677	0	118	07:59:24	1888912	5	0	0	0	0	0	0	0	0	0	0	0	0	0	0	7	5
101612	07:59:24	10002	corsiblockFrRev	recallseqFrRev	10	3	723	0	118	07:59:24	1889686	5	0	0	0	0	0	0	0	0	0	0	0	0	0	0	7	5
101612	07:59:24	10002	corsiblockFrRev	recallseqFrRev	10	doneCorsiFr	1014	0	118	07:59:24	1890764	5	0	0	0	0	0	0	0	0	0	0	0	0	0	0	7	5
101612	07:59:24	10002	testFr6mo	WordsFr6mo	11	1Fr6mo	15281	0	118	07:59:24	1922285	5	3	0	0	0	0	0	0	0	0	0	0	0	0	0	7	5
101612	07:59:24	10002	testFr6mo	WordsFr6mo	11	2Fr6mo	266	0	118	07:59:24	1922605	5	3	3	0	0	0	0	0	0	0	0	0	0	0	0	7	5
101612	07:59:24	10002	testFr6mo	WordsFr6mo	11	3Fr6mo	290	0	118	07:59:24	1922952	5	3	3	3	0	0	0	0	0	0	0	0	0	0	0	7	5
101612	07:59:24	10002	testFr6mo	WordsFr6mo	11	4Fr6mo	351	0	118	07:59:24	1923351	5	3	3	3	3	0	0	0	0	0	0	0	0	0	0	7	5
101612	07:59:24	10002	testFr6mo	WordsFr6mo	11	5Fr6mo	328	0	118	07:59:24	1923725	5	3	3	3	3	3	0	0	0	0	0	0	0	0	0	7	5
101612	07:59:24	10002	testFr6mo	WordsFr6mo	11	6Fr6mo	301	0	118	07:59:24	1924084	5	3	3	3	3	3	3	0	0	0	0	0	0	0	0	7	5
101612	07:59:24	10002	testFr6mo	WordsFr6mo	11	7Fr6mo	283	0	118	07:59:24	1924418	5	3	3	3	3	3	3	3	0	0	0	0	0	0	0	7	5
101612	07:59:24	10002	testFr6mo	WordsFr6mo	11	8Fr6mo	23101	0	118	07:59:24	1947568	5	3	3	3	3	3	3	3	3	0	0	0	0	0	0	7	5
101612	07:59:24	10002	testFr6mo	WordsFr6mo	11	DoneFr6mo	559	0	118	07:59:24	1948181	5	3	3	3	3	3	3	3	3	0	0	0	0	0	0	7	5
101612	07:59:24	10002	DigitSpanFwrdFr6mo	Score1FwrdFr6mo	12	DS1	3059	0	118	07:59:24	1967253	5	3	3	3	3	3	3	3	3	0	0	0	0	0	0	7	5
101612	07:59:24	10002	DigitSpanFwrdFr6mo	Gate1FwrdFr6mo	12	0	1	0	118	07:59:24	1967258	5	3	3	3	3	3	3	3	3	3	0	0	0	0	0	7	5
101612	07:59:24	10002	DigitSpanFwrdFr6mo	Score2FwrdFr6mo	12	DS1	3418	0	118	07:59:24	1976982	5	3	3	3	3	3	3	3	3	3	0	0	0	0	0	7	5
101612	07:59:24	10002	DigitSpanFwrdFr6mo	Gate3FwrdFr6mo	12	0	1	0	118	07:59:24	1976987	5	3	3	3	3	3	3	3	3	4	0	0	0	0	0	7	5
101612	07:59:24	10002	DigitSpanFwrdFr6mo	Score3FwrdFr6mo	12	DS1	4961	0	118	07:59:24	1989178	5	3	3	3	3	3	3	3	3	4	0	0	0	0	0	7	5
101612	07:59:24	10002	DigitSpanFwrdFr6mo	Gate5FwrdFr6mo	12	0	1	0	118	07:59:24	1989183	5	3	3	3	3	3	3	3	3	5	0	0	0	0	0	7	5
101612	07:59:24	10002	DigitSpanFwrdFr6mo	Score4FwrdFr6mo	12	DS2	13349	0	118	07:59:24	2011036	5	3	3	3	3	3	3	3	3	5	0	0	0	0	0	7	5
101612	07:59:24	10002	DigitSpanFwrdFr6mo	Gate7FwrdFr6mo	12	0	1	0	118	07:59:24	2011041	5	3	3	3	3	3	3	3	3	5	0	0	0	0	0	7	5
101612	07:59:24	10002	DigitSpanFwrdFr6mo	Score44FwrdFr6mo	12	DS2	19800	0	118	07:59:24	2039131	5	3	3	3	3	3	3	3	3	5	0	0	0	0	0	7	5
101612	07:59:24	10002	DigitSpanFr6mo	Score1Fr6mo	13	DS1	2692	0	118	07:59:24	2052859	5	3	3	3	3	3	3	3	3	5	0	0	0	0	0	7	5
101612	07:59:24	10002	DigitSpanFr6mo	Gate1Fr6mo	13	0	1	0	118	07:59:24	2052863	5	3	3	3	3	3	3	3	3	5	2	0	0	0	0	7	5
101612	07:59:24	10002	DigitSpanFr6mo	Score2Fr6mo	13	DS1	2668	0	118	07:59:24	2060096	5	3	3	3	3	3	3	3	3	5	2	0	0	0	0	7	5
101612	07:59:24	10002	DigitSpanFr6mo	Gate3Fr6mo	13	0	1	0	118	07:59:24	2060101	5	3	3	3	3	3	3	3	3	5	3	0	0	0	0	7	5
101612	07:59:24	10002	DigitSpanFr6mo	Score3Fr6mo	13	DS2	6799	0	118	07:59:24	2072584	5	3	3	3	3	3	3	3	3	5	3	0	0	0	0	7	5
101612	07:59:24	10002	DigitSpanFr6mo	Gate5Fr6mo	13	0	1	0	118	07:59:24	2072588	5	3	3	3	3	3	3	3	3	5	3	0	0	0	0	7	5
101612	07:59:24	10002	DigitSpanFr6mo	Score33Fr6mo	13	DS2	10295	0	118	07:59:24	2088924	5	3	3	3	3	3	3	3	3	5	3	0	0	0	0	7	5
101612	07:59:24	10002	Trial	ResponseIL	14	0	175	0	118	07:59:24	2147180	5	3	3	3	3	3	3	3	3	5	3	0	0	0	0	7	5
101612	07:59:24	10002	Trial	IncongruentLeft	14	203	397	1	118	07:59:24	2147607	5	3	3	3	3	3	3	3	3	5	3	0	0	0	0	7	5
101612	07:59:24	10002	Trial	ResponseCR	14	0	175	0	118	07:59:24	2148886	5	3	3	3	3	3	3	3	3	5	3	0	0	0	0	7	5
101612	07:59:24	10002	Trial	CongruentRight	14	205	195	1	118	07:59:24	2149099	5	3	3	3	3	3	3	3	3	5	3	0	0	0	0	7	5
101612	07:59:24	10002	Trial	ResponseIR	14	0	175	0	118	07:59:24	2150592	5	3	3	3	3	3	3	3	3	5	3	0	0	0	0	7	5
101612	07:59:24	10002	Trial	IncongruentRight	14	205	281	1	118	07:59:24	2150899	5	3	3	3	3	3	3	3	3	5	3	0	0	0	0	7	5
101612	07:59:24	10002	Trial	ResponseCL	14	0	175	0	118	07:59:24	2152298	5	3	3	3	3	3	3	3	3	5	3	0	0	0	0	7	5
101612	07:59:24	10002	Trial	CongruentLeft	14	203	239	1	118	07:59:24	2152565	5	3	3	3	3	3	3	3	3	5	3	0	0	0	0	7	5
101612	07:59:24	10002	Trial	ResponseCR	14	0	175	0	118	07:59:24	2154004	5	3	3	3	3	3	3	3	3	5	3	0	0	0	0	7	5
101612	07:59:24	10002	Trial	CongruentRight	14	205	201	1	118	07:59:24	2154231	5	3	3	3	3	3	3	3	3	5	3	0	0	0	0	7	5
101612	07:59:24	10002	Trial	ResponseIR	14	0	175	0	118	07:59:24	2155710	5	3	3	3	3	3	3	3	3	5	3	0	0	0	0	7	5
101612	07:59:24	10002	Trial	IncongruentRight	14	205	364	1	118	07:59:24	2156096	5	3	3	3	3	3	3	3	3	5	3	0	0	0	0	7	5
101612	07:59:24	10002	Trial	ResponseCL	14	0	175	0	118	07:59:24	2157416	5	3	3	3	3	3	3	3	3	5	3	0	0	0	0	7	5
101612	07:59:24	10002	Trial	CongruentLeft	14	203	353	1	118	07:59:24	2157789	5	3	3	3	3	3	3	3	3	5	3	0	0	0	0	7	5
101612	07:59:24	10002	Trial	ResponseIL	14	0	175	0	118	07:59:24	2159122	5	3	3	3	3	3	3	3	3	5	3	0	0	0	0	7	5
101612	07:59:24	10002	Trial	IncongruentLeft	14	203	407	1	118	07:59:24	2159549	5	3	3	3	3	3	3	3	3	5	3	0	0	0	0	7	5
101612	07:59:24	10002	Trial	ResponseIL	14	0	175	0	118	07:59:24	2160828	5	3	3	3	3	3	3	3	3	5	3	0	0	0	0	7	5
101612	07:59:24	10002	Trial	IncongruentLeft	14	203	269	1	118	07:59:24	2161121	5	3	3	3	3	3	3	3	3	5	3	0	0	0	0	7	5
101612	07:59:24	10002	Trial	ResponseCR	14	0	175	0	118	07:59:24	2162534	5	3	3	3	3	3	3	3	3	5	3	0	0	0	0	7	5
101612	07:59:24	10002	Trial	CongruentRight	14	205	275	1	118	07:59:24	2162827	5	3	3	3	3	3	3	3	3	5	3	0	0	0	0	7	5
101612	07:59:24	10002	Trial	ResponseIR	14	0	175	0	118	07:59:24	2164240	5	3	3	3	3	3	3	3	3	5	3	0	0	0	0	7	5
101612	07:59:24	10002	Trial	IncongruentRight	14	205	253	1	118	07:59:24	2164520	5	3	3	3	3	3	3	3	3	5	3	0	0	0	0	7	5
101612	07:59:24	10002	Trial	ResponseCL	14	0	175	0	118	07:59:24	2165946	5	3	3	3	3	3	3	3	3	5	3	0	0	0	0	7	5
101612	07:59:24	10002	Trial	CongruentLeft	14	203	271	1	118	07:59:24	2166239	5	3	3	3	3	3	3	3	3	5	3	0	0	0	0	7	5
101612	07:59:24	10002	Trial	ResponseCR	14	0	175	0	118	07:59:24	2167652	5	3	3	3	3	3	3	3	3	5	3	0	0	0	0	7	5
101612	07:59:24	10002	Trial	CongruentRight	14	205	293	1	118	07:59:24	2167972	5	3	3	3	3	3	3	3	3	5	3	0	0	0	0	7	5
101612	07:59:24	10002	Trial	ResponseIL	14	0	175	0	118	07:59:24	2169358	5	3	3	3	3	3	3	3	3	5	3	0	0	0	0	7	5
101612	07:59:24	10002	Trial	IncongruentLeft	14	203	299	1	118	07:59:24	2169678	5	3	3	3	3	3	3	3	3	5	3	0	0	0	0	7	5
101612	07:59:24	10002	Trial	ResponseIR	14	0	175	0	118	07:59:24	2171064	5	3	3	3	3	3	3	3	3	5	3	0	0	0	0	7	5
101612	07:59:24	10002	Trial	IncongruentRight	14	205	305	1	118	07:59:24	2171397	5	3	3	3	3	3	3	3	3	5	3	0	0	0	0	7	5
101612	07:59:24	10002	Trial	ResponseCR	14	0	175	0	118	07:59:24	2172770	5	3	3	3	3	3	3	3	3	5	3	0	0	0	0	7	5
101612	07:59:24	10002	Trial	CongruentRight	14	205	279	1	118	07:59:24	2173076	5	3	3	3	3	3	3	3	3	5	3	0	0	0	0	7	5
101612	07:59:24	10002	Trial	ResponseCL	14	0	175	0	118	07:59:24	2174476	5	3	3	3	3	3	3	3	3	5	3	0	0	0	0	7	5
101612	07:59:24	10002	Trial	CongruentLeft	14	203	269	1	118	07:59:24	2174769	5	3	3	3	3	3	3	3	3	5	3	0	0	0	0	7	5
101612	07:59:24	10002	Trial	ResponseCR	14	0	175	0	118	07:59:24	2176182	5	3	3	3	3	3	3	3	3	5	3	0	0	0	0	7	5
101612	07:59:24	10002	Trial	CongruentRight	14	205	259	1	118	07:59:24	2176462	5	3	3	3	3	3	3	3	3	5	3	0	0	0	0	7	5
101612	07:59:24	10002	Trial	ResponseIR	14	0	175	0	118	07:59:24	2177888	5	3	3	3	3	3	3	3	3	5	3	0	0	0	0	7	5
101612	07:59:24	10002	Trial	IncongruentRight	14	203	201	0	118	07:59:24	2178114	5	3	3	3	3	3	3	3	3	5	3	0	0	0	0	7	5
101612	07:59:24	10002	Trial	ResponseIL	14	0	175	0	118	07:59:24	2179594	5	3	3	3	3	3	3	3	3	5	3	0	0	0	0	7	5
101612	07:59:24	10002	Trial	IncongruentLeft	14	203	339	1	118	07:59:24	2179954	5	3	3	3	3	3	3	3	3	5	3	0	0	0	0	7	5
101612	07:59:24	10002	Trial	ResponseIL	14	0	175	0	118	07:59:24	2181300	5	3	3	3	3	3	3	3	3	5	3	0	0	0	0	7	5
101612	07:59:24	10002	Trial	IncongruentLeft	14	203	277	1	118	07:59:24	2181593	5	3	3	3	3	3	3	3	3	5	3	0	0	0	0	7	5
101612	07:59:24	10002	Trial	ResponseCL	14	0	175	0	118	07:59:24	2183006	5	3	3	3	3	3	3	3	3	5	3	0	0	0	0	7	5
101612	07:59:24	10002	Trial	CongruentLeft	14	203	171	1	118	07:59:24	2183206	5	3	3	3	3	3	3	3	3	5	3	0	0	0	0	7	5
101612	07:59:24	10002	Trial	ResponseCR	14	0	175	0	118	07:59:24	2184712	5	3	3	3	3	3	3	3	3	5	3	0	0	0	0	7	5
101612	07:59:24	10002	Trial	CongruentRight	14	205	401	1	118	07:59:24	2185138	5	3	3	3	3	3	3	3	3	5	3	0	0	0	0	7	5
101612	07:59:24	10002	Trial	ResponseIL	14	0	175	0	118	07:59:24	2186418	5	3	3	3	3	3	3	3	3	5	3	0	0	0	0	7	5
101612	07:59:24	10002	Trial	IncongruentLeft	14	203	391	1	118	07:59:24	2186831	5	3	3	3	3	3	3	3	3	5	3	0	0	0	0	7	5
101612	07:59:24	10002	Trial	ResponseIR	14	0	175	0	118	07:59:24	2188124	5	3	3	3	3	3	3	3	3	5	3	0	0	0	0	7	5
101612	07:59:24	10002	Trial	IncongruentRight	14	205	365	1	118	07:59:24	2188510	5	3	3	3	3	3	3	3	3	5	3	0	0	0	0	7	5
101612	07:59:24	10002	Trial	ResponseCR	14	0	175	0	118	07:59:24	2189830	5	3	3	3	3	3	3	3	3	5	3	0	0	0	0	7	5
101612	07:59:24	10002	Trial	CongruentRight	14	205	259	1	118	07:59:24	2190110	5	3	3	3	3	3	3	3	3	5	3	0	0	0	0	7	5
101612	07:59:24	10002	Trial	ResponseCL	14	0	175	0	118	07:59:24	2191536	5	3	3	3	3	3	3	3	3	5	3	0	0	0	0	7	5
101612	07:59:24	10002	Trial	CongruentLeft	14	203	281	1	118	07:59:24	2191842	5	3	3	3	3	3	3	3	3	5	3	0	0	0	0	7	5
101612	07:59:24	10002	Trial	ResponseIR	14	0	175	0	118	07:59:24	2193242	5	3	3	3	3	3	3	3	3	5	3	0	0	0	0	7	5
101612	07:59:24	10002	Trial	IncongruentRight	14	205	335	1	118	07:59:24	2193601	5	3	3	3	3	3	3	3	3	5	3	0	0	0	0	7	5
101612	07:59:24	10002	Trial	ResponseIL	14	0	175	0	118	07:59:24	2194948	5	3	3	3	3	3	3	3	3	5	3	0	0	0	0	7	5
101612	07:59:24	10002	Trial	IncongruentLeft	14	203	293	1	118	07:59:24	2195268	5	3	3	3	3	3	3	3	3	5	3	0	0	0	0	7	5
101612	07:59:24	10002	Trial	ResponseIR	14	0	175	0	118	07:59:24	2196654	5	3	3	3	3	3	3	3	3	5	3	0	0	0	0	7	5
101612	07:59:24	10002	Trial	IncongruentRight	14	205	331	1	118	07:59:24	2197014	5	3	3	3	3	3	3	3	3	5	3	0	0	0	0	7	5
101612	07:59:24	10002	Trial	ResponseCR	14	0	175	0	118	07:59:24	2198360	5	3	3	3	3	3	3	3	3	5	3	0	0	0	0	7	5
101612	07:59:24	10002	Trial	CongruentRight	14	205	289	1	118	07:59:24	2198666	5	3	3	3	3	3	3	3	3	5	3	0	0	0	0	7	5
101612	07:59:24	10002	Trial	ResponseIL	14	0	175	0	118	07:59:24	2200066	5	3	3	3	3	3	3	3	3	5	3	0	0	0	0	7	5
101612	07:59:24	10002	Trial	IncongruentLeft	14	203	343	1	118	07:59:24	2200425	5	3	3	3	3	3	3	3	3	5	3	0	0	0	0	7	5
101612	07:59:24	10002	Trial	ResponseCL	14	0	175	0	118	07:59:24	2201772	5	3	3	3	3	3	3	3	3	5	3	0	0	0	0	7	5
101612	07:59:24	10002	Trial	CongruentLeft	14	203	365	1	118	07:59:24	2202158	5	3	3	3	3	3	3	3	3	5	3	0	0	0	0	7	5
101612	07:59:24	10002	Trial	ResponseCR	14	0	175	0	118	07:59:24	2203478	5	3	3	3	3	3	3	3	3	5	3	0	0	0	0	7	5
101612	07:59:24	10002	Trial	CongruentRight	14	205	291	1	118	07:59:24	2203798	5	3	3	3	3	3	3	3	3	5	3	0	0	0	0	7	5
101612	07:59:24	10002	Trial	ResponseIL	14	0	175	0	118	07:59:24	2205184	5	3	3	3	3	3	3	3	3	5	3	0	0	0	0	7	5
101612	07:59:24	10002	Trial	IncongruentLeft	14	203	297	1	118	07:59:24	2205503	5	3	3	3	3	3	3	3	3	5	3	0	0	0	0	7	5
101612	07:59:24	10002	Trial	ResponseIR	14	0	175	0	118	07:59:24	2206889	5	3	3	3	3	3	3	3	3	5	3	0	0	0	0	7	5
101612	07:59:24	10002	Trial	IncongruentRight	14	205	319	1	118	07:59:24	2207236	5	3	3	3	3	3	3	3	3	5	3	0	0	0	0	7	5
101612	07:59:24	10002	Trial	ResponseIR	14	0	175	0	118	07:59:24	2208596	5	3	3	3	3	3	3	3	3	5	3	0	0	0	0	7	5
101612	07:59:24	10002	Trial	IncongruentRight	14	205	293	1	118	07:59:24	2208915	5	3	3	3	3	3	3	3	3	5	3	0	0	0	0	7	5
101612	07:59:24	10002	Trial	ResponseCL	14	0	175	0	118	07:59:24	2210302	5	3	3	3	3	3	3	3	3	5	3	0	0	0	0	7	5
101612	07:59:24	10002	Trial	CongruentLeft	14	203	331	1	118	07:59:24	2210661	5	3	3	3	3	3	3	3	3	5	3	0	0	0	0	7	5
101612	07:59:24	10002	Trial	ResponseIL	14	0	175	0	118	07:59:24	2212007	5	3	3	3	3	3	3	3	3	5	3	0	0	0	0	7	5
101612	07:59:24	10002	Trial	IncongruentLeft	14	203	289	1	118	07:59:24	2212314	5	3	3	3	3	3	3	3	3	5	3	0	0	0	0	7	5
101612	07:59:24	10002	Trial	ResponseCR	14	0	175	0	118	07:59:24	2213714	5	3	3	3	3	3	3	3	3	5	3	0	0	0	0	7	5
101612	07:59:24	10002	Trial	CongruentRight	14	205	423	1	118	07:59:24	2214153	5	3	3	3	3	3	3	3	3	5	3	0	0	0	0	7	5
101612	07:59:24	10002	Trial	ResponseCL	14	0	175	0	118	07:59:24	2215420	5	3	3	3	3	3	3	3	3	5	3	0	0	0	0	7	5
101612	07:59:24	10002	Trial	CongruentLeft	14	203	397	1	118	07:59:24	2215833	5	3	3	3	3	3	3	3	3	5	3	0	0	0	0	7	5
101612	07:59:24	10002	Trial	ResponseIR	14	0	175	0	118	07:59:24	2217125	5	3	3	3	3	3	3	3	3	5	3	0	0	0	0	7	5
101612	07:59:24	10002	Trial	IncongruentRight	14	205	355	1	118	07:59:24	2217498	5	3	3	3	3	3	3	3	3	5	3	0	0	0	0	7	5
101612	07:59:24	10002	Trial	ResponseCR	14	0	175	0	118	07:59:24	2218831	5	3	3	3	3	3	3	3	3	5	3	0	0	0	0	7	5
101612	07:59:24	10002	Trial	CongruentRight	14	205	237	1	118	07:59:24	2219098	5	3	3	3	3	3	3	3	3	5	3	0	0	0	0	7	5
101612	07:59:24	10002	Trial	ResponseIL	14	0	175	0	118	07:59:24	2220537	5	3	3	3	3	3	3	3	3	5	3	0	0	0	0	7	5
101612	07:59:24	10002	Trial	IncongruentLeft	14	203	367	1	118	07:59:24	2220924	5	3	3	3	3	3	3	3	3	5	3	0	0	0	0	7	5
101612	07:59:24	10002	Trial	ResponseCL	14	0	175	0	118	07:59:24	2222243	5	3	3	3	3	3	3	3	3	5	3	0	0	0	0	7	5
101612	07:59:24	10002	Trial	CongruentLeft	14	203	324	1	118	07:59:24	2222590	5	3	3	3	3	3	3	3	3	5	3	0	0	0	0	7	5
101612	07:59:24	10002	Trial	ResponseIL	14	0	175	0	118	07:59:24	2223949	5	3	3	3	3	3	3	3	3	5	3	0	0	0	0	7	5
101612	07:59:24	10002	Trial	IncongruentLeft	14	203	299	1	118	07:59:24	2224269	5	3	3	3	3	3	3	3	3	5	3	0	0	0	0	7	5
101612	07:59:24	10002	Trial	ResponseIR	14	0	175	0	118	07:59:24	2225655	5	3	3	3	3	3	3	3	3	5	3	0	0	0	0	7	5
101612	07:59:24	10002	Trial	IncongruentRight	14	205	337	1	118	07:59:24	2226015	5	3	3	3	3	3	3	3	3	5	3	0	0	0	0	7	5
101612	07:59:24	10002	Trial	ResponseCR	14	0	175	0	118	07:59:24	2227361	5	3	3	3	3	3	3	3	3	5	3	0	0	0	0	7	5
101612	07:59:24	10002	Trial	CongruentRight	14	205	262	1	118	07:59:24	2227641	5	3	3	3	3	3	3	3	3	5	3	0	0	0	0	7	5
101612	07:59:24	10002	Trial	ResponseCL	14	0	175	0	118	07:59:24	2229067	5	3	3	3	3	3	3	3	3	5	3	0	0	0	0	7	5
101612	07:59:24	10002	Trial	CongruentLeft	14	203	269	1	118	07:59:24	2229360	5	3	3	3	3	3	3	3	3	5	3	0	0	0	0	7	5
101612	07:59:24	10002	Trial	ResponseCL	14	0	175	0	118	07:59:24	2230773	5	3	3	3	3	3	3	3	3	5	3	0	0	0	0	7	5
101612	07:59:24	10002	Trial	CongruentLeft	14	203	290	1	118	07:59:24	2231093	5	3	3	3	3	3	3	3	3	5	3	0	0	0	0	7	5
101612	07:59:24	10002	Trial	ResponseIR	14	0	175	0	118	07:59:24	2232479	5	3	3	3	3	3	3	3	3	5	3	0	0	0	0	7	5
101612	07:59:24	10002	Trial	IncongruentRight	14	205	424	1	118	07:59:24	2232932	5	3	3	3	3	3	3	3	3	5	3	0	0	0	0	7	5
101612	07:59:24	10002	Trial	ResponseIL	14	0	175	0	118	07:59:24	2234185	5	3	3	3	3	3	3	3	3	5	3	0	0	0	0	7	5
101612	07:59:24	10002	Trial	IncongruentLeft	14	203	334	1	118	07:59:24	2234545	5	3	3	3	3	3	3	3	3	5	3	0	0	0	0	7	5
101612	07:59:24	10002	Trial	ResponseIR	14	0	175	0	118	07:59:24	2235891	5	3	3	3	3	3	3	3	3	5	3	0	0	0	0	7	5
101612	07:59:24	10002	Trial	IncongruentRight	14	205	372	1	118	07:59:24	2236291	5	3	3	3	3	3	3	3	3	5	3	0	0	0	0	7	5
101612	07:59:24	10002	Trial	ResponseCR	14	0	175	0	118	07:59:24	2237597	5	3	3	3	3	3	3	3	3	5	3	0	0	0	0	7	5
101612	07:59:24	10002	Trial	CongruentRight	14	205	314	1	118	07:59:24	2237930	5	3	3	3	3	3	3	3	3	5	3	0	0	0	0	7	5
101612	07:59:24	10002	Trial	ResponseCR	14	0	175	0	118	07:59:24	2239303	5	3	3	3	3	3	3	3	3	5	3	0	0	0	0	7	5
101612	07:59:24	10002	Trial	CongruentRight	14	205	192	1	118	07:59:24	2239516	5	3	3	3	3	3	3	3	3	5	3	0	0	0	0	7	5
101612	07:59:24	10002	Trial	ResponseIL	14	0	175	0	118	07:59:24	2241009	5	3	3	3	3	3	3	3	3	5	3	0	0	0	0	7	5
101612	07:59:24	10002	Trial	IncongruentLeft	14	203	295	1	118	07:59:24	2241329	5	3	3	3	3	3	3	3	3	5	3	0	0	0	0	7	5
101612	07:59:24	10002	Trial	ResponseCL	14	0	175	0	118	07:59:24	2242715	5	3	3	3	3	3	3	3	3	5	3	0	0	0	0	7	5
101612	07:59:24	10002	Trial	CongruentLeft	14	203	220	1	118	07:59:24	2242955	5	3	3	3	3	3	3	3	3	5	3	0	0	0	0	7	5
101612	07:59:24	10002	Trial	ResponseCR	14	0	175	0	118	07:59:24	2244421	5	3	3	3	3	3	3	3	3	5	3	0	0	0	0	7	5
101612	07:59:24	10002	Trial	CongruentRight	14	205	274	1	118	07:59:24	2244714	5	3	3	3	3	3	3	3	3	5	3	0	0	0	0	7	5
101612	07:59:24	10002	Trial	ResponseCL	14	0	175	0	118	07:59:24	2246127	5	3	3	3	3	3	3	3	3	5	3	0	0	0	0	7	5
101612	07:59:24	10002	Trial	CongruentLeft	14	203	248	1	118	07:59:24	2246394	5	3	3	3	3	3	3	3	3	5	3	0	0	0	0	7	5
101612	07:59:24	10002	Trial	ResponseIR	14	0	175	0	118	07:59:24	2247833	5	3	3	3	3	3	3	3	3	5	3	0	0	0	0	7	5
101612	07:59:24	10002	Trial	IncongruentRight	14	205	319	1	118	07:59:24	2248180	5	3	3	3	3	3	3	3	3	5	3	0	0	0	0	7	5
101612	07:59:24	10002	Trial	ResponseCR	14	0	175	0	118	07:59:24	2249539	5	3	3	3	3	3	3	3	3	5	3	0	0	0	0	7	5
101612	07:59:24	10002	Trial	CongruentRight	14	205	409	1	118	07:59:24	2249979	5	3	3	3	3	3	3	3	3	5	3	0	0	0	0	7	5
101612	07:59:24	10002	Trial	ResponseCL	14	0	175	0	118	07:59:24	2251245	5	3	3	3	3	3	3	3	3	5	3	0	0	0	0	7	5
101612	07:59:24	10002	Trial	CongruentLeft	14	203	202	1	118	07:59:24	2251472	5	3	3	3	3	3	3	3	3	5	3	0	0	0	0	7	5
101612	07:59:24	10002	Trial	ResponseIL	14	0	175	0	118	07:59:24	2252951	5	3	3	3	3	3	3	3	3	5	3	0	0	0	0	7	5
101612	07:59:24	10002	Trial	IncongruentLeft	14	203	256	1	118	07:59:24	2253231	5	3	3	3	3	3	3	3	3	5	3	0	0	0	0	7	5
101612	07:59:24	10002	Trial	ResponseIL	14	0	175	0	118	07:59:24	2254657	5	3	3	3	3	3	3	3	3	5	3	0	0	0	0	7	5
101612	07:59:24	10002	Trial	IncongruentLeft	14	203	278	1	118	07:59:24	2254963	5	3	3	3	3	3	3	3	3	5	3	0	0	0	0	7	5
101612	07:59:24	10002	Trial	ResponseCR	14	0	175	0	118	07:59:24	2256363	5	3	3	3	3	3	3	3	3	5	3	0	0	0	0	7	5
101612	07:59:24	10002	Trial	CongruentRight	14	205	300	1	118	07:59:24	2256683	5	3	3	3	3	3	3	3	3	5	3	0	0	0	0	7	5
101612	07:59:24	10002	Trial	ResponseIR	14	0	175	0	118	07:59:24	2258069	5	3	3	3	3	3	3	3	3	5	3	0	0	0	0	7	5
101612	07:59:24	10002	Trial	IncongruentRight	14	205	306	1	118	07:59:24	2258402	5	3	3	3	3	3	3	3	3	5	3	0	0	0	0	7	5
101612	07:59:24	10002	Trial	ResponseCL	14	0	175	0	118	07:59:24	2259775	5	3	3	3	3	3	3	3	3	5	3	0	0	0	0	7	5
101612	07:59:24	10002	Trial	CongruentLeft	14	203	280	1	118	07:59:24	2260081	5	3	3	3	3	3	3	3	3	5	3	0	0	0	0	7	5
101612	07:59:24	10002	Trial	ResponseIR	14	0	175	0	118	07:59:24	2261481	5	3	3	3	3	3	3	3	3	5	3	0	0	0	0	7	5
101612	07:59:24	10002	Trial	IncongruentRight	14	205	238	1	118	07:59:24	2261747	5	3	3	3	3	3	3	3	3	5	3	0	0	0	0	7	5
101612	07:59:24	10002	Trial	ResponseCR	14	0	175	0	118	07:59:24	2263187	5	3	3	3	3	3	3	3	3	5	3	0	0	0	0	7	5
101612	07:59:24	10002	Trial	CongruentRight	14	205	276	1	118	07:59:24	2263480	5	3	3	3	3	3	3	3	3	5	3	0	0	0	0	7	5
101612	07:59:24	10002	Trial	ResponseIL	14	0	175	0	118	07:59:24	2264893	5	3	3	3	3	3	3	3	3	5	3	0	0	0	0	7	5
101612	07:59:24	10002	Trial	IncongruentLeft	14	203	298	1	118	07:59:24	2265213	5	3	3	3	3	3	3	3	3	5	3	0	0	0	0	7	5
101612	07:59:24	10002	Trial	ResponseCL	14	0	175	0	118	07:59:24	2266599	5	3	3	3	3	3	3	3	3	5	3	0	0	0	0	7	5
101612	07:59:24	10002	Trial	CongruentLeft	14	203	288	1	118	07:59:24	2266905	5	3	3	3	3	3	3	3	3	5	3	0	0	0	0	7	5
101612	07:59:24	10002	Trial	ResponseCR	14	0	175	0	118	07:59:24	2268305	5	3	3	3	3	3	3	3	3	5	3	0	0	0	0	7	5
101612	07:59:24	10002	Trial	CongruentRight	14	205	310	1	118	07:59:24	2268638	5	3	3	3	3	3	3	3	3	5	3	0	0	0	0	7	5
101612	07:59:24	10002	Trial	ResponseIL	14	0	175	0	118	07:59:24	2270011	5	3	3	3	3	3	3	3	3	5	3	0	0	0	0	7	5
101612	07:59:24	10002	Trial	IncongruentLeft	14	203	284	1	118	07:59:24	2270317	5	3	3	3	3	3	3	3	3	5	3	0	0	0	0	7	5
101612	07:59:24	10002	Trial	ResponseCR	14	0	175	0	118	07:59:24	2271717	5	3	3	3	3	3	3	3	3	5	3	0	0	0	0	7	5
101612	07:59:24	10002	Trial	CongruentRight	14	205	338	1	118	07:59:24	2272076	5	3	3	3	3	3	3	3	3	5	3	0	0	0	0	7	5
101612	07:59:24	10002	Trial	ResponseCR	14	0	175	0	118	07:59:24	2273423	5	3	3	3	3	3	3	3	3	5	3	0	0	0	0	7	5
101612	07:59:24	10002	Trial	CongruentRight	14	205	360	1	118	07:59:24	2273809	5	3	3	3	3	3	3	3	3	5	3	0	0	0	0	7	5
101612	07:59:24	10002	Trial	ResponseIR	14	0	175	0	118	07:59:24	2275129	5	3	3	3	3	3	3	3	3	5	3	0	0	0	0	7	5
101612	07:59:24	10002	Trial	IncongruentRight	14	205	318	1	118	07:59:24	2275475	5	3	3	3	3	3	3	3	3	5	3	0	0	0	0	7	5
101612	07:59:24	10002	Trial	ResponseCL	14	0	175	0	118	07:59:24	2276835	5	3	3	3	3	3	3	3	3	5	3	0	0	0	0	7	5
101612	07:59:24	10002	Trial	CongruentLeft	14	203	244	1	118	07:59:24	2277101	5	3	3	3	3	3	3	3	3	5	3	0	0	0	0	7	5
101612	07:59:24	10002	Trial	ResponseIL	14	0	175	0	118	07:59:24	2278541	5	3	3	3	3	3	3	3	3	5	3	0	0	0	0	7	5
101612	07:59:24	10002	Trial	IncongruentLeft	14	203	346	1	118	07:59:24	2278914	5	3	3	3	3	3	3	3	3	5	3	0	0	0	0	7	5
101612	07:59:24	10002	Trial	ResponseCL	14	0	175	0	118	07:59:24	2280247	5	3	3	3	3	3	3	3	3	5	3	0	0	0	0	7	5
101612	07:59:24	10002	Trial	CongruentLeft	14	203	208	1	118	07:59:24	2280473	5	3	3	3	3	3	3	3	3	5	3	0	0	0	0	7	5
101612	07:59:24	10002	Trial	ResponseIR	14	0	175	0	118	07:59:24	2281953	5	3	3	3	3	3	3	3	3	5	3	0	0	0	0	7	5
101612	07:59:24	10002	Trial	IncongruentRight	14	205	374	1	118	07:59:24	2282353	5	3	3	3	3	3	3	3	3	5	3	0	0	0	0	7	5
101612	07:59:24	10002	Trial	ResponseIL	14	0	175	0	118	07:59:24	2283659	5	3	3	3	3	3	3	3	3	5	3	0	0	0	0	7	5
101612	07:59:24	10002	Trial	IncongruentLeft	14	203	396	1	118	07:59:24	2284072	5	3	3	3	3	3	3	3	3	5	3	0	0	0	0	7	5
101612	07:59:24	10002	Trial	ResponseCR	14	0	175	0	118	07:59:24	2285365	5	3	3	3	3	3	3	3	3	5	3	0	0	0	0	7	5
101612	07:59:24	10002	Trial	CongruentRight	14	205	194	1	118	07:59:24	2285578	5	3	3	3	3	3	3	3	3	5	3	0	0	0	0	7	5
101612	07:59:24	10002	Trial	ResponseCL	14	0	175	0	118	07:59:24	2287071	5	3	3	3	3	3	3	3	3	5	3	0	0	0	0	7	5
101612	07:59:24	10002	Trial	CongruentLeft	14	203	200	1	118	07:59:24	2287297	5	3	3	3	3	3	3	3	3	5	3	0	0	0	0	7	5
101612	07:59:24	10002	Trial	ResponseIL	14	0	175	0	118	07:59:24	2288777	5	3	3	3	3	3	3	3	3	5	3	0	0	0	0	7	5
101612	07:59:24	10002	Trial	IncongruentLeft	14	203	334	1	118	07:59:24	2289136	5	3	3	3	3	3	3	3	3	5	3	0	0	0	0	7	5
101612	07:59:24	10002	Trial	ResponseCL	14	0	175	0	118	07:59:24	2290496	5	3	3	3	3	3	3	3	3	5	3	0	0	0	0	7	5
101612	07:59:24	10002	Trial	CongruentLeft	14	203	167	1	118	07:59:24	2290683	5	3	3	3	3	3	3	3	3	5	3	0	0	0	0	7	5
101612	07:59:24	10002	Trial	ResponseIR	14	0	175	0	118	07:59:24	2292202	5	3	3	3	3	3	3	3	3	5	3	0	0	0	0	7	5
101612	07:59:24	10002	Trial	IncongruentRight	14	205	316	1	118	07:59:24	2292535	5	3	3	3	3	3	3	3	3	5	3	0	0	0	0	7	5
101612	07:59:24	10002	Trial	ResponseCR	14	0	175	0	118	07:59:24	2293908	5	3	3	3	3	3	3	3	3	5	3	0	0	0	0	7	5
101612	07:59:24	10002	Trial	CongruentRight	14	205	275	1	118	07:59:24	2294201	5	3	3	3	3	3	3	3	3	5	3	0	0	0	0	7	5
101612	07:59:24	10002	Trial	ResponseIL	14	0	175	0	118	07:59:24	2295614	5	3	3	3	3	3	3	3	3	5	3	0	0	0	0	7	5
101612	07:59:24	10002	Trial	IncongruentLeft	14	203	216	1	118	07:59:24	2295854	5	3	3	3	3	3	3	3	3	5	3	0	0	0	0	7	5
101612	07:59:24	10002	Trial	ResponseCL	14	0	175	0	118	07:59:24	2297320	5	3	3	3	3	3	3	3	3	5	3	0	0	0	0	7	5
101612	07:59:24	10002	Trial	CongruentLeft	14	203	254	1	118	07:59:24	2297600	5	3	3	3	3	3	3	3	3	5	3	0	0	0	0	7	5
101612	07:59:24	10002	Trial	ResponseIR	14	0	175	0	118	07:59:24	2299026	5	3	3	3	3	3	3	3	3	5	3	0	0	0	0	7	5
101612	07:59:24	10002	Trial	IncongruentRight	14	205	260	1	118	07:59:24	2299306	5	3	3	3	3	3	3	3	3	5	3	0	0	0	0	7	5
101612	07:59:24	10002	Trial	ResponseIL	14	0	175	0	118	07:59:24	2300732	5	3	3	3	3	3	3	3	3	5	3	0	0	0	0	7	5
101612	07:59:24	10002	Trial	IncongruentLeft	14	203	267	1	118	07:59:24	2301025	5	3	3	3	3	3	3	3	3	5	3	0	0	0	0	7	5
101612	07:59:24	10002	Trial	ResponseCL	14	0	175	0	118	07:59:24	2302438	5	3	3	3	3	3	3	3	3	5	3	0	0	0	0	7	5
101612	07:59:24	10002	Trial	CongruentLeft	14	203	208	1	118	07:59:24	2302664	5	3	3	3	3	3	3	3	3	5	3	0	0	0	0	7	5
101612	07:59:24	10002	Trial	ResponseIL	14	0	175	0	118	07:59:24	2304144	5	3	3	3	3	3	3	3	3	5	3	0	0	0	0	7	5
101612	07:59:24	10002	Trial	IncongruentLeft	14	203	422	1	118	07:59:24	2304584	5	3	3	3	3	3	3	3	3	5	3	0	0	0	0	7	5
101612	07:59:24	10002	Trial	ResponseCR	14	0	175	0	118	07:59:24	2305850	5	3	3	3	3	3	3	3	3	5	3	0	0	0	0	7	5
101612	07:59:24	10002	Trial	CongruentRight	14	205	316	1	118	07:59:24	2306183	5	3	3	3	3	3	3	3	3	5	3	0	0	0	0	7	5
101612	07:59:24	10002	Trial	ResponseCL	14	0	175	0	118	07:59:24	2307556	5	3	3	3	3	3	3	3	3	5	3	0	0	0	0	7	5
101612	07:59:24	10002	Trial	CongruentLeft	14	203	274	1	118	07:59:24	2307849	5	3	3	3	3	3	3	3	3	5	3	0	0	0	0	7	5
101612	07:59:24	10002	Trial	ResponseIR	14	0	175	0	118	07:59:24	2309262	5	3	3	3	3	3	3	3	3	5	3	0	0	0	0	7	5
101612	07:59:24	10002	Trial	IncongruentRight	14	205	296	1	118	07:59:24	2309582	5	3	3	3	3	3	3	3	3	5	3	0	0	0	0	7	5
101612	07:59:24	10002	Trial	ResponseCL	14	0	175	0	118	07:59:24	2310968	5	3	3	3	3	3	3	3	3	5	3	0	0	0	0	7	5
101612	07:59:24	10002	Trial	CongruentLeft	14	203	206	1	118	07:59:24	2311194	5	3	3	3	3	3	3	3	3	5	3	0	0	0	0	7	5
101612	07:59:24	10002	Trial	ResponseCR	14	0	175	0	118	07:59:24	2312674	5	3	3	3	3	3	3	3	3	5	3	0	0	0	0	7	5
101612	07:59:24	10002	Trial	CongruentRight	14	205	260	1	118	07:59:24	2312953	5	3	3	3	3	3	3	3	3	5	3	0	0	0	0	7	5
101612	07:59:24	10002	Trial	ResponseIL	14	0	175	0	118	07:59:24	2314380	5	3	3	3	3	3	3	3	3	5	3	0	0	0	0	7	5
101612	07:59:24	10002	Trial	IncongruentLeft	14	203	267	1	118	07:59:24	2314673	5	3	3	3	3	3	3	3	3	5	3	0	0	0	0	7	5
101612	07:59:24	10002	WordsAbsFr6mo	PAbsFr6mo1	16	Abs1	4075	0	118	07:59:24	2332386	5	3	3	3	3	3	3	3	3	5	3	0	0	0	0	7	5
101612	07:59:24	10002	WordsAbsFr6mo	AbsFr6mo1	16	Abs1	4922	0	118	07:59:24	2337344	5	3	3	3	3	3	3	3	3	5	3	1	0	0	0	7	5
101612	07:59:24	10002	WordsAbsFr6mo	AbsFr6mo2	16	Abs2	70130	0	118	07:59:24	2407515	5	3	3	3	3	3	3	3	3	5	3	1	0	0	0	7	5
101612	07:59:24	10002	WordsAbsFr6mo	AbsFr6mo3	16	Abs1	7662	0	118	07:59:24	2415219	5	3	3	3	3	3	3	3	3	5	3	2	0	0	0	7	5
101612	07:59:24	10002	Trial2BackFrS	NS	17	0	1000	1	118	07:59:24	2455442	5	3	3	3	3	3	3	3	3	5	3	2	0	0	0	7	5
101612	07:59:24	10002	Trial2BackFrS	NS	17	0	1000	1	118	07:59:24	2456948	5	3	3	3	3	3	3	3	3	5	3	2	0	0	0	7	5
101612	07:59:24	10002	Trial2BackFrS	NS	17	0	1000	1	118	07:59:24	2458455	5	3	3	3	3	3	3	3	3	5	3	2	0	0	0	7	5
101612	07:59:24	10002	Trial2BackFrS	YS	17	0	1000	0	118	07:59:24	2459961	5	3	3	3	3	3	3	3	3	5	3	2	0	0	0	7	5
101612	07:59:24	10002	Trial2BackFrS	NS	17	0	1000	1	118	07:59:24	2461467	5	3	3	3	3	3	3	3	3	5	3	2	0	0	0	7	5
101612	07:59:24	10002	Trial2BackFrS	NS	17	0	1000	1	118	07:59:24	2462973	5	3	3	3	3	3	3	3	3	5	3	2	0	0	0	7	5
101612	07:59:24	10002	Trial2BackFrS	NS	17	0	1000	1	118	07:59:24	2464492	5	3	3	3	3	3	3	3	3	5	3	2	0	0	0	7	5
101612	07:59:24	10002	Trial2BackFrS	NS	17	57	987	0	118	07:59:24	2465998	5	3	3	3	3	3	3	3	3	5	3	2	0	0	0	7	5
101612	07:59:24	10002	Trial2BackFrS	YS	17	0	1000	0	118	07:59:24	2467504	5	3	3	3	3	3	3	3	3	5	3	2	0	0	0	7	5
101612	07:59:24	10002	Trial2BackFrS	NS	17	0	1000	1	118	07:59:24	2469037	5	3	3	3	3	3	3	3	3	5	3	2	0	0	0	7	5
101612	07:59:24	10002	Trial2BackFrS	NS	17	0	1000	1	118	07:59:24	2470543	5	3	3	3	3	3	3	3	3	5	3	2	0	0	0	7	5
101612	07:59:24	10002	Trial2BackFrS	YS	17	0	1000	0	118	07:59:24	2472049	5	3	3	3	3	3	3	3	3	5	3	2	0	0	0	7	5
101612	07:59:24	10002	Trial2BackFrS	NS	17	0	1000	1	118	07:59:24	2473568	5	3	3	3	3	3	3	3	3	5	3	2	0	0	0	7	5
101612	07:59:24	10002	Trial2BackFrS	NS	17	0	1000	1	118	07:59:24	2475074	5	3	3	3	3	3	3	3	3	5	3	2	0	0	0	7	5
101612	07:59:24	10002	Trial2BackFrS	NS	17	0	1000	1	118	07:59:24	2476581	5	3	3	3	3	3	3	3	3	5	3	2	0	0	0	7	5
101612	07:59:24	10002	Trial2BackFrS	YS	17	0	1000	0	118	07:59:24	2478087	5	3	3	3	3	3	3	3	3	5	3	2	0	0	0	7	5
101612	07:59:24	10002	Trial2BackFrS	NS	17	0	1000	1	118	07:59:24	2479606	5	3	3	3	3	3	3	3	3	5	3	2	0	0	0	7	5
101612	07:59:24	10002	Trial2BackFrS	NS	17	0	1000	1	118	07:59:24	2481112	5	3	3	3	3	3	3	3	3	5	3	2	0	0	0	7	5
101612	07:59:24	10002	Trial2BackFrS	NS	17	0	1000	1	118	07:59:24	2482618	5	3	3	3	3	3	3	3	3	5	3	2	0	0	0	7	5
101612	07:59:24	10002	Trial2BackFrS	NS	17	0	1000	1	118	07:59:24	2484124	5	3	3	3	3	3	3	3	3	5	3	2	0	0	0	7	5
101612	07:59:24	10002	Trial2BackFrS	YS	17	57	618	1	118	07:59:24	2485257	5	3	3	3	3	3	3	3	3	5	3	2	0	0	0	7	5
101612	07:59:24	10002	Trial2BackFrS	NS	17	0	1000	1	118	07:59:24	2487136	5	3	3	3	3	3	3	3	3	5	3	2	0	0	0	7	5
101612	07:59:24	10002	Trial2BackFrS	NS	17	0	1000	1	118	07:59:24	2488642	5	3	3	3	3	3	3	3	3	5	3	2	0	0	0	7	5
101612	07:59:24	10002	Trial2BackFrS	NS	17	0	1000	1	118	07:59:24	2490148	5	3	3	3	3	3	3	3	3	5	3	2	0	0	0	7	5
101612	07:59:24	10002	Trial2BackFrS	NS	17	0	1000	1	118	07:59:24	2491654	5	3	3	3	3	3	3	3	3	5	3	2	0	0	0	7	5
101612	07:59:24	10002	Trial2BackFrS	NS	17	0	1000	1	118	07:59:24	2493161	5	3	3	3	3	3	3	3	3	5	3	2	0	0	0	7	5
101612	07:59:24	10002	Trial2BackFrS	NS	17	0	1000	1	118	07:59:24	2494667	5	3	3	3	3	3	3	3	3	5	3	2	0	0	0	7	5
101612	07:59:24	10002	Trial2BackFrS	NS	17	0	1000	1	118	07:59:24	2496173	5	3	3	3	3	3	3	3	3	5	3	2	0	0	0	7	5
101612	07:59:24	10002	Trial2BackFrS	NS	17	0	1000	1	118	07:59:24	2497679	5	3	3	3	3	3	3	3	3	5	3	2	0	0	0	7	5
101612	07:59:24	10002	Trial2BackFrS	NS	17	0	1000	1	118	07:59:24	2499185	5	3	3	3	3	3	3	3	3	5	3	2	0	0	0	7	5
101612	07:59:24	10002	Trial2BackFrS	NS	17	0	1000	1	118	07:59:24	2500691	5	3	3	3	3	3	3	3	3	5	3	2	0	0	0	7	5
101612	07:59:24	10002	Trial2BackFrS	YS	17	57	643	1	118	07:59:24	2501850	5	3	3	3	3	3	3	3	3	5	3	2	0	0	0	7	5
101612	07:59:24	10002	Trial2BackFrS	NS	17	0	1000	1	118	07:59:24	2503703	5	3	3	3	3	3	3	3	3	5	3	2	0	0	0	7	5
101612	07:59:24	10002	Trial2BackFrS	NS	17	0	1000	1	118	07:59:24	2505209	5	3	3	3	3	3	3	3	3	5	3	2	0	0	0	7	5
101612	07:59:24	10002	Trial2BackFrS	NS	17	0	1000	1	118	07:59:24	2506715	5	3	3	3	3	3	3	3	3	5	3	2	0	0	0	7	5
101612	07:59:24	10002	Trial2BackFrS	YS	17	0	1000	0	118	07:59:24	2508221	5	3	3	3	3	3	3	3	3	5	3	2	0	0	0	7	5
101612	07:59:24	10002	Trial2BackFrS	NS	17	0	1000	1	118	07:59:24	2509740	5	3	3	3	3	3	3	3	3	5	3	2	0	0	0	7	5
101612	07:59:24	10002	Trial2BackFrS	NS	17	0	1000	1	118	07:59:24	2511246	5	3	3	3	3	3	3	3	3	5	3	2	0	0	0	7	5
101612	07:59:24	10002	Trial2BackFrS	NS	17	0	1000	1	118	07:59:24	2512752	5	3	3	3	3	3	3	3	3	5	3	2	0	0	0	7	5
101612	07:59:24	10002	Trial2BackFrS	NS	17	0	1000	1	118	07:59:24	2514259	5	3	3	3	3	3	3	3	3	5	3	2	0	0	0	7	5
101612	07:59:24	10002	Trial2BackFrS	NS	17	0	1000	1	118	07:59:24	2515765	5	3	3	3	3	3	3	3	3	5	3	2	0	0	0	7	5
101612	07:59:24	10002	Trial2BackFrS	NS	17	0	1000	1	118	07:59:24	2517271	5	3	3	3	3	3	3	3	3	5	3	2	0	0	0	7	5
101612	07:59:24	10002	Trial2BackFrS	NS	17	0	1000	1	118	07:59:24	2518777	5	3	3	3	3	3	3	3	3	5	3	2	0	0	0	7	5
101612	07:59:24	10002	Trial2BackFrS	YS	17	0	1000	0	118	07:59:24	2520283	5	3	3	3	3	3	3	3	3	5	3	2	0	0	0	7	5
101612	07:59:24	10002	Trial2BackFrS	NS	17	0	1000	1	118	07:59:24	2521789	5	3	3	3	3	3	3	3	3	5	3	2	0	0	0	7	5
101612	07:59:24	10002	Trial2BackFrS	NS	17	0	1000	1	118	07:59:24	2523295	5	3	3	3	3	3	3	3	3	5	3	2	0	0	0	7	5
101612	07:59:24	10002	Trial2BackFrS	NS	17	0	1000	1	118	07:59:24	2524801	5	3	3	3	3	3	3	3	3	5	3	2	0	0	0	7	5
101612	07:59:24	10002	Trial2BackFrS	NS	17	0	1000	1	118	07:59:24	2526307	5	3	3	3	3	3	3	3	3	5	3	2	0	0	0	7	5
101612	07:59:24	10002	Trial2BackFrS	YS	17	57	610	1	118	07:59:24	2527426	5	3	3	3	3	3	3	3	3	5	3	2	0	0	0	7	5
101612	07:59:24	10002	Trial2BackFrS	NS	17	0	1000	1	118	07:59:24	2529319	5	3	3	3	3	3	3	3	3	5	3	2	0	0	0	7	5
101612	07:59:24	10002	Trial2BackFrS	NS	17	0	1000	1	118	07:59:24	2530825	5	3	3	3	3	3	3	3	3	5	3	2	0	0	0	7	5
101612	07:59:24	10002	Trial2BackFrS	NS	17	0	1000	1	118	07:59:24	2532331	5	3	3	3	3	3	3	3	3	5	3	2	0	0	0	7	5
101612	07:59:24	10002	Trial2BackFrS	NS	17	0	1000	1	118	07:59:24	2533837	5	3	3	3	3	3	3	3	3	5	3	2	0	0	0	7	5
101612	07:59:24	10002	Trial2BackFrS	NS	17	0	1000	1	118	07:59:24	2535343	5	3	3	3	3	3	3	3	3	5	3	2	0	0	0	7	5
101612	07:59:24	10002	Trial2BackFrS	NS	17	0	1000	1	118	07:59:24	2536849	5	3	3	3	3	3	3	3	3	5	3	2	0	0	0	7	5
101612	07:59:24	10002	Trial2BackFrS	YS	17	57	676	1	118	07:59:24	2538036	5	3	3	3	3	3	3	3	3	5	3	2	0	0	0	7	5
101612	07:59:24	10002	Trial2BackFrS	NS	17	0	1000	1	118	07:59:24	2539862	5	3	3	3	3	3	3	3	3	5	3	2	0	0	0	7	5
101612	07:59:24	10002	Trial2BackFrS	NS	17	0	1000	1	118	07:59:24	2541368	5	3	3	3	3	3	3	3	3	5	3	2	0	0	0	7	5
101612	07:59:24	10002	Trial2BackFrS	NS	17	0	1000	1	118	07:59:24	2542874	5	3	3	3	3	3	3	3	3	5	3	2	0	0	0	7	5
101612	07:59:24	10002	Trial2BackFrS	NS	17	57	987	0	118	07:59:24	2544380	5	3	3	3	3	3	3	3	3	5	3	2	0	0	0	7	5
101612	07:59:24	10002	Trial2BackFrS	NS	17	0	1000	1	118	07:59:24	2545886	5	3	3	3	3	3	3	3	3	5	3	2	0	0	0	7	5
101612	07:59:24	10002	Trial2BackFrS	NS	17	0	1000	1	118	07:59:24	2547392	5	3	3	3	3	3	3	3	3	5	3	2	0	0	0	7	5
101612	07:59:24	10002	Trial2BackFrS	NS	17	0	1000	1	118	07:59:24	2548898	5	3	3	3	3	3	3	3	3	5	3	2	0	0	0	7	5
101612	07:59:24	10002	Trial2BackFrS	YS	17	57	835	1	118	07:59:24	2550244	5	3	3	3	3	3	3	3	3	5	3	2	0	0	0	7	5
101612	07:59:24	10002	Trial2BackFrS	NS	17	0	1000	1	118	07:59:24	2551910	5	3	3	3	3	3	3	3	3	5	3	2	0	0	0	7	5
101612	07:59:24	10002	Trial2BackFrS	NS	17	0	1000	1	118	07:59:24	2553416	5	3	3	3	3	3	3	3	3	5	3	2	0	0	0	7	5
101612	07:59:24	10002	Trial2BackFrS	NS	17	0	1000	1	118	07:59:24	2554922	5	3	3	3	3	3	3	3	3	5	3	2	0	0	0	7	5
101612	07:59:24	10002	Trial2BackFrS	NS	17	0	1000	1	118	07:59:24	2556428	5	3	3	3	3	3	3	3	3	5	3	2	0	0	0	7	5
101612	07:59:24	10002	Trial2BackFrS	YS	17	0	1000	0	118	07:59:24	2557934	5	3	3	3	3	3	3	3	3	5	3	2	0	0	0	7	5
101612	07:59:24	10002	Trial2BackFrS	NS	17	0	1000	1	118	07:59:24	2559440	5	3	3	3	3	3	3	3	3	5	3	2	0	0	0	7	5
101612	07:59:24	10002	Trial2BackFrS	NS	17	0	1000	1	118	07:59:24	2560946	5	3	3	3	3	3	3	3	3	5	3	2	0	0	0	7	5
101612	07:59:24	10002	Trial2BackFrS	YS	17	57	434	1	118	07:59:24	2561893	5	3	3	3	3	3	3	3	3	5	3	2	0	0	0	7	5
101612	07:59:24	10002	Trial2BackFrS	NS	17	0	1000	1	118	07:59:24	2563958	5	3	3	3	3	3	3	3	3	5	3	2	0	0	0	7	5
101612	07:59:24	10002	Trial2BackFrS	NS	17	0	1000	1	118	07:59:24	2565464	5	3	3	3	3	3	3	3	3	5	3	2	0	0	0	7	5
101612	07:59:24	10002	Trial2BackFrS	NS	17	0	1000	1	118	07:59:24	2566971	5	3	3	3	3	3	3	3	3	5	3	2	0	0	0	7	5
101612	07:59:24	10002	Trial2BackFrS	NS	17	0	1000	1	118	07:59:24	2568477	5	3	3	3	3	3	3	3	3	5	3	2	0	0	0	7	5
101612	07:59:24	10002	Trial2BackFrS	NS	17	0	1000	1	118	07:59:24	2569983	5	3	3	3	3	3	3	3	3	5	3	2	0	0	0	7	5
101612	07:59:24	10002	Trial2BackFrS	NS	17	0	1000	1	118	07:59:24	2571489	5	3	3	3	3	3	3	3	3	5	3	2	0	0	0	7	5
101612	07:59:24	10002	Trial2BackFrS	YS	17	57	643	1	118	07:59:24	2572648	5	3	3	3	3	3	3	3	3	5	3	2	0	0	0	7	5
101612	07:59:24	10002	Trial2BackFrS	NS	17	0	1000	1	118	07:59:24	2574501	5	3	3	3	3	3	3	3	3	5	3	2	0	0	0	7	5
101612	07:59:24	10002	Trial2BackFrS	NS	17	0	1000	1	118	07:59:24	2576007	5	3	3	3	3	3	3	3	3	5	3	2	0	0	0	7	5
101612	07:59:24	10002	Trial2BackFrS	NS	17	0	1000	1	118	07:59:24	2577513	5	3	3	3	3	3	3	3	3	5	3	2	0	0	0	7	5
101612	07:59:24	10002	Trial2BackFrS	NS	17	0	1000	1	118	07:59:24	2579019	5	3	3	3	3	3	3	3	3	5	3	2	0	0	0	7	5
101612	07:59:24	10002	Trial2BackFrS	YS	17	0	1000	0	118	07:59:24	2580525	5	3	3	3	3	3	3	3	3	5	3	2	0	0	0	7	5
101612	07:59:24	10002	Trial2BackFrS	NS	17	57	919	0	118	07:59:24	2581964	5	3	3	3	3	3	3	3	3	5	3	2	0	0	0	7	5
101612	07:59:24	10002	Trial2BackFrS	NS	17	0	1000	1	118	07:59:24	2583537	5	3	3	3	3	3	3	3	3	5	3	2	0	0	0	7	5
101612	07:59:24	10002	Trial2BackFrS	NS	17	0	1000	1	118	07:59:24	2585057	5	3	3	3	3	3	3	3	3	5	3	2	0	0	0	7	5
101612	07:59:24	10002	Trial2BackFrS	NS	17	0	1000	1	118	07:59:24	2586563	5	3	3	3	3	3	3	3	3	5	3	2	0	0	0	7	5
101612	07:59:24	10002	Trial2BackFrS	YS	17	0	1000	0	118	07:59:24	2588069	5	3	3	3	3	3	3	3	3	5	3	2	0	0	0	7	5
101612	07:59:24	10002	Trial2BackFrS	NS	17	0	1000	1	118	07:59:24	2589575	5	3	3	3	3	3	3	3	3	5	3	2	0	0	0	7	5
101612	07:59:24	10002	Trial2BackFrS	NS	17	0	1000	1	118	07:59:24	2591081	5	3	3	3	3	3	3	3	3	5	3	2	0	0	0	7	5
101612	07:59:24	10002	Trial2BackFrS	YS	17	57	875	1	118	07:59:24	2592467	5	3	3	3	3	3	3	3	3	5	3	2	0	0	0	7	5
101612	07:59:24	10002	Trial2BackFrS	NS	17	0	1000	1	118	07:59:24	2594093	5	3	3	3	3	3	3	3	3	5	3	2	0	0	0	7	5
101612	07:59:24	10002	Trial2BackFrS	NS	17	0	1000	1	118	07:59:24	2595599	5	3	3	3	3	3	3	3	3	5	3	2	0	0	0	7	5
101612	07:59:24	10002	Trial2BackFrS	NS	17	0	1000	1	118	07:59:24	2597105	5	3	3	3	3	3	3	3	3	5	3	2	0	0	0	7	5
101612	07:59:24	10002	Trial2BackFrS	NS	17	0	1000	1	118	07:59:24	2598611	5	3	3	3	3	3	3	3	3	5	3	2	0	0	0	7	5
101612	07:59:24	10002	Trial2BackFrS	NS	17	0	1000	1	118	07:59:24	2600117	5	3	3	3	3	3	3	3	3	5	3	2	0	0	0	7	5
101612	07:59:24	10002	Trial2BackFrS	NS	17	0	1000	1	118	07:59:24	2601623	5	3	3	3	3	3	3	3	3	5	3	2	0	0	0	7	5
101612	07:59:24	10002	Trial2BackFrS	NS	17	0	1000	1	118	07:59:24	2603129	5	3	3	3	3	3	3	3	3	5	3	2	0	0	0	7	5
101612	07:59:24	10002	Trial2BackFrS	NS	17	0	1000	1	118	07:59:24	2604635	5	3	3	3	3	3	3	3	3	5	3	2	0	0	0	7	5
101612	07:59:24	10002	Trial2BackFrS	YS	17	0	1000	0	118	07:59:24	2606141	5	3	3	3	3	3	3	3	3	5	3	2	0	0	0	7	5
101612	07:59:24	10002	Trial2BackFrS	NS	17	0	1000	1	118	07:59:24	2607661	5	3	3	3	3	3	3	3	3	5	3	2	0	0	0	7	5
101612	07:59:24	10002	Trial2BackFrS	NS	17	0	1000	1	118	07:59:24	2609167	5	3	3	3	3	3	3	3	3	5	3	2	0	0	0	7	5
101612	07:59:24	10002	Trial2BackFrS	NS	17	0	1000	1	118	07:59:24	2610673	5	3	3	3	3	3	3	3	3	5	3	2	0	0	0	7	5
101612	07:59:24	10002	Trial2BackFrS	NS	17	0	1000	1	118	07:59:24	2612272	5	3	3	3	3	3	3	3	3	5	3	2	0	0	0	7	5
101612	07:59:24	10002	Trial2BackFrS	NS	17	0	1000	1	118	07:59:24	2613778	5	3	3	3	3	3	3	3	3	5	3	2	0	0	0	7	5
101612	07:59:24	10002	Trial2BackFrS	NS	17	0	1000	1	118	07:59:24	2615284	5	3	3	3	3	3	3	3	3	5	3	2	0	0	0	7	5
101612	07:59:24	10002	Trial2BackFrS	NS	17	0	1000	1	118	07:59:24	2616790	5	3	3	3	3	3	3	3	3	5	3	2	0	0	0	7	5
101612	07:59:24	10002	Trial2BackFrS	YS	17	0	1000	0	118	07:59:24	2618296	5	3	3	3	3	3	3	3	3	5	3	2	0	0	0	7	5
101612	07:59:24	10002	Trial2BackFrS	NS	17	0	1000	1	118	07:59:24	2619802	5	3	3	3	3	3	3	3	3	5	3	2	0	0	0	7	5
101612	07:59:24	10002	Trial2BackFrS	NS	17	0	1000	1	118	07:59:24	2621309	5	3	3	3	3	3	3	3	3	5	3	2	0	0	0	7	5
101612	07:59:24	10002	Trial2BackFrS	NS	17	0	1000	1	118	07:59:24	2622815	5	3	3	3	3	3	3	3	3	5	3	2	0	0	0	7	5
101612	07:59:24	10002	Trial2BackFrS	NS	17	0	1000	1	118	07:59:24	2624321	5	3	3	3	3	3	3	3	3	5	3	2	0	0	0	7	5
101612	07:59:24	10002	Trial2BackFrS	NS	17	0	1000	1	118	07:59:24	2625840	5	3	3	3	3	3	3	3	3	5	3	2	0	0	0	7	5
101612	07:59:24	10002	Trial2BackFrS	NS	17	0	1000	1	118	07:59:24	2627346	5	3	3	3	3	3	3	3	3	5	3	2	0	0	0	7	5
101612	07:59:24	10002	Trial2BackFrS	NS	17	0	1000	1	118	07:59:24	2628866	5	3	3	3	3	3	3	3	3	5	3	2	0	0	0	7	5
101612	07:59:24	10002	Trial2BackFrS	NS	17	0	1000	1	118	07:59:24	2630372	5	3	3	3	3	3	3	3	3	5	3	2	0	0	0	7	5
101612	07:59:24	10002	Trial2BackFrS	NS	17	0	1000	1	118	07:59:24	2631878	5	3	3	3	3	3	3	3	3	5	3	2	0	0	0	7	5
101612	07:59:24	10002	Trial2BackFrS	YS	17	0	1000	0	118	07:59:24	2633384	5	3	3	3	3	3	3	3	3	5	3	2	0	0	0	7	5
101612	07:59:24	10002	Trial2BackFrS	NS	17	0	1000	1	118	07:59:24	2634890	5	3	3	3	3	3	3	3	3	5	3	2	0	0	0	7	5
101612	07:59:24	10002	ClockFr6mo	ClockFr6mo	19	Clock1	22329	0	118	07:59:24	2657334	5	3	3	3	3	3	3	3	3	5	3	2	1	0	0	7	5
101612	07:59:24	10002	ClockFr6mo	ClockFr6mo	19	Clock11	33298	0	118	07:59:24	2690694	5	3	3	3	3	3	3	3	3	5	3	2	1	1	0	7	5
101612	07:59:24	10002	ClockFr6mo	ClockFr6mo	19	Clock111	1207	0	118	07:59:24	2691947	5	3	3	3	3	3	3	3	3	5	3	2	1	1	1	7	5
101612	07:59:24	10002	ClockFr6mo	ClockFr6mo	19	Clockdone	8714	0	118	07:59:24	2700717	5	3	3	3	3	3	3	3	3	5	3	2	1	1	1	7	5
101612	07:59:24	10002	FASFrVF6mo	StopFrVF6mo	20	11	41567	0	118	07:59:24	2854269	5	3	3	3	3	3	3	3	3	5	3	2	1	1	1	7	5
