date	time	subject	blockcode	trialcode	values.TaskNumber	response	latency	correct	values.Score	script.starttime	script.elapsedtime	values.ScoreS7	values.Word1	values.Word2	values.Word3	values.Word4	values.Word5	values.Word6	values.Word7	values.Word8	values.DigitSpanFwrd	values.DigitSpanBack	values.ScoreAbs	values.Contour	values.Numbers	values.Hands	values.corsiblockspanFwrd	values.corsiblockspanRev	values.problemnumber	values.subjectattempts	values.targetmoves	values.subjectmoves	expressions.excessmoves	values.movestring	expressions.targetachieved	values.problemscore	values.totalscoreTOL	expressions.firstmovetime	expressions.executiontime	expressions.solutiontime	values.t_choicestart	values.t_choiceend
010713	15:15:48	10024	Language	Language	0	French	836372	0	0	15:15:48	836494	0	0	0	0	0	0	0	0	0	0	0	0	0	0	0	0	0	0	0	0	0	0		1	0	0	0	0	0	0	0
010713	15:15:48	10024	Session	Session	0	6mo	1231	0	0	15:15:48	837787	0	0	0	0	0	0	0	0	0	0	0	0	0	0	0	0	0	0	0	0	0	0		1	0	0	0	0	0	0	0
010713	15:15:48	10024	HandFr	HandFr	0	RightFr	1554	0	0	15:15:48	839399	0	0	0	0	0	0	0	0	0	0	0	0	0	0	0	0	0	0	0	0	0	0		1	0	0	0	0	0	0	0
010713	15:15:48	10024	AudioCheckFr	WordsFr	0	0	0	0	0	15:15:48	1239800	0	0	0	0	0	0	0	0	0	0	0	0	0	0	0	0	0	0	0	0	0	0		1	0	0	0	0	0	0	0
010713	15:15:48	10024	CubeFr	CubeFr	1	2Cube	82891	0	0	15:15:48	1324656	0	0	0	0	0	0	0	0	0	0	0	0	0	0	0	0	0	0	0	0	0	0		1	0	0	0	0	0	0	0
010713	15:15:48	10024	pm.simpleFrRight	blank.simpleFr	2	0	1700	1	0	15:15:48	1364453	0	0	0	0	0	0	0	0	0	0	0	0	0	0	0	0	0	0	0	0	0	0		1	0	0	0	0	0	0	0
010713	15:15:48	10024	pm.simpleFrRight	pm.simpleFr	2	57	315	0	0	15:15:48	1364786	0	0	0	0	0	0	0	0	0	0	0	0	0	0	0	0	0	0	0	0	0	0		1	0	0	0	0	0	0	0
010713	15:15:48	10024	pm.simpleFrRight	blank.simpleFr	2	0	2400	1	0	15:15:48	1367212	0	0	0	0	0	0	0	0	0	0	0	0	0	0	0	0	0	0	0	0	0	0		1	0	0	0	0	0	0	0
010713	15:15:48	10024	pm.simpleFrRight	pm.simpleFr	2	57	230	0	0	15:15:48	1367465	0	0	0	0	0	0	0	0	0	0	0	0	0	0	0	0	0	0	0	0	0	0		1	0	0	0	0	0	0	0
010713	15:15:48	10024	pm.simpleFrRight	blank.simpleFr	2	0	1800	1	0	15:15:48	1369278	0	0	0	0	0	0	0	0	0	0	0	0	0	0	0	0	0	0	0	0	0	0		1	0	0	0	0	0	0	0
010713	15:15:48	10024	pm.simpleFrRight	pm.simpleFr	2	57	244	0	0	15:15:48	1369544	0	0	0	0	0	0	0	0	0	0	0	0	0	0	0	0	0	0	0	0	0	0		1	0	0	0	0	0	0	0
010713	15:15:48	10024	pm.simpleFrRight	blank.simpleFr	2	0	1900	1	0	15:15:48	1371463	0	0	0	0	0	0	0	0	0	0	0	0	0	0	0	0	0	0	0	0	0	0		1	0	0	0	0	0	0	0
010713	15:15:48	10024	pm.simpleFrRight	pm.simpleFr	2	57	234	0	0	15:15:48	1371717	0	0	0	0	0	0	0	0	0	0	0	0	0	0	0	0	0	0	0	0	0	0		1	0	0	0	0	0	0	0
010713	15:15:48	10024	pm.simpleFrRight	blank.simpleFr	2	0	1600	1	0	15:15:48	1373329	0	0	0	0	0	0	0	0	0	0	0	0	0	0	0	0	0	0	0	0	0	0		1	0	0	0	0	0	0	0
010713	15:15:48	10024	pm.simpleFrRight	pm.simpleFr	2	57	256	0	0	15:15:48	1373609	0	0	0	0	0	0	0	0	0	0	0	0	0	0	0	0	0	0	0	0	0	0		1	0	0	0	0	0	0	0
010713	15:15:48	10024	pm.simpleFrRight	blank.simpleFr	2	0	2200	1	0	15:15:48	1375822	0	0	0	0	0	0	0	0	0	0	0	0	0	0	0	0	0	0	0	0	0	0		1	0	0	0	0	0	0	0
010713	15:15:48	10024	pm.simpleFrRight	pm.simpleFr	2	57	260	0	0	15:15:48	1376102	0	0	0	0	0	0	0	0	0	0	0	0	0	0	0	0	0	0	0	0	0	0		1	0	0	0	0	0	0	0
010713	15:15:48	10024	pm.simpleFrRight	blank.simpleFr	2	0	2100	1	0	15:15:48	1378221	0	0	0	0	0	0	0	0	0	0	0	0	0	0	0	0	0	0	0	0	0	0		1	0	0	0	0	0	0	0
010713	15:15:48	10024	pm.simpleFrRight	pm.simpleFr	2	57	244	0	0	15:15:48	1378487	0	0	0	0	0	0	0	0	0	0	0	0	0	0	0	0	0	0	0	0	0	0		1	0	0	0	0	0	0	0
010713	15:15:48	10024	pm.simpleFrRight	blank.simpleFr	2	0	1500	1	0	15:15:48	1380007	0	0	0	0	0	0	0	0	0	0	0	0	0	0	0	0	0	0	0	0	0	0		1	0	0	0	0	0	0	0
010713	15:15:48	10024	pm.simpleFrRight	pm.simpleFr	2	57	313	0	0	15:15:48	1380340	0	0	0	0	0	0	0	0	0	0	0	0	0	0	0	0	0	0	0	0	0	0		1	0	0	0	0	0	0	0
010713	15:15:48	10024	pm.simpleFrRight	blank.simpleFr	2	0	2300	1	0	15:15:48	1382659	0	0	0	0	0	0	0	0	0	0	0	0	0	0	0	0	0	0	0	0	0	0		1	0	0	0	0	0	0	0
010713	15:15:48	10024	pm.simpleFrRight	pm.simpleFr	2	57	238	0	0	15:15:48	1382925	0	0	0	0	0	0	0	0	0	0	0	0	0	0	0	0	0	0	0	0	0	0		1	0	0	0	0	0	0	0
010713	15:15:48	10024	pm.simpleFrRight	blank.simpleFr	2	0	2500	1	0	15:15:48	1385445	0	0	0	0	0	0	0	0	0	0	0	0	0	0	0	0	0	0	0	0	0	0		1	0	0	0	0	0	0	0
010713	15:15:48	10024	pm.simpleFrRight	pm.simpleFr	2	57	284	0	0	15:15:48	1385751	0	0	0	0	0	0	0	0	0	0	0	0	0	0	0	0	0	0	0	0	0	0		1	0	0	0	0	0	0	0
010713	15:15:48	10024	pm.simpleFrRight	blank.simpleFr	2	0	2000	1	0	15:15:48	1387764	0	0	0	0	0	0	0	0	0	0	0	0	0	0	0	0	0	0	0	0	0	0		1	0	0	0	0	0	0	0
010713	15:15:48	10024	pm.simpleFrRight	pm.simpleFr	2	57	263	0	0	15:15:48	1388044	0	0	0	0	0	0	0	0	0	0	0	0	0	0	0	0	0	0	0	0	0	0		1	0	0	0	0	0	0	0
010713	15:15:48	10024	pm.simpleFrRight	blank.simpleFr	2	0	2400	1	0	15:15:48	1390469	0	0	0	0	0	0	0	0	0	0	0	0	0	0	0	0	0	0	0	0	0	0		1	0	0	0	0	0	0	0
010713	15:15:48	10024	pm.simpleFrRight	pm.simpleFr	2	57	236	0	0	15:15:48	1390722	0	0	0	0	0	0	0	0	0	0	0	0	0	0	0	0	0	0	0	0	0	0		1	0	0	0	0	0	0	0
010713	15:15:48	10024	pm.simpleFrRight	blank.simpleFr	2	0	2000	1	0	15:15:48	1392735	0	0	0	0	0	0	0	0	0	0	0	0	0	0	0	0	0	0	0	0	0	0		1	0	0	0	0	0	0	0
010713	15:15:48	10024	pm.simpleFrRight	pm.simpleFr	2	57	242	0	0	15:15:48	1393001	0	0	0	0	0	0	0	0	0	0	0	0	0	0	0	0	0	0	0	0	0	0		1	0	0	0	0	0	0	0
010713	15:15:48	10024	pm.simpleFrRight	blank.simpleFr	2	0	1700	1	0	15:15:48	1394721	0	0	0	0	0	0	0	0	0	0	0	0	0	0	0	0	0	0	0	0	0	0		1	0	0	0	0	0	0	0
010713	15:15:48	10024	pm.simpleFrRight	pm.simpleFr	2	57	256	0	0	15:15:48	1395001	0	0	0	0	0	0	0	0	0	0	0	0	0	0	0	0	0	0	0	0	0	0		1	0	0	0	0	0	0	0
010713	15:15:48	10024	pm.simpleFrRight	blank.simpleFr	2	0	2300	1	0	15:15:48	1397320	0	0	0	0	0	0	0	0	0	0	0	0	0	0	0	0	0	0	0	0	0	0		1	0	0	0	0	0	0	0
010713	15:15:48	10024	pm.simpleFrRight	pm.simpleFr	2	57	233	0	0	15:15:48	1397573	0	0	0	0	0	0	0	0	0	0	0	0	0	0	0	0	0	0	0	0	0	0		1	0	0	0	0	0	0	0
010713	15:15:48	10024	pm.simpleFrRight	blank.simpleFr	2	0	2200	1	0	15:15:48	1399785	0	0	0	0	0	0	0	0	0	0	0	0	0	0	0	0	0	0	0	0	0	0		1	0	0	0	0	0	0	0
010713	15:15:48	10024	pm.simpleFrRight	pm.simpleFr	2	57	231	0	0	15:15:48	1400039	0	0	0	0	0	0	0	0	0	0	0	0	0	0	0	0	0	0	0	0	0	0		1	0	0	0	0	0	0	0
010713	15:15:48	10024	pm.simpleFrRight	blank.simpleFr	2	0	2500	1	0	15:15:48	1402557	0	0	0	0	0	0	0	0	0	0	0	0	0	0	0	0	0	0	0	0	0	0		1	0	0	0	0	0	0	0
010713	15:15:48	10024	pm.simpleFrRight	pm.simpleFr	2	57	227	0	0	15:15:48	1402811	0	0	0	0	0	0	0	0	0	0	0	0	0	0	0	0	0	0	0	0	0	0		1	0	0	0	0	0	0	0
010713	15:15:48	10024	pm.simpleFrRight	blank.simpleFr	2	0	1500	1	0	15:15:48	1404331	0	0	0	0	0	0	0	0	0	0	0	0	0	0	0	0	0	0	0	0	0	0		1	0	0	0	0	0	0	0
010713	15:15:48	10024	pm.simpleFrRight	pm.simpleFr	2	57	310	0	0	15:15:48	1404664	0	0	0	0	0	0	0	0	0	0	0	0	0	0	0	0	0	0	0	0	0	0		1	0	0	0	0	0	0	0
010713	15:15:48	10024	pm.simpleFrRight	blank.simpleFr	2	0	2100	1	0	15:15:48	1406782	0	0	0	0	0	0	0	0	0	0	0	0	0	0	0	0	0	0	0	0	0	0		1	0	0	0	0	0	0	0
010713	15:15:48	10024	pm.simpleFrRight	pm.simpleFr	2	57	258	0	0	15:15:48	1407062	0	0	0	0	0	0	0	0	0	0	0	0	0	0	0	0	0	0	0	0	0	0		1	0	0	0	0	0	0	0
010713	15:15:48	10024	pm.simpleFrRight	blank.simpleFr	2	0	1600	1	0	15:15:48	1408675	0	0	0	0	0	0	0	0	0	0	0	0	0	0	0	0	0	0	0	0	0	0		1	0	0	0	0	0	0	0
010713	15:15:48	10024	pm.simpleFrRight	pm.simpleFr	2	57	301	0	0	15:15:48	1408995	0	0	0	0	0	0	0	0	0	0	0	0	0	0	0	0	0	0	0	0	0	0		1	0	0	0	0	0	0	0
010713	15:15:48	10024	pm.simpleFrRight	blank.simpleFr	2	0	1800	1	0	15:15:48	1410808	0	0	0	0	0	0	0	0	0	0	0	0	0	0	0	0	0	0	0	0	0	0		1	0	0	0	0	0	0	0
010713	15:15:48	10024	pm.simpleFrRight	pm.simpleFr	2	57	249	0	0	15:15:48	1411074	0	0	0	0	0	0	0	0	0	0	0	0	0	0	0	0	0	0	0	0	0	0		1	0	0	0	0	0	0	0
010713	15:15:48	10024	pm.simpleFrRight	blank.simpleFr	2	0	1900	1	0	15:15:48	1412993	0	0	0	0	0	0	0	0	0	0	0	0	0	0	0	0	0	0	0	0	0	0		1	0	0	0	0	0	0	0
010713	15:15:48	10024	pm.simpleFrRight	pm.simpleFr	2	57	239	0	0	15:15:48	1413260	0	0	0	0	0	0	0	0	0	0	0	0	0	0	0	0	0	0	0	0	0	0		1	0	0	0	0	0	0	0
010713	15:15:48	10024	pm.simpleFrRight	blank.simpleFr	2	0	1500	1	0	15:15:48	1414779	0	0	0	0	0	0	0	0	0	0	0	0	0	0	0	0	0	0	0	0	0	0		1	0	0	0	0	0	0	0
010713	15:15:48	10024	pm.simpleFrRight	pm.simpleFr	2	57	261	0	0	15:15:48	1415059	0	0	0	0	0	0	0	0	0	0	0	0	0	0	0	0	0	0	0	0	0	0		1	0	0	0	0	0	0	0
010713	15:15:48	10024	pm.simpleFrRight	blank.simpleFr	2	0	1600	1	0	15:15:48	1416672	0	0	0	0	0	0	0	0	0	0	0	0	0	0	0	0	0	0	0	0	0	0		1	0	0	0	0	0	0	0
010713	15:15:48	10024	pm.simpleFrRight	pm.simpleFr	2	57	240	0	0	15:15:48	1416939	0	0	0	0	0	0	0	0	0	0	0	0	0	0	0	0	0	0	0	0	0	0		1	0	0	0	0	0	0	0
010713	15:15:48	10024	pm.simpleFrRight	blank.simpleFr	2	0	2200	1	0	15:15:48	1419151	0	0	0	0	0	0	0	0	0	0	0	0	0	0	0	0	0	0	0	0	0	0		1	0	0	0	0	0	0	0
010713	15:15:48	10024	pm.simpleFrRight	pm.simpleFr	2	57	225	0	0	15:15:48	1419404	0	0	0	0	0	0	0	0	0	0	0	0	0	0	0	0	0	0	0	0	0	0		1	0	0	0	0	0	0	0
010713	15:15:48	10024	pm.simpleFrRight	blank.simpleFr	2	0	2100	1	0	15:15:48	1421523	0	0	0	0	0	0	0	0	0	0	0	0	0	0	0	0	0	0	0	0	0	0		1	0	0	0	0	0	0	0
010713	15:15:48	10024	pm.simpleFrRight	pm.simpleFr	2	57	237	0	0	15:15:48	1421776	0	0	0	0	0	0	0	0	0	0	0	0	0	0	0	0	0	0	0	0	0	0		1	0	0	0	0	0	0	0
010713	15:15:48	10024	pm.simpleFrRight	blank.simpleFr	2	0	1800	1	0	15:15:48	1423589	0	0	0	0	0	0	0	0	0	0	0	0	0	0	0	0	0	0	0	0	0	0		1	0	0	0	0	0	0	0
010713	15:15:48	10024	pm.simpleFrRight	pm.simpleFr	2	57	235	0	0	15:15:48	1423843	0	0	0	0	0	0	0	0	0	0	0	0	0	0	0	0	0	0	0	0	0	0		1	0	0	0	0	0	0	0
010713	15:15:48	10024	pm.simpleFrRight	blank.simpleFr	2	0	2500	1	0	15:15:48	1426361	0	0	0	0	0	0	0	0	0	0	0	0	0	0	0	0	0	0	0	0	0	0		1	0	0	0	0	0	0	0
010713	15:15:48	10024	pm.simpleFrRight	pm.simpleFr	2	57	278	0	0	15:15:48	1426668	0	0	0	0	0	0	0	0	0	0	0	0	0	0	0	0	0	0	0	0	0	0		1	0	0	0	0	0	0	0
010713	15:15:48	10024	pm.simpleFrRight	blank.simpleFr	2	0	2300	1	0	15:15:48	1428987	0	0	0	0	0	0	0	0	0	0	0	0	0	0	0	0	0	0	0	0	0	0		1	0	0	0	0	0	0	0
010713	15:15:48	10024	pm.simpleFrRight	pm.simpleFr	2	57	245	0	0	15:15:48	1429253	0	0	0	0	0	0	0	0	0	0	0	0	0	0	0	0	0	0	0	0	0	0		1	0	0	0	0	0	0	0
010713	15:15:48	10024	pm.simpleFrRight	blank.simpleFr	2	0	2000	1	0	15:15:48	1431292	0	0	0	0	0	0	0	0	0	0	0	0	0	0	0	0	0	0	0	0	0	0		1	0	0	0	0	0	0	0
010713	15:15:48	10024	pm.simpleFrRight	pm.simpleFr	2	57	275	0	0	15:15:48	1431586	0	0	0	0	0	0	0	0	0	0	0	0	0	0	0	0	0	0	0	0	0	0		1	0	0	0	0	0	0	0
010713	15:15:48	10024	pm.simpleFrRight	blank.simpleFr	2	0	1700	1	0	15:15:48	1433305	0	0	0	0	0	0	0	0	0	0	0	0	0	0	0	0	0	0	0	0	0	0		1	0	0	0	0	0	0	0
010713	15:15:48	10024	pm.simpleFrRight	pm.simpleFr	2	57	246	0	0	15:15:48	1433572	0	0	0	0	0	0	0	0	0	0	0	0	0	0	0	0	0	0	0	0	0	0		1	0	0	0	0	0	0	0
010713	15:15:48	10024	pm.simpleFrRight	blank.simpleFr	2	0	2400	1	0	15:15:48	1435984	0	0	0	0	0	0	0	0	0	0	0	0	0	0	0	0	0	0	0	0	0	0		1	0	0	0	0	0	0	0
010713	15:15:48	10024	pm.simpleFrRight	pm.simpleFr	2	57	224	0	0	15:15:48	1436237	0	0	0	0	0	0	0	0	0	0	0	0	0	0	0	0	0	0	0	0	0	0		1	0	0	0	0	0	0	0
010713	15:15:48	10024	pm.simpleFrRight	blank.simpleFr	2	0	1900	1	0	15:15:48	1438157	0	0	0	0	0	0	0	0	0	0	0	0	0	0	0	0	0	0	0	0	0	0		1	0	0	0	0	0	0	0
010713	15:15:48	10024	pm.simpleFrRight	pm.simpleFr	2	57	291	0	0	15:15:48	1438478	0	0	0	0	0	0	0	0	0	0	0	0	0	0	0	0	0	0	0	0	0	0		1	0	0	0	0	0	0	0
010713	15:15:48	10024	pm.simpleFrRight	blank.simpleFr	2	0	2400	1	0	15:15:48	1440902	0	0	0	0	0	0	0	0	0	0	0	0	0	0	0	0	0	0	0	0	0	0		1	0	0	0	0	0	0	0
010713	15:15:48	10024	pm.simpleFrRight	pm.simpleFr	2	57	266	0	0	15:15:48	1441195	0	0	0	0	0	0	0	0	0	0	0	0	0	0	0	0	0	0	0	0	0	0		1	0	0	0	0	0	0	0
010713	15:15:48	10024	pm.simpleFrRight	blank.simpleFr	2	0	2300	1	0	15:15:48	1443514	0	0	0	0	0	0	0	0	0	0	0	0	0	0	0	0	0	0	0	0	0	0		1	0	0	0	0	0	0	0
010713	15:15:48	10024	pm.simpleFrRight	pm.simpleFr	2	57	277	0	0	15:15:48	1443821	0	0	0	0	0	0	0	0	0	0	0	0	0	0	0	0	0	0	0	0	0	0		1	0	0	0	0	0	0	0
010713	15:15:48	10024	pm.simpleFrRight	blank.simpleFr	2	0	2200	1	0	15:15:48	1446047	0	0	0	0	0	0	0	0	0	0	0	0	0	0	0	0	0	0	0	0	0	0		1	0	0	0	0	0	0	0
010713	15:15:48	10024	pm.simpleFrRight	pm.simpleFr	2	57	225	0	0	15:15:48	1446300	0	0	0	0	0	0	0	0	0	0	0	0	0	0	0	0	0	0	0	0	0	0		1	0	0	0	0	0	0	0
010713	15:15:48	10024	pm.simpleFrRight	blank.simpleFr	2	0	2100	1	0	15:15:48	1448419	0	0	0	0	0	0	0	0	0	0	0	0	0	0	0	0	0	0	0	0	0	0		1	0	0	0	0	0	0	0
010713	15:15:48	10024	pm.simpleFrRight	pm.simpleFr	2	57	236	0	0	15:15:48	1448672	0	0	0	0	0	0	0	0	0	0	0	0	0	0	0	0	0	0	0	0	0	0		1	0	0	0	0	0	0	0
010713	15:15:48	10024	pm.simpleFrRight	blank.simpleFr	2	0	1900	1	0	15:15:48	1450592	0	0	0	0	0	0	0	0	0	0	0	0	0	0	0	0	0	0	0	0	0	0		1	0	0	0	0	0	0	0
010713	15:15:48	10024	pm.simpleFrRight	pm.simpleFr	2	57	245	0	0	15:15:48	1450858	0	0	0	0	0	0	0	0	0	0	0	0	0	0	0	0	0	0	0	0	0	0		1	0	0	0	0	0	0	0
010713	15:15:48	10024	pm.simpleFrRight	blank.simpleFr	2	0	1600	1	0	15:15:48	1452471	0	0	0	0	0	0	0	0	0	0	0	0	0	0	0	0	0	0	0	0	0	0		1	0	0	0	0	0	0	0
010713	15:15:48	10024	pm.simpleFrRight	pm.simpleFr	2	57	232	0	0	15:15:48	1452724	0	0	0	0	0	0	0	0	0	0	0	0	0	0	0	0	0	0	0	0	0	0		1	0	0	0	0	0	0	0
010713	15:15:48	10024	pm.simpleFrRight	blank.simpleFr	2	0	2000	1	0	15:15:48	1454736	0	0	0	0	0	0	0	0	0	0	0	0	0	0	0	0	0	0	0	0	0	0		1	0	0	0	0	0	0	0
010713	15:15:48	10024	pm.simpleFrRight	pm.simpleFr	2	57	254	0	0	15:15:48	1455016	0	0	0	0	0	0	0	0	0	0	0	0	0	0	0	0	0	0	0	0	0	0		1	0	0	0	0	0	0	0
010713	15:15:48	10024	Trial2BackFr	N	3	0	1000	1	1	15:15:48	1502331	0	0	0	0	0	0	0	0	0	0	0	0	0	0	0	0	0	0	0	0	0	0		1	0	0	0	0	0	0	0
010713	15:15:48	10024	Trial2BackFr	N	3	0	1000	1	2	15:15:48	1503836	0	0	0	0	0	0	0	0	0	0	0	0	0	0	0	0	0	0	0	0	0	0		1	0	0	0	0	0	0	0
010713	15:15:48	10024	Trial2BackFr	N	3	0	1000	1	3	15:15:48	1505342	0	0	0	0	0	0	0	0	0	0	0	0	0	0	0	0	0	0	0	0	0	0		1	0	0	0	0	0	0	0
010713	15:15:48	10024	Trial2BackFr	N	3	0	1000	1	4	15:15:48	1506863	0	0	0	0	0	0	0	0	0	0	0	0	0	0	0	0	0	0	0	0	0	0		1	0	0	0	0	0	0	0
010713	15:15:48	10024	Trial2BackFr	N	3	0	1000	1	5	15:15:48	1508381	0	0	0	0	0	0	0	0	0	0	0	0	0	0	0	0	0	0	0	0	0	0		1	0	0	0	0	0	0	0
010713	15:15:48	10024	Trial2BackFr	N	3	0	1000	1	6	15:15:48	1509887	0	0	0	0	0	0	0	0	0	0	0	0	0	0	0	0	0	0	0	0	0	0		1	0	0	0	0	0	0	0
010713	15:15:48	10024	Trial2BackFr	N	3	0	1000	1	7	15:15:48	1511393	0	0	0	0	0	0	0	0	0	0	0	0	0	0	0	0	0	0	0	0	0	0		1	0	0	0	0	0	0	0
010713	15:15:48	10024	Trial2BackFr	N	3	57	821	0	7	15:15:48	1512726	0	0	0	0	0	0	0	0	0	0	0	0	0	0	0	0	0	0	0	0	0	0		1	0	0	0	0	0	0	0
010713	15:15:48	10024	Trial2BackFr	Y	3	57	815	1	8	15:15:48	1514233	0	0	0	0	0	0	0	0	0	0	0	0	0	0	0	0	0	0	0	0	0	0		1	0	0	0	0	0	0	0
010713	15:15:48	10024	Trial2BackFr	N	3	0	1000	1	9	15:15:48	1515911	0	0	0	0	0	0	0	0	0	0	0	0	0	0	0	0	0	0	0	0	0	0		1	0	0	0	0	0	0	0
010713	15:15:48	10024	Trial2BackFr	N	3	0	1000	1	10	15:15:48	1517418	0	0	0	0	0	0	0	0	0	0	0	0	0	0	0	0	0	0	0	0	0	0		1	0	0	0	0	0	0	0
010713	15:15:48	10024	Trial2BackFr	N	3	0	1000	1	11	15:15:48	1518924	0	0	0	0	0	0	0	0	0	0	0	0	0	0	0	0	0	0	0	0	0	0		1	0	0	0	0	0	0	0
010713	15:15:48	10024	Trial2BackFr	Y	3	57	471	1	12	15:15:48	1519910	0	0	0	0	0	0	0	0	0	0	0	0	0	0	0	0	0	0	0	0	0	0		1	0	0	0	0	0	0	0
010713	15:15:48	10024	Trial2BackFr	N	3	0	1000	1	13	15:15:48	1521936	0	0	0	0	0	0	0	0	0	0	0	0	0	0	0	0	0	0	0	0	0	0		1	0	0	0	0	0	0	0
010713	15:15:48	10024	Trial2BackFr	N	3	0	1000	1	14	15:15:48	1523442	0	0	0	0	0	0	0	0	0	0	0	0	0	0	0	0	0	0	0	0	0	0		1	0	0	0	0	0	0	0
010713	15:15:48	10024	Trial2BackFr	N	3	0	1000	1	15	15:15:48	1524961	0	0	0	0	0	0	0	0	0	0	0	0	0	0	0	0	0	0	0	0	0	0		1	0	0	0	0	0	0	0
010713	15:15:48	10024	Trial2BackFr	N	3	0	1000	1	16	15:15:48	1526467	0	0	0	0	0	0	0	0	0	0	0	0	0	0	0	0	0	0	0	0	0	0		1	0	0	0	0	0	0	0
010713	15:15:48	10024	Trial2BackFr	N	3	0	1000	1	17	15:15:48	1527973	0	0	0	0	0	0	0	0	0	0	0	0	0	0	0	0	0	0	0	0	0	0		1	0	0	0	0	0	0	0
010713	15:15:48	10024	Trial2BackFr	Y	3	57	525	1	18	15:15:48	1529013	0	0	0	0	0	0	0	0	0	0	0	0	0	0	0	0	0	0	0	0	0	0		1	0	0	0	0	0	0	0
010713	15:15:48	10024	Trial2BackFr	N	3	0	1000	1	19	15:15:48	1530986	0	0	0	0	0	0	0	0	0	0	0	0	0	0	0	0	0	0	0	0	0	0		1	0	0	0	0	0	0	0
010713	15:15:48	10024	Trial2BackFr	N	3	0	1000	1	20	15:15:48	1532491	0	0	0	0	0	0	0	0	0	0	0	0	0	0	0	0	0	0	0	0	0	0		1	0	0	0	0	0	0	0
010713	15:15:48	10024	Trial2BackFr	N	3	0	1000	1	21	15:15:48	1534011	0	0	0	0	0	0	0	0	0	0	0	0	0	0	0	0	0	0	0	0	0	0		1	0	0	0	0	0	0	0
010713	15:15:48	10024	Trial2BackFr	N	3	0	1000	1	22	15:15:48	1535530	0	0	0	0	0	0	0	0	0	0	0	0	0	0	0	0	0	0	0	0	0	0		1	0	0	0	0	0	0	0
010713	15:15:48	10024	Trial2BackFr	Y	3	57	552	1	23	15:15:48	1536596	0	0	0	0	0	0	0	0	0	0	0	0	0	0	0	0	0	0	0	0	0	0		1	0	0	0	0	0	0	0
010713	15:15:48	10024	Trial2BackFr	N	3	0	1000	1	24	15:15:48	1538542	0	0	0	0	0	0	0	0	0	0	0	0	0	0	0	0	0	0	0	0	0	0		1	0	0	0	0	0	0	0
010713	15:15:48	10024	Trial2BackFr	N	3	0	1000	1	25	15:15:48	1540048	0	0	0	0	0	0	0	0	0	0	0	0	0	0	0	0	0	0	0	0	0	0		1	0	0	0	0	0	0	0
010713	15:15:48	10024	Trial2BackFr	N	3	0	1000	1	26	15:15:48	1541568	0	0	0	0	0	0	0	0	0	0	0	0	0	0	0	0	0	0	0	0	0	0		1	0	0	0	0	0	0	0
010713	15:15:48	10024	Trial2BackFr	N	3	0	1000	1	27	15:15:48	1543100	0	0	0	0	0	0	0	0	0	0	0	0	0	0	0	0	0	0	0	0	0	0		1	0	0	0	0	0	0	0
010713	15:15:48	10024	Trial2BackFr	N	3	0	1000	1	28	15:15:48	1544620	0	0	0	0	0	0	0	0	0	0	0	0	0	0	0	0	0	0	0	0	0	0		1	0	0	0	0	0	0	0
010713	15:15:48	10024	Trial2BackFr	N	3	0	1000	1	29	15:15:48	1546126	0	0	0	0	0	0	0	0	0	0	0	0	0	0	0	0	0	0	0	0	0	0		1	0	0	0	0	0	0	0
010713	15:15:48	10024	Trial2BackFr	Y	3	57	355	1	30	15:15:48	1546992	0	0	0	0	0	0	0	0	0	0	0	0	0	0	0	0	0	0	0	0	0	0		1	0	0	0	0	0	0	0
010713	15:15:48	10024	Trial2BackFr	N	3	0	1000	1	31	15:15:48	1549138	0	0	0	0	0	0	0	0	0	0	0	0	0	0	0	0	0	0	0	0	0	0		1	0	0	0	0	0	0	0
010713	15:15:48	10024	Trial2BackFr	N	3	57	859	0	31	15:15:48	1550511	0	0	0	0	0	0	0	0	0	0	0	0	0	0	0	0	0	0	0	0	0	0		1	0	0	0	0	0	0	0
010713	15:15:48	10024	Trial2BackFr	N	3	0	1000	1	32	15:15:48	1552150	0	0	0	0	0	0	0	0	0	0	0	0	0	0	0	0	0	0	0	0	0	0		1	0	0	0	0	0	0	0
010713	15:15:48	10024	Trial2BackFr	Y	3	57	683	1	33	15:15:48	1553350	0	0	0	0	0	0	0	0	0	0	0	0	0	0	0	0	0	0	0	0	0	0		1	0	0	0	0	0	0	0
010713	15:15:48	10024	Trial2BackFr	N	3	0	1000	1	34	15:15:48	1555162	0	0	0	0	0	0	0	0	0	0	0	0	0	0	0	0	0	0	0	0	0	0		1	0	0	0	0	0	0	0
010713	15:15:48	10024	Trial2BackFr	N	3	0	1000	1	35	15:15:48	1556669	0	0	0	0	0	0	0	0	0	0	0	0	0	0	0	0	0	0	0	0	0	0		1	0	0	0	0	0	0	0
010713	15:15:48	10024	Trial2BackFr	N	3	0	1000	1	36	15:15:48	1558188	0	0	0	0	0	0	0	0	0	0	0	0	0	0	0	0	0	0	0	0	0	0		1	0	0	0	0	0	0	0
010713	15:15:48	10024	Trial2BackFr	N	3	0	1000	1	37	15:15:48	1559694	0	0	0	0	0	0	0	0	0	0	0	0	0	0	0	0	0	0	0	0	0	0		1	0	0	0	0	0	0	0
010713	15:15:48	10024	Trial2BackFr	N	3	0	1000	1	38	15:15:48	1561200	0	0	0	0	0	0	0	0	0	0	0	0	0	0	0	0	0	0	0	0	0	0		1	0	0	0	0	0	0	0
010713	15:15:48	10024	Trial2BackFr	N	3	0	1000	1	39	15:15:48	1562719	0	0	0	0	0	0	0	0	0	0	0	0	0	0	0	0	0	0	0	0	0	0		1	0	0	0	0	0	0	0
010713	15:15:48	10024	Trial2BackFr	Y	3	57	530	1	40	15:15:48	1563759	0	0	0	0	0	0	0	0	0	0	0	0	0	0	0	0	0	0	0	0	0	0		1	0	0	0	0	0	0	0
010713	15:15:48	10024	Trial2BackFr	N	3	0	1000	1	41	15:15:48	1565731	0	0	0	0	0	0	0	0	0	0	0	0	0	0	0	0	0	0	0	0	0	0		1	0	0	0	0	0	0	0
010713	15:15:48	10024	Trial2BackFr	N	3	0	1000	1	42	15:15:48	1567252	0	0	0	0	0	0	0	0	0	0	0	0	0	0	0	0	0	0	0	0	0	0		1	0	0	0	0	0	0	0
010713	15:15:48	10024	Trial2BackFr	N	3	0	1000	1	43	15:15:48	1568770	0	0	0	0	0	0	0	0	0	0	0	0	0	0	0	0	0	0	0	0	0	0		1	0	0	0	0	0	0	0
010713	15:15:48	10024	Trial2BackFr	N	3	0	1000	1	44	15:15:48	1570276	0	0	0	0	0	0	0	0	0	0	0	0	0	0	0	0	0	0	0	0	0	0		1	0	0	0	0	0	0	0
010713	15:15:48	10024	Trial2BackFr	Y	3	57	509	1	45	15:15:48	1571302	0	0	0	0	0	0	0	0	0	0	0	0	0	0	0	0	0	0	0	0	0	0		1	0	0	0	0	0	0	0
010713	15:15:48	10024	Trial2BackFr	N	3	0	1000	1	46	15:15:48	1573288	0	0	0	0	0	0	0	0	0	0	0	0	0	0	0	0	0	0	0	0	0	0		1	0	0	0	0	0	0	0
010713	15:15:48	10024	Trial2BackFr	N	3	0	1000	1	47	15:15:48	1574794	0	0	0	0	0	0	0	0	0	0	0	0	0	0	0	0	0	0	0	0	0	0		1	0	0	0	0	0	0	0
010713	15:15:48	10024	Trial2BackFr	N	3	0	1000	1	48	15:15:48	1576314	0	0	0	0	0	0	0	0	0	0	0	0	0	0	0	0	0	0	0	0	0	0		1	0	0	0	0	0	0	0
010713	15:15:48	10024	Trial2BackFr	N	3	0	1000	1	49	15:15:48	1577833	0	0	0	0	0	0	0	0	0	0	0	0	0	0	0	0	0	0	0	0	0	0		1	0	0	0	0	0	0	0
010713	15:15:48	10024	Trial2BackFr	N	3	0	1000	1	50	15:15:48	1579352	0	0	0	0	0	0	0	0	0	0	0	0	0	0	0	0	0	0	0	0	0	0		1	0	0	0	0	0	0	0
010713	15:15:48	10024	Trial2BackFr	Y	3	57	600	1	51	15:15:48	1580472	0	0	0	0	0	0	0	0	0	0	0	0	0	0	0	0	0	0	0	0	0	0		1	0	0	0	0	0	0	0
010713	15:15:48	10024	Trial2BackFr	N	3	0	1000	1	52	15:15:48	1582365	0	0	0	0	0	0	0	0	0	0	0	0	0	0	0	0	0	0	0	0	0	0		1	0	0	0	0	0	0	0
010713	15:15:48	10024	Trial2BackFr	N	3	0	1000	1	53	15:15:48	1583871	0	0	0	0	0	0	0	0	0	0	0	0	0	0	0	0	0	0	0	0	0	0		1	0	0	0	0	0	0	0
010713	15:15:48	10024	Trial2BackFr	N	3	0	1000	1	54	15:15:48	1585390	0	0	0	0	0	0	0	0	0	0	0	0	0	0	0	0	0	0	0	0	0	0		1	0	0	0	0	0	0	0
010713	15:15:48	10024	Trial2BackFr	N	3	0	1000	1	55	15:15:48	1586896	0	0	0	0	0	0	0	0	0	0	0	0	0	0	0	0	0	0	0	0	0	0		1	0	0	0	0	0	0	0
010713	15:15:48	10024	Trial2BackFr	N	3	0	1000	1	56	15:15:48	1588402	0	0	0	0	0	0	0	0	0	0	0	0	0	0	0	0	0	0	0	0	0	0		1	0	0	0	0	0	0	0
010713	15:15:48	10024	Trial2BackFr	N	3	0	1000	1	57	15:15:48	1589908	0	0	0	0	0	0	0	0	0	0	0	0	0	0	0	0	0	0	0	0	0	0		1	0	0	0	0	0	0	0
010713	15:15:48	10024	Trial2BackFr	Y	3	57	476	1	58	15:15:48	1590894	0	0	0	0	0	0	0	0	0	0	0	0	0	0	0	0	0	0	0	0	0	0		1	0	0	0	0	0	0	0
010713	15:15:48	10024	Trial2BackFr	N	3	0	1000	1	59	15:15:48	1592922	0	0	0	0	0	0	0	0	0	0	0	0	0	0	0	0	0	0	0	0	0	0		1	0	0	0	0	0	0	0
010713	15:15:48	10024	Trial2BackFr	N	3	0	1000	1	60	15:15:48	1594440	0	0	0	0	0	0	0	0	0	0	0	0	0	0	0	0	0	0	0	0	0	0		1	0	0	0	0	0	0	0
010713	15:15:48	10024	Trial2BackFr	Y	3	57	685	1	61	15:15:48	1595639	0	0	0	0	0	0	0	0	0	0	0	0	0	0	0	0	0	0	0	0	0	0		1	0	0	0	0	0	0	0
010713	15:15:48	10024	Trial2BackFr	N	3	0	1000	1	62	15:15:48	1597452	0	0	0	0	0	0	0	0	0	0	0	0	0	0	0	0	0	0	0	0	0	0		1	0	0	0	0	0	0	0
010713	15:15:48	10024	Trial2BackFr	N	3	0	1000	1	63	15:15:48	1598958	0	0	0	0	0	0	0	0	0	0	0	0	0	0	0	0	0	0	0	0	0	0		1	0	0	0	0	0	0	0
010713	15:15:48	10024	Trial2BackFr	N	3	0	1000	1	64	15:15:48	1600464	0	0	0	0	0	0	0	0	0	0	0	0	0	0	0	0	0	0	0	0	0	0		1	0	0	0	0	0	0	0
010713	15:15:48	10024	Trial2BackFr	N	3	0	1000	1	65	15:15:48	1601983	0	0	0	0	0	0	0	0	0	0	0	0	0	0	0	0	0	0	0	0	0	0		1	0	0	0	0	0	0	0
010713	15:15:48	10024	Trial2BackFr	N	3	0	1000	1	66	15:15:48	1603489	0	0	0	0	0	0	0	0	0	0	0	0	0	0	0	0	0	0	0	0	0	0		1	0	0	0	0	0	0	0
010713	15:15:48	10024	Trial2BackFr	N	3	0	1000	1	67	15:15:48	1604996	0	0	0	0	0	0	0	0	0	0	0	0	0	0	0	0	0	0	0	0	0	0		1	0	0	0	0	0	0	0
010713	15:15:48	10024	Trial2BackFr	N	3	0	1000	1	68	15:15:48	1606501	0	0	0	0	0	0	0	0	0	0	0	0	0	0	0	0	0	0	0	0	0	0		1	0	0	0	0	0	0	0
010713	15:15:48	10024	Trial2BackFr	N	3	0	1000	1	69	15:15:48	1608008	0	0	0	0	0	0	0	0	0	0	0	0	0	0	0	0	0	0	0	0	0	0		1	0	0	0	0	0	0	0
010713	15:15:48	10024	Trial2BackFr	N	3	57	635	0	69	15:15:48	1609181	0	0	0	0	0	0	0	0	0	0	0	0	0	0	0	0	0	0	0	0	0	0		1	0	0	0	0	0	0	0
010713	15:15:48	10024	Trial2BackFr	N	3	0	1000	1	70	15:15:48	1611020	0	0	0	0	0	0	0	0	0	0	0	0	0	0	0	0	0	0	0	0	0	0		1	0	0	0	0	0	0	0
010713	15:15:48	10024	Trial2BackFr	Y	3	57	743	1	71	15:15:48	1612286	0	0	0	0	0	0	0	0	0	0	0	0	0	0	0	0	0	0	0	0	0	0		1	0	0	0	0	0	0	0
010713	15:15:48	10024	Trial2BackFr	N	3	0	1000	1	72	15:15:48	1614032	0	0	0	0	0	0	0	0	0	0	0	0	0	0	0	0	0	0	0	0	0	0		1	0	0	0	0	0	0	0
010713	15:15:48	10024	Trial2BackFr	N	3	0	1000	1	73	15:15:48	1615538	0	0	0	0	0	0	0	0	0	0	0	0	0	0	0	0	0	0	0	0	0	0		1	0	0	0	0	0	0	0
010713	15:15:48	10024	Trial2BackFr	N	3	0	1000	1	74	15:15:48	1617044	0	0	0	0	0	0	0	0	0	0	0	0	0	0	0	0	0	0	0	0	0	0		1	0	0	0	0	0	0	0
010713	15:15:48	10024	Trial2BackFr	Y	3	57	638	1	75	15:15:48	1618190	0	0	0	0	0	0	0	0	0	0	0	0	0	0	0	0	0	0	0	0	0	0		1	0	0	0	0	0	0	0
010713	15:15:48	10024	Trial2BackFr	N	3	0	1000	1	76	15:15:48	1620056	0	0	0	0	0	0	0	0	0	0	0	0	0	0	0	0	0	0	0	0	0	0		1	0	0	0	0	0	0	0
010713	15:15:48	10024	Trial2BackFr	N	3	0	1000	1	77	15:15:48	1621562	0	0	0	0	0	0	0	0	0	0	0	0	0	0	0	0	0	0	0	0	0	0		1	0	0	0	0	0	0	0
010713	15:15:48	10024	Trial2BackFr	N	3	0	1000	1	78	15:15:48	1623068	0	0	0	0	0	0	0	0	0	0	0	0	0	0	0	0	0	0	0	0	0	0		1	0	0	0	0	0	0	0
010713	15:15:48	10024	Trial2BackFr	N	3	0	1000	1	79	15:15:48	1624587	0	0	0	0	0	0	0	0	0	0	0	0	0	0	0	0	0	0	0	0	0	0		1	0	0	0	0	0	0	0
010713	15:15:48	10024	Trial2BackFr	N	3	0	1000	1	80	15:15:48	1626093	0	0	0	0	0	0	0	0	0	0	0	0	0	0	0	0	0	0	0	0	0	0		1	0	0	0	0	0	0	0
010713	15:15:48	10024	Trial2BackFr	Y	3	57	562	1	81	15:15:48	1627173	0	0	0	0	0	0	0	0	0	0	0	0	0	0	0	0	0	0	0	0	0	0		1	0	0	0	0	0	0	0
010713	15:15:48	10024	Trial2BackFr	N	3	0	1000	1	82	15:15:48	1629106	0	0	0	0	0	0	0	0	0	0	0	0	0	0	0	0	0	0	0	0	0	0		1	0	0	0	0	0	0	0
010713	15:15:48	10024	Trial2BackFr	N	3	0	1000	1	83	15:15:48	1630612	0	0	0	0	0	0	0	0	0	0	0	0	0	0	0	0	0	0	0	0	0	0		1	0	0	0	0	0	0	0
010713	15:15:48	10024	Trial2BackFr	N	3	0	1000	1	84	15:15:48	1632131	0	0	0	0	0	0	0	0	0	0	0	0	0	0	0	0	0	0	0	0	0	0		1	0	0	0	0	0	0	0
010713	15:15:48	10024	Trial2BackFr	N	3	0	1000	1	85	15:15:48	1633637	0	0	0	0	0	0	0	0	0	0	0	0	0	0	0	0	0	0	0	0	0	0		1	0	0	0	0	0	0	0
010713	15:15:48	10024	Trial2BackFr	N	3	0	1000	1	86	15:15:48	1635143	0	0	0	0	0	0	0	0	0	0	0	0	0	0	0	0	0	0	0	0	0	0		1	0	0	0	0	0	0	0
010713	15:15:48	10024	Trial2BackFr	N	3	0	1000	1	87	15:15:48	1636649	0	0	0	0	0	0	0	0	0	0	0	0	0	0	0	0	0	0	0	0	0	0		1	0	0	0	0	0	0	0
010713	15:15:48	10024	Trial2BackFr	N	3	0	1000	1	88	15:15:48	1638155	0	0	0	0	0	0	0	0	0	0	0	0	0	0	0	0	0	0	0	0	0	0		1	0	0	0	0	0	0	0
010713	15:15:48	10024	Trial2BackFr	N	3	0	1000	1	89	15:15:48	1639661	0	0	0	0	0	0	0	0	0	0	0	0	0	0	0	0	0	0	0	0	0	0		1	0	0	0	0	0	0	0
010713	15:15:48	10024	Trial2BackFr	N	3	0	1000	1	90	15:15:48	1641168	0	0	0	0	0	0	0	0	0	0	0	0	0	0	0	0	0	0	0	0	0	0		1	0	0	0	0	0	0	0
010713	15:15:48	10024	Trial2BackFr	Y	3	0	1000	0	90	15:15:48	1642673	0	0	0	0	0	0	0	0	0	0	0	0	0	0	0	0	0	0	0	0	0	0		1	0	0	0	0	0	0	0
010713	15:15:48	10024	Trial2BackFr	N	3	0	1000	1	91	15:15:48	1644193	0	0	0	0	0	0	0	0	0	0	0	0	0	0	0	0	0	0	0	0	0	0		1	0	0	0	0	0	0	0
010713	15:15:48	10024	Trial2BackFr	N	3	0	1000	1	92	15:15:48	1645699	0	0	0	0	0	0	0	0	0	0	0	0	0	0	0	0	0	0	0	0	0	0		1	0	0	0	0	0	0	0
010713	15:15:48	10024	Trial2BackFr	N	3	0	1000	1	93	15:15:48	1647205	0	0	0	0	0	0	0	0	0	0	0	0	0	0	0	0	0	0	0	0	0	0		1	0	0	0	0	0	0	0
010713	15:15:48	10024	Trial2BackFr	N	3	0	1000	1	94	15:15:48	1648711	0	0	0	0	0	0	0	0	0	0	0	0	0	0	0	0	0	0	0	0	0	0		1	0	0	0	0	0	0	0
010713	15:15:48	10024	Trial2BackFr	N	3	0	1000	1	95	15:15:48	1650217	0	0	0	0	0	0	0	0	0	0	0	0	0	0	0	0	0	0	0	0	0	0		1	0	0	0	0	0	0	0
010713	15:15:48	10024	Trial2BackFr	N	3	0	1000	1	96	15:15:48	1651737	0	0	0	0	0	0	0	0	0	0	0	0	0	0	0	0	0	0	0	0	0	0		1	0	0	0	0	0	0	0
010713	15:15:48	10024	Trial2BackFr	N	3	0	1000	1	97	15:15:48	1653242	0	0	0	0	0	0	0	0	0	0	0	0	0	0	0	0	0	0	0	0	0	0		1	0	0	0	0	0	0	0
010713	15:15:48	10024	Trial2BackFr	N	3	0	1000	1	98	15:15:48	1654762	0	0	0	0	0	0	0	0	0	0	0	0	0	0	0	0	0	0	0	0	0	0		1	0	0	0	0	0	0	0
010713	15:15:48	10024	Trial2BackFr	Y	3	57	521	1	99	15:15:48	1655801	0	0	0	0	0	0	0	0	0	0	0	0	0	0	0	0	0	0	0	0	0	0		1	0	0	0	0	0	0	0
010713	15:15:48	10024	Trial2BackFr	N	3	0	1000	1	100	15:15:48	1657774	0	0	0	0	0	0	0	0	0	0	0	0	0	0	0	0	0	0	0	0	0	0		1	0	0	0	0	0	0	0
010713	15:15:48	10024	Trial2BackFr	N	3	0	1000	1	101	15:15:48	1659280	0	0	0	0	0	0	0	0	0	0	0	0	0	0	0	0	0	0	0	0	0	0		1	0	0	0	0	0	0	0
010713	15:15:48	10024	Trial2BackFr	N	3	0	1000	1	102	15:15:48	1660786	0	0	0	0	0	0	0	0	0	0	0	0	0	0	0	0	0	0	0	0	0	0		1	0	0	0	0	0	0	0
010713	15:15:48	10024	Trial2BackFr	N	3	0	1000	1	103	15:15:48	1662292	0	0	0	0	0	0	0	0	0	0	0	0	0	0	0	0	0	0	0	0	0	0		1	0	0	0	0	0	0	0
010713	15:15:48	10024	Trial2BackFr	Y	3	57	475	1	104	15:15:48	1663278	0	0	0	0	0	0	0	0	0	0	0	0	0	0	0	0	0	0	0	0	0	0		1	0	0	0	0	0	0	0
010713	15:15:48	10024	Trial2BackFr	N	3	0	1000	1	105	15:15:48	1665304	0	0	0	0	0	0	0	0	0	0	0	0	0	0	0	0	0	0	0	0	0	0		1	0	0	0	0	0	0	0
010713	15:15:48	10024	Trial2BackFr	N	3	0	1000	1	106	15:15:48	1666810	0	0	0	0	0	0	0	0	0	0	0	0	0	0	0	0	0	0	0	0	0	0		1	0	0	0	0	0	0	0
010713	15:15:48	10024	Trial2BackFr	N	3	0	1000	1	107	15:15:48	1668316	0	0	0	0	0	0	0	0	0	0	0	0	0	0	0	0	0	0	0	0	0	0		1	0	0	0	0	0	0	0
010713	15:15:48	10024	Trial2BackFr	Y	3	57	546	1	108	15:15:48	1669383	0	0	0	0	0	0	0	0	0	0	0	0	0	0	0	0	0	0	0	0	0	0		1	0	0	0	0	0	0	0
010713	15:15:48	10024	Trial2BackFr	N	3	0	1000	1	109	15:15:48	1671329	0	0	0	0	0	0	0	0	0	0	0	0	0	0	0	0	0	0	0	0	0	0		1	0	0	0	0	0	0	0
010713	15:15:48	10024	Trial2BackFr	N	3	0	1000	1	110	15:15:48	1672848	0	0	0	0	0	0	0	0	0	0	0	0	0	0	0	0	0	0	0	0	0	0		1	0	0	0	0	0	0	0
010713	15:15:48	10024	Trial2BackFr	N	3	0	1000	1	111	15:15:48	1674367	0	0	0	0	0	0	0	0	0	0	0	0	0	0	0	0	0	0	0	0	0	0		1	0	0	0	0	0	0	0
010713	15:15:48	10024	Trial2BackFr	N	3	0	1000	1	112	15:15:48	1675873	0	0	0	0	0	0	0	0	0	0	0	0	0	0	0	0	0	0	0	0	0	0		1	0	0	0	0	0	0	0
010713	15:15:48	10024	Trial2BackFr	N	3	0	1000	1	113	15:15:48	1677379	0	0	0	0	0	0	0	0	0	0	0	0	0	0	0	0	0	0	0	0	0	0		1	0	0	0	0	0	0	0
010713	15:15:48	10024	Trial2BackFr	Y	3	57	763	1	114	15:15:48	1678659	0	0	0	0	0	0	0	0	0	0	0	0	0	0	0	0	0	0	0	0	0	0		1	0	0	0	0	0	0	0
010713	15:15:48	10024	Trial2BackFr	N	3	0	1000	1	115	15:15:48	1680392	0	0	0	0	0	0	0	0	0	0	0	0	0	0	0	0	0	0	0	0	0	0		1	0	0	0	0	0	0	0
010713	15:15:48	10024	Trial2BackFr	N	3	0	1000	1	116	15:15:48	1681911	0	0	0	0	0	0	0	0	0	0	0	0	0	0	0	0	0	0	0	0	0	0		1	0	0	0	0	0	0	0
010713	15:15:48	10024	Trial2BackFr	N	3	0	1000	1	117	15:15:48	1683417	0	0	0	0	0	0	0	0	0	0	0	0	0	0	0	0	0	0	0	0	0	0		1	0	0	0	0	0	0	0
010713	15:15:48	10024	Trial2BackFr	Y	3	57	775	1	118	15:15:48	1684710	0	0	0	0	0	0	0	0	0	0	0	0	0	0	0	0	0	0	0	0	0	0		1	0	0	0	0	0	0	0
010713	15:15:48	10024	Trial3BackFr	NN	4	0	1000	1	118	15:15:48	1731291	0	0	0	0	0	0	0	0	0	0	0	0	0	0	0	0	0	0	0	0	0	0		1	0	0	0	0	0	0	0
010713	15:15:48	10024	Trial3BackFr	NN	4	0	1000	1	118	15:15:48	1732797	0	0	0	0	0	0	0	0	0	0	0	0	0	0	0	0	0	0	0	0	0	0		1	0	0	0	0	0	0	0
010713	15:15:48	10024	Trial3BackFr	NN	4	0	1000	1	118	15:15:48	1734303	0	0	0	0	0	0	0	0	0	0	0	0	0	0	0	0	0	0	0	0	0	0		1	0	0	0	0	0	0	0
010713	15:15:48	10024	Trial3BackFr	YY	4	0	1000	0	118	15:15:48	1735822	0	0	0	0	0	0	0	0	0	0	0	0	0	0	0	0	0	0	0	0	0	0		1	0	0	0	0	0	0	0
010713	15:15:48	10024	Trial3BackFr	NN	4	57	911	0	118	15:15:48	1737248	0	0	0	0	0	0	0	0	0	0	0	0	0	0	0	0	0	0	0	0	0	0		1	0	0	0	0	0	0	0
010713	15:15:48	10024	Trial3BackFr	NN	4	0	1000	1	118	15:15:48	1738834	0	0	0	0	0	0	0	0	0	0	0	0	0	0	0	0	0	0	0	0	0	0		1	0	0	0	0	0	0	0
010713	15:15:48	10024	Trial3BackFr	NN	4	0	1000	1	118	15:15:48	1740340	0	0	0	0	0	0	0	0	0	0	0	0	0	0	0	0	0	0	0	0	0	0		1	0	0	0	0	0	0	0
010713	15:15:48	10024	Trial3BackFr	NN	4	0	1000	1	118	15:15:48	1741860	0	0	0	0	0	0	0	0	0	0	0	0	0	0	0	0	0	0	0	0	0	0		1	0	0	0	0	0	0	0
010713	15:15:48	10024	Trial3BackFr	YY	4	57	601	1	118	15:15:48	1742979	0	0	0	0	0	0	0	0	0	0	0	0	0	0	0	0	0	0	0	0	0	0		1	0	0	0	0	0	0	0
010713	15:15:48	10024	Trial3BackFr	NN	4	0	1000	1	118	15:15:48	1744885	0	0	0	0	0	0	0	0	0	0	0	0	0	0	0	0	0	0	0	0	0	0		1	0	0	0	0	0	0	0
010713	15:15:48	10024	Trial3BackFr	NN	4	0	1000	1	118	15:15:48	1746405	0	0	0	0	0	0	0	0	0	0	0	0	0	0	0	0	0	0	0	0	0	0		1	0	0	0	0	0	0	0
010713	15:15:48	10024	Trial3BackFr	NN	4	0	1000	1	118	15:15:48	1747911	0	0	0	0	0	0	0	0	0	0	0	0	0	0	0	0	0	0	0	0	0	0		1	0	0	0	0	0	0	0
010713	15:15:48	10024	Trial3BackFr	NN	4	0	1000	1	118	15:15:48	1749430	0	0	0	0	0	0	0	0	0	0	0	0	0	0	0	0	0	0	0	0	0	0		1	0	0	0	0	0	0	0
010713	15:15:48	10024	Trial3BackFr	NN	4	0	1000	1	118	15:15:48	1750950	0	0	0	0	0	0	0	0	0	0	0	0	0	0	0	0	0	0	0	0	0	0		1	0	0	0	0	0	0	0
010713	15:15:48	10024	Trial3BackFr	NN	4	57	586	0	118	15:15:48	1752069	0	0	0	0	0	0	0	0	0	0	0	0	0	0	0	0	0	0	0	0	0	0		1	0	0	0	0	0	0	0
010713	15:15:48	10024	Trial3BackFr	NN	4	0	1000	1	118	15:15:48	1753962	0	0	0	0	0	0	0	0	0	0	0	0	0	0	0	0	0	0	0	0	0	0		1	0	0	0	0	0	0	0
010713	15:15:48	10024	Trial3BackFr	YY	4	0	1000	0	118	15:15:48	1755481	0	0	0	0	0	0	0	0	0	0	0	0	0	0	0	0	0	0	0	0	0	0		1	0	0	0	0	0	0	0
010713	15:15:48	10024	Trial3BackFr	NN	4	0	1000	1	118	15:15:48	1756987	0	0	0	0	0	0	0	0	0	0	0	0	0	0	0	0	0	0	0	0	0	0		1	0	0	0	0	0	0	0
010713	15:15:48	10024	Trial3BackFr	NN	4	0	1000	1	118	15:15:48	1758493	0	0	0	0	0	0	0	0	0	0	0	0	0	0	0	0	0	0	0	0	0	0		1	0	0	0	0	0	0	0
010713	15:15:48	10024	Trial3BackFr	NN	4	0	1000	1	118	15:15:48	1760013	0	0	0	0	0	0	0	0	0	0	0	0	0	0	0	0	0	0	0	0	0	0		1	0	0	0	0	0	0	0
010713	15:15:48	10024	Trial3BackFr	NN	4	0	1000	1	118	15:15:48	1761519	0	0	0	0	0	0	0	0	0	0	0	0	0	0	0	0	0	0	0	0	0	0		1	0	0	0	0	0	0	0
010713	15:15:48	10024	Trial3BackFr	NN	4	0	1000	1	118	15:15:48	1763025	0	0	0	0	0	0	0	0	0	0	0	0	0	0	0	0	0	0	0	0	0	0		1	0	0	0	0	0	0	0
010713	15:15:48	10024	Trial3BackFr	YY	4	57	572	1	118	15:15:48	1764104	0	0	0	0	0	0	0	0	0	0	0	0	0	0	0	0	0	0	0	0	0	0		1	0	0	0	0	0	0	0
010713	15:15:48	10024	Trial3BackFr	NN	4	57	865	0	118	15:15:48	1765903	0	0	0	0	0	0	0	0	0	0	0	0	0	0	0	0	0	0	0	0	0	0		1	0	0	0	0	0	0	0
010713	15:15:48	10024	Trial3BackFr	NN	4	0	1000	1	118	15:15:48	1767543	0	0	0	0	0	0	0	0	0	0	0	0	0	0	0	0	0	0	0	0	0	0		1	0	0	0	0	0	0	0
010713	15:15:48	10024	Trial3BackFr	NN	4	0	1000	1	118	15:15:48	1769049	0	0	0	0	0	0	0	0	0	0	0	0	0	0	0	0	0	0	0	0	0	0		1	0	0	0	0	0	0	0
010713	15:15:48	10024	Trial3BackFr	YY	4	0	1000	0	118	15:15:48	1770568	0	0	0	0	0	0	0	0	0	0	0	0	0	0	0	0	0	0	0	0	0	0		1	0	0	0	0	0	0	0
010713	15:15:48	10024	Trial3BackFr	NN	4	0	1000	1	118	15:15:48	1772088	0	0	0	0	0	0	0	0	0	0	0	0	0	0	0	0	0	0	0	0	0	0		1	0	0	0	0	0	0	0
010713	15:15:48	10024	Trial3BackFr	NN	4	0	1000	1	118	15:15:48	1773607	0	0	0	0	0	0	0	0	0	0	0	0	0	0	0	0	0	0	0	0	0	0		1	0	0	0	0	0	0	0
010713	15:15:48	10024	Trial3BackFr	NN	4	0	1000	1	118	15:15:48	1775113	0	0	0	0	0	0	0	0	0	0	0	0	0	0	0	0	0	0	0	0	0	0		1	0	0	0	0	0	0	0
010713	15:15:48	10024	Trial3BackFr	YY	4	57	643	1	118	15:15:48	1776272	0	0	0	0	0	0	0	0	0	0	0	0	0	0	0	0	0	0	0	0	0	0		1	0	0	0	0	0	0	0
010713	15:15:48	10024	Trial3BackFr	NN	4	0	1000	1	118	15:15:48	1778125	0	0	0	0	0	0	0	0	0	0	0	0	0	0	0	0	0	0	0	0	0	0		1	0	0	0	0	0	0	0
010713	15:15:48	10024	Trial3BackFr	NN	4	0	1000	1	118	15:15:48	1779644	0	0	0	0	0	0	0	0	0	0	0	0	0	0	0	0	0	0	0	0	0	0		1	0	0	0	0	0	0	0
010713	15:15:48	10024	Trial3BackFr	NN	4	0	1000	1	118	15:15:48	1781164	0	0	0	0	0	0	0	0	0	0	0	0	0	0	0	0	0	0	0	0	0	0		1	0	0	0	0	0	0	0
010713	15:15:48	10024	Trial3BackFr	NN	4	57	896	0	118	15:15:48	1782577	0	0	0	0	0	0	0	0	0	0	0	0	0	0	0	0	0	0	0	0	0	0		1	0	0	0	0	0	0	0
010713	15:15:48	10024	Trial3BackFr	NN	4	0	1000	1	118	15:15:48	1784176	0	0	0	0	0	0	0	0	0	0	0	0	0	0	0	0	0	0	0	0	0	0		1	0	0	0	0	0	0	0
010713	15:15:48	10024	Trial3BackFr	NN	4	0	1000	1	118	15:15:48	1785682	0	0	0	0	0	0	0	0	0	0	0	0	0	0	0	0	0	0	0	0	0	0		1	0	0	0	0	0	0	0
010713	15:15:48	10024	Trial3BackFr	NN	4	0	1000	1	118	15:15:48	1787188	0	0	0	0	0	0	0	0	0	0	0	0	0	0	0	0	0	0	0	0	0	0		1	0	0	0	0	0	0	0
010713	15:15:48	10024	Trial3BackFr	NN	4	0	1000	1	118	15:15:48	1788694	0	0	0	0	0	0	0	0	0	0	0	0	0	0	0	0	0	0	0	0	0	0		1	0	0	0	0	0	0	0
010713	15:15:48	10024	Trial3BackFr	NN	4	0	1000	1	118	15:15:48	1790213	0	0	0	0	0	0	0	0	0	0	0	0	0	0	0	0	0	0	0	0	0	0		1	0	0	0	0	0	0	0
010713	15:15:48	10024	Trial3BackFr	NN	4	0	1000	1	118	15:15:48	1791733	0	0	0	0	0	0	0	0	0	0	0	0	0	0	0	0	0	0	0	0	0	0		1	0	0	0	0	0	0	0
010713	15:15:48	10024	Trial3BackFr	YY	4	57	807	1	118	15:15:48	1793052	0	0	0	0	0	0	0	0	0	0	0	0	0	0	0	0	0	0	0	0	0	0		1	0	0	0	0	0	0	0
010713	15:15:48	10024	Trial3BackFr	NN	4	0	1000	1	118	15:15:48	1794745	0	0	0	0	0	0	0	0	0	0	0	0	0	0	0	0	0	0	0	0	0	0		1	0	0	0	0	0	0	0
010713	15:15:48	10024	Trial3BackFr	NN	4	0	1000	1	118	15:15:48	1796251	0	0	0	0	0	0	0	0	0	0	0	0	0	0	0	0	0	0	0	0	0	0		1	0	0	0	0	0	0	0
010713	15:15:48	10024	Trial3BackFr	NN	4	0	1000	1	118	15:15:48	1797757	0	0	0	0	0	0	0	0	0	0	0	0	0	0	0	0	0	0	0	0	0	0		1	0	0	0	0	0	0	0
010713	15:15:48	10024	Trial3BackFr	NN	4	0	1000	1	118	15:15:48	1799263	0	0	0	0	0	0	0	0	0	0	0	0	0	0	0	0	0	0	0	0	0	0		1	0	0	0	0	0	0	0
010713	15:15:48	10024	Trial3BackFr	YY	4	57	828	1	118	15:15:48	1800610	0	0	0	0	0	0	0	0	0	0	0	0	0	0	0	0	0	0	0	0	0	0		1	0	0	0	0	0	0	0
010713	15:15:48	10024	Trial3BackFr	NN	4	0	1000	1	118	15:15:48	1802329	0	0	0	0	0	0	0	0	0	0	0	0	0	0	0	0	0	0	0	0	0	0		1	0	0	0	0	0	0	0
010713	15:15:48	10024	Trial3BackFr	NN	4	0	1000	1	118	15:15:48	1803849	0	0	0	0	0	0	0	0	0	0	0	0	0	0	0	0	0	0	0	0	0	0		1	0	0	0	0	0	0	0
010713	15:15:48	10024	Trial3BackFr	NN	4	0	1000	1	118	15:15:48	1805367	0	0	0	0	0	0	0	0	0	0	0	0	0	0	0	0	0	0	0	0	0	0		1	0	0	0	0	0	0	0
010713	15:15:48	10024	Trial3BackFr	NN	4	0	1000	1	118	15:15:48	1806873	0	0	0	0	0	0	0	0	0	0	0	0	0	0	0	0	0	0	0	0	0	0		1	0	0	0	0	0	0	0
010713	15:15:48	10024	Trial3BackFr	NN	4	0	1000	1	118	15:15:48	1808379	0	0	0	0	0	0	0	0	0	0	0	0	0	0	0	0	0	0	0	0	0	0		1	0	0	0	0	0	0	0
010713	15:15:48	10024	Trial3BackFr	YY	4	57	368	1	118	15:15:48	1809259	0	0	0	0	0	0	0	0	0	0	0	0	0	0	0	0	0	0	0	0	0	0		1	0	0	0	0	0	0	0
010713	15:15:48	10024	Trial3BackFr	NN	4	0	1000	1	118	15:15:48	1811392	0	0	0	0	0	0	0	0	0	0	0	0	0	0	0	0	0	0	0	0	0	0		1	0	0	0	0	0	0	0
010713	15:15:48	10024	Trial3BackFr	NN	4	0	1000	1	118	15:15:48	1812898	0	0	0	0	0	0	0	0	0	0	0	0	0	0	0	0	0	0	0	0	0	0		1	0	0	0	0	0	0	0
010713	15:15:48	10024	Trial3BackFr	NN	4	0	1000	1	118	15:15:48	1814404	0	0	0	0	0	0	0	0	0	0	0	0	0	0	0	0	0	0	0	0	0	0		1	0	0	0	0	0	0	0
010713	15:15:48	10024	Trial3BackFr	NN	4	0	1000	1	118	15:15:48	1815923	0	0	0	0	0	0	0	0	0	0	0	0	0	0	0	0	0	0	0	0	0	0		1	0	0	0	0	0	0	0
010713	15:15:48	10024	Trial3BackFr	NN	4	0	1000	1	118	15:15:48	1817429	0	0	0	0	0	0	0	0	0	0	0	0	0	0	0	0	0	0	0	0	0	0		1	0	0	0	0	0	0	0
010713	15:15:48	10024	Trial3BackFr	NN	4	0	1000	1	118	15:15:48	1818949	0	0	0	0	0	0	0	0	0	0	0	0	0	0	0	0	0	0	0	0	0	0		1	0	0	0	0	0	0	0
010713	15:15:48	10024	Trial3BackFr	YY	4	0	1000	0	118	15:15:48	1820457	0	0	0	0	0	0	0	0	0	0	0	0	0	0	0	0	0	0	0	0	0	0		1	0	0	0	0	0	0	0
010713	15:15:48	10024	Trial3BackFr	NN	4	57	551	0	118	15:15:48	1821534	0	0	0	0	0	0	0	0	0	0	0	0	0	0	0	0	0	0	0	0	0	0		1	0	0	0	0	0	0	0
010713	15:15:48	10024	Trial3BackFr	NN	4	0	1000	1	118	15:15:48	1823480	0	0	0	0	0	0	0	0	0	0	0	0	0	0	0	0	0	0	0	0	0	0		1	0	0	0	0	0	0	0
010713	15:15:48	10024	Trial3BackFr	NN	4	0	1000	1	118	15:15:48	1824986	0	0	0	0	0	0	0	0	0	0	0	0	0	0	0	0	0	0	0	0	0	0		1	0	0	0	0	0	0	0
010713	15:15:48	10024	Trial3BackFr	YY	4	0	1000	0	118	15:15:48	1826492	0	0	0	0	0	0	0	0	0	0	0	0	0	0	0	0	0	0	0	0	0	0		1	0	0	0	0	0	0	0
010713	15:15:48	10024	Trial3BackFr	NN	4	0	1000	1	118	15:15:48	1827998	0	0	0	0	0	0	0	0	0	0	0	0	0	0	0	0	0	0	0	0	0	0		1	0	0	0	0	0	0	0
010713	15:15:48	10024	Trial3BackFr	NN	4	0	1000	1	118	15:15:48	1829519	0	0	0	0	0	0	0	0	0	0	0	0	0	0	0	0	0	0	0	0	0	0		1	0	0	0	0	0	0	0
010713	15:15:48	10024	Trial3BackFr	NN	4	0	1000	1	118	15:15:48	1831024	0	0	0	0	0	0	0	0	0	0	0	0	0	0	0	0	0	0	0	0	0	0		1	0	0	0	0	0	0	0
010713	15:15:48	10024	Trial3BackFr	NN	4	0	1000	1	118	15:15:48	1832530	0	0	0	0	0	0	0	0	0	0	0	0	0	0	0	0	0	0	0	0	0	0		1	0	0	0	0	0	0	0
010713	15:15:48	10024	Trial3BackFr	NN	4	0	1000	1	118	15:15:48	1834049	0	0	0	0	0	0	0	0	0	0	0	0	0	0	0	0	0	0	0	0	0	0		1	0	0	0	0	0	0	0
010713	15:15:48	10024	Trial3BackFr	NN	4	57	761	0	118	15:15:48	1835329	0	0	0	0	0	0	0	0	0	0	0	0	0	0	0	0	0	0	0	0	0	0		1	0	0	0	0	0	0	0
010713	15:15:48	10024	Trial3BackFr	NN	4	0	1000	1	118	15:15:48	1837061	0	0	0	0	0	0	0	0	0	0	0	0	0	0	0	0	0	0	0	0	0	0		1	0	0	0	0	0	0	0
010713	15:15:48	10024	Trial3BackFr	NN	4	0	1000	1	118	15:15:48	1838581	0	0	0	0	0	0	0	0	0	0	0	0	0	0	0	0	0	0	0	0	0	0		1	0	0	0	0	0	0	0
010713	15:15:48	10024	Trial3BackFr	NN	4	0	1000	1	118	15:15:48	1840087	0	0	0	0	0	0	0	0	0	0	0	0	0	0	0	0	0	0	0	0	0	0		1	0	0	0	0	0	0	0
010713	15:15:48	10024	Trial3BackFr	YY	4	57	644	1	118	15:15:48	1841246	0	0	0	0	0	0	0	0	0	0	0	0	0	0	0	0	0	0	0	0	0	0		1	0	0	0	0	0	0	0
010713	15:15:48	10024	Trial3BackFr	NN	4	0	1000	1	118	15:15:48	1843099	0	0	0	0	0	0	0	0	0	0	0	0	0	0	0	0	0	0	0	0	0	0		1	0	0	0	0	0	0	0
010713	15:15:48	10024	Trial3BackFr	NN	4	0	1000	1	118	15:15:48	1844618	0	0	0	0	0	0	0	0	0	0	0	0	0	0	0	0	0	0	0	0	0	0		1	0	0	0	0	0	0	0
010713	15:15:48	10024	Trial3BackFr	NN	4	0	1000	1	118	15:15:48	1846138	0	0	0	0	0	0	0	0	0	0	0	0	0	0	0	0	0	0	0	0	0	0		1	0	0	0	0	0	0	0
010713	15:15:48	10024	Trial3BackFr	YY	4	57	769	1	118	15:15:48	1847417	0	0	0	0	0	0	0	0	0	0	0	0	0	0	0	0	0	0	0	0	0	0		1	0	0	0	0	0	0	0
010713	15:15:48	10024	Trial3BackFr	NN	4	0	1000	1	118	15:15:48	1849150	0	0	0	0	0	0	0	0	0	0	0	0	0	0	0	0	0	0	0	0	0	0		1	0	0	0	0	0	0	0
010713	15:15:48	10024	Trial3BackFr	NN	4	0	1000	1	118	15:15:48	1850669	0	0	0	0	0	0	0	0	0	0	0	0	0	0	0	0	0	0	0	0	0	0		1	0	0	0	0	0	0	0
010713	15:15:48	10024	Trial3BackFr	NN	4	0	1000	1	118	15:15:48	1852175	0	0	0	0	0	0	0	0	0	0	0	0	0	0	0	0	0	0	0	0	0	0		1	0	0	0	0	0	0	0
010713	15:15:48	10024	Trial3BackFr	NN	4	0	1000	1	118	15:15:48	1853681	0	0	0	0	0	0	0	0	0	0	0	0	0	0	0	0	0	0	0	0	0	0		1	0	0	0	0	0	0	0
010713	15:15:48	10024	Trial3BackFr	NN	4	0	1000	1	118	15:15:48	1855187	0	0	0	0	0	0	0	0	0	0	0	0	0	0	0	0	0	0	0	0	0	0		1	0	0	0	0	0	0	0
010713	15:15:48	10024	Trial3BackFr	YY	4	57	695	1	118	15:15:48	1856400	0	0	0	0	0	0	0	0	0	0	0	0	0	0	0	0	0	0	0	0	0	0		1	0	0	0	0	0	0	0
010713	15:15:48	10024	Trial3BackFr	NN	4	0	1000	1	118	15:15:48	1858200	0	0	0	0	0	0	0	0	0	0	0	0	0	0	0	0	0	0	0	0	0	0		1	0	0	0	0	0	0	0
010713	15:15:48	10024	Trial3BackFr	NN	4	0	1000	1	118	15:15:48	1859705	0	0	0	0	0	0	0	0	0	0	0	0	0	0	0	0	0	0	0	0	0	0		1	0	0	0	0	0	0	0
010713	15:15:48	10024	Trial3BackFr	NN	4	0	1000	1	118	15:15:48	1861212	0	0	0	0	0	0	0	0	0	0	0	0	0	0	0	0	0	0	0	0	0	0		1	0	0	0	0	0	0	0
010713	15:15:48	10024	Trial3BackFr	NN	4	0	1000	1	118	15:15:48	1862717	0	0	0	0	0	0	0	0	0	0	0	0	0	0	0	0	0	0	0	0	0	0		1	0	0	0	0	0	0	0
010713	15:15:48	10024	Trial3BackFr	NN	4	0	1000	1	118	15:15:48	1864224	0	0	0	0	0	0	0	0	0	0	0	0	0	0	0	0	0	0	0	0	0	0		1	0	0	0	0	0	0	0
010713	15:15:48	10024	Trial3BackFr	NN	4	0	1000	1	118	15:15:48	1865730	0	0	0	0	0	0	0	0	0	0	0	0	0	0	0	0	0	0	0	0	0	0		1	0	0	0	0	0	0	0
010713	15:15:48	10024	Trial3BackFr	NN	4	0	1000	1	118	15:15:48	1867249	0	0	0	0	0	0	0	0	0	0	0	0	0	0	0	0	0	0	0	0	0	0		1	0	0	0	0	0	0	0
010713	15:15:48	10024	Trial3BackFr	NN	4	0	1000	1	118	15:15:48	1868755	0	0	0	0	0	0	0	0	0	0	0	0	0	0	0	0	0	0	0	0	0	0		1	0	0	0	0	0	0	0
010713	15:15:48	10024	Trial3BackFr	NN	4	0	1000	1	118	15:15:48	1870261	0	0	0	0	0	0	0	0	0	0	0	0	0	0	0	0	0	0	0	0	0	0		1	0	0	0	0	0	0	0
010713	15:15:48	10024	Trial3BackFr	YY	4	57	628	1	118	15:15:48	1871407	0	0	0	0	0	0	0	0	0	0	0	0	0	0	0	0	0	0	0	0	0	0		1	0	0	0	0	0	0	0
010713	15:15:48	10024	Trial3BackFr	NN	4	0	1000	1	118	15:15:48	1873273	0	0	0	0	0	0	0	0	0	0	0	0	0	0	0	0	0	0	0	0	0	0		1	0	0	0	0	0	0	0
010713	15:15:48	10024	Trial3BackFr	NN	4	0	1000	1	118	15:15:48	1874779	0	0	0	0	0	0	0	0	0	0	0	0	0	0	0	0	0	0	0	0	0	0		1	0	0	0	0	0	0	0
010713	15:15:48	10024	Trial3BackFr	NN	4	0	1000	1	118	15:15:48	1876299	0	0	0	0	0	0	0	0	0	0	0	0	0	0	0	0	0	0	0	0	0	0		1	0	0	0	0	0	0	0
010713	15:15:48	10024	Trial3BackFr	NN	4	0	1000	1	118	15:15:48	1877805	0	0	0	0	0	0	0	0	0	0	0	0	0	0	0	0	0	0	0	0	0	0		1	0	0	0	0	0	0	0
010713	15:15:48	10024	Trial3BackFr	NN	4	0	1000	1	118	15:15:48	1879311	0	0	0	0	0	0	0	0	0	0	0	0	0	0	0	0	0	0	0	0	0	0		1	0	0	0	0	0	0	0
010713	15:15:48	10024	Trial3BackFr	NN	4	0	1000	1	118	15:15:48	1880830	0	0	0	0	0	0	0	0	0	0	0	0	0	0	0	0	0	0	0	0	0	0		1	0	0	0	0	0	0	0
010713	15:15:48	10024	Trial3BackFr	NN	4	0	1000	1	118	15:15:48	1882336	0	0	0	0	0	0	0	0	0	0	0	0	0	0	0	0	0	0	0	0	0	0		1	0	0	0	0	0	0	0
010713	15:15:48	10024	Trial3BackFr	NN	4	0	1000	1	118	15:15:48	1883842	0	0	0	0	0	0	0	0	0	0	0	0	0	0	0	0	0	0	0	0	0	0		1	0	0	0	0	0	0	0
010713	15:15:48	10024	Trial3BackFr	YY	4	57	839	1	118	15:15:48	1885202	0	0	0	0	0	0	0	0	0	0	0	0	0	0	0	0	0	0	0	0	0	0		1	0	0	0	0	0	0	0
010713	15:15:48	10024	Trial3BackFr	NN	4	0	1000	1	118	15:15:48	1886854	0	0	0	0	0	0	0	0	0	0	0	0	0	0	0	0	0	0	0	0	0	0		1	0	0	0	0	0	0	0
010713	15:15:48	10024	Trial3BackFr	NN	4	0	1000	1	118	15:15:48	1888360	0	0	0	0	0	0	0	0	0	0	0	0	0	0	0	0	0	0	0	0	0	0		1	0	0	0	0	0	0	0
010713	15:15:48	10024	Trial3BackFr	NN	4	0	1000	1	118	15:15:48	1889867	0	0	0	0	0	0	0	0	0	0	0	0	0	0	0	0	0	0	0	0	0	0		1	0	0	0	0	0	0	0
010713	15:15:48	10024	Trial3BackFr	NN	4	0	1000	1	118	15:15:48	1891386	0	0	0	0	0	0	0	0	0	0	0	0	0	0	0	0	0	0	0	0	0	0		1	0	0	0	0	0	0	0
010713	15:15:48	10024	Trial3BackFr	YY	4	57	559	1	118	15:15:48	1892465	0	0	0	0	0	0	0	0	0	0	0	0	0	0	0	0	0	0	0	0	0	0		1	0	0	0	0	0	0	0
010713	15:15:48	10024	Trial3BackFr	NN	4	0	1000	1	118	15:15:48	1894398	0	0	0	0	0	0	0	0	0	0	0	0	0	0	0	0	0	0	0	0	0	0		1	0	0	0	0	0	0	0
010713	15:15:48	10024	Trial3BackFr	NN	4	0	1000	1	118	15:15:48	1895917	0	0	0	0	0	0	0	0	0	0	0	0	0	0	0	0	0	0	0	0	0	0		1	0	0	0	0	0	0	0
010713	15:15:48	10024	Trial3BackFr	NN	4	0	1000	1	118	15:15:48	1897423	0	0	0	0	0	0	0	0	0	0	0	0	0	0	0	0	0	0	0	0	0	0		1	0	0	0	0	0	0	0
010713	15:15:48	10024	Trial3BackFr	YY	4	57	378	1	118	15:15:48	1898317	0	0	0	0	0	0	0	0	0	0	0	0	0	0	0	0	0	0	0	0	0	0		1	0	0	0	0	0	0	0
010713	15:15:48	10024	Trial3BackFr	NN	4	0	1000	1	118	15:15:48	1900436	0	0	0	0	0	0	0	0	0	0	0	0	0	0	0	0	0	0	0	0	0	0		1	0	0	0	0	0	0	0
010713	15:15:48	10024	Trial3BackFr	NN	4	0	1000	1	118	15:15:48	1901942	0	0	0	0	0	0	0	0	0	0	0	0	0	0	0	0	0	0	0	0	0	0		1	0	0	0	0	0	0	0
010713	15:15:48	10024	Trial3BackFr	NN	4	0	1000	1	118	15:15:48	1903448	0	0	0	0	0	0	0	0	0	0	0	0	0	0	0	0	0	0	0	0	0	0		1	0	0	0	0	0	0	0
010713	15:15:48	10024	Trial3BackFr	NN	4	0	1000	1	118	15:15:48	1904954	0	0	0	0	0	0	0	0	0	0	0	0	0	0	0	0	0	0	0	0	0	0		1	0	0	0	0	0	0	0
010713	15:15:48	10024	Trial3BackFr	NN	4	0	1000	1	118	15:15:48	1906460	0	0	0	0	0	0	0	0	0	0	0	0	0	0	0	0	0	0	0	0	0	0		1	0	0	0	0	0	0	0
010713	15:15:48	10024	Trial3BackFr	YY	4	0	1000	0	118	15:15:48	1907993	0	0	0	0	0	0	0	0	0	0	0	0	0	0	0	0	0	0	0	0	0	0		1	0	0	0	0	0	0	0
010713	15:15:48	10024	Trial3BackFr	NN	4	0	1000	1	118	15:15:48	1909499	0	0	0	0	0	0	0	0	0	0	0	0	0	0	0	0	0	0	0	0	0	0		1	0	0	0	0	0	0	0
010713	15:15:48	10024	Trial3BackFr	NN	4	0	1000	1	118	15:15:48	1911005	0	0	0	0	0	0	0	0	0	0	0	0	0	0	0	0	0	0	0	0	0	0		1	0	0	0	0	0	0	0
010713	15:15:48	10024	Trial3BackFr	NN	4	0	1000	1	118	15:15:48	1912511	0	0	0	0	0	0	0	0	0	0	0	0	0	0	0	0	0	0	0	0	0	0		1	0	0	0	0	0	0	0
010713	15:15:48	10024	Trial3BackFr	YY	4	57	426	1	118	15:15:48	1913457	0	0	0	0	0	0	0	0	0	0	0	0	0	0	0	0	0	0	0	0	0	0		1	0	0	0	0	0	0	0
010713	15:15:48	10024	Memory1R6moFr	ScoreFr	5	M1	15660	0	118	15:15:48	1956013	0	0	0	0	0	0	0	0	0	0	0	0	0	0	0	0	0	0	0	0	0	0		1	0	0	0	0	0	0	0
010713	15:15:48	10024	Memory1R6moFr	ScoreFr	5	M2	185	0	118	15:15:48	1956253	0	0	0	0	0	0	0	0	0	0	0	0	0	0	0	0	0	0	0	0	0	0		1	0	0	0	0	0	0	0
010713	15:15:48	10024	Memory1R6moFr	ScoreFr	5	M5	2286	0	118	15:15:48	1958612	0	0	0	0	0	0	0	0	0	0	0	0	0	0	0	0	0	0	0	0	0	0		1	0	0	0	0	0	0	0
010713	15:15:48	10024	Memory1R6moFr	ScoreFr	5	M7	369	0	118	15:15:48	1959039	0	0	0	0	0	0	0	0	0	0	0	0	0	0	0	0	0	0	0	0	0	0		1	0	0	0	0	0	0	0
010713	15:15:48	10024	Memory1R6moFr	ScoreFr	5	M8	155	0	118	15:15:48	1959252	0	0	0	0	0	0	0	0	0	0	0	0	0	0	0	0	0	0	0	0	0	0		1	0	0	0	0	0	0	0
010713	15:15:48	10024	Memory1R6moFr	ScoreFr	5	Done	31381	0	118	15:15:48	1990692	0	0	0	0	0	0	0	0	0	0	0	0	0	0	0	0	0	0	0	0	0	0		1	0	0	0	0	0	0	0
010713	15:15:48	10024	Memory2R6moFr	ScoreFr2	5	11	12979	0	118	15:15:48	2021573	0	0	0	0	0	0	0	0	0	0	0	0	0	0	0	0	0	0	0	0	0	0		1	0	0	0	0	0	0	0
010713	15:15:48	10024	Memory2R6moFr	ScoreFr2	5	22	320	0	118	15:15:48	2021946	0	0	0	0	0	0	0	0	0	0	0	0	0	0	0	0	0	0	0	0	0	0		1	0	0	0	0	0	0	0
010713	15:15:48	10024	Memory2R6moFr	ScoreFr2	5	33	339	0	118	15:15:48	2022333	0	0	0	0	0	0	0	0	0	0	0	0	0	0	0	0	0	0	0	0	0	0		1	0	0	0	0	0	0	0
010713	15:15:48	10024	Memory2R6moFr	ScoreFr2	5	44	1329	0	118	15:15:48	2023706	0	0	0	0	0	0	0	0	0	0	0	0	0	0	0	0	0	0	0	0	0	0		1	0	0	0	0	0	0	0
010713	15:15:48	10024	Memory2R6moFr	ScoreFr2	5	55	200	0	118	15:15:48	2023961	0	0	0	0	0	0	0	0	0	0	0	0	0	0	0	0	0	0	0	0	0	0		1	0	0	0	0	0	0	0
010713	15:15:48	10024	Memory2R6moFr	ScoreFr2	5	66	164	0	118	15:15:48	2024199	0	0	0	0	0	0	0	0	0	0	0	0	0	0	0	0	0	0	0	0	0	0		1	0	0	0	0	0	0	0
010713	15:15:48	10024	Memory2R6moFr	ScoreFr2	5	77	205	0	118	15:15:48	2024452	0	0	0	0	0	0	0	0	0	0	0	0	0	0	0	0	0	0	0	0	0	0		1	0	0	0	0	0	0	0
010713	15:15:48	10024	Memory2R6moFr	ScoreFr2	5	88	426	0	118	15:15:48	2024932	0	0	0	0	0	0	0	0	0	0	0	0	0	0	0	0	0	0	0	0	0	0		1	0	0	0	0	0	0	0
010713	15:15:48	10024	Memory2R6moFr	ScoreFr2	5	Done	418	0	118	15:15:48	2025425	0	0	0	0	0	0	0	0	0	0	0	0	0	0	0	0	0	0	0	0	0	0		1	0	0	0	0	0	0	0
010713	15:15:48	10024	Memory3R6moFr	ScoreFr3	5	111	17206	0	118	15:15:48	2060971	0	0	0	0	0	0	0	0	0	0	0	0	0	0	0	0	0	0	0	0	0	0		1	0	0	0	0	0	0	0
010713	15:15:48	10024	Memory3R6moFr	ScoreFr3	5	222	260	0	118	15:15:48	2061291	0	0	0	0	0	0	0	0	0	0	0	0	0	0	0	0	0	0	0	0	0	0		1	0	0	0	0	0	0	0
010713	15:15:48	10024	Memory3R6moFr	ScoreFr3	5	444	285	0	118	15:15:48	2061637	0	0	0	0	0	0	0	0	0	0	0	0	0	0	0	0	0	0	0	0	0	0		1	0	0	0	0	0	0	0
010713	15:15:48	10024	Memory3R6moFr	ScoreFr3	5	333	610	0	118	15:15:48	2062317	0	0	0	0	0	0	0	0	0	0	0	0	0	0	0	0	0	0	0	0	0	0		1	0	0	0	0	0	0	0
010713	15:15:48	10024	Memory3R6moFr	ScoreFr3	5	555	514	0	118	15:15:48	2062890	0	0	0	0	0	0	0	0	0	0	0	0	0	0	0	0	0	0	0	0	0	0		1	0	0	0	0	0	0	0
010713	15:15:48	10024	Memory3R6moFr	ScoreFr3	5	777	240	0	118	15:15:48	2063210	0	0	0	0	0	0	0	0	0	0	0	0	0	0	0	0	0	0	0	0	0	0		1	0	0	0	0	0	0	0
010713	15:15:48	10024	Memory3R6moFr	ScoreFr3	5	666	406	0	118	15:15:48	2063676	0	0	0	0	0	0	0	0	0	0	0	0	0	0	0	0	0	0	0	0	0	0		1	0	0	0	0	0	0	0
010713	15:15:48	10024	Memory3R6moFr	ScoreFr3	5	888	400	0	118	15:15:48	2064130	0	0	0	0	0	0	0	0	0	0	0	0	0	0	0	0	0	0	0	0	0	0		1	0	0	0	0	0	0	0
010713	15:15:48	10024	Memory3R6moFr	ScoreFr3	5	Done	1070	0	118	15:15:48	2065262	0	0	0	0	0	0	0	0	0	0	0	0	0	0	0	0	0	0	0	0	0	0		1	0	0	0	0	0	0	0
010713	15:15:48	10024	LoriaFrLH3	Stop	6	4	3161	0	118	15:15:48	2148363	0	0	0	0	0	0	0	0	0	0	0	0	0	0	0	0	0	0	0	0	0	0		1	0	0	0	0	0	0	0
010713	15:15:48	10024	FrTrail	Trails	7	1Trails	2528	0	118	15:15:48	2171206	0	0	0	0	0	0	0	0	0	0	0	0	0	0	0	0	0	0	0	0	0	0		1	0	0	0	0	0	0	0
010713	15:15:48	10024	Serial7Fr6mo	Serial7Fr6mo	8	73	23532	0	118	15:15:48	2210844	1	0	0	0	0	0	0	0	0	0	0	0	0	0	0	0	0	0	0	0	0	0		1	0	0	0	0	0	0	0
010713	15:15:48	10024	Serial7Fr6mo	Serial7Fr6mo	8	67	3951	0	118	15:15:48	2214817	1	0	0	0	0	0	0	0	0	0	0	0	0	0	0	0	0	0	0	0	0	0		1	0	0	0	0	0	0	0
010713	15:15:48	10024	Serial7Fr6mo	Serial7Fr6mo	8	61	3179	0	118	15:15:48	2218014	1	0	0	0	0	0	0	0	0	0	0	0	0	0	0	0	0	0	0	0	0	0		1	0	0	0	0	0	0	0
010713	15:15:48	10024	Serial7Fr6mo	Serial7Fr6mo	8	55	3133	0	118	15:15:48	2221173	1	0	0	0	0	0	0	0	0	0	0	0	0	0	0	0	0	0	0	0	0	0		1	0	0	0	0	0	0	0
010713	15:15:48	10024	Serial7Fr6mo	Serial7Fr6mo	8	49	3446	0	118	15:15:48	2224637	1	0	0	0	0	0	0	0	0	0	0	0	0	0	0	0	0	0	0	0	0	0		1	0	0	0	0	0	0	0
010713	15:15:48	10024	corsiblockFrFwrd	recallseqFrFwrd	9	4	2783	0	118	15:15:48	2265408	1	0	0	0	0	0	0	0	0	0	0	0	0	0	0	0	0	0	0	0	0	0		1	0	0	0	0	0	0	0
010713	15:15:48	10024	corsiblockFrFwrd	recallseqFrFwrd	9	1	1103	0	118	15:15:48	2266567	1	0	0	0	0	0	0	0	0	0	0	0	0	0	0	0	0	0	0	0	0	0		1	0	0	0	0	0	0	0
010713	15:15:48	10024	corsiblockFrFwrd	recallseqFrFwrd	9	doneCorsiFr	1540	0	118	15:15:48	2268167	1	0	0	0	0	0	0	0	0	0	0	0	0	0	0	2	0	0	0	0	0	0		1	0	0	0	0	0	0	0
010713	15:15:48	10024	corsiblockFrFwrd	recallseqFrFwrd	9	9	1429	0	118	15:15:48	2275737	1	0	0	0	0	0	0	0	0	0	0	0	0	0	0	2	0	0	0	0	0	0		1	0	0	0	0	0	0	0
010713	15:15:48	10024	corsiblockFrFwrd	recallseqFrFwrd	9	3	962	0	118	15:15:48	2276750	1	0	0	0	0	0	0	0	0	0	0	0	0	0	0	2	0	0	0	0	0	0		1	0	0	0	0	0	0	0
010713	15:15:48	10024	corsiblockFrFwrd	recallseqFrFwrd	9	6	742	0	118	15:15:48	2277550	1	0	0	0	0	0	0	0	0	0	0	0	0	0	0	2	0	0	0	0	0	0		1	0	0	0	0	0	0	0
010713	15:15:48	10024	corsiblockFrFwrd	recallseqFrFwrd	9	doneCorsiFr	1195	0	118	15:15:48	2278803	1	0	0	0	0	0	0	0	0	0	0	0	0	0	0	3	0	0	0	0	0	0		1	0	0	0	0	0	0	0
010713	15:15:48	10024	corsiblockFrFwrd	recallseqFrFwrd	9	2	1381	0	118	15:15:48	2287332	1	0	0	0	0	0	0	0	0	0	0	0	0	0	0	3	0	0	0	0	0	0		1	0	0	0	0	0	0	0
010713	15:15:48	10024	corsiblockFrFwrd	recallseqFrFwrd	9	8	925	0	118	15:15:48	2288319	1	0	0	0	0	0	0	0	0	0	0	0	0	0	0	3	0	0	0	0	0	0		1	0	0	0	0	0	0	0
010713	15:15:48	10024	corsiblockFrFwrd	recallseqFrFwrd	9	5	645	0	118	15:15:48	2289014	1	0	0	0	0	0	0	0	0	0	0	0	0	0	0	3	0	0	0	0	0	0		1	0	0	0	0	0	0	0
010713	15:15:48	10024	corsiblockFrFwrd	recallseqFrFwrd	9	7	860	0	118	15:15:48	2289918	1	0	0	0	0	0	0	0	0	0	0	0	0	0	0	3	0	0	0	0	0	0		1	0	0	0	0	0	0	0
010713	15:15:48	10024	corsiblockFrFwrd	recallseqFrFwrd	9	doneCorsiFr	841	0	118	15:15:48	2290811	1	0	0	0	0	0	0	0	0	0	0	0	0	0	0	4	0	0	0	0	0	0		1	0	0	0	0	0	0	0
010713	15:15:48	10024	corsiblockFrFwrd	recallseqFrFwrd	9	6	1252	0	118	15:15:48	2300220	1	0	0	0	0	0	0	0	0	0	0	0	0	0	0	4	0	0	0	0	0	0		1	0	0	0	0	0	0	0
010713	15:15:48	10024	corsiblockFrFwrd	recallseqFrFwrd	9	5	675	0	118	15:15:48	2300940	1	0	0	0	0	0	0	0	0	0	0	0	0	0	0	4	0	0	0	0	0	0		1	0	0	0	0	0	0	0
010713	15:15:48	10024	corsiblockFrFwrd	recallseqFrFwrd	9	4	568	0	118	15:15:48	2301568	1	0	0	0	0	0	0	0	0	0	0	0	0	0	0	4	0	0	0	0	0	0		1	0	0	0	0	0	0	0
010713	15:15:48	10024	corsiblockFrFwrd	recallseqFrFwrd	9	1	791	0	118	15:15:48	2302422	1	0	0	0	0	0	0	0	0	0	0	0	0	0	0	4	0	0	0	0	0	0		1	0	0	0	0	0	0	0
010713	15:15:48	10024	corsiblockFrFwrd	recallseqFrFwrd	9	9	1342	0	118	15:15:48	2303819	1	0	0	0	0	0	0	0	0	0	0	0	0	0	0	4	0	0	0	0	0	0		1	0	0	0	0	0	0	0
010713	15:15:48	10024	corsiblockFrFwrd	recallseqFrFwrd	9	doneCorsiFr	1108	0	118	15:15:48	2304979	1	0	0	0	0	0	0	0	0	0	0	0	0	0	0	4	0	0	0	0	0	0		1	0	0	0	0	0	0	0
010713	15:15:48	10024	corsiblockFrFwrd	recallseqFrFwrd	9	3	1474	0	118	15:15:48	2314548	1	0	0	0	0	0	0	0	0	0	0	0	0	0	0	4	0	0	0	0	0	0		1	0	0	0	0	0	0	0
010713	15:15:48	10024	corsiblockFrFwrd	recallseqFrFwrd	9	9	1690	0	118	15:15:48	2316294	1	0	0	0	0	0	0	0	0	0	0	0	0	0	0	4	0	0	0	0	0	0		1	0	0	0	0	0	0	0
010713	15:15:48	10024	corsiblockFrFwrd	recallseqFrFwrd	9	2	712	0	118	15:15:48	2317053	1	0	0	0	0	0	0	0	0	0	0	0	0	0	0	4	0	0	0	0	0	0		1	0	0	0	0	0	0	0
010713	15:15:48	10024	corsiblockFrFwrd	recallseqFrFwrd	9	8	662	0	118	15:15:48	2317776	1	0	0	0	0	0	0	0	0	0	0	0	0	0	0	4	0	0	0	0	0	0		1	0	0	0	0	0	0	0
010713	15:15:48	10024	corsiblockFrFwrd	recallseqFrFwrd	9	1	1011	0	118	15:15:48	2318855	1	0	0	0	0	0	0	0	0	0	0	0	0	0	0	4	0	0	0	0	0	0		1	0	0	0	0	0	0	0
010713	15:15:48	10024	corsiblockFrFwrd	recallseqFrFwrd	9	doneCorsiFr	1154	0	118	15:15:48	2320053	1	0	0	0	0	0	0	0	0	0	0	0	0	0	0	5	0	0	0	0	0	0		1	0	0	0	0	0	0	0
010713	15:15:48	10024	corsiblockFrFwrd	recallseqFrFwrd	9	5	1277	0	118	15:15:48	2329462	1	0	0	0	0	0	0	0	0	0	0	0	0	0	0	5	0	0	0	0	0	0		1	0	0	0	0	0	0	0
010713	15:15:48	10024	corsiblockFrFwrd	recallseqFrFwrd	9	9	765	0	118	15:15:48	2330275	1	0	0	0	0	0	0	0	0	0	0	0	0	0	0	5	0	0	0	0	0	0		1	0	0	0	0	0	0	0
010713	15:15:48	10024	corsiblockFrFwrd	recallseqFrFwrd	9	7	723	0	118	15:15:48	2331050	1	0	0	0	0	0	0	0	0	0	0	0	0	0	0	5	0	0	0	0	0	0		1	0	0	0	0	0	0	0
010713	15:15:48	10024	corsiblockFrFwrd	recallseqFrFwrd	9	6	855	0	118	15:15:48	2331954	1	0	0	0	0	0	0	0	0	0	0	0	0	0	0	5	0	0	0	0	0	0		1	0	0	0	0	0	0	0
010713	15:15:48	10024	corsiblockFrFwrd	recallseqFrFwrd	9	4	524	0	118	15:15:48	2332527	1	0	0	0	0	0	0	0	0	0	0	0	0	0	0	5	0	0	0	0	0	0		1	0	0	0	0	0	0	0
010713	15:15:48	10024	corsiblockFrFwrd	recallseqFrFwrd	9	8	1519	0	118	15:15:48	2334100	1	0	0	0	0	0	0	0	0	0	0	0	0	0	0	5	0	0	0	0	0	0		1	0	0	0	0	0	0	0
010713	15:15:48	10024	corsiblockFrFwrd	recallseqFrFwrd	9	doneCorsiFr	818	0	118	15:15:48	2334967	1	0	0	0	0	0	0	0	0	0	0	0	0	0	0	6	0	0	0	0	0	0		1	0	0	0	0	0	0	0
010713	15:15:48	10024	corsiblockFrFwrd	recallseqFrFwrd	9	3	1925	0	118	15:15:48	2347028	1	0	0	0	0	0	0	0	0	0	0	0	0	0	0	6	0	0	0	0	0	0		1	0	0	0	0	0	0	0
010713	15:15:48	10024	corsiblockFrFwrd	recallseqFrFwrd	9	2	1633	0	118	15:15:48	2348707	1	0	0	0	0	0	0	0	0	0	0	0	0	0	0	6	0	0	0	0	0	0		1	0	0	0	0	0	0	0
010713	15:15:48	10024	corsiblockFrFwrd	recallseqFrFwrd	9	8	1625	0	118	15:15:48	2350387	1	0	0	0	0	0	0	0	0	0	0	0	0	0	0	6	0	0	0	0	0	0		1	0	0	0	0	0	0	0
010713	15:15:48	10024	corsiblockFrFwrd	recallseqFrFwrd	9	9	1315	0	118	15:15:48	2351747	1	0	0	0	0	0	0	0	0	0	0	0	0	0	0	6	0	0	0	0	0	0		1	0	0	0	0	0	0	0
010713	15:15:48	10024	corsiblockFrFwrd	recallseqFrFwrd	9	4	707	0	118	15:15:48	2352506	1	0	0	0	0	0	0	0	0	0	0	0	0	0	0	6	0	0	0	0	0	0		1	0	0	0	0	0	0	0
010713	15:15:48	10024	corsiblockFrFwrd	recallseqFrFwrd	9	2	685	0	118	15:15:48	2353252	1	0	0	0	0	0	0	0	0	0	0	0	0	0	0	6	0	0	0	0	0	0		1	0	0	0	0	0	0	0
010713	15:15:48	10024	corsiblockFrFwrd	recallseqFrFwrd	9	doneCorsiFr	1728	0	118	15:15:48	2355038	1	0	0	0	0	0	0	0	0	0	0	0	0	0	0	6	0	0	0	0	0	0		1	0	0	0	0	0	0	0
010713	15:15:48	10024	corsiblockFrFwrd	recallseqFrFwrd	9	resetCorsiFr	3557	0	118	15:15:48	2368699	1	0	0	0	0	0	0	0	0	0	0	0	0	0	0	6	0	0	0	0	0	0		1	0	0	0	0	0	0	0
010713	15:15:48	10024	corsiblockFrFwrd	recallseqFrFwrd	9	6	2917	0	118	15:15:48	2371671	1	0	0	0	0	0	0	0	0	0	0	0	0	0	0	6	0	0	0	0	0	0		1	0	0	0	0	0	0	0
010713	15:15:48	10024	corsiblockFrFwrd	recallseqFrFwrd	9	3	3727	0	118	15:15:48	2375470	1	0	0	0	0	0	0	0	0	0	0	0	0	0	0	6	0	0	0	0	0	0		1	0	0	0	0	0	0	0
010713	15:15:48	10024	corsiblockFrFwrd	recallseqFrFwrd	9	9	1238	0	118	15:15:48	2376763	1	0	0	0	0	0	0	0	0	0	0	0	0	0	0	6	0	0	0	0	0	0		1	0	0	0	0	0	0	0
010713	15:15:48	10024	corsiblockFrFwrd	recallseqFrFwrd	9	8	802	0	118	15:15:48	2377616	1	0	0	0	0	0	0	0	0	0	0	0	0	0	0	6	0	0	0	0	0	0		1	0	0	0	0	0	0	0
010713	15:15:48	10024	corsiblockFrFwrd	recallseqFrFwrd	9	doneCorsiFr	1741	0	118	15:15:48	2379402	1	0	0	0	0	0	0	0	0	0	0	0	0	0	0	6	0	0	0	0	0	0		1	0	0	0	0	0	0	0
010713	15:15:48	10024	corsiblockFrRev	recallseqFrRev	10	2	1382	0	118	15:15:48	2388385	1	0	0	0	0	0	0	0	0	0	0	0	0	0	0	6	0	0	0	0	0	0		1	0	0	0	0	0	0	0
010713	15:15:48	10024	corsiblockFrRev	recallseqFrRev	10	8	787	0	118	15:15:48	2389224	1	0	0	0	0	0	0	0	0	0	0	0	0	0	0	6	0	0	0	0	0	0		1	0	0	0	0	0	0	0
010713	15:15:48	10024	corsiblockFrRev	recallseqFrRev	10	doneCorsiFr	748	0	118	15:15:48	2390024	1	0	0	0	0	0	0	0	0	0	0	0	0	0	0	6	2	0	0	0	0	0		1	0	0	0	0	0	0	0
010713	15:15:48	10024	corsiblockFrRev	recallseqFrRev	10	4	1289	0	118	15:15:48	2397461	1	0	0	0	0	0	0	0	0	0	0	0	0	0	0	6	2	0	0	0	0	0		1	0	0	0	0	0	0	0
010713	15:15:48	10024	corsiblockFrRev	recallseqFrRev	10	5	454	0	118	15:15:48	2397968	1	0	0	0	0	0	0	0	0	0	0	0	0	0	0	6	2	0	0	0	0	0		1	0	0	0	0	0	0	0
010713	15:15:48	10024	corsiblockFrRev	recallseqFrRev	10	6	424	0	118	15:15:48	2398447	1	0	0	0	0	0	0	0	0	0	0	0	0	0	0	6	2	0	0	0	0	0		1	0	0	0	0	0	0	0
010713	15:15:48	10024	corsiblockFrRev	recallseqFrRev	10	doneCorsiFr	1217	0	118	15:15:48	2399713	1	0	0	0	0	0	0	0	0	0	0	0	0	0	0	6	3	0	0	0	0	0		1	0	0	0	0	0	0	0
010713	15:15:48	10024	corsiblockFrRev	recallseqFrRev	10	1	976	0	118	15:15:48	2407830	1	0	0	0	0	0	0	0	0	0	0	0	0	0	0	6	3	0	0	0	0	0		1	0	0	0	0	0	0	0
010713	15:15:48	10024	corsiblockFrRev	recallseqFrRev	10	9	798	0	118	15:15:48	2408685	1	0	0	0	0	0	0	0	0	0	0	0	0	0	0	6	3	0	0	0	0	0		1	0	0	0	0	0	0	0
010713	15:15:48	10024	corsiblockFrRev	recallseqFrRev	10	7	608	0	118	15:15:48	2409336	1	0	0	0	0	0	0	0	0	0	0	0	0	0	0	6	3	0	0	0	0	0		1	0	0	0	0	0	0	0
010713	15:15:48	10024	corsiblockFrRev	recallseqFrRev	10	3	900	0	118	15:15:48	2410282	1	0	0	0	0	0	0	0	0	0	0	0	0	0	0	6	3	0	0	0	0	0		1	0	0	0	0	0	0	0
010713	15:15:48	10024	corsiblockFrRev	recallseqFrRev	10	doneCorsiFr	858	0	118	15:15:48	2411189	1	0	0	0	0	0	0	0	0	0	0	0	0	0	0	6	4	0	0	0	0	0		1	0	0	0	0	0	0	0
010713	15:15:48	10024	corsiblockFrRev	recallseqFrRev	10	8	632	0	118	15:15:48	2419972	1	0	0	0	0	0	0	0	0	0	0	0	0	0	0	6	4	0	0	0	0	0		1	0	0	0	0	0	0	0
010713	15:15:48	10024	corsiblockFrRev	recallseqFrRev	10	7	684	0	118	15:15:48	2420705	1	0	0	0	0	0	0	0	0	0	0	0	0	0	0	6	4	0	0	0	0	0		1	0	0	0	0	0	0	0
010713	15:15:48	10024	corsiblockFrRev	recallseqFrRev	10	2	711	0	118	15:15:48	2421494	1	0	0	0	0	0	0	0	0	0	0	0	0	0	0	6	4	0	0	0	0	0		1	0	0	0	0	0	0	0
010713	15:15:48	10024	corsiblockFrRev	recallseqFrRev	10	5	620	0	118	15:15:48	2422157	1	0	0	0	0	0	0	0	0	0	0	0	0	0	0	6	4	0	0	0	0	0		1	0	0	0	0	0	0	0
010713	15:15:48	10024	corsiblockFrRev	recallseqFrRev	10	6	406	0	118	15:15:48	2422617	1	0	0	0	0	0	0	0	0	0	0	0	0	0	0	6	4	0	0	0	0	0		1	0	0	0	0	0	0	0
010713	15:15:48	10024	corsiblockFrRev	recallseqFrRev	10	doneCorsiFr	596	0	118	15:15:48	2423277	1	0	0	0	0	0	0	0	0	0	0	0	0	0	0	6	4	0	0	0	0	0		1	0	0	0	0	0	0	0
010713	15:15:48	10024	corsiblockFrRev	recallseqFrRev	10	7	1386	0	118	15:15:48	2432793	1	0	0	0	0	0	0	0	0	0	0	0	0	0	0	6	4	0	0	0	0	0		1	0	0	0	0	0	0	0
010713	15:15:48	10024	corsiblockFrRev	recallseqFrRev	10	3	650	0	118	15:15:48	2433500	1	0	0	0	0	0	0	0	0	0	0	0	0	0	0	6	4	0	0	0	0	0		1	0	0	0	0	0	0	0
010713	15:15:48	10024	corsiblockFrRev	recallseqFrRev	10	9	768	0	118	15:15:48	2434313	1	0	0	0	0	0	0	0	0	0	0	0	0	0	0	6	4	0	0	0	0	0		1	0	0	0	0	0	0	0
010713	15:15:48	10024	corsiblockFrRev	recallseqFrRev	10	5	716	0	118	15:15:48	2435086	1	0	0	0	0	0	0	0	0	0	0	0	0	0	0	6	4	0	0	0	0	0		1	0	0	0	0	0	0	0
010713	15:15:48	10024	corsiblockFrRev	recallseqFrRev	10	1	787	0	118	15:15:48	2435927	1	0	0	0	0	0	0	0	0	0	0	0	0	0	0	6	4	0	0	0	0	0		1	0	0	0	0	0	0	0
010713	15:15:48	10024	corsiblockFrRev	recallseqFrRev	10	doneCorsiFr	1255	0	118	15:15:48	2437233	1	0	0	0	0	0	0	0	0	0	0	0	0	0	0	6	4	0	0	0	0	0		1	0	0	0	0	0	0	0
010713	15:15:48	10024	testFr6mo	WordsFr6mo	11	1Fr6mo	16381	0	118	15:15:48	2465527	1	3	0	0	0	0	0	0	0	0	0	0	0	0	0	6	4	0	0	0	0	0		1	0	0	0	0	0	0	0
010713	15:15:48	10024	testFr6mo	WordsFr6mo	11	2Fr6mo	137	0	118	15:15:48	2465740	1	3	3	0	0	0	0	0	0	0	0	0	0	0	0	6	4	0	0	0	0	0		1	0	0	0	0	0	0	0
010713	15:15:48	10024	testFr6mo	WordsFr6mo	11	4Fr6mo	216	0	118	15:15:48	2466020	1	3	3	0	3	0	0	0	0	0	0	0	0	0	0	6	4	0	0	0	0	0		1	0	0	0	0	0	0	0
010713	15:15:48	10024	testFr6mo	WordsFr6mo	11	3Fr6mo	296	0	118	15:15:48	2466380	1	3	3	3	3	0	0	0	0	0	0	0	0	0	0	6	4	0	0	0	0	0		1	0	0	0	0	0	0	0
010713	15:15:48	10024	testFr6mo	WordsFr6mo	11	5Fr6mo	316	0	118	15:15:48	2466766	1	3	3	3	3	3	0	0	0	0	0	0	0	0	0	6	4	0	0	0	0	0		1	0	0	0	0	0	0	0
010713	15:15:48	10024	testFr6mo	WordsFr6mo	11	6Fr6mo	186	0	118	15:15:48	2467033	1	3	3	3	3	3	3	0	0	0	0	0	0	0	0	6	4	0	0	0	0	0		1	0	0	0	0	0	0	0
010713	15:15:48	10024	testFr6mo	WordsFr6mo	11	7Fr6mo	191	0	118	15:15:48	2467299	1	3	3	3	3	3	3	3	0	0	0	0	0	0	0	6	4	0	0	0	0	0		1	0	0	0	0	0	0	0
010713	15:15:48	10024	testFr6mo	WordsFr6mo	11	8Fr6mo	249	0	118	15:15:48	2467619	1	3	3	3	3	3	3	3	3	0	0	0	0	0	0	6	4	0	0	0	0	0		1	0	0	0	0	0	0	0
010713	15:15:48	10024	testFr6mo	WordsFr6mo	11	DoneFr6mo	1201	0	118	15:15:48	2468885	1	3	3	3	3	3	3	3	3	0	0	0	0	0	0	6	4	0	0	0	0	0		1	0	0	0	0	0	0	0
010713	15:15:48	10024	DigitSpanFwrdFr6mo	Score1FwrdFr6mo	12	DS1	2857	0	118	15:15:48	2485012	1	3	3	3	3	3	3	3	3	0	0	0	0	0	0	6	4	0	0	0	0	0		1	0	0	0	0	0	0	0
010713	15:15:48	10024	DigitSpanFwrdFr6mo	Gate1FwrdFr6mo	12	0	1	0	118	15:15:48	2485018	1	3	3	3	3	3	3	3	3	3	0	0	0	0	0	6	4	0	0	0	0	0		1	0	0	0	0	0	0	0
010713	15:15:48	10024	DigitSpanFwrdFr6mo	Score2FwrdFr6mo	12	DS1	2287	0	118	15:15:48	2493608	1	3	3	3	3	3	3	3	3	3	0	0	0	0	0	6	4	0	0	0	0	0		1	0	0	0	0	0	0	0
010713	15:15:48	10024	DigitSpanFwrdFr6mo	Gate3FwrdFr6mo	12	0	1	0	118	15:15:48	2493615	1	3	3	3	3	3	3	3	3	4	0	0	0	0	0	6	4	0	0	0	0	0		1	0	0	0	0	0	0	0
010713	15:15:48	10024	DigitSpanFwrdFr6mo	Score3FwrdFr6mo	12	DS1	3125	0	118	15:15:48	2503978	1	3	3	3	3	3	3	3	3	4	0	0	0	0	0	6	4	0	0	0	0	0		1	0	0	0	0	0	0	0
010713	15:15:48	10024	DigitSpanFwrdFr6mo	Gate5FwrdFr6mo	12	0	1	0	118	15:15:48	2503997	1	3	3	3	3	3	3	3	3	5	0	0	0	0	0	6	4	0	0	0	0	0		1	0	0	0	0	0	0	0
010713	15:15:48	10024	DigitSpanFwrdFr6mo	Score4FwrdFr6mo	12	DS1	2193	0	118	15:15:48	2514706	1	3	3	3	3	3	3	3	3	5	0	0	0	0	0	6	4	0	0	0	0	0		1	0	0	0	0	0	0	0
010713	15:15:48	10024	DigitSpanFwrdFr6mo	Gate7FwrdFr6mo	12	0	1	0	118	15:15:48	2514713	1	3	3	3	3	3	3	3	3	6	0	0	0	0	0	6	4	0	0	0	0	0		1	0	0	0	0	0	0	0
010713	15:15:48	10024	DigitSpanFwrdFr6mo	Score5FwrdFr6mo	12	DS2	6171	0	118	15:15:48	2530847	1	3	3	3	3	3	3	3	3	6	0	0	0	0	0	6	4	0	0	0	0	0		1	0	0	0	0	0	0	0
010713	15:15:48	10024	DigitSpanFwrdFr6mo	Gate9FwrdFr6mo	12	0	1	0	118	15:15:48	2530852	1	3	3	3	3	3	3	3	3	6	0	0	0	0	0	6	4	0	0	0	0	0		1	0	0	0	0	0	0	0
010713	15:15:48	10024	DigitSpanFwrdFr6mo	Score55FwrdFr6mo	12	DS2	5594	0	118	15:15:48	2546014	1	3	3	3	3	3	3	3	3	6	0	0	0	0	0	6	4	0	0	0	0	0		1	0	0	0	0	0	0	0
010713	15:15:48	10024	DigitSpanFr6mo	Score1Fr6mo	13	DS1	1691	0	118	15:15:48	2558089	1	3	3	3	3	3	3	3	3	6	0	0	0	0	0	6	4	0	0	0	0	0		1	0	0	0	0	0	0	0
010713	15:15:48	10024	DigitSpanFr6mo	Gate1Fr6mo	13	0	1	0	118	15:15:48	2558093	1	3	3	3	3	3	3	3	3	6	2	0	0	0	0	6	4	0	0	0	0	0		1	0	0	0	0	0	0	0
010713	15:15:48	10024	DigitSpanFr6mo	Score2Fr6mo	13	DS1	3314	0	118	15:15:48	2565966	1	3	3	3	3	3	3	3	3	6	2	0	0	0	0	6	4	0	0	0	0	0		1	0	0	0	0	0	0	0
010713	15:15:48	10024	DigitSpanFr6mo	Gate3Fr6mo	13	0	1	0	118	15:15:48	2565970	1	3	3	3	3	3	3	3	3	6	3	0	0	0	0	6	4	0	0	0	0	0		1	0	0	0	0	0	0	0
010713	15:15:48	10024	DigitSpanFr6mo	Score3Fr6mo	13	DS2	10390	0	118	15:15:48	2582039	1	3	3	3	3	3	3	3	3	6	3	0	0	0	0	6	4	0	0	0	0	0		1	0	0	0	0	0	0	0
010713	15:15:48	10024	DigitSpanFr6mo	Gate5Fr6mo	13	0	1	0	118	15:15:48	2582045	1	3	3	3	3	3	3	3	3	6	3	0	0	0	0	6	4	0	0	0	0	0		1	0	0	0	0	0	0	0
010713	15:15:48	10024	DigitSpanFr6mo	Score33Fr6mo	13	DS2	9263	0	118	15:15:48	2597366	1	3	3	3	3	3	3	3	3	6	3	0	0	0	0	6	4	0	0	0	0	0		1	0	0	0	0	0	0	0
010713	15:15:48	10024	Trial	ResponseIL	14	0	175	0	118	15:15:48	2631619	1	3	3	3	3	3	3	3	3	6	3	0	0	0	0	6	4	0	0	0	0	0		1	0	0	0	0	0	0	0
010713	15:15:48	10024	Trial	IncongruentLeft	14	203	334	1	118	15:15:48	2631979	1	3	3	3	3	3	3	3	3	6	3	0	0	0	0	6	4	0	0	0	0	0		1	0	0	0	0	0	0	0
010713	15:15:48	10024	Trial	ResponseCR	14	0	175	0	118	15:15:48	2633325	1	3	3	3	3	3	3	3	3	6	3	0	0	0	0	6	4	0	0	0	0	0		1	0	0	0	0	0	0	0
010713	15:15:48	10024	Trial	CongruentRight	14	205	197	1	118	15:15:48	2633551	1	3	3	3	3	3	3	3	3	6	3	0	0	0	0	6	4	0	0	0	0	0		1	0	0	0	0	0	0	0
010713	15:15:48	10024	Trial	ResponseIR	14	0	175	0	118	15:15:48	2635031	1	3	3	3	3	3	3	3	3	6	3	0	0	0	0	6	4	0	0	0	0	0		1	0	0	0	0	0	0	0
010713	15:15:48	10024	Trial	IncongruentRight	14	203	172	0	118	15:15:48	2635231	1	3	3	3	3	3	3	3	3	6	3	0	0	0	0	6	4	0	0	0	0	0		1	0	0	0	0	0	0	0
010713	15:15:48	10024	Trial	ResponseCL	14	0	175	0	118	15:15:48	2636737	1	3	3	3	3	3	3	3	3	6	3	0	0	0	0	6	4	0	0	0	0	0		1	0	0	0	0	0	0	0
010713	15:15:48	10024	Trial	CongruentLeft	14	203	193	1	118	15:15:48	2636950	1	3	3	3	3	3	3	3	3	6	3	0	0	0	0	6	4	0	0	0	0	0		1	0	0	0	0	0	0	0
010713	15:15:48	10024	Trial	ResponseCR	14	0	175	0	118	15:15:48	2638443	1	3	3	3	3	3	3	3	3	6	3	0	0	0	0	6	4	0	0	0	0	0		1	0	0	0	0	0	0	0
010713	15:15:48	10024	Trial	CongruentRight	14	205	214	1	118	15:15:48	2638683	1	3	3	3	3	3	3	3	3	6	3	0	0	0	0	6	4	0	0	0	0	0		1	0	0	0	0	0	0	0
010713	15:15:48	10024	Trial	ResponseIR	14	0	175	0	118	15:15:48	2640149	1	3	3	3	3	3	3	3	3	6	3	0	0	0	0	6	4	0	0	0	0	0		1	0	0	0	0	0	0	0
010713	15:15:48	10024	Trial	IncongruentRight	14	205	300	1	118	15:15:48	2640469	1	3	3	3	3	3	3	3	3	6	3	0	0	0	0	6	4	0	0	0	0	0		1	0	0	0	0	0	0	0
010713	15:15:48	10024	Trial	ResponseCL	14	0	175	0	118	15:15:48	2641855	1	3	3	3	3	3	3	3	3	6	3	0	0	0	0	6	4	0	0	0	0	0		1	0	0	0	0	0	0	0
010713	15:15:48	10024	Trial	CongruentLeft	14	203	243	1	118	15:15:48	2642121	1	3	3	3	3	3	3	3	3	6	3	0	0	0	0	6	4	0	0	0	0	0		1	0	0	0	0	0	0	0
010713	15:15:48	10024	Trial	ResponseIL	14	0	175	0	118	15:15:48	2643561	1	3	3	3	3	3	3	3	3	6	3	0	0	0	0	6	4	0	0	0	0	0		1	0	0	0	0	0	0	0
010713	15:15:48	10024	Trial	IncongruentLeft	14	203	360	1	118	15:15:48	2643947	1	3	3	3	3	3	3	3	3	6	3	0	0	0	0	6	4	0	0	0	0	0		1	0	0	0	0	0	0	0
010713	15:15:48	10024	Trial	ResponseIL	14	0	175	0	118	15:15:48	2645267	1	3	3	3	3	3	3	3	3	6	3	0	0	0	0	6	4	0	0	0	0	0		1	0	0	0	0	0	0	0
010713	15:15:48	10024	Trial	IncongruentLeft	14	203	297	1	118	15:15:48	2645587	1	3	3	3	3	3	3	3	3	6	3	0	0	0	0	6	4	0	0	0	0	0		1	0	0	0	0	0	0	0
010713	15:15:48	10024	Trial	ResponseCR	14	0	175	0	118	15:15:48	2646999	1	3	3	3	3	3	3	3	3	6	3	0	0	0	0	6	4	0	0	0	0	0		1	0	0	0	0	0	0	0
010713	15:15:48	10024	Trial	CongruentRight	14	205	185	1	118	15:15:48	2647213	1	3	3	3	3	3	3	3	3	6	3	0	0	0	0	6	4	0	0	0	0	0		1	0	0	0	0	0	0	0
010713	15:15:48	10024	Trial	ResponseIR	14	0	175	0	118	15:15:48	2648705	1	3	3	3	3	3	3	3	3	6	3	0	0	0	0	6	4	0	0	0	0	0		1	0	0	0	0	0	0	0
010713	15:15:48	10024	Trial	IncongruentRight	14	205	288	1	118	15:15:48	2649012	1	3	3	3	3	3	3	3	3	6	3	0	0	0	0	6	4	0	0	0	0	0		1	0	0	0	0	0	0	0
010713	15:15:48	10024	Trial	ResponseCL	14	0	175	0	118	15:15:48	2650411	1	3	3	3	3	3	3	3	3	6	3	0	0	0	0	6	4	0	0	0	0	0		1	0	0	0	0	0	0	0
010713	15:15:48	10024	Trial	CongruentLeft	14	203	224	1	118	15:15:48	2650665	1	3	3	3	3	3	3	3	3	6	3	0	0	0	0	6	4	0	0	0	0	0		1	0	0	0	0	0	0	0
010713	15:15:48	10024	Trial	ResponseCR	14	0	175	0	118	15:15:48	2652117	1	3	3	3	3	3	3	3	3	6	3	0	0	0	0	6	4	0	0	0	0	0		1	0	0	0	0	0	0	0
010713	15:15:48	10024	Trial	CongruentRight	14	205	199	1	118	15:15:48	2652344	1	3	3	3	3	3	3	3	3	6	3	0	0	0	0	6	4	0	0	0	0	0		1	0	0	0	0	0	0	0
010713	15:15:48	10024	Trial	ResponseIL	14	0	175	0	118	15:15:48	2653823	1	3	3	3	3	3	3	3	3	6	3	0	0	0	0	6	4	0	0	0	0	0		1	0	0	0	0	0	0	0
010713	15:15:48	10024	Trial	IncongruentLeft	14	203	321	1	118	15:15:48	2654170	1	3	3	3	3	3	3	3	3	6	3	0	0	0	0	6	4	0	0	0	0	0		1	0	0	0	0	0	0	0
010713	15:15:48	10024	Trial	ResponseIR	14	0	175	0	118	15:15:48	2655529	1	3	3	3	3	3	3	3	3	6	3	0	0	0	0	6	4	0	0	0	0	0		1	0	0	0	0	0	0	0
010713	15:15:48	10024	Trial	IncongruentRight	14	205	325	1	118	15:15:48	2655876	1	3	3	3	3	3	3	3	3	6	3	0	0	0	0	6	4	0	0	0	0	0		1	0	0	0	0	0	0	0
010713	15:15:48	10024	Trial	ResponseCR	14	0	175	0	118	15:15:48	2657249	1	3	3	3	3	3	3	3	3	6	3	0	0	0	0	6	4	0	0	0	0	0		1	0	0	0	0	0	0	0
010713	15:15:48	10024	Trial	CongruentRight	14	205	267	1	118	15:15:48	2657542	1	3	3	3	3	3	3	3	3	6	3	0	0	0	0	6	4	0	0	0	0	0		1	0	0	0	0	0	0	0
010713	15:15:48	10024	Trial	ResponseCL	14	0	175	0	118	15:15:48	2658955	1	3	3	3	3	3	3	3	3	6	3	0	0	0	0	6	4	0	0	0	0	0		1	0	0	0	0	0	0	0
010713	15:15:48	10024	Trial	CongruentLeft	14	203	182	1	118	15:15:48	2659154	1	3	3	3	3	3	3	3	3	6	3	0	0	0	0	6	4	0	0	0	0	0		1	0	0	0	0	0	0	0
010713	15:15:48	10024	Trial	ResponseCR	14	0	175	0	118	15:15:48	2660660	1	3	3	3	3	3	3	3	3	6	3	0	0	0	0	6	4	0	0	0	0	0		1	0	0	0	0	0	0	0
010713	15:15:48	10024	Trial	CongruentRight	14	205	236	1	118	15:15:48	2660927	1	3	3	3	3	3	3	3	3	6	3	0	0	0	0	6	4	0	0	0	0	0		1	0	0	0	0	0	0	0
010713	15:15:48	10024	Trial	ResponseIR	14	0	175	0	118	15:15:48	2662366	1	3	3	3	3	3	3	3	3	6	3	0	0	0	0	6	4	0	0	0	0	0		1	0	0	0	0	0	0	0
010713	15:15:48	10024	Trial	IncongruentRight	14	205	370	1	118	15:15:48	2662766	1	3	3	3	3	3	3	3	3	6	3	0	0	0	0	6	4	0	0	0	0	0		1	0	0	0	0	0	0	0
010713	15:15:48	10024	Trial	ResponseIL	14	0	175	0	118	15:15:48	2664072	1	3	3	3	3	3	3	3	3	6	3	0	0	0	0	6	4	0	0	0	0	0		1	0	0	0	0	0	0	0
010713	15:15:48	10024	Trial	IncongruentLeft	14	203	275	1	118	15:15:48	2664379	1	3	3	3	3	3	3	3	3	6	3	0	0	0	0	6	4	0	0	0	0	0		1	0	0	0	0	0	0	0
010713	15:15:48	10024	Trial	ResponseIL	14	0	175	0	118	15:15:48	2665779	1	3	3	3	3	3	3	3	3	6	3	0	0	0	0	6	4	0	0	0	0	0		1	0	0	0	0	0	0	0
010713	15:15:48	10024	Trial	IncongruentLeft	14	203	559	1	118	15:15:48	2666365	1	3	3	3	3	3	3	3	3	6	3	0	0	0	0	6	4	0	0	0	0	0		1	0	0	0	0	0	0	0
010713	15:15:48	10024	Trial	ResponseCL	14	0	175	0	118	15:15:48	2667498	1	3	3	3	3	3	3	3	3	6	3	0	0	0	0	6	4	0	0	0	0	0		1	0	0	0	0	0	0	0
010713	15:15:48	10024	Trial	CongruentLeft	14	203	295	1	118	15:15:48	2667818	1	3	3	3	3	3	3	3	3	6	3	0	0	0	0	6	4	0	0	0	0	0		1	0	0	0	0	0	0	0
010713	15:15:48	10024	Trial	ResponseCR	14	0	175	0	118	15:15:48	2669204	1	3	3	3	3	3	3	3	3	6	3	0	0	0	0	6	4	0	0	0	0	0		1	0	0	0	0	0	0	0
010713	15:15:48	10024	Trial	CongruentRight	14	205	204	1	118	15:15:48	2669430	1	3	3	3	3	3	3	3	3	6	3	0	0	0	0	6	4	0	0	0	0	0		1	0	0	0	0	0	0	0
010713	15:15:48	10024	Trial	ResponseIL	14	0	175	0	118	15:15:48	2670910	1	3	3	3	3	3	3	3	3	6	3	0	0	0	0	6	4	0	0	0	0	0		1	0	0	0	0	0	0	0
010713	15:15:48	10024	Trial	IncongruentLeft	14	203	258	1	118	15:15:48	2671190	1	3	3	3	3	3	3	3	3	6	3	0	0	0	0	6	4	0	0	0	0	0		1	0	0	0	0	0	0	0
010713	15:15:48	10024	Trial	ResponseIR	14	0	175	0	118	15:15:48	2672616	1	3	3	3	3	3	3	3	3	6	3	0	0	0	0	6	4	0	0	0	0	0		1	0	0	0	0	0	0	0
010713	15:15:48	10024	Trial	IncongruentRight	14	205	232	1	118	15:15:48	2672869	1	3	3	3	3	3	3	3	3	6	3	0	0	0	0	6	4	0	0	0	0	0		1	0	0	0	0	0	0	0
010713	15:15:48	10024	Trial	ResponseCR	14	0	175	0	118	15:15:48	2674322	1	3	3	3	3	3	3	3	3	6	3	0	0	0	0	6	4	0	0	0	0	0		1	0	0	0	0	0	0	0
010713	15:15:48	10024	Trial	CongruentRight	14	205	202	1	118	15:15:48	2674548	1	3	3	3	3	3	3	3	3	6	3	0	0	0	0	6	4	0	0	0	0	0		1	0	0	0	0	0	0	0
010713	15:15:48	10024	Trial	ResponseCL	14	0	175	0	118	15:15:48	2676027	1	3	3	3	3	3	3	3	3	6	3	0	0	0	0	6	4	0	0	0	0	0		1	0	0	0	0	0	0	0
010713	15:15:48	10024	Trial	CongruentLeft	14	203	197	1	118	15:15:48	2676254	1	3	3	3	3	3	3	3	3	6	3	0	0	0	0	6	4	0	0	0	0	0		1	0	0	0	0	0	0	0
010713	15:15:48	10024	Trial	ResponseIR	14	0	175	0	118	15:15:48	2677734	1	3	3	3	3	3	3	3	3	6	3	0	0	0	0	6	4	0	0	0	0	0		1	0	0	0	0	0	0	0
010713	15:15:48	10024	Trial	IncongruentRight	14	205	219	1	118	15:15:48	2677973	1	3	3	3	3	3	3	3	3	6	3	0	0	0	0	6	4	0	0	0	0	0		1	0	0	0	0	0	0	0
010713	15:15:48	10024	Trial	ResponseIL	14	0	175	0	118	15:15:48	2679439	1	3	3	3	3	3	3	3	3	6	3	0	0	0	0	6	4	0	0	0	0	0		1	0	0	0	0	0	0	0
010713	15:15:48	10024	Trial	IncongruentLeft	14	203	231	1	118	15:15:48	2679706	1	3	3	3	3	3	3	3	3	6	3	0	0	0	0	6	4	0	0	0	0	0		1	0	0	0	0	0	0	0
010713	15:15:48	10024	Trial	ResponseIR	14	0	175	0	118	15:15:48	2681145	1	3	3	3	3	3	3	3	3	6	3	0	0	0	0	6	4	0	0	0	0	0		1	0	0	0	0	0	0	0
010713	15:15:48	10024	Trial	IncongruentRight	14	205	225	1	118	15:15:48	2681399	1	3	3	3	3	3	3	3	3	6	3	0	0	0	0	6	4	0	0	0	0	0		1	0	0	0	0	0	0	0
010713	15:15:48	10024	Trial	ResponseCR	14	0	175	0	118	15:15:48	2682852	1	3	3	3	3	3	3	3	3	6	3	0	0	0	0	6	4	0	0	0	0	0		1	0	0	0	0	0	0	0
010713	15:15:48	10024	Trial	CongruentRight	14	205	157	1	118	15:15:48	2683038	1	3	3	3	3	3	3	3	3	6	3	0	0	0	0	6	4	0	0	0	0	0		1	0	0	0	0	0	0	0
010713	15:15:48	10024	Trial	ResponseIL	14	0	175	0	118	15:15:48	2684557	1	3	3	3	3	3	3	3	3	6	3	0	0	0	0	6	4	0	0	0	0	0		1	0	0	0	0	0	0	0
010713	15:15:48	10024	Trial	IncongruentLeft	14	203	254	1	118	15:15:48	2684837	1	3	3	3	3	3	3	3	3	6	3	0	0	0	0	6	4	0	0	0	0	0		1	0	0	0	0	0	0	0
010713	15:15:48	10024	Trial	ResponseCL	14	0	175	0	118	15:15:48	2686263	1	3	3	3	3	3	3	3	3	6	3	0	0	0	0	6	4	0	0	0	0	0		1	0	0	0	0	0	0	0
010713	15:15:48	10024	Trial	CongruentLeft	14	203	233	1	118	15:15:48	2686517	1	3	3	3	3	3	3	3	3	6	3	0	0	0	0	6	4	0	0	0	0	0		1	0	0	0	0	0	0	0
010713	15:15:48	10024	Trial	ResponseCR	14	0	175	0	118	15:15:48	2687970	1	3	3	3	3	3	3	3	3	6	3	0	0	0	0	6	4	0	0	0	0	0		1	0	0	0	0	0	0	0
010713	15:15:48	10024	Trial	CongruentRight	14	205	191	1	118	15:15:48	2688183	1	3	3	3	3	3	3	3	3	6	3	0	0	0	0	6	4	0	0	0	0	0		1	0	0	0	0	0	0	0
010713	15:15:48	10024	Trial	ResponseIL	14	0	175	0	118	15:15:48	2689675	1	3	3	3	3	3	3	3	3	6	3	0	0	0	0	6	4	0	0	0	0	0		1	0	0	0	0	0	0	0
010713	15:15:48	10024	Trial	IncongruentLeft	14	203	293	1	118	15:15:48	2689995	1	3	3	3	3	3	3	3	3	6	3	0	0	0	0	6	4	0	0	0	0	0		1	0	0	0	0	0	0	0
010713	15:15:48	10024	Trial	ResponseIR	14	0	175	0	118	15:15:48	2691382	1	3	3	3	3	3	3	3	3	6	3	0	0	0	0	6	4	0	0	0	0	0		1	0	0	0	0	0	0	0
010713	15:15:48	10024	Trial	IncongruentRight	14	205	218	1	118	15:15:48	2691621	1	3	3	3	3	3	3	3	3	6	3	0	0	0	0	6	4	0	0	0	0	0		1	0	0	0	0	0	0	0
010713	15:15:48	10024	Trial	ResponseIR	14	0	175	0	118	15:15:48	2693087	1	3	3	3	3	3	3	3	3	6	3	0	0	0	0	6	4	0	0	0	0	0		1	0	0	0	0	0	0	0
010713	15:15:48	10024	Trial	IncongruentRight	14	205	193	1	118	15:15:48	2693301	1	3	3	3	3	3	3	3	3	6	3	0	0	0	0	6	4	0	0	0	0	0		1	0	0	0	0	0	0	0
010713	15:15:48	10024	Trial	ResponseCL	14	0	175	0	118	15:15:48	2694793	1	3	3	3	3	3	3	3	3	6	3	0	0	0	0	6	4	0	0	0	0	0		1	0	0	0	0	0	0	0
010713	15:15:48	10024	Trial	CongruentLeft	14	203	193	1	118	15:15:48	2695020	1	3	3	3	3	3	3	3	3	6	3	0	0	0	0	6	4	0	0	0	0	0		1	0	0	0	0	0	0	0
010713	15:15:48	10024	Trial	ResponseIL	14	0	175	0	118	15:15:48	2696499	1	3	3	3	3	3	3	3	3	6	3	0	0	0	0	6	4	0	0	0	0	0		1	0	0	0	0	0	0	0
010713	15:15:48	10024	Trial	IncongruentLeft	14	203	312	1	118	15:15:48	2696846	1	3	3	3	3	3	3	3	3	6	3	0	0	0	0	6	4	0	0	0	0	0		1	0	0	0	0	0	0	0
010713	15:15:48	10024	Trial	ResponseCR	14	0	175	0	118	15:15:48	2698205	1	3	3	3	3	3	3	3	3	6	3	0	0	0	0	6	4	0	0	0	0	0		1	0	0	0	0	0	0	0
010713	15:15:48	10024	Trial	CongruentRight	14	205	222	1	118	15:15:48	2698458	1	3	3	3	3	3	3	3	3	6	3	0	0	0	0	6	4	0	0	0	0	0		1	0	0	0	0	0	0	0
010713	15:15:48	10024	Trial	ResponseCL	14	0	175	0	118	15:15:48	2699911	1	3	3	3	3	3	3	3	3	6	3	0	0	0	0	6	4	0	0	0	0	0		1	0	0	0	0	0	0	0
010713	15:15:48	10024	Trial	CongruentLeft	14	203	185	1	118	15:15:48	2700124	1	3	3	3	3	3	3	3	3	6	3	0	0	0	0	6	4	0	0	0	0	0		1	0	0	0	0	0	0	0
010713	15:15:48	10024	Trial	ResponseIR	14	0	175	0	118	15:15:48	2701619	1	3	3	3	3	3	3	3	3	6	3	0	0	0	0	6	4	0	0	0	0	0		1	0	0	0	0	0	0	0
010713	15:15:48	10024	Trial	IncongruentRight	14	205	171	1	118	15:15:48	2701817	1	3	3	3	3	3	3	3	3	6	3	0	0	0	0	6	4	0	0	0	0	0		1	0	0	0	0	0	0	0
010713	15:15:48	10024	Trial	ResponseCR	14	0	175	0	118	15:15:48	2703323	1	3	3	3	3	3	3	3	3	6	3	0	0	0	0	6	4	0	0	0	0	0		1	0	0	0	0	0	0	0
010713	15:15:48	10024	Trial	CongruentRight	14	205	228	1	118	15:15:48	2703577	1	3	3	3	3	3	3	3	3	6	3	0	0	0	0	6	4	0	0	0	0	0		1	0	0	0	0	0	0	0
010713	15:15:48	10024	Trial	ResponseIL	14	0	175	0	118	15:15:48	2705029	1	3	3	3	3	3	3	3	3	6	3	0	0	0	0	6	4	0	0	0	0	0		1	0	0	0	0	0	0	0
010713	15:15:48	10024	Trial	IncongruentLeft	14	203	266	1	118	15:15:48	2705322	1	3	3	3	3	3	3	3	3	6	3	0	0	0	0	6	4	0	0	0	0	0		1	0	0	0	0	0	0	0
010713	15:15:48	10024	Trial	ResponseCL	14	0	175	0	118	15:15:48	2706735	1	3	3	3	3	3	3	3	3	6	3	0	0	0	0	6	4	0	0	0	0	0		1	0	0	0	0	0	0	0
010713	15:15:48	10024	Trial	CongruentLeft	14	203	177	1	118	15:15:48	2706935	1	3	3	3	3	3	3	3	3	6	3	0	0	0	0	6	4	0	0	0	0	0		1	0	0	0	0	0	0	0
010713	15:15:48	10024	Trial	ResponseIL	14	0	175	0	118	15:15:48	2708442	1	3	3	3	3	3	3	3	3	6	3	0	0	0	0	6	4	0	0	0	0	0		1	0	0	0	0	0	0	0
010713	15:15:48	10024	Trial	IncongruentLeft	14	203	151	1	118	15:15:48	2708615	1	3	3	3	3	3	3	3	3	6	3	0	0	0	0	6	4	0	0	0	0	0		1	0	0	0	0	0	0	0
010713	15:15:48	10024	Trial	ResponseIR	14	0	175	0	118	15:15:48	2710147	1	3	3	3	3	3	3	3	3	6	3	0	0	0	0	6	4	0	0	0	0	0		1	0	0	0	0	0	0	0
010713	15:15:48	10024	Trial	IncongruentRight	14	205	231	1	118	15:15:48	2710414	1	3	3	3	3	3	3	3	3	6	3	0	0	0	0	6	4	0	0	0	0	0		1	0	0	0	0	0	0	0
010713	15:15:48	10024	Trial	ResponseCR	14	0	175	0	118	15:15:48	2711853	1	3	3	3	3	3	3	3	3	6	3	0	0	0	0	6	4	0	0	0	0	0		1	0	0	0	0	0	0	0
010713	15:15:48	10024	Trial	CongruentRight	14	205	258	1	118	15:15:48	2712133	1	3	3	3	3	3	3	3	3	6	3	0	0	0	0	6	4	0	0	0	0	0		1	0	0	0	0	0	0	0
010713	15:15:48	10024	Trial	ResponseCL	14	0	175	0	118	15:15:48	2713559	1	3	3	3	3	3	3	3	3	6	3	0	0	0	0	6	4	0	0	0	0	0		1	0	0	0	0	0	0	0
010713	15:15:48	10024	Trial	CongruentLeft	14	203	180	1	118	15:15:48	2713773	1	3	3	3	3	3	3	3	3	6	3	0	0	0	0	6	4	0	0	0	0	0		1	0	0	0	0	0	0	0
010713	15:15:48	10024	Trial	ResponseCL	14	0	175	0	118	15:15:48	2715265	1	3	3	3	3	3	3	3	3	6	3	0	0	0	0	6	4	0	0	0	0	0		1	0	0	0	0	0	0	0
010713	15:15:48	10024	Trial	CongruentLeft	14	203	190	1	118	15:15:48	2715478	1	3	3	3	3	3	3	3	3	6	3	0	0	0	0	6	4	0	0	0	0	0		1	0	0	0	0	0	0	0
010713	15:15:48	10024	Trial	ResponseIR	14	0	175	0	118	15:15:48	2716971	1	3	3	3	3	3	3	3	3	6	3	0	0	0	0	6	4	0	0	0	0	0		1	0	0	0	0	0	0	0
010713	15:15:48	10024	Trial	IncongruentRight	14	205	207	1	118	15:15:48	2717211	1	3	3	3	3	3	3	3	3	6	3	0	0	0	0	6	4	0	0	0	0	0		1	0	0	0	0	0	0	0
010713	15:15:48	10024	Trial	ResponseIL	14	0	175	0	118	15:15:48	2718677	1	3	3	3	3	3	3	3	3	6	3	0	0	0	0	6	4	0	0	0	0	0		1	0	0	0	0	0	0	0
010713	15:15:48	10024	Trial	IncongruentLeft	14	203	294	1	118	15:15:48	2718997	1	3	3	3	3	3	3	3	3	6	3	0	0	0	0	6	4	0	0	0	0	0		1	0	0	0	0	0	0	0
010713	15:15:48	10024	Trial	ResponseIR	14	0	175	0	118	15:15:48	2720383	1	3	3	3	3	3	3	3	3	6	3	0	0	0	0	6	4	0	0	0	0	0		1	0	0	0	0	0	0	0
010713	15:15:48	10024	Trial	IncongruentRight	14	205	225	1	118	15:15:48	2720636	1	3	3	3	3	3	3	3	3	6	3	0	0	0	0	6	4	0	0	0	0	0		1	0	0	0	0	0	0	0
010713	15:15:48	10024	Trial	ResponseCR	14	0	175	0	118	15:15:48	2722089	1	3	3	3	3	3	3	3	3	6	3	0	0	0	0	6	4	0	0	0	0	0		1	0	0	0	0	0	0	0
010713	15:15:48	10024	Trial	CongruentRight	14	205	199	1	118	15:15:48	2722316	1	3	3	3	3	3	3	3	3	6	3	0	0	0	0	6	4	0	0	0	0	0		1	0	0	0	0	0	0	0
010713	15:15:48	10024	Trial	ResponseCR	14	0	175	0	118	15:15:48	2723795	1	3	3	3	3	3	3	3	3	6	3	0	0	0	0	6	4	0	0	0	0	0		1	0	0	0	0	0	0	0
010713	15:15:48	10024	Trial	CongruentRight	14	205	280	1	118	15:15:48	2724102	1	3	3	3	3	3	3	3	3	6	3	0	0	0	0	6	4	0	0	0	0	0		1	0	0	0	0	0	0	0
010713	15:15:48	10024	Trial	ResponseIL	14	0	175	0	118	15:15:48	2725501	1	3	3	3	3	3	3	3	3	6	3	0	0	0	0	6	4	0	0	0	0	0		1	0	0	0	0	0	0	0
010713	15:15:48	10024	Trial	IncongruentLeft	14	203	258	1	118	15:15:48	2725781	1	3	3	3	3	3	3	3	3	6	3	0	0	0	0	6	4	0	0	0	0	0		1	0	0	0	0	0	0	0
010713	15:15:48	10024	Trial	ResponseCL	14	0	175	0	118	15:15:48	2727220	1	3	3	3	3	3	3	3	3	6	3	0	0	0	0	6	4	0	0	0	0	0		1	0	0	0	0	0	0	0
010713	15:15:48	10024	Trial	CongruentLeft	14	203	155	1	118	15:15:48	2727394	1	3	3	3	3	3	3	3	3	6	3	0	0	0	0	6	4	0	0	0	0	0		1	0	0	0	0	0	0	0
010713	15:15:48	10024	Trial	ResponseCR	14	0	175	0	118	15:15:48	2728926	1	3	3	3	3	3	3	3	3	6	3	0	0	0	0	6	4	0	0	0	0	0		1	0	0	0	0	0	0	0
010713	15:15:48	10024	Trial	CongruentRight	14	205	209	1	118	15:15:48	2729153	1	3	3	3	3	3	3	3	3	6	3	0	0	0	0	6	4	0	0	0	0	0		1	0	0	0	0	0	0	0
010713	15:15:48	10024	Trial	ResponseCL	14	0	175	0	118	15:15:48	2730632	1	3	3	3	3	3	3	3	3	6	3	0	0	0	0	6	4	0	0	0	0	0		1	0	0	0	0	0	0	0
010713	15:15:48	10024	Trial	CongruentLeft	14	203	183	1	118	15:15:48	2730846	1	3	3	3	3	3	3	3	3	6	3	0	0	0	0	6	4	0	0	0	0	0		1	0	0	0	0	0	0	0
010713	15:15:48	10024	Trial	ResponseIR	14	0	175	0	118	15:15:48	2732338	1	3	3	3	3	3	3	3	3	6	3	0	0	0	0	6	4	0	0	0	0	0		1	0	0	0	0	0	0	0
010713	15:15:48	10024	Trial	IncongruentRight	14	205	301	1	118	15:15:48	2732658	1	3	3	3	3	3	3	3	3	6	3	0	0	0	0	6	4	0	0	0	0	0		1	0	0	0	0	0	0	0
010713	15:15:48	10024	Trial	ResponseCR	14	0	175	0	118	15:15:48	2734044	1	3	3	3	3	3	3	3	3	6	3	0	0	0	0	6	4	0	0	0	0	0		1	0	0	0	0	0	0	0
010713	15:15:48	10024	Trial	CongruentRight	14	205	270	1	118	15:15:48	2734337	1	3	3	3	3	3	3	3	3	6	3	0	0	0	0	6	4	0	0	0	0	0		1	0	0	0	0	0	0	0
010713	15:15:48	10024	Trial	ResponseCL	14	0	175	0	118	15:15:48	2735750	1	3	3	3	3	3	3	3	3	6	3	0	0	0	0	6	4	0	0	0	0	0		1	0	0	0	0	0	0	0
010713	15:15:48	10024	Trial	CongruentLeft	14	203	180	1	118	15:15:48	2735963	1	3	3	3	3	3	3	3	3	6	3	0	0	0	0	6	4	0	0	0	0	0		1	0	0	0	0	0	0	0
010713	15:15:48	10024	Trial	ResponseIL	14	0	175	0	118	15:15:48	2737456	1	3	3	3	3	3	3	3	3	6	3	0	0	0	0	6	4	0	0	0	0	0		1	0	0	0	0	0	0	0
010713	15:15:48	10024	Trial	IncongruentLeft	14	205	154	0	118	15:15:48	2737643	1	3	3	3	3	3	3	3	3	6	3	0	0	0	0	6	4	0	0	0	0	0		1	0	0	0	0	0	0	0
010713	15:15:48	10024	Trial	ResponseIL	14	0	175	0	118	15:15:48	2739162	1	3	3	3	3	3	3	3	3	6	3	0	0	0	0	6	4	0	0	0	0	0		1	0	0	0	0	0	0	0
010713	15:15:48	10024	Trial	IncongruentLeft	14	203	288	1	118	15:15:48	2739482	1	3	3	3	3	3	3	3	3	6	3	0	0	0	0	6	4	0	0	0	0	0		1	0	0	0	0	0	0	0
010713	15:15:48	10024	Trial	ResponseCR	14	0	175	0	118	15:15:48	2740868	1	3	3	3	3	3	3	3	3	6	3	0	0	0	0	6	4	0	0	0	0	0		1	0	0	0	0	0	0	0
010713	15:15:48	10024	Trial	CongruentRight	14	205	203	1	118	15:15:48	2741095	1	3	3	3	3	3	3	3	3	6	3	0	0	0	0	6	4	0	0	0	0	0		1	0	0	0	0	0	0	0
010713	15:15:48	10024	Trial	ResponseIR	14	0	175	0	118	15:15:48	2742575	1	3	3	3	3	3	3	3	3	6	3	0	0	0	0	6	4	0	0	0	0	0		1	0	0	0	0	0	0	0
010713	15:15:48	10024	Trial	IncongruentRight	14	205	240	1	118	15:15:48	2742841	1	3	3	3	3	3	3	3	3	6	3	0	0	0	0	6	4	0	0	0	0	0		1	0	0	0	0	0	0	0
010713	15:15:48	10024	Trial	ResponseCL	14	0	175	0	118	15:15:48	2744280	1	3	3	3	3	3	3	3	3	6	3	0	0	0	0	6	4	0	0	0	0	0		1	0	0	0	0	0	0	0
010713	15:15:48	10024	Trial	CongruentLeft	14	203	262	1	118	15:15:48	2744560	1	3	3	3	3	3	3	3	3	6	3	0	0	0	0	6	4	0	0	0	0	0		1	0	0	0	0	0	0	0
010713	15:15:48	10024	Trial	ResponseIR	14	0	175	0	118	15:15:48	2745986	1	3	3	3	3	3	3	3	3	6	3	0	0	0	0	6	4	0	0	0	0	0		1	0	0	0	0	0	0	0
010713	15:15:48	10024	Trial	IncongruentRight	14	205	349	1	118	15:15:48	2746359	1	3	3	3	3	3	3	3	3	6	3	0	0	0	0	6	4	0	0	0	0	0		1	0	0	0	0	0	0	0
010713	15:15:48	10024	Trial	ResponseCR	14	0	175	0	118	15:15:48	2747692	1	3	3	3	3	3	3	3	3	6	3	0	0	0	0	6	4	0	0	0	0	0		1	0	0	0	0	0	0	0
010713	15:15:48	10024	Trial	CongruentRight	14	205	190	1	118	15:15:48	2747905	1	3	3	3	3	3	3	3	3	6	3	0	0	0	0	6	4	0	0	0	0	0		1	0	0	0	0	0	0	0
010713	15:15:48	10024	Trial	ResponseIL	14	0	175	0	118	15:15:48	2749398	1	3	3	3	3	3	3	3	3	6	3	0	0	0	0	6	4	0	0	0	0	0		1	0	0	0	0	0	0	0
010713	15:15:48	10024	Trial	IncongruentLeft	14	203	249	1	118	15:15:48	2749664	1	3	3	3	3	3	3	3	3	6	3	0	0	0	0	6	4	0	0	0	0	0		1	0	0	0	0	0	0	0
010713	15:15:48	10024	Trial	ResponseCL	14	0	175	0	118	15:15:48	2751104	1	3	3	3	3	3	3	3	3	6	3	0	0	0	0	6	4	0	0	0	0	0		1	0	0	0	0	0	0	0
010713	15:15:48	10024	Trial	CongruentLeft	14	203	207	1	118	15:15:48	2751330	1	3	3	3	3	3	3	3	3	6	3	0	0	0	0	6	4	0	0	0	0	0		1	0	0	0	0	0	0	0
010713	15:15:48	10024	Trial	ResponseCR	14	0	175	0	118	15:15:48	2752810	1	3	3	3	3	3	3	3	3	6	3	0	0	0	0	6	4	0	0	0	0	0		1	0	0	0	0	0	0	0
010713	15:15:48	10024	Trial	CongruentRight	14	205	336	1	118	15:15:48	2753170	1	3	3	3	3	3	3	3	3	6	3	0	0	0	0	6	4	0	0	0	0	0		1	0	0	0	0	0	0	0
010713	15:15:48	10024	Trial	ResponseIL	14	0	175	0	118	15:15:48	2754516	1	3	3	3	3	3	3	3	3	6	3	0	0	0	0	6	4	0	0	0	0	0		1	0	0	0	0	0	0	0
010713	15:15:48	10024	Trial	IncongruentLeft	14	203	266	1	118	15:15:48	2754809	1	3	3	3	3	3	3	3	3	6	3	0	0	0	0	6	4	0	0	0	0	0		1	0	0	0	0	0	0	0
010713	15:15:48	10024	Trial	ResponseCR	14	0	175	0	118	15:15:48	2756222	1	3	3	3	3	3	3	3	3	6	3	0	0	0	0	6	4	0	0	0	0	0		1	0	0	0	0	0	0	0
010713	15:15:48	10024	Trial	CongruentRight	14	205	225	1	118	15:15:48	2756475	1	3	3	3	3	3	3	3	3	6	3	0	0	0	0	6	4	0	0	0	0	0		1	0	0	0	0	0	0	0
010713	15:15:48	10024	Trial	ResponseCR	14	0	175	0	118	15:15:48	2757928	1	3	3	3	3	3	3	3	3	6	3	0	0	0	0	6	4	0	0	0	0	0		1	0	0	0	0	0	0	0
010713	15:15:48	10024	Trial	CongruentRight	14	205	167	1	118	15:15:48	2758114	1	3	3	3	3	3	3	3	3	6	3	0	0	0	0	6	4	0	0	0	0	0		1	0	0	0	0	0	0	0
010713	15:15:48	10024	Trial	ResponseIR	14	0	175	0	118	15:15:48	2759634	1	3	3	3	3	3	3	3	3	6	3	0	0	0	0	6	4	0	0	0	0	0		1	0	0	0	0	0	0	0
010713	15:15:48	10024	Trial	IncongruentRight	14	203	264	0	118	15:15:48	2759927	1	3	3	3	3	3	3	3	3	6	3	0	0	0	0	6	4	0	0	0	0	0		1	0	0	0	0	0	0	0
010713	15:15:48	10024	Trial	ResponseCL	14	0	175	0	118	15:15:48	2761340	1	3	3	3	3	3	3	3	3	6	3	0	0	0	0	6	4	0	0	0	0	0		1	0	0	0	0	0	0	0
010713	15:15:48	10024	Trial	CongruentLeft	14	203	227	1	118	15:15:48	2761593	1	3	3	3	3	3	3	3	3	6	3	0	0	0	0	6	4	0	0	0	0	0		1	0	0	0	0	0	0	0
010713	15:15:48	10024	Trial	ResponseIL	14	0	175	0	118	15:15:48	2763046	1	3	3	3	3	3	3	3	3	6	3	0	0	0	0	6	4	0	0	0	0	0		1	0	0	0	0	0	0	0
010713	15:15:48	10024	Trial	IncongruentLeft	14	203	377	1	118	15:15:48	2763446	1	3	3	3	3	3	3	3	3	6	3	0	0	0	0	6	4	0	0	0	0	0		1	0	0	0	0	0	0	0
010713	15:15:48	10024	Trial	ResponseCL	14	0	175	0	118	15:15:48	2764752	1	3	3	3	3	3	3	3	3	6	3	0	0	0	0	6	4	0	0	0	0	0		1	0	0	0	0	0	0	0
010713	15:15:48	10024	Trial	CongruentLeft	14	203	217	1	118	15:15:48	2764992	1	3	3	3	3	3	3	3	3	6	3	0	0	0	0	6	4	0	0	0	0	0		1	0	0	0	0	0	0	0
010713	15:15:48	10024	Trial	ResponseIR	14	0	175	0	118	15:15:48	2766458	1	3	3	3	3	3	3	3	3	6	3	0	0	0	0	6	4	0	0	0	0	0		1	0	0	0	0	0	0	0
010713	15:15:48	10024	Trial	IncongruentRight	14	205	229	1	118	15:15:48	2766711	1	3	3	3	3	3	3	3	3	6	3	0	0	0	0	6	4	0	0	0	0	0		1	0	0	0	0	0	0	0
010713	15:15:48	10024	Trial	ResponseIL	14	0	175	0	118	15:15:48	2768164	1	3	3	3	3	3	3	3	3	6	3	0	0	0	0	6	4	0	0	0	0	0		1	0	0	0	0	0	0	0
010713	15:15:48	10024	Trial	IncongruentLeft	14	203	310	1	118	15:15:48	2768497	1	3	3	3	3	3	3	3	3	6	3	0	0	0	0	6	4	0	0	0	0	0		1	0	0	0	0	0	0	0
010713	15:15:48	10024	Trial	ResponseCR	14	0	175	0	118	15:15:48	2769870	1	3	3	3	3	3	3	3	3	6	3	0	0	0	0	6	4	0	0	0	0	0		1	0	0	0	0	0	0	0
010713	15:15:48	10024	Trial	CongruentRight	14	205	167	1	118	15:15:48	2770070	1	3	3	3	3	3	3	3	3	6	3	0	0	0	0	6	4	0	0	0	0	0		1	0	0	0	0	0	0	0
010713	15:15:48	10024	Trial	ResponseCL	14	0	175	0	118	15:15:48	2771576	1	3	3	3	3	3	3	3	3	6	3	0	0	0	0	6	4	0	0	0	0	0		1	0	0	0	0	0	0	0
010713	15:15:48	10024	Trial	CongruentLeft	14	203	135	1	118	15:15:48	2771736	1	3	3	3	3	3	3	3	3	6	3	0	0	0	0	6	4	0	0	0	0	0		1	0	0	0	0	0	0	0
010713	15:15:48	10024	Trial	ResponseIL	14	0	175	0	118	15:15:48	2773282	1	3	3	3	3	3	3	3	3	6	3	0	0	0	0	6	4	0	0	0	0	0		1	0	0	0	0	0	0	0
010713	15:15:48	10024	Trial	IncongruentLeft	14	203	487	1	118	15:15:48	2773805	1	3	3	3	3	3	3	3	3	6	3	0	0	0	0	6	4	0	0	0	0	0		1	0	0	0	0	0	0	0
010713	15:15:48	10024	Trial	ResponseCL	14	0	175	0	118	15:15:48	2774989	1	3	3	3	3	3	3	3	3	6	3	0	0	0	0	6	4	0	0	0	0	0		1	0	0	0	0	0	0	0
010713	15:15:48	10024	Trial	CongruentLeft	14	203	225	1	118	15:15:48	2775241	1	3	3	3	3	3	3	3	3	6	3	0	0	0	0	6	4	0	0	0	0	0		1	0	0	0	0	0	0	0
010713	15:15:48	10024	Trial	ResponseIR	14	0	175	0	118	15:15:48	2776694	1	3	3	3	3	3	3	3	3	6	3	0	0	0	0	6	4	0	0	0	0	0		1	0	0	0	0	0	0	0
010713	15:15:48	10024	Trial	IncongruentRight	14	205	196	1	118	15:15:48	2776920	1	3	3	3	3	3	3	3	3	6	3	0	0	0	0	6	4	0	0	0	0	0		1	0	0	0	0	0	0	0
010713	15:15:48	10024	Trial	ResponseCR	14	0	175	0	118	15:15:48	2778399	1	3	3	3	3	3	3	3	3	6	3	0	0	0	0	6	4	0	0	0	0	0		1	0	0	0	0	0	0	0
010713	15:15:48	10024	Trial	CongruentRight	14	205	170	1	118	15:15:48	2778600	1	3	3	3	3	3	3	3	3	6	3	0	0	0	0	6	4	0	0	0	0	0		1	0	0	0	0	0	0	0
010713	15:15:48	10024	Trial	ResponseIL	14	0	175	0	118	15:15:48	2780105	1	3	3	3	3	3	3	3	3	6	3	0	0	0	0	6	4	0	0	0	0	0		1	0	0	0	0	0	0	0
010713	15:15:48	10024	Trial	IncongruentLeft	14	203	304	1	118	15:15:48	2780439	1	3	3	3	3	3	3	3	3	6	3	0	0	0	0	6	4	0	0	0	0	0		1	0	0	0	0	0	0	0
010713	15:15:48	10024	Trial	ResponseCL	14	0	175	0	118	15:15:48	2781838	1	3	3	3	3	3	3	3	3	6	3	0	0	0	0	6	4	0	0	0	0	0		1	0	0	0	0	0	0	0
010713	15:15:48	10024	Trial	CongruentLeft	14	203	171	1	118	15:15:48	2782038	1	3	3	3	3	3	3	3	3	6	3	0	0	0	0	6	4	0	0	0	0	0		1	0	0	0	0	0	0	0
010713	15:15:48	10024	Trial	ResponseIR	14	0	175	0	118	15:15:48	2783544	1	3	3	3	3	3	3	3	3	6	3	0	0	0	0	6	4	0	0	0	0	0		1	0	0	0	0	0	0	0
010713	15:15:48	10024	Trial	IncongruentRight	14	205	225	1	118	15:15:48	2783797	1	3	3	3	3	3	3	3	3	6	3	0	0	0	0	6	4	0	0	0	0	0		1	0	0	0	0	0	0	0
010713	15:15:48	10024	Trial	ResponseIL	14	0	175	0	118	15:15:48	2785250	1	3	3	3	3	3	3	3	3	6	3	0	0	0	0	6	4	0	0	0	0	0		1	0	0	0	0	0	0	0
010713	15:15:48	10024	Trial	IncongruentLeft	14	203	247	1	118	15:15:48	2785530	1	3	3	3	3	3	3	3	3	6	3	0	0	0	0	6	4	0	0	0	0	0		1	0	0	0	0	0	0	0
010713	15:15:48	10024	Trial	ResponseCL	14	0	175	0	118	15:15:48	2786956	1	3	3	3	3	3	3	3	3	6	3	0	0	0	0	6	4	0	0	0	0	0		1	0	0	0	0	0	0	0
010713	15:15:48	10024	Trial	CongruentLeft	14	203	178	1	118	15:15:48	2787156	1	3	3	3	3	3	3	3	3	6	3	0	0	0	0	6	4	0	0	0	0	0		1	0	0	0	0	0	0	0
010713	15:15:48	10024	Trial	ResponseIL	14	0	175	0	118	15:15:48	2788662	1	3	3	3	3	3	3	3	3	6	3	0	0	0	0	6	4	0	0	0	0	0		1	0	0	0	0	0	0	0
010713	15:15:48	10024	Trial	IncongruentLeft	14	203	355	1	118	15:15:48	2789048	1	3	3	3	3	3	3	3	3	6	3	0	0	0	0	6	4	0	0	0	0	0		1	0	0	0	0	0	0	0
010713	15:15:48	10024	Trial	ResponseCR	14	0	175	0	118	15:15:48	2790368	1	3	3	3	3	3	3	3	3	6	3	0	0	0	0	6	4	0	0	0	0	0		1	0	0	0	0	0	0	0
010713	15:15:48	10024	Trial	CongruentRight	14	205	233	1	118	15:15:48	2790635	1	3	3	3	3	3	3	3	3	6	3	0	0	0	0	6	4	0	0	0	0	0		1	0	0	0	0	0	0	0
010713	15:15:48	10024	Trial	ResponseCL	14	0	175	0	118	15:15:48	2792074	1	3	3	3	3	3	3	3	3	6	3	0	0	0	0	6	4	0	0	0	0	0		1	0	0	0	0	0	0	0
010713	15:15:48	10024	Trial	CongruentLeft	14	203	211	1	118	15:15:48	2792314	1	3	3	3	3	3	3	3	3	6	3	0	0	0	0	6	4	0	0	0	0	0		1	0	0	0	0	0	0	0
010713	15:15:48	10024	Trial	ResponseIR	14	0	175	0	118	15:15:48	2793780	1	3	3	3	3	3	3	3	3	6	3	0	0	0	0	6	4	0	0	0	0	0		1	0	0	0	0	0	0	0
010713	15:15:48	10024	Trial	IncongruentRight	14	205	251	1	118	15:15:48	2794060	1	3	3	3	3	3	3	3	3	6	3	0	0	0	0	6	4	0	0	0	0	0		1	0	0	0	0	0	0	0
010713	15:15:48	10024	Trial	ResponseCL	14	0	175	0	118	15:15:48	2795486	1	3	3	3	3	3	3	3	3	6	3	0	0	0	0	6	4	0	0	0	0	0		1	0	0	0	0	0	0	0
010713	15:15:48	10024	Trial	CongruentLeft	14	203	143	1	118	15:15:48	2795659	1	3	3	3	3	3	3	3	3	6	3	0	0	0	0	6	4	0	0	0	0	0		1	0	0	0	0	0	0	0
010713	15:15:48	10024	Trial	ResponseCR	14	0	175	0	118	15:15:48	2797192	1	3	3	3	3	3	3	3	3	6	3	0	0	0	0	6	4	0	0	0	0	0		1	0	0	0	0	0	0	0
010713	15:15:48	10024	Trial	CongruentRight	14	205	182	1	118	15:15:48	2797392	1	3	3	3	3	3	3	3	3	6	3	0	0	0	0	6	4	0	0	0	0	0		1	0	0	0	0	0	0	0
010713	15:15:48	10024	Trial	ResponseIL	14	0	175	0	118	15:15:48	2798898	1	3	3	3	3	3	3	3	3	6	3	0	0	0	0	6	4	0	0	0	0	0		1	0	0	0	0	0	0	0
010713	15:15:48	10024	Trial	IncongruentLeft	14	203	151	1	118	15:15:48	2799071	1	3	3	3	3	3	3	3	3	6	3	0	0	0	0	6	4	0	0	0	0	0		1	0	0	0	0	0	0	0
010713	15:15:48	10024	WordsAbsFr6mo	PAbsFr6mo1	16	Abs1	4187	0	118	15:15:48	2821462	1	3	3	3	3	3	3	3	3	6	3	0	0	0	0	6	4	0	0	0	0	0		1	0	0	0	0	0	0	0
010713	15:15:48	10024	WordsAbsFr6mo	AbsFr6mo1	16	Abs1	3064	0	118	15:15:48	2824568	1	3	3	3	3	3	3	3	3	6	3	1	0	0	0	6	4	0	0	0	0	0		1	0	0	0	0	0	0	0
010713	15:15:48	10024	WordsAbsFr6mo	AbsFr6mo2	16	Abs1	14297	0	118	15:15:48	2838909	1	3	3	3	3	3	3	3	3	6	3	2	0	0	0	6	4	0	0	0	0	0		1	0	0	0	0	0	0	0
010713	15:15:48	10024	WordsAbsFr6mo	AbsFr6mo3	16	Abs2	24896	0	118	15:15:48	2863858	1	3	3	3	3	3	3	3	3	6	3	2	0	0	0	6	4	0	0	0	0	0		1	0	0	0	0	0	0	0
010713	15:15:48	10024	Trial2BackFrS	NS	17	0	1000	1	118	15:15:48	2910772	1	3	3	3	3	3	3	3	3	6	3	2	0	0	0	6	4	0	0	0	0	0		1	0	0	0	0	0	0	0
010713	15:15:48	10024	Trial2BackFrS	NS	17	0	1000	1	118	15:15:48	2912292	1	3	3	3	3	3	3	3	3	6	3	2	0	0	0	6	4	0	0	0	0	0		1	0	0	0	0	0	0	0
010713	15:15:48	10024	Trial2BackFrS	NS	17	0	1000	1	118	15:15:48	2913811	1	3	3	3	3	3	3	3	3	6	3	2	0	0	0	6	4	0	0	0	0	0		1	0	0	0	0	0	0	0
010713	15:15:48	10024	Trial2BackFrS	YS	17	0	1000	0	118	15:15:48	2915318	1	3	3	3	3	3	3	3	3	6	3	2	0	0	0	6	4	0	0	0	0	0		1	0	0	0	0	0	0	0
010713	15:15:48	10024	Trial2BackFrS	NS	17	0	1000	1	118	15:15:48	2916837	1	3	3	3	3	3	3	3	3	6	3	2	0	0	0	6	4	0	0	0	0	0		1	0	0	0	0	0	0	0
010713	15:15:48	10024	Trial2BackFrS	NS	17	0	1000	1	118	15:15:48	2918356	1	3	3	3	3	3	3	3	3	6	3	2	0	0	0	6	4	0	0	0	0	0		1	0	0	0	0	0	0	0
010713	15:15:48	10024	Trial2BackFrS	NS	17	0	1000	1	118	15:15:48	2919862	1	3	3	3	3	3	3	3	3	6	3	2	0	0	0	6	4	0	0	0	0	0		1	0	0	0	0	0	0	0
010713	15:15:48	10024	Trial2BackFrS	NS	17	0	1000	1	118	15:15:48	2921381	1	3	3	3	3	3	3	3	3	6	3	2	0	0	0	6	4	0	0	0	0	0		1	0	0	0	0	0	0	0
010713	15:15:48	10024	Trial2BackFrS	YS	17	57	537	1	118	15:15:48	2922435	1	3	3	3	3	3	3	3	3	6	3	2	0	0	0	6	4	0	0	0	0	0		1	0	0	0	0	0	0	0
010713	15:15:48	10024	Trial2BackFrS	NS	17	0	1000	1	118	15:15:48	2924393	1	3	3	3	3	3	3	3	3	6	3	2	0	0	0	6	4	0	0	0	0	0		1	0	0	0	0	0	0	0
010713	15:15:48	10024	Trial2BackFrS	NS	17	0	1000	1	118	15:15:48	2925900	1	3	3	3	3	3	3	3	3	6	3	2	0	0	0	6	4	0	0	0	0	0		1	0	0	0	0	0	0	0
010713	15:15:48	10024	Trial2BackFrS	YS	17	0	1000	0	118	15:15:48	2927406	1	3	3	3	3	3	3	3	3	6	3	2	0	0	0	6	4	0	0	0	0	0		1	0	0	0	0	0	0	0
010713	15:15:48	10024	Trial2BackFrS	NS	17	0	1000	1	118	15:15:48	2928912	1	3	3	3	3	3	3	3	3	6	3	2	0	0	0	6	4	0	0	0	0	0		1	0	0	0	0	0	0	0
010713	15:15:48	10024	Trial2BackFrS	NS	17	0	1000	1	118	15:15:48	2930418	1	3	3	3	3	3	3	3	3	6	3	2	0	0	0	6	4	0	0	0	0	0		1	0	0	0	0	0	0	0
010713	15:15:48	10024	Trial2BackFrS	NS	17	0	1000	1	118	15:15:48	2931924	1	3	3	3	3	3	3	3	3	6	3	2	0	0	0	6	4	0	0	0	0	0		1	0	0	0	0	0	0	0
010713	15:15:48	10024	Trial2BackFrS	YS	17	57	652	1	118	15:15:48	2933083	1	3	3	3	3	3	3	3	3	6	3	2	0	0	0	6	4	0	0	0	0	0		1	0	0	0	0	0	0	0
010713	15:15:48	10024	Trial2BackFrS	NS	17	0	1000	1	118	15:15:48	2934936	1	3	3	3	3	3	3	3	3	6	3	2	0	0	0	6	4	0	0	0	0	0		1	0	0	0	0	0	0	0
010713	15:15:48	10024	Trial2BackFrS	NS	17	0	1000	1	118	15:15:48	2936455	1	3	3	3	3	3	3	3	3	6	3	2	0	0	0	6	4	0	0	0	0	0		1	0	0	0	0	0	0	0
010713	15:15:48	10024	Trial2BackFrS	NS	17	0	1000	1	118	15:15:48	2937975	1	3	3	3	3	3	3	3	3	6	3	2	0	0	0	6	4	0	0	0	0	0		1	0	0	0	0	0	0	0
010713	15:15:48	10024	Trial2BackFrS	NS	17	0	1000	1	118	15:15:48	2939494	1	3	3	3	3	3	3	3	3	6	3	2	0	0	0	6	4	0	0	0	0	0		1	0	0	0	0	0	0	0
010713	15:15:48	10024	Trial2BackFrS	YS	17	57	553	1	118	15:15:48	2940560	1	3	3	3	3	3	3	3	3	6	3	2	0	0	0	6	4	0	0	0	0	0		1	0	0	0	0	0	0	0
010713	15:15:48	10024	Trial2BackFrS	NS	17	0	1000	1	118	15:15:48	2942506	1	3	3	3	3	3	3	3	3	6	3	2	0	0	0	6	4	0	0	0	0	0		1	0	0	0	0	0	0	0
010713	15:15:48	10024	Trial2BackFrS	NS	17	0	1000	1	118	15:15:48	2944012	1	3	3	3	3	3	3	3	3	6	3	2	0	0	0	6	4	0	0	0	0	0		1	0	0	0	0	0	0	0
010713	15:15:48	10024	Trial2BackFrS	NS	17	0	1000	1	118	15:15:48	2945532	1	3	3	3	3	3	3	3	3	6	3	2	0	0	0	6	4	0	0	0	0	0		1	0	0	0	0	0	0	0
010713	15:15:48	10024	Trial2BackFrS	NS	17	57	582	0	118	15:15:48	2946638	1	3	3	3	3	3	3	3	3	6	3	2	0	0	0	6	4	0	0	0	0	0		1	0	0	0	0	0	0	0
010713	15:15:48	10024	Trial2BackFrS	NS	17	0	1000	1	118	15:15:48	2948544	1	3	3	3	3	3	3	3	3	6	3	2	0	0	0	6	4	0	0	0	0	0		1	0	0	0	0	0	0	0
010713	15:15:48	10024	Trial2BackFrS	NS	17	0	1000	1	118	15:15:48	2950050	1	3	3	3	3	3	3	3	3	6	3	2	0	0	0	6	4	0	0	0	0	0		1	0	0	0	0	0	0	0
010713	15:15:48	10024	Trial2BackFrS	NS	17	0	1000	1	118	15:15:48	2951556	1	3	3	3	3	3	3	3	3	6	3	2	0	0	0	6	4	0	0	0	0	0		1	0	0	0	0	0	0	0
010713	15:15:48	10024	Trial2BackFrS	NS	17	0	1000	1	118	15:15:48	2953062	1	3	3	3	3	3	3	3	3	6	3	2	0	0	0	6	4	0	0	0	0	0		1	0	0	0	0	0	0	0
010713	15:15:48	10024	Trial2BackFrS	NS	17	57	601	0	118	15:15:48	2954182	1	3	3	3	3	3	3	3	3	6	3	2	0	0	0	6	4	0	0	0	0	0		1	0	0	0	0	0	0	0
010713	15:15:48	10024	Trial2BackFrS	NS	17	0	1000	1	118	15:15:48	2956074	1	3	3	3	3	3	3	3	3	6	3	2	0	0	0	6	4	0	0	0	0	0		1	0	0	0	0	0	0	0
010713	15:15:48	10024	Trial2BackFrS	YS	17	57	867	1	118	15:15:48	2957460	1	3	3	3	3	3	3	3	3	6	3	2	0	0	0	6	4	0	0	0	0	0		1	0	0	0	0	0	0	0
010713	15:15:48	10024	Trial2BackFrS	NS	17	0	1000	1	118	15:15:48	2959086	1	3	3	3	3	3	3	3	3	6	3	2	0	0	0	6	4	0	0	0	0	0		1	0	0	0	0	0	0	0
010713	15:15:48	10024	Trial2BackFrS	NS	17	0	1000	1	118	15:15:48	2960605	1	3	3	3	3	3	3	3	3	6	3	2	0	0	0	6	4	0	0	0	0	0		1	0	0	0	0	0	0	0
010713	15:15:48	10024	Trial2BackFrS	NS	17	0	1000	1	118	15:15:48	2962112	1	3	3	3	3	3	3	3	3	6	3	2	0	0	0	6	4	0	0	0	0	0		1	0	0	0	0	0	0	0
010713	15:15:48	10024	Trial2BackFrS	YS	17	57	670	1	118	15:15:48	2963311	1	3	3	3	3	3	3	3	3	6	3	2	0	0	0	6	4	0	0	0	0	0		1	0	0	0	0	0	0	0
010713	15:15:48	10024	Trial2BackFrS	NS	17	0	1000	1	118	15:15:48	2965124	1	3	3	3	3	3	3	3	3	6	3	2	0	0	0	6	4	0	0	0	0	0		1	0	0	0	0	0	0	0
010713	15:15:48	10024	Trial2BackFrS	NS	17	0	1000	1	118	15:15:48	2966630	1	3	3	3	3	3	3	3	3	6	3	2	0	0	0	6	4	0	0	0	0	0		1	0	0	0	0	0	0	0
010713	15:15:48	10024	Trial2BackFrS	NS	17	0	1000	1	118	15:15:48	2968136	1	3	3	3	3	3	3	3	3	6	3	2	0	0	0	6	4	0	0	0	0	0		1	0	0	0	0	0	0	0
010713	15:15:48	10024	Trial2BackFrS	NS	17	0	1000	1	118	15:15:48	2969642	1	3	3	3	3	3	3	3	3	6	3	2	0	0	0	6	4	0	0	0	0	0		1	0	0	0	0	0	0	0
010713	15:15:48	10024	Trial2BackFrS	NS	17	0	1000	1	118	15:15:48	2971148	1	3	3	3	3	3	3	3	3	6	3	2	0	0	0	6	4	0	0	0	0	0		1	0	0	0	0	0	0	0
010713	15:15:48	10024	Trial2BackFrS	NS	17	0	1000	1	118	15:15:48	2972654	1	3	3	3	3	3	3	3	3	6	3	2	0	0	0	6	4	0	0	0	0	0		1	0	0	0	0	0	0	0
010713	15:15:48	10024	Trial2BackFrS	NS	17	0	1000	1	118	15:15:48	2974160	1	3	3	3	3	3	3	3	3	6	3	2	0	0	0	6	4	0	0	0	0	0		1	0	0	0	0	0	0	0
010713	15:15:48	10024	Trial2BackFrS	YS	17	0	1000	0	118	15:15:48	2975680	1	3	3	3	3	3	3	3	3	6	3	2	0	0	0	6	4	0	0	0	0	0		1	0	0	0	0	0	0	0
010713	15:15:48	10024	Trial2BackFrS	NS	17	0	1000	1	118	15:15:48	2977199	1	3	3	3	3	3	3	3	3	6	3	2	0	0	0	6	4	0	0	0	0	0		1	0	0	0	0	0	0	0
010713	15:15:48	10024	Trial2BackFrS	NS	17	0	1000	1	118	15:15:48	2978705	1	3	3	3	3	3	3	3	3	6	3	2	0	0	0	6	4	0	0	0	0	0		1	0	0	0	0	0	0	0
010713	15:15:48	10024	Trial2BackFrS	NS	17	0	1000	1	118	15:15:48	2980212	1	3	3	3	3	3	3	3	3	6	3	2	0	0	0	6	4	0	0	0	0	0		1	0	0	0	0	0	0	0
010713	15:15:48	10024	Trial2BackFrS	NS	17	0	1000	1	118	15:15:48	2981717	1	3	3	3	3	3	3	3	3	6	3	2	0	0	0	6	4	0	0	0	0	0		1	0	0	0	0	0	0	0
010713	15:15:48	10024	Trial2BackFrS	YS	17	57	553	1	118	15:15:48	2982783	1	3	3	3	3	3	3	3	3	6	3	2	0	0	0	6	4	0	0	0	0	0		1	0	0	0	0	0	0	0
010713	15:15:48	10024	Trial2BackFrS	NS	17	0	1000	1	118	15:15:48	2984729	1	3	3	3	3	3	3	3	3	6	3	2	0	0	0	6	4	0	0	0	0	0		1	0	0	0	0	0	0	0
010713	15:15:48	10024	Trial2BackFrS	NS	17	0	1000	1	118	15:15:48	2986248	1	3	3	3	3	3	3	3	3	6	3	2	0	0	0	6	4	0	0	0	0	0		1	0	0	0	0	0	0	0
010713	15:15:48	10024	Trial2BackFrS	NS	17	0	1000	1	118	15:15:48	2987755	1	3	3	3	3	3	3	3	3	6	3	2	0	0	0	6	4	0	0	0	0	0		1	0	0	0	0	0	0	0
010713	15:15:48	10024	Trial2BackFrS	NS	17	0	1000	1	118	15:15:48	2989274	1	3	3	3	3	3	3	3	3	6	3	2	0	0	0	6	4	0	0	0	0	0		1	0	0	0	0	0	0	0
010713	15:15:48	10024	Trial2BackFrS	NS	17	0	1000	1	118	15:15:48	2990793	1	3	3	3	3	3	3	3	3	6	3	2	0	0	0	6	4	0	0	0	0	0		1	0	0	0	0	0	0	0
010713	15:15:48	10024	Trial2BackFrS	NS	17	0	1000	1	118	15:15:48	2992313	1	3	3	3	3	3	3	3	3	6	3	2	0	0	0	6	4	0	0	0	0	0		1	0	0	0	0	0	0	0
010713	15:15:48	10024	Trial2BackFrS	YS	17	57	728	1	118	15:15:48	2993565	1	3	3	3	3	3	3	3	3	6	3	2	0	0	0	6	4	0	0	0	0	0		1	0	0	0	0	0	0	0
010713	15:15:48	10024	Trial2BackFrS	NS	17	0	1000	1	118	15:15:48	2995325	1	3	3	3	3	3	3	3	3	6	3	2	0	0	0	6	4	0	0	0	0	0		1	0	0	0	0	0	0	0
010713	15:15:48	10024	Trial2BackFrS	NS	17	0	1000	1	118	15:15:48	2996831	1	3	3	3	3	3	3	3	3	6	3	2	0	0	0	6	4	0	0	0	0	0		1	0	0	0	0	0	0	0
010713	15:15:48	10024	Trial2BackFrS	NS	17	0	1000	1	118	15:15:48	2998350	1	3	3	3	3	3	3	3	3	6	3	2	0	0	0	6	4	0	0	0	0	0		1	0	0	0	0	0	0	0
010713	15:15:48	10024	Trial2BackFrS	NS	17	0	1000	1	118	15:15:48	2999856	1	3	3	3	3	3	3	3	3	6	3	2	0	0	0	6	4	0	0	0	0	0		1	0	0	0	0	0	0	0
010713	15:15:48	10024	Trial2BackFrS	NS	17	0	1000	1	118	15:15:48	3001376	1	3	3	3	3	3	3	3	3	6	3	2	0	0	0	6	4	0	0	0	0	0		1	0	0	0	0	0	0	0
010713	15:15:48	10024	Trial2BackFrS	NS	17	0	1000	1	118	15:15:48	3002882	1	3	3	3	3	3	3	3	3	6	3	2	0	0	0	6	4	0	0	0	0	0		1	0	0	0	0	0	0	0
010713	15:15:48	10024	Trial2BackFrS	NS	17	0	1000	1	118	15:15:48	3004401	1	3	3	3	3	3	3	3	3	6	3	2	0	0	0	6	4	0	0	0	0	0		1	0	0	0	0	0	0	0
010713	15:15:48	10024	Trial2BackFrS	YS	17	57	877	1	118	15:15:48	3005787	1	3	3	3	3	3	3	3	3	6	3	2	0	0	0	6	4	0	0	0	0	0		1	0	0	0	0	0	0	0
010713	15:15:48	10024	Trial2BackFrS	NS	17	0	1000	1	118	15:15:48	3007413	1	3	3	3	3	3	3	3	3	6	3	2	0	0	0	6	4	0	0	0	0	0		1	0	0	0	0	0	0	0
010713	15:15:48	10024	Trial2BackFrS	NS	17	0	1000	1	118	15:15:48	3008919	1	3	3	3	3	3	3	3	3	6	3	2	0	0	0	6	4	0	0	0	0	0		1	0	0	0	0	0	0	0
010713	15:15:48	10024	Trial2BackFrS	NS	17	0	1000	1	118	15:15:48	3010439	1	3	3	3	3	3	3	3	3	6	3	2	0	0	0	6	4	0	0	0	0	0		1	0	0	0	0	0	0	0
010713	15:15:48	10024	Trial2BackFrS	NS	17	0	1000	1	118	15:15:48	3011958	1	3	3	3	3	3	3	3	3	6	3	2	0	0	0	6	4	0	0	0	0	0		1	0	0	0	0	0	0	0
010713	15:15:48	10024	Trial2BackFrS	YS	17	57	626	1	118	15:15:48	3013104	1	3	3	3	3	3	3	3	3	6	3	2	0	0	0	6	4	0	0	0	0	0		1	0	0	0	0	0	0	0
010713	15:15:48	10024	Trial2BackFrS	NS	17	0	1000	1	118	15:15:48	3014970	1	3	3	3	3	3	3	3	3	6	3	2	0	0	0	6	4	0	0	0	0	0		1	0	0	0	0	0	0	0
010713	15:15:48	10024	Trial2BackFrS	NS	17	0	1000	1	118	15:15:48	3016476	1	3	3	3	3	3	3	3	3	6	3	2	0	0	0	6	4	0	0	0	0	0		1	0	0	0	0	0	0	0
010713	15:15:48	10024	Trial2BackFrS	YS	17	57	603	1	118	15:15:48	3017596	1	3	3	3	3	3	3	3	3	6	3	2	0	0	0	6	4	0	0	0	0	0		1	0	0	0	0	0	0	0
