date	time	subject	blockcode	trialcode	values.TaskNumber	response	latency	correct	values.Score	script.starttime	script.elapsedtime	values.ScoreS7	values.Word1	values.Word2	values.Word3	values.Word4	values.Word5	values.Word6	values.Word7	values.Word8	values.DigitSpanFwrd	values.DigitSpanBack	values.ScoreAbs	values.Contour	values.Numbers	values.Hands	values.corsiblockspanFwrd	values.corsiblockspanRev
101212	07:44:58	10006	Language	Language	0	French	923	0	0	07:44:58	1434	0	0	0	0	0	0	0	0	0	0	0	0	0	0	0	0	0
101212	07:44:58	10006	Session	Session	0	6mo	662	0	0	07:44:58	2153	0	0	0	0	0	0	0	0	0	0	0	0	0	0	0	0	0
101212	07:44:58	10006	HandFr	HandFr	0	RightFr	1114612	0	0	07:44:58	1118260	0	0	0	0	0	0	0	0	0	0	0	0	0	0	0	0	0
101212	07:44:58	10006	AudioCheckFr	WordsFr	0	0	0	0	0	07:44:58	2050600	0	0	0	0	0	0	0	0	0	0	0	0	0	0	0	0	0
101212	07:44:58	10006	CubeFr	CubeFr	1	1Cube	84220	0	0	07:44:58	2137071	0	0	0	0	0	0	0	0	0	0	0	0	0	0	0	0	0
101212	07:44:58	10006	pm.simpleFrRight	blank.simpleFr	2	0	1700	1	0	07:44:58	2199896	0	0	0	0	0	0	0	0	0	0	0	0	0	0	0	0	0
101212	07:44:58	10006	pm.simpleFrRight	pm.simpleFr	2	57	619	0	0	07:44:58	2200676	0	0	0	0	0	0	0	0	0	0	0	0	0	0	0	0	0
101212	07:44:58	10006	pm.simpleFrRight	blank.simpleFr	2	0	2100	1	0	07:44:58	2202795	0	0	0	0	0	0	0	0	0	0	0	0	0	0	0	0	0
101212	07:44:58	10006	pm.simpleFrRight	pm.simpleFr	2	57	392	0	0	07:44:58	2203208	0	0	0	0	0	0	0	0	0	0	0	0	0	0	0	0	0
101212	07:44:58	10006	pm.simpleFrRight	blank.simpleFr	2	0	2300	1	0	07:44:58	2205541	0	0	0	0	0	0	0	0	0	0	0	0	0	0	0	0	0
101212	07:44:58	10006	pm.simpleFrRight	pm.simpleFr	2	57	511	0	0	07:44:58	2206074	0	0	0	0	0	0	0	0	0	0	0	0	0	0	0	0	0
101212	07:44:58	10006	pm.simpleFrRight	blank.simpleFr	2	0	2000	1	0	07:44:58	2208100	0	0	0	0	0	0	0	0	0	0	0	0	0	0	0	0	0
101212	07:44:58	10006	pm.simpleFrRight	pm.simpleFr	2	57	384	0	0	07:44:58	2208513	0	0	0	0	0	0	0	0	0	0	0	0	0	0	0	0	0
101212	07:44:58	10006	pm.simpleFrRight	blank.simpleFr	2	0	1800	1	0	07:44:58	2210325	0	0	0	0	0	0	0	0	0	0	0	0	0	0	0	0	0
101212	07:44:58	10006	pm.simpleFrRight	pm.simpleFr	2	57	414	0	0	07:44:58	2210765	0	0	0	0	0	0	0	0	0	0	0	0	0	0	0	0	0
101212	07:44:58	10006	pm.simpleFrRight	blank.simpleFr	2	0	2200	1	0	07:44:58	2212978	0	0	0	0	0	0	0	0	0	0	0	0	0	0	0	0	0
101212	07:44:58	10006	pm.simpleFrRight	pm.simpleFr	2	57	337	0	0	07:44:58	2213337	0	0	0	0	0	0	0	0	0	0	0	0	0	0	0	0	0
101212	07:44:58	10006	pm.simpleFrRight	blank.simpleFr	2	0	2400	1	0	07:44:58	2215750	0	0	0	0	0	0	0	0	0	0	0	0	0	0	0	0	0
101212	07:44:58	10006	pm.simpleFrRight	pm.simpleFr	2	57	285	0	0	07:44:58	2216056	0	0	0	0	0	0	0	0	0	0	0	0	0	0	0	0	0
101212	07:44:58	10006	pm.simpleFrRight	blank.simpleFr	2	0	1500	1	0	07:44:58	2217576	0	0	0	0	0	0	0	0	0	0	0	0	0	0	0	0	0
101212	07:44:58	10006	pm.simpleFrRight	pm.simpleFr	2	57	283	0	0	07:44:58	2217882	0	0	0	0	0	0	0	0	0	0	0	0	0	0	0	0	0
101212	07:44:58	10006	pm.simpleFrRight	blank.simpleFr	2	0	1600	1	0	07:44:58	2219495	0	0	0	0	0	0	0	0	0	0	0	0	0	0	0	0	0
101212	07:44:58	10006	pm.simpleFrRight	pm.simpleFr	2	57	268	0	0	07:44:58	2219788	0	0	0	0	0	0	0	0	0	0	0	0	0	0	0	0	0
101212	07:44:58	10006	pm.simpleFrRight	blank.simpleFr	2	0	1900	1	0	07:44:58	2221708	0	0	0	0	0	0	0	0	0	0	0	0	0	0	0	0	0
101212	07:44:58	10006	pm.simpleFrRight	pm.simpleFr	2	57	280	0	0	07:44:58	2222014	0	0	0	0	0	0	0	0	0	0	0	0	0	0	0	0	0
101212	07:44:58	10006	pm.simpleFrRight	blank.simpleFr	2	0	2500	1	0	07:44:58	2224533	0	0	0	0	0	0	0	0	0	0	0	0	0	0	0	0	0
101212	07:44:58	10006	pm.simpleFrRight	pm.simpleFr	2	57	302	0	0	07:44:58	2224853	0	0	0	0	0	0	0	0	0	0	0	0	0	0	0	0	0
101212	07:44:58	10006	pm.simpleFrRight	blank.simpleFr	2	0	2100	1	0	07:44:58	2226972	0	0	0	0	0	0	0	0	0	0	0	0	0	0	0	0	0
101212	07:44:58	10006	pm.simpleFrRight	pm.simpleFr	2	57	263	0	0	07:44:58	2227252	0	0	0	0	0	0	0	0	0	0	0	0	0	0	0	0	0
101212	07:44:58	10006	pm.simpleFrRight	blank.simpleFr	2	0	2300	1	0	07:44:58	2229571	0	0	0	0	0	0	0	0	0	0	0	0	0	0	0	0	0
101212	07:44:58	10006	pm.simpleFrRight	pm.simpleFr	2	57	336	0	0	07:44:58	2229931	0	0	0	0	0	0	0	0	0	0	0	0	0	0	0	0	0
101212	07:44:58	10006	pm.simpleFrRight	blank.simpleFr	2	0	2200	1	0	07:44:58	2232143	0	0	0	0	0	0	0	0	0	0	0	0	0	0	0	0	0
101212	07:44:58	10006	pm.simpleFrRight	pm.simpleFr	2	57	292	0	0	07:44:58	2232463	0	0	0	0	0	0	0	0	0	0	0	0	0	0	0	0	0
101212	07:44:58	10006	pm.simpleFrRight	blank.simpleFr	2	0	2400	1	0	07:44:58	2234876	0	0	0	0	0	0	0	0	0	0	0	0	0	0	0	0	0
101212	07:44:58	10006	pm.simpleFrRight	pm.simpleFr	2	57	279	0	0	07:44:58	2235182	0	0	0	0	0	0	0	0	0	0	0	0	0	0	0	0	0
101212	07:44:58	10006	pm.simpleFrRight	blank.simpleFr	2	0	1600	1	0	07:44:58	2236808	0	0	0	0	0	0	0	0	0	0	0	0	0	0	0	0	0
101212	07:44:58	10006	pm.simpleFrRight	pm.simpleFr	2	57	299	0	0	07:44:58	2237128	0	0	0	0	0	0	0	0	0	0	0	0	0	0	0	0	0
101212	07:44:58	10006	pm.simpleFrRight	blank.simpleFr	2	0	2500	1	0	07:44:58	2239647	0	0	0	0	0	0	0	0	0	0	0	0	0	0	0	0	0
101212	07:44:58	10006	pm.simpleFrRight	pm.simpleFr	2	57	259	0	0	07:44:58	2239936	0	0	0	0	0	0	0	0	0	0	0	0	0	0	0	0	0
101212	07:44:58	10006	pm.simpleFrRight	blank.simpleFr	2	0	1900	1	0	07:44:58	2241859	0	0	0	0	0	0	0	0	0	0	0	0	0	0	0	0	0
101212	07:44:58	10006	pm.simpleFrRight	pm.simpleFr	2	57	287	0	0	07:44:58	2242166	0	0	0	0	0	0	0	0	0	0	0	0	0	0	0	0	0
101212	07:44:58	10006	pm.simpleFrRight	blank.simpleFr	2	0	1500	1	0	07:44:58	2243685	0	0	0	0	0	0	0	0	0	0	0	0	0	0	0	0	0
101212	07:44:58	10006	pm.simpleFrRight	pm.simpleFr	2	57	301	0	0	07:44:58	2244005	0	0	0	0	0	0	0	0	0	0	0	0	0	0	0	0	0
101212	07:44:58	10006	pm.simpleFrRight	blank.simpleFr	2	0	1800	1	0	07:44:58	2245818	0	0	0	0	0	0	0	0	0	0	0	0	0	0	0	0	0
101212	07:44:58	10006	pm.simpleFrRight	pm.simpleFr	2	57	280	0	0	07:44:58	2246124	0	0	0	0	0	0	0	0	0	0	0	0	0	0	0	0	0
101212	07:44:58	10006	pm.simpleFrRight	blank.simpleFr	2	0	2000	1	0	07:44:58	2248137	0	0	0	0	0	0	0	0	0	0	0	0	0	0	0	0	0
101212	07:44:58	10006	pm.simpleFrRight	pm.simpleFr	2	57	297	0	0	07:44:58	2248457	0	0	0	0	0	0	0	0	0	0	0	0	0	0	0	0	0
101212	07:44:58	10006	pm.simpleFrRight	blank.simpleFr	2	0	1700	1	0	07:44:58	2250176	0	0	0	0	0	0	0	0	0	0	0	0	0	0	0	0	0
101212	07:44:58	10006	pm.simpleFrRight	pm.simpleFr	2	57	290	0	0	07:44:58	2250482	0	0	0	0	0	0	0	0	0	0	0	0	0	0	0	0	0
101212	07:44:58	10006	pm.simpleFrRight	blank.simpleFr	2	0	2100	1	0	07:44:58	2252602	0	0	0	0	0	0	0	0	0	0	0	0	0	0	0	0	0
101212	07:44:58	10006	pm.simpleFrRight	pm.simpleFr	2	57	328	0	0	07:44:58	2252948	0	0	0	0	0	0	0	0	0	0	0	0	0	0	0	0	0
101212	07:44:58	10006	pm.simpleFrRight	blank.simpleFr	2	0	1500	1	0	07:44:58	2254468	0	0	0	0	0	0	0	0	0	0	0	0	0	0	0	0	0
101212	07:44:58	10006	pm.simpleFrRight	pm.simpleFr	2	57	270	0	0	07:44:58	2254761	0	0	0	0	0	0	0	0	0	0	0	0	0	0	0	0	0
101212	07:44:58	10006	pm.simpleFrRight	blank.simpleFr	2	0	2400	1	0	07:44:58	2257173	0	0	0	0	0	0	0	0	0	0	0	0	0	0	0	0	0
101212	07:44:58	10006	pm.simpleFrRight	pm.simpleFr	2	57	268	0	0	07:44:58	2257466	0	0	0	0	0	0	0	0	0	0	0	0	0	0	0	0	0
101212	07:44:58	10006	pm.simpleFrRight	blank.simpleFr	2	0	2000	1	0	07:44:58	2259479	0	0	0	0	0	0	0	0	0	0	0	0	0	0	0	0	0
101212	07:44:58	10006	pm.simpleFrRight	pm.simpleFr	2	57	283	0	0	07:44:58	2259785	0	0	0	0	0	0	0	0	0	0	0	0	0	0	0	0	0
101212	07:44:58	10006	pm.simpleFrRight	blank.simpleFr	2	0	1800	1	0	07:44:58	2261598	0	0	0	0	0	0	0	0	0	0	0	0	0	0	0	0	0
101212	07:44:58	10006	pm.simpleFrRight	pm.simpleFr	2	57	276	0	0	07:44:58	2261891	0	0	0	0	0	0	0	0	0	0	0	0	0	0	0	0	0
101212	07:44:58	10006	pm.simpleFrRight	blank.simpleFr	2	0	1600	1	0	07:44:58	2263517	0	0	0	0	0	0	0	0	0	0	0	0	0	0	0	0	0
101212	07:44:58	10006	pm.simpleFrRight	pm.simpleFr	2	57	261	0	0	07:44:58	2263797	0	0	0	0	0	0	0	0	0	0	0	0	0	0	0	0	0
101212	07:44:58	10006	pm.simpleFrRight	blank.simpleFr	2	0	1700	1	0	07:44:58	2265516	0	0	0	0	0	0	0	0	0	0	0	0	0	0	0	0	0
101212	07:44:58	10006	pm.simpleFrRight	pm.simpleFr	2	57	278	0	0	07:44:58	2265823	0	0	0	0	0	0	0	0	0	0	0	0	0	0	0	0	0
101212	07:44:58	10006	pm.simpleFrRight	blank.simpleFr	2	0	1900	1	0	07:44:58	2267742	0	0	0	0	0	0	0	0	0	0	0	0	0	0	0	0	0
101212	07:44:58	10006	pm.simpleFrRight	pm.simpleFr	2	57	244	0	0	07:44:58	2268009	0	0	0	0	0	0	0	0	0	0	0	0	0	0	0	0	0
101212	07:44:58	10006	pm.simpleFrRight	blank.simpleFr	2	0	2500	1	0	07:44:58	2270528	0	0	0	0	0	0	0	0	0	0	0	0	0	0	0	0	0
101212	07:44:58	10006	pm.simpleFrRight	pm.simpleFr	2	57	274	0	0	07:44:58	2270821	0	0	0	0	0	0	0	0	0	0	0	0	0	0	0	0	0
101212	07:44:58	10006	pm.simpleFrRight	blank.simpleFr	2	57	1869	0	0	07:44:58	2273713	0	0	0	0	0	0	0	0	0	0	0	0	0	0	0	0	0
101212	07:44:58	10006	pm.simpleFrRight	blank.simpleFr	2	0	2300	1	0	07:44:58	2276032	0	0	0	0	0	0	0	0	0	0	0	0	0	0	0	0	0
101212	07:44:58	10006	pm.simpleFrRight	pm.simpleFr	2	57	514	0	0	07:44:58	2276565	0	0	0	0	0	0	0	0	0	0	0	0	0	0	0	0	0
101212	07:44:58	10006	pm.simpleFrRight	blank.simpleFr	2	0	2300	1	0	07:44:58	2278884	0	0	0	0	0	0	0	0	0	0	0	0	0	0	0	0	0
101212	07:44:58	10006	pm.simpleFrRight	pm.simpleFr	2	57	269	0	0	07:44:58	2279177	0	0	0	0	0	0	0	0	0	0	0	0	0	0	0	0	0
101212	07:44:58	10006	pm.simpleFrRight	blank.simpleFr	2	0	1500	1	0	07:44:58	2280697	0	0	0	0	0	0	0	0	0	0	0	0	0	0	0	0	0
101212	07:44:58	10006	pm.simpleFrRight	pm.simpleFr	2	57	276	0	0	07:44:58	2281017	0	0	0	0	0	0	0	0	0	0	0	0	0	0	0	0	0
101212	07:44:58	10006	pm.simpleFrRight	blank.simpleFr	2	0	1900	1	0	07:44:58	2282936	0	0	0	0	0	0	0	0	0	0	0	0	0	0	0	0	0
101212	07:44:58	10006	pm.simpleFrRight	pm.simpleFr	2	57	265	0	0	07:44:58	2283229	0	0	0	0	0	0	0	0	0	0	0	0	0	0	0	0	0
101212	07:44:58	10006	pm.simpleFrRight	blank.simpleFr	2	0	1700	1	0	07:44:58	2284949	0	0	0	0	0	0	0	0	0	0	0	0	0	0	0	0	0
101212	07:44:58	10006	pm.simpleFrRight	pm.simpleFr	2	57	269	0	0	07:44:58	2285242	0	0	0	0	0	0	0	0	0	0	0	0	0	0	0	0	0
101212	07:44:58	10006	pm.simpleFrRight	blank.simpleFr	2	0	2000	1	0	07:44:58	2287254	0	0	0	0	0	0	0	0	0	0	0	0	0	0	0	0	0
101212	07:44:58	10006	pm.simpleFrRight	pm.simpleFr	2	57	251	0	0	07:44:58	2287534	0	0	0	0	0	0	0	0	0	0	0	0	0	0	0	0	0
101212	07:44:58	10006	pm.simpleFrRight	blank.simpleFr	2	57	1827	0	0	07:44:58	2290386	0	0	0	0	0	0	0	0	0	0	0	0	0	0	0	0	0
101212	07:44:58	10006	pm.simpleFrRight	blank.simpleFr	2	0	2100	1	0	07:44:58	2292506	0	0	0	0	0	0	0	0	0	0	0	0	0	0	0	0	0
101212	07:44:58	10006	pm.simpleFrRight	pm.simpleFr	2	57	440	0	0	07:44:58	2292972	0	0	0	0	0	0	0	0	0	0	0	0	0	0	0	0	0
101212	07:44:58	10006	pm.simpleFrRight	blank.simpleFr	2	0	2400	1	0	07:44:58	2295384	0	0	0	0	0	0	0	0	0	0	0	0	0	0	0	0	0
101212	07:44:58	10006	pm.simpleFrRight	pm.simpleFr	2	57	281	0	0	07:44:58	2295691	0	0	0	0	0	0	0	0	0	0	0	0	0	0	0	0	0
101212	07:44:58	10006	pm.simpleFrRight	blank.simpleFr	2	0	1600	1	0	07:44:58	2297304	0	0	0	0	0	0	0	0	0	0	0	0	0	0	0	0	0
101212	07:44:58	10006	pm.simpleFrRight	pm.simpleFr	2	57	265	0	0	07:44:58	2297597	0	0	0	0	0	0	0	0	0	0	0	0	0	0	0	0	0
101212	07:44:58	10006	Trial2BackFr	N	3	0	1000	1	1	07:44:58	2371748	0	0	0	0	0	0	0	0	0	0	0	0	0	0	0	0	0
101212	07:44:58	10006	Trial2BackFr	N	3	0	1000	1	2	07:44:58	2373273	0	0	0	0	0	0	0	0	0	0	0	0	0	0	0	0	0
101212	07:44:58	10006	Trial2BackFr	N	3	0	1000	1	3	07:44:58	2374780	0	0	0	0	0	0	0	0	0	0	0	0	0	0	0	0	0
101212	07:44:58	10006	Trial2BackFr	N	3	0	1000	1	4	07:44:58	2376286	0	0	0	0	0	0	0	0	0	0	0	0	0	0	0	0	0
101212	07:44:58	10006	Trial2BackFr	N	3	0	1000	1	5	07:44:58	2377792	0	0	0	0	0	0	0	0	0	0	0	0	0	0	0	0	0
101212	07:44:58	10006	Trial2BackFr	N	3	0	1000	1	6	07:44:58	2379298	0	0	0	0	0	0	0	0	0	0	0	0	0	0	0	0	0
101212	07:44:58	10006	Trial2BackFr	N	3	0	1000	1	7	07:44:58	2380804	0	0	0	0	0	0	0	0	0	0	0	0	0	0	0	0	0
101212	07:44:58	10006	Trial2BackFr	N	3	57	673	0	7	07:44:58	2381990	0	0	0	0	0	0	0	0	0	0	0	0	0	0	0	0	0
101212	07:44:58	10006	Trial2BackFr	Y	3	0	1000	0	7	07:44:58	2383825	0	0	0	0	0	0	0	0	0	0	0	0	0	0	0	0	0
101212	07:44:58	10006	Trial2BackFr	N	3	0	1000	1	8	07:44:58	2385335	0	0	0	0	0	0	0	0	0	0	0	0	0	0	0	0	0
101212	07:44:58	10006	Trial2BackFr	N	3	0	1000	1	9	07:44:58	2386842	0	0	0	0	0	0	0	0	0	0	0	0	0	0	0	0	0
101212	07:44:58	10006	Trial2BackFr	N	3	0	1000	1	10	07:44:58	2388348	0	0	0	0	0	0	0	0	0	0	0	0	0	0	0	0	0
101212	07:44:58	10006	Trial2BackFr	Y	3	57	553	1	11	07:44:58	2389414	0	0	0	0	0	0	0	0	0	0	0	0	0	0	0	0	0
101212	07:44:58	10006	Trial2BackFr	N	3	0	1000	1	12	07:44:58	2391360	0	0	0	0	0	0	0	0	0	0	0	0	0	0	0	0	0
101212	07:44:58	10006	Trial2BackFr	N	3	0	1000	1	13	07:44:58	2392866	0	0	0	0	0	0	0	0	0	0	0	0	0	0	0	0	0
101212	07:44:58	10006	Trial2BackFr	N	3	0	1000	1	14	07:44:58	2394372	0	0	0	0	0	0	0	0	0	0	0	0	0	0	0	0	0
101212	07:44:58	10006	Trial2BackFr	N	3	0	1000	1	15	07:44:58	2395878	0	0	0	0	0	0	0	0	0	0	0	0	0	0	0	0	0
101212	07:44:58	10006	Trial2BackFr	N	3	0	1000	1	16	07:44:58	2397384	0	0	0	0	0	0	0	0	0	0	0	0	0	0	0	0	0
101212	07:44:58	10006	Trial2BackFr	Y	3	57	492	1	17	07:44:58	2398397	0	0	0	0	0	0	0	0	0	0	0	0	0	0	0	0	0
101212	07:44:58	10006	Trial2BackFr	N	3	0	1000	1	18	07:44:58	2400396	0	0	0	0	0	0	0	0	0	0	0	0	0	0	0	0	0
101212	07:44:58	10006	Trial2BackFr	N	3	0	1000	1	19	07:44:58	2401902	0	0	0	0	0	0	0	0	0	0	0	0	0	0	0	0	0
101212	07:44:58	10006	Trial2BackFr	N	3	0	1000	1	20	07:44:58	2403408	0	0	0	0	0	0	0	0	0	0	0	0	0	0	0	0	0
101212	07:44:58	10006	Trial2BackFr	N	3	0	1000	1	21	07:44:58	2404914	0	0	0	0	0	0	0	0	0	0	0	0	0	0	0	0	0
101212	07:44:58	10006	Trial2BackFr	Y	3	57	498	1	22	07:44:58	2405927	0	0	0	0	0	0	0	0	0	0	0	0	0	0	0	0	0
101212	07:44:58	10006	Trial2BackFr	N	3	0	1000	1	23	07:44:58	2407926	0	0	0	0	0	0	0	0	0	0	0	0	0	0	0	0	0
101212	07:44:58	10006	Trial2BackFr	N	3	0	1000	1	24	07:44:58	2409432	0	0	0	0	0	0	0	0	0	0	0	0	0	0	0	0	0
101212	07:44:58	10006	Trial2BackFr	N	3	0	1000	1	25	07:44:58	2410938	0	0	0	0	0	0	0	0	0	0	0	0	0	0	0	0	0
101212	07:44:58	10006	Trial2BackFr	N	3	0	1000	1	26	07:44:58	2412444	0	0	0	0	0	0	0	0	0	0	0	0	0	0	0	0	0
101212	07:44:58	10006	Trial2BackFr	N	3	0	1000	1	27	07:44:58	2413951	0	0	0	0	0	0	0	0	0	0	0	0	0	0	0	0	0
101212	07:44:58	10006	Trial2BackFr	N	3	0	1000	1	28	07:44:58	2415457	0	0	0	0	0	0	0	0	0	0	0	0	0	0	0	0	0
101212	07:44:58	10006	Trial2BackFr	Y	3	57	499	1	29	07:44:58	2416469	0	0	0	0	0	0	0	0	0	0	0	0	0	0	0	0	0
101212	07:44:58	10006	Trial2BackFr	N	3	0	1000	1	30	07:44:58	2418469	0	0	0	0	0	0	0	0	0	0	0	0	0	0	0	0	0
101212	07:44:58	10006	Trial2BackFr	N	3	0	1000	1	31	07:44:58	2419975	0	0	0	0	0	0	0	0	0	0	0	0	0	0	0	0	0
101212	07:44:58	10006	Trial2BackFr	N	3	0	1000	1	32	07:44:58	2421481	0	0	0	0	0	0	0	0	0	0	0	0	0	0	0	0	0
101212	07:44:58	10006	Trial2BackFr	Y	3	57	554	1	33	07:44:58	2422547	0	0	0	0	0	0	0	0	0	0	0	0	0	0	0	0	0
101212	07:44:58	10006	Trial2BackFr	N	3	0	1000	1	34	07:44:58	2424493	0	0	0	0	0	0	0	0	0	0	0	0	0	0	0	0	0
101212	07:44:58	10006	Trial2BackFr	N	3	0	1000	1	35	07:44:58	2425999	0	0	0	0	0	0	0	0	0	0	0	0	0	0	0	0	0
101212	07:44:58	10006	Trial2BackFr	N	3	0	1000	1	36	07:44:58	2427505	0	0	0	0	0	0	0	0	0	0	0	0	0	0	0	0	0
101212	07:44:58	10006	Trial2BackFr	N	3	0	1000	1	37	07:44:58	2429011	0	0	0	0	0	0	0	0	0	0	0	0	0	0	0	0	0
101212	07:44:58	10006	Trial2BackFr	N	3	0	1000	1	38	07:44:58	2430517	0	0	0	0	0	0	0	0	0	0	0	0	0	0	0	0	0
101212	07:44:58	10006	Trial2BackFr	N	3	57	686	0	38	07:44:58	2431716	0	0	0	0	0	0	0	0	0	0	0	0	0	0	0	0	0
101212	07:44:58	10006	Trial2BackFr	Y	3	0	1000	0	38	07:44:58	2433529	0	0	0	0	0	0	0	0	0	0	0	0	0	0	0	0	0
101212	07:44:58	10006	Trial2BackFr	N	3	0	1000	1	39	07:44:58	2435035	0	0	0	0	0	0	0	0	0	0	0	0	0	0	0	0	0
101212	07:44:58	10006	Trial2BackFr	N	3	0	1000	1	40	07:44:58	2436541	0	0	0	0	0	0	0	0	0	0	0	0	0	0	0	0	0
101212	07:44:58	10006	Trial2BackFr	N	3	0	1000	1	41	07:44:58	2438047	0	0	0	0	0	0	0	0	0	0	0	0	0	0	0	0	0
101212	07:44:58	10006	Trial2BackFr	N	3	0	1000	1	42	07:44:58	2439554	0	0	0	0	0	0	0	0	0	0	0	0	0	0	0	0	0
101212	07:44:58	10006	Trial2BackFr	Y	3	57	498	1	43	07:44:58	2440567	0	0	0	0	0	0	0	0	0	0	0	0	0	0	0	0	0
101212	07:44:58	10006	Trial2BackFr	N	3	0	1000	1	44	07:44:58	2442566	0	0	0	0	0	0	0	0	0	0	0	0	0	0	0	0	0
101212	07:44:58	10006	Trial2BackFr	N	3	0	1000	1	45	07:44:58	2444072	0	0	0	0	0	0	0	0	0	0	0	0	0	0	0	0	0
101212	07:44:58	10006	Trial2BackFr	N	3	0	1000	1	46	07:44:58	2445607	0	0	0	0	0	0	0	0	0	0	0	0	0	0	0	0	0
101212	07:44:58	10006	Trial2BackFr	N	3	0	1000	1	47	07:44:58	2447124	0	0	0	0	0	0	0	0	0	0	0	0	0	0	0	0	0
101212	07:44:58	10006	Trial2BackFr	N	3	0	1000	1	48	07:44:58	2448677	0	0	0	0	0	0	0	0	0	0	0	0	0	0	0	0	0
101212	07:44:58	10006	Trial2BackFr	Y	3	57	472	1	49	07:44:58	2449669	0	0	0	0	0	0	0	0	0	0	0	0	0	0	0	0	0
101212	07:44:58	10006	Trial2BackFr	N	3	0	1000	1	50	07:44:58	2451695	0	0	0	0	0	0	0	0	0	0	0	0	0	0	0	0	0
101212	07:44:58	10006	Trial2BackFr	N	3	0	1000	1	51	07:44:58	2453201	0	0	0	0	0	0	0	0	0	0	0	0	0	0	0	0	0
101212	07:44:58	10006	Trial2BackFr	N	3	0	1000	1	52	07:44:58	2454707	0	0	0	0	0	0	0	0	0	0	0	0	0	0	0	0	0
101212	07:44:58	10006	Trial2BackFr	N	3	0	1000	1	53	07:44:58	2456213	0	0	0	0	0	0	0	0	0	0	0	0	0	0	0	0	0
101212	07:44:58	10006	Trial2BackFr	N	3	57	510	0	53	07:44:58	2457239	0	0	0	0	0	0	0	0	0	0	0	0	0	0	0	0	0
101212	07:44:58	10006	Trial2BackFr	N	3	0	1000	1	54	07:44:58	2459226	0	0	0	0	0	0	0	0	0	0	0	0	0	0	0	0	0
101212	07:44:58	10006	Trial2BackFr	Y	3	0	1000	0	54	07:44:58	2460732	0	0	0	0	0	0	0	0	0	0	0	0	0	0	0	0	0
101212	07:44:58	10006	Trial2BackFr	N	3	0	1000	1	55	07:44:58	2462251	0	0	0	0	0	0	0	0	0	0	0	0	0	0	0	0	0
101212	07:44:58	10006	Trial2BackFr	N	3	0	1000	1	56	07:44:58	2463757	0	0	0	0	0	0	0	0	0	0	0	0	0	0	0	0	0
101212	07:44:58	10006	Trial2BackFr	Y	3	57	582	1	57	07:44:58	2464850	0	0	0	0	0	0	0	0	0	0	0	0	0	0	0	0	0
101212	07:44:58	10006	Trial2BackFr	N	3	0	1000	1	58	07:44:58	2466769	0	0	0	0	0	0	0	0	0	0	0	0	0	0	0	0	0
101212	07:44:58	10006	Trial2BackFr	N	3	0	1000	1	59	07:44:58	2468275	0	0	0	0	0	0	0	0	0	0	0	0	0	0	0	0	0
101212	07:44:58	10006	Trial2BackFr	N	3	0	1000	1	60	07:44:58	2469781	0	0	0	0	0	0	0	0	0	0	0	0	0	0	0	0	0
101212	07:44:58	10006	Trial2BackFr	N	3	0	1000	1	61	07:44:58	2471301	0	0	0	0	0	0	0	0	0	0	0	0	0	0	0	0	0
101212	07:44:58	10006	Trial2BackFr	N	3	0	1000	1	62	07:44:58	2472806	0	0	0	0	0	0	0	0	0	0	0	0	0	0	0	0	0
101212	07:44:58	10006	Trial2BackFr	N	3	0	1000	1	63	07:44:58	2474313	0	0	0	0	0	0	0	0	0	0	0	0	0	0	0	0	0
101212	07:44:58	10006	Trial2BackFr	N	3	0	1000	1	64	07:44:58	2475819	0	0	0	0	0	0	0	0	0	0	0	0	0	0	0	0	0
101212	07:44:58	10006	Trial2BackFr	N	3	0	1000	1	65	07:44:58	2477325	0	0	0	0	0	0	0	0	0	0	0	0	0	0	0	0	0
101212	07:44:58	10006	Trial2BackFr	N	3	0	1000	1	66	07:44:58	2478831	0	0	0	0	0	0	0	0	0	0	0	0	0	0	0	0	0
101212	07:44:58	10006	Trial2BackFr	N	3	0	1000	1	67	07:44:58	2480337	0	0	0	0	0	0	0	0	0	0	0	0	0	0	0	0	0
101212	07:44:58	10006	Trial2BackFr	Y	3	57	529	1	68	07:44:58	2481377	0	0	0	0	0	0	0	0	0	0	0	0	0	0	0	0	0
101212	07:44:58	10006	Trial2BackFr	N	3	0	1000	1	69	07:44:58	2483349	0	0	0	0	0	0	0	0	0	0	0	0	0	0	0	0	0
101212	07:44:58	10006	Trial2BackFr	N	3	0	1000	1	70	07:44:58	2484855	0	0	0	0	0	0	0	0	0	0	0	0	0	0	0	0	0
101212	07:44:58	10006	Trial2BackFr	N	3	0	1000	1	71	07:44:58	2486361	0	0	0	0	0	0	0	0	0	0	0	0	0	0	0	0	0
101212	07:44:58	10006	Trial2BackFr	Y	3	57	475	1	72	07:44:58	2487361	0	0	0	0	0	0	0	0	0	0	0	0	0	0	0	0	0
101212	07:44:58	10006	Trial2BackFr	N	3	0	1000	1	73	07:44:58	2489387	0	0	0	0	0	0	0	0	0	0	0	0	0	0	0	0	0
101212	07:44:58	10006	Trial2BackFr	N	3	0	1000	1	74	07:44:58	2490893	0	0	0	0	0	0	0	0	0	0	0	0	0	0	0	0	0
101212	07:44:58	10006	Trial2BackFr	N	3	0	1000	1	75	07:44:58	2492399	0	0	0	0	0	0	0	0	0	0	0	0	0	0	0	0	0
101212	07:44:58	10006	Trial2BackFr	N	3	0	1000	1	76	07:44:58	2493905	0	0	0	0	0	0	0	0	0	0	0	0	0	0	0	0	0
101212	07:44:58	10006	Trial2BackFr	N	3	0	1000	1	77	07:44:58	2495411	0	0	0	0	0	0	0	0	0	0	0	0	0	0	0	0	0
101212	07:44:58	10006	Trial2BackFr	Y	3	57	607	1	78	07:44:58	2496530	0	0	0	0	0	0	0	0	0	0	0	0	0	0	0	0	0
101212	07:44:58	10006	Trial2BackFr	N	3	0	1000	1	79	07:44:58	2498423	0	0	0	0	0	0	0	0	0	0	0	0	0	0	0	0	0
101212	07:44:58	10006	Trial2BackFr	N	3	0	1000	1	80	07:44:58	2499929	0	0	0	0	0	0	0	0	0	0	0	0	0	0	0	0	0
101212	07:44:58	10006	Trial2BackFr	N	3	0	1000	1	81	07:44:58	2501435	0	0	0	0	0	0	0	0	0	0	0	0	0	0	0	0	0
101212	07:44:58	10006	Trial2BackFr	N	3	0	1000	1	82	07:44:58	2502941	0	0	0	0	0	0	0	0	0	0	0	0	0	0	0	0	0
101212	07:44:58	10006	Trial2BackFr	N	3	0	1000	1	83	07:44:58	2504447	0	0	0	0	0	0	0	0	0	0	0	0	0	0	0	0	0
101212	07:44:58	10006	Trial2BackFr	N	3	57	667	0	83	07:44:58	2505634	0	0	0	0	0	0	0	0	0	0	0	0	0	0	0	0	0
101212	07:44:58	10006	Trial2BackFr	N	3	0	1000	1	84	07:44:58	2507459	0	0	0	0	0	0	0	0	0	0	0	0	0	0	0	0	0
101212	07:44:58	10006	Trial2BackFr	N	3	0	1000	1	85	07:44:58	2508965	0	0	0	0	0	0	0	0	0	0	0	0	0	0	0	0	0
101212	07:44:58	10006	Trial2BackFr	N	3	0	1000	1	86	07:44:58	2510485	0	0	0	0	0	0	0	0	0	0	0	0	0	0	0	0	0
101212	07:44:58	10006	Trial2BackFr	Y	3	57	589	1	87	07:44:58	2511591	0	0	0	0	0	0	0	0	0	0	0	0	0	0	0	0	0
101212	07:44:58	10006	Trial2BackFr	N	3	0	1000	1	88	07:44:58	2513497	0	0	0	0	0	0	0	0	0	0	0	0	0	0	0	0	0
101212	07:44:58	10006	Trial2BackFr	N	3	0	1000	1	89	07:44:58	2515003	0	0	0	0	0	0	0	0	0	0	0	0	0	0	0	0	0
101212	07:44:58	10006	Trial2BackFr	N	3	0	1000	1	90	07:44:58	2516509	0	0	0	0	0	0	0	0	0	0	0	0	0	0	0	0	0
101212	07:44:58	10006	Trial2BackFr	N	3	0	1000	1	91	07:44:58	2518015	0	0	0	0	0	0	0	0	0	0	0	0	0	0	0	0	0
101212	07:44:58	10006	Trial2BackFr	N	3	0	1000	1	92	07:44:58	2519521	0	0	0	0	0	0	0	0	0	0	0	0	0	0	0	0	0
101212	07:44:58	10006	Trial2BackFr	N	3	57	672	0	92	07:44:58	2520707	0	0	0	0	0	0	0	0	0	0	0	0	0	0	0	0	0
101212	07:44:58	10006	Trial2BackFr	N	3	0	1000	1	93	07:44:58	2522533	0	0	0	0	0	0	0	0	0	0	0	0	0	0	0	0	0
101212	07:44:58	10006	Trial2BackFr	N	3	0	1000	1	94	07:44:58	2524039	0	0	0	0	0	0	0	0	0	0	0	0	0	0	0	0	0
101212	07:44:58	10006	Trial2BackFr	Y	3	57	762	1	95	07:44:58	2525319	0	0	0	0	0	0	0	0	0	0	0	0	0	0	0	0	0
101212	07:44:58	10006	Trial2BackFr	N	3	0	1000	1	96	07:44:58	2527051	0	0	0	0	0	0	0	0	0	0	0	0	0	0	0	0	0
101212	07:44:58	10006	Trial2BackFr	N	3	0	1000	1	97	07:44:58	2528557	0	0	0	0	0	0	0	0	0	0	0	0	0	0	0	0	0
101212	07:44:58	10006	Trial2BackFr	N	3	0	1000	1	98	07:44:58	2530064	0	0	0	0	0	0	0	0	0	0	0	0	0	0	0	0	0
101212	07:44:58	10006	Trial2BackFr	N	3	0	1000	1	99	07:44:58	2531570	0	0	0	0	0	0	0	0	0	0	0	0	0	0	0	0	0
101212	07:44:58	10006	Trial2BackFr	Y	3	57	543	1	100	07:44:58	2532622	0	0	0	0	0	0	0	0	0	0	0	0	0	0	0	0	0
101212	07:44:58	10006	Trial2BackFr	N	3	0	1000	1	101	07:44:58	2534582	0	0	0	0	0	0	0	0	0	0	0	0	0	0	0	0	0
101212	07:44:58	10006	Trial2BackFr	N	3	0	1000	1	102	07:44:58	2536088	0	0	0	0	0	0	0	0	0	0	0	0	0	0	0	0	0
101212	07:44:58	10006	Trial2BackFr	N	3	0	1000	1	103	07:44:58	2537594	0	0	0	0	0	0	0	0	0	0	0	0	0	0	0	0	0
101212	07:44:58	10006	Trial2BackFr	Y	3	57	583	1	104	07:44:58	2538687	0	0	0	0	0	0	0	0	0	0	0	0	0	0	0	0	0
101212	07:44:58	10006	Trial2BackFr	N	3	0	1000	1	105	07:44:58	2540606	0	0	0	0	0	0	0	0	0	0	0	0	0	0	0	0	0
101212	07:44:58	10006	Trial2BackFr	N	3	0	1000	1	106	07:44:58	2542112	0	0	0	0	0	0	0	0	0	0	0	0	0	0	0	0	0
101212	07:44:58	10006	Trial2BackFr	N	3	0	1000	1	107	07:44:58	2543618	0	0	0	0	0	0	0	0	0	0	0	0	0	0	0	0	0
101212	07:44:58	10006	Trial2BackFr	N	3	0	1000	1	108	07:44:58	2545134	0	0	0	0	0	0	0	0	0	0	0	0	0	0	0	0	0
101212	07:44:58	10006	Trial2BackFr	N	3	0	1000	1	109	07:44:58	2546643	0	0	0	0	0	0	0	0	0	0	0	0	0	0	0	0	0
101212	07:44:58	10006	Trial2BackFr	Y	3	57	637	1	110	07:44:58	2547789	0	0	0	0	0	0	0	0	0	0	0	0	0	0	0	0	0
101212	07:44:58	10006	Trial2BackFr	N	3	0	1000	1	111	07:44:58	2549656	0	0	0	0	0	0	0	0	0	0	0	0	0	0	0	0	0
101212	07:44:58	10006	Trial2BackFr	N	3	0	1000	1	112	07:44:58	2551162	0	0	0	0	0	0	0	0	0	0	0	0	0	0	0	0	0
101212	07:44:58	10006	Trial2BackFr	N	3	0	1000	1	113	07:44:58	2552668	0	0	0	0	0	0	0	0	0	0	0	0	0	0	0	0	0
101212	07:44:58	10006	Trial2BackFr	Y	3	57	645	1	114	07:44:58	2553827	0	0	0	0	0	0	0	0	0	0	0	0	0	0	0	0	0
101212	07:44:58	10006	Trial3BackFr	NN	4	0	1000	1	114	07:44:58	2704966	0	0	0	0	0	0	0	0	0	0	0	0	0	0	0	0	0
101212	07:44:58	10006	Trial3BackFr	NN	4	0	1000	1	114	07:44:58	2706472	0	0	0	0	0	0	0	0	0	0	0	0	0	0	0	0	0
101212	07:44:58	10006	Trial3BackFr	NN	4	0	1000	1	114	07:44:58	2707978	0	0	0	0	0	0	0	0	0	0	0	0	0	0	0	0	0
101212	07:44:58	10006	Trial3BackFr	YY	4	57	389	1	114	07:44:58	2708898	0	0	0	0	0	0	0	0	0	0	0	0	0	0	0	0	0
101212	07:44:58	10006	Trial3BackFr	NN	4	0	1000	1	114	07:44:58	2711003	0	0	0	0	0	0	0	0	0	0	0	0	0	0	0	0	0
101212	07:44:58	10006	Trial3BackFr	NN	4	0	1000	1	114	07:44:58	2712509	0	0	0	0	0	0	0	0	0	0	0	0	0	0	0	0	0
101212	07:44:58	10006	Trial3BackFr	NN	4	0	1000	1	114	07:44:58	2714016	0	0	0	0	0	0	0	0	0	0	0	0	0	0	0	0	0
101212	07:44:58	10006	Trial3BackFr	NN	4	0	1000	1	114	07:44:58	2715535	0	0	0	0	0	0	0	0	0	0	0	0	0	0	0	0	0
101212	07:44:58	10006	Trial3BackFr	YY	4	57	526	1	114	07:44:58	2716574	0	0	0	0	0	0	0	0	0	0	0	0	0	0	0	0	0
101212	07:44:58	10006	Trial3BackFr	NN	4	0	1000	1	114	07:44:58	2718547	0	0	0	0	0	0	0	0	0	0	0	0	0	0	0	0	0
101212	07:44:58	10006	Trial3BackFr	NN	4	0	1000	1	114	07:44:58	2720053	0	0	0	0	0	0	0	0	0	0	0	0	0	0	0	0	0
101212	07:44:58	10006	Trial3BackFr	NN	4	0	1000	1	114	07:44:58	2721559	0	0	0	0	0	0	0	0	0	0	0	0	0	0	0	0	0
101212	07:44:58	10006	Trial3BackFr	NN	4	57	389	0	114	07:44:58	2722465	0	0	0	0	0	0	0	0	0	0	0	0	0	0	0	0	0
101212	07:44:58	10006	Trial3BackFr	NN	4	0	1000	1	114	07:44:58	2724571	0	0	0	0	0	0	0	0	0	0	0	0	0	0	0	0	0
101212	07:44:58	10006	Trial3BackFr	NN	4	0	1000	1	114	07:44:58	2726077	0	0	0	0	0	0	0	0	0	0	0	0	0	0	0	0	0
101212	07:44:58	10006	Trial3BackFr	NN	4	0	1000	1	114	07:44:58	2727583	0	0	0	0	0	0	0	0	0	0	0	0	0	0	0	0	0
101212	07:44:58	10006	Trial3BackFr	YY	4	57	509	1	114	07:44:58	2728610	0	0	0	0	0	0	0	0	0	0	0	0	0	0	0	0	0
101212	07:44:58	10006	Trial3BackFr	NN	4	0	1000	1	114	07:44:58	2730595	0	0	0	0	0	0	0	0	0	0	0	0	0	0	0	0	0
101212	07:44:58	10006	Trial3BackFr	NN	4	0	1000	1	114	07:44:58	2732102	0	0	0	0	0	0	0	0	0	0	0	0	0	0	0	0	0
101212	07:44:58	10006	Trial3BackFr	NN	4	0	1000	1	114	07:44:58	2733608	0	0	0	0	0	0	0	0	0	0	0	0	0	0	0	0	0
101212	07:44:58	10006	Trial3BackFr	NN	4	57	580	0	114	07:44:58	2734700	0	0	0	0	0	0	0	0	0	0	0	0	0	0	0	0	0
101212	07:44:58	10006	Trial3BackFr	NN	4	0	1000	1	114	07:44:58	2736620	0	0	0	0	0	0	0	0	0	0	0	0	0	0	0	0	0
101212	07:44:58	10006	Trial3BackFr	YY	4	0	1000	0	114	07:44:58	2738126	0	0	0	0	0	0	0	0	0	0	0	0	0	0	0	0	0
101212	07:44:58	10006	Trial3BackFr	NN	4	0	1000	1	114	07:44:58	2739632	0	0	0	0	0	0	0	0	0	0	0	0	0	0	0	0	0
101212	07:44:58	10006	Trial3BackFr	NN	4	0	1000	1	114	07:44:58	2741138	0	0	0	0	0	0	0	0	0	0	0	0	0	0	0	0	0
101212	07:44:58	10006	Trial3BackFr	NN	4	0	1000	1	114	07:44:58	2742644	0	0	0	0	0	0	0	0	0	0	0	0	0	0	0	0	0
101212	07:44:58	10006	Trial3BackFr	YY	4	57	504	1	114	07:44:58	2743657	0	0	0	0	0	0	0	0	0	0	0	0	0	0	0	0	0
101212	07:44:58	10006	Trial3BackFr	NN	4	0	1000	1	114	07:44:58	2745656	0	0	0	0	0	0	0	0	0	0	0	0	0	0	0	0	0
101212	07:44:58	10006	Trial3BackFr	NN	4	0	1000	1	114	07:44:58	2747162	0	0	0	0	0	0	0	0	0	0	0	0	0	0	0	0	0
101212	07:44:58	10006	Trial3BackFr	NN	4	0	1000	1	114	07:44:58	2748668	0	0	0	0	0	0	0	0	0	0	0	0	0	0	0	0	0
101212	07:44:58	10006	Trial3BackFr	YY	4	57	559	1	114	07:44:58	2749748	0	0	0	0	0	0	0	0	0	0	0	0	0	0	0	0	0
101212	07:44:58	10006	Trial3BackFr	NN	4	0	1000	1	114	07:44:58	2751680	0	0	0	0	0	0	0	0	0	0	0	0	0	0	0	0	0
101212	07:44:58	10006	Trial3BackFr	NN	4	0	1000	1	114	07:44:58	2753186	0	0	0	0	0	0	0	0	0	0	0	0	0	0	0	0	0
101212	07:44:58	10006	Trial3BackFr	NN	4	0	1000	1	114	07:44:58	2754692	0	0	0	0	0	0	0	0	0	0	0	0	0	0	0	0	0
101212	07:44:58	10006	Trial3BackFr	NN	4	57	647	0	114	07:44:58	2755852	0	0	0	0	0	0	0	0	0	0	0	0	0	0	0	0	0
101212	07:44:58	10006	Trial3BackFr	NN	4	0	1000	1	114	07:44:58	2757705	0	0	0	0	0	0	0	0	0	0	0	0	0	0	0	0	0
101212	07:44:58	10006	Trial3BackFr	NN	4	0	1000	1	114	07:44:58	2759210	0	0	0	0	0	0	0	0	0	0	0	0	0	0	0	0	0
101212	07:44:58	10006	Trial3BackFr	NN	4	0	1000	1	114	07:44:58	2760717	0	0	0	0	0	0	0	0	0	0	0	0	0	0	0	0	0
101212	07:44:58	10006	Trial3BackFr	NN	4	0	1000	1	114	07:44:58	2762236	0	0	0	0	0	0	0	0	0	0	0	0	0	0	0	0	0
101212	07:44:58	10006	Trial3BackFr	NN	4	0	1000	1	114	07:44:58	2763742	0	0	0	0	0	0	0	0	0	0	0	0	0	0	0	0	0
101212	07:44:58	10006	Trial3BackFr	NN	4	0	1000	1	114	07:44:58	2765248	0	0	0	0	0	0	0	0	0	0	0	0	0	0	0	0	0
101212	07:44:58	10006	Trial3BackFr	YY	4	57	443	1	114	07:44:58	2766208	0	0	0	0	0	0	0	0	0	0	0	0	0	0	0	0	0
101212	07:44:58	10006	Trial3BackFr	NN	4	0	1000	1	114	07:44:58	2768260	0	0	0	0	0	0	0	0	0	0	0	0	0	0	0	0	0
101212	07:44:58	10006	Trial3BackFr	NN	4	0	1000	1	114	07:44:58	2769766	0	0	0	0	0	0	0	0	0	0	0	0	0	0	0	0	0
101212	07:44:58	10006	Trial3BackFr	NN	4	0	1000	1	114	07:44:58	2771272	0	0	0	0	0	0	0	0	0	0	0	0	0	0	0	0	0
101212	07:44:58	10006	Trial3BackFr	NN	4	0	1000	1	114	07:44:58	2772778	0	0	0	0	0	0	0	0	0	0	0	0	0	0	0	0	0
101212	07:44:58	10006	Trial3BackFr	YY	4	57	433	1	114	07:44:58	2773725	0	0	0	0	0	0	0	0	0	0	0	0	0	0	0	0	0
101212	07:44:58	10006	Trial3BackFr	NN	4	0	1000	1	114	07:44:58	2775791	0	0	0	0	0	0	0	0	0	0	0	0	0	0	0	0	0
101212	07:44:58	10006	Trial3BackFr	NN	4	0	1000	1	114	07:44:58	2777297	0	0	0	0	0	0	0	0	0	0	0	0	0	0	0	0	0
101212	07:44:58	10006	Trial3BackFr	NN	4	0	1000	1	114	07:44:58	2778803	0	0	0	0	0	0	0	0	0	0	0	0	0	0	0	0	0
101212	07:44:58	10006	Trial3BackFr	NN	4	0	1000	1	114	07:44:58	2780309	0	0	0	0	0	0	0	0	0	0	0	0	0	0	0	0	0
101212	07:44:58	10006	Trial3BackFr	NN	4	0	1000	1	114	07:44:58	2781815	0	0	0	0	0	0	0	0	0	0	0	0	0	0	0	0	0
101212	07:44:58	10006	Trial3BackFr	YY	4	57	420	1	114	07:44:58	2782748	0	0	0	0	0	0	0	0	0	0	0	0	0	0	0	0	0
101212	07:44:58	10006	Trial3BackFr	NN	4	0	1000	1	114	07:44:58	2784827	0	0	0	0	0	0	0	0	0	0	0	0	0	0	0	0	0
101212	07:44:58	10006	Trial3BackFr	NN	4	0	1000	1	114	07:44:58	2786333	0	0	0	0	0	0	0	0	0	0	0	0	0	0	0	0	0
101212	07:44:58	10006	Trial3BackFr	NN	4	0	1000	1	114	07:44:58	2787839	0	0	0	0	0	0	0	0	0	0	0	0	0	0	0	0	0
101212	07:44:58	10006	Trial3BackFr	NN	4	0	1000	1	114	07:44:58	2789345	0	0	0	0	0	0	0	0	0	0	0	0	0	0	0	0	0
101212	07:44:58	10006	Trial3BackFr	NN	4	57	426	0	114	07:44:58	2790291	0	0	0	0	0	0	0	0	0	0	0	0	0	0	0	0	0
101212	07:44:58	10006	Trial3BackFr	NN	4	0	1000	1	114	07:44:58	2792357	0	0	0	0	0	0	0	0	0	0	0	0	0	0	0	0	0
101212	07:44:58	10006	Trial3BackFr	YY	4	0	1000	0	114	07:44:58	2793863	0	0	0	0	0	0	0	0	0	0	0	0	0	0	0	0	0
101212	07:44:58	10006	Trial3BackFr	NN	4	0	1000	1	114	07:44:58	2795369	0	0	0	0	0	0	0	0	0	0	0	0	0	0	0	0	0
101212	07:44:58	10006	Trial3BackFr	NN	4	57	641	0	114	07:44:58	2796529	0	0	0	0	0	0	0	0	0	0	0	0	0	0	0	0	0
101212	07:44:58	10006	Trial3BackFr	NN	4	0	1000	1	114	07:44:58	2798381	0	0	0	0	0	0	0	0	0	0	0	0	0	0	0	0	0
101212	07:44:58	10006	Trial3BackFr	YY	4	0	1000	0	114	07:44:58	2799887	0	0	0	0	0	0	0	0	0	0	0	0	0	0	0	0	0
101212	07:44:58	10006	Trial3BackFr	NN	4	0	1000	1	114	07:44:58	2801393	0	0	0	0	0	0	0	0	0	0	0	0	0	0	0	0	0
101212	07:44:58	10006	Trial3BackFr	NN	4	0	1000	1	114	07:44:58	2802900	0	0	0	0	0	0	0	0	0	0	0	0	0	0	0	0	0
101212	07:44:58	10006	Trial3BackFr	NN	4	0	1000	1	114	07:44:58	2804406	0	0	0	0	0	0	0	0	0	0	0	0	0	0	0	0	0
101212	07:44:58	10006	Trial3BackFr	NN	4	57	453	0	114	07:44:58	2805379	0	0	0	0	0	0	0	0	0	0	0	0	0	0	0	0	0
101212	07:44:58	10006	Trial3BackFr	NN	4	0	1000	1	114	07:44:58	2807418	0	0	0	0	0	0	0	0	0	0	0	0	0	0	0	0	0
101212	07:44:58	10006	Trial3BackFr	NN	4	0	1000	1	114	07:44:58	2808924	0	0	0	0	0	0	0	0	0	0	0	0	0	0	0	0	0
101212	07:44:58	10006	Trial3BackFr	NN	4	0	1000	1	114	07:44:58	2810430	0	0	0	0	0	0	0	0	0	0	0	0	0	0	0	0	0
101212	07:44:58	10006	Trial3BackFr	NN	4	0	1000	1	114	07:44:58	2811936	0	0	0	0	0	0	0	0	0	0	0	0	0	0	0	0	0
101212	07:44:58	10006	Trial3BackFr	NN	4	0	1000	1	114	07:44:58	2813442	0	0	0	0	0	0	0	0	0	0	0	0	0	0	0	0	0
101212	07:44:58	10006	Trial3BackFr	YY	4	0	1000	0	114	07:44:58	2814948	0	0	0	0	0	0	0	0	0	0	0	0	0	0	0	0	0
101212	07:44:58	10006	Trial3BackFr	NN	4	0	1000	1	114	07:44:58	2816454	0	0	0	0	0	0	0	0	0	0	0	0	0	0	0	0	0
101212	07:44:58	10006	Trial3BackFr	NN	4	0	1000	1	114	07:44:58	2817960	0	0	0	0	0	0	0	0	0	0	0	0	0	0	0	0	0
101212	07:44:58	10006	Trial3BackFr	NN	4	0	1000	1	114	07:44:58	2819466	0	0	0	0	0	0	0	0	0	0	0	0	0	0	0	0	0
101212	07:44:58	10006	Trial3BackFr	YY	4	57	640	1	114	07:44:58	2820626	0	0	0	0	0	0	0	0	0	0	0	0	0	0	0	0	0
101212	07:44:58	10006	Trial3BackFr	NN	4	0	1000	1	114	07:44:58	2822478	0	0	0	0	0	0	0	0	0	0	0	0	0	0	0	0	0
101212	07:44:58	10006	Trial3BackFr	NN	4	0	1000	1	114	07:44:58	2823984	0	0	0	0	0	0	0	0	0	0	0	0	0	0	0	0	0
101212	07:44:58	10006	Trial3BackFr	NN	4	0	1000	1	114	07:44:58	2825490	0	0	0	0	0	0	0	0	0	0	0	0	0	0	0	0	0
101212	07:44:58	10006	Trial3BackFr	NN	4	0	1000	1	114	07:44:58	2826996	0	0	0	0	0	0	0	0	0	0	0	0	0	0	0	0	0
101212	07:44:58	10006	Trial3BackFr	NN	4	0	1000	1	114	07:44:58	2828502	0	0	0	0	0	0	0	0	0	0	0	0	0	0	0	0	0
101212	07:44:58	10006	Trial3BackFr	YY	4	57	611	1	114	07:44:58	2829622	0	0	0	0	0	0	0	0	0	0	0	0	0	0	0	0	0
101212	07:44:58	10006	Trial3BackFr	NN	4	0	1000	1	114	07:44:58	2831515	0	0	0	0	0	0	0	0	0	0	0	0	0	0	0	0	0
101212	07:44:58	10006	Trial3BackFr	NN	4	0	1000	1	114	07:44:58	2833021	0	0	0	0	0	0	0	0	0	0	0	0	0	0	0	0	0
101212	07:44:58	10006	Trial3BackFr	NN	4	0	1000	1	114	07:44:58	2834527	0	0	0	0	0	0	0	0	0	0	0	0	0	0	0	0	0
101212	07:44:58	10006	Trial3BackFr	NN	4	0	1000	1	114	07:44:58	2836033	0	0	0	0	0	0	0	0	0	0	0	0	0	0	0	0	0
101212	07:44:58	10006	Trial3BackFr	NN	4	0	1000	1	114	07:44:58	2837539	0	0	0	0	0	0	0	0	0	0	0	0	0	0	0	0	0
101212	07:44:58	10006	Trial3BackFr	NN	4	0	1000	1	114	07:44:58	2839045	0	0	0	0	0	0	0	0	0	0	0	0	0	0	0	0	0
101212	07:44:58	10006	Trial3BackFr	NN	4	0	1000	1	114	07:44:58	2840551	0	0	0	0	0	0	0	0	0	0	0	0	0	0	0	0	0
101212	07:44:58	10006	Trial3BackFr	NN	4	0	1000	1	114	07:44:58	2842057	0	0	0	0	0	0	0	0	0	0	0	0	0	0	0	0	0
101212	07:44:58	10006	Trial3BackFr	NN	4	0	1000	1	114	07:44:58	2843563	0	0	0	0	0	0	0	0	0	0	0	0	0	0	0	0	0
101212	07:44:58	10006	Trial3BackFr	YY	4	57	510	1	114	07:44:58	2844589	0	0	0	0	0	0	0	0	0	0	0	0	0	0	0	0	0
101212	07:44:58	10006	Trial3BackFr	NN	4	0	1000	1	114	07:44:58	2846575	0	0	0	0	0	0	0	0	0	0	0	0	0	0	0	0	0
101212	07:44:58	10006	Trial3BackFr	NN	4	0	1000	1	114	07:44:58	2848081	0	0	0	0	0	0	0	0	0	0	0	0	0	0	0	0	0
101212	07:44:58	10006	Trial3BackFr	NN	4	0	1000	1	114	07:44:58	2849587	0	0	0	0	0	0	0	0	0	0	0	0	0	0	0	0	0
101212	07:44:58	10006	Trial3BackFr	NN	4	0	1000	1	114	07:44:58	2851093	0	0	0	0	0	0	0	0	0	0	0	0	0	0	0	0	0
101212	07:44:58	10006	Trial3BackFr	NN	4	0	1000	1	114	07:44:58	2852599	0	0	0	0	0	0	0	0	0	0	0	0	0	0	0	0	0
101212	07:44:58	10006	Trial3BackFr	NN	4	0	1000	1	114	07:44:58	2854105	0	0	0	0	0	0	0	0	0	0	0	0	0	0	0	0	0
101212	07:44:58	10006	Trial3BackFr	NN	4	0	1000	1	114	07:44:58	2855612	0	0	0	0	0	0	0	0	0	0	0	0	0	0	0	0	0
101212	07:44:58	10006	Trial3BackFr	NN	4	57	686	0	114	07:44:58	2856811	0	0	0	0	0	0	0	0	0	0	0	0	0	0	0	0	0
101212	07:44:58	10006	Trial3BackFr	YY	4	0	1000	0	114	07:44:58	2858624	0	0	0	0	0	0	0	0	0	0	0	0	0	0	0	0	0
101212	07:44:58	10006	Trial3BackFr	NN	4	0	1000	1	114	07:44:58	2860130	0	0	0	0	0	0	0	0	0	0	0	0	0	0	0	0	0
101212	07:44:58	10006	Trial3BackFr	NN	4	0	1000	1	114	07:44:58	2861662	0	0	0	0	0	0	0	0	0	0	0	0	0	0	0	0	0
101212	07:44:58	10006	Trial3BackFr	NN	4	0	1000	1	114	07:44:58	2863168	0	0	0	0	0	0	0	0	0	0	0	0	0	0	0	0	0
101212	07:44:58	10006	Trial3BackFr	NN	4	0	1000	1	114	07:44:58	2864675	0	0	0	0	0	0	0	0	0	0	0	0	0	0	0	0	0
101212	07:44:58	10006	Trial3BackFr	YY	4	57	453	1	114	07:44:58	2865647	0	0	0	0	0	0	0	0	0	0	0	0	0	0	0	0	0
101212	07:44:58	10006	Trial3BackFr	NN	4	0	1000	1	114	07:44:58	2867687	0	0	0	0	0	0	0	0	0	0	0	0	0	0	0	0	0
101212	07:44:58	10006	Trial3BackFr	NN	4	0	1000	1	114	07:44:58	2869193	0	0	0	0	0	0	0	0	0	0	0	0	0	0	0	0	0
101212	07:44:58	10006	Trial3BackFr	NN	4	0	1000	1	114	07:44:58	2870712	0	0	0	0	0	0	0	0	0	0	0	0	0	0	0	0	0
101212	07:44:58	10006	Trial3BackFr	YY	4	57	753	1	114	07:44:58	2871978	0	0	0	0	0	0	0	0	0	0	0	0	0	0	0	0	0
101212	07:44:58	10006	Trial3BackFr	NN	4	0	1000	1	114	07:44:58	2873724	0	0	0	0	0	0	0	0	0	0	0	0	0	0	0	0	0
101212	07:44:58	10006	Trial3BackFr	NN	4	0	1000	1	114	07:44:58	2875230	0	0	0	0	0	0	0	0	0	0	0	0	0	0	0	0	0
101212	07:44:58	10006	Trial3BackFr	NN	4	0	1000	1	114	07:44:58	2876736	0	0	0	0	0	0	0	0	0	0	0	0	0	0	0	0	0
101212	07:44:58	10006	Trial3BackFr	NN	4	0	1000	1	114	07:44:58	2878242	0	0	0	0	0	0	0	0	0	0	0	0	0	0	0	0	0
101212	07:44:58	10006	Trial3BackFr	NN	4	0	1000	1	114	07:44:58	2879748	0	0	0	0	0	0	0	0	0	0	0	0	0	0	0	0	0
101212	07:44:58	10006	Trial3BackFr	YY	4	57	612	1	114	07:44:58	2880881	0	0	0	0	0	0	0	0	0	0	0	0	0	0	0	0	0
101212	07:44:58	10006	Trial3BackFr	NN	4	0	1000	1	114	07:44:58	2882761	0	0	0	0	0	0	0	0	0	0	0	0	0	0	0	0	0
101212	07:44:58	10006	Trial3BackFr	NN	4	0	1000	1	114	07:44:58	2884266	0	0	0	0	0	0	0	0	0	0	0	0	0	0	0	0	0
101212	07:44:58	10006	Trial3BackFr	NN	4	0	1000	1	114	07:44:58	2885773	0	0	0	0	0	0	0	0	0	0	0	0	0	0	0	0	0
101212	07:44:58	10006	Trial3BackFr	YY	4	57	572	1	114	07:44:58	2886866	0	0	0	0	0	0	0	0	0	0	0	0	0	0	0	0	0
101212	07:44:58	10006	Memory1R6moFr	ScoreFr	5	M1	18933	0	114	07:44:58	2938228	0	0	0	0	0	0	0	0	0	0	0	0	0	0	0	0	0
101212	07:44:58	10006	Memory1R6moFr	ScoreFr	5	M2	215	0	114	07:44:58	2938498	0	0	0	0	0	0	0	0	0	0	0	0	0	0	0	0	0
101212	07:44:58	10006	Memory1R6moFr	ScoreFr	5	M3	301	0	114	07:44:58	2938845	0	0	0	0	0	0	0	0	0	0	0	0	0	0	0	0	0
101212	07:44:58	10006	Memory1R6moFr	ScoreFr	5	M4	275	0	114	07:44:58	2939165	0	0	0	0	0	0	0	0	0	0	0	0	0	0	0	0	0
101212	07:44:58	10006	Memory1R6moFr	ScoreFr	5	M8	1915	0	114	07:44:58	2941124	0	0	0	0	0	0	0	0	0	0	0	0	0	0	0	0	0
101212	07:44:58	10006	Memory1R6moFr	ScoreFr	5	M6	31739	0	114	07:44:58	2972911	0	0	0	0	0	0	0	0	0	0	0	0	0	0	0	0	0
101212	07:44:58	10006	Memory1R6moFr	ScoreFr	5	Done	7335	0	114	07:44:58	2980295	0	0	0	0	0	0	0	0	0	0	0	0	0	0	0	0	0
101212	07:44:58	10006	Memory2R6moFr	ScoreFr2	5	11	19411	0	114	07:44:58	3017905	0	0	0	0	0	0	0	0	0	0	0	0	0	0	0	0	0
101212	07:44:58	10006	Memory2R6moFr	ScoreFr2	5	22	203	0	114	07:44:58	3018160	0	0	0	0	0	0	0	0	0	0	0	0	0	0	0	0	0
101212	07:44:58	10006	Memory2R6moFr	ScoreFr2	5	33	341	0	114	07:44:58	3018546	0	0	0	0	0	0	0	0	0	0	0	0	0	0	0	0	0
101212	07:44:58	10006	Memory2R6moFr	ScoreFr2	5	55	260	0	114	07:44:58	3018852	0	0	0	0	0	0	0	0	0	0	0	0	0	0	0	0	0
101212	07:44:58	10006	Memory2R6moFr	ScoreFr2	5	44	576	0	114	07:44:58	3019479	0	0	0	0	0	0	0	0	0	0	0	0	0	0	0	0	0
101212	07:44:58	10006	Memory2R6moFr	ScoreFr2	5	77	390	0	114	07:44:58	3019918	0	0	0	0	0	0	0	0	0	0	0	0	0	0	0	0	0
101212	07:44:58	10006	Memory2R6moFr	ScoreFr2	5	66	287	0	114	07:44:58	3020252	0	0	0	0	0	0	0	0	0	0	0	0	0	0	0	0	0
101212	07:44:58	10006	Memory2R6moFr	ScoreFr2	5	Done	51924	0	114	07:44:58	3072244	0	0	0	0	0	0	0	0	0	0	0	0	0	0	0	0	0
101212	07:44:58	10006	Memory3R6moFr	ScoreFr3	5	111	15616	0	114	07:44:58	3117746	0	0	0	0	0	0	0	0	0	0	0	0	0	0	0	0	0
101212	07:44:58	10006	Memory3R6moFr	ScoreFr3	5	333	481	0	114	07:44:58	3118279	0	0	0	0	0	0	0	0	0	0	0	0	0	0	0	0	0
101212	07:44:58	10006	Memory3R6moFr	ScoreFr3	5	444	296	0	114	07:44:58	3118638	0	0	0	0	0	0	0	0	0	0	0	0	0	0	0	0	0
101212	07:44:58	10006	Memory3R6moFr	ScoreFr3	5	555	284	0	114	07:44:58	3118972	0	0	0	0	0	0	0	0	0	0	0	0	0	0	0	0	0
101212	07:44:58	10006	Memory3R6moFr	ScoreFr3	5	666	256	0	114	07:44:58	3119278	0	0	0	0	0	0	0	0	0	0	0	0	0	0	0	0	0
101212	07:44:58	10006	Memory3R6moFr	ScoreFr3	5	777	253	0	114	07:44:58	3119585	0	0	0	0	0	0	0	0	0	0	0	0	0	0	0	0	0
101212	07:44:58	10006	Memory3R6moFr	ScoreFr3	5	888	210	0	114	07:44:58	3119851	0	0	0	0	0	0	0	0	0	0	0	0	0	0	0	0	0
101212	07:44:58	10006	Memory3R6moFr	ScoreFr3	5	222	87373	0	114	07:44:58	3207269	0	0	0	0	0	0	0	0	0	0	0	0	0	0	0	0	0
101212	07:44:58	10006	Memory3R6moFr	ScoreFr3	5	Done	619	0	114	07:44:58	3207936	0	0	0	0	0	0	0	0	0	0	0	0	0	0	0	0	0
101212	07:44:58	10006	LoriaFrLH3	Stop	6	2	4497	0	114	07:44:58	3321506	0	0	0	0	0	0	0	0	0	0	0	0	0	0	0	0	0
101212	07:44:58	10006	FrTrail	Trails	7	1Trails	3262	0	114	07:44:58	3360408	0	0	0	0	0	0	0	0	0	0	0	0	0	0	0	0	0
101212	07:44:58	10006	Serial7Fr6mo	Serial7Fr6mo	8	73	32399	0	114	07:44:58	3433266	1	0	0	0	0	0	0	0	0	0	0	0	0	0	0	0	0
101212	07:44:58	10006	Serial7Fr6mo	Serial7Fr6mo	8	64	11499	0	114	07:44:58	3444779	1	0	0	0	0	0	0	0	0	0	0	0	0	0	0	0	0
101212	07:44:58	10006	Serial7Fr6mo	Serial7Fr6mo	8	59	5207	0	114	07:44:58	3450004	1	0	0	0	0	0	0	0	0	0	0	0	0	0	0	0	0
101212	07:44:58	10006	Serial7Fr6mo	Serial7Fr6mo	8	52	3538	0	114	07:44:58	3453563	2	0	0	0	0	0	0	0	0	0	0	0	0	0	0	0	0
101212	07:44:58	10006	Serial7Fr6mo	Serial7Fr6mo	8	44	16321	0	114	07:44:58	3469904	2	0	0	0	0	0	0	0	0	0	0	0	0	0	0	0	0
101212	07:44:58	10006	corsiblockFrFwrd	recallseqFrFwrd	9	3	1810	0	114	07:44:58	3530533	2	0	0	0	0	0	0	0	0	0	0	0	0	0	0	0	0
101212	07:44:58	10006	corsiblockFrFwrd	recallseqFrFwrd	9	1	1092	0	114	07:44:58	3531679	2	0	0	0	0	0	0	0	0	0	0	0	0	0	0	0	0
101212	07:44:58	10006	corsiblockFrFwrd	recallseqFrFwrd	9	doneCorsiFr	8193	0	114	07:44:58	3539929	2	0	0	0	0	0	0	0	0	0	0	0	0	0	0	2	0
101212	07:44:58	10006	corsiblockFrFwrd	recallseqFrFwrd	9	6	1044	0	114	07:44:58	3547113	2	0	0	0	0	0	0	0	0	0	0	0	0	0	0	2	0
101212	07:44:58	10006	corsiblockFrFwrd	recallseqFrFwrd	9	4	1055	0	114	07:44:58	3548219	2	0	0	0	0	0	0	0	0	0	0	0	0	0	0	2	0
101212	07:44:58	10006	corsiblockFrFwrd	recallseqFrFwrd	9	5	861	0	114	07:44:58	3549126	2	0	0	0	0	0	0	0	0	0	0	0	0	0	0	2	0
101212	07:44:58	10006	corsiblockFrFwrd	recallseqFrFwrd	9	doneCorsiFr	1250	0	114	07:44:58	3550432	2	0	0	0	0	0	0	0	0	0	0	0	0	0	0	3	0
101212	07:44:58	10006	corsiblockFrFwrd	recallseqFrFwrd	9	2	779	0	114	07:44:58	3558335	2	0	0	0	0	0	0	0	0	0	0	0	0	0	0	3	0
101212	07:44:58	10006	corsiblockFrFwrd	recallseqFrFwrd	9	7	913	0	114	07:44:58	3559295	2	0	0	0	0	0	0	0	0	0	0	0	0	0	0	3	0
101212	07:44:58	10006	corsiblockFrFwrd	recallseqFrFwrd	9	8	1002	0	114	07:44:58	3560347	2	0	0	0	0	0	0	0	0	0	0	0	0	0	0	3	0
101212	07:44:58	10006	corsiblockFrFwrd	recallseqFrFwrd	9	9	1116	0	114	07:44:58	3561520	2	0	0	0	0	0	0	0	0	0	0	0	0	0	0	3	0
101212	07:44:58	10006	corsiblockFrFwrd	recallseqFrFwrd	9	doneCorsiFr	1479	0	114	07:44:58	3563053	2	0	0	0	0	0	0	0	0	0	0	0	0	0	0	4	0
101212	07:44:58	10006	corsiblockFrFwrd	recallseqFrFwrd	9	5	817	0	114	07:44:58	3572010	2	0	0	0	0	0	0	0	0	0	0	0	0	0	0	4	0
101212	07:44:58	10006	corsiblockFrFwrd	recallseqFrFwrd	9	6	830	0	114	07:44:58	3572889	2	0	0	0	0	0	0	0	0	0	0	0	0	0	0	4	0
101212	07:44:58	10006	corsiblockFrFwrd	recallseqFrFwrd	9	1	870	0	114	07:44:58	3573809	2	0	0	0	0	0	0	0	0	0	0	0	0	0	0	4	0
101212	07:44:58	10006	corsiblockFrFwrd	recallseqFrFwrd	9	9	1359	0	114	07:44:58	3575222	2	0	0	0	0	0	0	0	0	0	0	0	0	0	0	4	0
101212	07:44:58	10006	corsiblockFrFwrd	recallseqFrFwrd	9	doneCorsiFr	7970	0	114	07:44:58	3583245	2	0	0	0	0	0	0	0	0	0	0	0	0	0	0	4	0
101212	07:44:58	10006	corsiblockFrFwrd	recallseqFrFwrd	9	7	1318	0	114	07:44:58	3592655	2	0	0	0	0	0	0	0	0	0	0	0	0	0	0	4	0
101212	07:44:58	10006	corsiblockFrFwrd	recallseqFrFwrd	9	4	840	0	114	07:44:58	3593547	2	0	0	0	0	0	0	0	0	0	0	0	0	0	0	4	0
101212	07:44:58	10006	corsiblockFrFwrd	recallseqFrFwrd	9	3	988	0	114	07:44:58	3594587	2	0	0	0	0	0	0	0	0	0	0	0	0	0	0	4	0
101212	07:44:58	10006	corsiblockFrFwrd	recallseqFrFwrd	9	8	844	0	114	07:44:58	3595480	2	0	0	0	0	0	0	0	0	0	0	0	0	0	0	4	0
101212	07:44:58	10006	corsiblockFrFwrd	recallseqFrFwrd	9	9	840	0	114	07:44:58	3596373	2	0	0	0	0	0	0	0	0	0	0	0	0	0	0	4	0
101212	07:44:58	10006	corsiblockFrFwrd	recallseqFrFwrd	9	doneCorsiFr	1514	0	114	07:44:58	3597933	2	0	0	0	0	0	0	0	0	0	0	0	0	0	0	4	0
101212	07:44:58	10006	corsiblockFrRev	recallseqFrRev	10	9	1392	0	114	07:44:58	3620593	2	0	0	0	0	0	0	0	0	0	0	0	0	0	0	4	0
101212	07:44:58	10006	corsiblockFrRev	recallseqFrRev	10	4	1097	0	114	07:44:58	3621736	2	0	0	0	0	0	0	0	0	0	0	0	0	0	0	4	0
101212	07:44:58	10006	corsiblockFrRev	recallseqFrRev	10	doneCorsiFr	1430	0	114	07:44:58	3623216	2	0	0	0	0	0	0	0	0	0	0	0	0	0	0	4	2
101212	07:44:58	10006	corsiblockFrRev	recallseqFrRev	10	7	2057	0	114	07:44:58	3631399	2	0	0	0	0	0	0	0	0	0	0	0	0	0	0	4	2
101212	07:44:58	10006	corsiblockFrRev	recallseqFrRev	10	8	911	0	114	07:44:58	3632358	2	0	0	0	0	0	0	0	0	0	0	0	0	0	0	4	2
101212	07:44:58	10006	corsiblockFrRev	recallseqFrRev	10	5	958	0	114	07:44:58	3633451	2	0	0	0	0	0	0	0	0	0	0	0	0	0	0	4	2
101212	07:44:58	10006	corsiblockFrRev	recallseqFrRev	10	doneCorsiFr	1219	0	114	07:44:58	3634718	2	0	0	0	0	0	0	0	0	0	0	0	0	0	0	4	3
101212	07:44:58	10006	corsiblockFrRev	recallseqFrRev	10	3	883	0	114	07:44:58	3642728	2	0	0	0	0	0	0	0	0	0	0	0	0	0	0	4	3
101212	07:44:58	10006	corsiblockFrRev	recallseqFrRev	10	6	790	0	114	07:44:58	3643567	2	0	0	0	0	0	0	0	0	0	0	0	0	0	0	4	3
101212	07:44:58	10006	corsiblockFrRev	recallseqFrRev	10	2	966	0	114	07:44:58	3644580	2	0	0	0	0	0	0	0	0	0	0	0	0	0	0	4	3
101212	07:44:58	10006	corsiblockFrRev	recallseqFrRev	10	1	745	0	114	07:44:58	3645380	2	0	0	0	0	0	0	0	0	0	0	0	0	0	0	4	3
101212	07:44:58	10006	corsiblockFrRev	recallseqFrRev	10	doneCorsiFr	1154	0	114	07:44:58	3646579	2	0	0	0	0	0	0	0	0	0	0	0	0	0	0	4	4
101212	07:44:58	10006	corsiblockFrRev	recallseqFrRev	10	3	840	0	114	07:44:58	3655562	2	0	0	0	0	0	0	0	0	0	0	0	0	0	0	4	4
101212	07:44:58	10006	corsiblockFrRev	recallseqFrRev	10	1	843	0	114	07:44:58	3656455	2	0	0	0	0	0	0	0	0	0	0	0	0	0	0	4	4
101212	07:44:58	10006	corsiblockFrRev	recallseqFrRev	10	9	903	0	114	07:44:58	3657415	2	0	0	0	0	0	0	0	0	0	0	0	0	0	0	4	4
101212	07:44:58	10006	corsiblockFrRev	recallseqFrRev	10	5	1087	0	114	07:44:58	3658548	2	0	0	0	0	0	0	0	0	0	0	0	0	0	0	4	4
101212	07:44:58	10006	corsiblockFrRev	recallseqFrRev	10	4	706	0	114	07:44:58	3659308	2	0	0	0	0	0	0	0	0	0	0	0	0	0	0	4	4
101212	07:44:58	10006	corsiblockFrRev	recallseqFrRev	10	doneCorsiFr	1346	0	114	07:44:58	3660707	2	0	0	0	0	0	0	0	0	0	0	0	0	0	0	4	5
101212	07:44:58	10006	corsiblockFrRev	recallseqFrRev	10	5	1049	0	114	07:44:58	3670903	2	0	0	0	0	0	0	0	0	0	0	0	0	0	0	4	5
101212	07:44:58	10006	corsiblockFrRev	recallseqFrRev	10	2	966	0	114	07:44:58	3671916	2	0	0	0	0	0	0	0	0	0	0	0	0	0	0	4	5
101212	07:44:58	10006	corsiblockFrRev	recallseqFrRev	10	8	1481	0	114	07:44:58	3673449	2	0	0	0	0	0	0	0	0	0	0	0	0	0	0	4	5
101212	07:44:58	10006	corsiblockFrRev	recallseqFrRev	10	6	8461	0	114	07:44:58	3681965	2	0	0	0	0	0	0	0	0	0	0	0	0	0	0	4	5
101212	07:44:58	10006	corsiblockFrRev	recallseqFrRev	10	9	1312	0	114	07:44:58	3683325	2	0	0	0	0	0	0	0	0	0	0	0	0	0	0	4	5
101212	07:44:58	10006	corsiblockFrRev	recallseqFrRev	10	5	1656	0	114	07:44:58	3685030	2	0	0	0	0	0	0	0	0	0	0	0	0	0	0	4	5
101212	07:44:58	10006	corsiblockFrRev	recallseqFrRev	10	doneCorsiFr	1359	0	114	07:44:58	3686443	2	0	0	0	0	0	0	0	0	0	0	0	0	0	0	4	5
101212	07:44:58	10006	corsiblockFrRev	recallseqFrRev	10	7	1085	0	114	07:44:58	3696612	2	0	0	0	0	0	0	0	0	0	0	0	0	0	0	4	5
101212	07:44:58	10006	corsiblockFrRev	recallseqFrRev	10	9	808	0	114	07:44:58	3697465	2	0	0	0	0	0	0	0	0	0	0	0	0	0	0	4	5
101212	07:44:58	10006	corsiblockFrRev	recallseqFrRev	10	6	948	0	114	07:44:58	3698465	2	0	0	0	0	0	0	0	0	0	0	0	0	0	0	4	5
101212	07:44:58	10006	corsiblockFrRev	recallseqFrRev	10	4	604	0	114	07:44:58	3699118	2	0	0	0	0	0	0	0	0	0	0	0	0	0	0	4	5
101212	07:44:58	10006	corsiblockFrRev	recallseqFrRev	10	3	734	0	114	07:44:58	3699904	2	0	0	0	0	0	0	0	0	0	0	0	0	0	0	4	5
101212	07:44:58	10006	corsiblockFrRev	recallseqFrRev	10	1	844	0	114	07:44:58	3700797	2	0	0	0	0	0	0	0	0	0	0	0	0	0	0	4	5
101212	07:44:58	10006	corsiblockFrRev	recallseqFrRev	10	doneCorsiFr	1815	0	114	07:44:58	3702663	2	0	0	0	0	0	0	0	0	0	0	0	0	0	0	4	5
101212	07:44:58	10006	testFr6mo	WordsFr6mo	11	7Fr6mo	12982	0	114	07:44:58	3731943	2	0	0	0	0	0	0	3	0	0	0	0	0	0	0	4	5
101212	07:44:58	10006	testFr6mo	WordsFr6mo	11	8Fr6mo	94	0	114	07:44:58	3732105	2	0	0	0	0	0	0	3	3	0	0	0	0	0	0	4	5
101212	07:44:58	10006	testFr6mo	WordsFr6mo	11	4Fr6mo	612	0	114	07:44:58	3732773	2	0	0	0	3	0	0	3	3	0	0	0	0	0	0	4	5
101212	07:44:58	10006	testFr6mo	WordsFr6mo	11	3Fr6mo	209	0	114	07:44:58	3733026	2	0	0	3	3	0	0	3	3	0	0	0	0	0	0	4	5
101212	07:44:58	10006	testFr6mo	WordsFr6mo	11	2Fr6mo	340	0	114	07:44:58	3733411	2	0	3	3	3	0	0	3	3	0	0	0	0	0	0	4	5
101212	07:44:58	10006	testFr6mo	WordsFr6mo	11	1Fr6mo	322	0	114	07:44:58	3733784	2	3	3	3	3	0	0	3	3	0	0	0	0	0	0	4	5
101212	07:44:58	10006	testFr6mo	WordsFr6mo	11	5Fr6mo	4020	0	114	07:44:58	3737849	2	3	3	3	3	3	0	3	3	0	0	0	0	0	0	4	5
101212	07:44:58	10006	testFr6mo	WordsFr6mo	11	DoneFr6mo	57489	0	114	07:44:58	3795386	2	3	3	3	3	3	0	3	3	0	0	0	0	0	0	4	5
101212	07:44:58	10006	testFr6mo	Cat6Fr6mo	11	0	1	0	114	07:44:58	3795531	2	3	3	3	3	3	0	3	3	0	0	0	0	0	0	4	5
101212	07:44:58	10006	testFr6mo	Ch6Fr6mo	11	RR6Fr6mo	4418	0	114	07:44:58	3800182	2	3	3	3	3	3	1	3	3	0	0	0	0	0	0	4	5
101212	07:44:58	10006	DigitSpanFwrdFr6mo	Score1FwrdFr6mo	12	DS1	1699	0	114	07:44:58	3820821	2	3	3	3	3	3	1	3	3	0	0	0	0	0	0	4	5
101212	07:44:58	10006	DigitSpanFwrdFr6mo	Gate1FwrdFr6mo	12	0	1	0	114	07:44:58	3820882	2	3	3	3	3	3	1	3	3	3	0	0	0	0	0	4	5
101212	07:44:58	10006	DigitSpanFwrdFr6mo	Score2FwrdFr6mo	12	DS1	2494	0	114	07:44:58	3829748	2	3	3	3	3	3	1	3	3	3	0	0	0	0	0	4	5
101212	07:44:58	10006	DigitSpanFwrdFr6mo	Gate3FwrdFr6mo	12	0	1	0	114	07:44:58	3829760	2	3	3	3	3	3	1	3	3	4	0	0	0	0	0	4	5
101212	07:44:58	10006	DigitSpanFwrdFr6mo	Score3FwrdFr6mo	12	DS2	5226	0	114	07:44:58	3842312	2	3	3	3	3	3	1	3	3	4	0	0	0	0	0	4	5
101212	07:44:58	10006	DigitSpanFwrdFr6mo	Gate5FwrdFr6mo	12	0	1	0	114	07:44:58	3842318	2	3	3	3	3	3	1	3	3	4	0	0	0	0	0	4	5
101212	07:44:58	10006	DigitSpanFwrdFr6mo	Score33FwrdFr6mo	12	DS2	14118	0	114	07:44:58	3863670	2	3	3	3	3	3	1	3	3	4	0	0	0	0	0	4	5
101212	07:44:58	10006	DigitSpanFr6mo	Score1Fr6mo	13	DS1	2454	0	114	07:44:58	3879807	2	3	3	3	3	3	1	3	3	4	0	0	0	0	0	4	5
101212	07:44:58	10006	DigitSpanFr6mo	Gate1Fr6mo	13	0	1	0	114	07:44:58	3879823	2	3	3	3	3	3	1	3	3	4	2	0	0	0	0	4	5
101212	07:44:58	10006	DigitSpanFr6mo	Score2Fr6mo	13	DS2	3539	0	114	07:44:58	3888203	2	3	3	3	3	3	1	3	3	4	2	0	0	0	0	4	5
101212	07:44:58	10006	DigitSpanFr6mo	Gate3Fr6mo	13	0	1	0	114	07:44:58	3888229	2	3	3	3	3	3	1	3	3	4	2	0	0	0	0	4	5
101212	07:44:58	10006	DigitSpanFr6mo	Score22Fr6mo	13	DS2	3953	0	114	07:44:58	3896453	2	3	3	3	3	3	1	3	3	4	2	0	0	0	0	4	5
101212	07:44:58	10006	Trial	ResponseIL	14	0	175	0	114	07:44:58	3949403	2	3	3	3	3	3	1	3	3	4	2	0	0	0	0	4	5
101212	07:44:58	10006	Trial	IncongruentLeft	14	205	330	0	114	07:44:58	3949750	2	3	3	3	3	3	1	3	3	4	2	0	0	0	0	4	5
101212	07:44:58	10006	Trial	ResponseCR	14	0	175	0	114	07:44:58	3951109	2	3	3	3	3	3	1	3	3	4	2	0	0	0	0	4	5
101212	07:44:58	10006	Trial	CongruentRight	14	205	302	1	114	07:44:58	3951429	2	3	3	3	3	3	1	3	3	4	2	0	0	0	0	4	5
101212	07:44:58	10006	Trial	ResponseIR	14	0	175	0	114	07:44:58	3952816	2	3	3	3	3	3	1	3	3	4	2	0	0	0	0	4	5
101212	07:44:58	10006	Trial	IncongruentRight	14	205	483	1	114	07:44:58	3953322	2	3	3	3	3	3	1	3	3	4	2	0	0	0	0	4	5
101212	07:44:58	10006	Trial	ResponseCL	14	0	175	0	114	07:44:58	3954521	2	3	3	3	3	3	1	3	3	4	2	0	0	0	0	4	5
101212	07:44:58	10006	Trial	CongruentLeft	14	203	249	1	114	07:44:58	3954788	2	3	3	3	3	3	1	3	3	4	2	0	0	0	0	4	5
101212	07:44:58	10006	Trial	ResponseCR	14	0	175	0	114	07:44:58	3956227	2	3	3	3	3	3	1	3	3	4	2	0	0	0	0	4	5
101212	07:44:58	10006	Trial	CongruentRight	14	205	510	1	114	07:44:58	3956760	2	3	3	3	3	3	1	3	3	4	2	0	0	0	0	4	5
101212	07:44:58	10006	Trial	ResponseIR	14	0	175	0	114	07:44:58	3957934	2	3	3	3	3	3	1	3	3	4	2	0	0	0	0	4	5
101212	07:44:58	10006	Trial	IncongruentRight	14	203	197	0	114	07:44:58	3958160	2	3	3	3	3	3	1	3	3	4	2	0	0	0	0	4	5
101212	07:44:58	10006	Trial	ResponseCL	14	0	175	0	114	07:44:58	3959639	2	3	3	3	3	3	1	3	3	4	2	0	0	0	0	4	5
101212	07:44:58	10006	Trial	CongruentLeft	14	205	235	0	114	07:44:58	3959892	2	3	3	3	3	3	1	3	3	4	2	0	0	0	0	4	5
101212	07:44:58	10006	Trial	ResponseIL	14	0	175	0	114	07:44:58	3961345	2	3	3	3	3	3	1	3	3	4	2	0	0	0	0	4	5
101212	07:44:58	10006	Trial	IncongruentLeft	14	0	1000	0	114	07:44:58	3962358	2	3	3	3	3	3	1	3	3	4	2	0	0	0	0	4	5
101212	07:44:58	10006	Trial	ResponseIL	14	0	175	0	114	07:44:58	3963065	2	3	3	3	3	3	1	3	3	4	2	0	0	0	0	4	5
101212	07:44:58	10006	Trial	IncongruentLeft	14	205	138	0	114	07:44:58	3963224	2	3	3	3	3	3	1	3	3	4	2	0	0	0	0	4	5
101212	07:44:58	10006	Trial	ResponseCR	14	0	175	0	114	07:44:58	3964770	2	3	3	3	3	3	1	3	3	4	2	0	0	0	0	4	5
101212	07:44:58	10006	Trial	CongruentRight	14	205	288	1	114	07:44:58	3965077	2	3	3	3	3	3	1	3	3	4	2	0	0	0	0	4	5
101212	07:44:58	10006	Trial	ResponseIR	14	0	175	0	114	07:44:58	3966477	2	3	3	3	3	3	1	3	3	4	2	0	0	0	0	4	5
101212	07:44:58	10006	Trial	IncongruentRight	14	205	438	1	114	07:44:58	3966943	2	3	3	3	3	3	1	3	3	4	2	0	0	0	0	4	5
101212	07:44:58	10006	Trial	ResponseCL	14	0	175	0	114	07:44:58	3968182	2	3	3	3	3	3	1	3	3	4	2	0	0	0	0	4	5
101212	07:44:58	10006	Trial	CongruentLeft	14	203	220	1	114	07:44:58	3968422	2	3	3	3	3	3	1	3	3	4	2	0	0	0	0	4	5
101212	07:44:58	10006	Trial	ResponseCR	14	0	175	0	114	07:44:58	3969889	2	3	3	3	3	3	1	3	3	4	2	0	0	0	0	4	5
101212	07:44:58	10006	Trial	CongruentRight	14	205	194	1	114	07:44:58	3970102	2	3	3	3	3	3	1	3	3	4	2	0	0	0	0	4	5
101212	07:44:58	10006	Trial	ResponseIL	14	0	175	0	114	07:44:58	3971594	2	3	3	3	3	3	1	3	3	4	2	0	0	0	0	4	5
101212	07:44:58	10006	Trial	IncongruentLeft	14	203	264	1	114	07:44:58	3971888	2	3	3	3	3	3	1	3	3	4	2	0	0	0	0	4	5
101212	07:44:58	10006	Trial	ResponseIR	14	0	175	0	114	07:44:58	3973300	2	3	3	3	3	3	1	3	3	4	2	0	0	0	0	4	5
101212	07:44:58	10006	Trial	IncongruentRight	14	205	190	1	114	07:44:58	3973514	2	3	3	3	3	3	1	3	3	4	2	0	0	0	0	4	5
101212	07:44:58	10006	Trial	ResponseCR	14	0	175	0	114	07:44:58	3975006	2	3	3	3	3	3	1	3	3	4	2	0	0	0	0	4	5
101212	07:44:58	10006	Trial	CongruentRight	14	205	212	1	114	07:44:58	3975246	2	3	3	3	3	3	1	3	3	4	2	0	0	0	0	4	5
101212	07:44:58	10006	Trial	ResponseCL	14	0	175	0	114	07:44:58	3976712	2	3	3	3	3	3	1	3	3	4	2	0	0	0	0	4	5
101212	07:44:58	10006	Trial	CongruentLeft	14	203	218	1	114	07:44:58	3976952	2	3	3	3	3	3	1	3	3	4	2	0	0	0	0	4	5
101212	07:44:58	10006	Trial	ResponseCR	14	0	175	0	114	07:44:58	3978418	2	3	3	3	3	3	1	3	3	4	2	0	0	0	0	4	5
101212	07:44:58	10006	Trial	CongruentRight	14	205	192	1	114	07:44:58	3978631	2	3	3	3	3	3	1	3	3	4	2	0	0	0	0	4	5
101212	07:44:58	10006	Trial	ResponseIR	14	0	175	0	114	07:44:58	3980124	2	3	3	3	3	3	1	3	3	4	2	0	0	0	0	4	5
101212	07:44:58	10006	Trial	IncongruentRight	14	205	377	1	114	07:44:58	3980538	2	3	3	3	3	3	1	3	3	4	2	0	0	0	0	4	5
101212	07:44:58	10006	Trial	ResponseIL	14	0	175	0	114	07:44:58	3981844	2	3	3	3	3	3	1	3	3	4	2	0	0	0	0	4	5
101212	07:44:58	10006	Trial	IncongruentLeft	14	205	254	0	114	07:44:58	3982123	2	3	3	3	3	3	1	3	3	4	2	0	0	0	0	4	5
101212	07:44:58	10006	Trial	ResponseIL	14	0	175	0	114	07:44:58	3983550	2	3	3	3	3	3	1	3	3	4	2	0	0	0	0	4	5
101212	07:44:58	10006	Trial	IncongruentLeft	14	205	277	0	114	07:44:58	3983843	2	3	3	3	3	3	1	3	3	4	2	0	0	0	0	4	5
101212	07:44:58	10006	Trial	ResponseCL	14	0	175	0	114	07:44:58	3985256	2	3	3	3	3	3	1	3	3	4	2	0	0	0	0	4	5
101212	07:44:58	10006	Trial	CongruentLeft	14	203	378	1	114	07:44:58	3985655	2	3	3	3	3	3	1	3	3	4	2	0	0	0	0	4	5
101212	07:44:58	10006	Trial	ResponseCR	14	0	175	0	114	07:44:58	3986962	2	3	3	3	3	3	1	3	3	4	2	0	0	0	0	4	5
101212	07:44:58	10006	Trial	CongruentRight	14	205	192	1	114	07:44:58	3987175	2	3	3	3	3	3	1	3	3	4	2	0	0	0	0	4	5
101212	07:44:58	10006	Trial	ResponseIL	14	0	175	0	114	07:44:58	3988668	2	3	3	3	3	3	1	3	3	4	2	0	0	0	0	4	5
101212	07:44:58	10006	Trial	IncongruentLeft	14	203	310	1	114	07:44:58	3989001	2	3	3	3	3	3	1	3	3	4	2	0	0	0	0	4	5
101212	07:44:58	10006	Trial	ResponseIR	14	0	175	0	114	07:44:58	3990374	2	3	3	3	3	3	1	3	3	4	2	0	0	0	0	4	5
101212	07:44:58	10006	Trial	IncongruentRight	14	205	252	1	114	07:44:58	3990653	2	3	3	3	3	3	1	3	3	4	2	0	0	0	0	4	5
101212	07:44:58	10006	Trial	ResponseCR	14	0	175	0	114	07:44:58	3992080	2	3	3	3	3	3	1	3	3	4	2	0	0	0	0	4	5
101212	07:44:58	10006	Trial	CongruentRight	14	205	291	1	114	07:44:58	3992400	2	3	3	3	3	3	1	3	3	4	2	0	0	0	0	4	5
101212	07:44:58	10006	Trial	ResponseCL	14	0	175	0	114	07:44:58	3993786	2	3	3	3	3	3	1	3	3	4	2	0	0	0	0	4	5
101212	07:44:58	10006	Trial	CongruentLeft	14	203	201	1	114	07:44:58	3994012	2	3	3	3	3	3	1	3	3	4	2	0	0	0	0	4	5
101212	07:44:58	10006	Trial	ResponseIR	14	0	175	0	114	07:44:58	3995491	2	3	3	3	3	3	1	3	3	4	2	0	0	0	0	4	5
101212	07:44:58	10006	Trial	IncongruentRight	14	205	334	1	114	07:44:58	3995851	2	3	3	3	3	3	1	3	3	4	2	0	0	0	0	4	5
101212	07:44:58	10006	Trial	ResponseIL	14	0	175	0	114	07:44:58	3997198	2	3	3	3	3	3	1	3	3	4	2	0	0	0	0	4	5
101212	07:44:58	10006	Trial	IncongruentLeft	14	203	356	1	114	07:44:58	3997570	2	3	3	3	3	3	1	3	3	4	2	0	0	0	0	4	5
101212	07:44:58	10006	Trial	ResponseIR	14	0	175	0	114	07:44:58	3998903	2	3	3	3	3	3	1	3	3	4	2	0	0	0	0	4	5
101212	07:44:58	10006	Trial	IncongruentRight	14	205	203	1	114	07:44:58	3999130	2	3	3	3	3	3	1	3	3	4	2	0	0	0	0	4	5
101212	07:44:58	10006	Trial	ResponseCR	14	0	175	0	114	07:44:58	4000609	2	3	3	3	3	3	1	3	3	4	2	0	0	0	0	4	5
101212	07:44:58	10006	Trial	CongruentRight	14	205	288	1	114	07:44:58	4000916	2	3	3	3	3	3	1	3	3	4	2	0	0	0	0	4	5
101212	07:44:58	10006	Trial	ResponseIL	14	0	175	0	114	07:44:58	4002315	2	3	3	3	3	3	1	3	3	4	2	0	0	0	0	4	5
101212	07:44:58	10006	Trial	IncongruentLeft	14	203	327	1	114	07:44:58	4002662	2	3	3	3	3	3	1	3	3	4	2	0	0	0	0	4	5
101212	07:44:58	10006	Trial	ResponseCL	14	0	175	0	114	07:44:58	4004022	2	3	3	3	3	3	1	3	3	4	2	0	0	0	0	4	5
101212	07:44:58	10006	Trial	CongruentLeft	14	203	332	1	114	07:44:58	4004381	2	3	3	3	3	3	1	3	3	4	2	0	0	0	0	4	5
101212	07:44:58	10006	Trial	ResponseCR	14	0	175	0	114	07:44:58	4005727	2	3	3	3	3	3	1	3	3	4	2	0	0	0	0	4	5
101212	07:44:58	10006	Trial	CongruentRight	14	205	178	1	114	07:44:58	4005927	2	3	3	3	3	3	1	3	3	4	2	0	0	0	0	4	5
101212	07:44:58	10006	Trial	ResponseIL	14	0	175	0	114	07:44:58	4007433	2	3	3	3	3	3	1	3	3	4	2	0	0	0	0	4	5
101212	07:44:58	10006	Trial	IncongruentLeft	14	203	312	1	114	07:44:58	4007767	2	3	3	3	3	3	1	3	3	4	2	0	0	0	0	4	5
101212	07:44:58	10006	Trial	ResponseIR	14	0	175	0	114	07:44:58	4009139	2	3	3	3	3	3	1	3	3	4	2	0	0	0	0	4	5
101212	07:44:58	10006	Trial	IncongruentRight	14	205	236	1	114	07:44:58	4009406	2	3	3	3	3	3	1	3	3	4	2	0	0	0	0	4	5
101212	07:44:58	10006	Trial	ResponseIR	14	0	175	0	114	07:44:58	4010845	2	3	3	3	3	3	1	3	3	4	2	0	0	0	0	4	5
101212	07:44:58	10006	Trial	IncongruentRight	14	205	260	1	114	07:44:58	4011125	2	3	3	3	3	3	1	3	3	4	2	0	0	0	0	4	5
101212	07:44:58	10006	Trial	ResponseCL	14	0	175	0	114	07:44:58	4012551	2	3	3	3	3	3	1	3	3	4	2	0	0	0	0	4	5
101212	07:44:58	10006	Trial	CongruentLeft	14	203	234	1	114	07:44:58	4012804	2	3	3	3	3	3	1	3	3	4	2	0	0	0	0	4	5
101212	07:44:58	10006	Trial	ResponseIL	14	0	175	0	114	07:44:58	4014258	2	3	3	3	3	3	1	3	3	4	2	0	0	0	0	4	5
101212	07:44:58	10006	Trial	IncongruentLeft	14	205	176	0	114	07:44:58	4014457	2	3	3	3	3	3	1	3	3	4	2	0	0	0	0	4	5
101212	07:44:58	10006	Trial	ResponseCR	14	0	175	0	114	07:44:58	4015977	2	3	3	3	3	3	1	3	3	4	2	0	0	0	0	4	5
101212	07:44:58	10006	Trial	CongruentRight	14	205	217	1	114	07:44:58	4016216	2	3	3	3	3	3	1	3	3	4	2	0	0	0	0	4	5
101212	07:44:58	10006	Trial	ResponseCL	14	0	175	0	114	07:44:58	4017683	2	3	3	3	3	3	1	3	3	4	2	0	0	0	0	4	5
101212	07:44:58	10006	Trial	CongruentLeft	14	203	191	1	114	07:44:58	4017896	2	3	3	3	3	3	1	3	3	4	2	0	0	0	0	4	5
101212	07:44:58	10006	Trial	ResponseIR	14	0	175	0	114	07:44:58	4019389	2	3	3	3	3	3	1	3	3	4	2	0	0	0	0	4	5
101212	07:44:58	10006	Trial	IncongruentRight	14	205	261	1	114	07:44:58	4019701	2	3	3	3	3	3	1	3	3	4	2	0	0	0	0	4	5
101212	07:44:58	10006	Trial	ResponseCR	14	0	175	0	114	07:44:58	4021095	2	3	3	3	3	3	1	3	3	4	2	0	0	0	0	4	5
101212	07:44:58	10006	Trial	CongruentRight	14	205	314	1	114	07:44:58	4021428	2	3	3	3	3	3	1	3	3	4	2	0	0	0	0	4	5
101212	07:44:58	10006	Trial	ResponseIL	14	0	175	0	114	07:44:58	4022801	2	3	3	3	3	3	1	3	3	4	2	0	0	0	0	4	5
101212	07:44:58	10006	Trial	IncongruentLeft	14	203	193	1	114	07:44:58	4023014	2	3	3	3	3	3	1	3	3	4	2	0	0	0	0	4	5
101212	07:44:58	10006	Trial	ResponseCL	14	0	175	0	114	07:44:58	4024506	2	3	3	3	3	3	1	3	3	4	2	0	0	0	0	4	5
101212	07:44:58	10006	Trial	CongruentLeft	14	203	295	1	114	07:44:58	4024826	2	3	3	3	3	3	1	3	3	4	2	0	0	0	0	4	5
101212	07:44:58	10006	Trial	ResponseIL	14	0	175	0	114	07:44:58	4026226	2	3	3	3	3	3	1	3	3	4	2	0	0	0	0	4	5
101212	07:44:58	10006	Trial	IncongruentLeft	14	203	335	1	114	07:44:58	4026586	2	3	3	3	3	3	1	3	3	4	2	0	0	0	0	4	5
101212	07:44:58	10006	Trial	ResponseIR	14	0	175	0	114	07:44:58	4027932	2	3	3	3	3	3	1	3	3	4	2	0	0	0	0	4	5
101212	07:44:58	10006	Trial	IncongruentRight	14	205	261	1	114	07:44:58	4028212	2	3	3	3	3	3	1	3	3	4	2	0	0	0	0	4	5
101212	07:44:58	10006	Trial	ResponseCR	14	0	175	0	114	07:44:58	4029638	2	3	3	3	3	3	1	3	3	4	2	0	0	0	0	4	5
101212	07:44:58	10006	Trial	CongruentRight	14	205	236	1	114	07:44:58	4029891	2	3	3	3	3	3	1	3	3	4	2	0	0	0	0	4	5
101212	07:44:58	10006	Trial	ResponseCL	14	0	175	0	114	07:44:58	4031344	2	3	3	3	3	3	1	3	3	4	2	0	0	0	0	4	5
101212	07:44:58	10006	Trial	CongruentLeft	14	203	225	1	114	07:44:58	4031597	2	3	3	3	3	3	1	3	3	4	2	0	0	0	0	4	5
101212	07:44:58	10006	Trial	ResponseCL	14	0	175	0	114	07:44:58	4033050	2	3	3	3	3	3	1	3	3	4	2	0	0	0	0	4	5
101212	07:44:58	10006	Trial	CongruentLeft	14	203	264	1	114	07:44:58	4033329	2	3	3	3	3	3	1	3	3	4	2	0	0	0	0	4	5
101212	07:44:58	10006	Trial	ResponseIR	14	0	175	0	114	07:44:58	4034756	2	3	3	3	3	3	1	3	3	4	2	0	0	0	0	4	5
101212	07:44:58	10006	Trial	IncongruentRight	14	205	317	1	114	07:44:58	4035102	2	3	3	3	3	3	1	3	3	4	2	0	0	0	0	4	5
101212	07:44:58	10006	Trial	ResponseIL	14	0	175	0	114	07:44:58	4036462	2	3	3	3	3	3	1	3	3	4	2	0	0	0	0	4	5
101212	07:44:58	10006	Trial	IncongruentLeft	14	203	307	1	114	07:44:58	4036795	2	3	3	3	3	3	1	3	3	4	2	0	0	0	0	4	5
101212	07:44:58	10006	Trial	ResponseIR	14	0	175	0	114	07:44:58	4038168	2	3	3	3	3	3	1	3	3	4	2	0	0	0	0	4	5
101212	07:44:58	10006	Trial	IncongruentRight	14	205	202	1	114	07:44:58	4038394	2	3	3	3	3	3	1	3	3	4	2	0	0	0	0	4	5
101212	07:44:58	10006	Trial	ResponseCR	14	0	175	0	114	07:44:58	4039874	2	3	3	3	3	3	1	3	3	4	2	0	0	0	0	4	5
101212	07:44:58	10006	Trial	CongruentRight	14	205	351	1	114	07:44:58	4040247	2	3	3	3	3	3	1	3	3	4	2	0	0	0	0	4	5
101212	07:44:58	10006	Trial	ResponseCR	14	0	175	0	114	07:44:58	4041580	2	3	3	3	3	3	1	3	3	4	2	0	0	0	0	4	5
101212	07:44:58	10006	Trial	CongruentRight	14	205	261	1	114	07:44:58	4041859	2	3	3	3	3	3	1	3	3	4	2	0	0	0	0	4	5
101212	07:44:58	10006	Trial	ResponseIL	14	0	175	0	114	07:44:58	4043286	2	3	3	3	3	3	1	3	3	4	2	0	0	0	0	4	5
101212	07:44:58	10006	Trial	IncongruentLeft	14	203	443	1	114	07:44:58	4043752	2	3	3	3	3	3	1	3	3	4	2	0	0	0	0	4	5
101212	07:44:58	10006	Trial	ResponseCL	14	0	175	0	114	07:44:58	4044992	2	3	3	3	3	3	1	3	3	4	2	0	0	0	0	4	5
101212	07:44:58	10006	Trial	CongruentLeft	14	203	465	1	114	07:44:58	4045485	2	3	3	3	3	3	1	3	3	4	2	0	0	0	0	4	5
101212	07:44:58	10006	Trial	ResponseCR	14	0	175	0	114	07:44:58	4046698	2	3	3	3	3	3	1	3	3	4	2	0	0	0	0	4	5
101212	07:44:58	10006	Trial	CongruentRight	14	205	279	1	114	07:44:58	4047004	2	3	3	3	3	3	1	3	3	4	2	0	0	0	0	4	5
101212	07:44:58	10006	Trial	ResponseCL	14	0	175	0	114	07:44:58	4048403	2	3	3	3	3	3	1	3	3	4	2	0	0	0	0	4	5
101212	07:44:58	10006	Trial	CongruentLeft	14	203	189	1	114	07:44:58	4048617	2	3	3	3	3	3	1	3	3	4	2	0	0	0	0	4	5
101212	07:44:58	10006	Trial	ResponseIR	14	0	175	0	114	07:44:58	4050109	2	3	3	3	3	3	1	3	3	4	2	0	0	0	0	4	5
101212	07:44:58	10006	Trial	IncongruentRight	14	205	179	1	114	07:44:58	4050309	2	3	3	3	3	3	1	3	3	4	2	0	0	0	0	4	5
101212	07:44:58	10006	Trial	ResponseCR	14	0	175	0	114	07:44:58	4051816	2	3	3	3	3	3	1	3	3	4	2	0	0	0	0	4	5
101212	07:44:58	10006	Trial	CongruentRight	14	205	296	1	114	07:44:58	4052135	2	3	3	3	3	3	1	3	3	4	2	0	0	0	0	4	5
101212	07:44:58	10006	Trial	ResponseCL	14	0	175	0	114	07:44:58	4053521	2	3	3	3	3	3	1	3	3	4	2	0	0	0	0	4	5
101212	07:44:58	10006	Trial	CongruentLeft	14	203	174	1	114	07:44:58	4053721	2	3	3	3	3	3	1	3	3	4	2	0	0	0	0	4	5
101212	07:44:58	10006	Trial	ResponseIL	14	0	175	0	114	07:44:58	4055228	2	3	3	3	3	3	1	3	3	4	2	0	0	0	0	4	5
101212	07:44:58	10006	Trial	IncongruentLeft	14	203	421	1	114	07:44:58	4055667	2	3	3	3	3	3	1	3	3	4	2	0	0	0	0	4	5
101212	07:44:58	10006	Trial	ResponseIL	14	0	175	0	114	07:44:58	4056933	2	3	3	3	3	3	1	3	3	4	2	0	0	0	0	4	5
101212	07:44:58	10006	Trial	IncongruentLeft	14	203	395	1	114	07:44:58	4057346	2	3	3	3	3	3	1	3	3	4	2	0	0	0	0	4	5
101212	07:44:58	10006	Trial	ResponseCR	14	0	175	0	114	07:44:58	4058639	2	3	3	3	3	3	1	3	3	4	2	0	0	0	0	4	5
101212	07:44:58	10006	Trial	CongruentRight	14	205	161	1	114	07:44:58	4058826	2	3	3	3	3	3	1	3	3	4	2	0	0	0	0	4	5
101212	07:44:58	10006	Trial	ResponseIR	14	0	175	0	114	07:44:58	4060345	2	3	3	3	3	3	1	3	3	4	2	0	0	0	0	4	5
101212	07:44:58	10006	Trial	IncongruentRight	14	205	343	1	114	07:44:58	4060705	2	3	3	3	3	3	1	3	3	4	2	0	0	0	0	4	5
101212	07:44:58	10006	Trial	ResponseCL	14	0	175	0	114	07:44:58	4062051	2	3	3	3	3	3	1	3	3	4	2	0	0	0	0	4	5
101212	07:44:58	10006	Trial	CongruentLeft	14	203	205	1	114	07:44:58	4062278	2	3	3	3	3	3	1	3	3	4	2	0	0	0	0	4	5
101212	07:44:58	10006	Trial	ResponseIR	14	0	175	0	114	07:44:58	4063757	2	3	3	3	3	3	1	3	3	4	2	0	0	0	0	4	5
101212	07:44:58	10006	Trial	IncongruentRight	14	205	246	1	114	07:44:58	4064024	2	3	3	3	3	3	1	3	3	4	2	0	0	0	0	4	5
101212	07:44:58	10006	Trial	ResponseCR	14	0	175	0	114	07:44:58	4065463	2	3	3	3	3	3	1	3	3	4	2	0	0	0	0	4	5
101212	07:44:58	10006	Trial	CongruentRight	14	205	248	1	114	07:44:58	4065730	2	3	3	3	3	3	1	3	3	4	2	0	0	0	0	4	5
101212	07:44:58	10006	Trial	ResponseIL	14	0	175	0	114	07:44:58	4067169	2	3	3	3	3	3	1	3	3	4	2	0	0	0	0	4	5
101212	07:44:58	10006	Trial	IncongruentLeft	14	203	319	1	114	07:44:58	4067516	2	3	3	3	3	3	1	3	3	4	2	0	0	0	0	4	5
101212	07:44:58	10006	Trial	ResponseCL	14	0	175	0	114	07:44:58	4068875	2	3	3	3	3	3	1	3	3	4	2	0	0	0	0	4	5
101212	07:44:58	10006	Trial	CongruentLeft	14	203	341	1	114	07:44:58	4069235	2	3	3	3	3	3	1	3	3	4	2	0	0	0	0	4	5
101212	07:44:58	10006	Trial	ResponseCR	14	0	175	0	114	07:44:58	4070581	2	3	3	3	3	3	1	3	3	4	2	0	0	0	0	4	5
101212	07:44:58	10006	Trial	CongruentRight	14	205	203	1	114	07:44:58	4070808	2	3	3	3	3	3	1	3	3	4	2	0	0	0	0	4	5
101212	07:44:58	10006	Trial	ResponseIL	14	0	175	0	114	07:44:58	4072301	2	3	3	3	3	3	1	3	3	4	2	0	0	0	0	4	5
101212	07:44:58	10006	Trial	IncongruentLeft	14	203	227	1	114	07:44:58	4072554	2	3	3	3	3	3	1	3	3	4	2	0	0	0	0	4	5
101212	07:44:58	10006	Trial	ResponseCR	14	0	175	0	114	07:44:58	4074007	2	3	3	3	3	3	1	3	3	4	2	0	0	0	0	4	5
101212	07:44:58	10006	Trial	CongruentRight	14	205	266	1	114	07:44:58	4074300	2	3	3	3	3	3	1	3	3	4	2	0	0	0	0	4	5
101212	07:44:58	10006	Trial	ResponseCR	14	0	175	0	114	07:44:58	4075713	2	3	3	3	3	3	1	3	3	4	2	0	0	0	0	4	5
101212	07:44:58	10006	Trial	CongruentRight	14	205	312	1	114	07:44:58	4076046	2	3	3	3	3	3	1	3	3	4	2	0	0	0	0	4	5
101212	07:44:58	10006	Trial	ResponseIR	14	0	175	0	114	07:44:58	4077419	2	3	3	3	3	3	1	3	3	4	2	0	0	0	0	4	5
101212	07:44:58	10006	Trial	IncongruentRight	14	205	406	1	114	07:44:58	4077845	2	3	3	3	3	3	1	3	3	4	2	0	0	0	0	4	5
101212	07:44:58	10006	Trial	ResponseCL	14	0	175	0	114	07:44:58	4079125	2	3	3	3	3	3	1	3	3	4	2	0	0	0	0	4	5
101212	07:44:58	10006	Trial	CongruentLeft	14	203	172	1	114	07:44:58	4079324	2	3	3	3	3	3	1	3	3	4	2	0	0	0	0	4	5
101212	07:44:58	10006	Trial	ResponseIL	14	0	175	0	114	07:44:58	4080831	2	3	3	3	3	3	1	3	3	4	2	0	0	0	0	4	5
101212	07:44:58	10006	Trial	IncongruentLeft	14	203	498	1	114	07:44:58	4081350	2	3	3	3	3	3	1	3	3	4	2	0	0	0	0	4	5
101212	07:44:58	10006	Trial	ResponseCL	14	0	175	0	114	07:44:58	4082536	2	3	3	3	3	3	1	3	3	4	2	0	0	0	0	4	5
101212	07:44:58	10006	Trial	CongruentLeft	14	203	264	1	114	07:44:58	4082816	2	3	3	3	3	3	1	3	3	4	2	0	0	0	0	4	5
101212	07:44:58	10006	Trial	ResponseIR	14	0	175	0	114	07:44:58	4084242	2	3	3	3	3	3	1	3	3	4	2	0	0	0	0	4	5
101212	07:44:58	10006	Trial	IncongruentRight	14	203	238	0	114	07:44:58	4084509	2	3	3	3	3	3	1	3	3	4	2	0	0	0	0	4	5
101212	07:44:58	10006	Trial	ResponseIL	14	0	175	0	114	07:44:58	4085948	2	3	3	3	3	3	1	3	3	4	2	0	0	0	0	4	5
101212	07:44:58	10006	Trial	IncongruentLeft	14	203	275	1	114	07:44:58	4086241	2	3	3	3	3	3	1	3	3	4	2	0	0	0	0	4	5
101212	07:44:58	10006	Trial	ResponseCR	14	0	175	0	114	07:44:58	4087654	2	3	3	3	3	3	1	3	3	4	2	0	0	0	0	4	5
101212	07:44:58	10006	Trial	CongruentRight	14	205	154	1	114	07:44:58	4087828	2	3	3	3	3	3	1	3	3	4	2	0	0	0	0	4	5
101212	07:44:58	10006	Trial	ResponseCL	14	0	175	0	114	07:44:58	4089361	2	3	3	3	3	3	1	3	3	4	2	0	0	0	0	4	5
101212	07:44:58	10006	Trial	CongruentLeft	14	203	191	1	114	07:44:58	4089574	2	3	3	3	3	3	1	3	3	4	2	0	0	0	0	4	5
101212	07:44:58	10006	Trial	ResponseIL	14	0	175	0	114	07:44:58	4091066	2	3	3	3	3	3	1	3	3	4	2	0	0	0	0	4	5
101212	07:44:58	10006	Trial	IncongruentLeft	14	203	358	1	114	07:44:58	4091453	2	3	3	3	3	3	1	3	3	4	2	0	0	0	0	4	5
101212	07:44:58	10006	Trial	ResponseCL	14	0	175	0	114	07:44:58	4092772	2	3	3	3	3	3	1	3	3	4	2	0	0	0	0	4	5
101212	07:44:58	10006	Trial	CongruentLeft	14	203	219	1	114	07:44:58	4093012	2	3	3	3	3	3	1	3	3	4	2	0	0	0	0	4	5
101212	07:44:58	10006	Trial	ResponseIR	14	0	175	0	114	07:44:58	4094478	2	3	3	3	3	3	1	3	3	4	2	0	0	0	0	4	5
101212	07:44:58	10006	Trial	IncongruentRight	14	205	289	1	114	07:44:58	4094785	2	3	3	3	3	3	1	3	3	4	2	0	0	0	0	4	5
101212	07:44:58	10006	Trial	ResponseCR	14	0	175	0	114	07:44:58	4096184	2	3	3	3	3	3	1	3	3	4	2	0	0	0	0	4	5
101212	07:44:58	10006	Trial	CongruentRight	14	205	248	1	114	07:44:58	4096451	2	3	3	3	3	3	1	3	3	4	2	0	0	0	0	4	5
101212	07:44:58	10006	Trial	ResponseIL	14	0	175	0	114	07:44:58	4097890	2	3	3	3	3	3	1	3	3	4	2	0	0	0	0	4	5
101212	07:44:58	10006	Trial	IncongruentLeft	14	203	253	1	114	07:44:58	4098170	2	3	3	3	3	3	1	3	3	4	2	0	0	0	0	4	5
101212	07:44:58	10006	Trial	ResponseCL	14	0	175	0	114	07:44:58	4099596	2	3	3	3	3	3	1	3	3	4	2	0	0	0	0	4	5
101212	07:44:58	10006	Trial	CongruentLeft	14	203	243	1	114	07:44:58	4099863	2	3	3	3	3	3	1	3	3	4	2	0	0	0	0	4	5
101212	07:44:58	10006	Trial	ResponseIR	14	0	175	0	114	07:44:58	4101302	2	3	3	3	3	3	1	3	3	4	2	0	0	0	0	4	5
101212	07:44:58	10006	Trial	IncongruentRight	14	205	281	1	114	07:44:58	4101608	2	3	3	3	3	3	1	3	3	4	2	0	0	0	0	4	5
101212	07:44:58	10006	Trial	ResponseIL	14	0	175	0	114	07:44:58	4103008	2	3	3	3	3	3	1	3	3	4	2	0	0	0	0	4	5
101212	07:44:58	10006	Trial	IncongruentLeft	14	203	238	1	114	07:44:58	4103275	2	3	3	3	3	3	1	3	3	4	2	0	0	0	0	4	5
101212	07:44:58	10006	Trial	ResponseCL	14	0	175	0	114	07:44:58	4104714	2	3	3	3	3	3	1	3	3	4	2	0	0	0	0	4	5
101212	07:44:58	10006	Trial	CongruentLeft	14	203	229	1	114	07:44:58	4104967	2	3	3	3	3	3	1	3	3	4	2	0	0	0	0	4	5
101212	07:44:58	10006	Trial	ResponseIL	14	0	175	0	114	07:44:58	4106420	2	3	3	3	3	3	1	3	3	4	2	0	0	0	0	4	5
101212	07:44:58	10006	Trial	IncongruentLeft	14	203	315	1	114	07:44:58	4106753	2	3	3	3	3	3	1	3	3	4	2	0	0	0	0	4	5
101212	07:44:58	10006	Trial	ResponseCR	14	0	175	0	114	07:44:58	4108126	2	3	3	3	3	3	1	3	3	4	2	0	0	0	0	4	5
101212	07:44:58	10006	Trial	CongruentRight	14	205	209	1	114	07:44:58	4108353	2	3	3	3	3	3	1	3	3	4	2	0	0	0	0	4	5
101212	07:44:58	10006	Trial	ResponseCL	14	0	175	0	114	07:44:58	4109832	2	3	3	3	3	3	1	3	3	4	2	0	0	0	0	4	5
101212	07:44:58	10006	Trial	CongruentLeft	14	203	231	1	114	07:44:58	4110085	2	3	3	3	3	3	1	3	3	4	2	0	0	0	0	4	5
101212	07:44:58	10006	Trial	ResponseIR	14	0	175	0	114	07:44:58	4111538	2	3	3	3	3	3	1	3	3	4	2	0	0	0	0	4	5
101212	07:44:58	10006	Trial	IncongruentRight	14	205	237	1	114	07:44:58	4111805	2	3	3	3	3	3	1	3	3	4	2	0	0	0	0	4	5
101212	07:44:58	10006	Trial	ResponseCL	14	0	175	0	114	07:44:58	4113244	2	3	3	3	3	3	1	3	3	4	2	0	0	0	0	4	5
101212	07:44:58	10006	Trial	CongruentLeft	14	203	179	1	114	07:44:58	4113444	2	3	3	3	3	3	1	3	3	4	2	0	0	0	0	4	5
101212	07:44:58	10006	Trial	ResponseCR	14	0	175	0	114	07:44:58	4114950	2	3	3	3	3	3	1	3	3	4	2	0	0	0	0	4	5
101212	07:44:58	10006	Trial	CongruentRight	14	205	169	1	114	07:44:58	4115137	2	3	3	3	3	3	1	3	3	4	2	0	0	0	0	4	5
101212	07:44:58	10006	Trial	ResponseIL	14	0	175	0	114	07:44:58	4116656	2	3	3	3	3	3	1	3	3	4	2	0	0	0	0	4	5
101212	07:44:58	10006	Trial	IncongruentLeft	14	203	239	1	114	07:44:58	4116923	2	3	3	3	3	3	1	3	3	4	2	0	0	0	0	4	5
101212	07:44:58	10006	WordsAbsFr6mo	PAbsFr6mo1	16	Abs1	6609	0	114	07:44:58	4129385	2	3	3	3	3	3	1	3	3	4	2	0	0	0	0	4	5
101212	07:44:58	10006	WordsAbsFr6mo	AbsFr6mo1	16	Abs1	3477	0	114	07:44:58	4133063	2	3	3	3	3	3	1	3	3	4	2	1	0	0	0	4	5
101212	07:44:58	10006	WordsAbsFr6mo	AbsFr6mo2	16	Abs1	28074	0	114	07:44:58	4161172	2	3	3	3	3	3	1	3	3	4	2	2	0	0	0	4	5
101212	07:44:58	10006	WordsAbsFr6mo	AbsFr6mo3	16	Abs1	30268	0	114	07:44:58	4191479	2	3	3	3	3	3	1	3	3	4	2	3	0	0	0	4	5
101212	07:44:58	10006	Trial2BackFrS	NS	17	0	1000	1	114	07:44:58	4258095	2	3	3	3	3	3	1	3	3	4	2	3	0	0	0	4	5
101212	07:44:58	10006	Trial2BackFrS	NS	17	0	1000	1	114	07:44:58	4259612	2	3	3	3	3	3	1	3	3	4	2	3	0	0	0	4	5
101212	07:44:58	10006	Trial2BackFrS	NS	17	0	1000	1	114	07:44:58	4261158	2	3	3	3	3	3	1	3	3	4	2	3	0	0	0	4	5
101212	07:44:58	10006	Trial2BackFrS	YS	17	57	683	1	114	07:44:58	4262357	2	3	3	3	3	3	1	3	3	4	2	3	0	0	0	4	5
101212	07:44:58	10006	Trial2BackFrS	NS	17	0	1000	1	114	07:44:58	4264170	2	3	3	3	3	3	1	3	3	4	2	3	0	0	0	4	5
101212	07:44:58	10006	Trial2BackFrS	NS	17	0	1000	1	114	07:44:58	4265676	2	3	3	3	3	3	1	3	3	4	2	3	0	0	0	4	5
101212	07:44:58	10006	Trial2BackFrS	NS	17	0	1000	1	114	07:44:58	4267195	2	3	3	3	3	3	1	3	3	4	2	3	0	0	0	4	5
101212	07:44:58	10006	Trial2BackFrS	NS	17	0	1000	1	114	07:44:58	4268701	2	3	3	3	3	3	1	3	3	4	2	3	0	0	0	4	5
101212	07:44:58	10006	Trial2BackFrS	YS	17	57	515	1	114	07:44:58	4269727	2	3	3	3	3	3	1	3	3	4	2	3	0	0	0	4	5
101212	07:44:58	10006	Trial2BackFrS	NS	17	0	1000	1	114	07:44:58	4271713	2	3	3	3	3	3	1	3	3	4	2	3	0	0	0	4	5
101212	07:44:58	10006	Trial2BackFrS	NS	17	0	1000	1	114	07:44:58	4273232	2	3	3	3	3	3	1	3	3	4	2	3	0	0	0	4	5
101212	07:44:58	10006	Trial2BackFrS	YS	17	0	1000	0	114	07:44:58	4274739	2	3	3	3	3	3	1	3	3	4	2	3	0	0	0	4	5
101212	07:44:58	10006	Trial2BackFrS	NS	17	0	1000	1	114	07:44:58	4276245	2	3	3	3	3	3	1	3	3	4	2	3	0	0	0	4	5
101212	07:44:58	10006	Trial2BackFrS	NS	17	57	763	0	114	07:44:58	4277524	2	3	3	3	3	3	1	3	3	4	2	3	0	0	0	4	5
101212	07:44:58	10006	Trial2BackFrS	NS	17	0	1000	1	114	07:44:58	4279257	2	3	3	3	3	3	1	3	3	4	2	3	0	0	0	4	5
101212	07:44:58	10006	Trial2BackFrS	YS	17	0	1000	0	114	07:44:58	4280763	2	3	3	3	3	3	1	3	3	4	2	3	0	0	0	4	5
101212	07:44:58	10006	Trial2BackFrS	NS	17	0	1000	1	114	07:44:58	4282269	2	3	3	3	3	3	1	3	3	4	2	3	0	0	0	4	5
101212	07:44:58	10006	Trial2BackFrS	NS	17	0	1000	1	114	07:44:58	4283788	2	3	3	3	3	3	1	3	3	4	2	3	0	0	0	4	5
101212	07:44:58	10006	Trial2BackFrS	NS	17	57	563	0	114	07:44:58	4284868	2	3	3	3	3	3	1	3	3	4	2	3	0	0	0	4	5
101212	07:44:58	10006	Trial2BackFrS	NS	17	0	1000	1	114	07:44:58	4286800	2	3	3	3	3	3	1	3	3	4	2	3	0	0	0	4	5
101212	07:44:58	10006	Trial2BackFrS	YS	17	0	1000	0	114	07:44:58	4288307	2	3	3	3	3	3	1	3	3	4	2	3	0	0	0	4	5
101212	07:44:58	10006	Trial2BackFrS	NS	17	0	1000	1	114	07:44:58	4289813	2	3	3	3	3	3	1	3	3	4	2	3	0	0	0	4	5
101212	07:44:58	10006	Trial2BackFrS	NS	17	0	1000	1	114	07:44:58	4291319	2	3	3	3	3	3	1	3	3	4	2	3	0	0	0	4	5
101212	07:44:58	10006	Trial2BackFrS	NS	17	0	1000	1	114	07:44:58	4292825	2	3	3	3	3	3	1	3	3	4	2	3	0	0	0	4	5
101212	07:44:58	10006	Trial2BackFrS	NS	17	57	551	0	114	07:44:58	4293891	2	3	3	3	3	3	1	3	3	4	2	3	0	0	0	4	5
101212	07:44:58	10006	Trial2BackFrS	NS	17	0	1000	1	114	07:44:58	4295837	2	3	3	3	3	3	1	3	3	4	2	3	0	0	0	4	5
101212	07:44:58	10006	Trial2BackFrS	NS	17	0	1000	1	114	07:44:58	4297343	2	3	3	3	3	3	1	3	3	4	2	3	0	0	0	4	5
101212	07:44:58	10006	Trial2BackFrS	NS	17	0	1000	1	114	07:44:58	4298849	2	3	3	3	3	3	1	3	3	4	2	3	0	0	0	4	5
101212	07:44:58	10006	Trial2BackFrS	NS	17	0	1000	1	114	07:44:58	4300355	2	3	3	3	3	3	1	3	3	4	2	3	0	0	0	4	5
101212	07:44:58	10006	Trial2BackFrS	NS	17	0	1000	1	114	07:44:58	4301861	2	3	3	3	3	3	1	3	3	4	2	3	0	0	0	4	5
101212	07:44:58	10006	Trial2BackFrS	NS	17	0	1000	1	114	07:44:58	4303367	2	3	3	3	3	3	1	3	3	4	2	3	0	0	0	4	5
101212	07:44:58	10006	Trial2BackFrS	YS	17	57	584	1	114	07:44:58	4304460	2	3	3	3	3	3	1	3	3	4	2	3	0	0	0	4	5
101212	07:44:58	10006	Trial2BackFrS	NS	17	0	1000	1	114	07:44:58	4306379	2	3	3	3	3	3	1	3	3	4	2	3	0	0	0	4	5
101212	07:44:58	10006	Trial2BackFrS	NS	17	0	1000	1	114	07:44:58	4307885	2	3	3	3	3	3	1	3	3	4	2	3	0	0	0	4	5
101212	07:44:58	10006	Trial2BackFrS	NS	17	0	1000	1	114	07:44:58	4309405	2	3	3	3	3	3	1	3	3	4	2	3	0	0	0	4	5
101212	07:44:58	10006	Trial2BackFrS	YS	17	57	642	1	114	07:44:58	4310564	2	3	3	3	3	3	1	3	3	4	2	3	0	0	0	4	5
101212	07:44:58	10006	Trial2BackFrS	NS	17	0	1000	1	114	07:44:58	4312417	2	3	3	3	3	3	1	3	3	4	2	3	0	0	0	4	5
101212	07:44:58	10006	Trial2BackFrS	NS	17	0	1000	1	114	07:44:58	4313923	2	3	3	3	3	3	1	3	3	4	2	3	0	0	0	4	5
101212	07:44:58	10006	Trial2BackFrS	NS	17	0	1000	1	114	07:44:58	4315429	2	3	3	3	3	3	1	3	3	4	2	3	0	0	0	4	5
101212	07:44:58	10006	Trial2BackFrS	NS	17	0	1000	1	114	07:44:58	4316935	2	3	3	3	3	3	1	3	3	4	2	3	0	0	0	4	5
101212	07:44:58	10006	Trial2BackFrS	NS	17	0	1000	1	114	07:44:58	4318441	2	3	3	3	3	3	1	3	3	4	2	3	0	0	0	4	5
101212	07:44:58	10006	Trial2BackFrS	NS	17	0	1000	1	114	07:44:58	4319960	2	3	3	3	3	3	1	3	3	4	2	3	0	0	0	4	5
101212	07:44:58	10006	Trial2BackFrS	NS	17	0	1000	1	114	07:44:58	4321480	2	3	3	3	3	3	1	3	3	4	2	3	0	0	0	4	5
101212	07:44:58	10006	Trial2BackFrS	YS	17	57	615	1	114	07:44:58	4322613	2	3	3	3	3	3	1	3	3	4	2	3	0	0	0	4	5
101212	07:44:58	10006	Trial2BackFrS	NS	17	0	1000	1	114	07:44:58	4324492	2	3	3	3	3	3	1	3	3	4	2	3	0	0	0	4	5
101212	07:44:58	10006	Trial2BackFrS	NS	17	0	1000	1	114	07:44:58	4325998	2	3	3	3	3	3	1	3	3	4	2	3	0	0	0	4	5
101212	07:44:58	10006	Trial2BackFrS	NS	17	0	1000	1	114	07:44:58	4327517	2	3	3	3	3	3	1	3	3	4	2	3	0	0	0	4	5
101212	07:44:58	10006	Trial2BackFrS	NS	17	0	1000	1	114	07:44:58	4329023	2	3	3	3	3	3	1	3	3	4	2	3	0	0	0	4	5
101212	07:44:58	10006	Trial2BackFrS	YS	17	57	479	1	114	07:44:58	4330023	2	3	3	3	3	3	1	3	3	4	2	3	0	0	0	4	5
101212	07:44:58	10006	Trial2BackFrS	NS	17	0	1000	1	114	07:44:58	4332053	2	3	3	3	3	3	1	3	3	4	2	3	0	0	0	4	5
101212	07:44:58	10006	Trial2BackFrS	NS	17	0	1000	1	114	07:44:58	4333568	2	3	3	3	3	3	1	3	3	4	2	3	0	0	0	4	5
101212	07:44:58	10006	Trial2BackFrS	NS	17	0	1000	1	114	07:44:58	4335074	2	3	3	3	3	3	1	3	3	4	2	3	0	0	0	4	5
101212	07:44:58	10006	Trial2BackFrS	NS	17	0	1000	1	114	07:44:58	4336580	2	3	3	3	3	3	1	3	3	4	2	3	0	0	0	4	5
101212	07:44:58	10006	Trial2BackFrS	NS	17	57	602	0	114	07:44:58	4337700	2	3	3	3	3	3	1	3	3	4	2	3	0	0	0	4	5
101212	07:44:58	10006	Trial2BackFrS	NS	17	0	1000	1	114	07:44:58	4339593	2	3	3	3	3	3	1	3	3	4	2	3	0	0	0	4	5
101212	07:44:58	10006	Trial2BackFrS	YS	17	0	1000	0	114	07:44:58	4341099	2	3	3	3	3	3	1	3	3	4	2	3	0	0	0	4	5
101212	07:44:58	10006	Trial2BackFrS	NS	17	0	1000	1	114	07:44:58	4342605	2	3	3	3	3	3	1	3	3	4	2	3	0	0	0	4	5
101212	07:44:58	10006	Trial2BackFrS	NS	17	0	1000	1	114	07:44:58	4344111	2	3	3	3	3	3	1	3	3	4	2	3	0	0	0	4	5
101212	07:44:58	10006	Trial2BackFrS	NS	17	0	1000	1	114	07:44:58	4345617	2	3	3	3	3	3	1	3	3	4	2	3	0	0	0	4	5
101212	07:44:58	10006	Trial2BackFrS	NS	17	0	1000	1	114	07:44:58	4347123	2	3	3	3	3	3	1	3	3	4	2	3	0	0	0	4	5
101212	07:44:58	10006	Trial2BackFrS	NS	17	0	1000	1	114	07:44:58	4348629	2	3	3	3	3	3	1	3	3	4	2	3	0	0	0	4	5
101212	07:44:58	10006	Trial2BackFrS	NS	17	0	1000	1	114	07:44:58	4350135	2	3	3	3	3	3	1	3	3	4	2	3	0	0	0	4	5
101212	07:44:58	10006	Trial2BackFrS	NS	17	57	535	0	114	07:44:58	4351188	2	3	3	3	3	3	1	3	3	4	2	3	0	0	0	4	5
101212	07:44:58	10006	Trial2BackFrS	YS	17	0	1000	0	114	07:44:58	4353147	2	3	3	3	3	3	1	3	3	4	2	3	0	0	0	4	5
101212	07:44:58	10006	Trial2BackFrS	NS	17	0	1000	1	114	07:44:58	4354653	2	3	3	3	3	3	1	3	3	4	2	3	0	0	0	4	5
101212	07:44:58	10006	Trial2BackFrS	NS	17	0	1000	1	114	07:44:58	4356159	2	3	3	3	3	3	1	3	3	4	2	3	0	0	0	4	5
101212	07:44:58	10006	Trial2BackFrS	NS	17	57	543	0	114	07:44:58	4357212	2	3	3	3	3	3	1	3	3	4	2	3	0	0	0	4	5
101212	07:44:58	10006	Trial2BackFrS	NS	17	0	1000	1	114	07:44:58	4359171	2	3	3	3	3	3	1	3	3	4	2	3	0	0	0	4	5
101212	07:44:58	10006	Trial2BackFrS	YS	17	0	1000	0	114	07:44:58	4360677	2	3	3	3	3	3	1	3	3	4	2	3	0	0	0	4	5
101212	07:44:58	10006	Trial2BackFrS	NS	17	0	1000	1	114	07:44:58	4362183	2	3	3	3	3	3	1	3	3	4	2	3	0	0	0	4	5
101212	07:44:58	10006	Trial2BackFrS	NS	17	57	566	0	114	07:44:58	4363263	2	3	3	3	3	3	1	3	3	4	2	3	0	0	0	4	5
101212	07:44:58	10006	Trial2BackFrS	YS	17	0	1000	0	114	07:44:58	4365195	2	3	3	3	3	3	1	3	3	4	2	3	0	0	0	4	5
101212	07:44:58	10006	Trial2BackFrS	NS	17	0	1000	1	114	07:44:58	4366701	2	3	3	3	3	3	1	3	3	4	2	3	0	0	0	4	5
101212	07:44:58	10006	Trial2BackFrS	NS	17	0	1000	1	114	07:44:58	4368208	2	3	3	3	3	3	1	3	3	4	2	3	0	0	0	4	5
101212	07:44:58	10006	Trial2BackFrS	NS	17	57	670	0	114	07:44:58	4369394	2	3	3	3	3	3	1	3	3	4	2	3	0	0	0	4	5
101212	07:44:58	10006	Trial2BackFrS	NS	17	0	1000	1	114	07:44:58	4371220	2	3	3	3	3	3	1	3	3	4	2	3	0	0	0	4	5
101212	07:44:58	10006	Trial2BackFrS	NS	17	0	1000	1	114	07:44:58	4372726	2	3	3	3	3	3	1	3	3	4	2	3	0	0	0	4	5
101212	07:44:58	10006	Trial2BackFrS	NS	17	0	1000	1	114	07:44:58	4374232	2	3	3	3	3	3	1	3	3	4	2	3	0	0	0	4	5
101212	07:44:58	10006	Trial2BackFrS	YS	17	57	534	1	114	07:44:58	4375285	2	3	3	3	3	3	1	3	3	4	2	3	0	0	0	4	5
101212	07:44:58	10006	Trial2BackFrS	NS	17	0	1000	1	114	07:44:58	4377244	2	3	3	3	3	3	1	3	3	4	2	3	0	0	0	4	5
101212	07:44:58	10006	Trial2BackFrS	NS	17	0	1000	1	114	07:44:58	4378750	2	3	3	3	3	3	1	3	3	4	2	3	0	0	0	4	5
101212	07:44:58	10006	Trial2BackFrS	NS	17	0	1000	1	114	07:44:58	4380256	2	3	3	3	3	3	1	3	3	4	2	3	0	0	0	4	5
101212	07:44:58	10006	Trial2BackFrS	NS	17	0	1000	1	114	07:44:58	4381762	2	3	3	3	3	3	1	3	3	4	2	3	0	0	0	4	5
101212	07:44:58	10006	Trial2BackFrS	YS	17	57	427	1	114	07:44:58	4382708	2	3	3	3	3	3	1	3	3	4	2	3	0	0	0	4	5
101212	07:44:58	10006	Trial2BackFrS	NS	17	0	1000	1	114	07:44:58	4384774	2	3	3	3	3	3	1	3	3	4	2	3	0	0	0	4	5
101212	07:44:58	10006	Trial2BackFrS	NS	17	0	1000	1	114	07:44:58	4386280	2	3	3	3	3	3	1	3	3	4	2	3	0	0	0	4	5
101212	07:44:58	10006	Trial2BackFrS	NS	17	0	1000	1	114	07:44:58	4387786	2	3	3	3	3	3	1	3	3	4	2	3	0	0	0	4	5
101212	07:44:58	10006	Trial2BackFrS	NS	17	57	691	0	114	07:44:58	4388986	2	3	3	3	3	3	1	3	3	4	2	3	0	0	0	4	5
101212	07:44:58	10006	Trial2BackFrS	YS	17	0	1000	0	114	07:44:58	4390798	2	3	3	3	3	3	1	3	3	4	2	3	0	0	0	4	5
101212	07:44:58	10006	Trial2BackFrS	NS	17	0	1000	1	114	07:44:58	4392304	2	3	3	3	3	3	1	3	3	4	2	3	0	0	0	4	5
101212	07:44:58	10006	Trial2BackFrS	NS	17	0	1000	1	114	07:44:58	4393824	2	3	3	3	3	3	1	3	3	4	2	3	0	0	0	4	5
101212	07:44:58	10006	Trial2BackFrS	YS	17	57	397	1	114	07:44:58	4394730	2	3	3	3	3	3	1	3	3	4	2	3	0	0	0	4	5
101212	07:44:58	10006	Trial2BackFrS	NS	17	0	1000	1	114	07:44:58	4396836	2	3	3	3	3	3	1	3	3	4	2	3	0	0	0	4	5
101212	07:44:58	10006	Trial2BackFrS	NS	17	0	1000	1	114	07:44:58	4398342	2	3	3	3	3	3	1	3	3	4	2	3	0	0	0	4	5
101212	07:44:58	10006	Trial2BackFrS	NS	17	0	1000	1	114	07:44:58	4399848	2	3	3	3	3	3	1	3	3	4	2	3	0	0	0	4	5
101212	07:44:58	10006	Trial2BackFrS	NS	17	0	1000	1	114	07:44:58	4401354	2	3	3	3	3	3	1	3	3	4	2	3	0	0	0	4	5
101212	07:44:58	10006	Trial2BackFrS	NS	17	57	547	0	114	07:44:58	4402421	2	3	3	3	3	3	1	3	3	4	2	3	0	0	0	4	5
101212	07:44:58	10006	Trial2BackFrS	NS	17	0	1000	1	114	07:44:58	4404366	2	3	3	3	3	3	1	3	3	4	2	3	0	0	0	4	5
101212	07:44:58	10006	Trial2BackFrS	NS	17	0	1000	1	114	07:44:58	4405872	2	3	3	3	3	3	1	3	3	4	2	3	0	0	0	4	5
101212	07:44:58	10006	Trial2BackFrS	NS	17	0	1000	1	114	07:44:58	4407378	2	3	3	3	3	3	1	3	3	4	2	3	0	0	0	4	5
101212	07:44:58	10006	Trial2BackFrS	YS	17	57	538	1	114	07:44:58	4408431	2	3	3	3	3	3	1	3	3	4	2	3	0	0	0	4	5
101212	07:44:58	10006	Trial2BackFrS	NS	17	0	1000	1	114	07:44:58	4410390	2	3	3	3	3	3	1	3	3	4	2	3	0	0	0	4	5
101212	07:44:58	10006	Trial2BackFrS	NS	17	0	1000	1	114	07:44:58	4411896	2	3	3	3	3	3	1	3	3	4	2	3	0	0	0	4	5
101212	07:44:58	10006	Trial2BackFrS	NS	17	0	1000	1	114	07:44:58	4413403	2	3	3	3	3	3	1	3	3	4	2	3	0	0	0	4	5
101212	07:44:58	10006	Trial2BackFrS	NS	17	57	642	0	114	07:44:58	4414562	2	3	3	3	3	3	1	3	3	4	2	3	0	0	0	4	5
101212	07:44:58	10006	Trial2BackFrS	NS	17	0	1000	1	114	07:44:58	4416415	2	3	3	3	3	3	1	3	3	4	2	3	0	0	0	4	5
101212	07:44:58	10006	Trial2BackFrS	NS	17	0	1000	1	114	07:44:58	4417921	2	3	3	3	3	3	1	3	3	4	2	3	0	0	0	4	5
101212	07:44:58	10006	Trial2BackFrS	NS	17	0	1000	1	114	07:44:58	4419427	2	3	3	3	3	3	1	3	3	4	2	3	0	0	0	4	5
101212	07:44:58	10006	Trial2BackFrS	YS	17	57	537	1	114	07:44:58	4420480	2	3	3	3	3	3	1	3	3	4	2	3	0	0	0	4	5
101212	07:44:58	10006	Trial2BackFrS	NS	17	0	1000	1	114	07:44:58	4422439	2	3	3	3	3	3	1	3	3	4	2	3	0	0	0	4	5
101212	07:44:58	10006	Trial2BackFrS	NS	17	0	1000	1	114	07:44:58	4423945	2	3	3	3	3	3	1	3	3	4	2	3	0	0	0	4	5
101212	07:44:58	10006	Trial2BackFrS	NS	17	0	1000	1	114	07:44:58	4425451	2	3	3	3	3	3	1	3	3	4	2	3	0	0	0	4	5
101212	07:44:58	10006	Trial2BackFrS	NS	17	0	1000	1	114	07:44:58	4426957	2	3	3	3	3	3	1	3	3	4	2	3	0	0	0	4	5
101212	07:44:58	10006	Trial2BackFrS	NS	17	0	1000	1	114	07:44:58	4428463	2	3	3	3	3	3	1	3	3	4	2	3	0	0	0	4	5
101212	07:44:58	10006	Trial2BackFrS	NS	17	0	1000	1	114	07:44:58	4429969	2	3	3	3	3	3	1	3	3	4	2	3	0	0	0	4	5
101212	07:44:58	10006	Trial2BackFrS	NS	17	0	1000	1	114	07:44:58	4431475	2	3	3	3	3	3	1	3	3	4	2	3	0	0	0	4	5
101212	07:44:58	10006	Trial2BackFrS	NS	17	57	553	0	114	07:44:58	4432541	2	3	3	3	3	3	1	3	3	4	2	3	0	0	0	4	5
101212	07:44:58	10006	Trial2BackFrS	NS	17	0	1000	1	114	07:44:58	4434487	2	3	3	3	3	3	1	3	3	4	2	3	0	0	0	4	5
101212	07:44:58	10006	Trial2BackFrS	YS	17	0	1000	0	114	07:44:58	4435993	2	3	3	3	3	3	1	3	3	4	2	3	0	0	0	4	5
101212	07:44:58	10006	Trial2BackFrS	NS	17	0	1000	1	114	07:44:58	4437499	2	3	3	3	3	3	1	3	3	4	2	3	0	0	0	4	5
101212	07:44:58	10006	ClockFr6mo	ClockFr6mo	19	Clock1	61472	0	114	07:44:58	4499398	2	3	3	3	3	3	1	3	3	4	2	3	1	0	0	4	5
101212	07:44:58	10006	ClockFr6mo	ClockFr6mo	19	Clock11	626	0	114	07:44:58	4500088	2	3	3	3	3	3	1	3	3	4	2	3	1	1	0	4	5
101212	07:44:58	10006	ClockFr6mo	ClockFr6mo	19	Clock111	634	0	114	07:44:58	4500767	2	3	3	3	3	3	1	3	3	4	2	3	1	1	1	4	5
101212	07:44:58	10006	ClockFr6mo	ClockFr6mo	19	Clockdone	1059	0	114	07:44:58	4501874	2	3	3	3	3	3	1	3	3	4	2	3	1	1	1	4	5
101212	07:44:58	10006	FASFrVF6mo	StopFrVF6mo	20	12	4071	0	114	07:44:58	4619573	2	3	3	3	3	3	1	3	3	4	2	3	1	1	1	4	5
