date	time	subject	blockcode	trialcode	values.TaskNumber	response	latency	correct	values.Score	script.starttime	script.elapsedtime	values.ScoreS7	values.Word1	values.Word2	values.Word3	values.Word4	values.Word5	values.Word6	values.Word7	values.Word8	values.DigitSpanFwrd	values.DigitSpanBack	values.ScoreAbs	values.Contour	values.Numbers	values.Hands	values.corsiblockspanFwrd	values.corsiblockspanRev	values.problemnumber	values.subjectattempts	values.targetmoves	values.subjectmoves	expressions.excessmoves	values.movestring	expressions.targetachieved	values.problemscore	values.totalscoreTOL	expressions.firstmovetime	expressions.executiontime	expressions.solutiontime	values.t_choicestart	values.t_choiceend
012313	13:37:00	10028	Language	Language	0	French	1151	0	0	13:37:00	1259	0	0	0	0	0	0	0	0	0	0	0	0	0	0	0	0	0	0	0	0	0	0		1	0	0	0	0	0	0	0
012313	13:37:00	10028	Session	Session	0	6mo	3129	0	0	13:37:00	4444	0	0	0	0	0	0	0	0	0	0	0	0	0	0	0	0	0	0	0	0	0	0		1	0	0	0	0	0	0	0
012313	13:37:00	10028	HandFr	HandFr	0	RightFr	783	0	0	13:37:00	5284	0	0	0	0	0	0	0	0	0	0	0	0	0	0	0	0	0	0	0	0	0	0		1	0	0	0	0	0	0	0
012313	13:37:00	10028	AudioCheckFr	WordsFr	0	0	0	0	0	13:37:00	1579976	0	0	0	0	0	0	0	0	0	0	0	0	0	0	0	0	0	0	0	0	0	0		1	0	0	0	0	0	0	0
012313	13:37:00	10028	CubeFr	CubeFr	1	1Cube	23834	0	0	13:37:00	1605139	0	0	0	0	0	0	0	0	0	0	0	0	0	0	0	0	0	0	0	0	0	0		1	0	0	0	0	0	0	0
012313	13:37:00	10028	pm.simpleFrRight	blank.simpleFr	2	0	2400	1	0	13:37:00	1616254	0	0	0	0	0	0	0	0	0	0	0	0	0	0	0	0	0	0	0	0	0	0		1	0	0	0	0	0	0	0
012313	13:37:00	10028	pm.simpleFrRight	pm.simpleFr	2	57	460	0	0	13:37:00	1616734	0	0	0	0	0	0	0	0	0	0	0	0	0	0	0	0	0	0	0	0	0	0		1	0	0	0	0	0	0	0
012313	13:37:00	10028	pm.simpleFrRight	blank.simpleFr	2	0	1700	1	0	13:37:00	1618453	0	0	0	0	0	0	0	0	0	0	0	0	0	0	0	0	0	0	0	0	0	0		1	0	0	0	0	0	0	0
012313	13:37:00	10028	pm.simpleFrRight	pm.simpleFr	2	57	341	0	0	13:37:00	1618813	0	0	0	0	0	0	0	0	0	0	0	0	0	0	0	0	0	0	0	0	0	0		1	0	0	0	0	0	0	0
012313	13:37:00	10028	pm.simpleFrRight	blank.simpleFr	2	0	1900	1	0	13:37:00	1620732	0	0	0	0	0	0	0	0	0	0	0	0	0	0	0	0	0	0	0	0	0	0		1	0	0	0	0	0	0	0
012313	13:37:00	10028	pm.simpleFrRight	pm.simpleFr	2	57	286	0	0	13:37:00	1621039	0	0	0	0	0	0	0	0	0	0	0	0	0	0	0	0	0	0	0	0	0	0		1	0	0	0	0	0	0	0
012313	13:37:00	10028	pm.simpleFrRight	blank.simpleFr	2	0	2300	1	0	13:37:00	1623358	0	0	0	0	0	0	0	0	0	0	0	0	0	0	0	0	0	0	0	0	0	0		1	0	0	0	0	0	0	0
012313	13:37:00	10028	pm.simpleFrRight	pm.simpleFr	2	57	316	0	0	13:37:00	1623691	0	0	0	0	0	0	0	0	0	0	0	0	0	0	0	0	0	0	0	0	0	0		1	0	0	0	0	0	0	0
012313	13:37:00	10028	pm.simpleFrRight	blank.simpleFr	2	0	2000	1	0	13:37:00	1625703	0	0	0	0	0	0	0	0	0	0	0	0	0	0	0	0	0	0	0	0	0	0		1	0	0	0	0	0	0	0
012313	13:37:00	10028	pm.simpleFrRight	pm.simpleFr	2	57	339	0	0	13:37:00	1626063	0	0	0	0	0	0	0	0	0	0	0	0	0	0	0	0	0	0	0	0	0	0		1	0	0	0	0	0	0	0
012313	13:37:00	10028	pm.simpleFrRight	blank.simpleFr	2	0	2100	1	0	13:37:00	1628182	0	0	0	0	0	0	0	0	0	0	0	0	0	0	0	0	0	0	0	0	0	0		1	0	0	0	0	0	0	0
012313	13:37:00	10028	pm.simpleFrRight	pm.simpleFr	2	57	291	0	0	13:37:00	1628502	0	0	0	0	0	0	0	0	0	0	0	0	0	0	0	0	0	0	0	0	0	0		1	0	0	0	0	0	0	0
012313	13:37:00	10028	pm.simpleFrRight	blank.simpleFr	2	0	1800	1	0	13:37:00	1630315	0	0	0	0	0	0	0	0	0	0	0	0	0	0	0	0	0	0	0	0	0	0		1	0	0	0	0	0	0	0
012313	13:37:00	10028	pm.simpleFrRight	pm.simpleFr	2	57	335	0	0	13:37:00	1630675	0	0	0	0	0	0	0	0	0	0	0	0	0	0	0	0	0	0	0	0	0	0		1	0	0	0	0	0	0	0
012313	13:37:00	10028	pm.simpleFrRight	blank.simpleFr	2	0	1500	1	0	13:37:00	1632194	0	0	0	0	0	0	0	0	0	0	0	0	0	0	0	0	0	0	0	0	0	0		1	0	0	0	0	0	0	0
012313	13:37:00	10028	pm.simpleFrRight	pm.simpleFr	2	57	392	0	0	13:37:00	1632607	0	0	0	0	0	0	0	0	0	0	0	0	0	0	0	0	0	0	0	0	0	0		1	0	0	0	0	0	0	0
012313	13:37:00	10028	pm.simpleFrRight	blank.simpleFr	2	0	1600	1	0	13:37:00	1634220	0	0	0	0	0	0	0	0	0	0	0	0	0	0	0	0	0	0	0	0	0	0		1	0	0	0	0	0	0	0
012313	13:37:00	10028	pm.simpleFrRight	pm.simpleFr	2	57	302	0	0	13:37:00	1634540	0	0	0	0	0	0	0	0	0	0	0	0	0	0	0	0	0	0	0	0	0	0		1	0	0	0	0	0	0	0
012313	13:37:00	10028	pm.simpleFrRight	blank.simpleFr	2	0	2200	1	0	13:37:00	1636752	0	0	0	0	0	0	0	0	0	0	0	0	0	0	0	0	0	0	0	0	0	0		1	0	0	0	0	0	0	0
012313	13:37:00	10028	pm.simpleFrRight	pm.simpleFr	2	57	265	0	0	13:37:00	1637045	0	0	0	0	0	0	0	0	0	0	0	0	0	0	0	0	0	0	0	0	0	0		1	0	0	0	0	0	0	0
012313	13:37:00	10028	pm.simpleFrRight	blank.simpleFr	2	0	2500	1	0	13:37:00	1639564	0	0	0	0	0	0	0	0	0	0	0	0	0	0	0	0	0	0	0	0	0	0		1	0	0	0	0	0	0	0
012313	13:37:00	10028	pm.simpleFrRight	pm.simpleFr	2	57	269	0	0	13:37:00	1639858	0	0	0	0	0	0	0	0	0	0	0	0	0	0	0	0	0	0	0	0	0	0		1	0	0	0	0	0	0	0
012313	13:37:00	10028	pm.simpleFrRight	blank.simpleFr	2	0	1900	1	0	13:37:00	1641777	0	0	0	0	0	0	0	0	0	0	0	0	0	0	0	0	0	0	0	0	0	0		1	0	0	0	0	0	0	0
012313	13:37:00	10028	pm.simpleFrRight	pm.simpleFr	2	57	328	0	0	13:37:00	1642123	0	0	0	0	0	0	0	0	0	0	0	0	0	0	0	0	0	0	0	0	0	0		1	0	0	0	0	0	0	0
012313	13:37:00	10028	pm.simpleFrRight	blank.simpleFr	2	0	1700	1	0	13:37:00	1643843	0	0	0	0	0	0	0	0	0	0	0	0	0	0	0	0	0	0	0	0	0	0		1	0	0	0	0	0	0	0
012313	13:37:00	10028	pm.simpleFrRight	pm.simpleFr	2	57	295	0	0	13:37:00	1644162	0	0	0	0	0	0	0	0	0	0	0	0	0	0	0	0	0	0	0	0	0	0		1	0	0	0	0	0	0	0
012313	13:37:00	10028	pm.simpleFrRight	blank.simpleFr	2	0	2500	1	0	13:37:00	1646681	0	0	0	0	0	0	0	0	0	0	0	0	0	0	0	0	0	0	0	0	0	0		1	0	0	0	0	0	0	0
012313	13:37:00	10028	pm.simpleFrRight	pm.simpleFr	2	57	320	0	0	13:37:00	1647028	0	0	0	0	0	0	0	0	0	0	0	0	0	0	0	0	0	0	0	0	0	0		1	0	0	0	0	0	0	0
012313	13:37:00	10028	pm.simpleFrRight	blank.simpleFr	2	0	1800	1	0	13:37:00	1648841	0	0	0	0	0	0	0	0	0	0	0	0	0	0	0	0	0	0	0	0	0	0		1	0	0	0	0	0	0	0
012313	13:37:00	10028	pm.simpleFrRight	pm.simpleFr	2	57	353	0	0	13:37:00	1649214	0	0	0	0	0	0	0	0	0	0	0	0	0	0	0	0	0	0	0	0	0	0		1	0	0	0	0	0	0	0
012313	13:37:00	10028	pm.simpleFrRight	blank.simpleFr	2	0	2400	1	0	13:37:00	1651626	0	0	0	0	0	0	0	0	0	0	0	0	0	0	0	0	0	0	0	0	0	0		1	0	0	0	0	0	0	0
012313	13:37:00	10028	pm.simpleFrRight	pm.simpleFr	2	57	319	0	0	13:37:00	1651973	0	0	0	0	0	0	0	0	0	0	0	0	0	0	0	0	0	0	0	0	0	0		1	0	0	0	0	0	0	0
012313	13:37:00	10028	pm.simpleFrRight	blank.simpleFr	2	0	1500	1	0	13:37:00	1653492	0	0	0	0	0	0	0	0	0	0	0	0	0	0	0	0	0	0	0	0	0	0		1	0	0	0	0	0	0	0
012313	13:37:00	10028	pm.simpleFrRight	pm.simpleFr	2	57	357	0	0	13:37:00	1653865	0	0	0	0	0	0	0	0	0	0	0	0	0	0	0	0	0	0	0	0	0	0		1	0	0	0	0	0	0	0
012313	13:37:00	10028	pm.simpleFrRight	blank.simpleFr	2	0	2000	1	0	13:37:00	1655878	0	0	0	0	0	0	0	0	0	0	0	0	0	0	0	0	0	0	0	0	0	0		1	0	0	0	0	0	0	0
012313	13:37:00	10028	pm.simpleFrRight	pm.simpleFr	2	57	307	0	0	13:37:00	1656211	0	0	0	0	0	0	0	0	0	0	0	0	0	0	0	0	0	0	0	0	0	0		1	0	0	0	0	0	0	0
012313	13:37:00	10028	pm.simpleFrRight	blank.simpleFr	2	0	2200	1	0	13:37:00	1658423	0	0	0	0	0	0	0	0	0	0	0	0	0	0	0	0	0	0	0	0	0	0		1	0	0	0	0	0	0	0
012313	13:37:00	10028	pm.simpleFrRight	pm.simpleFr	2	57	354	0	0	13:37:00	1658796	0	0	0	0	0	0	0	0	0	0	0	0	0	0	0	0	0	0	0	0	0	0		1	0	0	0	0	0	0	0
012313	13:37:00	10028	pm.simpleFrRight	blank.simpleFr	2	0	2100	1	0	13:37:00	1660916	0	0	0	0	0	0	0	0	0	0	0	0	0	0	0	0	0	0	0	0	0	0		1	0	0	0	0	0	0	0
012313	13:37:00	10028	pm.simpleFrRight	pm.simpleFr	2	57	373	0	0	13:37:00	1661315	0	0	0	0	0	0	0	0	0	0	0	0	0	0	0	0	0	0	0	0	0	0		1	0	0	0	0	0	0	0
012313	13:37:00	10028	pm.simpleFrRight	blank.simpleFr	2	0	2300	1	0	13:37:00	1663634	0	0	0	0	0	0	0	0	0	0	0	0	0	0	0	0	0	0	0	0	0	0		1	0	0	0	0	0	0	0
012313	13:37:00	10028	pm.simpleFrRight	pm.simpleFr	2	57	294	0	0	13:37:00	1663954	0	0	0	0	0	0	0	0	0	0	0	0	0	0	0	0	0	0	0	0	0	0		1	0	0	0	0	0	0	0
012313	13:37:00	10028	pm.simpleFrRight	blank.simpleFr	2	0	1600	1	0	13:37:00	1665567	0	0	0	0	0	0	0	0	0	0	0	0	0	0	0	0	0	0	0	0	0	0		1	0	0	0	0	0	0	0
012313	13:37:00	10028	pm.simpleFrRight	pm.simpleFr	2	57	346	0	0	13:37:00	1665940	0	0	0	0	0	0	0	0	0	0	0	0	0	0	0	0	0	0	0	0	0	0		1	0	0	0	0	0	0	0
012313	13:37:00	10028	pm.simpleFrRight	blank.simpleFr	2	0	2100	1	0	13:37:00	1668059	0	0	0	0	0	0	0	0	0	0	0	0	0	0	0	0	0	0	0	0	0	0		1	0	0	0	0	0	0	0
012313	13:37:00	10028	pm.simpleFrRight	pm.simpleFr	2	57	285	0	0	13:37:00	1668366	0	0	0	0	0	0	0	0	0	0	0	0	0	0	0	0	0	0	0	0	0	0		1	0	0	0	0	0	0	0
012313	13:37:00	10028	pm.simpleFrRight	blank.simpleFr	2	0	2000	1	0	13:37:00	1670378	0	0	0	0	0	0	0	0	0	0	0	0	0	0	0	0	0	0	0	0	0	0		1	0	0	0	0	0	0	0
012313	13:37:00	10028	pm.simpleFrRight	pm.simpleFr	2	57	302	0	0	13:37:00	1670698	0	0	0	0	0	0	0	0	0	0	0	0	0	0	0	0	0	0	0	0	0	0		1	0	0	0	0	0	0	0
012313	13:37:00	10028	pm.simpleFrRight	blank.simpleFr	2	0	2400	1	0	13:37:00	1673111	0	0	0	0	0	0	0	0	0	0	0	0	0	0	0	0	0	0	0	0	0	0		1	0	0	0	0	0	0	0
012313	13:37:00	10028	pm.simpleFrRight	pm.simpleFr	2	57	322	0	0	13:37:00	1673457	0	0	0	0	0	0	0	0	0	0	0	0	0	0	0	0	0	0	0	0	0	0		1	0	0	0	0	0	0	0
012313	13:37:00	10028	pm.simpleFrRight	blank.simpleFr	2	0	1600	1	0	13:37:00	1675070	0	0	0	0	0	0	0	0	0	0	0	0	0	0	0	0	0	0	0	0	0	0		1	0	0	0	0	0	0	0
012313	13:37:00	10028	pm.simpleFrRight	pm.simpleFr	2	57	378	0	0	13:37:00	1675469	0	0	0	0	0	0	0	0	0	0	0	0	0	0	0	0	0	0	0	0	0	0		1	0	0	0	0	0	0	0
012313	13:37:00	10028	pm.simpleFrRight	blank.simpleFr	2	0	2500	1	0	13:37:00	1677988	0	0	0	0	0	0	0	0	0	0	0	0	0	0	0	0	0	0	0	0	0	0		1	0	0	0	0	0	0	0
012313	13:37:00	10028	pm.simpleFrRight	pm.simpleFr	2	57	276	0	0	13:37:00	1678282	0	0	0	0	0	0	0	0	0	0	0	0	0	0	0	0	0	0	0	0	0	0		1	0	0	0	0	0	0	0
012313	13:37:00	10028	pm.simpleFrRight	blank.simpleFr	2	0	1800	1	0	13:37:00	1680094	0	0	0	0	0	0	0	0	0	0	0	0	0	0	0	0	0	0	0	0	0	0		1	0	0	0	0	0	0	0
012313	13:37:00	10028	pm.simpleFrRight	pm.simpleFr	2	57	282	0	0	13:37:00	1680401	0	0	0	0	0	0	0	0	0	0	0	0	0	0	0	0	0	0	0	0	0	0		1	0	0	0	0	0	0	0
012313	13:37:00	10028	pm.simpleFrRight	blank.simpleFr	2	0	1900	1	0	13:37:00	1682320	0	0	0	0	0	0	0	0	0	0	0	0	0	0	0	0	0	0	0	0	0	0		1	0	0	0	0	0	0	0
012313	13:37:00	10028	pm.simpleFrRight	pm.simpleFr	2	57	344	0	0	13:37:00	1682680	0	0	0	0	0	0	0	0	0	0	0	0	0	0	0	0	0	0	0	0	0	0		1	0	0	0	0	0	0	0
012313	13:37:00	10028	pm.simpleFrRight	blank.simpleFr	2	0	2200	1	0	13:37:00	1684892	0	0	0	0	0	0	0	0	0	0	0	0	0	0	0	0	0	0	0	0	0	0		1	0	0	0	0	0	0	0
012313	13:37:00	10028	pm.simpleFrRight	pm.simpleFr	2	57	316	0	0	13:37:00	1685225	0	0	0	0	0	0	0	0	0	0	0	0	0	0	0	0	0	0	0	0	0	0		1	0	0	0	0	0	0	0
012313	13:37:00	10028	pm.simpleFrRight	blank.simpleFr	2	0	1500	1	0	13:37:00	1686745	0	0	0	0	0	0	0	0	0	0	0	0	0	0	0	0	0	0	0	0	0	0		1	0	0	0	0	0	0	0
012313	13:37:00	10028	pm.simpleFrRight	pm.simpleFr	2	57	302	0	0	13:37:00	1687065	0	0	0	0	0	0	0	0	0	0	0	0	0	0	0	0	0	0	0	0	0	0		1	0	0	0	0	0	0	0
012313	13:37:00	10028	pm.simpleFrRight	blank.simpleFr	2	0	2300	1	0	13:37:00	1689384	0	0	0	0	0	0	0	0	0	0	0	0	0	0	0	0	0	0	0	0	0	0		1	0	0	0	0	0	0	0
012313	13:37:00	10028	pm.simpleFrRight	pm.simpleFr	2	57	320	0	0	13:37:00	1689730	0	0	0	0	0	0	0	0	0	0	0	0	0	0	0	0	0	0	0	0	0	0		1	0	0	0	0	0	0	0
012313	13:37:00	10028	pm.simpleFrRight	blank.simpleFr	2	0	1700	1	0	13:37:00	1691450	0	0	0	0	0	0	0	0	0	0	0	0	0	0	0	0	0	0	0	0	0	0		1	0	0	0	0	0	0	0
012313	13:37:00	10028	pm.simpleFrRight	pm.simpleFr	2	57	318	0	0	13:37:00	1691796	0	0	0	0	0	0	0	0	0	0	0	0	0	0	0	0	0	0	0	0	0	0		1	0	0	0	0	0	0	0
012313	13:37:00	10028	pm.simpleFrRight	blank.simpleFr	2	0	1800	1	0	13:37:00	1693609	0	0	0	0	0	0	0	0	0	0	0	0	0	0	0	0	0	0	0	0	0	0		1	0	0	0	0	0	0	0
012313	13:37:00	10028	pm.simpleFrRight	pm.simpleFr	2	57	303	0	0	13:37:00	1693929	0	0	0	0	0	0	0	0	0	0	0	0	0	0	0	0	0	0	0	0	0	0		1	0	0	0	0	0	0	0
012313	13:37:00	10028	pm.simpleFrRight	blank.simpleFr	2	0	2400	1	0	13:37:00	1696354	0	0	0	0	0	0	0	0	0	0	0	0	0	0	0	0	0	0	0	0	0	0		1	0	0	0	0	0	0	0
012313	13:37:00	10028	pm.simpleFrRight	pm.simpleFr	2	57	293	0	0	13:37:00	1696674	0	0	0	0	0	0	0	0	0	0	0	0	0	0	0	0	0	0	0	0	0	0		1	0	0	0	0	0	0	0
012313	13:37:00	10028	pm.simpleFrRight	blank.simpleFr	2	0	2100	1	0	13:37:00	1698793	0	0	0	0	0	0	0	0	0	0	0	0	0	0	0	0	0	0	0	0	0	0		1	0	0	0	0	0	0	0
012313	13:37:00	10028	pm.simpleFrRight	pm.simpleFr	2	57	334	0	0	13:37:00	1699153	0	0	0	0	0	0	0	0	0	0	0	0	0	0	0	0	0	0	0	0	0	0		1	0	0	0	0	0	0	0
012313	13:37:00	10028	pm.simpleFrRight	blank.simpleFr	2	0	2500	1	0	13:37:00	1701672	0	0	0	0	0	0	0	0	0	0	0	0	0	0	0	0	0	0	0	0	0	0		1	0	0	0	0	0	0	0
012313	13:37:00	10028	pm.simpleFrRight	pm.simpleFr	2	57	383	0	0	13:37:00	1702072	0	0	0	0	0	0	0	0	0	0	0	0	0	0	0	0	0	0	0	0	0	0		1	0	0	0	0	0	0	0
012313	13:37:00	10028	pm.simpleFrRight	blank.simpleFr	2	0	2200	1	0	13:37:00	1704284	0	0	0	0	0	0	0	0	0	0	0	0	0	0	0	0	0	0	0	0	0	0		1	0	0	0	0	0	0	0
012313	13:37:00	10028	pm.simpleFrRight	pm.simpleFr	2	57	315	0	0	13:37:00	1704617	0	0	0	0	0	0	0	0	0	0	0	0	0	0	0	0	0	0	0	0	0	0		1	0	0	0	0	0	0	0
012313	13:37:00	10028	pm.simpleFrRight	blank.simpleFr	2	0	1900	1	0	13:37:00	1706536	0	0	0	0	0	0	0	0	0	0	0	0	0	0	0	0	0	0	0	0	0	0		1	0	0	0	0	0	0	0
012313	13:37:00	10028	pm.simpleFrRight	pm.simpleFr	2	57	350	0	0	13:37:00	1706910	0	0	0	0	0	0	0	0	0	0	0	0	0	0	0	0	0	0	0	0	0	0		1	0	0	0	0	0	0	0
012313	13:37:00	10028	pm.simpleFrRight	blank.simpleFr	2	0	2300	1	0	13:37:00	1709229	0	0	0	0	0	0	0	0	0	0	0	0	0	0	0	0	0	0	0	0	0	0		1	0	0	0	0	0	0	0
012313	13:37:00	10028	pm.simpleFrRight	pm.simpleFr	2	57	298	0	0	13:37:00	1709549	0	0	0	0	0	0	0	0	0	0	0	0	0	0	0	0	0	0	0	0	0	0		1	0	0	0	0	0	0	0
012313	13:37:00	10028	Trial2BackFr	N	3	0	1000	1	1	13:37:00	1753917	0	0	0	0	0	0	0	0	0	0	0	0	0	0	0	0	0	0	0	0	0	0		1	0	0	0	0	0	0	0
012313	13:37:00	10028	Trial2BackFr	N	3	0	1000	1	2	13:37:00	1755423	0	0	0	0	0	0	0	0	0	0	0	0	0	0	0	0	0	0	0	0	0	0		1	0	0	0	0	0	0	0
012313	13:37:00	10028	Trial2BackFr	N	3	0	1000	1	3	13:37:00	1756942	0	0	0	0	0	0	0	0	0	0	0	0	0	0	0	0	0	0	0	0	0	0		1	0	0	0	0	0	0	0
012313	13:37:00	10028	Trial2BackFr	N	3	0	1000	1	4	13:37:00	1758448	0	0	0	0	0	0	0	0	0	0	0	0	0	0	0	0	0	0	0	0	0	0		1	0	0	0	0	0	0	0
012313	13:37:00	10028	Trial2BackFr	N	3	0	1000	1	5	13:37:00	1759968	0	0	0	0	0	0	0	0	0	0	0	0	0	0	0	0	0	0	0	0	0	0		1	0	0	0	0	0	0	0
012313	13:37:00	10028	Trial2BackFr	N	3	0	1000	1	6	13:37:00	1761474	0	0	0	0	0	0	0	0	0	0	0	0	0	0	0	0	0	0	0	0	0	0		1	0	0	0	0	0	0	0
012313	13:37:00	10028	Trial2BackFr	N	3	0	1000	1	7	13:37:00	1762980	0	0	0	0	0	0	0	0	0	0	0	0	0	0	0	0	0	0	0	0	0	0		1	0	0	0	0	0	0	0
012313	13:37:00	10028	Trial2BackFr	N	3	0	1000	1	8	13:37:00	1764486	0	0	0	0	0	0	0	0	0	0	0	0	0	0	0	0	0	0	0	0	0	0		1	0	0	0	0	0	0	0
012313	13:37:00	10028	Trial2BackFr	Y	3	57	547	1	9	13:37:00	1765553	0	0	0	0	0	0	0	0	0	0	0	0	0	0	0	0	0	0	0	0	0	0		1	0	0	0	0	0	0	0
012313	13:37:00	10028	Trial2BackFr	N	3	0	1000	1	10	13:37:00	1767498	0	0	0	0	0	0	0	0	0	0	0	0	0	0	0	0	0	0	0	0	0	0		1	0	0	0	0	0	0	0
012313	13:37:00	10028	Trial2BackFr	N	3	0	1000	1	11	13:37:00	1769004	0	0	0	0	0	0	0	0	0	0	0	0	0	0	0	0	0	0	0	0	0	0		1	0	0	0	0	0	0	0
012313	13:37:00	10028	Trial2BackFr	N	3	0	1000	1	12	13:37:00	1770510	0	0	0	0	0	0	0	0	0	0	0	0	0	0	0	0	0	0	0	0	0	0		1	0	0	0	0	0	0	0
012313	13:37:00	10028	Trial2BackFr	Y	3	0	1000	0	12	13:37:00	1772016	0	0	0	0	0	0	0	0	0	0	0	0	0	0	0	0	0	0	0	0	0	0		1	0	0	0	0	0	0	0
012313	13:37:00	10028	Trial2BackFr	N	3	0	1000	1	13	13:37:00	1773522	0	0	0	0	0	0	0	0	0	0	0	0	0	0	0	0	0	0	0	0	0	0		1	0	0	0	0	0	0	0
012313	13:37:00	10028	Trial2BackFr	N	3	0	1000	1	14	13:37:00	1775042	0	0	0	0	0	0	0	0	0	0	0	0	0	0	0	0	0	0	0	0	0	0		1	0	0	0	0	0	0	0
012313	13:37:00	10028	Trial2BackFr	N	3	0	1000	1	15	13:37:00	1776548	0	0	0	0	0	0	0	0	0	0	0	0	0	0	0	0	0	0	0	0	0	0		1	0	0	0	0	0	0	0
012313	13:37:00	10028	Trial2BackFr	N	3	0	1000	1	16	13:37:00	1778054	0	0	0	0	0	0	0	0	0	0	0	0	0	0	0	0	0	0	0	0	0	0		1	0	0	0	0	0	0	0
012313	13:37:00	10028	Trial2BackFr	N	3	0	1000	1	17	13:37:00	1779560	0	0	0	0	0	0	0	0	0	0	0	0	0	0	0	0	0	0	0	0	0	0		1	0	0	0	0	0	0	0
012313	13:37:00	10028	Trial2BackFr	Y	3	57	513	1	18	13:37:00	1780586	0	0	0	0	0	0	0	0	0	0	0	0	0	0	0	0	0	0	0	0	0	0		1	0	0	0	0	0	0	0
012313	13:37:00	10028	Trial2BackFr	N	3	0	1000	1	19	13:37:00	1782572	0	0	0	0	0	0	0	0	0	0	0	0	0	0	0	0	0	0	0	0	0	0		1	0	0	0	0	0	0	0
012313	13:37:00	10028	Trial2BackFr	N	3	0	1000	1	20	13:37:00	1784091	0	0	0	0	0	0	0	0	0	0	0	0	0	0	0	0	0	0	0	0	0	0		1	0	0	0	0	0	0	0
012313	13:37:00	10028	Trial2BackFr	N	3	0	1000	1	21	13:37:00	1785597	0	0	0	0	0	0	0	0	0	0	0	0	0	0	0	0	0	0	0	0	0	0		1	0	0	0	0	0	0	0
012313	13:37:00	10028	Trial2BackFr	N	3	0	1000	1	22	13:37:00	1787103	0	0	0	0	0	0	0	0	0	0	0	0	0	0	0	0	0	0	0	0	0	0		1	0	0	0	0	0	0	0
012313	13:37:00	10028	Trial2BackFr	Y	3	57	601	1	23	13:37:00	1788223	0	0	0	0	0	0	0	0	0	0	0	0	0	0	0	0	0	0	0	0	0	0		1	0	0	0	0	0	0	0
012313	13:37:00	10028	Trial2BackFr	N	3	0	1000	1	24	13:37:00	1790116	0	0	0	0	0	0	0	0	0	0	0	0	0	0	0	0	0	0	0	0	0	0		1	0	0	0	0	0	0	0
012313	13:37:00	10028	Trial2BackFr	N	3	0	1000	1	25	13:37:00	1791635	0	0	0	0	0	0	0	0	0	0	0	0	0	0	0	0	0	0	0	0	0	0		1	0	0	0	0	0	0	0
012313	13:37:00	10028	Trial2BackFr	N	3	0	1000	1	26	13:37:00	1793141	0	0	0	0	0	0	0	0	0	0	0	0	0	0	0	0	0	0	0	0	0	0		1	0	0	0	0	0	0	0
012313	13:37:00	10028	Trial2BackFr	N	3	0	1000	1	27	13:37:00	1794647	0	0	0	0	0	0	0	0	0	0	0	0	0	0	0	0	0	0	0	0	0	0		1	0	0	0	0	0	0	0
012313	13:37:00	10028	Trial2BackFr	N	3	0	1000	1	28	13:37:00	1796166	0	0	0	0	0	0	0	0	0	0	0	0	0	0	0	0	0	0	0	0	0	0		1	0	0	0	0	0	0	0
012313	13:37:00	10028	Trial2BackFr	N	3	0	1000	1	29	13:37:00	1797672	0	0	0	0	0	0	0	0	0	0	0	0	0	0	0	0	0	0	0	0	0	0		1	0	0	0	0	0	0	0
012313	13:37:00	10028	Trial2BackFr	Y	3	57	451	1	30	13:37:00	1798645	0	0	0	0	0	0	0	0	0	0	0	0	0	0	0	0	0	0	0	0	0	0		1	0	0	0	0	0	0	0
012313	13:37:00	10028	Trial2BackFr	N	3	0	1000	1	31	13:37:00	1800684	0	0	0	0	0	0	0	0	0	0	0	0	0	0	0	0	0	0	0	0	0	0		1	0	0	0	0	0	0	0
012313	13:37:00	10028	Trial2BackFr	N	3	0	1000	1	32	13:37:00	1802204	0	0	0	0	0	0	0	0	0	0	0	0	0	0	0	0	0	0	0	0	0	0		1	0	0	0	0	0	0	0
012313	13:37:00	10028	Trial2BackFr	N	3	0	1000	1	33	13:37:00	1803710	0	0	0	0	0	0	0	0	0	0	0	0	0	0	0	0	0	0	0	0	0	0		1	0	0	0	0	0	0	0
012313	13:37:00	10028	Trial2BackFr	Y	3	57	427	1	34	13:37:00	1804656	0	0	0	0	0	0	0	0	0	0	0	0	0	0	0	0	0	0	0	0	0	0		1	0	0	0	0	0	0	0
012313	13:37:00	10028	Trial2BackFr	N	3	0	1000	1	35	13:37:00	1806722	0	0	0	0	0	0	0	0	0	0	0	0	0	0	0	0	0	0	0	0	0	0		1	0	0	0	0	0	0	0
012313	13:37:00	10028	Trial2BackFr	N	3	0	1000	1	36	13:37:00	1808241	0	0	0	0	0	0	0	0	0	0	0	0	0	0	0	0	0	0	0	0	0	0		1	0	0	0	0	0	0	0
012313	13:37:00	10028	Trial2BackFr	N	3	0	1000	1	37	13:37:00	1809760	0	0	0	0	0	0	0	0	0	0	0	0	0	0	0	0	0	0	0	0	0	0		1	0	0	0	0	0	0	0
012313	13:37:00	10028	Trial2BackFr	N	3	0	1000	1	38	13:37:00	1811267	0	0	0	0	0	0	0	0	0	0	0	0	0	0	0	0	0	0	0	0	0	0		1	0	0	0	0	0	0	0
012313	13:37:00	10028	Trial2BackFr	N	3	0	1000	1	39	13:37:00	1812786	0	0	0	0	0	0	0	0	0	0	0	0	0	0	0	0	0	0	0	0	0	0		1	0	0	0	0	0	0	0
012313	13:37:00	10028	Trial2BackFr	N	3	0	1000	1	40	13:37:00	1814292	0	0	0	0	0	0	0	0	0	0	0	0	0	0	0	0	0	0	0	0	0	0		1	0	0	0	0	0	0	0
012313	13:37:00	10028	Trial2BackFr	Y	3	57	388	1	41	13:37:00	1815198	0	0	0	0	0	0	0	0	0	0	0	0	0	0	0	0	0	0	0	0	0	0		1	0	0	0	0	0	0	0
012313	13:37:00	10028	Trial2BackFr	N	3	0	1000	1	42	13:37:00	1817304	0	0	0	0	0	0	0	0	0	0	0	0	0	0	0	0	0	0	0	0	0	0		1	0	0	0	0	0	0	0
012313	13:37:00	10028	Trial2BackFr	N	3	0	1000	1	43	13:37:00	1818810	0	0	0	0	0	0	0	0	0	0	0	0	0	0	0	0	0	0	0	0	0	0		1	0	0	0	0	0	0	0
012313	13:37:00	10028	Trial2BackFr	N	3	0	1000	1	44	13:37:00	1820316	0	0	0	0	0	0	0	0	0	0	0	0	0	0	0	0	0	0	0	0	0	0		1	0	0	0	0	0	0	0
012313	13:37:00	10028	Trial2BackFr	N	3	0	1000	1	45	13:37:00	1821822	0	0	0	0	0	0	0	0	0	0	0	0	0	0	0	0	0	0	0	0	0	0		1	0	0	0	0	0	0	0
012313	13:37:00	10028	Trial2BackFr	Y	3	57	441	1	46	13:37:00	1822782	0	0	0	0	0	0	0	0	0	0	0	0	0	0	0	0	0	0	0	0	0	0		1	0	0	0	0	0	0	0
012313	13:37:00	10028	Trial2BackFr	N	3	0	1000	1	47	13:37:00	1824834	0	0	0	0	0	0	0	0	0	0	0	0	0	0	0	0	0	0	0	0	0	0		1	0	0	0	0	0	0	0
012313	13:37:00	10028	Trial2BackFr	N	3	0	1000	1	48	13:37:00	1826354	0	0	0	0	0	0	0	0	0	0	0	0	0	0	0	0	0	0	0	0	0	0		1	0	0	0	0	0	0	0
012313	13:37:00	10028	Trial2BackFr	N	3	0	1000	1	49	13:37:00	1827860	0	0	0	0	0	0	0	0	0	0	0	0	0	0	0	0	0	0	0	0	0	0		1	0	0	0	0	0	0	0
012313	13:37:00	10028	Trial2BackFr	N	3	0	1000	1	50	13:37:00	1829366	0	0	0	0	0	0	0	0	0	0	0	0	0	0	0	0	0	0	0	0	0	0		1	0	0	0	0	0	0	0
012313	13:37:00	10028	Trial2BackFr	N	3	0	1000	1	51	13:37:00	1830872	0	0	0	0	0	0	0	0	0	0	0	0	0	0	0	0	0	0	0	0	0	0		1	0	0	0	0	0	0	0
012313	13:37:00	10028	Trial2BackFr	Y	3	57	400	1	52	13:37:00	1831791	0	0	0	0	0	0	0	0	0	0	0	0	0	0	0	0	0	0	0	0	0	0		1	0	0	0	0	0	0	0
012313	13:37:00	10028	Trial2BackFr	N	3	0	1000	1	53	13:37:00	1833884	0	0	0	0	0	0	0	0	0	0	0	0	0	0	0	0	0	0	0	0	0	0		1	0	0	0	0	0	0	0
012313	13:37:00	10028	Trial2BackFr	N	3	0	1000	1	54	13:37:00	1835403	0	0	0	0	0	0	0	0	0	0	0	0	0	0	0	0	0	0	0	0	0	0		1	0	0	0	0	0	0	0
012313	13:37:00	10028	Trial2BackFr	N	3	0	1000	1	55	13:37:00	1836909	0	0	0	0	0	0	0	0	0	0	0	0	0	0	0	0	0	0	0	0	0	0		1	0	0	0	0	0	0	0
012313	13:37:00	10028	Trial2BackFr	N	3	0	1000	1	56	13:37:00	1838415	0	0	0	0	0	0	0	0	0	0	0	0	0	0	0	0	0	0	0	0	0	0		1	0	0	0	0	0	0	0
012313	13:37:00	10028	Trial2BackFr	N	3	0	1000	1	57	13:37:00	1839921	0	0	0	0	0	0	0	0	0	0	0	0	0	0	0	0	0	0	0	0	0	0		1	0	0	0	0	0	0	0
012313	13:37:00	10028	Trial2BackFr	N	3	0	1000	1	58	13:37:00	1841441	0	0	0	0	0	0	0	0	0	0	0	0	0	0	0	0	0	0	0	0	0	0		1	0	0	0	0	0	0	0
012313	13:37:00	10028	Trial2BackFr	Y	3	57	470	1	59	13:37:00	1842427	0	0	0	0	0	0	0	0	0	0	0	0	0	0	0	0	0	0	0	0	0	0		1	0	0	0	0	0	0	0
012313	13:37:00	10028	Trial2BackFr	N	3	0	1000	1	60	13:37:00	1844453	0	0	0	0	0	0	0	0	0	0	0	0	0	0	0	0	0	0	0	0	0	0		1	0	0	0	0	0	0	0
012313	13:37:00	10028	Trial2BackFr	N	3	0	1000	1	61	13:37:00	1845972	0	0	0	0	0	0	0	0	0	0	0	0	0	0	0	0	0	0	0	0	0	0		1	0	0	0	0	0	0	0
012313	13:37:00	10028	Trial2BackFr	Y	3	57	626	1	62	13:37:00	1847118	0	0	0	0	0	0	0	0	0	0	0	0	0	0	0	0	0	0	0	0	0	0		1	0	0	0	0	0	0	0
012313	13:37:00	10028	Trial2BackFr	N	3	0	1000	1	63	13:37:00	1848984	0	0	0	0	0	0	0	0	0	0	0	0	0	0	0	0	0	0	0	0	0	0		1	0	0	0	0	0	0	0
012313	13:37:00	10028	Trial2BackFr	N	3	0	1000	1	64	13:37:00	1850490	0	0	0	0	0	0	0	0	0	0	0	0	0	0	0	0	0	0	0	0	0	0		1	0	0	0	0	0	0	0
012313	13:37:00	10028	Trial2BackFr	N	3	0	1000	1	65	13:37:00	1851996	0	0	0	0	0	0	0	0	0	0	0	0	0	0	0	0	0	0	0	0	0	0		1	0	0	0	0	0	0	0
012313	13:37:00	10028	Trial2BackFr	N	3	0	1000	1	66	13:37:00	1853502	0	0	0	0	0	0	0	0	0	0	0	0	0	0	0	0	0	0	0	0	0	0		1	0	0	0	0	0	0	0
012313	13:37:00	10028	Trial2BackFr	N	3	0	1000	1	67	13:37:00	1855022	0	0	0	0	0	0	0	0	0	0	0	0	0	0	0	0	0	0	0	0	0	0		1	0	0	0	0	0	0	0
012313	13:37:00	10028	Trial2BackFr	N	3	0	1000	1	68	13:37:00	1856541	0	0	0	0	0	0	0	0	0	0	0	0	0	0	0	0	0	0	0	0	0	0		1	0	0	0	0	0	0	0
012313	13:37:00	10028	Trial2BackFr	N	3	0	1000	1	69	13:37:00	1858047	0	0	0	0	0	0	0	0	0	0	0	0	0	0	0	0	0	0	0	0	0	0		1	0	0	0	0	0	0	0
012313	13:37:00	10028	Trial2BackFr	N	3	0	1000	1	70	13:37:00	1859553	0	0	0	0	0	0	0	0	0	0	0	0	0	0	0	0	0	0	0	0	0	0		1	0	0	0	0	0	0	0
012313	13:37:00	10028	Trial2BackFr	N	3	0	1000	1	71	13:37:00	1861059	0	0	0	0	0	0	0	0	0	0	0	0	0	0	0	0	0	0	0	0	0	0		1	0	0	0	0	0	0	0
012313	13:37:00	10028	Trial2BackFr	N	3	0	1000	1	72	13:37:00	1862565	0	0	0	0	0	0	0	0	0	0	0	0	0	0	0	0	0	0	0	0	0	0		1	0	0	0	0	0	0	0
012313	13:37:00	10028	Trial2BackFr	Y	3	57	417	1	73	13:37:00	1863498	0	0	0	0	0	0	0	0	0	0	0	0	0	0	0	0	0	0	0	0	0	0		1	0	0	0	0	0	0	0
012313	13:37:00	10028	Trial2BackFr	N	3	0	1000	1	74	13:37:00	1865577	0	0	0	0	0	0	0	0	0	0	0	0	0	0	0	0	0	0	0	0	0	0		1	0	0	0	0	0	0	0
012313	13:37:00	10028	Trial2BackFr	N	3	0	1000	1	75	13:37:00	1867097	0	0	0	0	0	0	0	0	0	0	0	0	0	0	0	0	0	0	0	0	0	0		1	0	0	0	0	0	0	0
012313	13:37:00	10028	Trial2BackFr	N	3	0	1000	1	76	13:37:00	1868603	0	0	0	0	0	0	0	0	0	0	0	0	0	0	0	0	0	0	0	0	0	0		1	0	0	0	0	0	0	0
012313	13:37:00	10028	Trial2BackFr	Y	3	57	427	1	77	13:37:00	1869549	0	0	0	0	0	0	0	0	0	0	0	0	0	0	0	0	0	0	0	0	0	0		1	0	0	0	0	0	0	0
012313	13:37:00	10028	Trial2BackFr	N	3	0	1000	1	78	13:37:00	1871615	0	0	0	0	0	0	0	0	0	0	0	0	0	0	0	0	0	0	0	0	0	0		1	0	0	0	0	0	0	0
012313	13:37:00	10028	Trial2BackFr	N	3	0	1000	1	79	13:37:00	1873121	0	0	0	0	0	0	0	0	0	0	0	0	0	0	0	0	0	0	0	0	0	0		1	0	0	0	0	0	0	0
012313	13:37:00	10028	Trial2BackFr	N	3	0	1000	1	80	13:37:00	1874627	0	0	0	0	0	0	0	0	0	0	0	0	0	0	0	0	0	0	0	0	0	0		1	0	0	0	0	0	0	0
012313	13:37:00	10028	Trial2BackFr	N	3	0	1000	1	81	13:37:00	1876133	0	0	0	0	0	0	0	0	0	0	0	0	0	0	0	0	0	0	0	0	0	0		1	0	0	0	0	0	0	0
012313	13:37:00	10028	Trial2BackFr	N	3	0	1000	1	82	13:37:00	1877639	0	0	0	0	0	0	0	0	0	0	0	0	0	0	0	0	0	0	0	0	0	0		1	0	0	0	0	0	0	0
012313	13:37:00	10028	Trial2BackFr	Y	3	57	399	1	83	13:37:00	1878559	0	0	0	0	0	0	0	0	0	0	0	0	0	0	0	0	0	0	0	0	0	0		1	0	0	0	0	0	0	0
012313	13:37:00	10028	Trial2BackFr	N	3	0	1000	1	84	13:37:00	1880651	0	0	0	0	0	0	0	0	0	0	0	0	0	0	0	0	0	0	0	0	0	0		1	0	0	0	0	0	0	0
012313	13:37:00	10028	Trial2BackFr	N	3	0	1000	1	85	13:37:00	1882157	0	0	0	0	0	0	0	0	0	0	0	0	0	0	0	0	0	0	0	0	0	0		1	0	0	0	0	0	0	0
012313	13:37:00	10028	Trial2BackFr	N	3	0	1000	1	86	13:37:00	1883663	0	0	0	0	0	0	0	0	0	0	0	0	0	0	0	0	0	0	0	0	0	0		1	0	0	0	0	0	0	0
012313	13:37:00	10028	Trial2BackFr	N	3	0	1000	1	87	13:37:00	1885182	0	0	0	0	0	0	0	0	0	0	0	0	0	0	0	0	0	0	0	0	0	0		1	0	0	0	0	0	0	0
012313	13:37:00	10028	Trial2BackFr	N	3	0	1000	1	88	13:37:00	1886689	0	0	0	0	0	0	0	0	0	0	0	0	0	0	0	0	0	0	0	0	0	0		1	0	0	0	0	0	0	0
012313	13:37:00	10028	Trial2BackFr	N	3	0	1000	1	89	13:37:00	1888208	0	0	0	0	0	0	0	0	0	0	0	0	0	0	0	0	0	0	0	0	0	0		1	0	0	0	0	0	0	0
012313	13:37:00	10028	Trial2BackFr	N	3	0	1000	1	90	13:37:00	1889714	0	0	0	0	0	0	0	0	0	0	0	0	0	0	0	0	0	0	0	0	0	0		1	0	0	0	0	0	0	0
012313	13:37:00	10028	Trial2BackFr	N	3	0	1000	1	91	13:37:00	1891220	0	0	0	0	0	0	0	0	0	0	0	0	0	0	0	0	0	0	0	0	0	0		1	0	0	0	0	0	0	0
012313	13:37:00	10028	Trial2BackFr	N	3	0	1000	1	92	13:37:00	1892726	0	0	0	0	0	0	0	0	0	0	0	0	0	0	0	0	0	0	0	0	0	0		1	0	0	0	0	0	0	0
012313	13:37:00	10028	Trial2BackFr	Y	3	0	1000	0	92	13:37:00	1894245	0	0	0	0	0	0	0	0	0	0	0	0	0	0	0	0	0	0	0	0	0	0		1	0	0	0	0	0	0	0
012313	13:37:00	10028	Trial2BackFr	N	3	0	1000	1	93	13:37:00	1895751	0	0	0	0	0	0	0	0	0	0	0	0	0	0	0	0	0	0	0	0	0	0		1	0	0	0	0	0	0	0
012313	13:37:00	10028	Trial2BackFr	N	3	0	1000	1	94	13:37:00	1897257	0	0	0	0	0	0	0	0	0	0	0	0	0	0	0	0	0	0	0	0	0	0		1	0	0	0	0	0	0	0
012313	13:37:00	10028	Trial2BackFr	N	3	0	1000	1	95	13:37:00	1898764	0	0	0	0	0	0	0	0	0	0	0	0	0	0	0	0	0	0	0	0	0	0		1	0	0	0	0	0	0	0
012313	13:37:00	10028	Trial2BackFr	N	3	0	1000	1	96	13:37:00	1900270	0	0	0	0	0	0	0	0	0	0	0	0	0	0	0	0	0	0	0	0	0	0		1	0	0	0	0	0	0	0
012313	13:37:00	10028	Trial2BackFr	N	3	0	1000	1	97	13:37:00	1901776	0	0	0	0	0	0	0	0	0	0	0	0	0	0	0	0	0	0	0	0	0	0		1	0	0	0	0	0	0	0
012313	13:37:00	10028	Trial2BackFr	N	3	0	1000	1	98	13:37:00	1903282	0	0	0	0	0	0	0	0	0	0	0	0	0	0	0	0	0	0	0	0	0	0		1	0	0	0	0	0	0	0
012313	13:37:00	10028	Trial2BackFr	N	3	0	1000	1	99	13:37:00	1904801	0	0	0	0	0	0	0	0	0	0	0	0	0	0	0	0	0	0	0	0	0	0		1	0	0	0	0	0	0	0
012313	13:37:00	10028	Trial2BackFr	N	3	0	1000	1	100	13:37:00	1906307	0	0	0	0	0	0	0	0	0	0	0	0	0	0	0	0	0	0	0	0	0	0		1	0	0	0	0	0	0	0
012313	13:37:00	10028	Trial2BackFr	Y	3	57	626	1	101	13:37:00	1907453	0	0	0	0	0	0	0	0	0	0	0	0	0	0	0	0	0	0	0	0	0	0		1	0	0	0	0	0	0	0
012313	13:37:00	10028	Trial2BackFr	N	3	0	1000	1	102	13:37:00	1909319	0	0	0	0	0	0	0	0	0	0	0	0	0	0	0	0	0	0	0	0	0	0		1	0	0	0	0	0	0	0
012313	13:37:00	10028	Trial2BackFr	N	3	0	1000	1	103	13:37:00	1910825	0	0	0	0	0	0	0	0	0	0	0	0	0	0	0	0	0	0	0	0	0	0		1	0	0	0	0	0	0	0
012313	13:37:00	10028	Trial2BackFr	N	3	0	1000	1	104	13:37:00	1912331	0	0	0	0	0	0	0	0	0	0	0	0	0	0	0	0	0	0	0	0	0	0		1	0	0	0	0	0	0	0
012313	13:37:00	10028	Trial2BackFr	N	3	0	1000	1	105	13:37:00	1913837	0	0	0	0	0	0	0	0	0	0	0	0	0	0	0	0	0	0	0	0	0	0		1	0	0	0	0	0	0	0
012313	13:37:00	10028	Trial2BackFr	Y	3	57	503	1	106	13:37:00	1914850	0	0	0	0	0	0	0	0	0	0	0	0	0	0	0	0	0	0	0	0	0	0		1	0	0	0	0	0	0	0
012313	13:37:00	10028	Trial2BackFr	N	3	0	1000	1	107	13:37:00	1916849	0	0	0	0	0	0	0	0	0	0	0	0	0	0	0	0	0	0	0	0	0	0		1	0	0	0	0	0	0	0
012313	13:37:00	10028	Trial2BackFr	N	3	0	1000	1	108	13:37:00	1918355	0	0	0	0	0	0	0	0	0	0	0	0	0	0	0	0	0	0	0	0	0	0		1	0	0	0	0	0	0	0
012313	13:37:00	10028	Trial2BackFr	N	3	0	1000	1	109	13:37:00	1919875	0	0	0	0	0	0	0	0	0	0	0	0	0	0	0	0	0	0	0	0	0	0		1	0	0	0	0	0	0	0
012313	13:37:00	10028	Trial2BackFr	Y	3	57	385	1	110	13:37:00	1920781	0	0	0	0	0	0	0	0	0	0	0	0	0	0	0	0	0	0	0	0	0	0		1	0	0	0	0	0	0	0
012313	13:37:00	10028	Trial2BackFr	N	3	0	1000	1	111	13:37:00	1922887	0	0	0	0	0	0	0	0	0	0	0	0	0	0	0	0	0	0	0	0	0	0		1	0	0	0	0	0	0	0
012313	13:37:00	10028	Trial2BackFr	N	3	0	1000	1	112	13:37:00	1924393	0	0	0	0	0	0	0	0	0	0	0	0	0	0	0	0	0	0	0	0	0	0		1	0	0	0	0	0	0	0
012313	13:37:00	10028	Trial2BackFr	N	3	0	1000	1	113	13:37:00	1925899	0	0	0	0	0	0	0	0	0	0	0	0	0	0	0	0	0	0	0	0	0	0		1	0	0	0	0	0	0	0
012313	13:37:00	10028	Trial2BackFr	N	3	0	1000	1	114	13:37:00	1927418	0	0	0	0	0	0	0	0	0	0	0	0	0	0	0	0	0	0	0	0	0	0		1	0	0	0	0	0	0	0
012313	13:37:00	10028	Trial2BackFr	N	3	0	1000	1	115	13:37:00	1928924	0	0	0	0	0	0	0	0	0	0	0	0	0	0	0	0	0	0	0	0	0	0		1	0	0	0	0	0	0	0
012313	13:37:00	10028	Trial2BackFr	Y	3	57	424	1	116	13:37:00	1929857	0	0	0	0	0	0	0	0	0	0	0	0	0	0	0	0	0	0	0	0	0	0		1	0	0	0	0	0	0	0
012313	13:37:00	10028	Trial2BackFr	N	3	0	1000	1	117	13:37:00	1931936	0	0	0	0	0	0	0	0	0	0	0	0	0	0	0	0	0	0	0	0	0	0		1	0	0	0	0	0	0	0
012313	13:37:00	10028	Trial2BackFr	N	3	0	1000	1	118	13:37:00	1933442	0	0	0	0	0	0	0	0	0	0	0	0	0	0	0	0	0	0	0	0	0	0		1	0	0	0	0	0	0	0
012313	13:37:00	10028	Trial2BackFr	N	3	0	1000	1	119	13:37:00	1934948	0	0	0	0	0	0	0	0	0	0	0	0	0	0	0	0	0	0	0	0	0	0		1	0	0	0	0	0	0	0
012313	13:37:00	10028	Trial2BackFr	Y	3	57	383	1	120	13:37:00	1935841	0	0	0	0	0	0	0	0	0	0	0	0	0	0	0	0	0	0	0	0	0	0		1	0	0	0	0	0	0	0
012313	13:37:00	10028	Trial3BackFr	NN	4	0	1000	1	120	13:37:00	1994737	0	0	0	0	0	0	0	0	0	0	0	0	0	0	0	0	0	0	0	0	0	0		1	0	0	0	0	0	0	0
012313	13:37:00	10028	Trial3BackFr	NN	4	0	1000	1	120	13:37:00	1996256	0	0	0	0	0	0	0	0	0	0	0	0	0	0	0	0	0	0	0	0	0	0		1	0	0	0	0	0	0	0
012313	13:37:00	10028	Trial3BackFr	NN	4	0	1000	1	120	13:37:00	1997762	0	0	0	0	0	0	0	0	0	0	0	0	0	0	0	0	0	0	0	0	0	0		1	0	0	0	0	0	0	0
012313	13:37:00	10028	Trial3BackFr	YY	4	57	527	1	120	13:37:00	1998802	0	0	0	0	0	0	0	0	0	0	0	0	0	0	0	0	0	0	0	0	0	0		1	0	0	0	0	0	0	0
012313	13:37:00	10028	Trial3BackFr	NN	4	0	1000	1	120	13:37:00	2000774	0	0	0	0	0	0	0	0	0	0	0	0	0	0	0	0	0	0	0	0	0	0		1	0	0	0	0	0	0	0
012313	13:37:00	10028	Trial3BackFr	NN	4	0	1000	1	120	13:37:00	2002294	0	0	0	0	0	0	0	0	0	0	0	0	0	0	0	0	0	0	0	0	0	0		1	0	0	0	0	0	0	0
012313	13:37:00	10028	Trial3BackFr	NN	4	0	1000	1	120	13:37:00	2003800	0	0	0	0	0	0	0	0	0	0	0	0	0	0	0	0	0	0	0	0	0	0		1	0	0	0	0	0	0	0
012313	13:37:00	10028	Trial3BackFr	NN	4	0	1000	1	120	13:37:00	2005306	0	0	0	0	0	0	0	0	0	0	0	0	0	0	0	0	0	0	0	0	0	0		1	0	0	0	0	0	0	0
012313	13:37:00	10028	Trial3BackFr	YY	4	57	663	1	120	13:37:00	2006478	0	0	0	0	0	0	0	0	0	0	0	0	0	0	0	0	0	0	0	0	0	0		1	0	0	0	0	0	0	0
012313	13:37:00	10028	Trial3BackFr	NN	4	0	1000	1	120	13:37:00	2008318	0	0	0	0	0	0	0	0	0	0	0	0	0	0	0	0	0	0	0	0	0	0		1	0	0	0	0	0	0	0
012313	13:37:00	10028	Trial3BackFr	NN	4	0	1000	1	120	13:37:00	2009824	0	0	0	0	0	0	0	0	0	0	0	0	0	0	0	0	0	0	0	0	0	0		1	0	0	0	0	0	0	0
012313	13:37:00	10028	Trial3BackFr	NN	4	0	1000	1	120	13:37:00	2011330	0	0	0	0	0	0	0	0	0	0	0	0	0	0	0	0	0	0	0	0	0	0		1	0	0	0	0	0	0	0
012313	13:37:00	10028	Trial3BackFr	NN	4	0	1000	1	120	13:37:00	2012850	0	0	0	0	0	0	0	0	0	0	0	0	0	0	0	0	0	0	0	0	0	0		1	0	0	0	0	0	0	0
012313	13:37:00	10028	Trial3BackFr	NN	4	0	1000	1	120	13:37:00	2014355	0	0	0	0	0	0	0	0	0	0	0	0	0	0	0	0	0	0	0	0	0	0		1	0	0	0	0	0	0	0
012313	13:37:00	10028	Trial3BackFr	NN	4	0	1000	1	120	13:37:00	2015861	0	0	0	0	0	0	0	0	0	0	0	0	0	0	0	0	0	0	0	0	0	0		1	0	0	0	0	0	0	0
012313	13:37:00	10028	Trial3BackFr	NN	4	0	1000	1	120	13:37:00	2017368	0	0	0	0	0	0	0	0	0	0	0	0	0	0	0	0	0	0	0	0	0	0		1	0	0	0	0	0	0	0
012313	13:37:00	10028	Trial3BackFr	YY	4	0	1000	0	120	13:37:00	2018874	0	0	0	0	0	0	0	0	0	0	0	0	0	0	0	0	0	0	0	0	0	0		1	0	0	0	0	0	0	0
012313	13:37:00	10028	Trial3BackFr	NN	4	0	1000	1	120	13:37:00	2020380	0	0	0	0	0	0	0	0	0	0	0	0	0	0	0	0	0	0	0	0	0	0		1	0	0	0	0	0	0	0
012313	13:37:00	10028	Trial3BackFr	NN	4	0	1000	1	120	13:37:00	2021899	0	0	0	0	0	0	0	0	0	0	0	0	0	0	0	0	0	0	0	0	0	0		1	0	0	0	0	0	0	0
012313	13:37:00	10028	Trial3BackFr	NN	4	0	1000	1	120	13:37:00	2023405	0	0	0	0	0	0	0	0	0	0	0	0	0	0	0	0	0	0	0	0	0	0		1	0	0	0	0	0	0	0
012313	13:37:00	10028	Trial3BackFr	NN	4	0	1000	1	120	13:37:00	2024911	0	0	0	0	0	0	0	0	0	0	0	0	0	0	0	0	0	0	0	0	0	0		1	0	0	0	0	0	0	0
012313	13:37:00	10028	Trial3BackFr	NN	4	0	1000	1	120	13:37:00	2026417	0	0	0	0	0	0	0	0	0	0	0	0	0	0	0	0	0	0	0	0	0	0		1	0	0	0	0	0	0	0
012313	13:37:00	10028	Trial3BackFr	YY	4	57	399	1	120	13:37:00	2027337	0	0	0	0	0	0	0	0	0	0	0	0	0	0	0	0	0	0	0	0	0	0		1	0	0	0	0	0	0	0
012313	13:37:00	10028	Trial3BackFr	NN	4	0	1000	1	120	13:37:00	2029429	0	0	0	0	0	0	0	0	0	0	0	0	0	0	0	0	0	0	0	0	0	0		1	0	0	0	0	0	0	0
012313	13:37:00	10028	Trial3BackFr	NN	4	0	1000	1	120	13:37:00	2030935	0	0	0	0	0	0	0	0	0	0	0	0	0	0	0	0	0	0	0	0	0	0		1	0	0	0	0	0	0	0
012313	13:37:00	10028	Trial3BackFr	NN	4	0	1000	1	120	13:37:00	2032455	0	0	0	0	0	0	0	0	0	0	0	0	0	0	0	0	0	0	0	0	0	0		1	0	0	0	0	0	0	0
012313	13:37:00	10028	Trial3BackFr	YY	4	57	506	1	120	13:37:00	2033481	0	0	0	0	0	0	0	0	0	0	0	0	0	0	0	0	0	0	0	0	0	0		1	0	0	0	0	0	0	0
012313	13:37:00	10028	Trial3BackFr	NN	4	0	1000	1	120	13:37:00	2035467	0	0	0	0	0	0	0	0	0	0	0	0	0	0	0	0	0	0	0	0	0	0		1	0	0	0	0	0	0	0
012313	13:37:00	10028	Trial3BackFr	NN	4	0	1000	1	120	13:37:00	2036973	0	0	0	0	0	0	0	0	0	0	0	0	0	0	0	0	0	0	0	0	0	0		1	0	0	0	0	0	0	0
012313	13:37:00	10028	Trial3BackFr	NN	4	0	1000	1	120	13:37:00	2038479	0	0	0	0	0	0	0	0	0	0	0	0	0	0	0	0	0	0	0	0	0	0		1	0	0	0	0	0	0	0
012313	13:37:00	10028	Trial3BackFr	YY	4	57	369	1	120	13:37:00	2039358	0	0	0	0	0	0	0	0	0	0	0	0	0	0	0	0	0	0	0	0	0	0		1	0	0	0	0	0	0	0
012313	13:37:00	10028	Trial3BackFr	NN	4	0	1000	1	120	13:37:00	2041491	0	0	0	0	0	0	0	0	0	0	0	0	0	0	0	0	0	0	0	0	0	0		1	0	0	0	0	0	0	0
012313	13:37:00	10028	Trial3BackFr	NN	4	0	1000	1	120	13:37:00	2042997	0	0	0	0	0	0	0	0	0	0	0	0	0	0	0	0	0	0	0	0	0	0		1	0	0	0	0	0	0	0
012313	13:37:00	10028	Trial3BackFr	NN	4	0	1000	1	120	13:37:00	2044503	0	0	0	0	0	0	0	0	0	0	0	0	0	0	0	0	0	0	0	0	0	0		1	0	0	0	0	0	0	0
012313	13:37:00	10028	Trial3BackFr	NN	4	0	1000	1	120	13:37:00	2046009	0	0	0	0	0	0	0	0	0	0	0	0	0	0	0	0	0	0	0	0	0	0		1	0	0	0	0	0	0	0
012313	13:37:00	10028	Trial3BackFr	NN	4	0	1000	1	120	13:37:00	2047515	0	0	0	0	0	0	0	0	0	0	0	0	0	0	0	0	0	0	0	0	0	0		1	0	0	0	0	0	0	0
012313	13:37:00	10028	Trial3BackFr	NN	4	0	1000	1	120	13:37:00	2049021	0	0	0	0	0	0	0	0	0	0	0	0	0	0	0	0	0	0	0	0	0	0		1	0	0	0	0	0	0	0
012313	13:37:00	10028	Trial3BackFr	NN	4	0	1000	1	120	13:37:00	2050527	0	0	0	0	0	0	0	0	0	0	0	0	0	0	0	0	0	0	0	0	0	0		1	0	0	0	0	0	0	0
012313	13:37:00	10028	Trial3BackFr	NN	4	0	1000	1	120	13:37:00	2052033	0	0	0	0	0	0	0	0	0	0	0	0	0	0	0	0	0	0	0	0	0	0		1	0	0	0	0	0	0	0
012313	13:37:00	10028	Trial3BackFr	NN	4	0	1000	1	120	13:37:00	2053539	0	0	0	0	0	0	0	0	0	0	0	0	0	0	0	0	0	0	0	0	0	0		1	0	0	0	0	0	0	0
012313	13:37:00	10028	Trial3BackFr	NN	4	0	1000	1	120	13:37:00	2055059	0	0	0	0	0	0	0	0	0	0	0	0	0	0	0	0	0	0	0	0	0	0		1	0	0	0	0	0	0	0
012313	13:37:00	10028	Trial3BackFr	YY	4	57	717	1	120	13:37:00	2056285	0	0	0	0	0	0	0	0	0	0	0	0	0	0	0	0	0	0	0	0	0	0		1	0	0	0	0	0	0	0
012313	13:37:00	10028	Trial3BackFr	NN	4	0	1000	1	120	13:37:00	2058071	0	0	0	0	0	0	0	0	0	0	0	0	0	0	0	0	0	0	0	0	0	0		1	0	0	0	0	0	0	0
012313	13:37:00	10028	Trial3BackFr	NN	4	0	1000	1	120	13:37:00	2059577	0	0	0	0	0	0	0	0	0	0	0	0	0	0	0	0	0	0	0	0	0	0		1	0	0	0	0	0	0	0
012313	13:37:00	10028	Trial3BackFr	NN	4	0	1000	1	120	13:37:00	2061083	0	0	0	0	0	0	0	0	0	0	0	0	0	0	0	0	0	0	0	0	0	0		1	0	0	0	0	0	0	0
012313	13:37:00	10028	Trial3BackFr	NN	4	0	1000	1	120	13:37:00	2062589	0	0	0	0	0	0	0	0	0	0	0	0	0	0	0	0	0	0	0	0	0	0		1	0	0	0	0	0	0	0
012313	13:37:00	10028	Trial3BackFr	YY	4	57	578	1	120	13:37:00	2063682	0	0	0	0	0	0	0	0	0	0	0	0	0	0	0	0	0	0	0	0	0	0		1	0	0	0	0	0	0	0
012313	13:37:00	10028	Trial3BackFr	NN	4	0	1000	1	120	13:37:00	2065601	0	0	0	0	0	0	0	0	0	0	0	0	0	0	0	0	0	0	0	0	0	0		1	0	0	0	0	0	0	0
012313	13:37:00	10028	Trial3BackFr	NN	4	0	1000	1	120	13:37:00	2067107	0	0	0	0	0	0	0	0	0	0	0	0	0	0	0	0	0	0	0	0	0	0		1	0	0	0	0	0	0	0
012313	13:37:00	10028	Trial3BackFr	NN	4	0	1000	1	120	13:37:00	2068613	0	0	0	0	0	0	0	0	0	0	0	0	0	0	0	0	0	0	0	0	0	0		1	0	0	0	0	0	0	0
012313	13:37:00	10028	Trial3BackFr	NN	4	0	1000	1	120	13:37:00	2070119	0	0	0	0	0	0	0	0	0	0	0	0	0	0	0	0	0	0	0	0	0	0		1	0	0	0	0	0	0	0
012313	13:37:00	10028	Trial3BackFr	NN	4	0	1000	1	120	13:37:00	2071638	0	0	0	0	0	0	0	0	0	0	0	0	0	0	0	0	0	0	0	0	0	0		1	0	0	0	0	0	0	0
012313	13:37:00	10028	Trial3BackFr	YY	4	57	408	1	120	13:37:00	2072558	0	0	0	0	0	0	0	0	0	0	0	0	0	0	0	0	0	0	0	0	0	0		1	0	0	0	0	0	0	0
012313	13:37:00	10028	Trial3BackFr	NN	4	0	1000	1	120	13:37:00	2074650	0	0	0	0	0	0	0	0	0	0	0	0	0	0	0	0	0	0	0	0	0	0		1	0	0	0	0	0	0	0
012313	13:37:00	10028	Trial3BackFr	NN	4	0	1000	1	120	13:37:00	2076156	0	0	0	0	0	0	0	0	0	0	0	0	0	0	0	0	0	0	0	0	0	0		1	0	0	0	0	0	0	0
012313	13:37:00	10028	Trial3BackFr	NN	4	0	1000	1	120	13:37:00	2077663	0	0	0	0	0	0	0	0	0	0	0	0	0	0	0	0	0	0	0	0	0	0		1	0	0	0	0	0	0	0
012313	13:37:00	10028	Trial3BackFr	NN	4	0	1000	1	120	13:37:00	2079169	0	0	0	0	0	0	0	0	0	0	0	0	0	0	0	0	0	0	0	0	0	0		1	0	0	0	0	0	0	0
012313	13:37:00	10028	Trial3BackFr	NN	4	0	1000	1	120	13:37:00	2080675	0	0	0	0	0	0	0	0	0	0	0	0	0	0	0	0	0	0	0	0	0	0		1	0	0	0	0	0	0	0
012313	13:37:00	10028	Trial3BackFr	NN	4	0	1000	1	120	13:37:00	2082181	0	0	0	0	0	0	0	0	0	0	0	0	0	0	0	0	0	0	0	0	0	0		1	0	0	0	0	0	0	0
012313	13:37:00	10028	Trial3BackFr	YY	4	57	618	1	120	13:37:00	2083313	0	0	0	0	0	0	0	0	0	0	0	0	0	0	0	0	0	0	0	0	0	0		1	0	0	0	0	0	0	0
012313	13:37:00	10028	Trial3BackFr	NN	4	0	1000	1	120	13:37:00	2085193	0	0	0	0	0	0	0	0	0	0	0	0	0	0	0	0	0	0	0	0	0	0		1	0	0	0	0	0	0	0
012313	13:37:00	10028	Trial3BackFr	NN	4	0	1000	1	120	13:37:00	2086699	0	0	0	0	0	0	0	0	0	0	0	0	0	0	0	0	0	0	0	0	0	0		1	0	0	0	0	0	0	0
012313	13:37:00	10028	Trial3BackFr	NN	4	0	1000	1	120	13:37:00	2088205	0	0	0	0	0	0	0	0	0	0	0	0	0	0	0	0	0	0	0	0	0	0		1	0	0	0	0	0	0	0
012313	13:37:00	10028	Trial3BackFr	YY	4	57	386	1	120	13:37:00	2089111	0	0	0	0	0	0	0	0	0	0	0	0	0	0	0	0	0	0	0	0	0	0		1	0	0	0	0	0	0	0
012313	13:37:00	10028	Trial3BackFr	NN	4	0	1000	1	120	13:37:00	2091217	0	0	0	0	0	0	0	0	0	0	0	0	0	0	0	0	0	0	0	0	0	0		1	0	0	0	0	0	0	0
012313	13:37:00	10028	Trial3BackFr	NN	4	0	1000	1	120	13:37:00	2092736	0	0	0	0	0	0	0	0	0	0	0	0	0	0	0	0	0	0	0	0	0	0		1	0	0	0	0	0	0	0
012313	13:37:00	10028	Trial3BackFr	NN	4	0	1000	1	120	13:37:00	2094242	0	0	0	0	0	0	0	0	0	0	0	0	0	0	0	0	0	0	0	0	0	0		1	0	0	0	0	0	0	0
012313	13:37:00	10028	Trial3BackFr	NN	4	0	1000	1	120	13:37:00	2095762	0	0	0	0	0	0	0	0	0	0	0	0	0	0	0	0	0	0	0	0	0	0		1	0	0	0	0	0	0	0
012313	13:37:00	10028	Trial3BackFr	NN	4	0	1000	1	120	13:37:00	2097268	0	0	0	0	0	0	0	0	0	0	0	0	0	0	0	0	0	0	0	0	0	0		1	0	0	0	0	0	0	0
012313	13:37:00	10028	Trial3BackFr	NN	4	0	1000	1	120	13:37:00	2098774	0	0	0	0	0	0	0	0	0	0	0	0	0	0	0	0	0	0	0	0	0	0		1	0	0	0	0	0	0	0
012313	13:37:00	10028	Trial3BackFr	NN	4	0	1000	1	120	13:37:00	2100293	0	0	0	0	0	0	0	0	0	0	0	0	0	0	0	0	0	0	0	0	0	0		1	0	0	0	0	0	0	0
012313	13:37:00	10028	Trial3BackFr	NN	4	0	1000	1	120	13:37:00	2101799	0	0	0	0	0	0	0	0	0	0	0	0	0	0	0	0	0	0	0	0	0	0		1	0	0	0	0	0	0	0
012313	13:37:00	10028	Trial3BackFr	NN	4	0	1000	1	120	13:37:00	2103305	0	0	0	0	0	0	0	0	0	0	0	0	0	0	0	0	0	0	0	0	0	0		1	0	0	0	0	0	0	0
012313	13:37:00	10028	Trial3BackFr	YY	4	0	1000	0	120	13:37:00	2104811	0	0	0	0	0	0	0	0	0	0	0	0	0	0	0	0	0	0	0	0	0	0		1	0	0	0	0	0	0	0
012313	13:37:00	10028	Trial3BackFr	NN	4	0	1000	1	120	13:37:00	2106317	0	0	0	0	0	0	0	0	0	0	0	0	0	0	0	0	0	0	0	0	0	0		1	0	0	0	0	0	0	0
012313	13:37:00	10028	Trial3BackFr	NN	4	0	1000	1	120	13:37:00	2107823	0	0	0	0	0	0	0	0	0	0	0	0	0	0	0	0	0	0	0	0	0	0		1	0	0	0	0	0	0	0
012313	13:37:00	10028	Trial3BackFr	NN	4	0	1000	1	120	13:37:00	2109329	0	0	0	0	0	0	0	0	0	0	0	0	0	0	0	0	0	0	0	0	0	0		1	0	0	0	0	0	0	0
012313	13:37:00	10028	Trial3BackFr	YY	4	57	524	1	120	13:37:00	2110369	0	0	0	0	0	0	0	0	0	0	0	0	0	0	0	0	0	0	0	0	0	0		1	0	0	0	0	0	0	0
012313	13:37:00	10028	Trial3BackFr	NN	4	0	1000	1	120	13:37:00	2112341	0	0	0	0	0	0	0	0	0	0	0	0	0	0	0	0	0	0	0	0	0	0		1	0	0	0	0	0	0	0
012313	13:37:00	10028	Trial3BackFr	NN	4	0	1000	1	120	13:37:00	2113847	0	0	0	0	0	0	0	0	0	0	0	0	0	0	0	0	0	0	0	0	0	0		1	0	0	0	0	0	0	0
012313	13:37:00	10028	Trial3BackFr	NN	4	0	1000	1	120	13:37:00	2115354	0	0	0	0	0	0	0	0	0	0	0	0	0	0	0	0	0	0	0	0	0	0		1	0	0	0	0	0	0	0
012313	13:37:00	10028	Trial3BackFr	NN	4	0	1000	1	120	13:37:00	2116860	0	0	0	0	0	0	0	0	0	0	0	0	0	0	0	0	0	0	0	0	0	0		1	0	0	0	0	0	0	0
012313	13:37:00	10028	Trial3BackFr	NN	4	0	1000	1	120	13:37:00	2118366	0	0	0	0	0	0	0	0	0	0	0	0	0	0	0	0	0	0	0	0	0	0		1	0	0	0	0	0	0	0
012313	13:37:00	10028	Trial3BackFr	YY	4	57	624	1	120	13:37:00	2119498	0	0	0	0	0	0	0	0	0	0	0	0	0	0	0	0	0	0	0	0	0	0		1	0	0	0	0	0	0	0
012313	13:37:00	10028	Trial3BackFr	NN	4	0	1000	1	120	13:37:00	2121378	0	0	0	0	0	0	0	0	0	0	0	0	0	0	0	0	0	0	0	0	0	0		1	0	0	0	0	0	0	0
012313	13:37:00	10028	Trial3BackFr	NN	4	0	1000	1	120	13:37:00	2122884	0	0	0	0	0	0	0	0	0	0	0	0	0	0	0	0	0	0	0	0	0	0		1	0	0	0	0	0	0	0
012313	13:37:00	10028	Trial3BackFr	NN	4	0	1000	1	120	13:37:00	2124390	0	0	0	0	0	0	0	0	0	0	0	0	0	0	0	0	0	0	0	0	0	0		1	0	0	0	0	0	0	0
012313	13:37:00	10028	Trial3BackFr	NN	4	0	1000	1	120	13:37:00	2125896	0	0	0	0	0	0	0	0	0	0	0	0	0	0	0	0	0	0	0	0	0	0		1	0	0	0	0	0	0	0
012313	13:37:00	10028	Trial3BackFr	NN	4	0	1000	1	120	13:37:00	2127402	0	0	0	0	0	0	0	0	0	0	0	0	0	0	0	0	0	0	0	0	0	0		1	0	0	0	0	0	0	0
012313	13:37:00	10028	Trial3BackFr	NN	4	0	1000	1	120	13:37:00	2128921	0	0	0	0	0	0	0	0	0	0	0	0	0	0	0	0	0	0	0	0	0	0		1	0	0	0	0	0	0	0
012313	13:37:00	10028	Trial3BackFr	NN	4	0	1000	1	120	13:37:00	2130427	0	0	0	0	0	0	0	0	0	0	0	0	0	0	0	0	0	0	0	0	0	0		1	0	0	0	0	0	0	0
012313	13:37:00	10028	Trial3BackFr	NN	4	0	1000	1	120	13:37:00	2131947	0	0	0	0	0	0	0	0	0	0	0	0	0	0	0	0	0	0	0	0	0	0		1	0	0	0	0	0	0	0
012313	13:37:00	10028	Trial3BackFr	NN	4	0	1000	1	120	13:37:00	2133453	0	0	0	0	0	0	0	0	0	0	0	0	0	0	0	0	0	0	0	0	0	0		1	0	0	0	0	0	0	0
012313	13:37:00	10028	Trial3BackFr	YY	4	57	512	1	120	13:37:00	2134479	0	0	0	0	0	0	0	0	0	0	0	0	0	0	0	0	0	0	0	0	0	0		1	0	0	0	0	0	0	0
012313	13:37:00	10028	Trial3BackFr	NN	4	0	1000	1	120	13:37:00	2136465	0	0	0	0	0	0	0	0	0	0	0	0	0	0	0	0	0	0	0	0	0	0		1	0	0	0	0	0	0	0
012313	13:37:00	10028	Trial3BackFr	NN	4	0	1000	1	120	13:37:00	2137971	0	0	0	0	0	0	0	0	0	0	0	0	0	0	0	0	0	0	0	0	0	0		1	0	0	0	0	0	0	0
012313	13:37:00	10028	Trial3BackFr	NN	4	0	1000	1	120	13:37:00	2139477	0	0	0	0	0	0	0	0	0	0	0	0	0	0	0	0	0	0	0	0	0	0		1	0	0	0	0	0	0	0
012313	13:37:00	10028	Trial3BackFr	NN	4	0	1000	1	120	13:37:00	2140983	0	0	0	0	0	0	0	0	0	0	0	0	0	0	0	0	0	0	0	0	0	0		1	0	0	0	0	0	0	0
012313	13:37:00	10028	Trial3BackFr	NN	4	0	1000	1	120	13:37:00	2142489	0	0	0	0	0	0	0	0	0	0	0	0	0	0	0	0	0	0	0	0	0	0		1	0	0	0	0	0	0	0
012313	13:37:00	10028	Trial3BackFr	NN	4	0	1000	1	120	13:37:00	2143995	0	0	0	0	0	0	0	0	0	0	0	0	0	0	0	0	0	0	0	0	0	0		1	0	0	0	0	0	0	0
012313	13:37:00	10028	Trial3BackFr	NN	4	57	657	0	120	13:37:00	2145168	0	0	0	0	0	0	0	0	0	0	0	0	0	0	0	0	0	0	0	0	0	0		1	0	0	0	0	0	0	0
012313	13:37:00	10028	Trial3BackFr	NN	4	0	1000	1	120	13:37:00	2147007	0	0	0	0	0	0	0	0	0	0	0	0	0	0	0	0	0	0	0	0	0	0		1	0	0	0	0	0	0	0
012313	13:37:00	10028	Trial3BackFr	YY	4	0	1000	0	120	13:37:00	2148513	0	0	0	0	0	0	0	0	0	0	0	0	0	0	0	0	0	0	0	0	0	0		1	0	0	0	0	0	0	0
012313	13:37:00	10028	Trial3BackFr	NN	4	0	1000	1	120	13:37:00	2150019	0	0	0	0	0	0	0	0	0	0	0	0	0	0	0	0	0	0	0	0	0	0		1	0	0	0	0	0	0	0
012313	13:37:00	10028	Trial3BackFr	NN	4	0	1000	1	120	13:37:00	2151525	0	0	0	0	0	0	0	0	0	0	0	0	0	0	0	0	0	0	0	0	0	0		1	0	0	0	0	0	0	0
012313	13:37:00	10028	Trial3BackFr	NN	4	0	1000	1	120	13:37:00	2153031	0	0	0	0	0	0	0	0	0	0	0	0	0	0	0	0	0	0	0	0	0	0		1	0	0	0	0	0	0	0
012313	13:37:00	10028	Trial3BackFr	NN	4	0	1000	1	120	13:37:00	2154537	0	0	0	0	0	0	0	0	0	0	0	0	0	0	0	0	0	0	0	0	0	0		1	0	0	0	0	0	0	0
012313	13:37:00	10028	Trial3BackFr	YY	4	57	643	1	120	13:37:00	2155697	0	0	0	0	0	0	0	0	0	0	0	0	0	0	0	0	0	0	0	0	0	0		1	0	0	0	0	0	0	0
012313	13:37:00	10028	Trial3BackFr	NN	4	0	1000	1	120	13:37:00	2157549	0	0	0	0	0	0	0	0	0	0	0	0	0	0	0	0	0	0	0	0	0	0		1	0	0	0	0	0	0	0
012313	13:37:00	10028	Trial3BackFr	NN	4	0	1000	1	120	13:37:00	2159055	0	0	0	0	0	0	0	0	0	0	0	0	0	0	0	0	0	0	0	0	0	0		1	0	0	0	0	0	0	0
012313	13:37:00	10028	Trial3BackFr	NN	4	0	1000	1	120	13:37:00	2160561	0	0	0	0	0	0	0	0	0	0	0	0	0	0	0	0	0	0	0	0	0	0		1	0	0	0	0	0	0	0
012313	13:37:00	10028	Trial3BackFr	YY	4	57	683	1	120	13:37:00	2161761	0	0	0	0	0	0	0	0	0	0	0	0	0	0	0	0	0	0	0	0	0	0		1	0	0	0	0	0	0	0
012313	13:37:00	10028	Trial3BackFr	NN	4	0	1000	1	120	13:37:00	2163574	0	0	0	0	0	0	0	0	0	0	0	0	0	0	0	0	0	0	0	0	0	0		1	0	0	0	0	0	0	0
012313	13:37:00	10028	Trial3BackFr	NN	4	0	1000	1	120	13:37:00	2165093	0	0	0	0	0	0	0	0	0	0	0	0	0	0	0	0	0	0	0	0	0	0		1	0	0	0	0	0	0	0
012313	13:37:00	10028	Trial3BackFr	NN	4	0	1000	1	120	13:37:00	2166599	0	0	0	0	0	0	0	0	0	0	0	0	0	0	0	0	0	0	0	0	0	0		1	0	0	0	0	0	0	0
012313	13:37:00	10028	Trial3BackFr	NN	4	0	1000	1	120	13:37:00	2168118	0	0	0	0	0	0	0	0	0	0	0	0	0	0	0	0	0	0	0	0	0	0		1	0	0	0	0	0	0	0
012313	13:37:00	10028	Trial3BackFr	NN	4	0	1000	1	120	13:37:00	2169624	0	0	0	0	0	0	0	0	0	0	0	0	0	0	0	0	0	0	0	0	0	0		1	0	0	0	0	0	0	0
012313	13:37:00	10028	Trial3BackFr	YY	4	0	1000	0	120	13:37:00	2171130	0	0	0	0	0	0	0	0	0	0	0	0	0	0	0	0	0	0	0	0	0	0		1	0	0	0	0	0	0	0
012313	13:37:00	10028	Trial3BackFr	NN	4	0	1000	1	120	13:37:00	2172636	0	0	0	0	0	0	0	0	0	0	0	0	0	0	0	0	0	0	0	0	0	0		1	0	0	0	0	0	0	0
012313	13:37:00	10028	Trial3BackFr	NN	4	0	1000	1	120	13:37:00	2174156	0	0	0	0	0	0	0	0	0	0	0	0	0	0	0	0	0	0	0	0	0	0		1	0	0	0	0	0	0	0
012313	13:37:00	10028	Trial3BackFr	NN	4	0	1000	1	120	13:37:00	2175662	0	0	0	0	0	0	0	0	0	0	0	0	0	0	0	0	0	0	0	0	0	0		1	0	0	0	0	0	0	0
012313	13:37:00	10028	Trial3BackFr	YY	4	57	734	1	120	13:37:00	2176915	0	0	0	0	0	0	0	0	0	0	0	0	0	0	0	0	0	0	0	0	0	0		1	0	0	0	0	0	0	0
012313	13:37:00	10028	Memory1R6moFr	ScoreFr	5	M7	8746	0	120	13:37:00	2214046	0	0	0	0	0	0	0	0	0	0	0	0	0	0	0	0	0	0	0	0	0	0		1	0	0	0	0	0	0	0
012313	13:37:00	10028	Memory1R6moFr	ScoreFr	5	M8	182	0	120	13:37:00	2214273	0	0	0	0	0	0	0	0	0	0	0	0	0	0	0	0	0	0	0	0	0	0		1	0	0	0	0	0	0	0
012313	13:37:00	10028	Memory1R6moFr	ScoreFr	5	M5	460	0	120	13:37:00	2214779	0	0	0	0	0	0	0	0	0	0	0	0	0	0	0	0	0	0	0	0	0	0		1	0	0	0	0	0	0	0
012313	13:37:00	10028	Memory1R6moFr	ScoreFr	5	M4	289	0	120	13:37:00	2215112	0	0	0	0	0	0	0	0	0	0	0	0	0	0	0	0	0	0	0	0	0	0		1	0	0	0	0	0	0	0
012313	13:37:00	10028	Memory1R6moFr	ScoreFr	5	M3	231	0	120	13:37:00	2215406	0	0	0	0	0	0	0	0	0	0	0	0	0	0	0	0	0	0	0	0	0	0		1	0	0	0	0	0	0	0
012313	13:37:00	10028	Memory1R6moFr	ScoreFr	5	M2	271	0	120	13:37:00	2215726	0	0	0	0	0	0	0	0	0	0	0	0	0	0	0	0	0	0	0	0	0	0		1	0	0	0	0	0	0	0
012313	13:37:00	10028	Memory1R6moFr	ScoreFr	5	M1	263	0	120	13:37:00	2216032	0	0	0	0	0	0	0	0	0	0	0	0	0	0	0	0	0	0	0	0	0	0		1	0	0	0	0	0	0	0
012313	13:37:00	10028	Memory1R6moFr	ScoreFr	5	Done	18676	0	120	13:37:00	2234757	0	0	0	0	0	0	0	0	0	0	0	0	0	0	0	0	0	0	0	0	0	0		1	0	0	0	0	0	0	0
012313	13:37:00	10028	Memory2R6moFr	ScoreFr2	5	11	17321	0	120	13:37:00	2269543	0	0	0	0	0	0	0	0	0	0	0	0	0	0	0	0	0	0	0	0	0	0		1	0	0	0	0	0	0	0
012313	13:37:00	10028	Memory2R6moFr	ScoreFr2	5	33	587	0	120	13:37:00	2270183	0	0	0	0	0	0	0	0	0	0	0	0	0	0	0	0	0	0	0	0	0	0		1	0	0	0	0	0	0	0
012313	13:37:00	10028	Memory2R6moFr	ScoreFr2	5	44	244	0	120	13:37:00	2270476	0	0	0	0	0	0	0	0	0	0	0	0	0	0	0	0	0	0	0	0	0	0		1	0	0	0	0	0	0	0
012313	13:37:00	10028	Memory2R6moFr	ScoreFr2	5	55	294	0	120	13:37:00	2270823	0	0	0	0	0	0	0	0	0	0	0	0	0	0	0	0	0	0	0	0	0	0		1	0	0	0	0	0	0	0
012313	13:37:00	10028	Memory2R6moFr	ScoreFr2	5	66	324	0	120	13:37:00	2271196	0	0	0	0	0	0	0	0	0	0	0	0	0	0	0	0	0	0	0	0	0	0		1	0	0	0	0	0	0	0
012313	13:37:00	10028	Memory2R6moFr	ScoreFr2	5	77	279	0	120	13:37:00	2271529	0	0	0	0	0	0	0	0	0	0	0	0	0	0	0	0	0	0	0	0	0	0		1	0	0	0	0	0	0	0
012313	13:37:00	10028	Memory2R6moFr	ScoreFr2	5	88	274	0	120	13:37:00	2271849	0	0	0	0	0	0	0	0	0	0	0	0	0	0	0	0	0	0	0	0	0	0		1	0	0	0	0	0	0	0
012313	13:37:00	10028	Memory2R6moFr	ScoreFr2	5	22	5289	0	120	13:37:00	2277193	0	0	0	0	0	0	0	0	0	0	0	0	0	0	0	0	0	0	0	0	0	0		1	0	0	0	0	0	0	0
012313	13:37:00	10028	Memory2R6moFr	ScoreFr2	5	Done	513	0	120	13:37:00	2277753	0	0	0	0	0	0	0	0	0	0	0	0	0	0	0	0	0	0	0	0	0	0		1	0	0	0	0	0	0	0
012313	13:37:00	10028	Memory3R6moFr	ScoreFr3	5	555	10773	0	120	13:37:00	2306714	0	0	0	0	0	0	0	0	0	0	0	0	0	0	0	0	0	0	0	0	0	0		1	0	0	0	0	0	0	0
012313	13:37:00	10028	Memory3R6moFr	ScoreFr3	5	666	231	0	120	13:37:00	2306994	0	0	0	0	0	0	0	0	0	0	0	0	0	0	0	0	0	0	0	0	0	0		1	0	0	0	0	0	0	0
012313	13:37:00	10028	Memory3R6moFr	ScoreFr3	5	777	238	0	120	13:37:00	2307288	0	0	0	0	0	0	0	0	0	0	0	0	0	0	0	0	0	0	0	0	0	0		1	0	0	0	0	0	0	0
012313	13:37:00	10028	Memory3R6moFr	ScoreFr3	5	888	242	0	120	13:37:00	2307581	0	0	0	0	0	0	0	0	0	0	0	0	0	0	0	0	0	0	0	0	0	0		1	0	0	0	0	0	0	0
012313	13:37:00	10028	Memory3R6moFr	ScoreFr3	5	333	668	0	120	13:37:00	2308300	0	0	0	0	0	0	0	0	0	0	0	0	0	0	0	0	0	0	0	0	0	0		1	0	0	0	0	0	0	0
012313	13:37:00	10028	Memory3R6moFr	ScoreFr3	5	222	253	0	120	13:37:00	2308607	0	0	0	0	0	0	0	0	0	0	0	0	0	0	0	0	0	0	0	0	0	0		1	0	0	0	0	0	0	0
012313	13:37:00	10028	Memory3R6moFr	ScoreFr3	5	111	250	0	120	13:37:00	2308913	0	0	0	0	0	0	0	0	0	0	0	0	0	0	0	0	0	0	0	0	0	0		1	0	0	0	0	0	0	0
012313	13:37:00	10028	Memory3R6moFr	ScoreFr3	5	444	33959	0	120	13:37:00	2342926	0	0	0	0	0	0	0	0	0	0	0	0	0	0	0	0	0	0	0	0	0	0		1	0	0	0	0	0	0	0
012313	13:37:00	10028	Memory3R6moFr	ScoreFr3	5	Done	2986	0	120	13:37:00	2345965	0	0	0	0	0	0	0	0	0	0	0	0	0	0	0	0	0	0	0	0	0	0		1	0	0	0	0	0	0	0
012313	13:37:00	10028	LoriaFrLH3	Stop	6	6	3308	0	120	13:37:00	2417976	0	0	0	0	0	0	0	0	0	0	0	0	0	0	0	0	0	0	0	0	0	0		1	0	0	0	0	0	0	0
012313	13:37:00	10028	FrTrail	Trails	7	1Trails	978	0	120	13:37:00	2435301	0	0	0	0	0	0	0	0	0	0	0	0	0	0	0	0	0	0	0	0	0	0		1	0	0	0	0	0	0	0
012313	13:37:00	10028	Serial7Fr6mo	Serial7Fr6mo	8	73	21667	0	120	13:37:00	2481712	1	0	0	0	0	0	0	0	0	0	0	0	0	0	0	0	0	0	0	0	0	0		1	0	0	0	0	0	0	0
012313	13:37:00	10028	Serial7Fr6mo	Serial7Fr6mo	8	67	3143	0	120	13:37:00	2484870	1	0	0	0	0	0	0	0	0	0	0	0	0	0	0	0	0	0	0	0	0	0		1	0	0	0	0	0	0	0
012313	13:37:00	10028	Serial7Fr6mo	Serial7Fr6mo	8	60	2706	0	120	13:37:00	2487603	2	0	0	0	0	0	0	0	0	0	0	0	0	0	0	0	0	0	0	0	0	0		1	0	0	0	0	0	0	0
012313	13:37:00	10028	Serial7Fr6mo	Serial7Fr6mo	8	53	2406	0	120	13:37:00	2490029	3	0	0	0	0	0	0	0	0	0	0	0	0	0	0	0	0	0	0	0	0	0		1	0	0	0	0	0	0	0
012313	13:37:00	10028	Serial7Fr6mo	Serial7Fr6mo	8	46	2739	0	120	13:37:00	2492788	4	0	0	0	0	0	0	0	0	0	0	0	0	0	0	0	0	0	0	0	0	0		1	0	0	0	0	0	0	0
012313	13:37:00	10028	corsiblockFrFwrd	recallseqFrFwrd	9	6	1089	0	120	13:37:00	2532518	4	0	0	0	0	0	0	0	0	0	0	0	0	0	0	0	0	0	0	0	0	0		1	0	0	0	0	0	0	0
012313	13:37:00	10028	corsiblockFrFwrd	recallseqFrFwrd	9	7	1015	0	120	13:37:00	2533584	4	0	0	0	0	0	0	0	0	0	0	0	0	0	0	0	0	0	0	0	0	0		1	0	0	0	0	0	0	0
012313	13:37:00	10028	corsiblockFrFwrd	recallseqFrFwrd	9	doneCorsiFr	1181	0	120	13:37:00	2534810	4	0	0	0	0	0	0	0	0	0	0	0	0	0	0	2	0	0	0	0	0	0		1	0	0	0	0	0	0	0
012313	13:37:00	10028	corsiblockFrFwrd	recallseqFrFwrd	9	4	707	0	120	13:37:00	2541634	4	0	0	0	0	0	0	0	0	0	0	0	0	0	0	2	0	0	0	0	0	0		1	0	0	0	0	0	0	0
012313	13:37:00	10028	corsiblockFrFwrd	recallseqFrFwrd	9	9	722	0	120	13:37:00	2542407	4	0	0	0	0	0	0	0	0	0	0	0	0	0	0	2	0	0	0	0	0	0		1	0	0	0	0	0	0	0
012313	13:37:00	10028	corsiblockFrFwrd	recallseqFrFwrd	9	5	558	0	120	13:37:00	2543020	4	0	0	0	0	0	0	0	0	0	0	0	0	0	0	2	0	0	0	0	0	0		1	0	0	0	0	0	0	0
012313	13:37:00	10028	corsiblockFrFwrd	recallseqFrFwrd	9	doneCorsiFr	649	0	120	13:37:00	2543713	4	0	0	0	0	0	0	0	0	0	0	0	0	0	0	3	0	0	0	0	0	0		1	0	0	0	0	0	0	0
012313	13:37:00	10028	corsiblockFrFwrd	recallseqFrFwrd	9	3	1289	0	120	13:37:00	2552136	4	0	0	0	0	0	0	0	0	0	0	0	0	0	0	3	0	0	0	0	0	0		1	0	0	0	0	0	0	0
012313	13:37:00	10028	corsiblockFrFwrd	recallseqFrFwrd	9	2	604	0	120	13:37:00	2552789	4	0	0	0	0	0	0	0	0	0	0	0	0	0	0	3	0	0	0	0	0	0		1	0	0	0	0	0	0	0
012313	13:37:00	10028	corsiblockFrFwrd	recallseqFrFwrd	9	8	639	0	120	13:37:00	2553482	4	0	0	0	0	0	0	0	0	0	0	0	0	0	0	3	0	0	0	0	0	0		1	0	0	0	0	0	0	0
012313	13:37:00	10028	corsiblockFrFwrd	recallseqFrFwrd	9	1	586	0	120	13:37:00	2554122	4	0	0	0	0	0	0	0	0	0	0	0	0	0	0	3	0	0	0	0	0	0		1	0	0	0	0	0	0	0
012313	13:37:00	10028	corsiblockFrFwrd	recallseqFrFwrd	9	doneCorsiFr	858	0	120	13:37:00	2555028	4	0	0	0	0	0	0	0	0	0	0	0	0	0	0	4	0	0	0	0	0	0		1	0	0	0	0	0	0	0
012313	13:37:00	10028	corsiblockFrFwrd	recallseqFrFwrd	9	4	1803	0	120	13:37:00	2564958	4	0	0	0	0	0	0	0	0	0	0	0	0	0	0	4	0	0	0	0	0	0		1	0	0	0	0	0	0	0
012313	13:37:00	10028	corsiblockFrFwrd	recallseqFrFwrd	9	3	630	0	120	13:37:00	2565637	4	0	0	0	0	0	0	0	0	0	0	0	0	0	0	4	0	0	0	0	0	0		1	0	0	0	0	0	0	0
012313	13:37:00	10028	corsiblockFrFwrd	recallseqFrFwrd	9	5	551	0	120	13:37:00	2566237	4	0	0	0	0	0	0	0	0	0	0	0	0	0	0	4	0	0	0	0	0	0		1	0	0	0	0	0	0	0
012313	13:37:00	10028	corsiblockFrFwrd	recallseqFrFwrd	9	1	759	0	120	13:37:00	2567050	4	0	0	0	0	0	0	0	0	0	0	0	0	0	0	4	0	0	0	0	0	0		1	0	0	0	0	0	0	0
012313	13:37:00	10028	corsiblockFrFwrd	recallseqFrFwrd	9	7	697	0	120	13:37:00	2567796	4	0	0	0	0	0	0	0	0	0	0	0	0	0	0	4	0	0	0	0	0	0		1	0	0	0	0	0	0	0
012313	13:37:00	10028	corsiblockFrFwrd	recallseqFrFwrd	9	doneCorsiFr	823	0	120	13:37:00	2568676	4	0	0	0	0	0	0	0	0	0	0	0	0	0	0	5	0	0	0	0	0	0		1	0	0	0	0	0	0	0
012313	13:37:00	10028	corsiblockFrFwrd	recallseqFrFwrd	9	6	827	0	120	13:37:00	2578632	4	0	0	0	0	0	0	0	0	0	0	0	0	0	0	5	0	0	0	0	0	0		1	0	0	0	0	0	0	0
012313	13:37:00	10028	corsiblockFrFwrd	recallseqFrFwrd	9	2	651	0	120	13:37:00	2579338	4	0	0	0	0	0	0	0	0	0	0	0	0	0	0	5	0	0	0	0	0	0		1	0	0	0	0	0	0	0
012313	13:37:00	10028	corsiblockFrFwrd	recallseqFrFwrd	9	8	577	0	120	13:37:00	2579965	4	0	0	0	0	0	0	0	0	0	0	0	0	0	0	5	0	0	0	0	0	0		1	0	0	0	0	0	0	0
012313	13:37:00	10028	corsiblockFrFwrd	recallseqFrFwrd	9	9	591	0	120	13:37:00	2580604	4	0	0	0	0	0	0	0	0	0	0	0	0	0	0	5	0	0	0	0	0	0		1	0	0	0	0	0	0	0
012313	13:37:00	10028	corsiblockFrFwrd	recallseqFrFwrd	9	2	679	0	120	13:37:00	2581338	4	0	0	0	0	0	0	0	0	0	0	0	0	0	0	5	0	0	0	0	0	0		1	0	0	0	0	0	0	0
012313	13:37:00	10028	corsiblockFrFwrd	recallseqFrFwrd	9	1	650	0	120	13:37:00	2582044	4	0	0	0	0	0	0	0	0	0	0	0	0	0	0	5	0	0	0	0	0	0		1	0	0	0	0	0	0	0
012313	13:37:00	10028	corsiblockFrFwrd	recallseqFrFwrd	9	doneCorsiFr	855	0	120	13:37:00	2582950	4	0	0	0	0	0	0	0	0	0	0	0	0	0	0	6	0	0	0	0	0	0		1	0	0	0	0	0	0	0
012313	13:37:00	10028	corsiblockFrFwrd	recallseqFrFwrd	9	4	812	0	120	13:37:00	2593906	4	0	0	0	0	0	0	0	0	0	0	0	0	0	0	6	0	0	0	0	0	0		1	0	0	0	0	0	0	0
012313	13:37:00	10028	corsiblockFrFwrd	recallseqFrFwrd	9	5	441	0	120	13:37:00	2594399	4	0	0	0	0	0	0	0	0	0	0	0	0	0	0	6	0	0	0	0	0	0		1	0	0	0	0	0	0	0
012313	13:37:00	10028	corsiblockFrFwrd	recallseqFrFwrd	9	9	748	0	120	13:37:00	2595198	4	0	0	0	0	0	0	0	0	0	0	0	0	0	0	6	0	0	0	0	0	0		1	0	0	0	0	0	0	0
012313	13:37:00	10028	corsiblockFrFwrd	recallseqFrFwrd	9	7	565	0	120	13:37:00	2595812	4	0	0	0	0	0	0	0	0	0	0	0	0	0	0	6	0	0	0	0	0	0		1	0	0	0	0	0	0	0
012313	13:37:00	10028	corsiblockFrFwrd	recallseqFrFwrd	9	3	607	0	120	13:37:00	2596465	4	0	0	0	0	0	0	0	0	0	0	0	0	0	0	6	0	0	0	0	0	0		1	0	0	0	0	0	0	0
012313	13:37:00	10028	corsiblockFrFwrd	recallseqFrFwrd	9	6	507	0	120	13:37:00	2597024	4	0	0	0	0	0	0	0	0	0	0	0	0	0	0	6	0	0	0	0	0	0		1	0	0	0	0	0	0	0
012313	13:37:00	10028	corsiblockFrFwrd	recallseqFrFwrd	9	8	738	0	120	13:37:00	2597811	4	0	0	0	0	0	0	0	0	0	0	0	0	0	0	6	0	0	0	0	0	0		1	0	0	0	0	0	0	0
012313	13:37:00	10028	corsiblockFrFwrd	recallseqFrFwrd	9	doneCorsiFr	552	0	120	13:37:00	2598411	4	0	0	0	0	0	0	0	0	0	0	0	0	0	0	7	0	0	0	0	0	0		1	0	0	0	0	0	0	0
012313	13:37:00	10028	corsiblockFrFwrd	recallseqFrFwrd	9	4	957	0	120	13:37:00	2610499	4	0	0	0	0	0	0	0	0	0	0	0	0	0	0	7	0	0	0	0	0	0		1	0	0	0	0	0	0	0
012313	13:37:00	10028	corsiblockFrFwrd	recallseqFrFwrd	9	7	1831	0	120	13:37:00	2612378	4	0	0	0	0	0	0	0	0	0	0	0	0	0	0	7	0	0	0	0	0	0		1	0	0	0	0	0	0	0
012313	13:37:00	10028	corsiblockFrFwrd	recallseqFrFwrd	9	5	608	0	120	13:37:00	2613031	4	0	0	0	0	0	0	0	0	0	0	0	0	0	0	7	0	0	0	0	0	0		1	0	0	0	0	0	0	0
012313	13:37:00	10028	corsiblockFrFwrd	recallseqFrFwrd	9	9	683	0	120	13:37:00	2613764	4	0	0	0	0	0	0	0	0	0	0	0	0	0	0	7	0	0	0	0	0	0		1	0	0	0	0	0	0	0
012313	13:37:00	10028	corsiblockFrFwrd	recallseqFrFwrd	9	3	862	0	120	13:37:00	2614670	4	0	0	0	0	0	0	0	0	0	0	0	0	0	0	7	0	0	0	0	0	0		1	0	0	0	0	0	0	0
012313	13:37:00	10028	corsiblockFrFwrd	recallseqFrFwrd	9	6	556	0	120	13:37:00	2615270	4	0	0	0	0	0	0	0	0	0	0	0	0	0	0	7	0	0	0	0	0	0		1	0	0	0	0	0	0	0
012313	13:37:00	10028	corsiblockFrFwrd	recallseqFrFwrd	9	8	612	0	120	13:37:00	2615937	4	0	0	0	0	0	0	0	0	0	0	0	0	0	0	7	0	0	0	0	0	0		1	0	0	0	0	0	0	0
012313	13:37:00	10028	corsiblockFrFwrd	recallseqFrFwrd	9	2	674	0	120	13:37:00	2616656	4	0	0	0	0	0	0	0	0	0	0	0	0	0	0	7	0	0	0	0	0	0		1	0	0	0	0	0	0	0
012313	13:37:00	10028	corsiblockFrFwrd	recallseqFrFwrd	9	doneCorsiFr	778	0	120	13:37:00	2617483	4	0	0	0	0	0	0	0	0	0	0	0	0	0	0	8	0	0	0	0	0	0		1	0	0	0	0	0	0	0
012313	13:37:00	10028	corsiblockFrFwrd	recallseqFrFwrd	9	1	1540	0	120	13:37:00	2631144	4	0	0	0	0	0	0	0	0	0	0	0	0	0	0	8	0	0	0	0	0	0		1	0	0	0	0	0	0	0
012313	13:37:00	10028	corsiblockFrFwrd	recallseqFrFwrd	9	8	834	0	120	13:37:00	2632023	4	0	0	0	0	0	0	0	0	0	0	0	0	0	0	8	0	0	0	0	0	0		1	0	0	0	0	0	0	0
012313	13:37:00	10028	corsiblockFrFwrd	recallseqFrFwrd	9	7	1242	0	120	13:37:00	2633316	4	0	0	0	0	0	0	0	0	0	0	0	0	0	0	8	0	0	0	0	0	0		1	0	0	0	0	0	0	0
012313	13:37:00	10028	corsiblockFrFwrd	recallseqFrFwrd	9	2	582	0	120	13:37:00	2633942	4	0	0	0	0	0	0	0	0	0	0	0	0	0	0	8	0	0	0	0	0	0		1	0	0	0	0	0	0	0
012313	13:37:00	10028	corsiblockFrFwrd	recallseqFrFwrd	9	3	667	0	120	13:37:00	2634662	4	0	0	0	0	0	0	0	0	0	0	0	0	0	0	8	0	0	0	0	0	0		1	0	0	0	0	0	0	0
012313	13:37:00	10028	corsiblockFrFwrd	recallseqFrFwrd	9	6	860	0	120	13:37:00	2635568	4	0	0	0	0	0	0	0	0	0	0	0	0	0	0	8	0	0	0	0	0	0		1	0	0	0	0	0	0	0
012313	13:37:00	10028	corsiblockFrFwrd	recallseqFrFwrd	9	4	2041	0	120	13:37:00	2637661	4	0	0	0	0	0	0	0	0	0	0	0	0	0	0	8	0	0	0	0	0	0		1	0	0	0	0	0	0	0
012313	13:37:00	10028	corsiblockFrFwrd	recallseqFrFwrd	9	5	589	0	120	13:37:00	2638301	4	0	0	0	0	0	0	0	0	0	0	0	0	0	0	8	0	0	0	0	0	0		1	0	0	0	0	0	0	0
012313	13:37:00	10028	corsiblockFrFwrd	recallseqFrFwrd	9	doneCorsiFr	973	0	120	13:37:00	2639327	4	0	0	0	0	0	0	0	0	0	0	0	0	0	0	8	0	0	0	0	0	0		1	0	0	0	0	0	0	0
012313	13:37:00	10028	corsiblockFrFwrd	recallseqFrFwrd	9	2	511	0	120	13:37:00	2651922	4	0	0	0	0	0	0	0	0	0	0	0	0	0	0	8	0	0	0	0	0	0		1	0	0	0	0	0	0	0
012313	13:37:00	10028	corsiblockFrFwrd	recallseqFrFwrd	9	1	671	0	120	13:37:00	2652641	4	0	0	0	0	0	0	0	0	0	0	0	0	0	0	8	0	0	0	0	0	0		1	0	0	0	0	0	0	0
012313	13:37:00	10028	corsiblockFrFwrd	recallseqFrFwrd	9	5	712	0	120	13:37:00	2653401	4	0	0	0	0	0	0	0	0	0	0	0	0	0	0	8	0	0	0	0	0	0		1	0	0	0	0	0	0	0
012313	13:37:00	10028	corsiblockFrFwrd	recallseqFrFwrd	9	3	648	0	120	13:37:00	2654094	4	0	0	0	0	0	0	0	0	0	0	0	0	0	0	8	0	0	0	0	0	0		1	0	0	0	0	0	0	0
012313	13:37:00	10028	corsiblockFrFwrd	recallseqFrFwrd	9	6	676	0	120	13:37:00	2654814	4	0	0	0	0	0	0	0	0	0	0	0	0	0	0	8	0	0	0	0	0	0		1	0	0	0	0	0	0	0
012313	13:37:00	10028	corsiblockFrFwrd	recallseqFrFwrd	9	9	787	0	120	13:37:00	2655653	4	0	0	0	0	0	0	0	0	0	0	0	0	0	0	8	0	0	0	0	0	0		1	0	0	0	0	0	0	0
012313	13:37:00	10028	corsiblockFrFwrd	recallseqFrFwrd	9	7	595	0	120	13:37:00	2656293	4	0	0	0	0	0	0	0	0	0	0	0	0	0	0	8	0	0	0	0	0	0		1	0	0	0	0	0	0	0
012313	13:37:00	10028	corsiblockFrFwrd	recallseqFrFwrd	9	2	620	0	120	13:37:00	2656960	4	0	0	0	0	0	0	0	0	0	0	0	0	0	0	8	0	0	0	0	0	0		1	0	0	0	0	0	0	0
012313	13:37:00	10028	corsiblockFrFwrd	recallseqFrFwrd	9	doneCorsiFr	833	0	120	13:37:00	2657839	4	0	0	0	0	0	0	0	0	0	0	0	0	0	0	8	0	0	0	0	0	0		1	0	0	0	0	0	0	0
012313	13:37:00	10028	corsiblockFrRev	recallseqFrRev	10	7	697	0	120	13:37:00	2670834	4	0	0	0	0	0	0	0	0	0	0	0	0	0	0	8	0	0	0	0	0	0		1	0	0	0	0	0	0	0
012313	13:37:00	10028	corsiblockFrRev	recallseqFrRev	10	2	543	0	120	13:37:00	2671434	4	0	0	0	0	0	0	0	0	0	0	0	0	0	0	8	0	0	0	0	0	0		1	0	0	0	0	0	0	0
012313	13:37:00	10028	corsiblockFrRev	recallseqFrRev	10	doneCorsiFr	1047	0	120	13:37:00	2672526	4	0	0	0	0	0	0	0	0	0	0	0	0	0	0	8	2	0	0	0	0	0		1	0	0	0	0	0	0	0
012313	13:37:00	10028	corsiblockFrRev	recallseqFrRev	10	6	779	0	120	13:37:00	2679444	4	0	0	0	0	0	0	0	0	0	0	0	0	0	0	8	2	0	0	0	0	0		1	0	0	0	0	0	0	0
012313	13:37:00	10028	corsiblockFrRev	recallseqFrRev	10	5	349	0	120	13:37:00	2679843	4	0	0	0	0	0	0	0	0	0	0	0	0	0	0	8	2	0	0	0	0	0		1	0	0	0	0	0	0	0
012313	13:37:00	10028	corsiblockFrRev	recallseqFrRev	10	1	668	0	120	13:37:00	2680563	4	0	0	0	0	0	0	0	0	0	0	0	0	0	0	8	2	0	0	0	0	0		1	0	0	0	0	0	0	0
012313	13:37:00	10028	corsiblockFrRev	recallseqFrRev	10	doneCorsiFr	1157	0	120	13:37:00	2681776	4	0	0	0	0	0	0	0	0	0	0	0	0	0	0	8	3	0	0	0	0	0		1	0	0	0	0	0	0	0
012313	13:37:00	10028	corsiblockFrRev	recallseqFrRev	10	3	1051	0	120	13:37:00	2689959	4	0	0	0	0	0	0	0	0	0	0	0	0	0	0	8	3	0	0	0	0	0		1	0	0	0	0	0	0	0
012313	13:37:00	10028	corsiblockFrRev	recallseqFrRev	10	9	649	0	120	13:37:00	2690652	4	0	0	0	0	0	0	0	0	0	0	0	0	0	0	8	3	0	0	0	0	0		1	0	0	0	0	0	0	0
012313	13:37:00	10028	corsiblockFrRev	recallseqFrRev	10	4	659	0	120	13:37:00	2691359	4	0	0	0	0	0	0	0	0	0	0	0	0	0	0	8	3	0	0	0	0	0		1	0	0	0	0	0	0	0
012313	13:37:00	10028	corsiblockFrRev	recallseqFrRev	10	8	425	0	120	13:37:00	2691838	4	0	0	0	0	0	0	0	0	0	0	0	0	0	0	8	3	0	0	0	0	0		1	0	0	0	0	0	0	0
012313	13:37:00	10028	corsiblockFrRev	recallseqFrRev	10	doneCorsiFr	761	0	120	13:37:00	2692651	4	0	0	0	0	0	0	0	0	0	0	0	0	0	0	8	4	0	0	0	0	0		1	0	0	0	0	0	0	0
012313	13:37:00	10028	corsiblockFrRev	recallseqFrRev	10	7	1103	0	120	13:37:00	2701888	4	0	0	0	0	0	0	0	0	0	0	0	0	0	0	8	4	0	0	0	0	0		1	0	0	0	0	0	0	0
012313	13:37:00	10028	corsiblockFrRev	recallseqFrRev	10	9	456	0	120	13:37:00	2702394	4	0	0	0	0	0	0	0	0	0	0	0	0	0	0	8	4	0	0	0	0	0		1	0	0	0	0	0	0	0
012313	13:37:00	10028	corsiblockFrRev	recallseqFrRev	10	4	573	0	120	13:37:00	2703020	4	0	0	0	0	0	0	0	0	0	0	0	0	0	0	8	4	0	0	0	0	0		1	0	0	0	0	0	0	0
012313	13:37:00	10028	corsiblockFrRev	recallseqFrRev	10	5	355	0	120	13:37:00	2703420	4	0	0	0	0	0	0	0	0	0	0	0	0	0	0	8	4	0	0	0	0	0		1	0	0	0	0	0	0	0
012313	13:37:00	10028	corsiblockFrRev	recallseqFrRev	10	8	419	0	120	13:37:00	2703887	4	0	0	0	0	0	0	0	0	0	0	0	0	0	0	8	4	0	0	0	0	0		1	0	0	0	0	0	0	0
012313	13:37:00	10028	corsiblockFrRev	recallseqFrRev	10	doneCorsiFr	904	0	120	13:37:00	2704846	4	0	0	0	0	0	0	0	0	0	0	0	0	0	0	8	5	0	0	0	0	0		1	0	0	0	0	0	0	0
012313	13:37:00	10028	corsiblockFrRev	recallseqFrRev	10	4	860	0	120	13:37:00	2714829	4	0	0	0	0	0	0	0	0	0	0	0	0	0	0	8	5	0	0	0	0	0		1	0	0	0	0	0	0	0
012313	13:37:00	10028	corsiblockFrRev	recallseqFrRev	10	5	394	0	120	13:37:00	2715269	4	0	0	0	0	0	0	0	0	0	0	0	0	0	0	8	5	0	0	0	0	0		1	0	0	0	0	0	0	0
012313	13:37:00	10028	corsiblockFrRev	recallseqFrRev	10	6	466	0	120	13:37:00	2715788	4	0	0	0	0	0	0	0	0	0	0	0	0	0	0	8	5	0	0	0	0	0		1	0	0	0	0	0	0	0
012313	13:37:00	10028	corsiblockFrRev	recallseqFrRev	10	3	586	0	120	13:37:00	2716428	4	0	0	0	0	0	0	0	0	0	0	0	0	0	0	8	5	0	0	0	0	0		1	0	0	0	0	0	0	0
012313	13:37:00	10028	corsiblockFrRev	recallseqFrRev	10	2	603	0	120	13:37:00	2717081	4	0	0	0	0	0	0	0	0	0	0	0	0	0	0	8	5	0	0	0	0	0		1	0	0	0	0	0	0	0
012313	13:37:00	10028	corsiblockFrRev	recallseqFrRev	10	1	518	0	120	13:37:00	2717654	4	0	0	0	0	0	0	0	0	0	0	0	0	0	0	8	5	0	0	0	0	0		1	0	0	0	0	0	0	0
012313	13:37:00	10028	corsiblockFrRev	recallseqFrRev	10	doneCorsiFr	1097	0	120	13:37:00	2718801	4	0	0	0	0	0	0	0	0	0	0	0	0	0	0	8	6	0	0	0	0	0		1	0	0	0	0	0	0	0
012313	13:37:00	10028	corsiblockFrRev	recallseqFrRev	10	3	554	0	120	13:37:00	2729476	4	0	0	0	0	0	0	0	0	0	0	0	0	0	0	8	6	0	0	0	0	0		1	0	0	0	0	0	0	0
012313	13:37:00	10028	corsiblockFrRev	recallseqFrRev	10	2	498	0	120	13:37:00	2730023	4	0	0	0	0	0	0	0	0	0	0	0	0	0	0	8	6	0	0	0	0	0		1	0	0	0	0	0	0	0
012313	13:37:00	10028	corsiblockFrRev	recallseqFrRev	10	9	775	0	120	13:37:00	2730849	4	0	0	0	0	0	0	0	0	0	0	0	0	0	0	8	6	0	0	0	0	0		1	0	0	0	0	0	0	0
012313	13:37:00	10028	corsiblockFrRev	recallseqFrRev	10	7	645	0	120	13:37:00	2731542	4	0	0	0	0	0	0	0	0	0	0	0	0	0	0	8	6	0	0	0	0	0		1	0	0	0	0	0	0	0
012313	13:37:00	10028	corsiblockFrRev	recallseqFrRev	10	8	488	0	120	13:37:00	2732075	4	0	0	0	0	0	0	0	0	0	0	0	0	0	0	8	6	0	0	0	0	0		1	0	0	0	0	0	0	0
012313	13:37:00	10028	corsiblockFrRev	recallseqFrRev	10	6	515	0	120	13:37:00	2732635	4	0	0	0	0	0	0	0	0	0	0	0	0	0	0	8	6	0	0	0	0	0		1	0	0	0	0	0	0	0
012313	13:37:00	10028	corsiblockFrRev	recallseqFrRev	10	1	668	0	120	13:37:00	2733355	4	0	0	0	0	0	0	0	0	0	0	0	0	0	0	8	6	0	0	0	0	0		1	0	0	0	0	0	0	0
012313	13:37:00	10028	corsiblockFrRev	recallseqFrRev	10	doneCorsiFr	804	0	120	13:37:00	2734208	4	0	0	0	0	0	0	0	0	0	0	0	0	0	0	8	6	0	0	0	0	0		1	0	0	0	0	0	0	0
012313	13:37:00	10028	corsiblockFrRev	recallseqFrRev	10	6	818	0	120	13:37:00	2745110	4	0	0	0	0	0	0	0	0	0	0	0	0	0	0	8	6	0	0	0	0	0		1	0	0	0	0	0	0	0
012313	13:37:00	10028	corsiblockFrRev	recallseqFrRev	10	5	544	0	120	13:37:00	2745709	4	0	0	0	0	0	0	0	0	0	0	0	0	0	0	8	6	0	0	0	0	0		1	0	0	0	0	0	0	0
012313	13:37:00	10028	corsiblockFrRev	recallseqFrRev	10	8	1744	0	120	13:37:00	2747509	4	0	0	0	0	0	0	0	0	0	0	0	0	0	0	8	6	0	0	0	0	0		1	0	0	0	0	0	0	0
012313	13:37:00	10028	corsiblockFrRev	recallseqFrRev	10	7	513	0	120	13:37:00	2748068	4	0	0	0	0	0	0	0	0	0	0	0	0	0	0	8	6	0	0	0	0	0		1	0	0	0	0	0	0	0
012313	13:37:00	10028	corsiblockFrRev	recallseqFrRev	10	2	569	0	120	13:37:00	2748695	4	0	0	0	0	0	0	0	0	0	0	0	0	0	0	8	6	0	0	0	0	0		1	0	0	0	0	0	0	0
012313	13:37:00	10028	corsiblockFrRev	recallseqFrRev	10	9	607	0	120	13:37:00	2749348	4	0	0	0	0	0	0	0	0	0	0	0	0	0	0	8	6	0	0	0	0	0		1	0	0	0	0	0	0	0
012313	13:37:00	10028	corsiblockFrRev	recallseqFrRev	10	1	610	0	120	13:37:00	2750014	4	0	0	0	0	0	0	0	0	0	0	0	0	0	0	8	6	0	0	0	0	0		1	0	0	0	0	0	0	0
012313	13:37:00	10028	corsiblockFrRev	recallseqFrRev	10	doneCorsiFr	919	0	120	13:37:00	2750987	4	0	0	0	0	0	0	0	0	0	0	0	0	0	0	8	7	0	0	0	0	0		1	0	0	0	0	0	0	0
012313	13:37:00	10028	corsiblockFrRev	recallseqFrRev	10	2	1796	0	120	13:37:00	2762902	4	0	0	0	0	0	0	0	0	0	0	0	0	0	0	8	7	0	0	0	0	0		1	0	0	0	0	0	0	0
012313	13:37:00	10028	corsiblockFrRev	recallseqFrRev	10	9	951	0	120	13:37:00	2763902	4	0	0	0	0	0	0	0	0	0	0	0	0	0	0	8	7	0	0	0	0	0		1	0	0	0	0	0	0	0
012313	13:37:00	10028	corsiblockFrRev	recallseqFrRev	10	6	1831	0	120	13:37:00	2765781	4	0	0	0	0	0	0	0	0	0	0	0	0	0	0	8	7	0	0	0	0	0		1	0	0	0	0	0	0	0
012313	13:37:00	10028	corsiblockFrRev	recallseqFrRev	10	7	536	0	120	13:37:00	2766367	4	0	0	0	0	0	0	0	0	0	0	0	0	0	0	8	7	0	0	0	0	0		1	0	0	0	0	0	0	0
012313	13:37:00	10028	corsiblockFrRev	recallseqFrRev	10	4	590	0	120	13:37:00	2767007	4	0	0	0	0	0	0	0	0	0	0	0	0	0	0	8	7	0	0	0	0	0		1	0	0	0	0	0	0	0
012313	13:37:00	10028	corsiblockFrRev	recallseqFrRev	10	3	550	0	120	13:37:00	2767607	4	0	0	0	0	0	0	0	0	0	0	0	0	0	0	8	7	0	0	0	0	0		1	0	0	0	0	0	0	0
012313	13:37:00	10028	corsiblockFrRev	recallseqFrRev	10	1	614	0	120	13:37:00	2768273	4	0	0	0	0	0	0	0	0	0	0	0	0	0	0	8	7	0	0	0	0	0		1	0	0	0	0	0	0	0
012313	13:37:00	10028	corsiblockFrRev	recallseqFrRev	10	doneCorsiFr	860	0	120	13:37:00	2769180	4	0	0	0	0	0	0	0	0	0	0	0	0	0	0	8	7	0	0	0	0	0		1	0	0	0	0	0	0	0
012313	13:37:00	10028	corsiblockFrRev	recallseqFrRev	10	1	3909	0	120	13:37:00	2784174	4	0	0	0	0	0	0	0	0	0	0	0	0	0	0	8	7	0	0	0	0	0		1	0	0	0	0	0	0	0
012313	13:37:00	10028	corsiblockFrRev	recallseqFrRev	10	2	432	0	120	13:37:00	2784653	4	0	0	0	0	0	0	0	0	0	0	0	0	0	0	8	7	0	0	0	0	0		1	0	0	0	0	0	0	0
012313	13:37:00	10028	corsiblockFrRev	recallseqFrRev	10	7	487	0	120	13:37:00	2785186	4	0	0	0	0	0	0	0	0	0	0	0	0	0	0	8	7	0	0	0	0	0		1	0	0	0	0	0	0	0
012313	13:37:00	10028	corsiblockFrRev	recallseqFrRev	10	4	2106	0	120	13:37:00	2787345	4	0	0	0	0	0	0	0	0	0	0	0	0	0	0	8	7	0	0	0	0	0		1	0	0	0	0	0	0	0
012313	13:37:00	10028	corsiblockFrRev	recallseqFrRev	10	3	627	0	120	13:37:00	2788025	4	0	0	0	0	0	0	0	0	0	0	0	0	0	0	8	7	0	0	0	0	0		1	0	0	0	0	0	0	0
012313	13:37:00	10028	corsiblockFrRev	recallseqFrRev	10	4	444	0	120	13:37:00	2788519	4	0	0	0	0	0	0	0	0	0	0	0	0	0	0	8	7	0	0	0	0	0		1	0	0	0	0	0	0	0
012313	13:37:00	10028	corsiblockFrRev	recallseqFrRev	10	6	534	0	120	13:37:00	2789105	4	0	0	0	0	0	0	0	0	0	0	0	0	0	0	8	7	0	0	0	0	0		1	0	0	0	0	0	0	0
012313	13:37:00	10028	corsiblockFrRev	recallseqFrRev	10	8	483	0	120	13:37:00	2789638	4	0	0	0	0	0	0	0	0	0	0	0	0	0	0	8	7	0	0	0	0	0		1	0	0	0	0	0	0	0
012313	13:37:00	10028	corsiblockFrRev	recallseqFrRev	10	doneCorsiFr	734	0	120	13:37:00	2790424	4	0	0	0	0	0	0	0	0	0	0	0	0	0	0	8	7	0	0	0	0	0		1	0	0	0	0	0	0	0
012313	13:37:00	10028	testFr6mo	WordsFr6mo	11	7Fr6mo	1709	0	120	13:37:00	2814894	4	0	0	0	0	0	0	3	0	0	0	0	0	0	0	8	7	0	0	0	0	0		1	0	0	0	0	0	0	0
012313	13:37:00	10028	testFr6mo	WordsFr6mo	11	5Fr6mo	382	0	120	13:37:00	2815321	4	0	0	0	0	3	0	3	0	0	0	0	0	0	0	8	7	0	0	0	0	0		1	0	0	0	0	0	0	0
012313	13:37:00	10028	testFr6mo	WordsFr6mo	11	4Fr6mo	267	0	120	13:37:00	2815641	4	0	0	0	3	3	0	3	0	0	0	0	0	0	0	8	7	0	0	0	0	0		1	0	0	0	0	0	0	0
012313	13:37:00	10028	testFr6mo	WordsFr6mo	11	3Fr6mo	276	0	120	13:37:00	2815960	4	0	0	3	3	3	0	3	0	0	0	0	0	0	0	8	7	0	0	0	0	0		1	0	0	0	0	0	0	0
012313	13:37:00	10028	testFr6mo	WordsFr6mo	11	2Fr6mo	308	0	120	13:37:00	2816320	4	0	3	3	3	3	0	3	0	0	0	0	0	0	0	8	7	0	0	0	0	0		1	0	0	0	0	0	0	0
012313	13:37:00	10028	testFr6mo	WordsFr6mo	11	1Fr6mo	260	0	120	13:37:00	2816627	4	3	3	3	3	3	0	3	0	0	0	0	0	0	0	8	7	0	0	0	0	0		1	0	0	0	0	0	0	0
012313	13:37:00	10028	testFr6mo	WordsFr6mo	11	6Fr6mo	585	0	120	13:37:00	2817267	4	3	3	3	3	3	3	3	0	0	0	0	0	0	0	8	7	0	0	0	0	0		1	0	0	0	0	0	0	0
012313	13:37:00	10028	testFr6mo	WordsFr6mo	11	8Fr6mo	42704	0	120	13:37:00	2860022	4	3	3	3	3	3	3	3	3	0	0	0	0	0	0	8	7	0	0	0	0	0		1	0	0	0	0	0	0	0
012313	13:37:00	10028	testFr6mo	WordsFr6mo	11	DoneFr6mo	285	0	120	13:37:00	2860355	4	3	3	3	3	3	3	3	3	0	0	0	0	0	0	8	7	0	0	0	0	0		1	0	0	0	0	0	0	0
012313	13:37:00	10028	DigitSpanFwrdFr6mo	Score1FwrdFr6mo	12	DS1	1550	0	120	13:37:00	2877948	4	3	3	3	3	3	3	3	3	0	0	0	0	0	0	8	7	0	0	0	0	0		1	0	0	0	0	0	0	0
012313	13:37:00	10028	DigitSpanFwrdFr6mo	Gate1FwrdFr6mo	12	0	1	0	120	13:37:00	2877952	4	3	3	3	3	3	3	3	3	3	0	0	0	0	0	8	7	0	0	0	0	0		1	0	0	0	0	0	0	0
012313	13:37:00	10028	DigitSpanFwrdFr6mo	Score2FwrdFr6mo	12	DS1	2631	0	120	13:37:00	2886890	4	3	3	3	3	3	3	3	3	3	0	0	0	0	0	8	7	0	0	0	0	0		1	0	0	0	0	0	0	0
012313	13:37:00	10028	DigitSpanFwrdFr6mo	Gate3FwrdFr6mo	12	0	1	0	120	13:37:00	2886896	4	3	3	3	3	3	3	3	3	4	0	0	0	0	0	8	7	0	0	0	0	0		1	0	0	0	0	0	0	0
012313	13:37:00	10028	DigitSpanFwrdFr6mo	Score3FwrdFr6mo	12	DS1	1840	0	120	13:37:00	2895967	4	3	3	3	3	3	3	3	3	4	0	0	0	0	0	8	7	0	0	0	0	0		1	0	0	0	0	0	0	0
012313	13:37:00	10028	DigitSpanFwrdFr6mo	Gate5FwrdFr6mo	12	0	1	0	120	13:37:00	2895971	4	3	3	3	3	3	3	3	3	5	0	0	0	0	0	8	7	0	0	0	0	0		1	0	0	0	0	0	0	0
012313	13:37:00	10028	DigitSpanFwrdFr6mo	Score4FwrdFr6mo	12	DS1	2716	0	120	13:37:00	2907189	4	3	3	3	3	3	3	3	3	5	0	0	0	0	0	8	7	0	0	0	0	0		1	0	0	0	0	0	0	0
012313	13:37:00	10028	DigitSpanFwrdFr6mo	Gate7FwrdFr6mo	12	0	1	0	120	13:37:00	2907193	4	3	3	3	3	3	3	3	3	6	0	0	0	0	0	8	7	0	0	0	0	0		1	0	0	0	0	0	0	0
012313	13:37:00	10028	DigitSpanFwrdFr6mo	Score5FwrdFr6mo	12	DS1	4918	0	120	13:37:00	2922062	4	3	3	3	3	3	3	3	3	6	0	0	0	0	0	8	7	0	0	0	0	0		1	0	0	0	0	0	0	0
012313	13:37:00	10028	DigitSpanFwrdFr6mo	Gate9FwrdFr6mo	12	0	1	0	120	13:37:00	2922067	4	3	3	3	3	3	3	3	3	7	0	0	0	0	0	8	7	0	0	0	0	0		1	0	0	0	0	0	0	0
012313	13:37:00	10028	DigitSpanFwrdFr6mo	Score6FwrdFr6mo	12	DS1	6220	0	120	13:37:00	2939389	4	3	3	3	3	3	3	3	3	8	0	0	0	0	0	8	7	0	0	0	0	0		1	0	0	0	0	0	0	0
012313	13:37:00	10028	DigitSpanFr6mo	Score1Fr6mo	13	DS1	2699	0	120	13:37:00	2954942	4	3	3	3	3	3	3	3	3	8	0	0	0	0	0	8	7	0	0	0	0	0		1	0	0	0	0	0	0	0
012313	13:37:00	10028	DigitSpanFr6mo	Gate1Fr6mo	13	0	1	0	120	13:37:00	2954948	4	3	3	3	3	3	3	3	3	8	2	0	0	0	0	8	7	0	0	0	0	0		1	0	0	0	0	0	0	0
012313	13:37:00	10028	DigitSpanFr6mo	Score2Fr6mo	13	DS1	2406	0	120	13:37:00	2961926	4	3	3	3	3	3	3	3	3	8	2	0	0	0	0	8	7	0	0	0	0	0		1	0	0	0	0	0	0	0
012313	13:37:00	10028	DigitSpanFr6mo	Gate3Fr6mo	13	0	1	0	120	13:37:00	2961931	4	3	3	3	3	3	3	3	3	8	3	0	0	0	0	8	7	0	0	0	0	0		1	0	0	0	0	0	0	0
012313	13:37:00	10028	DigitSpanFr6mo	Score3Fr6mo	13	DS1	3387	0	120	13:37:00	2971002	4	3	3	3	3	3	3	3	3	8	3	0	0	0	0	8	7	0	0	0	0	0		1	0	0	0	0	0	0	0
012313	13:37:00	10028	DigitSpanFr6mo	Gate5Fr6mo	13	0	1	0	120	13:37:00	2971007	4	3	3	3	3	3	3	3	3	8	4	0	0	0	0	8	7	0	0	0	0	0		1	0	0	0	0	0	0	0
012313	13:37:00	10028	DigitSpanFr6mo	Score4Fr6mo	13	DS1	8938	0	120	13:37:00	2986876	4	3	3	3	3	3	3	3	3	8	4	0	0	0	0	8	7	0	0	0	0	0		1	0	0	0	0	0	0	0
012313	13:37:00	10028	DigitSpanFr6mo	Gate7Fr6mo	13	0	1	0	120	13:37:00	2986880	4	3	3	3	3	3	3	3	3	8	5	0	0	0	0	8	7	0	0	0	0	0		1	0	0	0	0	0	0	0
012313	13:37:00	10028	DigitSpanFr6mo	Score5Fr6mo	13	DS1	14987	0	120	13:37:00	3010333	4	3	3	3	3	3	3	3	3	8	5	0	0	0	0	8	7	0	0	0	0	0		1	0	0	0	0	0	0	0
012313	13:37:00	10028	DigitSpanFr6mo	Gate9Fr6mo	13	0	1	0	120	13:37:00	3010339	4	3	3	3	3	3	3	3	3	8	6	0	0	0	0	8	7	0	0	0	0	0		1	0	0	0	0	0	0	0
012313	13:37:00	10028	DigitSpanFr6mo	Score6Fr6mo	13	DS2	10893	0	120	13:37:00	3030991	4	3	3	3	3	3	3	3	3	8	6	0	0	0	0	8	7	0	0	0	0	0		1	0	0	0	0	0	0	0
012313	13:37:00	10028	DigitSpanFr6mo	Gate11Fr6mo	13	0	1	0	120	13:37:00	3030997	4	3	3	3	3	3	3	3	3	8	6	0	0	0	0	8	7	0	0	0	0	0		1	0	0	0	0	0	0	0
012313	13:37:00	10028	DigitSpanFr6mo	Score66Fr6mo	13	DS1	6237	0	120	13:37:00	3046811	4	3	3	3	3	3	3	3	3	8	7	0	0	0	0	8	7	0	0	0	0	0		1	0	0	0	0	0	0	0
012313	13:37:00	10028	Trial	ResponseIL	14	0	175	0	120	13:37:00	3079810	4	3	3	3	3	3	3	3	3	8	7	0	0	0	0	8	7	0	0	0	0	0		1	0	0	0	0	0	0	0
012313	13:37:00	10028	Trial	IncongruentLeft	14	203	378	1	120	13:37:00	3080210	4	3	3	3	3	3	3	3	3	8	7	0	0	0	0	8	7	0	0	0	0	0		1	0	0	0	0	0	0	0
012313	13:37:00	10028	Trial	ResponseCR	14	0	175	0	120	13:37:00	3081516	4	3	3	3	3	3	3	3	3	8	7	0	0	0	0	8	7	0	0	0	0	0		1	0	0	0	0	0	0	0
012313	13:37:00	10028	Trial	CongruentRight	14	205	208	1	120	13:37:00	3081743	4	3	3	3	3	3	3	3	3	8	7	0	0	0	0	8	7	0	0	0	0	0		1	0	0	0	0	0	0	0
012313	13:37:00	10028	Trial	ResponseIR	14	0	175	0	120	13:37:00	3083222	4	3	3	3	3	3	3	3	3	8	7	0	0	0	0	8	7	0	0	0	0	0		1	0	0	0	0	0	0	0
012313	13:37:00	10028	Trial	IncongruentRight	14	205	310	1	120	13:37:00	3083556	4	3	3	3	3	3	3	3	3	8	7	0	0	0	0	8	7	0	0	0	0	0		1	0	0	0	0	0	0	0
012313	13:37:00	10028	Trial	ResponseCL	14	0	175	0	120	13:37:00	3084928	4	3	3	3	3	3	3	3	3	8	7	0	0	0	0	8	7	0	0	0	0	0		1	0	0	0	0	0	0	0
012313	13:37:00	10028	Trial	CongruentLeft	14	203	188	1	120	13:37:00	3085141	4	3	3	3	3	3	3	3	3	8	7	0	0	0	0	8	7	0	0	0	0	0		1	0	0	0	0	0	0	0
012313	13:37:00	10028	Trial	ResponseCR	14	0	175	0	120	13:37:00	3086634	4	3	3	3	3	3	3	3	3	8	7	0	0	0	0	8	7	0	0	0	0	0		1	0	0	0	0	0	0	0
012313	13:37:00	10028	Trial	CongruentRight	14	205	178	1	120	13:37:00	3086834	4	3	3	3	3	3	3	3	3	8	7	0	0	0	0	8	7	0	0	0	0	0		1	0	0	0	0	0	0	0
012313	13:37:00	10028	Trial	ResponseIR	14	0	175	0	120	13:37:00	3088340	4	3	3	3	3	3	3	3	3	8	7	0	0	0	0	8	7	0	0	0	0	0		1	0	0	0	0	0	0	0
012313	13:37:00	10028	Trial	IncongruentRight	14	205	328	1	120	13:37:00	3088687	4	3	3	3	3	3	3	3	3	8	7	0	0	0	0	8	7	0	0	0	0	0		1	0	0	0	0	0	0	0
012313	13:37:00	10028	Trial	ResponseCL	14	0	175	0	120	13:37:00	3090046	4	3	3	3	3	3	3	3	3	8	7	0	0	0	0	8	7	0	0	0	0	0		1	0	0	0	0	0	0	0
012313	13:37:00	10028	Trial	CongruentLeft	14	203	317	1	120	13:37:00	3090393	4	3	3	3	3	3	3	3	3	8	7	0	0	0	0	8	7	0	0	0	0	0		1	0	0	0	0	0	0	0
012313	13:37:00	10028	Trial	ResponseIL	14	0	175	0	120	13:37:00	3091752	4	3	3	3	3	3	3	3	3	8	7	0	0	0	0	8	7	0	0	0	0	0		1	0	0	0	0	0	0	0
012313	13:37:00	10028	Trial	IncongruentLeft	14	205	164	0	120	13:37:00	3091939	4	3	3	3	3	3	3	3	3	8	7	0	0	0	0	8	7	0	0	0	0	0		1	0	0	0	0	0	0	0
012313	13:37:00	10028	Trial	ResponseIL	14	0	175	0	120	13:37:00	3093458	4	3	3	3	3	3	3	3	3	8	7	0	0	0	0	8	7	0	0	0	0	0		1	0	0	0	0	0	0	0
012313	13:37:00	10028	Trial	IncongruentLeft	14	203	346	1	120	13:37:00	3093831	4	3	3	3	3	3	3	3	3	8	7	0	0	0	0	8	7	0	0	0	0	0		1	0	0	0	0	0	0	0
012313	13:37:00	10028	Trial	ResponseCR	14	0	175	0	120	13:37:00	3095164	4	3	3	3	3	3	3	3	3	8	7	0	0	0	0	8	7	0	0	0	0	0		1	0	0	0	0	0	0	0
012313	13:37:00	10028	Trial	CongruentRight	14	205	319	1	120	13:37:00	3095511	4	3	3	3	3	3	3	3	3	8	7	0	0	0	0	8	7	0	0	0	0	0		1	0	0	0	0	0	0	0
012313	13:37:00	10028	Trial	ResponseIR	14	0	175	0	120	13:37:00	3096870	4	3	3	3	3	3	3	3	3	8	7	0	0	0	0	8	7	0	0	0	0	0		1	0	0	0	0	0	0	0
012313	13:37:00	10028	Trial	IncongruentRight	14	205	390	1	120	13:37:00	3097283	4	3	3	3	3	3	3	3	3	8	7	0	0	0	0	8	7	0	0	0	0	0		1	0	0	0	0	0	0	0
012313	13:37:00	10028	Trial	ResponseCL	14	0	175	0	120	13:37:00	3098576	4	3	3	3	3	3	3	3	3	8	7	0	0	0	0	8	7	0	0	0	0	0		1	0	0	0	0	0	0	0
012313	13:37:00	10028	Trial	CongruentLeft	14	203	204	1	120	13:37:00	3098803	4	3	3	3	3	3	3	3	3	8	7	0	0	0	0	8	7	0	0	0	0	0		1	0	0	0	0	0	0	0
012313	13:37:00	10028	Trial	ResponseCR	14	0	175	0	120	13:37:00	3100282	4	3	3	3	3	3	3	3	3	8	7	0	0	0	0	8	7	0	0	0	0	0		1	0	0	0	0	0	0	0
012313	13:37:00	10028	Trial	CongruentRight	14	205	177	1	120	13:37:00	3100482	4	3	3	3	3	3	3	3	3	8	7	0	0	0	0	8	7	0	0	0	0	0		1	0	0	0	0	0	0	0
012313	13:37:00	10028	Trial	ResponseIL	14	0	175	0	120	13:37:00	3101988	4	3	3	3	3	3	3	3	3	8	7	0	0	0	0	8	7	0	0	0	0	0		1	0	0	0	0	0	0	0
012313	13:37:00	10028	Trial	IncongruentLeft	14	203	295	1	120	13:37:00	3102308	4	3	3	3	3	3	3	3	3	8	7	0	0	0	0	8	7	0	0	0	0	0		1	0	0	0	0	0	0	0
012313	13:37:00	10028	Trial	ResponseIR	14	0	175	0	120	13:37:00	3103694	4	3	3	3	3	3	3	3	3	8	7	0	0	0	0	8	7	0	0	0	0	0		1	0	0	0	0	0	0	0
012313	13:37:00	10028	Trial	IncongruentRight	14	205	286	1	120	13:37:00	3104000	4	3	3	3	3	3	3	3	3	8	7	0	0	0	0	8	7	0	0	0	0	0		1	0	0	0	0	0	0	0
012313	13:37:00	10028	Trial	ResponseCR	14	0	175	0	120	13:37:00	3105400	4	3	3	3	3	3	3	3	3	8	7	0	0	0	0	8	7	0	0	0	0	0		1	0	0	0	0	0	0	0
012313	13:37:00	10028	Trial	CongruentRight	14	205	244	1	120	13:37:00	3105666	4	3	3	3	3	3	3	3	3	8	7	0	0	0	0	8	7	0	0	0	0	0		1	0	0	0	0	0	0	0
012313	13:37:00	10028	Trial	ResponseCL	14	0	175	0	120	13:37:00	3107106	4	3	3	3	3	3	3	3	3	8	7	0	0	0	0	8	7	0	0	0	0	0		1	0	0	0	0	0	0	0
012313	13:37:00	10028	Trial	CongruentLeft	14	203	201	1	120	13:37:00	3107333	4	3	3	3	3	3	3	3	3	8	7	0	0	0	0	8	7	0	0	0	0	0		1	0	0	0	0	0	0	0
012313	13:37:00	10028	Trial	ResponseCR	14	0	175	0	120	13:37:00	3108812	4	3	3	3	3	3	3	3	3	8	7	0	0	0	0	8	7	0	0	0	0	0		1	0	0	0	0	0	0	0
012313	13:37:00	10028	Trial	CongruentRight	14	205	367	1	120	13:37:00	3109198	4	3	3	3	3	3	3	3	3	8	7	0	0	0	0	8	7	0	0	0	0	0		1	0	0	0	0	0	0	0
012313	13:37:00	10028	Trial	ResponseIR	14	0	175	0	120	13:37:00	3110518	4	3	3	3	3	3	3	3	3	8	7	0	0	0	0	8	7	0	0	0	0	0		1	0	0	0	0	0	0	0
012313	13:37:00	10028	Trial	IncongruentRight	14	205	438	1	120	13:37:00	3110984	4	3	3	3	3	3	3	3	3	8	7	0	0	0	0	8	7	0	0	0	0	0		1	0	0	0	0	0	0	0
012313	13:37:00	10028	Trial	ResponseIL	14	0	175	0	120	13:37:00	3112224	4	3	3	3	3	3	3	3	3	8	7	0	0	0	0	8	7	0	0	0	0	0		1	0	0	0	0	0	0	0
012313	13:37:00	10028	Trial	IncongruentLeft	14	203	299	1	120	13:37:00	3112544	4	3	3	3	3	3	3	3	3	8	7	0	0	0	0	8	7	0	0	0	0	0		1	0	0	0	0	0	0	0
012313	13:37:00	10028	Trial	ResponseIL	14	0	175	0	120	13:37:00	3113930	4	3	3	3	3	3	3	3	3	8	7	0	0	0	0	8	7	0	0	0	0	0		1	0	0	0	0	0	0	0
012313	13:37:00	10028	Trial	IncongruentLeft	14	203	258	1	120	13:37:00	3114209	4	3	3	3	3	3	3	3	3	8	7	0	0	0	0	8	7	0	0	0	0	0		1	0	0	0	0	0	0	0
012313	13:37:00	10028	Trial	ResponseCL	14	0	175	0	120	13:37:00	3115635	4	3	3	3	3	3	3	3	3	8	7	0	0	0	0	8	7	0	0	0	0	0		1	0	0	0	0	0	0	0
012313	13:37:00	10028	Trial	CongruentLeft	14	203	216	1	120	13:37:00	3115875	4	3	3	3	3	3	3	3	3	8	7	0	0	0	0	8	7	0	0	0	0	0		1	0	0	0	0	0	0	0
012313	13:37:00	10028	Trial	ResponseCR	14	0	175	0	120	13:37:00	3117342	4	3	3	3	3	3	3	3	3	8	7	0	0	0	0	8	7	0	0	0	0	0		1	0	0	0	0	0	0	0
012313	13:37:00	10028	Trial	CongruentRight	14	205	237	1	120	13:37:00	3117608	4	3	3	3	3	3	3	3	3	8	7	0	0	0	0	8	7	0	0	0	0	0		1	0	0	0	0	0	0	0
012313	13:37:00	10028	Trial	ResponseIL	14	0	175	0	120	13:37:00	3119048	4	3	3	3	3	3	3	3	3	8	7	0	0	0	0	8	7	0	0	0	0	0		1	0	0	0	0	0	0	0
012313	13:37:00	10028	Trial	IncongruentLeft	14	203	371	1	120	13:37:00	3119447	4	3	3	3	3	3	3	3	3	8	7	0	0	0	0	8	7	0	0	0	0	0		1	0	0	0	0	0	0	0
012313	13:37:00	10028	Trial	ResponseIR	14	0	175	0	120	13:37:00	3120754	4	3	3	3	3	3	3	3	3	8	7	0	0	0	0	8	7	0	0	0	0	0		1	0	0	0	0	0	0	0
012313	13:37:00	10028	Trial	IncongruentRight	14	205	298	1	120	13:37:00	3121073	4	3	3	3	3	3	3	3	3	8	7	0	0	0	0	8	7	0	0	0	0	0		1	0	0	0	0	0	0	0
012313	13:37:00	10028	Trial	ResponseCR	14	0	175	0	120	13:37:00	3122459	4	3	3	3	3	3	3	3	3	8	7	0	0	0	0	8	7	0	0	0	0	0		1	0	0	0	0	0	0	0
012313	13:37:00	10028	Trial	CongruentRight	14	205	207	1	120	13:37:00	3122686	4	3	3	3	3	3	3	3	3	8	7	0	0	0	0	8	7	0	0	0	0	0		1	0	0	0	0	0	0	0
012313	13:37:00	10028	Trial	ResponseCL	14	0	175	0	120	13:37:00	3124166	4	3	3	3	3	3	3	3	3	8	7	0	0	0	0	8	7	0	0	0	0	0		1	0	0	0	0	0	0	0
012313	13:37:00	10028	Trial	CongruentLeft	14	203	213	1	120	13:37:00	3124405	4	3	3	3	3	3	3	3	3	8	7	0	0	0	0	8	7	0	0	0	0	0		1	0	0	0	0	0	0	0
012313	13:37:00	10028	Trial	ResponseIR	14	0	175	0	120	13:37:00	3125871	4	3	3	3	3	3	3	3	3	8	7	0	0	0	0	8	7	0	0	0	0	0		1	0	0	0	0	0	0	0
012313	13:37:00	10028	Trial	IncongruentRight	14	205	219	1	120	13:37:00	3126111	4	3	3	3	3	3	3	3	3	8	7	0	0	0	0	8	7	0	0	0	0	0		1	0	0	0	0	0	0	0
012313	13:37:00	10028	Trial	ResponseIL	14	0	175	0	120	13:37:00	3127577	4	3	3	3	3	3	3	3	3	8	7	0	0	0	0	8	7	0	0	0	0	0		1	0	0	0	0	0	0	0
012313	13:37:00	10028	Trial	IncongruentLeft	14	203	241	1	120	13:37:00	3127844	4	3	3	3	3	3	3	3	3	8	7	0	0	0	0	8	7	0	0	0	0	0		1	0	0	0	0	0	0	0
012313	13:37:00	10028	Trial	ResponseIR	14	0	175	0	120	13:37:00	3129283	4	3	3	3	3	3	3	3	3	8	7	0	0	0	0	8	7	0	0	0	0	0		1	0	0	0	0	0	0	0
012313	13:37:00	10028	Trial	IncongruentRight	14	205	263	1	120	13:37:00	3129563	4	3	3	3	3	3	3	3	3	8	7	0	0	0	0	8	7	0	0	0	0	0		1	0	0	0	0	0	0	0
012313	13:37:00	10028	Trial	ResponseCR	14	0	175	0	120	13:37:00	3130989	4	3	3	3	3	3	3	3	3	8	7	0	0	0	0	8	7	0	0	0	0	0		1	0	0	0	0	0	0	0
012313	13:37:00	10028	Trial	CongruentRight	14	205	269	1	120	13:37:00	3131282	4	3	3	3	3	3	3	3	3	8	7	0	0	0	0	8	7	0	0	0	0	0		1	0	0	0	0	0	0	0
012313	13:37:00	10028	Trial	ResponseIL	14	0	175	0	120	13:37:00	3132695	4	3	3	3	3	3	3	3	3	8	7	0	0	0	0	8	7	0	0	0	0	0		1	0	0	0	0	0	0	0
012313	13:37:00	10028	Trial	IncongruentLeft	14	203	291	1	120	13:37:00	3133015	4	3	3	3	3	3	3	3	3	8	7	0	0	0	0	8	7	0	0	0	0	0		1	0	0	0	0	0	0	0
012313	13:37:00	10028	Trial	ResponseCL	14	0	175	0	120	13:37:00	3134401	4	3	3	3	3	3	3	3	3	8	7	0	0	0	0	8	7	0	0	0	0	0		1	0	0	0	0	0	0	0
012313	13:37:00	10028	Trial	CongruentLeft	14	203	233	1	120	13:37:00	3134654	4	3	3	3	3	3	3	3	3	8	7	0	0	0	0	8	7	0	0	0	0	0		1	0	0	0	0	0	0	0
012313	13:37:00	10028	Trial	ResponseCR	14	0	175	0	120	13:37:00	3136107	4	3	3	3	3	3	3	3	3	8	7	0	0	0	0	8	7	0	0	0	0	0		1	0	0	0	0	0	0	0
012313	13:37:00	10028	Trial	CongruentRight	14	205	175	1	120	13:37:00	3136307	4	3	3	3	3	3	3	3	3	8	7	0	0	0	0	8	7	0	0	0	0	0		1	0	0	0	0	0	0	0
012313	13:37:00	10028	Trial	ResponseIL	14	0	175	0	120	13:37:00	3137813	4	3	3	3	3	3	3	3	3	8	7	0	0	0	0	8	7	0	0	0	0	0		1	0	0	0	0	0	0	0
012313	13:37:00	10028	Trial	IncongruentLeft	14	203	325	1	120	13:37:00	3138160	4	3	3	3	3	3	3	3	3	8	7	0	0	0	0	8	7	0	0	0	0	0		1	0	0	0	0	0	0	0
012313	13:37:00	10028	Trial	ResponseIR	14	0	175	0	120	13:37:00	3139519	4	3	3	3	3	3	3	3	3	8	7	0	0	0	0	8	7	0	0	0	0	0		1	0	0	0	0	0	0	0
012313	13:37:00	10028	Trial	IncongruentRight	14	205	204	1	120	13:37:00	3139746	4	3	3	3	3	3	3	3	3	8	7	0	0	0	0	8	7	0	0	0	0	0		1	0	0	0	0	0	0	0
012313	13:37:00	10028	Trial	ResponseIR	14	0	175	0	120	13:37:00	3141225	4	3	3	3	3	3	3	3	3	8	7	0	0	0	0	8	7	0	0	0	0	0		1	0	0	0	0	0	0	0
012313	13:37:00	10028	Trial	IncongruentRight	14	205	305	1	120	13:37:00	3141558	4	3	3	3	3	3	3	3	3	8	7	0	0	0	0	8	7	0	0	0	0	0		1	0	0	0	0	0	0	0
012313	13:37:00	10028	Trial	ResponseCL	14	0	175	0	120	13:37:00	3142931	4	3	3	3	3	3	3	3	3	8	7	0	0	0	0	8	7	0	0	0	0	0		1	0	0	0	0	0	0	0
012313	13:37:00	10028	Trial	CongruentLeft	14	203	375	1	120	13:37:00	3143331	4	3	3	3	3	3	3	3	3	8	7	0	0	0	0	8	7	0	0	0	0	0		1	0	0	0	0	0	0	0
012313	13:37:00	10028	Trial	ResponseIL	14	0	175	0	120	13:37:00	3144637	4	3	3	3	3	3	3	3	3	8	7	0	0	0	0	8	7	0	0	0	0	0		1	0	0	0	0	0	0	0
012313	13:37:00	10028	Trial	IncongruentLeft	14	203	317	1	120	13:37:00	3144984	4	3	3	3	3	3	3	3	3	8	7	0	0	0	0	8	7	0	0	0	0	0		1	0	0	0	0	0	0	0
012313	13:37:00	10028	Trial	ResponseCR	14	0	175	0	120	13:37:00	3146343	4	3	3	3	3	3	3	3	3	8	7	0	0	0	0	8	7	0	0	0	0	0		1	0	0	0	0	0	0	0
012313	13:37:00	10028	Trial	CongruentRight	14	205	227	1	120	13:37:00	3146596	4	3	3	3	3	3	3	3	3	8	7	0	0	0	0	8	7	0	0	0	0	0		1	0	0	0	0	0	0	0
012313	13:37:00	10028	Trial	ResponseCL	14	0	175	0	120	13:37:00	3148049	4	3	3	3	3	3	3	3	3	8	7	0	0	0	0	8	7	0	0	0	0	0		1	0	0	0	0	0	0	0
012313	13:37:00	10028	Trial	CongruentLeft	14	203	249	1	120	13:37:00	3148315	4	3	3	3	3	3	3	3	3	8	7	0	0	0	0	8	7	0	0	0	0	0		1	0	0	0	0	0	0	0
012313	13:37:00	10028	Trial	ResponseIR	14	0	175	0	120	13:37:00	3149755	4	3	3	3	3	3	3	3	3	8	7	0	0	0	0	8	7	0	0	0	0	0		1	0	0	0	0	0	0	0
012313	13:37:00	10028	Trial	IncongruentRight	14	205	415	1	120	13:37:00	3150195	4	3	3	3	3	3	3	3	3	8	7	0	0	0	0	8	7	0	0	0	0	0		1	0	0	0	0	0	0	0
012313	13:37:00	10028	Trial	ResponseCR	14	0	175	0	120	13:37:00	3151461	4	3	3	3	3	3	3	3	3	8	7	0	0	0	0	8	7	0	0	0	0	0		1	0	0	0	0	0	0	0
012313	13:37:00	10028	Trial	CongruentRight	14	205	388	1	120	13:37:00	3151874	4	3	3	3	3	3	3	3	3	8	7	0	0	0	0	8	7	0	0	0	0	0		1	0	0	0	0	0	0	0
012313	13:37:00	10028	Trial	ResponseIL	14	0	175	0	120	13:37:00	3153167	4	3	3	3	3	3	3	3	3	8	7	0	0	0	0	8	7	0	0	0	0	0		1	0	0	0	0	0	0	0
012313	13:37:00	10028	Trial	IncongruentLeft	14	203	523	1	120	13:37:00	3153713	4	3	3	3	3	3	3	3	3	8	7	0	0	0	0	8	7	0	0	0	0	0		1	0	0	0	0	0	0	0
012313	13:37:00	10028	Trial	ResponseCL	14	0	175	0	120	13:37:00	3154873	4	3	3	3	3	3	3	3	3	8	7	0	0	0	0	8	7	0	0	0	0	0		1	0	0	0	0	0	0	0
012313	13:37:00	10028	Trial	CongruentLeft	14	203	273	1	120	13:37:00	3155166	4	3	3	3	3	3	3	3	3	8	7	0	0	0	0	8	7	0	0	0	0	0		1	0	0	0	0	0	0	0
012313	13:37:00	10028	Trial	ResponseIL	14	0	175	0	120	13:37:00	3156579	4	3	3	3	3	3	3	3	3	8	7	0	0	0	0	8	7	0	0	0	0	0		1	0	0	0	0	0	0	0
012313	13:37:00	10028	Trial	IncongruentLeft	14	203	279	1	120	13:37:00	3156885	4	3	3	3	3	3	3	3	3	8	7	0	0	0	0	8	7	0	0	0	0	0		1	0	0	0	0	0	0	0
012313	13:37:00	10028	Trial	ResponseIR	14	0	175	0	120	13:37:00	3158285	4	3	3	3	3	3	3	3	3	8	7	0	0	0	0	8	7	0	0	0	0	0		1	0	0	0	0	0	0	0
012313	13:37:00	10028	Trial	IncongruentRight	14	205	333	1	120	13:37:00	3158644	4	3	3	3	3	3	3	3	3	8	7	0	0	0	0	8	7	0	0	0	0	0		1	0	0	0	0	0	0	0
012313	13:37:00	10028	Trial	ResponseCR	14	0	175	0	120	13:37:00	3159991	4	3	3	3	3	3	3	3	3	8	7	0	0	0	0	8	7	0	0	0	0	0		1	0	0	0	0	0	0	0
012313	13:37:00	10028	Trial	CongruentRight	14	205	307	1	120	13:37:00	3160324	4	3	3	3	3	3	3	3	3	8	7	0	0	0	0	8	7	0	0	0	0	0		1	0	0	0	0	0	0	0
012313	13:37:00	10028	Trial	ResponseCL	14	0	175	0	120	13:37:00	3161697	4	3	3	3	3	3	3	3	3	8	7	0	0	0	0	8	7	0	0	0	0	0		1	0	0	0	0	0	0	0
012313	13:37:00	10028	Trial	CongruentLeft	14	203	153	1	120	13:37:00	3161870	4	3	3	3	3	3	3	3	3	8	7	0	0	0	0	8	7	0	0	0	0	0		1	0	0	0	0	0	0	0
012313	13:37:00	10028	Trial	ResponseCL	14	0	175	0	120	13:37:00	3163403	4	3	3	3	3	3	3	3	3	8	7	0	0	0	0	8	7	0	0	0	0	0		1	0	0	0	0	0	0	0
012313	13:37:00	10028	Trial	CongruentLeft	14	203	158	1	120	13:37:00	3163589	4	3	3	3	3	3	3	3	3	8	7	0	0	0	0	8	7	0	0	0	0	0		1	0	0	0	0	0	0	0
012313	13:37:00	10028	Trial	ResponseIR	14	0	175	0	120	13:37:00	3165109	4	3	3	3	3	3	3	3	3	8	7	0	0	0	0	8	7	0	0	0	0	0		1	0	0	0	0	0	0	0
012313	13:37:00	10028	Trial	IncongruentRight	14	205	213	1	120	13:37:00	3165348	4	3	3	3	3	3	3	3	3	8	7	0	0	0	0	8	7	0	0	0	0	0		1	0	0	0	0	0	0	0
012313	13:37:00	10028	Trial	ResponseIL	14	0	175	0	120	13:37:00	3166815	4	3	3	3	3	3	3	3	3	8	7	0	0	0	0	8	7	0	0	0	0	0		1	0	0	0	0	0	0	0
012313	13:37:00	10028	Trial	IncongruentLeft	14	203	267	1	120	13:37:00	3167107	4	3	3	3	3	3	3	3	3	8	7	0	0	0	0	8	7	0	0	0	0	0		1	0	0	0	0	0	0	0
012313	13:37:00	10028	Trial	ResponseIR	14	0	175	0	120	13:37:00	3168520	4	3	3	3	3	3	3	3	3	8	7	0	0	0	0	8	7	0	0	0	0	0		1	0	0	0	0	0	0	0
012313	13:37:00	10028	Trial	IncongruentRight	14	205	257	1	120	13:37:00	3168800	4	3	3	3	3	3	3	3	3	8	7	0	0	0	0	8	7	0	0	0	0	0		1	0	0	0	0	0	0	0
012313	13:37:00	10028	Trial	ResponseCR	14	0	175	0	120	13:37:00	3170226	4	3	3	3	3	3	3	3	3	8	7	0	0	0	0	8	7	0	0	0	0	0		1	0	0	0	0	0	0	0
012313	13:37:00	10028	Trial	CongruentRight	14	205	183	1	120	13:37:00	3170426	4	3	3	3	3	3	3	3	3	8	7	0	0	0	0	8	7	0	0	0	0	0		1	0	0	0	0	0	0	0
012313	13:37:00	10028	Trial	ResponseCR	14	0	175	0	120	13:37:00	3171932	4	3	3	3	3	3	3	3	3	8	7	0	0	0	0	8	7	0	0	0	0	0		1	0	0	0	0	0	0	0
012313	13:37:00	10028	Trial	CongruentRight	14	205	173	1	120	13:37:00	3172132	4	3	3	3	3	3	3	3	3	8	7	0	0	0	0	8	7	0	0	0	0	0		1	0	0	0	0	0	0	0
012313	13:37:00	10028	Trial	ResponseIL	14	0	175	0	120	13:37:00	3173638	4	3	3	3	3	3	3	3	3	8	7	0	0	0	0	8	7	0	0	0	0	0		1	0	0	0	0	0	0	0
012313	13:37:00	10028	Trial	IncongruentLeft	14	203	259	1	120	13:37:00	3173918	4	3	3	3	3	3	3	3	3	8	7	0	0	0	0	8	7	0	0	0	0	0		1	0	0	0	0	0	0	0
012313	13:37:00	10028	Trial	ResponseCL	14	0	175	0	120	13:37:00	3175345	4	3	3	3	3	3	3	3	3	8	7	0	0	0	0	8	7	0	0	0	0	0		1	0	0	0	0	0	0	0
012313	13:37:00	10028	Trial	CongruentLeft	14	203	297	1	120	13:37:00	3175664	4	3	3	3	3	3	3	3	3	8	7	0	0	0	0	8	7	0	0	0	0	0		1	0	0	0	0	0	0	0
012313	13:37:00	10028	Trial	ResponseCR	14	0	175	0	120	13:37:00	3177050	4	3	3	3	3	3	3	3	3	8	7	0	0	0	0	8	7	0	0	0	0	0		1	0	0	0	0	0	0	0
012313	13:37:00	10028	Trial	CongruentRight	14	205	255	1	120	13:37:00	3177330	4	3	3	3	3	3	3	3	3	8	7	0	0	0	0	8	7	0	0	0	0	0		1	0	0	0	0	0	0	0
012313	13:37:00	10028	Trial	ResponseCL	14	0	175	0	120	13:37:00	3178756	4	3	3	3	3	3	3	3	3	8	7	0	0	0	0	8	7	0	0	0	0	0		1	0	0	0	0	0	0	0
012313	13:37:00	10028	Trial	CongruentLeft	14	203	152	1	120	13:37:00	3178943	4	3	3	3	3	3	3	3	3	8	7	0	0	0	0	8	7	0	0	0	0	0		1	0	0	0	0	0	0	0
012313	13:37:00	10028	Trial	ResponseIR	14	0	175	0	120	13:37:00	3180475	4	3	3	3	3	3	3	3	3	8	7	0	0	0	0	8	7	0	0	0	0	0		1	0	0	0	0	0	0	0
012313	13:37:00	10028	Trial	IncongruentRight	14	205	142	1	120	13:37:00	3180635	4	3	3	3	3	3	3	3	3	8	7	0	0	0	0	8	7	0	0	0	0	0		1	0	0	0	0	0	0	0
012313	13:37:00	10028	Trial	ResponseCR	14	0	175	0	120	13:37:00	3182182	4	3	3	3	3	3	3	3	3	8	7	0	0	0	0	8	7	0	0	0	0	0		1	0	0	0	0	0	0	0
012313	13:37:00	10028	Trial	CongruentRight	14	205	179	1	120	13:37:00	3182381	4	3	3	3	3	3	3	3	3	8	7	0	0	0	0	8	7	0	0	0	0	0		1	0	0	0	0	0	0	0
012313	13:37:00	10028	Trial	ResponseCL	14	0	175	0	120	13:37:00	3183887	4	3	3	3	3	3	3	3	3	8	7	0	0	0	0	8	7	0	0	0	0	0		1	0	0	0	0	0	0	0
012313	13:37:00	10028	Trial	CongruentLeft	14	203	154	1	120	13:37:00	3184061	4	3	3	3	3	3	3	3	3	8	7	0	0	0	0	8	7	0	0	0	0	0		1	0	0	0	0	0	0	0
012313	13:37:00	10028	Trial	ResponseIL	14	0	175	0	120	13:37:00	3185593	4	3	3	3	3	3	3	3	3	8	7	0	0	0	0	8	7	0	0	0	0	0		1	0	0	0	0	0	0	0
012313	13:37:00	10028	Trial	IncongruentLeft	14	203	287	1	120	13:37:00	3185900	4	3	3	3	3	3	3	3	3	8	7	0	0	0	0	8	7	0	0	0	0	0		1	0	0	0	0	0	0	0
012313	13:37:00	10028	Trial	ResponseIL	14	0	175	0	120	13:37:00	3187299	4	3	3	3	3	3	3	3	3	8	7	0	0	0	0	8	7	0	0	0	0	0		1	0	0	0	0	0	0	0
012313	13:37:00	10028	Trial	IncongruentLeft	14	203	277	1	120	13:37:00	3187606	4	3	3	3	3	3	3	3	3	8	7	0	0	0	0	8	7	0	0	0	0	0		1	0	0	0	0	0	0	0
012313	13:37:00	10028	Trial	ResponseCR	14	0	175	0	120	13:37:00	3189005	4	3	3	3	3	3	3	3	3	8	7	0	0	0	0	8	7	0	0	0	0	0		1	0	0	0	0	0	0	0
012313	13:37:00	10028	Trial	CongruentRight	14	205	204	1	120	13:37:00	3189232	4	3	3	3	3	3	3	3	3	8	7	0	0	0	0	8	7	0	0	0	0	0		1	0	0	0	0	0	0	0
012313	13:37:00	10028	Trial	ResponseIR	14	0	175	0	120	13:37:00	3190711	4	3	3	3	3	3	3	3	3	8	7	0	0	0	0	8	7	0	0	0	0	0		1	0	0	0	0	0	0	0
012313	13:37:00	10028	Trial	IncongruentRight	14	205	321	1	120	13:37:00	3191058	4	3	3	3	3	3	3	3	3	8	7	0	0	0	0	8	7	0	0	0	0	0		1	0	0	0	0	0	0	0
012313	13:37:00	10028	Trial	ResponseCL	14	0	175	0	120	13:37:00	3192417	4	3	3	3	3	3	3	3	3	8	7	0	0	0	0	8	7	0	0	0	0	0		1	0	0	0	0	0	0	0
012313	13:37:00	10028	Trial	CongruentLeft	14	203	247	1	120	13:37:00	3192684	4	3	3	3	3	3	3	3	3	8	7	0	0	0	0	8	7	0	0	0	0	0		1	0	0	0	0	0	0	0
012313	13:37:00	10028	Trial	ResponseIR	14	0	175	0	120	13:37:00	3194123	4	3	3	3	3	3	3	3	3	8	7	0	0	0	0	8	7	0	0	0	0	0		1	0	0	0	0	0	0	0
012313	13:37:00	10028	Trial	IncongruentRight	14	205	237	1	120	13:37:00	3194390	4	3	3	3	3	3	3	3	3	8	7	0	0	0	0	8	7	0	0	0	0	0		1	0	0	0	0	0	0	0
012313	13:37:00	10028	Trial	ResponseCR	14	0	175	0	120	13:37:00	3195829	4	3	3	3	3	3	3	3	3	8	7	0	0	0	0	8	7	0	0	0	0	0		1	0	0	0	0	0	0	0
012313	13:37:00	10028	Trial	CongruentRight	14	205	227	1	120	13:37:00	3196082	4	3	3	3	3	3	3	3	3	8	7	0	0	0	0	8	7	0	0	0	0	0		1	0	0	0	0	0	0	0
012313	13:37:00	10028	Trial	ResponseIL	14	0	175	0	120	13:37:00	3197535	4	3	3	3	3	3	3	3	3	8	7	0	0	0	0	8	7	0	0	0	0	0		1	0	0	0	0	0	0	0
012313	13:37:00	10028	Trial	IncongruentLeft	14	203	217	1	120	13:37:00	3197775	4	3	3	3	3	3	3	3	3	8	7	0	0	0	0	8	7	0	0	0	0	0		1	0	0	0	0	0	0	0
012313	13:37:00	10028	Trial	ResponseCL	14	0	175	0	120	13:37:00	3199241	4	3	3	3	3	3	3	3	3	8	7	0	0	0	0	8	7	0	0	0	0	0		1	0	0	0	0	0	0	0
012313	13:37:00	10028	Trial	CongruentLeft	14	203	207	1	120	13:37:00	3199468	4	3	3	3	3	3	3	3	3	8	7	0	0	0	0	8	7	0	0	0	0	0		1	0	0	0	0	0	0	0
012313	13:37:00	10028	Trial	ResponseCR	14	0	175	0	120	13:37:00	3200947	4	3	3	3	3	3	3	3	3	8	7	0	0	0	0	8	7	0	0	0	0	0		1	0	0	0	0	0	0	0
012313	13:37:00	10028	Trial	CongruentRight	14	205	197	1	120	13:37:00	3201174	4	3	3	3	3	3	3	3	3	8	7	0	0	0	0	8	7	0	0	0	0	0		1	0	0	0	0	0	0	0
012313	13:37:00	10028	Trial	ResponseIL	14	0	175	0	120	13:37:00	3202653	4	3	3	3	3	3	3	3	3	8	7	0	0	0	0	8	7	0	0	0	0	0		1	0	0	0	0	0	0	0
012313	13:37:00	10028	Trial	IncongruentLeft	14	203	283	1	120	13:37:00	3202960	4	3	3	3	3	3	3	3	3	8	7	0	0	0	0	8	7	0	0	0	0	0		1	0	0	0	0	0	0	0
012313	13:37:00	10028	Trial	ResponseCR	14	0	175	0	120	13:37:00	3204359	4	3	3	3	3	3	3	3	3	8	7	0	0	0	0	8	7	0	0	0	0	0		1	0	0	0	0	0	0	0
012313	13:37:00	10028	Trial	CongruentRight	14	205	417	1	120	13:37:00	3204799	4	3	3	3	3	3	3	3	3	8	7	0	0	0	0	8	7	0	0	0	0	0		1	0	0	0	0	0	0	0
012313	13:37:00	10028	Trial	ResponseCR	14	0	175	0	120	13:37:00	3206065	4	3	3	3	3	3	3	3	3	8	7	0	0	0	0	8	7	0	0	0	0	0		1	0	0	0	0	0	0	0
012313	13:37:00	10028	Trial	CongruentRight	14	205	327	1	120	13:37:00	3206411	4	3	3	3	3	3	3	3	3	8	7	0	0	0	0	8	7	0	0	0	0	0		1	0	0	0	0	0	0	0
012313	13:37:00	10028	Trial	ResponseIR	14	0	175	0	120	13:37:00	3207771	4	3	3	3	3	3	3	3	3	8	7	0	0	0	0	8	7	0	0	0	0	0		1	0	0	0	0	0	0	0
012313	13:37:00	10028	Trial	IncongruentRight	14	205	365	1	120	13:37:00	3208157	4	3	3	3	3	3	3	3	3	8	7	0	0	0	0	8	7	0	0	0	0	0		1	0	0	0	0	0	0	0
012313	13:37:00	10028	Trial	ResponseCL	14	0	175	0	120	13:37:00	3209477	4	3	3	3	3	3	3	3	3	8	7	0	0	0	0	8	7	0	0	0	0	0		1	0	0	0	0	0	0	0
012313	13:37:00	10028	Trial	CongruentLeft	14	203	227	1	120	13:37:00	3209730	4	3	3	3	3	3	3	3	3	8	7	0	0	0	0	8	7	0	0	0	0	0		1	0	0	0	0	0	0	0
012313	13:37:00	10028	Trial	ResponseIL	14	0	175	0	120	13:37:00	3211183	4	3	3	3	3	3	3	3	3	8	7	0	0	0	0	8	7	0	0	0	0	0		1	0	0	0	0	0	0	0
012313	13:37:00	10028	Trial	IncongruentLeft	14	203	265	1	120	13:37:00	3211476	4	3	3	3	3	3	3	3	3	8	7	0	0	0	0	8	7	0	0	0	0	0		1	0	0	0	0	0	0	0
012313	13:37:00	10028	Trial	ResponseCL	14	0	175	0	120	13:37:00	3212889	4	3	3	3	3	3	3	3	3	8	7	0	0	0	0	8	7	0	0	0	0	0		1	0	0	0	0	0	0	0
012313	13:37:00	10028	Trial	CongruentLeft	14	203	223	1	120	13:37:00	3213129	4	3	3	3	3	3	3	3	3	8	7	0	0	0	0	8	7	0	0	0	0	0		1	0	0	0	0	0	0	0
012313	13:37:00	10028	Trial	ResponseIR	14	0	175	0	120	13:37:00	3214595	4	3	3	3	3	3	3	3	3	8	7	0	0	0	0	8	7	0	0	0	0	0		1	0	0	0	0	0	0	0
012313	13:37:00	10028	Trial	IncongruentRight	14	205	294	1	120	13:37:00	3214915	4	3	3	3	3	3	3	3	3	8	7	0	0	0	0	8	7	0	0	0	0	0		1	0	0	0	0	0	0	0
012313	13:37:00	10028	Trial	ResponseIL	14	0	175	0	120	13:37:00	3216301	4	3	3	3	3	3	3	3	3	8	7	0	0	0	0	8	7	0	0	0	0	0		1	0	0	0	0	0	0	0
012313	13:37:00	10028	Trial	IncongruentLeft	14	203	219	1	120	13:37:00	3216540	4	3	3	3	3	3	3	3	3	8	7	0	0	0	0	8	7	0	0	0	0	0		1	0	0	0	0	0	0	0
012313	13:37:00	10028	Trial	ResponseCR	14	0	175	0	120	13:37:00	3218007	4	3	3	3	3	3	3	3	3	8	7	0	0	0	0	8	7	0	0	0	0	0		1	0	0	0	0	0	0	0
012313	13:37:00	10028	Trial	CongruentRight	14	205	305	1	120	13:37:00	3218340	4	3	3	3	3	3	3	3	3	8	7	0	0	0	0	8	7	0	0	0	0	0		1	0	0	0	0	0	0	0
012313	13:37:00	10028	Trial	ResponseCL	14	0	175	0	120	13:37:00	3219713	4	3	3	3	3	3	3	3	3	8	7	0	0	0	0	8	7	0	0	0	0	0		1	0	0	0	0	0	0	0
012313	13:37:00	10028	Trial	CongruentLeft	14	203	215	1	120	13:37:00	3219952	4	3	3	3	3	3	3	3	3	8	7	0	0	0	0	8	7	0	0	0	0	0		1	0	0	0	0	0	0	0
012313	13:37:00	10028	Trial	ResponseIL	14	0	175	0	120	13:37:00	3221419	4	3	3	3	3	3	3	3	3	8	7	0	0	0	0	8	7	0	0	0	0	0		1	0	0	0	0	0	0	0
012313	13:37:00	10028	Trial	IncongruentLeft	14	203	381	1	120	13:37:00	3221818	4	3	3	3	3	3	3	3	3	8	7	0	0	0	0	8	7	0	0	0	0	0		1	0	0	0	0	0	0	0
012313	13:37:00	10028	Trial	ResponseCL	14	0	175	0	120	13:37:00	3223124	4	3	3	3	3	3	3	3	3	8	7	0	0	0	0	8	7	0	0	0	0	0		1	0	0	0	0	0	0	0
012313	13:37:00	10028	Trial	CongruentLeft	14	203	307	1	120	13:37:00	3223458	4	3	3	3	3	3	3	3	3	8	7	0	0	0	0	8	7	0	0	0	0	0		1	0	0	0	0	0	0	0
012313	13:37:00	10028	Trial	ResponseIR	14	0	175	0	120	13:37:00	3224831	4	3	3	3	3	3	3	3	3	8	7	0	0	0	0	8	7	0	0	0	0	0		1	0	0	0	0	0	0	0
012313	13:37:00	10028	Trial	IncongruentRight	14	205	249	1	120	13:37:00	3225097	4	3	3	3	3	3	3	3	3	8	7	0	0	0	0	8	7	0	0	0	0	0		1	0	0	0	0	0	0	0
012313	13:37:00	10028	Trial	ResponseCR	14	0	175	0	120	13:37:00	3226537	4	3	3	3	3	3	3	3	3	8	7	0	0	0	0	8	7	0	0	0	0	0		1	0	0	0	0	0	0	0
012313	13:37:00	10028	Trial	CongruentRight	14	205	239	1	120	13:37:00	3226803	4	3	3	3	3	3	3	3	3	8	7	0	0	0	0	8	7	0	0	0	0	0		1	0	0	0	0	0	0	0
012313	13:37:00	10028	Trial	ResponseIL	14	0	175	0	120	13:37:00	3228243	4	3	3	3	3	3	3	3	3	8	7	0	0	0	0	8	7	0	0	0	0	0		1	0	0	0	0	0	0	0
012313	13:37:00	10028	Trial	IncongruentLeft	14	203	277	1	120	13:37:00	3228549	4	3	3	3	3	3	3	3	3	8	7	0	0	0	0	8	7	0	0	0	0	0		1	0	0	0	0	0	0	0
012313	13:37:00	10028	Trial	ResponseCL	14	0	175	0	120	13:37:00	3229948	4	3	3	3	3	3	3	3	3	8	7	0	0	0	0	8	7	0	0	0	0	0		1	0	0	0	0	0	0	0
012313	13:37:00	10028	Trial	CongruentLeft	14	203	331	1	120	13:37:00	3230308	4	3	3	3	3	3	3	3	3	8	7	0	0	0	0	8	7	0	0	0	0	0		1	0	0	0	0	0	0	0
012313	13:37:00	10028	Trial	ResponseIR	14	0	175	0	120	13:37:00	3231654	4	3	3	3	3	3	3	3	3	8	7	0	0	0	0	8	7	0	0	0	0	0		1	0	0	0	0	0	0	0
012313	13:37:00	10028	Trial	IncongruentRight	14	205	289	1	120	13:37:00	3231961	4	3	3	3	3	3	3	3	3	8	7	0	0	0	0	8	7	0	0	0	0	0		1	0	0	0	0	0	0	0
012313	13:37:00	10028	Trial	ResponseIL	14	0	175	0	120	13:37:00	3233360	4	3	3	3	3	3	3	3	3	8	7	0	0	0	0	8	7	0	0	0	0	0		1	0	0	0	0	0	0	0
012313	13:37:00	10028	Trial	IncongruentLeft	14	203	279	1	120	13:37:00	3233667	4	3	3	3	3	3	3	3	3	8	7	0	0	0	0	8	7	0	0	0	0	0		1	0	0	0	0	0	0	0
012313	13:37:00	10028	Trial	ResponseCL	14	0	175	0	120	13:37:00	3235066	4	3	3	3	3	3	3	3	3	8	7	0	0	0	0	8	7	0	0	0	0	0		1	0	0	0	0	0	0	0
012313	13:37:00	10028	Trial	CongruentLeft	14	203	205	1	120	13:37:00	3235293	4	3	3	3	3	3	3	3	3	8	7	0	0	0	0	8	7	0	0	0	0	0		1	0	0	0	0	0	0	0
012313	13:37:00	10028	Trial	ResponseIL	14	0	175	0	120	13:37:00	3236772	4	3	3	3	3	3	3	3	3	8	7	0	0	0	0	8	7	0	0	0	0	0		1	0	0	0	0	0	0	0
012313	13:37:00	10028	Trial	IncongruentLeft	14	203	387	1	120	13:37:00	3237185	4	3	3	3	3	3	3	3	3	8	7	0	0	0	0	8	7	0	0	0	0	0		1	0	0	0	0	0	0	0
012313	13:37:00	10028	Trial	ResponseCR	14	0	175	0	120	13:37:00	3238478	4	3	3	3	3	3	3	3	3	8	7	0	0	0	0	8	7	0	0	0	0	0		1	0	0	0	0	0	0	0
012313	13:37:00	10028	Trial	CongruentRight	14	205	185	1	120	13:37:00	3238691	4	3	3	3	3	3	3	3	3	8	7	0	0	0	0	8	7	0	0	0	0	0		1	0	0	0	0	0	0	0
012313	13:37:00	10028	Trial	ResponseCL	14	0	175	0	120	13:37:00	3240184	4	3	3	3	3	3	3	3	3	8	7	0	0	0	0	8	7	0	0	0	0	0		1	0	0	0	0	0	0	0
012313	13:37:00	10028	Trial	CongruentLeft	14	203	207	1	120	13:37:00	3240411	4	3	3	3	3	3	3	3	3	8	7	0	0	0	0	8	7	0	0	0	0	0		1	0	0	0	0	0	0	0
012313	13:37:00	10028	Trial	ResponseIR	14	0	175	0	120	13:37:00	3241890	4	3	3	3	3	3	3	3	3	8	7	0	0	0	0	8	7	0	0	0	0	0		1	0	0	0	0	0	0	0
012313	13:37:00	10028	Trial	IncongruentRight	14	205	277	1	120	13:37:00	3242183	4	3	3	3	3	3	3	3	3	8	7	0	0	0	0	8	7	0	0	0	0	0		1	0	0	0	0	0	0	0
012313	13:37:00	10028	Trial	ResponseCL	14	0	175	0	120	13:37:00	3243596	4	3	3	3	3	3	3	3	3	8	7	0	0	0	0	8	7	0	0	0	0	0		1	0	0	0	0	0	0	0
012313	13:37:00	10028	Trial	CongruentLeft	14	203	235	1	120	13:37:00	3243849	4	3	3	3	3	3	3	3	3	8	7	0	0	0	0	8	7	0	0	0	0	0		1	0	0	0	0	0	0	0
012313	13:37:00	10028	Trial	ResponseCR	14	0	175	0	120	13:37:00	3245302	4	3	3	3	3	3	3	3	3	8	7	0	0	0	0	8	7	0	0	0	0	0		1	0	0	0	0	0	0	0
012313	13:37:00	10028	Trial	CongruentRight	14	205	193	1	120	13:37:00	3245515	4	3	3	3	3	3	3	3	3	8	7	0	0	0	0	8	7	0	0	0	0	0		1	0	0	0	0	0	0	0
012313	13:37:00	10028	Trial	ResponseIL	14	0	175	0	120	13:37:00	3247008	4	3	3	3	3	3	3	3	3	8	7	0	0	0	0	8	7	0	0	0	0	0		1	0	0	0	0	0	0	0
012313	13:37:00	10028	Trial	IncongruentLeft	14	203	247	1	120	13:37:00	3247274	4	3	3	3	3	3	3	3	3	8	7	0	0	0	0	8	7	0	0	0	0	0		1	0	0	0	0	0	0	0
012313	13:37:00	10028	WordsAbsFr6mo	PAbsFr6mo1	16	Abs1	4994	0	120	13:37:00	3258736	4	3	3	3	3	3	3	3	3	8	7	0	0	0	0	8	7	0	0	0	0	0		1	0	0	0	0	0	0	0
012313	13:37:00	10028	WordsAbsFr6mo	AbsFr6mo1	16	Abs1	6482	0	120	13:37:00	3265254	4	3	3	3	3	3	3	3	3	8	7	1	0	0	0	8	7	0	0	0	0	0		1	0	0	0	0	0	0	0
012313	13:37:00	10028	WordsAbsFr6mo	AbsFr6mo2	16	Abs1	26388	0	120	13:37:00	3291683	4	3	3	3	3	3	3	3	3	8	7	2	0	0	0	8	7	0	0	0	0	0		1	0	0	0	0	0	0	0
012313	13:37:00	10028	WordsAbsFr6mo	AbsFr6mo3	16	Abs1	6191	0	120	13:37:00	3297907	4	3	3	3	3	3	3	3	3	8	7	3	0	0	0	8	7	0	0	0	0	0		1	0	0	0	0	0	0	0
012313	13:37:00	10028	Trial2BackFrS	NS	17	0	1000	1	120	13:37:00	3360161	4	3	3	3	3	3	3	3	3	8	7	3	0	0	0	8	7	0	0	0	0	0		1	0	0	0	0	0	0	0
012313	13:37:00	10028	Trial2BackFrS	NS	17	0	1000	1	120	13:37:00	3361667	4	3	3	3	3	3	3	3	3	8	7	3	0	0	0	8	7	0	0	0	0	0		1	0	0	0	0	0	0	0
012313	13:37:00	10028	Trial2BackFrS	NS	17	0	1000	1	120	13:37:00	3363173	4	3	3	3	3	3	3	3	3	8	7	3	0	0	0	8	7	0	0	0	0	0		1	0	0	0	0	0	0	0
012313	13:37:00	10028	Trial2BackFrS	YS	17	57	418	1	120	13:37:00	3364106	4	3	3	3	3	3	3	3	3	8	7	3	0	0	0	8	7	0	0	0	0	0		1	0	0	0	0	0	0	0
012313	13:37:00	10028	Trial2BackFrS	NS	17	0	1000	1	120	13:37:00	3366185	4	3	3	3	3	3	3	3	3	8	7	3	0	0	0	8	7	0	0	0	0	0		1	0	0	0	0	0	0	0
012313	13:37:00	10028	Trial2BackFrS	NS	17	0	1000	1	120	13:37:00	3367691	4	3	3	3	3	3	3	3	3	8	7	3	0	0	0	8	7	0	0	0	0	0		1	0	0	0	0	0	0	0
012313	13:37:00	10028	Trial2BackFrS	NS	17	0	1000	1	120	13:37:00	3369197	4	3	3	3	3	3	3	3	3	8	7	3	0	0	0	8	7	0	0	0	0	0		1	0	0	0	0	0	0	0
012313	13:37:00	10028	Trial2BackFrS	NS	17	0	1000	1	120	13:37:00	3370703	4	3	3	3	3	3	3	3	3	8	7	3	0	0	0	8	7	0	0	0	0	0		1	0	0	0	0	0	0	0
012313	13:37:00	10028	Trial2BackFrS	YS	17	57	360	1	120	13:37:00	3371583	4	3	3	3	3	3	3	3	3	8	7	3	0	0	0	8	7	0	0	0	0	0		1	0	0	0	0	0	0	0
