date	time	subject	blockcode	trialcode	values.TaskNumber	response	latency	correct	values.Score	script.starttime	script.elapsedtime	values.ScoreS7	values.Word1	values.Word2	values.Word3	values.Word4	values.Word5	values.Word6	values.Word7	values.Word8	values.DigitSpanFwrd	values.DigitSpanBack	values.ScoreAbs	values.Contour	values.Numbers	values.Hands	values.corsiblockspanFwrd	values.corsiblockspanRev
120412	13:36:58	10017	Language	Language	0	English	593214	0	0	13:36:58	593352	0	0	0	0	0	0	0	0	0	0	0	0	0	0	0	0	0
120412	13:36:58	10017	Session	Session	0	6mo	1340	0	0	13:36:58	594752	0	0	0	0	0	0	0	0	0	0	0	0	0	0	0	0	0
120412	13:36:58	10017	HandEng	HandEng	0	Right	924	0	0	13:36:58	595738	0	0	0	0	0	0	0	0	0	0	0	0	0	0	0	0	0
120412	13:36:58	10017	CubeEng	CubeEng	1	1Cube	31630	0	0	13:36:58	1075983	0	0	0	0	0	0	0	0	0	0	0	0	0	0	0	0	0
120412	13:36:58	10017	pm.simpleEngRight	blank.simpleEng	2	0	2000	1	0	13:36:58	1102612	0	0	0	0	0	0	0	0	0	0	0	0	0	0	0	0	0
120412	13:36:58	10017	pm.simpleEngRight	pm.simpleEng	2	57	460	0	0	13:36:58	1103092	0	0	0	0	0	0	0	0	0	0	0	0	0	0	0	0	0
120412	13:36:58	10017	pm.simpleEngRight	blank.simpleEng	2	0	1900	1	0	13:36:58	1105011	0	0	0	0	0	0	0	0	0	0	0	0	0	0	0	0	0
120412	13:36:58	10017	pm.simpleEngRight	pm.simpleEng	2	57	333	0	0	13:36:58	1105371	0	0	0	0	0	0	0	0	0	0	0	0	0	0	0	0	0
120412	13:36:58	10017	pm.simpleEngRight	blank.simpleEng	2	0	2100	1	0	13:36:58	1107490	0	0	0	0	0	0	0	0	0	0	0	0	0	0	0	0	0
120412	13:36:58	10017	pm.simpleEngRight	pm.simpleEng	2	57	350	0	0	13:36:58	1107863	0	0	0	0	0	0	0	0	0	0	0	0	0	0	0	0	0
120412	13:36:58	10017	pm.simpleEngRight	blank.simpleEng	2	0	1800	1	0	13:36:58	1109676	0	0	0	0	0	0	0	0	0	0	0	0	0	0	0	0	0
120412	13:36:58	10017	pm.simpleEngRight	pm.simpleEng	2	57	308	0	0	13:36:58	1110009	0	0	0	0	0	0	0	0	0	0	0	0	0	0	0	0	0
120412	13:36:58	10017	pm.simpleEngRight	blank.simpleEng	2	0	1600	1	0	13:36:58	1111622	0	0	0	0	0	0	0	0	0	0	0	0	0	0	0	0	0
120412	13:36:58	10017	pm.simpleEngRight	pm.simpleEng	2	57	298	0	0	13:36:58	1111942	0	0	0	0	0	0	0	0	0	0	0	0	0	0	0	0	0
120412	13:36:58	10017	pm.simpleEngRight	blank.simpleEng	2	0	2300	1	0	13:36:58	1114261	0	0	0	0	0	0	0	0	0	0	0	0	0	0	0	0	0
120412	13:36:58	10017	pm.simpleEngRight	pm.simpleEng	2	57	331	0	0	13:36:58	1114620	0	0	0	0	0	0	0	0	0	0	0	0	0	0	0	0	0
120412	13:36:58	10017	pm.simpleEngRight	blank.simpleEng	2	0	2200	1	0	13:36:58	1116846	0	0	0	0	0	0	0	0	0	0	0	0	0	0	0	0	0
120412	13:36:58	10017	pm.simpleEngRight	pm.simpleEng	2	57	289	0	0	13:36:58	1117153	0	0	0	0	0	0	0	0	0	0	0	0	0	0	0	0	0
120412	13:36:58	10017	pm.simpleEngRight	blank.simpleEng	2	0	2500	1	0	13:36:58	1119672	0	0	0	0	0	0	0	0	0	0	0	0	0	0	0	0	0
120412	13:36:58	10017	pm.simpleEngRight	pm.simpleEng	2	57	424	0	0	13:36:58	1120111	0	0	0	0	0	0	0	0	0	0	0	0	0	0	0	0	0
120412	13:36:58	10017	pm.simpleEngRight	blank.simpleEng	2	0	1700	1	0	13:36:58	1121831	0	0	0	0	0	0	0	0	0	0	0	0	0	0	0	0	0
120412	13:36:58	10017	pm.simpleEngRight	pm.simpleEng	2	57	472	0	0	13:36:58	1122324	0	0	0	0	0	0	0	0	0	0	0	0	0	0	0	0	0
120412	13:36:58	10017	pm.simpleEngRight	blank.simpleEng	2	0	2400	1	0	13:36:58	1124736	0	0	0	0	0	0	0	0	0	0	0	0	0	0	0	0	0
120412	13:36:58	10017	pm.simpleEngRight	pm.simpleEng	2	57	399	0	0	13:36:58	1125163	0	0	0	0	0	0	0	0	0	0	0	0	0	0	0	0	0
120412	13:36:58	10017	pm.simpleEngRight	blank.simpleEng	2	0	1500	1	0	13:36:58	1126682	0	0	0	0	0	0	0	0	0	0	0	0	0	0	0	0	0
120412	13:36:58	10017	pm.simpleEngRight	pm.simpleEng	2	57	405	0	0	13:36:58	1127109	0	0	0	0	0	0	0	0	0	0	0	0	0	0	0	0	0
120412	13:36:58	10017	pm.simpleEngRight	blank.simpleEng	2	0	1800	1	0	13:36:58	1128922	0	0	0	0	0	0	0	0	0	0	0	0	0	0	0	0	0
120412	13:36:58	10017	pm.simpleEngRight	pm.simpleEng	2	57	325	0	0	13:36:58	1129268	0	0	0	0	0	0	0	0	0	0	0	0	0	0	0	0	0
120412	13:36:58	10017	pm.simpleEngRight	blank.simpleEng	2	0	1900	1	0	13:36:58	1131187	0	0	0	0	0	0	0	0	0	0	0	0	0	0	0	0	0
120412	13:36:58	10017	pm.simpleEngRight	pm.simpleEng	2	57	348	0	0	13:36:58	1131560	0	0	0	0	0	0	0	0	0	0	0	0	0	0	0	0	0
120412	13:36:58	10017	pm.simpleEngRight	blank.simpleEng	2	0	1700	1	0	13:36:58	1133280	0	0	0	0	0	0	0	0	0	0	0	0	0	0	0	0	0
120412	13:36:58	10017	pm.simpleEngRight	pm.simpleEng	2	57	367	0	0	13:36:58	1133666	0	0	0	0	0	0	0	0	0	0	0	0	0	0	0	0	0
120412	13:36:58	10017	pm.simpleEngRight	blank.simpleEng	2	0	2500	1	0	13:36:58	1136185	0	0	0	0	0	0	0	0	0	0	0	0	0	0	0	0	0
120412	13:36:58	10017	pm.simpleEngRight	pm.simpleEng	2	57	278	0	0	13:36:58	1136492	0	0	0	0	0	0	0	0	0	0	0	0	0	0	0	0	0
120412	13:36:58	10017	pm.simpleEngRight	blank.simpleEng	2	0	2000	1	0	13:36:58	1138504	0	0	0	0	0	0	0	0	0	0	0	0	0	0	0	0	0
120412	13:36:58	10017	pm.simpleEngRight	pm.simpleEng	2	57	343	0	0	13:36:58	1138864	0	0	0	0	0	0	0	0	0	0	0	0	0	0	0	0	0
120412	13:36:58	10017	pm.simpleEngRight	blank.simpleEng	2	0	1600	1	0	13:36:58	1140477	0	0	0	0	0	0	0	0	0	0	0	0	0	0	0	0	0
120412	13:36:58	10017	pm.simpleEngRight	pm.simpleEng	2	57	370	0	0	13:36:58	1140863	0	0	0	0	0	0	0	0	0	0	0	0	0	0	0	0	0
120412	13:36:58	10017	pm.simpleEngRight	blank.simpleEng	2	0	2200	1	0	13:36:58	1143076	0	0	0	0	0	0	0	0	0	0	0	0	0	0	0	0	0
120412	13:36:58	10017	pm.simpleEngRight	pm.simpleEng	2	57	283	0	0	13:36:58	1143382	0	0	0	0	0	0	0	0	0	0	0	0	0	0	0	0	0
120412	13:36:58	10017	pm.simpleEngRight	blank.simpleEng	2	0	2100	1	0	13:36:58	1145501	0	0	0	0	0	0	0	0	0	0	0	0	0	0	0	0	0
120412	13:36:58	10017	pm.simpleEngRight	pm.simpleEng	2	57	321	0	0	13:36:58	1145848	0	0	0	0	0	0	0	0	0	0	0	0	0	0	0	0	0
120412	13:36:58	10017	pm.simpleEngRight	blank.simpleEng	2	0	1500	1	0	13:36:58	1147367	0	0	0	0	0	0	0	0	0	0	0	0	0	0	0	0	0
120412	13:36:58	10017	pm.simpleEngRight	pm.simpleEng	2	57	375	0	0	13:36:58	1147767	0	0	0	0	0	0	0	0	0	0	0	0	0	0	0	0	0
120412	13:36:58	10017	pm.simpleEngRight	blank.simpleEng	2	0	2300	1	0	13:36:58	1150086	0	0	0	0	0	0	0	0	0	0	0	0	0	0	0	0	0
120412	13:36:58	10017	pm.simpleEngRight	pm.simpleEng	2	57	312	0	0	13:36:58	1150419	0	0	0	0	0	0	0	0	0	0	0	0	0	0	0	0	0
120412	13:36:58	10017	pm.simpleEngRight	blank.simpleEng	2	0	2400	1	0	13:36:58	1152832	0	0	0	0	0	0	0	0	0	0	0	0	0	0	0	0	0
120412	13:36:58	10017	pm.simpleEngRight	pm.simpleEng	2	57	303	0	0	13:36:58	1153151	0	0	0	0	0	0	0	0	0	0	0	0	0	0	0	0	0
120412	13:36:58	10017	pm.simpleEngRight	blank.simpleEng	2	0	2000	1	0	13:36:58	1155164	0	0	0	0	0	0	0	0	0	0	0	0	0	0	0	0	0
120412	13:36:58	10017	pm.simpleEngRight	pm.simpleEng	2	57	322	0	0	13:36:58	1155511	0	0	0	0	0	0	0	0	0	0	0	0	0	0	0	0	0
120412	13:36:58	10017	pm.simpleEngRight	blank.simpleEng	2	0	2400	1	0	13:36:58	1157923	0	0	0	0	0	0	0	0	0	0	0	0	0	0	0	0	0
120412	13:36:58	10017	pm.simpleEngRight	pm.simpleEng	2	57	284	0	0	13:36:58	1158230	0	0	0	0	0	0	0	0	0	0	0	0	0	0	0	0	0
120412	13:36:58	10017	pm.simpleEngRight	blank.simpleEng	2	0	2100	1	0	13:36:58	1160349	0	0	0	0	0	0	0	0	0	0	0	0	0	0	0	0	0
120412	13:36:58	10017	pm.simpleEngRight	pm.simpleEng	2	57	306	0	0	13:36:58	1160682	0	0	0	0	0	0	0	0	0	0	0	0	0	0	0	0	0
120412	13:36:58	10017	pm.simpleEngRight	blank.simpleEng	2	0	2300	1	0	13:36:58	1163001	0	0	0	0	0	0	0	0	0	0	0	0	0	0	0	0	0
120412	13:36:58	10017	pm.simpleEngRight	pm.simpleEng	2	57	278	0	0	13:36:58	1163307	0	0	0	0	0	0	0	0	0	0	0	0	0	0	0	0	0
120412	13:36:58	10017	pm.simpleEngRight	blank.simpleEng	2	0	1600	1	0	13:36:58	1164920	0	0	0	0	0	0	0	0	0	0	0	0	0	0	0	0	0
120412	13:36:58	10017	pm.simpleEngRight	pm.simpleEng	2	57	342	0	0	13:36:58	1165280	0	0	0	0	0	0	0	0	0	0	0	0	0	0	0	0	0
120412	13:36:58	10017	pm.simpleEngRight	blank.simpleEng	2	0	2200	1	0	13:36:58	1167492	0	0	0	0	0	0	0	0	0	0	0	0	0	0	0	0	0
120412	13:36:58	10017	pm.simpleEngRight	pm.simpleEng	2	57	314	0	0	13:36:58	1167825	0	0	0	0	0	0	0	0	0	0	0	0	0	0	0	0	0
120412	13:36:58	10017	pm.simpleEngRight	blank.simpleEng	2	0	2500	1	0	13:36:58	1170345	0	0	0	0	0	0	0	0	0	0	0	0	0	0	0	0	0
120412	13:36:58	10017	pm.simpleEngRight	pm.simpleEng	2	57	310	0	0	13:36:58	1170678	0	0	0	0	0	0	0	0	0	0	0	0	0	0	0	0	0
120412	13:36:58	10017	pm.simpleEngRight	blank.simpleEng	2	0	1500	1	0	13:36:58	1172197	0	0	0	0	0	0	0	0	0	0	0	0	0	0	0	0	0
120412	13:36:58	10017	pm.simpleEngRight	pm.simpleEng	2	57	425	0	0	13:36:58	1172650	0	0	0	0	0	0	0	0	0	0	0	0	0	0	0	0	0
120412	13:36:58	10017	pm.simpleEngRight	blank.simpleEng	2	0	1700	1	0	13:36:58	1174370	0	0	0	0	0	0	0	0	0	0	0	0	0	0	0	0	0
120412	13:36:58	10017	pm.simpleEngRight	pm.simpleEng	2	57	364	0	0	13:36:58	1174756	0	0	0	0	0	0	0	0	0	0	0	0	0	0	0	0	0
120412	13:36:58	10017	pm.simpleEngRight	blank.simpleEng	2	0	1800	1	0	13:36:58	1176569	0	0	0	0	0	0	0	0	0	0	0	0	0	0	0	0	0
120412	13:36:58	10017	pm.simpleEngRight	pm.simpleEng	2	57	341	0	0	13:36:58	1176929	0	0	0	0	0	0	0	0	0	0	0	0	0	0	0	0	0
120412	13:36:58	10017	pm.simpleEngRight	blank.simpleEng	2	0	1900	1	0	13:36:58	1178848	0	0	0	0	0	0	0	0	0	0	0	0	0	0	0	0	0
120412	13:36:58	10017	pm.simpleEngRight	pm.simpleEng	2	57	366	0	0	13:36:58	1179234	0	0	0	0	0	0	0	0	0	0	0	0	0	0	0	0	0
120412	13:36:58	10017	pm.simpleEngRight	blank.simpleEng	2	0	1900	1	0	13:36:58	1181154	0	0	0	0	0	0	0	0	0	0	0	0	0	0	0	0	0
120412	13:36:58	10017	pm.simpleEngRight	pm.simpleEng	2	57	396	0	0	13:36:58	1181567	0	0	0	0	0	0	0	0	0	0	0	0	0	0	0	0	0
120412	13:36:58	10017	pm.simpleEngRight	blank.simpleEng	2	0	1500	1	0	13:36:58	1183086	0	0	0	0	0	0	0	0	0	0	0	0	0	0	0	0	0
120412	13:36:58	10017	pm.simpleEngRight	pm.simpleEng	2	57	432	0	0	13:36:58	1183539	0	0	0	0	0	0	0	0	0	0	0	0	0	0	0	0	0
120412	13:36:58	10017	pm.simpleEngRight	blank.simpleEng	2	0	2500	1	0	13:36:58	1186058	0	0	0	0	0	0	0	0	0	0	0	0	0	0	0	0	0
120412	13:36:58	10017	pm.simpleEngRight	pm.simpleEng	2	57	356	0	0	13:36:58	1186431	0	0	0	0	0	0	0	0	0	0	0	0	0	0	0	0	0
120412	13:36:58	10017	pm.simpleEngRight	blank.simpleEng	2	0	1800	1	0	13:36:58	1188244	0	0	0	0	0	0	0	0	0	0	0	0	0	0	0	0	0
120412	13:36:58	10017	pm.simpleEngRight	pm.simpleEng	2	57	378	0	0	13:36:58	1188644	0	0	0	0	0	0	0	0	0	0	0	0	0	0	0	0	0
120412	13:36:58	10017	pm.simpleEngRight	blank.simpleEng	2	0	2300	1	0	13:36:58	1190963	0	0	0	0	0	0	0	0	0	0	0	0	0	0	0	0	0
120412	13:36:58	10017	pm.simpleEngRight	pm.simpleEng	2	57	299	0	0	13:36:58	1191283	0	0	0	0	0	0	0	0	0	0	0	0	0	0	0	0	0
120412	13:36:58	10017	pm.simpleEngRight	blank.simpleEng	2	0	2000	1	0	13:36:58	1193295	0	0	0	0	0	0	0	0	0	0	0	0	0	0	0	0	0
120412	13:36:58	10017	pm.simpleEngRight	pm.simpleEng	2	57	366	0	0	13:36:58	1193682	0	0	0	0	0	0	0	0	0	0	0	0	0	0	0	0	0
120412	13:36:58	10017	pm.simpleEngRight	blank.simpleEng	2	0	2100	1	0	13:36:58	1195801	0	0	0	0	0	0	0	0	0	0	0	0	0	0	0	0	0
120412	13:36:58	10017	pm.simpleEngRight	pm.simpleEng	2	57	373	0	0	13:36:58	1196201	0	0	0	0	0	0	0	0	0	0	0	0	0	0	0	0	0
120412	13:36:58	10017	Trial2BackEng	N	3	0	1000	1	1	13:36:58	1239130	0	0	0	0	0	0	0	0	0	0	0	0	0	0	0	0	0
120412	13:36:58	10017	Trial2BackEng	N	3	0	1000	1	2	13:36:58	1240636	0	0	0	0	0	0	0	0	0	0	0	0	0	0	0	0	0
120412	13:36:58	10017	Trial2BackEng	N	3	0	1000	1	3	13:36:58	1242142	0	0	0	0	0	0	0	0	0	0	0	0	0	0	0	0	0
120412	13:36:58	10017	Trial2BackEng	N	3	0	1000	1	4	13:36:58	1243648	0	0	0	0	0	0	0	0	0	0	0	0	0	0	0	0	0
120412	13:36:58	10017	Trial2BackEng	N	3	0	1000	1	5	13:36:58	1245154	0	0	0	0	0	0	0	0	0	0	0	0	0	0	0	0	0
120412	13:36:58	10017	Trial2BackEng	N	3	0	1000	1	6	13:36:58	1246660	0	0	0	0	0	0	0	0	0	0	0	0	0	0	0	0	0
120412	13:36:58	10017	Trial2BackEng	N	3	0	1000	1	7	13:36:58	1248180	0	0	0	0	0	0	0	0	0	0	0	0	0	0	0	0	0
120412	13:36:58	10017	Trial2BackEng	N	3	0	1000	1	8	13:36:58	1249686	0	0	0	0	0	0	0	0	0	0	0	0	0	0	0	0	0
120412	13:36:58	10017	Trial2BackEng	Y	3	57	603	1	9	13:36:58	1250805	0	0	0	0	0	0	0	0	0	0	0	0	0	0	0	0	0
120412	13:36:58	10017	Trial2BackEng	N	3	0	1000	1	10	13:36:58	1252698	0	0	0	0	0	0	0	0	0	0	0	0	0	0	0	0	0
120412	13:36:58	10017	Trial2BackEng	N	3	0	1000	1	11	13:36:58	1254204	0	0	0	0	0	0	0	0	0	0	0	0	0	0	0	0	0
120412	13:36:58	10017	Trial2BackEng	N	3	0	1000	1	12	13:36:58	1255710	0	0	0	0	0	0	0	0	0	0	0	0	0	0	0	0	0
120412	13:36:58	10017	Trial2BackEng	Y	3	57	418	1	13	13:36:58	1256643	0	0	0	0	0	0	0	0	0	0	0	0	0	0	0	0	0
120412	13:36:58	10017	Trial2BackEng	N	3	0	1000	1	14	13:36:58	1258722	0	0	0	0	0	0	0	0	0	0	0	0	0	0	0	0	0
120412	13:36:58	10017	Trial2BackEng	N	3	0	1000	1	15	13:36:58	1260228	0	0	0	0	0	0	0	0	0	0	0	0	0	0	0	0	0
120412	13:36:58	10017	Trial2BackEng	N	3	0	1000	1	16	13:36:58	1261748	0	0	0	0	0	0	0	0	0	0	0	0	0	0	0	0	0
120412	13:36:58	10017	Trial2BackEng	N	3	0	1000	1	17	13:36:58	1263267	0	0	0	0	0	0	0	0	0	0	0	0	0	0	0	0	0
120412	13:36:58	10017	Trial2BackEng	N	3	0	1000	1	18	13:36:58	1264786	0	0	0	0	0	0	0	0	0	0	0	0	0	0	0	0	0
120412	13:36:58	10017	Trial2BackEng	Y	3	57	574	1	19	13:36:58	1265879	0	0	0	0	0	0	0	0	0	0	0	0	0	0	0	0	0
120412	13:36:58	10017	Trial2BackEng	N	3	0	1000	1	20	13:36:58	1267798	0	0	0	0	0	0	0	0	0	0	0	0	0	0	0	0	0
120412	13:36:58	10017	Trial2BackEng	N	3	0	1000	1	21	13:36:58	1269305	0	0	0	0	0	0	0	0	0	0	0	0	0	0	0	0	0
120412	13:36:58	10017	Trial2BackEng	N	3	0	1000	1	22	13:36:58	1270811	0	0	0	0	0	0	0	0	0	0	0	0	0	0	0	0	0
120412	13:36:58	10017	Trial2BackEng	N	3	0	1000	1	23	13:36:58	1272330	0	0	0	0	0	0	0	0	0	0	0	0	0	0	0	0	0
120412	13:36:58	10017	Trial2BackEng	Y	3	57	550	1	24	13:36:58	1273396	0	0	0	0	0	0	0	0	0	0	0	0	0	0	0	0	0
120412	13:36:58	10017	Trial2BackEng	N	3	0	1000	1	25	13:36:58	1275342	0	0	0	0	0	0	0	0	0	0	0	0	0	0	0	0	0
120412	13:36:58	10017	Trial2BackEng	N	3	0	1000	1	26	13:36:58	1276862	0	0	0	0	0	0	0	0	0	0	0	0	0	0	0	0	0
120412	13:36:58	10017	Trial2BackEng	N	3	0	1000	1	27	13:36:58	1278368	0	0	0	0	0	0	0	0	0	0	0	0	0	0	0	0	0
120412	13:36:58	10017	Trial2BackEng	N	3	0	1000	1	28	13:36:58	1279874	0	0	0	0	0	0	0	0	0	0	0	0	0	0	0	0	0
120412	13:36:58	10017	Trial2BackEng	N	3	0	1000	1	29	13:36:58	1281380	0	0	0	0	0	0	0	0	0	0	0	0	0	0	0	0	0
120412	13:36:58	10017	Trial2BackEng	N	3	0	1000	1	30	13:36:58	1282966	0	0	0	0	0	0	0	0	0	0	0	0	0	0	0	0	0
120412	13:36:58	10017	Trial2BackEng	Y	3	57	410	1	31	13:36:58	1283885	0	0	0	0	0	0	0	0	0	0	0	0	0	0	0	0	0
120412	13:36:58	10017	Trial2BackEng	N	3	0	1000	1	32	13:36:58	1285978	0	0	0	0	0	0	0	0	0	0	0	0	0	0	0	0	0
120412	13:36:58	10017	Trial2BackEng	N	3	0	1000	1	33	13:36:58	1287484	0	0	0	0	0	0	0	0	0	0	0	0	0	0	0	0	0
120412	13:36:58	10017	Trial2BackEng	N	3	0	1000	1	34	13:36:58	1288990	0	0	0	0	0	0	0	0	0	0	0	0	0	0	0	0	0
120412	13:36:58	10017	Trial2BackEng	Y	3	57	418	1	35	13:36:58	1289923	0	0	0	0	0	0	0	0	0	0	0	0	0	0	0	0	0
120412	13:36:58	10017	Trial2BackEng	N	3	0	1000	1	36	13:36:58	1292002	0	0	0	0	0	0	0	0	0	0	0	0	0	0	0	0	0
120412	13:36:58	10017	Trial2BackEng	N	3	0	1000	1	37	13:36:58	1293508	0	0	0	0	0	0	0	0	0	0	0	0	0	0	0	0	0
120412	13:36:58	10017	Trial2BackEng	N	3	0	1000	1	38	13:36:58	1295014	0	0	0	0	0	0	0	0	0	0	0	0	0	0	0	0	0
120412	13:36:58	10017	Trial2BackEng	N	3	0	1000	1	39	13:36:58	1296520	0	0	0	0	0	0	0	0	0	0	0	0	0	0	0	0	0
120412	13:36:58	10017	Trial2BackEng	N	3	0	1000	1	40	13:36:58	1298026	0	0	0	0	0	0	0	0	0	0	0	0	0	0	0	0	0
120412	13:36:58	10017	Trial2BackEng	N	3	0	1000	1	41	13:36:58	1299532	0	0	0	0	0	0	0	0	0	0	0	0	0	0	0	0	0
120412	13:36:58	10017	Trial2BackEng	Y	3	57	627	1	42	13:36:58	1300679	0	0	0	0	0	0	0	0	0	0	0	0	0	0	0	0	0
120412	13:36:58	10017	Trial2BackEng	N	3	0	1000	1	43	13:36:58	1302545	0	0	0	0	0	0	0	0	0	0	0	0	0	0	0	0	0
120412	13:36:58	10017	Trial2BackEng	N	3	0	1000	1	44	13:36:58	1304051	0	0	0	0	0	0	0	0	0	0	0	0	0	0	0	0	0
120412	13:36:58	10017	Trial2BackEng	N	3	0	1000	1	45	13:36:58	1305557	0	0	0	0	0	0	0	0	0	0	0	0	0	0	0	0	0
120412	13:36:58	10017	Trial2BackEng	N	3	0	1000	1	46	13:36:58	1307063	0	0	0	0	0	0	0	0	0	0	0	0	0	0	0	0	0
120412	13:36:58	10017	Trial2BackEng	Y	3	57	505	1	47	13:36:58	1308076	0	0	0	0	0	0	0	0	0	0	0	0	0	0	0	0	0
120412	13:36:58	10017	Trial2BackEng	N	3	0	1000	1	48	13:36:58	1310075	0	0	0	0	0	0	0	0	0	0	0	0	0	0	0	0	0
120412	13:36:58	10017	Trial2BackEng	N	3	0	1000	1	49	13:36:58	1311581	0	0	0	0	0	0	0	0	0	0	0	0	0	0	0	0	0
120412	13:36:58	10017	Trial2BackEng	N	3	0	1000	1	50	13:36:58	1313087	0	0	0	0	0	0	0	0	0	0	0	0	0	0	0	0	0
120412	13:36:58	10017	Trial2BackEng	N	3	0	1000	1	51	13:36:58	1314606	0	0	0	0	0	0	0	0	0	0	0	0	0	0	0	0	0
120412	13:36:58	10017	Trial2BackEng	N	3	0	1000	1	52	13:36:58	1316112	0	0	0	0	0	0	0	0	0	0	0	0	0	0	0	0	0
120412	13:36:58	10017	Trial2BackEng	Y	3	57	431	1	53	13:36:58	1317059	0	0	0	0	0	0	0	0	0	0	0	0	0	0	0	0	0
120412	13:36:58	10017	Trial2BackEng	N	3	0	1000	1	54	13:36:58	1319124	0	0	0	0	0	0	0	0	0	0	0	0	0	0	0	0	0
120412	13:36:58	10017	Trial2BackEng	N	3	0	1000	1	55	13:36:58	1320631	0	0	0	0	0	0	0	0	0	0	0	0	0	0	0	0	0
120412	13:36:58	10017	Trial2BackEng	N	3	0	1000	1	56	13:36:58	1322137	0	0	0	0	0	0	0	0	0	0	0	0	0	0	0	0	0
120412	13:36:58	10017	Trial2BackEng	N	3	0	1000	1	57	13:36:58	1323643	0	0	0	0	0	0	0	0	0	0	0	0	0	0	0	0	0
120412	13:36:58	10017	Trial2BackEng	N	3	0	1000	1	58	13:36:58	1325149	0	0	0	0	0	0	0	0	0	0	0	0	0	0	0	0	0
120412	13:36:58	10017	Trial2BackEng	N	3	0	1000	1	59	13:36:58	1326668	0	0	0	0	0	0	0	0	0	0	0	0	0	0	0	0	0
120412	13:36:58	10017	Trial2BackEng	Y	3	57	803	1	60	13:36:58	1327987	0	0	0	0	0	0	0	0	0	0	0	0	0	0	0	0	0
120412	13:36:58	10017	Trial2BackEng	N	3	0	1000	1	61	13:36:58	1329680	0	0	0	0	0	0	0	0	0	0	0	0	0	0	0	0	0
120412	13:36:58	10017	Trial2BackEng	N	3	0	1000	1	62	13:36:58	1331186	0	0	0	0	0	0	0	0	0	0	0	0	0	0	0	0	0
120412	13:36:58	10017	Trial2BackEng	Y	3	57	444	1	63	13:36:58	1332146	0	0	0	0	0	0	0	0	0	0	0	0	0	0	0	0	0
120412	13:36:58	10017	Trial2BackEng	N	3	0	1000	1	64	13:36:58	1334198	0	0	0	0	0	0	0	0	0	0	0	0	0	0	0	0	0
120412	13:36:58	10017	Trial2BackEng	N	3	0	1000	1	65	13:36:58	1335704	0	0	0	0	0	0	0	0	0	0	0	0	0	0	0	0	0
120412	13:36:58	10017	Trial2BackEng	N	3	0	1000	1	66	13:36:58	1337210	0	0	0	0	0	0	0	0	0	0	0	0	0	0	0	0	0
120412	13:36:58	10017	Trial2BackEng	N	3	0	1000	1	67	13:36:58	1338717	0	0	0	0	0	0	0	0	0	0	0	0	0	0	0	0	0
120412	13:36:58	10017	Trial2BackEng	N	3	0	1000	1	68	13:36:58	1340223	0	0	0	0	0	0	0	0	0	0	0	0	0	0	0	0	0
120412	13:36:58	10017	Trial2BackEng	N	3	0	1000	1	69	13:36:58	1341729	0	0	0	0	0	0	0	0	0	0	0	0	0	0	0	0	0
120412	13:36:58	10017	Trial2BackEng	N	3	0	1000	1	70	13:36:58	1343235	0	0	0	0	0	0	0	0	0	0	0	0	0	0	0	0	0
120412	13:36:58	10017	Trial2BackEng	N	3	0	1000	1	71	13:36:58	1344741	0	0	0	0	0	0	0	0	0	0	0	0	0	0	0	0	0
120412	13:36:58	10017	Trial2BackEng	N	3	0	1000	1	72	13:36:58	1346247	0	0	0	0	0	0	0	0	0	0	0	0	0	0	0	0	0
120412	13:36:58	10017	Trial2BackEng	N	3	0	1000	1	73	13:36:58	1347753	0	0	0	0	0	0	0	0	0	0	0	0	0	0	0	0	0
120412	13:36:58	10017	Trial2BackEng	Y	3	57	453	1	74	13:36:58	1348726	0	0	0	0	0	0	0	0	0	0	0	0	0	0	0	0	0
120412	13:36:58	10017	Trial2BackEng	N	3	0	1000	1	75	13:36:58	1350765	0	0	0	0	0	0	0	0	0	0	0	0	0	0	0	0	0
120412	13:36:58	10017	Trial2BackEng	N	3	0	1000	1	76	13:36:58	1352271	0	0	0	0	0	0	0	0	0	0	0	0	0	0	0	0	0
120412	13:36:58	10017	Trial2BackEng	N	3	0	1000	1	77	13:36:58	1353777	0	0	0	0	0	0	0	0	0	0	0	0	0	0	0	0	0
120412	13:36:58	10017	Trial2BackEng	Y	3	57	445	1	78	13:36:58	1354737	0	0	0	0	0	0	0	0	0	0	0	0	0	0	0	0	0
120412	13:36:58	10017	Trial2BackEng	N	3	0	1000	1	79	13:36:58	1356789	0	0	0	0	0	0	0	0	0	0	0	0	0	0	0	0	0
120412	13:36:58	10017	Trial2BackEng	N	3	0	1000	1	80	13:36:58	1358295	0	0	0	0	0	0	0	0	0	0	0	0	0	0	0	0	0
120412	13:36:58	10017	Trial2BackEng	N	3	0	1000	1	81	13:36:58	1359801	0	0	0	0	0	0	0	0	0	0	0	0	0	0	0	0	0
120412	13:36:58	10017	Trial2BackEng	N	3	0	1000	1	82	13:36:58	1361321	0	0	0	0	0	0	0	0	0	0	0	0	0	0	0	0	0
120412	13:36:58	10017	Trial2BackEng	N	3	0	1000	1	83	13:36:58	1362827	0	0	0	0	0	0	0	0	0	0	0	0	0	0	0	0	0
120412	13:36:58	10017	Trial2BackEng	Y	3	57	643	1	84	13:36:58	1363986	0	0	0	0	0	0	0	0	0	0	0	0	0	0	0	0	0
120412	13:36:58	10017	Trial2BackEng	N	3	0	1000	1	85	13:36:58	1365839	0	0	0	0	0	0	0	0	0	0	0	0	0	0	0	0	0
120412	13:36:58	10017	Trial2BackEng	N	3	0	1000	1	86	13:36:58	1367358	0	0	0	0	0	0	0	0	0	0	0	0	0	0	0	0	0
120412	13:36:58	10017	Trial2BackEng	N	3	0	1000	1	87	13:36:58	1368864	0	0	0	0	0	0	0	0	0	0	0	0	0	0	0	0	0
120412	13:36:58	10017	Trial2BackEng	N	3	0	1000	1	88	13:36:58	1370370	0	0	0	0	0	0	0	0	0	0	0	0	0	0	0	0	0
120412	13:36:58	10017	Trial2BackEng	N	3	0	1000	1	89	13:36:58	1371876	0	0	0	0	0	0	0	0	0	0	0	0	0	0	0	0	0
120412	13:36:58	10017	Trial2BackEng	N	3	0	1000	1	90	13:36:58	1373382	0	0	0	0	0	0	0	0	0	0	0	0	0	0	0	0	0
120412	13:36:58	10017	Trial2BackEng	N	3	0	1000	1	91	13:36:58	1374889	0	0	0	0	0	0	0	0	0	0	0	0	0	0	0	0	0
120412	13:36:58	10017	Trial2BackEng	N	3	0	1000	1	92	13:36:58	1376394	0	0	0	0	0	0	0	0	0	0	0	0	0	0	0	0	0
120412	13:36:58	10017	Trial2BackEng	N	3	0	1000	1	93	13:36:58	1377901	0	0	0	0	0	0	0	0	0	0	0	0	0	0	0	0	0
120412	13:36:58	10017	Trial2BackEng	Y	3	57	737	1	94	13:36:58	1379153	0	0	0	0	0	0	0	0	0	0	0	0	0	0	0	0	0
120412	13:36:58	10017	Trial2BackEng	N	3	0	1000	1	95	13:36:58	1380913	0	0	0	0	0	0	0	0	0	0	0	0	0	0	0	0	0
120412	13:36:58	10017	Trial2BackEng	N	3	0	1000	1	96	13:36:58	1382432	0	0	0	0	0	0	0	0	0	0	0	0	0	0	0	0	0
120412	13:36:58	10017	Trial2BackEng	N	3	0	1000	1	97	13:36:58	1383938	0	0	0	0	0	0	0	0	0	0	0	0	0	0	0	0	0
120412	13:36:58	10017	Trial2BackEng	N	3	0	1000	1	98	13:36:58	1385444	0	0	0	0	0	0	0	0	0	0	0	0	0	0	0	0	0
120412	13:36:58	10017	Trial2BackEng	N	3	0	1000	1	99	13:36:58	1386950	0	0	0	0	0	0	0	0	0	0	0	0	0	0	0	0	0
120412	13:36:58	10017	Trial2BackEng	N	3	0	1000	1	100	13:36:58	1388456	0	0	0	0	0	0	0	0	0	0	0	0	0	0	0	0	0
120412	13:36:58	10017	Trial2BackEng	N	3	0	1000	1	101	13:36:58	1389962	0	0	0	0	0	0	0	0	0	0	0	0	0	0	0	0	0
120412	13:36:58	10017	Trial2BackEng	N	3	0	1000	1	102	13:36:58	1391469	0	0	0	0	0	0	0	0	0	0	0	0	0	0	0	0	0
120412	13:36:58	10017	Trial2BackEng	Y	3	57	609	1	103	13:36:58	1392588	0	0	0	0	0	0	0	0	0	0	0	0	0	0	0	0	0
120412	13:36:58	10017	Trial2BackEng	N	3	0	1000	1	104	13:36:58	1394481	0	0	0	0	0	0	0	0	0	0	0	0	0	0	0	0	0
120412	13:36:58	10017	Trial2BackEng	N	3	0	1000	1	105	13:36:58	1395987	0	0	0	0	0	0	0	0	0	0	0	0	0	0	0	0	0
120412	13:36:58	10017	Trial2BackEng	N	3	0	1000	1	106	13:36:58	1397506	0	0	0	0	0	0	0	0	0	0	0	0	0	0	0	0	0
120412	13:36:58	10017	Trial2BackEng	N	3	0	1000	1	107	13:36:58	1399012	0	0	0	0	0	0	0	0	0	0	0	0	0	0	0	0	0
120412	13:36:58	10017	Trial2BackEng	Y	3	57	516	1	108	13:36:58	1400092	0	0	0	0	0	0	0	0	0	0	0	0	0	0	0	0	0
120412	13:36:58	10017	Trial2BackEng	N	3	0	1000	1	109	13:36:58	1402078	0	0	0	0	0	0	0	0	0	0	0	0	0	0	0	0	0
120412	13:36:58	10017	Trial2BackEng	N	3	0	1000	1	110	13:36:58	1403584	0	0	0	0	0	0	0	0	0	0	0	0	0	0	0	0	0
120412	13:36:58	10017	Trial2BackEng	N	3	0	1000	1	111	13:36:58	1405090	0	0	0	0	0	0	0	0	0	0	0	0	0	0	0	0	0
120412	13:36:58	10017	Trial2BackEng	Y	3	0	1000	0	111	13:36:58	1406596	0	0	0	0	0	0	0	0	0	0	0	0	0	0	0	0	0
120412	13:36:58	10017	Trial2BackEng	N	3	0	1000	1	112	13:36:58	1408102	0	0	0	0	0	0	0	0	0	0	0	0	0	0	0	0	0
120412	13:36:58	10017	Trial2BackEng	N	3	0	1000	1	113	13:36:58	1409608	0	0	0	0	0	0	0	0	0	0	0	0	0	0	0	0	0
120412	13:36:58	10017	Trial2BackEng	N	3	0	1000	1	114	13:36:58	1411114	0	0	0	0	0	0	0	0	0	0	0	0	0	0	0	0	0
120412	13:36:58	10017	Trial2BackEng	N	3	0	1000	1	115	13:36:58	1412620	0	0	0	0	0	0	0	0	0	0	0	0	0	0	0	0	0
120412	13:36:58	10017	Trial2BackEng	N	3	0	1000	1	116	13:36:58	1414126	0	0	0	0	0	0	0	0	0	0	0	0	0	0	0	0	0
120412	13:36:58	10017	Trial2BackEng	Y	3	57	639	1	117	13:36:58	1415285	0	0	0	0	0	0	0	0	0	0	0	0	0	0	0	0	0
120412	13:36:58	10017	Trial2BackEng	N	3	0	1000	1	118	13:36:58	1417138	0	0	0	0	0	0	0	0	0	0	0	0	0	0	0	0	0
120412	13:36:58	10017	Trial2BackEng	N	3	0	1000	1	119	13:36:58	1418644	0	0	0	0	0	0	0	0	0	0	0	0	0	0	0	0	0
120412	13:36:58	10017	Trial2BackEng	N	3	0	1000	1	120	13:36:58	1420150	0	0	0	0	0	0	0	0	0	0	0	0	0	0	0	0	0
120412	13:36:58	10017	Trial2BackEng	Y	3	57	886	1	121	13:36:58	1421550	0	0	0	0	0	0	0	0	0	0	0	0	0	0	0	0	0
120412	13:36:58	10017	Trial3BackEng	NN	4	0	1000	1	121	13:36:58	1464279	0	0	0	0	0	0	0	0	0	0	0	0	0	0	0	0	0
120412	13:36:58	10017	Trial3BackEng	NN	4	0	1000	1	121	13:36:58	1465785	0	0	0	0	0	0	0	0	0	0	0	0	0	0	0	0	0
120412	13:36:58	10017	Trial3BackEng	NN	4	0	1000	1	121	13:36:58	1467291	0	0	0	0	0	0	0	0	0	0	0	0	0	0	0	0	0
120412	13:36:58	10017	Trial3BackEng	YY	4	57	464	1	121	13:36:58	1468264	0	0	0	0	0	0	0	0	0	0	0	0	0	0	0	0	0
120412	13:36:58	10017	Trial3BackEng	NN	4	0	1000	1	121	13:36:58	1470303	0	0	0	0	0	0	0	0	0	0	0	0	0	0	0	0	0
120412	13:36:58	10017	Trial3BackEng	NN	4	0	1000	1	121	13:36:58	1471809	0	0	0	0	0	0	0	0	0	0	0	0	0	0	0	0	0
120412	13:36:58	10017	Trial3BackEng	NN	4	0	1000	1	121	13:36:58	1473315	0	0	0	0	0	0	0	0	0	0	0	0	0	0	0	0	0
120412	13:36:58	10017	Trial3BackEng	NN	4	0	1000	1	121	13:36:58	1474821	0	0	0	0	0	0	0	0	0	0	0	0	0	0	0	0	0
120412	13:36:58	10017	Trial3BackEng	YY	4	0	1000	0	121	13:36:58	1476327	0	0	0	0	0	0	0	0	0	0	0	0	0	0	0	0	0
120412	13:36:58	10017	Trial3BackEng	NN	4	0	1000	1	121	13:36:58	1477833	0	0	0	0	0	0	0	0	0	0	0	0	0	0	0	0	0
120412	13:36:58	10017	Trial3BackEng	NN	4	0	1000	1	121	13:36:58	1479339	0	0	0	0	0	0	0	0	0	0	0	0	0	0	0	0	0
120412	13:36:58	10017	Trial3BackEng	NN	4	0	1000	1	121	13:36:58	1480846	0	0	0	0	0	0	0	0	0	0	0	0	0	0	0	0	0
120412	13:36:58	10017	Trial3BackEng	NN	4	0	1000	1	121	13:36:58	1482351	0	0	0	0	0	0	0	0	0	0	0	0	0	0	0	0	0
120412	13:36:58	10017	Trial3BackEng	NN	4	0	1000	1	121	13:36:58	1483858	0	0	0	0	0	0	0	0	0	0	0	0	0	0	0	0	0
120412	13:36:58	10017	Trial3BackEng	NN	4	0	1000	1	121	13:36:58	1485364	0	0	0	0	0	0	0	0	0	0	0	0	0	0	0	0	0
120412	13:36:58	10017	Trial3BackEng	NN	4	0	1000	1	121	13:36:58	1486870	0	0	0	0	0	0	0	0	0	0	0	0	0	0	0	0	0
120412	13:36:58	10017	Trial3BackEng	YY	4	0	1000	0	121	13:36:58	1488376	0	0	0	0	0	0	0	0	0	0	0	0	0	0	0	0	0
120412	13:36:58	10017	Trial3BackEng	NN	4	0	1000	1	121	13:36:58	1489882	0	0	0	0	0	0	0	0	0	0	0	0	0	0	0	0	0
120412	13:36:58	10017	Trial3BackEng	NN	4	0	1000	1	121	13:36:58	1491388	0	0	0	0	0	0	0	0	0	0	0	0	0	0	0	0	0
120412	13:36:58	10017	Trial3BackEng	NN	4	0	1000	1	121	13:36:58	1492894	0	0	0	0	0	0	0	0	0	0	0	0	0	0	0	0	0
120412	13:36:58	10017	Trial3BackEng	NN	4	0	1000	1	121	13:36:58	1494413	0	0	0	0	0	0	0	0	0	0	0	0	0	0	0	0	0
120412	13:36:58	10017	Trial3BackEng	NN	4	0	1000	1	121	13:36:58	1495919	0	0	0	0	0	0	0	0	0	0	0	0	0	0	0	0	0
120412	13:36:58	10017	Trial3BackEng	YY	4	0	1000	0	121	13:36:58	1497425	0	0	0	0	0	0	0	0	0	0	0	0	0	0	0	0	0
120412	13:36:58	10017	Trial3BackEng	NN	4	0	1000	1	121	13:36:58	1498945	0	0	0	0	0	0	0	0	0	0	0	0	0	0	0	0	0
120412	13:36:58	10017	Trial3BackEng	NN	4	0	1000	1	121	13:36:58	1500451	0	0	0	0	0	0	0	0	0	0	0	0	0	0	0	0	0
120412	13:36:58	10017	Trial3BackEng	NN	4	0	1000	1	121	13:36:58	1501957	0	0	0	0	0	0	0	0	0	0	0	0	0	0	0	0	0
120412	13:36:58	10017	Trial3BackEng	YY	4	0	1000	0	121	13:36:58	1503463	0	0	0	0	0	0	0	0	0	0	0	0	0	0	0	0	0
120412	13:36:58	10017	Trial3BackEng	NN	4	0	1000	1	121	13:36:58	1504969	0	0	0	0	0	0	0	0	0	0	0	0	0	0	0	0	0
120412	13:36:58	10017	Trial3BackEng	NN	4	0	1000	1	121	13:36:58	1506475	0	0	0	0	0	0	0	0	0	0	0	0	0	0	0	0	0
120412	13:36:58	10017	Trial3BackEng	NN	4	0	1000	1	121	13:36:58	1507981	0	0	0	0	0	0	0	0	0	0	0	0	0	0	0	0	0
120412	13:36:58	10017	Trial3BackEng	YY	4	0	1000	0	121	13:36:58	1509487	0	0	0	0	0	0	0	0	0	0	0	0	0	0	0	0	0
120412	13:36:58	10017	Trial3BackEng	NN	4	0	1000	1	121	13:36:58	1510993	0	0	0	0	0	0	0	0	0	0	0	0	0	0	0	0	0
120412	13:36:58	10017	Trial3BackEng	NN	4	0	1000	1	121	13:36:58	1512499	0	0	0	0	0	0	0	0	0	0	0	0	0	0	0	0	0
120412	13:36:58	10017	Trial3BackEng	NN	4	0	1000	1	121	13:36:58	1514005	0	0	0	0	0	0	0	0	0	0	0	0	0	0	0	0	0
120412	13:36:58	10017	Trial3BackEng	NN	4	0	1000	1	121	13:36:58	1515511	0	0	0	0	0	0	0	0	0	0	0	0	0	0	0	0	0
120412	13:36:58	10017	Trial3BackEng	NN	4	0	1000	1	121	13:36:58	1517018	0	0	0	0	0	0	0	0	0	0	0	0	0	0	0	0	0
120412	13:36:58	10017	Trial3BackEng	NN	4	0	1000	1	121	13:36:58	1518524	0	0	0	0	0	0	0	0	0	0	0	0	0	0	0	0	0
120412	13:36:58	10017	Trial3BackEng	NN	4	0	1000	1	121	13:36:58	1520030	0	0	0	0	0	0	0	0	0	0	0	0	0	0	0	0	0
120412	13:36:58	10017	Trial3BackEng	NN	4	0	1000	1	121	13:36:58	1521536	0	0	0	0	0	0	0	0	0	0	0	0	0	0	0	0	0
120412	13:36:58	10017	Trial3BackEng	NN	4	0	1000	1	121	13:36:58	1523042	0	0	0	0	0	0	0	0	0	0	0	0	0	0	0	0	0
120412	13:36:58	10017	Trial3BackEng	NN	4	0	1000	1	121	13:36:58	1524548	0	0	0	0	0	0	0	0	0	0	0	0	0	0	0	0	0
120412	13:36:58	10017	Trial3BackEng	YY	4	0	1000	0	121	13:36:58	1526054	0	0	0	0	0	0	0	0	0	0	0	0	0	0	0	0	0
120412	13:36:58	10017	Trial3BackEng	NN	4	0	1000	1	121	13:36:58	1527560	0	0	0	0	0	0	0	0	0	0	0	0	0	0	0	0	0
120412	13:36:58	10017	Trial3BackEng	NN	4	0	1000	1	121	13:36:58	1529066	0	0	0	0	0	0	0	0	0	0	0	0	0	0	0	0	0
120412	13:36:58	10017	Trial3BackEng	NN	4	0	1000	1	121	13:36:58	1530572	0	0	0	0	0	0	0	0	0	0	0	0	0	0	0	0	0
120412	13:36:58	10017	Trial3BackEng	NN	4	0	1000	1	121	13:36:58	1532078	0	0	0	0	0	0	0	0	0	0	0	0	0	0	0	0	0
120412	13:36:58	10017	Trial3BackEng	YY	4	0	1000	0	121	13:36:58	1533584	0	0	0	0	0	0	0	0	0	0	0	0	0	0	0	0	0
120412	13:36:58	10017	Trial3BackEng	NN	4	0	1000	1	121	13:36:58	1535090	0	0	0	0	0	0	0	0	0	0	0	0	0	0	0	0	0
120412	13:36:58	10017	Trial3BackEng	NN	4	0	1000	1	121	13:36:58	1536596	0	0	0	0	0	0	0	0	0	0	0	0	0	0	0	0	0
120412	13:36:58	10017	Trial3BackEng	NN	4	0	1000	1	121	13:36:58	1538102	0	0	0	0	0	0	0	0	0	0	0	0	0	0	0	0	0
120412	13:36:58	10017	Trial3BackEng	NN	4	0	1000	1	121	13:36:58	1539608	0	0	0	0	0	0	0	0	0	0	0	0	0	0	0	0	0
120412	13:36:58	10017	Trial3BackEng	NN	4	0	1000	1	121	13:36:58	1541114	0	0	0	0	0	0	0	0	0	0	0	0	0	0	0	0	0
120412	13:36:58	10017	Trial3BackEng	YY	4	0	1000	0	121	13:36:58	1542620	0	0	0	0	0	0	0	0	0	0	0	0	0	0	0	0	0
120412	13:36:58	10017	Trial3BackEng	NN	4	0	1000	1	121	13:36:58	1544127	0	0	0	0	0	0	0	0	0	0	0	0	0	0	0	0	0
120412	13:36:58	10017	Trial3BackEng	NN	4	0	1000	1	121	13:36:58	1545633	0	0	0	0	0	0	0	0	0	0	0	0	0	0	0	0	0
120412	13:36:58	10017	Trial3BackEng	NN	4	0	1000	1	121	13:36:58	1547139	0	0	0	0	0	0	0	0	0	0	0	0	0	0	0	0	0
120412	13:36:58	10017	Trial3BackEng	NN	4	0	1000	1	121	13:36:58	1548645	0	0	0	0	0	0	0	0	0	0	0	0	0	0	0	0	0
120412	13:36:58	10017	Trial3BackEng	NN	4	0	1000	1	121	13:36:58	1550151	0	0	0	0	0	0	0	0	0	0	0	0	0	0	0	0	0
120412	13:36:58	10017	Trial3BackEng	NN	4	0	1000	1	121	13:36:58	1551670	0	0	0	0	0	0	0	0	0	0	0	0	0	0	0	0	0
120412	13:36:58	10017	Trial3BackEng	YY	4	0	1000	0	121	13:36:58	1553176	0	0	0	0	0	0	0	0	0	0	0	0	0	0	0	0	0
120412	13:36:58	10017	Trial3BackEng	NN	4	0	1000	1	121	13:36:58	1554682	0	0	0	0	0	0	0	0	0	0	0	0	0	0	0	0	0
120412	13:36:58	10017	Trial3BackEng	NN	4	0	1000	1	121	13:36:58	1556188	0	0	0	0	0	0	0	0	0	0	0	0	0	0	0	0	0
120412	13:36:58	10017	Trial3BackEng	NN	4	0	1000	1	121	13:36:58	1557708	0	0	0	0	0	0	0	0	0	0	0	0	0	0	0	0	0
120412	13:36:58	10017	Trial3BackEng	YY	4	0	1000	0	121	13:36:58	1559214	0	0	0	0	0	0	0	0	0	0	0	0	0	0	0	0	0
120412	13:36:58	10017	Trial3BackEng	NN	4	0	1000	1	121	13:36:58	1560720	0	0	0	0	0	0	0	0	0	0	0	0	0	0	0	0	0
120412	13:36:58	10017	Trial3BackEng	NN	4	0	1000	1	121	13:36:58	1562239	0	0	0	0	0	0	0	0	0	0	0	0	0	0	0	0	0
120412	13:36:58	10017	Trial3BackEng	NN	4	0	1000	1	121	13:36:58	1563745	0	0	0	0	0	0	0	0	0	0	0	0	0	0	0	0	0
120412	13:36:58	10017	Trial3BackEng	NN	4	0	1000	1	121	13:36:58	1565251	0	0	0	0	0	0	0	0	0	0	0	0	0	0	0	0	0
120412	13:36:58	10017	Trial3BackEng	NN	4	0	1000	1	121	13:36:58	1566757	0	0	0	0	0	0	0	0	0	0	0	0	0	0	0	0	0
120412	13:36:58	10017	Trial3BackEng	NN	4	0	1000	1	121	13:36:58	1568263	0	0	0	0	0	0	0	0	0	0	0	0	0	0	0	0	0
120412	13:36:58	10017	Trial3BackEng	NN	4	0	1000	1	121	13:36:58	1569770	0	0	0	0	0	0	0	0	0	0	0	0	0	0	0	0	0
120412	13:36:58	10017	Trial3BackEng	NN	4	0	1000	1	121	13:36:58	1571289	0	0	0	0	0	0	0	0	0	0	0	0	0	0	0	0	0
120412	13:36:58	10017	Trial3BackEng	NN	4	0	1000	1	121	13:36:58	1572795	0	0	0	0	0	0	0	0	0	0	0	0	0	0	0	0	0
120412	13:36:58	10017	Trial3BackEng	YY	4	0	1000	0	121	13:36:58	1574301	0	0	0	0	0	0	0	0	0	0	0	0	0	0	0	0	0
120412	13:36:58	10017	Trial3BackEng	NN	4	0	1000	1	121	13:36:58	1575807	0	0	0	0	0	0	0	0	0	0	0	0	0	0	0	0	0
120412	13:36:58	10017	Trial3BackEng	NN	4	0	1000	1	121	13:36:58	1577313	0	0	0	0	0	0	0	0	0	0	0	0	0	0	0	0	0
120412	13:36:58	10017	Trial3BackEng	NN	4	0	1000	1	121	13:36:58	1578819	0	0	0	0	0	0	0	0	0	0	0	0	0	0	0	0	0
120412	13:36:58	10017	Trial3BackEng	YY	4	0	1000	0	121	13:36:58	1580325	0	0	0	0	0	0	0	0	0	0	0	0	0	0	0	0	0
120412	13:36:58	10017	Trial3BackEng	NN	4	0	1000	1	121	13:36:58	1581831	0	0	0	0	0	0	0	0	0	0	0	0	0	0	0	0	0
120412	13:36:58	10017	Trial3BackEng	NN	4	0	1000	1	121	13:36:58	1583337	0	0	0	0	0	0	0	0	0	0	0	0	0	0	0	0	0
120412	13:36:58	10017	Trial3BackEng	NN	4	0	1000	1	121	13:36:58	1584857	0	0	0	0	0	0	0	0	0	0	0	0	0	0	0	0	0
120412	13:36:58	10017	Trial3BackEng	NN	4	0	1000	1	121	13:36:58	1586363	0	0	0	0	0	0	0	0	0	0	0	0	0	0	0	0	0
120412	13:36:58	10017	Trial3BackEng	NN	4	0	1000	1	121	13:36:58	1587869	0	0	0	0	0	0	0	0	0	0	0	0	0	0	0	0	0
120412	13:36:58	10017	Trial3BackEng	YY	4	0	1000	0	121	13:36:58	1589375	0	0	0	0	0	0	0	0	0	0	0	0	0	0	0	0	0
120412	13:36:58	10017	Trial3BackEng	NN	4	0	1000	1	121	13:36:58	1590894	0	0	0	0	0	0	0	0	0	0	0	0	0	0	0	0	0
120412	13:36:58	10017	Trial3BackEng	NN	4	0	1000	1	121	13:36:58	1592400	0	0	0	0	0	0	0	0	0	0	0	0	0	0	0	0	0
120412	13:36:58	10017	Trial3BackEng	NN	4	0	1000	1	121	13:36:58	1593906	0	0	0	0	0	0	0	0	0	0	0	0	0	0	0	0	0
120412	13:36:58	10017	Trial3BackEng	NN	4	0	1000	1	121	13:36:58	1595412	0	0	0	0	0	0	0	0	0	0	0	0	0	0	0	0	0
120412	13:36:58	10017	Trial3BackEng	NN	4	0	1000	1	121	13:36:58	1596918	0	0	0	0	0	0	0	0	0	0	0	0	0	0	0	0	0
120412	13:36:58	10017	Trial3BackEng	NN	4	0	1000	1	121	13:36:58	1598425	0	0	0	0	0	0	0	0	0	0	0	0	0	0	0	0	0
120412	13:36:58	10017	Trial3BackEng	NN	4	0	1000	1	121	13:36:58	1599931	0	0	0	0	0	0	0	0	0	0	0	0	0	0	0	0	0
120412	13:36:58	10017	Trial3BackEng	NN	4	0	1000	1	121	13:36:58	1601437	0	0	0	0	0	0	0	0	0	0	0	0	0	0	0	0	0
120412	13:36:58	10017	Trial3BackEng	NN	4	0	1000	1	121	13:36:58	1602956	0	0	0	0	0	0	0	0	0	0	0	0	0	0	0	0	0
120412	13:36:58	10017	Trial3BackEng	YY	4	57	700	1	121	13:36:58	1604169	0	0	0	0	0	0	0	0	0	0	0	0	0	0	0	0	0
120412	13:36:58	10017	Trial3BackEng	NN	4	0	1000	1	121	13:36:58	1605968	0	0	0	0	0	0	0	0	0	0	0	0	0	0	0	0	0
120412	13:36:58	10017	Trial3BackEng	NN	4	0	1000	1	121	13:36:58	1607474	0	0	0	0	0	0	0	0	0	0	0	0	0	0	0	0	0
120412	13:36:58	10017	Trial3BackEng	NN	4	0	1000	1	121	13:36:58	1608980	0	0	0	0	0	0	0	0	0	0	0	0	0	0	0	0	0
120412	13:36:58	10017	Trial3BackEng	NN	4	0	1000	1	121	13:36:58	1610486	0	0	0	0	0	0	0	0	0	0	0	0	0	0	0	0	0
120412	13:36:58	10017	Trial3BackEng	NN	4	0	1000	1	121	13:36:58	1611992	0	0	0	0	0	0	0	0	0	0	0	0	0	0	0	0	0
120412	13:36:58	10017	Trial3BackEng	NN	4	0	1000	1	121	13:36:58	1613498	0	0	0	0	0	0	0	0	0	0	0	0	0	0	0	0	0
120412	13:36:58	10017	Trial3BackEng	NN	4	0	1000	1	121	13:36:58	1615005	0	0	0	0	0	0	0	0	0	0	0	0	0	0	0	0	0
120412	13:36:58	10017	Trial3BackEng	NN	4	0	1000	1	121	13:36:58	1616511	0	0	0	0	0	0	0	0	0	0	0	0	0	0	0	0	0
120412	13:36:58	10017	Trial3BackEng	YY	4	0	1000	0	121	13:36:58	1618017	0	0	0	0	0	0	0	0	0	0	0	0	0	0	0	0	0
120412	13:36:58	10017	Trial3BackEng	NN	4	0	1000	1	121	13:36:58	1619523	0	0	0	0	0	0	0	0	0	0	0	0	0	0	0	0	0
120412	13:36:58	10017	Trial3BackEng	NN	4	0	1000	1	121	13:36:58	1621029	0	0	0	0	0	0	0	0	0	0	0	0	0	0	0	0	0
120412	13:36:58	10017	Trial3BackEng	NN	4	0	1000	1	121	13:36:58	1622535	0	0	0	0	0	0	0	0	0	0	0	0	0	0	0	0	0
120412	13:36:58	10017	Trial3BackEng	NN	4	0	1000	1	121	13:36:58	1624041	0	0	0	0	0	0	0	0	0	0	0	0	0	0	0	0	0
120412	13:36:58	10017	Trial3BackEng	YY	4	57	655	1	121	13:36:58	1625214	0	0	0	0	0	0	0	0	0	0	0	0	0	0	0	0	0
120412	13:36:58	10017	Trial3BackEng	NN	4	0	1000	1	121	13:36:58	1627053	0	0	0	0	0	0	0	0	0	0	0	0	0	0	0	0	0
120412	13:36:58	10017	Trial3BackEng	NN	4	0	1000	1	121	13:36:58	1628559	0	0	0	0	0	0	0	0	0	0	0	0	0	0	0	0	0
120412	13:36:58	10017	Trial3BackEng	NN	4	0	1000	1	121	13:36:58	1630078	0	0	0	0	0	0	0	0	0	0	0	0	0	0	0	0	0
120412	13:36:58	10017	Trial3BackEng	YY	4	57	697	1	121	13:36:58	1631291	0	0	0	0	0	0	0	0	0	0	0	0	0	0	0	0	0
120412	13:36:58	10017	Trial3BackEng	NN	4	0	1000	1	121	13:36:58	1633091	0	0	0	0	0	0	0	0	0	0	0	0	0	0	0	0	0
120412	13:36:58	10017	Trial3BackEng	NN	4	0	1000	1	121	13:36:58	1634597	0	0	0	0	0	0	0	0	0	0	0	0	0	0	0	0	0
120412	13:36:58	10017	Trial3BackEng	NN	4	0	1000	1	121	13:36:58	1636116	0	0	0	0	0	0	0	0	0	0	0	0	0	0	0	0	0
120412	13:36:58	10017	Trial3BackEng	NN	4	57	803	0	121	13:36:58	1637435	0	0	0	0	0	0	0	0	0	0	0	0	0	0	0	0	0
120412	13:36:58	10017	Trial3BackEng	NN	4	0	1000	1	121	13:36:58	1639128	0	0	0	0	0	0	0	0	0	0	0	0	0	0	0	0	0
120412	13:36:58	10017	Trial3BackEng	YY	4	0	1000	0	121	13:36:58	1640634	0	0	0	0	0	0	0	0	0	0	0	0	0	0	0	0	0
120412	13:36:58	10017	Trial3BackEng	NN	4	0	1000	1	121	13:36:58	1642140	0	0	0	0	0	0	0	0	0	0	0	0	0	0	0	0	0
120412	13:36:58	10017	Trial3BackEng	NN	4	0	1000	1	121	13:36:58	1643646	0	0	0	0	0	0	0	0	0	0	0	0	0	0	0	0	0
120412	13:36:58	10017	Trial3BackEng	NN	4	0	1000	1	121	13:36:58	1645152	0	0	0	0	0	0	0	0	0	0	0	0	0	0	0	0	0
120412	13:36:58	10017	Trial3BackEng	YY	4	0	1000	0	121	13:36:58	1646658	0	0	0	0	0	0	0	0	0	0	0	0	0	0	0	0	0
120412	13:36:58	10017	Memory1R6mo	Score	5	M7	13099	0	121	13:36:58	1690614	0	0	0	0	0	0	0	0	0	0	0	0	0	0	0	0	0
120412	13:36:58	10017	Memory1R6mo	Score	5	M8	368	0	121	13:36:58	1691027	0	0	0	0	0	0	0	0	0	0	0	0	0	0	0	0	0
120412	13:36:58	10017	Memory1R6mo	Score	5	M4	1406	0	121	13:36:58	1692493	0	0	0	0	0	0	0	0	0	0	0	0	0	0	0	0	0
120412	13:36:58	10017	Memory1R6mo	Score	5	M3	417	0	121	13:36:58	1692960	0	0	0	0	0	0	0	0	0	0	0	0	0	0	0	0	0
120412	13:36:58	10017	Memory1R6mo	Score	5	M2	366	0	121	13:36:58	1693373	0	0	0	0	0	0	0	0	0	0	0	0	0	0	0	0	0
120412	13:36:58	10017	Memory1R6mo	Score	5	M1	385	0	121	13:36:58	1693813	0	0	0	0	0	0	0	0	0	0	0	0	0	0	0	0	0
120412	13:36:58	10017	Memory1R6mo	Score	5	Done	14625	0	121	13:36:58	1708487	0	0	0	0	0	0	0	0	0	0	0	0	0	0	0	0	0
120412	13:36:58	10017	Memory2R6mo	Score2	5	88	17955	0	121	13:36:58	1745792	0	0	0	0	0	0	0	0	0	0	0	0	0	0	0	0	0
120412	13:36:58	10017	Memory2R6mo	Score2	5	77	365	0	121	13:36:58	1746205	0	0	0	0	0	0	0	0	0	0	0	0	0	0	0	0	0
120412	13:36:58	10017	Memory2R6mo	Score2	5	55	584	0	121	13:36:58	1746845	0	0	0	0	0	0	0	0	0	0	0	0	0	0	0	0	0
120412	13:36:58	10017	Memory2R6mo	Score2	5	44	280	0	121	13:36:58	1747178	0	0	0	0	0	0	0	0	0	0	0	0	0	0	0	0	0
120412	13:36:58	10017	Memory2R6mo	Score2	5	33	419	0	121	13:36:58	1747644	0	0	0	0	0	0	0	0	0	0	0	0	0	0	0	0	0
120412	13:36:58	10017	Memory2R6mo	Score2	5	22	337	0	121	13:36:58	1748031	0	0	0	0	0	0	0	0	0	0	0	0	0	0	0	0	0
120412	13:36:58	10017	Memory2R6mo	Score2	5	11	342	0	121	13:36:58	1748417	0	0	0	0	0	0	0	0	0	0	0	0	0	0	0	0	0
120412	13:36:58	10017	Memory2R6mo	Score2	5	Done	19475	0	121	13:36:58	1767943	0	0	0	0	0	0	0	0	0	0	0	0	0	0	0	0	0
120412	13:36:58	10017	Memory3R6mo	Score3	5	777	16216	0	121	13:36:58	1803488	0	0	0	0	0	0	0	0	0	0	0	0	0	0	0	0	0
120412	13:36:58	10017	Memory3R6mo	Score3	5	666	363	0	121	13:36:58	1803902	0	0	0	0	0	0	0	0	0	0	0	0	0	0	0	0	0
120412	13:36:58	10017	Memory3R6mo	Score3	5	555	406	0	121	13:36:58	1804355	0	0	0	0	0	0	0	0	0	0	0	0	0	0	0	0	0
120412	13:36:58	10017	Memory3R6mo	Score3	5	333	297	0	121	13:36:58	1804701	0	0	0	0	0	0	0	0	0	0	0	0	0	0	0	0	0
120412	13:36:58	10017	Memory3R6mo	Score3	5	444	414	0	121	13:36:58	1805168	0	0	0	0	0	0	0	0	0	0	0	0	0	0	0	0	0
120412	13:36:58	10017	Memory3R6mo	Score3	5	222	684	0	121	13:36:58	1805901	0	0	0	0	0	0	0	0	0	0	0	0	0	0	0	0	0
120412	13:36:58	10017	Memory3R6mo	Score3	5	111	463	0	121	13:36:58	1806421	0	0	0	0	0	0	0	0	0	0	0	0	0	0	0	0	0
120412	13:36:58	10017	Memory3R6mo	Score3	5	888	6863	0	121	13:36:58	1813338	0	0	0	0	0	0	0	0	0	0	0	0	0	0	0	0	0
120412	13:36:58	10017	Memory3R6mo	Score3	5	Done	5186	0	121	13:36:58	1818576	0	0	0	0	0	0	0	0	0	0	0	0	0	0	0	0	0
120412	13:36:58	10017	LoriaEngLH3	Stop	6	6	5201	0	121	13:36:58	1889148	0	0	0	0	0	0	0	0	0	0	0	0	0	0	0	0	0
120412	13:36:58	10017	EngTrail	Trails	7	1Trails	930	0	121	13:36:58	1906674	0	0	0	0	0	0	0	0	0	0	0	0	0	0	0	0	0
120412	13:36:58	10017	Serial7Eng6mo	Serial7Eng6mo	8	73	4587	0	121	13:36:58	1945673	1	0	0	0	0	0	0	0	0	0	0	0	0	0	0	0	0
120412	13:36:58	10017	Serial7Eng6mo	Serial7Eng6mo	8	66	3332	0	121	13:36:58	1949018	2	0	0	0	0	0	0	0	0	0	0	0	0	0	0	0	0
120412	13:36:58	10017	Serial7Eng6mo	Serial7Eng6mo	8	59	7984	0	121	13:36:58	1957028	3	0	0	0	0	0	0	0	0	0	0	0	0	0	0	0	0
120412	13:36:58	10017	Serial7Eng6mo	Serial7Eng6mo	8	52	3010	0	121	13:36:58	1960054	4	0	0	0	0	0	0	0	0	0	0	0	0	0	0	0	0
120412	13:36:58	10017	Serial7Eng6mo	Serial7Eng6mo	8	45	3390	0	121	13:36:58	1963467	5	0	0	0	0	0	0	0	0	0	0	0	0	0	0	0	0
120412	13:36:58	10017	corsiblockEngFwrd	recallseqEngFwrd	9	3	2539	0	121	13:36:58	1996280	5	0	0	0	0	0	0	0	0	0	0	0	0	0	0	0	0
120412	13:36:58	10017	corsiblockEngFwrd	recallseqEngFwrd	9	4	1362	0	121	13:36:58	1997692	5	0	0	0	0	0	0	0	0	0	0	0	0	0	0	0	0
120412	13:36:58	10017	corsiblockEngFwrd	recallseqEngFwrd	9	doneCorsiEng	2093	0	121	13:36:58	1999838	5	0	0	0	0	0	0	0	0	0	0	0	0	0	0	2	0
120412	13:36:58	10017	corsiblockEngFwrd	recallseqEngFwrd	9	8	1685	0	121	13:36:58	2007648	5	0	0	0	0	0	0	0	0	0	0	0	0	0	0	2	0
120412	13:36:58	10017	corsiblockEngFwrd	recallseqEngFwrd	9	6	1089	0	121	13:36:58	2008781	5	0	0	0	0	0	0	0	0	0	0	0	0	0	0	2	0
120412	13:36:58	10017	corsiblockEngFwrd	recallseqEngFwrd	9	2	788	0	121	13:36:58	2009621	5	0	0	0	0	0	0	0	0	0	0	0	0	0	0	2	0
120412	13:36:58	10017	corsiblockEngFwrd	recallseqEngFwrd	9	doneCorsiEng	1700	0	121	13:36:58	2011367	5	0	0	0	0	0	0	0	0	0	0	0	0	0	0	3	0
120412	13:36:58	10017	corsiblockEngFwrd	recallseqEngFwrd	9	1	1829	0	121	13:36:58	2020323	5	0	0	0	0	0	0	0	0	0	0	0	0	0	0	3	0
120412	13:36:58	10017	corsiblockEngFwrd	recallseqEngFwrd	9	5	974	0	121	13:36:58	2021350	5	0	0	0	0	0	0	0	0	0	0	0	0	0	0	3	0
120412	13:36:58	10017	corsiblockEngFwrd	recallseqEngFwrd	9	9	851	0	121	13:36:58	2022256	5	0	0	0	0	0	0	0	0	0	0	0	0	0	0	3	0
120412	13:36:58	10017	corsiblockEngFwrd	recallseqEngFwrd	9	7	721	0	121	13:36:58	2023029	5	0	0	0	0	0	0	0	0	0	0	0	0	0	0	3	0
120412	13:36:58	10017	corsiblockEngFwrd	recallseqEngFwrd	9	doneCorsiEng	1252	0	121	13:36:58	2024335	5	0	0	0	0	0	0	0	0	0	0	0	0	0	0	4	0
120412	13:36:58	10017	corsiblockEngFwrd	recallseqEngFwrd	9	1	1493	0	121	13:36:58	2033958	5	0	0	0	0	0	0	0	0	0	0	0	0	0	0	4	0
120412	13:36:58	10017	corsiblockEngFwrd	recallseqEngFwrd	9	3	891	0	121	13:36:58	2034904	5	0	0	0	0	0	0	0	0	0	0	0	0	0	0	4	0
120412	13:36:58	10017	corsiblockEngFwrd	recallseqEngFwrd	9	8	1057	0	121	13:36:58	2036010	5	0	0	0	0	0	0	0	0	0	0	0	0	0	0	4	0
120412	13:36:58	10017	corsiblockEngFwrd	recallseqEngFwrd	9	2	894	0	121	13:36:58	2036956	5	0	0	0	0	0	0	0	0	0	0	0	0	0	0	4	0
120412	13:36:58	10017	corsiblockEngFwrd	recallseqEngFwrd	9	7	716	0	121	13:36:58	2037716	5	0	0	0	0	0	0	0	0	0	0	0	0	0	0	4	0
120412	13:36:58	10017	corsiblockEngFwrd	recallseqEngFwrd	9	doneCorsiEng	2060	0	121	13:36:58	2039822	5	0	0	0	0	0	0	0	0	0	0	0	0	0	0	4	0
120412	13:36:58	10017	corsiblockEngFwrd	recallseqEngFwrd	9	6	1013	0	121	13:36:58	2048925	5	0	0	0	0	0	0	0	0	0	0	0	0	0	0	4	0
120412	13:36:58	10017	corsiblockEngFwrd	recallseqEngFwrd	9	2	739	0	121	13:36:58	2049711	5	0	0	0	0	0	0	0	0	0	0	0	0	0	0	4	0
120412	13:36:58	10017	corsiblockEngFwrd	recallseqEngFwrd	9	9	849	0	121	13:36:58	2050604	5	0	0	0	0	0	0	0	0	0	0	0	0	0	0	4	0
120412	13:36:58	10017	corsiblockEngFwrd	recallseqEngFwrd	9	5	892	0	121	13:36:58	2051551	5	0	0	0	0	0	0	0	0	0	0	0	0	0	0	4	0
120412	13:36:58	10017	corsiblockEngFwrd	recallseqEngFwrd	9	4	697	0	121	13:36:58	2052297	5	0	0	0	0	0	0	0	0	0	0	0	0	0	0	4	0
120412	13:36:58	10017	corsiblockEngFwrd	recallseqEngFwrd	9	doneCorsiEng	1207	0	121	13:36:58	2053550	5	0	0	0	0	0	0	0	0	0	0	0	0	0	0	5	0
120412	13:36:58	10017	corsiblockEngFwrd	recallseqEngFwrd	9	resetCorsiEng	3002	0	121	13:36:58	2064665	5	0	0	0	0	0	0	0	0	0	0	0	0	0	0	5	0
120412	13:36:58	10017	corsiblockEngFwrd	recallseqEngFwrd	9	6	5574	0	121	13:36:58	2070290	5	0	0	0	0	0	0	0	0	0	0	0	0	0	0	5	0
120412	13:36:58	10017	corsiblockEngFwrd	recallseqEngFwrd	9	9	1006	0	121	13:36:58	2071343	5	0	0	0	0	0	0	0	0	0	0	0	0	0	0	5	0
120412	13:36:58	10017	corsiblockEngFwrd	recallseqEngFwrd	9	8	889	0	121	13:36:58	2072276	5	0	0	0	0	0	0	0	0	0	0	0	0	0	0	5	0
120412	13:36:58	10017	corsiblockEngFwrd	recallseqEngFwrd	9	1	972	0	121	13:36:58	2073302	5	0	0	0	0	0	0	0	0	0	0	0	0	0	0	5	0
120412	13:36:58	10017	corsiblockEngFwrd	recallseqEngFwrd	9	3	970	0	121	13:36:58	2074328	5	0	0	0	0	0	0	0	0	0	0	0	0	0	0	5	0
120412	13:36:58	10017	corsiblockEngFwrd	recallseqEngFwrd	9	2	1703	0	121	13:36:58	2076087	5	0	0	0	0	0	0	0	0	0	0	0	0	0	0	5	0
120412	13:36:58	10017	corsiblockEngFwrd	recallseqEngFwrd	9	doneCorsiEng	1104	0	121	13:36:58	2077247	5	0	0	0	0	0	0	0	0	0	0	0	0	0	0	5	0
120412	13:36:58	10017	corsiblockEngFwrd	recallseqEngFwrd	9	7	1228	0	121	13:36:58	2087563	5	0	0	0	0	0	0	0	0	0	0	0	0	0	0	5	0
120412	13:36:58	10017	corsiblockEngFwrd	recallseqEngFwrd	9	6	836	0	121	13:36:58	2088456	5	0	0	0	0	0	0	0	0	0	0	0	0	0	0	5	0
120412	13:36:58	10017	corsiblockEngFwrd	recallseqEngFwrd	9	3	767	0	121	13:36:58	2089269	5	0	0	0	0	0	0	0	0	0	0	0	0	0	0	5	0
120412	13:36:58	10017	corsiblockEngFwrd	recallseqEngFwrd	9	9	906	0	121	13:36:58	2090228	5	0	0	0	0	0	0	0	0	0	0	0	0	0	0	5	0
120412	13:36:58	10017	corsiblockEngFwrd	recallseqEngFwrd	9	5	915	0	121	13:36:58	2091188	5	0	0	0	0	0	0	0	0	0	0	0	0	0	0	5	0
120412	13:36:58	10017	corsiblockEngFwrd	recallseqEngFwrd	9	4	939	0	121	13:36:58	2092174	5	0	0	0	0	0	0	0	0	0	0	0	0	0	0	5	0
120412	13:36:58	10017	corsiblockEngFwrd	recallseqEngFwrd	9	doneCorsiEng	1081	0	121	13:36:58	2093307	5	0	0	0	0	0	0	0	0	0	0	0	0	0	0	5	0
120412	13:36:58	10017	corsiblockEngRev	recallseqEngRev	10	4	1299	0	121	13:36:58	2105342	5	0	0	0	0	0	0	0	0	0	0	0	0	0	0	5	0
120412	13:36:58	10017	corsiblockEngRev	recallseqEngRev	10	7	744	0	121	13:36:58	2106142	5	0	0	0	0	0	0	0	0	0	0	0	0	0	0	5	0
120412	13:36:58	10017	corsiblockEngRev	recallseqEngRev	10	doneCorsiEng	975	0	121	13:36:58	2107168	5	0	0	0	0	0	0	0	0	0	0	0	0	0	0	5	2
120412	13:36:58	10017	corsiblockEngRev	recallseqEngRev	10	3	1073	0	121	13:36:58	2114365	5	0	0	0	0	0	0	0	0	0	0	0	0	0	0	5	2
120412	13:36:58	10017	corsiblockEngRev	recallseqEngRev	10	5	873	0	121	13:36:58	2115285	5	0	0	0	0	0	0	0	0	0	0	0	0	0	0	5	2
120412	13:36:58	10017	corsiblockEngRev	recallseqEngRev	10	1	1306	0	121	13:36:58	2116644	5	0	0	0	0	0	0	0	0	0	0	0	0	0	0	5	2
120412	13:36:58	10017	corsiblockEngRev	recallseqEngRev	10	doneCorsiEng	1266	0	121	13:36:58	2117964	5	0	0	0	0	0	0	0	0	0	0	0	0	0	0	5	3
120412	13:36:58	10017	corsiblockEngRev	recallseqEngRev	10	8	1536	0	121	13:36:58	2126640	5	0	0	0	0	0	0	0	0	0	0	0	0	0	0	5	3
120412	13:36:58	10017	corsiblockEngRev	recallseqEngRev	10	6	814	0	121	13:36:58	2127506	5	0	0	0	0	0	0	0	0	0	0	0	0	0	0	5	3
120412	13:36:58	10017	corsiblockEngRev	recallseqEngRev	10	2	764	0	121	13:36:58	2128320	5	0	0	0	0	0	0	0	0	0	0	0	0	0	0	5	3
120412	13:36:58	10017	corsiblockEngRev	recallseqEngRev	10	9	951	0	121	13:36:58	2129319	5	0	0	0	0	0	0	0	0	0	0	0	0	0	0	5	3
120412	13:36:58	10017	corsiblockEngRev	recallseqEngRev	10	doneCorsiEng	1511	0	121	13:36:58	2130879	5	0	0	0	0	0	0	0	0	0	0	0	0	0	0	5	3
120412	13:36:58	10017	corsiblockEngRev	recallseqEngRev	10	4	5770	0	121	13:36:58	2143740	5	0	0	0	0	0	0	0	0	0	0	0	0	0	0	5	3
120412	13:36:58	10017	corsiblockEngRev	recallseqEngRev	10	8	3129	0	121	13:36:58	2146925	5	0	0	0	0	0	0	0	0	0	0	0	0	0	0	5	3
120412	13:36:58	10017	corsiblockEngRev	recallseqEngRev	10	2	752	0	121	13:36:58	2147725	5	0	0	0	0	0	0	0	0	0	0	0	0	0	0	5	3
120412	13:36:58	10017	corsiblockEngRev	recallseqEngRev	10	1	753	0	121	13:36:58	2148525	5	0	0	0	0	0	0	0	0	0	0	0	0	0	0	5	3
120412	13:36:58	10017	corsiblockEngRev	recallseqEngRev	10	doneCorsiEng	1281	0	121	13:36:58	2149858	5	0	0	0	0	0	0	0	0	0	0	0	0	0	0	5	3
120412	13:36:58	10017	testEng6mo	WordsEng6mo	11	8Eng6mo	13922	0	121	13:36:58	2173715	5	0	0	0	0	0	0	0	3	0	0	0	0	0	0	5	3
120412	13:36:58	10017	testEng6mo	WordsEng6mo	11	6Eng6mo	331	0	121	13:36:58	2174101	5	0	0	0	0	0	3	0	3	0	0	0	0	0	0	5	3
120412	13:36:58	10017	testEng6mo	WordsEng6mo	11	5Eng6mo	400	0	121	13:36:58	2174554	5	0	0	0	0	3	3	0	3	0	0	0	0	0	0	5	3
120412	13:36:58	10017	testEng6mo	WordsEng6mo	11	4Eng6mo	555	0	121	13:36:58	2175154	5	0	0	0	3	3	3	0	3	0	0	0	0	0	0	5	3
120412	13:36:58	10017	testEng6mo	WordsEng6mo	11	3Eng6mo	236	0	121	13:36:58	2175434	5	0	0	3	3	3	3	0	3	0	0	0	0	0	0	5	3
120412	13:36:58	10017	testEng6mo	WordsEng6mo	11	2Eng6mo	308	0	121	13:36:58	2175794	5	0	3	3	3	3	3	0	3	0	0	0	0	0	0	5	3
120412	13:36:58	10017	testEng6mo	WordsEng6mo	11	1Eng6mo	196	0	121	13:36:58	2176034	5	3	3	3	3	3	3	0	3	0	0	0	0	0	0	5	3
120412	13:36:58	10017	testEng6mo	WordsEng6mo	11	DoneEng6mo	7171	0	121	13:36:58	2183258	5	3	3	3	3	3	3	0	3	0	0	0	0	0	0	5	3
120412	13:36:58	10017	testEng6mo	Cat7Eng6mo	11	W7Eng6mo	4852	0	121	13:36:58	2188162	5	3	3	3	3	3	3	0	3	0	0	0	0	0	0	5	3
120412	13:36:58	10017	testEng6mo	Ch7Eng6mo	11	RR7Eng6mo	2417	0	121	13:36:58	2190615	5	3	3	3	3	3	3	1	3	0	0	0	0	0	0	5	3
120412	13:36:58	10017	DigitSpanFwrdEng6mo	Score1FwrdEng6mo	12	DS1	2816	0	121	13:36:58	2207568	5	3	3	3	3	3	3	1	3	0	0	0	0	0	0	5	3
120412	13:36:58	10017	DigitSpanFwrdEng6mo	Gate1FwrdEng6mo	12	0	1	0	121	13:36:58	2207572	5	3	3	3	3	3	3	1	3	3	0	0	0	0	0	5	3
120412	13:36:58	10017	DigitSpanFwrdEng6mo	Score2FwrdEng6mo	12	DS1	2609	0	121	13:36:58	2216937	5	3	3	3	3	3	3	1	3	3	0	0	0	0	0	5	3
120412	13:36:58	10017	DigitSpanFwrdEng6mo	Gate3FwrdEng6mo	12	0	1	0	121	13:36:58	2216941	5	3	3	3	3	3	3	1	3	4	0	0	0	0	0	5	3
120412	13:36:58	10017	DigitSpanFwrdEng6mo	Score3FwrdEng6mo	12	DS1	3205	0	121	13:36:58	2228172	5	3	3	3	3	3	3	1	3	4	0	0	0	0	0	5	3
120412	13:36:58	10017	DigitSpanFwrdEng6mo	Gate5FwrdEng6mo	12	0	1	0	121	13:36:58	2228177	5	3	3	3	3	3	3	1	3	5	0	0	0	0	0	5	3
120412	13:36:58	10017	DigitSpanFwrdEng6mo	Score4FwrdEng6mo	12	DS1	3444	0	121	13:36:58	2241140	5	3	3	3	3	3	3	1	3	5	0	0	0	0	0	5	3
120412	13:36:58	10017	DigitSpanFwrdEng6mo	Gate7FwrdEng6mo	12	0	1	0	121	13:36:58	2241145	5	3	3	3	3	3	3	1	3	6	0	0	0	0	0	5	3
120412	13:36:58	10017	DigitSpanFwrdEng6mo	Score5FwrdEng6mo	12	DS1	4642	0	121	13:36:58	2256774	5	3	3	3	3	3	3	1	3	6	0	0	0	0	0	5	3
120412	13:36:58	10017	DigitSpanFwrdEng6mo	Gate9FwrdEng6mo	12	0	1	0	121	13:36:58	2256779	5	3	3	3	3	3	3	1	3	7	0	0	0	0	0	5	3
120412	13:36:58	10017	DigitSpanFwrdEng6mo	Score6FwrdEng6mo	12	DS1	6955	0	121	13:36:58	2276699	5	3	3	3	3	3	3	1	3	8	0	0	0	0	0	5	3
120412	13:36:58	10017	DigitSpanEng6mo	Score1Eng6mo	13	DS1	3648	0	121	13:36:58	2294599	5	3	3	3	3	3	3	1	3	8	0	0	0	0	0	5	3
120412	13:36:58	10017	DigitSpanEng6mo	Gate1Eng6mo	13	0	1	0	121	13:36:58	2294603	5	3	3	3	3	3	3	1	3	8	2	0	0	0	0	5	3
120412	13:36:58	10017	DigitSpanEng6mo	Score2Eng6mo	13	DS1	4801	0	121	13:36:58	2304341	5	3	3	3	3	3	3	1	3	8	2	0	0	0	0	5	3
120412	13:36:58	10017	DigitSpanEng6mo	Gate3Eng6mo	13	0	1	0	121	13:36:58	2304346	5	3	3	3	3	3	3	1	3	8	3	0	0	0	0	5	3
120412	13:36:58	10017	DigitSpanEng6mo	Score3Eng6mo	13	DS1	5368	0	121	13:36:58	2316270	5	3	3	3	3	3	3	1	3	8	3	0	0	0	0	5	3
120412	13:36:58	10017	DigitSpanEng6mo	Gate5Eng6mo	13	0	1	0	121	13:36:58	2316274	5	3	3	3	3	3	3	1	3	8	4	0	0	0	0	5	3
120412	13:36:58	10017	DigitSpanEng6mo	Score4Eng6mo	13	DS1	12472	0	121	13:36:58	2336502	5	3	3	3	3	3	3	1	3	8	4	0	0	0	0	5	3
120412	13:36:58	10017	DigitSpanEng6mo	Gate7Eng6mo	13	0	1	0	121	13:36:58	2336506	5	3	3	3	3	3	3	1	3	8	5	0	0	0	0	5	3
120412	13:36:58	10017	DigitSpanEng6mo	Score5Eng6mo	13	DS1	13576	0	121	13:36:58	2359279	5	3	3	3	3	3	3	1	3	8	5	0	0	0	0	5	3
120412	13:36:58	10017	DigitSpanEng6mo	Gate9Eng6mo	13	0	1	0	121	13:36:58	2359285	5	3	3	3	3	3	3	1	3	8	6	0	0	0	0	5	3
120412	13:36:58	10017	DigitSpanEng6mo	Score6Eng6mo	13	DS2	15290	0	121	13:36:58	2386508	5	3	3	3	3	3	3	1	3	8	6	0	0	0	0	5	3
120412	13:36:58	10017	DigitSpanEng6mo	Gate11Eng6mo	13	0	1	0	121	13:36:58	2386512	5	3	3	3	3	3	3	1	3	8	6	0	0	0	0	5	3
120412	13:36:58	10017	DigitSpanEng6mo	Score66Eng6mo	13	DS2	13451	0	121	13:36:58	2410738	5	3	3	3	3	3	3	1	3	8	6	0	0	0	0	5	3
120412	13:36:58	10017	Trial	ResponseIL	14	0	175	0	121	13:36:58	2466409	5	3	3	3	3	3	3	1	3	8	6	0	0	0	0	5	3
120412	13:36:58	10017	Trial	IncongruentLeft	14	203	630	1	121	13:36:58	2467062	5	3	3	3	3	3	3	1	3	8	6	0	0	0	0	5	3
120412	13:36:58	10017	Trial	ResponseCR	14	0	175	0	121	13:36:58	2468115	5	3	3	3	3	3	3	1	3	8	6	0	0	0	0	5	3
120412	13:36:58	10017	Trial	CongruentRight	14	205	383	1	121	13:36:58	2468515	5	3	3	3	3	3	3	1	3	8	6	0	0	0	0	5	3
120412	13:36:58	10017	Trial	ResponseIR	14	0	175	0	121	13:36:58	2469821	5	3	3	3	3	3	3	1	3	8	6	0	0	0	0	5	3
120412	13:36:58	10017	Trial	IncongruentRight	14	205	373	1	121	13:36:58	2470221	5	3	3	3	3	3	3	1	3	8	6	0	0	0	0	5	3
120412	13:36:58	10017	Trial	ResponseCL	14	0	175	0	121	13:36:58	2471527	5	3	3	3	3	3	3	1	3	8	6	0	0	0	0	5	3
120412	13:36:58	10017	Trial	CongruentLeft	14	203	331	1	121	13:36:58	2471887	5	3	3	3	3	3	3	1	3	8	6	0	0	0	0	5	3
120412	13:36:58	10017	Trial	ResponseCR	14	0	175	0	121	13:36:58	2473233	5	3	3	3	3	3	3	1	3	8	6	0	0	0	0	5	3
120412	13:36:58	10017	Trial	CongruentRight	14	205	401	1	121	13:36:58	2473660	5	3	3	3	3	3	3	1	3	8	6	0	0	0	0	5	3
120412	13:36:58	10017	Trial	ResponseIR	14	0	175	0	121	13:36:58	2474939	5	3	3	3	3	3	3	1	3	8	6	0	0	0	0	5	3
120412	13:36:58	10017	Trial	IncongruentRight	14	205	343	1	121	13:36:58	2475299	5	3	3	3	3	3	3	1	3	8	6	0	0	0	0	5	3
120412	13:36:58	10017	Trial	ResponseCL	14	0	175	0	121	13:36:58	2476645	5	3	3	3	3	3	3	1	3	8	6	0	0	0	0	5	3
120412	13:36:58	10017	Trial	CongruentLeft	14	203	237	1	121	13:36:58	2476898	5	3	3	3	3	3	3	1	3	8	6	0	0	0	0	5	3
120412	13:36:58	10017	Trial	ResponseIL	14	0	175	0	121	13:36:58	2478351	5	3	3	3	3	3	3	1	3	8	6	0	0	0	0	5	3
120412	13:36:58	10017	Trial	IncongruentLeft	14	203	387	1	121	13:36:58	2478764	5	3	3	3	3	3	3	1	3	8	6	0	0	0	0	5	3
120412	13:36:58	10017	Trial	ResponseIL	14	0	175	0	121	13:36:58	2480057	5	3	3	3	3	3	3	1	3	8	6	0	0	0	0	5	3
120412	13:36:58	10017	Trial	IncongruentLeft	14	203	313	1	121	13:36:58	2480390	5	3	3	3	3	3	3	1	3	8	6	0	0	0	0	5	3
120412	13:36:58	10017	Trial	ResponseCR	14	0	175	0	121	13:36:58	2481763	5	3	3	3	3	3	3	1	3	8	6	0	0	0	0	5	3
120412	13:36:58	10017	Trial	CongruentRight	14	205	255	1	121	13:36:58	2482043	5	3	3	3	3	3	3	1	3	8	6	0	0	0	0	5	3
120412	13:36:58	10017	Trial	ResponseIR	14	0	175	0	121	13:36:58	2483469	5	3	3	3	3	3	3	1	3	8	6	0	0	0	0	5	3
120412	13:36:58	10017	Trial	IncongruentRight	14	205	293	1	121	13:36:58	2483789	5	3	3	3	3	3	3	1	3	8	6	0	0	0	0	5	3
120412	13:36:58	10017	Trial	ResponseCL	14	0	175	0	121	13:36:58	2485175	5	3	3	3	3	3	3	1	3	8	6	0	0	0	0	5	3
120412	13:36:58	10017	Trial	CongruentLeft	14	203	235	1	121	13:36:58	2485428	5	3	3	3	3	3	3	1	3	8	6	0	0	0	0	5	3
120412	13:36:58	10017	Trial	ResponseCR	14	0	175	0	121	13:36:58	2486881	5	3	3	3	3	3	3	1	3	8	6	0	0	0	0	5	3
120412	13:36:58	10017	Trial	CongruentRight	14	205	273	1	121	13:36:58	2487174	5	3	3	3	3	3	3	1	3	8	6	0	0	0	0	5	3
120412	13:36:58	10017	Trial	ResponseIL	14	0	175	0	121	13:36:58	2488587	5	3	3	3	3	3	3	1	3	8	6	0	0	0	0	5	3
120412	13:36:58	10017	Trial	IncongruentLeft	14	203	359	1	121	13:36:58	2488973	5	3	3	3	3	3	3	1	3	8	6	0	0	0	0	5	3
120412	13:36:58	10017	Trial	ResponseIR	14	0	175	0	121	13:36:58	2490293	5	3	3	3	3	3	3	1	3	8	6	0	0	0	0	5	3
120412	13:36:58	10017	Trial	IncongruentRight	14	205	892	1	121	13:36:58	2491213	5	3	3	3	3	3	3	1	3	8	6	0	0	0	0	5	3
120412	13:36:58	10017	Trial	ResponseCR	14	0	175	0	121	13:36:58	2491999	5	3	3	3	3	3	3	1	3	8	6	0	0	0	0	5	3
120412	13:36:58	10017	Trial	CongruentRight	14	205	354	1	121	13:36:58	2492372	5	3	3	3	3	3	3	1	3	8	6	0	0	0	0	5	3
120412	13:36:58	10017	Trial	ResponseCL	14	0	175	0	121	13:36:58	2493705	5	3	3	3	3	3	3	1	3	8	6	0	0	0	0	5	3
120412	13:36:58	10017	Trial	CongruentLeft	14	203	345	1	121	13:36:58	2494078	5	3	3	3	3	3	3	1	3	8	6	0	0	0	0	5	3
120412	13:36:58	10017	Trial	ResponseCR	14	0	175	0	121	13:36:58	2495411	5	3	3	3	3	3	3	1	3	8	6	0	0	0	0	5	3
120412	13:36:58	10017	Trial	CongruentRight	14	205	270	1	121	13:36:58	2495704	5	3	3	3	3	3	3	1	3	8	6	0	0	0	0	5	3
120412	13:36:58	10017	Trial	ResponseIR	14	0	175	0	121	13:36:58	2497117	5	3	3	3	3	3	3	1	3	8	6	0	0	0	0	5	3
120412	13:36:58	10017	Trial	IncongruentRight	14	205	374	1	121	13:36:58	2497517	5	3	3	3	3	3	3	1	3	8	6	0	0	0	0	5	3
120412	13:36:58	10017	Trial	ResponseIL	14	0	175	0	121	13:36:58	2498823	5	3	3	3	3	3	3	1	3	8	6	0	0	0	0	5	3
120412	13:36:58	10017	Trial	IncongruentLeft	14	203	234	1	121	13:36:58	2499076	5	3	3	3	3	3	3	1	3	8	6	0	0	0	0	5	3
120412	13:36:58	10017	Trial	ResponseIL	14	0	175	0	121	13:36:58	2500529	5	3	3	3	3	3	3	1	3	8	6	0	0	0	0	5	3
120412	13:36:58	10017	Trial	IncongruentLeft	14	203	209	1	121	13:36:58	2500755	5	3	3	3	3	3	3	1	3	8	6	0	0	0	0	5	3
120412	13:36:58	10017	Trial	ResponseCL	14	0	175	0	121	13:36:58	2502235	5	3	3	3	3	3	3	1	3	8	6	0	0	0	0	5	3
120412	13:36:58	10017	Trial	CongruentLeft	14	203	214	1	121	13:36:58	2502475	5	3	3	3	3	3	3	1	3	8	6	0	0	0	0	5	3
120412	13:36:58	10017	Trial	ResponseCR	14	0	175	0	121	13:36:58	2503941	5	3	3	3	3	3	3	1	3	8	6	0	0	0	0	5	3
120412	13:36:58	10017	Trial	CongruentRight	14	205	204	1	121	13:36:58	2504167	5	3	3	3	3	3	3	1	3	8	6	0	0	0	0	5	3
120412	13:36:58	10017	Trial	ResponseIL	14	0	175	0	121	13:36:58	2505647	5	3	3	3	3	3	3	1	3	8	6	0	0	0	0	5	3
120412	13:36:58	10017	Trial	IncongruentLeft	14	203	257	1	121	13:36:58	2505927	5	3	3	3	3	3	3	1	3	8	6	0	0	0	0	5	3
120412	13:36:58	10017	Trial	ResponseIR	14	0	175	0	121	13:36:58	2507353	5	3	3	3	3	3	3	1	3	8	6	0	0	0	0	5	3
120412	13:36:58	10017	Trial	IncongruentRight	14	205	216	1	121	13:36:58	2507592	5	3	3	3	3	3	3	1	3	8	6	0	0	0	0	5	3
120412	13:36:58	10017	Trial	ResponseCR	14	0	175	0	121	13:36:58	2509059	5	3	3	3	3	3	3	1	3	8	6	0	0	0	0	5	3
120412	13:36:58	10017	Trial	CongruentRight	14	205	318	1	121	13:36:58	2509405	5	3	3	3	3	3	3	1	3	8	6	0	0	0	0	5	3
120412	13:36:58	10017	Trial	ResponseCL	14	0	175	0	121	13:36:58	2510765	5	3	3	3	3	3	3	1	3	8	6	0	0	0	0	5	3
120412	13:36:58	10017	Trial	CongruentLeft	14	203	260	1	121	13:36:58	2511044	5	3	3	3	3	3	3	1	3	8	6	0	0	0	0	5	3
120412	13:36:58	10017	Trial	ResponseIR	14	0	175	0	121	13:36:58	2512471	5	3	3	3	3	3	3	1	3	8	6	0	0	0	0	5	3
120412	13:36:58	10017	Trial	IncongruentRight	14	205	346	1	121	13:36:58	2512844	5	3	3	3	3	3	3	1	3	8	6	0	0	0	0	5	3
120412	13:36:58	10017	Trial	ResponseIL	14	0	175	0	121	13:36:58	2514177	5	3	3	3	3	3	3	1	3	8	6	0	0	0	0	5	3
120412	13:36:58	10017	Trial	IncongruentLeft	14	203	304	1	121	13:36:58	2514510	5	3	3	3	3	3	3	1	3	8	6	0	0	0	0	5	3
120412	13:36:58	10017	Trial	ResponseIR	14	0	175	0	121	13:36:58	2515882	5	3	3	3	3	3	3	1	3	8	6	0	0	0	0	5	3
120412	13:36:58	10017	Trial	IncongruentRight	14	205	278	1	121	13:36:58	2516189	5	3	3	3	3	3	3	1	3	8	6	0	0	0	0	5	3
120412	13:36:58	10017	Trial	ResponseCR	14	0	175	0	121	13:36:58	2517588	5	3	3	3	3	3	3	1	3	8	6	0	0	0	0	5	3
120412	13:36:58	10017	Trial	CongruentRight	14	205	396	1	121	13:36:58	2518001	5	3	3	3	3	3	3	1	3	8	6	0	0	0	0	5	3
120412	13:36:58	10017	Trial	ResponseIL	14	0	175	0	121	13:36:58	2519294	5	3	3	3	3	3	3	1	3	8	6	0	0	0	0	5	3
120412	13:36:58	10017	Trial	IncongruentLeft	14	203	386	1	121	13:36:58	2519707	5	3	3	3	3	3	3	1	3	8	6	0	0	0	0	5	3
120412	13:36:58	10017	Trial	ResponseCL	14	0	175	0	121	13:36:58	2521000	5	3	3	3	3	3	3	1	3	8	6	0	0	0	0	5	3
120412	13:36:58	10017	Trial	CongruentLeft	14	203	392	1	121	13:36:58	2521413	5	3	3	3	3	3	3	1	3	8	6	0	0	0	0	5	3
120412	13:36:58	10017	Trial	ResponseCR	14	0	175	0	121	13:36:58	2522706	5	3	3	3	3	3	3	1	3	8	6	0	0	0	0	5	3
120412	13:36:58	10017	Trial	CongruentRight	14	205	366	1	121	13:36:58	2523093	5	3	3	3	3	3	3	1	3	8	6	0	0	0	0	5	3
120412	13:36:58	10017	Trial	ResponseIL	14	0	175	0	121	13:36:58	2524413	5	3	3	3	3	3	3	1	3	8	6	0	0	0	0	5	3
120412	13:36:58	10017	Trial	IncongruentLeft	14	203	388	1	121	13:36:58	2524826	5	3	3	3	3	3	3	1	3	8	6	0	0	0	0	5	3
120412	13:36:58	10017	Trial	ResponseIR	14	0	175	0	121	13:36:58	2526118	5	3	3	3	3	3	3	1	3	8	6	0	0	0	0	5	3
120412	13:36:58	10017	Trial	IncongruentRight	14	205	330	1	121	13:36:58	2526465	5	3	3	3	3	3	3	1	3	8	6	0	0	0	0	5	3
120412	13:36:58	10017	Trial	ResponseIR	14	0	175	0	121	13:36:58	2527824	5	3	3	3	3	3	3	1	3	8	6	0	0	0	0	5	3
120412	13:36:58	10017	Trial	IncongruentRight	14	205	400	1	121	13:36:58	2528251	5	3	3	3	3	3	3	1	3	8	6	0	0	0	0	5	3
120412	13:36:58	10017	Trial	ResponseCL	14	0	175	0	121	13:36:58	2529530	5	3	3	3	3	3	3	1	3	8	6	0	0	0	0	5	3
120412	13:36:58	10017	Trial	CongruentLeft	14	203	230	1	121	13:36:58	2529784	5	3	3	3	3	3	3	1	3	8	6	0	0	0	0	5	3
120412	13:36:58	10017	Trial	ResponseIL	14	0	175	0	121	13:36:58	2531236	5	3	3	3	3	3	3	1	3	8	6	0	0	0	0	5	3
120412	13:36:58	10017	Trial	IncongruentLeft	14	203	284	1	121	13:36:58	2531543	5	3	3	3	3	3	3	1	3	8	6	0	0	0	0	5	3
120412	13:36:58	10017	Trial	ResponseCR	14	0	175	0	121	13:36:58	2532942	5	3	3	3	3	3	3	1	3	8	6	0	0	0	0	5	3
120412	13:36:58	10017	Trial	CongruentRight	14	205	258	1	121	13:36:58	2533222	5	3	3	3	3	3	3	1	3	8	6	0	0	0	0	5	3
120412	13:36:58	10017	Trial	ResponseCL	14	0	175	0	121	13:36:58	2534648	5	3	3	3	3	3	3	1	3	8	6	0	0	0	0	5	3
120412	13:36:58	10017	Trial	CongruentLeft	14	203	296	1	121	13:36:58	2534968	5	3	3	3	3	3	3	1	3	8	6	0	0	0	0	5	3
120412	13:36:58	10017	Trial	ResponseIR	14	0	175	0	121	13:36:58	2536354	5	3	3	3	3	3	3	1	3	8	6	0	0	0	0	5	3
120412	13:36:58	10017	Trial	IncongruentRight	14	205	286	1	121	13:36:58	2536661	5	3	3	3	3	3	3	1	3	8	6	0	0	0	0	5	3
120412	13:36:58	10017	Trial	ResponseCR	14	0	175	0	121	13:36:58	2538060	5	3	3	3	3	3	3	1	3	8	6	0	0	0	0	5	3
120412	13:36:58	10017	Trial	CongruentRight	14	205	388	1	121	13:36:58	2538474	5	3	3	3	3	3	3	1	3	8	6	0	0	0	0	5	3
120412	13:36:58	10017	Trial	ResponseIL	14	0	175	0	121	13:36:58	2539766	5	3	3	3	3	3	3	1	3	8	6	0	0	0	0	5	3
120412	13:36:58	10017	Trial	IncongruentLeft	14	203	362	1	121	13:36:58	2540153	5	3	3	3	3	3	3	1	3	8	6	0	0	0	0	5	3
120412	13:36:58	10017	Trial	ResponseCL	14	0	175	0	121	13:36:58	2541472	5	3	3	3	3	3	3	1	3	8	6	0	0	0	0	5	3
120412	13:36:58	10017	Trial	CongruentLeft	14	203	256	1	121	13:36:58	2541752	5	3	3	3	3	3	3	1	3	8	6	0	0	0	0	5	3
120412	13:36:58	10017	Trial	ResponseIL	14	0	175	0	121	13:36:58	2543178	5	3	3	3	3	3	3	1	3	8	6	0	0	0	0	5	3
120412	13:36:58	10017	Trial	IncongruentLeft	14	203	342	1	121	13:36:58	2543538	5	3	3	3	3	3	3	1	3	8	6	0	0	0	0	5	3
120412	13:36:58	10017	Trial	ResponseIR	14	0	175	0	121	13:36:58	2544884	5	3	3	3	3	3	3	1	3	8	6	0	0	0	0	5	3
120412	13:36:58	10017	Trial	IncongruentRight	14	205	283	1	121	13:36:58	2545191	5	3	3	3	3	3	3	1	3	8	6	0	0	0	0	5	3
120412	13:36:58	10017	Trial	ResponseCR	14	0	175	0	121	13:36:58	2546590	5	3	3	3	3	3	3	1	3	8	6	0	0	0	0	5	3
120412	13:36:58	10017	Trial	CongruentRight	14	205	272	1	121	13:36:58	2546883	5	3	3	3	3	3	3	1	3	8	6	0	0	0	0	5	3
120412	13:36:58	10017	Trial	ResponseCL	14	0	175	0	121	13:36:58	2548296	5	3	3	3	3	3	3	1	3	8	6	0	0	0	0	5	3
120412	13:36:58	10017	Trial	CongruentLeft	14	203	216	1	121	13:36:58	2548536	5	3	3	3	3	3	3	1	3	8	6	0	0	0	0	5	3
120412	13:36:58	10017	Trial	ResponseCL	14	0	175	0	121	13:36:58	2550002	5	3	3	3	3	3	3	1	3	8	6	0	0	0	0	5	3
120412	13:36:58	10017	Trial	CongruentLeft	14	203	286	1	121	13:36:58	2550309	5	3	3	3	3	3	3	1	3	8	6	0	0	0	0	5	3
120412	13:36:58	10017	Trial	ResponseIR	14	0	175	0	121	13:36:58	2551708	5	3	3	3	3	3	3	1	3	8	6	0	0	0	0	5	3
120412	13:36:58	10017	Trial	IncongruentRight	14	205	324	1	121	13:36:58	2552055	5	3	3	3	3	3	3	1	3	8	6	0	0	0	0	5	3
120412	13:36:58	10017	Trial	ResponseIL	14	0	175	0	121	13:36:58	2553414	5	3	3	3	3	3	3	1	3	8	6	0	0	0	0	5	3
120412	13:36:58	10017	Trial	IncongruentLeft	14	203	314	1	121	13:36:58	2553747	5	3	3	3	3	3	3	1	3	8	6	0	0	0	0	5	3
120412	13:36:58	10017	Trial	ResponseIR	14	0	175	0	121	13:36:58	2555120	5	3	3	3	3	3	3	1	3	8	6	0	0	0	0	5	3
120412	13:36:58	10017	Trial	IncongruentRight	14	205	272	1	121	13:36:58	2555413	5	3	3	3	3	3	3	1	3	8	6	0	0	0	0	5	3
120412	13:36:58	10017	Trial	ResponseCR	14	0	175	0	121	13:36:58	2556826	5	3	3	3	3	3	3	1	3	8	6	0	0	0	0	5	3
120412	13:36:58	10017	Trial	CongruentRight	14	205	342	1	121	13:36:58	2557186	5	3	3	3	3	3	3	1	3	8	6	0	0	0	0	5	3
120412	13:36:58	10017	Trial	ResponseCR	14	0	175	0	121	13:36:58	2558532	5	3	3	3	3	3	3	1	3	8	6	0	0	0	0	5	3
120412	13:36:58	10017	Trial	CongruentRight	14	205	300	1	121	13:36:58	2558852	5	3	3	3	3	3	3	1	3	8	6	0	0	0	0	5	3
120412	13:36:58	10017	Trial	ResponseIL	14	0	175	0	121	13:36:58	2560238	5	3	3	3	3	3	3	1	3	8	6	0	0	0	0	5	3
120412	13:36:58	10017	Trial	IncongruentLeft	14	203	322	1	121	13:36:58	2560584	5	3	3	3	3	3	3	1	3	8	6	0	0	0	0	5	3
120412	13:36:58	10017	Trial	ResponseCL	14	0	175	0	121	13:36:58	2561944	5	3	3	3	3	3	3	1	3	8	6	0	0	0	0	5	3
120412	13:36:58	10017	Trial	CongruentLeft	14	203	296	1	121	13:36:58	2562264	5	3	3	3	3	3	3	1	3	8	6	0	0	0	0	5	3
120412	13:36:58	10017	Trial	ResponseCR	14	0	175	0	121	13:36:58	2563650	5	3	3	3	3	3	3	1	3	8	6	0	0	0	0	5	3
120412	13:36:58	10017	Trial	CongruentRight	14	205	286	1	121	13:36:58	2563956	5	3	3	3	3	3	3	1	3	8	6	0	0	0	0	5	3
120412	13:36:58	10017	Trial	ResponseCL	14	0	175	0	121	13:36:58	2565356	5	3	3	3	3	3	3	1	3	8	6	0	0	0	0	5	3
120412	13:36:58	10017	Trial	CongruentLeft	14	203	388	1	121	13:36:58	2565769	5	3	3	3	3	3	3	1	3	8	6	0	0	0	0	5	3
120412	13:36:58	10017	Trial	ResponseIR	14	0	175	0	121	13:36:58	2567062	5	3	3	3	3	3	3	1	3	8	6	0	0	0	0	5	3
120412	13:36:58	10017	Trial	IncongruentRight	14	205	458	1	121	13:36:58	2567542	5	3	3	3	3	3	3	1	3	8	6	0	0	0	0	5	3
120412	13:36:58	10017	Trial	ResponseCR	14	0	175	0	121	13:36:58	2568768	5	3	3	3	3	3	3	1	3	8	6	0	0	0	0	5	3
120412	13:36:58	10017	Trial	CongruentRight	14	205	272	1	121	13:36:58	2569061	5	3	3	3	3	3	3	1	3	8	6	0	0	0	0	5	3
120412	13:36:58	10017	Trial	ResponseCL	14	0	175	0	121	13:36:58	2570474	5	3	3	3	3	3	3	1	3	8	6	0	0	0	0	5	3
120412	13:36:58	10017	Trial	CongruentLeft	14	203	310	1	121	13:36:58	2570807	5	3	3	3	3	3	3	1	3	8	6	0	0	0	0	5	3
120412	13:36:58	10017	Trial	ResponseIL	14	0	175	0	121	13:36:58	2572180	5	3	3	3	3	3	3	1	3	8	6	0	0	0	0	5	3
120412	13:36:58	10017	Trial	IncongruentLeft	14	203	332	1	121	13:36:58	2572540	5	3	3	3	3	3	3	1	3	8	6	0	0	0	0	5	3
120412	13:36:58	10017	Trial	ResponseIL	14	0	175	0	121	13:36:58	2573886	5	3	3	3	3	3	3	1	3	8	6	0	0	0	0	5	3
120412	13:36:58	10017	Trial	IncongruentLeft	14	203	338	1	121	13:36:58	2574246	5	3	3	3	3	3	3	1	3	8	6	0	0	0	0	5	3
120412	13:36:58	10017	Trial	ResponseCR	14	0	175	0	121	13:36:58	2575592	5	3	3	3	3	3	3	1	3	8	6	0	0	0	0	5	3
120412	13:36:58	10017	Trial	CongruentRight	14	205	327	1	121	13:36:58	2575938	5	3	3	3	3	3	3	1	3	8	6	0	0	0	0	5	3
120412	13:36:58	10017	Trial	ResponseIR	14	0	175	0	121	13:36:58	2577298	5	3	3	3	3	3	3	1	3	8	6	0	0	0	0	5	3
120412	13:36:58	10017	Trial	IncongruentRight	14	205	334	1	121	13:36:58	2577658	5	3	3	3	3	3	3	1	3	8	6	0	0	0	0	5	3
120412	13:36:58	10017	Trial	ResponseCL	14	0	175	0	121	13:36:58	2579004	5	3	3	3	3	3	3	1	3	8	6	0	0	0	0	5	3
120412	13:36:58	10017	Trial	CongruentLeft	14	203	324	1	121	13:36:58	2579350	5	3	3	3	3	3	3	1	3	8	6	0	0	0	0	5	3
120412	13:36:58	10017	Trial	ResponseIR	14	0	175	0	121	13:36:58	2580710	5	3	3	3	3	3	3	1	3	8	6	0	0	0	0	5	3
120412	13:36:58	10017	Trial	IncongruentRight	14	205	313	1	121	13:36:58	2581043	5	3	3	3	3	3	3	1	3	8	6	0	0	0	0	5	3
120412	13:36:58	10017	Trial	ResponseCR	14	0	175	0	121	13:36:58	2582416	5	3	3	3	3	3	3	1	3	8	6	0	0	0	0	5	3
120412	13:36:58	10017	Trial	CongruentRight	14	205	255	1	121	13:36:58	2582696	5	3	3	3	3	3	3	1	3	8	6	0	0	0	0	5	3
120412	13:36:58	10017	Trial	ResponseIL	14	0	175	0	121	13:36:58	2584122	5	3	3	3	3	3	3	1	3	8	6	0	0	0	0	5	3
120412	13:36:58	10017	Trial	IncongruentLeft	14	203	357	1	121	13:36:58	2584508	5	3	3	3	3	3	3	1	3	8	6	0	0	0	0	5	3
120412	13:36:58	10017	Trial	ResponseCL	14	0	175	0	121	13:36:58	2585828	5	3	3	3	3	3	3	1	3	8	6	0	0	0	0	5	3
120412	13:36:58	10017	Trial	CongruentLeft	14	203	379	1	121	13:36:58	2586227	5	3	3	3	3	3	3	1	3	8	6	0	0	0	0	5	3
120412	13:36:58	10017	Trial	ResponseCR	14	0	175	0	121	13:36:58	2587534	5	3	3	3	3	3	3	1	3	8	6	0	0	0	0	5	3
120412	13:36:58	10017	Trial	CongruentRight	14	205	225	1	121	13:36:58	2587787	5	3	3	3	3	3	3	1	3	8	6	0	0	0	0	5	3
120412	13:36:58	10017	Trial	ResponseIL	14	0	175	0	121	13:36:58	2589240	5	3	3	3	3	3	3	1	3	8	6	0	0	0	0	5	3
120412	13:36:58	10017	Trial	IncongruentLeft	14	203	328	1	121	13:36:58	2589586	5	3	3	3	3	3	3	1	3	8	6	0	0	0	0	5	3
120412	13:36:58	10017	Trial	ResponseCR	14	0	175	0	121	13:36:58	2590945	5	3	3	3	3	3	3	1	3	8	6	0	0	0	0	5	3
120412	13:36:58	10017	Trial	CongruentRight	14	205	334	1	121	13:36:58	2591305	5	3	3	3	3	3	3	1	3	8	6	0	0	0	0	5	3
120412	13:36:58	10017	Trial	ResponseCR	14	0	175	0	121	13:36:58	2592652	5	3	3	3	3	3	3	1	3	8	6	0	0	0	0	5	3
120412	13:36:58	10017	Trial	CongruentRight	14	205	292	1	121	13:36:58	2592972	5	3	3	3	3	3	3	1	3	8	6	0	0	0	0	5	3
120412	13:36:58	10017	Trial	ResponseIR	14	0	175	0	121	13:36:58	2594358	5	3	3	3	3	3	3	1	3	8	6	0	0	0	0	5	3
120412	13:36:58	10017	Trial	IncongruentRight	14	205	361	1	121	13:36:58	2594744	5	3	3	3	3	3	3	1	3	8	6	0	0	0	0	5	3
120412	13:36:58	10017	Trial	ResponseCL	14	0	175	0	121	13:36:58	2596064	5	3	3	3	3	3	3	1	3	8	6	0	0	0	0	5	3
120412	13:36:58	10017	Trial	CongruentLeft	14	203	367	1	121	13:36:58	2596450	5	3	3	3	3	3	3	1	3	8	6	0	0	0	0	5	3
120412	13:36:58	10017	Trial	ResponseIL	14	0	175	0	121	13:36:58	2597770	5	3	3	3	3	3	3	1	3	8	6	0	0	0	0	5	3
120412	13:36:58	10017	Trial	IncongruentLeft	14	203	277	1	121	13:36:58	2598076	5	3	3	3	3	3	3	1	3	8	6	0	0	0	0	5	3
120412	13:36:58	10017	Trial	ResponseCL	14	0	175	0	121	13:36:58	2599476	5	3	3	3	3	3	3	1	3	8	6	0	0	0	0	5	3
120412	13:36:58	10017	Trial	CongruentLeft	14	203	268	1	121	13:36:58	2599769	5	3	3	3	3	3	3	1	3	8	6	0	0	0	0	5	3
120412	13:36:58	10017	Trial	ResponseIR	14	0	175	0	121	13:36:58	2601181	5	3	3	3	3	3	3	1	3	8	6	0	0	0	0	5	3
120412	13:36:58	10017	Trial	IncongruentRight	14	205	322	1	121	13:36:58	2601528	5	3	3	3	3	3	3	1	3	8	6	0	0	0	0	5	3
120412	13:36:58	10017	Trial	ResponseIL	14	0	175	0	121	13:36:58	2602887	5	3	3	3	3	3	3	1	3	8	6	0	0	0	0	5	3
120412	13:36:58	10017	Trial	IncongruentLeft	14	203	392	1	121	13:36:58	2603300	5	3	3	3	3	3	3	1	3	8	6	0	0	0	0	5	3
120412	13:36:58	10017	Trial	ResponseCR	14	0	175	0	121	13:36:58	2604593	5	3	3	3	3	3	3	1	3	8	6	0	0	0	0	5	3
120412	13:36:58	10017	Trial	CongruentRight	14	205	301	1	121	13:36:58	2604913	5	3	3	3	3	3	3	1	3	8	6	0	0	0	0	5	3
120412	13:36:58	10017	Trial	ResponseCL	14	0	175	0	121	13:36:58	2606299	5	3	3	3	3	3	3	1	3	8	6	0	0	0	0	5	3
120412	13:36:58	10017	Trial	CongruentLeft	14	203	211	1	121	13:36:58	2606539	5	3	3	3	3	3	3	1	3	8	6	0	0	0	0	5	3
120412	13:36:58	10017	Trial	ResponseIL	14	0	175	0	121	13:36:58	2608005	5	3	3	3	3	3	3	1	3	8	6	0	0	0	0	5	3
120412	13:36:58	10017	Trial	IncongruentLeft	14	203	329	1	121	13:36:58	2608352	5	3	3	3	3	3	3	1	3	8	6	0	0	0	0	5	3
120412	13:36:58	10017	Trial	ResponseCL	14	0	175	0	121	13:36:58	2609712	5	3	3	3	3	3	3	1	3	8	6	0	0	0	0	5	3
120412	13:36:58	10017	Trial	CongruentLeft	14	203	271	1	121	13:36:58	2610005	5	3	3	3	3	3	3	1	3	8	6	0	0	0	0	5	3
120412	13:36:58	10017	Trial	ResponseIR	14	0	175	0	121	13:36:58	2611417	5	3	3	3	3	3	3	1	3	8	6	0	0	0	0	5	3
120412	13:36:58	10017	Trial	IncongruentRight	14	205	309	1	121	13:36:58	2611751	5	3	3	3	3	3	3	1	3	8	6	0	0	0	0	5	3
120412	13:36:58	10017	Trial	ResponseCR	14	0	175	0	121	13:36:58	2613123	5	3	3	3	3	3	3	1	3	8	6	0	0	0	0	5	3
120412	13:36:58	10017	Trial	CongruentRight	14	205	299	1	121	13:36:58	2613443	5	3	3	3	3	3	3	1	3	8	6	0	0	0	0	5	3
120412	13:36:58	10017	Trial	ResponseIL	14	0	175	0	121	13:36:58	2614829	5	3	3	3	3	3	3	1	3	8	6	0	0	0	0	5	3
120412	13:36:58	10017	Trial	IncongruentLeft	14	203	193	1	121	13:36:58	2615043	5	3	3	3	3	3	3	1	3	8	6	0	0	0	0	5	3
120412	13:36:58	10017	Trial	ResponseCL	14	0	175	0	121	13:36:58	2616535	5	3	3	3	3	3	3	1	3	8	6	0	0	0	0	5	3
120412	13:36:58	10017	Trial	CongruentLeft	14	203	279	1	121	13:36:58	2616842	5	3	3	3	3	3	3	1	3	8	6	0	0	0	0	5	3
120412	13:36:58	10017	Trial	ResponseIR	14	0	175	0	121	13:36:58	2618241	5	3	3	3	3	3	3	1	3	8	6	0	0	0	0	5	3
120412	13:36:58	10017	Trial	IncongruentRight	14	205	285	1	121	13:36:58	2618548	5	3	3	3	3	3	3	1	3	8	6	0	0	0	0	5	3
120412	13:36:58	10017	Trial	ResponseIL	14	0	175	0	121	13:36:58	2619947	5	3	3	3	3	3	3	1	3	8	6	0	0	0	0	5	3
120412	13:36:58	10017	Trial	IncongruentLeft	14	203	355	1	121	13:36:58	2620320	5	3	3	3	3	3	3	1	3	8	6	0	0	0	0	5	3
120412	13:36:58	10017	Trial	ResponseCL	14	0	175	0	121	13:36:58	2621653	5	3	3	3	3	3	3	1	3	8	6	0	0	0	0	5	3
120412	13:36:58	10017	Trial	CongruentLeft	14	203	329	1	121	13:36:58	2622000	5	3	3	3	3	3	3	1	3	8	6	0	0	0	0	5	3
120412	13:36:58	10017	Trial	ResponseIL	14	0	175	0	121	13:36:58	2623359	5	3	3	3	3	3	3	1	3	8	6	0	0	0	0	5	3
120412	13:36:58	10017	Trial	IncongruentLeft	14	203	303	1	121	13:36:58	2623679	5	3	3	3	3	3	3	1	3	8	6	0	0	0	0	5	3
120412	13:36:58	10017	Trial	ResponseCR	14	0	175	0	121	13:36:58	2625065	5	3	3	3	3	3	3	1	3	8	6	0	0	0	0	5	3
120412	13:36:58	10017	Trial	CongruentRight	14	205	293	1	121	13:36:58	2625385	5	3	3	3	3	3	3	1	3	8	6	0	0	0	0	5	3
120412	13:36:58	10017	Trial	ResponseCL	14	0	175	0	121	13:36:58	2626771	5	3	3	3	3	3	3	1	3	8	6	0	0	0	0	5	3
120412	13:36:58	10017	Trial	CongruentLeft	14	203	379	1	121	13:36:58	2627171	5	3	3	3	3	3	3	1	3	8	6	0	0	0	0	5	3
120412	13:36:58	10017	Trial	ResponseIR	14	0	175	0	121	13:36:58	2628477	5	3	3	3	3	3	3	1	3	8	6	0	0	0	0	5	3
120412	13:36:58	10017	Trial	IncongruentRight	14	205	321	1	121	13:36:58	2628824	5	3	3	3	3	3	3	1	3	8	6	0	0	0	0	5	3
120412	13:36:58	10017	Trial	ResponseCL	14	0	175	0	121	13:36:58	2630183	5	3	3	3	3	3	3	1	3	8	6	0	0	0	0	5	3
120412	13:36:58	10017	Trial	CongruentLeft	14	203	327	1	121	13:36:58	2630530	5	3	3	3	3	3	3	1	3	8	6	0	0	0	0	5	3
120412	13:36:58	10017	Trial	ResponseCR	14	0	175	0	121	13:36:58	2631889	5	3	3	3	3	3	3	1	3	8	6	0	0	0	0	5	3
120412	13:36:58	10017	Trial	CongruentRight	14	205	301	1	121	13:36:58	2632209	5	3	3	3	3	3	3	1	3	8	6	0	0	0	0	5	3
120412	13:36:58	10017	Trial	ResponseIL	14	0	175	0	121	13:36:58	2633595	5	3	3	3	3	3	3	1	3	8	6	0	0	0	0	5	3
120412	13:36:58	10017	Trial	IncongruentLeft	14	203	339	1	121	13:36:58	2633955	5	3	3	3	3	3	3	1	3	8	6	0	0	0	0	5	3
120412	13:36:58	10017	WordsAbsEng6mo	PAbsEng6mo1	16	Abs1	3777	0	121	13:36:58	2653147	5	3	3	3	3	3	3	1	3	8	6	0	0	0	0	5	3
120412	13:36:58	10017	WordsAbsEng6mo	AbsEng6mo1	16	Abs1	4405	0	121	13:36:58	2657585	5	3	3	3	3	3	3	1	3	8	6	1	0	0	0	5	3
120412	13:36:58	10017	WordsAbsEng6mo	AbsEng6mo2	16	Abs1	11111	0	121	13:36:58	2668728	5	3	3	3	3	3	3	1	3	8	6	2	0	0	0	5	3
120412	13:36:58	10017	WordsAbsEng6mo	AbsEng6mo3	16	Abs1	9960	0	121	13:36:58	2678723	5	3	3	3	3	3	3	1	3	8	6	3	0	0	0	5	3
120412	13:36:58	10017	Trial2BackEngS	NS	17	0	1000	1	121	13:36:58	2739885	5	3	3	3	3	3	3	1	3	8	6	3	0	0	0	5	3
120412	13:36:58	10017	Trial2BackEngS	NS	17	0	1000	1	121	13:36:58	2741405	5	3	3	3	3	3	3	1	3	8	6	3	0	0	0	5	3
120412	13:36:58	10017	Trial2BackEngS	NS	17	0	1000	1	121	13:36:58	2742911	5	3	3	3	3	3	3	1	3	8	6	3	0	0	0	5	3
120412	13:36:58	10017	Trial2BackEngS	YS	17	57	481	1	121	13:36:58	2743910	5	3	3	3	3	3	3	1	3	8	6	3	0	0	0	5	3
120412	13:36:58	10017	Trial2BackEngS	NS	17	0	1000	1	121	13:36:58	2745923	5	3	3	3	3	3	3	1	3	8	6	3	0	0	0	5	3
120412	13:36:58	10017	Trial2BackEngS	NS	17	0	1000	1	121	13:36:58	2747442	5	3	3	3	3	3	3	1	3	8	6	3	0	0	0	5	3
120412	13:36:58	10017	Trial2BackEngS	NS	17	0	1000	1	121	13:36:58	2748948	5	3	3	3	3	3	3	1	3	8	6	3	0	0	0	5	3
120412	13:36:58	10017	Trial2BackEngS	NS	17	0	1000	1	121	13:36:58	2750454	5	3	3	3	3	3	3	1	3	8	6	3	0	0	0	5	3
120412	13:36:58	10017	Trial2BackEngS	YS	17	57	937	1	121	13:36:58	2751907	5	3	3	3	3	3	3	1	3	8	6	3	0	0	0	5	3
120412	13:36:58	10017	Trial2BackEngS	NS	17	0	1000	1	121	13:36:58	2753467	5	3	3	3	3	3	3	1	3	8	6	3	0	0	0	5	3
120412	13:36:58	10017	Trial2BackEngS	NS	17	0	1000	1	121	13:36:58	2754973	5	3	3	3	3	3	3	1	3	8	6	3	0	0	0	5	3
120412	13:36:58	10017	Trial2BackEngS	YS	17	0	1000	0	121	13:36:58	2756479	5	3	3	3	3	3	3	1	3	8	6	3	0	0	0	5	3
120412	13:36:58	10017	Trial2BackEngS	NS	17	0	1000	1	121	13:36:58	2757985	5	3	3	3	3	3	3	1	3	8	6	3	0	0	0	5	3
120412	13:36:58	10017	Trial2BackEngS	NS	17	0	1000	1	121	13:36:58	2759491	5	3	3	3	3	3	3	1	3	8	6	3	0	0	0	5	3
120412	13:36:58	10017	Trial2BackEngS	NS	17	0	1000	1	121	13:36:58	2760997	5	3	3	3	3	3	3	1	3	8	6	3	0	0	0	5	3
120412	13:36:58	10017	Trial2BackEngS	YS	17	0	1000	0	121	13:36:58	2762503	5	3	3	3	3	3	3	1	3	8	6	3	0	0	0	5	3
120412	13:36:58	10017	Trial2BackEngS	NS	17	0	1000	1	121	13:36:58	2764009	5	3	3	3	3	3	3	1	3	8	6	3	0	0	0	5	3
120412	13:36:58	10017	Trial2BackEngS	NS	17	0	1000	1	121	13:36:58	2765515	5	3	3	3	3	3	3	1	3	8	6	3	0	0	0	5	3
120412	13:36:58	10017	Trial2BackEngS	NS	17	0	1000	1	121	13:36:58	2767021	5	3	3	3	3	3	3	1	3	8	6	3	0	0	0	5	3
120412	13:36:58	10017	Trial2BackEngS	NS	17	0	1000	1	121	13:36:58	2768527	5	3	3	3	3	3	3	1	3	8	6	3	0	0	0	5	3
120412	13:36:58	10017	Trial2BackEngS	YS	17	57	816	1	121	13:36:58	2769860	5	3	3	3	3	3	3	1	3	8	6	3	0	0	0	5	3
120412	13:36:58	10017	Trial2BackEngS	NS	17	0	1000	1	121	13:36:58	2771539	5	3	3	3	3	3	3	1	3	8	6	3	0	0	0	5	3
120412	13:36:58	10017	Trial2BackEngS	NS	17	0	1000	1	121	13:36:58	2773045	5	3	3	3	3	3	3	1	3	8	6	3	0	0	0	5	3
120412	13:36:58	10017	Trial2BackEngS	NS	17	0	1000	1	121	13:36:58	2774551	5	3	3	3	3	3	3	1	3	8	6	3	0	0	0	5	3
120412	13:36:58	10017	Trial2BackEngS	NS	17	0	1000	1	121	13:36:58	2776057	5	3	3	3	3	3	3	1	3	8	6	3	0	0	0	5	3
120412	13:36:58	10017	Trial2BackEngS	NS	17	0	1000	1	121	13:36:58	2777563	5	3	3	3	3	3	3	1	3	8	6	3	0	0	0	5	3
120412	13:36:58	10017	Trial2BackEngS	NS	17	0	1000	1	121	13:36:58	2779069	5	3	3	3	3	3	3	1	3	8	6	3	0	0	0	5	3
120412	13:36:58	10017	Trial2BackEngS	NS	17	0	1000	1	121	13:36:58	2780576	5	3	3	3	3	3	3	1	3	8	6	3	0	0	0	5	3
120412	13:36:58	10017	Trial2BackEngS	NS	17	0	1000	1	121	13:36:58	2782082	5	3	3	3	3	3	3	1	3	8	6	3	0	0	0	5	3
120412	13:36:58	10017	Trial2BackEngS	NS	17	0	1000	1	121	13:36:58	2783601	5	3	3	3	3	3	3	1	3	8	6	3	0	0	0	5	3
120412	13:36:58	10017	Trial2BackEngS	NS	17	0	1000	1	121	13:36:58	2785107	5	3	3	3	3	3	3	1	3	8	6	3	0	0	0	5	3
120412	13:36:58	10017	Trial2BackEngS	YS	17	0	1000	0	121	13:36:58	2786613	5	3	3	3	3	3	3	1	3	8	6	3	0	0	0	5	3
120412	13:36:58	10017	Trial2BackEngS	NS	17	0	1000	1	121	13:36:58	2788119	5	3	3	3	3	3	3	1	3	8	6	3	0	0	0	5	3
120412	13:36:58	10017	Trial2BackEngS	NS	17	0	1000	1	121	13:36:58	2789625	5	3	3	3	3	3	3	1	3	8	6	3	0	0	0	5	3
120412	13:36:58	10017	Trial2BackEngS	NS	17	0	1000	1	121	13:36:58	2791131	5	3	3	3	3	3	3	1	3	8	6	3	0	0	0	5	3
120412	13:36:58	10017	Trial2BackEngS	YS	17	0	1000	0	121	13:36:58	2792637	5	3	3	3	3	3	3	1	3	8	6	3	0	0	0	5	3
120412	13:36:58	10017	Trial2BackEngS	NS	17	0	1000	1	121	13:36:58	2794143	5	3	3	3	3	3	3	1	3	8	6	3	0	0	0	5	3
120412	13:36:58	10017	Trial2BackEngS	NS	17	0	1000	1	121	13:36:58	2795649	5	3	3	3	3	3	3	1	3	8	6	3	0	0	0	5	3
120412	13:36:58	10017	Trial2BackEngS	NS	17	0	1000	1	121	13:36:58	2797155	5	3	3	3	3	3	3	1	3	8	6	3	0	0	0	5	3
120412	13:36:58	10017	Trial2BackEngS	NS	17	0	1000	1	121	13:36:58	2798662	5	3	3	3	3	3	3	1	3	8	6	3	0	0	0	5	3
120412	13:36:58	10017	Trial2BackEngS	NS	17	0	1000	1	121	13:36:58	2800168	5	3	3	3	3	3	3	1	3	8	6	3	0	0	0	5	3
120412	13:36:58	10017	Trial2BackEngS	NS	17	0	1000	1	121	13:36:58	2801673	5	3	3	3	3	3	3	1	3	8	6	3	0	0	0	5	3
120412	13:36:58	10017	Trial2BackEngS	NS	17	0	1000	1	121	13:36:58	2803180	5	3	3	3	3	3	3	1	3	8	6	3	0	0	0	5	3
120412	13:36:58	10017	Trial2BackEngS	YS	17	57	611	1	121	13:36:58	2804299	5	3	3	3	3	3	3	1	3	8	6	3	0	0	0	5	3
120412	13:36:58	10017	Trial2BackEngS	NS	17	0	1000	1	121	13:36:58	2806192	5	3	3	3	3	3	3	1	3	8	6	3	0	0	0	5	3
120412	13:36:58	10017	Trial2BackEngS	NS	17	0	1000	1	121	13:36:58	2807698	5	3	3	3	3	3	3	1	3	8	6	3	0	0	0	5	3
120412	13:36:58	10017	Trial2BackEngS	NS	17	0	1000	1	121	13:36:58	2809204	5	3	3	3	3	3	3	1	3	8	6	3	0	0	0	5	3
120412	13:36:58	10017	Trial2BackEngS	NS	17	0	1000	1	121	13:36:58	2810710	5	3	3	3	3	3	3	1	3	8	6	3	0	0	0	5	3
120412	13:36:58	10017	Trial2BackEngS	YS	17	57	536	1	121	13:36:58	2811763	5	3	3	3	3	3	3	1	3	8	6	3	0	0	0	5	3
120412	13:36:58	10017	Trial2BackEngS	NS	17	0	1000	1	121	13:36:58	2813722	5	3	3	3	3	3	3	1	3	8	6	3	0	0	0	5	3
120412	13:36:58	10017	Trial2BackEngS	NS	17	0	1000	1	121	13:36:58	2815228	5	3	3	3	3	3	3	1	3	8	6	3	0	0	0	5	3
120412	13:36:58	10017	Trial2BackEngS	NS	17	0	1000	1	121	13:36:58	2816734	5	3	3	3	3	3	3	1	3	8	6	3	0	0	0	5	3
120412	13:36:58	10017	Trial2BackEngS	NS	17	0	1000	1	121	13:36:58	2818240	5	3	3	3	3	3	3	1	3	8	6	3	0	0	0	5	3
120412	13:36:58	10017	Trial2BackEngS	NS	17	0	1000	1	121	13:36:58	2819746	5	3	3	3	3	3	3	1	3	8	6	3	0	0	0	5	3
120412	13:36:58	10017	Trial2BackEngS	NS	17	0	1000	1	121	13:36:58	2821252	5	3	3	3	3	3	3	1	3	8	6	3	0	0	0	5	3
120412	13:36:58	10017	Trial2BackEngS	YS	17	0	1000	0	121	13:36:58	2822758	5	3	3	3	3	3	3	1	3	8	6	3	0	0	0	5	3
120412	13:36:58	10017	Trial2BackEngS	NS	17	0	1000	1	121	13:36:58	2824265	5	3	3	3	3	3	3	1	3	8	6	3	0	0	0	5	3
120412	13:36:58	10017	Trial2BackEngS	NS	17	0	1000	1	121	13:36:58	2825784	5	3	3	3	3	3	3	1	3	8	6	3	0	0	0	5	3
120412	13:36:58	10017	Trial2BackEngS	NS	17	0	1000	1	121	13:36:58	2827290	5	3	3	3	3	3	3	1	3	8	6	3	0	0	0	5	3
120412	13:36:58	10017	Trial2BackEngS	NS	17	0	1000	1	121	13:36:58	2828796	5	3	3	3	3	3	3	1	3	8	6	3	0	0	0	5	3
120412	13:36:58	10017	Trial2BackEngS	NS	17	0	1000	1	121	13:36:58	2830302	5	3	3	3	3	3	3	1	3	8	6	3	0	0	0	5	3
120412	13:36:58	10017	Trial2BackEngS	NS	17	0	1000	1	121	13:36:58	2831808	5	3	3	3	3	3	3	1	3	8	6	3	0	0	0	5	3
120412	13:36:58	10017	Trial2BackEngS	NS	17	0	1000	1	121	13:36:58	2833314	5	3	3	3	3	3	3	1	3	8	6	3	0	0	0	5	3
120412	13:36:58	10017	Trial2BackEngS	YS	17	57	828	1	121	13:36:58	2834660	5	3	3	3	3	3	3	1	3	8	6	3	0	0	0	5	3
120412	13:36:58	10017	Trial2BackEngS	NS	17	0	1000	1	121	13:36:58	2836326	5	3	3	3	3	3	3	1	3	8	6	3	0	0	0	5	3
120412	13:36:58	10017	Trial2BackEngS	NS	17	0	1000	1	121	13:36:58	2837846	5	3	3	3	3	3	3	1	3	8	6	3	0	0	0	5	3
120412	13:36:58	10017	Trial2BackEngS	NS	17	0	1000	1	121	13:36:58	2839352	5	3	3	3	3	3	3	1	3	8	6	3	0	0	0	5	3
120412	13:36:58	10017	Trial2BackEngS	NS	17	0	1000	1	121	13:36:58	2840858	5	3	3	3	3	3	3	1	3	8	6	3	0	0	0	5	3
120412	13:36:58	10017	Trial2BackEngS	YS	17	57	756	1	121	13:36:58	2842124	5	3	3	3	3	3	3	1	3	8	6	3	0	0	0	5	3
120412	13:36:58	10017	Trial2BackEngS	NS	17	0	1000	1	121	13:36:58	2843870	5	3	3	3	3	3	3	1	3	8	6	3	0	0	0	5	3
120412	13:36:58	10017	Trial2BackEngS	NS	17	0	1000	1	121	13:36:58	2845376	5	3	3	3	3	3	3	1	3	8	6	3	0	0	0	5	3
120412	13:36:58	10017	Trial2BackEngS	YS	17	0	1000	0	121	13:36:58	2846882	5	3	3	3	3	3	3	1	3	8	6	3	0	0	0	5	3
120412	13:36:58	10017	Trial2BackEngS	NS	17	0	1000	1	121	13:36:58	2848401	5	3	3	3	3	3	3	1	3	8	6	3	0	0	0	5	3
120412	13:36:58	10017	Trial2BackEngS	NS	17	0	1000	1	121	13:36:58	2849907	5	3	3	3	3	3	3	1	3	8	6	3	0	0	0	5	3
120412	13:36:58	10017	Trial2BackEngS	NS	17	0	1000	1	121	13:36:58	2851414	5	3	3	3	3	3	3	1	3	8	6	3	0	0	0	5	3
120412	13:36:58	10017	Trial2BackEngS	NS	17	0	1000	1	121	13:36:58	2852920	5	3	3	3	3	3	3	1	3	8	6	3	0	0	0	5	3
120412	13:36:58	10017	Trial2BackEngS	NS	17	0	1000	1	121	13:36:58	2854426	5	3	3	3	3	3	3	1	3	8	6	3	0	0	0	5	3
120412	13:36:58	10017	Trial2BackEngS	NS	17	0	1000	1	121	13:36:58	2855932	5	3	3	3	3	3	3	1	3	8	6	3	0	0	0	5	3
120412	13:36:58	10017	Trial2BackEngS	YS	17	57	578	1	121	13:36:58	2857024	5	3	3	3	3	3	3	1	3	8	6	3	0	0	0	5	3
120412	13:36:58	10017	Trial2BackEngS	NS	17	0	1000	1	121	13:36:58	2858944	5	3	3	3	3	3	3	1	3	8	6	3	0	0	0	5	3
120412	13:36:58	10017	Trial2BackEngS	NS	17	0	1000	1	121	13:36:58	2860450	5	3	3	3	3	3	3	1	3	8	6	3	0	0	0	5	3
120412	13:36:58	10017	Trial2BackEngS	NS	17	0	1000	1	121	13:36:58	2861956	5	3	3	3	3	3	3	1	3	8	6	3	0	0	0	5	3
120412	13:36:58	10017	Trial2BackEngS	NS	17	0	1000	1	121	13:36:58	2863462	5	3	3	3	3	3	3	1	3	8	6	3	0	0	0	5	3
120412	13:36:58	10017	Trial2BackEngS	YS	17	0	1000	0	121	13:36:58	2864968	5	3	3	3	3	3	3	1	3	8	6	3	0	0	0	5	3
120412	13:36:58	10017	Trial2BackEngS	NS	17	0	1000	1	121	13:36:58	2866474	5	3	3	3	3	3	3	1	3	8	6	3	0	0	0	5	3
120412	13:36:58	10017	Trial2BackEngS	NS	17	0	1000	1	121	13:36:58	2867980	5	3	3	3	3	3	3	1	3	8	6	3	0	0	0	5	3
120412	13:36:58	10017	Trial2BackEngS	NS	17	0	1000	1	121	13:36:58	2869486	5	3	3	3	3	3	3	1	3	8	6	3	0	0	0	5	3
120412	13:36:58	10017	Trial2BackEngS	NS	17	0	1000	1	121	13:36:58	2870992	5	3	3	3	3	3	3	1	3	8	6	3	0	0	0	5	3
120412	13:36:58	10017	Trial2BackEngS	YS	17	0	1000	0	121	13:36:58	2872498	5	3	3	3	3	3	3	1	3	8	6	3	0	0	0	5	3
120412	13:36:58	10017	Trial2BackEngS	NS	17	0	1000	1	121	13:36:58	2874004	5	3	3	3	3	3	3	1	3	8	6	3	0	0	0	5	3
120412	13:36:58	10017	Trial2BackEngS	NS	17	0	1000	1	121	13:36:58	2875510	5	3	3	3	3	3	3	1	3	8	6	3	0	0	0	5	3
120412	13:36:58	10017	Trial2BackEngS	YS	17	57	502	1	121	13:36:58	2876523	5	3	3	3	3	3	3	1	3	8	6	3	0	0	0	5	3
120412	13:36:58	10017	Trial2BackEngS	NS	17	0	1000	1	121	13:36:58	2878523	5	3	3	3	3	3	3	1	3	8	6	3	0	0	0	5	3
120412	13:36:58	10017	Trial2BackEngS	NS	17	0	1000	1	121	13:36:58	2880029	5	3	3	3	3	3	3	1	3	8	6	3	0	0	0	5	3
120412	13:36:58	10017	Trial2BackEngS	NS	17	0	1000	1	121	13:36:58	2881535	5	3	3	3	3	3	3	1	3	8	6	3	0	0	0	5	3
120412	13:36:58	10017	Trial2BackEngS	NS	17	0	1000	1	121	13:36:58	2883041	5	3	3	3	3	3	3	1	3	8	6	3	0	0	0	5	3
120412	13:36:58	10017	Trial2BackEngS	NS	17	0	1000	1	121	13:36:58	2884547	5	3	3	3	3	3	3	1	3	8	6	3	0	0	0	5	3
120412	13:36:58	10017	Trial2BackEngS	NS	17	0	1000	1	121	13:36:58	2886053	5	3	3	3	3	3	3	1	3	8	6	3	0	0	0	5	3
120412	13:36:58	10017	Trial2BackEngS	NS	17	0	1000	1	121	13:36:58	2887559	5	3	3	3	3	3	3	1	3	8	6	3	0	0	0	5	3
120412	13:36:58	10017	Trial2BackEngS	NS	17	0	1000	1	121	13:36:58	2889065	5	3	3	3	3	3	3	1	3	8	6	3	0	0	0	5	3
120412	13:36:58	10017	Trial2BackEngS	YS	17	57	691	1	121	13:36:58	2890264	5	3	3	3	3	3	3	1	3	8	6	3	0	0	0	5	3
120412	13:36:58	10017	Trial2BackEngS	NS	17	0	1000	1	121	13:36:58	2892077	5	3	3	3	3	3	3	1	3	8	6	3	0	0	0	5	3
120412	13:36:58	10017	Trial2BackEngS	NS	17	0	1000	1	121	13:36:58	2893583	5	3	3	3	3	3	3	1	3	8	6	3	0	0	0	5	3
120412	13:36:58	10017	Trial2BackEngS	NS	17	0	1000	1	121	13:36:58	2895089	5	3	3	3	3	3	3	1	3	8	6	3	0	0	0	5	3
120412	13:36:58	10017	Trial2BackEngS	NS	17	0	1000	1	121	13:36:58	2896595	5	3	3	3	3	3	3	1	3	8	6	3	0	0	0	5	3
120412	13:36:58	10017	Trial2BackEngS	NS	17	0	1000	1	121	13:36:58	2898101	5	3	3	3	3	3	3	1	3	8	6	3	0	0	0	5	3
120412	13:36:58	10017	Trial2BackEngS	NS	17	0	1000	1	121	13:36:58	2899621	5	3	3	3	3	3	3	1	3	8	6	3	0	0	0	5	3
120412	13:36:58	10017	Trial2BackEngS	NS	17	0	1000	1	121	13:36:58	2901127	5	3	3	3	3	3	3	1	3	8	6	3	0	0	0	5	3
120412	13:36:58	10017	Trial2BackEngS	YS	17	0	1000	0	121	13:36:58	2902633	5	3	3	3	3	3	3	1	3	8	6	3	0	0	0	5	3
120412	13:36:58	10017	Trial2BackEngS	NS	17	0	1000	1	121	13:36:58	2904139	5	3	3	3	3	3	3	1	3	8	6	3	0	0	0	5	3
120412	13:36:58	10017	Trial2BackEngS	NS	17	0	1000	1	121	13:36:58	2905645	5	3	3	3	3	3	3	1	3	8	6	3	0	0	0	5	3
120412	13:36:58	10017	Trial2BackEngS	NS	17	0	1000	1	121	13:36:58	2907164	5	3	3	3	3	3	3	1	3	8	6	3	0	0	0	5	3
120412	13:36:58	10017	Trial2BackEngS	NS	17	0	1000	1	121	13:36:58	2908670	5	3	3	3	3	3	3	1	3	8	6	3	0	0	0	5	3
120412	13:36:58	10017	Trial2BackEngS	NS	17	0	1000	1	121	13:36:58	2910176	5	3	3	3	3	3	3	1	3	8	6	3	0	0	0	5	3
120412	13:36:58	10017	Trial2BackEngS	NS	17	0	1000	1	121	13:36:58	2911682	5	3	3	3	3	3	3	1	3	8	6	3	0	0	0	5	3
120412	13:36:58	10017	Trial2BackEngS	NS	17	0	1000	1	121	13:36:58	2913188	5	3	3	3	3	3	3	1	3	8	6	3	0	0	0	5	3
120412	13:36:58	10017	Trial2BackEngS	NS	17	0	1000	1	121	13:36:58	2914695	5	3	3	3	3	3	3	1	3	8	6	3	0	0	0	5	3
120412	13:36:58	10017	Trial2BackEngS	NS	17	0	1000	1	121	13:36:58	2916201	5	3	3	3	3	3	3	1	3	8	6	3	0	0	0	5	3
120412	13:36:58	10017	Trial2BackEngS	YS	17	0	1000	0	121	13:36:58	2917707	5	3	3	3	3	3	3	1	3	8	6	3	0	0	0	5	3
120412	13:36:58	10017	Trial2BackEngS	NS	17	0	1000	1	121	13:36:58	2919226	5	3	3	3	3	3	3	1	3	8	6	3	0	0	0	5	3
120412	13:36:58	10017	ClockEng6mo	ClockEng6mo	19	Clock1	38702	0	121	13:36:58	2958050	5	3	3	3	3	3	3	1	3	8	6	3	1	0	0	5	3
120412	13:36:58	10017	ClockEng6mo	ClockEng6mo	19	Clock11	448	0	121	13:36:58	2958543	5	3	3	3	3	3	3	1	3	8	6	3	1	1	0	5	3
120412	13:36:58	10017	ClockEng6mo	ClockEng6mo	19	Clock111	1107	0	121	13:36:58	2959703	5	3	3	3	3	3	3	1	3	8	6	3	1	1	1	5	3
120412	13:36:58	10017	ClockEng6mo	ClockEng6mo	19	Clockdone	436	0	121	13:36:58	2960183	5	3	3	3	3	3	3	1	3	8	6	3	1	1	1	5	3
120412	13:36:58	10017	FASEngVF6mo	StopEngVF6mo	20	20	5811	0	121	13:36:58	3057785	5	3	3	3	3	3	3	1	3	8	6	3	1	1	1	5	3
