date	time	subject	blockcode	trialcode	values.TaskNumber	response	latency	correct	values.Score	script.starttime	script.elapsedtime	values.ScoreS7	values.Word1	values.Word2	values.Word3	values.Word4	values.Word5	values.Word6	values.Word7	values.Word8	values.DigitSpanFwrd	values.DigitSpanBack	values.ScoreAbs	values.Contour	values.Numbers	values.Hands	values.corsiblockspanFwrd	values.corsiblockspanRev
112212	13:12:38	10007	Language	Language	0	French	7001	0	0	13:12:38	7121	0	0	0	0	0	0	0	0	0	0	0	0	0	0	0	0	0
112212	13:12:38	10007	Session	Session	0	6mo	954	0	0	13:12:38	8134	0	0	0	0	0	0	0	0	0	0	0	0	0	0	0	0	0
112212	13:12:38	10007	HandFr	HandFr	0	LeftFr	100089	0	0	13:12:38	108293	0	0	0	0	0	0	0	0	0	0	0	0	0	0	0	0	0
112212	13:12:38	10007	AudioCheckFr	WordsFr	0	0	0	0	0	13:12:38	113541	0	0	0	0	0	0	0	0	0	0	0	0	0	0	0	0	0
112212	13:12:38	10007	CubeFr	CubeFr	1	1Cube	16245	0	0	13:12:38	204534	0	0	0	0	0	0	0	0	0	0	0	0	0	0	0	0	0
112212	13:12:38	10007	pm.simpleFrLeft	blank.simpleFr	2	0	1500	1	0	13:12:38	223633	0	0	0	0	0	0	0	0	0	0	0	0	0	0	0	0	0
112212	13:12:38	10007	pm.simpleFrLeft	pm.simpleFr	2	57	283	0	0	13:12:38	223940	0	0	0	0	0	0	0	0	0	0	0	0	0	0	0	0	0
112212	13:12:38	10007	pm.simpleFrLeft	blank.simpleFr	2	0	1800	1	0	13:12:38	225752	0	0	0	0	0	0	0	0	0	0	0	0	0	0	0	0	0
112212	13:12:38	10007	pm.simpleFrLeft	pm.simpleFr	2	57	291	0	0	13:12:38	226072	0	0	0	0	0	0	0	0	0	0	0	0	0	0	0	0	0
112212	13:12:38	10007	pm.simpleFrLeft	blank.simpleFr	2	0	2200	1	0	13:12:38	228285	0	0	0	0	0	0	0	0	0	0	0	0	0	0	0	0	0
112212	13:12:38	10007	pm.simpleFrLeft	pm.simpleFr	2	57	319	0	0	13:12:38	228631	0	0	0	0	0	0	0	0	0	0	0	0	0	0	0	0	0
112212	13:12:38	10007	pm.simpleFrLeft	blank.simpleFr	2	0	1700	1	0	13:12:38	230350	0	0	0	0	0	0	0	0	0	0	0	0	0	0	0	0	0
112212	13:12:38	10007	pm.simpleFrLeft	pm.simpleFr	2	57	285	0	0	13:12:38	230657	0	0	0	0	0	0	0	0	0	0	0	0	0	0	0	0	0
112212	13:12:38	10007	pm.simpleFrLeft	blank.simpleFr	2	0	2100	1	0	13:12:38	232776	0	0	0	0	0	0	0	0	0	0	0	0	0	0	0	0	0
112212	13:12:38	10007	pm.simpleFrLeft	pm.simpleFr	2	57	308	0	0	13:12:38	233109	0	0	0	0	0	0	0	0	0	0	0	0	0	0	0	0	0
112212	13:12:38	10007	pm.simpleFrLeft	blank.simpleFr	2	0	2400	1	0	13:12:38	235522	0	0	0	0	0	0	0	0	0	0	0	0	0	0	0	0	0
112212	13:12:38	10007	pm.simpleFrLeft	pm.simpleFr	2	57	474	0	0	13:12:38	236015	0	0	0	0	0	0	0	0	0	0	0	0	0	0	0	0	0
112212	13:12:38	10007	pm.simpleFrLeft	blank.simpleFr	2	0	2000	1	0	13:12:38	238027	0	0	0	0	0	0	0	0	0	0	0	0	0	0	0	0	0
112212	13:12:38	10007	pm.simpleFrLeft	pm.simpleFr	2	57	16	0	0	13:12:38	238067	0	0	0	0	0	0	0	0	0	0	0	0	0	0	0	0	0
112212	13:12:38	10007	pm.simpleFrLeft	blank.simpleFr	2	0	2500	1	0	13:12:38	240586	0	0	0	0	0	0	0	0	0	0	0	0	0	0	0	0	0
112212	13:12:38	10007	pm.simpleFrLeft	pm.simpleFr	2	57	353	0	0	13:12:38	240960	0	0	0	0	0	0	0	0	0	0	0	0	0	0	0	0	0
112212	13:12:38	10007	pm.simpleFrLeft	blank.simpleFr	2	0	2300	1	0	13:12:38	243279	0	0	0	0	0	0	0	0	0	0	0	0	0	0	0	0	0
112212	13:12:38	10007	pm.simpleFrLeft	pm.simpleFr	2	57	269	0	0	13:12:38	243572	0	0	0	0	0	0	0	0	0	0	0	0	0	0	0	0	0
112212	13:12:38	10007	pm.simpleFrLeft	blank.simpleFr	2	0	1900	1	0	13:12:38	245491	0	0	0	0	0	0	0	0	0	0	0	0	0	0	0	0	0
112212	13:12:38	10007	pm.simpleFrLeft	pm.simpleFr	2	57	361	0	0	13:12:38	245877	0	0	0	0	0	0	0	0	0	0	0	0	0	0	0	0	0
112212	13:12:38	10007	pm.simpleFrLeft	blank.simpleFr	2	0	1600	1	0	13:12:38	247490	0	0	0	0	0	0	0	0	0	0	0	0	0	0	0	0	0
112212	13:12:38	10007	pm.simpleFrLeft	pm.simpleFr	2	57	537	0	0	13:12:38	248050	0	0	0	0	0	0	0	0	0	0	0	0	0	0	0	0	0
112212	13:12:38	10007	pm.simpleFrLeft	blank.simpleFr	2	0	2100	1	0	13:12:38	250169	0	0	0	0	0	0	0	0	0	0	0	0	0	0	0	0	0
112212	13:12:38	10007	pm.simpleFrLeft	pm.simpleFr	2	57	306	0	0	13:12:38	250502	0	0	0	0	0	0	0	0	0	0	0	0	0	0	0	0	0
112212	13:12:38	10007	pm.simpleFrLeft	blank.simpleFr	2	0	1700	1	0	13:12:38	252222	0	0	0	0	0	0	0	0	0	0	0	0	0	0	0	0	0
112212	13:12:38	10007	pm.simpleFrLeft	pm.simpleFr	2	57	270	0	0	13:12:38	252515	0	0	0	0	0	0	0	0	0	0	0	0	0	0	0	0	0
112212	13:12:38	10007	pm.simpleFrLeft	blank.simpleFr	2	0	2300	1	0	13:12:38	254834	0	0	0	0	0	0	0	0	0	0	0	0	0	0	0	0	0
112212	13:12:38	10007	pm.simpleFrLeft	pm.simpleFr	2	57	345	0	0	13:12:38	255207	0	0	0	0	0	0	0	0	0	0	0	0	0	0	0	0	0
112212	13:12:38	10007	pm.simpleFrLeft	blank.simpleFr	2	0	1900	1	0	13:12:38	257126	0	0	0	0	0	0	0	0	0	0	0	0	0	0	0	0	0
112212	13:12:38	10007	pm.simpleFrLeft	pm.simpleFr	2	57	421	0	0	13:12:38	257566	0	0	0	0	0	0	0	0	0	0	0	0	0	0	0	0	0
112212	13:12:38	10007	pm.simpleFrLeft	blank.simpleFr	2	0	1500	1	0	13:12:38	259085	0	0	0	0	0	0	0	0	0	0	0	0	0	0	0	0	0
112212	13:12:38	10007	pm.simpleFrLeft	pm.simpleFr	2	57	334	0	0	13:12:38	259445	0	0	0	0	0	0	0	0	0	0	0	0	0	0	0	0	0
112212	13:12:38	10007	pm.simpleFrLeft	blank.simpleFr	2	0	2200	1	0	13:12:38	261658	0	0	0	0	0	0	0	0	0	0	0	0	0	0	0	0	0
112212	13:12:38	10007	pm.simpleFrLeft	pm.simpleFr	2	57	337	0	0	13:12:38	262018	0	0	0	0	0	0	0	0	0	0	0	0	0	0	0	0	0
112212	13:12:38	10007	pm.simpleFrLeft	blank.simpleFr	2	0	1600	1	0	13:12:38	263630	0	0	0	0	0	0	0	0	0	0	0	0	0	0	0	0	0
112212	13:12:38	10007	pm.simpleFrLeft	pm.simpleFr	2	57	316	0	0	13:12:38	263964	0	0	0	0	0	0	0	0	0	0	0	0	0	0	0	0	0
112212	13:12:38	10007	pm.simpleFrLeft	blank.simpleFr	2	0	1800	1	0	13:12:38	265776	0	0	0	0	0	0	0	0	0	0	0	0	0	0	0	0	0
112212	13:12:38	10007	pm.simpleFrLeft	pm.simpleFr	2	57	283	0	0	13:12:38	266082	0	0	0	0	0	0	0	0	0	0	0	0	0	0	0	0	0
112212	13:12:38	10007	pm.simpleFrLeft	blank.simpleFr	2	0	2400	1	0	13:12:38	268495	0	0	0	0	0	0	0	0	0	0	0	0	0	0	0	0	0
112212	13:12:38	10007	pm.simpleFrLeft	pm.simpleFr	2	57	299	0	0	13:12:38	268815	0	0	0	0	0	0	0	0	0	0	0	0	0	0	0	0	0
112212	13:12:38	10007	pm.simpleFrLeft	blank.simpleFr	2	0	2000	1	0	13:12:38	270827	0	0	0	0	0	0	0	0	0	0	0	0	0	0	0	0	0
112212	13:12:38	10007	pm.simpleFrLeft	pm.simpleFr	2	57	431	0	0	13:12:38	271281	0	0	0	0	0	0	0	0	0	0	0	0	0	0	0	0	0
112212	13:12:38	10007	pm.simpleFrLeft	blank.simpleFr	2	0	2500	1	0	13:12:38	273799	0	0	0	0	0	0	0	0	0	0	0	0	0	0	0	0	0
112212	13:12:38	10007	pm.simpleFrLeft	pm.simpleFr	2	57	275	0	0	13:12:38	274093	0	0	0	0	0	0	0	0	0	0	0	0	0	0	0	0	0
112212	13:12:38	10007	pm.simpleFrLeft	blank.simpleFr	2	0	2000	1	0	13:12:38	276105	0	0	0	0	0	0	0	0	0	0	0	0	0	0	0	0	0
112212	13:12:38	10007	pm.simpleFrLeft	pm.simpleFr	2	57	417	0	0	13:12:38	276545	0	0	0	0	0	0	0	0	0	0	0	0	0	0	0	0	0
112212	13:12:38	10007	pm.simpleFrLeft	blank.simpleFr	2	0	1900	1	0	13:12:38	278464	0	0	0	0	0	0	0	0	0	0	0	0	0	0	0	0	0
112212	13:12:38	10007	pm.simpleFrLeft	pm.simpleFr	2	57	410	0	0	13:12:38	278891	0	0	0	0	0	0	0	0	0	0	0	0	0	0	0	0	0
112212	13:12:38	10007	pm.simpleFrLeft	blank.simpleFr	2	0	2400	1	0	13:12:38	281303	0	0	0	0	0	0	0	0	0	0	0	0	0	0	0	0	0
112212	13:12:38	10007	pm.simpleFrLeft	pm.simpleFr	2	57	275	0	0	13:12:38	281596	0	0	0	0	0	0	0	0	0	0	0	0	0	0	0	0	0
112212	13:12:38	10007	pm.simpleFrLeft	blank.simpleFr	2	0	1800	1	0	13:12:38	283409	0	0	0	0	0	0	0	0	0	0	0	0	0	0	0	0	0
112212	13:12:38	10007	pm.simpleFrLeft	pm.simpleFr	2	57	297	0	0	13:12:38	283729	0	0	0	0	0	0	0	0	0	0	0	0	0	0	0	0	0
112212	13:12:38	10007	pm.simpleFrLeft	blank.simpleFr	2	0	2100	1	0	13:12:38	285848	0	0	0	0	0	0	0	0	0	0	0	0	0	0	0	0	0
112212	13:12:38	10007	pm.simpleFrLeft	pm.simpleFr	2	57	354	0	0	13:12:38	286221	0	0	0	0	0	0	0	0	0	0	0	0	0	0	0	0	0
112212	13:12:38	10007	pm.simpleFrLeft	blank.simpleFr	2	0	2200	1	0	13:12:38	288434	0	0	0	0	0	0	0	0	0	0	0	0	0	0	0	0	0
112212	13:12:38	10007	pm.simpleFrLeft	pm.simpleFr	2	57	345	0	0	13:12:38	288807	0	0	0	0	0	0	0	0	0	0	0	0	0	0	0	0	0
112212	13:12:38	10007	pm.simpleFrLeft	blank.simpleFr	2	0	1500	1	0	13:12:38	290326	0	0	0	0	0	0	0	0	0	0	0	0	0	0	0	0	0
112212	13:12:38	10007	pm.simpleFrLeft	pm.simpleFr	2	57	484	0	0	13:12:38	290833	0	0	0	0	0	0	0	0	0	0	0	0	0	0	0	0	0
112212	13:12:38	10007	pm.simpleFrLeft	blank.simpleFr	2	0	1700	1	0	13:12:38	292552	0	0	0	0	0	0	0	0	0	0	0	0	0	0	0	0	0
112212	13:12:38	10007	pm.simpleFrLeft	pm.simpleFr	2	57	307	0	0	13:12:38	292965	0	0	0	0	0	0	0	0	0	0	0	0	0	0	0	0	0
112212	13:12:38	10007	pm.simpleFrLeft	blank.simpleFr	2	0	2300	1	0	13:12:38	295284	0	0	0	0	0	0	0	0	0	0	0	0	0	0	0	0	0
112212	13:12:38	10007	pm.simpleFrLeft	pm.simpleFr	2	57	342	0	0	13:12:38	295644	0	0	0	0	0	0	0	0	0	0	0	0	0	0	0	0	0
112212	13:12:38	10007	pm.simpleFrLeft	blank.simpleFr	2	0	1600	1	0	13:12:38	297257	0	0	0	0	0	0	0	0	0	0	0	0	0	0	0	0	0
112212	13:12:38	10007	pm.simpleFrLeft	pm.simpleFr	2	57	353	0	0	13:12:38	297630	0	0	0	0	0	0	0	0	0	0	0	0	0	0	0	0	0
112212	13:12:38	10007	pm.simpleFrLeft	blank.simpleFr	2	0	2500	1	0	13:12:38	300149	0	0	0	0	0	0	0	0	0	0	0	0	0	0	0	0	0
112212	13:12:38	10007	pm.simpleFrLeft	pm.simpleFr	2	57	341	0	0	13:12:38	300509	0	0	0	0	0	0	0	0	0	0	0	0	0	0	0	0	0
112212	13:12:38	10007	pm.simpleFrLeft	blank.simpleFr	2	0	2100	1	0	13:12:38	302628	0	0	0	0	0	0	0	0	0	0	0	0	0	0	0	0	0
112212	13:12:38	10007	pm.simpleFrLeft	pm.simpleFr	2	57	262	0	0	13:12:38	302908	0	0	0	0	0	0	0	0	0	0	0	0	0	0	0	0	0
112212	13:12:38	10007	pm.simpleFrLeft	blank.simpleFr	2	0	2500	1	0	13:12:38	305427	0	0	0	0	0	0	0	0	0	0	0	0	0	0	0	0	0
112212	13:12:38	10007	pm.simpleFrLeft	pm.simpleFr	2	57	295	0	0	13:12:38	305747	0	0	0	0	0	0	0	0	0	0	0	0	0	0	0	0	0
112212	13:12:38	10007	pm.simpleFrLeft	blank.simpleFr	2	0	1800	1	0	13:12:38	307559	0	0	0	0	0	0	0	0	0	0	0	0	0	0	0	0	0
112212	13:12:38	10007	pm.simpleFrLeft	pm.simpleFr	2	57	307	0	0	13:12:38	307892	0	0	0	0	0	0	0	0	0	0	0	0	0	0	0	0	0
112212	13:12:38	10007	pm.simpleFrLeft	blank.simpleFr	2	0	2400	1	0	13:12:38	310305	0	0	0	0	0	0	0	0	0	0	0	0	0	0	0	0	0
112212	13:12:38	10007	pm.simpleFrLeft	pm.simpleFr	2	57	313	0	0	13:12:38	310638	0	0	0	0	0	0	0	0	0	0	0	0	0	0	0	0	0
112212	13:12:38	10007	pm.simpleFrLeft	blank.simpleFr	2	0	2200	1	0	13:12:38	312864	0	0	0	0	0	0	0	0	0	0	0	0	0	0	0	0	0
112212	13:12:38	10007	pm.simpleFrLeft	pm.simpleFr	2	57	394	0	0	13:12:38	313277	0	0	0	0	0	0	0	0	0	0	0	0	0	0	0	0	0
112212	13:12:38	10007	pm.simpleFrLeft	blank.simpleFr	2	0	1900	1	0	13:12:38	315196	0	0	0	0	0	0	0	0	0	0	0	0	0	0	0	0	0
112212	13:12:38	10007	pm.simpleFrLeft	pm.simpleFr	2	57	494	0	0	13:12:38	315716	0	0	0	0	0	0	0	0	0	0	0	0	0	0	0	0	0
112212	13:12:38	10007	pm.simpleFrLeft	blank.simpleFr	2	0	1700	1	0	13:12:38	317435	0	0	0	0	0	0	0	0	0	0	0	0	0	0	0	0	0
112212	13:12:38	10007	pm.simpleFrLeft	pm.simpleFr	2	57	510	0	0	13:12:38	317968	0	0	0	0	0	0	0	0	0	0	0	0	0	0	0	0	0
112212	13:12:38	10007	Trial2BackFr	N	3	0	1000	1	1	13:12:38	417635	0	0	0	0	0	0	0	0	0	0	0	0	0	0	0	0	0
112212	13:12:38	10007	Trial2BackFr	N	3	0	1000	1	2	13:12:38	419141	0	0	0	0	0	0	0	0	0	0	0	0	0	0	0	0	0
112212	13:12:38	10007	Trial2BackFr	N	3	0	1000	1	3	13:12:38	420647	0	0	0	0	0	0	0	0	0	0	0	0	0	0	0	0	0
112212	13:12:38	10007	Trial2BackFr	N	3	0	1000	1	4	13:12:38	422153	0	0	0	0	0	0	0	0	0	0	0	0	0	0	0	0	0
112212	13:12:38	10007	Trial2BackFr	N	3	0	1000	1	5	13:12:38	423659	0	0	0	0	0	0	0	0	0	0	0	0	0	0	0	0	0
112212	13:12:38	10007	Trial2BackFr	N	3	0	1000	1	6	13:12:38	425165	0	0	0	0	0	0	0	0	0	0	0	0	0	0	0	0	0
112212	13:12:38	10007	Trial2BackFr	N	3	0	1000	1	7	13:12:38	426671	0	0	0	0	0	0	0	0	0	0	0	0	0	0	0	0	0
112212	13:12:38	10007	Trial2BackFr	N	3	57	492	0	7	13:12:38	427684	0	0	0	0	0	0	0	0	0	0	0	0	0	0	0	0	0
112212	13:12:38	10007	Trial2BackFr	Y	3	0	1000	0	7	13:12:38	429683	0	0	0	0	0	0	0	0	0	0	0	0	0	0	0	0	0
112212	13:12:38	10007	Trial2BackFr	N	3	0	1000	1	8	13:12:38	431189	0	0	0	0	0	0	0	0	0	0	0	0	0	0	0	0	0
112212	13:12:38	10007	Trial2BackFr	N	3	0	1000	1	9	13:12:38	432695	0	0	0	0	0	0	0	0	0	0	0	0	0	0	0	0	0
112212	13:12:38	10007	Trial2BackFr	N	3	57	372	0	9	13:12:38	433575	0	0	0	0	0	0	0	0	0	0	0	0	0	0	0	0	0
112212	13:12:38	10007	Trial2BackFr	Y	3	0	1000	0	9	13:12:38	435707	0	0	0	0	0	0	0	0	0	0	0	0	0	0	0	0	0
112212	13:12:38	10007	Trial2BackFr	N	3	0	1000	1	10	13:12:38	437213	0	0	0	0	0	0	0	0	0	0	0	0	0	0	0	0	0
112212	13:12:38	10007	Trial2BackFr	N	3	0	1000	1	11	13:12:38	438719	0	0	0	0	0	0	0	0	0	0	0	0	0	0	0	0	0
112212	13:12:38	10007	Trial2BackFr	N	3	0	1000	1	12	13:12:38	440225	0	0	0	0	0	0	0	0	0	0	0	0	0	0	0	0	0
112212	13:12:38	10007	Trial2BackFr	N	3	0	1000	1	13	13:12:38	441732	0	0	0	0	0	0	0	0	0	0	0	0	0	0	0	0	0
112212	13:12:38	10007	Trial2BackFr	N	3	0	1000	1	14	13:12:38	443238	0	0	0	0	0	0	0	0	0	0	0	0	0	0	0	0	0
112212	13:12:38	10007	Trial2BackFr	Y	3	0	1000	0	14	13:12:38	444744	0	0	0	0	0	0	0	0	0	0	0	0	0	0	0	0	0
112212	13:12:38	10007	Trial2BackFr	N	3	0	1000	1	15	13:12:38	446250	0	0	0	0	0	0	0	0	0	0	0	0	0	0	0	0	0
112212	13:12:38	10007	Trial2BackFr	N	3	0	1000	1	16	13:12:38	447769	0	0	0	0	0	0	0	0	0	0	0	0	0	0	0	0	0
112212	13:12:38	10007	Trial2BackFr	N	3	0	1000	1	17	13:12:38	449275	0	0	0	0	0	0	0	0	0	0	0	0	0	0	0	0	0
112212	13:12:38	10007	Trial2BackFr	N	3	0	1000	1	18	13:12:38	450781	0	0	0	0	0	0	0	0	0	0	0	0	0	0	0	0	0
112212	13:12:38	10007	Trial2BackFr	Y	3	57	542	1	19	13:12:38	451834	0	0	0	0	0	0	0	0	0	0	0	0	0	0	0	0	0
112212	13:12:38	10007	Trial2BackFr	N	3	0	1000	1	20	13:12:38	453793	0	0	0	0	0	0	0	0	0	0	0	0	0	0	0	0	0
112212	13:12:38	10007	Trial2BackFr	N	3	0	1000	1	21	13:12:38	455299	0	0	0	0	0	0	0	0	0	0	0	0	0	0	0	0	0
112212	13:12:38	10007	Trial2BackFr	N	3	0	1000	1	22	13:12:38	456805	0	0	0	0	0	0	0	0	0	0	0	0	0	0	0	0	0
112212	13:12:38	10007	Trial2BackFr	N	3	0	1000	1	23	13:12:38	458311	0	0	0	0	0	0	0	0	0	0	0	0	0	0	0	0	0
112212	13:12:38	10007	Trial2BackFr	N	3	0	1000	1	24	13:12:38	459831	0	0	0	0	0	0	0	0	0	0	0	0	0	0	0	0	0
112212	13:12:38	10007	Trial2BackFr	N	3	0	1000	1	25	13:12:38	461337	0	0	0	0	0	0	0	0	0	0	0	0	0	0	0	0	0
112212	13:12:38	10007	Trial2BackFr	Y	3	57	690	1	26	13:12:38	462536	0	0	0	0	0	0	0	0	0	0	0	0	0	0	0	0	0
112212	13:12:38	10007	Trial2BackFr	N	3	0	1000	1	27	13:12:38	464349	0	0	0	0	0	0	0	0	0	0	0	0	0	0	0	0	0
112212	13:12:38	10007	Trial2BackFr	N	3	0	1000	1	28	13:12:38	465855	0	0	0	0	0	0	0	0	0	0	0	0	0	0	0	0	0
112212	13:12:38	10007	Trial2BackFr	N	3	57	603	0	28	13:12:38	466975	0	0	0	0	0	0	0	0	0	0	0	0	0	0	0	0	0
112212	13:12:38	10007	Trial2BackFr	Y	3	0	1000	0	28	13:12:38	468867	0	0	0	0	0	0	0	0	0	0	0	0	0	0	0	0	0
112212	13:12:38	10007	Trial2BackFr	N	3	0	1000	1	29	13:12:38	470373	0	0	0	0	0	0	0	0	0	0	0	0	0	0	0	0	0
112212	13:12:38	10007	Trial2BackFr	N	3	0	1000	1	30	13:12:38	471880	0	0	0	0	0	0	0	0	0	0	0	0	0	0	0	0	0
112212	13:12:38	10007	Trial2BackFr	N	3	0	1000	1	31	13:12:38	473399	0	0	0	0	0	0	0	0	0	0	0	0	0	0	0	0	0
112212	13:12:38	10007	Trial2BackFr	N	3	0	1000	1	32	13:12:38	474905	0	0	0	0	0	0	0	0	0	0	0	0	0	0	0	0	0
112212	13:12:38	10007	Trial2BackFr	N	3	0	1000	1	33	13:12:38	476411	0	0	0	0	0	0	0	0	0	0	0	0	0	0	0	0	0
112212	13:12:38	10007	Trial2BackFr	N	3	0	1000	1	34	13:12:38	477917	0	0	0	0	0	0	0	0	0	0	0	0	0	0	0	0	0
112212	13:12:38	10007	Trial2BackFr	Y	3	57	989	1	35	13:12:38	479423	0	0	0	0	0	0	0	0	0	0	0	0	0	0	0	0	0
112212	13:12:38	10007	Trial2BackFr	N	3	0	1000	1	36	13:12:38	480929	0	0	0	0	0	0	0	0	0	0	0	0	0	0	0	0	0
112212	13:12:38	10007	Trial2BackFr	N	3	0	1000	1	37	13:12:38	482435	0	0	0	0	0	0	0	0	0	0	0	0	0	0	0	0	0
112212	13:12:38	10007	Trial2BackFr	N	3	0	1000	1	38	13:12:38	483954	0	0	0	0	0	0	0	0	0	0	0	0	0	0	0	0	0
112212	13:12:38	10007	Trial2BackFr	N	3	0	1000	1	39	13:12:38	485460	0	0	0	0	0	0	0	0	0	0	0	0	0	0	0	0	0
112212	13:12:38	10007	Trial2BackFr	Y	3	57	693	1	40	13:12:38	486673	0	0	0	0	0	0	0	0	0	0	0	0	0	0	0	0	0
112212	13:12:38	10007	Trial2BackFr	N	3	0	1000	1	41	13:12:38	488473	0	0	0	0	0	0	0	0	0	0	0	0	0	0	0	0	0
112212	13:12:38	10007	Trial2BackFr	N	3	0	1000	1	42	13:12:38	489979	0	0	0	0	0	0	0	0	0	0	0	0	0	0	0	0	0
112212	13:12:38	10007	Trial2BackFr	N	3	0	1000	1	43	13:12:38	491485	0	0	0	0	0	0	0	0	0	0	0	0	0	0	0	0	0
112212	13:12:38	10007	Trial2BackFr	N	3	0	1000	1	44	13:12:38	492991	0	0	0	0	0	0	0	0	0	0	0	0	0	0	0	0	0
112212	13:12:38	10007	Trial2BackFr	N	3	0	1000	1	45	13:12:38	494497	0	0	0	0	0	0	0	0	0	0	0	0	0	0	0	0	0
112212	13:12:38	10007	Trial2BackFr	Y	3	57	793	1	46	13:12:38	495803	0	0	0	0	0	0	0	0	0	0	0	0	0	0	0	0	0
112212	13:12:38	10007	Trial2BackFr	N	3	0	1000	1	47	13:12:38	497509	0	0	0	0	0	0	0	0	0	0	0	0	0	0	0	0	0
112212	13:12:38	10007	Trial2BackFr	N	3	0	1000	1	48	13:12:38	499015	0	0	0	0	0	0	0	0	0	0	0	0	0	0	0	0	0
112212	13:12:38	10007	Trial2BackFr	N	3	0	1000	1	49	13:12:38	500521	0	0	0	0	0	0	0	0	0	0	0	0	0	0	0	0	0
112212	13:12:38	10007	Trial2BackFr	N	3	0	1000	1	50	13:12:38	502027	0	0	0	0	0	0	0	0	0	0	0	0	0	0	0	0	0
112212	13:12:38	10007	Trial2BackFr	N	3	0	1000	1	51	13:12:38	503533	0	0	0	0	0	0	0	0	0	0	0	0	0	0	0	0	0
112212	13:12:38	10007	Trial2BackFr	N	3	0	1000	1	52	13:12:38	505039	0	0	0	0	0	0	0	0	0	0	0	0	0	0	0	0	0
112212	13:12:38	10007	Trial2BackFr	Y	3	0	1000	0	52	13:12:38	506545	0	0	0	0	0	0	0	0	0	0	0	0	0	0	0	0	0
112212	13:12:38	10007	Trial2BackFr	N	3	0	1000	1	53	13:12:38	508051	0	0	0	0	0	0	0	0	0	0	0	0	0	0	0	0	0
112212	13:12:38	10007	Trial2BackFr	N	3	0	1000	1	54	13:12:38	509571	0	0	0	0	0	0	0	0	0	0	0	0	0	0	0	0	0
112212	13:12:38	10007	Trial2BackFr	Y	3	57	663	1	55	13:12:38	510743	0	0	0	0	0	0	0	0	0	0	0	0	0	0	0	0	0
112212	13:12:38	10007	Trial2BackFr	N	3	0	1000	1	56	13:12:38	512583	0	0	0	0	0	0	0	0	0	0	0	0	0	0	0	0	0
112212	13:12:38	10007	Trial2BackFr	N	3	0	1000	1	57	13:12:38	514089	0	0	0	0	0	0	0	0	0	0	0	0	0	0	0	0	0
112212	13:12:38	10007	Trial2BackFr	N	3	0	1000	1	58	13:12:38	515595	0	0	0	0	0	0	0	0	0	0	0	0	0	0	0	0	0
112212	13:12:38	10007	Trial2BackFr	N	3	0	1000	1	59	13:12:38	517101	0	0	0	0	0	0	0	0	0	0	0	0	0	0	0	0	0
112212	13:12:38	10007	Trial2BackFr	N	3	0	1000	1	60	13:12:38	518607	0	0	0	0	0	0	0	0	0	0	0	0	0	0	0	0	0
112212	13:12:38	10007	Trial2BackFr	N	3	0	1000	1	61	13:12:38	520113	0	0	0	0	0	0	0	0	0	0	0	0	0	0	0	0	0
112212	13:12:38	10007	Trial2BackFr	N	3	0	1000	1	62	13:12:38	521619	0	0	0	0	0	0	0	0	0	0	0	0	0	0	0	0	0
112212	13:12:38	10007	Trial2BackFr	N	3	0	1000	1	63	13:12:38	523125	0	0	0	0	0	0	0	0	0	0	0	0	0	0	0	0	0
112212	13:12:38	10007	Trial2BackFr	N	3	0	1000	1	64	13:12:38	524631	0	0	0	0	0	0	0	0	0	0	0	0	0	0	0	0	0
112212	13:12:38	10007	Trial2BackFr	N	3	0	1000	1	65	13:12:38	526137	0	0	0	0	0	0	0	0	0	0	0	0	0	0	0	0	0
112212	13:12:38	10007	Trial2BackFr	Y	3	57	544	1	66	13:12:38	527190	0	0	0	0	0	0	0	0	0	0	0	0	0	0	0	0	0
112212	13:12:38	10007	Trial2BackFr	N	3	0	1000	1	67	13:12:38	529149	0	0	0	0	0	0	0	0	0	0	0	0	0	0	0	0	0
112212	13:12:38	10007	Trial2BackFr	N	3	0	1000	1	68	13:12:38	530656	0	0	0	0	0	0	0	0	0	0	0	0	0	0	0	0	0
112212	13:12:38	10007	Trial2BackFr	N	3	0	1000	1	69	13:12:38	532162	0	0	0	0	0	0	0	0	0	0	0	0	0	0	0	0	0
112212	13:12:38	10007	Trial2BackFr	Y	3	0	1000	0	69	13:12:38	533681	0	0	0	0	0	0	0	0	0	0	0	0	0	0	0	0	0
112212	13:12:38	10007	Trial2BackFr	N	3	57	456	0	69	13:12:38	534654	0	0	0	0	0	0	0	0	0	0	0	0	0	0	0	0	0
112212	13:12:38	10007	Trial2BackFr	N	3	0	1000	1	70	13:12:38	536693	0	0	0	0	0	0	0	0	0	0	0	0	0	0	0	0	0
112212	13:12:38	10007	Trial2BackFr	N	3	0	1000	1	71	13:12:38	538199	0	0	0	0	0	0	0	0	0	0	0	0	0	0	0	0	0
112212	13:12:38	10007	Trial2BackFr	N	3	0	1000	1	72	13:12:38	539705	0	0	0	0	0	0	0	0	0	0	0	0	0	0	0	0	0
112212	13:12:38	10007	Trial2BackFr	N	3	0	1000	1	73	13:12:38	541211	0	0	0	0	0	0	0	0	0	0	0	0	0	0	0	0	0
112212	13:12:38	10007	Trial2BackFr	Y	3	0	1000	0	73	13:12:38	542731	0	0	0	0	0	0	0	0	0	0	0	0	0	0	0	0	0
112212	13:12:38	10007	Trial2BackFr	N	3	0	1000	1	74	13:12:38	544237	0	0	0	0	0	0	0	0	0	0	0	0	0	0	0	0	0
112212	13:12:38	10007	Trial2BackFr	N	3	0	1000	1	75	13:12:38	545743	0	0	0	0	0	0	0	0	0	0	0	0	0	0	0	0	0
112212	13:12:38	10007	Trial2BackFr	N	3	0	1000	1	76	13:12:38	547249	0	0	0	0	0	0	0	0	0	0	0	0	0	0	0	0	0
112212	13:12:38	10007	Trial2BackFr	N	3	0	1000	1	77	13:12:38	548755	0	0	0	0	0	0	0	0	0	0	0	0	0	0	0	0	0
112212	13:12:38	10007	Trial2BackFr	N	3	0	1000	1	78	13:12:38	550261	0	0	0	0	0	0	0	0	0	0	0	0	0	0	0	0	0
112212	13:12:38	10007	Trial2BackFr	N	3	57	819	0	78	13:12:38	551594	0	0	0	0	0	0	0	0	0	0	0	0	0	0	0	0	0
112212	13:12:38	10007	Trial2BackFr	N	3	0	1000	1	79	13:12:38	553273	0	0	0	0	0	0	0	0	0	0	0	0	0	0	0	0	0
112212	13:12:38	10007	Trial2BackFr	N	3	0	1000	1	80	13:12:38	554779	0	0	0	0	0	0	0	0	0	0	0	0	0	0	0	0	0
112212	13:12:38	10007	Trial2BackFr	N	3	0	1000	1	81	13:12:38	556298	0	0	0	0	0	0	0	0	0	0	0	0	0	0	0	0	0
112212	13:12:38	10007	Trial2BackFr	Y	3	57	334	1	82	13:12:38	557152	0	0	0	0	0	0	0	0	0	0	0	0	0	0	0	0	0
112212	13:12:38	10007	Trial2BackFr	N	3	0	1000	1	83	13:12:38	559311	0	0	0	0	0	0	0	0	0	0	0	0	0	0	0	0	0
112212	13:12:38	10007	Trial2BackFr	N	3	0	1000	1	84	13:12:38	560817	0	0	0	0	0	0	0	0	0	0	0	0	0	0	0	0	0
112212	13:12:38	10007	Trial2BackFr	N	3	0	1000	1	85	13:12:38	562323	0	0	0	0	0	0	0	0	0	0	0	0	0	0	0	0	0
112212	13:12:38	10007	Trial2BackFr	N	3	0	1000	1	86	13:12:38	563829	0	0	0	0	0	0	0	0	0	0	0	0	0	0	0	0	0
112212	13:12:38	10007	Trial2BackFr	N	3	0	1000	1	87	13:12:38	565335	0	0	0	0	0	0	0	0	0	0	0	0	0	0	0	0	0
112212	13:12:38	10007	Trial2BackFr	N	3	0	1000	1	88	13:12:38	566841	0	0	0	0	0	0	0	0	0	0	0	0	0	0	0	0	0
112212	13:12:38	10007	Trial2BackFr	N	3	0	1000	1	89	13:12:38	568347	0	0	0	0	0	0	0	0	0	0	0	0	0	0	0	0	0
112212	13:12:38	10007	Trial2BackFr	N	3	0	1000	1	90	13:12:38	569853	0	0	0	0	0	0	0	0	0	0	0	0	0	0	0	0	0
112212	13:12:38	10007	Trial2BackFr	Y	3	57	651	1	91	13:12:38	571013	0	0	0	0	0	0	0	0	0	0	0	0	0	0	0	0	0
112212	13:12:38	10007	Trial2BackFr	N	3	0	1000	1	92	13:12:38	572865	0	0	0	0	0	0	0	0	0	0	0	0	0	0	0	0	0
112212	13:12:38	10007	Trial2BackFr	N	3	0	1000	1	93	13:12:38	574371	0	0	0	0	0	0	0	0	0	0	0	0	0	0	0	0	0
112212	13:12:38	10007	Trial2BackFr	N	3	0	1000	1	94	13:12:38	575891	0	0	0	0	0	0	0	0	0	0	0	0	0	0	0	0	0
112212	13:12:38	10007	Trial2BackFr	N	3	0	1000	1	95	13:12:38	577397	0	0	0	0	0	0	0	0	0	0	0	0	0	0	0	0	0
112212	13:12:38	10007	Trial2BackFr	Y	3	57	771	1	96	13:12:38	578676	0	0	0	0	0	0	0	0	0	0	0	0	0	0	0	0	0
112212	13:12:38	10007	Trial2BackFr	N	3	0	1000	1	97	13:12:38	580409	0	0	0	0	0	0	0	0	0	0	0	0	0	0	0	0	0
112212	13:12:38	10007	Trial2BackFr	N	3	0	1000	1	98	13:12:38	581915	0	0	0	0	0	0	0	0	0	0	0	0	0	0	0	0	0
112212	13:12:38	10007	Trial2BackFr	N	3	0	1000	1	99	13:12:38	583434	0	0	0	0	0	0	0	0	0	0	0	0	0	0	0	0	0
112212	13:12:38	10007	Trial2BackFr	Y	3	0	1000	0	99	13:12:38	584940	0	0	0	0	0	0	0	0	0	0	0	0	0	0	0	0	0
112212	13:12:38	10007	Trial2BackFr	N	3	0	1000	1	100	13:12:38	586446	0	0	0	0	0	0	0	0	0	0	0	0	0	0	0	0	0
112212	13:12:38	10007	Trial2BackFr	N	3	0	1000	1	101	13:12:38	587952	0	0	0	0	0	0	0	0	0	0	0	0	0	0	0	0	0
112212	13:12:38	10007	Trial2BackFr	N	3	0	1000	1	102	13:12:38	589459	0	0	0	0	0	0	0	0	0	0	0	0	0	0	0	0	0
112212	13:12:38	10007	Trial2BackFr	N	3	0	1000	1	103	13:12:38	590964	0	0	0	0	0	0	0	0	0	0	0	0	0	0	0	0	0
112212	13:12:38	10007	Trial2BackFr	N	3	0	1000	1	104	13:12:38	592470	0	0	0	0	0	0	0	0	0	0	0	0	0	0	0	0	0
112212	13:12:38	10007	Trial2BackFr	Y	3	57	689	1	105	13:12:38	593670	0	0	0	0	0	0	0	0	0	0	0	0	0	0	0	0	0
112212	13:12:38	10007	Trial2BackFr	N	3	0	1000	1	106	13:12:38	595483	0	0	0	0	0	0	0	0	0	0	0	0	0	0	0	0	0
112212	13:12:38	10007	Trial2BackFr	N	3	0	1000	1	107	13:12:38	596989	0	0	0	0	0	0	0	0	0	0	0	0	0	0	0	0	0
112212	13:12:38	10007	Trial2BackFr	N	3	57	859	0	107	13:12:38	598361	0	0	0	0	0	0	0	0	0	0	0	0	0	0	0	0	0
112212	13:12:38	10007	Trial2BackFr	Y	3	0	1000	0	107	13:12:38	600001	0	0	0	0	0	0	0	0	0	0	0	0	0	0	0	0	0
112212	13:12:38	10007	Memory1R6moFr	ScoreFr	5	M1	15099	0	107	13:12:38	639612	0	0	0	0	0	0	0	0	0	0	0	0	0	0	0	0	0
112212	13:12:38	10007	Memory1R6moFr	ScoreFr	5	M5	2009	0	107	13:12:38	641678	0	0	0	0	0	0	0	0	0	0	0	0	0	0	0	0	0
112212	13:12:38	10007	Memory1R6moFr	ScoreFr	5	M6	168	0	107	13:12:38	641891	0	0	0	0	0	0	0	0	0	0	0	0	0	0	0	0	0
112212	13:12:38	10007	Memory1R6moFr	ScoreFr	5	M7	293	0	107	13:12:38	642251	0	0	0	0	0	0	0	0	0	0	0	0	0	0	0	0	0
112212	13:12:38	10007	Memory1R6moFr	ScoreFr	5	M8	227	0	107	13:12:38	642530	0	0	0	0	0	0	0	0	0	0	0	0	0	0	0	0	0
112212	13:12:38	10007	Memory1R6moFr	ScoreFr	5	Done	419	0	107	13:12:38	642997	0	0	0	0	0	0	0	0	0	0	0	0	0	0	0	0	0
112212	13:12:38	10007	Memory2R6moFr	ScoreFr2	5	11	13961	0	107	13:12:38	673971	0	0	0	0	0	0	0	0	0	0	0	0	0	0	0	0	0
112212	13:12:38	10007	Memory2R6moFr	ScoreFr2	5	22	169	0	107	13:12:38	674184	0	0	0	0	0	0	0	0	0	0	0	0	0	0	0	0	0
112212	13:12:38	10007	Memory2R6moFr	ScoreFr2	5	33	260	0	107	13:12:38	674491	0	0	0	0	0	0	0	0	0	0	0	0	0	0	0	0	0
112212	13:12:38	10007	Memory2R6moFr	ScoreFr2	5	55	1593	0	107	13:12:38	676130	0	0	0	0	0	0	0	0	0	0	0	0	0	0	0	0	0
112212	13:12:38	10007	Memory2R6moFr	ScoreFr2	5	66	154	0	107	13:12:38	676330	0	0	0	0	0	0	0	0	0	0	0	0	0	0	0	0	0
112212	13:12:38	10007	Memory2R6moFr	ScoreFr2	5	77	194	0	107	13:12:38	676570	0	0	0	0	0	0	0	0	0	0	0	0	0	0	0	0	0
112212	13:12:38	10007	Memory2R6moFr	ScoreFr2	5	88	202	0	107	13:12:38	676823	0	0	0	0	0	0	0	0	0	0	0	0	0	0	0	0	0
112212	13:12:38	10007	Memory2R6moFr	ScoreFr2	5	44	7293	0	107	13:12:38	684167	0	0	0	0	0	0	0	0	0	0	0	0	0	0	0	0	0
112212	13:12:38	10007	Memory2R6moFr	ScoreFr2	5	Done	693	0	107	13:12:38	684913	0	0	0	0	0	0	0	0	0	0	0	0	0	0	0	0	0
112212	13:12:38	10007	Memory3R6moFr	ScoreFr3	5	777	11795	0	107	13:12:38	714608	0	0	0	0	0	0	0	0	0	0	0	0	0	0	0	0	0
112212	13:12:38	10007	Memory3R6moFr	ScoreFr3	5	888	204	0	107	13:12:38	714861	0	0	0	0	0	0	0	0	0	0	0	0	0	0	0	0	0
112212	13:12:38	10007	Memory3R6moFr	ScoreFr3	5	444	478	0	107	13:12:38	715394	0	0	0	0	0	0	0	0	0	0	0	0	0	0	0	0	0
112212	13:12:38	10007	Memory3R6moFr	ScoreFr3	5	333	505	0	107	13:12:38	715954	0	0	0	0	0	0	0	0	0	0	0	0	0	0	0	0	0
112212	13:12:38	10007	Memory3R6moFr	ScoreFr3	5	555	529	0	107	13:12:38	716527	0	0	0	0	0	0	0	0	0	0	0	0	0	0	0	0	0
112212	13:12:38	10007	Memory3R6moFr	ScoreFr3	5	111	508	0	107	13:12:38	717087	0	0	0	0	0	0	0	0	0	0	0	0	0	0	0	0	0
112212	13:12:38	10007	Memory3R6moFr	ScoreFr3	5	333	332	0	107	13:12:38	717473	0	0	0	0	0	0	0	0	0	0	0	0	0	0	0	0	0
112212	13:12:38	10007	Memory3R6moFr	ScoreFr3	5	222	364	0	107	13:12:38	717900	0	0	0	0	0	0	0	0	0	0	0	0	0	0	0	0	0
112212	13:12:38	10007	Memory3R6moFr	ScoreFr3	5	333	215	0	107	13:12:38	718167	0	0	0	0	0	0	0	0	0	0	0	0	0	0	0	0	0
112212	13:12:38	10007	Memory3R6moFr	ScoreFr3	5	666	6029	0	107	13:12:38	724244	0	0	0	0	0	0	0	0	0	0	0	0	0	0	0	0	0
112212	13:12:38	10007	Memory3R6moFr	ScoreFr3	5	Done	631	0	107	13:12:38	724924	0	0	0	0	0	0	0	0	0	0	0	0	0	0	0	0	0
112212	13:12:38	10007	LoriaFrRH3	Stop	6	6	8652	0	107	13:12:38	804120	0	0	0	0	0	0	0	0	0	0	0	0	0	0	0	0	0
112212	13:12:38	10007	FrTrail	Trails	7	1Trails	1209	0	107	13:12:38	836212	0	0	0	0	0	0	0	0	0	0	0	0	0	0	0	0	0
112212	13:12:38	10007	Serial7Fr6mo	Serial7Fr6mo	8	73	6449	0	107	13:12:38	875398	1	0	0	0	0	0	0	0	0	0	0	0	0	0	0	0	0
112212	13:12:38	10007	Serial7Fr6mo	Serial7Fr6mo	8	65	2252	0	107	13:12:38	877677	1	0	0	0	0	0	0	0	0	0	0	0	0	0	0	0	0
112212	13:12:38	10007	Serial7Fr6mo	Serial7Fr6mo	8	58	2021	0	107	13:12:38	879716	2	0	0	0	0	0	0	0	0	0	0	0	0	0	0	0	0
112212	13:12:38	10007	Serial7Fr6mo	Serial7Fr6mo	8	51	1959	0	107	13:12:38	881689	3	0	0	0	0	0	0	0	0	0	0	0	0	0	0	0	0
112212	13:12:38	10007	Serial7Fr6mo	Serial7Fr6mo	8	44	1475	0	107	13:12:38	883183	4	0	0	0	0	0	0	0	0	0	0	0	0	0	0	0	0
112212	13:12:38	10007	corsiblockFrFwrd	recallseqFrFwrd	9	7	8798	0	107	13:12:38	936547	4	0	0	0	0	0	0	0	0	0	0	0	0	0	0	0	0
112212	13:12:38	10007	corsiblockFrFwrd	recallseqFrFwrd	9	9	1069	0	107	13:12:38	937667	4	0	0	0	0	0	0	0	0	0	0	0	0	0	0	0	0
112212	13:12:38	10007	corsiblockFrFwrd	recallseqFrFwrd	9	8	2373	0	107	13:12:38	940092	4	0	0	0	0	0	0	0	0	0	0	0	0	0	0	0	0
112212	13:12:38	10007	corsiblockFrFwrd	recallseqFrFwrd	9	doneCorsiFr	1971	0	107	13:12:38	942118	4	0	0	0	0	0	0	0	0	0	0	0	0	0	0	0	0
112212	13:12:38	10007	corsiblockFrFwrd	recallseqFrFwrd	9	4	1835	0	107	13:12:38	949049	4	0	0	0	0	0	0	0	0	0	0	0	0	0	0	0	0
112212	13:12:38	10007	corsiblockFrFwrd	recallseqFrFwrd	9	1	1191	0	107	13:12:38	950288	4	0	0	0	0	0	0	0	0	0	0	0	0	0	0	0	0
112212	13:12:38	10007	corsiblockFrFwrd	recallseqFrFwrd	9	doneCorsiFr	1215	0	107	13:12:38	951554	4	0	0	0	0	0	0	0	0	0	0	0	0	0	0	2	0
112212	13:12:38	10007	corsiblockFrFwrd	recallseqFrFwrd	9	2	1292	0	107	13:12:38	957965	4	0	0	0	0	0	0	0	0	0	0	0	0	0	0	2	0
112212	13:12:38	10007	corsiblockFrFwrd	recallseqFrFwrd	9	5	986	0	107	13:12:38	959005	4	0	0	0	0	0	0	0	0	0	0	0	0	0	0	2	0
112212	13:12:38	10007	corsiblockFrFwrd	recallseqFrFwrd	9	8	915	0	107	13:12:38	959964	4	0	0	0	0	0	0	0	0	0	0	0	0	0	0	2	0
112212	13:12:38	10007	corsiblockFrFwrd	recallseqFrFwrd	9	doneCorsiFr	1715	0	107	13:12:38	961724	4	0	0	0	0	0	0	0	0	0	0	0	0	0	0	3	0
112212	13:12:38	10007	corsiblockFrFwrd	recallseqFrFwrd	9	3	772	0	107	13:12:38	969614	4	0	0	0	0	0	0	0	0	0	0	0	0	0	0	3	0
112212	13:12:38	10007	corsiblockFrFwrd	recallseqFrFwrd	9	6	665	0	107	13:12:38	970333	4	0	0	0	0	0	0	0	0	0	0	0	0	0	0	3	0
112212	13:12:38	10007	corsiblockFrFwrd	recallseqFrFwrd	9	5	562	0	107	13:12:38	970946	4	0	0	0	0	0	0	0	0	0	0	0	0	0	0	3	0
112212	13:12:38	10007	corsiblockFrFwrd	recallseqFrFwrd	9	4	669	0	107	13:12:38	971666	4	0	0	0	0	0	0	0	0	0	0	0	0	0	0	3	0
112212	13:12:38	10007	corsiblockFrFwrd	recallseqFrFwrd	9	doneCorsiFr	1213	0	107	13:12:38	972932	4	0	0	0	0	0	0	0	0	0	0	0	0	0	0	3	0
112212	13:12:38	10007	corsiblockFrFwrd	recallseqFrFwrd	9	2	885	0	107	13:12:38	980903	4	0	0	0	0	0	0	0	0	0	0	0	0	0	0	3	0
112212	13:12:38	10007	corsiblockFrFwrd	recallseqFrFwrd	9	8	832	0	107	13:12:38	981782	4	0	0	0	0	0	0	0	0	0	0	0	0	0	0	3	0
112212	13:12:38	10007	corsiblockFrFwrd	recallseqFrFwrd	9	6	761	0	107	13:12:38	982595	4	0	0	0	0	0	0	0	0	0	0	0	0	0	0	3	0
112212	13:12:38	10007	corsiblockFrFwrd	recallseqFrFwrd	9	1	892	0	107	13:12:38	983542	4	0	0	0	0	0	0	0	0	0	0	0	0	0	0	3	0
112212	13:12:38	10007	corsiblockFrFwrd	recallseqFrFwrd	9	doneCorsiFr	961	0	107	13:12:38	984554	4	0	0	0	0	0	0	0	0	0	0	0	0	0	0	4	0
112212	13:12:38	10007	corsiblockFrFwrd	recallseqFrFwrd	9	7	733	0	107	13:12:38	992405	4	0	0	0	0	0	0	0	0	0	0	0	0	0	0	4	0
112212	13:12:38	10007	corsiblockFrFwrd	recallseqFrFwrd	9	9	706	0	107	13:12:38	993164	4	0	0	0	0	0	0	0	0	0	0	0	0	0	0	4	0
112212	13:12:38	10007	corsiblockFrFwrd	recallseqFrFwrd	9	3	682	0	107	13:12:38	993897	4	0	0	0	0	0	0	0	0	0	0	0	0	0	0	4	0
112212	13:12:38	10007	corsiblockFrFwrd	recallseqFrFwrd	9	4	437	0	107	13:12:38	994390	4	0	0	0	0	0	0	0	0	0	0	0	0	0	0	4	0
112212	13:12:38	10007	corsiblockFrFwrd	recallseqFrFwrd	9	2	584	0	107	13:12:38	995030	4	0	0	0	0	0	0	0	0	0	0	0	0	0	0	4	0
112212	13:12:38	10007	corsiblockFrFwrd	recallseqFrFwrd	9	doneCorsiFr	944	0	107	13:12:38	996030	4	0	0	0	0	0	0	0	0	0	0	0	0	0	0	5	0
112212	13:12:38	10007	corsiblockFrFwrd	recallseqFrFwrd	9	9	5711	0	107	13:12:38	1010877	4	0	0	0	0	0	0	0	0	0	0	0	0	0	0	5	0
112212	13:12:38	10007	corsiblockFrFwrd	recallseqFrFwrd	9	3	634	0	107	13:12:38	1011556	4	0	0	0	0	0	0	0	0	0	0	0	0	0	0	5	0
112212	13:12:38	10007	corsiblockFrFwrd	recallseqFrFwrd	9	6	513	0	107	13:12:38	1012116	4	0	0	0	0	0	0	0	0	0	0	0	0	0	0	5	0
112212	13:12:38	10007	corsiblockFrFwrd	recallseqFrFwrd	9	5	530	0	107	13:12:38	1012703	4	0	0	0	0	0	0	0	0	0	0	0	0	0	0	5	0
112212	13:12:38	10007	corsiblockFrFwrd	recallseqFrFwrd	9	8	567	0	107	13:12:38	1013316	4	0	0	0	0	0	0	0	0	0	0	0	0	0	0	5	0
112212	13:12:38	10007	corsiblockFrFwrd	recallseqFrFwrd	9	1	882	0	107	13:12:38	1014249	4	0	0	0	0	0	0	0	0	0	0	0	0	0	0	5	0
112212	13:12:38	10007	corsiblockFrFwrd	recallseqFrFwrd	9	doneCorsiFr	965	0	107	13:12:38	1015262	4	0	0	0	0	0	0	0	0	0	0	0	0	0	0	5	0
112212	13:12:38	10007	corsiblockFrFwrd	recallseqFrFwrd	9	6	1828	0	107	13:12:38	1026177	4	0	0	0	0	0	0	0	0	0	0	0	0	0	0	5	0
112212	13:12:38	10007	corsiblockFrFwrd	recallseqFrFwrd	9	5	572	0	107	13:12:38	1026804	4	0	0	0	0	0	0	0	0	0	0	0	0	0	0	5	0
112212	13:12:38	10007	corsiblockFrFwrd	recallseqFrFwrd	9	9	1002	0	107	13:12:38	1027857	4	0	0	0	0	0	0	0	0	0	0	0	0	0	0	5	0
112212	13:12:38	10007	corsiblockFrFwrd	recallseqFrFwrd	9	8	1029	0	107	13:12:38	1028936	4	0	0	0	0	0	0	0	0	0	0	0	0	0	0	5	0
112212	13:12:38	10007	corsiblockFrFwrd	recallseqFrFwrd	9	2	742	0	107	13:12:38	1029723	4	0	0	0	0	0	0	0	0	0	0	0	0	0	0	5	0
112212	13:12:38	10007	corsiblockFrFwrd	recallseqFrFwrd	9	doneCorsiFr	1203	0	107	13:12:38	1030975	4	0	0	0	0	0	0	0	0	0	0	0	0	0	0	5	0
112212	13:12:38	10007	corsiblockFrRev	recallseqFrRev	10	3	1466	0	107	13:12:38	1043011	4	0	0	0	0	0	0	0	0	0	0	0	0	0	0	5	0
112212	13:12:38	10007	corsiblockFrRev	recallseqFrRev	10	6	1131	0	107	13:12:38	1044197	4	0	0	0	0	0	0	0	0	0	0	0	0	0	0	5	0
112212	13:12:38	10007	corsiblockFrRev	recallseqFrRev	10	doneCorsiFr	753	0	107	13:12:38	1044997	4	0	0	0	0	0	0	0	0	0	0	0	0	0	0	5	0
112212	13:12:38	10007	corsiblockFrRev	recallseqFrRev	10	2	2035	0	107	13:12:38	1052114	4	0	0	0	0	0	0	0	0	0	0	0	0	0	0	5	0
112212	13:12:38	10007	corsiblockFrRev	recallseqFrRev	10	1	756	0	107	13:12:38	1052913	4	0	0	0	0	0	0	0	0	0	0	0	0	0	0	5	0
112212	13:12:38	10007	corsiblockFrRev	recallseqFrRev	10	doneCorsiFr	1284	0	107	13:12:38	1054246	4	0	0	0	0	0	0	0	0	0	0	0	0	0	0	5	2
112212	13:12:38	10007	corsiblockFrRev	recallseqFrRev	10	4	1423	0	107	13:12:38	1060790	4	0	0	0	0	0	0	0	0	0	0	0	0	0	0	5	2
112212	13:12:38	10007	corsiblockFrRev	recallseqFrRev	10	8	1303	0	107	13:12:38	1062150	4	0	0	0	0	0	0	0	0	0	0	0	0	0	0	5	2
112212	13:12:38	10007	corsiblockFrRev	recallseqFrRev	10	7	2327	0	107	13:12:38	1064522	4	0	0	0	0	0	0	0	0	0	0	0	0	0	0	5	2
112212	13:12:38	10007	corsiblockFrRev	recallseqFrRev	10	doneCorsiFr	1379	0	107	13:12:38	1065948	4	0	0	0	0	0	0	0	0	0	0	0	0	0	0	5	2
112212	13:12:38	10007	corsiblockFrRev	recallseqFrRev	10	8	747	0	107	13:12:38	1072785	4	0	0	0	0	0	0	0	0	0	0	0	0	0	0	5	2
112212	13:12:38	10007	corsiblockFrRev	recallseqFrRev	10	9	635	0	107	13:12:38	1073465	4	0	0	0	0	0	0	0	0	0	0	0	0	0	0	5	2
112212	13:12:38	10007	corsiblockFrRev	recallseqFrRev	10	6	964	0	107	13:12:38	1074478	4	0	0	0	0	0	0	0	0	0	0	0	0	0	0	5	2
112212	13:12:38	10007	corsiblockFrRev	recallseqFrRev	10	doneCorsiFr	807	0	107	13:12:38	1075331	4	0	0	0	0	0	0	0	0	0	0	0	0	0	0	5	3
112212	13:12:38	10007	corsiblockFrRev	recallseqFrRev	10	5	961	0	107	13:12:38	1082408	4	0	0	0	0	0	0	0	0	0	0	0	0	0	0	5	3
112212	13:12:38	10007	corsiblockFrRev	recallseqFrRev	10	4	621	0	107	13:12:38	1083074	4	0	0	0	0	0	0	0	0	0	0	0	0	0	0	5	3
112212	13:12:38	10007	corsiblockFrRev	recallseqFrRev	10	6	546	0	107	13:12:38	1083674	4	0	0	0	0	0	0	0	0	0	0	0	0	0	0	5	3
112212	13:12:38	10007	corsiblockFrRev	recallseqFrRev	10	1	770	0	107	13:12:38	1084501	4	0	0	0	0	0	0	0	0	0	0	0	0	0	0	5	3
112212	13:12:38	10007	corsiblockFrRev	recallseqFrRev	10	doneCorsiFr	1192	0	107	13:12:38	1085740	4	0	0	0	0	0	0	0	0	0	0	0	0	0	0	5	3
112212	13:12:38	10007	corsiblockFrRev	recallseqFrRev	10	3	1371	0	107	13:12:38	1094203	4	0	0	0	0	0	0	0	0	0	0	0	0	0	0	5	3
112212	13:12:38	10007	corsiblockFrRev	recallseqFrRev	10	2	1073	0	107	13:12:38	1095323	4	0	0	0	0	0	0	0	0	0	0	0	0	0	0	5	3
112212	13:12:38	10007	corsiblockFrRev	recallseqFrRev	10	7	585	0	107	13:12:38	1095963	4	0	0	0	0	0	0	0	0	0	0	0	0	0	0	5	3
112212	13:12:38	10007	corsiblockFrRev	recallseqFrRev	10	9	562	0	107	13:12:38	1096576	4	0	0	0	0	0	0	0	0	0	0	0	0	0	0	5	3
112212	13:12:38	10007	corsiblockFrRev	recallseqFrRev	10	doneCorsiFr	965	0	107	13:12:38	1097589	4	0	0	0	0	0	0	0	0	0	0	0	0	0	0	5	3
112212	13:12:38	10007	testFr6mo	WordsFr6mo	11	8Fr6mo	1006	0	107	13:12:38	1136386	4	0	0	0	0	0	0	0	3	0	0	0	0	0	0	5	3
112212	13:12:38	10007	testFr6mo	WordsFr6mo	11	6Fr6mo	460	0	107	13:12:38	1136906	4	0	0	0	0	0	3	0	3	0	0	0	0	0	0	5	3
112212	13:12:38	10007	testFr6mo	WordsFr6mo	11	5Fr6mo	458	0	107	13:12:38	1137413	4	0	0	0	0	3	3	0	3	0	0	0	0	0	0	5	3
112212	13:12:38	10007	testFr6mo	WordsFr6mo	11	4Fr6mo	551	0	107	13:12:38	1138573	4	0	0	0	3	3	3	0	3	0	0	0	0	0	0	5	3
112212	13:12:38	10007	testFr6mo	WordsFr6mo	11	3Fr6mo	394	0	107	13:12:38	1139026	4	0	0	3	3	3	3	0	3	0	0	0	0	0	0	5	3
112212	13:12:38	10007	testFr6mo	WordsFr6mo	11	2Fr6mo	329	0	107	13:12:38	1139412	4	0	3	3	3	3	3	0	3	0	0	0	0	0	0	5	3
112212	13:12:38	10007	testFr6mo	WordsFr6mo	11	1Fr6mo	516	0	107	13:12:38	1139985	4	3	3	3	3	3	3	0	3	0	0	0	0	0	0	5	3
112212	13:12:38	10007	testFr6mo	WordsFr6mo	11	DoneFr6mo	4797	0	107	13:12:38	1144850	4	3	3	3	3	3	3	0	3	0	0	0	0	0	0	5	3
112212	13:12:38	10007	testFr6mo	Cat7Fr6mo	11	W7Fr6mo	6850	0	107	13:12:38	1151753	4	3	3	3	3	3	3	0	3	0	0	0	0	0	0	5	3
112212	13:12:38	10007	testFr6mo	Ch7Fr6mo	11	RR7Fr6mo	4752	0	107	13:12:38	1156538	4	3	3	3	3	3	3	1	3	0	0	0	0	0	0	5	3
112212	13:12:38	10007	DigitSpanFwrdFr6mo	Score1FwrdFr6mo	12	DS1	3673	0	107	13:12:38	1192017	4	3	3	3	3	3	3	1	3	0	0	0	0	0	0	5	3
112212	13:12:38	10007	DigitSpanFwrdFr6mo	Gate1FwrdFr6mo	12	0	1	0	107	13:12:38	1192021	4	3	3	3	3	3	3	1	3	3	0	0	0	0	0	5	3
112212	13:12:38	10007	DigitSpanFwrdFr6mo	Score2FwrdFr6mo	12	DS1	2279	0	107	13:12:38	1200600	4	3	3	3	3	3	3	1	3	3	0	0	0	0	0	5	3
112212	13:12:38	10007	DigitSpanFwrdFr6mo	Gate3FwrdFr6mo	12	0	1	0	107	13:12:38	1200605	4	3	3	3	3	3	3	1	3	4	0	0	0	0	0	5	3
112212	13:12:38	10007	DigitSpanFwrdFr6mo	Score3FwrdFr6mo	12	DS1	2294	0	107	13:12:38	1210143	4	3	3	3	3	3	3	1	3	4	0	0	0	0	0	5	3
112212	13:12:38	10007	DigitSpanFwrdFr6mo	Gate5FwrdFr6mo	12	0	1	0	107	13:12:38	1210147	4	3	3	3	3	3	3	1	3	5	0	0	0	0	0	5	3
112212	13:12:38	10007	DigitSpanFwrdFr6mo	Score4FwrdFr6mo	12	DS1	2692	0	107	13:12:38	1221352	4	3	3	3	3	3	3	1	3	5	0	0	0	0	0	5	3
112212	13:12:38	10007	DigitSpanFwrdFr6mo	Gate7FwrdFr6mo	12	0	1	0	107	13:12:38	1221357	4	3	3	3	3	3	3	1	3	6	0	0	0	0	0	5	3
112212	13:12:38	10007	DigitSpanFwrdFr6mo	Score5FwrdFr6mo	12	DS1	3321	0	107	13:12:38	1234653	4	3	3	3	3	3	3	1	3	6	0	0	0	0	0	5	3
112212	13:12:38	10007	DigitSpanFwrdFr6mo	Gate9FwrdFr6mo	12	0	1	0	107	13:12:38	1234657	4	3	3	3	3	3	3	1	3	7	0	0	0	0	0	5	3
112212	13:12:38	10007	DigitSpanFwrdFr6mo	Score6FwrdFr6mo	12	DS2	6455	0	107	13:12:38	1252219	4	3	3	3	3	3	3	1	3	7	0	0	0	0	0	5	3
112212	13:12:38	10007	DigitSpanFwrdFr6mo	Gate11FwrdFr6mo	12	0	1	0	107	13:12:38	1252224	4	3	3	3	3	3	3	1	3	7	0	0	0	0	0	5	3
112212	13:12:38	10007	DigitSpanFwrdFr6mo	Score66FwrdFr6mo	12	DS2	4770	0	107	13:12:38	1267959	4	3	3	3	3	3	3	1	3	7	0	0	0	0	0	5	3
112212	13:12:38	10007	DigitSpanFr6mo	Score1Fr6mo	13	DS2	2922	0	107	13:12:38	1285139	4	3	3	3	3	3	3	1	3	7	0	0	0	0	0	5	3
112212	13:12:38	10007	DigitSpanFr6mo	Gate1Fr6mo	13	0	1	0	107	13:12:38	1285143	4	3	3	3	3	3	3	1	3	7	0	0	0	0	0	5	3
112212	13:12:38	10007	DigitSpanFr6mo	Score11Fr6mo	13	DS1	2484	0	107	13:12:38	1290977	4	3	3	3	3	3	3	1	3	7	0	0	0	0	0	5	3
112212	13:12:38	10007	DigitSpanFr6mo	Gate2Fr6mo	13	0	1	0	107	13:12:38	1290981	4	3	3	3	3	3	3	1	3	7	2	0	0	0	0	5	3
112212	13:12:38	10007	DigitSpanFr6mo	Score2Fr6mo	13	DS1	4337	0	107	13:12:38	1299880	4	3	3	3	3	3	3	1	3	7	2	0	0	0	0	5	3
112212	13:12:38	10007	DigitSpanFr6mo	Gate3Fr6mo	13	0	1	0	107	13:12:38	1299884	4	3	3	3	3	3	3	1	3	7	3	0	0	0	0	5	3
112212	13:12:38	10007	DigitSpanFr6mo	Score3Fr6mo	13	DS1	2267	0	107	13:12:38	1307837	4	3	3	3	3	3	3	1	3	7	3	0	0	0	0	5	3
112212	13:12:38	10007	DigitSpanFr6mo	Gate5Fr6mo	13	0	1	0	107	13:12:38	1307841	4	3	3	3	3	3	3	1	3	7	4	0	0	0	0	5	3
112212	13:12:38	10007	DigitSpanFr6mo	Score4Fr6mo	13	DS1	7654	0	107	13:12:38	1322457	4	3	3	3	3	3	3	1	3	7	4	0	0	0	0	5	3
112212	13:12:38	10007	DigitSpanFr6mo	Gate7Fr6mo	13	0	1	0	107	13:12:38	1322462	4	3	3	3	3	3	3	1	3	7	5	0	0	0	0	5	3
112212	13:12:38	10007	DigitSpanFr6mo	Score5Fr6mo	13	DS1	6783	0	107	13:12:38	1337718	4	3	3	3	3	3	3	1	3	7	5	0	0	0	0	5	3
112212	13:12:38	10007	DigitSpanFr6mo	Gate9Fr6mo	13	0	1	0	107	13:12:38	1337723	4	3	3	3	3	3	3	1	3	7	6	0	0	0	0	5	3
112212	13:12:38	10007	DigitSpanFr6mo	Score6Fr6mo	13	DS1	8405	0	107	13:12:38	1355884	4	3	3	3	3	3	3	1	3	7	7	0	0	0	0	5	3
112212	13:12:38	10007	Trial	ResponseIL	14	0	175	0	107	13:12:38	1432586	4	3	3	3	3	3	3	1	3	7	7	0	0	0	0	5	3
112212	13:12:38	10007	Trial	IncongruentLeft	14	203	391	1	107	13:12:38	1432999	4	3	3	3	3	3	3	1	3	7	7	0	0	0	0	5	3
112212	13:12:38	10007	Trial	ResponseCR	14	0	175	0	107	13:12:38	1434292	4	3	3	3	3	3	3	1	3	7	7	0	0	0	0	5	3
112212	13:12:38	10007	Trial	CongruentRight	14	205	285	1	107	13:12:38	1434599	4	3	3	3	3	3	3	1	3	7	7	0	0	0	0	5	3
112212	13:12:38	10007	Trial	ResponseIR	14	0	175	0	107	13:12:38	1435998	4	3	3	3	3	3	3	1	3	7	7	0	0	0	0	5	3
112212	13:12:38	10007	Trial	IncongruentRight	14	203	195	0	107	13:12:38	1436211	4	3	3	3	3	3	3	1	3	7	7	0	0	0	0	5	3
112212	13:12:38	10007	Trial	ResponseCL	14	0	175	0	107	13:12:38	1437704	4	3	3	3	3	3	3	1	3	7	7	0	0	0	0	5	3
112212	13:12:38	10007	Trial	CongruentLeft	14	203	633	1	107	13:12:38	1438357	4	3	3	3	3	3	3	1	3	7	7	0	0	0	0	5	3
112212	13:12:38	10007	Trial	ResponseCR	14	0	175	0	107	13:12:38	1439410	4	3	3	3	3	3	3	1	3	7	7	0	0	0	0	5	3
112212	13:12:38	10007	Trial	CongruentRight	14	205	335	1	107	13:12:38	1439770	4	3	3	3	3	3	3	1	3	7	7	0	0	0	0	5	3
112212	13:12:38	10007	Trial	ResponseIR	14	0	175	0	107	13:12:38	1441116	4	3	3	3	3	3	3	1	3	7	7	0	0	0	0	5	3
112212	13:12:38	10007	Trial	IncongruentRight	14	205	389	1	107	13:12:38	1441529	4	3	3	3	3	3	3	1	3	7	7	0	0	0	0	5	3
112212	13:12:38	10007	Trial	ResponseCL	14	0	175	0	107	13:12:38	1442822	4	3	3	3	3	3	3	1	3	7	7	0	0	0	0	5	3
112212	13:12:38	10007	Trial	CongruentLeft	14	203	316	1	107	13:12:38	1443155	4	3	3	3	3	3	3	1	3	7	7	0	0	0	0	5	3
112212	13:12:38	10007	Trial	ResponseIL	14	0	175	0	107	13:12:38	1444528	4	3	3	3	3	3	3	1	3	7	7	0	0	0	0	5	3
112212	13:12:38	10007	Trial	IncongruentLeft	14	203	289	1	107	13:12:38	1444834	4	3	3	3	3	3	3	1	3	7	7	0	0	0	0	5	3
112212	13:12:38	10007	Trial	ResponseIL	14	0	175	0	107	13:12:38	1446234	4	3	3	3	3	3	3	1	3	7	7	0	0	0	0	5	3
112212	13:12:38	10007	Trial	IncongruentLeft	14	203	199	1	107	13:12:38	1446461	4	3	3	3	3	3	3	1	3	7	7	0	0	0	0	5	3
112212	13:12:38	10007	Trial	ResponseCR	14	0	175	0	107	13:12:38	1447940	4	3	3	3	3	3	3	1	3	7	7	0	0	0	0	5	3
112212	13:12:38	10007	Trial	CongruentRight	14	205	333	1	107	13:12:38	1448300	4	3	3	3	3	3	3	1	3	7	7	0	0	0	0	5	3
112212	13:12:38	10007	Trial	ResponseIR	14	0	175	0	107	13:12:38	1449646	4	3	3	3	3	3	3	1	3	7	7	0	0	0	0	5	3
112212	13:12:38	10007	Trial	IncongruentRight	14	203	355	0	107	13:12:38	1450019	4	3	3	3	3	3	3	1	3	7	7	0	0	0	0	5	3
112212	13:12:38	10007	Trial	ResponseCL	14	0	175	0	107	13:12:38	1451352	4	3	3	3	3	3	3	1	3	7	7	0	0	0	0	5	3
112212	13:12:38	10007	Trial	CongruentLeft	14	203	249	1	107	13:12:38	1451618	4	3	3	3	3	3	3	1	3	7	7	0	0	0	0	5	3
112212	13:12:38	10007	Trial	ResponseCR	14	0	175	0	107	13:12:38	1453058	4	3	3	3	3	3	3	1	3	7	7	0	0	0	0	5	3
112212	13:12:38	10007	Trial	CongruentRight	14	205	287	1	107	13:12:38	1453364	4	3	3	3	3	3	3	1	3	7	7	0	0	0	0	5	3
112212	13:12:38	10007	Trial	ResponseIL	14	0	175	0	107	13:12:38	1454764	4	3	3	3	3	3	3	1	3	7	7	0	0	0	0	5	3
112212	13:12:38	10007	Trial	IncongruentLeft	14	203	341	1	107	13:12:38	1455124	4	3	3	3	3	3	3	1	3	7	7	0	0	0	0	5	3
112212	13:12:38	10007	Trial	ResponseIR	14	0	175	0	107	13:12:38	1456470	4	3	3	3	3	3	3	1	3	7	7	0	0	0	0	5	3
112212	13:12:38	10007	Trial	IncongruentRight	14	205	299	1	107	13:12:38	1456789	4	3	3	3	3	3	3	1	3	7	7	0	0	0	0	5	3
112212	13:12:38	10007	Trial	ResponseCR	14	0	175	0	107	13:12:38	1458176	4	3	3	3	3	3	3	1	3	7	7	0	0	0	0	5	3
112212	13:12:38	10007	Trial	CongruentRight	14	205	193	1	107	13:12:38	1458389	4	3	3	3	3	3	3	1	3	7	7	0	0	0	0	5	3
112212	13:12:38	10007	Trial	ResponseCL	14	0	175	0	107	13:12:38	1459882	4	3	3	3	3	3	3	1	3	7	7	0	0	0	0	5	3
112212	13:12:38	10007	Trial	CongruentLeft	14	203	343	1	107	13:12:38	1460241	4	3	3	3	3	3	3	1	3	7	7	0	0	0	0	5	3
112212	13:12:38	10007	Trial	ResponseCR	14	0	175	0	107	13:12:38	1461588	4	3	3	3	3	3	3	1	3	7	7	0	0	0	0	5	3
112212	13:12:38	10007	Trial	CongruentRight	14	205	269	1	107	13:12:38	1461881	4	3	3	3	3	3	3	1	3	7	7	0	0	0	0	5	3
112212	13:12:38	10007	Trial	ResponseIR	14	0	175	0	107	13:12:38	1463294	4	3	3	3	3	3	3	1	3	7	7	0	0	0	0	5	3
112212	13:12:38	10007	Trial	IncongruentRight	14	205	307	1	107	13:12:38	1463627	4	3	3	3	3	3	3	1	3	7	7	0	0	0	0	5	3
112212	13:12:38	10007	Trial	ResponseIL	14	0	175	0	107	13:12:38	1465000	4	3	3	3	3	3	3	1	3	7	7	0	0	0	0	5	3
112212	13:12:38	10007	Trial	IncongruentLeft	14	205	217	0	107	13:12:38	1465240	4	3	3	3	3	3	3	1	3	7	7	0	0	0	0	5	3
112212	13:12:38	10007	Trial	ResponseIL	14	0	175	0	107	13:12:38	1466706	4	3	3	3	3	3	3	1	3	7	7	0	0	0	0	5	3
112212	13:12:38	10007	Trial	IncongruentLeft	14	203	223	1	107	13:12:38	1466945	4	3	3	3	3	3	3	1	3	7	7	0	0	0	0	5	3
112212	13:12:38	10007	Trial	ResponseCL	14	0	175	0	107	13:12:38	1468412	4	3	3	3	3	3	3	1	3	7	7	0	0	0	0	5	3
112212	13:12:38	10007	Trial	CongruentLeft	14	203	181	1	107	13:12:38	1468611	4	3	3	3	3	3	3	1	3	7	7	0	0	0	0	5	3
112212	13:12:38	10007	Trial	ResponseCR	14	0	175	0	107	13:12:38	1470118	4	3	3	3	3	3	3	1	3	7	7	0	0	0	0	5	3
112212	13:12:38	10007	Trial	CongruentRight	14	205	314	1	107	13:12:38	1470451	4	3	3	3	3	3	3	1	3	7	7	0	0	0	0	5	3
112212	13:12:38	10007	Trial	ResponseIL	14	0	175	0	107	13:12:38	1471824	4	3	3	3	3	3	3	1	3	7	7	0	0	0	0	5	3
112212	13:12:38	10007	Trial	IncongruentLeft	14	203	353	1	107	13:12:38	1472197	4	3	3	3	3	3	3	1	3	7	7	0	0	0	0	5	3
112212	13:12:38	10007	Trial	ResponseIR	14	0	175	0	107	13:12:38	1473530	4	3	3	3	3	3	3	1	3	7	7	0	0	0	0	5	3
112212	13:12:38	10007	Trial	IncongruentRight	14	205	343	1	107	13:12:38	1473889	4	3	3	3	3	3	3	1	3	7	7	0	0	0	0	5	3
112212	13:12:38	10007	Trial	ResponseCR	14	0	175	0	107	13:12:38	1475235	4	3	3	3	3	3	3	1	3	7	7	0	0	0	0	5	3
112212	13:12:38	10007	Trial	CongruentRight	14	205	333	1	107	13:12:38	1475595	4	3	3	3	3	3	3	1	3	7	7	0	0	0	0	5	3
112212	13:12:38	10007	Trial	ResponseCL	14	0	175	0	107	13:12:38	1476941	4	3	3	3	3	3	3	1	3	7	7	0	0	0	0	5	3
112212	13:12:38	10007	Trial	CongruentLeft	14	203	259	1	107	13:12:38	1477221	4	3	3	3	3	3	3	1	3	7	7	0	0	0	0	5	3
112212	13:12:38	10007	Trial	ResponseIR	14	0	175	0	107	13:12:38	1478647	4	3	3	3	3	3	3	1	3	7	7	0	0	0	0	5	3
112212	13:12:38	10007	Trial	IncongruentRight	14	205	329	1	107	13:12:38	1478994	4	3	3	3	3	3	3	1	3	7	7	0	0	0	0	5	3
112212	13:12:38	10007	Trial	ResponseIL	14	0	175	0	107	13:12:38	1480353	4	3	3	3	3	3	3	1	3	7	7	0	0	0	0	5	3
112212	13:12:38	10007	Trial	IncongruentLeft	14	203	287	1	107	13:12:38	1480660	4	3	3	3	3	3	3	1	3	7	7	0	0	0	0	5	3
112212	13:12:38	10007	Trial	ResponseIR	14	0	175	0	107	13:12:38	1482059	4	3	3	3	3	3	3	1	3	7	7	0	0	0	0	5	3
112212	13:12:38	10007	Trial	IncongruentRight	14	205	293	1	107	13:12:38	1482379	4	3	3	3	3	3	3	1	3	7	7	0	0	0	0	5	3
112212	13:12:38	10007	Trial	ResponseCR	14	0	175	0	107	13:12:38	1483765	4	3	3	3	3	3	3	1	3	7	7	0	0	0	0	5	3
112212	13:12:38	10007	Trial	CongruentRight	14	203	155	0	107	13:12:38	1483939	4	3	3	3	3	3	3	1	3	7	7	0	0	0	0	5	3
112212	13:12:38	10007	Trial	ResponseIL	14	0	175	0	107	13:12:38	1485471	4	3	3	3	3	3	3	1	3	7	7	0	0	0	0	5	3
112212	13:12:38	10007	Trial	IncongruentLeft	14	203	257	1	107	13:12:38	1485751	4	3	3	3	3	3	3	1	3	7	7	0	0	0	0	5	3
112212	13:12:38	10007	Trial	ResponseCL	14	0	175	0	107	13:12:38	1487177	4	3	3	3	3	3	3	1	3	7	7	0	0	0	0	5	3
112212	13:12:38	10007	Trial	CongruentLeft	14	203	231	1	107	13:12:38	1487430	4	3	3	3	3	3	3	1	3	7	7	0	0	0	0	5	3
112212	13:12:38	10007	Trial	ResponseCR	14	0	175	0	107	13:12:38	1488883	4	3	3	3	3	3	3	1	3	7	7	0	0	0	0	5	3
112212	13:12:38	10007	Trial	CongruentRight	14	205	285	1	107	13:12:38	1489190	4	3	3	3	3	3	3	1	3	7	7	0	0	0	0	5	3
112212	13:12:38	10007	Trial	ResponseIL	14	0	175	0	107	13:12:38	1490589	4	3	3	3	3	3	3	1	3	7	7	0	0	0	0	5	3
112212	13:12:38	10007	Trial	IncongruentLeft	14	203	291	1	107	13:12:38	1490909	4	3	3	3	3	3	3	1	3	7	7	0	0	0	0	5	3
112212	13:12:38	10007	Trial	ResponseIR	14	0	175	0	107	13:12:38	1492295	4	3	3	3	3	3	3	1	3	7	7	0	0	0	0	5	3
112212	13:12:38	10007	Trial	IncongruentRight	14	205	329	1	107	13:12:38	1492642	4	3	3	3	3	3	3	1	3	7	7	0	0	0	0	5	3
112212	13:12:38	10007	Trial	ResponseIR	14	0	175	0	107	13:12:38	1494001	4	3	3	3	3	3	3	1	3	7	7	0	0	0	0	5	3
112212	13:12:38	10007	Trial	IncongruentRight	14	205	239	1	107	13:12:38	1494268	4	3	3	3	3	3	3	1	3	7	7	0	0	0	0	5	3
112212	13:12:38	10007	Trial	ResponseCL	14	0	175	0	107	13:12:38	1495707	4	3	3	3	3	3	3	1	3	7	7	0	0	0	0	5	3
112212	13:12:38	10007	Trial	CongruentLeft	14	203	261	1	107	13:12:38	1495987	4	3	3	3	3	3	3	1	3	7	7	0	0	0	0	5	3
112212	13:12:38	10007	Trial	ResponseIL	14	0	175	0	107	13:12:38	1497413	4	3	3	3	3	3	3	1	3	7	7	0	0	0	0	5	3
112212	13:12:38	10007	Trial	IncongruentLeft	14	205	235	0	107	13:12:38	1497666	4	3	3	3	3	3	3	1	3	7	7	0	0	0	0	5	3
112212	13:12:38	10007	Trial	ResponseCR	14	0	175	0	107	13:12:38	1499119	4	3	3	3	3	3	3	1	3	7	7	0	0	0	0	5	3
112212	13:12:38	10007	Trial	CongruentRight	14	205	289	1	107	13:12:38	1499425	4	3	3	3	3	3	3	1	3	7	7	0	0	0	0	5	3
112212	13:12:38	10007	Trial	ResponseCL	14	0	175	0	107	13:12:38	1500825	4	3	3	3	3	3	3	1	3	7	7	0	0	0	0	5	3
112212	13:12:38	10007	Trial	CongruentLeft	14	203	439	1	107	13:12:38	1501292	4	3	3	3	3	3	3	1	3	7	7	0	0	0	0	5	3
112212	13:12:38	10007	Trial	ResponseIR	14	0	175	0	107	13:12:38	1502531	4	3	3	3	3	3	3	1	3	7	7	0	0	0	0	5	3
112212	13:12:38	10007	Trial	IncongruentRight	14	205	189	1	107	13:12:38	1502744	4	3	3	3	3	3	3	1	3	7	7	0	0	0	0	5	3
112212	13:12:38	10007	Trial	ResponseCR	14	0	175	0	107	13:12:38	1504237	4	3	3	3	3	3	3	1	3	7	7	0	0	0	0	5	3
112212	13:12:38	10007	Trial	CongruentRight	14	205	354	1	107	13:12:38	1504610	4	3	3	3	3	3	3	1	3	7	7	0	0	0	0	5	3
112212	13:12:38	10007	Trial	ResponseIL	14	0	175	0	107	13:12:38	1505943	4	3	3	3	3	3	3	1	3	7	7	0	0	0	0	5	3
112212	13:12:38	10007	Trial	IncongruentLeft	14	203	281	1	107	13:12:38	1506250	4	3	3	3	3	3	3	1	3	7	7	0	0	0	0	5	3
112212	13:12:38	10007	Trial	ResponseCL	14	0	175	0	107	13:12:38	1507649	4	3	3	3	3	3	3	1	3	7	7	0	0	0	0	5	3
112212	13:12:38	10007	Trial	CongruentLeft	14	203	303	1	107	13:12:38	1507969	4	3	3	3	3	3	3	1	3	7	7	0	0	0	0	5	3
112212	13:12:38	10007	Trial	ResponseIL	14	0	175	0	107	13:12:38	1509355	4	3	3	3	3	3	3	1	3	7	7	0	0	0	0	5	3
112212	13:12:38	10007	Trial	IncongruentLeft	14	205	117	0	107	13:12:38	1509488	4	3	3	3	3	3	3	1	3	7	7	0	0	0	0	5	3
112212	13:12:38	10007	Trial	ResponseIR	14	0	175	0	107	13:12:38	1511061	4	3	3	3	3	3	3	1	3	7	7	0	0	0	0	5	3
112212	13:12:38	10007	Trial	IncongruentRight	14	205	347	1	107	13:12:38	1511434	4	3	3	3	3	3	3	1	3	7	7	0	0	0	0	5	3
112212	13:12:38	10007	Trial	ResponseCR	14	0	175	0	107	13:12:38	1512767	4	3	3	3	3	3	3	1	3	7	7	0	0	0	0	5	3
112212	13:12:38	10007	Trial	CongruentRight	14	205	321	1	107	13:12:38	1513114	4	3	3	3	3	3	3	1	3	7	7	0	0	0	0	5	3
112212	13:12:38	10007	Trial	ResponseCL	14	0	175	0	107	13:12:38	1514473	4	3	3	3	3	3	3	1	3	7	7	0	0	0	0	5	3
112212	13:12:38	10007	Trial	CongruentLeft	14	203	279	1	107	13:12:38	1514780	4	3	3	3	3	3	3	1	3	7	7	0	0	0	0	5	3
112212	13:12:38	10007	Trial	ResponseCL	14	0	175	0	107	13:12:38	1516179	4	3	3	3	3	3	3	1	3	7	7	0	0	0	0	5	3
112212	13:12:38	10007	Trial	CongruentLeft	14	203	204	1	107	13:12:38	1516406	4	3	3	3	3	3	3	1	3	7	7	0	0	0	0	5	3
112212	13:12:38	10007	Trial	ResponseIR	14	0	175	0	107	13:12:38	1517885	4	3	3	3	3	3	3	1	3	7	7	0	0	0	0	5	3
112212	13:12:38	10007	Trial	IncongruentRight	14	203	146	0	107	13:12:38	1518058	4	3	3	3	3	3	3	1	3	7	7	0	0	0	0	5	3
112212	13:12:38	10007	Trial	ResponseIL	14	0	175	0	107	13:12:38	1519591	4	3	3	3	3	3	3	1	3	7	7	0	0	0	0	5	3
112212	13:12:38	10007	Trial	IncongruentLeft	14	203	392	1	107	13:12:38	1520004	4	3	3	3	3	3	3	1	3	7	7	0	0	0	0	5	3
112212	13:12:38	10007	Trial	ResponseIR	14	0	175	0	107	13:12:38	1521297	4	3	3	3	3	3	3	1	3	7	7	0	0	0	0	5	3
112212	13:12:38	10007	Trial	IncongruentRight	14	205	287	1	107	13:12:38	1521604	4	3	3	3	3	3	3	1	3	7	7	0	0	0	0	5	3
112212	13:12:38	10007	Trial	ResponseCR	14	0	175	0	107	13:12:38	1523003	4	3	3	3	3	3	3	1	3	7	7	0	0	0	0	5	3
112212	13:12:38	10007	Trial	CongruentRight	14	203	180	0	107	13:12:38	1523203	4	3	3	3	3	3	3	1	3	7	7	0	0	0	0	5	3
112212	13:12:38	10007	Trial	ResponseCR	14	0	175	0	107	13:12:38	1524709	4	3	3	3	3	3	3	1	3	7	7	0	0	0	0	5	3
112212	13:12:38	10007	Trial	CongruentRight	14	205	330	1	107	13:12:38	1525055	4	3	3	3	3	3	3	1	3	7	7	0	0	0	0	5	3
112212	13:12:38	10007	Trial	ResponseIL	14	0	175	0	107	13:12:38	1526415	4	3	3	3	3	3	3	1	3	7	7	0	0	0	0	5	3
112212	13:12:38	10007	Trial	IncongruentLeft	14	203	289	1	107	13:12:38	1526721	4	3	3	3	3	3	3	1	3	7	7	0	0	0	0	5	3
112212	13:12:38	10007	Trial	ResponseCL	14	0	175	0	107	13:12:38	1528121	4	3	3	3	3	3	3	1	3	7	7	0	0	0	0	5	3
112212	13:12:38	10007	Trial	CongruentLeft	14	203	294	1	107	13:12:38	1528441	4	3	3	3	3	3	3	1	3	7	7	0	0	0	0	5	3
112212	13:12:38	10007	Trial	ResponseCR	14	0	175	0	107	13:12:38	1529827	4	3	3	3	3	3	3	1	3	7	7	0	0	0	0	5	3
112212	13:12:38	10007	Trial	CongruentRight	14	205	332	1	107	13:12:38	1530187	4	3	3	3	3	3	3	1	3	7	7	0	0	0	0	5	3
112212	13:12:38	10007	Trial	ResponseCL	14	0	175	0	107	13:12:38	1531533	4	3	3	3	3	3	3	1	3	7	7	0	0	0	0	5	3
112212	13:12:38	10007	Trial	CongruentLeft	14	203	227	1	107	13:12:38	1531786	4	3	3	3	3	3	3	1	3	7	7	0	0	0	0	5	3
112212	13:12:38	10007	Trial	ResponseIR	14	0	175	0	107	13:12:38	1533239	4	3	3	3	3	3	3	1	3	7	7	0	0	0	0	5	3
112212	13:12:38	10007	Trial	IncongruentRight	14	205	360	1	107	13:12:38	1533625	4	3	3	3	3	3	3	1	3	7	7	0	0	0	0	5	3
112212	13:12:38	10007	Trial	ResponseCR	14	0	175	0	107	13:12:38	1534945	4	3	3	3	3	3	3	1	3	7	7	0	0	0	0	5	3
112212	13:12:38	10007	Trial	CongruentRight	14	205	254	1	107	13:12:38	1535224	4	3	3	3	3	3	3	1	3	7	7	0	0	0	0	5	3
112212	13:12:38	10007	Trial	ResponseCL	14	0	175	0	107	13:12:38	1536651	4	3	3	3	3	3	3	1	3	7	7	0	0	0	0	5	3
112212	13:12:38	10007	Trial	CongruentLeft	14	203	260	1	107	13:12:38	1536931	4	3	3	3	3	3	3	1	3	7	7	0	0	0	0	5	3
112212	13:12:38	10007	Trial	ResponseIL	14	0	175	0	107	13:12:38	1538357	4	3	3	3	3	3	3	1	3	7	7	0	0	0	0	5	3
112212	13:12:38	10007	Trial	IncongruentLeft	14	203	282	1	107	13:12:38	1538663	4	3	3	3	3	3	3	1	3	7	7	0	0	0	0	5	3
112212	13:12:38	10007	Trial	ResponseIL	14	0	175	0	107	13:12:38	1540063	4	3	3	3	3	3	3	1	3	7	7	0	0	0	0	5	3
112212	13:12:38	10007	Trial	IncongruentLeft	14	205	320	0	107	13:12:38	1540409	4	3	3	3	3	3	3	1	3	7	7	0	0	0	0	5	3
112212	13:12:38	10007	Trial	ResponseCR	14	0	175	0	107	13:12:38	1541769	4	3	3	3	3	3	3	1	3	7	7	0	0	0	0	5	3
112212	13:12:38	10007	Trial	CongruentRight	14	205	342	1	107	13:12:38	1542129	4	3	3	3	3	3	3	1	3	7	7	0	0	0	0	5	3
112212	13:12:38	10007	Trial	ResponseIR	14	0	175	0	107	13:12:38	1543475	4	3	3	3	3	3	3	1	3	7	7	0	0	0	0	5	3
112212	13:12:38	10007	Trial	IncongruentRight	14	203	237	0	107	13:12:38	1543728	4	3	3	3	3	3	3	1	3	7	7	0	0	0	0	5	3
112212	13:12:38	10007	Trial	ResponseCL	14	0	175	0	107	13:12:38	1545181	4	3	3	3	3	3	3	1	3	7	7	0	0	0	0	5	3
112212	13:12:38	10007	Trial	CongruentLeft	14	203	306	1	107	13:12:38	1545514	4	3	3	3	3	3	3	1	3	7	7	0	0	0	0	5	3
112212	13:12:38	10007	Trial	ResponseIR	14	0	175	0	107	13:12:38	1546887	4	3	3	3	3	3	3	1	3	7	7	0	0	0	0	5	3
112212	13:12:38	10007	Trial	IncongruentRight	14	205	296	1	107	13:12:38	1547206	4	3	3	3	3	3	3	1	3	7	7	0	0	0	0	5	3
112212	13:12:38	10007	Trial	ResponseCR	14	0	175	0	107	13:12:38	1548593	4	3	3	3	3	3	3	1	3	7	7	0	0	0	0	5	3
112212	13:12:38	10007	Trial	CongruentRight	14	205	206	1	107	13:12:38	1548819	4	3	3	3	3	3	3	1	3	7	7	0	0	0	0	5	3
112212	13:12:38	10007	Trial	ResponseIL	14	0	175	0	107	13:12:38	1550299	4	3	3	3	3	3	3	1	3	7	7	0	0	0	0	5	3
112212	13:12:38	10007	Trial	IncongruentLeft	14	203	292	1	107	13:12:38	1550618	4	3	3	3	3	3	3	1	3	7	7	0	0	0	0	5	3
112212	13:12:38	10007	Trial	ResponseCL	14	0	175	0	107	13:12:38	1552005	4	3	3	3	3	3	3	1	3	7	7	0	0	0	0	5	3
112212	13:12:38	10007	Trial	CongruentLeft	14	203	202	1	107	13:12:38	1552231	4	3	3	3	3	3	3	1	3	7	7	0	0	0	0	5	3
112212	13:12:38	10007	Trial	ResponseCR	14	0	175	0	107	13:12:38	1553711	4	3	3	3	3	3	3	1	3	7	7	0	0	0	0	5	3
112212	13:12:38	10007	Trial	CongruentRight	14	205	288	1	107	13:12:38	1554017	4	3	3	3	3	3	3	1	3	7	7	0	0	0	0	5	3
112212	13:12:38	10007	Trial	ResponseIL	14	0	175	0	107	13:12:38	1555417	4	3	3	3	3	3	3	1	3	7	7	0	0	0	0	5	3
112212	13:12:38	10007	Trial	IncongruentLeft	14	203	246	1	107	13:12:38	1555683	4	3	3	3	3	3	3	1	3	7	7	0	0	0	0	5	3
112212	13:12:38	10007	Trial	ResponseCR	14	0	175	0	107	13:12:38	1557123	4	3	3	3	3	3	3	1	3	7	7	0	0	0	0	5	3
112212	13:12:38	10007	Trial	CongruentRight	14	205	284	1	107	13:12:38	1557429	4	3	3	3	3	3	3	1	3	7	7	0	0	0	0	5	3
112212	13:12:38	10007	Trial	ResponseCR	14	0	175	0	107	13:12:38	1558828	4	3	3	3	3	3	3	1	3	7	7	0	0	0	0	5	3
112212	13:12:38	10007	Trial	CongruentRight	14	205	226	1	107	13:12:38	1559082	4	3	3	3	3	3	3	1	3	7	7	0	0	0	0	5	3
112212	13:12:38	10007	Trial	ResponseIR	14	0	175	0	107	13:12:38	1560534	4	3	3	3	3	3	3	1	3	7	7	0	0	0	0	5	3
112212	13:12:38	10007	Trial	IncongruentRight	14	205	248	1	107	13:12:38	1560801	4	3	3	3	3	3	3	1	3	7	7	0	0	0	0	5	3
112212	13:12:38	10007	Trial	ResponseCL	14	0	175	0	107	13:12:38	1562240	4	3	3	3	3	3	3	1	3	7	7	0	0	0	0	5	3
112212	13:12:38	10007	Trial	CongruentLeft	14	203	366	1	107	13:12:38	1562627	4	3	3	3	3	3	3	1	3	7	7	0	0	0	0	5	3
112212	13:12:38	10007	Trial	ResponseIL	14	0	175	0	107	13:12:38	1563946	4	3	3	3	3	3	3	1	3	7	7	0	0	0	0	5	3
112212	13:12:38	10007	Trial	IncongruentLeft	14	203	276	1	107	13:12:38	1564240	4	3	3	3	3	3	3	1	3	7	7	0	0	0	0	5	3
112212	13:12:38	10007	Trial	ResponseCL	14	0	175	0	107	13:12:38	1565652	4	3	3	3	3	3	3	1	3	7	7	0	0	0	0	5	3
112212	13:12:38	10007	Trial	CongruentLeft	14	203	138	1	107	13:12:38	1565812	4	3	3	3	3	3	3	1	3	7	7	0	0	0	0	5	3
112212	13:12:38	10007	Trial	ResponseIR	14	0	175	0	107	13:12:38	1567358	4	3	3	3	3	3	3	1	3	7	7	0	0	0	0	5	3
112212	13:12:38	10007	Trial	IncongruentRight	14	203	112	0	107	13:12:38	1567491	4	3	3	3	3	3	3	1	3	7	7	0	0	0	0	5	3
112212	13:12:38	10007	Trial	ResponseIL	14	0	175	0	107	13:12:38	1569064	4	3	3	3	3	3	3	1	3	7	7	0	0	0	0	5	3
112212	13:12:38	10007	Trial	IncongruentLeft	14	203	342	1	107	13:12:38	1569424	4	3	3	3	3	3	3	1	3	7	7	0	0	0	0	5	3
112212	13:12:38	10007	Trial	ResponseCR	14	0	175	0	107	13:12:38	1570770	4	3	3	3	3	3	3	1	3	7	7	0	0	0	0	5	3
112212	13:12:38	10007	Trial	CongruentRight	14	205	252	1	107	13:12:38	1571050	4	3	3	3	3	3	3	1	3	7	7	0	0	0	0	5	3
112212	13:12:38	10007	Trial	ResponseCL	14	0	175	0	107	13:12:38	1572476	4	3	3	3	3	3	3	1	3	7	7	0	0	0	0	5	3
112212	13:12:38	10007	Trial	CongruentLeft	14	203	242	1	107	13:12:38	1572743	4	3	3	3	3	3	3	1	3	7	7	0	0	0	0	5	3
112212	13:12:38	10007	Trial	ResponseIL	14	0	175	0	107	13:12:38	1574183	4	3	3	3	3	3	3	1	3	7	7	0	0	0	0	5	3
112212	13:12:38	10007	Trial	IncongruentLeft	14	203	328	1	107	13:12:38	1574529	4	3	3	3	3	3	3	1	3	7	7	0	0	0	0	5	3
112212	13:12:38	10007	Trial	ResponseCL	14	0	175	0	107	13:12:38	1575888	4	3	3	3	3	3	3	1	3	7	7	0	0	0	0	5	3
112212	13:12:38	10007	Trial	CongruentLeft	14	203	142	1	107	13:12:38	1576048	4	3	3	3	3	3	3	1	3	7	7	0	0	0	0	5	3
112212	13:12:38	10007	Trial	ResponseIR	14	0	175	0	107	13:12:38	1577594	4	3	3	3	3	3	3	1	3	7	7	0	0	0	0	5	3
112212	13:12:38	10007	Trial	IncongruentRight	14	203	164	0	107	13:12:38	1577781	4	3	3	3	3	3	3	1	3	7	7	0	0	0	0	5	3
112212	13:12:38	10007	Trial	ResponseCR	14	0	175	0	107	13:12:38	1579300	4	3	3	3	3	3	3	1	3	7	7	0	0	0	0	5	3
112212	13:12:38	10007	Trial	CongruentRight	14	205	186	1	107	13:12:38	1579513	4	3	3	3	3	3	3	1	3	7	7	0	0	0	0	5	3
112212	13:12:38	10007	Trial	ResponseIL	14	0	175	0	107	13:12:38	1581006	4	3	3	3	3	3	3	1	3	7	7	0	0	0	0	5	3
112212	13:12:38	10007	Trial	IncongruentLeft	14	203	256	1	107	13:12:38	1581286	4	3	3	3	3	3	3	1	3	7	7	0	0	0	0	5	3
112212	13:12:38	10007	Trial	ResponseCL	14	0	175	0	107	13:12:38	1582712	4	3	3	3	3	3	3	1	3	7	7	0	0	0	0	5	3
112212	13:12:38	10007	Trial	CongruentLeft	14	203	230	1	107	13:12:38	1582965	4	3	3	3	3	3	3	1	3	7	7	0	0	0	0	5	3
112212	13:12:38	10007	Trial	ResponseIR	14	0	175	0	107	13:12:38	1584418	4	3	3	3	3	3	3	1	3	7	7	0	0	0	0	5	3
112212	13:12:38	10007	Trial	IncongruentRight	14	205	364	1	107	13:12:38	1584804	4	3	3	3	3	3	3	1	3	7	7	0	0	0	0	5	3
112212	13:12:38	10007	Trial	ResponseIL	14	0	175	0	107	13:12:38	1586124	4	3	3	3	3	3	3	1	3	7	7	0	0	0	0	5	3
112212	13:12:38	10007	Trial	IncongruentLeft	14	203	354	1	107	13:12:38	1586497	4	3	3	3	3	3	3	1	3	7	7	0	0	0	0	5	3
112212	13:12:38	10007	Trial	ResponseCL	14	0	175	0	107	13:12:38	1587830	4	3	3	3	3	3	3	1	3	7	7	0	0	0	0	5	3
112212	13:12:38	10007	Trial	CongruentLeft	14	203	200	1	107	13:12:38	1588057	4	3	3	3	3	3	3	1	3	7	7	0	0	0	0	5	3
112212	13:12:38	10007	Trial	ResponseIL	14	0	175	0	107	13:12:38	1589536	4	3	3	3	3	3	3	1	3	7	7	0	0	0	0	5	3
112212	13:12:38	10007	Trial	IncongruentLeft	14	203	269	1	107	13:12:38	1589829	4	3	3	3	3	3	3	1	3	7	7	0	0	0	0	5	3
112212	13:12:38	10007	Trial	ResponseCR	14	0	175	0	107	13:12:38	1591242	4	3	3	3	3	3	3	1	3	7	7	0	0	0	0	5	3
112212	13:12:38	10007	Trial	CongruentRight	14	205	324	1	107	13:12:38	1591589	4	3	3	3	3	3	3	1	3	7	7	0	0	0	0	5	3
112212	13:12:38	10007	Trial	ResponseCL	14	0	175	0	107	13:12:38	1592948	4	3	3	3	3	3	3	1	3	7	7	0	0	0	0	5	3
112212	13:12:38	10007	Trial	CongruentLeft	14	203	314	1	107	13:12:38	1593281	4	3	3	3	3	3	3	1	3	7	7	0	0	0	0	5	3
112212	13:12:38	10007	Trial	ResponseIR	14	0	175	0	107	13:12:38	1594654	4	3	3	3	3	3	3	1	3	7	7	0	0	0	0	5	3
112212	13:12:38	10007	Trial	IncongruentRight	14	205	336	1	107	13:12:38	1595014	4	3	3	3	3	3	3	1	3	7	7	0	0	0	0	5	3
112212	13:12:38	10007	Trial	ResponseCL	14	0	175	0	107	13:12:38	1596360	4	3	3	3	3	3	3	1	3	7	7	0	0	0	0	5	3
112212	13:12:38	10007	Trial	CongruentLeft	14	203	294	1	107	13:12:38	1596680	4	3	3	3	3	3	3	1	3	7	7	0	0	0	0	5	3
112212	13:12:38	10007	Trial	ResponseCR	14	0	175	0	107	13:12:38	1598066	4	3	3	3	3	3	3	1	3	7	7	0	0	0	0	5	3
112212	13:12:38	10007	Trial	CongruentRight	14	205	284	1	107	13:12:38	1598373	4	3	3	3	3	3	3	1	3	7	7	0	0	0	0	5	3
112212	13:12:38	10007	Trial	ResponseIL	14	0	175	0	107	13:12:38	1599772	4	3	3	3	3	3	3	1	3	7	7	0	0	0	0	5	3
112212	13:12:38	10007	Trial	IncongruentLeft	14	203	226	1	107	13:12:38	1600025	4	3	3	3	3	3	3	1	3	7	7	0	0	0	0	5	3
112212	13:12:38	10007	WordsAbsFr6mo	PAbsFr6mo1	16	Abs1	3950	0	107	13:12:38	1614473	4	3	3	3	3	3	3	1	3	7	7	0	0	0	0	5	3
112212	13:12:38	10007	WordsAbsFr6mo	AbsFr6mo1	16	Abs1	2421	0	107	13:12:38	1616925	4	3	3	3	3	3	3	1	3	7	7	1	0	0	0	5	3
112212	13:12:38	10007	WordsAbsFr6mo	AbsFr6mo2	16	Abs1	3297	0	107	13:12:38	1620257	4	3	3	3	3	3	3	1	3	7	7	2	0	0	0	5	3
112212	13:12:38	10007	WordsAbsFr6mo	AbsFr6mo3	16	Abs1	3933	0	107	13:12:38	1624229	4	3	3	3	3	3	3	1	3	7	7	3	0	0	0	5	3
112212	13:12:38	10007	Trial2BackFrS	NS	17	0	1000	1	107	13:12:38	1730199	4	3	3	3	3	3	3	1	3	7	7	3	0	0	0	5	3
112212	13:12:38	10007	Trial2BackFrS	NS	17	0	1000	1	107	13:12:38	1731705	4	3	3	3	3	3	3	1	3	7	7	3	0	0	0	5	3
112212	13:12:38	10007	Trial2BackFrS	NS	17	0	1000	1	107	13:12:38	1733211	4	3	3	3	3	3	3	1	3	7	7	3	0	0	0	5	3
112212	13:12:38	10007	Trial2BackFrS	YS	17	0	1000	0	107	13:12:38	1734717	4	3	3	3	3	3	3	1	3	7	7	3	0	0	0	5	3
112212	13:12:38	10007	Trial2BackFrS	NS	17	0	1000	1	107	13:12:38	1736223	4	3	3	3	3	3	3	1	3	7	7	3	0	0	0	5	3
112212	13:12:38	10007	Trial2BackFrS	NS	17	0	1000	1	107	13:12:38	1737729	4	3	3	3	3	3	3	1	3	7	7	3	0	0	0	5	3
112212	13:12:38	10007	Trial2BackFrS	NS	17	0	1000	1	107	13:12:38	1739249	4	3	3	3	3	3	3	1	3	7	7	3	0	0	0	5	3
112212	13:12:38	10007	Trial2BackFrS	NS	17	0	1000	1	107	13:12:38	1740755	4	3	3	3	3	3	3	1	3	7	7	3	0	0	0	5	3
112212	13:12:38	10007	Trial2BackFrS	YS	17	57	284	1	107	13:12:38	1741555	4	3	3	3	3	3	3	1	3	7	7	3	0	0	0	5	3
112212	13:12:38	10007	Trial2BackFrS	NS	17	0	1000	1	107	13:12:38	1743767	4	3	3	3	3	3	3	1	3	7	7	3	0	0	0	5	3
112212	13:12:38	10007	Trial2BackFrS	NS	17	0	1000	1	107	13:12:38	1745273	4	3	3	3	3	3	3	1	3	7	7	3	0	0	0	5	3
112212	13:12:38	10007	Trial2BackFrS	YS	17	0	1000	0	107	13:12:38	1746779	4	3	3	3	3	3	3	1	3	7	7	3	0	0	0	5	3
112212	13:12:38	10007	Trial2BackFrS	NS	17	0	1000	1	107	13:12:38	1748298	4	3	3	3	3	3	3	1	3	7	7	3	0	0	0	5	3
112212	13:12:38	10007	Trial2BackFrS	NS	17	0	1000	1	107	13:12:38	1749805	4	3	3	3	3	3	3	1	3	7	7	3	0	0	0	5	3
112212	13:12:38	10007	Trial2BackFrS	NS	17	0	1000	1	107	13:12:38	1751324	4	3	3	3	3	3	3	1	3	7	7	3	0	0	0	5	3
112212	13:12:38	10007	Trial2BackFrS	YS	17	0	1000	0	107	13:12:38	1752830	4	3	3	3	3	3	3	1	3	7	7	3	0	0	0	5	3
112212	13:12:38	10007	Trial2BackFrS	NS	17	0	1000	1	107	13:12:38	1754336	4	3	3	3	3	3	3	1	3	7	7	3	0	0	0	5	3
112212	13:12:38	10007	Trial2BackFrS	NS	17	0	1000	1	107	13:12:38	1755842	4	3	3	3	3	3	3	1	3	7	7	3	0	0	0	5	3
112212	13:12:38	10007	Trial2BackFrS	NS	17	0	1000	1	107	13:12:38	1757348	4	3	3	3	3	3	3	1	3	7	7	3	0	0	0	5	3
112212	13:12:38	10007	Trial2BackFrS	NS	17	0	1000	1	107	13:12:38	1758854	4	3	3	3	3	3	3	1	3	7	7	3	0	0	0	5	3
112212	13:12:38	10007	Trial2BackFrS	YS	17	57	360	1	107	13:12:38	1759734	4	3	3	3	3	3	3	1	3	7	7	3	0	0	0	5	3
112212	13:12:38	10007	Trial2BackFrS	NS	17	0	1000	1	107	13:12:38	1761866	4	3	3	3	3	3	3	1	3	7	7	3	0	0	0	5	3
112212	13:12:38	10007	Trial2BackFrS	NS	17	0	1000	1	107	13:12:38	1763372	4	3	3	3	3	3	3	1	3	7	7	3	0	0	0	5	3
112212	13:12:38	10007	Trial2BackFrS	NS	17	0	1000	1	107	13:12:38	1764878	4	3	3	3	3	3	3	1	3	7	7	3	0	0	0	5	3
112212	13:12:38	10007	Trial2BackFrS	NS	17	0	1000	1	107	13:12:38	1766384	4	3	3	3	3	3	3	1	3	7	7	3	0	0	0	5	3
112212	13:12:38	10007	Trial2BackFrS	NS	17	57	686	0	107	13:12:38	1767584	4	3	3	3	3	3	3	1	3	7	7	3	0	0	0	5	3
112212	13:12:38	10007	Trial2BackFrS	NS	17	0	1000	1	107	13:12:38	1769397	4	3	3	3	3	3	3	1	3	7	7	3	0	0	0	5	3
112212	13:12:38	10007	Trial2BackFrS	NS	17	0	1000	1	107	13:12:38	1770903	4	3	3	3	3	3	3	1	3	7	7	3	0	0	0	5	3
112212	13:12:38	10007	Trial2BackFrS	NS	17	0	1000	1	107	13:12:38	1772409	4	3	3	3	3	3	3	1	3	7	7	3	0	0	0	5	3
112212	13:12:38	10007	Trial2BackFrS	NS	17	0	1000	1	107	13:12:38	1773915	4	3	3	3	3	3	3	1	3	7	7	3	0	0	0	5	3
112212	13:12:38	10007	Trial2BackFrS	NS	17	0	1000	1	107	13:12:38	1775421	4	3	3	3	3	3	3	1	3	7	7	3	0	0	0	5	3
112212	13:12:38	10007	Trial2BackFrS	YS	17	0	1000	0	107	13:12:38	1776927	4	3	3	3	3	3	3	1	3	7	7	3	0	0	0	5	3
112212	13:12:38	10007	Trial2BackFrS	NS	17	0	1000	1	107	13:12:38	1778433	4	3	3	3	3	3	3	1	3	7	7	3	0	0	0	5	3
112212	13:12:38	10007	Trial2BackFrS	NS	17	0	1000	1	107	13:12:38	1779939	4	3	3	3	3	3	3	1	3	7	7	3	0	0	0	5	3
112212	13:12:38	10007	Trial2BackFrS	NS	17	0	1000	1	107	13:12:38	1781445	4	3	3	3	3	3	3	1	3	7	7	3	0	0	0	5	3
112212	13:12:38	10007	Trial2BackFrS	YS	17	0	1000	0	107	13:12:38	1782951	4	3	3	3	3	3	3	1	3	7	7	3	0	0	0	5	3
112212	13:12:38	10007	Trial2BackFrS	NS	17	0	1000	1	107	13:12:38	1784457	4	3	3	3	3	3	3	1	3	7	7	3	0	0	0	5	3
112212	13:12:38	10007	Trial2BackFrS	NS	17	0	1000	1	107	13:12:38	1785963	4	3	3	3	3	3	3	1	3	7	7	3	0	0	0	5	3
112212	13:12:38	10007	Trial2BackFrS	NS	17	0	1000	1	107	13:12:38	1787469	4	3	3	3	3	3	3	1	3	7	7	3	0	0	0	5	3
112212	13:12:38	10007	Trial2BackFrS	NS	17	0	1000	1	107	13:12:38	1788975	4	3	3	3	3	3	3	1	3	7	7	3	0	0	0	5	3
112212	13:12:38	10007	Trial2BackFrS	NS	17	0	1000	1	107	13:12:38	1790482	4	3	3	3	3	3	3	1	3	7	7	3	0	0	0	5	3
112212	13:12:38	10007	Trial2BackFrS	NS	17	0	1000	1	107	13:12:38	1792001	4	3	3	3	3	3	3	1	3	7	7	3	0	0	0	5	3
112212	13:12:38	10007	Trial2BackFrS	NS	17	0	1000	1	107	13:12:38	1793507	4	3	3	3	3	3	3	1	3	7	7	3	0	0	0	5	3
112212	13:12:38	10007	Trial2BackFrS	YS	17	57	779	1	107	13:12:38	1794800	4	3	3	3	3	3	3	1	3	7	7	3	0	0	0	5	3
112212	13:12:38	10007	Trial2BackFrS	NS	17	0	1000	1	107	13:12:38	1796519	4	3	3	3	3	3	3	1	3	7	7	3	0	0	0	5	3
112212	13:12:38	10007	Trial2BackFrS	NS	17	0	1000	1	107	13:12:38	1798025	4	3	3	3	3	3	3	1	3	7	7	3	0	0	0	5	3
112212	13:12:38	10007	Trial2BackFrS	NS	17	0	1000	1	107	13:12:38	1799531	4	3	3	3	3	3	3	1	3	7	7	3	0	0	0	5	3
112212	13:12:38	10007	Trial2BackFrS	NS	17	0	1000	1	107	13:12:38	1801037	4	3	3	3	3	3	3	1	3	7	7	3	0	0	0	5	3
112212	13:12:38	10007	Trial2BackFrS	YS	17	57	656	1	107	13:12:38	1802210	4	3	3	3	3	3	3	1	3	7	7	3	0	0	0	5	3
112212	13:12:38	10007	Trial2BackFrS	NS	17	0	1000	1	107	13:12:38	1804049	4	3	3	3	3	3	3	1	3	7	7	3	0	0	0	5	3
112212	13:12:38	10007	Trial2BackFrS	NS	17	0	1000	1	107	13:12:38	1805555	4	3	3	3	3	3	3	1	3	7	7	3	0	0	0	5	3
112212	13:12:38	10007	Trial2BackFrS	NS	17	0	1000	1	107	13:12:38	1807061	4	3	3	3	3	3	3	1	3	7	7	3	0	0	0	5	3
112212	13:12:38	10007	Trial2BackFrS	NS	17	0	1000	1	107	13:12:38	1808567	4	3	3	3	3	3	3	1	3	7	7	3	0	0	0	5	3
112212	13:12:38	10007	Trial2BackFrS	NS	17	0	1000	1	107	13:12:38	1810074	4	3	3	3	3	3	3	1	3	7	7	3	0	0	0	5	3
112212	13:12:38	10007	Trial2BackFrS	NS	17	0	1000	1	107	13:12:38	1811580	4	3	3	3	3	3	3	1	3	7	7	3	0	0	0	5	3
112212	13:12:38	10007	Trial2BackFrS	YS	17	0	1000	0	107	13:12:38	1813086	4	3	3	3	3	3	3	1	3	7	7	3	0	0	0	5	3
112212	13:12:38	10007	Trial2BackFrS	NS	17	0	1000	1	107	13:12:38	1814592	4	3	3	3	3	3	3	1	3	7	7	3	0	0	0	5	3
112212	13:12:38	10007	Trial2BackFrS	NS	17	0	1000	1	107	13:12:38	1816098	4	3	3	3	3	3	3	1	3	7	7	3	0	0	0	5	3
112212	13:12:38	10007	Trial2BackFrS	NS	17	0	1000	1	107	13:12:38	1817604	4	3	3	3	3	3	3	1	3	7	7	3	0	0	0	5	3
112212	13:12:38	10007	Trial2BackFrS	NS	17	0	1000	1	107	13:12:38	1819110	4	3	3	3	3	3	3	1	3	7	7	3	0	0	0	5	3
112212	13:12:38	10007	Trial2BackFrS	NS	17	0	1000	1	107	13:12:38	1820616	4	3	3	3	3	3	3	1	3	7	7	3	0	0	0	5	3
112212	13:12:38	10007	Trial2BackFrS	NS	17	0	1000	1	107	13:12:38	1822122	4	3	3	3	3	3	3	1	3	7	7	3	0	0	0	5	3
112212	13:12:38	10007	Trial2BackFrS	NS	17	0	1000	1	107	13:12:38	1823628	4	3	3	3	3	3	3	1	3	7	7	3	0	0	0	5	3
112212	13:12:38	10007	Trial2BackFrS	YS	17	0	1000	0	107	13:12:38	1825134	4	3	3	3	3	3	3	1	3	7	7	3	0	0	0	5	3
112212	13:12:38	10007	Trial2BackFrS	NS	17	0	1000	1	107	13:12:38	1826640	4	3	3	3	3	3	3	1	3	7	7	3	0	0	0	5	3
112212	13:12:38	10007	Trial2BackFrS	NS	17	0	1000	1	107	13:12:38	1828146	4	3	3	3	3	3	3	1	3	7	7	3	0	0	0	5	3
112212	13:12:38	10007	Trial2BackFrS	NS	17	0	1000	1	107	13:12:38	1829652	4	3	3	3	3	3	3	1	3	7	7	3	0	0	0	5	3
112212	13:12:38	10007	Trial2BackFrS	NS	17	0	1000	1	107	13:12:38	1831172	4	3	3	3	3	3	3	1	3	7	7	3	0	0	0	5	3
112212	13:12:38	10007	Trial2BackFrS	YS	17	0	1000	0	107	13:12:38	1832678	4	3	3	3	3	3	3	1	3	7	7	3	0	0	0	5	3
112212	13:12:38	10007	Trial2BackFrS	NS	17	0	1000	1	107	13:12:38	1834184	4	3	3	3	3	3	3	1	3	7	7	3	0	0	0	5	3
112212	13:12:38	10007	Trial2BackFrS	NS	17	0	1000	1	107	13:12:38	1835690	4	3	3	3	3	3	3	1	3	7	7	3	0	0	0	5	3
112212	13:12:38	10007	Trial2BackFrS	YS	17	57	515	1	107	13:12:38	1836716	4	3	3	3	3	3	3	1	3	7	7	3	0	0	0	5	3
112212	13:12:38	10007	Trial2BackFrS	NS	17	0	1000	1	107	13:12:38	1838702	4	3	3	3	3	3	3	1	3	7	7	3	0	0	0	5	3
112212	13:12:38	10007	Trial2BackFrS	NS	17	0	1000	1	107	13:12:38	1840208	4	3	3	3	3	3	3	1	3	7	7	3	0	0	0	5	3
112212	13:12:38	10007	Trial2BackFrS	NS	17	0	1000	1	107	13:12:38	1841714	4	3	3	3	3	3	3	1	3	7	7	3	0	0	0	5	3
112212	13:12:38	10007	Trial2BackFrS	NS	17	0	1000	1	107	13:12:38	1843220	4	3	3	3	3	3	3	1	3	7	7	3	0	0	0	5	3
112212	13:12:38	10007	Trial2BackFrS	NS	17	0	1000	1	107	13:12:38	1844726	4	3	3	3	3	3	3	1	3	7	7	3	0	0	0	5	3
112212	13:12:38	10007	Trial2BackFrS	NS	17	0	1000	1	107	13:12:38	1846232	4	3	3	3	3	3	3	1	3	7	7	3	0	0	0	5	3
112212	13:12:38	10007	Trial2BackFrS	YS	17	0	1000	0	107	13:12:38	1847738	4	3	3	3	3	3	3	1	3	7	7	3	0	0	0	5	3
112212	13:12:38	10007	Trial2BackFrS	NS	17	0	1000	1	107	13:12:38	1849244	4	3	3	3	3	3	3	1	3	7	7	3	0	0	0	5	3
112212	13:12:38	10007	Trial2BackFrS	NS	17	0	1000	1	107	13:12:38	1850750	4	3	3	3	3	3	3	1	3	7	7	3	0	0	0	5	3
112212	13:12:38	10007	Trial2BackFrS	NS	17	0	1000	1	107	13:12:38	1852256	4	3	3	3	3	3	3	1	3	7	7	3	0	0	0	5	3
112212	13:12:38	10007	Trial2BackFrS	NS	17	0	1000	1	107	13:12:38	1853762	4	3	3	3	3	3	3	1	3	7	7	3	0	0	0	5	3
112212	13:12:38	10007	Trial2BackFrS	YS	17	0	1000	0	107	13:12:38	1855268	4	3	3	3	3	3	3	1	3	7	7	3	0	0	0	5	3
112212	13:12:38	10007	Trial2BackFrS	NS	17	57	263	0	107	13:12:38	1856041	4	3	3	3	3	3	3	1	3	7	7	3	0	0	0	5	3
112212	13:12:38	10007	Trial2BackFrS	NS	17	0	1000	1	107	13:12:38	1858281	4	3	3	3	3	3	3	1	3	7	7	3	0	0	0	5	3
112212	13:12:38	10007	Trial2BackFrS	NS	17	0	1000	1	107	13:12:38	1859787	4	3	3	3	3	3	3	1	3	7	7	3	0	0	0	5	3
112212	13:12:38	10007	Trial2BackFrS	NS	17	0	1000	1	107	13:12:38	1861293	4	3	3	3	3	3	3	1	3	7	7	3	0	0	0	5	3
112212	13:12:38	10007	Trial2BackFrS	YS	17	0	1000	0	107	13:12:38	1862799	4	3	3	3	3	3	3	1	3	7	7	3	0	0	0	5	3
112212	13:12:38	10007	Trial2BackFrS	NS	17	57	733	0	107	13:12:38	1864052	4	3	3	3	3	3	3	1	3	7	7	3	0	0	0	5	3
112212	13:12:38	10007	Trial2BackFrS	NS	17	0	1000	1	107	13:12:38	1865811	4	3	3	3	3	3	3	1	3	7	7	3	0	0	0	5	3
112212	13:12:38	10007	Trial2BackFrS	YS	17	57	777	1	107	13:12:38	1867104	4	3	3	3	3	3	3	1	3	7	7	3	0	0	0	5	3
112212	13:12:38	10007	Trial2BackFrS	NS	17	0	1000	1	107	13:12:38	1868823	4	3	3	3	3	3	3	1	3	7	7	3	0	0	0	5	3
112212	13:12:38	10007	Trial2BackFrS	NS	17	0	1000	1	107	13:12:38	1870329	4	3	3	3	3	3	3	1	3	7	7	3	0	0	0	5	3
112212	13:12:38	10007	Trial2BackFrS	NS	17	0	1000	1	107	13:12:38	1871835	4	3	3	3	3	3	3	1	3	7	7	3	0	0	0	5	3
112212	13:12:38	10007	Trial2BackFrS	NS	17	57	512	0	107	13:12:38	1872861	4	3	3	3	3	3	3	1	3	7	7	3	0	0	0	5	3
112212	13:12:38	10007	Trial2BackFrS	NS	17	0	1000	1	107	13:12:38	1874847	4	3	3	3	3	3	3	1	3	7	7	3	0	0	0	5	3
112212	13:12:38	10007	Trial2BackFrS	NS	17	0	1000	1	107	13:12:38	1876367	4	3	3	3	3	3	3	1	3	7	7	3	0	0	0	5	3
112212	13:12:38	10007	Trial2BackFrS	NS	17	0	1000	1	107	13:12:38	1877873	4	3	3	3	3	3	3	1	3	7	7	3	0	0	0	5	3
112212	13:12:38	10007	Trial2BackFrS	NS	17	57	507	0	107	13:12:38	1878899	4	3	3	3	3	3	3	1	3	7	7	3	0	0	0	5	3
112212	13:12:38	10007	Trial2BackFrS	YS	17	0	1000	0	107	13:12:38	1880885	4	3	3	3	3	3	3	1	3	7	7	3	0	0	0	5	3
112212	13:12:38	10007	Trial2BackFrS	NS	17	0	1000	1	107	13:12:38	1882391	4	3	3	3	3	3	3	1	3	7	7	3	0	0	0	5	3
112212	13:12:38	10007	Trial2BackFrS	NS	17	0	1000	1	107	13:12:38	1883897	4	3	3	3	3	3	3	1	3	7	7	3	0	0	0	5	3
112212	13:12:38	10007	Trial2BackFrS	NS	17	0	1000	1	107	13:12:38	1885403	4	3	3	3	3	3	3	1	3	7	7	3	0	0	0	5	3
112212	13:12:38	10007	Trial2BackFrS	NS	17	0	1000	1	107	13:12:38	1886909	4	3	3	3	3	3	3	1	3	7	7	3	0	0	0	5	3
112212	13:12:38	10007	Trial2BackFrS	NS	17	0	1000	1	107	13:12:38	1888415	4	3	3	3	3	3	3	1	3	7	7	3	0	0	0	5	3
112212	13:12:38	10007	Trial2BackFrS	NS	17	0	1000	1	107	13:12:38	1889921	4	3	3	3	3	3	3	1	3	7	7	3	0	0	0	5	3
112212	13:12:38	10007	Trial2BackFrS	NS	17	0	1000	1	107	13:12:38	1891427	4	3	3	3	3	3	3	1	3	7	7	3	0	0	0	5	3
112212	13:12:38	10007	Trial2BackFrS	YS	17	0	1000	0	107	13:12:38	1892933	4	3	3	3	3	3	3	1	3	7	7	3	0	0	0	5	3
112212	13:12:38	10007	Trial2BackFrS	NS	17	0	1000	1	107	13:12:38	1894439	4	3	3	3	3	3	3	1	3	7	7	3	0	0	0	5	3
112212	13:12:38	10007	Trial2BackFrS	NS	17	0	1000	1	107	13:12:38	1895945	4	3	3	3	3	3	3	1	3	7	7	3	0	0	0	5	3
112212	13:12:38	10007	Trial2BackFrS	NS	17	0	1000	1	107	13:12:38	1897451	4	3	3	3	3	3	3	1	3	7	7	3	0	0	0	5	3
112212	13:12:38	10007	Trial2BackFrS	NS	17	0	1000	1	107	13:12:38	1898957	4	3	3	3	3	3	3	1	3	7	7	3	0	0	0	5	3
112212	13:12:38	10007	Trial2BackFrS	NS	17	0	1000	1	107	13:12:38	1900463	4	3	3	3	3	3	3	1	3	7	7	3	0	0	0	5	3
112212	13:12:38	10007	Trial2BackFrS	NS	17	0	1000	1	107	13:12:38	1901970	4	3	3	3	3	3	3	1	3	7	7	3	0	0	0	5	3
112212	13:12:38	10007	Trial2BackFrS	NS	17	0	1000	1	107	13:12:38	1903476	4	3	3	3	3	3	3	1	3	7	7	3	0	0	0	5	3
112212	13:12:38	10007	Trial2BackFrS	NS	17	0	1000	1	107	13:12:38	1904995	4	3	3	3	3	3	3	1	3	7	7	3	0	0	0	5	3
112212	13:12:38	10007	Trial2BackFrS	NS	17	57	632	0	107	13:12:38	1906141	4	3	3	3	3	3	3	1	3	7	7	3	0	0	0	5	3
112212	13:12:38	10007	Trial2BackFrS	YS	17	0	1000	0	107	13:12:38	1908007	4	3	3	3	3	3	3	1	3	7	7	3	0	0	0	5	3
112212	13:12:38	10007	Trial2BackFrS	NS	17	0	1000	1	107	13:12:38	1909513	4	3	3	3	3	3	3	1	3	7	7	3	0	0	0	5	3
112212	13:12:38	10007	ClockFr6mo	ClockFr6mo	19	Clock1	37628	0	107	13:12:38	1947258	4	3	3	3	3	3	3	1	3	7	7	3	1	0	0	5	3
112212	13:12:38	10007	ClockFr6mo	ClockFr6mo	19	Clock11	494	0	107	13:12:38	1947805	4	3	3	3	3	3	3	1	3	7	7	3	1	1	0	5	3
112212	13:12:38	10007	ClockFr6mo	ClockFr6mo	19	Clock111	511	0	107	13:12:38	1948378	4	3	3	3	3	3	3	1	3	7	7	3	1	1	1	5	3
112212	13:12:38	10007	ClockFr6mo	ClockFr6mo	19	Clockdone	343	0	107	13:12:38	1948764	4	3	3	3	3	3	3	1	3	7	7	3	1	1	1	5	3
112212	13:12:38	10007	FASFrVF6mo	StopFrVF6mo	20	11	9603	0	107	13:12:38	2050205	4	3	3	3	3	3	3	1	3	7	7	3	1	1	1	5	3
