date	time	subject	blockcode	trialcode	values.TaskNumber	response	latency	correct	values.Score	script.starttime	script.elapsedtime	values.ScoreS7	values.Word1	values.Word2	values.Word3	values.Word4	values.Word5	values.Word6	values.Word7	values.Word8	values.DigitSpanFwrd	values.DigitSpanBack	values.ScoreAbs	values.Contour	values.Numbers	values.Hands	values.corsiblockspanFwrd	values.corsiblockspanRev	values.problemnumber	values.subjectattempts	values.targetmoves	values.subjectmoves	expressions.excessmoves	values.movestring	expressions.targetachieved	values.problemscore	values.totalscoreTOL	expressions.firstmovetime	expressions.executiontime	expressions.solutiontime	values.t_choicestart	values.t_choiceend
011013	08:03:03	10019	Language	Language	0	French	82312	0	0	08:03:03	82465	0	0	0	0	0	0	0	0	0	0	0	0	0	0	0	0	0	0	0	0	0	0		1	0	0	0	0	0	0	0
011013	08:03:03	10019	Session	Session	0	6mo	758	0	0	08:03:03	83291	0	0	0	0	0	0	0	0	0	0	0	0	0	0	0	0	0	0	0	0	0	0		1	0	0	0	0	0	0	0
011013	08:03:03	10019	HandFr	HandFr	0	RightFr	1083	0	0	08:03:03	84438	0	0	0	0	0	0	0	0	0	0	0	0	0	0	0	0	0	0	0	0	0	0		1	0	0	0	0	0	0	0
011013	08:03:03	10019	AudioCheckFr	WordsFr	0	0	0	0	0	08:03:03	866079	0	0	0	0	0	0	0	0	0	0	0	0	0	0	0	0	0	0	0	0	0	0		1	0	0	0	0	0	0	0
011013	08:03:03	10019	CubeFr	CubeFr	1	1Cube	73549	0	0	08:03:03	940743	0	0	0	0	0	0	0	0	0	0	0	0	0	0	0	0	0	0	0	0	0	0		1	0	0	0	0	0	0	0
011013	08:03:03	10019	pm.simpleFrRight	blank.simpleFr	2	0	1700	1	0	08:03:03	951926	0	0	0	0	0	0	0	0	0	0	0	0	0	0	0	0	0	0	0	0	0	0		1	0	0	0	0	0	0	0
011013	08:03:03	10019	pm.simpleFrRight	pm.simpleFr	2	57	518	0	0	08:03:03	952472	0	0	0	0	0	0	0	0	0	0	0	0	0	0	0	0	0	0	0	0	0	0		1	0	0	0	0	0	0	0
011013	08:03:03	10019	pm.simpleFrRight	blank.simpleFr	2	0	2000	1	0	08:03:03	954485	0	0	0	0	0	0	0	0	0	0	0	0	0	0	0	0	0	0	0	0	0	0		1	0	0	0	0	0	0	0
011013	08:03:03	10019	pm.simpleFrRight	pm.simpleFr	2	57	294	0	0	08:03:03	954804	0	0	0	0	0	0	0	0	0	0	0	0	0	0	0	0	0	0	0	0	0	0		1	0	0	0	0	0	0	0
011013	08:03:03	10019	pm.simpleFrRight	blank.simpleFr	2	0	2200	1	0	08:03:03	957017	0	0	0	0	0	0	0	0	0	0	0	0	0	0	0	0	0	0	0	0	0	0		1	0	0	0	0	0	0	0
011013	08:03:03	10019	pm.simpleFrRight	pm.simpleFr	2	57	274	0	0	08:03:03	957310	0	0	0	0	0	0	0	0	0	0	0	0	0	0	0	0	0	0	0	0	0	0		1	0	0	0	0	0	0	0
011013	08:03:03	10019	pm.simpleFrRight	blank.simpleFr	2	0	2500	1	0	08:03:03	959829	0	0	0	0	0	0	0	0	0	0	0	0	0	0	0	0	0	0	0	0	0	0		1	0	0	0	0	0	0	0
011013	08:03:03	10019	pm.simpleFrRight	pm.simpleFr	2	57	294	0	0	08:03:03	960149	0	0	0	0	0	0	0	0	0	0	0	0	0	0	0	0	0	0	0	0	0	0		1	0	0	0	0	0	0	0
011013	08:03:03	10019	pm.simpleFrRight	blank.simpleFr	2	0	1500	1	0	08:03:03	961668	0	0	0	0	0	0	0	0	0	0	0	0	0	0	0	0	0	0	0	0	0	0		1	0	0	0	0	0	0	0
011013	08:03:03	10019	pm.simpleFrRight	pm.simpleFr	2	57	375	0	0	08:03:03	962068	0	0	0	0	0	0	0	0	0	0	0	0	0	0	0	0	0	0	0	0	0	0		1	0	0	0	0	0	0	0
011013	08:03:03	10019	pm.simpleFrRight	blank.simpleFr	2	0	2300	1	0	08:03:03	964387	0	0	0	0	0	0	0	0	0	0	0	0	0	0	0	0	0	0	0	0	0	0		1	0	0	0	0	0	0	0
011013	08:03:03	10019	pm.simpleFrRight	pm.simpleFr	2	57	280	0	0	08:03:03	964694	0	0	0	0	0	0	0	0	0	0	0	0	0	0	0	0	0	0	0	0	0	0		1	0	0	0	0	0	0	0
011013	08:03:03	10019	pm.simpleFrRight	blank.simpleFr	2	0	1600	1	0	08:03:03	966306	0	0	0	0	0	0	0	0	0	0	0	0	0	0	0	0	0	0	0	0	0	0		1	0	0	0	0	0	0	0
011013	08:03:03	10019	pm.simpleFrRight	pm.simpleFr	2	57	377	0	0	08:03:03	966706	0	0	0	0	0	0	0	0	0	0	0	0	0	0	0	0	0	0	0	0	0	0		1	0	0	0	0	0	0	0
011013	08:03:03	10019	pm.simpleFrRight	blank.simpleFr	2	0	1800	1	0	08:03:03	968519	0	0	0	0	0	0	0	0	0	0	0	0	0	0	0	0	0	0	0	0	0	0		1	0	0	0	0	0	0	0
011013	08:03:03	10019	pm.simpleFrRight	pm.simpleFr	2	57	292	0	0	08:03:03	968839	0	0	0	0	0	0	0	0	0	0	0	0	0	0	0	0	0	0	0	0	0	0		1	0	0	0	0	0	0	0
011013	08:03:03	10019	pm.simpleFrRight	blank.simpleFr	2	0	1900	1	0	08:03:03	970758	0	0	0	0	0	0	0	0	0	0	0	0	0	0	0	0	0	0	0	0	0	0		1	0	0	0	0	0	0	0
011013	08:03:03	10019	pm.simpleFrRight	pm.simpleFr	2	57	325	0	0	08:03:03	971105	0	0	0	0	0	0	0	0	0	0	0	0	0	0	0	0	0	0	0	0	0	0		1	0	0	0	0	0	0	0
011013	08:03:03	10019	pm.simpleFrRight	blank.simpleFr	2	0	2100	1	0	08:03:03	973224	0	0	0	0	0	0	0	0	0	0	0	0	0	0	0	0	0	0	0	0	0	0		1	0	0	0	0	0	0	0
011013	08:03:03	10019	pm.simpleFrRight	pm.simpleFr	2	57	307	0	0	08:03:03	973557	0	0	0	0	0	0	0	0	0	0	0	0	0	0	0	0	0	0	0	0	0	0		1	0	0	0	0	0	0	0
011013	08:03:03	10019	pm.simpleFrRight	blank.simpleFr	2	0	2400	1	0	08:03:03	975969	0	0	0	0	0	0	0	0	0	0	0	0	0	0	0	0	0	0	0	0	0	0		1	0	0	0	0	0	0	0
011013	08:03:03	10019	pm.simpleFrRight	pm.simpleFr	2	57	282	0	0	08:03:03	976276	0	0	0	0	0	0	0	0	0	0	0	0	0	0	0	0	0	0	0	0	0	0		1	0	0	0	0	0	0	0
011013	08:03:03	10019	pm.simpleFrRight	blank.simpleFr	2	0	2200	1	0	08:03:03	978502	0	0	0	0	0	0	0	0	0	0	0	0	0	0	0	0	0	0	0	0	0	0		1	0	0	0	0	0	0	0
011013	08:03:03	10019	pm.simpleFrRight	pm.simpleFr	2	57	325	0	0	08:03:03	978848	0	0	0	0	0	0	0	0	0	0	0	0	0	0	0	0	0	0	0	0	0	0		1	0	0	0	0	0	0	0
011013	08:03:03	10019	pm.simpleFrRight	blank.simpleFr	2	0	2300	1	0	08:03:03	981167	0	0	0	0	0	0	0	0	0	0	0	0	0	0	0	0	0	0	0	0	0	0		1	0	0	0	0	0	0	0
011013	08:03:03	10019	pm.simpleFrRight	pm.simpleFr	2	57	284	0	0	08:03:03	981474	0	0	0	0	0	0	0	0	0	0	0	0	0	0	0	0	0	0	0	0	0	0		1	0	0	0	0	0	0	0
011013	08:03:03	10019	pm.simpleFrRight	blank.simpleFr	2	0	1800	1	0	08:03:03	983286	0	0	0	0	0	0	0	0	0	0	0	0	0	0	0	0	0	0	0	0	0	0		1	0	0	0	0	0	0	0
011013	08:03:03	10019	pm.simpleFrRight	pm.simpleFr	2	57	308	0	0	08:03:03	983619	0	0	0	0	0	0	0	0	0	0	0	0	0	0	0	0	0	0	0	0	0	0		1	0	0	0	0	0	0	0
011013	08:03:03	10019	pm.simpleFrRight	blank.simpleFr	2	0	2000	1	0	08:03:03	985645	0	0	0	0	0	0	0	0	0	0	0	0	0	0	0	0	0	0	0	0	0	0		1	0	0	0	0	0	0	0
011013	08:03:03	10019	pm.simpleFrRight	pm.simpleFr	2	57	269	0	0	08:03:03	985939	0	0	0	0	0	0	0	0	0	0	0	0	0	0	0	0	0	0	0	0	0	0		1	0	0	0	0	0	0	0
011013	08:03:03	10019	pm.simpleFrRight	blank.simpleFr	2	0	2500	1	0	08:03:03	988457	0	0	0	0	0	0	0	0	0	0	0	0	0	0	0	0	0	0	0	0	0	0		1	0	0	0	0	0	0	0
011013	08:03:03	10019	pm.simpleFrRight	pm.simpleFr	2	57	321	0	0	08:03:03	988804	0	0	0	0	0	0	0	0	0	0	0	0	0	0	0	0	0	0	0	0	0	0		1	0	0	0	0	0	0	0
011013	08:03:03	10019	pm.simpleFrRight	blank.simpleFr	2	0	1600	1	0	08:03:03	990417	0	0	0	0	0	0	0	0	0	0	0	0	0	0	0	0	0	0	0	0	0	0		1	0	0	0	0	0	0	0
011013	08:03:03	10019	pm.simpleFrRight	pm.simpleFr	2	57	362	0	0	08:03:03	990803	0	0	0	0	0	0	0	0	0	0	0	0	0	0	0	0	0	0	0	0	0	0		1	0	0	0	0	0	0	0
011013	08:03:03	10019	pm.simpleFrRight	blank.simpleFr	2	0	2400	1	0	08:03:03	993216	0	0	0	0	0	0	0	0	0	0	0	0	0	0	0	0	0	0	0	0	0	0		1	0	0	0	0	0	0	0
011013	08:03:03	10019	pm.simpleFrRight	pm.simpleFr	2	57	315	0	0	08:03:03	993549	0	0	0	0	0	0	0	0	0	0	0	0	0	0	0	0	0	0	0	0	0	0		1	0	0	0	0	0	0	0
011013	08:03:03	10019	pm.simpleFrRight	blank.simpleFr	2	0	1900	1	0	08:03:03	995468	0	0	0	0	0	0	0	0	0	0	0	0	0	0	0	0	0	0	0	0	0	0		1	0	0	0	0	0	0	0
011013	08:03:03	10019	pm.simpleFrRight	pm.simpleFr	2	57	286	0	0	08:03:03	995775	0	0	0	0	0	0	0	0	0	0	0	0	0	0	0	0	0	0	0	0	0	0		1	0	0	0	0	0	0	0
011013	08:03:03	10019	pm.simpleFrRight	blank.simpleFr	2	0	2100	1	0	08:03:03	997894	0	0	0	0	0	0	0	0	0	0	0	0	0	0	0	0	0	0	0	0	0	0		1	0	0	0	0	0	0	0
011013	08:03:03	10019	pm.simpleFrRight	pm.simpleFr	2	57	261	0	0	08:03:03	998174	0	0	0	0	0	0	0	0	0	0	0	0	0	0	0	0	0	0	0	0	0	0		1	0	0	0	0	0	0	0
011013	08:03:03	10019	pm.simpleFrRight	blank.simpleFr	2	0	1500	1	0	08:03:03	999693	0	0	0	0	0	0	0	0	0	0	0	0	0	0	0	0	0	0	0	0	0	0		1	0	0	0	0	0	0	0
011013	08:03:03	10019	pm.simpleFrRight	pm.simpleFr	2	57	285	0	0	08:03:03	1000000	0	0	0	0	0	0	0	0	0	0	0	0	0	0	0	0	0	0	0	0	0	0		1	0	0	0	0	0	0	0
011013	08:03:03	10019	pm.simpleFrRight	blank.simpleFr	2	0	1700	1	0	08:03:03	1001719	0	0	0	0	0	0	0	0	0	0	0	0	0	0	0	0	0	0	0	0	0	0		1	0	0	0	0	0	0	0
011013	08:03:03	10019	pm.simpleFrRight	pm.simpleFr	2	57	291	0	0	08:03:03	1002039	0	0	0	0	0	0	0	0	0	0	0	0	0	0	0	0	0	0	0	0	0	0		1	0	0	0	0	0	0	0
011013	08:03:03	10019	pm.simpleFrRight	blank.simpleFr	2	0	1500	1	0	08:03:03	1003558	0	0	0	0	0	0	0	0	0	0	0	0	0	0	0	0	0	0	0	0	0	0		1	0	0	0	0	0	0	0
011013	08:03:03	10019	pm.simpleFrRight	pm.simpleFr	2	57	308	0	0	08:03:03	1003891	0	0	0	0	0	0	0	0	0	0	0	0	0	0	0	0	0	0	0	0	0	0		1	0	0	0	0	0	0	0
011013	08:03:03	10019	pm.simpleFrRight	blank.simpleFr	2	0	1600	1	0	08:03:03	1005504	0	0	0	0	0	0	0	0	0	0	0	0	0	0	0	0	0	0	0	0	0	0		1	0	0	0	0	0	0	0
011013	08:03:03	10019	pm.simpleFrRight	pm.simpleFr	2	57	298	0	0	08:03:03	1005824	0	0	0	0	0	0	0	0	0	0	0	0	0	0	0	0	0	0	0	0	0	0		1	0	0	0	0	0	0	0
011013	08:03:03	10019	pm.simpleFrRight	blank.simpleFr	2	0	2500	1	0	08:03:03	1008343	0	0	0	0	0	0	0	0	0	0	0	0	0	0	0	0	0	0	0	0	0	0		1	0	0	0	0	0	0	0
011013	08:03:03	10019	pm.simpleFrRight	pm.simpleFr	2	57	259	0	0	08:03:03	1008623	0	0	0	0	0	0	0	0	0	0	0	0	0	0	0	0	0	0	0	0	0	0		1	0	0	0	0	0	0	0
011013	08:03:03	10019	pm.simpleFrRight	blank.simpleFr	2	0	2000	1	0	08:03:03	1010635	0	0	0	0	0	0	0	0	0	0	0	0	0	0	0	0	0	0	0	0	0	0		1	0	0	0	0	0	0	0
011013	08:03:03	10019	pm.simpleFrRight	pm.simpleFr	2	57	255	0	0	08:03:03	1010915	0	0	0	0	0	0	0	0	0	0	0	0	0	0	0	0	0	0	0	0	0	0		1	0	0	0	0	0	0	0
011013	08:03:03	10019	pm.simpleFrRight	blank.simpleFr	2	0	2100	1	0	08:03:03	1013061	0	0	0	0	0	0	0	0	0	0	0	0	0	0	0	0	0	0	0	0	0	0		1	0	0	0	0	0	0	0
011013	08:03:03	10019	pm.simpleFrRight	pm.simpleFr	2	57	261	0	0	08:03:03	1013341	0	0	0	0	0	0	0	0	0	0	0	0	0	0	0	0	0	0	0	0	0	0		1	0	0	0	0	0	0	0
011013	08:03:03	10019	pm.simpleFrRight	blank.simpleFr	2	0	1700	1	0	08:03:03	1015060	0	0	0	0	0	0	0	0	0	0	0	0	0	0	0	0	0	0	0	0	0	0		1	0	0	0	0	0	0	0
011013	08:03:03	10019	pm.simpleFrRight	pm.simpleFr	2	57	278	0	0	08:03:03	1015367	0	0	0	0	0	0	0	0	0	0	0	0	0	0	0	0	0	0	0	0	0	0		1	0	0	0	0	0	0	0
011013	08:03:03	10019	pm.simpleFrRight	blank.simpleFr	2	0	2300	1	0	08:03:03	1017686	0	0	0	0	0	0	0	0	0	0	0	0	0	0	0	0	0	0	0	0	0	0		1	0	0	0	0	0	0	0
011013	08:03:03	10019	pm.simpleFrRight	pm.simpleFr	2	57	292	0	0	08:03:03	1018006	0	0	0	0	0	0	0	0	0	0	0	0	0	0	0	0	0	0	0	0	0	0		1	0	0	0	0	0	0	0
011013	08:03:03	10019	pm.simpleFrRight	blank.simpleFr	2	0	2200	1	0	08:03:03	1020218	0	0	0	0	0	0	0	0	0	0	0	0	0	0	0	0	0	0	0	0	0	0		1	0	0	0	0	0	0	0
011013	08:03:03	10019	pm.simpleFrRight	pm.simpleFr	2	57	272	0	0	08:03:03	1020511	0	0	0	0	0	0	0	0	0	0	0	0	0	0	0	0	0	0	0	0	0	0		1	0	0	0	0	0	0	0
011013	08:03:03	10019	pm.simpleFrRight	blank.simpleFr	2	0	2400	1	0	08:03:03	1022937	0	0	0	0	0	0	0	0	0	0	0	0	0	0	0	0	0	0	0	0	0	0		1	0	0	0	0	0	0	0
011013	08:03:03	10019	pm.simpleFrRight	pm.simpleFr	2	57	273	0	0	08:03:03	1023230	0	0	0	0	0	0	0	0	0	0	0	0	0	0	0	0	0	0	0	0	0	0		1	0	0	0	0	0	0	0
011013	08:03:03	10019	pm.simpleFrRight	blank.simpleFr	2	0	1800	1	0	08:03:03	1025043	0	0	0	0	0	0	0	0	0	0	0	0	0	0	0	0	0	0	0	0	0	0		1	0	0	0	0	0	0	0
011013	08:03:03	10019	pm.simpleFrRight	pm.simpleFr	2	57	263	0	0	08:03:03	1025323	0	0	0	0	0	0	0	0	0	0	0	0	0	0	0	0	0	0	0	0	0	0		1	0	0	0	0	0	0	0
011013	08:03:03	10019	pm.simpleFrRight	blank.simpleFr	2	0	1900	1	0	08:03:03	1027242	0	0	0	0	0	0	0	0	0	0	0	0	0	0	0	0	0	0	0	0	0	0		1	0	0	0	0	0	0	0
011013	08:03:03	10019	pm.simpleFrRight	pm.simpleFr	2	57	272	0	0	08:03:03	1027535	0	0	0	0	0	0	0	0	0	0	0	0	0	0	0	0	0	0	0	0	0	0		1	0	0	0	0	0	0	0
011013	08:03:03	10019	pm.simpleFrRight	blank.simpleFr	2	0	2500	1	0	08:03:03	1030054	0	0	0	0	0	0	0	0	0	0	0	0	0	0	0	0	0	0	0	0	0	0		1	0	0	0	0	0	0	0
011013	08:03:03	10019	pm.simpleFrRight	pm.simpleFr	2	57	291	0	0	08:03:03	1030374	0	0	0	0	0	0	0	0	0	0	0	0	0	0	0	0	0	0	0	0	0	0		1	0	0	0	0	0	0	0
011013	08:03:03	10019	pm.simpleFrRight	blank.simpleFr	2	0	1600	1	0	08:03:03	1031986	0	0	0	0	0	0	0	0	0	0	0	0	0	0	0	0	0	0	0	0	0	0		1	0	0	0	0	0	0	0
011013	08:03:03	10019	pm.simpleFrRight	pm.simpleFr	2	57	311	0	0	08:03:03	1032320	0	0	0	0	0	0	0	0	0	0	0	0	0	0	0	0	0	0	0	0	0	0		1	0	0	0	0	0	0	0
011013	08:03:03	10019	pm.simpleFrRight	blank.simpleFr	2	0	1800	1	0	08:03:03	1034132	0	0	0	0	0	0	0	0	0	0	0	0	0	0	0	0	0	0	0	0	0	0		1	0	0	0	0	0	0	0
011013	08:03:03	10019	pm.simpleFrRight	pm.simpleFr	2	57	293	0	0	08:03:03	1034452	0	0	0	0	0	0	0	0	0	0	0	0	0	0	0	0	0	0	0	0	0	0		1	0	0	0	0	0	0	0
011013	08:03:03	10019	pm.simpleFrRight	blank.simpleFr	2	0	2100	1	0	08:03:03	1036571	0	0	0	0	0	0	0	0	0	0	0	0	0	0	0	0	0	0	0	0	0	0		1	0	0	0	0	0	0	0
011013	08:03:03	10019	pm.simpleFrRight	pm.simpleFr	2	57	270	0	0	08:03:03	1036864	0	0	0	0	0	0	0	0	0	0	0	0	0	0	0	0	0	0	0	0	0	0		1	0	0	0	0	0	0	0
011013	08:03:03	10019	pm.simpleFrRight	blank.simpleFr	2	0	2200	1	0	08:03:03	1039077	0	0	0	0	0	0	0	0	0	0	0	0	0	0	0	0	0	0	0	0	0	0		1	0	0	0	0	0	0	0
011013	08:03:03	10019	pm.simpleFrRight	pm.simpleFr	2	57	276	0	0	08:03:03	1039370	0	0	0	0	0	0	0	0	0	0	0	0	0	0	0	0	0	0	0	0	0	0		1	0	0	0	0	0	0	0
011013	08:03:03	10019	pm.simpleFrRight	blank.simpleFr	2	0	1700	1	0	08:03:03	1041090	0	0	0	0	0	0	0	0	0	0	0	0	0	0	0	0	0	0	0	0	0	0		1	0	0	0	0	0	0	0
011013	08:03:03	10019	pm.simpleFrRight	pm.simpleFr	2	57	344	0	0	08:03:03	1041463	0	0	0	0	0	0	0	0	0	0	0	0	0	0	0	0	0	0	0	0	0	0		1	0	0	0	0	0	0	0
011013	08:03:03	10019	pm.simpleFrRight	blank.simpleFr	2	0	1900	1	0	08:03:03	1043382	0	0	0	0	0	0	0	0	0	0	0	0	0	0	0	0	0	0	0	0	0	0		1	0	0	0	0	0	0	0
011013	08:03:03	10019	pm.simpleFrRight	pm.simpleFr	2	57	275	0	0	08:03:03	1043675	0	0	0	0	0	0	0	0	0	0	0	0	0	0	0	0	0	0	0	0	0	0		1	0	0	0	0	0	0	0
011013	08:03:03	10019	Trial2BackFr	N	3	0	1000	1	1	08:03:03	1092655	0	0	0	0	0	0	0	0	0	0	0	0	0	0	0	0	0	0	0	0	0	0		1	0	0	0	0	0	0	0
011013	08:03:03	10019	Trial2BackFr	N	3	0	1000	1	2	08:03:03	1094161	0	0	0	0	0	0	0	0	0	0	0	0	0	0	0	0	0	0	0	0	0	0		1	0	0	0	0	0	0	0
011013	08:03:03	10019	Trial2BackFr	N	3	0	1000	1	3	08:03:03	1095667	0	0	0	0	0	0	0	0	0	0	0	0	0	0	0	0	0	0	0	0	0	0		1	0	0	0	0	0	0	0
011013	08:03:03	10019	Trial2BackFr	N	3	0	1000	1	4	08:03:03	1097187	0	0	0	0	0	0	0	0	0	0	0	0	0	0	0	0	0	0	0	0	0	0		1	0	0	0	0	0	0	0
011013	08:03:03	10019	Trial2BackFr	N	3	0	1000	1	5	08:03:03	1098693	0	0	0	0	0	0	0	0	0	0	0	0	0	0	0	0	0	0	0	0	0	0		1	0	0	0	0	0	0	0
011013	08:03:03	10019	Trial2BackFr	N	3	0	1000	1	6	08:03:03	1100199	0	0	0	0	0	0	0	0	0	0	0	0	0	0	0	0	0	0	0	0	0	0		1	0	0	0	0	0	0	0
011013	08:03:03	10019	Trial2BackFr	N	3	0	1000	1	7	08:03:03	1101705	0	0	0	0	0	0	0	0	0	0	0	0	0	0	0	0	0	0	0	0	0	0		1	0	0	0	0	0	0	0
011013	08:03:03	10019	Trial2BackFr	N	3	0	1000	1	8	08:03:03	1103211	0	0	0	0	0	0	0	0	0	0	0	0	0	0	0	0	0	0	0	0	0	0		1	0	0	0	0	0	0	0
011013	08:03:03	10019	Trial2BackFr	Y	3	57	945	1	9	08:03:03	1104677	0	0	0	0	0	0	0	0	0	0	0	0	0	0	0	0	0	0	0	0	0	0		1	0	0	0	0	0	0	0
011013	08:03:03	10019	Trial2BackFr	N	3	0	1000	1	10	08:03:03	1106223	0	0	0	0	0	0	0	0	0	0	0	0	0	0	0	0	0	0	0	0	0	0		1	0	0	0	0	0	0	0
011013	08:03:03	10019	Trial2BackFr	N	3	0	1000	1	11	08:03:03	1107729	0	0	0	0	0	0	0	0	0	0	0	0	0	0	0	0	0	0	0	0	0	0		1	0	0	0	0	0	0	0
011013	08:03:03	10019	Trial2BackFr	N	3	0	1000	1	12	08:03:03	1109235	0	0	0	0	0	0	0	0	0	0	0	0	0	0	0	0	0	0	0	0	0	0		1	0	0	0	0	0	0	0
011013	08:03:03	10019	Trial2BackFr	Y	3	57	889	1	13	08:03:03	1110635	0	0	0	0	0	0	0	0	0	0	0	0	0	0	0	0	0	0	0	0	0	0		1	0	0	0	0	0	0	0
011013	08:03:03	10019	Trial2BackFr	N	3	0	1000	1	14	08:03:03	1112248	0	0	0	0	0	0	0	0	0	0	0	0	0	0	0	0	0	0	0	0	0	0		1	0	0	0	0	0	0	0
011013	08:03:03	10019	Trial2BackFr	N	3	0	1000	1	15	08:03:03	1113767	0	0	0	0	0	0	0	0	0	0	0	0	0	0	0	0	0	0	0	0	0	0		1	0	0	0	0	0	0	0
011013	08:03:03	10019	Trial2BackFr	N	3	0	1000	1	16	08:03:03	1115273	0	0	0	0	0	0	0	0	0	0	0	0	0	0	0	0	0	0	0	0	0	0		1	0	0	0	0	0	0	0
011013	08:03:03	10019	Trial2BackFr	N	3	0	1000	1	17	08:03:03	1116779	0	0	0	0	0	0	0	0	0	0	0	0	0	0	0	0	0	0	0	0	0	0		1	0	0	0	0	0	0	0
011013	08:03:03	10019	Trial2BackFr	N	3	0	1000	1	18	08:03:03	1118285	0	0	0	0	0	0	0	0	0	0	0	0	0	0	0	0	0	0	0	0	0	0		1	0	0	0	0	0	0	0
011013	08:03:03	10019	Trial2BackFr	Y	3	57	591	1	19	08:03:03	1119391	0	0	0	0	0	0	0	0	0	0	0	0	0	0	0	0	0	0	0	0	0	0		1	0	0	0	0	0	0	0
011013	08:03:03	10019	Trial2BackFr	N	3	0	1000	1	20	08:03:03	1121297	0	0	0	0	0	0	0	0	0	0	0	0	0	0	0	0	0	0	0	0	0	0		1	0	0	0	0	0	0	0
011013	08:03:03	10019	Trial2BackFr	N	3	0	1000	1	21	08:03:03	1122803	0	0	0	0	0	0	0	0	0	0	0	0	0	0	0	0	0	0	0	0	0	0		1	0	0	0	0	0	0	0
011013	08:03:03	10019	Trial2BackFr	N	3	0	1000	1	22	08:03:03	1124309	0	0	0	0	0	0	0	0	0	0	0	0	0	0	0	0	0	0	0	0	0	0		1	0	0	0	0	0	0	0
011013	08:03:03	10019	Trial2BackFr	N	3	0	1000	1	23	08:03:03	1125815	0	0	0	0	0	0	0	0	0	0	0	0	0	0	0	0	0	0	0	0	0	0		1	0	0	0	0	0	0	0
011013	08:03:03	10019	Trial2BackFr	Y	3	57	645	1	24	08:03:03	1126975	0	0	0	0	0	0	0	0	0	0	0	0	0	0	0	0	0	0	0	0	0	0		1	0	0	0	0	0	0	0
011013	08:03:03	10019	Trial2BackFr	N	3	0	1000	1	25	08:03:03	1128827	0	0	0	0	0	0	0	0	0	0	0	0	0	0	0	0	0	0	0	0	0	0		1	0	0	0	0	0	0	0
011013	08:03:03	10019	Trial2BackFr	N	3	0	1000	1	26	08:03:03	1130333	0	0	0	0	0	0	0	0	0	0	0	0	0	0	0	0	0	0	0	0	0	0		1	0	0	0	0	0	0	0
011013	08:03:03	10019	Trial2BackFr	N	3	0	1000	1	27	08:03:03	1131840	0	0	0	0	0	0	0	0	0	0	0	0	0	0	0	0	0	0	0	0	0	0		1	0	0	0	0	0	0	0
011013	08:03:03	10019	Trial2BackFr	N	3	0	1000	1	28	08:03:03	1133346	0	0	0	0	0	0	0	0	0	0	0	0	0	0	0	0	0	0	0	0	0	0		1	0	0	0	0	0	0	0
011013	08:03:03	10019	Trial2BackFr	N	3	0	1000	1	29	08:03:03	1134852	0	0	0	0	0	0	0	0	0	0	0	0	0	0	0	0	0	0	0	0	0	0		1	0	0	0	0	0	0	0
011013	08:03:03	10019	Trial2BackFr	N	3	0	1000	1	30	08:03:03	1136358	0	0	0	0	0	0	0	0	0	0	0	0	0	0	0	0	0	0	0	0	0	0		1	0	0	0	0	0	0	0
011013	08:03:03	10019	Trial2BackFr	Y	3	57	326	1	31	08:03:03	1137197	0	0	0	0	0	0	0	0	0	0	0	0	0	0	0	0	0	0	0	0	0	0		1	0	0	0	0	0	0	0
011013	08:03:03	10019	Trial2BackFr	N	3	0	1000	1	32	08:03:03	1139370	0	0	0	0	0	0	0	0	0	0	0	0	0	0	0	0	0	0	0	0	0	0		1	0	0	0	0	0	0	0
011013	08:03:03	10019	Trial2BackFr	N	3	0	1000	1	33	08:03:03	1140876	0	0	0	0	0	0	0	0	0	0	0	0	0	0	0	0	0	0	0	0	0	0		1	0	0	0	0	0	0	0
011013	08:03:03	10019	Trial2BackFr	N	3	0	1000	1	34	08:03:03	1142382	0	0	0	0	0	0	0	0	0	0	0	0	0	0	0	0	0	0	0	0	0	0		1	0	0	0	0	0	0	0
011013	08:03:03	10019	Trial2BackFr	Y	3	57	797	1	35	08:03:03	1143688	0	0	0	0	0	0	0	0	0	0	0	0	0	0	0	0	0	0	0	0	0	0		1	0	0	0	0	0	0	0
011013	08:03:03	10019	Trial2BackFr	N	3	0	1000	1	36	08:03:03	1145394	0	0	0	0	0	0	0	0	0	0	0	0	0	0	0	0	0	0	0	0	0	0		1	0	0	0	0	0	0	0
011013	08:03:03	10019	Trial2BackFr	N	3	0	1000	1	37	08:03:03	1146900	0	0	0	0	0	0	0	0	0	0	0	0	0	0	0	0	0	0	0	0	0	0		1	0	0	0	0	0	0	0
011013	08:03:03	10019	Trial2BackFr	N	3	0	1000	1	38	08:03:03	1148406	0	0	0	0	0	0	0	0	0	0	0	0	0	0	0	0	0	0	0	0	0	0		1	0	0	0	0	0	0	0
011013	08:03:03	10019	Trial2BackFr	N	3	0	1000	1	39	08:03:03	1149912	0	0	0	0	0	0	0	0	0	0	0	0	0	0	0	0	0	0	0	0	0	0		1	0	0	0	0	0	0	0
011013	08:03:03	10019	Trial2BackFr	N	3	0	1000	1	40	08:03:03	1151418	0	0	0	0	0	0	0	0	0	0	0	0	0	0	0	0	0	0	0	0	0	0		1	0	0	0	0	0	0	0
011013	08:03:03	10019	Trial2BackFr	N	3	0	1000	1	41	08:03:03	1152938	0	0	0	0	0	0	0	0	0	0	0	0	0	0	0	0	0	0	0	0	0	0		1	0	0	0	0	0	0	0
011013	08:03:03	10019	Trial2BackFr	Y	3	57	402	1	42	08:03:03	1153857	0	0	0	0	0	0	0	0	0	0	0	0	0	0	0	0	0	0	0	0	0	0		1	0	0	0	0	0	0	0
011013	08:03:03	10019	Trial2BackFr	N	3	0	1000	1	43	08:03:03	1155950	0	0	0	0	0	0	0	0	0	0	0	0	0	0	0	0	0	0	0	0	0	0		1	0	0	0	0	0	0	0
011013	08:03:03	10019	Trial2BackFr	N	3	0	1000	1	44	08:03:03	1157456	0	0	0	0	0	0	0	0	0	0	0	0	0	0	0	0	0	0	0	0	0	0		1	0	0	0	0	0	0	0
011013	08:03:03	10019	Trial2BackFr	N	3	0	1000	1	45	08:03:03	1158962	0	0	0	0	0	0	0	0	0	0	0	0	0	0	0	0	0	0	0	0	0	0		1	0	0	0	0	0	0	0
011013	08:03:03	10019	Trial2BackFr	N	3	0	1000	1	46	08:03:03	1160468	0	0	0	0	0	0	0	0	0	0	0	0	0	0	0	0	0	0	0	0	0	0		1	0	0	0	0	0	0	0
011013	08:03:03	10019	Trial2BackFr	Y	3	57	439	1	47	08:03:03	1161428	0	0	0	0	0	0	0	0	0	0	0	0	0	0	0	0	0	0	0	0	0	0		1	0	0	0	0	0	0	0
011013	08:03:03	10019	Trial2BackFr	N	3	0	1000	1	48	08:03:03	1163480	0	0	0	0	0	0	0	0	0	0	0	0	0	0	0	0	0	0	0	0	0	0		1	0	0	0	0	0	0	0
011013	08:03:03	10019	Trial2BackFr	N	3	0	1000	1	49	08:03:03	1164986	0	0	0	0	0	0	0	0	0	0	0	0	0	0	0	0	0	0	0	0	0	0		1	0	0	0	0	0	0	0
011013	08:03:03	10019	Trial2BackFr	N	3	0	1000	1	50	08:03:03	1166492	0	0	0	0	0	0	0	0	0	0	0	0	0	0	0	0	0	0	0	0	0	0		1	0	0	0	0	0	0	0
011013	08:03:03	10019	Trial2BackFr	N	3	0	1000	1	51	08:03:03	1167998	0	0	0	0	0	0	0	0	0	0	0	0	0	0	0	0	0	0	0	0	0	0		1	0	0	0	0	0	0	0
011013	08:03:03	10019	Trial2BackFr	N	3	0	1000	1	52	08:03:03	1169504	0	0	0	0	0	0	0	0	0	0	0	0	0	0	0	0	0	0	0	0	0	0		1	0	0	0	0	0	0	0
011013	08:03:03	10019	Trial2BackFr	Y	3	57	395	1	53	08:03:03	1170410	0	0	0	0	0	0	0	0	0	0	0	0	0	0	0	0	0	0	0	0	0	0		1	0	0	0	0	0	0	0
011013	08:03:03	10019	Trial2BackFr	N	3	0	1000	1	54	08:03:03	1172516	0	0	0	0	0	0	0	0	0	0	0	0	0	0	0	0	0	0	0	0	0	0		1	0	0	0	0	0	0	0
011013	08:03:03	10019	Trial2BackFr	N	3	0	1000	1	55	08:03:03	1174022	0	0	0	0	0	0	0	0	0	0	0	0	0	0	0	0	0	0	0	0	0	0		1	0	0	0	0	0	0	0
011013	08:03:03	10019	Trial2BackFr	N	3	0	1000	1	56	08:03:03	1175528	0	0	0	0	0	0	0	0	0	0	0	0	0	0	0	0	0	0	0	0	0	0		1	0	0	0	0	0	0	0
011013	08:03:03	10019	Trial2BackFr	N	3	0	1000	1	57	08:03:03	1177035	0	0	0	0	0	0	0	0	0	0	0	0	0	0	0	0	0	0	0	0	0	0		1	0	0	0	0	0	0	0
011013	08:03:03	10019	Trial2BackFr	N	3	0	1000	1	58	08:03:03	1178541	0	0	0	0	0	0	0	0	0	0	0	0	0	0	0	0	0	0	0	0	0	0		1	0	0	0	0	0	0	0
011013	08:03:03	10019	Trial2BackFr	N	3	0	1000	1	59	08:03:03	1180060	0	0	0	0	0	0	0	0	0	0	0	0	0	0	0	0	0	0	0	0	0	0		1	0	0	0	0	0	0	0
011013	08:03:03	10019	Trial2BackFr	Y	3	57	351	1	60	08:03:03	1180926	0	0	0	0	0	0	0	0	0	0	0	0	0	0	0	0	0	0	0	0	0	0		1	0	0	0	0	0	0	0
011013	08:03:03	10019	Trial2BackFr	N	3	0	1000	1	61	08:03:03	1183072	0	0	0	0	0	0	0	0	0	0	0	0	0	0	0	0	0	0	0	0	0	0		1	0	0	0	0	0	0	0
011013	08:03:03	10019	Trial2BackFr	N	3	0	1000	1	62	08:03:03	1184578	0	0	0	0	0	0	0	0	0	0	0	0	0	0	0	0	0	0	0	0	0	0		1	0	0	0	0	0	0	0
011013	08:03:03	10019	Trial2BackFr	Y	3	57	872	1	63	08:03:03	1185964	0	0	0	0	0	0	0	0	0	0	0	0	0	0	0	0	0	0	0	0	0	0		1	0	0	0	0	0	0	0
011013	08:03:03	10019	Trial2BackFr	N	3	0	1000	1	64	08:03:03	1187590	0	0	0	0	0	0	0	0	0	0	0	0	0	0	0	0	0	0	0	0	0	0		1	0	0	0	0	0	0	0
011013	08:03:03	10019	Trial2BackFr	N	3	0	1000	1	65	08:03:03	1189110	0	0	0	0	0	0	0	0	0	0	0	0	0	0	0	0	0	0	0	0	0	0		1	0	0	0	0	0	0	0
011013	08:03:03	10019	Trial2BackFr	N	3	0	1000	1	66	08:03:03	1190616	0	0	0	0	0	0	0	0	0	0	0	0	0	0	0	0	0	0	0	0	0	0		1	0	0	0	0	0	0	0
011013	08:03:03	10019	Trial2BackFr	N	3	0	1000	1	67	08:03:03	1192122	0	0	0	0	0	0	0	0	0	0	0	0	0	0	0	0	0	0	0	0	0	0		1	0	0	0	0	0	0	0
011013	08:03:03	10019	Trial2BackFr	N	3	0	1000	1	68	08:03:03	1193641	0	0	0	0	0	0	0	0	0	0	0	0	0	0	0	0	0	0	0	0	0	0		1	0	0	0	0	0	0	0
011013	08:03:03	10019	Trial2BackFr	N	3	0	1000	1	69	08:03:03	1195147	0	0	0	0	0	0	0	0	0	0	0	0	0	0	0	0	0	0	0	0	0	0		1	0	0	0	0	0	0	0
011013	08:03:03	10019	Trial2BackFr	N	3	0	1000	1	70	08:03:03	1196653	0	0	0	0	0	0	0	0	0	0	0	0	0	0	0	0	0	0	0	0	0	0		1	0	0	0	0	0	0	0
011013	08:03:03	10019	Trial2BackFr	N	3	0	1000	1	71	08:03:03	1198159	0	0	0	0	0	0	0	0	0	0	0	0	0	0	0	0	0	0	0	0	0	0		1	0	0	0	0	0	0	0
011013	08:03:03	10019	Trial2BackFr	N	3	0	1000	1	72	08:03:03	1199665	0	0	0	0	0	0	0	0	0	0	0	0	0	0	0	0	0	0	0	0	0	0		1	0	0	0	0	0	0	0
011013	08:03:03	10019	Trial2BackFr	N	3	0	1000	1	73	08:03:03	1201171	0	0	0	0	0	0	0	0	0	0	0	0	0	0	0	0	0	0	0	0	0	0		1	0	0	0	0	0	0	0
011013	08:03:03	10019	Trial2BackFr	Y	3	0	1000	0	73	08:03:03	1202677	0	0	0	0	0	0	0	0	0	0	0	0	0	0	0	0	0	0	0	0	0	0		1	0	0	0	0	0	0	0
011013	08:03:03	10019	Trial2BackFr	N	3	0	1000	1	74	08:03:03	1204184	0	0	0	0	0	0	0	0	0	0	0	0	0	0	0	0	0	0	0	0	0	0		1	0	0	0	0	0	0	0
011013	08:03:03	10019	Trial2BackFr	N	3	0	1000	1	75	08:03:03	1205690	0	0	0	0	0	0	0	0	0	0	0	0	0	0	0	0	0	0	0	0	0	0		1	0	0	0	0	0	0	0
011013	08:03:03	10019	Trial2BackFr	N	3	0	1000	1	76	08:03:03	1207196	0	0	0	0	0	0	0	0	0	0	0	0	0	0	0	0	0	0	0	0	0	0		1	0	0	0	0	0	0	0
011013	08:03:03	10019	Trial2BackFr	Y	3	57	670	1	77	08:03:03	1208382	0	0	0	0	0	0	0	0	0	0	0	0	0	0	0	0	0	0	0	0	0	0		1	0	0	0	0	0	0	0
011013	08:03:03	10019	Trial2BackFr	N	3	0	1000	1	78	08:03:03	1210208	0	0	0	0	0	0	0	0	0	0	0	0	0	0	0	0	0	0	0	0	0	0		1	0	0	0	0	0	0	0
011013	08:03:03	10019	Trial2BackFr	N	3	0	1000	1	79	08:03:03	1211714	0	0	0	0	0	0	0	0	0	0	0	0	0	0	0	0	0	0	0	0	0	0		1	0	0	0	0	0	0	0
011013	08:03:03	10019	Trial2BackFr	N	3	0	1000	1	80	08:03:03	1213220	0	0	0	0	0	0	0	0	0	0	0	0	0	0	0	0	0	0	0	0	0	0		1	0	0	0	0	0	0	0
011013	08:03:03	10019	Trial2BackFr	N	3	0	1000	1	81	08:03:03	1214726	0	0	0	0	0	0	0	0	0	0	0	0	0	0	0	0	0	0	0	0	0	0		1	0	0	0	0	0	0	0
011013	08:03:03	10019	Trial2BackFr	N	3	0	1000	1	82	08:03:03	1216245	0	0	0	0	0	0	0	0	0	0	0	0	0	0	0	0	0	0	0	0	0	0		1	0	0	0	0	0	0	0
011013	08:03:03	10019	Trial2BackFr	Y	3	57	580	1	83	08:03:03	1217338	0	0	0	0	0	0	0	0	0	0	0	0	0	0	0	0	0	0	0	0	0	0		1	0	0	0	0	0	0	0
011013	08:03:03	10019	Trial2BackFr	N	3	0	1000	1	84	08:03:03	1219257	0	0	0	0	0	0	0	0	0	0	0	0	0	0	0	0	0	0	0	0	0	0		1	0	0	0	0	0	0	0
011013	08:03:03	10019	Trial2BackFr	N	3	0	1000	1	85	08:03:03	1220764	0	0	0	0	0	0	0	0	0	0	0	0	0	0	0	0	0	0	0	0	0	0		1	0	0	0	0	0	0	0
011013	08:03:03	10019	Trial2BackFr	N	3	0	1000	1	86	08:03:03	1222270	0	0	0	0	0	0	0	0	0	0	0	0	0	0	0	0	0	0	0	0	0	0		1	0	0	0	0	0	0	0
011013	08:03:03	10019	Trial2BackFr	N	3	0	1000	1	87	08:03:03	1223776	0	0	0	0	0	0	0	0	0	0	0	0	0	0	0	0	0	0	0	0	0	0		1	0	0	0	0	0	0	0
011013	08:03:03	10019	Trial2BackFr	N	3	0	1000	1	88	08:03:03	1225282	0	0	0	0	0	0	0	0	0	0	0	0	0	0	0	0	0	0	0	0	0	0		1	0	0	0	0	0	0	0
011013	08:03:03	10019	Trial2BackFr	N	3	0	1000	1	89	08:03:03	1226788	0	0	0	0	0	0	0	0	0	0	0	0	0	0	0	0	0	0	0	0	0	0		1	0	0	0	0	0	0	0
011013	08:03:03	10019	Trial2BackFr	N	3	0	1000	1	90	08:03:03	1228294	0	0	0	0	0	0	0	0	0	0	0	0	0	0	0	0	0	0	0	0	0	0		1	0	0	0	0	0	0	0
011013	08:03:03	10019	Trial2BackFr	N	3	0	1000	1	91	08:03:03	1229800	0	0	0	0	0	0	0	0	0	0	0	0	0	0	0	0	0	0	0	0	0	0		1	0	0	0	0	0	0	0
011013	08:03:03	10019	Trial2BackFr	N	3	0	1000	1	92	08:03:03	1231306	0	0	0	0	0	0	0	0	0	0	0	0	0	0	0	0	0	0	0	0	0	0		1	0	0	0	0	0	0	0
011013	08:03:03	10019	Trial2BackFr	Y	3	57	559	1	93	08:03:03	1232385	0	0	0	0	0	0	0	0	0	0	0	0	0	0	0	0	0	0	0	0	0	0		1	0	0	0	0	0	0	0
011013	08:03:03	10019	Trial2BackFr	N	3	0	1000	1	94	08:03:03	1234318	0	0	0	0	0	0	0	0	0	0	0	0	0	0	0	0	0	0	0	0	0	0		1	0	0	0	0	0	0	0
011013	08:03:03	10019	Trial2BackFr	N	3	0	1000	1	95	08:03:03	1235824	0	0	0	0	0	0	0	0	0	0	0	0	0	0	0	0	0	0	0	0	0	0		1	0	0	0	0	0	0	0
011013	08:03:03	10019	Trial2BackFr	N	3	0	1000	1	96	08:03:03	1237330	0	0	0	0	0	0	0	0	0	0	0	0	0	0	0	0	0	0	0	0	0	0		1	0	0	0	0	0	0	0
011013	08:03:03	10019	Trial2BackFr	N	3	0	1000	1	97	08:03:03	1238836	0	0	0	0	0	0	0	0	0	0	0	0	0	0	0	0	0	0	0	0	0	0		1	0	0	0	0	0	0	0
011013	08:03:03	10019	Trial2BackFr	N	3	0	1000	1	98	08:03:03	1240342	0	0	0	0	0	0	0	0	0	0	0	0	0	0	0	0	0	0	0	0	0	0		1	0	0	0	0	0	0	0
011013	08:03:03	10019	Trial2BackFr	N	3	0	1000	1	99	08:03:03	1241862	0	0	0	0	0	0	0	0	0	0	0	0	0	0	0	0	0	0	0	0	0	0		1	0	0	0	0	0	0	0
011013	08:03:03	10019	Trial2BackFr	N	3	0	1000	1	100	08:03:03	1243368	0	0	0	0	0	0	0	0	0	0	0	0	0	0	0	0	0	0	0	0	0	0		1	0	0	0	0	0	0	0
011013	08:03:03	10019	Trial2BackFr	N	3	0	1000	1	101	08:03:03	1244874	0	0	0	0	0	0	0	0	0	0	0	0	0	0	0	0	0	0	0	0	0	0		1	0	0	0	0	0	0	0
011013	08:03:03	10019	Trial2BackFr	Y	3	57	479	1	102	08:03:03	1245873	0	0	0	0	0	0	0	0	0	0	0	0	0	0	0	0	0	0	0	0	0	0		1	0	0	0	0	0	0	0
011013	08:03:03	10019	Trial2BackFr	N	3	0	1000	1	103	08:03:03	1247886	0	0	0	0	0	0	0	0	0	0	0	0	0	0	0	0	0	0	0	0	0	0		1	0	0	0	0	0	0	0
011013	08:03:03	10019	Trial2BackFr	N	3	0	1000	1	104	08:03:03	1249392	0	0	0	0	0	0	0	0	0	0	0	0	0	0	0	0	0	0	0	0	0	0		1	0	0	0	0	0	0	0
011013	08:03:03	10019	Trial2BackFr	N	3	0	1000	1	105	08:03:03	1250898	0	0	0	0	0	0	0	0	0	0	0	0	0	0	0	0	0	0	0	0	0	0		1	0	0	0	0	0	0	0
011013	08:03:03	10019	Trial2BackFr	N	3	0	1000	1	106	08:03:03	1252404	0	0	0	0	0	0	0	0	0	0	0	0	0	0	0	0	0	0	0	0	0	0		1	0	0	0	0	0	0	0
011013	08:03:03	10019	Trial2BackFr	Y	3	57	517	1	107	08:03:03	1253430	0	0	0	0	0	0	0	0	0	0	0	0	0	0	0	0	0	0	0	0	0	0		1	0	0	0	0	0	0	0
011013	08:03:03	10019	Trial2BackFr	N	3	0	1000	1	108	08:03:03	1255416	0	0	0	0	0	0	0	0	0	0	0	0	0	0	0	0	0	0	0	0	0	0		1	0	0	0	0	0	0	0
011013	08:03:03	10019	Trial2BackFr	N	3	0	1000	1	109	08:03:03	1256922	0	0	0	0	0	0	0	0	0	0	0	0	0	0	0	0	0	0	0	0	0	0		1	0	0	0	0	0	0	0
011013	08:03:03	10019	Trial2BackFr	N	3	0	1000	1	110	08:03:03	1258428	0	0	0	0	0	0	0	0	0	0	0	0	0	0	0	0	0	0	0	0	0	0		1	0	0	0	0	0	0	0
011013	08:03:03	10019	Trial2BackFr	Y	3	57	700	1	111	08:03:03	1259641	0	0	0	0	0	0	0	0	0	0	0	0	0	0	0	0	0	0	0	0	0	0		1	0	0	0	0	0	0	0
011013	08:03:03	10019	Trial2BackFr	N	3	0	1000	1	112	08:03:03	1261440	0	0	0	0	0	0	0	0	0	0	0	0	0	0	0	0	0	0	0	0	0	0		1	0	0	0	0	0	0	0
011013	08:03:03	10019	Trial2BackFr	N	3	0	1000	1	113	08:03:03	1262960	0	0	0	0	0	0	0	0	0	0	0	0	0	0	0	0	0	0	0	0	0	0		1	0	0	0	0	0	0	0
011013	08:03:03	10019	Trial2BackFr	N	3	0	1000	1	114	08:03:03	1264466	0	0	0	0	0	0	0	0	0	0	0	0	0	0	0	0	0	0	0	0	0	0		1	0	0	0	0	0	0	0
011013	08:03:03	10019	Trial2BackFr	N	3	0	1000	1	115	08:03:03	1265972	0	0	0	0	0	0	0	0	0	0	0	0	0	0	0	0	0	0	0	0	0	0		1	0	0	0	0	0	0	0
011013	08:03:03	10019	Trial2BackFr	N	3	0	1000	1	116	08:03:03	1267478	0	0	0	0	0	0	0	0	0	0	0	0	0	0	0	0	0	0	0	0	0	0		1	0	0	0	0	0	0	0
011013	08:03:03	10019	Trial2BackFr	Y	3	57	450	1	117	08:03:03	1268438	0	0	0	0	0	0	0	0	0	0	0	0	0	0	0	0	0	0	0	0	0	0		1	0	0	0	0	0	0	0
011013	08:03:03	10019	Trial2BackFr	N	3	0	1000	1	118	08:03:03	1270490	0	0	0	0	0	0	0	0	0	0	0	0	0	0	0	0	0	0	0	0	0	0		1	0	0	0	0	0	0	0
011013	08:03:03	10019	Trial2BackFr	N	3	0	1000	1	119	08:03:03	1272009	0	0	0	0	0	0	0	0	0	0	0	0	0	0	0	0	0	0	0	0	0	0		1	0	0	0	0	0	0	0
011013	08:03:03	10019	Trial2BackFr	N	3	0	1000	1	120	08:03:03	1273515	0	0	0	0	0	0	0	0	0	0	0	0	0	0	0	0	0	0	0	0	0	0		1	0	0	0	0	0	0	0
011013	08:03:03	10019	Trial2BackFr	Y	3	57	557	1	121	08:03:03	1274582	0	0	0	0	0	0	0	0	0	0	0	0	0	0	0	0	0	0	0	0	0	0		1	0	0	0	0	0	0	0
011013	08:03:03	10019	Trial3BackFr	NN	4	0	1000	1	121	08:03:03	1299851	0	0	0	0	0	0	0	0	0	0	0	0	0	0	0	0	0	0	0	0	0	0		1	0	0	0	0	0	0	0
011013	08:03:03	10019	Trial3BackFr	NN	4	0	1000	1	121	08:03:03	1301358	0	0	0	0	0	0	0	0	0	0	0	0	0	0	0	0	0	0	0	0	0	0		1	0	0	0	0	0	0	0
011013	08:03:03	10019	Trial3BackFr	NN	4	0	1000	1	121	08:03:03	1302877	0	0	0	0	0	0	0	0	0	0	0	0	0	0	0	0	0	0	0	0	0	0		1	0	0	0	0	0	0	0
011013	08:03:03	10019	Trial3BackFr	YY	4	57	795	1	121	08:03:03	1304183	0	0	0	0	0	0	0	0	0	0	0	0	0	0	0	0	0	0	0	0	0	0		1	0	0	0	0	0	0	0
011013	08:03:03	10019	Trial3BackFr	NN	4	0	1000	1	121	08:03:03	1305889	0	0	0	0	0	0	0	0	0	0	0	0	0	0	0	0	0	0	0	0	0	0		1	0	0	0	0	0	0	0
011013	08:03:03	10019	Trial3BackFr	NN	4	0	1000	1	121	08:03:03	1307395	0	0	0	0	0	0	0	0	0	0	0	0	0	0	0	0	0	0	0	0	0	0		1	0	0	0	0	0	0	0
011013	08:03:03	10019	Trial3BackFr	NN	4	0	1000	1	121	08:03:03	1308901	0	0	0	0	0	0	0	0	0	0	0	0	0	0	0	0	0	0	0	0	0	0		1	0	0	0	0	0	0	0
011013	08:03:03	10019	Trial3BackFr	NN	4	0	1000	1	121	08:03:03	1310407	0	0	0	0	0	0	0	0	0	0	0	0	0	0	0	0	0	0	0	0	0	0		1	0	0	0	0	0	0	0
011013	08:03:03	10019	Trial3BackFr	YY	4	57	480	1	121	08:03:03	1311407	0	0	0	0	0	0	0	0	0	0	0	0	0	0	0	0	0	0	0	0	0	0		1	0	0	0	0	0	0	0
011013	08:03:03	10019	Trial3BackFr	NN	4	0	1000	1	121	08:03:03	1313419	0	0	0	0	0	0	0	0	0	0	0	0	0	0	0	0	0	0	0	0	0	0		1	0	0	0	0	0	0	0
011013	08:03:03	10019	Trial3BackFr	NN	4	0	1000	1	121	08:03:03	1314925	0	0	0	0	0	0	0	0	0	0	0	0	0	0	0	0	0	0	0	0	0	0		1	0	0	0	0	0	0	0
011013	08:03:03	10019	Trial3BackFr	NN	4	0	1000	1	121	08:03:03	1316445	0	0	0	0	0	0	0	0	0	0	0	0	0	0	0	0	0	0	0	0	0	0		1	0	0	0	0	0	0	0
011013	08:03:03	10019	Trial3BackFr	NN	4	0	1000	1	121	08:03:03	1317964	0	0	0	0	0	0	0	0	0	0	0	0	0	0	0	0	0	0	0	0	0	0		1	0	0	0	0	0	0	0
011013	08:03:03	10019	Trial3BackFr	NN	4	0	1000	1	121	08:03:03	1319470	0	0	0	0	0	0	0	0	0	0	0	0	0	0	0	0	0	0	0	0	0	0		1	0	0	0	0	0	0	0
011013	08:03:03	10019	Trial3BackFr	NN	4	0	1000	1	121	08:03:03	1320976	0	0	0	0	0	0	0	0	0	0	0	0	0	0	0	0	0	0	0	0	0	0		1	0	0	0	0	0	0	0
011013	08:03:03	10019	Trial3BackFr	NN	4	0	1000	1	121	08:03:03	1322482	0	0	0	0	0	0	0	0	0	0	0	0	0	0	0	0	0	0	0	0	0	0		1	0	0	0	0	0	0	0
011013	08:03:03	10019	Trial3BackFr	YY	4	57	645	1	121	08:03:03	1323642	0	0	0	0	0	0	0	0	0	0	0	0	0	0	0	0	0	0	0	0	0	0		1	0	0	0	0	0	0	0
011013	08:03:03	10019	Trial3BackFr	NN	4	0	1000	1	121	08:03:03	1325494	0	0	0	0	0	0	0	0	0	0	0	0	0	0	0	0	0	0	0	0	0	0		1	0	0	0	0	0	0	0
011013	08:03:03	10019	Trial3BackFr	NN	4	0	1000	1	121	08:03:03	1327014	0	0	0	0	0	0	0	0	0	0	0	0	0	0	0	0	0	0	0	0	0	0		1	0	0	0	0	0	0	0
011013	08:03:03	10019	Trial3BackFr	NN	4	0	1000	1	121	08:03:03	1328520	0	0	0	0	0	0	0	0	0	0	0	0	0	0	0	0	0	0	0	0	0	0		1	0	0	0	0	0	0	0
011013	08:03:03	10019	Trial3BackFr	NN	4	0	1000	1	121	08:03:03	1330026	0	0	0	0	0	0	0	0	0	0	0	0	0	0	0	0	0	0	0	0	0	0		1	0	0	0	0	0	0	0
011013	08:03:03	10019	Trial3BackFr	NN	4	0	1000	1	121	08:03:03	1331532	0	0	0	0	0	0	0	0	0	0	0	0	0	0	0	0	0	0	0	0	0	0		1	0	0	0	0	0	0	0
011013	08:03:03	10019	Trial3BackFr	YY	4	57	635	1	121	08:03:03	1332678	0	0	0	0	0	0	0	0	0	0	0	0	0	0	0	0	0	0	0	0	0	0		1	0	0	0	0	0	0	0
011013	08:03:03	10019	Trial3BackFr	NN	4	0	1000	1	121	08:03:03	1334544	0	0	0	0	0	0	0	0	0	0	0	0	0	0	0	0	0	0	0	0	0	0		1	0	0	0	0	0	0	0
011013	08:03:03	10019	Trial3BackFr	NN	4	0	1000	1	121	08:03:03	1336050	0	0	0	0	0	0	0	0	0	0	0	0	0	0	0	0	0	0	0	0	0	0		1	0	0	0	0	0	0	0
011013	08:03:03	10019	Trial3BackFr	NN	4	0	1000	1	121	08:03:03	1337556	0	0	0	0	0	0	0	0	0	0	0	0	0	0	0	0	0	0	0	0	0	0		1	0	0	0	0	0	0	0
011013	08:03:03	10019	Trial3BackFr	YY	4	57	819	1	121	08:03:03	1338889	0	0	0	0	0	0	0	0	0	0	0	0	0	0	0	0	0	0	0	0	0	0		1	0	0	0	0	0	0	0
011013	08:03:03	10019	Trial3BackFr	NN	4	0	1000	1	121	08:03:03	1340568	0	0	0	0	0	0	0	0	0	0	0	0	0	0	0	0	0	0	0	0	0	0		1	0	0	0	0	0	0	0
011013	08:03:03	10019	Trial3BackFr	NN	4	0	1000	1	121	08:03:03	1342074	0	0	0	0	0	0	0	0	0	0	0	0	0	0	0	0	0	0	0	0	0	0		1	0	0	0	0	0	0	0
011013	08:03:03	10019	Trial3BackFr	NN	4	0	1000	1	121	08:03:03	1343580	0	0	0	0	0	0	0	0	0	0	0	0	0	0	0	0	0	0	0	0	0	0		1	0	0	0	0	0	0	0
011013	08:03:03	10019	Trial3BackFr	YY	4	0	1000	0	121	08:03:03	1345100	0	0	0	0	0	0	0	0	0	0	0	0	0	0	0	0	0	0	0	0	0	0		1	0	0	0	0	0	0	0
011013	08:03:03	10019	Trial3BackFr	NN	4	0	1000	1	121	08:03:03	1346606	0	0	0	0	0	0	0	0	0	0	0	0	0	0	0	0	0	0	0	0	0	0		1	0	0	0	0	0	0	0
011013	08:03:03	10019	Trial3BackFr	NN	4	0	1000	1	121	08:03:03	1348112	0	0	0	0	0	0	0	0	0	0	0	0	0	0	0	0	0	0	0	0	0	0		1	0	0	0	0	0	0	0
011013	08:03:03	10019	Trial3BackFr	NN	4	0	1000	1	121	08:03:03	1349618	0	0	0	0	0	0	0	0	0	0	0	0	0	0	0	0	0	0	0	0	0	0		1	0	0	0	0	0	0	0
011013	08:03:03	10019	Trial3BackFr	NN	4	0	1000	1	121	08:03:03	1351137	0	0	0	0	0	0	0	0	0	0	0	0	0	0	0	0	0	0	0	0	0	0		1	0	0	0	0	0	0	0
011013	08:03:03	10019	Trial3BackFr	NN	4	0	1000	1	121	08:03:03	1352657	0	0	0	0	0	0	0	0	0	0	0	0	0	0	0	0	0	0	0	0	0	0		1	0	0	0	0	0	0	0
011013	08:03:03	10019	Trial3BackFr	NN	4	0	1000	1	121	08:03:03	1354163	0	0	0	0	0	0	0	0	0	0	0	0	0	0	0	0	0	0	0	0	0	0		1	0	0	0	0	0	0	0
011013	08:03:03	10019	Trial3BackFr	NN	4	0	1000	1	121	08:03:03	1355669	0	0	0	0	0	0	0	0	0	0	0	0	0	0	0	0	0	0	0	0	0	0		1	0	0	0	0	0	0	0
011013	08:03:03	10019	Trial3BackFr	NN	4	0	1000	1	121	08:03:03	1357175	0	0	0	0	0	0	0	0	0	0	0	0	0	0	0	0	0	0	0	0	0	0		1	0	0	0	0	0	0	0
011013	08:03:03	10019	Trial3BackFr	NN	4	0	1000	1	121	08:03:03	1358681	0	0	0	0	0	0	0	0	0	0	0	0	0	0	0	0	0	0	0	0	0	0		1	0	0	0	0	0	0	0
011013	08:03:03	10019	Trial3BackFr	NN	4	57	749	0	121	08:03:03	1359947	0	0	0	0	0	0	0	0	0	0	0	0	0	0	0	0	0	0	0	0	0	0		1	0	0	0	0	0	0	0
011013	08:03:03	10019	Trial3BackFr	YY	4	0	1000	0	121	08:03:03	1361693	0	0	0	0	0	0	0	0	0	0	0	0	0	0	0	0	0	0	0	0	0	0		1	0	0	0	0	0	0	0
011013	08:03:03	10019	Trial3BackFr	NN	4	0	1000	1	121	08:03:03	1363199	0	0	0	0	0	0	0	0	0	0	0	0	0	0	0	0	0	0	0	0	0	0		1	0	0	0	0	0	0	0
011013	08:03:03	10019	Trial3BackFr	NN	4	0	1000	1	121	08:03:03	1364705	0	0	0	0	0	0	0	0	0	0	0	0	0	0	0	0	0	0	0	0	0	0		1	0	0	0	0	0	0	0
011013	08:03:03	10019	Trial3BackFr	NN	4	0	1000	1	121	08:03:03	1366211	0	0	0	0	0	0	0	0	0	0	0	0	0	0	0	0	0	0	0	0	0	0		1	0	0	0	0	0	0	0
011013	08:03:03	10019	Trial3BackFr	NN	4	0	1000	1	121	08:03:03	1367731	0	0	0	0	0	0	0	0	0	0	0	0	0	0	0	0	0	0	0	0	0	0		1	0	0	0	0	0	0	0
011013	08:03:03	10019	Trial3BackFr	YY	4	57	659	1	121	08:03:03	1368903	0	0	0	0	0	0	0	0	0	0	0	0	0	0	0	0	0	0	0	0	0	0		1	0	0	0	0	0	0	0
011013	08:03:03	10019	Trial3BackFr	NN	4	0	1000	1	121	08:03:03	1370743	0	0	0	0	0	0	0	0	0	0	0	0	0	0	0	0	0	0	0	0	0	0		1	0	0	0	0	0	0	0
011013	08:03:03	10019	Trial3BackFr	NN	4	0	1000	1	121	08:03:03	1372249	0	0	0	0	0	0	0	0	0	0	0	0	0	0	0	0	0	0	0	0	0	0		1	0	0	0	0	0	0	0
011013	08:03:03	10019	Trial3BackFr	NN	4	0	1000	1	121	08:03:03	1373755	0	0	0	0	0	0	0	0	0	0	0	0	0	0	0	0	0	0	0	0	0	0		1	0	0	0	0	0	0	0
011013	08:03:03	10019	Trial3BackFr	NN	4	0	1000	1	121	08:03:03	1375274	0	0	0	0	0	0	0	0	0	0	0	0	0	0	0	0	0	0	0	0	0	0		1	0	0	0	0	0	0	0
011013	08:03:03	10019	Trial3BackFr	NN	4	0	1000	1	121	08:03:03	1376780	0	0	0	0	0	0	0	0	0	0	0	0	0	0	0	0	0	0	0	0	0	0		1	0	0	0	0	0	0	0
011013	08:03:03	10019	Trial3BackFr	YY	4	57	666	1	121	08:03:03	1377967	0	0	0	0	0	0	0	0	0	0	0	0	0	0	0	0	0	0	0	0	0	0		1	0	0	0	0	0	0	0
011013	08:03:03	10019	Trial3BackFr	NN	4	0	1000	1	121	08:03:03	1379792	0	0	0	0	0	0	0	0	0	0	0	0	0	0	0	0	0	0	0	0	0	0		1	0	0	0	0	0	0	0
011013	08:03:03	10019	Trial3BackFr	NN	4	0	1000	1	121	08:03:03	1381298	0	0	0	0	0	0	0	0	0	0	0	0	0	0	0	0	0	0	0	0	0	0		1	0	0	0	0	0	0	0
011013	08:03:03	10019	Trial3BackFr	NN	4	0	1000	1	121	08:03:03	1382804	0	0	0	0	0	0	0	0	0	0	0	0	0	0	0	0	0	0	0	0	0	0		1	0	0	0	0	0	0	0
011013	08:03:03	10019	Trial3BackFr	NN	4	0	1000	1	121	08:03:03	1384324	0	0	0	0	0	0	0	0	0	0	0	0	0	0	0	0	0	0	0	0	0	0		1	0	0	0	0	0	0	0
011013	08:03:03	10019	Trial3BackFr	NN	4	0	1000	1	121	08:03:03	1385830	0	0	0	0	0	0	0	0	0	0	0	0	0	0	0	0	0	0	0	0	0	0		1	0	0	0	0	0	0	0
011013	08:03:03	10019	Trial3BackFr	NN	4	0	1000	1	121	08:03:03	1387336	0	0	0	0	0	0	0	0	0	0	0	0	0	0	0	0	0	0	0	0	0	0		1	0	0	0	0	0	0	0
011013	08:03:03	10019	Trial3BackFr	YY	4	57	717	1	121	08:03:03	1388562	0	0	0	0	0	0	0	0	0	0	0	0	0	0	0	0	0	0	0	0	0	0		1	0	0	0	0	0	0	0
011013	08:03:03	10019	Trial3BackFr	NN	4	0	1000	1	121	08:03:03	1390348	0	0	0	0	0	0	0	0	0	0	0	0	0	0	0	0	0	0	0	0	0	0		1	0	0	0	0	0	0	0
011013	08:03:03	10019	Trial3BackFr	NN	4	0	1000	1	121	08:03:03	1391854	0	0	0	0	0	0	0	0	0	0	0	0	0	0	0	0	0	0	0	0	0	0		1	0	0	0	0	0	0	0
011013	08:03:03	10019	Trial3BackFr	NN	4	0	1000	1	121	08:03:03	1393374	0	0	0	0	0	0	0	0	0	0	0	0	0	0	0	0	0	0	0	0	0	0		1	0	0	0	0	0	0	0
011013	08:03:03	10019	Trial3BackFr	YY	4	57	808	1	121	08:03:03	1394693	0	0	0	0	0	0	0	0	0	0	0	0	0	0	0	0	0	0	0	0	0	0		1	0	0	0	0	0	0	0
011013	08:03:03	10019	Trial3BackFr	NN	4	0	1000	1	121	08:03:03	1396386	0	0	0	0	0	0	0	0	0	0	0	0	0	0	0	0	0	0	0	0	0	0		1	0	0	0	0	0	0	0
011013	08:03:03	10019	Trial3BackFr	NN	4	0	1000	1	121	08:03:03	1397892	0	0	0	0	0	0	0	0	0	0	0	0	0	0	0	0	0	0	0	0	0	0		1	0	0	0	0	0	0	0
011013	08:03:03	10019	Trial3BackFr	NN	4	0	1000	1	121	08:03:03	1399398	0	0	0	0	0	0	0	0	0	0	0	0	0	0	0	0	0	0	0	0	0	0		1	0	0	0	0	0	0	0
011013	08:03:03	10019	Trial3BackFr	NN	4	0	1000	1	121	08:03:03	1400904	0	0	0	0	0	0	0	0	0	0	0	0	0	0	0	0	0	0	0	0	0	0		1	0	0	0	0	0	0	0
011013	08:03:03	10019	Trial3BackFr	NN	4	0	1000	1	121	08:03:03	1402423	0	0	0	0	0	0	0	0	0	0	0	0	0	0	0	0	0	0	0	0	0	0		1	0	0	0	0	0	0	0
011013	08:03:03	10019	Trial3BackFr	NN	4	0	1000	1	121	08:03:03	1403929	0	0	0	0	0	0	0	0	0	0	0	0	0	0	0	0	0	0	0	0	0	0		1	0	0	0	0	0	0	0
011013	08:03:03	10019	Trial3BackFr	NN	4	0	1000	1	121	08:03:03	1405435	0	0	0	0	0	0	0	0	0	0	0	0	0	0	0	0	0	0	0	0	0	0		1	0	0	0	0	0	0	0
011013	08:03:03	10019	Trial3BackFr	NN	4	0	1000	1	121	08:03:03	1406941	0	0	0	0	0	0	0	0	0	0	0	0	0	0	0	0	0	0	0	0	0	0		1	0	0	0	0	0	0	0
011013	08:03:03	10019	Trial3BackFr	NN	4	0	1000	1	121	08:03:03	1408448	0	0	0	0	0	0	0	0	0	0	0	0	0	0	0	0	0	0	0	0	0	0		1	0	0	0	0	0	0	0
011013	08:03:03	10019	Trial3BackFr	YY	4	57	502	1	121	08:03:03	1409460	0	0	0	0	0	0	0	0	0	0	0	0	0	0	0	0	0	0	0	0	0	0		1	0	0	0	0	0	0	0
011013	08:03:03	10019	Trial3BackFr	NN	4	0	1000	1	121	08:03:03	1411460	0	0	0	0	0	0	0	0	0	0	0	0	0	0	0	0	0	0	0	0	0	0		1	0	0	0	0	0	0	0
011013	08:03:03	10019	Trial3BackFr	NN	4	0	1000	1	121	08:03:03	1412966	0	0	0	0	0	0	0	0	0	0	0	0	0	0	0	0	0	0	0	0	0	0		1	0	0	0	0	0	0	0
011013	08:03:03	10019	Trial3BackFr	NN	4	0	1000	1	121	08:03:03	1414472	0	0	0	0	0	0	0	0	0	0	0	0	0	0	0	0	0	0	0	0	0	0		1	0	0	0	0	0	0	0
011013	08:03:03	10019	Trial3BackFr	YY	4	0	1000	0	121	08:03:03	1415978	0	0	0	0	0	0	0	0	0	0	0	0	0	0	0	0	0	0	0	0	0	0		1	0	0	0	0	0	0	0
011013	08:03:03	10019	Trial3BackFr	NN	4	0	1000	1	121	08:03:03	1417484	0	0	0	0	0	0	0	0	0	0	0	0	0	0	0	0	0	0	0	0	0	0		1	0	0	0	0	0	0	0
011013	08:03:03	10019	Trial3BackFr	NN	4	0	1000	1	121	08:03:03	1419003	0	0	0	0	0	0	0	0	0	0	0	0	0	0	0	0	0	0	0	0	0	0		1	0	0	0	0	0	0	0
011013	08:03:03	10019	Trial3BackFr	NN	4	0	1000	1	121	08:03:03	1420509	0	0	0	0	0	0	0	0	0	0	0	0	0	0	0	0	0	0	0	0	0	0		1	0	0	0	0	0	0	0
011013	08:03:03	10019	Trial3BackFr	NN	4	0	1000	1	121	08:03:03	1422015	0	0	0	0	0	0	0	0	0	0	0	0	0	0	0	0	0	0	0	0	0	0		1	0	0	0	0	0	0	0
011013	08:03:03	10019	Trial3BackFr	NN	4	0	1000	1	121	08:03:03	1423521	0	0	0	0	0	0	0	0	0	0	0	0	0	0	0	0	0	0	0	0	0	0		1	0	0	0	0	0	0	0
011013	08:03:03	10019	Trial3BackFr	YY	4	57	803	1	121	08:03:03	1424841	0	0	0	0	0	0	0	0	0	0	0	0	0	0	0	0	0	0	0	0	0	0		1	0	0	0	0	0	0	0
011013	08:03:03	10019	Trial3BackFr	NN	4	0	1000	1	121	08:03:03	1426533	0	0	0	0	0	0	0	0	0	0	0	0	0	0	0	0	0	0	0	0	0	0		1	0	0	0	0	0	0	0
011013	08:03:03	10019	Trial3BackFr	NN	4	0	1000	1	121	08:03:03	1428053	0	0	0	0	0	0	0	0	0	0	0	0	0	0	0	0	0	0	0	0	0	0		1	0	0	0	0	0	0	0
011013	08:03:03	10019	Trial3BackFr	NN	4	0	1000	1	121	08:03:03	1429559	0	0	0	0	0	0	0	0	0	0	0	0	0	0	0	0	0	0	0	0	0	0		1	0	0	0	0	0	0	0
011013	08:03:03	10019	Trial3BackFr	NN	4	0	1000	1	121	08:03:03	1431065	0	0	0	0	0	0	0	0	0	0	0	0	0	0	0	0	0	0	0	0	0	0		1	0	0	0	0	0	0	0
011013	08:03:03	10019	Trial3BackFr	NN	4	0	1000	1	121	08:03:03	1432571	0	0	0	0	0	0	0	0	0	0	0	0	0	0	0	0	0	0	0	0	0	0		1	0	0	0	0	0	0	0
011013	08:03:03	10019	Trial3BackFr	NN	4	0	1000	1	121	08:03:03	1434090	0	0	0	0	0	0	0	0	0	0	0	0	0	0	0	0	0	0	0	0	0	0		1	0	0	0	0	0	0	0
011013	08:03:03	10019	Trial3BackFr	NN	4	0	1000	1	121	08:03:03	1435610	0	0	0	0	0	0	0	0	0	0	0	0	0	0	0	0	0	0	0	0	0	0		1	0	0	0	0	0	0	0
011013	08:03:03	10019	Trial3BackFr	NN	4	0	1000	1	121	08:03:03	1437116	0	0	0	0	0	0	0	0	0	0	0	0	0	0	0	0	0	0	0	0	0	0		1	0	0	0	0	0	0	0
011013	08:03:03	10019	Trial3BackFr	NN	4	0	1000	1	121	08:03:03	1438622	0	0	0	0	0	0	0	0	0	0	0	0	0	0	0	0	0	0	0	0	0	0		1	0	0	0	0	0	0	0
011013	08:03:03	10019	Trial3BackFr	YY	4	57	710	1	121	08:03:03	1439848	0	0	0	0	0	0	0	0	0	0	0	0	0	0	0	0	0	0	0	0	0	0		1	0	0	0	0	0	0	0
011013	08:03:03	10019	Trial3BackFr	NN	4	0	1000	1	121	08:03:03	1441634	0	0	0	0	0	0	0	0	0	0	0	0	0	0	0	0	0	0	0	0	0	0		1	0	0	0	0	0	0	0
011013	08:03:03	10019	Trial3BackFr	NN	4	0	1000	1	121	08:03:03	1443153	0	0	0	0	0	0	0	0	0	0	0	0	0	0	0	0	0	0	0	0	0	0		1	0	0	0	0	0	0	0
011013	08:03:03	10019	Trial3BackFr	NN	4	0	1000	1	121	08:03:03	1444659	0	0	0	0	0	0	0	0	0	0	0	0	0	0	0	0	0	0	0	0	0	0		1	0	0	0	0	0	0	0
011013	08:03:03	10019	Trial3BackFr	NN	4	0	1000	1	121	08:03:03	1446166	0	0	0	0	0	0	0	0	0	0	0	0	0	0	0	0	0	0	0	0	0	0		1	0	0	0	0	0	0	0
011013	08:03:03	10019	Trial3BackFr	NN	4	0	1000	1	121	08:03:03	1447671	0	0	0	0	0	0	0	0	0	0	0	0	0	0	0	0	0	0	0	0	0	0		1	0	0	0	0	0	0	0
011013	08:03:03	10019	Trial3BackFr	NN	4	0	1000	1	121	08:03:03	1449178	0	0	0	0	0	0	0	0	0	0	0	0	0	0	0	0	0	0	0	0	0	0		1	0	0	0	0	0	0	0
011013	08:03:03	10019	Trial3BackFr	NN	4	0	1000	1	121	08:03:03	1450684	0	0	0	0	0	0	0	0	0	0	0	0	0	0	0	0	0	0	0	0	0	0		1	0	0	0	0	0	0	0
011013	08:03:03	10019	Trial3BackFr	NN	4	0	1000	1	121	08:03:03	1452190	0	0	0	0	0	0	0	0	0	0	0	0	0	0	0	0	0	0	0	0	0	0		1	0	0	0	0	0	0	0
011013	08:03:03	10019	Trial3BackFr	YY	4	57	871	1	121	08:03:03	1453576	0	0	0	0	0	0	0	0	0	0	0	0	0	0	0	0	0	0	0	0	0	0		1	0	0	0	0	0	0	0
011013	08:03:03	10019	Trial3BackFr	NN	4	0	1000	1	121	08:03:03	1455202	0	0	0	0	0	0	0	0	0	0	0	0	0	0	0	0	0	0	0	0	0	0		1	0	0	0	0	0	0	0
011013	08:03:03	10019	Trial3BackFr	NN	4	0	1000	1	121	08:03:03	1456708	0	0	0	0	0	0	0	0	0	0	0	0	0	0	0	0	0	0	0	0	0	0		1	0	0	0	0	0	0	0
011013	08:03:03	10019	Trial3BackFr	NN	4	0	1000	1	121	08:03:03	1458214	0	0	0	0	0	0	0	0	0	0	0	0	0	0	0	0	0	0	0	0	0	0		1	0	0	0	0	0	0	0
011013	08:03:03	10019	Trial3BackFr	NN	4	0	1000	1	121	08:03:03	1459733	0	0	0	0	0	0	0	0	0	0	0	0	0	0	0	0	0	0	0	0	0	0		1	0	0	0	0	0	0	0
011013	08:03:03	10019	Trial3BackFr	YY	4	57	638	1	121	08:03:03	1460879	0	0	0	0	0	0	0	0	0	0	0	0	0	0	0	0	0	0	0	0	0	0		1	0	0	0	0	0	0	0
011013	08:03:03	10019	Trial3BackFr	NN	4	0	1000	1	121	08:03:03	1462745	0	0	0	0	0	0	0	0	0	0	0	0	0	0	0	0	0	0	0	0	0	0		1	0	0	0	0	0	0	0
011013	08:03:03	10019	Trial3BackFr	NN	4	0	1000	1	121	08:03:03	1464251	0	0	0	0	0	0	0	0	0	0	0	0	0	0	0	0	0	0	0	0	0	0		1	0	0	0	0	0	0	0
011013	08:03:03	10019	Trial3BackFr	NN	4	0	1000	1	121	08:03:03	1465758	0	0	0	0	0	0	0	0	0	0	0	0	0	0	0	0	0	0	0	0	0	0		1	0	0	0	0	0	0	0
011013	08:03:03	10019	Trial3BackFr	YY	4	57	822	1	121	08:03:03	1467090	0	0	0	0	0	0	0	0	0	0	0	0	0	0	0	0	0	0	0	0	0	0		1	0	0	0	0	0	0	0
011013	08:03:03	10019	Trial3BackFr	NN	4	0	1000	1	121	08:03:03	1468770	0	0	0	0	0	0	0	0	0	0	0	0	0	0	0	0	0	0	0	0	0	0		1	0	0	0	0	0	0	0
011013	08:03:03	10019	Trial3BackFr	NN	4	0	1000	1	121	08:03:03	1470276	0	0	0	0	0	0	0	0	0	0	0	0	0	0	0	0	0	0	0	0	0	0		1	0	0	0	0	0	0	0
011013	08:03:03	10019	Trial3BackFr	NN	4	0	1000	1	121	08:03:03	1471782	0	0	0	0	0	0	0	0	0	0	0	0	0	0	0	0	0	0	0	0	0	0		1	0	0	0	0	0	0	0
011013	08:03:03	10019	Trial3BackFr	NN	4	0	1000	1	121	08:03:03	1473288	0	0	0	0	0	0	0	0	0	0	0	0	0	0	0	0	0	0	0	0	0	0		1	0	0	0	0	0	0	0
011013	08:03:03	10019	Trial3BackFr	NN	4	0	1000	1	121	08:03:03	1474794	0	0	0	0	0	0	0	0	0	0	0	0	0	0	0	0	0	0	0	0	0	0		1	0	0	0	0	0	0	0
011013	08:03:03	10019	Trial3BackFr	YY	4	57	665	1	121	08:03:03	1475980	0	0	0	0	0	0	0	0	0	0	0	0	0	0	0	0	0	0	0	0	0	0		1	0	0	0	0	0	0	0
011013	08:03:03	10019	Trial3BackFr	NN	4	0	1000	1	121	08:03:03	1477806	0	0	0	0	0	0	0	0	0	0	0	0	0	0	0	0	0	0	0	0	0	0		1	0	0	0	0	0	0	0
011013	08:03:03	10019	Trial3BackFr	NN	4	0	1000	1	121	08:03:03	1479312	0	0	0	0	0	0	0	0	0	0	0	0	0	0	0	0	0	0	0	0	0	0		1	0	0	0	0	0	0	0
011013	08:03:03	10019	Trial3BackFr	NN	4	0	1000	1	121	08:03:03	1480818	0	0	0	0	0	0	0	0	0	0	0	0	0	0	0	0	0	0	0	0	0	0		1	0	0	0	0	0	0	0
011013	08:03:03	10019	Trial3BackFr	YY	4	57	785	1	121	08:03:03	1482124	0	0	0	0	0	0	0	0	0	0	0	0	0	0	0	0	0	0	0	0	0	0		1	0	0	0	0	0	0	0
011013	08:03:03	10019	Memory1R6moFr	ScoreFr	5	M8	21118	0	121	08:03:03	1535583	0	0	0	0	0	0	0	0	0	0	0	0	0	0	0	0	0	0	0	0	0	0		1	0	0	0	0	0	0	0
011013	08:03:03	10019	Memory1R6moFr	ScoreFr	5	M6	2090	0	121	08:03:03	1537729	0	0	0	0	0	0	0	0	0	0	0	0	0	0	0	0	0	0	0	0	0	0		1	0	0	0	0	0	0	0
011013	08:03:03	10019	Memory1R6moFr	ScoreFr	5	M5	264	0	121	08:03:03	1538049	0	0	0	0	0	0	0	0	0	0	0	0	0	0	0	0	0	0	0	0	0	0		1	0	0	0	0	0	0	0
011013	08:03:03	10019	Memory1R6moFr	ScoreFr	5	M5	312	0	121	08:03:03	1538408	0	0	0	0	0	0	0	0	0	0	0	0	0	0	0	0	0	0	0	0	0	0		1	0	0	0	0	0	0	0
011013	08:03:03	10019	Memory1R6moFr	ScoreFr	5	M4	384	0	121	08:03:03	1538848	0	0	0	0	0	0	0	0	0	0	0	0	0	0	0	0	0	0	0	0	0	0		1	0	0	0	0	0	0	0
011013	08:03:03	10019	Memory1R6moFr	ScoreFr	5	M5	352	0	121	08:03:03	1539248	0	0	0	0	0	0	0	0	0	0	0	0	0	0	0	0	0	0	0	0	0	0		1	0	0	0	0	0	0	0
011013	08:03:03	10019	Memory1R6moFr	ScoreFr	5	M1	2385	0	121	08:03:03	1541687	0	0	0	0	0	0	0	0	0	0	0	0	0	0	0	0	0	0	0	0	0	0		1	0	0	0	0	0	0	0
011013	08:03:03	10019	Memory1R6moFr	ScoreFr	5	M2	369	0	121	08:03:03	1542100	0	0	0	0	0	0	0	0	0	0	0	0	0	0	0	0	0	0	0	0	0	0		1	0	0	0	0	0	0	0
011013	08:03:03	10019	Memory1R6moFr	ScoreFr	5	M3	6573	0	121	08:03:03	1548724	0	0	0	0	0	0	0	0	0	0	0	0	0	0	0	0	0	0	0	0	0	0		1	0	0	0	0	0	0	0
011013	08:03:03	10019	Memory1R6moFr	ScoreFr	5	Done	11428	0	121	08:03:03	1560200	0	0	0	0	0	0	0	0	0	0	0	0	0	0	0	0	0	0	0	0	0	0		1	0	0	0	0	0	0	0
011013	08:03:03	10019	Memory2R6moFr	ScoreFr2	5	11	22393	0	121	08:03:03	1599490	0	0	0	0	0	0	0	0	0	0	0	0	0	0	0	0	0	0	0	0	0	0		1	0	0	0	0	0	0	0
011013	08:03:03	10019	Memory2R6moFr	ScoreFr2	5	22	189	0	121	08:03:03	1599730	0	0	0	0	0	0	0	0	0	0	0	0	0	0	0	0	0	0	0	0	0	0		1	0	0	0	0	0	0	0
011013	08:03:03	10019	Memory2R6moFr	ScoreFr2	5	33	189	0	121	08:03:03	1599970	0	0	0	0	0	0	0	0	0	0	0	0	0	0	0	0	0	0	0	0	0	0		1	0	0	0	0	0	0	0
011013	08:03:03	10019	Memory2R6moFr	ScoreFr2	5	44	261	0	121	08:03:03	1600277	0	0	0	0	0	0	0	0	0	0	0	0	0	0	0	0	0	0	0	0	0	0		1	0	0	0	0	0	0	0
011013	08:03:03	10019	Memory2R6moFr	ScoreFr2	5	55	234	0	121	08:03:03	1600557	0	0	0	0	0	0	0	0	0	0	0	0	0	0	0	0	0	0	0	0	0	0		1	0	0	0	0	0	0	0
011013	08:03:03	10019	Memory2R6moFr	ScoreFr2	5	66	211	0	121	08:03:03	1600823	0	0	0	0	0	0	0	0	0	0	0	0	0	0	0	0	0	0	0	0	0	0		1	0	0	0	0	0	0	0
011013	08:03:03	10019	Memory2R6moFr	ScoreFr2	5	77	256	0	121	08:03:03	1601130	0	0	0	0	0	0	0	0	0	0	0	0	0	0	0	0	0	0	0	0	0	0		1	0	0	0	0	0	0	0
011013	08:03:03	10019	Memory2R6moFr	ScoreFr2	5	88	237	0	121	08:03:03	1601423	0	0	0	0	0	0	0	0	0	0	0	0	0	0	0	0	0	0	0	0	0	0		1	0	0	0	0	0	0	0
011013	08:03:03	10019	Memory2R6moFr	ScoreFr2	5	Done	840	0	121	08:03:03	1602316	0	0	0	0	0	0	0	0	0	0	0	0	0	0	0	0	0	0	0	0	0	0		1	0	0	0	0	0	0	0
011013	08:03:03	10019	Memory3R6moFr	ScoreFr3	5	111	17858	0	121	08:03:03	1638061	0	0	0	0	0	0	0	0	0	0	0	0	0	0	0	0	0	0	0	0	0	0		1	0	0	0	0	0	0	0
011013	08:03:03	10019	Memory3R6moFr	ScoreFr3	5	222	209	0	121	08:03:03	1638315	0	0	0	0	0	0	0	0	0	0	0	0	0	0	0	0	0	0	0	0	0	0		1	0	0	0	0	0	0	0
011013	08:03:03	10019	Memory3R6moFr	ScoreFr3	5	333	236	0	121	08:03:03	1638594	0	0	0	0	0	0	0	0	0	0	0	0	0	0	0	0	0	0	0	0	0	0		1	0	0	0	0	0	0	0
011013	08:03:03	10019	Memory3R6moFr	ScoreFr3	5	444	348	0	121	08:03:03	1638994	0	0	0	0	0	0	0	0	0	0	0	0	0	0	0	0	0	0	0	0	0	0		1	0	0	0	0	0	0	0
011013	08:03:03	10019	Memory3R6moFr	ScoreFr3	5	555	276	0	121	08:03:03	1639314	0	0	0	0	0	0	0	0	0	0	0	0	0	0	0	0	0	0	0	0	0	0		1	0	0	0	0	0	0	0
011013	08:03:03	10019	Memory3R6moFr	ScoreFr3	5	666	500	0	121	08:03:03	1639861	0	0	0	0	0	0	0	0	0	0	0	0	0	0	0	0	0	0	0	0	0	0		1	0	0	0	0	0	0	0
011013	08:03:03	10019	Memory3R6moFr	ScoreFr3	5	777	257	0	121	08:03:03	1640167	0	0	0	0	0	0	0	0	0	0	0	0	0	0	0	0	0	0	0	0	0	0		1	0	0	0	0	0	0	0
011013	08:03:03	10019	Memory3R6moFr	ScoreFr3	5	888	359	0	121	08:03:03	1640580	0	0	0	0	0	0	0	0	0	0	0	0	0	0	0	0	0	0	0	0	0	0		1	0	0	0	0	0	0	0
011013	08:03:03	10019	Memory3R6moFr	ScoreFr3	5	Done	626	0	121	08:03:03	1641260	0	0	0	0	0	0	0	0	0	0	0	0	0	0	0	0	0	0	0	0	0	0		1	0	0	0	0	0	0	0
011013	08:03:03	10019	LoriaFrLH3	Stop	6	3	2835	0	121	08:03:03	1705129	0	0	0	0	0	0	0	0	0	0	0	0	0	0	0	0	0	0	0	0	0	0		1	0	0	0	0	0	0	0
011013	08:03:03	10019	FrTrail	Trails	7	1Trails	1642	0	121	08:03:03	1740007	0	0	0	0	0	0	0	0	0	0	0	0	0	0	0	0	0	0	0	0	0	0		1	0	0	0	0	0	0	0
011013	08:03:03	10019	Serial7Fr6mo	Serial7Fr6mo	8	73	12879	0	121	08:03:03	1763452	1	0	0	0	0	0	0	0	0	0	0	0	0	0	0	0	0	0	0	0	0	0		1	0	0	0	0	0	0	0
011013	08:03:03	10019	Serial7Fr6mo	Serial7Fr6mo	8	66	3067	0	121	08:03:03	1766545	2	0	0	0	0	0	0	0	0	0	0	0	0	0	0	0	0	0	0	0	0	0		1	0	0	0	0	0	0	0
011013	08:03:03	10019	Serial7Fr6mo	Serial7Fr6mo	8	59	3270	0	121	08:03:03	1769837	3	0	0	0	0	0	0	0	0	0	0	0	0	0	0	0	0	0	0	0	0	0		1	0	0	0	0	0	0	0
011013	08:03:03	10019	Serial7Fr6mo	Serial7Fr6mo	8	52	2650	0	121	08:03:03	1772503	4	0	0	0	0	0	0	0	0	0	0	0	0	0	0	0	0	0	0	0	0	0		1	0	0	0	0	0	0	0
011013	08:03:03	10019	Serial7Fr6mo	Serial7Fr6mo	8	45	2095	0	121	08:03:03	1774623	5	0	0	0	0	0	0	0	0	0	0	0	0	0	0	0	0	0	0	0	0	0		1	0	0	0	0	0	0	0
011013	08:03:03	10019	corsiblockFrFwrd	recallseqFrFwrd	9	3	1945	0	121	08:03:03	1830546	5	0	0	0	0	0	0	0	0	0	0	0	0	0	0	0	0	0	0	0	0	0		1	0	0	0	0	0	0	0
011013	08:03:03	10019	corsiblockFrFwrd	recallseqFrFwrd	9	2	1090	0	121	08:03:03	1831693	5	0	0	0	0	0	0	0	0	0	0	0	0	0	0	0	0	0	0	0	0	0		1	0	0	0	0	0	0	0
011013	08:03:03	10019	corsiblockFrFwrd	recallseqFrFwrd	9	doneCorsiFr	1200	0	121	08:03:03	1832945	5	0	0	0	0	0	0	0	0	0	0	0	0	0	0	2	0	0	0	0	0	0		1	0	0	0	0	0	0	0
011013	08:03:03	10019	corsiblockFrFwrd	recallseqFrFwrd	9	8	1437	0	121	08:03:03	1840516	5	0	0	0	0	0	0	0	0	0	0	0	0	0	0	2	0	0	0	0	0	0		1	0	0	0	0	0	0	0
011013	08:03:03	10019	corsiblockFrFwrd	recallseqFrFwrd	9	5	632	0	121	08:03:03	1841195	5	0	0	0	0	0	0	0	0	0	0	0	0	0	0	2	0	0	0	0	0	0		1	0	0	0	0	0	0	0
011013	08:03:03	10019	corsiblockFrFwrd	recallseqFrFwrd	9	9	833	0	121	08:03:03	1842075	5	0	0	0	0	0	0	0	0	0	0	0	0	0	0	2	0	0	0	0	0	0		1	0	0	0	0	0	0	0
011013	08:03:03	10019	corsiblockFrFwrd	recallseqFrFwrd	9	doneCorsiFr	1297	0	121	08:03:03	1843421	5	0	0	0	0	0	0	0	0	0	0	0	0	0	0	3	0	0	0	0	0	0		1	0	0	0	0	0	0	0
011013	08:03:03	10019	corsiblockFrFwrd	recallseqFrFwrd	9	7	1049	0	121	08:03:03	1851605	5	0	0	0	0	0	0	0	0	0	0	0	0	0	0	3	0	0	0	0	0	0		1	0	0	0	0	0	0	0
011013	08:03:03	10019	corsiblockFrFwrd	recallseqFrFwrd	9	1	879	0	121	08:03:03	1852537	5	0	0	0	0	0	0	0	0	0	0	0	0	0	0	3	0	0	0	0	0	0		1	0	0	0	0	0	0	0
011013	08:03:03	10019	corsiblockFrFwrd	recallseqFrFwrd	9	4	746	0	121	08:03:03	1853337	5	0	0	0	0	0	0	0	0	0	0	0	0	0	0	3	0	0	0	0	0	0		1	0	0	0	0	0	0	0
011013	08:03:03	10019	corsiblockFrFwrd	recallseqFrFwrd	9	6	579	0	121	08:03:03	1853963	5	0	0	0	0	0	0	0	0	0	0	0	0	0	0	3	0	0	0	0	0	0		1	0	0	0	0	0	0	0
011013	08:03:03	10019	corsiblockFrFwrd	recallseqFrFwrd	9	doneCorsiFr	960	0	121	08:03:03	1854976	5	0	0	0	0	0	0	0	0	0	0	0	0	0	0	4	0	0	0	0	0	0		1	0	0	0	0	0	0	0
011013	08:03:03	10019	corsiblockFrFwrd	recallseqFrFwrd	9	2	1054	0	121	08:03:03	1864160	5	0	0	0	0	0	0	0	0	0	0	0	0	0	0	4	0	0	0	0	0	0		1	0	0	0	0	0	0	0
011013	08:03:03	10019	corsiblockFrFwrd	recallseqFrFwrd	9	8	2436	0	121	08:03:03	1866652	5	0	0	0	0	0	0	0	0	0	0	0	0	0	0	4	0	0	0	0	0	0		1	0	0	0	0	0	0	0
011013	08:03:03	10019	corsiblockFrFwrd	recallseqFrFwrd	9	7	760	0	121	08:03:03	1867465	5	0	0	0	0	0	0	0	0	0	0	0	0	0	0	4	0	0	0	0	0	0		1	0	0	0	0	0	0	0
011013	08:03:03	10019	corsiblockFrFwrd	recallseqFrFwrd	9	6	1155	0	121	08:03:03	1868664	5	0	0	0	0	0	0	0	0	0	0	0	0	0	0	4	0	0	0	0	0	0		1	0	0	0	0	0	0	0
011013	08:03:03	10019	corsiblockFrFwrd	recallseqFrFwrd	9	1	915	0	121	08:03:03	1869624	5	0	0	0	0	0	0	0	0	0	0	0	0	0	0	4	0	0	0	0	0	0		1	0	0	0	0	0	0	0
011013	08:03:03	10019	corsiblockFrFwrd	recallseqFrFwrd	9	doneCorsiFr	1763	0	121	08:03:03	1871437	5	0	0	0	0	0	0	0	0	0	0	0	0	0	0	5	0	0	0	0	0	0		1	0	0	0	0	0	0	0
011013	08:03:03	10019	corsiblockFrFwrd	recallseqFrFwrd	9	5	3162	0	121	08:03:03	1883725	5	0	0	0	0	0	0	0	0	0	0	0	0	0	0	5	0	0	0	0	0	0		1	0	0	0	0	0	0	0
011013	08:03:03	10019	corsiblockFrFwrd	recallseqFrFwrd	9	4	710	0	121	08:03:03	1884485	5	0	0	0	0	0	0	0	0	0	0	0	0	0	0	5	0	0	0	0	0	0		1	0	0	0	0	0	0	0
011013	08:03:03	10019	corsiblockFrFwrd	recallseqFrFwrd	9	3	1199	0	121	08:03:03	1885737	5	0	0	0	0	0	0	0	0	0	0	0	0	0	0	5	0	0	0	0	0	0		1	0	0	0	0	0	0	0
011013	08:03:03	10019	corsiblockFrFwrd	recallseqFrFwrd	9	9	1409	0	121	08:03:03	1887203	5	0	0	0	0	0	0	0	0	0	0	0	0	0	0	5	0	0	0	0	0	0		1	0	0	0	0	0	0	0
011013	08:03:03	10019	corsiblockFrFwrd	recallseqFrFwrd	9	4	3759	0	121	08:03:03	1891015	5	0	0	0	0	0	0	0	0	0	0	0	0	0	0	5	0	0	0	0	0	0		1	0	0	0	0	0	0	0
011013	08:03:03	10019	corsiblockFrFwrd	recallseqFrFwrd	9	doneCorsiFr	1627	0	121	08:03:03	1892695	5	0	0	0	0	0	0	0	0	0	0	0	0	0	0	5	0	0	0	0	0	0		1	0	0	0	0	0	0	0
011013	08:03:03	10019	corsiblockFrFwrd	recallseqFrFwrd	9	5	17767	0	121	08:03:03	1919550	5	0	0	0	0	0	0	0	0	0	0	0	0	0	0	5	0	0	0	0	0	0		1	0	0	0	0	0	0	0
011013	08:03:03	10019	corsiblockFrFwrd	recallseqFrFwrd	9	3	876	0	121	08:03:03	1920470	5	0	0	0	0	0	0	0	0	0	0	0	0	0	0	5	0	0	0	0	0	0		1	0	0	0	0	0	0	0
011013	08:03:03	10019	corsiblockFrFwrd	recallseqFrFwrd	9	9	1236	0	121	08:03:03	1921763	5	0	0	0	0	0	0	0	0	0	0	0	0	0	0	5	0	0	0	0	0	0		1	0	0	0	0	0	0	0
011013	08:03:03	10019	corsiblockFrFwrd	recallseqFrFwrd	9	6	1255	0	121	08:03:03	1923069	5	0	0	0	0	0	0	0	0	0	0	0	0	0	0	5	0	0	0	0	0	0		1	0	0	0	0	0	0	0
011013	08:03:03	10019	corsiblockFrFwrd	recallseqFrFwrd	9	8	861	0	121	08:03:03	1923975	5	0	0	0	0	0	0	0	0	0	0	0	0	0	0	5	0	0	0	0	0	0		1	0	0	0	0	0	0	0
011013	08:03:03	10019	corsiblockFrFwrd	recallseqFrFwrd	9	doneCorsiFr	2203	0	121	08:03:03	1926228	5	0	0	0	0	0	0	0	0	0	0	0	0	0	0	5	0	0	0	0	0	0		1	0	0	0	0	0	0	0
011013	08:03:03	10019	corsiblockFrRev	recallseqFrRev	10	6	1035	0	121	08:03:03	1938383	5	0	0	0	0	0	0	0	0	0	0	0	0	0	0	5	0	0	0	0	0	0		1	0	0	0	0	0	0	0
011013	08:03:03	10019	corsiblockFrRev	recallseqFrRev	10	5	787	0	121	08:03:03	1939223	5	0	0	0	0	0	0	0	0	0	0	0	0	0	0	5	0	0	0	0	0	0		1	0	0	0	0	0	0	0
011013	08:03:03	10019	corsiblockFrRev	recallseqFrRev	10	doneCorsiFr	1131	0	121	08:03:03	1940409	5	0	0	0	0	0	0	0	0	0	0	0	0	0	0	5	2	0	0	0	0	0		1	0	0	0	0	0	0	0
011013	08:03:03	10019	corsiblockFrRev	recallseqFrRev	10	4	915	0	121	08:03:03	1947446	5	0	0	0	0	0	0	0	0	0	0	0	0	0	0	5	2	0	0	0	0	0		1	0	0	0	0	0	0	0
011013	08:03:03	10019	corsiblockFrRev	recallseqFrRev	10	2	876	0	121	08:03:03	1948365	5	0	0	0	0	0	0	0	0	0	0	0	0	0	0	5	2	0	0	0	0	0		1	0	0	0	0	0	0	0
011013	08:03:03	10019	corsiblockFrRev	recallseqFrRev	10	7	724	0	121	08:03:03	1949138	5	0	0	0	0	0	0	0	0	0	0	0	0	0	0	5	2	0	0	0	0	0		1	0	0	0	0	0	0	0
011013	08:03:03	10019	corsiblockFrRev	recallseqFrRev	10	doneCorsiFr	895	0	121	08:03:03	1950085	5	0	0	0	0	0	0	0	0	0	0	0	0	0	0	5	3	0	0	0	0	0		1	0	0	0	0	0	0	0
011013	08:03:03	10019	corsiblockFrRev	recallseqFrRev	10	3	786	0	121	08:03:03	1958015	5	0	0	0	0	0	0	0	0	0	0	0	0	0	0	5	3	0	0	0	0	0		1	0	0	0	0	0	0	0
011013	08:03:03	10019	corsiblockFrRev	recallseqFrRev	10	9	923	0	121	08:03:03	1958988	5	0	0	0	0	0	0	0	0	0	0	0	0	0	0	5	3	0	0	0	0	0		1	0	0	0	0	0	0	0
011013	08:03:03	10019	corsiblockFrRev	recallseqFrRev	10	1	813	0	121	08:03:03	1959854	5	0	0	0	0	0	0	0	0	0	0	0	0	0	0	5	3	0	0	0	0	0		1	0	0	0	0	0	0	0
011013	08:03:03	10019	corsiblockFrRev	recallseqFrRev	10	8	1051	0	121	08:03:03	1960960	5	0	0	0	0	0	0	0	0	0	0	0	0	0	0	5	3	0	0	0	0	0		1	0	0	0	0	0	0	0
011013	08:03:03	10019	corsiblockFrRev	recallseqFrRev	10	doneCorsiFr	705	0	121	08:03:03	1961720	5	0	0	0	0	0	0	0	0	0	0	0	0	0	0	5	4	0	0	0	0	0		1	0	0	0	0	0	0	0
011013	08:03:03	10019	corsiblockFrRev	recallseqFrRev	10	6	1276	0	121	08:03:03	1971130	5	0	0	0	0	0	0	0	0	0	0	0	0	0	0	5	4	0	0	0	0	0		1	0	0	0	0	0	0	0
011013	08:03:03	10019	corsiblockFrRev	recallseqFrRev	10	2	775	0	121	08:03:03	1971956	5	0	0	0	0	0	0	0	0	0	0	0	0	0	0	5	4	0	0	0	0	0		1	0	0	0	0	0	0	0
011013	08:03:03	10019	corsiblockFrRev	recallseqFrRev	10	9	709	0	121	08:03:03	1972716	5	0	0	0	0	0	0	0	0	0	0	0	0	0	0	5	4	0	0	0	0	0		1	0	0	0	0	0	0	0
011013	08:03:03	10019	corsiblockFrRev	recallseqFrRev	10	3	805	0	121	08:03:03	1973569	5	0	0	0	0	0	0	0	0	0	0	0	0	0	0	5	4	0	0	0	0	0		1	0	0	0	0	0	0	0
011013	08:03:03	10019	corsiblockFrRev	recallseqFrRev	10	1	992	0	121	08:03:03	1974608	5	0	0	0	0	0	0	0	0	0	0	0	0	0	0	5	4	0	0	0	0	0		1	0	0	0	0	0	0	0
011013	08:03:03	10019	corsiblockFrRev	recallseqFrRev	10	doneCorsiFr	961	0	121	08:03:03	1975621	5	0	0	0	0	0	0	0	0	0	0	0	0	0	0	5	5	0	0	0	0	0		1	0	0	0	0	0	0	0
011013	08:03:03	10019	corsiblockFrRev	recallseqFrRev	10	2	1639	0	121	08:03:03	1986390	5	0	0	0	0	0	0	0	0	0	0	0	0	0	0	5	5	0	0	0	0	0		1	0	0	0	0	0	0	0
011013	08:03:03	10019	corsiblockFrRev	recallseqFrRev	10	3	851	0	121	08:03:03	1987296	5	0	0	0	0	0	0	0	0	0	0	0	0	0	0	5	5	0	0	0	0	0		1	0	0	0	0	0	0	0
011013	08:03:03	10019	corsiblockFrRev	recallseqFrRev	10	7	2648	0	121	08:03:03	1989988	5	0	0	0	0	0	0	0	0	0	0	0	0	0	0	5	5	0	0	0	0	0		1	0	0	0	0	0	0	0
011013	08:03:03	10019	corsiblockFrRev	recallseqFrRev	10	5	1004	0	121	08:03:03	1991041	5	0	0	0	0	0	0	0	0	0	0	0	0	0	0	5	5	0	0	0	0	0		1	0	0	0	0	0	0	0
011013	08:03:03	10019	corsiblockFrRev	recallseqFrRev	10	4	567	0	121	08:03:03	1991655	5	0	0	0	0	0	0	0	0	0	0	0	0	0	0	5	5	0	0	0	0	0		1	0	0	0	0	0	0	0
011013	08:03:03	10019	corsiblockFrRev	recallseqFrRev	10	doneCorsiFr	1362	0	121	08:03:03	1993067	5	0	0	0	0	0	0	0	0	0	0	0	0	0	0	5	5	0	0	0	0	0		1	0	0	0	0	0	0	0
011013	08:03:03	10019	corsiblockFrRev	recallseqFrRev	10	7	724	0	121	08:03:03	2002877	5	0	0	0	0	0	0	0	0	0	0	0	0	0	0	5	5	0	0	0	0	0		1	0	0	0	0	0	0	0
011013	08:03:03	10019	corsiblockFrRev	recallseqFrRev	10	1	1011	0	121	08:03:03	2003943	5	0	0	0	0	0	0	0	0	0	0	0	0	0	0	5	5	0	0	0	0	0		1	0	0	0	0	0	0	0
011013	08:03:03	10019	corsiblockFrRev	recallseqFrRev	10	8	1337	0	121	08:03:03	2005329	5	0	0	0	0	0	0	0	0	0	0	0	0	0	0	5	5	0	0	0	0	0		1	0	0	0	0	0	0	0
011013	08:03:03	10019	corsiblockFrRev	recallseqFrRev	10	6	1767	0	121	08:03:03	2007141	5	0	0	0	0	0	0	0	0	0	0	0	0	0	0	5	5	0	0	0	0	0		1	0	0	0	0	0	0	0
011013	08:03:03	10019	corsiblockFrRev	recallseqFrRev	10	5	747	0	121	08:03:03	2007941	5	0	0	0	0	0	0	0	0	0	0	0	0	0	0	5	5	0	0	0	0	0		1	0	0	0	0	0	0	0
011013	08:03:03	10019	corsiblockFrRev	recallseqFrRev	10	9	1139	0	121	08:03:03	2009128	5	0	0	0	0	0	0	0	0	0	0	0	0	0	0	5	5	0	0	0	0	0		1	0	0	0	0	0	0	0
011013	08:03:03	10019	corsiblockFrRev	recallseqFrRev	10	doneCorsiFr	1032	0	121	08:03:03	2010207	5	0	0	0	0	0	0	0	0	0	0	0	0	0	0	5	6	0	0	0	0	0		1	0	0	0	0	0	0	0
011013	08:03:03	10019	corsiblockFrRev	recallseqFrRev	10	4	7314	0	121	08:03:03	2026640	5	0	0	0	0	0	0	0	0	0	0	0	0	0	0	5	6	0	0	0	0	0		1	0	0	0	0	0	0	0
011013	08:03:03	10019	corsiblockFrRev	recallseqFrRev	10	6	1607	0	121	08:03:03	2028293	5	0	0	0	0	0	0	0	0	0	0	0	0	0	0	5	6	0	0	0	0	0		1	0	0	0	0	0	0	0
011013	08:03:03	10019	corsiblockFrRev	recallseqFrRev	10	3	875	0	121	08:03:03	2029213	5	0	0	0	0	0	0	0	0	0	0	0	0	0	0	5	6	0	0	0	0	0		1	0	0	0	0	0	0	0
011013	08:03:03	10019	corsiblockFrRev	recallseqFrRev	10	1	1043	0	121	08:03:03	2030306	5	0	0	0	0	0	0	0	0	0	0	0	0	0	0	5	6	0	0	0	0	0		1	0	0	0	0	0	0	0
011013	08:03:03	10019	corsiblockFrRev	recallseqFrRev	10	8	950	0	121	08:03:03	2031305	5	0	0	0	0	0	0	0	0	0	0	0	0	0	0	5	6	0	0	0	0	0		1	0	0	0	0	0	0	0
011013	08:03:03	10019	corsiblockFrRev	recallseqFrRev	10	4	606	0	121	08:03:03	2031958	5	0	0	0	0	0	0	0	0	0	0	0	0	0	0	5	6	0	0	0	0	0		1	0	0	0	0	0	0	0
011013	08:03:03	10019	corsiblockFrRev	recallseqFrRev	10	doneCorsiFr	1417	0	121	08:03:03	2033424	5	0	0	0	0	0	0	0	0	0	0	0	0	0	0	5	6	0	0	0	0	0		1	0	0	0	0	0	0	0
011013	08:03:03	10019	corsiblockFrRev	recallseqFrRev	10	9	1187	0	121	08:03:03	2044700	5	0	0	0	0	0	0	0	0	0	0	0	0	0	0	5	6	0	0	0	0	0		1	0	0	0	0	0	0	0
011013	08:03:03	10019	corsiblockFrRev	recallseqFrRev	10	7	692	0	121	08:03:03	2045446	5	0	0	0	0	0	0	0	0	0	0	0	0	0	0	5	6	0	0	0	0	0		1	0	0	0	0	0	0	0
011013	08:03:03	10019	corsiblockFrRev	recallseqFrRev	10	2	825	0	121	08:03:03	2046326	5	0	0	0	0	0	0	0	0	0	0	0	0	0	0	5	6	0	0	0	0	0		1	0	0	0	0	0	0	0
011013	08:03:03	10019	corsiblockFrRev	recallseqFrRev	10	1	1449	0	121	08:03:03	2047832	5	0	0	0	0	0	0	0	0	0	0	0	0	0	0	5	6	0	0	0	0	0		1	0	0	0	0	0	0	0
011013	08:03:03	10019	corsiblockFrRev	recallseqFrRev	10	4	2096	0	121	08:03:03	2049978	5	0	0	0	0	0	0	0	0	0	0	0	0	0	0	5	6	0	0	0	0	0		1	0	0	0	0	0	0	0
011013	08:03:03	10019	corsiblockFrRev	recallseqFrRev	10	2	709	0	121	08:03:03	2050737	5	0	0	0	0	0	0	0	0	0	0	0	0	0	0	5	6	0	0	0	0	0		1	0	0	0	0	0	0	0
011013	08:03:03	10019	corsiblockFrRev	recallseqFrRev	10	3	838	0	121	08:03:03	2051630	5	0	0	0	0	0	0	0	0	0	0	0	0	0	0	5	6	0	0	0	0	0		1	0	0	0	0	0	0	0
011013	08:03:03	10019	corsiblockFrRev	recallseqFrRev	10	doneCorsiFr	1505	0	121	08:03:03	2053190	5	0	0	0	0	0	0	0	0	0	0	0	0	0	0	5	6	0	0	0	0	0		1	0	0	0	0	0	0	0
011013	08:03:03	10019	testFr6mo	WordsFr6mo	11	1Fr6mo	26442	0	121	08:03:03	2086323	5	3	0	0	0	0	0	0	0	0	0	0	0	0	0	5	6	0	0	0	0	0		1	0	0	0	0	0	0	0
011013	08:03:03	10019	testFr6mo	WordsFr6mo	11	2Fr6mo	220	0	121	08:03:03	2086590	5	3	3	0	0	0	0	0	0	0	0	0	0	0	0	5	6	0	0	0	0	0		1	0	0	0	0	0	0	0
011013	08:03:03	10019	testFr6mo	WordsFr6mo	11	3Fr6mo	673	0	121	08:03:03	2087309	5	3	3	3	0	0	0	0	0	0	0	0	0	0	0	5	6	0	0	0	0	0		1	0	0	0	0	0	0	0
011013	08:03:03	10019	testFr6mo	WordsFr6mo	11	4Fr6mo	1553	0	121	08:03:03	2088909	5	3	3	3	3	0	0	0	0	0	0	0	0	0	0	5	6	0	0	0	0	0		1	0	0	0	0	0	0	0
011013	08:03:03	10019	testFr6mo	WordsFr6mo	11	5Fr6mo	186	0	121	08:03:03	2089149	5	3	3	3	3	3	0	0	0	0	0	0	0	0	0	5	6	0	0	0	0	0		1	0	0	0	0	0	0	0
011013	08:03:03	10019	testFr6mo	WordsFr6mo	11	7Fr6mo	1490	0	121	08:03:03	2090695	5	3	3	3	3	3	0	3	0	0	0	0	0	0	0	5	6	0	0	0	0	0		1	0	0	0	0	0	0	0
011013	08:03:03	10019	testFr6mo	WordsFr6mo	11	DoneFr6mo	13920	0	121	08:03:03	2104662	5	3	3	3	3	3	0	3	0	0	0	0	0	0	0	5	6	0	0	0	0	0		1	0	0	0	0	0	0	0
011013	08:03:03	10019	testFr6mo	Cat6Fr6mo	11	0	1	0	121	08:03:03	2104677	5	3	3	3	3	3	0	3	0	0	0	0	0	0	0	5	6	0	0	0	0	0		1	0	0	0	0	0	0	0
011013	08:03:03	10019	testFr6mo	Ch6Fr6mo	11	WW6Fr6mo	5529	0	121	08:03:03	2110246	5	3	3	3	3	3	0	3	0	0	0	0	0	0	0	5	6	0	0	0	0	0		1	0	0	0	0	0	0	0
011013	08:03:03	10019	testFr6mo	Cat8Fr6mo	11	W8Fr6mo	10061	0	121	08:03:03	2120349	5	3	3	3	3	3	0	3	0	0	0	0	0	0	0	5	6	0	0	0	0	0		1	0	0	0	0	0	0	0
011013	08:03:03	10019	testFr6mo	Ch8Fr6mo	11	RR8Fr6mo	3976	0	121	08:03:03	2124361	5	3	3	3	3	3	0	3	1	0	0	0	0	0	0	5	6	0	0	0	0	0		1	0	0	0	0	0	0	0
011013	08:03:03	10019	DigitSpanFwrdFr6mo	Score1FwrdFr6mo	12	DS1	3627	0	121	08:03:03	2142713	5	3	3	3	3	3	0	3	1	0	0	0	0	0	0	5	6	0	0	0	0	0		1	0	0	0	0	0	0	0
011013	08:03:03	10019	DigitSpanFwrdFr6mo	Gate1FwrdFr6mo	12	0	1	0	121	08:03:03	2142718	5	3	3	3	3	3	0	3	1	3	0	0	0	0	0	5	6	0	0	0	0	0		1	0	0	0	0	0	0	0
011013	08:03:03	10019	DigitSpanFwrdFr6mo	Score2FwrdFr6mo	12	DS1	3036	0	121	08:03:03	2152069	5	3	3	3	3	3	0	3	1	3	0	0	0	0	0	5	6	0	0	0	0	0		1	0	0	0	0	0	0	0
011013	08:03:03	10019	DigitSpanFwrdFr6mo	Gate3FwrdFr6mo	12	0	1	0	121	08:03:03	2152075	5	3	3	3	3	3	0	3	1	4	0	0	0	0	0	5	6	0	0	0	0	0		1	0	0	0	0	0	0	0
011013	08:03:03	10019	DigitSpanFwrdFr6mo	Score3FwrdFr6mo	12	DS1	2835	0	121	08:03:03	2162145	5	3	3	3	3	3	0	3	1	4	0	0	0	0	0	5	6	0	0	0	0	0		1	0	0	0	0	0	0	0
011013	08:03:03	10019	DigitSpanFwrdFr6mo	Gate5FwrdFr6mo	12	0	1	0	121	08:03:03	2162151	5	3	3	3	3	3	0	3	1	5	0	0	0	0	0	5	6	0	0	0	0	0		1	0	0	0	0	0	0	0
011013	08:03:03	10019	DigitSpanFwrdFr6mo	Score4FwrdFr6mo	12	DS1	5229	0	121	08:03:03	2175886	5	3	3	3	3	3	0	3	1	5	0	0	0	0	0	5	6	0	0	0	0	0		1	0	0	0	0	0	0	0
011013	08:03:03	10019	DigitSpanFwrdFr6mo	Gate7FwrdFr6mo	12	0	1	0	121	08:03:03	2175891	5	3	3	3	3	3	0	3	1	6	0	0	0	0	0	5	6	0	0	0	0	0		1	0	0	0	0	0	0	0
011013	08:03:03	10019	DigitSpanFwrdFr6mo	Score5FwrdFr6mo	12	DS1	4264	0	121	08:03:03	2190107	5	3	3	3	3	3	0	3	1	6	0	0	0	0	0	5	6	0	0	0	0	0		1	0	0	0	0	0	0	0
011013	08:03:03	10019	DigitSpanFwrdFr6mo	Gate9FwrdFr6mo	12	0	1	0	121	08:03:03	2190112	5	3	3	3	3	3	0	3	1	7	0	0	0	0	0	5	6	0	0	0	0	0		1	0	0	0	0	0	0	0
011013	08:03:03	10019	DigitSpanFwrdFr6mo	Score6FwrdFr6mo	12	DS2	6268	0	121	08:03:03	2207487	5	3	3	3	3	3	0	3	1	7	0	0	0	0	0	5	6	0	0	0	0	0		1	0	0	0	0	0	0	0
011013	08:03:03	10019	DigitSpanFwrdFr6mo	Gate11FwrdFr6mo	12	0	1	0	121	08:03:03	2207492	5	3	3	3	3	3	0	3	1	7	0	0	0	0	0	5	6	0	0	0	0	0		1	0	0	0	0	0	0	0
011013	08:03:03	10019	DigitSpanFwrdFr6mo	Score66FwrdFr6mo	12	DS2	6410	0	121	08:03:03	2224867	5	3	3	3	3	3	0	3	1	7	0	0	0	0	0	5	6	0	0	0	0	0		1	0	0	0	0	0	0	0
011013	08:03:03	10019	DigitSpanFr6mo	Score1Fr6mo	13	DS1	2130	0	121	08:03:03	2240207	5	3	3	3	3	3	0	3	1	7	0	0	0	0	0	5	6	0	0	0	0	0		1	0	0	0	0	0	0	0
011013	08:03:03	10019	DigitSpanFr6mo	Gate1Fr6mo	13	0	1	0	121	08:03:03	2240211	5	3	3	3	3	3	0	3	1	7	2	0	0	0	0	5	6	0	0	0	0	0		1	0	0	0	0	0	0	0
011013	08:03:03	10019	DigitSpanFr6mo	Score2Fr6mo	13	DS1	3942	0	121	08:03:03	2248710	5	3	3	3	3	3	0	3	1	7	2	0	0	0	0	5	6	0	0	0	0	0		1	0	0	0	0	0	0	0
011013	08:03:03	10019	DigitSpanFr6mo	Gate3Fr6mo	13	0	1	0	121	08:03:03	2248715	5	3	3	3	3	3	0	3	1	7	3	0	0	0	0	5	6	0	0	0	0	0		1	0	0	0	0	0	0	0
011013	08:03:03	10019	DigitSpanFr6mo	Score3Fr6mo	13	DS1	6063	0	121	08:03:03	2260465	5	3	3	3	3	3	0	3	1	7	3	0	0	0	0	5	6	0	0	0	0	0		1	0	0	0	0	0	0	0
011013	08:03:03	10019	DigitSpanFr6mo	Gate5Fr6mo	13	0	1	0	121	08:03:03	2260470	5	3	3	3	3	3	0	3	1	7	4	0	0	0	0	5	6	0	0	0	0	0		1	0	0	0	0	0	0	0
011013	08:03:03	10019	DigitSpanFr6mo	Score4Fr6mo	13	DS2	17766	0	121	08:03:03	2285175	5	3	3	3	3	3	0	3	1	7	4	0	0	0	0	5	6	0	0	0	0	0		1	0	0	0	0	0	0	0
011013	08:03:03	10019	DigitSpanFr6mo	Gate7Fr6mo	13	0	1	0	121	08:03:03	2285180	5	3	3	3	3	3	0	3	1	7	4	0	0	0	0	5	6	0	0	0	0	0		1	0	0	0	0	0	0	0
011013	08:03:03	10019	DigitSpanFr6mo	Score44Fr6mo	13	DS1	9966	0	121	08:03:03	2303541	5	3	3	3	3	3	0	3	1	7	4	0	0	0	0	5	6	0	0	0	0	0		1	0	0	0	0	0	0	0
011013	08:03:03	10019	DigitSpanFr6mo	Gate8Fr6mo	13	0	1	0	121	08:03:03	2303546	5	3	3	3	3	3	0	3	1	7	5	0	0	0	0	5	6	0	0	0	0	0		1	0	0	0	0	0	0	0
011013	08:03:03	10019	DigitSpanFr6mo	Score5Fr6mo	13	DS1	11621	0	121	08:03:03	2323640	5	3	3	3	3	3	0	3	1	7	5	0	0	0	0	5	6	0	0	0	0	0		1	0	0	0	0	0	0	0
011013	08:03:03	10019	DigitSpanFr6mo	Gate9Fr6mo	13	0	1	0	121	08:03:03	2323644	5	3	3	3	3	3	0	3	1	7	6	0	0	0	0	5	6	0	0	0	0	0		1	0	0	0	0	0	0	0
011013	08:03:03	10019	DigitSpanFr6mo	Score6Fr6mo	13	DS2	10331	0	121	08:03:03	2343725	5	3	3	3	3	3	0	3	1	7	6	0	0	0	0	5	6	0	0	0	0	0		1	0	0	0	0	0	0	0
011013	08:03:03	10019	DigitSpanFr6mo	Gate11Fr6mo	13	0	1	0	121	08:03:03	2343730	5	3	3	3	3	3	0	3	1	7	6	0	0	0	0	5	6	0	0	0	0	0		1	0	0	0	0	0	0	0
011013	08:03:03	10019	DigitSpanFr6mo	Score66Fr6mo	13	DS2	7725	0	121	08:03:03	2361038	5	3	3	3	3	3	0	3	1	7	6	0	0	0	0	5	6	0	0	0	0	0		1	0	0	0	0	0	0	0
011013	08:03:03	10019	Trial	ResponseIL	14	0	175	0	121	08:03:03	2409525	5	3	3	3	3	3	0	3	1	7	6	0	0	0	0	5	6	0	0	0	0	0		1	0	0	0	0	0	0	0
011013	08:03:03	10019	Trial	IncongruentLeft	14	203	407	1	121	08:03:03	2409951	5	3	3	3	3	3	0	3	1	7	6	0	0	0	0	5	6	0	0	0	0	0		1	0	0	0	0	0	0	0
011013	08:03:03	10019	Trial	ResponseCR	14	0	175	0	121	08:03:03	2411231	5	3	3	3	3	3	0	3	1	7	6	0	0	0	0	5	6	0	0	0	0	0		1	0	0	0	0	0	0	0
011013	08:03:03	10019	Trial	CongruentRight	14	205	317	1	121	08:03:03	2411564	5	3	3	3	3	3	0	3	1	7	6	0	0	0	0	5	6	0	0	0	0	0		1	0	0	0	0	0	0	0
011013	08:03:03	10019	Trial	ResponseIR	14	0	175	0	121	08:03:03	2412937	5	3	3	3	3	3	0	3	1	7	6	0	0	0	0	5	6	0	0	0	0	0		1	0	0	0	0	0	0	0
011013	08:03:03	10019	Trial	IncongruentRight	14	205	419	1	121	08:03:03	2413377	5	3	3	3	3	3	0	3	1	7	6	0	0	0	0	5	6	0	0	0	0	0		1	0	0	0	0	0	0	0
011013	08:03:03	10019	Trial	ResponseCL	14	0	175	0	121	08:03:03	2414643	5	3	3	3	3	3	0	3	1	7	6	0	0	0	0	5	6	0	0	0	0	0		1	0	0	0	0	0	0	0
011013	08:03:03	10019	Trial	CongruentLeft	14	203	281	1	121	08:03:03	2414949	5	3	3	3	3	3	0	3	1	7	6	0	0	0	0	5	6	0	0	0	0	0		1	0	0	0	0	0	0	0
011013	08:03:03	10019	Trial	ResponseCR	14	0	175	0	121	08:03:03	2416349	5	3	3	3	3	3	0	3	1	7	6	0	0	0	0	5	6	0	0	0	0	0		1	0	0	0	0	0	0	0
011013	08:03:03	10019	Trial	CongruentRight	14	205	286	1	121	08:03:03	2416655	5	3	3	3	3	3	0	3	1	7	6	0	0	0	0	5	6	0	0	0	0	0		1	0	0	0	0	0	0	0
011013	08:03:03	10019	Trial	ResponseIR	14	0	175	0	121	08:03:03	2418055	5	3	3	3	3	3	0	3	1	7	6	0	0	0	0	5	6	0	0	0	0	0		1	0	0	0	0	0	0	0
011013	08:03:03	10019	Trial	IncongruentRight	14	205	437	1	121	08:03:03	2418508	5	3	3	3	3	3	0	3	1	7	6	0	0	0	0	5	6	0	0	0	0	0		1	0	0	0	0	0	0	0
011013	08:03:03	10019	Trial	ResponseCL	14	0	175	0	121	08:03:03	2419761	5	3	3	3	3	3	0	3	1	7	6	0	0	0	0	5	6	0	0	0	0	0		1	0	0	0	0	0	0	0
011013	08:03:03	10019	Trial	CongruentLeft	14	203	298	1	121	08:03:03	2420081	5	3	3	3	3	3	0	3	1	7	6	0	0	0	0	5	6	0	0	0	0	0		1	0	0	0	0	0	0	0
011013	08:03:03	10019	Trial	ResponseIL	14	0	175	0	121	08:03:03	2421467	5	3	3	3	3	3	0	3	1	7	6	0	0	0	0	5	6	0	0	0	0	0		1	0	0	0	0	0	0	0
011013	08:03:03	10019	Trial	IncongruentLeft	14	203	785	1	121	08:03:03	2422280	5	3	3	3	3	3	0	3	1	7	6	0	0	0	0	5	6	0	0	0	0	0		1	0	0	0	0	0	0	0
011013	08:03:03	10019	Trial	ResponseIL	14	0	175	0	121	08:03:03	2423173	5	3	3	3	3	3	0	3	1	7	6	0	0	0	0	5	6	0	0	0	0	0		1	0	0	0	0	0	0	0
011013	08:03:03	10019	Trial	IncongruentLeft	14	203	502	1	121	08:03:03	2423693	5	3	3	3	3	3	0	3	1	7	6	0	0	0	0	5	6	0	0	0	0	0		1	0	0	0	0	0	0	0
011013	08:03:03	10019	Trial	ResponseCR	14	0	175	0	121	08:03:03	2424879	5	3	3	3	3	3	0	3	1	7	6	0	0	0	0	5	6	0	0	0	0	0		1	0	0	0	0	0	0	0
011013	08:03:03	10019	Trial	CongruentRight	14	205	301	1	121	08:03:03	2425198	5	3	3	3	3	3	0	3	1	7	6	0	0	0	0	5	6	0	0	0	0	0		1	0	0	0	0	0	0	0
011013	08:03:03	10019	Trial	ResponseIR	14	0	175	0	121	08:03:03	2426585	5	3	3	3	3	3	0	3	1	7	6	0	0	0	0	5	6	0	0	0	0	0		1	0	0	0	0	0	0	0
011013	08:03:03	10019	Trial	IncongruentRight	14	205	403	1	121	08:03:03	2427011	5	3	3	3	3	3	0	3	1	7	6	0	0	0	0	5	6	0	0	0	0	0		1	0	0	0	0	0	0	0
011013	08:03:03	10019	Trial	ResponseCL	14	0	175	0	121	08:03:03	2428291	5	3	3	3	3	3	0	3	1	7	6	0	0	0	0	5	6	0	0	0	0	0		1	0	0	0	0	0	0	0
011013	08:03:03	10019	Trial	CongruentLeft	14	203	312	1	121	08:03:03	2428624	5	3	3	3	3	3	0	3	1	7	6	0	0	0	0	5	6	0	0	0	0	0		1	0	0	0	0	0	0	0
011013	08:03:03	10019	Trial	ResponseCR	14	0	175	0	121	08:03:03	2429997	5	3	3	3	3	3	0	3	1	7	6	0	0	0	0	5	6	0	0	0	0	0		1	0	0	0	0	0	0	0
011013	08:03:03	10019	Trial	CongruentRight	14	205	527	1	121	08:03:03	2430543	5	3	3	3	3	3	0	3	1	7	6	0	0	0	0	5	6	0	0	0	0	0		1	0	0	0	0	0	0	0
011013	08:03:03	10019	Trial	ResponseIL	14	0	175	0	121	08:03:03	2431703	5	3	3	3	3	3	0	3	1	7	6	0	0	0	0	5	6	0	0	0	0	0		1	0	0	0	0	0	0	0
011013	08:03:03	10019	Trial	IncongruentLeft	14	203	356	1	121	08:03:03	2432076	5	3	3	3	3	3	0	3	1	7	6	0	0	0	0	5	6	0	0	0	0	0		1	0	0	0	0	0	0	0
011013	08:03:03	10019	Trial	ResponseIR	14	0	175	0	121	08:03:03	2433409	5	3	3	3	3	3	0	3	1	7	6	0	0	0	0	5	6	0	0	0	0	0		1	0	0	0	0	0	0	0
011013	08:03:03	10019	Trial	IncongruentRight	14	205	395	1	121	08:03:03	2433822	5	3	3	3	3	3	0	3	1	7	6	0	0	0	0	5	6	0	0	0	0	0		1	0	0	0	0	0	0	0
011013	08:03:03	10019	Trial	ResponseCR	14	0	175	0	121	08:03:03	2435115	5	3	3	3	3	3	0	3	1	7	6	0	0	0	0	5	6	0	0	0	0	0		1	0	0	0	0	0	0	0
011013	08:03:03	10019	Trial	CongruentRight	14	205	241	1	121	08:03:03	2435381	5	3	3	3	3	3	0	3	1	7	6	0	0	0	0	5	6	0	0	0	0	0		1	0	0	0	0	0	0	0
011013	08:03:03	10019	Trial	ResponseCL	14	0	175	0	121	08:03:03	2436821	5	3	3	3	3	3	0	3	1	7	6	0	0	0	0	5	6	0	0	0	0	0		1	0	0	0	0	0	0	0
011013	08:03:03	10019	Trial	CongruentLeft	14	203	230	1	121	08:03:03	2437074	5	3	3	3	3	3	0	3	1	7	6	0	0	0	0	5	6	0	0	0	0	0		1	0	0	0	0	0	0	0
011013	08:03:03	10019	Trial	ResponseCR	14	0	175	0	121	08:03:03	2438527	5	3	3	3	3	3	0	3	1	7	6	0	0	0	0	5	6	0	0	0	0	0		1	0	0	0	0	0	0	0
011013	08:03:03	10019	Trial	CongruentRight	14	205	301	1	121	08:03:03	2438847	5	3	3	3	3	3	0	3	1	7	6	0	0	0	0	5	6	0	0	0	0	0		1	0	0	0	0	0	0	0
011013	08:03:03	10019	Trial	ResponseIR	14	0	175	0	121	08:03:03	2440233	5	3	3	3	3	3	0	3	1	7	6	0	0	0	0	5	6	0	0	0	0	0		1	0	0	0	0	0	0	0
011013	08:03:03	10019	Trial	IncongruentRight	14	205	530	1	121	08:03:03	2440779	5	3	3	3	3	3	0	3	1	7	6	0	0	0	0	5	6	0	0	0	0	0		1	0	0	0	0	0	0	0
011013	08:03:03	10019	Trial	ResponseIL	14	0	175	0	121	08:03:03	2441939	5	3	3	3	3	3	0	3	1	7	6	0	0	0	0	5	6	0	0	0	0	0		1	0	0	0	0	0	0	0
011013	08:03:03	10019	Trial	IncongruentLeft	14	205	296	0	121	08:03:03	2442258	5	3	3	3	3	3	0	3	1	7	6	0	0	0	0	5	6	0	0	0	0	0		1	0	0	0	0	0	0	0
011013	08:03:03	10019	Trial	ResponseIL	14	0	175	0	121	08:03:03	2443645	5	3	3	3	3	3	0	3	1	7	6	0	0	0	0	5	6	0	0	0	0	0		1	0	0	0	0	0	0	0
011013	08:03:03	10019	Trial	IncongruentLeft	14	203	398	1	121	08:03:03	2444071	5	3	3	3	3	3	0	3	1	7	6	0	0	0	0	5	6	0	0	0	0	0		1	0	0	0	0	0	0	0
011013	08:03:03	10019	Trial	ResponseCL	14	0	175	0	121	08:03:03	2445351	5	3	3	3	3	3	0	3	1	7	6	0	0	0	0	5	6	0	0	0	0	0		1	0	0	0	0	0	0	0
011013	08:03:03	10019	Trial	CongruentLeft	14	203	292	1	121	08:03:03	2445670	5	3	3	3	3	3	0	3	1	7	6	0	0	0	0	5	6	0	0	0	0	0		1	0	0	0	0	0	0	0
011013	08:03:03	10019	Trial	ResponseCR	14	0	175	0	121	08:03:03	2447057	5	3	3	3	3	3	0	3	1	7	6	0	0	0	0	5	6	0	0	0	0	0		1	0	0	0	0	0	0	0
011013	08:03:03	10019	Trial	CongruentRight	14	205	362	1	121	08:03:03	2447443	5	3	3	3	3	3	0	3	1	7	6	0	0	0	0	5	6	0	0	0	0	0		1	0	0	0	0	0	0	0
011013	08:03:03	10019	Trial	ResponseIL	14	0	175	0	121	08:03:03	2448763	5	3	3	3	3	3	0	3	1	7	6	0	0	0	0	5	6	0	0	0	0	0		1	0	0	0	0	0	0	0
011013	08:03:03	10019	Trial	IncongruentLeft	14	203	480	1	121	08:03:03	2449269	5	3	3	3	3	3	0	3	1	7	6	0	0	0	0	5	6	0	0	0	0	0		1	0	0	0	0	0	0	0
011013	08:03:03	10019	Trial	ResponseIR	14	0	175	0	121	08:03:03	2450469	5	3	3	3	3	3	0	3	1	7	6	0	0	0	0	5	6	0	0	0	0	0		1	0	0	0	0	0	0	0
011013	08:03:03	10019	Trial	IncongruentRight	14	205	470	1	121	08:03:03	2450961	5	3	3	3	3	3	0	3	1	7	6	0	0	0	0	5	6	0	0	0	0	0		1	0	0	0	0	0	0	0
011013	08:03:03	10019	Trial	ResponseCR	14	0	175	0	121	08:03:03	2452175	5	3	3	3	3	3	0	3	1	7	6	0	0	0	0	5	6	0	0	0	0	0		1	0	0	0	0	0	0	0
011013	08:03:03	10019	Trial	CongruentRight	14	205	348	1	121	08:03:03	2452548	5	3	3	3	3	3	0	3	1	7	6	0	0	0	0	5	6	0	0	0	0	0		1	0	0	0	0	0	0	0
011013	08:03:03	10019	Trial	ResponseCL	14	0	175	0	121	08:03:03	2453880	5	3	3	3	3	3	0	3	1	7	6	0	0	0	0	5	6	0	0	0	0	0		1	0	0	0	0	0	0	0
011013	08:03:03	10019	Trial	CongruentLeft	14	203	338	1	121	08:03:03	2454240	5	3	3	3	3	3	0	3	1	7	6	0	0	0	0	5	6	0	0	0	0	0		1	0	0	0	0	0	0	0
011013	08:03:03	10019	Trial	ResponseIR	14	0	175	0	121	08:03:03	2455586	5	3	3	3	3	3	0	3	1	7	6	0	0	0	0	5	6	0	0	0	0	0		1	0	0	0	0	0	0	0
011013	08:03:03	10019	Trial	IncongruentRight	14	205	408	1	121	08:03:03	2456013	5	3	3	3	3	3	0	3	1	7	6	0	0	0	0	5	6	0	0	0	0	0		1	0	0	0	0	0	0	0
011013	08:03:03	10019	Trial	ResponseIL	14	0	175	0	121	08:03:03	2457292	5	3	3	3	3	3	0	3	1	7	6	0	0	0	0	5	6	0	0	0	0	0		1	0	0	0	0	0	0	0
011013	08:03:03	10019	Trial	IncongruentLeft	14	203	366	1	121	08:03:03	2457679	5	3	3	3	3	3	0	3	1	7	6	0	0	0	0	5	6	0	0	0	0	0		1	0	0	0	0	0	0	0
011013	08:03:03	10019	Trial	ResponseIR	14	0	175	0	121	08:03:03	2458998	5	3	3	3	3	3	0	3	1	7	6	0	0	0	0	5	6	0	0	0	0	0		1	0	0	0	0	0	0	0
011013	08:03:03	10019	Trial	IncongruentRight	14	205	116	1	121	08:03:03	2459132	5	3	3	3	3	3	0	3	1	7	6	0	0	0	0	5	6	0	0	0	0	0		1	0	0	0	0	0	0	0
011013	08:03:03	10019	Trial	ResponseCR	14	0	175	0	121	08:03:03	2460704	5	3	3	3	3	3	0	3	1	7	6	0	0	0	0	5	6	0	0	0	0	0		1	0	0	0	0	0	0	0
011013	08:03:03	10019	Trial	CongruentRight	14	205	362	1	121	08:03:03	2461091	5	3	3	3	3	3	0	3	1	7	6	0	0	0	0	5	6	0	0	0	0	0		1	0	0	0	0	0	0	0
011013	08:03:03	10019	Trial	ResponseIL	14	0	175	0	121	08:03:03	2462410	5	3	3	3	3	3	0	3	1	7	6	0	0	0	0	5	6	0	0	0	0	0		1	0	0	0	0	0	0	0
011013	08:03:03	10019	Trial	IncongruentLeft	14	203	448	1	121	08:03:03	2462877	5	3	3	3	3	3	0	3	1	7	6	0	0	0	0	5	6	0	0	0	0	0		1	0	0	0	0	0	0	0
011013	08:03:03	10019	Trial	ResponseCL	14	0	175	0	121	08:03:03	2464117	5	3	3	3	3	3	0	3	1	7	6	0	0	0	0	5	6	0	0	0	0	0		1	0	0	0	0	0	0	0
011013	08:03:03	10019	Trial	CongruentLeft	14	203	309	1	121	08:03:03	2464450	5	3	3	3	3	3	0	3	1	7	6	0	0	0	0	5	6	0	0	0	0	0		1	0	0	0	0	0	0	0
011013	08:03:03	10019	Trial	ResponseCR	14	0	175	0	121	08:03:03	2465822	5	3	3	3	3	3	0	3	1	7	6	0	0	0	0	5	6	0	0	0	0	0		1	0	0	0	0	0	0	0
011013	08:03:03	10019	Trial	CongruentRight	14	205	333	1	121	08:03:03	2466182	5	3	3	3	3	3	0	3	1	7	6	0	0	0	0	5	6	0	0	0	0	0		1	0	0	0	0	0	0	0
011013	08:03:03	10019	Trial	ResponseIL	14	0	175	0	121	08:03:03	2467528	5	3	3	3	3	3	0	3	1	7	6	0	0	0	0	5	6	0	0	0	0	0		1	0	0	0	0	0	0	0
011013	08:03:03	10019	Trial	IncongruentLeft	14	203	306	1	121	08:03:03	2467861	5	3	3	3	3	3	0	3	1	7	6	0	0	0	0	5	6	0	0	0	0	0		1	0	0	0	0	0	0	0
011013	08:03:03	10019	Trial	ResponseIR	14	0	175	0	121	08:03:03	2469234	5	3	3	3	3	3	0	3	1	7	6	0	0	0	0	5	6	0	0	0	0	0		1	0	0	0	0	0	0	0
011013	08:03:03	10019	Trial	IncongruentRight	14	205	360	1	121	08:03:03	2469621	5	3	3	3	3	3	0	3	1	7	6	0	0	0	0	5	6	0	0	0	0	0		1	0	0	0	0	0	0	0
011013	08:03:03	10019	Trial	ResponseIR	14	0	175	0	121	08:03:03	2470940	5	3	3	3	3	3	0	3	1	7	6	0	0	0	0	5	6	0	0	0	0	0		1	0	0	0	0	0	0	0
011013	08:03:03	10019	Trial	IncongruentRight	14	205	334	1	121	08:03:03	2471300	5	3	3	3	3	3	0	3	1	7	6	0	0	0	0	5	6	0	0	0	0	0		1	0	0	0	0	0	0	0
011013	08:03:03	10019	Trial	ResponseCL	14	0	175	0	121	08:03:03	2472646	5	3	3	3	3	3	0	3	1	7	6	0	0	0	0	5	6	0	0	0	0	0		1	0	0	0	0	0	0	0
011013	08:03:03	10019	Trial	CongruentLeft	14	203	292	1	121	08:03:03	2472966	5	3	3	3	3	3	0	3	1	7	6	0	0	0	0	5	6	0	0	0	0	0		1	0	0	0	0	0	0	0
011013	08:03:03	10019	Trial	ResponseIL	14	0	175	0	121	08:03:03	2474352	5	3	3	3	3	3	0	3	1	7	6	0	0	0	0	5	6	0	0	0	0	0		1	0	0	0	0	0	0	0
011013	08:03:03	10019	Trial	IncongruentLeft	14	203	298	1	121	08:03:03	2474672	5	3	3	3	3	3	0	3	1	7	6	0	0	0	0	5	6	0	0	0	0	0		1	0	0	0	0	0	0	0
011013	08:03:03	10019	Trial	ResponseCR	14	0	175	0	121	08:03:03	2476058	5	3	3	3	3	3	0	3	1	7	6	0	0	0	0	5	6	0	0	0	0	0		1	0	0	0	0	0	0	0
011013	08:03:03	10019	Trial	CongruentRight	14	205	448	1	121	08:03:03	2476525	5	3	3	3	3	3	0	3	1	7	6	0	0	0	0	5	6	0	0	0	0	0		1	0	0	0	0	0	0	0
011013	08:03:03	10019	Trial	ResponseCL	14	0	175	0	121	08:03:03	2477764	5	3	3	3	3	3	0	3	1	7	6	0	0	0	0	5	6	0	0	0	0	0		1	0	0	0	0	0	0	0
011013	08:03:03	10019	Trial	CongruentLeft	14	203	326	1	121	08:03:03	2478111	5	3	3	3	3	3	0	3	1	7	6	0	0	0	0	5	6	0	0	0	0	0		1	0	0	0	0	0	0	0
011013	08:03:03	10019	Trial	ResponseIR	14	0	175	0	121	08:03:03	2479470	5	3	3	3	3	3	0	3	1	7	6	0	0	0	0	5	6	0	0	0	0	0		1	0	0	0	0	0	0	0
011013	08:03:03	10019	Trial	IncongruentRight	14	205	348	1	121	08:03:03	2479843	5	3	3	3	3	3	0	3	1	7	6	0	0	0	0	5	6	0	0	0	0	0		1	0	0	0	0	0	0	0
011013	08:03:03	10019	Trial	ResponseCR	14	0	175	0	121	08:03:03	2481176	5	3	3	3	3	3	0	3	1	7	6	0	0	0	0	5	6	0	0	0	0	0		1	0	0	0	0	0	0	0
011013	08:03:03	10019	Trial	CongruentRight	14	205	242	1	121	08:03:03	2481443	5	3	3	3	3	3	0	3	1	7	6	0	0	0	0	5	6	0	0	0	0	0		1	0	0	0	0	0	0	0
011013	08:03:03	10019	Trial	ResponseIL	14	0	175	0	121	08:03:03	2482882	5	3	3	3	3	3	0	3	1	7	6	0	0	0	0	5	6	0	0	0	0	0		1	0	0	0	0	0	0	0
011013	08:03:03	10019	Trial	IncongruentLeft	14	203	344	1	121	08:03:03	2483255	5	3	3	3	3	3	0	3	1	7	6	0	0	0	0	5	6	0	0	0	0	0		1	0	0	0	0	0	0	0
011013	08:03:03	10019	Trial	ResponseCL	14	0	175	0	121	08:03:03	2484588	5	3	3	3	3	3	0	3	1	7	6	0	0	0	0	5	6	0	0	0	0	0		1	0	0	0	0	0	0	0
011013	08:03:03	10019	Trial	CongruentLeft	14	203	270	1	121	08:03:03	2484881	5	3	3	3	3	3	0	3	1	7	6	0	0	0	0	5	6	0	0	0	0	0		1	0	0	0	0	0	0	0
011013	08:03:03	10019	Trial	ResponseIL	14	0	175	0	121	08:03:03	2486294	5	3	3	3	3	3	0	3	1	7	6	0	0	0	0	5	6	0	0	0	0	0		1	0	0	0	0	0	0	0
011013	08:03:03	10019	Trial	IncongruentLeft	14	203	276	1	121	08:03:03	2486587	5	3	3	3	3	3	0	3	1	7	6	0	0	0	0	5	6	0	0	0	0	0		1	0	0	0	0	0	0	0
011013	08:03:03	10019	Trial	ResponseIR	14	0	175	0	121	08:03:03	2488000	5	3	3	3	3	3	0	3	1	7	6	0	0	0	0	5	6	0	0	0	0	0		1	0	0	0	0	0	0	0
011013	08:03:03	10019	Trial	IncongruentRight	14	205	378	1	121	08:03:03	2488400	5	3	3	3	3	3	0	3	1	7	6	0	0	0	0	5	6	0	0	0	0	0		1	0	0	0	0	0	0	0
011013	08:03:03	10019	Trial	ResponseCR	14	0	175	0	121	08:03:03	2489706	5	3	3	3	3	3	0	3	1	7	6	0	0	0	0	5	6	0	0	0	0	0		1	0	0	0	0	0	0	0
011013	08:03:03	10019	Trial	CongruentRight	14	205	272	1	121	08:03:03	2489999	5	3	3	3	3	3	0	3	1	7	6	0	0	0	0	5	6	0	0	0	0	0		1	0	0	0	0	0	0	0
011013	08:03:03	10019	Trial	ResponseCL	14	0	175	0	121	08:03:03	2491412	5	3	3	3	3	3	0	3	1	7	6	0	0	0	0	5	6	0	0	0	0	0		1	0	0	0	0	0	0	0
011013	08:03:03	10019	Trial	CongruentLeft	14	203	262	1	121	08:03:03	2491692	5	3	3	3	3	3	0	3	1	7	6	0	0	0	0	5	6	0	0	0	0	0		1	0	0	0	0	0	0	0
011013	08:03:03	10019	Trial	ResponseCL	14	0	175	0	121	08:03:03	2493118	5	3	3	3	3	3	0	3	1	7	6	0	0	0	0	5	6	0	0	0	0	0		1	0	0	0	0	0	0	0
011013	08:03:03	10019	Trial	CongruentLeft	14	203	236	1	121	08:03:03	2493371	5	3	3	3	3	3	0	3	1	7	6	0	0	0	0	5	6	0	0	0	0	0		1	0	0	0	0	0	0	0
011013	08:03:03	10019	Trial	ResponseIR	14	0	175	0	121	08:03:03	2494824	5	3	3	3	3	3	0	3	1	7	6	0	0	0	0	5	6	0	0	0	0	0		1	0	0	0	0	0	0	0
011013	08:03:03	10019	Trial	IncongruentRight	14	205	466	1	121	08:03:03	2495317	5	3	3	3	3	3	0	3	1	7	6	0	0	0	0	5	6	0	0	0	0	0		1	0	0	0	0	0	0	0
011013	08:03:03	10019	Trial	ResponseIL	14	0	175	0	121	08:03:03	2496530	5	3	3	3	3	3	0	3	1	7	6	0	0	0	0	5	6	0	0	0	0	0		1	0	0	0	0	0	0	0
011013	08:03:03	10019	Trial	IncongruentLeft	14	203	296	1	121	08:03:03	2496850	5	3	3	3	3	3	0	3	1	7	6	0	0	0	0	5	6	0	0	0	0	0		1	0	0	0	0	0	0	0
011013	08:03:03	10019	Trial	ResponseIR	14	0	175	0	121	08:03:03	2498236	5	3	3	3	3	3	0	3	1	7	6	0	0	0	0	5	6	0	0	0	0	0		1	0	0	0	0	0	0	0
011013	08:03:03	10019	Trial	IncongruentRight	14	205	318	1	121	08:03:03	2498582	5	3	3	3	3	3	0	3	1	7	6	0	0	0	0	5	6	0	0	0	0	0		1	0	0	0	0	0	0	0
011013	08:03:03	10019	Trial	ResponseCR	14	0	175	0	121	08:03:03	2499942	5	3	3	3	3	3	0	3	1	7	6	0	0	0	0	5	6	0	0	0	0	0		1	0	0	0	0	0	0	0
011013	08:03:03	10019	Trial	CongruentRight	14	205	308	1	121	08:03:03	2500275	5	3	3	3	3	3	0	3	1	7	6	0	0	0	0	5	6	0	0	0	0	0		1	0	0	0	0	0	0	0
011013	08:03:03	10019	Trial	ResponseCR	14	0	175	0	121	08:03:03	2501648	5	3	3	3	3	3	0	3	1	7	6	0	0	0	0	5	6	0	0	0	0	0		1	0	0	0	0	0	0	0
011013	08:03:03	10019	Trial	CongruentRight	14	205	282	1	121	08:03:03	2501954	5	3	3	3	3	3	0	3	1	7	6	0	0	0	0	5	6	0	0	0	0	0		1	0	0	0	0	0	0	0
011013	08:03:03	10019	Trial	ResponseIL	14	0	175	0	121	08:03:03	2503354	5	3	3	3	3	3	0	3	1	7	6	0	0	0	0	5	6	0	0	0	0	0		1	0	0	0	0	0	0	0
011013	08:03:03	10019	Trial	IncongruentLeft	14	203	320	1	121	08:03:03	2503700	5	3	3	3	3	3	0	3	1	7	6	0	0	0	0	5	6	0	0	0	0	0		1	0	0	0	0	0	0	0
011013	08:03:03	10019	Trial	ResponseCL	14	0	175	0	121	08:03:03	2505060	5	3	3	3	3	3	0	3	1	7	6	0	0	0	0	5	6	0	0	0	0	0		1	0	0	0	0	0	0	0
011013	08:03:03	10019	Trial	CongruentLeft	14	203	262	1	121	08:03:03	2505340	5	3	3	3	3	3	0	3	1	7	6	0	0	0	0	5	6	0	0	0	0	0		1	0	0	0	0	0	0	0
011013	08:03:03	10019	Trial	ResponseCR	14	0	175	0	121	08:03:03	2506766	5	3	3	3	3	3	0	3	1	7	6	0	0	0	0	5	6	0	0	0	0	0		1	0	0	0	0	0	0	0
011013	08:03:03	10019	Trial	CongruentRight	14	205	364	1	121	08:03:03	2507152	5	3	3	3	3	3	0	3	1	7	6	0	0	0	0	5	6	0	0	0	0	0		1	0	0	0	0	0	0	0
011013	08:03:03	10019	Trial	ResponseCL	14	0	175	0	121	08:03:03	2508472	5	3	3	3	3	3	0	3	1	7	6	0	0	0	0	5	6	0	0	0	0	0		1	0	0	0	0	0	0	0
011013	08:03:03	10019	Trial	CongruentLeft	14	203	258	1	121	08:03:03	2508752	5	3	3	3	3	3	0	3	1	7	6	0	0	0	0	5	6	0	0	0	0	0		1	0	0	0	0	0	0	0
011013	08:03:03	10019	Trial	ResponseIR	14	0	175	0	121	08:03:03	2510178	5	3	3	3	3	3	0	3	1	7	6	0	0	0	0	5	6	0	0	0	0	0		1	0	0	0	0	0	0	0
011013	08:03:03	10019	Trial	IncongruentRight	14	205	392	1	121	08:03:03	2510591	5	3	3	3	3	3	0	3	1	7	6	0	0	0	0	5	6	0	0	0	0	0		1	0	0	0	0	0	0	0
011013	08:03:03	10019	Trial	ResponseCR	14	0	175	0	121	08:03:03	2511884	5	3	3	3	3	3	0	3	1	7	6	0	0	0	0	5	6	0	0	0	0	0		1	0	0	0	0	0	0	0
011013	08:03:03	10019	Trial	CongruentRight	14	205	222	1	121	08:03:03	2512124	5	3	3	3	3	3	0	3	1	7	6	0	0	0	0	5	6	0	0	0	0	0		1	0	0	0	0	0	0	0
011013	08:03:03	10019	Trial	ResponseCL	14	0	175	0	121	08:03:03	2513590	5	3	3	3	3	3	0	3	1	7	6	0	0	0	0	5	6	0	0	0	0	0		1	0	0	0	0	0	0	0
011013	08:03:03	10019	Trial	CongruentLeft	14	203	292	1	121	08:03:03	2513910	5	3	3	3	3	3	0	3	1	7	6	0	0	0	0	5	6	0	0	0	0	0		1	0	0	0	0	0	0	0
011013	08:03:03	10019	Trial	ResponseIL	14	0	175	0	121	08:03:03	2515296	5	3	3	3	3	3	0	3	1	7	6	0	0	0	0	5	6	0	0	0	0	0		1	0	0	0	0	0	0	0
011013	08:03:03	10019	Trial	IncongruentLeft	14	203	234	1	121	08:03:03	2515549	5	3	3	3	3	3	0	3	1	7	6	0	0	0	0	5	6	0	0	0	0	0		1	0	0	0	0	0	0	0
011013	08:03:03	10019	Trial	ResponseIL	14	0	175	0	121	08:03:03	2517002	5	3	3	3	3	3	0	3	1	7	6	0	0	0	0	5	6	0	0	0	0	0		1	0	0	0	0	0	0	0
011013	08:03:03	10019	Trial	IncongruentLeft	14	203	384	1	121	08:03:03	2517415	5	3	3	3	3	3	0	3	1	7	6	0	0	0	0	5	6	0	0	0	0	0		1	0	0	0	0	0	0	0
011013	08:03:03	10019	Trial	ResponseCR	14	0	175	0	121	08:03:03	2518708	5	3	3	3	3	3	0	3	1	7	6	0	0	0	0	5	6	0	0	0	0	0		1	0	0	0	0	0	0	0
011013	08:03:03	10019	Trial	CongruentRight	14	205	326	1	121	08:03:03	2519054	5	3	3	3	3	3	0	3	1	7	6	0	0	0	0	5	6	0	0	0	0	0		1	0	0	0	0	0	0	0
011013	08:03:03	10019	Trial	ResponseIR	14	0	175	0	121	08:03:03	2520414	5	3	3	3	3	3	0	3	1	7	6	0	0	0	0	5	6	0	0	0	0	0		1	0	0	0	0	0	0	0
011013	08:03:03	10019	Trial	IncongruentRight	14	205	332	1	121	08:03:03	2520774	5	3	3	3	3	3	0	3	1	7	6	0	0	0	0	5	6	0	0	0	0	0		1	0	0	0	0	0	0	0
011013	08:03:03	10019	Trial	ResponseCL	14	0	175	0	121	08:03:03	2522120	5	3	3	3	3	3	0	3	1	7	6	0	0	0	0	5	6	0	0	0	0	0		1	0	0	0	0	0	0	0
011013	08:03:03	10019	Trial	CongruentLeft	14	203	258	1	121	08:03:03	2522399	5	3	3	3	3	3	0	3	1	7	6	0	0	0	0	5	6	0	0	0	0	0		1	0	0	0	0	0	0	0
011013	08:03:03	10019	Trial	ResponseIR	14	0	175	0	121	08:03:03	2523826	5	3	3	3	3	3	0	3	1	7	6	0	0	0	0	5	6	0	0	0	0	0		1	0	0	0	0	0	0	0
011013	08:03:03	10019	Trial	IncongruentRight	14	205	408	1	121	08:03:03	2524252	5	3	3	3	3	3	0	3	1	7	6	0	0	0	0	5	6	0	0	0	0	0		1	0	0	0	0	0	0	0
011013	08:03:03	10019	Trial	ResponseCR	14	0	175	0	121	08:03:03	2525532	5	3	3	3	3	3	0	3	1	7	6	0	0	0	0	5	6	0	0	0	0	0		1	0	0	0	0	0	0	0
011013	08:03:03	10019	Trial	CongruentRight	14	205	270	1	121	08:03:03	2525825	5	3	3	3	3	3	0	3	1	7	6	0	0	0	0	5	6	0	0	0	0	0		1	0	0	0	0	0	0	0
011013	08:03:03	10019	Trial	ResponseIL	14	0	175	0	121	08:03:03	2527238	5	3	3	3	3	3	0	3	1	7	6	0	0	0	0	5	6	0	0	0	0	0		1	0	0	0	0	0	0	0
011013	08:03:03	10019	Trial	IncongruentLeft	14	203	356	1	121	08:03:03	2527611	5	3	3	3	3	3	0	3	1	7	6	0	0	0	0	5	6	0	0	0	0	0		1	0	0	0	0	0	0	0
011013	08:03:03	10019	Trial	ResponseCL	14	0	175	0	121	08:03:03	2528943	5	3	3	3	3	3	0	3	1	7	6	0	0	0	0	5	6	0	0	0	0	0		1	0	0	0	0	0	0	0
011013	08:03:03	10019	Trial	CongruentLeft	14	203	281	1	121	08:03:03	2529250	5	3	3	3	3	3	0	3	1	7	6	0	0	0	0	5	6	0	0	0	0	0		1	0	0	0	0	0	0	0
011013	08:03:03	10019	Trial	ResponseCR	14	0	175	0	121	08:03:03	2530650	5	3	3	3	3	3	0	3	1	7	6	0	0	0	0	5	6	0	0	0	0	0		1	0	0	0	0	0	0	0
011013	08:03:03	10019	Trial	CongruentRight	14	205	287	1	121	08:03:03	2530956	5	3	3	3	3	3	0	3	1	7	6	0	0	0	0	5	6	0	0	0	0	0		1	0	0	0	0	0	0	0
011013	08:03:03	10019	Trial	ResponseIL	14	0	175	0	121	08:03:03	2532356	5	3	3	3	3	3	0	3	1	7	6	0	0	0	0	5	6	0	0	0	0	0		1	0	0	0	0	0	0	0
011013	08:03:03	10019	Trial	IncongruentLeft	14	203	278	1	121	08:03:03	2532662	5	3	3	3	3	3	0	3	1	7	6	0	0	0	0	5	6	0	0	0	0	0		1	0	0	0	0	0	0	0
011013	08:03:03	10019	Trial	ResponseCR	14	0	175	0	121	08:03:03	2534062	5	3	3	3	3	3	0	3	1	7	6	0	0	0	0	5	6	0	0	0	0	0		1	0	0	0	0	0	0	0
011013	08:03:03	10019	Trial	CongruentRight	14	205	171	1	121	08:03:03	2534261	5	3	3	3	3	3	0	3	1	7	6	0	0	0	0	5	6	0	0	0	0	0		1	0	0	0	0	0	0	0
011013	08:03:03	10019	Trial	ResponseCR	14	0	175	0	121	08:03:03	2535768	5	3	3	3	3	3	0	3	1	7	6	0	0	0	0	5	6	0	0	0	0	0		1	0	0	0	0	0	0	0
011013	08:03:03	10019	Trial	CongruentRight	14	205	290	1	121	08:03:03	2536074	5	3	3	3	3	3	0	3	1	7	6	0	0	0	0	5	6	0	0	0	0	0		1	0	0	0	0	0	0	0
011013	08:03:03	10019	Trial	ResponseIR	14	0	175	0	121	08:03:03	2537473	5	3	3	3	3	3	0	3	1	7	6	0	0	0	0	5	6	0	0	0	0	0		1	0	0	0	0	0	0	0
011013	08:03:03	10019	Trial	IncongruentRight	14	205	375	1	121	08:03:03	2537873	5	3	3	3	3	3	0	3	1	7	6	0	0	0	0	5	6	0	0	0	0	0		1	0	0	0	0	0	0	0
011013	08:03:03	10019	Trial	ResponseCL	14	0	175	0	121	08:03:03	2539179	5	3	3	3	3	3	0	3	1	7	6	0	0	0	0	5	6	0	0	0	0	0		1	0	0	0	0	0	0	0
011013	08:03:03	10019	Trial	CongruentLeft	14	203	317	1	121	08:03:03	2539526	5	3	3	3	3	3	0	3	1	7	6	0	0	0	0	5	6	0	0	0	0	0		1	0	0	0	0	0	0	0
011013	08:03:03	10019	Trial	ResponseIL	14	0	175	0	121	08:03:03	2540885	5	3	3	3	3	3	0	3	1	7	6	0	0	0	0	5	6	0	0	0	0	0		1	0	0	0	0	0	0	0
011013	08:03:03	10019	Trial	IncongruentLeft	14	203	387	1	121	08:03:03	2541299	5	3	3	3	3	3	0	3	1	7	6	0	0	0	0	5	6	0	0	0	0	0		1	0	0	0	0	0	0	0
011013	08:03:03	10019	Trial	ResponseCL	14	0	175	0	121	08:03:03	2542591	5	3	3	3	3	3	0	3	1	7	6	0	0	0	0	5	6	0	0	0	0	0		1	0	0	0	0	0	0	0
011013	08:03:03	10019	Trial	CongruentLeft	14	203	217	1	121	08:03:03	2542831	5	3	3	3	3	3	0	3	1	7	6	0	0	0	0	5	6	0	0	0	0	0		1	0	0	0	0	0	0	0
011013	08:03:03	10019	Trial	ResponseIR	14	0	175	0	121	08:03:03	2544297	5	3	3	3	3	3	0	3	1	7	6	0	0	0	0	5	6	0	0	0	0	0		1	0	0	0	0	0	0	0
011013	08:03:03	10019	Trial	IncongruentRight	14	203	239	0	121	08:03:03	2544564	5	3	3	3	3	3	0	3	1	7	6	0	0	0	0	5	6	0	0	0	0	0		1	0	0	0	0	0	0	0
011013	08:03:03	10019	Trial	ResponseIL	14	0	175	0	121	08:03:03	2546003	5	3	3	3	3	3	0	3	1	7	6	0	0	0	0	5	6	0	0	0	0	0		1	0	0	0	0	0	0	0
011013	08:03:03	10019	Trial	IncongruentLeft	14	203	373	1	121	08:03:03	2546403	5	3	3	3	3	3	0	3	1	7	6	0	0	0	0	5	6	0	0	0	0	0		1	0	0	0	0	0	0	0
011013	08:03:03	10019	Trial	ResponseCR	14	0	175	0	121	08:03:03	2547709	5	3	3	3	3	3	0	3	1	7	6	0	0	0	0	5	6	0	0	0	0	0		1	0	0	0	0	0	0	0
011013	08:03:03	10019	Trial	CongruentRight	14	205	203	1	121	08:03:03	2547936	5	3	3	3	3	3	0	3	1	7	6	0	0	0	0	5	6	0	0	0	0	0		1	0	0	0	0	0	0	0
011013	08:03:03	10019	Trial	ResponseCL	14	0	175	0	121	08:03:03	2549415	5	3	3	3	3	3	0	3	1	7	6	0	0	0	0	5	6	0	0	0	0	0		1	0	0	0	0	0	0	0
011013	08:03:03	10019	Trial	CongruentLeft	14	203	225	1	121	08:03:03	2549668	5	3	3	3	3	3	0	3	1	7	6	0	0	0	0	5	6	0	0	0	0	0		1	0	0	0	0	0	0	0
011013	08:03:03	10019	Trial	ResponseIL	14	0	175	0	121	08:03:03	2551121	5	3	3	3	3	3	0	3	1	7	6	0	0	0	0	5	6	0	0	0	0	0		1	0	0	0	0	0	0	0
011013	08:03:03	10019	Trial	IncongruentLeft	14	203	360	1	121	08:03:03	2551508	5	3	3	3	3	3	0	3	1	7	6	0	0	0	0	5	6	0	0	0	0	0		1	0	0	0	0	0	0	0
011013	08:03:03	10019	Trial	ResponseCL	14	0	175	0	121	08:03:03	2552827	5	3	3	3	3	3	0	3	1	7	6	0	0	0	0	5	6	0	0	0	0	0		1	0	0	0	0	0	0	0
011013	08:03:03	10019	Trial	CongruentLeft	14	203	286	1	121	08:03:03	2553134	5	3	3	3	3	3	0	3	1	7	6	0	0	0	0	5	6	0	0	0	0	0		1	0	0	0	0	0	0	0
011013	08:03:03	10019	Trial	ResponseIR	14	0	175	0	121	08:03:03	2554533	5	3	3	3	3	3	0	3	1	7	6	0	0	0	0	5	6	0	0	0	0	0		1	0	0	0	0	0	0	0
011013	08:03:03	10019	Trial	IncongruentRight	14	205	339	1	121	08:03:03	2554893	5	3	3	3	3	3	0	3	1	7	6	0	0	0	0	5	6	0	0	0	0	0		1	0	0	0	0	0	0	0
011013	08:03:03	10019	Trial	ResponseCR	14	0	175	0	121	08:03:03	2556239	5	3	3	3	3	3	0	3	1	7	6	0	0	0	0	5	6	0	0	0	0	0		1	0	0	0	0	0	0	0
011013	08:03:03	10019	Trial	CongruentRight	14	205	297	1	121	08:03:03	2556559	5	3	3	3	3	3	0	3	1	7	6	0	0	0	0	5	6	0	0	0	0	0		1	0	0	0	0	0	0	0
011013	08:03:03	10019	Trial	ResponseIL	14	0	175	0	121	08:03:03	2557945	5	3	3	3	3	3	0	3	1	7	6	0	0	0	0	5	6	0	0	0	0	0		1	0	0	0	0	0	0	0
011013	08:03:03	10019	Trial	IncongruentLeft	14	203	367	1	121	08:03:03	2558332	5	3	3	3	3	3	0	3	1	7	6	0	0	0	0	5	6	0	0	0	0	0		1	0	0	0	0	0	0	0
011013	08:03:03	10019	Trial	ResponseCL	14	0	175	0	121	08:03:03	2559651	5	3	3	3	3	3	0	3	1	7	6	0	0	0	0	5	6	0	0	0	0	0		1	0	0	0	0	0	0	0
011013	08:03:03	10019	Trial	CongruentLeft	14	203	217	1	121	08:03:03	2559891	5	3	3	3	3	3	0	3	1	7	6	0	0	0	0	5	6	0	0	0	0	0		1	0	0	0	0	0	0	0
011013	08:03:03	10019	Trial	ResponseIR	14	0	175	0	121	08:03:03	2561357	5	3	3	3	3	3	0	3	1	7	6	0	0	0	0	5	6	0	0	0	0	0		1	0	0	0	0	0	0	0
011013	08:03:03	10019	Trial	IncongruentRight	14	203	220	0	121	08:03:03	2561597	5	3	3	3	3	3	0	3	1	7	6	0	0	0	0	5	6	0	0	0	0	0		1	0	0	0	0	0	0	0
011013	08:03:03	10019	Trial	ResponseIL	14	0	175	0	121	08:03:03	2563063	5	3	3	3	3	3	0	3	1	7	6	0	0	0	0	5	6	0	0	0	0	0		1	0	0	0	0	0	0	0
011013	08:03:03	10019	Trial	IncongruentLeft	14	203	305	1	121	08:03:03	2563396	5	3	3	3	3	3	0	3	1	7	6	0	0	0	0	5	6	0	0	0	0	0		1	0	0	0	0	0	0	0
011013	08:03:03	10019	Trial	ResponseCL	14	0	175	0	121	08:03:03	2564769	5	3	3	3	3	3	0	3	1	7	6	0	0	0	0	5	6	0	0	0	0	0		1	0	0	0	0	0	0	0
011013	08:03:03	10019	Trial	CongruentLeft	14	203	327	1	121	08:03:03	2565115	5	3	3	3	3	3	0	3	1	7	6	0	0	0	0	5	6	0	0	0	0	0		1	0	0	0	0	0	0	0
011013	08:03:03	10019	Trial	ResponseIL	14	0	175	0	121	08:03:03	2566475	5	3	3	3	3	3	0	3	1	7	6	0	0	0	0	5	6	0	0	0	0	0		1	0	0	0	0	0	0	0
011013	08:03:03	10019	Trial	IncongruentLeft	14	203	301	1	121	08:03:03	2566795	5	3	3	3	3	3	0	3	1	7	6	0	0	0	0	5	6	0	0	0	0	0		1	0	0	0	0	0	0	0
011013	08:03:03	10019	Trial	ResponseCR	14	0	175	0	121	08:03:03	2568181	5	3	3	3	3	3	0	3	1	7	6	0	0	0	0	5	6	0	0	0	0	0		1	0	0	0	0	0	0	0
011013	08:03:03	10019	Trial	CongruentRight	14	205	243	1	121	08:03:03	2568448	5	3	3	3	3	3	0	3	1	7	6	0	0	0	0	5	6	0	0	0	0	0		1	0	0	0	0	0	0	0
011013	08:03:03	10019	Trial	ResponseCL	14	0	175	0	121	08:03:03	2569887	5	3	3	3	3	3	0	3	1	7	6	0	0	0	0	5	6	0	0	0	0	0		1	0	0	0	0	0	0	0
011013	08:03:03	10019	Trial	CongruentLeft	14	203	409	1	121	08:03:03	2570314	5	3	3	3	3	3	0	3	1	7	6	0	0	0	0	5	6	0	0	0	0	0		1	0	0	0	0	0	0	0
011013	08:03:03	10019	Trial	ResponseIR	14	0	175	0	121	08:03:03	2571593	5	3	3	3	3	3	0	3	1	7	6	0	0	0	0	5	6	0	0	0	0	0		1	0	0	0	0	0	0	0
011013	08:03:03	10019	Trial	IncongruentRight	14	205	351	1	121	08:03:03	2571966	5	3	3	3	3	3	0	3	1	7	6	0	0	0	0	5	6	0	0	0	0	0		1	0	0	0	0	0	0	0
011013	08:03:03	10019	Trial	ResponseCL	14	0	175	0	121	08:03:03	2573299	5	3	3	3	3	3	0	3	1	7	6	0	0	0	0	5	6	0	0	0	0	0		1	0	0	0	0	0	0	0
011013	08:03:03	10019	Trial	CongruentLeft	14	203	389	1	121	08:03:03	2573712	5	3	3	3	3	3	0	3	1	7	6	0	0	0	0	5	6	0	0	0	0	0		1	0	0	0	0	0	0	0
011013	08:03:03	10019	Trial	ResponseCR	14	0	175	0	121	08:03:03	2575005	5	3	3	3	3	3	0	3	1	7	6	0	0	0	0	5	6	0	0	0	0	0		1	0	0	0	0	0	0	0
011013	08:03:03	10019	Trial	CongruentRight	14	205	203	1	121	08:03:03	2575232	5	3	3	3	3	3	0	3	1	7	6	0	0	0	0	5	6	0	0	0	0	0		1	0	0	0	0	0	0	0
011013	08:03:03	10019	Trial	ResponseIL	14	0	175	0	121	08:03:03	2576711	5	3	3	3	3	3	0	3	1	7	6	0	0	0	0	5	6	0	0	0	0	0		1	0	0	0	0	0	0	0
011013	08:03:03	10019	Trial	IncongruentLeft	14	203	337	1	121	08:03:03	2577071	5	3	3	3	3	3	0	3	1	7	6	0	0	0	0	5	6	0	0	0	0	0		1	0	0	0	0	0	0	0
011013	08:03:03	10019	WordsAbsFr6mo	PAbsFr6mo1	16	Abs1	5130	0	121	08:03:03	2589706	5	3	3	3	3	3	0	3	1	7	6	0	0	0	0	5	6	0	0	0	0	0		1	0	0	0	0	0	0	0
011013	08:03:03	10019	WordsAbsFr6mo	AbsFr6mo1	16	Abs1	2407	0	121	08:03:03	2592145	5	3	3	3	3	3	0	3	1	7	6	1	0	0	0	5	6	0	0	0	0	0		1	0	0	0	0	0	0	0
011013	08:03:03	10019	WordsAbsFr6mo	AbsFr6mo2	16	Abs1	19195	0	121	08:03:03	2611377	5	3	3	3	3	3	0	3	1	7	6	2	0	0	0	5	6	0	0	0	0	0		1	0	0	0	0	0	0	0
011013	08:03:03	10019	WordsAbsFr6mo	AbsFr6mo3	16	Abs1	6295	0	121	08:03:03	2617708	5	3	3	3	3	3	0	3	1	7	6	3	0	0	0	5	6	0	0	0	0	0		1	0	0	0	0	0	0	0
011013	08:03:03	10019	Trial2BackFrS	NS	17	0	1000	1	121	08:03:03	2685454	5	3	3	3	3	3	0	3	1	7	6	3	0	0	0	5	6	0	0	0	0	0		1	0	0	0	0	0	0	0
011013	08:03:03	10019	Trial2BackFrS	NS	17	0	1000	1	121	08:03:03	2686960	5	3	3	3	3	3	0	3	1	7	6	3	0	0	0	5	6	0	0	0	0	0		1	0	0	0	0	0	0	0
011013	08:03:03	10019	Trial2BackFrS	NS	17	0	1000	1	121	08:03:03	2688479	5	3	3	3	3	3	0	3	1	7	6	3	0	0	0	5	6	0	0	0	0	0		1	0	0	0	0	0	0	0
011013	08:03:03	10019	Trial2BackFrS	YS	17	57	635	1	121	08:03:03	2689625	5	3	3	3	3	3	0	3	1	7	6	3	0	0	0	5	6	0	0	0	0	0		1	0	0	0	0	0	0	0
011013	08:03:03	10019	Trial2BackFrS	NS	17	0	1000	1	121	08:03:03	2691491	5	3	3	3	3	3	0	3	1	7	6	3	0	0	0	5	6	0	0	0	0	0		1	0	0	0	0	0	0	0
011013	08:03:03	10019	Trial2BackFrS	NS	17	0	1000	1	121	08:03:03	2693011	5	3	3	3	3	3	0	3	1	7	6	3	0	0	0	5	6	0	0	0	0	0		1	0	0	0	0	0	0	0
011013	08:03:03	10019	Trial2BackFrS	NS	17	0	1000	1	121	08:03:03	2694530	5	3	3	3	3	3	0	3	1	7	6	3	0	0	0	5	6	0	0	0	0	0		1	0	0	0	0	0	0	0
011013	08:03:03	10019	Trial2BackFrS	NS	17	0	1000	1	121	08:03:03	2696036	5	3	3	3	3	3	0	3	1	7	6	3	0	0	0	5	6	0	0	0	0	0		1	0	0	0	0	0	0	0
011013	08:03:03	10019	Trial2BackFrS	YS	17	57	518	1	121	08:03:03	2697062	5	3	3	3	3	3	0	3	1	7	6	3	0	0	0	5	6	0	0	0	0	0		1	0	0	0	0	0	0	0
011013	08:03:03	10019	Trial2BackFrS	NS	17	0	1000	1	121	08:03:03	2699048	5	3	3	3	3	3	0	3	1	7	6	3	0	0	0	5	6	0	0	0	0	0		1	0	0	0	0	0	0	0
011013	08:03:03	10019	Trial2BackFrS	NS	17	0	1000	1	121	08:03:03	2700554	5	3	3	3	3	3	0	3	1	7	6	3	0	0	0	5	6	0	0	0	0	0		1	0	0	0	0	0	0	0
011013	08:03:03	10019	Trial2BackFrS	YS	17	0	1000	0	121	08:03:03	2702060	5	3	3	3	3	3	0	3	1	7	6	3	0	0	0	5	6	0	0	0	0	0		1	0	0	0	0	0	0	0
011013	08:03:03	10019	Trial2BackFrS	NS	17	0	1000	1	121	08:03:03	2703580	5	3	3	3	3	3	0	3	1	7	6	3	0	0	0	5	6	0	0	0	0	0		1	0	0	0	0	0	0	0
011013	08:03:03	10019	Trial2BackFrS	NS	17	0	1000	1	121	08:03:03	2705086	5	3	3	3	3	3	0	3	1	7	6	3	0	0	0	5	6	0	0	0	0	0		1	0	0	0	0	0	0	0
011013	08:03:03	10019	Trial2BackFrS	NS	17	0	1000	1	121	08:03:03	2706592	5	3	3	3	3	3	0	3	1	7	6	3	0	0	0	5	6	0	0	0	0	0		1	0	0	0	0	0	0	0
011013	08:03:03	10019	Trial2BackFrS	YS	17	0	1000	0	121	08:03:03	2708098	5	3	3	3	3	3	0	3	1	7	6	3	0	0	0	5	6	0	0	0	0	0		1	0	0	0	0	0	0	0
011013	08:03:03	10019	Trial2BackFrS	NS	17	0	1000	1	121	08:03:03	2709604	5	3	3	3	3	3	0	3	1	7	6	3	0	0	0	5	6	0	0	0	0	0		1	0	0	0	0	0	0	0
011013	08:03:03	10019	Trial2BackFrS	NS	17	0	1000	1	121	08:03:03	2711110	5	3	3	3	3	3	0	3	1	7	6	3	0	0	0	5	6	0	0	0	0	0		1	0	0	0	0	0	0	0
011013	08:03:03	10019	Trial2BackFrS	NS	17	0	1000	1	121	08:03:03	2712629	5	3	3	3	3	3	0	3	1	7	6	3	0	0	0	5	6	0	0	0	0	0		1	0	0	0	0	0	0	0
011013	08:03:03	10019	Trial2BackFrS	NS	17	0	1000	1	121	08:03:03	2714135	5	3	3	3	3	3	0	3	1	7	6	3	0	0	0	5	6	0	0	0	0	0		1	0	0	0	0	0	0	0
011013	08:03:03	10019	Trial2BackFrS	YS	17	57	754	1	121	08:03:03	2715401	5	3	3	3	3	3	0	3	1	7	6	3	0	0	0	5	6	0	0	0	0	0		1	0	0	0	0	0	0	0
011013	08:03:03	10019	Trial2BackFrS	NS	17	0	1000	1	121	08:03:03	2717147	5	3	3	3	3	3	0	3	1	7	6	3	0	0	0	5	6	0	0	0	0	0		1	0	0	0	0	0	0	0
011013	08:03:03	10019	Trial2BackFrS	NS	17	0	1000	1	121	08:03:03	2718654	5	3	3	3	3	3	0	3	1	7	6	3	0	0	0	5	6	0	0	0	0	0		1	0	0	0	0	0	0	0
011013	08:03:03	10019	Trial2BackFrS	NS	17	0	1000	1	121	08:03:03	2720160	5	3	3	3	3	3	0	3	1	7	6	3	0	0	0	5	6	0	0	0	0	0		1	0	0	0	0	0	0	0
011013	08:03:03	10019	Trial2BackFrS	NS	17	0	1000	1	121	08:03:03	2721679	5	3	3	3	3	3	0	3	1	7	6	3	0	0	0	5	6	0	0	0	0	0		1	0	0	0	0	0	0	0
011013	08:03:03	10019	Trial2BackFrS	NS	17	0	1000	1	121	08:03:03	2723185	5	3	3	3	3	3	0	3	1	7	6	3	0	0	0	5	6	0	0	0	0	0		1	0	0	0	0	0	0	0
011013	08:03:03	10019	Trial2BackFrS	NS	17	0	1000	1	121	08:03:03	2724691	5	3	3	3	3	3	0	3	1	7	6	3	0	0	0	5	6	0	0	0	0	0		1	0	0	0	0	0	0	0
011013	08:03:03	10019	Trial2BackFrS	NS	17	0	1000	1	121	08:03:03	2726197	5	3	3	3	3	3	0	3	1	7	6	3	0	0	0	5	6	0	0	0	0	0		1	0	0	0	0	0	0	0
011013	08:03:03	10019	Trial2BackFrS	NS	17	0	1000	1	121	08:03:03	2727717	5	3	3	3	3	3	0	3	1	7	6	3	0	0	0	5	6	0	0	0	0	0		1	0	0	0	0	0	0	0
011013	08:03:03	10019	Trial2BackFrS	NS	17	0	1000	1	121	08:03:03	2729223	5	3	3	3	3	3	0	3	1	7	6	3	0	0	0	5	6	0	0	0	0	0		1	0	0	0	0	0	0	0
011013	08:03:03	10019	Trial2BackFrS	NS	17	0	1000	1	121	08:03:03	2730729	5	3	3	3	3	3	0	3	1	7	6	3	0	0	0	5	6	0	0	0	0	0		1	0	0	0	0	0	0	0
011013	08:03:03	10019	Trial2BackFrS	YS	17	57	400	1	121	08:03:03	2731648	5	3	3	3	3	3	0	3	1	7	6	3	0	0	0	5	6	0	0	0	0	0		1	0	0	0	0	0	0	0
011013	08:03:03	10019	Trial2BackFrS	NS	17	0	1000	1	121	08:03:03	2733741	5	3	3	3	3	3	0	3	1	7	6	3	0	0	0	5	6	0	0	0	0	0		1	0	0	0	0	0	0	0
011013	08:03:03	10019	Trial2BackFrS	NS	17	0	1000	1	121	08:03:03	2735247	5	3	3	3	3	3	0	3	1	7	6	3	0	0	0	5	6	0	0	0	0	0		1	0	0	0	0	0	0	0
011013	08:03:03	10019	Trial2BackFrS	NS	17	0	1000	1	121	08:03:03	2736753	5	3	3	3	3	3	0	3	1	7	6	3	0	0	0	5	6	0	0	0	0	0		1	0	0	0	0	0	0	0
011013	08:03:03	10019	Trial2BackFrS	YS	17	57	600	1	121	08:03:03	2737872	5	3	3	3	3	3	0	3	1	7	6	3	0	0	0	5	6	0	0	0	0	0		1	0	0	0	0	0	0	0
011013	08:03:03	10019	Trial2BackFrS	NS	17	0	1000	1	121	08:03:03	2739765	5	3	3	3	3	3	0	3	1	7	6	3	0	0	0	5	6	0	0	0	0	0		1	0	0	0	0	0	0	0
011013	08:03:03	10019	Trial2BackFrS	NS	17	0	1000	1	121	08:03:03	2741284	5	3	3	3	3	3	0	3	1	7	6	3	0	0	0	5	6	0	0	0	0	0		1	0	0	0	0	0	0	0
011013	08:03:03	10019	Trial2BackFrS	NS	17	0	1000	1	121	08:03:03	2742790	5	3	3	3	3	3	0	3	1	7	6	3	0	0	0	5	6	0	0	0	0	0		1	0	0	0	0	0	0	0
011013	08:03:03	10019	Trial2BackFrS	NS	17	0	1000	1	121	08:03:03	2744296	5	3	3	3	3	3	0	3	1	7	6	3	0	0	0	5	6	0	0	0	0	0		1	0	0	0	0	0	0	0
011013	08:03:03	10019	Trial2BackFrS	NS	17	0	1000	1	121	08:03:03	2745803	5	3	3	3	3	3	0	3	1	7	6	3	0	0	0	5	6	0	0	0	0	0		1	0	0	0	0	0	0	0
011013	08:03:03	10019	Trial2BackFrS	NS	17	0	1000	1	121	08:03:03	2747309	5	3	3	3	3	3	0	3	1	7	6	3	0	0	0	5	6	0	0	0	0	0		1	0	0	0	0	0	0	0
011013	08:03:03	10019	Trial2BackFrS	NS	17	0	1000	1	121	08:03:03	2748828	5	3	3	3	3	3	0	3	1	7	6	3	0	0	0	5	6	0	0	0	0	0		1	0	0	0	0	0	0	0
011013	08:03:03	10019	Trial2BackFrS	YS	17	57	493	1	121	08:03:03	2749841	5	3	3	3	3	3	0	3	1	7	6	3	0	0	0	5	6	0	0	0	0	0		1	0	0	0	0	0	0	0
011013	08:03:03	10019	Trial2BackFrS	NS	17	0	1000	1	121	08:03:03	2751840	5	3	3	3	3	3	0	3	1	7	6	3	0	0	0	5	6	0	0	0	0	0		1	0	0	0	0	0	0	0
011013	08:03:03	10019	Trial2BackFrS	NS	17	0	1000	1	121	08:03:03	2753346	5	3	3	3	3	3	0	3	1	7	6	3	0	0	0	5	6	0	0	0	0	0		1	0	0	0	0	0	0	0
011013	08:03:03	10019	Trial2BackFrS	NS	17	0	1000	1	121	08:03:03	2754852	5	3	3	3	3	3	0	3	1	7	6	3	0	0	0	5	6	0	0	0	0	0		1	0	0	0	0	0	0	0
