date	time	subject	blockcode	trialcode	values.TaskNumber	response	latency	correct	values.Score	script.starttime	script.elapsedtime	values.ScoreS7	values.Word1	values.Word2	values.Word3	values.Word4	values.Word5	values.Word6	values.Word7	values.Word8	values.DigitSpanFwrd	values.DigitSpanBack	values.ScoreAbs	values.Contour	values.Numbers	values.Hands	values.corsiblockspanFwrd	values.corsiblockspanRev	values.problemnumber	values.subjectattempts	values.targetmoves	values.subjectmoves	expressions.excessmoves	values.movestring	expressions.targetachieved	values.problemscore	values.totalscoreTOL	expressions.firstmovetime	expressions.executiontime	expressions.solutiontime	values.t_choicestart	values.t_choiceend
011013	10:13:39	10018	Language	Language	0	French	6156	0	0	10:13:39	6275	0	0	0	0	0	0	0	0	0	0	0	0	0	0	0	0	0	0	0	0	0	0		1	0	0	0	0	0	0	0
011013	10:13:39	10018	Session	Session	0	6mo	2390	0	0	10:13:39	8728	0	0	0	0	0	0	0	0	0	0	0	0	0	0	0	0	0	0	0	0	0	0		1	0	0	0	0	0	0	0
011013	10:13:39	10018	HandFr	HandFr	0	RightFr	1106	0	0	10:13:39	9901	0	0	0	0	0	0	0	0	0	0	0	0	0	0	0	0	0	0	0	0	0	0		1	0	0	0	0	0	0	0
011013	10:13:39	10018	AudioCheckFr	WordsFr	0	0	0	0	0	10:13:39	1107169	0	0	0	0	0	0	0	0	0	0	0	0	0	0	0	0	0	0	0	0	0	0		1	0	0	0	0	0	0	0
011013	10:13:39	10018	CubeFr	CubeFr	1	1Cube	38578	0	0	10:13:39	1147626	0	0	0	0	0	0	0	0	0	0	0	0	0	0	0	0	0	0	0	0	0	0		1	0	0	0	0	0	0	0
011013	10:13:39	10018	pm.simpleFrRight	blank.simpleFr	2	0	2100	1	0	10:13:39	1161354	0	0	0	0	0	0	0	0	0	0	0	0	0	0	0	0	0	0	0	0	0	0		1	0	0	0	0	0	0	0
011013	10:13:39	10018	pm.simpleFrRight	pm.simpleFr	2	57	400	0	0	10:13:39	1161780	0	0	0	0	0	0	0	0	0	0	0	0	0	0	0	0	0	0	0	0	0	0		1	0	0	0	0	0	0	0
011013	10:13:39	10018	pm.simpleFrRight	blank.simpleFr	2	0	2300	1	0	10:13:39	1164099	0	0	0	0	0	0	0	0	0	0	0	0	0	0	0	0	0	0	0	0	0	0		1	0	0	0	0	0	0	0
011013	10:13:39	10018	pm.simpleFrRight	pm.simpleFr	2	57	325	0	0	10:13:39	1164445	0	0	0	0	0	0	0	0	0	0	0	0	0	0	0	0	0	0	0	0	0	0		1	0	0	0	0	0	0	0
011013	10:13:39	10018	pm.simpleFrRight	blank.simpleFr	2	0	1900	1	0	10:13:39	1166365	0	0	0	0	0	0	0	0	0	0	0	0	0	0	0	0	0	0	0	0	0	0		1	0	0	0	0	0	0	0
011013	10:13:39	10018	pm.simpleFrRight	pm.simpleFr	2	57	269	0	0	10:13:39	1166658	0	0	0	0	0	0	0	0	0	0	0	0	0	0	0	0	0	0	0	0	0	0		1	0	0	0	0	0	0	0
011013	10:13:39	10018	pm.simpleFrRight	blank.simpleFr	2	0	2500	1	0	10:13:39	1169177	0	0	0	0	0	0	0	0	0	0	0	0	0	0	0	0	0	0	0	0	0	0		1	0	0	0	0	0	0	0
011013	10:13:39	10018	pm.simpleFrRight	pm.simpleFr	2	57	272	0	0	10:13:39	1169470	0	0	0	0	0	0	0	0	0	0	0	0	0	0	0	0	0	0	0	0	0	0		1	0	0	0	0	0	0	0
011013	10:13:39	10018	pm.simpleFrRight	blank.simpleFr	2	0	2400	1	0	10:13:39	1171883	0	0	0	0	0	0	0	0	0	0	0	0	0	0	0	0	0	0	0	0	0	0		1	0	0	0	0	0	0	0
011013	10:13:39	10018	pm.simpleFrRight	pm.simpleFr	2	57	271	0	0	10:13:39	1172176	0	0	0	0	0	0	0	0	0	0	0	0	0	0	0	0	0	0	0	0	0	0		1	0	0	0	0	0	0	0
011013	10:13:39	10018	pm.simpleFrRight	blank.simpleFr	2	0	2200	1	0	10:13:39	1174388	0	0	0	0	0	0	0	0	0	0	0	0	0	0	0	0	0	0	0	0	0	0		1	0	0	0	0	0	0	0
011013	10:13:39	10018	pm.simpleFrRight	pm.simpleFr	2	57	261	0	0	10:13:39	1174668	0	0	0	0	0	0	0	0	0	0	0	0	0	0	0	0	0	0	0	0	0	0		1	0	0	0	0	0	0	0
011013	10:13:39	10018	pm.simpleFrRight	blank.simpleFr	2	0	1500	1	0	10:13:39	1176187	0	0	0	0	0	0	0	0	0	0	0	0	0	0	0	0	0	0	0	0	0	0		1	0	0	0	0	0	0	0
011013	10:13:39	10018	pm.simpleFrRight	pm.simpleFr	2	57	286	0	0	10:13:39	1176494	0	0	0	0	0	0	0	0	0	0	0	0	0	0	0	0	0	0	0	0	0	0		1	0	0	0	0	0	0	0
011013	10:13:39	10018	pm.simpleFrRight	blank.simpleFr	2	0	1700	1	0	10:13:39	1178213	0	0	0	0	0	0	0	0	0	0	0	0	0	0	0	0	0	0	0	0	0	0		1	0	0	0	0	0	0	0
011013	10:13:39	10018	pm.simpleFrRight	pm.simpleFr	2	57	292	0	0	10:13:39	1178533	0	0	0	0	0	0	0	0	0	0	0	0	0	0	0	0	0	0	0	0	0	0		1	0	0	0	0	0	0	0
011013	10:13:39	10018	pm.simpleFrRight	blank.simpleFr	2	0	1800	1	0	10:13:39	1180346	0	0	0	0	0	0	0	0	0	0	0	0	0	0	0	0	0	0	0	0	0	0		1	0	0	0	0	0	0	0
011013	10:13:39	10018	pm.simpleFrRight	pm.simpleFr	2	57	303	0	0	10:13:39	1180666	0	0	0	0	0	0	0	0	0	0	0	0	0	0	0	0	0	0	0	0	0	0		1	0	0	0	0	0	0	0
011013	10:13:39	10018	pm.simpleFrRight	blank.simpleFr	2	0	1600	1	0	10:13:39	1182278	0	0	0	0	0	0	0	0	0	0	0	0	0	0	0	0	0	0	0	0	0	0		1	0	0	0	0	0	0	0
011013	10:13:39	10018	pm.simpleFrRight	pm.simpleFr	2	57	243	0	0	10:13:39	1182545	0	0	0	0	0	0	0	0	0	0	0	0	0	0	0	0	0	0	0	0	0	0		1	0	0	0	0	0	0	0
011013	10:13:39	10018	pm.simpleFrRight	blank.simpleFr	2	0	2000	1	0	10:13:39	1184557	0	0	0	0	0	0	0	0	0	0	0	0	0	0	0	0	0	0	0	0	0	0		1	0	0	0	0	0	0	0
011013	10:13:39	10018	pm.simpleFrRight	pm.simpleFr	2	57	236	0	0	10:13:39	1184811	0	0	0	0	0	0	0	0	0	0	0	0	0	0	0	0	0	0	0	0	0	0		1	0	0	0	0	0	0	0
011013	10:13:39	10018	pm.simpleFrRight	blank.simpleFr	2	0	1900	1	0	10:13:39	1186730	0	0	0	0	0	0	0	0	0	0	0	0	0	0	0	0	0	0	0	0	0	0		1	0	0	0	0	0	0	0
011013	10:13:39	10018	pm.simpleFrRight	pm.simpleFr	2	57	222	0	0	10:13:39	1186970	0	0	0	0	0	0	0	0	0	0	0	0	0	0	0	0	0	0	0	0	0	0		1	0	0	0	0	0	0	0
011013	10:13:39	10018	pm.simpleFrRight	blank.simpleFr	2	0	1500	1	0	10:13:39	1188489	0	0	0	0	0	0	0	0	0	0	0	0	0	0	0	0	0	0	0	0	0	0		1	0	0	0	0	0	0	0
011013	10:13:39	10018	pm.simpleFrRight	pm.simpleFr	2	57	368	0	0	10:13:39	1188876	0	0	0	0	0	0	0	0	0	0	0	0	0	0	0	0	0	0	0	0	0	0		1	0	0	0	0	0	0	0
011013	10:13:39	10018	pm.simpleFrRight	blank.simpleFr	2	0	2300	1	0	10:13:39	1191195	0	0	0	0	0	0	0	0	0	0	0	0	0	0	0	0	0	0	0	0	0	0		1	0	0	0	0	0	0	0
011013	10:13:39	10018	pm.simpleFrRight	pm.simpleFr	2	57	270	0	0	10:13:39	1191488	0	0	0	0	0	0	0	0	0	0	0	0	0	0	0	0	0	0	0	0	0	0		1	0	0	0	0	0	0	0
011013	10:13:39	10018	pm.simpleFrRight	blank.simpleFr	2	0	1700	1	0	10:13:39	1193207	0	0	0	0	0	0	0	0	0	0	0	0	0	0	0	0	0	0	0	0	0	0		1	0	0	0	0	0	0	0
011013	10:13:39	10018	pm.simpleFrRight	pm.simpleFr	2	57	353	0	0	10:13:39	1193580	0	0	0	0	0	0	0	0	0	0	0	0	0	0	0	0	0	0	0	0	0	0		1	0	0	0	0	0	0	0
011013	10:13:39	10018	pm.simpleFrRight	blank.simpleFr	2	0	2200	1	0	10:13:39	1195793	0	0	0	0	0	0	0	0	0	0	0	0	0	0	0	0	0	0	0	0	0	0		1	0	0	0	0	0	0	0
011013	10:13:39	10018	pm.simpleFrRight	pm.simpleFr	2	57	248	0	0	10:13:39	1196059	0	0	0	0	0	0	0	0	0	0	0	0	0	0	0	0	0	0	0	0	0	0		1	0	0	0	0	0	0	0
011013	10:13:39	10018	pm.simpleFrRight	blank.simpleFr	2	0	1800	1	0	10:13:39	1197872	0	0	0	0	0	0	0	0	0	0	0	0	0	0	0	0	0	0	0	0	0	0		1	0	0	0	0	0	0	0
011013	10:13:39	10018	pm.simpleFrRight	pm.simpleFr	2	57	265	0	0	10:13:39	1198165	0	0	0	0	0	0	0	0	0	0	0	0	0	0	0	0	0	0	0	0	0	0		1	0	0	0	0	0	0	0
011013	10:13:39	10018	pm.simpleFrRight	blank.simpleFr	2	0	1600	1	0	10:13:39	1199778	0	0	0	0	0	0	0	0	0	0	0	0	0	0	0	0	0	0	0	0	0	0		1	0	0	0	0	0	0	0
011013	10:13:39	10018	pm.simpleFrRight	pm.simpleFr	2	57	246	0	0	10:13:39	1200044	0	0	0	0	0	0	0	0	0	0	0	0	0	0	0	0	0	0	0	0	0	0		1	0	0	0	0	0	0	0
011013	10:13:39	10018	pm.simpleFrRight	blank.simpleFr	2	0	2500	1	0	10:13:39	1202563	0	0	0	0	0	0	0	0	0	0	0	0	0	0	0	0	0	0	0	0	0	0		1	0	0	0	0	0	0	0
011013	10:13:39	10018	pm.simpleFrRight	pm.simpleFr	2	57	261	0	0	10:13:39	1202843	0	0	0	0	0	0	0	0	0	0	0	0	0	0	0	0	0	0	0	0	0	0		1	0	0	0	0	0	0	0
011013	10:13:39	10018	pm.simpleFrRight	blank.simpleFr	2	0	2400	1	0	10:13:39	1205256	0	0	0	0	0	0	0	0	0	0	0	0	0	0	0	0	0	0	0	0	0	0		1	0	0	0	0	0	0	0
011013	10:13:39	10018	pm.simpleFrRight	pm.simpleFr	2	57	225	0	0	10:13:39	1205509	0	0	0	0	0	0	0	0	0	0	0	0	0	0	0	0	0	0	0	0	0	0		1	0	0	0	0	0	0	0
011013	10:13:39	10018	pm.simpleFrRight	blank.simpleFr	2	0	2000	1	0	10:13:39	1207521	0	0	0	0	0	0	0	0	0	0	0	0	0	0	0	0	0	0	0	0	0	0		1	0	0	0	0	0	0	0
011013	10:13:39	10018	pm.simpleFrRight	pm.simpleFr	2	57	247	0	0	10:13:39	1207788	0	0	0	0	0	0	0	0	0	0	0	0	0	0	0	0	0	0	0	0	0	0		1	0	0	0	0	0	0	0
011013	10:13:39	10018	pm.simpleFrRight	blank.simpleFr	2	0	2100	1	0	10:13:39	1209907	0	0	0	0	0	0	0	0	0	0	0	0	0	0	0	0	0	0	0	0	0	0		1	0	0	0	0	0	0	0
011013	10:13:39	10018	pm.simpleFrRight	pm.simpleFr	2	57	261	0	0	10:13:39	1210187	0	0	0	0	0	0	0	0	0	0	0	0	0	0	0	0	0	0	0	0	0	0		1	0	0	0	0	0	0	0
011013	10:13:39	10018	pm.simpleFrRight	blank.simpleFr	2	0	2300	1	0	10:13:39	1212506	0	0	0	0	0	0	0	0	0	0	0	0	0	0	0	0	0	0	0	0	0	0		1	0	0	0	0	0	0	0
011013	10:13:39	10018	pm.simpleFrRight	pm.simpleFr	2	57	270	0	0	10:13:39	1212799	0	0	0	0	0	0	0	0	0	0	0	0	0	0	0	0	0	0	0	0	0	0		1	0	0	0	0	0	0	0
011013	10:13:39	10018	pm.simpleFrRight	blank.simpleFr	2	0	2000	1	0	10:13:39	1214812	0	0	0	0	0	0	0	0	0	0	0	0	0	0	0	0	0	0	0	0	0	0		1	0	0	0	0	0	0	0
011013	10:13:39	10018	pm.simpleFrRight	pm.simpleFr	2	57	220	0	0	10:13:39	1215052	0	0	0	0	0	0	0	0	0	0	0	0	0	0	0	0	0	0	0	0	0	0		1	0	0	0	0	0	0	0
011013	10:13:39	10018	pm.simpleFrRight	blank.simpleFr	2	0	1600	1	0	10:13:39	1216678	0	0	0	0	0	0	0	0	0	0	0	0	0	0	0	0	0	0	0	0	0	0		1	0	0	0	0	0	0	0
011013	10:13:39	10018	pm.simpleFrRight	pm.simpleFr	2	57	258	0	0	10:13:39	1216957	0	0	0	0	0	0	0	0	0	0	0	0	0	0	0	0	0	0	0	0	0	0		1	0	0	0	0	0	0	0
011013	10:13:39	10018	pm.simpleFrRight	blank.simpleFr	2	0	2200	1	0	10:13:39	1219170	0	0	0	0	0	0	0	0	0	0	0	0	0	0	0	0	0	0	0	0	0	0		1	0	0	0	0	0	0	0
011013	10:13:39	10018	pm.simpleFrRight	pm.simpleFr	2	57	246	0	0	10:13:39	1219437	0	0	0	0	0	0	0	0	0	0	0	0	0	0	0	0	0	0	0	0	0	0		1	0	0	0	0	0	0	0
011013	10:13:39	10018	pm.simpleFrRight	blank.simpleFr	2	0	1800	1	0	10:13:39	1221249	0	0	0	0	0	0	0	0	0	0	0	0	0	0	0	0	0	0	0	0	0	0		1	0	0	0	0	0	0	0
011013	10:13:39	10018	pm.simpleFrRight	pm.simpleFr	2	57	295	0	0	10:13:39	1221569	0	0	0	0	0	0	0	0	0	0	0	0	0	0	0	0	0	0	0	0	0	0		1	0	0	0	0	0	0	0
011013	10:13:39	10018	pm.simpleFrRight	blank.simpleFr	2	0	1700	1	0	10:13:39	1223289	0	0	0	0	0	0	0	0	0	0	0	0	0	0	0	0	0	0	0	0	0	0		1	0	0	0	0	0	0	0
011013	10:13:39	10018	pm.simpleFrRight	pm.simpleFr	2	57	223	0	0	10:13:39	1223528	0	0	0	0	0	0	0	0	0	0	0	0	0	0	0	0	0	0	0	0	0	0		1	0	0	0	0	0	0	0
011013	10:13:39	10018	pm.simpleFrRight	blank.simpleFr	2	0	2400	1	0	10:13:39	1225941	0	0	0	0	0	0	0	0	0	0	0	0	0	0	0	0	0	0	0	0	0	0		1	0	0	0	0	0	0	0
011013	10:13:39	10018	pm.simpleFrRight	pm.simpleFr	2	57	227	0	0	10:13:39	1226194	0	0	0	0	0	0	0	0	0	0	0	0	0	0	0	0	0	0	0	0	0	0		1	0	0	0	0	0	0	0
011013	10:13:39	10018	pm.simpleFrRight	blank.simpleFr	2	0	2100	1	0	10:13:39	1228313	0	0	0	0	0	0	0	0	0	0	0	0	0	0	0	0	0	0	0	0	0	0		1	0	0	0	0	0	0	0
011013	10:13:39	10018	pm.simpleFrRight	pm.simpleFr	2	57	268	0	0	10:13:39	1228606	0	0	0	0	0	0	0	0	0	0	0	0	0	0	0	0	0	0	0	0	0	0		1	0	0	0	0	0	0	0
011013	10:13:39	10018	pm.simpleFrRight	blank.simpleFr	2	57	1914	0	0	10:13:39	1231538	0	0	0	0	0	0	0	0	0	0	0	0	0	0	0	0	0	0	0	0	0	0		1	0	0	0	0	0	0	0
011013	10:13:39	10018	pm.simpleFrRight	blank.simpleFr	2	0	1900	1	0	10:13:39	1233458	0	0	0	0	0	0	0	0	0	0	0	0	0	0	0	0	0	0	0	0	0	0		1	0	0	0	0	0	0	0
011013	10:13:39	10018	pm.simpleFrRight	pm.simpleFr	2	57	262	0	0	10:13:39	1233737	0	0	0	0	0	0	0	0	0	0	0	0	0	0	0	0	0	0	0	0	0	0		1	0	0	0	0	0	0	0
011013	10:13:39	10018	pm.simpleFrRight	blank.simpleFr	2	0	1500	1	0	10:13:39	1235257	0	0	0	0	0	0	0	0	0	0	0	0	0	0	0	0	0	0	0	0	0	0		1	0	0	0	0	0	0	0
011013	10:13:39	10018	pm.simpleFrRight	pm.simpleFr	2	57	286	0	0	10:13:39	1235563	0	0	0	0	0	0	0	0	0	0	0	0	0	0	0	0	0	0	0	0	0	0		1	0	0	0	0	0	0	0
011013	10:13:39	10018	pm.simpleFrRight	blank.simpleFr	2	0	2500	1	0	10:13:39	1238082	0	0	0	0	0	0	0	0	0	0	0	0	0	0	0	0	0	0	0	0	0	0		1	0	0	0	0	0	0	0
011013	10:13:39	10018	pm.simpleFrRight	pm.simpleFr	2	57	261	0	0	10:13:39	1238362	0	0	0	0	0	0	0	0	0	0	0	0	0	0	0	0	0	0	0	0	0	0		1	0	0	0	0	0	0	0
011013	10:13:39	10018	pm.simpleFrRight	blank.simpleFr	2	0	2200	1	0	10:13:39	1240575	0	0	0	0	0	0	0	0	0	0	0	0	0	0	0	0	0	0	0	0	0	0		1	0	0	0	0	0	0	0
011013	10:13:39	10018	pm.simpleFrRight	pm.simpleFr	2	57	233	0	0	10:13:39	1240828	0	0	0	0	0	0	0	0	0	0	0	0	0	0	0	0	0	0	0	0	0	0		1	0	0	0	0	0	0	0
011013	10:13:39	10018	pm.simpleFrRight	blank.simpleFr	2	0	2300	1	0	10:13:39	1243147	0	0	0	0	0	0	0	0	0	0	0	0	0	0	0	0	0	0	0	0	0	0		1	0	0	0	0	0	0	0
011013	10:13:39	10018	pm.simpleFrRight	pm.simpleFr	2	57	252	0	0	10:13:39	1243427	0	0	0	0	0	0	0	0	0	0	0	0	0	0	0	0	0	0	0	0	0	0		1	0	0	0	0	0	0	0
011013	10:13:39	10018	pm.simpleFrRight	blank.simpleFr	2	0	2400	1	0	10:13:39	1245839	0	0	0	0	0	0	0	0	0	0	0	0	0	0	0	0	0	0	0	0	0	0		1	0	0	0	0	0	0	0
011013	10:13:39	10018	pm.simpleFrRight	pm.simpleFr	2	57	248	0	0	10:13:39	1246106	0	0	0	0	0	0	0	0	0	0	0	0	0	0	0	0	0	0	0	0	0	0		1	0	0	0	0	0	0	0
011013	10:13:39	10018	pm.simpleFrRight	blank.simpleFr	2	0	2100	1	0	10:13:39	1248225	0	0	0	0	0	0	0	0	0	0	0	0	0	0	0	0	0	0	0	0	0	0		1	0	0	0	0	0	0	0
011013	10:13:39	10018	pm.simpleFrRight	pm.simpleFr	2	57	247	0	0	10:13:39	1248491	0	0	0	0	0	0	0	0	0	0	0	0	0	0	0	0	0	0	0	0	0	0		1	0	0	0	0	0	0	0
011013	10:13:39	10018	pm.simpleFrRight	blank.simpleFr	2	0	1800	1	0	10:13:39	1250304	0	0	0	0	0	0	0	0	0	0	0	0	0	0	0	0	0	0	0	0	0	0		1	0	0	0	0	0	0	0
011013	10:13:39	10018	pm.simpleFrRight	pm.simpleFr	2	57	279	0	0	10:13:39	1250611	0	0	0	0	0	0	0	0	0	0	0	0	0	0	0	0	0	0	0	0	0	0		1	0	0	0	0	0	0	0
011013	10:13:39	10018	pm.simpleFrRight	blank.simpleFr	2	0	2000	1	0	10:13:39	1252623	0	0	0	0	0	0	0	0	0	0	0	0	0	0	0	0	0	0	0	0	0	0		1	0	0	0	0	0	0	0
011013	10:13:39	10018	pm.simpleFrRight	pm.simpleFr	2	57	232	0	0	10:13:39	1252876	0	0	0	0	0	0	0	0	0	0	0	0	0	0	0	0	0	0	0	0	0	0		1	0	0	0	0	0	0	0
011013	10:13:39	10018	pm.simpleFrRight	blank.simpleFr	2	0	1900	1	0	10:13:39	1254796	0	0	0	0	0	0	0	0	0	0	0	0	0	0	0	0	0	0	0	0	0	0		1	0	0	0	0	0	0	0
011013	10:13:39	10018	pm.simpleFrRight	pm.simpleFr	2	57	267	0	0	10:13:39	1255089	0	0	0	0	0	0	0	0	0	0	0	0	0	0	0	0	0	0	0	0	0	0		1	0	0	0	0	0	0	0
011013	10:13:39	10018	Trial2BackFr	N	3	57	101	0	0	10:13:39	1310906	0	0	0	0	0	0	0	0	0	0	0	0	0	0	0	0	0	0	0	0	0	0		1	0	0	0	0	0	0	0
011013	10:13:39	10018	Trial2BackFr	N	3	0	1000	1	1	10:13:39	1313305	0	0	0	0	0	0	0	0	0	0	0	0	0	0	0	0	0	0	0	0	0	0		1	0	0	0	0	0	0	0
011013	10:13:39	10018	Trial2BackFr	N	3	0	1000	1	2	10:13:39	1314811	0	0	0	0	0	0	0	0	0	0	0	0	0	0	0	0	0	0	0	0	0	0		1	0	0	0	0	0	0	0
011013	10:13:39	10018	Trial2BackFr	N	3	0	1000	1	3	10:13:39	1316331	0	0	0	0	0	0	0	0	0	0	0	0	0	0	0	0	0	0	0	0	0	0		1	0	0	0	0	0	0	0
011013	10:13:39	10018	Trial2BackFr	N	3	0	1000	1	4	10:13:39	1317850	0	0	0	0	0	0	0	0	0	0	0	0	0	0	0	0	0	0	0	0	0	0		1	0	0	0	0	0	0	0
011013	10:13:39	10018	Trial2BackFr	N	3	0	1000	1	5	10:13:39	1319356	0	0	0	0	0	0	0	0	0	0	0	0	0	0	0	0	0	0	0	0	0	0		1	0	0	0	0	0	0	0
011013	10:13:39	10018	Trial2BackFr	N	3	0	1000	1	6	10:13:39	1320862	0	0	0	0	0	0	0	0	0	0	0	0	0	0	0	0	0	0	0	0	0	0		1	0	0	0	0	0	0	0
011013	10:13:39	10018	Trial2BackFr	N	3	0	1000	1	7	10:13:39	1322368	0	0	0	0	0	0	0	0	0	0	0	0	0	0	0	0	0	0	0	0	0	0		1	0	0	0	0	0	0	0
011013	10:13:39	10018	Trial2BackFr	Y	3	57	506	1	8	10:13:39	1323395	0	0	0	0	0	0	0	0	0	0	0	0	0	0	0	0	0	0	0	0	0	0		1	0	0	0	0	0	0	0
011013	10:13:39	10018	Trial2BackFr	N	3	0	1000	1	9	10:13:39	1325380	0	0	0	0	0	0	0	0	0	0	0	0	0	0	0	0	0	0	0	0	0	0		1	0	0	0	0	0	0	0
011013	10:13:39	10018	Trial2BackFr	N	3	0	1000	1	10	10:13:39	1326887	0	0	0	0	0	0	0	0	0	0	0	0	0	0	0	0	0	0	0	0	0	0		1	0	0	0	0	0	0	0
011013	10:13:39	10018	Trial2BackFr	N	3	0	1000	1	11	10:13:39	1328406	0	0	0	0	0	0	0	0	0	0	0	0	0	0	0	0	0	0	0	0	0	0		1	0	0	0	0	0	0	0
011013	10:13:39	10018	Trial2BackFr	Y	3	0	1000	0	11	10:13:39	1329912	0	0	0	0	0	0	0	0	0	0	0	0	0	0	0	0	0	0	0	0	0	0		1	0	0	0	0	0	0	0
011013	10:13:39	10018	Trial2BackFr	N	3	0	1000	1	12	10:13:39	1331418	0	0	0	0	0	0	0	0	0	0	0	0	0	0	0	0	0	0	0	0	0	0		1	0	0	0	0	0	0	0
011013	10:13:39	10018	Trial2BackFr	N	3	0	1000	1	13	10:13:39	1332937	0	0	0	0	0	0	0	0	0	0	0	0	0	0	0	0	0	0	0	0	0	0		1	0	0	0	0	0	0	0
011013	10:13:39	10018	Trial2BackFr	N	3	0	1000	1	14	10:13:39	1334443	0	0	0	0	0	0	0	0	0	0	0	0	0	0	0	0	0	0	0	0	0	0		1	0	0	0	0	0	0	0
011013	10:13:39	10018	Trial2BackFr	N	3	0	1000	1	15	10:13:39	1335950	0	0	0	0	0	0	0	0	0	0	0	0	0	0	0	0	0	0	0	0	0	0		1	0	0	0	0	0	0	0
011013	10:13:39	10018	Trial2BackFr	N	3	0	1000	1	16	10:13:39	1337456	0	0	0	0	0	0	0	0	0	0	0	0	0	0	0	0	0	0	0	0	0	0		1	0	0	0	0	0	0	0
011013	10:13:39	10018	Trial2BackFr	Y	3	57	298	1	17	10:13:39	1338268	0	0	0	0	0	0	0	0	0	0	0	0	0	0	0	0	0	0	0	0	0	0		1	0	0	0	0	0	0	0
011013	10:13:39	10018	Trial2BackFr	N	3	0	1000	1	18	10:13:39	1340468	0	0	0	0	0	0	0	0	0	0	0	0	0	0	0	0	0	0	0	0	0	0		1	0	0	0	0	0	0	0
011013	10:13:39	10018	Trial2BackFr	N	3	0	1000	1	19	10:13:39	1341974	0	0	0	0	0	0	0	0	0	0	0	0	0	0	0	0	0	0	0	0	0	0		1	0	0	0	0	0	0	0
011013	10:13:39	10018	Trial2BackFr	N	3	0	1000	1	20	10:13:39	1343480	0	0	0	0	0	0	0	0	0	0	0	0	0	0	0	0	0	0	0	0	0	0		1	0	0	0	0	0	0	0
011013	10:13:39	10018	Trial2BackFr	N	3	0	1000	1	21	10:13:39	1344986	0	0	0	0	0	0	0	0	0	0	0	0	0	0	0	0	0	0	0	0	0	0		1	0	0	0	0	0	0	0
011013	10:13:39	10018	Trial2BackFr	Y	3	57	528	1	22	10:13:39	1346025	0	0	0	0	0	0	0	0	0	0	0	0	0	0	0	0	0	0	0	0	0	0		1	0	0	0	0	0	0	0
011013	10:13:39	10018	Trial2BackFr	N	3	0	1000	1	23	10:13:39	1347998	0	0	0	0	0	0	0	0	0	0	0	0	0	0	0	0	0	0	0	0	0	0		1	0	0	0	0	0	0	0
011013	10:13:39	10018	Trial2BackFr	N	3	0	1000	1	24	10:13:39	1349504	0	0	0	0	0	0	0	0	0	0	0	0	0	0	0	0	0	0	0	0	0	0		1	0	0	0	0	0	0	0
011013	10:13:39	10018	Trial2BackFr	N	3	0	1000	1	25	10:13:39	1351010	0	0	0	0	0	0	0	0	0	0	0	0	0	0	0	0	0	0	0	0	0	0		1	0	0	0	0	0	0	0
011013	10:13:39	10018	Trial2BackFr	N	3	0	1000	1	26	10:13:39	1352516	0	0	0	0	0	0	0	0	0	0	0	0	0	0	0	0	0	0	0	0	0	0		1	0	0	0	0	0	0	0
011013	10:13:39	10018	Trial2BackFr	N	3	0	1000	1	27	10:13:39	1354036	0	0	0	0	0	0	0	0	0	0	0	0	0	0	0	0	0	0	0	0	0	0		1	0	0	0	0	0	0	0
011013	10:13:39	10018	Trial2BackFr	N	3	0	1000	1	28	10:13:39	1355542	0	0	0	0	0	0	0	0	0	0	0	0	0	0	0	0	0	0	0	0	0	0		1	0	0	0	0	0	0	0
011013	10:13:39	10018	Trial2BackFr	Y	3	57	548	1	29	10:13:39	1356608	0	0	0	0	0	0	0	0	0	0	0	0	0	0	0	0	0	0	0	0	0	0		1	0	0	0	0	0	0	0
011013	10:13:39	10018	Trial2BackFr	N	3	0	1000	1	30	10:13:39	1358554	0	0	0	0	0	0	0	0	0	0	0	0	0	0	0	0	0	0	0	0	0	0		1	0	0	0	0	0	0	0
011013	10:13:39	10018	Trial2BackFr	N	3	0	1000	1	31	10:13:39	1360060	0	0	0	0	0	0	0	0	0	0	0	0	0	0	0	0	0	0	0	0	0	0		1	0	0	0	0	0	0	0
011013	10:13:39	10018	Trial2BackFr	N	3	0	1000	1	32	10:13:39	1361566	0	0	0	0	0	0	0	0	0	0	0	0	0	0	0	0	0	0	0	0	0	0		1	0	0	0	0	0	0	0
011013	10:13:39	10018	Trial2BackFr	Y	3	57	603	1	33	10:13:39	1362685	0	0	0	0	0	0	0	0	0	0	0	0	0	0	0	0	0	0	0	0	0	0		1	0	0	0	0	0	0	0
011013	10:13:39	10018	Trial2BackFr	N	3	0	1000	1	34	10:13:39	1364578	0	0	0	0	0	0	0	0	0	0	0	0	0	0	0	0	0	0	0	0	0	0		1	0	0	0	0	0	0	0
011013	10:13:39	10018	Trial2BackFr	N	3	0	1000	1	35	10:13:39	1366084	0	0	0	0	0	0	0	0	0	0	0	0	0	0	0	0	0	0	0	0	0	0		1	0	0	0	0	0	0	0
011013	10:13:39	10018	Trial2BackFr	N	3	0	1000	1	36	10:13:39	1367590	0	0	0	0	0	0	0	0	0	0	0	0	0	0	0	0	0	0	0	0	0	0		1	0	0	0	0	0	0	0
011013	10:13:39	10018	Trial2BackFr	N	3	0	1000	1	37	10:13:39	1369096	0	0	0	0	0	0	0	0	0	0	0	0	0	0	0	0	0	0	0	0	0	0		1	0	0	0	0	0	0	0
011013	10:13:39	10018	Trial2BackFr	N	3	0	1000	1	38	10:13:39	1370615	0	0	0	0	0	0	0	0	0	0	0	0	0	0	0	0	0	0	0	0	0	0		1	0	0	0	0	0	0	0
011013	10:13:39	10018	Trial2BackFr	N	3	0	1000	1	39	10:13:39	1372122	0	0	0	0	0	0	0	0	0	0	0	0	0	0	0	0	0	0	0	0	0	0		1	0	0	0	0	0	0	0
011013	10:13:39	10018	Trial2BackFr	Y	3	57	383	1	40	10:13:39	1373014	0	0	0	0	0	0	0	0	0	0	0	0	0	0	0	0	0	0	0	0	0	0		1	0	0	0	0	0	0	0
011013	10:13:39	10018	Trial2BackFr	N	3	0	1000	1	41	10:13:39	1375134	0	0	0	0	0	0	0	0	0	0	0	0	0	0	0	0	0	0	0	0	0	0		1	0	0	0	0	0	0	0
011013	10:13:39	10018	Trial2BackFr	N	3	0	1000	1	42	10:13:39	1376640	0	0	0	0	0	0	0	0	0	0	0	0	0	0	0	0	0	0	0	0	0	0		1	0	0	0	0	0	0	0
011013	10:13:39	10018	Trial2BackFr	N	3	0	1000	1	43	10:13:39	1378159	0	0	0	0	0	0	0	0	0	0	0	0	0	0	0	0	0	0	0	0	0	0		1	0	0	0	0	0	0	0
011013	10:13:39	10018	Trial2BackFr	N	3	0	1000	1	44	10:13:39	1379678	0	0	0	0	0	0	0	0	0	0	0	0	0	0	0	0	0	0	0	0	0	0		1	0	0	0	0	0	0	0
011013	10:13:39	10018	Trial2BackFr	Y	3	57	394	1	45	10:13:39	1380585	0	0	0	0	0	0	0	0	0	0	0	0	0	0	0	0	0	0	0	0	0	0		1	0	0	0	0	0	0	0
011013	10:13:39	10018	Trial2BackFr	N	3	0	1000	1	46	10:13:39	1382691	0	0	0	0	0	0	0	0	0	0	0	0	0	0	0	0	0	0	0	0	0	0		1	0	0	0	0	0	0	0
011013	10:13:39	10018	Trial2BackFr	N	3	0	1000	1	47	10:13:39	1384197	0	0	0	0	0	0	0	0	0	0	0	0	0	0	0	0	0	0	0	0	0	0		1	0	0	0	0	0	0	0
011013	10:13:39	10018	Trial2BackFr	N	3	0	1000	1	48	10:13:39	1385703	0	0	0	0	0	0	0	0	0	0	0	0	0	0	0	0	0	0	0	0	0	0		1	0	0	0	0	0	0	0
011013	10:13:39	10018	Trial2BackFr	N	3	0	1000	1	49	10:13:39	1387209	0	0	0	0	0	0	0	0	0	0	0	0	0	0	0	0	0	0	0	0	0	0		1	0	0	0	0	0	0	0
011013	10:13:39	10018	Trial2BackFr	N	3	0	1000	1	50	10:13:39	1388728	0	0	0	0	0	0	0	0	0	0	0	0	0	0	0	0	0	0	0	0	0	0		1	0	0	0	0	0	0	0
011013	10:13:39	10018	Trial2BackFr	Y	3	57	576	1	51	10:13:39	1389821	0	0	0	0	0	0	0	0	0	0	0	0	0	0	0	0	0	0	0	0	0	0		1	0	0	0	0	0	0	0
011013	10:13:39	10018	Trial2BackFr	N	3	0	1000	1	52	10:13:39	1391740	0	0	0	0	0	0	0	0	0	0	0	0	0	0	0	0	0	0	0	0	0	0		1	0	0	0	0	0	0	0
011013	10:13:39	10018	Trial2BackFr	N	3	0	1000	1	53	10:13:39	1393246	0	0	0	0	0	0	0	0	0	0	0	0	0	0	0	0	0	0	0	0	0	0		1	0	0	0	0	0	0	0
011013	10:13:39	10018	Trial2BackFr	N	3	0	1000	1	54	10:13:39	1394766	0	0	0	0	0	0	0	0	0	0	0	0	0	0	0	0	0	0	0	0	0	0		1	0	0	0	0	0	0	0
011013	10:13:39	10018	Trial2BackFr	N	3	0	1000	1	55	10:13:39	1396272	0	0	0	0	0	0	0	0	0	0	0	0	0	0	0	0	0	0	0	0	0	0		1	0	0	0	0	0	0	0
011013	10:13:39	10018	Trial2BackFr	N	3	0	1000	1	56	10:13:39	1397778	0	0	0	0	0	0	0	0	0	0	0	0	0	0	0	0	0	0	0	0	0	0		1	0	0	0	0	0	0	0
011013	10:13:39	10018	Trial2BackFr	N	3	0	1000	1	57	10:13:39	1399284	0	0	0	0	0	0	0	0	0	0	0	0	0	0	0	0	0	0	0	0	0	0		1	0	0	0	0	0	0	0
011013	10:13:39	10018	Trial2BackFr	Y	3	57	500	1	58	10:13:39	1400297	0	0	0	0	0	0	0	0	0	0	0	0	0	0	0	0	0	0	0	0	0	0		1	0	0	0	0	0	0	0
011013	10:13:39	10018	Trial2BackFr	N	3	0	1000	1	59	10:13:39	1402296	0	0	0	0	0	0	0	0	0	0	0	0	0	0	0	0	0	0	0	0	0	0		1	0	0	0	0	0	0	0
011013	10:13:39	10018	Trial2BackFr	N	3	0	1000	1	60	10:13:39	1403802	0	0	0	0	0	0	0	0	0	0	0	0	0	0	0	0	0	0	0	0	0	0		1	0	0	0	0	0	0	0
011013	10:13:39	10018	Trial2BackFr	Y	3	57	606	1	61	10:13:39	1404921	0	0	0	0	0	0	0	0	0	0	0	0	0	0	0	0	0	0	0	0	0	0		1	0	0	0	0	0	0	0
011013	10:13:39	10018	Trial2BackFr	N	3	0	1000	1	62	10:13:39	1406814	0	0	0	0	0	0	0	0	0	0	0	0	0	0	0	0	0	0	0	0	0	0		1	0	0	0	0	0	0	0
011013	10:13:39	10018	Trial2BackFr	N	3	0	1000	1	63	10:13:39	1408333	0	0	0	0	0	0	0	0	0	0	0	0	0	0	0	0	0	0	0	0	0	0		1	0	0	0	0	0	0	0
011013	10:13:39	10018	Trial2BackFr	N	3	0	1000	1	64	10:13:39	1409853	0	0	0	0	0	0	0	0	0	0	0	0	0	0	0	0	0	0	0	0	0	0		1	0	0	0	0	0	0	0
011013	10:13:39	10018	Trial2BackFr	N	3	0	1000	1	65	10:13:39	1411359	0	0	0	0	0	0	0	0	0	0	0	0	0	0	0	0	0	0	0	0	0	0		1	0	0	0	0	0	0	0
011013	10:13:39	10018	Trial2BackFr	N	3	0	1000	1	66	10:13:39	1412865	0	0	0	0	0	0	0	0	0	0	0	0	0	0	0	0	0	0	0	0	0	0		1	0	0	0	0	0	0	0
011013	10:13:39	10018	Trial2BackFr	N	3	0	1000	1	67	10:13:39	1414371	0	0	0	0	0	0	0	0	0	0	0	0	0	0	0	0	0	0	0	0	0	0		1	0	0	0	0	0	0	0
011013	10:13:39	10018	Trial2BackFr	N	3	0	1000	1	68	10:13:39	1415877	0	0	0	0	0	0	0	0	0	0	0	0	0	0	0	0	0	0	0	0	0	0		1	0	0	0	0	0	0	0
011013	10:13:39	10018	Trial2BackFr	N	3	0	1000	1	69	10:13:39	1417396	0	0	0	0	0	0	0	0	0	0	0	0	0	0	0	0	0	0	0	0	0	0		1	0	0	0	0	0	0	0
011013	10:13:39	10018	Trial2BackFr	N	3	0	1000	1	70	10:13:39	1418903	0	0	0	0	0	0	0	0	0	0	0	0	0	0	0	0	0	0	0	0	0	0		1	0	0	0	0	0	0	0
011013	10:13:39	10018	Trial2BackFr	N	3	0	1000	1	71	10:13:39	1420409	0	0	0	0	0	0	0	0	0	0	0	0	0	0	0	0	0	0	0	0	0	0		1	0	0	0	0	0	0	0
011013	10:13:39	10018	Trial2BackFr	Y	3	57	543	1	72	10:13:39	1421462	0	0	0	0	0	0	0	0	0	0	0	0	0	0	0	0	0	0	0	0	0	0		1	0	0	0	0	0	0	0
011013	10:13:39	10018	Trial2BackFr	N	3	0	1000	1	73	10:13:39	1423421	0	0	0	0	0	0	0	0	0	0	0	0	0	0	0	0	0	0	0	0	0	0		1	0	0	0	0	0	0	0
011013	10:13:39	10018	Trial2BackFr	N	3	0	1000	1	74	10:13:39	1424980	0	0	0	0	0	0	0	0	0	0	0	0	0	0	0	0	0	0	0	0	0	0		1	0	0	0	0	0	0	0
011013	10:13:39	10018	Trial2BackFr	N	3	0	1000	1	75	10:13:39	1426500	0	0	0	0	0	0	0	0	0	0	0	0	0	0	0	0	0	0	0	0	0	0		1	0	0	0	0	0	0	0
011013	10:13:39	10018	Trial2BackFr	Y	3	57	628	1	76	10:13:39	1427646	0	0	0	0	0	0	0	0	0	0	0	0	0	0	0	0	0	0	0	0	0	0		1	0	0	0	0	0	0	0
011013	10:13:39	10018	Trial2BackFr	N	3	0	1000	1	77	10:13:39	1429512	0	0	0	0	0	0	0	0	0	0	0	0	0	0	0	0	0	0	0	0	0	0		1	0	0	0	0	0	0	0
011013	10:13:39	10018	Trial2BackFr	N	3	0	1000	1	78	10:13:39	1431018	0	0	0	0	0	0	0	0	0	0	0	0	0	0	0	0	0	0	0	0	0	0		1	0	0	0	0	0	0	0
011013	10:13:39	10018	Trial2BackFr	N	3	0	1000	1	79	10:13:39	1432524	0	0	0	0	0	0	0	0	0	0	0	0	0	0	0	0	0	0	0	0	0	0		1	0	0	0	0	0	0	0
011013	10:13:39	10018	Trial2BackFr	N	3	0	1000	1	80	10:13:39	1434043	0	0	0	0	0	0	0	0	0	0	0	0	0	0	0	0	0	0	0	0	0	0		1	0	0	0	0	0	0	0
011013	10:13:39	10018	Trial2BackFr	N	3	0	1000	1	81	10:13:39	1435549	0	0	0	0	0	0	0	0	0	0	0	0	0	0	0	0	0	0	0	0	0	0		1	0	0	0	0	0	0	0
011013	10:13:39	10018	Trial2BackFr	Y	3	57	714	1	82	10:13:39	1436775	0	0	0	0	0	0	0	0	0	0	0	0	0	0	0	0	0	0	0	0	0	0		1	0	0	0	0	0	0	0
011013	10:13:39	10018	Trial2BackFr	N	3	0	1000	1	83	10:13:39	1438561	0	0	0	0	0	0	0	0	0	0	0	0	0	0	0	0	0	0	0	0	0	0		1	0	0	0	0	0	0	0
011013	10:13:39	10018	Trial2BackFr	N	3	0	1000	1	84	10:13:39	1440068	0	0	0	0	0	0	0	0	0	0	0	0	0	0	0	0	0	0	0	0	0	0		1	0	0	0	0	0	0	0
011013	10:13:39	10018	Trial2BackFr	N	3	0	1000	1	85	10:13:39	1441573	0	0	0	0	0	0	0	0	0	0	0	0	0	0	0	0	0	0	0	0	0	0		1	0	0	0	0	0	0	0
011013	10:13:39	10018	Trial2BackFr	N	3	0	1000	1	86	10:13:39	1443093	0	0	0	0	0	0	0	0	0	0	0	0	0	0	0	0	0	0	0	0	0	0		1	0	0	0	0	0	0	0
011013	10:13:39	10018	Trial2BackFr	N	3	0	1000	1	87	10:13:39	1444599	0	0	0	0	0	0	0	0	0	0	0	0	0	0	0	0	0	0	0	0	0	0		1	0	0	0	0	0	0	0
011013	10:13:39	10018	Trial2BackFr	N	3	0	1000	1	88	10:13:39	1446105	0	0	0	0	0	0	0	0	0	0	0	0	0	0	0	0	0	0	0	0	0	0		1	0	0	0	0	0	0	0
011013	10:13:39	10018	Trial2BackFr	N	3	0	1000	1	89	10:13:39	1447611	0	0	0	0	0	0	0	0	0	0	0	0	0	0	0	0	0	0	0	0	0	0		1	0	0	0	0	0	0	0
011013	10:13:39	10018	Trial2BackFr	N	3	0	1000	1	90	10:13:39	1449117	0	0	0	0	0	0	0	0	0	0	0	0	0	0	0	0	0	0	0	0	0	0		1	0	0	0	0	0	0	0
011013	10:13:39	10018	Trial2BackFr	N	3	0	1000	1	91	10:13:39	1450623	0	0	0	0	0	0	0	0	0	0	0	0	0	0	0	0	0	0	0	0	0	0		1	0	0	0	0	0	0	0
011013	10:13:39	10018	Trial2BackFr	Y	3	57	424	1	92	10:13:39	1451556	0	0	0	0	0	0	0	0	0	0	0	0	0	0	0	0	0	0	0	0	0	0		1	0	0	0	0	0	0	0
011013	10:13:39	10018	Trial2BackFr	N	3	0	1000	1	93	10:13:39	1453635	0	0	0	0	0	0	0	0	0	0	0	0	0	0	0	0	0	0	0	0	0	0		1	0	0	0	0	0	0	0
011013	10:13:39	10018	Trial2BackFr	N	3	0	1000	1	94	10:13:39	1455141	0	0	0	0	0	0	0	0	0	0	0	0	0	0	0	0	0	0	0	0	0	0		1	0	0	0	0	0	0	0
011013	10:13:39	10018	Trial2BackFr	N	3	0	1000	1	95	10:13:39	1456660	0	0	0	0	0	0	0	0	0	0	0	0	0	0	0	0	0	0	0	0	0	0		1	0	0	0	0	0	0	0
011013	10:13:39	10018	Trial2BackFr	N	3	0	1000	1	96	10:13:39	1458167	0	0	0	0	0	0	0	0	0	0	0	0	0	0	0	0	0	0	0	0	0	0		1	0	0	0	0	0	0	0
011013	10:13:39	10018	Trial2BackFr	N	3	0	1000	1	97	10:13:39	1459673	0	0	0	0	0	0	0	0	0	0	0	0	0	0	0	0	0	0	0	0	0	0		1	0	0	0	0	0	0	0
011013	10:13:39	10018	Trial2BackFr	N	3	0	1000	1	98	10:13:39	1461179	0	0	0	0	0	0	0	0	0	0	0	0	0	0	0	0	0	0	0	0	0	0		1	0	0	0	0	0	0	0
011013	10:13:39	10018	Trial2BackFr	N	3	0	1000	1	99	10:13:39	1462685	0	0	0	0	0	0	0	0	0	0	0	0	0	0	0	0	0	0	0	0	0	0		1	0	0	0	0	0	0	0
011013	10:13:39	10018	Trial2BackFr	N	3	0	1000	1	100	10:13:39	1464204	0	0	0	0	0	0	0	0	0	0	0	0	0	0	0	0	0	0	0	0	0	0		1	0	0	0	0	0	0	0
011013	10:13:39	10018	Trial2BackFr	Y	3	57	362	1	101	10:13:39	1465084	0	0	0	0	0	0	0	0	0	0	0	0	0	0	0	0	0	0	0	0	0	0		1	0	0	0	0	0	0	0
011013	10:13:39	10018	Trial2BackFr	N	3	0	1000	1	102	10:13:39	1467216	0	0	0	0	0	0	0	0	0	0	0	0	0	0	0	0	0	0	0	0	0	0		1	0	0	0	0	0	0	0
011013	10:13:39	10018	Trial2BackFr	N	3	0	1000	1	103	10:13:39	1468722	0	0	0	0	0	0	0	0	0	0	0	0	0	0	0	0	0	0	0	0	0	0		1	0	0	0	0	0	0	0
011013	10:13:39	10018	Trial2BackFr	N	3	0	1000	1	104	10:13:39	1470228	0	0	0	0	0	0	0	0	0	0	0	0	0	0	0	0	0	0	0	0	0	0		1	0	0	0	0	0	0	0
011013	10:13:39	10018	Trial2BackFr	N	3	0	1000	1	105	10:13:39	1471734	0	0	0	0	0	0	0	0	0	0	0	0	0	0	0	0	0	0	0	0	0	0		1	0	0	0	0	0	0	0
011013	10:13:39	10018	Trial2BackFr	Y	3	57	864	1	106	10:13:39	1473107	0	0	0	0	0	0	0	0	0	0	0	0	0	0	0	0	0	0	0	0	0	0		1	0	0	0	0	0	0	0
011013	10:13:39	10018	Trial2BackFr	N	3	0	1000	1	107	10:13:39	1474747	0	0	0	0	0	0	0	0	0	0	0	0	0	0	0	0	0	0	0	0	0	0		1	0	0	0	0	0	0	0
011013	10:13:39	10018	Trial2BackFr	N	3	0	1000	1	108	10:13:39	1476253	0	0	0	0	0	0	0	0	0	0	0	0	0	0	0	0	0	0	0	0	0	0		1	0	0	0	0	0	0	0
011013	10:13:39	10018	Trial2BackFr	N	3	0	1000	1	109	10:13:39	1477759	0	0	0	0	0	0	0	0	0	0	0	0	0	0	0	0	0	0	0	0	0	0		1	0	0	0	0	0	0	0
011013	10:13:39	10018	Trial2BackFr	Y	3	57	584	1	110	10:13:39	1478852	0	0	0	0	0	0	0	0	0	0	0	0	0	0	0	0	0	0	0	0	0	0		1	0	0	0	0	0	0	0
011013	10:13:39	10018	Trial2BackFr	N	3	0	1000	1	111	10:13:39	1480771	0	0	0	0	0	0	0	0	0	0	0	0	0	0	0	0	0	0	0	0	0	0		1	0	0	0	0	0	0	0
011013	10:13:39	10018	Trial2BackFr	N	3	0	1000	1	112	10:13:39	1482343	0	0	0	0	0	0	0	0	0	0	0	0	0	0	0	0	0	0	0	0	0	0		1	0	0	0	0	0	0	0
011013	10:13:39	10018	Trial2BackFr	N	3	0	1000	1	113	10:13:39	1483850	0	0	0	0	0	0	0	0	0	0	0	0	0	0	0	0	0	0	0	0	0	0		1	0	0	0	0	0	0	0
011013	10:13:39	10018	Trial2BackFr	N	3	0	1000	1	114	10:13:39	1485356	0	0	0	0	0	0	0	0	0	0	0	0	0	0	0	0	0	0	0	0	0	0		1	0	0	0	0	0	0	0
011013	10:13:39	10018	Trial2BackFr	N	3	0	1000	1	115	10:13:39	1486862	0	0	0	0	0	0	0	0	0	0	0	0	0	0	0	0	0	0	0	0	0	0		1	0	0	0	0	0	0	0
011013	10:13:39	10018	Trial2BackFr	Y	3	57	856	1	116	10:13:39	1488234	0	0	0	0	0	0	0	0	0	0	0	0	0	0	0	0	0	0	0	0	0	0		1	0	0	0	0	0	0	0
011013	10:13:39	10018	Trial2BackFr	N	3	0	1000	1	117	10:13:39	1489874	0	0	0	0	0	0	0	0	0	0	0	0	0	0	0	0	0	0	0	0	0	0		1	0	0	0	0	0	0	0
011013	10:13:39	10018	Trial2BackFr	N	3	0	1000	1	118	10:13:39	1491380	0	0	0	0	0	0	0	0	0	0	0	0	0	0	0	0	0	0	0	0	0	0		1	0	0	0	0	0	0	0
011013	10:13:39	10018	Trial2BackFr	N	3	0	1000	1	119	10:13:39	1492886	0	0	0	0	0	0	0	0	0	0	0	0	0	0	0	0	0	0	0	0	0	0		1	0	0	0	0	0	0	0
011013	10:13:39	10018	Trial2BackFr	Y	3	0	1000	0	119	10:13:39	1494392	0	0	0	0	0	0	0	0	0	0	0	0	0	0	0	0	0	0	0	0	0	0		1	0	0	0	0	0	0	0
011013	10:13:39	10018	Trial3BackFr	NN	4	0	1000	1	119	10:13:39	1507333	0	0	0	0	0	0	0	0	0	0	0	0	0	0	0	0	0	0	0	0	0	0		1	0	0	0	0	0	0	0
011013	10:13:39	10018	Trial3BackFr	NN	4	0	1000	1	119	10:13:39	1508839	0	0	0	0	0	0	0	0	0	0	0	0	0	0	0	0	0	0	0	0	0	0		1	0	0	0	0	0	0	0
011013	10:13:39	10018	Trial3BackFr	NN	4	0	1000	1	119	10:13:39	1510359	0	0	0	0	0	0	0	0	0	0	0	0	0	0	0	0	0	0	0	0	0	0		1	0	0	0	0	0	0	0
011013	10:13:39	10018	Trial3BackFr	YY	4	57	607	1	119	10:13:39	1511478	0	0	0	0	0	0	0	0	0	0	0	0	0	0	0	0	0	0	0	0	0	0		1	0	0	0	0	0	0	0
011013	10:13:39	10018	Trial3BackFr	NN	4	0	1000	1	119	10:13:39	1513371	0	0	0	0	0	0	0	0	0	0	0	0	0	0	0	0	0	0	0	0	0	0		1	0	0	0	0	0	0	0
011013	10:13:39	10018	Trial3BackFr	NN	4	0	1000	1	119	10:13:39	1514877	0	0	0	0	0	0	0	0	0	0	0	0	0	0	0	0	0	0	0	0	0	0		1	0	0	0	0	0	0	0
011013	10:13:39	10018	Trial3BackFr	NN	4	0	1000	1	119	10:13:39	1516383	0	0	0	0	0	0	0	0	0	0	0	0	0	0	0	0	0	0	0	0	0	0		1	0	0	0	0	0	0	0
011013	10:13:39	10018	Trial3BackFr	NN	4	0	1000	1	119	10:13:39	1517902	0	0	0	0	0	0	0	0	0	0	0	0	0	0	0	0	0	0	0	0	0	0		1	0	0	0	0	0	0	0
011013	10:13:39	10018	Trial3BackFr	YY	4	0	1000	0	119	10:13:39	1519409	0	0	0	0	0	0	0	0	0	0	0	0	0	0	0	0	0	0	0	0	0	0		1	0	0	0	0	0	0	0
011013	10:13:39	10018	Trial3BackFr	NN	4	0	1000	1	119	10:13:39	1520915	0	0	0	0	0	0	0	0	0	0	0	0	0	0	0	0	0	0	0	0	0	0		1	0	0	0	0	0	0	0
011013	10:13:39	10018	Trial3BackFr	NN	4	0	1000	1	119	10:13:39	1522421	0	0	0	0	0	0	0	0	0	0	0	0	0	0	0	0	0	0	0	0	0	0		1	0	0	0	0	0	0	0
011013	10:13:39	10018	Trial3BackFr	NN	4	0	1000	1	119	10:13:39	1523927	0	0	0	0	0	0	0	0	0	0	0	0	0	0	0	0	0	0	0	0	0	0		1	0	0	0	0	0	0	0
011013	10:13:39	10018	Trial3BackFr	NN	4	0	1000	1	119	10:13:39	1525446	0	0	0	0	0	0	0	0	0	0	0	0	0	0	0	0	0	0	0	0	0	0		1	0	0	0	0	0	0	0
011013	10:13:39	10018	Trial3BackFr	NN	4	0	1000	1	119	10:13:39	1526952	0	0	0	0	0	0	0	0	0	0	0	0	0	0	0	0	0	0	0	0	0	0		1	0	0	0	0	0	0	0
011013	10:13:39	10018	Trial3BackFr	NN	4	0	1000	1	119	10:13:39	1528485	0	0	0	0	0	0	0	0	0	0	0	0	0	0	0	0	0	0	0	0	0	0		1	0	0	0	0	0	0	0
011013	10:13:39	10018	Trial3BackFr	NN	4	0	1000	1	119	10:13:39	1529991	0	0	0	0	0	0	0	0	0	0	0	0	0	0	0	0	0	0	0	0	0	0		1	0	0	0	0	0	0	0
011013	10:13:39	10018	Trial3BackFr	YY	4	0	1000	0	119	10:13:39	1531497	0	0	0	0	0	0	0	0	0	0	0	0	0	0	0	0	0	0	0	0	0	0		1	0	0	0	0	0	0	0
011013	10:13:39	10018	Trial3BackFr	NN	4	0	1000	1	119	10:13:39	1533003	0	0	0	0	0	0	0	0	0	0	0	0	0	0	0	0	0	0	0	0	0	0		1	0	0	0	0	0	0	0
011013	10:13:39	10018	Trial3BackFr	NN	4	0	1000	1	119	10:13:39	1534522	0	0	0	0	0	0	0	0	0	0	0	0	0	0	0	0	0	0	0	0	0	0		1	0	0	0	0	0	0	0
011013	10:13:39	10018	Trial3BackFr	NN	4	0	1000	1	119	10:13:39	1536028	0	0	0	0	0	0	0	0	0	0	0	0	0	0	0	0	0	0	0	0	0	0		1	0	0	0	0	0	0	0
011013	10:13:39	10018	Trial3BackFr	NN	4	0	1000	1	119	10:13:39	1537534	0	0	0	0	0	0	0	0	0	0	0	0	0	0	0	0	0	0	0	0	0	0		1	0	0	0	0	0	0	0
011013	10:13:39	10018	Trial3BackFr	NN	4	0	1000	1	119	10:13:39	1539040	0	0	0	0	0	0	0	0	0	0	0	0	0	0	0	0	0	0	0	0	0	0		1	0	0	0	0	0	0	0
011013	10:13:39	10018	Trial3BackFr	YY	4	57	532	1	119	10:13:39	1540093	0	0	0	0	0	0	0	0	0	0	0	0	0	0	0	0	0	0	0	0	0	0		1	0	0	0	0	0	0	0
011013	10:13:39	10018	Trial3BackFr	NN	4	0	1000	1	119	10:13:39	1542053	0	0	0	0	0	0	0	0	0	0	0	0	0	0	0	0	0	0	0	0	0	0		1	0	0	0	0	0	0	0
011013	10:13:39	10018	Trial3BackFr	NN	4	0	1000	1	119	10:13:39	1543572	0	0	0	0	0	0	0	0	0	0	0	0	0	0	0	0	0	0	0	0	0	0		1	0	0	0	0	0	0	0
011013	10:13:39	10018	Trial3BackFr	NN	4	0	1000	1	119	10:13:39	1545078	0	0	0	0	0	0	0	0	0	0	0	0	0	0	0	0	0	0	0	0	0	0		1	0	0	0	0	0	0	0
011013	10:13:39	10018	Trial3BackFr	YY	4	57	622	1	119	10:13:39	1546211	0	0	0	0	0	0	0	0	0	0	0	0	0	0	0	0	0	0	0	0	0	0		1	0	0	0	0	0	0	0
011013	10:13:39	10018	Trial3BackFr	NN	4	0	1000	1	119	10:13:39	1548090	0	0	0	0	0	0	0	0	0	0	0	0	0	0	0	0	0	0	0	0	0	0		1	0	0	0	0	0	0	0
011013	10:13:39	10018	Trial3BackFr	NN	4	0	1000	1	119	10:13:39	1549596	0	0	0	0	0	0	0	0	0	0	0	0	0	0	0	0	0	0	0	0	0	0		1	0	0	0	0	0	0	0
011013	10:13:39	10018	Trial3BackFr	NN	4	0	1000	1	119	10:13:39	1551116	0	0	0	0	0	0	0	0	0	0	0	0	0	0	0	0	0	0	0	0	0	0		1	0	0	0	0	0	0	0
011013	10:13:39	10018	Trial3BackFr	YY	4	57	569	1	119	10:13:39	1552195	0	0	0	0	0	0	0	0	0	0	0	0	0	0	0	0	0	0	0	0	0	0		1	0	0	0	0	0	0	0
011013	10:13:39	10018	Trial3BackFr	NN	4	0	1000	1	119	10:13:39	1554128	0	0	0	0	0	0	0	0	0	0	0	0	0	0	0	0	0	0	0	0	0	0		1	0	0	0	0	0	0	0
011013	10:13:39	10018	Trial3BackFr	NN	4	0	1000	1	119	10:13:39	1555634	0	0	0	0	0	0	0	0	0	0	0	0	0	0	0	0	0	0	0	0	0	0		1	0	0	0	0	0	0	0
011013	10:13:39	10018	Trial3BackFr	NN	4	0	1000	1	119	10:13:39	1557153	0	0	0	0	0	0	0	0	0	0	0	0	0	0	0	0	0	0	0	0	0	0		1	0	0	0	0	0	0	0
011013	10:13:39	10018	Trial3BackFr	NN	4	0	1000	1	119	10:13:39	1558673	0	0	0	0	0	0	0	0	0	0	0	0	0	0	0	0	0	0	0	0	0	0		1	0	0	0	0	0	0	0
011013	10:13:39	10018	Trial3BackFr	NN	4	0	1000	1	119	10:13:39	1560179	0	0	0	0	0	0	0	0	0	0	0	0	0	0	0	0	0	0	0	0	0	0		1	0	0	0	0	0	0	0
011013	10:13:39	10018	Trial3BackFr	NN	4	0	1000	1	119	10:13:39	1561685	0	0	0	0	0	0	0	0	0	0	0	0	0	0	0	0	0	0	0	0	0	0		1	0	0	0	0	0	0	0
011013	10:13:39	10018	Trial3BackFr	NN	4	0	1000	1	119	10:13:39	1563191	0	0	0	0	0	0	0	0	0	0	0	0	0	0	0	0	0	0	0	0	0	0		1	0	0	0	0	0	0	0
011013	10:13:39	10018	Trial3BackFr	NN	4	0	1000	1	119	10:13:39	1564697	0	0	0	0	0	0	0	0	0	0	0	0	0	0	0	0	0	0	0	0	0	0		1	0	0	0	0	0	0	0
011013	10:13:39	10018	Trial3BackFr	NN	4	0	1000	1	119	10:13:39	1566216	0	0	0	0	0	0	0	0	0	0	0	0	0	0	0	0	0	0	0	0	0	0		1	0	0	0	0	0	0	0
011013	10:13:39	10018	Trial3BackFr	NN	4	0	1000	1	119	10:13:39	1567722	0	0	0	0	0	0	0	0	0	0	0	0	0	0	0	0	0	0	0	0	0	0		1	0	0	0	0	0	0	0
011013	10:13:39	10018	Trial3BackFr	YY	4	0	1000	0	119	10:13:39	1569228	0	0	0	0	0	0	0	0	0	0	0	0	0	0	0	0	0	0	0	0	0	0		1	0	0	0	0	0	0	0
011013	10:13:39	10018	Trial3BackFr	NN	4	0	1000	1	119	10:13:39	1570734	0	0	0	0	0	0	0	0	0	0	0	0	0	0	0	0	0	0	0	0	0	0		1	0	0	0	0	0	0	0
011013	10:13:39	10018	Trial3BackFr	NN	4	0	1000	1	119	10:13:39	1572240	0	0	0	0	0	0	0	0	0	0	0	0	0	0	0	0	0	0	0	0	0	0		1	0	0	0	0	0	0	0
011013	10:13:39	10018	Trial3BackFr	NN	4	0	1000	1	119	10:13:39	1573746	0	0	0	0	0	0	0	0	0	0	0	0	0	0	0	0	0	0	0	0	0	0		1	0	0	0	0	0	0	0
011013	10:13:39	10018	Trial3BackFr	NN	4	0	1000	1	119	10:13:39	1575266	0	0	0	0	0	0	0	0	0	0	0	0	0	0	0	0	0	0	0	0	0	0		1	0	0	0	0	0	0	0
011013	10:13:39	10018	Trial3BackFr	YY	4	0	1000	0	119	10:13:39	1576772	0	0	0	0	0	0	0	0	0	0	0	0	0	0	0	0	0	0	0	0	0	0		1	0	0	0	0	0	0	0
011013	10:13:39	10018	Trial3BackFr	NN	4	0	1000	1	119	10:13:39	1578278	0	0	0	0	0	0	0	0	0	0	0	0	0	0	0	0	0	0	0	0	0	0		1	0	0	0	0	0	0	0
011013	10:13:39	10018	Trial3BackFr	NN	4	0	1000	1	119	10:13:39	1579797	0	0	0	0	0	0	0	0	0	0	0	0	0	0	0	0	0	0	0	0	0	0		1	0	0	0	0	0	0	0
011013	10:13:39	10018	Trial3BackFr	NN	4	0	1000	1	119	10:13:39	1581303	0	0	0	0	0	0	0	0	0	0	0	0	0	0	0	0	0	0	0	0	0	0		1	0	0	0	0	0	0	0
011013	10:13:39	10018	Trial3BackFr	NN	4	0	1000	1	119	10:13:39	1582823	0	0	0	0	0	0	0	0	0	0	0	0	0	0	0	0	0	0	0	0	0	0		1	0	0	0	0	0	0	0
011013	10:13:39	10018	Trial3BackFr	NN	4	0	1000	1	119	10:13:39	1584329	0	0	0	0	0	0	0	0	0	0	0	0	0	0	0	0	0	0	0	0	0	0		1	0	0	0	0	0	0	0
011013	10:13:39	10018	Trial3BackFr	YY	4	57	492	1	119	10:13:39	1585342	0	0	0	0	0	0	0	0	0	0	0	0	0	0	0	0	0	0	0	0	0	0		1	0	0	0	0	0	0	0
011013	10:13:39	10018	Trial3BackFr	NN	4	0	1000	1	119	10:13:39	1587341	0	0	0	0	0	0	0	0	0	0	0	0	0	0	0	0	0	0	0	0	0	0		1	0	0	0	0	0	0	0
011013	10:13:39	10018	Trial3BackFr	NN	4	0	1000	1	119	10:13:39	1588847	0	0	0	0	0	0	0	0	0	0	0	0	0	0	0	0	0	0	0	0	0	0		1	0	0	0	0	0	0	0
011013	10:13:39	10018	Trial3BackFr	NN	4	0	1000	1	119	10:13:39	1590353	0	0	0	0	0	0	0	0	0	0	0	0	0	0	0	0	0	0	0	0	0	0		1	0	0	0	0	0	0	0
011013	10:13:39	10018	Trial3BackFr	NN	4	0	1000	1	119	10:13:39	1591859	0	0	0	0	0	0	0	0	0	0	0	0	0	0	0	0	0	0	0	0	0	0		1	0	0	0	0	0	0	0
011013	10:13:39	10018	Trial3BackFr	NN	4	57	848	0	119	10:13:39	1593218	0	0	0	0	0	0	0	0	0	0	0	0	0	0	0	0	0	0	0	0	0	0		1	0	0	0	0	0	0	0
011013	10:13:39	10018	Trial3BackFr	NN	4	0	1000	1	119	10:13:39	1594871	0	0	0	0	0	0	0	0	0	0	0	0	0	0	0	0	0	0	0	0	0	0		1	0	0	0	0	0	0	0
011013	10:13:39	10018	Trial3BackFr	YY	4	0	1000	0	119	10:13:39	1596377	0	0	0	0	0	0	0	0	0	0	0	0	0	0	0	0	0	0	0	0	0	0		1	0	0	0	0	0	0	0
011013	10:13:39	10018	Trial3BackFr	NN	4	0	1000	1	119	10:13:39	1597897	0	0	0	0	0	0	0	0	0	0	0	0	0	0	0	0	0	0	0	0	0	0		1	0	0	0	0	0	0	0
011013	10:13:39	10018	Trial3BackFr	NN	4	0	1000	1	119	10:13:39	1599416	0	0	0	0	0	0	0	0	0	0	0	0	0	0	0	0	0	0	0	0	0	0		1	0	0	0	0	0	0	0
011013	10:13:39	10018	Trial3BackFr	NN	4	0	1000	1	119	10:13:39	1600922	0	0	0	0	0	0	0	0	0	0	0	0	0	0	0	0	0	0	0	0	0	0		1	0	0	0	0	0	0	0
011013	10:13:39	10018	Trial3BackFr	YY	4	0	1000	0	119	10:13:39	1602428	0	0	0	0	0	0	0	0	0	0	0	0	0	0	0	0	0	0	0	0	0	0		1	0	0	0	0	0	0	0
011013	10:13:39	10018	Trial3BackFr	NN	4	0	1000	1	119	10:13:39	1603934	0	0	0	0	0	0	0	0	0	0	0	0	0	0	0	0	0	0	0	0	0	0		1	0	0	0	0	0	0	0
011013	10:13:39	10018	Trial3BackFr	NN	4	0	1000	1	119	10:13:39	1605440	0	0	0	0	0	0	0	0	0	0	0	0	0	0	0	0	0	0	0	0	0	0		1	0	0	0	0	0	0	0
011013	10:13:39	10018	Trial3BackFr	NN	4	0	1000	1	119	10:13:39	1606960	0	0	0	0	0	0	0	0	0	0	0	0	0	0	0	0	0	0	0	0	0	0		1	0	0	0	0	0	0	0
011013	10:13:39	10018	Trial3BackFr	NN	4	0	1000	1	119	10:13:39	1608466	0	0	0	0	0	0	0	0	0	0	0	0	0	0	0	0	0	0	0	0	0	0		1	0	0	0	0	0	0	0
011013	10:13:39	10018	Trial3BackFr	NN	4	0	1000	1	119	10:13:39	1609972	0	0	0	0	0	0	0	0	0	0	0	0	0	0	0	0	0	0	0	0	0	0		1	0	0	0	0	0	0	0
011013	10:13:39	10018	Trial3BackFr	NN	4	0	1000	1	119	10:13:39	1611478	0	0	0	0	0	0	0	0	0	0	0	0	0	0	0	0	0	0	0	0	0	0		1	0	0	0	0	0	0	0
011013	10:13:39	10018	Trial3BackFr	NN	4	0	1000	1	119	10:13:39	1612984	0	0	0	0	0	0	0	0	0	0	0	0	0	0	0	0	0	0	0	0	0	0		1	0	0	0	0	0	0	0
011013	10:13:39	10018	Trial3BackFr	NN	4	0	1000	1	119	10:13:39	1614503	0	0	0	0	0	0	0	0	0	0	0	0	0	0	0	0	0	0	0	0	0	0		1	0	0	0	0	0	0	0
011013	10:13:39	10018	Trial3BackFr	NN	4	0	1000	1	119	10:13:39	1616009	0	0	0	0	0	0	0	0	0	0	0	0	0	0	0	0	0	0	0	0	0	0		1	0	0	0	0	0	0	0
011013	10:13:39	10018	Trial3BackFr	YY	4	57	713	1	119	10:13:39	1617235	0	0	0	0	0	0	0	0	0	0	0	0	0	0	0	0	0	0	0	0	0	0		1	0	0	0	0	0	0	0
011013	10:13:39	10018	Trial3BackFr	NN	4	0	1000	1	119	10:13:39	1619021	0	0	0	0	0	0	0	0	0	0	0	0	0	0	0	0	0	0	0	0	0	0		1	0	0	0	0	0	0	0
011013	10:13:39	10018	Trial3BackFr	NN	4	0	1000	1	119	10:13:39	1620527	0	0	0	0	0	0	0	0	0	0	0	0	0	0	0	0	0	0	0	0	0	0		1	0	0	0	0	0	0	0
011013	10:13:39	10018	Trial3BackFr	NN	4	0	1000	1	119	10:13:39	1622034	0	0	0	0	0	0	0	0	0	0	0	0	0	0	0	0	0	0	0	0	0	0		1	0	0	0	0	0	0	0
011013	10:13:39	10018	Trial3BackFr	YY	4	57	593	1	119	10:13:39	1623140	0	0	0	0	0	0	0	0	0	0	0	0	0	0	0	0	0	0	0	0	0	0		1	0	0	0	0	0	0	0
011013	10:13:39	10018	Trial3BackFr	NN	4	0	1000	1	119	10:13:39	1625046	0	0	0	0	0	0	0	0	0	0	0	0	0	0	0	0	0	0	0	0	0	0		1	0	0	0	0	0	0	0
011013	10:13:39	10018	Trial3BackFr	NN	4	0	1000	1	119	10:13:39	1626552	0	0	0	0	0	0	0	0	0	0	0	0	0	0	0	0	0	0	0	0	0	0		1	0	0	0	0	0	0	0
011013	10:13:39	10018	Trial3BackFr	NN	4	0	1000	1	119	10:13:39	1628058	0	0	0	0	0	0	0	0	0	0	0	0	0	0	0	0	0	0	0	0	0	0		1	0	0	0	0	0	0	0
011013	10:13:39	10018	Trial3BackFr	NN	4	0	1000	1	119	10:13:39	1629577	0	0	0	0	0	0	0	0	0	0	0	0	0	0	0	0	0	0	0	0	0	0		1	0	0	0	0	0	0	0
011013	10:13:39	10018	Trial3BackFr	NN	4	0	1000	1	119	10:13:39	1631097	0	0	0	0	0	0	0	0	0	0	0	0	0	0	0	0	0	0	0	0	0	0		1	0	0	0	0	0	0	0
011013	10:13:39	10018	Trial3BackFr	YY	4	0	1000	0	119	10:13:39	1632603	0	0	0	0	0	0	0	0	0	0	0	0	0	0	0	0	0	0	0	0	0	0		1	0	0	0	0	0	0	0
011013	10:13:39	10018	Trial3BackFr	NN	4	0	1000	1	119	10:13:39	1634109	0	0	0	0	0	0	0	0	0	0	0	0	0	0	0	0	0	0	0	0	0	0		1	0	0	0	0	0	0	0
011013	10:13:39	10018	Trial3BackFr	NN	4	0	1000	1	119	10:13:39	1635615	0	0	0	0	0	0	0	0	0	0	0	0	0	0	0	0	0	0	0	0	0	0		1	0	0	0	0	0	0	0
011013	10:13:39	10018	Trial3BackFr	NN	4	0	1000	1	119	10:13:39	1637121	0	0	0	0	0	0	0	0	0	0	0	0	0	0	0	0	0	0	0	0	0	0		1	0	0	0	0	0	0	0
011013	10:13:39	10018	Trial3BackFr	NN	4	0	1000	1	119	10:13:39	1638640	0	0	0	0	0	0	0	0	0	0	0	0	0	0	0	0	0	0	0	0	0	0		1	0	0	0	0	0	0	0
011013	10:13:39	10018	Trial3BackFr	NN	4	0	1000	1	119	10:13:39	1640146	0	0	0	0	0	0	0	0	0	0	0	0	0	0	0	0	0	0	0	0	0	0		1	0	0	0	0	0	0	0
011013	10:13:39	10018	Trial3BackFr	NN	4	57	656	0	119	10:13:39	1641319	0	0	0	0	0	0	0	0	0	0	0	0	0	0	0	0	0	0	0	0	0	0		1	0	0	0	0	0	0	0
011013	10:13:39	10018	Trial3BackFr	NN	4	0	1000	1	119	10:13:39	1643158	0	0	0	0	0	0	0	0	0	0	0	0	0	0	0	0	0	0	0	0	0	0		1	0	0	0	0	0	0	0
011013	10:13:39	10018	Trial3BackFr	NN	4	0	1000	1	119	10:13:39	1644664	0	0	0	0	0	0	0	0	0	0	0	0	0	0	0	0	0	0	0	0	0	0		1	0	0	0	0	0	0	0
011013	10:13:39	10018	Trial3BackFr	NN	4	0	1000	1	119	10:13:39	1646184	0	0	0	0	0	0	0	0	0	0	0	0	0	0	0	0	0	0	0	0	0	0		1	0	0	0	0	0	0	0
011013	10:13:39	10018	Trial3BackFr	YY	4	57	923	1	119	10:13:39	1647623	0	0	0	0	0	0	0	0	0	0	0	0	0	0	0	0	0	0	0	0	0	0		1	0	0	0	0	0	0	0
011013	10:13:39	10018	Trial3BackFr	NN	4	0	1000	1	119	10:13:39	1649196	0	0	0	0	0	0	0	0	0	0	0	0	0	0	0	0	0	0	0	0	0	0		1	0	0	0	0	0	0	0
011013	10:13:39	10018	Trial3BackFr	NN	4	0	1000	1	119	10:13:39	1650702	0	0	0	0	0	0	0	0	0	0	0	0	0	0	0	0	0	0	0	0	0	0		1	0	0	0	0	0	0	0
011013	10:13:39	10018	Trial3BackFr	NN	4	0	1000	1	119	10:13:39	1652208	0	0	0	0	0	0	0	0	0	0	0	0	0	0	0	0	0	0	0	0	0	0		1	0	0	0	0	0	0	0
011013	10:13:39	10018	Trial3BackFr	NN	4	0	1000	1	119	10:13:39	1653714	0	0	0	0	0	0	0	0	0	0	0	0	0	0	0	0	0	0	0	0	0	0		1	0	0	0	0	0	0	0
011013	10:13:39	10018	Trial3BackFr	NN	4	0	1000	1	119	10:13:39	1655234	0	0	0	0	0	0	0	0	0	0	0	0	0	0	0	0	0	0	0	0	0	0		1	0	0	0	0	0	0	0
011013	10:13:39	10018	Trial3BackFr	NN	4	0	1000	1	119	10:13:39	1656739	0	0	0	0	0	0	0	0	0	0	0	0	0	0	0	0	0	0	0	0	0	0		1	0	0	0	0	0	0	0
011013	10:13:39	10018	Trial3BackFr	NN	4	57	703	0	119	10:13:39	1657952	0	0	0	0	0	0	0	0	0	0	0	0	0	0	0	0	0	0	0	0	0	0		1	0	0	0	0	0	0	0
011013	10:13:39	10018	Trial3BackFr	NN	4	0	1000	1	119	10:13:39	1659752	0	0	0	0	0	0	0	0	0	0	0	0	0	0	0	0	0	0	0	0	0	0		1	0	0	0	0	0	0	0
011013	10:13:39	10018	Trial3BackFr	YY	4	0	1000	0	119	10:13:39	1661271	0	0	0	0	0	0	0	0	0	0	0	0	0	0	0	0	0	0	0	0	0	0		1	0	0	0	0	0	0	0
011013	10:13:39	10018	Trial3BackFr	NN	4	0	1000	1	119	10:13:39	1662777	0	0	0	0	0	0	0	0	0	0	0	0	0	0	0	0	0	0	0	0	0	0		1	0	0	0	0	0	0	0
011013	10:13:39	10018	Trial3BackFr	NN	4	0	1000	1	119	10:13:39	1664283	0	0	0	0	0	0	0	0	0	0	0	0	0	0	0	0	0	0	0	0	0	0		1	0	0	0	0	0	0	0
011013	10:13:39	10018	Trial3BackFr	NN	4	0	1000	1	119	10:13:39	1665789	0	0	0	0	0	0	0	0	0	0	0	0	0	0	0	0	0	0	0	0	0	0		1	0	0	0	0	0	0	0
011013	10:13:39	10018	Trial3BackFr	NN	4	0	1000	1	119	10:13:39	1667295	0	0	0	0	0	0	0	0	0	0	0	0	0	0	0	0	0	0	0	0	0	0		1	0	0	0	0	0	0	0
011013	10:13:39	10018	Trial3BackFr	YY	4	0	1000	0	119	10:13:39	1668815	0	0	0	0	0	0	0	0	0	0	0	0	0	0	0	0	0	0	0	0	0	0		1	0	0	0	0	0	0	0
011013	10:13:39	10018	Trial3BackFr	NN	4	0	1000	1	119	10:13:39	1670321	0	0	0	0	0	0	0	0	0	0	0	0	0	0	0	0	0	0	0	0	0	0		1	0	0	0	0	0	0	0
011013	10:13:39	10018	Trial3BackFr	NN	4	0	1000	1	119	10:13:39	1671827	0	0	0	0	0	0	0	0	0	0	0	0	0	0	0	0	0	0	0	0	0	0		1	0	0	0	0	0	0	0
011013	10:13:39	10018	Trial3BackFr	NN	4	0	1000	1	119	10:13:39	1673333	0	0	0	0	0	0	0	0	0	0	0	0	0	0	0	0	0	0	0	0	0	0		1	0	0	0	0	0	0	0
011013	10:13:39	10018	Trial3BackFr	YY	4	57	605	1	119	10:13:39	1674452	0	0	0	0	0	0	0	0	0	0	0	0	0	0	0	0	0	0	0	0	0	0		1	0	0	0	0	0	0	0
011013	10:13:39	10018	Trial3BackFr	NN	4	0	1000	1	119	10:13:39	1676345	0	0	0	0	0	0	0	0	0	0	0	0	0	0	0	0	0	0	0	0	0	0		1	0	0	0	0	0	0	0
011013	10:13:39	10018	Trial3BackFr	NN	4	0	1000	1	119	10:13:39	1677851	0	0	0	0	0	0	0	0	0	0	0	0	0	0	0	0	0	0	0	0	0	0		1	0	0	0	0	0	0	0
011013	10:13:39	10018	Trial3BackFr	NN	4	0	1000	1	119	10:13:39	1679370	0	0	0	0	0	0	0	0	0	0	0	0	0	0	0	0	0	0	0	0	0	0		1	0	0	0	0	0	0	0
011013	10:13:39	10018	Trial3BackFr	NN	4	57	807	0	119	10:13:39	1680690	0	0	0	0	0	0	0	0	0	0	0	0	0	0	0	0	0	0	0	0	0	0		1	0	0	0	0	0	0	0
011013	10:13:39	10018	Trial3BackFr	NN	4	0	1000	1	119	10:13:39	1682382	0	0	0	0	0	0	0	0	0	0	0	0	0	0	0	0	0	0	0	0	0	0		1	0	0	0	0	0	0	0
011013	10:13:39	10018	Trial3BackFr	YY	4	0	1000	0	119	10:13:39	1683889	0	0	0	0	0	0	0	0	0	0	0	0	0	0	0	0	0	0	0	0	0	0		1	0	0	0	0	0	0	0
011013	10:13:39	10018	Trial3BackFr	NN	4	0	1000	1	119	10:13:39	1685408	0	0	0	0	0	0	0	0	0	0	0	0	0	0	0	0	0	0	0	0	0	0		1	0	0	0	0	0	0	0
011013	10:13:39	10018	Trial3BackFr	NN	4	0	1000	1	119	10:13:39	1686914	0	0	0	0	0	0	0	0	0	0	0	0	0	0	0	0	0	0	0	0	0	0		1	0	0	0	0	0	0	0
011013	10:13:39	10018	Trial3BackFr	NN	4	0	1000	1	119	10:13:39	1688420	0	0	0	0	0	0	0	0	0	0	0	0	0	0	0	0	0	0	0	0	0	0		1	0	0	0	0	0	0	0
011013	10:13:39	10018	Trial3BackFr	YY	4	57	717	1	119	10:13:39	1689646	0	0	0	0	0	0	0	0	0	0	0	0	0	0	0	0	0	0	0	0	0	0		1	0	0	0	0	0	0	0
011013	10:13:39	10018	Memory1R6moFr	ScoreFr	5	M7	19145	0	119	10:13:39	1734628	0	0	0	0	0	0	0	0	0	0	0	0	0	0	0	0	0	0	0	0	0	0		1	0	0	0	0	0	0	0
011013	10:13:39	10018	Memory1R6moFr	ScoreFr	5	M8	265	0	119	10:13:39	1734948	0	0	0	0	0	0	0	0	0	0	0	0	0	0	0	0	0	0	0	0	0	0		1	0	0	0	0	0	0	0
011013	10:13:39	10018	Memory1R6moFr	ScoreFr	5	M5	577	0	119	10:13:39	1735575	0	0	0	0	0	0	0	0	0	0	0	0	0	0	0	0	0	0	0	0	0	0		1	0	0	0	0	0	0	0
011013	10:13:39	10018	Memory1R6moFr	ScoreFr	5	M4	471	0	119	10:13:39	1736094	0	0	0	0	0	0	0	0	0	0	0	0	0	0	0	0	0	0	0	0	0	0		1	0	0	0	0	0	0	0
011013	10:13:39	10018	Memory1R6moFr	ScoreFr	5	M3	1846	0	119	10:13:39	1737987	0	0	0	0	0	0	0	0	0	0	0	0	0	0	0	0	0	0	0	0	0	0		1	0	0	0	0	0	0	0
011013	10:13:39	10018	Memory1R6moFr	ScoreFr	5	M1	346	0	119	10:13:39	1738387	0	0	0	0	0	0	0	0	0	0	0	0	0	0	0	0	0	0	0	0	0	0		1	0	0	0	0	0	0	0
011013	10:13:39	10018	Memory1R6moFr	ScoreFr	5	M2	386	0	119	10:13:39	1738826	0	0	0	0	0	0	0	0	0	0	0	0	0	0	0	0	0	0	0	0	0	0		1	0	0	0	0	0	0	0
011013	10:13:39	10018	Memory1R6moFr	ScoreFr	5	Done	20090	0	119	10:13:39	1758965	0	0	0	0	0	0	0	0	0	0	0	0	0	0	0	0	0	0	0	0	0	0		1	0	0	0	0	0	0	0
011013	10:13:39	10018	Memory2R6moFr	ScoreFr2	5	11	24281	0	119	10:13:39	1801868	0	0	0	0	0	0	0	0	0	0	0	0	0	0	0	0	0	0	0	0	0	0		1	0	0	0	0	0	0	0
011013	10:13:39	10018	Memory2R6moFr	ScoreFr2	5	22	248	0	119	10:13:39	1802161	0	0	0	0	0	0	0	0	0	0	0	0	0	0	0	0	0	0	0	0	0	0		1	0	0	0	0	0	0	0
011013	10:13:39	10018	Memory2R6moFr	ScoreFr2	5	33	786	0	119	10:13:39	1803000	0	0	0	0	0	0	0	0	0	0	0	0	0	0	0	0	0	0	0	0	0	0		1	0	0	0	0	0	0	0
011013	10:13:39	10018	Memory2R6moFr	ScoreFr2	5	44	347	0	119	10:13:39	1803400	0	0	0	0	0	0	0	0	0	0	0	0	0	0	0	0	0	0	0	0	0	0		1	0	0	0	0	0	0	0
011013	10:13:39	10018	Memory2R6moFr	ScoreFr2	5	55	467	0	119	10:13:39	1803920	0	0	0	0	0	0	0	0	0	0	0	0	0	0	0	0	0	0	0	0	0	0		1	0	0	0	0	0	0	0
011013	10:13:39	10018	Memory2R6moFr	ScoreFr2	5	66	2123	0	119	10:13:39	1806093	0	0	0	0	0	0	0	0	0	0	0	0	0	0	0	0	0	0	0	0	0	0		1	0	0	0	0	0	0	0
011013	10:13:39	10018	Memory2R6moFr	ScoreFr2	5	77	431	0	119	10:13:39	1806572	0	0	0	0	0	0	0	0	0	0	0	0	0	0	0	0	0	0	0	0	0	0		1	0	0	0	0	0	0	0
011013	10:13:39	10018	Memory2R6moFr	ScoreFr2	5	Done	20143	0	119	10:13:39	1826764	0	0	0	0	0	0	0	0	0	0	0	0	0	0	0	0	0	0	0	0	0	0		1	0	0	0	0	0	0	0
011013	10:13:39	10018	Memory3R6moFr	ScoreFr3	5	111	15829	0	119	10:13:39	1861190	0	0	0	0	0	0	0	0	0	0	0	0	0	0	0	0	0	0	0	0	0	0		1	0	0	0	0	0	0	0
011013	10:13:39	10018	Memory3R6moFr	ScoreFr3	5	222	292	0	119	10:13:39	1861537	0	0	0	0	0	0	0	0	0	0	0	0	0	0	0	0	0	0	0	0	0	0		1	0	0	0	0	0	0	0
011013	10:13:39	10018	Memory3R6moFr	ScoreFr3	5	444	537	0	119	10:13:39	1862123	0	0	0	0	0	0	0	0	0	0	0	0	0	0	0	0	0	0	0	0	0	0		1	0	0	0	0	0	0	0
011013	10:13:39	10018	Memory3R6moFr	ScoreFr3	5	555	255	0	119	10:13:39	1862430	0	0	0	0	0	0	0	0	0	0	0	0	0	0	0	0	0	0	0	0	0	0		1	0	0	0	0	0	0	0
011013	10:13:39	10018	Memory3R6moFr	ScoreFr3	5	666	292	0	119	10:13:39	1862776	0	0	0	0	0	0	0	0	0	0	0	0	0	0	0	0	0	0	0	0	0	0		1	0	0	0	0	0	0	0
011013	10:13:39	10018	Memory3R6moFr	ScoreFr3	5	777	290	0	119	10:13:39	1863109	0	0	0	0	0	0	0	0	0	0	0	0	0	0	0	0	0	0	0	0	0	0		1	0	0	0	0	0	0	0
011013	10:13:39	10018	Memory3R6moFr	ScoreFr3	5	888	300	0	119	10:13:39	1863456	0	0	0	0	0	0	0	0	0	0	0	0	0	0	0	0	0	0	0	0	0	0		1	0	0	0	0	0	0	0
011013	10:13:39	10018	Memory3R6moFr	ScoreFr3	5	333	3042	0	119	10:13:39	1866548	0	0	0	0	0	0	0	0	0	0	0	0	0	0	0	0	0	0	0	0	0	0		1	0	0	0	0	0	0	0
011013	10:13:39	10018	Memory3R6moFr	ScoreFr3	5	Done	702	0	119	10:13:39	1867294	0	0	0	0	0	0	0	0	0	0	0	0	0	0	0	0	0	0	0	0	0	0		1	0	0	0	0	0	0	0
011013	10:13:39	10018	LoriaFrLH3	Stop	6	6	5451	0	119	10:13:39	1945105	0	0	0	0	0	0	0	0	0	0	0	0	0	0	0	0	0	0	0	0	0	0		1	0	0	0	0	0	0	0
011013	10:13:39	10018	FrTrail	Trails	7	1Trails	1310	0	119	10:13:39	1979969	0	0	0	0	0	0	0	0	0	0	0	0	0	0	0	0	0	0	0	0	0	0		1	0	0	0	0	0	0	0
011013	10:13:39	10018	Serial7Fr6mo	Serial7Fr6mo	8	73	11523	0	119	10:13:39	2017489	1	0	0	0	0	0	0	0	0	0	0	0	0	0	0	0	0	0	0	0	0	0		1	0	0	0	0	0	0	0
011013	10:13:39	10018	Serial7Fr6mo	Serial7Fr6mo	8	64	3176	0	119	10:13:39	2020688	1	0	0	0	0	0	0	0	0	0	0	0	0	0	0	0	0	0	0	0	0	0		1	0	0	0	0	0	0	0
011013	10:13:39	10018	Serial7Fr6mo	Serial7Fr6mo	8	56	3986	0	119	10:13:39	2024700	1	0	0	0	0	0	0	0	0	0	0	0	0	0	0	0	0	0	0	0	0	0		1	0	0	0	0	0	0	0
011013	10:13:39	10018	Serial7Fr6mo	Serial7Fr6mo	8	49	4597	0	119	10:13:39	2029325	2	0	0	0	0	0	0	0	0	0	0	0	0	0	0	0	0	0	0	0	0	0		1	0	0	0	0	0	0	0
011013	10:13:39	10018	Serial7Fr6mo	Serial7Fr6mo	8	42	2284	0	119	10:13:39	2031631	3	0	0	0	0	0	0	0	0	0	0	0	0	0	0	0	0	0	0	0	0	0		1	0	0	0	0	0	0	0
011013	10:13:39	10018	corsiblockFrFwrd	recallseqFrFwrd	9	5	1781	0	119	10:13:39	2050517	3	0	0	0	0	0	0	0	0	0	0	0	0	0	0	0	0	0	0	0	0	0		1	0	0	0	0	0	0	0
011013	10:13:39	10018	corsiblockFrFwrd	recallseqFrFwrd	9	3	947	0	119	10:13:39	2051516	3	0	0	0	0	0	0	0	0	0	0	0	0	0	0	0	0	0	0	0	0	0		1	0	0	0	0	0	0	0
011013	10:13:39	10018	corsiblockFrFwrd	recallseqFrFwrd	9	doneCorsiFr	3316	0	119	10:13:39	2054888	3	0	0	0	0	0	0	0	0	0	0	0	0	0	0	2	0	0	0	0	0	0		1	0	0	0	0	0	0	0
011013	10:13:39	10018	corsiblockFrFwrd	recallseqFrFwrd	9	7	1098	0	119	10:13:39	2062112	3	0	0	0	0	0	0	0	0	0	0	0	0	0	0	2	0	0	0	0	0	0		1	0	0	0	0	0	0	0
011013	10:13:39	10018	corsiblockFrFwrd	recallseqFrFwrd	9	2	944	0	119	10:13:39	2063112	3	0	0	0	0	0	0	0	0	0	0	0	0	0	0	2	0	0	0	0	0	0		1	0	0	0	0	0	0	0
011013	10:13:39	10018	corsiblockFrFwrd	recallseqFrFwrd	9	8	816	0	119	10:13:39	2063978	3	0	0	0	0	0	0	0	0	0	0	0	0	0	0	2	0	0	0	0	0	0		1	0	0	0	0	0	0	0
011013	10:13:39	10018	corsiblockFrFwrd	recallseqFrFwrd	9	doneCorsiFr	1246	0	119	10:13:39	2065271	3	0	0	0	0	0	0	0	0	0	0	0	0	0	0	3	0	0	0	0	0	0		1	0	0	0	0	0	0	0
011013	10:13:39	10018	corsiblockFrFwrd	recallseqFrFwrd	9	9	996	0	119	10:13:39	2073387	3	0	0	0	0	0	0	0	0	0	0	0	0	0	0	3	0	0	0	0	0	0		1	0	0	0	0	0	0	0
011013	10:13:39	10018	corsiblockFrFwrd	recallseqFrFwrd	9	6	1996	0	119	10:13:39	2075440	3	0	0	0	0	0	0	0	0	0	0	0	0	0	0	3	0	0	0	0	0	0		1	0	0	0	0	0	0	0
011013	10:13:39	10018	corsiblockFrFwrd	recallseqFrFwrd	9	1	840	0	119	10:13:39	2076333	3	0	0	0	0	0	0	0	0	0	0	0	0	0	0	3	0	0	0	0	0	0		1	0	0	0	0	0	0	0
011013	10:13:39	10018	corsiblockFrFwrd	recallseqFrFwrd	9	4	867	0	119	10:13:39	2077253	3	0	0	0	0	0	0	0	0	0	0	0	0	0	0	3	0	0	0	0	0	0		1	0	0	0	0	0	0	0
011013	10:13:39	10018	corsiblockFrFwrd	recallseqFrFwrd	9	doneCorsiFr	1323	0	119	10:13:39	2078625	3	0	0	0	0	0	0	0	0	0	0	0	0	0	0	4	0	0	0	0	0	0		1	0	0	0	0	0	0	0
011013	10:13:39	10018	corsiblockFrFwrd	recallseqFrFwrd	9	9	1809	0	119	10:13:39	2088568	3	0	0	0	0	0	0	0	0	0	0	0	0	0	0	4	0	0	0	0	0	0		1	0	0	0	0	0	0	0
011013	10:13:39	10018	corsiblockFrFwrd	recallseqFrFwrd	9	4	2247	0	119	10:13:39	2090861	3	0	0	0	0	0	0	0	0	0	0	0	0	0	0	4	0	0	0	0	0	0		1	0	0	0	0	0	0	0
011013	10:13:39	10018	corsiblockFrFwrd	recallseqFrFwrd	9	3	907	0	119	10:13:39	2091820	3	0	0	0	0	0	0	0	0	0	0	0	0	0	0	4	0	0	0	0	0	0		1	0	0	0	0	0	0	0
011013	10:13:39	10018	corsiblockFrFwrd	recallseqFrFwrd	9	7	1019	0	119	10:13:39	2092886	3	0	0	0	0	0	0	0	0	0	0	0	0	0	0	4	0	0	0	0	0	0		1	0	0	0	0	0	0	0
011013	10:13:39	10018	corsiblockFrFwrd	recallseqFrFwrd	9	2	840	0	119	10:13:39	2093779	3	0	0	0	0	0	0	0	0	0	0	0	0	0	0	4	0	0	0	0	0	0		1	0	0	0	0	0	0	0
011013	10:13:39	10018	corsiblockFrFwrd	recallseqFrFwrd	9	doneCorsiFr	1756	0	119	10:13:39	2095592	3	0	0	0	0	0	0	0	0	0	0	0	0	0	0	4	0	0	0	0	0	0		1	0	0	0	0	0	0	0
011013	10:13:39	10018	corsiblockFrFwrd	recallseqFrFwrd	9	9	1554	0	119	10:13:39	2105228	3	0	0	0	0	0	0	0	0	0	0	0	0	0	0	4	0	0	0	0	0	0		1	0	0	0	0	0	0	0
011013	10:13:39	10018	corsiblockFrFwrd	recallseqFrFwrd	9	8	763	0	119	10:13:39	2106041	3	0	0	0	0	0	0	0	0	0	0	0	0	0	0	4	0	0	0	0	0	0		1	0	0	0	0	0	0	0
011013	10:13:39	10018	corsiblockFrFwrd	recallseqFrFwrd	9	6	758	0	119	10:13:39	2106854	3	0	0	0	0	0	0	0	0	0	0	0	0	0	0	4	0	0	0	0	0	0		1	0	0	0	0	0	0	0
011013	10:13:39	10018	corsiblockFrFwrd	recallseqFrFwrd	9	1	969	0	119	10:13:39	2107867	3	0	0	0	0	0	0	0	0	0	0	0	0	0	0	4	0	0	0	0	0	0		1	0	0	0	0	0	0	0
011013	10:13:39	10018	corsiblockFrFwrd	recallseqFrFwrd	9	2	660	0	119	10:13:39	2108573	3	0	0	0	0	0	0	0	0	0	0	0	0	0	0	4	0	0	0	0	0	0		1	0	0	0	0	0	0	0
011013	10:13:39	10018	corsiblockFrFwrd	recallseqFrFwrd	9	doneCorsiFr	2385	0	119	10:13:39	2111012	3	0	0	0	0	0	0	0	0	0	0	0	0	0	0	4	0	0	0	0	0	0		1	0	0	0	0	0	0	0
011013	10:13:39	10018	corsiblockFrRev	recallseqFrRev	10	1	2170	0	119	10:13:39	2125007	3	0	0	0	0	0	0	0	0	0	0	0	0	0	0	4	0	0	0	0	0	0		1	0	0	0	0	0	0	0
011013	10:13:39	10018	corsiblockFrRev	recallseqFrRev	10	9	1056	0	119	10:13:39	2126113	3	0	0	0	0	0	0	0	0	0	0	0	0	0	0	4	0	0	0	0	0	0		1	0	0	0	0	0	0	0
011013	10:13:39	10018	corsiblockFrRev	recallseqFrRev	10	doneCorsiFr	1502	0	119	10:13:39	2127659	3	0	0	0	0	0	0	0	0	0	0	0	0	0	0	4	2	0	0	0	0	0		1	0	0	0	0	0	0	0
011013	10:13:39	10018	corsiblockFrRev	recallseqFrRev	10	7	2878	0	119	10:13:39	2136668	3	0	0	0	0	0	0	0	0	0	0	0	0	0	0	4	2	0	0	0	0	0		1	0	0	0	0	0	0	0
011013	10:13:39	10018	corsiblockFrRev	recallseqFrRev	10	5	810	0	119	10:13:39	2137535	3	0	0	0	0	0	0	0	0	0	0	0	0	0	0	4	2	0	0	0	0	0		1	0	0	0	0	0	0	0
011013	10:13:39	10018	corsiblockFrRev	recallseqFrRev	10	3	807	0	119	10:13:39	2138388	3	0	0	0	0	0	0	0	0	0	0	0	0	0	0	4	2	0	0	0	0	0		1	0	0	0	0	0	0	0
011013	10:13:39	10018	corsiblockFrRev	recallseqFrRev	10	doneCorsiFr	1042	0	119	10:13:39	2139481	3	0	0	0	0	0	0	0	0	0	0	0	0	0	0	4	3	0	0	0	0	0		1	0	0	0	0	0	0	0
011013	10:13:39	10018	corsiblockFrRev	recallseqFrRev	10	8	1355	0	119	10:13:39	2147971	3	0	0	0	0	0	0	0	0	0	0	0	0	0	0	4	3	0	0	0	0	0		1	0	0	0	0	0	0	0
011013	10:13:39	10018	corsiblockFrRev	recallseqFrRev	10	2	939	0	119	10:13:39	2148957	3	0	0	0	0	0	0	0	0	0	0	0	0	0	0	4	3	0	0	0	0	0		1	0	0	0	0	0	0	0
011013	10:13:39	10018	corsiblockFrRev	recallseqFrRev	10	4	641	0	119	10:13:39	2149650	3	0	0	0	0	0	0	0	0	0	0	0	0	0	0	4	3	0	0	0	0	0		1	0	0	0	0	0	0	0
011013	10:13:39	10018	corsiblockFrRev	recallseqFrRev	10	6	612	0	119	10:13:39	2150316	3	0	0	0	0	0	0	0	0	0	0	0	0	0	0	4	3	0	0	0	0	0		1	0	0	0	0	0	0	0
011013	10:13:39	10018	corsiblockFrRev	recallseqFrRev	10	doneCorsiFr	1050	0	119	10:13:39	2151423	3	0	0	0	0	0	0	0	0	0	0	0	0	0	0	4	3	0	0	0	0	0		1	0	0	0	0	0	0	0
011013	10:13:39	10018	corsiblockFrRev	recallseqFrRev	10	3	1727	0	119	10:13:39	2160219	3	0	0	0	0	0	0	0	0	0	0	0	0	0	0	4	3	0	0	0	0	0		1	0	0	0	0	0	0	0
011013	10:13:39	10018	corsiblockFrRev	recallseqFrRev	10	5	787	0	119	10:13:39	2161059	3	0	0	0	0	0	0	0	0	0	0	0	0	0	0	4	3	0	0	0	0	0		1	0	0	0	0	0	0	0
011013	10:13:39	10018	corsiblockFrRev	recallseqFrRev	10	2	851	0	119	10:13:39	2161965	3	0	0	0	0	0	0	0	0	0	0	0	0	0	0	4	3	0	0	0	0	0		1	0	0	0	0	0	0	0
011013	10:13:39	10018	corsiblockFrRev	recallseqFrRev	10	8	865	0	119	10:13:39	2162885	3	0	0	0	0	0	0	0	0	0	0	0	0	0	0	4	3	0	0	0	0	0		1	0	0	0	0	0	0	0
011013	10:13:39	10018	corsiblockFrRev	recallseqFrRev	10	doneCorsiFr	881	0	119	10:13:39	2163818	3	0	0	0	0	0	0	0	0	0	0	0	0	0	0	4	4	0	0	0	0	0		1	0	0	0	0	0	0	0
011013	10:13:39	10018	corsiblockFrRev	recallseqFrRev	10	7	1348	0	119	10:13:39	2172281	3	0	0	0	0	0	0	0	0	0	0	0	0	0	0	4	4	0	0	0	0	0		1	0	0	0	0	0	0	0
011013	10:13:39	10018	corsiblockFrRev	recallseqFrRev	10	1	1045	0	119	10:13:39	2173374	3	0	0	0	0	0	0	0	0	0	0	0	0	0	0	4	4	0	0	0	0	0		1	0	0	0	0	0	0	0
011013	10:13:39	10018	corsiblockFrRev	recallseqFrRev	10	6	1176	0	119	10:13:39	2174600	3	0	0	0	0	0	0	0	0	0	0	0	0	0	0	4	4	0	0	0	0	0		1	0	0	0	0	0	0	0
011013	10:13:39	10018	corsiblockFrRev	recallseqFrRev	10	4	781	0	119	10:13:39	2175426	3	0	0	0	0	0	0	0	0	0	0	0	0	0	0	4	4	0	0	0	0	0		1	0	0	0	0	0	0	0
011013	10:13:39	10018	corsiblockFrRev	recallseqFrRev	10	9	915	0	119	10:13:39	2176386	3	0	0	0	0	0	0	0	0	0	0	0	0	0	0	4	4	0	0	0	0	0		1	0	0	0	0	0	0	0
011013	10:13:39	10018	corsiblockFrRev	recallseqFrRev	10	doneCorsiFr	1611	0	119	10:13:39	2178052	3	0	0	0	0	0	0	0	0	0	0	0	0	0	0	4	5	0	0	0	0	0		1	0	0	0	0	0	0	0
011013	10:13:39	10018	corsiblockFrRev	recallseqFrRev	10	2	1461	0	119	10:13:39	2188634	3	0	0	0	0	0	0	0	0	0	0	0	0	0	0	4	5	0	0	0	0	0		1	0	0	0	0	0	0	0
011013	10:13:39	10018	corsiblockFrRev	recallseqFrRev	10	4	1299	0	119	10:13:39	2189980	3	0	0	0	0	0	0	0	0	0	0	0	0	0	0	4	5	0	0	0	0	0		1	0	0	0	0	0	0	0
011013	10:13:39	10018	corsiblockFrRev	recallseqFrRev	10	3	1521	0	119	10:13:39	2191554	3	0	0	0	0	0	0	0	0	0	0	0	0	0	0	4	5	0	0	0	0	0		1	0	0	0	0	0	0	0
011013	10:13:39	10018	corsiblockFrRev	recallseqFrRev	10	1	1116	0	119	10:13:39	2192726	3	0	0	0	0	0	0	0	0	0	0	0	0	0	0	4	5	0	0	0	0	0		1	0	0	0	0	0	0	0
011013	10:13:39	10018	corsiblockFrRev	recallseqFrRev	10	5	1111	0	119	10:13:39	2193885	3	0	0	0	0	0	0	0	0	0	0	0	0	0	0	4	5	0	0	0	0	0		1	0	0	0	0	0	0	0
011013	10:13:39	10018	corsiblockFrRev	recallseqFrRev	10	6	935	0	119	10:13:39	2194872	3	0	0	0	0	0	0	0	0	0	0	0	0	0	0	4	5	0	0	0	0	0		1	0	0	0	0	0	0	0
011013	10:13:39	10018	corsiblockFrRev	recallseqFrRev	10	7	877	0	119	10:13:39	2195805	3	0	0	0	0	0	0	0	0	0	0	0	0	0	0	4	5	0	0	0	0	0		1	0	0	0	0	0	0	0
011013	10:13:39	10018	corsiblockFrRev	recallseqFrRev	10	doneCorsiFr	1144	0	119	10:13:39	2197004	3	0	0	0	0	0	0	0	0	0	0	0	0	0	0	4	5	0	0	0	0	0		1	0	0	0	0	0	0	0
011013	10:13:39	10018	corsiblockFrRev	recallseqFrRev	10	7	2540	0	119	10:13:39	2208626	3	0	0	0	0	0	0	0	0	0	0	0	0	0	0	4	5	0	0	0	0	0		1	0	0	0	0	0	0	0
011013	10:13:39	10018	corsiblockFrRev	recallseqFrRev	10	2	4010	0	119	10:13:39	2212691	3	0	0	0	0	0	0	0	0	0	0	0	0	0	0	4	5	0	0	0	0	0		1	0	0	0	0	0	0	0
011013	10:13:39	10018	corsiblockFrRev	recallseqFrRev	10	9	2289	0	119	10:13:39	2215037	3	0	0	0	0	0	0	0	0	0	0	0	0	0	0	4	5	0	0	0	0	0		1	0	0	0	0	0	0	0
011013	10:13:39	10018	corsiblockFrRev	recallseqFrRev	10	7	1648	0	119	10:13:39	2216730	3	0	0	0	0	0	0	0	0	0	0	0	0	0	0	4	5	0	0	0	0	0		1	0	0	0	0	0	0	0
011013	10:13:39	10018	corsiblockFrRev	recallseqFrRev	10	8	1435	0	119	10:13:39	2218209	3	0	0	0	0	0	0	0	0	0	0	0	0	0	0	4	5	0	0	0	0	0		1	0	0	0	0	0	0	0
011013	10:13:39	10018	corsiblockFrRev	recallseqFrRev	10	5	1092	0	119	10:13:39	2219355	3	0	0	0	0	0	0	0	0	0	0	0	0	0	0	4	5	0	0	0	0	0		1	0	0	0	0	0	0	0
011013	10:13:39	10018	corsiblockFrRev	recallseqFrRev	10	doneCorsiFr	1180	0	119	10:13:39	2220581	3	0	0	0	0	0	0	0	0	0	0	0	0	0	0	4	5	0	0	0	0	0		1	0	0	0	0	0	0	0
011013	10:13:39	10018	testFr6mo	WordsFr6mo	11	6Fr6mo	34607	0	119	10:13:39	2265417	3	0	0	0	0	0	3	0	0	0	0	0	0	0	0	4	5	0	0	0	0	0		1	0	0	0	0	0	0	0
011013	10:13:39	10018	testFr6mo	WordsFr6mo	11	5Fr6mo	227	0	119	10:13:39	2265697	3	0	0	0	0	3	3	0	0	0	0	0	0	0	0	4	5	0	0	0	0	0		1	0	0	0	0	0	0	0
011013	10:13:39	10018	testFr6mo	WordsFr6mo	11	4Fr6mo	275	0	119	10:13:39	2266017	3	0	0	0	3	3	3	0	0	0	0	0	0	0	0	4	5	0	0	0	0	0		1	0	0	0	0	0	0	0
011013	10:13:39	10018	testFr6mo	WordsFr6mo	11	3Fr6mo	283	0	119	10:13:39	2266350	3	0	0	3	3	3	3	0	0	0	0	0	0	0	0	4	5	0	0	0	0	0		1	0	0	0	0	0	0	0
011013	10:13:39	10018	testFr6mo	WordsFr6mo	11	2Fr6mo	246	0	119	10:13:39	2266643	3	0	3	3	3	3	3	0	0	0	0	0	0	0	0	4	5	0	0	0	0	0		1	0	0	0	0	0	0	0
011013	10:13:39	10018	testFr6mo	WordsFr6mo	11	1Fr6mo	249	0	119	10:13:39	2266936	3	3	3	3	3	3	3	0	0	0	0	0	0	0	0	4	5	0	0	0	0	0		1	0	0	0	0	0	0	0
011013	10:13:39	10018	testFr6mo	WordsFr6mo	11	8Fr6mo	13134	0	119	10:13:39	2280131	3	3	3	3	3	3	3	0	3	0	0	0	0	0	0	4	5	0	0	0	0	0		1	0	0	0	0	0	0	0
011013	10:13:39	10018	testFr6mo	WordsFr6mo	11	DoneFr6mo	10089	0	119	10:13:39	2290273	3	3	3	3	3	3	3	0	3	0	0	0	0	0	0	4	5	0	0	0	0	0		1	0	0	0	0	0	0	0
011013	10:13:39	10018	testFr6mo	Cat7Fr6mo	11	R7Fr6mo	14706	0	119	10:13:39	2305027	3	3	3	3	3	3	3	2	3	0	0	0	0	0	0	4	5	0	0	0	0	0		1	0	0	0	0	0	0	0
011013	10:13:39	10018	DigitSpanFwrdFr6mo	Score1FwrdFr6mo	12	DS1	5019	0	119	10:13:39	2331536	3	3	3	3	3	3	3	2	3	0	0	0	0	0	0	4	5	0	0	0	0	0		1	0	0	0	0	0	0	0
011013	10:13:39	10018	DigitSpanFwrdFr6mo	Gate1FwrdFr6mo	12	0	1	0	119	10:13:39	2331541	3	3	3	3	3	3	3	2	3	3	0	0	0	0	0	4	5	0	0	0	0	0		1	0	0	0	0	0	0	0
011013	10:13:39	10018	DigitSpanFwrdFr6mo	Score2FwrdFr6mo	12	DS1	3506	0	119	10:13:39	2341359	3	3	3	3	3	3	3	2	3	3	0	0	0	0	0	4	5	0	0	0	0	0		1	0	0	0	0	0	0	0
011013	10:13:39	10018	DigitSpanFwrdFr6mo	Gate3FwrdFr6mo	12	0	1	0	119	10:13:39	2341365	3	3	3	3	3	3	3	2	3	4	0	0	0	0	0	4	5	0	0	0	0	0		1	0	0	0	0	0	0	0
011013	10:13:39	10018	DigitSpanFwrdFr6mo	Score3FwrdFr6mo	12	DS1	3508	0	119	10:13:39	2352101	3	3	3	3	3	3	3	2	3	4	0	0	0	0	0	4	5	0	0	0	0	0		1	0	0	0	0	0	0	0
011013	10:13:39	10018	DigitSpanFwrdFr6mo	Gate5FwrdFr6mo	12	0	1	0	119	10:13:39	2352106	3	3	3	3	3	3	3	2	3	5	0	0	0	0	0	4	5	0	0	0	0	0		1	0	0	0	0	0	0	0
011013	10:13:39	10018	DigitSpanFwrdFr6mo	Score4FwrdFr6mo	12	DS1	3478	0	119	10:13:39	2364096	3	3	3	3	3	3	3	2	3	5	0	0	0	0	0	4	5	0	0	0	0	0		1	0	0	0	0	0	0	0
011013	10:13:39	10018	DigitSpanFwrdFr6mo	Gate7FwrdFr6mo	12	0	1	0	119	10:13:39	2364101	3	3	3	3	3	3	3	2	3	6	0	0	0	0	0	4	5	0	0	0	0	0		1	0	0	0	0	0	0	0
011013	10:13:39	10018	DigitSpanFwrdFr6mo	Score5FwrdFr6mo	12	DS1	3891	0	119	10:13:39	2377944	3	3	3	3	3	3	3	2	3	6	0	0	0	0	0	4	5	0	0	0	0	0		1	0	0	0	0	0	0	0
011013	10:13:39	10018	DigitSpanFwrdFr6mo	Gate9FwrdFr6mo	12	0	1	0	119	10:13:39	2377949	3	3	3	3	3	3	3	2	3	7	0	0	0	0	0	4	5	0	0	0	0	0		1	0	0	0	0	0	0	0
011013	10:13:39	10018	DigitSpanFwrdFr6mo	Score6FwrdFr6mo	12	DS2	7539	0	119	10:13:39	2396590	3	3	3	3	3	3	3	2	3	7	0	0	0	0	0	4	5	0	0	0	0	0		1	0	0	0	0	0	0	0
011013	10:13:39	10018	DigitSpanFwrdFr6mo	Gate11FwrdFr6mo	12	0	1	0	119	10:13:39	2396594	3	3	3	3	3	3	3	2	3	7	0	0	0	0	0	4	5	0	0	0	0	0		1	0	0	0	0	0	0	0
011013	10:13:39	10018	DigitSpanFwrdFr6mo	Score66FwrdFr6mo	12	DS2	10287	0	119	10:13:39	2417848	3	3	3	3	3	3	3	2	3	7	0	0	0	0	0	4	5	0	0	0	0	0		1	0	0	0	0	0	0	0
011013	10:13:39	10018	DigitSpanFr6mo	Score1Fr6mo	13	DS1	2896	0	119	10:13:39	2466961	3	3	3	3	3	3	3	2	3	7	0	0	0	0	0	4	5	0	0	0	0	0		1	0	0	0	0	0	0	0
011013	10:13:39	10018	DigitSpanFr6mo	Gate1Fr6mo	13	0	1	0	119	10:13:39	2466966	3	3	3	3	3	3	3	2	3	7	2	0	0	0	0	4	5	0	0	0	0	0		1	0	0	0	0	0	0	0
011013	10:13:39	10018	DigitSpanFr6mo	Score2Fr6mo	13	DS1	3128	0	119	10:13:39	2474652	3	3	3	3	3	3	3	2	3	7	2	0	0	0	0	4	5	0	0	0	0	0		1	0	0	0	0	0	0	0
011013	10:13:39	10018	DigitSpanFr6mo	Gate3Fr6mo	13	0	1	0	119	10:13:39	2474656	3	3	3	3	3	3	3	2	3	7	3	0	0	0	0	4	5	0	0	0	0	0		1	0	0	0	0	0	0	0
011013	10:13:39	10018	DigitSpanFr6mo	Score3Fr6mo	13	DS1	6441	0	119	10:13:39	2486793	3	3	3	3	3	3	3	2	3	7	3	0	0	0	0	4	5	0	0	0	0	0		1	0	0	0	0	0	0	0
011013	10:13:39	10018	DigitSpanFr6mo	Gate5Fr6mo	13	0	1	0	119	10:13:39	2486798	3	3	3	3	3	3	3	2	3	7	4	0	0	0	0	4	5	0	0	0	0	0		1	0	0	0	0	0	0	0
011013	10:13:39	10018	DigitSpanFr6mo	Score4Fr6mo	13	DS1	12099	0	119	10:13:39	2505825	3	3	3	3	3	3	3	2	3	7	4	0	0	0	0	4	5	0	0	0	0	0		1	0	0	0	0	0	0	0
011013	10:13:39	10018	DigitSpanFr6mo	Gate7Fr6mo	13	0	1	0	119	10:13:39	2505830	3	3	3	3	3	3	3	2	3	7	5	0	0	0	0	4	5	0	0	0	0	0		1	0	0	0	0	0	0	0
011013	10:13:39	10018	DigitSpanFr6mo	Score5Fr6mo	13	DS1	9477	0	119	10:13:39	2523778	3	3	3	3	3	3	3	2	3	7	5	0	0	0	0	4	5	0	0	0	0	0		1	0	0	0	0	0	0	0
011013	10:13:39	10018	DigitSpanFr6mo	Gate9Fr6mo	13	0	1	0	119	10:13:39	2523783	3	3	3	3	3	3	3	2	3	7	6	0	0	0	0	4	5	0	0	0	0	0		1	0	0	0	0	0	0	0
011013	10:13:39	10018	DigitSpanFr6mo	Score6Fr6mo	13	DS2	9709	0	119	10:13:39	2543237	3	3	3	3	3	3	3	2	3	7	6	0	0	0	0	4	5	0	0	0	0	0		1	0	0	0	0	0	0	0
011013	10:13:39	10018	DigitSpanFr6mo	Gate11Fr6mo	13	0	1	0	119	10:13:39	2543242	3	3	3	3	3	3	3	2	3	7	6	0	0	0	0	4	5	0	0	0	0	0		1	0	0	0	0	0	0	0
011013	10:13:39	10018	DigitSpanFr6mo	Score66Fr6mo	13	DS2	21767	0	119	10:13:39	2574584	3	3	3	3	3	3	3	2	3	7	6	0	0	0	0	4	5	0	0	0	0	0		1	0	0	0	0	0	0	0
011013	10:13:39	10018	Trial	ResponseIL	14	0	175	0	119	10:13:39	2623511	3	3	3	3	3	3	3	2	3	7	6	0	0	0	0	4	5	0	0	0	0	0		1	0	0	0	0	0	0	0
011013	10:13:39	10018	Trial	IncongruentLeft	14	203	498	1	119	10:13:39	2624031	3	3	3	3	3	3	3	2	3	7	6	0	0	0	0	4	5	0	0	0	0	0		1	0	0	0	0	0	0	0
011013	10:13:39	10018	Trial	ResponseCR	14	0	175	0	119	10:13:39	2625217	3	3	3	3	3	3	3	2	3	7	6	0	0	0	0	4	5	0	0	0	0	0		1	0	0	0	0	0	0	0
011013	10:13:39	10018	Trial	CongruentRight	14	205	280	1	119	10:13:39	2625524	3	3	3	3	3	3	3	2	3	7	6	0	0	0	0	4	5	0	0	0	0	0		1	0	0	0	0	0	0	0
011013	10:13:39	10018	Trial	ResponseIR	14	0	175	0	119	10:13:39	2626923	3	3	3	3	3	3	3	2	3	7	6	0	0	0	0	4	5	0	0	0	0	0		1	0	0	0	0	0	0	0
011013	10:13:39	10018	Trial	IncongruentRight	14	205	382	1	119	10:13:39	2627323	3	3	3	3	3	3	3	2	3	7	6	0	0	0	0	4	5	0	0	0	0	0		1	0	0	0	0	0	0	0
011013	10:13:39	10018	Trial	ResponseCL	14	0	175	0	119	10:13:39	2628629	3	3	3	3	3	3	3	2	3	7	6	0	0	0	0	4	5	0	0	0	0	0		1	0	0	0	0	0	0	0
011013	10:13:39	10018	Trial	CongruentLeft	14	205	260	0	119	10:13:39	2628909	3	3	3	3	3	3	3	2	3	7	6	0	0	0	0	4	5	0	0	0	0	0		1	0	0	0	0	0	0	0
011013	10:13:39	10018	Trial	ResponseCR	14	0	175	0	119	10:13:39	2630335	3	3	3	3	3	3	3	2	3	7	6	0	0	0	0	4	5	0	0	0	0	0		1	0	0	0	0	0	0	0
011013	10:13:39	10018	Trial	CongruentRight	14	205	234	1	119	10:13:39	2630588	3	3	3	3	3	3	3	2	3	7	6	0	0	0	0	4	5	0	0	0	0	0		1	0	0	0	0	0	0	0
011013	10:13:39	10018	Trial	ResponseIR	14	0	175	0	119	10:13:39	2632041	3	3	3	3	3	3	3	2	3	7	6	0	0	0	0	4	5	0	0	0	0	0		1	0	0	0	0	0	0	0
011013	10:13:39	10018	Trial	IncongruentRight	14	205	352	1	119	10:13:39	2632414	3	3	3	3	3	3	3	2	3	7	6	0	0	0	0	4	5	0	0	0	0	0		1	0	0	0	0	0	0	0
011013	10:13:39	10018	Trial	ResponseCL	14	0	175	0	119	10:13:39	2633747	3	3	3	3	3	3	3	2	3	7	6	0	0	0	0	4	5	0	0	0	0	0		1	0	0	0	0	0	0	0
011013	10:13:39	10018	Trial	CongruentLeft	14	203	406	1	119	10:13:39	2634173	3	3	3	3	3	3	3	2	3	7	6	0	0	0	0	4	5	0	0	0	0	0		1	0	0	0	0	0	0	0
011013	10:13:39	10018	Trial	ResponseIL	14	0	175	0	119	10:13:39	2635453	3	3	3	3	3	3	3	2	3	7	6	0	0	0	0	4	5	0	0	0	0	0		1	0	0	0	0	0	0	0
011013	10:13:39	10018	Trial	IncongruentLeft	14	205	140	0	119	10:13:39	2635613	3	3	3	3	3	3	3	2	3	7	6	0	0	0	0	4	5	0	0	0	0	0		1	0	0	0	0	0	0	0
011013	10:13:39	10018	Trial	ResponseIL	14	0	175	0	119	10:13:39	2637159	3	3	3	3	3	3	3	2	3	7	6	0	0	0	0	4	5	0	0	0	0	0		1	0	0	0	0	0	0	0
011013	10:13:39	10018	Trial	IncongruentLeft	14	203	405	1	119	10:13:39	2637585	3	3	3	3	3	3	3	2	3	7	6	0	0	0	0	4	5	0	0	0	0	0		1	0	0	0	0	0	0	0
011013	10:13:39	10018	Trial	ResponseCR	14	0	175	0	119	10:13:39	2638865	3	3	3	3	3	3	3	2	3	7	6	0	0	0	0	4	5	0	0	0	0	0		1	0	0	0	0	0	0	0
011013	10:13:39	10018	Trial	CongruentRight	14	205	232	1	119	10:13:39	2639118	3	3	3	3	3	3	3	2	3	7	6	0	0	0	0	4	5	0	0	0	0	0		1	0	0	0	0	0	0	0
011013	10:13:39	10018	Trial	ResponseIR	14	0	175	0	119	10:13:39	2640571	3	3	3	3	3	3	3	2	3	7	6	0	0	0	0	4	5	0	0	0	0	0		1	0	0	0	0	0	0	0
011013	10:13:39	10018	Trial	IncongruentRight	14	205	414	1	119	10:13:39	2641011	3	3	3	3	3	3	3	2	3	7	6	0	0	0	0	4	5	0	0	0	0	0		1	0	0	0	0	0	0	0
011013	10:13:39	10018	Trial	ResponseCL	14	0	175	0	119	10:13:39	2642277	3	3	3	3	3	3	3	2	3	7	6	0	0	0	0	4	5	0	0	0	0	0		1	0	0	0	0	0	0	0
011013	10:13:39	10018	Trial	CongruentLeft	14	203	212	1	119	10:13:39	2642517	3	3	3	3	3	3	3	2	3	7	6	0	0	0	0	4	5	0	0	0	0	0		1	0	0	0	0	0	0	0
011013	10:13:39	10018	Trial	ResponseCR	14	0	175	0	119	10:13:39	2643983	3	3	3	3	3	3	3	2	3	7	6	0	0	0	0	4	5	0	0	0	0	0		1	0	0	0	0	0	0	0
011013	10:13:39	10018	Trial	CongruentRight	14	205	234	1	119	10:13:39	2644236	3	3	3	3	3	3	3	2	3	7	6	0	0	0	0	4	5	0	0	0	0	0		1	0	0	0	0	0	0	0
011013	10:13:39	10018	Trial	ResponseIL	14	0	175	0	119	10:13:39	2645689	3	3	3	3	3	3	3	2	3	7	6	0	0	0	0	4	5	0	0	0	0	0		1	0	0	0	0	0	0	0
011013	10:13:39	10018	Trial	IncongruentLeft	14	203	400	1	119	10:13:39	2646115	3	3	3	3	3	3	3	2	3	7	6	0	0	0	0	4	5	0	0	0	0	0		1	0	0	0	0	0	0	0
011013	10:13:39	10018	Trial	ResponseIR	14	0	175	0	119	10:13:39	2647395	3	3	3	3	3	3	3	2	3	7	6	0	0	0	0	4	5	0	0	0	0	0		1	0	0	0	0	0	0	0
011013	10:13:39	10018	Trial	IncongruentRight	14	205	278	1	119	10:13:39	2647701	3	3	3	3	3	3	3	2	3	7	6	0	0	0	0	4	5	0	0	0	0	0		1	0	0	0	0	0	0	0
011013	10:13:39	10018	Trial	ResponseCR	14	0	175	0	119	10:13:39	2649101	3	3	3	3	3	3	3	2	3	7	6	0	0	0	0	4	5	0	0	0	0	0		1	0	0	0	0	0	0	0
011013	10:13:39	10018	Trial	CongruentRight	14	205	348	1	119	10:13:39	2649474	3	3	3	3	3	3	3	2	3	7	6	0	0	0	0	4	5	0	0	0	0	0		1	0	0	0	0	0	0	0
011013	10:13:39	10018	Trial	ResponseCL	14	0	175	0	119	10:13:39	2650807	3	3	3	3	3	3	3	2	3	7	6	0	0	0	0	4	5	0	0	0	0	0		1	0	0	0	0	0	0	0
011013	10:13:39	10018	Trial	CongruentLeft	14	203	178	1	119	10:13:39	2651006	3	3	3	3	3	3	3	2	3	7	6	0	0	0	0	4	5	0	0	0	0	0		1	0	0	0	0	0	0	0
011013	10:13:39	10018	Trial	ResponseCR	14	0	175	0	119	10:13:39	2652513	3	3	3	3	3	3	3	2	3	7	6	0	0	0	0	4	5	0	0	0	0	0		1	0	0	0	0	0	0	0
011013	10:13:39	10018	Trial	CongruentRight	14	205	231	1	119	10:13:39	2652766	3	3	3	3	3	3	3	2	3	7	6	0	0	0	0	4	5	0	0	0	0	0		1	0	0	0	0	0	0	0
011013	10:13:39	10018	Trial	ResponseIR	14	0	175	0	119	10:13:39	2654219	3	3	3	3	3	3	3	2	3	7	6	0	0	0	0	4	5	0	0	0	0	0		1	0	0	0	0	0	0	0
011013	10:13:39	10018	Trial	IncongruentRight	14	205	382	1	119	10:13:39	2654618	3	3	3	3	3	3	3	2	3	7	6	0	0	0	0	4	5	0	0	0	0	0		1	0	0	0	0	0	0	0
011013	10:13:39	10018	Trial	ResponseIL	14	0	175	0	119	10:13:39	2655925	3	3	3	3	3	3	3	2	3	7	6	0	0	0	0	4	5	0	0	0	0	0		1	0	0	0	0	0	0	0
011013	10:13:39	10018	Trial	IncongruentLeft	14	203	276	1	119	10:13:39	2656218	3	3	3	3	3	3	3	2	3	7	6	0	0	0	0	4	5	0	0	0	0	0		1	0	0	0	0	0	0	0
011013	10:13:39	10018	Trial	ResponseIL	14	0	175	0	119	10:13:39	2657631	3	3	3	3	3	3	3	2	3	7	6	0	0	0	0	4	5	0	0	0	0	0		1	0	0	0	0	0	0	0
011013	10:13:39	10018	Trial	IncongruentLeft	14	205	170	0	119	10:13:39	2657817	3	3	3	3	3	3	3	2	3	7	6	0	0	0	0	4	5	0	0	0	0	0		1	0	0	0	0	0	0	0
011013	10:13:39	10018	Trial	ResponseCL	14	0	175	0	119	10:13:39	2659337	3	3	3	3	3	3	3	2	3	7	6	0	0	0	0	4	5	0	0	0	0	0		1	0	0	0	0	0	0	0
011013	10:13:39	10018	Trial	CongruentLeft	14	203	592	1	119	10:13:39	2659950	3	3	3	3	3	3	3	2	3	7	6	0	0	0	0	4	5	0	0	0	0	0		1	0	0	0	0	0	0	0
011013	10:13:39	10018	Trial	ResponseCR	14	0	175	0	119	10:13:39	2661043	3	3	3	3	3	3	3	2	3	7	6	0	0	0	0	4	5	0	0	0	0	0		1	0	0	0	0	0	0	0
011013	10:13:39	10018	Trial	CongruentRight	14	205	198	1	119	10:13:39	2661269	3	3	3	3	3	3	3	2	3	7	6	0	0	0	0	4	5	0	0	0	0	0		1	0	0	0	0	0	0	0
011013	10:13:39	10018	Trial	ResponseIL	14	0	175	0	119	10:13:39	2662749	3	3	3	3	3	3	3	2	3	7	6	0	0	0	0	4	5	0	0	0	0	0		1	0	0	0	0	0	0	0
011013	10:13:39	10018	Trial	IncongruentLeft	14	203	380	1	119	10:13:39	2663148	3	3	3	3	3	3	3	2	3	7	6	0	0	0	0	4	5	0	0	0	0	0		1	0	0	0	0	0	0	0
011013	10:13:39	10018	Trial	ResponseIR	14	0	175	0	119	10:13:39	2664455	3	3	3	3	3	3	3	2	3	7	6	0	0	0	0	4	5	0	0	0	0	0		1	0	0	0	0	0	0	0
011013	10:13:39	10018	Trial	IncongruentRight	14	205	290	1	119	10:13:39	2664761	3	3	3	3	3	3	3	2	3	7	6	0	0	0	0	4	5	0	0	0	0	0		1	0	0	0	0	0	0	0
011013	10:13:39	10018	Trial	ResponseCR	14	0	175	0	119	10:13:39	2666161	3	3	3	3	3	3	3	2	3	7	6	0	0	0	0	4	5	0	0	0	0	0		1	0	0	0	0	0	0	0
011013	10:13:39	10018	Trial	CongruentRight	14	205	216	1	119	10:13:39	2666400	3	3	3	3	3	3	3	2	3	7	6	0	0	0	0	4	5	0	0	0	0	0		1	0	0	0	0	0	0	0
011013	10:13:39	10018	Trial	ResponseCL	14	0	175	0	119	10:13:39	2667866	3	3	3	3	3	3	3	2	3	7	6	0	0	0	0	4	5	0	0	0	0	0		1	0	0	0	0	0	0	0
011013	10:13:39	10018	Trial	CongruentLeft	14	203	206	1	119	10:13:39	2668093	3	3	3	3	3	3	3	2	3	7	6	0	0	0	0	4	5	0	0	0	0	0		1	0	0	0	0	0	0	0
011013	10:13:39	10018	Trial	ResponseIR	14	0	175	0	119	10:13:39	2669573	3	3	3	3	3	3	3	2	3	7	6	0	0	0	0	4	5	0	0	0	0	0		1	0	0	0	0	0	0	0
011013	10:13:39	10018	Trial	IncongruentRight	14	205	308	1	119	10:13:39	2669906	3	3	3	3	3	3	3	2	3	7	6	0	0	0	0	4	5	0	0	0	0	0		1	0	0	0	0	0	0	0
011013	10:13:39	10018	Trial	ResponseIL	14	0	175	0	119	10:13:39	2671278	3	3	3	3	3	3	3	2	3	7	6	0	0	0	0	4	5	0	0	0	0	0		1	0	0	0	0	0	0	0
011013	10:13:39	10018	Trial	IncongruentLeft	14	203	362	1	119	10:13:39	2671665	3	3	3	3	3	3	3	2	3	7	6	0	0	0	0	4	5	0	0	0	0	0		1	0	0	0	0	0	0	0
011013	10:13:39	10018	Trial	ResponseIR	14	0	175	0	119	10:13:39	2672985	3	3	3	3	3	3	3	2	3	7	6	0	0	0	0	4	5	0	0	0	0	0		1	0	0	0	0	0	0	0
011013	10:13:39	10018	Trial	IncongruentRight	14	205	480	1	119	10:13:39	2673491	3	3	3	3	3	3	3	2	3	7	6	0	0	0	0	4	5	0	0	0	0	0		1	0	0	0	0	0	0	0
011013	10:13:39	10018	Trial	ResponseCR	14	0	175	0	119	10:13:39	2674690	3	3	3	3	3	3	3	2	3	7	6	0	0	0	0	4	5	0	0	0	0	0		1	0	0	0	0	0	0	0
011013	10:13:39	10018	Trial	CongruentRight	14	205	310	1	119	10:13:39	2675024	3	3	3	3	3	3	3	2	3	7	6	0	0	0	0	4	5	0	0	0	0	0		1	0	0	0	0	0	0	0
011013	10:13:39	10018	Trial	ResponseIL	14	0	175	0	119	10:13:39	2676396	3	3	3	3	3	3	3	2	3	7	6	0	0	0	0	4	5	0	0	0	0	0		1	0	0	0	0	0	0	0
011013	10:13:39	10018	Trial	IncongruentLeft	14	203	412	1	119	10:13:39	2676836	3	3	3	3	3	3	3	2	3	7	6	0	0	0	0	4	5	0	0	0	0	0		1	0	0	0	0	0	0	0
011013	10:13:39	10018	Trial	ResponseCL	14	0	175	0	119	10:13:39	2678102	3	3	3	3	3	3	3	2	3	7	6	0	0	0	0	4	5	0	0	0	0	0		1	0	0	0	0	0	0	0
011013	10:13:39	10018	Trial	CongruentLeft	14	203	386	1	119	10:13:39	2678516	3	3	3	3	3	3	3	2	3	7	6	0	0	0	0	4	5	0	0	0	0	0		1	0	0	0	0	0	0	0
011013	10:13:39	10018	Trial	ResponseCR	14	0	175	0	119	10:13:39	2679808	3	3	3	3	3	3	3	2	3	7	6	0	0	0	0	4	5	0	0	0	0	0		1	0	0	0	0	0	0	0
011013	10:13:39	10018	Trial	CongruentRight	14	205	264	1	119	10:13:39	2680102	3	3	3	3	3	3	3	2	3	7	6	0	0	0	0	4	5	0	0	0	0	0		1	0	0	0	0	0	0	0
011013	10:13:39	10018	Trial	ResponseIL	14	0	175	0	119	10:13:39	2681514	3	3	3	3	3	3	3	2	3	7	6	0	0	0	0	4	5	0	0	0	0	0		1	0	0	0	0	0	0	0
011013	10:13:39	10018	Trial	IncongruentLeft	14	205	270	0	119	10:13:39	2681808	3	3	3	3	3	3	3	2	3	7	6	0	0	0	0	4	5	0	0	0	0	0		1	0	0	0	0	0	0	0
011013	10:13:39	10018	Trial	ResponseIR	14	0	175	0	119	10:13:39	2683220	3	3	3	3	3	3	3	2	3	7	6	0	0	0	0	4	5	0	0	0	0	0		1	0	0	0	0	0	0	0
011013	10:13:39	10018	Trial	IncongruentRight	14	205	884	1	119	10:13:39	2684127	3	3	3	3	3	3	3	2	3	7	6	0	0	0	0	4	5	0	0	0	0	0		1	0	0	0	0	0	0	0
011013	10:13:39	10018	Trial	ResponseIR	14	0	175	0	119	10:13:39	2684927	3	3	3	3	3	3	3	2	3	7	6	0	0	0	0	4	5	0	0	0	0	0		1	0	0	0	0	0	0	0
011013	10:13:39	10018	Trial	IncongruentRight	14	205	301	1	119	10:13:39	2685260	3	3	3	3	3	3	3	2	3	7	6	0	0	0	0	4	5	0	0	0	0	0		1	0	0	0	0	0	0	0
011013	10:13:39	10018	Trial	ResponseCL	14	0	175	0	119	10:13:39	2686646	3	3	3	3	3	3	3	2	3	7	6	0	0	0	0	4	5	0	0	0	0	0		1	0	0	0	0	0	0	0
011013	10:13:39	10018	Trial	CongruentLeft	14	203	194	1	119	10:13:39	2686859	3	3	3	3	3	3	3	2	3	7	6	0	0	0	0	4	5	0	0	0	0	0		1	0	0	0	0	0	0	0
011013	10:13:39	10018	Trial	ResponseIL	14	0	175	0	119	10:13:39	2688352	3	3	3	3	3	3	3	2	3	7	6	0	0	0	0	4	5	0	0	0	0	0		1	0	0	0	0	0	0	0
011013	10:13:39	10018	Trial	IncongruentLeft	14	203	345	1	119	10:13:39	2688725	3	3	3	3	3	3	3	2	3	7	6	0	0	0	0	4	5	0	0	0	0	0		1	0	0	0	0	0	0	0
011013	10:13:39	10018	Trial	ResponseCR	14	0	175	0	119	10:13:39	2690058	3	3	3	3	3	3	3	2	3	7	6	0	0	0	0	4	5	0	0	0	0	0		1	0	0	0	0	0	0	0
011013	10:13:39	10018	Trial	CongruentRight	14	205	302	1	119	10:13:39	2690378	3	3	3	3	3	3	3	2	3	7	6	0	0	0	0	4	5	0	0	0	0	0		1	0	0	0	0	0	0	0
011013	10:13:39	10018	Trial	ResponseCL	14	0	175	0	119	10:13:39	2691764	3	3	3	3	3	3	3	2	3	7	6	0	0	0	0	4	5	0	0	0	0	0		1	0	0	0	0	0	0	0
011013	10:13:39	10018	Trial	CongruentLeft	14	203	260	1	119	10:13:39	2692043	3	3	3	3	3	3	3	2	3	7	6	0	0	0	0	4	5	0	0	0	0	0		1	0	0	0	0	0	0	0
011013	10:13:39	10018	Trial	ResponseIR	14	0	175	0	119	10:13:39	2693470	3	3	3	3	3	3	3	2	3	7	6	0	0	0	0	4	5	0	0	0	0	0		1	0	0	0	0	0	0	0
011013	10:13:39	10018	Trial	IncongruentRight	14	205	298	1	119	10:13:39	2693790	3	3	3	3	3	3	3	2	3	7	6	0	0	0	0	4	5	0	0	0	0	0		1	0	0	0	0	0	0	0
011013	10:13:39	10018	Trial	ResponseCR	14	0	175	0	119	10:13:39	2695176	3	3	3	3	3	3	3	2	3	7	6	0	0	0	0	4	5	0	0	0	0	0		1	0	0	0	0	0	0	0
011013	10:13:39	10018	Trial	CongruentRight	14	205	368	1	119	10:13:39	2695562	3	3	3	3	3	3	3	2	3	7	6	0	0	0	0	4	5	0	0	0	0	0		1	0	0	0	0	0	0	0
011013	10:13:39	10018	Trial	ResponseIL	14	0	175	0	119	10:13:39	2696882	3	3	3	3	3	3	3	2	3	7	6	0	0	0	0	4	5	0	0	0	0	0		1	0	0	0	0	0	0	0
011013	10:13:39	10018	Trial	IncongruentLeft	14	205	262	0	119	10:13:39	2697161	3	3	3	3	3	3	3	2	3	7	6	0	0	0	0	4	5	0	0	0	0	0		1	0	0	0	0	0	0	0
011013	10:13:39	10018	Trial	ResponseCL	14	0	175	0	119	10:13:39	2698588	3	3	3	3	3	3	3	2	3	7	6	0	0	0	0	4	5	0	0	0	0	0		1	0	0	0	0	0	0	0
011013	10:13:39	10018	Trial	CongruentLeft	14	203	237	1	119	10:13:39	2698840	3	3	3	3	3	3	3	2	3	7	6	0	0	0	0	4	5	0	0	0	0	0		1	0	0	0	0	0	0	0
011013	10:13:39	10018	Trial	ResponseIL	14	0	175	0	119	10:13:39	2700293	3	3	3	3	3	3	3	2	3	7	6	0	0	0	0	4	5	0	0	0	0	0		1	0	0	0	0	0	0	0
011013	10:13:39	10018	Trial	IncongruentLeft	14	203	323	1	119	10:13:39	2700640	3	3	3	3	3	3	3	2	3	7	6	0	0	0	0	4	5	0	0	0	0	0		1	0	0	0	0	0	0	0
011013	10:13:39	10018	Trial	ResponseIR	14	0	175	0	119	10:13:39	2701999	3	3	3	3	3	3	3	2	3	7	6	0	0	0	0	4	5	0	0	0	0	0		1	0	0	0	0	0	0	0
011013	10:13:39	10018	Trial	IncongruentRight	14	205	328	1	119	10:13:39	2702346	3	3	3	3	3	3	3	2	3	7	6	0	0	0	0	4	5	0	0	0	0	0		1	0	0	0	0	0	0	0
011013	10:13:39	10018	Trial	ResponseCR	14	0	175	0	119	10:13:39	2703705	3	3	3	3	3	3	3	2	3	7	6	0	0	0	0	4	5	0	0	0	0	0		1	0	0	0	0	0	0	0
011013	10:13:39	10018	Trial	CongruentRight	14	205	366	1	119	10:13:39	2704092	3	3	3	3	3	3	3	2	3	7	6	0	0	0	0	4	5	0	0	0	0	0		1	0	0	0	0	0	0	0
011013	10:13:39	10018	Trial	ResponseCL	14	0	175	0	119	10:13:39	2705412	3	3	3	3	3	3	3	2	3	7	6	0	0	0	0	4	5	0	0	0	0	0		1	0	0	0	0	0	0	0
011013	10:13:39	10018	Trial	CongruentLeft	14	203	484	1	119	10:13:39	2705918	3	3	3	3	3	3	3	2	3	7	6	0	0	0	0	4	5	0	0	0	0	0		1	0	0	0	0	0	0	0
011013	10:13:39	10018	Trial	ResponseCL	14	0	175	0	119	10:13:39	2707118	3	3	3	3	3	3	3	2	3	7	6	0	0	0	0	4	5	0	0	0	0	0		1	0	0	0	0	0	0	0
011013	10:13:39	10018	Trial	CongruentLeft	14	203	235	1	119	10:13:39	2707371	3	3	3	3	3	3	3	2	3	7	6	0	0	0	0	4	5	0	0	0	0	0		1	0	0	0	0	0	0	0
011013	10:13:39	10018	Trial	ResponseIR	14	0	175	0	119	10:13:39	2708823	3	3	3	3	3	3	3	2	3	7	6	0	0	0	0	4	5	0	0	0	0	0		1	0	0	0	0	0	0	0
011013	10:13:39	10018	Trial	IncongruentRight	14	205	320	1	119	10:13:39	2709170	3	3	3	3	3	3	3	2	3	7	6	0	0	0	0	4	5	0	0	0	0	0		1	0	0	0	0	0	0	0
011013	10:13:39	10018	Trial	ResponseIL	14	0	175	0	119	10:13:39	2710529	3	3	3	3	3	3	3	2	3	7	6	0	0	0	0	4	5	0	0	0	0	0		1	0	0	0	0	0	0	0
011013	10:13:39	10018	Trial	IncongruentLeft	14	203	198	1	119	10:13:39	2710756	3	3	3	3	3	3	3	2	3	7	6	0	0	0	0	4	5	0	0	0	0	0		1	0	0	0	0	0	0	0
011013	10:13:39	10018	Trial	ResponseIR	14	0	175	0	119	10:13:39	2712235	3	3	3	3	3	3	3	2	3	7	6	0	0	0	0	4	5	0	0	0	0	0		1	0	0	0	0	0	0	0
011013	10:13:39	10018	Trial	IncongruentRight	14	205	332	1	119	10:13:39	2712595	3	3	3	3	3	3	3	2	3	7	6	0	0	0	0	4	5	0	0	0	0	0		1	0	0	0	0	0	0	0
011013	10:13:39	10018	Trial	ResponseCR	14	0	175	0	119	10:13:39	2713941	3	3	3	3	3	3	3	2	3	7	6	0	0	0	0	4	5	0	0	0	0	0		1	0	0	0	0	0	0	0
011013	10:13:39	10018	Trial	CongruentRight	14	205	354	1	119	10:13:39	2714314	3	3	3	3	3	3	3	2	3	7	6	0	0	0	0	4	5	0	0	0	0	0		1	0	0	0	0	0	0	0
011013	10:13:39	10018	Trial	ResponseCR	14	0	175	0	119	10:13:39	2715647	3	3	3	3	3	3	3	2	3	7	6	0	0	0	0	4	5	0	0	0	0	0		1	0	0	0	0	0	0	0
011013	10:13:39	10018	Trial	CongruentRight	14	205	408	1	119	10:13:39	2716074	3	3	3	3	3	3	3	2	3	7	6	0	0	0	0	4	5	0	0	0	0	0		1	0	0	0	0	0	0	0
011013	10:13:39	10018	Trial	ResponseIL	14	0	175	0	119	10:13:39	2717353	3	3	3	3	3	3	3	2	3	7	6	0	0	0	0	4	5	0	0	0	0	0		1	0	0	0	0	0	0	0
011013	10:13:39	10018	Trial	IncongruentLeft	14	203	254	1	119	10:13:39	2717633	3	3	3	3	3	3	3	2	3	7	6	0	0	0	0	4	5	0	0	0	0	0		1	0	0	0	0	0	0	0
011013	10:13:39	10018	Trial	ResponseCL	14	0	175	0	119	10:13:39	2719059	3	3	3	3	3	3	3	2	3	7	6	0	0	0	0	4	5	0	0	0	0	0		1	0	0	0	0	0	0	0
011013	10:13:39	10018	Trial	CongruentLeft	14	203	228	1	119	10:13:39	2719312	3	3	3	3	3	3	3	2	3	7	6	0	0	0	0	4	5	0	0	0	0	0		1	0	0	0	0	0	0	0
011013	10:13:39	10018	Trial	ResponseCR	14	0	175	0	119	10:13:39	2720765	3	3	3	3	3	3	3	2	3	7	6	0	0	0	0	4	5	0	0	0	0	0		1	0	0	0	0	0	0	0
011013	10:13:39	10018	Trial	CongruentRight	14	205	394	1	119	10:13:39	2721178	3	3	3	3	3	3	3	2	3	7	6	0	0	0	0	4	5	0	0	0	0	0		1	0	0	0	0	0	0	0
011013	10:13:39	10018	Trial	ResponseCL	14	0	175	0	119	10:13:39	2722471	3	3	3	3	3	3	3	2	3	7	6	0	0	0	0	4	5	0	0	0	0	0		1	0	0	0	0	0	0	0
011013	10:13:39	10018	Trial	CongruentLeft	14	203	240	1	119	10:13:39	2722738	3	3	3	3	3	3	3	2	3	7	6	0	0	0	0	4	5	0	0	0	0	0		1	0	0	0	0	0	0	0
011013	10:13:39	10018	Trial	ResponseIR	14	0	175	0	119	10:13:39	2724177	3	3	3	3	3	3	3	2	3	7	6	0	0	0	0	4	5	0	0	0	0	0		1	0	0	0	0	0	0	0
011013	10:13:39	10018	Trial	IncongruentRight	14	205	358	1	119	10:13:39	2724564	3	3	3	3	3	3	3	2	3	7	6	0	0	0	0	4	5	0	0	0	0	0		1	0	0	0	0	0	0	0
011013	10:13:39	10018	Trial	ResponseCR	14	0	175	0	119	10:13:39	2725883	3	3	3	3	3	3	3	2	3	7	6	0	0	0	0	4	5	0	0	0	0	0		1	0	0	0	0	0	0	0
011013	10:13:39	10018	Trial	CongruentRight	14	205	316	1	119	10:13:39	2726216	3	3	3	3	3	3	3	2	3	7	6	0	0	0	0	4	5	0	0	0	0	0		1	0	0	0	0	0	0	0
011013	10:13:39	10018	Trial	ResponseCL	14	0	175	0	119	10:13:39	2727589	3	3	3	3	3	3	3	2	3	7	6	0	0	0	0	4	5	0	0	0	0	0		1	0	0	0	0	0	0	0
011013	10:13:39	10018	Trial	CongruentLeft	14	203	210	1	119	10:13:39	2727816	3	3	3	3	3	3	3	2	3	7	6	0	0	0	0	4	5	0	0	0	0	0		1	0	0	0	0	0	0	0
011013	10:13:39	10018	Trial	ResponseIL	14	0	175	0	119	10:13:39	2729295	3	3	3	3	3	3	3	2	3	7	6	0	0	0	0	4	5	0	0	0	0	0		1	0	0	0	0	0	0	0
011013	10:13:39	10018	Trial	IncongruentLeft	14	203	328	1	119	10:13:39	2729642	3	3	3	3	3	3	3	2	3	7	6	0	0	0	0	4	5	0	0	0	0	0		1	0	0	0	0	0	0	0
011013	10:13:39	10018	Trial	ResponseIL	14	0	175	0	119	10:13:39	2731001	3	3	3	3	3	3	3	2	3	7	6	0	0	0	0	4	5	0	0	0	0	0		1	0	0	0	0	0	0	0
011013	10:13:39	10018	Trial	IncongruentLeft	14	203	382	1	119	10:13:39	2731401	3	3	3	3	3	3	3	2	3	7	6	0	0	0	0	4	5	0	0	0	0	0		1	0	0	0	0	0	0	0
011013	10:13:39	10018	Trial	ResponseCR	14	0	175	0	119	10:13:39	2732707	3	3	3	3	3	3	3	2	3	7	6	0	0	0	0	4	5	0	0	0	0	0		1	0	0	0	0	0	0	0
011013	10:13:39	10018	Trial	CongruentRight	14	205	260	1	119	10:13:39	2732987	3	3	3	3	3	3	3	2	3	7	6	0	0	0	0	4	5	0	0	0	0	0		1	0	0	0	0	0	0	0
011013	10:13:39	10018	Trial	ResponseIR	14	0	175	0	119	10:13:39	2734413	3	3	3	3	3	3	3	2	3	7	6	0	0	0	0	4	5	0	0	0	0	0		1	0	0	0	0	0	0	0
011013	10:13:39	10018	Trial	IncongruentRight	14	205	314	1	119	10:13:39	2734746	3	3	3	3	3	3	3	2	3	7	6	0	0	0	0	4	5	0	0	0	0	0		1	0	0	0	0	0	0	0
011013	10:13:39	10018	Trial	ResponseCL	14	0	175	0	119	10:13:39	2736119	3	3	3	3	3	3	3	2	3	7	6	0	0	0	0	4	5	0	0	0	0	0		1	0	0	0	0	0	0	0
011013	10:13:39	10018	Trial	CongruentLeft	14	203	305	1	119	10:13:39	2736452	3	3	3	3	3	3	3	2	3	7	6	0	0	0	0	4	5	0	0	0	0	0		1	0	0	0	0	0	0	0
011013	10:13:39	10018	Trial	ResponseIR	14	0	175	0	119	10:13:39	2737825	3	3	3	3	3	3	3	2	3	7	6	0	0	0	0	4	5	0	0	0	0	0		1	0	0	0	0	0	0	0
011013	10:13:39	10018	Trial	IncongruentRight	14	205	310	1	119	10:13:39	2738158	3	3	3	3	3	3	3	2	3	7	6	0	0	0	0	4	5	0	0	0	0	0		1	0	0	0	0	0	0	0
011013	10:13:39	10018	Trial	ResponseCR	14	0	175	0	119	10:13:39	2739531	3	3	3	3	3	3	3	2	3	7	6	0	0	0	0	4	5	0	0	0	0	0		1	0	0	0	0	0	0	0
011013	10:13:39	10018	Trial	CongruentRight	14	205	444	1	119	10:13:39	2739998	3	3	3	3	3	3	3	2	3	7	6	0	0	0	0	4	5	0	0	0	0	0		1	0	0	0	0	0	0	0
011013	10:13:39	10018	Trial	ResponseIL	14	0	175	0	119	10:13:39	2741237	3	3	3	3	3	3	3	2	3	7	6	0	0	0	0	4	5	0	0	0	0	0		1	0	0	0	0	0	0	0
011013	10:13:39	10018	Trial	IncongruentLeft	14	203	434	1	119	10:13:39	2741690	3	3	3	3	3	3	3	2	3	7	6	0	0	0	0	4	5	0	0	0	0	0		1	0	0	0	0	0	0	0
011013	10:13:39	10018	Trial	ResponseCL	14	0	175	0	119	10:13:39	2742943	3	3	3	3	3	3	3	2	3	7	6	0	0	0	0	4	5	0	0	0	0	0		1	0	0	0	0	0	0	0
011013	10:13:39	10018	Trial	CongruentLeft	14	203	264	1	119	10:13:39	2743236	3	3	3	3	3	3	3	2	3	7	6	0	0	0	0	4	5	0	0	0	0	0		1	0	0	0	0	0	0	0
011013	10:13:39	10018	Trial	ResponseCR	14	0	175	0	119	10:13:39	2744649	3	3	3	3	3	3	3	2	3	7	6	0	0	0	0	4	5	0	0	0	0	0		1	0	0	0	0	0	0	0
011013	10:13:39	10018	Trial	CongruentRight	14	205	334	1	119	10:13:39	2745009	3	3	3	3	3	3	3	2	3	7	6	0	0	0	0	4	5	0	0	0	0	0		1	0	0	0	0	0	0	0
011013	10:13:39	10018	Trial	ResponseIL	14	0	175	0	119	10:13:39	2746355	3	3	3	3	3	3	3	2	3	7	6	0	0	0	0	4	5	0	0	0	0	0		1	0	0	0	0	0	0	0
011013	10:13:39	10018	Trial	IncongruentLeft	14	203	404	1	119	10:13:39	2746782	3	3	3	3	3	3	3	2	3	7	6	0	0	0	0	4	5	0	0	0	0	0		1	0	0	0	0	0	0	0
011013	10:13:39	10018	Trial	ResponseCR	14	0	175	0	119	10:13:39	2748061	3	3	3	3	3	3	3	2	3	7	6	0	0	0	0	4	5	0	0	0	0	0		1	0	0	0	0	0	0	0
011013	10:13:39	10018	Trial	CongruentRight	14	205	314	1	119	10:13:39	2748394	3	3	3	3	3	3	3	2	3	7	6	0	0	0	0	4	5	0	0	0	0	0		1	0	0	0	0	0	0	0
011013	10:13:39	10018	Trial	ResponseCR	14	0	175	0	119	10:13:39	2749767	3	3	3	3	3	3	3	2	3	7	6	0	0	0	0	4	5	0	0	0	0	0		1	0	0	0	0	0	0	0
011013	10:13:39	10018	Trial	CongruentRight	14	205	416	1	119	10:13:39	2750207	3	3	3	3	3	3	3	2	3	7	6	0	0	0	0	4	5	0	0	0	0	0		1	0	0	0	0	0	0	0
011013	10:13:39	10018	Trial	ResponseIR	14	0	175	0	119	10:13:39	2751473	3	3	3	3	3	3	3	2	3	7	6	0	0	0	0	4	5	0	0	0	0	0		1	0	0	0	0	0	0	0
011013	10:13:39	10018	Trial	IncongruentRight	14	205	422	1	119	10:13:39	2751913	3	3	3	3	3	3	3	2	3	7	6	0	0	0	0	4	5	0	0	0	0	0		1	0	0	0	0	0	0	0
011013	10:13:39	10018	Trial	ResponseCL	14	0	175	0	119	10:13:39	2753179	3	3	3	3	3	3	3	2	3	7	6	0	0	0	0	4	5	0	0	0	0	0		1	0	0	0	0	0	0	0
011013	10:13:39	10018	Trial	CongruentLeft	14	203	396	1	119	10:13:39	2753592	3	3	3	3	3	3	3	2	3	7	6	0	0	0	0	4	5	0	0	0	0	0		1	0	0	0	0	0	0	0
011013	10:13:39	10018	Trial	ResponseIL	14	0	175	0	119	10:13:39	2754885	3	3	3	3	3	3	3	2	3	7	6	0	0	0	0	4	5	0	0	0	0	0		1	0	0	0	0	0	0	0
011013	10:13:39	10018	Trial	IncongruentLeft	14	203	498	1	119	10:13:39	2755405	3	3	3	3	3	3	3	2	3	7	6	0	0	0	0	4	5	0	0	0	0	0		1	0	0	0	0	0	0	0
011013	10:13:39	10018	Trial	ResponseCL	14	0	175	0	119	10:13:39	2756591	3	3	3	3	3	3	3	2	3	7	6	0	0	0	0	4	5	0	0	0	0	0		1	0	0	0	0	0	0	0
011013	10:13:39	10018	Trial	CongruentLeft	14	203	296	1	119	10:13:39	2756910	3	3	3	3	3	3	3	2	3	7	6	0	0	0	0	4	5	0	0	0	0	0		1	0	0	0	0	0	0	0
011013	10:13:39	10018	Trial	ResponseIR	14	0	175	0	119	10:13:39	2758297	3	3	3	3	3	3	3	2	3	7	6	0	0	0	0	4	5	0	0	0	0	0		1	0	0	0	0	0	0	0
011013	10:13:39	10018	Trial	IncongruentRight	14	205	318	1	119	10:13:39	2758643	3	3	3	3	3	3	3	2	3	7	6	0	0	0	0	4	5	0	0	0	0	0		1	0	0	0	0	0	0	0
011013	10:13:39	10018	Trial	ResponseIL	14	0	175	0	119	10:13:39	2760003	3	3	3	3	3	3	3	2	3	7	6	0	0	0	0	4	5	0	0	0	0	0		1	0	0	0	0	0	0	0
011013	10:13:39	10018	Trial	IncongruentLeft	14	203	420	1	119	10:13:39	2760443	3	3	3	3	3	3	3	2	3	7	6	0	0	0	0	4	5	0	0	0	0	0		1	0	0	0	0	0	0	0
011013	10:13:39	10018	Trial	ResponseCR	14	0	175	0	119	10:13:39	2761709	3	3	3	3	3	3	3	2	3	7	6	0	0	0	0	4	5	0	0	0	0	0		1	0	0	0	0	0	0	0
011013	10:13:39	10018	Trial	CongruentRight	14	205	697	1	119	10:13:39	2762428	3	3	3	3	3	3	3	2	3	7	6	0	0	0	0	4	5	0	0	0	0	0		1	0	0	0	0	0	0	0
011013	10:13:39	10018	Trial	ResponseCL	14	0	175	0	119	10:13:39	2763415	3	3	3	3	3	3	3	2	3	7	6	0	0	0	0	4	5	0	0	0	0	0		1	0	0	0	0	0	0	0
011013	10:13:39	10018	Trial	CongruentLeft	14	203	224	1	119	10:13:39	2763655	3	3	3	3	3	3	3	2	3	7	6	0	0	0	0	4	5	0	0	0	0	0		1	0	0	0	0	0	0	0
011013	10:13:39	10018	Trial	ResponseIL	14	0	175	0	119	10:13:39	2765121	3	3	3	3	3	3	3	2	3	7	6	0	0	0	0	4	5	0	0	0	0	0		1	0	0	0	0	0	0	0
011013	10:13:39	10018	Trial	IncongruentLeft	14	203	390	1	119	10:13:39	2765534	3	3	3	3	3	3	3	2	3	7	6	0	0	0	0	4	5	0	0	0	0	0		1	0	0	0	0	0	0	0
011013	10:13:39	10018	Trial	ResponseCL	14	0	175	0	119	10:13:39	2766827	3	3	3	3	3	3	3	2	3	7	6	0	0	0	0	4	5	0	0	0	0	0		1	0	0	0	0	0	0	0
011013	10:13:39	10018	Trial	CongruentLeft	14	203	380	1	119	10:13:39	2767227	3	3	3	3	3	3	3	2	3	7	6	0	0	0	0	4	5	0	0	0	0	0		1	0	0	0	0	0	0	0
011013	10:13:39	10018	Trial	ResponseIR	14	0	175	0	119	10:13:39	2768533	3	3	3	3	3	3	3	2	3	7	6	0	0	0	0	4	5	0	0	0	0	0		1	0	0	0	0	0	0	0
011013	10:13:39	10018	Trial	IncongruentRight	14	205	306	1	119	10:13:39	2768866	3	3	3	3	3	3	3	2	3	7	6	0	0	0	0	4	5	0	0	0	0	0		1	0	0	0	0	0	0	0
011013	10:13:39	10018	Trial	ResponseCR	14	0	175	0	119	10:13:39	2770239	3	3	3	3	3	3	3	2	3	7	6	0	0	0	0	4	5	0	0	0	0	0		1	0	0	0	0	0	0	0
011013	10:13:39	10018	Trial	CongruentRight	14	205	328	1	119	10:13:39	2770585	3	3	3	3	3	3	3	2	3	7	6	0	0	0	0	4	5	0	0	0	0	0		1	0	0	0	0	0	0	0
011013	10:13:39	10018	Trial	ResponseIL	14	0	175	0	119	10:13:39	2771945	3	3	3	3	3	3	3	2	3	7	6	0	0	0	0	4	5	0	0	0	0	0		1	0	0	0	0	0	0	0
011013	10:13:39	10018	Trial	IncongruentLeft	14	203	398	1	119	10:13:39	2772371	3	3	3	3	3	3	3	2	3	7	6	0	0	0	0	4	5	0	0	0	0	0		1	0	0	0	0	0	0	0
011013	10:13:39	10018	Trial	ResponseCL	14	0	175	0	119	10:13:39	2773651	3	3	3	3	3	3	3	2	3	7	6	0	0	0	0	4	5	0	0	0	0	0		1	0	0	0	0	0	0	0
011013	10:13:39	10018	Trial	CongruentLeft	14	203	244	1	119	10:13:39	2773917	3	3	3	3	3	3	3	2	3	7	6	0	0	0	0	4	5	0	0	0	0	0		1	0	0	0	0	0	0	0
011013	10:13:39	10018	Trial	ResponseIR	14	0	175	0	119	10:13:39	2775357	3	3	3	3	3	3	3	2	3	7	6	0	0	0	0	4	5	0	0	0	0	0		1	0	0	0	0	0	0	0
011013	10:13:39	10018	Trial	IncongruentRight	14	205	457	1	119	10:13:39	2775836	3	3	3	3	3	3	3	2	3	7	6	0	0	0	0	4	5	0	0	0	0	0		1	0	0	0	0	0	0	0
011013	10:13:39	10018	Trial	ResponseIL	14	0	175	0	119	10:13:39	2777063	3	3	3	3	3	3	3	2	3	7	6	0	0	0	0	4	5	0	0	0	0	0		1	0	0	0	0	0	0	0
011013	10:13:39	10018	Trial	IncongruentLeft	14	203	288	1	119	10:13:39	2777369	3	3	3	3	3	3	3	2	3	7	6	0	0	0	0	4	5	0	0	0	0	0		1	0	0	0	0	0	0	0
011013	10:13:39	10018	Trial	ResponseCL	14	0	175	0	119	10:13:39	2778768	3	3	3	3	3	3	3	2	3	7	6	0	0	0	0	4	5	0	0	0	0	0		1	0	0	0	0	0	0	0
011013	10:13:39	10018	Trial	CongruentLeft	14	203	261	1	119	10:13:39	2779048	3	3	3	3	3	3	3	2	3	7	6	0	0	0	0	4	5	0	0	0	0	0		1	0	0	0	0	0	0	0
011013	10:13:39	10018	Trial	ResponseIL	14	0	175	0	119	10:13:39	2780475	3	3	3	3	3	3	3	2	3	7	6	0	0	0	0	4	5	0	0	0	0	0		1	0	0	0	0	0	0	0
011013	10:13:39	10018	Trial	IncongruentLeft	14	203	396	1	119	10:13:39	2780888	3	3	3	3	3	3	3	2	3	7	6	0	0	0	0	4	5	0	0	0	0	0		1	0	0	0	0	0	0	0
011013	10:13:39	10018	Trial	ResponseCR	14	0	175	0	119	10:13:39	2782181	3	3	3	3	3	3	3	2	3	7	6	0	0	0	0	4	5	0	0	0	0	0		1	0	0	0	0	0	0	0
011013	10:13:39	10018	Trial	CongruentRight	14	205	386	1	119	10:13:39	2782594	3	3	3	3	3	3	3	2	3	7	6	0	0	0	0	4	5	0	0	0	0	0		1	0	0	0	0	0	0	0
011013	10:13:39	10018	Trial	ResponseCL	14	0	175	0	119	10:13:39	2783887	3	3	3	3	3	3	3	2	3	7	6	0	0	0	0	4	5	0	0	0	0	0		1	0	0	0	0	0	0	0
011013	10:13:39	10018	Trial	CongruentLeft	14	203	248	1	119	10:13:39	2784153	3	3	3	3	3	3	3	2	3	7	6	0	0	0	0	4	5	0	0	0	0	0		1	0	0	0	0	0	0	0
011013	10:13:39	10018	Trial	ResponseIR	14	0	175	0	119	10:13:39	2785592	3	3	3	3	3	3	3	2	3	7	6	0	0	0	0	4	5	0	0	0	0	0		1	0	0	0	0	0	0	0
011013	10:13:39	10018	Trial	IncongruentRight	14	205	654	1	119	10:13:39	2786272	3	3	3	3	3	3	3	2	3	7	6	0	0	0	0	4	5	0	0	0	0	0		1	0	0	0	0	0	0	0
011013	10:13:39	10018	Trial	ResponseCL	14	0	175	0	119	10:13:39	2787298	3	3	3	3	3	3	3	2	3	7	6	0	0	0	0	4	5	0	0	0	0	0		1	0	0	0	0	0	0	0
011013	10:13:39	10018	Trial	CongruentLeft	14	203	212	1	119	10:13:39	2787538	3	3	3	3	3	3	3	2	3	7	6	0	0	0	0	4	5	0	0	0	0	0		1	0	0	0	0	0	0	0
011013	10:13:39	10018	Trial	ResponseCR	14	0	175	0	119	10:13:39	2789004	3	3	3	3	3	3	3	2	3	7	6	0	0	0	0	4	5	0	0	0	0	0		1	0	0	0	0	0	0	0
011013	10:13:39	10018	Trial	CongruentRight	14	205	265	1	119	10:13:39	2789298	3	3	3	3	3	3	3	2	3	7	6	0	0	0	0	4	5	0	0	0	0	0		1	0	0	0	0	0	0	0
011013	10:13:39	10018	Trial	ResponseIL	14	0	175	0	119	10:13:39	2790710	3	3	3	3	3	3	3	2	3	7	6	0	0	0	0	4	5	0	0	0	0	0		1	0	0	0	0	0	0	0
011013	10:13:39	10018	Trial	IncongruentLeft	14	203	335	1	119	10:13:39	2791070	3	3	3	3	3	3	3	2	3	7	6	0	0	0	0	4	5	0	0	0	0	0		1	0	0	0	0	0	0	0
011013	10:13:39	10018	WordsAbsFr6mo	PAbsFr6mo1	16	Abs1	16518	0	119	10:13:39	2815087	3	3	3	3	3	3	3	2	3	7	6	0	0	0	0	4	5	0	0	0	0	0		1	0	0	0	0	0	0	0
011013	10:13:39	10018	WordsAbsFr6mo	AbsFr6mo1	16	Abs1	3549	0	119	10:13:39	2818672	3	3	3	3	3	3	3	2	3	7	6	1	0	0	0	4	5	0	0	0	0	0		1	0	0	0	0	0	0	0
011013	10:13:39	10018	WordsAbsFr6mo	AbsFr6mo2	16	Abs1	19787	0	119	10:13:39	2838491	3	3	3	3	3	3	3	2	3	7	6	2	0	0	0	4	5	0	0	0	0	0		1	0	0	0	0	0	0	0
011013	10:13:39	10018	WordsAbsFr6mo	AbsFr6mo3	16	Abs2	42656	0	119	10:13:39	2881180	3	3	3	3	3	3	3	2	3	7	6	2	0	0	0	4	5	0	0	0	0	0		1	0	0	0	0	0	0	0
011013	10:13:39	10018	Trial2BackFrS	NS	17	0	1000	1	119	10:13:39	2920978	3	3	3	3	3	3	3	2	3	7	6	2	0	0	0	4	5	0	0	0	0	0		1	0	0	0	0	0	0	0
011013	10:13:39	10018	Trial2BackFrS	NS	17	0	1000	1	119	10:13:39	2922497	3	3	3	3	3	3	3	2	3	7	6	2	0	0	0	4	5	0	0	0	0	0		1	0	0	0	0	0	0	0
011013	10:13:39	10018	Trial2BackFrS	NS	17	0	1000	1	119	10:13:39	2924003	3	3	3	3	3	3	3	2	3	7	6	2	0	0	0	4	5	0	0	0	0	0		1	0	0	0	0	0	0	0
011013	10:13:39	10018	Trial2BackFrS	YS	17	57	452	1	119	10:13:39	2924962	3	3	3	3	3	3	3	2	3	7	6	2	0	0	0	4	5	0	0	0	0	0		1	0	0	0	0	0	0	0
011013	10:13:39	10018	Trial2BackFrS	NS	17	0	1000	1	119	10:13:39	2927015	3	3	3	3	3	3	3	2	3	7	6	2	0	0	0	4	5	0	0	0	0	0		1	0	0	0	0	0	0	0
011013	10:13:39	10018	Trial2BackFrS	NS	17	0	1000	1	119	10:13:39	2928521	3	3	3	3	3	3	3	2	3	7	6	2	0	0	0	4	5	0	0	0	0	0		1	0	0	0	0	0	0	0
011013	10:13:39	10018	Trial2BackFrS	NS	17	0	1000	1	119	10:13:39	2930027	3	3	3	3	3	3	3	2	3	7	6	2	0	0	0	4	5	0	0	0	0	0		1	0	0	0	0	0	0	0
011013	10:13:39	10018	Trial2BackFrS	NS	17	0	1000	1	119	10:13:39	2931547	3	3	3	3	3	3	3	2	3	7	6	2	0	0	0	4	5	0	0	0	0	0		1	0	0	0	0	0	0	0
011013	10:13:39	10018	Trial2BackFrS	YS	17	57	316	1	119	10:13:39	2932373	3	3	3	3	3	3	3	2	3	7	6	2	0	0	0	4	5	0	0	0	0	0		1	0	0	0	0	0	0	0
011013	10:13:39	10018	Trial2BackFrS	NS	17	0	1000	1	119	10:13:39	2934559	3	3	3	3	3	3	3	2	3	7	6	2	0	0	0	4	5	0	0	0	0	0		1	0	0	0	0	0	0	0
011013	10:13:39	10018	Trial2BackFrS	NS	17	0	1000	1	119	10:13:39	2936065	3	3	3	3	3	3	3	2	3	7	6	2	0	0	0	4	5	0	0	0	0	0		1	0	0	0	0	0	0	0
011013	10:13:39	10018	Trial2BackFrS	YS	17	0	1000	0	119	10:13:39	2937584	3	3	3	3	3	3	3	2	3	7	6	2	0	0	0	4	5	0	0	0	0	0		1	0	0	0	0	0	0	0
011013	10:13:39	10018	Trial2BackFrS	NS	17	0	1000	1	119	10:13:39	2939104	3	3	3	3	3	3	3	2	3	7	6	2	0	0	0	4	5	0	0	0	0	0		1	0	0	0	0	0	0	0
011013	10:13:39	10018	Trial2BackFrS	NS	17	0	1000	1	119	10:13:39	2940610	3	3	3	3	3	3	3	2	3	7	6	2	0	0	0	4	5	0	0	0	0	0		1	0	0	0	0	0	0	0
011013	10:13:39	10018	Trial2BackFrS	NS	17	0	1000	1	119	10:13:39	2942116	3	3	3	3	3	3	3	2	3	7	6	2	0	0	0	4	5	0	0	0	0	0		1	0	0	0	0	0	0	0
011013	10:13:39	10018	Trial2BackFrS	YS	17	57	595	1	119	10:13:39	2943222	3	3	3	3	3	3	3	2	3	7	6	2	0	0	0	4	5	0	0	0	0	0		1	0	0	0	0	0	0	0
011013	10:13:39	10018	Trial2BackFrS	NS	17	0	1000	1	119	10:13:39	2945128	3	3	3	3	3	3	3	2	3	7	6	2	0	0	0	4	5	0	0	0	0	0		1	0	0	0	0	0	0	0
011013	10:13:39	10018	Trial2BackFrS	NS	17	0	1000	1	119	10:13:39	2946647	3	3	3	3	3	3	3	2	3	7	6	2	0	0	0	4	5	0	0	0	0	0		1	0	0	0	0	0	0	0
011013	10:13:39	10018	Trial2BackFrS	NS	17	0	1000	1	119	10:13:39	2948153	3	3	3	3	3	3	3	2	3	7	6	2	0	0	0	4	5	0	0	0	0	0		1	0	0	0	0	0	0	0
011013	10:13:39	10018	Trial2BackFrS	NS	17	0	1000	1	119	10:13:39	2949659	3	3	3	3	3	3	3	2	3	7	6	2	0	0	0	4	5	0	0	0	0	0		1	0	0	0	0	0	0	0
011013	10:13:39	10018	Trial2BackFrS	YS	17	57	379	1	119	10:13:39	2950552	3	3	3	3	3	3	3	2	3	7	6	2	0	0	0	4	5	0	0	0	0	0		1	0	0	0	0	0	0	0
011013	10:13:39	10018	Trial2BackFrS	NS	17	0	1000	1	119	10:13:39	2952671	3	3	3	3	3	3	3	2	3	7	6	2	0	0	0	4	5	0	0	0	0	0		1	0	0	0	0	0	0	0
011013	10:13:39	10018	Trial2BackFrS	NS	17	0	1000	1	119	10:13:39	2954178	3	3	3	3	3	3	3	2	3	7	6	2	0	0	0	4	5	0	0	0	0	0		1	0	0	0	0	0	0	0
011013	10:13:39	10018	Trial2BackFrS	NS	17	0	1000	1	119	10:13:39	2955697	3	3	3	3	3	3	3	2	3	7	6	2	0	0	0	4	5	0	0	0	0	0		1	0	0	0	0	0	0	0
011013	10:13:39	10018	Trial2BackFrS	NS	17	0	1000	1	119	10:13:39	2957203	3	3	3	3	3	3	3	2	3	7	6	2	0	0	0	4	5	0	0	0	0	0		1	0	0	0	0	0	0	0
011013	10:13:39	10018	Trial2BackFrS	NS	17	0	1000	1	119	10:13:39	2958723	3	3	3	3	3	3	3	2	3	7	6	2	0	0	0	4	5	0	0	0	0	0		1	0	0	0	0	0	0	0
011013	10:13:39	10018	Trial2BackFrS	NS	17	0	1000	1	119	10:13:39	2960228	3	3	3	3	3	3	3	2	3	7	6	2	0	0	0	4	5	0	0	0	0	0		1	0	0	0	0	0	0	0
011013	10:13:39	10018	Trial2BackFrS	NS	17	0	1000	1	119	10:13:39	2961734	3	3	3	3	3	3	3	2	3	7	6	2	0	0	0	4	5	0	0	0	0	0		1	0	0	0	0	0	0	0
011013	10:13:39	10018	Trial2BackFrS	NS	17	0	1000	1	119	10:13:39	2963241	3	3	3	3	3	3	3	2	3	7	6	2	0	0	0	4	5	0	0	0	0	0		1	0	0	0	0	0	0	0
011013	10:13:39	10018	Trial2BackFrS	NS	17	0	1000	1	119	10:13:39	2964747	3	3	3	3	3	3	3	2	3	7	6	2	0	0	0	4	5	0	0	0	0	0		1	0	0	0	0	0	0	0
011013	10:13:39	10018	Trial2BackFrS	NS	17	0	1000	1	119	10:13:39	2966253	3	3	3	3	3	3	3	2	3	7	6	2	0	0	0	4	5	0	0	0	0	0		1	0	0	0	0	0	0	0
011013	10:13:39	10018	Trial2BackFrS	YS	17	57	457	1	119	10:13:39	2967225	3	3	3	3	3	3	3	2	3	7	6	2	0	0	0	4	5	0	0	0	0	0		1	0	0	0	0	0	0	0
011013	10:13:39	10018	Trial2BackFrS	NS	17	0	1000	1	119	10:13:39	2969265	3	3	3	3	3	3	3	2	3	7	6	2	0	0	0	4	5	0	0	0	0	0		1	0	0	0	0	0	0	0
011013	10:13:39	10018	Trial2BackFrS	NS	17	0	1000	1	119	10:13:39	2970771	3	3	3	3	3	3	3	2	3	7	6	2	0	0	0	4	5	0	0	0	0	0		1	0	0	0	0	0	0	0
011013	10:13:39	10018	Trial2BackFrS	NS	17	0	1000	1	119	10:13:39	2972277	3	3	3	3	3	3	3	2	3	7	6	2	0	0	0	4	5	0	0	0	0	0		1	0	0	0	0	0	0	0
011013	10:13:39	10018	Trial2BackFrS	YS	17	57	561	1	119	10:13:39	2973357	3	3	3	3	3	3	3	2	3	7	6	2	0	0	0	4	5	0	0	0	0	0		1	0	0	0	0	0	0	0
011013	10:13:39	10018	Trial2BackFrS	NS	17	0	1000	1	119	10:13:39	2975289	3	3	3	3	3	3	3	2	3	7	6	2	0	0	0	4	5	0	0	0	0	0		1	0	0	0	0	0	0	0
011013	10:13:39	10018	Trial2BackFrS	NS	17	0	1000	1	119	10:13:39	2976795	3	3	3	3	3	3	3	2	3	7	6	2	0	0	0	4	5	0	0	0	0	0		1	0	0	0	0	0	0	0
011013	10:13:39	10018	Trial2BackFrS	NS	17	0	1000	1	119	10:13:39	2978301	3	3	3	3	3	3	3	2	3	7	6	2	0	0	0	4	5	0	0	0	0	0		1	0	0	0	0	0	0	0
011013	10:13:39	10018	Trial2BackFrS	NS	17	0	1000	1	119	10:13:39	2979807	3	3	3	3	3	3	3	2	3	7	6	2	0	0	0	4	5	0	0	0	0	0		1	0	0	0	0	0	0	0
011013	10:13:39	10018	Trial2BackFrS	NS	17	0	1000	1	119	10:13:39	2981313	3	3	3	3	3	3	3	2	3	7	6	2	0	0	0	4	5	0	0	0	0	0		1	0	0	0	0	0	0	0
011013	10:13:39	10018	Trial2BackFrS	NS	17	0	1000	1	119	10:13:39	2982819	3	3	3	3	3	3	3	2	3	7	6	2	0	0	0	4	5	0	0	0	0	0		1	0	0	0	0	0	0	0
011013	10:13:39	10018	Trial2BackFrS	NS	17	0	1000	1	119	10:13:39	2984339	3	3	3	3	3	3	3	2	3	7	6	2	0	0	0	4	5	0	0	0	0	0		1	0	0	0	0	0	0	0
011013	10:13:39	10018	Trial2BackFrS	YS	17	57	756	1	119	10:13:39	2985605	3	3	3	3	3	3	3	2	3	7	6	2	0	0	0	4	5	0	0	0	0	0		1	0	0	0	0	0	0	0
011013	10:13:39	10018	Trial2BackFrS	NS	17	0	1000	1	119	10:13:39	2987351	3	3	3	3	3	3	3	2	3	7	6	2	0	0	0	4	5	0	0	0	0	0		1	0	0	0	0	0	0	0
011013	10:13:39	10018	Trial2BackFrS	NS	17	0	1000	1	119	10:13:39	2988857	3	3	3	3	3	3	3	2	3	7	6	2	0	0	0	4	5	0	0	0	0	0		1	0	0	0	0	0	0	0
011013	10:13:39	10018	Trial2BackFrS	NS	17	57	717	0	119	10:13:39	2990083	3	3	3	3	3	3	3	2	3	7	6	2	0	0	0	4	5	0	0	0	0	0		1	0	0	0	0	0	0	0
011013	10:13:39	10018	Trial2BackFrS	NS	17	0	1000	1	119	10:13:39	2991869	3	3	3	3	3	3	3	2	3	7	6	2	0	0	0	4	5	0	0	0	0	0		1	0	0	0	0	0	0	0
011013	10:13:39	10018	Trial2BackFrS	YS	17	0	1000	0	119	10:13:39	2993388	3	3	3	3	3	3	3	2	3	7	6	2	0	0	0	4	5	0	0	0	0	0		1	0	0	0	0	0	0	0
011013	10:13:39	10018	Trial2BackFrS	NS	17	0	1000	1	119	10:13:39	2994894	3	3	3	3	3	3	3	2	3	7	6	2	0	0	0	4	5	0	0	0	0	0		1	0	0	0	0	0	0	0
011013	10:13:39	10018	Trial2BackFrS	NS	17	0	1000	1	119	10:13:39	2996400	3	3	3	3	3	3	3	2	3	7	6	2	0	0	0	4	5	0	0	0	0	0		1	0	0	0	0	0	0	0
011013	10:13:39	10018	Trial2BackFrS	NS	17	0	1000	1	119	10:13:39	2997906	3	3	3	3	3	3	3	2	3	7	6	2	0	0	0	4	5	0	0	0	0	0		1	0	0	0	0	0	0	0
011013	10:13:39	10018	Trial2BackFrS	NS	17	0	1000	1	119	10:13:39	2999413	3	3	3	3	3	3	3	2	3	7	6	2	0	0	0	4	5	0	0	0	0	0		1	0	0	0	0	0	0	0
011013	10:13:39	10018	Trial2BackFrS	NS	17	0	1000	1	119	10:13:39	3000919	3	3	3	3	3	3	3	2	3	7	6	2	0	0	0	4	5	0	0	0	0	0		1	0	0	0	0	0	0	0
011013	10:13:39	10018	Trial2BackFrS	NS	17	0	1000	1	119	10:13:39	3002438	3	3	3	3	3	3	3	2	3	7	6	2	0	0	0	4	5	0	0	0	0	0		1	0	0	0	0	0	0	0
011013	10:13:39	10018	Trial2BackFrS	YS	17	57	655	1	119	10:13:39	3003611	3	3	3	3	3	3	3	2	3	7	6	2	0	0	0	4	5	0	0	0	0	0		1	0	0	0	0	0	0	0
011013	10:13:39	10018	Trial2BackFrS	NS	17	0	1000	1	119	10:13:39	3005450	3	3	3	3	3	3	3	2	3	7	6	2	0	0	0	4	5	0	0	0	0	0		1	0	0	0	0	0	0	0
011013	10:13:39	10018	Trial2BackFrS	NS	17	0	1000	1	119	10:13:39	3006956	3	3	3	3	3	3	3	2	3	7	6	2	0	0	0	4	5	0	0	0	0	0		1	0	0	0	0	0	0	0
011013	10:13:39	10018	Trial2BackFrS	NS	17	0	1000	1	119	10:13:39	3008462	3	3	3	3	3	3	3	2	3	7	6	2	0	0	0	4	5	0	0	0	0	0		1	0	0	0	0	0	0	0
011013	10:13:39	10018	Trial2BackFrS	NS	17	0	1000	1	119	10:13:39	3009982	3	3	3	3	3	3	3	2	3	7	6	2	0	0	0	4	5	0	0	0	0	0		1	0	0	0	0	0	0	0
011013	10:13:39	10018	Trial2BackFrS	NS	17	0	1000	1	119	10:13:39	3011487	3	3	3	3	3	3	3	2	3	7	6	2	0	0	0	4	5	0	0	0	0	0		1	0	0	0	0	0	0	0
011013	10:13:39	10018	Trial2BackFrS	NS	17	0	1000	1	119	10:13:39	3012994	3	3	3	3	3	3	3	2	3	7	6	2	0	0	0	4	5	0	0	0	0	0		1	0	0	0	0	0	0	0
011013	10:13:39	10018	Trial2BackFrS	NS	17	0	1000	1	119	10:13:39	3014500	3	3	3	3	3	3	3	2	3	7	6	2	0	0	0	4	5	0	0	0	0	0		1	0	0	0	0	0	0	0
011013	10:13:39	10018	Trial2BackFrS	YS	17	57	593	1	119	10:13:39	3015606	3	3	3	3	3	3	3	2	3	7	6	2	0	0	0	4	5	0	0	0	0	0		1	0	0	0	0	0	0	0
011013	10:13:39	10018	Trial2BackFrS	NS	17	0	1000	1	119	10:13:39	3017512	3	3	3	3	3	3	3	2	3	7	6	2	0	0	0	4	5	0	0	0	0	0		1	0	0	0	0	0	0	0
011013	10:13:39	10018	Trial2BackFrS	NS	17	0	1000	1	119	10:13:39	3019018	3	3	3	3	3	3	3	2	3	7	6	2	0	0	0	4	5	0	0	0	0	0		1	0	0	0	0	0	0	0
011013	10:13:39	10018	Trial2BackFrS	NS	17	0	1000	1	119	10:13:39	3020524	3	3	3	3	3	3	3	2	3	7	6	2	0	0	0	4	5	0	0	0	0	0		1	0	0	0	0	0	0	0
011013	10:13:39	10018	Trial2BackFrS	NS	17	0	1000	1	119	10:13:39	3022030	3	3	3	3	3	3	3	2	3	7	6	2	0	0	0	4	5	0	0	0	0	0		1	0	0	0	0	0	0	0
