date	time	subject	blockcode	trialcode	values.TaskNumber	response	latency	correct	values.Score	script.starttime	script.elapsedtime	values.ScoreS7	values.Word1	values.Word2	values.Word3	values.Word4	values.Word5	values.Word6	values.Word7	values.Word8	values.DigitSpanFwrd	values.DigitSpanBack	values.ScoreAbs	values.Contour	values.Numbers	values.Hands	values.corsiblockspanFwrd	values.corsiblockspanRev
103112	13:42:35	10005	Language	Language	0	French	61515	0	0	13:42:35	61668	0	0	0	0	0	0	0	0	0	0	0	0	0	0	0	0	0
103112	13:42:35	10005	Session	Session	0	6mo	7447	0	0	13:42:35	69185	0	0	0	0	0	0	0	0	0	0	0	0	0	0	0	0	0
103112	13:42:35	10005	HandFr	HandFr	0	RightFr	1553534	0	0	13:42:35	1622781	0	0	0	0	0	0	0	0	0	0	0	0	0	0	0	0	0
103112	13:42:35	10005	AudioCheckFr	WordsFr	0	0	0	0	0	13:42:35	2759195	0	0	0	0	0	0	0	0	0	0	0	0	0	0	0	0	0
103112	13:42:35	10005	CubeFr	CubeFr	1	1Cube	78716	0	0	13:42:35	2839794	0	0	0	0	0	0	0	0	0	0	0	0	0	0	0	0	0
103112	13:42:35	10005	pm.simpleFrRight	blank.simpleFr	2	0	1600	1	0	13:42:35	2925413	0	0	0	0	0	0	0	0	0	0	0	0	0	0	0	0	0
103112	13:42:35	10005	pm.simpleFrRight	pm.simpleFr	2	57	618	0	0	13:42:35	2926052	0	0	0	0	0	0	0	0	0	0	0	0	0	0	0	0	0
103112	13:42:35	10005	pm.simpleFrRight	blank.simpleFr	2	0	1500	1	0	13:42:35	2927572	0	0	0	0	0	0	0	0	0	0	0	0	0	0	0	0	0
103112	13:42:35	10005	pm.simpleFrRight	pm.simpleFr	2	57	523	0	0	13:42:35	2928118	0	0	0	0	0	0	0	0	0	0	0	0	0	0	0	0	0
103112	13:42:35	10005	pm.simpleFrRight	blank.simpleFr	2	0	1900	1	0	13:42:35	2930038	0	0	0	0	0	0	0	0	0	0	0	0	0	0	0	0	0
103112	13:42:35	10005	pm.simpleFrRight	pm.simpleFr	2	57	266	0	0	13:42:35	2930331	0	0	0	0	0	0	0	0	0	0	0	0	0	0	0	0	0
103112	13:42:35	10005	pm.simpleFrRight	blank.simpleFr	2	0	2300	1	0	13:42:35	2932650	0	0	0	0	0	0	0	0	0	0	0	0	0	0	0	0	0
103112	13:42:35	10005	pm.simpleFrRight	pm.simpleFr	2	57	293	0	0	13:42:35	2932970	0	0	0	0	0	0	0	0	0	0	0	0	0	0	0	0	0
103112	13:42:35	10005	pm.simpleFrRight	blank.simpleFr	2	0	2500	1	0	13:42:35	2935489	0	0	0	0	0	0	0	0	0	0	0	0	0	0	0	0	0
103112	13:42:35	10005	pm.simpleFrRight	pm.simpleFr	2	57	270	0	0	13:42:35	2935782	0	0	0	0	0	0	0	0	0	0	0	0	0	0	0	0	0
103112	13:42:35	10005	pm.simpleFrRight	blank.simpleFr	2	0	2200	1	0	13:42:35	2937994	0	0	0	0	0	0	0	0	0	0	0	0	0	0	0	0	0
103112	13:42:35	10005	pm.simpleFrRight	pm.simpleFr	2	57	261	0	0	13:42:35	2938274	0	0	0	0	0	0	0	0	0	0	0	0	0	0	0	0	0
103112	13:42:35	10005	pm.simpleFrRight	blank.simpleFr	2	0	1700	1	0	13:42:35	2939994	0	0	0	0	0	0	0	0	0	0	0	0	0	0	0	0	0
103112	13:42:35	10005	pm.simpleFrRight	pm.simpleFr	2	57	309	0	0	13:42:35	2940327	0	0	0	0	0	0	0	0	0	0	0	0	0	0	0	0	0
103112	13:42:35	10005	pm.simpleFrRight	blank.simpleFr	2	0	1800	1	0	13:42:35	2942140	0	0	0	0	0	0	0	0	0	0	0	0	0	0	0	0	0
103112	13:42:35	10005	pm.simpleFrRight	pm.simpleFr	2	57	259	0	0	13:42:35	2942419	0	0	0	0	0	0	0	0	0	0	0	0	0	0	0	0	0
103112	13:42:35	10005	pm.simpleFrRight	blank.simpleFr	2	0	2400	1	0	13:42:35	2944832	0	0	0	0	0	0	0	0	0	0	0	0	0	0	0	0	0
103112	13:42:35	10005	pm.simpleFrRight	pm.simpleFr	2	57	255	0	0	13:42:35	2945112	0	0	0	0	0	0	0	0	0	0	0	0	0	0	0	0	0
103112	13:42:35	10005	pm.simpleFrRight	blank.simpleFr	2	0	2100	1	0	13:42:35	2947231	0	0	0	0	0	0	0	0	0	0	0	0	0	0	0	0	0
103112	13:42:35	10005	pm.simpleFrRight	pm.simpleFr	2	57	272	0	0	13:42:35	2947524	0	0	0	0	0	0	0	0	0	0	0	0	0	0	0	0	0
103112	13:42:35	10005	pm.simpleFrRight	blank.simpleFr	2	0	2000	1	0	13:42:35	2949536	0	0	0	0	0	0	0	0	0	0	0	0	0	0	0	0	0
103112	13:42:35	10005	pm.simpleFrRight	pm.simpleFr	2	57	270	0	0	13:42:35	2949829	0	0	0	0	0	0	0	0	0	0	0	0	0	0	0	0	0
103112	13:42:35	10005	pm.simpleFrRight	blank.simpleFr	2	0	1500	1	0	13:42:35	2951349	0	0	0	0	0	0	0	0	0	0	0	0	0	0	0	0	0
103112	13:42:35	10005	pm.simpleFrRight	pm.simpleFr	2	57	298	0	0	13:42:35	2951669	0	0	0	0	0	0	0	0	0	0	0	0	0	0	0	0	0
103112	13:42:35	10005	pm.simpleFrRight	blank.simpleFr	2	0	1700	1	0	13:42:35	2953388	0	0	0	0	0	0	0	0	0	0	0	0	0	0	0	0	0
103112	13:42:35	10005	pm.simpleFrRight	pm.simpleFr	2	57	274	0	0	13:42:35	2953681	0	0	0	0	0	0	0	0	0	0	0	0	0	0	0	0	0
103112	13:42:35	10005	pm.simpleFrRight	blank.simpleFr	2	0	2500	1	0	13:42:35	2956200	0	0	0	0	0	0	0	0	0	0	0	0	0	0	0	0	0
103112	13:42:35	10005	pm.simpleFrRight	pm.simpleFr	2	57	294	0	0	13:42:35	2956520	0	0	0	0	0	0	0	0	0	0	0	0	0	0	0	0	0
103112	13:42:35	10005	pm.simpleFrRight	blank.simpleFr	2	0	2200	1	0	13:42:35	2958732	0	0	0	0	0	0	0	0	0	0	0	0	0	0	0	0	0
103112	13:42:35	10005	pm.simpleFrRight	pm.simpleFr	2	57	258	0	0	13:42:35	2959013	0	0	0	0	0	0	0	0	0	0	0	0	0	0	0	0	0
103112	13:42:35	10005	pm.simpleFrRight	blank.simpleFr	2	0	2400	1	0	13:42:35	2961425	0	0	0	0	0	0	0	0	0	0	0	0	0	0	0	0	0
103112	13:42:35	10005	pm.simpleFrRight	pm.simpleFr	2	57	349	0	0	13:42:35	2961798	0	0	0	0	0	0	0	0	0	0	0	0	0	0	0	0	0
103112	13:42:35	10005	pm.simpleFrRight	blank.simpleFr	2	0	1800	1	0	13:42:35	2963611	0	0	0	0	0	0	0	0	0	0	0	0	0	0	0	0	0
103112	13:42:35	10005	pm.simpleFrRight	pm.simpleFr	2	57	260	0	0	13:42:35	2963891	0	0	0	0	0	0	0	0	0	0	0	0	0	0	0	0	0
103112	13:42:35	10005	pm.simpleFrRight	blank.simpleFr	2	0	1900	1	0	13:42:35	2965810	0	0	0	0	0	0	0	0	0	0	0	0	0	0	0	0	0
103112	13:42:35	10005	pm.simpleFrRight	pm.simpleFr	2	57	253	0	0	13:42:35	2966090	0	0	0	0	0	0	0	0	0	0	0	0	0	0	0	0	0
103112	13:42:35	10005	pm.simpleFrRight	blank.simpleFr	2	0	2100	1	0	13:42:35	2968209	0	0	0	0	0	0	0	0	0	0	0	0	0	0	0	0	0
103112	13:42:35	10005	pm.simpleFrRight	pm.simpleFr	2	57	237	0	0	13:42:35	2968475	0	0	0	0	0	0	0	0	0	0	0	0	0	0	0	0	0
103112	13:42:35	10005	pm.simpleFrRight	blank.simpleFr	2	0	2300	1	0	13:42:35	2970795	0	0	0	0	0	0	0	0	0	0	0	0	0	0	0	0	0
103112	13:42:35	10005	pm.simpleFrRight	pm.simpleFr	2	57	260	0	0	13:42:35	2971074	0	0	0	0	0	0	0	0	0	0	0	0	0	0	0	0	0
103112	13:42:35	10005	pm.simpleFrRight	blank.simpleFr	2	0	1600	1	0	13:42:35	2972687	0	0	0	0	0	0	0	0	0	0	0	0	0	0	0	0	0
103112	13:42:35	10005	pm.simpleFrRight	pm.simpleFr	2	57	271	0	0	13:42:35	2972980	0	0	0	0	0	0	0	0	0	0	0	0	0	0	0	0	0
103112	13:42:35	10005	pm.simpleFrRight	blank.simpleFr	2	0	2000	1	0	13:42:35	2974993	0	0	0	0	0	0	0	0	0	0	0	0	0	0	0	0	0
103112	13:42:35	10005	pm.simpleFrRight	pm.simpleFr	2	57	253	0	0	13:42:35	2975273	0	0	0	0	0	0	0	0	0	0	0	0	0	0	0	0	0
103112	13:42:35	10005	pm.simpleFrRight	blank.simpleFr	2	0	1800	1	0	13:42:35	2977085	0	0	0	0	0	0	0	0	0	0	0	0	0	0	0	0	0
103112	13:42:35	10005	pm.simpleFrRight	pm.simpleFr	2	57	305	0	0	13:42:35	2977418	0	0	0	0	0	0	0	0	0	0	0	0	0	0	0	0	0
103112	13:42:35	10005	pm.simpleFrRight	blank.simpleFr	2	0	1900	1	0	13:42:35	2979338	0	0	0	0	0	0	0	0	0	0	0	0	0	0	0	0	0
103112	13:42:35	10005	pm.simpleFrRight	pm.simpleFr	2	57	260	0	0	13:42:35	2979617	0	0	0	0	0	0	0	0	0	0	0	0	0	0	0	0	0
103112	13:42:35	10005	pm.simpleFrRight	blank.simpleFr	2	0	2100	1	0	13:42:35	2981737	0	0	0	0	0	0	0	0	0	0	0	0	0	0	0	0	0
103112	13:42:35	10005	pm.simpleFrRight	pm.simpleFr	2	57	244	0	0	13:42:35	2982003	0	0	0	0	0	0	0	0	0	0	0	0	0	0	0	0	0
103112	13:42:35	10005	pm.simpleFrRight	blank.simpleFr	2	0	2200	1	0	13:42:35	2984216	0	0	0	0	0	0	0	0	0	0	0	0	0	0	0	0	0
103112	13:42:35	10005	pm.simpleFrRight	pm.simpleFr	2	57	246	0	0	13:42:35	2984482	0	0	0	0	0	0	0	0	0	0	0	0	0	0	0	0	0
103112	13:42:35	10005	pm.simpleFrRight	blank.simpleFr	2	0	2300	1	0	13:42:35	2986801	0	0	0	0	0	0	0	0	0	0	0	0	0	0	0	0	0
103112	13:42:35	10005	pm.simpleFrRight	pm.simpleFr	2	57	301	0	0	13:42:35	2987121	0	0	0	0	0	0	0	0	0	0	0	0	0	0	0	0	0
103112	13:42:35	10005	pm.simpleFrRight	blank.simpleFr	2	0	1500	1	0	13:42:35	2988641	0	0	0	0	0	0	0	0	0	0	0	0	0	0	0	0	0
103112	13:42:35	10005	pm.simpleFrRight	pm.simpleFr	2	57	269	0	0	13:42:35	2988934	0	0	0	0	0	0	0	0	0	0	0	0	0	0	0	0	0
103112	13:42:35	10005	pm.simpleFrRight	blank.simpleFr	2	0	1600	1	0	13:42:35	2990546	0	0	0	0	0	0	0	0	0	0	0	0	0	0	0	0	0
103112	13:42:35	10005	pm.simpleFrRight	pm.simpleFr	2	57	251	0	0	13:42:35	2990826	0	0	0	0	0	0	0	0	0	0	0	0	0	0	0	0	0
103112	13:42:35	10005	pm.simpleFrRight	blank.simpleFr	2	0	2400	1	0	13:42:35	2993239	0	0	0	0	0	0	0	0	0	0	0	0	0	0	0	0	0
103112	13:42:35	10005	pm.simpleFrRight	pm.simpleFr	2	57	263	0	0	13:42:35	2993519	0	0	0	0	0	0	0	0	0	0	0	0	0	0	0	0	0
103112	13:42:35	10005	pm.simpleFrRight	blank.simpleFr	2	0	1700	1	0	13:42:35	2995238	0	0	0	0	0	0	0	0	0	0	0	0	0	0	0	0	0
103112	13:42:35	10005	pm.simpleFrRight	pm.simpleFr	2	57	280	0	0	13:42:35	2995544	0	0	0	0	0	0	0	0	0	0	0	0	0	0	0	0	0
103112	13:42:35	10005	pm.simpleFrRight	blank.simpleFr	2	0	2500	1	0	13:42:35	2998063	0	0	0	0	0	0	0	0	0	0	0	0	0	0	0	0	0
103112	13:42:35	10005	pm.simpleFrRight	pm.simpleFr	2	57	271	0	0	13:42:35	2998356	0	0	0	0	0	0	0	0	0	0	0	0	0	0	0	0	0
103112	13:42:35	10005	pm.simpleFrRight	blank.simpleFr	2	0	2000	1	0	13:42:35	3000369	0	0	0	0	0	0	0	0	0	0	0	0	0	0	0	0	0
103112	13:42:35	10005	pm.simpleFrRight	pm.simpleFr	2	57	316	0	0	13:42:35	3000702	0	0	0	0	0	0	0	0	0	0	0	0	0	0	0	0	0
103112	13:42:35	10005	pm.simpleFrRight	blank.simpleFr	2	0	1800	1	0	13:42:35	3002515	0	0	0	0	0	0	0	0	0	0	0	0	0	0	0	0	0
103112	13:42:35	10005	pm.simpleFrRight	pm.simpleFr	2	57	250	0	0	13:42:35	3002781	0	0	0	0	0	0	0	0	0	0	0	0	0	0	0	0	0
103112	13:42:35	10005	pm.simpleFrRight	blank.simpleFr	2	0	1900	1	0	13:42:35	3004701	0	0	0	0	0	0	0	0	0	0	0	0	0	0	0	0	0
103112	13:42:35	10005	pm.simpleFrRight	pm.simpleFr	2	57	272	0	0	13:42:35	3004994	0	0	0	0	0	0	0	0	0	0	0	0	0	0	0	0	0
103112	13:42:35	10005	pm.simpleFrRight	blank.simpleFr	2	0	2300	1	0	13:42:35	3007313	0	0	0	0	0	0	0	0	0	0	0	0	0	0	0	0	0
103112	13:42:35	10005	pm.simpleFrRight	pm.simpleFr	2	57	220	0	0	13:42:35	3007553	0	0	0	0	0	0	0	0	0	0	0	0	0	0	0	0	0
103112	13:42:35	10005	pm.simpleFrRight	blank.simpleFr	2	0	1500	1	0	13:42:35	3009072	0	0	0	0	0	0	0	0	0	0	0	0	0	0	0	0	0
103112	13:42:35	10005	pm.simpleFrRight	pm.simpleFr	2	57	285	0	0	13:42:35	3009379	0	0	0	0	0	0	0	0	0	0	0	0	0	0	0	0	0
103112	13:42:35	10005	pm.simpleFrRight	blank.simpleFr	2	0	2200	1	0	13:42:35	3011591	0	0	0	0	0	0	0	0	0	0	0	0	0	0	0	0	0
103112	13:42:35	10005	pm.simpleFrRight	pm.simpleFr	2	57	294	0	0	13:42:35	3011911	0	0	0	0	0	0	0	0	0	0	0	0	0	0	0	0	0
103112	13:42:35	10005	pm.simpleFrRight	blank.simpleFr	2	0	1700	1	0	13:42:35	3013630	0	0	0	0	0	0	0	0	0	0	0	0	0	0	0	0	0
103112	13:42:35	10005	pm.simpleFrRight	pm.simpleFr	2	57	255	0	0	13:42:35	3013910	0	0	0	0	0	0	0	0	0	0	0	0	0	0	0	0	0
103112	13:42:35	10005	pm.simpleFrRight	blank.simpleFr	2	0	2500	1	0	13:42:35	3016429	0	0	0	0	0	0	0	0	0	0	0	0	0	0	0	0	0
103112	13:42:35	10005	pm.simpleFrRight	pm.simpleFr	2	57	256	0	0	13:42:35	3016709	0	0	0	0	0	0	0	0	0	0	0	0	0	0	0	0	0
103112	13:42:35	10005	Trial2BackFr	N	3	0	1000	1	1	13:42:35	3141632	0	0	0	0	0	0	0	0	0	0	0	0	0	0	0	0	0
103112	13:42:35	10005	Trial2BackFr	N	3	0	1000	1	2	13:42:35	3143152	0	0	0	0	0	0	0	0	0	0	0	0	0	0	0	0	0
103112	13:42:35	10005	Trial2BackFr	N	3	0	1000	1	3	13:42:35	3144671	0	0	0	0	0	0	0	0	0	0	0	0	0	0	0	0	0
103112	13:42:35	10005	Trial2BackFr	N	3	0	1000	1	4	13:42:35	3146177	0	0	0	0	0	0	0	0	0	0	0	0	0	0	0	0	0
103112	13:42:35	10005	Trial2BackFr	N	3	0	1000	1	5	13:42:35	3147683	0	0	0	0	0	0	0	0	0	0	0	0	0	0	0	0	0
103112	13:42:35	10005	Trial2BackFr	N	3	0	1000	1	6	13:42:35	3149202	0	0	0	0	0	0	0	0	0	0	0	0	0	0	0	0	0
103112	13:42:35	10005	Trial2BackFr	N	3	0	1000	1	7	13:42:35	3150708	0	0	0	0	0	0	0	0	0	0	0	0	0	0	0	0	0
103112	13:42:35	10005	Trial2BackFr	N	3	0	1000	1	8	13:42:35	3152214	0	0	0	0	0	0	0	0	0	0	0	0	0	0	0	0	0
103112	13:42:35	10005	Trial2BackFr	Y	3	0	1000	0	8	13:42:35	3153721	0	0	0	0	0	0	0	0	0	0	0	0	0	0	0	0	0
103112	13:42:35	10005	Trial2BackFr	N	3	0	1000	1	9	13:42:35	3155226	0	0	0	0	0	0	0	0	0	0	0	0	0	0	0	0	0
103112	13:42:35	10005	Trial2BackFr	N	3	0	1000	1	10	13:42:35	3156733	0	0	0	0	0	0	0	0	0	0	0	0	0	0	0	0	0
103112	13:42:35	10005	Trial2BackFr	N	3	0	1000	1	11	13:42:35	3158239	0	0	0	0	0	0	0	0	0	0	0	0	0	0	0	0	0
103112	13:42:35	10005	Trial2BackFr	Y	3	57	784	1	12	13:42:35	3159531	0	0	0	0	0	0	0	0	0	0	0	0	0	0	0	0	0
103112	13:42:35	10005	Trial2BackFr	N	3	0	1000	1	13	13:42:35	3161251	0	0	0	0	0	0	0	0	0	0	0	0	0	0	0	0	0
103112	13:42:35	10005	Trial2BackFr	N	3	0	1000	1	14	13:42:35	3162757	0	0	0	0	0	0	0	0	0	0	0	0	0	0	0	0	0
103112	13:42:35	10005	Trial2BackFr	N	3	0	1000	1	15	13:42:35	3164263	0	0	0	0	0	0	0	0	0	0	0	0	0	0	0	0	0
103112	13:42:35	10005	Trial2BackFr	N	3	0	1000	1	16	13:42:35	3165769	0	0	0	0	0	0	0	0	0	0	0	0	0	0	0	0	0
103112	13:42:35	10005	Trial2BackFr	N	3	0	1000	1	17	13:42:35	3167275	0	0	0	0	0	0	0	0	0	0	0	0	0	0	0	0	0
103112	13:42:35	10005	Trial2BackFr	Y	3	0	1000	0	17	13:42:35	3168781	0	0	0	0	0	0	0	0	0	0	0	0	0	0	0	0	0
103112	13:42:35	10005	Trial2BackFr	N	3	57	705	0	17	13:42:35	3169994	0	0	0	0	0	0	0	0	0	0	0	0	0	0	0	0	0
103112	13:42:35	10005	Trial2BackFr	N	3	0	1000	1	18	13:42:35	3171793	0	0	0	0	0	0	0	0	0	0	0	0	0	0	0	0	0
103112	13:42:35	10005	Trial2BackFr	N	3	0	1000	1	19	13:42:35	3173299	0	0	0	0	0	0	0	0	0	0	0	0	0	0	0	0	0
103112	13:42:35	10005	Trial2BackFr	N	3	0	1000	1	20	13:42:35	3174805	0	0	0	0	0	0	0	0	0	0	0	0	0	0	0	0	0
103112	13:42:35	10005	Trial2BackFr	Y	3	57	456	1	21	13:42:35	3175778	0	0	0	0	0	0	0	0	0	0	0	0	0	0	0	0	0
103112	13:42:35	10005	Trial2BackFr	N	3	0	1000	1	22	13:42:35	3177817	0	0	0	0	0	0	0	0	0	0	0	0	0	0	0	0	0
103112	13:42:35	10005	Trial2BackFr	N	3	0	1000	1	23	13:42:35	3179323	0	0	0	0	0	0	0	0	0	0	0	0	0	0	0	0	0
103112	13:42:35	10005	Trial2BackFr	N	3	0	1000	1	24	13:42:35	3180843	0	0	0	0	0	0	0	0	0	0	0	0	0	0	0	0	0
103112	13:42:35	10005	Trial2BackFr	N	3	0	1000	1	25	13:42:35	3182349	0	0	0	0	0	0	0	0	0	0	0	0	0	0	0	0	0
103112	13:42:35	10005	Trial2BackFr	N	3	0	1000	1	26	13:42:35	3183855	0	0	0	0	0	0	0	0	0	0	0	0	0	0	0	0	0
103112	13:42:35	10005	Trial2BackFr	N	3	0	1000	1	27	13:42:35	3185361	0	0	0	0	0	0	0	0	0	0	0	0	0	0	0	0	0
103112	13:42:35	10005	Trial2BackFr	Y	3	0	1000	0	27	13:42:35	3186867	0	0	0	0	0	0	0	0	0	0	0	0	0	0	0	0	0
103112	13:42:35	10005	Trial2BackFr	N	3	0	1000	1	28	13:42:35	3188373	0	0	0	0	0	0	0	0	0	0	0	0	0	0	0	0	0
103112	13:42:35	10005	Trial2BackFr	N	3	0	1000	1	29	13:42:35	3189879	0	0	0	0	0	0	0	0	0	0	0	0	0	0	0	0	0
103112	13:42:35	10005	Trial2BackFr	N	3	0	1000	1	30	13:42:35	3191385	0	0	0	0	0	0	0	0	0	0	0	0	0	0	0	0	0
103112	13:42:35	10005	Trial2BackFr	Y	3	0	1000	0	30	13:42:35	3192891	0	0	0	0	0	0	0	0	0	0	0	0	0	0	0	0	0
103112	13:42:35	10005	Trial2BackFr	N	3	0	1000	1	31	13:42:35	3194397	0	0	0	0	0	0	0	0	0	0	0	0	0	0	0	0	0
103112	13:42:35	10005	Trial2BackFr	N	3	0	1000	1	32	13:42:35	3195917	0	0	0	0	0	0	0	0	0	0	0	0	0	0	0	0	0
103112	13:42:35	10005	Trial2BackFr	N	3	0	1000	1	33	13:42:35	3197423	0	0	0	0	0	0	0	0	0	0	0	0	0	0	0	0	0
103112	13:42:35	10005	Trial2BackFr	N	3	0	1000	1	34	13:42:35	3198929	0	0	0	0	0	0	0	0	0	0	0	0	0	0	0	0	0
103112	13:42:35	10005	Trial2BackFr	N	3	0	1000	1	35	13:42:35	3200448	0	0	0	0	0	0	0	0	0	0	0	0	0	0	0	0	0
103112	13:42:35	10005	Trial2BackFr	N	3	57	717	0	35	13:42:35	3201674	0	0	0	0	0	0	0	0	0	0	0	0	0	0	0	0	0
103112	13:42:35	10005	Trial2BackFr	Y	3	0	1000	0	35	13:42:35	3203460	0	0	0	0	0	0	0	0	0	0	0	0	0	0	0	0	0
103112	13:42:35	10005	Trial2BackFr	N	3	0	1000	1	36	13:42:35	3204966	0	0	0	0	0	0	0	0	0	0	0	0	0	0	0	0	0
103112	13:42:35	10005	Trial2BackFr	N	3	0	1000	1	37	13:42:35	3206486	0	0	0	0	0	0	0	0	0	0	0	0	0	0	0	0	0
103112	13:42:35	10005	Trial2BackFr	N	3	0	1000	1	38	13:42:35	3207992	0	0	0	0	0	0	0	0	0	0	0	0	0	0	0	0	0
103112	13:42:35	10005	Trial2BackFr	N	3	0	1000	1	39	13:42:35	3209498	0	0	0	0	0	0	0	0	0	0	0	0	0	0	0	0	0
103112	13:42:35	10005	Trial2BackFr	Y	3	0	1000	0	39	13:42:35	3211004	0	0	0	0	0	0	0	0	0	0	0	0	0	0	0	0	0
103112	13:42:35	10005	Trial2BackFr	N	3	0	1000	1	40	13:42:35	3212510	0	0	0	0	0	0	0	0	0	0	0	0	0	0	0	0	0
103112	13:42:35	10005	Trial2BackFr	N	3	0	1000	1	41	13:42:35	3214016	0	0	0	0	0	0	0	0	0	0	0	0	0	0	0	0	0
103112	13:42:35	10005	Trial2BackFr	N	3	0	1000	1	42	13:42:35	3215522	0	0	0	0	0	0	0	0	0	0	0	0	0	0	0	0	0
103112	13:42:35	10005	Trial2BackFr	N	3	0	1000	1	43	13:42:35	3217028	0	0	0	0	0	0	0	0	0	0	0	0	0	0	0	0	0
103112	13:42:35	10005	Trial2BackFr	N	3	0	1000	1	44	13:42:35	3218534	0	0	0	0	0	0	0	0	0	0	0	0	0	0	0	0	0
103112	13:42:35	10005	Trial2BackFr	Y	3	0	1000	0	44	13:42:35	3220040	0	0	0	0	0	0	0	0	0	0	0	0	0	0	0	0	0
103112	13:42:35	10005	Trial2BackFr	N	3	0	1000	1	45	13:42:35	3221546	0	0	0	0	0	0	0	0	0	0	0	0	0	0	0	0	0
103112	13:42:35	10005	Trial2BackFr	N	3	0	1000	1	46	13:42:35	3223052	0	0	0	0	0	0	0	0	0	0	0	0	0	0	0	0	0
103112	13:42:35	10005	Trial2BackFr	N	3	0	1000	1	47	13:42:35	3224558	0	0	0	0	0	0	0	0	0	0	0	0	0	0	0	0	0
103112	13:42:35	10005	Trial2BackFr	N	3	0	1000	1	48	13:42:35	3226064	0	0	0	0	0	0	0	0	0	0	0	0	0	0	0	0	0
103112	13:42:35	10005	Trial2BackFr	N	3	0	1000	1	49	13:42:35	3227570	0	0	0	0	0	0	0	0	0	0	0	0	0	0	0	0	0
103112	13:42:35	10005	Trial2BackFr	N	3	0	1000	1	50	13:42:35	3229077	0	0	0	0	0	0	0	0	0	0	0	0	0	0	0	0	0
103112	13:42:35	10005	Trial2BackFr	Y	3	57	472	1	51	13:42:35	3230063	0	0	0	0	0	0	0	0	0	0	0	0	0	0	0	0	0
103112	13:42:35	10005	Trial2BackFr	N	3	0	1000	1	52	13:42:35	3232089	0	0	0	0	0	0	0	0	0	0	0	0	0	0	0	0	0
103112	13:42:35	10005	Trial2BackFr	N	3	0	1000	1	53	13:42:35	3233595	0	0	0	0	0	0	0	0	0	0	0	0	0	0	0	0	0
103112	13:42:35	10005	Trial2BackFr	Y	3	57	802	1	54	13:42:35	3234914	0	0	0	0	0	0	0	0	0	0	0	0	0	0	0	0	0
103112	13:42:35	10005	Trial2BackFr	N	3	0	1000	1	55	13:42:35	3236607	0	0	0	0	0	0	0	0	0	0	0	0	0	0	0	0	0
103112	13:42:35	10005	Trial2BackFr	N	3	0	1000	1	56	13:42:35	3238113	0	0	0	0	0	0	0	0	0	0	0	0	0	0	0	0	0
103112	13:42:35	10005	Trial2BackFr	N	3	0	1000	1	57	13:42:35	3239619	0	0	0	0	0	0	0	0	0	0	0	0	0	0	0	0	0
103112	13:42:35	10005	Trial2BackFr	N	3	0	1000	1	58	13:42:35	3241125	0	0	0	0	0	0	0	0	0	0	0	0	0	0	0	0	0
103112	13:42:35	10005	Trial2BackFr	N	3	0	1000	1	59	13:42:35	3242644	0	0	0	0	0	0	0	0	0	0	0	0	0	0	0	0	0
103112	13:42:35	10005	Trial2BackFr	N	3	0	1000	1	60	13:42:35	3244150	0	0	0	0	0	0	0	0	0	0	0	0	0	0	0	0	0
103112	13:42:35	10005	Trial2BackFr	N	3	0	1000	1	61	13:42:35	3245656	0	0	0	0	0	0	0	0	0	0	0	0	0	0	0	0	0
103112	13:42:35	10005	Trial2BackFr	N	3	57	19	0	61	13:42:35	3246189	0	0	0	0	0	0	0	0	0	0	0	0	0	0	0	0	0
103112	13:42:35	10005	Trial2BackFr	N	3	0	1000	1	62	13:42:35	3248669	0	0	0	0	0	0	0	0	0	0	0	0	0	0	0	0	0
103112	13:42:35	10005	Trial2BackFr	N	3	0	1000	1	63	13:42:35	3250175	0	0	0	0	0	0	0	0	0	0	0	0	0	0	0	0	0
103112	13:42:35	10005	Trial2BackFr	Y	3	57	637	1	64	13:42:35	3251321	0	0	0	0	0	0	0	0	0	0	0	0	0	0	0	0	0
103112	13:42:35	10005	Trial2BackFr	N	3	0	1000	1	65	13:42:35	3253187	0	0	0	0	0	0	0	0	0	0	0	0	0	0	0	0	0
103112	13:42:35	10005	Trial2BackFr	N	3	0	1000	1	66	13:42:35	3254706	0	0	0	0	0	0	0	0	0	0	0	0	0	0	0	0	0
103112	13:42:35	10005	Trial2BackFr	N	3	0	1000	1	67	13:42:35	3256212	0	0	0	0	0	0	0	0	0	0	0	0	0	0	0	0	0
103112	13:42:35	10005	Trial2BackFr	Y	3	57	951	1	68	13:42:35	3257678	0	0	0	0	0	0	0	0	0	0	0	0	0	0	0	0	0
103112	13:42:35	10005	Trial2BackFr	N	3	0	1000	1	69	13:42:35	3259224	0	0	0	0	0	0	0	0	0	0	0	0	0	0	0	0	0
103112	13:42:35	10005	Trial2BackFr	N	3	0	1000	1	70	13:42:35	3260744	0	0	0	0	0	0	0	0	0	0	0	0	0	0	0	0	0
103112	13:42:35	10005	Trial2BackFr	N	3	0	1000	1	71	13:42:35	3262250	0	0	0	0	0	0	0	0	0	0	0	0	0	0	0	0	0
103112	13:42:35	10005	Trial2BackFr	N	3	0	1000	1	72	13:42:35	3263756	0	0	0	0	0	0	0	0	0	0	0	0	0	0	0	0	0
103112	13:42:35	10005	Trial2BackFr	N	3	0	1000	1	73	13:42:35	3265262	0	0	0	0	0	0	0	0	0	0	0	0	0	0	0	0	0
103112	13:42:35	10005	Trial2BackFr	Y	3	57	622	1	74	13:42:35	3266394	0	0	0	0	0	0	0	0	0	0	0	0	0	0	0	0	0
103112	13:42:35	10005	Trial2BackFr	N	3	0	1000	1	75	13:42:35	3268274	0	0	0	0	0	0	0	0	0	0	0	0	0	0	0	0	0
103112	13:42:35	10005	Trial2BackFr	N	3	0	1000	1	76	13:42:35	3269780	0	0	0	0	0	0	0	0	0	0	0	0	0	0	0	0	0
103112	13:42:35	10005	Trial2BackFr	N	3	0	1000	1	77	13:42:35	3271286	0	0	0	0	0	0	0	0	0	0	0	0	0	0	0	0	0
103112	13:42:35	10005	Trial2BackFr	N	3	0	1000	1	78	13:42:35	3272792	0	0	0	0	0	0	0	0	0	0	0	0	0	0	0	0	0
103112	13:42:35	10005	Trial2BackFr	N	3	0	1000	1	79	13:42:35	3274298	0	0	0	0	0	0	0	0	0	0	0	0	0	0	0	0	0
103112	13:42:35	10005	Trial2BackFr	N	3	0	1000	1	80	13:42:35	3275804	0	0	0	0	0	0	0	0	0	0	0	0	0	0	0	0	0
103112	13:42:35	10005	Trial2BackFr	N	3	0	1000	1	81	13:42:35	3277324	0	0	0	0	0	0	0	0	0	0	0	0	0	0	0	0	0
103112	13:42:35	10005	Trial2BackFr	N	3	0	1000	1	82	13:42:35	3278830	0	0	0	0	0	0	0	0	0	0	0	0	0	0	0	0	0
103112	13:42:35	10005	Trial2BackFr	N	3	0	1000	1	83	13:42:35	3280336	0	0	0	0	0	0	0	0	0	0	0	0	0	0	0	0	0
103112	13:42:35	10005	Trial2BackFr	Y	3	57	747	1	84	13:42:35	3281602	0	0	0	0	0	0	0	0	0	0	0	0	0	0	0	0	0
103112	13:42:35	10005	Trial2BackFr	N	3	0	1000	1	85	13:42:35	3283348	0	0	0	0	0	0	0	0	0	0	0	0	0	0	0	0	0
103112	13:42:35	10005	Trial2BackFr	N	3	0	1000	1	86	13:42:35	3284854	0	0	0	0	0	0	0	0	0	0	0	0	0	0	0	0	0
103112	13:42:35	10005	Trial2BackFr	N	3	0	1000	1	87	13:42:35	3286360	0	0	0	0	0	0	0	0	0	0	0	0	0	0	0	0	0
103112	13:42:35	10005	Trial2BackFr	N	3	0	1000	1	88	13:42:35	3287866	0	0	0	0	0	0	0	0	0	0	0	0	0	0	0	0	0
103112	13:42:35	10005	Trial2BackFr	N	3	0	1000	1	89	13:42:35	3289372	0	0	0	0	0	0	0	0	0	0	0	0	0	0	0	0	0
103112	13:42:35	10005	Trial2BackFr	N	3	0	1000	1	90	13:42:35	3290878	0	0	0	0	0	0	0	0	0	0	0	0	0	0	0	0	0
103112	13:42:35	10005	Trial2BackFr	N	3	0	1000	1	91	13:42:35	3292384	0	0	0	0	0	0	0	0	0	0	0	0	0	0	0	0	0
103112	13:42:35	10005	Trial2BackFr	N	3	0	1000	1	92	13:42:35	3293890	0	0	0	0	0	0	0	0	0	0	0	0	0	0	0	0	0
103112	13:42:35	10005	Trial2BackFr	Y	3	0	1000	0	92	13:42:35	3295396	0	0	0	0	0	0	0	0	0	0	0	0	0	0	0	0	0
103112	13:42:35	10005	Trial2BackFr	N	3	0	1000	1	93	13:42:35	3296902	0	0	0	0	0	0	0	0	0	0	0	0	0	0	0	0	0
103112	13:42:35	10005	Trial2BackFr	N	3	0	1000	1	94	13:42:35	3298408	0	0	0	0	0	0	0	0	0	0	0	0	0	0	0	0	0
103112	13:42:35	10005	Trial2BackFr	N	3	0	1000	1	95	13:42:35	3299915	0	0	0	0	0	0	0	0	0	0	0	0	0	0	0	0	0
103112	13:42:35	10005	Trial2BackFr	N	3	0	1000	1	96	13:42:35	3301421	0	0	0	0	0	0	0	0	0	0	0	0	0	0	0	0	0
103112	13:42:35	10005	Trial2BackFr	Y	3	0	1000	0	96	13:42:35	3302927	0	0	0	0	0	0	0	0	0	0	0	0	0	0	0	0	0
103112	13:42:35	10005	Trial2BackFr	N	3	0	1000	1	97	13:42:35	3304433	0	0	0	0	0	0	0	0	0	0	0	0	0	0	0	0	0
103112	13:42:35	10005	Trial2BackFr	N	3	0	1000	1	98	13:42:35	3305939	0	0	0	0	0	0	0	0	0	0	0	0	0	0	0	0	0
103112	13:42:35	10005	Trial2BackFr	N	3	0	1000	1	99	13:42:35	3307445	0	0	0	0	0	0	0	0	0	0	0	0	0	0	0	0	0
103112	13:42:35	10005	Trial2BackFr	Y	3	57	902	1	100	13:42:35	3308858	0	0	0	0	0	0	0	0	0	0	0	0	0	0	0	0	0
103112	13:42:35	10005	Trial2BackFr	N	3	0	1000	1	101	13:42:35	3310457	0	0	0	0	0	0	0	0	0	0	0	0	0	0	0	0	0
103112	13:42:35	10005	Trial2BackFr	N	3	0	1000	1	102	13:42:35	3311963	0	0	0	0	0	0	0	0	0	0	0	0	0	0	0	0	0
103112	13:42:35	10005	Trial2BackFr	N	3	0	1000	1	103	13:42:35	3313469	0	0	0	0	0	0	0	0	0	0	0	0	0	0	0	0	0
103112	13:42:35	10005	Trial2BackFr	N	3	0	1000	1	104	13:42:35	3314988	0	0	0	0	0	0	0	0	0	0	0	0	0	0	0	0	0
103112	13:42:35	10005	Trial2BackFr	N	3	0	1000	1	105	13:42:35	3316495	0	0	0	0	0	0	0	0	0	0	0	0	0	0	0	0	0
103112	13:42:35	10005	Trial2BackFr	Y	3	0	1000	0	105	13:42:35	3318001	0	0	0	0	0	0	0	0	0	0	0	0	0	0	0	0	0
103112	13:42:35	10005	Trial2BackFr	N	3	0	1000	1	106	13:42:35	3319507	0	0	0	0	0	0	0	0	0	0	0	0	0	0	0	0	0
103112	13:42:35	10005	Trial2BackFr	N	3	0	1000	1	107	13:42:35	3321013	0	0	0	0	0	0	0	0	0	0	0	0	0	0	0	0	0
103112	13:42:35	10005	Trial2BackFr	N	3	0	1000	1	108	13:42:35	3322519	0	0	0	0	0	0	0	0	0	0	0	0	0	0	0	0	0
103112	13:42:35	10005	Trial2BackFr	Y	3	0	1000	0	108	13:42:35	3324025	0	0	0	0	0	0	0	0	0	0	0	0	0	0	0	0	0
103112	13:42:35	10005	Memory1R6moFr	ScoreFr	5	M1	13307	0	108	13:42:35	3365408	0	0	0	0	0	0	0	0	0	0	0	0	0	0	0	0	0
103112	13:42:35	10005	Memory1R6moFr	ScoreFr	5	M2	201	0	108	13:42:35	3365661	0	0	0	0	0	0	0	0	0	0	0	0	0	0	0	0	0
103112	13:42:35	10005	Memory1R6moFr	ScoreFr	5	M7	619	0	108	13:42:35	3366328	0	0	0	0	0	0	0	0	0	0	0	0	0	0	0	0	0
103112	13:42:35	10005	Memory1R6moFr	ScoreFr	5	M8	201	0	108	13:42:35	3366581	0	0	0	0	0	0	0	0	0	0	0	0	0	0	0	0	0
103112	13:42:35	10005	Memory1R6moFr	ScoreFr	5	M5	2028	0	108	13:42:35	3368660	0	0	0	0	0	0	0	0	0	0	0	0	0	0	0	0	0
103112	13:42:35	10005	Memory1R6moFr	ScoreFr	5	Done	11628	0	108	13:42:35	3380376	0	0	0	0	0	0	0	0	0	0	0	0	0	0	0	0	0
103112	13:42:35	10005	Memory2R6moFr	ScoreFr2	5	11	13885	0	108	13:42:35	3411816	0	0	0	0	0	0	0	0	0	0	0	0	0	0	0	0	0
103112	13:42:35	10005	Memory2R6moFr	ScoreFr2	5	22	184	0	108	13:42:35	3412056	0	0	0	0	0	0	0	0	0	0	0	0	0	0	0	0	0
103112	13:42:35	10005	Memory2R6moFr	ScoreFr2	5	55	2184	0	108	13:42:35	3414295	0	0	0	0	0	0	0	0	0	0	0	0	0	0	0	0	0
103112	13:42:35	10005	Memory2R6moFr	ScoreFr2	5	77	643	0	108	13:42:35	3415002	0	0	0	0	0	0	0	0	0	0	0	0	0	0	0	0	0
103112	13:42:35	10005	Memory2R6moFr	ScoreFr2	5	88	182	0	108	13:42:35	3415228	0	0	0	0	0	0	0	0	0	0	0	0	0	0	0	0	0
103112	13:42:35	10005	Memory2R6moFr	ScoreFr2	5	Done	21235	0	108	13:42:35	3436513	0	0	0	0	0	0	0	0	0	0	0	0	0	0	0	0	0
103112	13:42:35	10005	Memory3R6moFr	ScoreFr3	5	111	14762	0	108	13:42:35	3468540	0	0	0	0	0	0	0	0	0	0	0	0	0	0	0	0	0
103112	13:42:35	10005	Memory3R6moFr	ScoreFr3	5	222	202	0	108	13:42:35	3468793	0	0	0	0	0	0	0	0	0	0	0	0	0	0	0	0	0
103112	13:42:35	10005	Memory3R6moFr	ScoreFr3	5	333	213	0	108	13:42:35	3469060	0	0	0	0	0	0	0	0	0	0	0	0	0	0	0	0	0
103112	13:42:35	10005	Memory3R6moFr	ScoreFr3	5	555	2429	0	108	13:42:35	3471552	0	0	0	0	0	0	0	0	0	0	0	0	0	0	0	0	0
103112	13:42:35	10005	Memory3R6moFr	ScoreFr3	5	777	207	0	108	13:42:35	3471805	0	0	0	0	0	0	0	0	0	0	0	0	0	0	0	0	0
103112	13:42:35	10005	Memory3R6moFr	ScoreFr3	5	666	393	0	108	13:42:35	3472245	0	0	0	0	0	0	0	0	0	0	0	0	0	0	0	0	0
103112	13:42:35	10005	Memory3R6moFr	ScoreFr3	5	Done	21145	0	108	13:42:35	3493436	0	0	0	0	0	0	0	0	0	0	0	0	0	0	0	0	0
103112	13:42:35	10005	LoriaFrLH3	Stop	6	3	3155	0	108	13:42:35	3569167	0	0	0	0	0	0	0	0	0	0	0	0	0	0	0	0	0
103112	13:42:35	10005	FrTrail	Trails	7	2Trails	1034	0	108	13:42:35	3613201	0	0	0	0	0	0	0	0	0	0	0	0	0	0	0	0	0
103112	13:42:35	10005	Serial7Fr6mo	Serial7Fr6mo	8	73	4829	0	108	13:42:35	3680921	1	0	0	0	0	0	0	0	0	0	0	0	0	0	0	0	0
103112	13:42:35	10005	Serial7Fr6mo	Serial7Fr6mo	8	66	6315	0	108	13:42:35	3687253	2	0	0	0	0	0	0	0	0	0	0	0	0	0	0	0	0
103112	13:42:35	10005	Serial7Fr6mo	Serial7Fr6mo	8	59	4689	0	108	13:42:35	3691960	3	0	0	0	0	0	0	0	0	0	0	0	0	0	0	0	0
103112	13:42:35	10005	Serial7Fr6mo	Serial7Fr6mo	8	52	2725	0	108	13:42:35	3694704	4	0	0	0	0	0	0	0	0	0	0	0	0	0	0	0	0
103112	13:42:35	10005	Serial7Fr6mo	Serial7Fr6mo	8	47	2990	0	108	13:42:35	3697716	4	0	0	0	0	0	0	0	0	0	0	0	0	0	0	0	0
103112	13:42:35	10005	corsiblockFrFwrd	recallseqFrFwrd	9	8	8199	0	108	13:42:35	3783628	4	0	0	0	0	0	0	0	0	0	0	0	0	0	0	0	0
103112	13:42:35	10005	corsiblockFrFwrd	recallseqFrFwrd	9	7	2045	0	108	13:42:35	3785720	4	0	0	0	0	0	0	0	0	0	0	0	0	0	0	0	0
103112	13:42:35	10005	corsiblockFrFwrd	recallseqFrFwrd	9	doneCorsiFr	3208	0	108	13:42:35	3788986	4	0	0	0	0	0	0	0	0	0	0	0	0	0	0	2	0
103112	13:42:35	10005	corsiblockFrFwrd	recallseqFrFwrd	9	9	2713	0	108	13:42:35	3797822	4	0	0	0	0	0	0	0	0	0	0	0	0	0	0	2	0
103112	13:42:35	10005	corsiblockFrFwrd	recallseqFrFwrd	9	6	1491	0	108	13:42:35	3799368	4	0	0	0	0	0	0	0	0	0	0	0	0	0	0	2	0
103112	13:42:35	10005	corsiblockFrFwrd	recallseqFrFwrd	9	doneCorsiFr	1395	0	108	13:42:35	3800821	4	0	0	0	0	0	0	0	0	0	0	0	0	0	0	2	0
103112	13:42:35	10005	corsiblockFrFwrd	recallseqFrFwrd	9	1	2566	0	108	13:42:35	3809471	4	0	0	0	0	0	0	0	0	0	0	0	0	0	0	2	0
103112	13:42:35	10005	corsiblockFrFwrd	recallseqFrFwrd	9	3	2354	0	108	13:42:35	3811870	4	0	0	0	0	0	0	0	0	0	0	0	0	0	0	2	0
103112	13:42:35	10005	corsiblockFrFwrd	recallseqFrFwrd	9	4	1130	0	108	13:42:35	3813056	4	0	0	0	0	0	0	0	0	0	0	0	0	0	0	2	0
103112	13:42:35	10005	corsiblockFrFwrd	recallseqFrFwrd	9	doneCorsiFr	1800	0	108	13:42:35	3814908	4	0	0	0	0	0	0	0	0	0	0	0	0	0	0	3	0
103112	13:42:35	10005	corsiblockFrFwrd	recallseqFrFwrd	9	5	867	0	108	13:42:35	3821892	4	0	0	0	0	0	0	0	0	0	0	0	0	0	0	3	0
103112	13:42:35	10005	corsiblockFrFwrd	recallseqFrFwrd	9	7	1268	0	108	13:42:35	3823212	4	0	0	0	0	0	0	0	0	0	0	0	0	0	0	3	0
103112	13:42:35	10005	corsiblockFrFwrd	recallseqFrFwrd	9	1	1188	0	108	13:42:35	3824451	4	0	0	0	0	0	0	0	0	0	0	0	0	0	0	3	0
103112	13:42:35	10005	corsiblockFrFwrd	recallseqFrFwrd	9	9	1404	0	108	13:42:35	3825904	4	0	0	0	0	0	0	0	0	0	0	0	0	0	0	3	0
103112	13:42:35	10005	corsiblockFrFwrd	recallseqFrFwrd	9	doneCorsiFr	1976	0	108	13:42:35	3827930	4	0	0	0	0	0	0	0	0	0	0	0	0	0	0	4	0
103112	13:42:35	10005	corsiblockFrFwrd	recallseqFrFwrd	9	8	3508	0	108	13:42:35	3839579	4	0	0	0	0	0	0	0	0	0	0	0	0	0	0	4	0
103112	13:42:35	10005	corsiblockFrFwrd	recallseqFrFwrd	9	2	1285	0	108	13:42:35	3840911	4	0	0	0	0	0	0	0	0	0	0	0	0	0	0	4	0
103112	13:42:35	10005	corsiblockFrFwrd	recallseqFrFwrd	9	4	1304	0	108	13:42:35	3842271	4	0	0	0	0	0	0	0	0	0	0	0	0	0	0	4	0
103112	13:42:35	10005	corsiblockFrFwrd	recallseqFrFwrd	9	9	4344	0	108	13:42:35	3846669	4	0	0	0	0	0	0	0	0	0	0	0	0	0	0	4	0
103112	13:42:35	10005	corsiblockFrFwrd	recallseqFrFwrd	9	6	1227	0	108	13:42:35	3847948	4	0	0	0	0	0	0	0	0	0	0	0	0	0	0	4	0
103112	13:42:35	10005	corsiblockFrFwrd	recallseqFrFwrd	9	doneCorsiFr	1659	0	108	13:42:35	3849655	4	0	0	0	0	0	0	0	0	0	0	0	0	0	0	4	0
103112	13:42:35	10005	corsiblockFrFwrd	recallseqFrFwrd	9	2	6708	0	108	13:42:35	3864449	4	0	0	0	0	0	0	0	0	0	0	0	0	0	0	4	0
103112	13:42:35	10005	corsiblockFrFwrd	recallseqFrFwrd	9	5	1183	0	108	13:42:35	3865688	4	0	0	0	0	0	0	0	0	0	0	0	0	0	0	4	0
103112	13:42:35	10005	corsiblockFrFwrd	recallseqFrFwrd	9	4	703	0	108	13:42:35	3866448	4	0	0	0	0	0	0	0	0	0	0	0	0	0	0	4	0
103112	13:42:35	10005	corsiblockFrFwrd	recallseqFrFwrd	9	6	1095	0	108	13:42:35	3867594	4	0	0	0	0	0	0	0	0	0	0	0	0	0	0	4	0
103112	13:42:35	10005	corsiblockFrFwrd	recallseqFrFwrd	9	2	1757	0	108	13:42:35	3869406	4	0	0	0	0	0	0	0	0	0	0	0	0	0	0	4	0
103112	13:42:35	10005	corsiblockFrFwrd	recallseqFrFwrd	9	doneCorsiFr	1520	0	108	13:42:35	3870979	4	0	0	0	0	0	0	0	0	0	0	0	0	0	0	4	0
103112	13:42:35	10005	corsiblockFrRev	recallseqFrRev	10	3	6543	0	108	13:42:35	3902740	4	0	0	0	0	0	0	0	0	0	0	0	0	0	0	4	0
103112	13:42:35	10005	corsiblockFrRev	recallseqFrRev	10	8	1506	0	108	13:42:35	3904299	4	0	0	0	0	0	0	0	0	0	0	0	0	0	0	4	0
103112	13:42:35	10005	corsiblockFrRev	recallseqFrRev	10	doneCorsiFr	1307	0	108	13:42:35	3905659	4	0	0	0	0	0	0	0	0	0	0	0	0	0	0	4	2
103112	13:42:35	10005	corsiblockFrRev	recallseqFrRev	10	1	2481	0	108	13:42:35	3914282	4	0	0	0	0	0	0	0	0	0	0	0	0	0	0	4	2
103112	13:42:35	10005	corsiblockFrRev	recallseqFrRev	10	6	1364	0	108	13:42:35	3915694	4	0	0	0	0	0	0	0	0	0	0	0	0	0	0	4	2
103112	13:42:35	10005	corsiblockFrRev	recallseqFrRev	10	2	967	0	108	13:42:35	3916708	4	0	0	0	0	0	0	0	0	0	0	0	0	0	0	4	2
103112	13:42:35	10005	corsiblockFrRev	recallseqFrRev	10	doneCorsiFr	1291	0	108	13:42:35	3918054	4	0	0	0	0	0	0	0	0	0	0	0	0	0	0	4	3
103112	13:42:35	10005	corsiblockFrRev	recallseqFrRev	10	9	2822	0	108	13:42:35	3928009	4	0	0	0	0	0	0	0	0	0	0	0	0	0	0	4	3
103112	13:42:35	10005	corsiblockFrRev	recallseqFrRev	10	4	1764	0	108	13:42:35	3929822	4	0	0	0	0	0	0	0	0	0	0	0	0	0	0	4	3
103112	13:42:35	10005	corsiblockFrRev	recallseqFrRev	10	5	775	0	108	13:42:35	3930648	4	0	0	0	0	0	0	0	0	0	0	0	0	0	0	4	3
103112	13:42:35	10005	corsiblockFrRev	recallseqFrRev	10	7	941	0	108	13:42:35	3931635	4	0	0	0	0	0	0	0	0	0	0	0	0	0	0	4	3
103112	13:42:35	10005	corsiblockFrRev	recallseqFrRev	10	doneCorsiFr	1179	0	108	13:42:35	3932861	4	0	0	0	0	0	0	0	0	0	0	0	0	0	0	4	3
103112	13:42:35	10005	corsiblockFrRev	recallseqFrRev	10	6	2051	0	108	13:42:35	3942004	4	0	0	0	0	0	0	0	0	0	0	0	0	0	0	4	3
103112	13:42:35	10005	corsiblockFrRev	recallseqFrRev	10	4	2609	0	108	13:42:35	3944669	4	0	0	0	0	0	0	0	0	0	0	0	0	0	0	4	3
103112	13:42:35	10005	corsiblockFrRev	recallseqFrRev	10	9	1024	0	108	13:42:35	3945749	4	0	0	0	0	0	0	0	0	0	0	0	0	0	0	4	3
103112	13:42:35	10005	corsiblockFrRev	recallseqFrRev	10	5	1104	0	108	13:42:35	3946908	4	0	0	0	0	0	0	0	0	0	0	0	0	0	0	4	3
103112	13:42:35	10005	corsiblockFrRev	recallseqFrRev	10	doneCorsiFr	985	0	108	13:42:35	3947948	4	0	0	0	0	0	0	0	0	0	0	0	0	0	0	4	3
103112	13:42:35	10005	testFr6mo	WordsFr6mo	11	1Fr6mo	5287	0	108	13:42:35	3977616	4	3	0	0	0	0	0	0	0	0	0	0	0	0	0	4	3
103112	13:42:35	10005	testFr6mo	WordsFr6mo	11	3Fr6mo	173	0	108	13:42:35	3977843	4	3	0	3	0	0	0	0	0	0	0	0	0	0	0	4	3
103112	13:42:35	10005	testFr6mo	WordsFr6mo	11	2Fr6mo	570	0	108	13:42:35	3978469	4	3	3	3	0	0	0	0	0	0	0	0	0	0	0	4	3
103112	13:42:35	10005	testFr6mo	WordsFr6mo	11	3Fr6mo	191	0	108	13:42:35	3978709	4	3	3	3	0	0	0	0	0	0	0	0	0	0	0	4	3
103112	13:42:35	10005	testFr6mo	WordsFr6mo	11	5Fr6mo	1984	0	108	13:42:35	3980748	4	3	3	3	0	3	0	0	0	0	0	0	0	0	0	4	3
103112	13:42:35	10005	testFr6mo	WordsFr6mo	11	7Fr6mo	473	0	108	13:42:35	3981268	4	3	3	3	0	3	0	3	0	0	0	0	0	0	0	4	3
103112	13:42:35	10005	testFr6mo	WordsFr6mo	11	4Fr6mo	19392	0	108	13:42:35	4000714	4	3	3	3	3	3	0	3	0	0	0	0	0	0	0	4	3
103112	13:42:35	10005	testFr6mo	WordsFr6mo	11	4Fr6mo	1211	0	108	13:42:35	4001980	4	3	3	3	3	3	0	3	0	0	0	0	0	0	0	4	3
103112	13:42:35	10005	testFr6mo	WordsFr6mo	11	3Fr6mo	241	0	108	13:42:35	4002273	4	3	3	3	3	3	0	3	0	0	0	0	0	0	0	4	3
103112	13:42:35	10005	testFr6mo	WordsFr6mo	11	DoneFr6mo	17483	0	108	13:42:35	4019812	4	3	3	3	3	3	0	3	0	0	0	0	0	0	0	4	3
103112	13:42:35	10005	testFr6mo	Cat4Fr6mo	11	0	1	0	108	13:42:35	4019825	4	3	3	3	3	3	0	3	0	0	0	0	0	0	0	4	3
103112	13:42:35	10005	testFr6mo	Ch4Fr6mo	11	RR4Fr6mo	3776	0	108	13:42:35	4023637	4	3	3	3	1	3	0	3	0	0	0	0	0	0	0	4	3
103112	13:42:35	10005	testFr6mo	Cat6Fr6mo	11	0	1	0	108	13:42:35	4023645	4	3	3	3	1	3	0	3	0	0	0	0	0	0	0	4	3
103112	13:42:35	10005	testFr6mo	Ch6Fr6mo	11	RR6Fr6mo	4756	0	108	13:42:35	4028435	4	3	3	3	1	3	1	3	0	0	0	0	0	0	0	4	3
103112	13:42:35	10005	testFr6mo	Cat8Fr6mo	11	R8Fr6mo	4526	0	108	13:42:35	4032993	4	3	3	3	1	3	1	3	2	0	0	0	0	0	0	4	3
103112	13:42:35	10005	DigitSpanFwrdFr6mo	Score1FwrdFr6mo	12	DS1	3774	0	108	13:42:35	4081854	4	3	3	3	1	3	1	3	2	0	0	0	0	0	0	4	3
103112	13:42:35	10005	DigitSpanFwrdFr6mo	Gate1FwrdFr6mo	12	0	1	0	108	13:42:35	4081859	4	3	3	3	1	3	1	3	2	3	0	0	0	0	0	4	3
103112	13:42:35	10005	DigitSpanFwrdFr6mo	Score2FwrdFr6mo	12	DS1	2957	0	108	13:42:35	4091130	4	3	3	3	1	3	1	3	2	3	0	0	0	0	0	4	3
103112	13:42:35	10005	DigitSpanFwrdFr6mo	Gate3FwrdFr6mo	12	0	1	0	108	13:42:35	4091134	4	3	3	3	1	3	1	3	2	4	0	0	0	0	0	4	3
103112	13:42:35	10005	DigitSpanFwrdFr6mo	Score3FwrdFr6mo	12	DS2	9891	0	108	13:42:35	4108270	4	3	3	3	1	3	1	3	2	4	0	0	0	0	0	4	3
103112	13:42:35	10005	DigitSpanFwrdFr6mo	Gate5FwrdFr6mo	12	0	1	0	108	13:42:35	4108274	4	3	3	3	1	3	1	3	2	4	0	0	0	0	0	4	3
103112	13:42:35	10005	DigitSpanFwrdFr6mo	Score33FwrdFr6mo	12	DS1	4360	0	108	13:42:35	4119838	4	3	3	3	1	3	1	3	2	4	0	0	0	0	0	4	3
103112	13:42:35	10005	DigitSpanFwrdFr6mo	Gate6FwrdFr6mo	12	0	1	0	108	13:42:35	4119843	4	3	3	3	1	3	1	3	2	5	0	0	0	0	0	4	3
103112	13:42:35	10005	DigitSpanFwrdFr6mo	Score4FwrdFr6mo	12	DS2	9540	0	108	13:42:35	4137884	4	3	3	3	1	3	1	3	2	5	0	0	0	0	0	4	3
103112	13:42:35	10005	DigitSpanFwrdFr6mo	Gate7FwrdFr6mo	12	0	1	0	108	13:42:35	4137888	4	3	3	3	1	3	1	3	2	5	0	0	0	0	0	4	3
103112	13:42:35	10005	DigitSpanFwrdFr6mo	Score44FwrdFr6mo	12	DS2	12907	0	108	13:42:35	4159089	4	3	3	3	1	3	1	3	2	5	0	0	0	0	0	4	3
103112	13:42:35	10005	DigitSpanFr6mo	Score1Fr6mo	13	DS1	2049	0	108	13:42:35	4183172	4	3	3	3	1	3	1	3	2	5	0	0	0	0	0	4	3
103112	13:42:35	10005	DigitSpanFr6mo	Gate1Fr6mo	13	0	1	0	108	13:42:35	4183177	4	3	3	3	1	3	1	3	2	5	2	0	0	0	0	4	3
103112	13:42:35	10005	DigitSpanFr6mo	Score2Fr6mo	13	DS1	3574	0	108	13:42:35	4191316	4	3	3	3	1	3	1	3	2	5	2	0	0	0	0	4	3
103112	13:42:35	10005	DigitSpanFr6mo	Gate3Fr6mo	13	0	1	0	108	13:42:35	4191320	4	3	3	3	1	3	1	3	2	5	3	0	0	0	0	4	3
103112	13:42:35	10005	DigitSpanFr6mo	Score3Fr6mo	13	DS1	8126	0	108	13:42:35	4205124	4	3	3	3	1	3	1	3	2	5	3	0	0	0	0	4	3
103112	13:42:35	10005	DigitSpanFr6mo	Gate5Fr6mo	13	0	1	0	108	13:42:35	4205129	4	3	3	3	1	3	1	3	2	5	4	0	0	0	0	4	3
103112	13:42:35	10005	DigitSpanFr6mo	Score4Fr6mo	13	DS2	16148	0	108	13:42:35	4228221	4	3	3	3	1	3	1	3	2	5	4	0	0	0	0	4	3
103112	13:42:35	10005	DigitSpanFr6mo	Gate7Fr6mo	13	0	1	0	108	13:42:35	4228225	4	3	3	3	1	3	1	3	2	5	4	0	0	0	0	4	3
103112	13:42:35	10005	DigitSpanFr6mo	Score44Fr6mo	13	DS2	19986	0	108	13:42:35	4256596	4	3	3	3	1	3	1	3	2	5	4	0	0	0	0	4	3
103112	13:42:35	10005	Trial	ResponseIL	14	0	175	0	108	13:42:35	4343654	4	3	3	3	1	3	1	3	2	5	4	0	0	0	0	4	3
103112	13:42:35	10005	Trial	IncongruentLeft	14	203	633	1	108	13:42:35	4344307	4	3	3	3	1	3	1	3	2	5	4	0	0	0	0	4	3
103112	13:42:35	10005	Trial	ResponseCR	14	0	175	0	108	13:42:35	4345360	4	3	3	3	1	3	1	3	2	5	4	0	0	0	0	4	3
103112	13:42:35	10005	Trial	CongruentRight	14	205	352	1	108	13:42:35	4345733	4	3	3	3	1	3	1	3	2	5	4	0	0	0	0	4	3
103112	13:42:35	10005	Trial	ResponseIR	14	0	175	0	108	13:42:35	4347066	4	3	3	3	1	3	1	3	2	5	4	0	0	0	0	4	3
103112	13:42:35	10005	Trial	IncongruentRight	14	205	421	1	108	13:42:35	4347506	4	3	3	3	1	3	1	3	2	5	4	0	0	0	0	4	3
103112	13:42:35	10005	Trial	ResponseCL	14	0	175	0	108	13:42:35	4348772	4	3	3	3	1	3	1	3	2	5	4	0	0	0	0	4	3
103112	13:42:35	10005	Trial	CongruentLeft	14	203	380	1	108	13:42:35	4349172	4	3	3	3	1	3	1	3	2	5	4	0	0	0	0	4	3
103112	13:42:35	10005	Trial	ResponseCR	14	0	175	0	108	13:42:35	4350478	4	3	3	3	1	3	1	3	2	5	4	0	0	0	0	4	3
103112	13:42:35	10005	Trial	CongruentRight	14	205	209	1	108	13:42:35	4350705	4	3	3	3	1	3	1	3	2	5	4	0	0	0	0	4	3
103112	13:42:35	10005	Trial	ResponseIR	14	0	175	0	108	13:42:35	4352184	4	3	3	3	1	3	1	3	2	5	4	0	0	0	0	4	3
103112	13:42:35	10005	Trial	IncongruentRight	14	203	200	0	108	13:42:35	4352411	4	3	3	3	1	3	1	3	2	5	4	0	0	0	0	4	3
103112	13:42:35	10005	Trial	ResponseCL	14	0	175	0	108	13:42:35	4353890	4	3	3	3	1	3	1	3	2	5	4	0	0	0	0	4	3
103112	13:42:35	10005	Trial	CongruentLeft	14	203	349	1	108	13:42:35	4354263	4	3	3	3	1	3	1	3	2	5	4	0	0	0	0	4	3
103112	13:42:35	10005	Trial	ResponseIL	14	0	175	0	108	13:42:35	4355596	4	3	3	3	1	3	1	3	2	5	4	0	0	0	0	4	3
103112	13:42:35	10005	Trial	IncongruentLeft	14	203	387	1	108	13:42:35	4356009	4	3	3	3	1	3	1	3	2	5	4	0	0	0	0	4	3
103112	13:42:35	10005	Trial	ResponseIL	14	0	175	0	108	13:42:35	4357302	4	3	3	3	1	3	1	3	2	5	4	0	0	0	0	4	3
103112	13:42:35	10005	Trial	IncongruentLeft	14	203	329	1	108	13:42:35	4357648	4	3	3	3	1	3	1	3	2	5	4	0	0	0	0	4	3
103112	13:42:35	10005	Trial	ResponseCR	14	0	175	0	108	13:42:35	4359008	4	3	3	3	1	3	1	3	2	5	4	0	0	0	0	4	3
103112	13:42:35	10005	Trial	CongruentRight	14	205	255	1	108	13:42:35	4359288	4	3	3	3	1	3	1	3	2	5	4	0	0	0	0	4	3
103112	13:42:35	10005	Trial	ResponseIR	14	0	175	0	108	13:42:35	4360714	4	3	3	3	1	3	1	3	2	5	4	0	0	0	0	4	3
103112	13:42:35	10005	Trial	IncongruentRight	14	203	166	0	108	13:42:35	4360900	4	3	3	3	1	3	1	3	2	5	4	0	0	0	0	4	3
103112	13:42:35	10005	Trial	ResponseCL	14	0	175	0	108	13:42:35	4362420	4	3	3	3	1	3	1	3	2	5	4	0	0	0	0	4	3
103112	13:42:35	10005	Trial	CongruentLeft	14	205	203	0	108	13:42:35	4362646	4	3	3	3	1	3	1	3	2	5	4	0	0	0	0	4	3
103112	13:42:35	10005	Trial	ResponseCR	14	0	175	0	108	13:42:35	4364126	4	3	3	3	1	3	1	3	2	5	4	0	0	0	0	4	3
103112	13:42:35	10005	Trial	CongruentRight	14	205	353	1	108	13:42:35	4364499	4	3	3	3	1	3	1	3	2	5	4	0	0	0	0	4	3
103112	13:42:35	10005	Trial	ResponseIL	14	0	175	0	108	13:42:35	4365832	4	3	3	3	1	3	1	3	2	5	4	0	0	0	0	4	3
103112	13:42:35	10005	Trial	IncongruentLeft	14	205	279	0	108	13:42:35	4366138	4	3	3	3	1	3	1	3	2	5	4	0	0	0	0	4	3
103112	13:42:35	10005	Trial	ResponseIR	14	0	175	0	108	13:42:35	4367538	4	3	3	3	1	3	1	3	2	5	4	0	0	0	0	4	3
103112	13:42:35	10005	Trial	IncongruentRight	14	205	381	1	108	13:42:35	4367938	4	3	3	3	1	3	1	3	2	5	4	0	0	0	0	4	3
103112	13:42:35	10005	Trial	ResponseCR	14	0	175	0	108	13:42:35	4369244	4	3	3	3	1	3	1	3	2	5	4	0	0	0	0	4	3
103112	13:42:35	10005	Trial	CongruentRight	14	205	425	1	108	13:42:35	4369724	4	3	3	3	1	3	1	3	2	5	4	0	0	0	0	4	3
103112	13:42:35	10005	Trial	ResponseCL	14	0	175	0	108	13:42:35	4370976	4	3	3	3	1	3	1	3	2	5	4	0	0	0	0	4	3
103112	13:42:35	10005	Trial	CongruentLeft	14	203	431	1	108	13:42:35	4371430	4	3	3	3	1	3	1	3	2	5	4	0	0	0	0	4	3
103112	13:42:35	10005	Trial	ResponseCR	14	0	175	0	108	13:42:35	4372696	4	3	3	3	1	3	1	3	2	5	4	0	0	0	0	4	3
103112	13:42:35	10005	Trial	CongruentRight	14	205	328	1	108	13:42:35	4373042	4	3	3	3	1	3	1	3	2	5	4	0	0	0	0	4	3
103112	13:42:35	10005	Trial	ResponseIR	14	0	175	0	108	13:42:35	4374428	4	3	3	3	1	3	1	3	2	5	4	0	0	0	0	4	3
103112	13:42:35	10005	Trial	IncongruentRight	14	205	339	1	108	13:42:35	4374788	4	3	3	3	1	3	1	3	2	5	4	0	0	0	0	4	3
103112	13:42:35	10005	Trial	ResponseIL	14	0	175	0	108	13:42:35	4376134	4	3	3	3	1	3	1	3	2	5	4	0	0	0	0	4	3
103112	13:42:35	10005	Trial	IncongruentLeft	14	203	377	1	108	13:42:35	4376534	4	3	3	3	1	3	1	3	2	5	4	0	0	0	0	4	3
103112	13:42:35	10005	Trial	ResponseIL	14	0	175	0	108	13:42:35	4377840	4	3	3	3	1	3	1	3	2	5	4	0	0	0	0	4	3
103112	13:42:35	10005	Trial	IncongruentLeft	14	203	431	1	108	13:42:35	4378293	4	3	3	3	1	3	1	3	2	5	4	0	0	0	0	4	3
103112	13:42:35	10005	Trial	ResponseCL	14	0	175	0	108	13:42:35	4379546	4	3	3	3	1	3	1	3	2	5	4	0	0	0	0	4	3
103112	13:42:35	10005	Trial	CongruentLeft	14	203	421	1	108	13:42:35	4379986	4	3	3	3	1	3	1	3	2	5	4	0	0	0	0	4	3
103112	13:42:35	10005	Trial	ResponseCR	14	0	175	0	108	13:42:35	4381266	4	3	3	3	1	3	1	3	2	5	4	0	0	0	0	4	3
103112	13:42:35	10005	Trial	CongruentRight	14	205	276	1	108	13:42:35	4381585	4	3	3	3	1	3	1	3	2	5	4	0	0	0	0	4	3
103112	13:42:35	10005	Trial	ResponseIL	14	0	175	0	108	13:42:35	4382998	4	3	3	3	1	3	1	3	2	5	4	0	0	0	0	4	3
103112	13:42:35	10005	Trial	IncongruentLeft	14	203	508	1	108	13:42:35	4383545	4	3	3	3	1	3	1	3	2	5	4	0	0	0	0	4	3
103112	13:42:35	10005	Trial	ResponseIR	14	0	175	0	108	13:42:35	4384718	4	3	3	3	1	3	1	3	2	5	4	0	0	0	0	4	3
103112	13:42:35	10005	Trial	IncongruentRight	14	205	354	1	108	13:42:35	4385091	4	3	3	3	1	3	1	3	2	5	4	0	0	0	0	4	3
103112	13:42:35	10005	Trial	ResponseCR	14	0	175	0	108	13:42:35	4386437	4	3	3	3	1	3	1	3	2	5	4	0	0	0	0	4	3
103112	13:42:35	10005	Trial	CongruentRight	14	205	362	1	108	13:42:35	4386823	4	3	3	3	1	3	1	3	2	5	4	0	0	0	0	4	3
103112	13:42:35	10005	Trial	ResponseCL	14	0	175	0	108	13:42:35	4388170	4	3	3	3	1	3	1	3	2	5	4	0	0	0	0	4	3
103112	13:42:35	10005	Trial	CongruentLeft	14	203	328	1	108	13:42:35	4388529	4	3	3	3	1	3	1	3	2	5	4	0	0	0	0	4	3
103112	13:42:35	10005	Trial	ResponseIR	14	0	175	0	108	13:42:35	4389902	4	3	3	3	1	3	1	3	2	5	4	0	0	0	0	4	3
103112	13:42:35	10005	Trial	IncongruentRight	14	205	289	1	108	13:42:35	4390209	4	3	3	3	1	3	1	3	2	5	4	0	0	0	0	4	3
103112	13:42:35	10005	Trial	ResponseIL	14	0	175	0	108	13:42:35	4391635	4	3	3	3	1	3	1	3	2	5	4	0	0	0	0	4	3
103112	13:42:35	10005	Trial	IncongruentLeft	14	203	269	1	108	13:42:35	4391928	4	3	3	3	1	3	1	3	2	5	4	0	0	0	0	4	3
103112	13:42:35	10005	Trial	ResponseIR	14	0	175	0	108	13:42:35	4393354	4	3	3	3	1	3	1	3	2	5	4	0	0	0	0	4	3
103112	13:42:35	10005	Trial	IncongruentRight	14	205	309	1	108	13:42:35	4393687	4	3	3	3	1	3	1	3	2	5	4	0	0	0	0	4	3
103112	13:42:35	10005	Trial	ResponseCR	14	0	175	0	108	13:42:35	4395060	4	3	3	3	1	3	1	3	2	5	4	0	0	0	0	4	3
103112	13:42:35	10005	Trial	CongruentRight	14	203	203	0	108	13:42:35	4395287	4	3	3	3	1	3	1	3	2	5	4	0	0	0	0	4	3
103112	13:42:35	10005	Trial	ResponseIL	14	0	175	0	108	13:42:35	4396793	4	3	3	3	1	3	1	3	2	5	4	0	0	0	0	4	3
103112	13:42:35	10005	Trial	IncongruentLeft	14	203	409	1	108	13:42:35	4397232	4	3	3	3	1	3	1	3	2	5	4	0	0	0	0	4	3
103112	13:42:35	10005	Trial	ResponseCL	14	0	175	0	108	13:42:35	4398499	4	3	3	3	1	3	1	3	2	5	4	0	0	0	0	4	3
103112	13:42:35	10005	Trial	CongruentLeft	14	203	475	1	108	13:42:35	4399032	4	3	3	3	1	3	1	3	2	5	4	0	0	0	0	4	3
103112	13:42:35	10005	Trial	ResponseCR	14	0	175	0	108	13:42:35	4400218	4	3	3	3	1	3	1	3	2	5	4	0	0	0	0	4	3
103112	13:42:35	10005	Trial	CongruentRight	14	205	237	1	108	13:42:35	4400498	4	3	3	3	1	3	1	3	2	5	4	0	0	0	0	4	3
103112	13:42:35	10005	Trial	ResponseIL	14	0	175	0	108	13:42:35	4401937	4	3	3	3	1	3	1	3	2	5	4	0	0	0	0	4	3
103112	13:42:35	10005	Trial	IncongruentLeft	14	205	270	0	108	13:42:35	4402230	4	3	3	3	1	3	1	3	2	5	4	0	0	0	0	4	3
103112	13:42:35	10005	Trial	ResponseIR	14	0	175	0	108	13:42:35	4403657	4	3	3	3	1	3	1	3	2	5	4	0	0	0	0	4	3
103112	13:42:35	10005	Trial	IncongruentRight	14	205	422	1	108	13:42:35	4404096	4	3	3	3	1	3	1	3	2	5	4	0	0	0	0	4	3
103112	13:42:35	10005	Trial	ResponseIR	14	0	175	0	108	13:42:35	4405363	4	3	3	3	1	3	1	3	2	5	4	0	0	0	0	4	3
103112	13:42:35	10005	Trial	IncongruentRight	14	205	300	1	108	13:42:35	4405682	4	3	3	3	1	3	1	3	2	5	4	0	0	0	0	4	3
103112	13:42:35	10005	Trial	ResponseCL	14	0	175	0	108	13:42:35	4407069	4	3	3	3	1	3	1	3	2	5	4	0	0	0	0	4	3
103112	13:42:35	10005	Trial	CongruentLeft	14	203	345	1	108	13:42:35	4407455	4	3	3	3	1	3	1	3	2	5	4	0	0	0	0	4	3
103112	13:42:35	10005	Trial	ResponseIL	14	0	175	0	108	13:42:35	4408788	4	3	3	3	1	3	1	3	2	5	4	0	0	0	0	4	3
103112	13:42:35	10005	Trial	IncongruentLeft	14	205	210	0	108	13:42:35	4409041	4	3	3	3	1	3	1	3	2	5	4	0	0	0	0	4	3
103112	13:42:35	10005	Trial	ResponseCR	14	0	175	0	108	13:42:35	4410521	4	3	3	3	1	3	1	3	2	5	4	0	0	0	0	4	3
103112	13:42:35	10005	Trial	CongruentRight	14	205	272	1	108	13:42:35	4410840	4	3	3	3	1	3	1	3	2	5	4	0	0	0	0	4	3
103112	13:42:35	10005	Trial	ResponseCL	14	0	175	0	108	13:42:35	4412226	4	3	3	3	1	3	1	3	2	5	4	0	0	0	0	4	3
103112	13:42:35	10005	Trial	CongruentLeft	14	203	338	1	108	13:42:35	4412613	4	3	3	3	1	3	1	3	2	5	4	0	0	0	0	4	3
103112	13:42:35	10005	Trial	ResponseIR	14	0	175	0	108	13:42:35	4413933	4	3	3	3	1	3	1	3	2	5	4	0	0	0	0	4	3
103112	13:42:35	10005	Trial	IncongruentRight	14	205	188	1	108	13:42:35	4414159	4	3	3	3	1	3	1	3	2	5	4	0	0	0	0	4	3
103112	13:42:35	10005	Trial	ResponseCR	14	0	175	0	108	13:42:35	4415665	4	3	3	3	1	3	1	3	2	5	4	0	0	0	0	4	3
103112	13:42:35	10005	Trial	CongruentRight	14	205	302	1	108	13:42:35	4415985	4	3	3	3	1	3	1	3	2	5	4	0	0	0	0	4	3
103112	13:42:35	10005	Trial	ResponseIL	14	0	175	0	108	13:42:35	4417371	4	3	3	3	1	3	1	3	2	5	4	0	0	0	0	4	3
103112	13:42:35	10005	Trial	IncongruentLeft	14	203	310	1	108	13:42:35	4417718	4	3	3	3	1	3	1	3	2	5	4	0	0	0	0	4	3
103112	13:42:35	10005	Trial	ResponseCL	14	0	175	0	108	13:42:35	4419104	4	3	3	3	1	3	1	3	2	5	4	0	0	0	0	4	3
103112	13:42:35	10005	Trial	CongruentLeft	14	203	369	1	108	13:42:35	4419504	4	3	3	3	1	3	1	3	2	5	4	0	0	0	0	4	3
103112	13:42:35	10005	Trial	ResponseIL	14	0	175	0	108	13:42:35	4420810	4	3	3	3	1	3	1	3	2	5	4	0	0	0	0	4	3
103112	13:42:35	10005	Trial	IncongruentLeft	14	203	331	1	108	13:42:35	4421183	4	3	3	3	1	3	1	3	2	5	4	0	0	0	0	4	3
103112	13:42:35	10005	Trial	ResponseIR	14	0	175	0	108	13:42:35	4422516	4	3	3	3	1	3	1	3	2	5	4	0	0	0	0	4	3
103112	13:42:35	10005	Trial	IncongruentRight	14	203	253	0	108	13:42:35	4422822	4	3	3	3	1	3	1	3	2	5	4	0	0	0	0	4	3
103112	13:42:35	10005	Trial	ResponseCR	14	0	175	0	108	13:42:35	4424222	4	3	3	3	1	3	1	3	2	5	4	0	0	0	0	4	3
103112	13:42:35	10005	Trial	CongruentRight	14	205	265	1	108	13:42:35	4424528	4	3	3	3	1	3	1	3	2	5	4	0	0	0	0	4	3
103112	13:42:35	10005	Trial	ResponseCL	14	0	175	0	108	13:42:35	4425928	4	3	3	3	1	3	1	3	2	5	4	0	0	0	0	4	3
103112	13:42:35	10005	Trial	CongruentLeft	14	203	283	1	108	13:42:35	4426261	4	3	3	3	1	3	1	3	2	5	4	0	0	0	0	4	3
103112	13:42:35	10005	Trial	ResponseCL	14	0	175	0	108	13:42:35	4427647	4	3	3	3	1	3	1	3	2	5	4	0	0	0	0	4	3
103112	13:42:35	10005	Trial	CongruentLeft	14	203	323	1	108	13:42:35	4428020	4	3	3	3	1	3	1	3	2	5	4	0	0	0	0	4	3
103112	13:42:35	10005	Trial	ResponseIR	14	0	175	0	108	13:42:35	4429353	4	3	3	3	1	3	1	3	2	5	4	0	0	0	0	4	3
103112	13:42:35	10005	Trial	IncongruentRight	14	205	237	1	108	13:42:35	4429633	4	3	3	3	1	3	1	3	2	5	4	0	0	0	0	4	3
103112	13:42:35	10005	Trial	ResponseIL	14	0	175	0	108	13:42:35	4431059	4	3	3	3	1	3	1	3	2	5	4	0	0	0	0	4	3
103112	13:42:35	10005	Trial	IncongruentLeft	14	203	158	1	108	13:42:35	4431272	4	3	3	3	1	3	1	3	2	5	4	0	0	0	0	4	3
103112	13:42:35	10005	Trial	ResponseIR	14	0	175	0	108	13:42:35	4432792	4	3	3	3	1	3	1	3	2	5	4	0	0	0	0	4	3
103112	13:42:35	10005	Trial	IncongruentRight	14	205	311	1	108	13:42:35	4433125	4	3	3	3	1	3	1	3	2	5	4	0	0	0	0	4	3
103112	13:42:35	10005	Trial	ResponseCR	14	0	175	0	108	13:42:35	4434511	4	3	3	3	1	3	1	3	2	5	4	0	0	0	0	4	3
103112	13:42:35	10005	Trial	CongruentRight	14	205	258	1	108	13:42:35	4434804	4	3	3	3	1	3	1	3	2	5	4	0	0	0	0	4	3
103112	13:42:35	10005	Trial	ResponseCR	14	0	175	0	108	13:42:35	4436244	4	3	3	3	1	3	1	3	2	5	4	0	0	0	0	4	3
103112	13:42:35	10005	Trial	CongruentRight	14	205	301	1	108	13:42:35	4436577	4	3	3	3	1	3	1	3	2	5	4	0	0	0	0	4	3
103112	13:42:35	10005	Trial	ResponseIL	14	0	175	0	108	13:42:35	4437976	4	3	3	3	1	3	1	3	2	5	4	0	0	0	0	4	3
103112	13:42:35	10005	Trial	IncongruentLeft	14	203	361	1	108	13:42:35	4438376	4	3	3	3	1	3	1	3	2	5	4	0	0	0	0	4	3
103112	13:42:35	10005	Trial	ResponseCL	14	0	175	0	108	13:42:35	4439682	4	3	3	3	1	3	1	3	2	5	4	0	0	0	0	4	3
103112	13:42:35	10005	Trial	CongruentLeft	14	203	191	1	108	13:42:35	4439909	4	3	3	3	1	3	1	3	2	5	4	0	0	0	0	4	3
103112	13:42:35	10005	Trial	ResponseCR	14	0	175	0	108	13:42:35	4441401	4	3	3	3	1	3	1	3	2	5	4	0	0	0	0	4	3
103112	13:42:35	10005	Trial	CongruentRight	14	205	183	1	108	13:42:35	4441615	4	3	3	3	1	3	1	3	2	5	4	0	0	0	0	4	3
103112	13:42:35	10005	Trial	ResponseCL	14	0	175	0	108	13:42:35	4443107	4	3	3	3	1	3	1	3	2	5	4	0	0	0	0	4	3
103112	13:42:35	10005	Trial	CongruentLeft	14	203	189	1	108	13:42:35	4443334	4	3	3	3	1	3	1	3	2	5	4	0	0	0	0	4	3
103112	13:42:35	10005	Trial	ResponseIR	14	0	175	0	108	13:42:35	4444827	4	3	3	3	1	3	1	3	2	5	4	0	0	0	0	4	3
103112	13:42:35	10005	Trial	IncongruentRight	14	203	310	0	108	13:42:35	4445173	4	3	3	3	1	3	1	3	2	5	4	0	0	0	0	4	3
103112	13:42:35	10005	Trial	ResponseCR	14	0	175	0	108	13:42:35	4446559	4	3	3	3	1	3	1	3	2	5	4	0	0	0	0	4	3
103112	13:42:35	10005	Trial	CongruentRight	14	205	257	1	108	13:42:35	4446853	4	3	3	3	1	3	1	3	2	5	4	0	0	0	0	4	3
103112	13:42:35	10005	Trial	ResponseCL	14	0	175	0	108	13:42:35	4448279	4	3	3	3	1	3	1	3	2	5	4	0	0	0	0	4	3
103112	13:42:35	10005	Trial	CongruentLeft	14	203	138	1	108	13:42:35	4448452	4	3	3	3	1	3	1	3	2	5	4	0	0	0	0	4	3
103112	13:42:35	10005	Trial	ResponseIL	14	0	175	0	108	13:42:35	4449998	4	3	3	3	1	3	1	3	2	5	4	0	0	0	0	4	3
103112	13:42:35	10005	Trial	IncongruentLeft	14	205	242	0	108	13:42:35	4450278	4	3	3	3	1	3	1	3	2	5	4	0	0	0	0	4	3
103112	13:42:35	10005	Trial	ResponseIL	14	0	175	0	108	13:42:35	4451731	4	3	3	3	1	3	1	3	2	5	4	0	0	0	0	4	3
103112	13:42:35	10005	Trial	IncongruentLeft	14	205	174	0	108	13:42:35	4451944	4	3	3	3	1	3	1	3	2	5	4	0	0	0	0	4	3
103112	13:42:35	10005	Trial	ResponseCR	14	0	175	0	108	13:42:35	4453437	4	3	3	3	1	3	1	3	2	5	4	0	0	0	0	4	3
103112	13:42:35	10005	Trial	CongruentRight	14	205	276	1	108	13:42:35	4453743	4	3	3	3	1	3	1	3	2	5	4	0	0	0	0	4	3
103112	13:42:35	10005	Trial	ResponseIR	14	0	175	0	108	13:42:35	4455169	4	3	3	3	1	3	1	3	2	5	4	0	0	0	0	4	3
103112	13:42:35	10005	Trial	IncongruentRight	14	203	223	0	108	13:42:35	4455423	4	3	3	3	1	3	1	3	2	5	4	0	0	0	0	4	3
103112	13:42:35	10005	Trial	ResponseCL	14	0	175	0	108	13:42:35	4456902	4	3	3	3	1	3	1	3	2	5	4	0	0	0	0	4	3
103112	13:42:35	10005	Trial	CongruentLeft	14	0	1000	0	108	13:42:35	4457942	4	3	3	3	1	3	1	3	2	5	4	0	0	0	0	4	3
103112	13:42:35	10005	Trial	ResponseIR	14	0	175	0	108	13:42:35	4458661	4	3	3	3	1	3	1	3	2	5	4	0	0	0	0	4	3
103112	13:42:35	10005	Trial	IncongruentRight	14	205	305	1	108	13:42:35	4459008	4	3	3	3	1	3	1	3	2	5	4	0	0	0	0	4	3
103112	13:42:35	10005	Trial	ResponseCR	14	0	175	0	108	13:42:35	4460380	4	3	3	3	1	3	1	3	2	5	4	0	0	0	0	4	3
103112	13:42:35	10005	Trial	CongruentRight	14	205	279	1	108	13:42:35	4460714	4	3	3	3	1	3	1	3	2	5	4	0	0	0	0	4	3
103112	13:42:35	10005	Trial	ResponseIL	14	0	175	0	108	13:42:35	4462100	4	3	3	3	1	3	1	3	2	5	4	0	0	0	0	4	3
103112	13:42:35	10005	Trial	IncongruentLeft	14	203	287	1	108	13:42:35	4462433	4	3	3	3	1	3	1	3	2	5	4	0	0	0	0	4	3
103112	13:42:35	10005	Trial	ResponseCL	14	0	175	0	108	13:42:35	4463819	4	3	3	3	1	3	1	3	2	5	4	0	0	0	0	4	3
103112	13:42:35	10005	Trial	CongruentLeft	14	203	359	1	108	13:42:35	4464232	4	3	3	3	1	3	1	3	2	5	4	0	0	0	0	4	3
103112	13:42:35	10005	Trial	ResponseCR	14	0	175	0	108	13:42:35	4465525	4	3	3	3	1	3	1	3	2	5	4	0	0	0	0	4	3
103112	13:42:35	10005	Trial	CongruentRight	14	205	257	1	108	13:42:35	4465832	4	3	3	3	1	3	1	3	2	5	4	0	0	0	0	4	3
103112	13:42:35	10005	Trial	ResponseIL	14	0	175	0	108	13:42:35	4467231	4	3	3	3	1	3	1	3	2	5	4	0	0	0	0	4	3
103112	13:42:35	10005	Trial	IncongruentLeft	14	203	275	1	108	13:42:35	4467551	4	3	3	3	1	3	1	3	2	5	4	0	0	0	0	4	3
103112	13:42:35	10005	Trial	ResponseCR	14	0	175	0	108	13:42:35	4468937	4	3	3	3	1	3	1	3	2	5	4	0	0	0	0	4	3
103112	13:42:35	10005	Trial	CongruentRight	14	205	223	1	108	13:42:35	4469204	4	3	3	3	1	3	1	3	2	5	4	0	0	0	0	4	3
103112	13:42:35	10005	Trial	ResponseCR	14	0	175	0	108	13:42:35	4470643	4	3	3	3	1	3	1	3	2	5	4	0	0	0	0	4	3
103112	13:42:35	10005	Trial	CongruentRight	14	205	289	1	108	13:42:35	4470976	4	3	3	3	1	3	1	3	2	5	4	0	0	0	0	4	3
103112	13:42:35	10005	Trial	ResponseIR	14	0	175	0	108	13:42:35	4472362	4	3	3	3	1	3	1	3	2	5	4	0	0	0	0	4	3
103112	13:42:35	10005	Trial	IncongruentRight	14	203	264	0	108	13:42:35	4472682	4	3	3	3	1	3	1	3	2	5	4	0	0	0	0	4	3
103112	13:42:35	10005	Trial	ResponseCL	14	0	175	0	108	13:42:35	4474068	4	3	3	3	1	3	1	3	2	5	4	0	0	0	0	4	3
103112	13:42:35	10005	Trial	CongruentLeft	14	203	369	1	108	13:42:35	4474482	4	3	3	3	1	3	1	3	2	5	4	0	0	0	0	4	3
103112	13:42:35	10005	Trial	ResponseIL	14	0	175	0	108	13:42:35	4475774	4	3	3	3	1	3	1	3	2	5	4	0	0	0	0	4	3
103112	13:42:35	10005	Trial	IncongruentLeft	14	205	212	0	108	13:42:35	4476041	4	3	3	3	1	3	1	3	2	5	4	0	0	0	0	4	3
103112	13:42:35	10005	Trial	ResponseCL	14	0	175	0	108	13:42:35	4477480	4	3	3	3	1	3	1	3	2	5	4	0	0	0	0	4	3
103112	13:42:35	10005	Trial	CongruentLeft	14	203	176	1	108	13:42:35	4477693	4	3	3	3	1	3	1	3	2	5	4	0	0	0	0	4	3
103112	13:42:35	10005	Trial	ResponseIR	14	0	175	0	108	13:42:35	4479213	4	3	3	3	1	3	1	3	2	5	4	0	0	0	0	4	3
103112	13:42:35	10005	Trial	IncongruentRight	14	205	176	1	108	13:42:35	4479413	4	3	3	3	1	3	1	3	2	5	4	0	0	0	0	4	3
103112	13:42:35	10005	Trial	ResponseIL	14	0	175	0	108	13:42:35	4480932	4	3	3	3	1	3	1	3	2	5	4	0	0	0	0	4	3
103112	13:42:35	10005	Trial	IncongruentLeft	14	203	236	1	108	13:42:35	4481199	4	3	3	3	1	3	1	3	2	5	4	0	0	0	0	4	3
103112	13:42:35	10005	Trial	ResponseCR	14	0	175	0	108	13:42:35	4482638	4	3	3	3	1	3	1	3	2	5	4	0	0	0	0	4	3
103112	13:42:35	10005	Trial	CongruentRight	14	205	161	1	108	13:42:35	4482838	4	3	3	3	1	3	1	3	2	5	4	0	0	0	0	4	3
103112	13:42:35	10005	Trial	ResponseCL	14	0	175	0	108	13:42:35	4484344	4	3	3	3	1	3	1	3	2	5	4	0	0	0	0	4	3
103112	13:42:35	10005	Trial	CongruentLeft	14	203	72	1	108	13:42:35	4484451	4	3	3	3	1	3	1	3	2	5	4	0	0	0	0	4	3
103112	13:42:35	10005	Trial	ResponseIL	14	0	175	0	108	13:42:35	4486050	4	3	3	3	1	3	1	3	2	5	4	0	0	0	0	4	3
103112	13:42:35	10005	Trial	IncongruentLeft	14	203	78	1	108	13:42:35	4486157	4	3	3	3	1	3	1	3	2	5	4	0	0	0	0	4	3
103112	13:42:35	10005	Trial	ResponseCL	14	0	175	0	108	13:42:35	4487756	4	3	3	3	1	3	1	3	2	5	4	0	0	0	0	4	3
103112	13:42:35	10005	Trial	CongruentLeft	14	205	148	0	108	13:42:35	4487943	4	3	3	3	1	3	1	3	2	5	4	0	0	0	0	4	3
103112	13:42:35	10005	Trial	ResponseIR	14	0	175	0	108	13:42:35	4489476	4	3	3	3	1	3	1	3	2	5	4	0	0	0	0	4	3
103112	13:42:35	10005	Trial	IncongruentRight	14	205	60	1	108	13:42:35	4489569	4	3	3	3	1	3	1	3	2	5	4	0	0	0	0	4	3
103112	13:42:35	10005	Trial	ResponseCR	14	0	175	0	108	13:42:35	4491182	4	3	3	3	1	3	1	3	2	5	4	0	0	0	0	4	3
103112	13:42:35	10005	Trial	CongruentRight	14	205	242	1	108	13:42:35	4491461	4	3	3	3	1	3	1	3	2	5	4	0	0	0	0	4	3
103112	13:42:35	10005	Trial	ResponseIL	14	0	175	0	108	13:42:35	4492914	4	3	3	3	1	3	1	3	2	5	4	0	0	0	0	4	3
103112	13:42:35	10005	Trial	IncongruentLeft	14	203	382	1	108	13:42:35	4493327	4	3	3	3	1	3	1	3	2	5	4	0	0	0	0	4	3
103112	13:42:35	10005	Trial	ResponseCL	14	0	175	0	108	13:42:35	4494620	4	3	3	3	1	3	1	3	2	5	4	0	0	0	0	4	3
103112	13:42:35	10005	Trial	CongruentLeft	14	203	247	1	108	13:42:35	4494913	4	3	3	3	1	3	1	3	2	5	4	0	0	0	0	4	3
103112	13:42:35	10005	Trial	ResponseIR	14	0	175	0	108	13:42:35	4496326	4	3	3	3	1	3	1	3	2	5	4	0	0	0	0	4	3
103112	13:42:35	10005	Trial	IncongruentRight	14	205	201	1	108	13:42:35	4496579	4	3	3	3	1	3	1	3	2	5	4	0	0	0	0	4	3
103112	13:42:35	10005	Trial	ResponseIL	14	0	175	0	108	13:42:35	4498032	4	3	3	3	1	3	1	3	2	5	4	0	0	0	0	4	3
103112	13:42:35	10005	Trial	IncongruentLeft	14	203	261	1	108	13:42:35	4498339	4	3	3	3	1	3	1	3	2	5	4	0	0	0	0	4	3
103112	13:42:35	10005	Trial	ResponseCL	14	0	175	0	108	13:42:35	4499738	4	3	3	3	1	3	1	3	2	5	4	0	0	0	0	4	3
103112	13:42:35	10005	Trial	CongruentLeft	14	203	454	1	108	13:42:35	4500245	4	3	3	3	1	3	1	3	2	5	4	0	0	0	0	4	3
103112	13:42:35	10005	Trial	ResponseIL	14	0	175	0	108	13:42:35	4501444	4	3	3	3	1	3	1	3	2	5	4	0	0	0	0	4	3
103112	13:42:35	10005	Trial	IncongruentLeft	14	203	402	1	108	13:42:35	4501897	4	3	3	3	1	3	1	3	2	5	4	0	0	0	0	4	3
103112	13:42:35	10005	Trial	ResponseCR	14	0	175	0	108	13:42:35	4503177	4	3	3	3	1	3	1	3	2	5	4	0	0	0	0	4	3
103112	13:42:35	10005	Trial	CongruentRight	14	205	263	1	108	13:42:35	4503470	4	3	3	3	1	3	1	3	2	5	4	0	0	0	0	4	3
103112	13:42:35	10005	Trial	ResponseCL	14	0	175	0	108	13:42:35	4504896	4	3	3	3	1	3	1	3	2	5	4	0	0	0	0	4	3
103112	13:42:35	10005	Trial	CongruentLeft	14	203	175	1	108	13:42:35	4505109	4	3	3	3	1	3	1	3	2	5	4	0	0	0	0	4	3
103112	13:42:35	10005	Trial	ResponseIR	14	0	175	0	108	13:42:35	4506602	4	3	3	3	1	3	1	3	2	5	4	0	0	0	0	4	3
103112	13:42:35	10005	Trial	IncongruentRight	14	205	246	1	108	13:42:35	4506882	4	3	3	3	1	3	1	3	2	5	4	0	0	0	0	4	3
103112	13:42:35	10005	Trial	ResponseCL	14	0	175	0	108	13:42:35	4508335	4	3	3	3	1	3	1	3	2	5	4	0	0	0	0	4	3
103112	13:42:35	10005	Trial	CongruentLeft	14	203	289	1	108	13:42:35	4508654	4	3	3	3	1	3	1	3	2	5	4	0	0	0	0	4	3
103112	13:42:35	10005	Trial	ResponseCR	14	0	175	0	108	13:42:35	4510067	4	3	3	3	1	3	1	3	2	5	4	0	0	0	0	4	3
103112	13:42:35	10005	Trial	CongruentRight	14	205	284	1	108	13:42:35	4510387	4	3	3	3	1	3	1	3	2	5	4	0	0	0	0	4	3
103112	13:42:35	10005	Trial	ResponseIL	14	0	175	0	108	13:42:35	4511800	4	3	3	3	1	3	1	3	2	5	4	0	0	0	0	4	3
103112	13:42:35	10005	Trial	IncongruentLeft	14	203	407	1	108	13:42:35	4512240	4	3	3	3	1	3	1	3	2	5	4	0	0	0	0	4	3
103112	13:42:35	10005	WordsAbsFr6mo	PAbsFr6mo1	16	Abs1	4841	0	108	13:42:35	4524555	4	3	3	3	1	3	1	3	2	5	4	0	0	0	0	4	3
103112	13:42:35	10005	WordsAbsFr6mo	AbsFr6mo1	16	Abs1	4531	0	108	13:42:35	4529126	4	3	3	3	1	3	1	3	2	5	4	1	0	0	0	4	3
103112	13:42:35	10005	WordsAbsFr6mo	AbsFr6mo2	16	Abs1	12357	0	108	13:42:35	4541548	4	3	3	3	1	3	1	3	2	5	4	2	0	0	0	4	3
103112	13:42:35	10005	WordsAbsFr6mo	AbsFr6mo3	16	Abs2	6826	0	108	13:42:35	4548412	4	3	3	3	1	3	1	3	2	5	4	2	0	0	0	4	3
103112	13:42:35	10005	Trial2BackFrS	NS	17	0	1000	1	108	13:42:35	4606881	4	3	3	3	1	3	1	3	2	5	4	2	0	0	0	4	3
103112	13:42:35	10005	Trial2BackFrS	NS	17	0	1000	1	108	13:42:35	4608387	4	3	3	3	1	3	1	3	2	5	4	2	0	0	0	4	3
103112	13:42:35	10005	Trial2BackFrS	NS	17	0	1000	1	108	13:42:35	4609894	4	3	3	3	1	3	1	3	2	5	4	2	0	0	0	4	3
103112	13:42:35	10005	Trial2BackFrS	YS	17	0	1000	0	108	13:42:35	4611400	4	3	3	3	1	3	1	3	2	5	4	2	0	0	0	4	3
103112	13:42:35	10005	Trial2BackFrS	NS	17	0	1000	1	108	13:42:35	4612906	4	3	3	3	1	3	1	3	2	5	4	2	0	0	0	4	3
103112	13:42:35	10005	Trial2BackFrS	NS	17	0	1000	1	108	13:42:35	4614412	4	3	3	3	1	3	1	3	2	5	4	2	0	0	0	4	3
103112	13:42:35	10005	Trial2BackFrS	NS	17	0	1000	1	108	13:42:35	4615918	4	3	3	3	1	3	1	3	2	5	4	2	0	0	0	4	3
103112	13:42:35	10005	Trial2BackFrS	NS	17	0	1000	1	108	13:42:35	4617424	4	3	3	3	1	3	1	3	2	5	4	2	0	0	0	4	3
103112	13:42:35	10005	Trial2BackFrS	YS	17	0	1000	0	108	13:42:35	4618930	4	3	3	3	1	3	1	3	2	5	4	2	0	0	0	4	3
103112	13:42:35	10005	Trial2BackFrS	NS	17	0	1000	1	108	13:42:35	4620449	4	3	3	3	1	3	1	3	2	5	4	2	0	0	0	4	3
103112	13:42:35	10005	Trial2BackFrS	NS	17	0	1000	1	108	13:42:35	4621956	4	3	3	3	1	3	1	3	2	5	4	2	0	0	0	4	3
103112	13:42:35	10005	Trial2BackFrS	YS	17	0	1000	0	108	13:42:35	4623461	4	3	3	3	1	3	1	3	2	5	4	2	0	0	0	4	3
103112	13:42:35	10005	Trial2BackFrS	NS	17	0	1000	1	108	13:42:35	4624967	4	3	3	3	1	3	1	3	2	5	4	2	0	0	0	4	3
103112	13:42:35	10005	Trial2BackFrS	NS	17	0	1000	1	108	13:42:35	4626473	4	3	3	3	1	3	1	3	2	5	4	2	0	0	0	4	3
103112	13:42:35	10005	Trial2BackFrS	NS	17	0	1000	1	108	13:42:35	4627980	4	3	3	3	1	3	1	3	2	5	4	2	0	0	0	4	3
103112	13:42:35	10005	Trial2BackFrS	YS	17	57	754	1	108	13:42:35	4629246	4	3	3	3	1	3	1	3	2	5	4	2	0	0	0	4	3
103112	13:42:35	10005	Trial2BackFrS	NS	17	0	1000	1	108	13:42:35	4630992	4	3	3	3	1	3	1	3	2	5	4	2	0	0	0	4	3
103112	13:42:35	10005	Trial2BackFrS	NS	17	0	1000	1	108	13:42:35	4632498	4	3	3	3	1	3	1	3	2	5	4	2	0	0	0	4	3
103112	13:42:35	10005	Trial2BackFrS	NS	17	0	1000	1	108	13:42:35	4634017	4	3	3	3	1	3	1	3	2	5	4	2	0	0	0	4	3
103112	13:42:35	10005	Trial2BackFrS	NS	17	57	797	0	108	13:42:35	4635323	4	3	3	3	1	3	1	3	2	5	4	2	0	0	0	4	3
103112	13:42:35	10005	Trial2BackFrS	YS	17	0	1000	0	108	13:42:35	4637029	4	3	3	3	1	3	1	3	2	5	4	2	0	0	0	4	3
103112	13:42:35	10005	Trial2BackFrS	NS	17	0	1000	1	108	13:42:35	4638549	4	3	3	3	1	3	1	3	2	5	4	2	0	0	0	4	3
103112	13:42:35	10005	Trial2BackFrS	NS	17	0	1000	1	108	13:42:35	4640055	4	3	3	3	1	3	1	3	2	5	4	2	0	0	0	4	3
103112	13:42:35	10005	Trial2BackFrS	NS	17	57	775	0	108	13:42:35	4641347	4	3	3	3	1	3	1	3	2	5	4	2	0	0	0	4	3
103112	13:42:35	10005	Trial2BackFrS	NS	17	0	1000	1	108	13:42:35	4643067	4	3	3	3	1	3	1	3	2	5	4	2	0	0	0	4	3
103112	13:42:35	10005	Trial2BackFrS	NS	17	0	1000	1	108	13:42:35	4644573	4	3	3	3	1	3	1	3	2	5	4	2	0	0	0	4	3
103112	13:42:35	10005	Trial2BackFrS	NS	17	0	1000	1	108	13:42:35	4646079	4	3	3	3	1	3	1	3	2	5	4	2	0	0	0	4	3
103112	13:42:35	10005	Trial2BackFrS	NS	17	0	1000	1	108	13:42:35	4647585	4	3	3	3	1	3	1	3	2	5	4	2	0	0	0	4	3
103112	13:42:35	10005	Trial2BackFrS	NS	17	57	652	0	108	13:42:35	4648758	4	3	3	3	1	3	1	3	2	5	4	2	0	0	0	4	3
103112	13:42:35	10005	Trial2BackFrS	NS	17	0	1000	1	108	13:42:35	4650597	4	3	3	3	1	3	1	3	2	5	4	2	0	0	0	4	3
103112	13:42:35	10005	Trial2BackFrS	NS	17	0	1000	1	108	13:42:35	4652103	4	3	3	3	1	3	1	3	2	5	4	2	0	0	0	4	3
103112	13:42:35	10005	Trial2BackFrS	YS	17	0	1000	0	108	13:42:35	4653609	4	3	3	3	1	3	1	3	2	5	4	2	0	0	0	4	3
103112	13:42:35	10005	Trial2BackFrS	NS	17	0	1000	1	108	13:42:35	4655129	4	3	3	3	1	3	1	3	2	5	4	2	0	0	0	4	3
103112	13:42:35	10005	Trial2BackFrS	NS	17	0	1000	1	108	13:42:35	4656635	4	3	3	3	1	3	1	3	2	5	4	2	0	0	0	4	3
103112	13:42:35	10005	Trial2BackFrS	NS	17	0	1000	1	108	13:42:35	4658141	4	3	3	3	1	3	1	3	2	5	4	2	0	0	0	4	3
103112	13:42:35	10005	Trial2BackFrS	YS	17	57	560	1	108	13:42:35	4659220	4	3	3	3	1	3	1	3	2	5	4	2	0	0	0	4	3
103112	13:42:35	10005	Trial2BackFrS	NS	17	0	1000	1	108	13:42:35	4661153	4	3	3	3	1	3	1	3	2	5	4	2	0	0	0	4	3
103112	13:42:35	10005	Trial2BackFrS	NS	17	0	1000	1	108	13:42:35	4662659	4	3	3	3	1	3	1	3	2	5	4	2	0	0	0	4	3
103112	13:42:35	10005	Trial2BackFrS	NS	17	0	1000	1	108	13:42:35	4664165	4	3	3	3	1	3	1	3	2	5	4	2	0	0	0	4	3
103112	13:42:35	10005	Trial2BackFrS	NS	17	0	1000	1	108	13:42:35	4665671	4	3	3	3	1	3	1	3	2	5	4	2	0	0	0	4	3
103112	13:42:35	10005	Trial2BackFrS	NS	17	0	1000	1	108	13:42:35	4667177	4	3	3	3	1	3	1	3	2	5	4	2	0	0	0	4	3
103112	13:42:35	10005	Trial2BackFrS	NS	17	0	1000	1	108	13:42:35	4668683	4	3	3	3	1	3	1	3	2	5	4	2	0	0	0	4	3
103112	13:42:35	10005	Trial2BackFrS	NS	17	57	818	0	108	13:42:35	4670016	4	3	3	3	1	3	1	3	2	5	4	2	0	0	0	4	3
103112	13:42:35	10005	Trial2BackFrS	YS	17	0	1000	0	108	13:42:35	4671695	4	3	3	3	1	3	1	3	2	5	4	2	0	0	0	4	3
103112	13:42:35	10005	Trial2BackFrS	NS	17	0	1000	1	108	13:42:35	4673201	4	3	3	3	1	3	1	3	2	5	4	2	0	0	0	4	3
103112	13:42:35	10005	Trial2BackFrS	NS	17	0	1000	1	108	13:42:35	4674707	4	3	3	3	1	3	1	3	2	5	4	2	0	0	0	4	3
103112	13:42:35	10005	Trial2BackFrS	NS	17	57	777	0	108	13:42:35	4676000	4	3	3	3	1	3	1	3	2	5	4	2	0	0	0	4	3
103112	13:42:35	10005	Trial2BackFrS	NS	17	0	1000	1	108	13:42:35	4677719	4	3	3	3	1	3	1	3	2	5	4	2	0	0	0	4	3
103112	13:42:35	10005	Trial2BackFrS	YS	17	0	1000	0	108	13:42:35	4679225	4	3	3	3	1	3	1	3	2	5	4	2	0	0	0	4	3
103112	13:42:35	10005	Trial2BackFrS	NS	17	0	1000	1	108	13:42:35	4680731	4	3	3	3	1	3	1	3	2	5	4	2	0	0	0	4	3
103112	13:42:35	10005	Trial2BackFrS	NS	17	0	1000	1	108	13:42:35	4682238	4	3	3	3	1	3	1	3	2	5	4	2	0	0	0	4	3
103112	13:42:35	10005	Trial2BackFrS	NS	17	0	1000	1	108	13:42:35	4683744	4	3	3	3	1	3	1	3	2	5	4	2	0	0	0	4	3
103112	13:42:35	10005	Trial2BackFrS	NS	17	0	1000	1	108	13:42:35	4685250	4	3	3	3	1	3	1	3	2	5	4	2	0	0	0	4	3
103112	13:42:35	10005	Trial2BackFrS	NS	17	0	1000	1	108	13:42:35	4686756	4	3	3	3	1	3	1	3	2	5	4	2	0	0	0	4	3
103112	13:42:35	10005	Trial2BackFrS	NS	17	57	553	0	108	13:42:35	4687822	4	3	3	3	1	3	1	3	2	5	4	2	0	0	0	4	3
103112	13:42:35	10005	Trial2BackFrS	YS	17	0	1000	0	108	13:42:35	4689768	4	3	3	3	1	3	1	3	2	5	4	2	0	0	0	4	3
103112	13:42:35	10005	Trial2BackFrS	NS	17	0	1000	1	108	13:42:35	4691274	4	3	3	3	1	3	1	3	2	5	4	2	0	0	0	4	3
103112	13:42:35	10005	Trial2BackFrS	NS	17	0	1000	1	108	13:42:35	4692780	4	3	3	3	1	3	1	3	2	5	4	2	0	0	0	4	3
103112	13:42:35	10005	Trial2BackFrS	NS	17	0	1000	1	108	13:42:35	4694286	4	3	3	3	1	3	1	3	2	5	4	2	0	0	0	4	3
103112	13:42:35	10005	Trial2BackFrS	NS	17	57	974	0	108	13:42:35	4695779	4	3	3	3	1	3	1	3	2	5	4	2	0	0	0	4	3
103112	13:42:35	10005	Trial2BackFrS	NS	17	0	1000	1	108	13:42:35	4697298	4	3	3	3	1	3	1	3	2	5	4	2	0	0	0	4	3
103112	13:42:35	10005	Trial2BackFrS	NS	17	0	1000	1	108	13:42:35	4698804	4	3	3	3	1	3	1	3	2	5	4	2	0	0	0	4	3
103112	13:42:35	10005	Trial2BackFrS	NS	17	0	1000	1	108	13:42:35	4700310	4	3	3	3	1	3	1	3	2	5	4	2	0	0	0	4	3
103112	13:42:35	10005	Trial2BackFrS	YS	17	0	1000	0	108	13:42:35	4701816	4	3	3	3	1	3	1	3	2	5	4	2	0	0	0	4	3
103112	13:42:35	10005	Trial2BackFrS	NS	17	0	1000	1	108	13:42:35	4703322	4	3	3	3	1	3	1	3	2	5	4	2	0	0	0	4	3
103112	13:42:35	10005	Trial2BackFrS	NS	17	0	1000	1	108	13:42:35	4704828	4	3	3	3	1	3	1	3	2	5	4	2	0	0	0	4	3
103112	13:42:35	10005	Trial2BackFrS	NS	17	0	1000	1	108	13:42:35	4706334	4	3	3	3	1	3	1	3	2	5	4	2	0	0	0	4	3
103112	13:42:35	10005	Trial2BackFrS	NS	17	0	1000	1	108	13:42:35	4707841	4	3	3	3	1	3	1	3	2	5	4	2	0	0	0	4	3
103112	13:42:35	10005	Trial2BackFrS	YS	17	0	1000	0	108	13:42:35	4709347	4	3	3	3	1	3	1	3	2	5	4	2	0	0	0	4	3
103112	13:42:35	10005	Trial2BackFrS	NS	17	0	1000	1	108	13:42:35	4710853	4	3	3	3	1	3	1	3	2	5	4	2	0	0	0	4	3
103112	13:42:35	10005	Trial2BackFrS	NS	17	57	775	0	108	13:42:35	4712145	4	3	3	3	1	3	1	3	2	5	4	2	0	0	0	4	3
103112	13:42:35	10005	Trial2BackFrS	YS	17	0	1000	0	108	13:42:35	4713865	4	3	3	3	1	3	1	3	2	5	4	2	0	0	0	4	3
103112	13:42:35	10005	Trial2BackFrS	NS	17	0	1000	1	108	13:42:35	4715384	4	3	3	3	1	3	1	3	2	5	4	2	0	0	0	4	3
103112	13:42:35	10005	Trial2BackFrS	NS	17	0	1000	1	108	13:42:35	4716890	4	3	3	3	1	3	1	3	2	5	4	2	0	0	0	4	3
103112	13:42:35	10005	Trial2BackFrS	NS	17	0	1000	1	108	13:42:35	4718396	4	3	3	3	1	3	1	3	2	5	4	2	0	0	0	4	3
103112	13:42:35	10005	Trial2BackFrS	NS	17	0	1000	1	108	13:42:35	4719916	4	3	3	3	1	3	1	3	2	5	4	2	0	0	0	4	3
103112	13:42:35	10005	Trial2BackFrS	NS	17	0	1000	1	108	13:42:35	4721422	4	3	3	3	1	3	1	3	2	5	4	2	0	0	0	4	3
103112	13:42:35	10005	Trial2BackFrS	NS	17	0	1000	1	108	13:42:35	4722928	4	3	3	3	1	3	1	3	2	5	4	2	0	0	0	4	3
103112	13:42:35	10005	Trial2BackFrS	YS	17	0	1000	0	108	13:42:35	4724434	4	3	3	3	1	3	1	3	2	5	4	2	0	0	0	4	3
103112	13:42:35	10005	Trial2BackFrS	NS	17	0	1000	1	108	13:42:35	4725940	4	3	3	3	1	3	1	3	2	5	4	2	0	0	0	4	3
103112	13:42:35	10005	Trial2BackFrS	NS	17	57	888	0	108	13:42:35	4727339	4	3	3	3	1	3	1	3	2	5	4	2	0	0	0	4	3
103112	13:42:35	10005	Trial2BackFrS	NS	17	0	1000	1	108	13:42:35	4728952	4	3	3	3	1	3	1	3	2	5	4	2	0	0	0	4	3
103112	13:42:35	10005	Trial2BackFrS	NS	17	0	1000	1	108	13:42:35	4730458	4	3	3	3	1	3	1	3	2	5	4	2	0	0	0	4	3
103112	13:42:35	10005	Trial2BackFrS	YS	17	0	1000	0	108	13:42:35	4731964	4	3	3	3	1	3	1	3	2	5	4	2	0	0	0	4	3
103112	13:42:35	10005	Trial2BackFrS	NS	17	0	1000	1	108	13:42:35	4733470	4	3	3	3	1	3	1	3	2	5	4	2	0	0	0	4	3
103112	13:42:35	10005	Trial2BackFrS	NS	17	0	1000	1	108	13:42:35	4734976	4	3	3	3	1	3	1	3	2	5	4	2	0	0	0	4	3
103112	13:42:35	10005	Trial2BackFrS	NS	17	0	1000	1	108	13:42:35	4736482	4	3	3	3	1	3	1	3	2	5	4	2	0	0	0	4	3
103112	13:42:35	10005	Trial2BackFrS	NS	17	0	1000	1	108	13:42:35	4737988	4	3	3	3	1	3	1	3	2	5	4	2	0	0	0	4	3
103112	13:42:35	10005	Trial2BackFrS	YS	17	0	1000	0	108	13:42:35	4739494	4	3	3	3	1	3	1	3	2	5	4	2	0	0	0	4	3
103112	13:42:35	10005	Trial2BackFrS	NS	17	0	1000	1	108	13:42:35	4741000	4	3	3	3	1	3	1	3	2	5	4	2	0	0	0	4	3
103112	13:42:35	10005	Trial2BackFrS	NS	17	0	1000	1	108	13:42:35	4742507	4	3	3	3	1	3	1	3	2	5	4	2	0	0	0	4	3
103112	13:42:35	10005	Trial2BackFrS	YS	17	57	801	1	108	13:42:35	4743826	4	3	3	3	1	3	1	3	2	5	4	2	0	0	0	4	3
103112	13:42:35	10005	Trial2BackFrS	NS	17	0	1000	1	108	13:42:35	4745519	4	3	3	3	1	3	1	3	2	5	4	2	0	0	0	4	3
103112	13:42:35	10005	Trial2BackFrS	NS	17	0	1000	1	108	13:42:35	4747038	4	3	3	3	1	3	1	3	2	5	4	2	0	0	0	4	3
103112	13:42:35	10005	Trial2BackFrS	NS	17	0	1000	1	108	13:42:35	4748544	4	3	3	3	1	3	1	3	2	5	4	2	0	0	0	4	3
103112	13:42:35	10005	Trial2BackFrS	NS	17	0	1000	1	108	13:42:35	4750050	4	3	3	3	1	3	1	3	2	5	4	2	0	0	0	4	3
103112	13:42:35	10005	Trial2BackFrS	NS	17	0	1000	1	108	13:42:35	4751556	4	3	3	3	1	3	1	3	2	5	4	2	0	0	0	4	3
103112	13:42:35	10005	Trial2BackFrS	NS	17	0	1000	1	108	13:42:35	4753076	4	3	3	3	1	3	1	3	2	5	4	2	0	0	0	4	3
103112	13:42:35	10005	Trial2BackFrS	NS	17	0	1000	1	108	13:42:35	4754582	4	3	3	3	1	3	1	3	2	5	4	2	0	0	0	4	3
103112	13:42:35	10005	Trial2BackFrS	NS	17	0	1000	1	108	13:42:35	4756088	4	3	3	3	1	3	1	3	2	5	4	2	0	0	0	4	3
103112	13:42:35	10005	Trial2BackFrS	YS	17	0	1000	0	108	13:42:35	4757607	4	3	3	3	1	3	1	3	2	5	4	2	0	0	0	4	3
103112	13:42:35	10005	Trial2BackFrS	NS	17	0	1000	1	108	13:42:35	4759113	4	3	3	3	1	3	1	3	2	5	4	2	0	0	0	4	3
103112	13:42:35	10005	Trial2BackFrS	NS	17	0	1000	1	108	13:42:35	4760619	4	3	3	3	1	3	1	3	2	5	4	2	0	0	0	4	3
103112	13:42:35	10005	Trial2BackFrS	NS	17	0	1000	1	108	13:42:35	4762125	4	3	3	3	1	3	1	3	2	5	4	2	0	0	0	4	3
103112	13:42:35	10005	Trial2BackFrS	NS	17	0	1000	1	108	13:42:35	4763631	4	3	3	3	1	3	1	3	2	5	4	2	0	0	0	4	3
103112	13:42:35	10005	Trial2BackFrS	NS	17	0	1000	1	108	13:42:35	4765137	4	3	3	3	1	3	1	3	2	5	4	2	0	0	0	4	3
103112	13:42:35	10005	Trial2BackFrS	NS	17	0	1000	1	108	13:42:35	4766643	4	3	3	3	1	3	1	3	2	5	4	2	0	0	0	4	3
103112	13:42:35	10005	Trial2BackFrS	NS	17	0	1000	1	108	13:42:35	4768149	4	3	3	3	1	3	1	3	2	5	4	2	0	0	0	4	3
103112	13:42:35	10005	Trial2BackFrS	YS	17	0	1000	0	108	13:42:35	4769655	4	3	3	3	1	3	1	3	2	5	4	2	0	0	0	4	3
103112	13:42:35	10005	Trial2BackFrS	NS	17	0	1000	1	108	13:42:35	4771162	4	3	3	3	1	3	1	3	2	5	4	2	0	0	0	4	3
103112	13:42:35	10005	Trial2BackFrS	NS	17	0	1000	1	108	13:42:35	4772668	4	3	3	3	1	3	1	3	2	5	4	2	0	0	0	4	3
103112	13:42:35	10005	Trial2BackFrS	NS	17	0	1000	1	108	13:42:35	4774174	4	3	3	3	1	3	1	3	2	5	4	2	0	0	0	4	3
103112	13:42:35	10005	Trial2BackFrS	NS	17	0	1000	1	108	13:42:35	4775680	4	3	3	3	1	3	1	3	2	5	4	2	0	0	0	4	3
103112	13:42:35	10005	Trial2BackFrS	NS	17	0	1000	1	108	13:42:35	4777186	4	3	3	3	1	3	1	3	2	5	4	2	0	0	0	4	3
103112	13:42:35	10005	Trial2BackFrS	NS	17	0	1000	1	108	13:42:35	4778705	4	3	3	3	1	3	1	3	2	5	4	2	0	0	0	4	3
103112	13:42:35	10005	Trial2BackFrS	NS	17	0	1000	1	108	13:42:35	4780211	4	3	3	3	1	3	1	3	2	5	4	2	0	0	0	4	3
103112	13:42:35	10005	Trial2BackFrS	NS	17	0	1000	1	108	13:42:35	4781717	4	3	3	3	1	3	1	3	2	5	4	2	0	0	0	4	3
103112	13:42:35	10005	Trial2BackFrS	NS	17	0	1000	1	108	13:42:35	4783223	4	3	3	3	1	3	1	3	2	5	4	2	0	0	0	4	3
103112	13:42:35	10005	Trial2BackFrS	YS	17	0	1000	0	108	13:42:35	4784729	4	3	3	3	1	3	1	3	2	5	4	2	0	0	0	4	3
103112	13:42:35	10005	Trial2BackFrS	NS	17	0	1000	1	108	13:42:35	4786236	4	3	3	3	1	3	1	3	2	5	4	2	0	0	0	4	3
103112	13:42:35	10005	ClockFr6mo	ClockFr6mo	19	Clock1	148105	0	108	13:42:35	4934549	4	3	3	3	1	3	1	3	2	5	4	2	1	0	0	4	3
103112	13:42:35	10005	ClockFr6mo	ClockFr6mo	19	Clock11	697	0	108	13:42:35	4935295	4	3	3	3	1	3	1	3	2	5	4	2	1	1	0	4	3
103112	13:42:35	10005	ClockFr6mo	ClockFr6mo	19	Clock222	1471	0	108	13:42:35	4936815	4	3	3	3	1	3	1	3	2	5	4	2	1	1	0	4	3
103112	13:42:35	10005	ClockFr6mo	ClockFr6mo	19	Clockdone	871	0	108	13:42:35	4937734	4	3	3	3	1	3	1	3	2	5	4	2	1	1	0	4	3
103112	13:42:35	10005	FASFrVF6mo	StopFrVF6mo	20	11	16348	0	108	13:42:35	5077120	4	3	3	3	1	3	1	3	2	5	4	2	1	1	0	4	3
