date	time	subject	blockcode	trialcode	values.TaskNumber	response	latency	correct	values.Score	script.starttime	script.elapsedtime	values.ScoreS7	values.Word1	values.Word2	values.Word3	values.Word4	values.Word5	values.Word6	values.Word7	values.Word8	values.DigitSpanFwrd	values.DigitSpanBack	values.ScoreAbs	values.Contour	values.Numbers	values.Hands	values.corsiblockspanFwrd	values.corsiblockspanRev
112112	08:09:32	10009	Language	Language	0	English	772161	0	0	08:09:32	772291	0	0	0	0	0	0	0	0	0	0	0	0	0	0	0	0	0
112112	08:09:32	10009	Session	Session	0	6mo	1225	0	0	08:09:32	773583	0	0	0	0	0	0	0	0	0	0	0	0	0	0	0	0	0
112112	08:09:32	10009	HandEng	HandEng	0	Right	1103	0	0	08:09:32	774756	0	0	0	0	0	0	0	0	0	0	0	0	0	0	0	0	0
112112	08:09:32	10009	CubeEng	CubeEng	1	1Cube	20853	0	0	08:09:32	979113	0	0	0	0	0	0	0	0	0	0	0	0	0	0	0	0	0
112112	08:09:32	10009	pm.simpleEngRight	blank.simpleEng	2	0	1900	1	0	08:09:32	993427	0	0	0	0	0	0	0	0	0	0	0	0	0	0	0	0	0
112112	08:09:32	10009	pm.simpleEngRight	pm.simpleEng	2	57	307	0	0	08:09:32	993760	0	0	0	0	0	0	0	0	0	0	0	0	0	0	0	0	0
112112	08:09:32	10009	pm.simpleEngRight	blank.simpleEng	2	0	2200	1	0	08:09:32	995973	0	0	0	0	0	0	0	0	0	0	0	0	0	0	0	0	0
112112	08:09:32	10009	pm.simpleEngRight	pm.simpleEng	2	57	338	0	0	08:09:32	996333	0	0	0	0	0	0	0	0	0	0	0	0	0	0	0	0	0
112112	08:09:32	10009	pm.simpleEngRight	blank.simpleEng	2	0	2000	1	0	08:09:32	998345	0	0	0	0	0	0	0	0	0	0	0	0	0	0	0	0	0
112112	08:09:32	10009	pm.simpleEngRight	pm.simpleEng	2	57	317	0	0	08:09:32	998692	0	0	0	0	0	0	0	0	0	0	0	0	0	0	0	0	0
112112	08:09:32	10009	pm.simpleEngRight	blank.simpleEng	2	0	1500	1	0	08:09:32	1000211	0	0	0	0	0	0	0	0	0	0	0	0	0	0	0	0	0
112112	08:09:32	10009	pm.simpleEngRight	pm.simpleEng	2	57	355	0	0	08:09:32	1000584	0	0	0	0	0	0	0	0	0	0	0	0	0	0	0	0	0
112112	08:09:32	10009	pm.simpleEngRight	blank.simpleEng	2	0	2100	1	0	08:09:32	1002703	0	0	0	0	0	0	0	0	0	0	0	0	0	0	0	0	0
112112	08:09:32	10009	pm.simpleEngRight	pm.simpleEng	2	57	279	0	0	08:09:32	1003010	0	0	0	0	0	0	0	0	0	0	0	0	0	0	0	0	0
112112	08:09:32	10009	pm.simpleEngRight	blank.simpleEng	2	0	1800	1	0	08:09:32	1004822	0	0	0	0	0	0	0	0	0	0	0	0	0	0	0	0	0
112112	08:09:32	10009	pm.simpleEngRight	pm.simpleEng	2	57	352	0	0	08:09:32	1005196	0	0	0	0	0	0	0	0	0	0	0	0	0	0	0	0	0
112112	08:09:32	10009	pm.simpleEngRight	blank.simpleEng	2	0	1600	1	0	08:09:32	1006808	0	0	0	0	0	0	0	0	0	0	0	0	0	0	0	0	0
112112	08:09:32	10009	pm.simpleEngRight	pm.simpleEng	2	57	366	0	0	08:09:32	1007195	0	0	0	0	0	0	0	0	0	0	0	0	0	0	0	0	0
112112	08:09:32	10009	pm.simpleEngRight	blank.simpleEng	2	0	2300	1	0	08:09:32	1009514	0	0	0	0	0	0	0	0	0	0	0	0	0	0	0	0	0
112112	08:09:32	10009	pm.simpleEngRight	pm.simpleEng	2	57	316	0	0	08:09:32	1009847	0	0	0	0	0	0	0	0	0	0	0	0	0	0	0	0	0
112112	08:09:32	10009	pm.simpleEngRight	blank.simpleEng	2	0	1700	1	0	08:09:32	1011566	0	0	0	0	0	0	0	0	0	0	0	0	0	0	0	0	0
112112	08:09:32	10009	pm.simpleEngRight	pm.simpleEng	2	57	376	0	0	08:09:32	1011966	0	0	0	0	0	0	0	0	0	0	0	0	0	0	0	0	0
112112	08:09:32	10009	pm.simpleEngRight	blank.simpleEng	2	0	2400	1	0	08:09:32	1014379	0	0	0	0	0	0	0	0	0	0	0	0	0	0	0	0	0
112112	08:09:32	10009	pm.simpleEngRight	pm.simpleEng	2	57	395	0	0	08:09:32	1014792	0	0	0	0	0	0	0	0	0	0	0	0	0	0	0	0	0
112112	08:09:32	10009	pm.simpleEngRight	blank.simpleEng	2	0	2500	1	0	08:09:32	1017311	0	0	0	0	0	0	0	0	0	0	0	0	0	0	0	0	0
112112	08:09:32	10009	pm.simpleEngRight	pm.simpleEng	2	57	278	0	0	08:09:32	1017617	0	0	0	0	0	0	0	0	0	0	0	0	0	0	0	0	0
112112	08:09:32	10009	pm.simpleEngRight	blank.simpleEng	2	0	2500	1	0	08:09:32	1020136	0	0	0	0	0	0	0	0	0	0	0	0	0	0	0	0	0
112112	08:09:32	10009	pm.simpleEngRight	pm.simpleEng	2	57	349	0	0	08:09:32	1020509	0	0	0	0	0	0	0	0	0	0	0	0	0	0	0	0	0
112112	08:09:32	10009	pm.simpleEngRight	blank.simpleEng	2	0	2100	1	0	08:09:32	1022669	0	0	0	0	0	0	0	0	0	0	0	0	0	0	0	0	0
112112	08:09:32	10009	pm.simpleEngRight	pm.simpleEng	2	57	361	0	0	08:09:32	1023055	0	0	0	0	0	0	0	0	0	0	0	0	0	0	0	0	0
112112	08:09:32	10009	pm.simpleEngRight	blank.simpleEng	2	0	1700	1	0	08:09:32	1024774	0	0	0	0	0	0	0	0	0	0	0	0	0	0	0	0	0
112112	08:09:32	10009	pm.simpleEngRight	pm.simpleEng	2	57	319	0	0	08:09:32	1025121	0	0	0	0	0	0	0	0	0	0	0	0	0	0	0	0	0
112112	08:09:32	10009	pm.simpleEngRight	blank.simpleEng	2	0	2000	1	0	08:09:32	1027133	0	0	0	0	0	0	0	0	0	0	0	0	0	0	0	0	0
112112	08:09:32	10009	pm.simpleEngRight	pm.simpleEng	2	57	264	0	0	08:09:32	1027427	0	0	0	0	0	0	0	0	0	0	0	0	0	0	0	0	0
112112	08:09:32	10009	pm.simpleEngRight	blank.simpleEng	2	0	1500	1	0	08:09:32	1028946	0	0	0	0	0	0	0	0	0	0	0	0	0	0	0	0	0
112112	08:09:32	10009	pm.simpleEngRight	pm.simpleEng	2	57	356	0	0	08:09:32	1029319	0	0	0	0	0	0	0	0	0	0	0	0	0	0	0	0	0
112112	08:09:32	10009	pm.simpleEngRight	blank.simpleEng	2	0	2200	1	0	08:09:32	1031532	0	0	0	0	0	0	0	0	0	0	0	0	0	0	0	0	0
112112	08:09:32	10009	pm.simpleEngRight	pm.simpleEng	2	57	298	0	0	08:09:32	1031851	0	0	0	0	0	0	0	0	0	0	0	0	0	0	0	0	0
112112	08:09:32	10009	pm.simpleEngRight	blank.simpleEng	2	0	1600	1	0	08:09:32	1033464	0	0	0	0	0	0	0	0	0	0	0	0	0	0	0	0	0
112112	08:09:32	10009	pm.simpleEngRight	pm.simpleEng	2	57	493	0	0	08:09:32	1033984	0	0	0	0	0	0	0	0	0	0	0	0	0	0	0	0	0
112112	08:09:32	10009	pm.simpleEngRight	blank.simpleEng	2	0	1900	1	0	08:09:32	1035903	0	0	0	0	0	0	0	0	0	0	0	0	0	0	0	0	0
112112	08:09:32	10009	pm.simpleEngRight	pm.simpleEng	2	57	278	0	0	08:09:32	1036210	0	0	0	0	0	0	0	0	0	0	0	0	0	0	0	0	0
112112	08:09:32	10009	pm.simpleEngRight	blank.simpleEng	2	0	2400	1	0	08:09:32	1038622	0	0	0	0	0	0	0	0	0	0	0	0	0	0	0	0	0
112112	08:09:32	10009	pm.simpleEngRight	pm.simpleEng	2	57	296	0	0	08:09:32	1038942	0	0	0	0	0	0	0	0	0	0	0	0	0	0	0	0	0
112112	08:09:32	10009	pm.simpleEngRight	blank.simpleEng	2	0	2300	1	0	08:09:32	1041261	0	0	0	0	0	0	0	0	0	0	0	0	0	0	0	0	0
112112	08:09:32	10009	pm.simpleEngRight	pm.simpleEng	2	57	360	0	0	08:09:32	1041648	0	0	0	0	0	0	0	0	0	0	0	0	0	0	0	0	0
112112	08:09:32	10009	pm.simpleEngRight	blank.simpleEng	2	0	1800	1	0	08:09:32	1043460	0	0	0	0	0	0	0	0	0	0	0	0	0	0	0	0	0
112112	08:09:32	10009	pm.simpleEngRight	pm.simpleEng	2	57	417	0	0	08:09:32	1043900	0	0	0	0	0	0	0	0	0	0	0	0	0	0	0	0	0
112112	08:09:32	10009	pm.simpleEngRight	blank.simpleEng	2	0	2000	1	0	08:09:32	1045926	0	0	0	0	0	0	0	0	0	0	0	0	0	0	0	0	0
112112	08:09:32	10009	pm.simpleEngRight	pm.simpleEng	2	57	320	0	0	08:09:32	1046272	0	0	0	0	0	0	0	0	0	0	0	0	0	0	0	0	0
112112	08:09:32	10009	pm.simpleEngRight	blank.simpleEng	2	0	1900	1	0	08:09:32	1048192	0	0	0	0	0	0	0	0	0	0	0	0	0	0	0	0	0
112112	08:09:32	10009	pm.simpleEngRight	pm.simpleEng	2	57	325	0	0	08:09:32	1048538	0	0	0	0	0	0	0	0	0	0	0	0	0	0	0	0	0
112112	08:09:32	10009	pm.simpleEngRight	blank.simpleEng	2	0	2200	1	0	08:09:32	1050751	0	0	0	0	0	0	0	0	0	0	0	0	0	0	0	0	0
112112	08:09:32	10009	pm.simpleEngRight	pm.simpleEng	2	57	295	0	0	08:09:32	1051070	0	0	0	0	0	0	0	0	0	0	0	0	0	0	0	0	0
112112	08:09:32	10009	pm.simpleEngRight	blank.simpleEng	2	0	2400	1	0	08:09:32	1053483	0	0	0	0	0	0	0	0	0	0	0	0	0	0	0	0	0
112112	08:09:32	10009	pm.simpleEngRight	pm.simpleEng	2	57	250	0	0	08:09:32	1053749	0	0	0	0	0	0	0	0	0	0	0	0	0	0	0	0	0
112112	08:09:32	10009	pm.simpleEngRight	blank.simpleEng	2	0	1600	1	0	08:09:32	1055362	0	0	0	0	0	0	0	0	0	0	0	0	0	0	0	0	0
112112	08:09:32	10009	pm.simpleEngRight	pm.simpleEng	2	57	451	0	0	08:09:32	1055842	0	0	0	0	0	0	0	0	0	0	0	0	0	0	0	0	0
112112	08:09:32	10009	pm.simpleEngRight	blank.simpleEng	2	0	1500	1	0	08:09:32	1057361	0	0	0	0	0	0	0	0	0	0	0	0	0	0	0	0	0
112112	08:09:32	10009	pm.simpleEngRight	pm.simpleEng	2	57	324	0	0	08:09:32	1057708	0	0	0	0	0	0	0	0	0	0	0	0	0	0	0	0	0
112112	08:09:32	10009	pm.simpleEngRight	blank.simpleEng	2	0	1700	1	0	08:09:32	1059427	0	0	0	0	0	0	0	0	0	0	0	0	0	0	0	0	0
112112	08:09:32	10009	pm.simpleEngRight	pm.simpleEng	2	57	273	0	0	08:09:32	1059720	0	0	0	0	0	0	0	0	0	0	0	0	0	0	0	0	0
112112	08:09:32	10009	pm.simpleEngRight	blank.simpleEng	2	0	1800	1	0	08:09:32	1061533	0	0	0	0	0	0	0	0	0	0	0	0	0	0	0	0	0
112112	08:09:32	10009	pm.simpleEngRight	pm.simpleEng	2	57	312	0	0	08:09:32	1061866	0	0	0	0	0	0	0	0	0	0	0	0	0	0	0	0	0
112112	08:09:32	10009	pm.simpleEngRight	blank.simpleEng	2	0	2100	1	0	08:09:32	1063985	0	0	0	0	0	0	0	0	0	0	0	0	0	0	0	0	0
112112	08:09:32	10009	pm.simpleEngRight	pm.simpleEng	2	57	340	0	0	08:09:32	1064345	0	0	0	0	0	0	0	0	0	0	0	0	0	0	0	0	0
112112	08:09:32	10009	pm.simpleEngRight	blank.simpleEng	2	0	2300	1	0	08:09:32	1066664	0	0	0	0	0	0	0	0	0	0	0	0	0	0	0	0	0
112112	08:09:32	10009	pm.simpleEngRight	pm.simpleEng	2	57	349	0	0	08:09:32	1067037	0	0	0	0	0	0	0	0	0	0	0	0	0	0	0	0	0
112112	08:09:32	10009	pm.simpleEngRight	blank.simpleEng	2	0	2500	1	0	08:09:32	1069556	0	0	0	0	0	0	0	0	0	0	0	0	0	0	0	0	0
112112	08:09:32	10009	pm.simpleEngRight	pm.simpleEng	2	57	305	0	0	08:09:32	1069890	0	0	0	0	0	0	0	0	0	0	0	0	0	0	0	0	0
112112	08:09:32	10009	pm.simpleEngRight	blank.simpleEng	2	0	2000	1	0	08:09:32	1071915	0	0	0	0	0	0	0	0	0	0	0	0	0	0	0	0	0
112112	08:09:32	10009	pm.simpleEngRight	pm.simpleEng	2	57	361	0	0	08:09:32	1072302	0	0	0	0	0	0	0	0	0	0	0	0	0	0	0	0	0
112112	08:09:32	10009	pm.simpleEngRight	blank.simpleEng	2	0	2100	1	0	08:09:32	1074421	0	0	0	0	0	0	0	0	0	0	0	0	0	0	0	0	0
112112	08:09:32	10009	pm.simpleEngRight	pm.simpleEng	2	57	416	0	0	08:09:32	1074861	0	0	0	0	0	0	0	0	0	0	0	0	0	0	0	0	0
112112	08:09:32	10009	pm.simpleEngRight	blank.simpleEng	2	0	2200	1	0	08:09:32	1077073	0	0	0	0	0	0	0	0	0	0	0	0	0	0	0	0	0
112112	08:09:32	10009	pm.simpleEngRight	pm.simpleEng	2	57	291	0	0	08:09:32	1077393	0	0	0	0	0	0	0	0	0	0	0	0	0	0	0	0	0
112112	08:09:32	10009	pm.simpleEngRight	blank.simpleEng	2	0	2400	1	0	08:09:32	1079805	0	0	0	0	0	0	0	0	0	0	0	0	0	0	0	0	0
112112	08:09:32	10009	pm.simpleEngRight	pm.simpleEng	2	57	311	0	0	08:09:32	1080139	0	0	0	0	0	0	0	0	0	0	0	0	0	0	0	0	0
112112	08:09:32	10009	pm.simpleEngRight	blank.simpleEng	2	0	1700	1	0	08:09:32	1081858	0	0	0	0	0	0	0	0	0	0	0	0	0	0	0	0	0
112112	08:09:32	10009	pm.simpleEngRight	pm.simpleEng	2	57	402	0	0	08:09:32	1082285	0	0	0	0	0	0	0	0	0	0	0	0	0	0	0	0	0
112112	08:09:32	10009	pm.simpleEngRight	blank.simpleEng	2	0	1600	1	0	08:09:32	1083897	0	0	0	0	0	0	0	0	0	0	0	0	0	0	0	0	0
112112	08:09:32	10009	pm.simpleEngRight	pm.simpleEng	2	57	347	0	0	08:09:32	1084270	0	0	0	0	0	0	0	0	0	0	0	0	0	0	0	0	0
112112	08:09:32	10009	pm.simpleEngRight	blank.simpleEng	2	0	1500	1	0	08:09:32	1085790	0	0	0	0	0	0	0	0	0	0	0	0	0	0	0	0	0
112112	08:09:32	10009	pm.simpleEngRight	pm.simpleEng	2	57	343	0	0	08:09:32	1086150	0	0	0	0	0	0	0	0	0	0	0	0	0	0	0	0	0
112112	08:09:32	10009	Trial2BackEng	N	3	0	1000	1	1	08:09:32	1117470	0	0	0	0	0	0	0	0	0	0	0	0	0	0	0	0	0
112112	08:09:32	10009	Trial2BackEng	N	3	0	1000	1	2	08:09:32	1118976	0	0	0	0	0	0	0	0	0	0	0	0	0	0	0	0	0
112112	08:09:32	10009	Trial2BackEng	N	3	0	1000	1	3	08:09:32	1120482	0	0	0	0	0	0	0	0	0	0	0	0	0	0	0	0	0
112112	08:09:32	10009	Trial2BackEng	N	3	0	1000	1	4	08:09:32	1121988	0	0	0	0	0	0	0	0	0	0	0	0	0	0	0	0	0
112112	08:09:32	10009	Trial2BackEng	N	3	0	1000	1	5	08:09:32	1123508	0	0	0	0	0	0	0	0	0	0	0	0	0	0	0	0	0
112112	08:09:32	10009	Trial2BackEng	N	3	0	1000	1	6	08:09:32	1125014	0	0	0	0	0	0	0	0	0	0	0	0	0	0	0	0	0
112112	08:09:32	10009	Trial2BackEng	N	3	0	1000	1	7	08:09:32	1126520	0	0	0	0	0	0	0	0	0	0	0	0	0	0	0	0	0
112112	08:09:32	10009	Trial2BackEng	N	3	0	1000	1	8	08:09:32	1128026	0	0	0	0	0	0	0	0	0	0	0	0	0	0	0	0	0
112112	08:09:32	10009	Trial2BackEng	Y	3	57	718	1	9	08:09:32	1129252	0	0	0	0	0	0	0	0	0	0	0	0	0	0	0	0	0
112112	08:09:32	10009	Trial2BackEng	N	3	0	1000	1	10	08:09:32	1131038	0	0	0	0	0	0	0	0	0	0	0	0	0	0	0	0	0
112112	08:09:32	10009	Trial2BackEng	N	3	0	1000	1	11	08:09:32	1132544	0	0	0	0	0	0	0	0	0	0	0	0	0	0	0	0	0
112112	08:09:32	10009	Trial2BackEng	N	3	0	1000	1	12	08:09:32	1134064	0	0	0	0	0	0	0	0	0	0	0	0	0	0	0	0	0
112112	08:09:32	10009	Trial2BackEng	Y	3	57	488	1	13	08:09:32	1135063	0	0	0	0	0	0	0	0	0	0	0	0	0	0	0	0	0
112112	08:09:32	10009	Trial2BackEng	N	3	0	1000	1	14	08:09:32	1137076	0	0	0	0	0	0	0	0	0	0	0	0	0	0	0	0	0
112112	08:09:32	10009	Trial2BackEng	N	3	0	1000	1	15	08:09:32	1138582	0	0	0	0	0	0	0	0	0	0	0	0	0	0	0	0	0
112112	08:09:32	10009	Trial2BackEng	N	3	0	1000	1	16	08:09:32	1140088	0	0	0	0	0	0	0	0	0	0	0	0	0	0	0	0	0
112112	08:09:32	10009	Trial2BackEng	N	3	0	1000	1	17	08:09:32	1141594	0	0	0	0	0	0	0	0	0	0	0	0	0	0	0	0	0
112112	08:09:32	10009	Trial2BackEng	N	3	0	1000	1	18	08:09:32	1143100	0	0	0	0	0	0	0	0	0	0	0	0	0	0	0	0	0
112112	08:09:32	10009	Trial2BackEng	Y	3	0	1000	0	18	08:09:32	1144619	0	0	0	0	0	0	0	0	0	0	0	0	0	0	0	0	0
112112	08:09:32	10009	Trial2BackEng	N	3	0	1000	1	19	08:09:32	1146125	0	0	0	0	0	0	0	0	0	0	0	0	0	0	0	0	0
112112	08:09:32	10009	Trial2BackEng	N	3	0	1000	1	20	08:09:32	1147645	0	0	0	0	0	0	0	0	0	0	0	0	0	0	0	0	0
112112	08:09:32	10009	Trial2BackEng	N	3	0	1000	1	21	08:09:32	1149151	0	0	0	0	0	0	0	0	0	0	0	0	0	0	0	0	0
112112	08:09:32	10009	Trial2BackEng	N	3	0	1000	1	22	08:09:32	1150657	0	0	0	0	0	0	0	0	0	0	0	0	0	0	0	0	0
112112	08:09:32	10009	Trial2BackEng	Y	3	57	774	1	23	08:09:32	1151950	0	0	0	0	0	0	0	0	0	0	0	0	0	0	0	0	0
112112	08:09:32	10009	Trial2BackEng	N	3	0	1000	1	24	08:09:32	1153669	0	0	0	0	0	0	0	0	0	0	0	0	0	0	0	0	0
112112	08:09:32	10009	Trial2BackEng	N	3	0	1000	1	25	08:09:32	1155175	0	0	0	0	0	0	0	0	0	0	0	0	0	0	0	0	0
112112	08:09:32	10009	Trial2BackEng	N	3	0	1000	1	26	08:09:32	1156694	0	0	0	0	0	0	0	0	0	0	0	0	0	0	0	0	0
112112	08:09:32	10009	Trial2BackEng	N	3	0	1000	1	27	08:09:32	1158200	0	0	0	0	0	0	0	0	0	0	0	0	0	0	0	0	0
112112	08:09:32	10009	Trial2BackEng	N	3	0	1000	1	28	08:09:32	1159707	0	0	0	0	0	0	0	0	0	0	0	0	0	0	0	0	0
112112	08:09:32	10009	Trial2BackEng	N	3	0	1000	1	29	08:09:32	1161213	0	0	0	0	0	0	0	0	0	0	0	0	0	0	0	0	0
112112	08:09:32	10009	Trial2BackEng	Y	3	57	602	1	30	08:09:32	1162332	0	0	0	0	0	0	0	0	0	0	0	0	0	0	0	0	0
112112	08:09:32	10009	Trial2BackEng	N	3	0	1000	1	31	08:09:32	1164225	0	0	0	0	0	0	0	0	0	0	0	0	0	0	0	0	0
112112	08:09:32	10009	Trial2BackEng	N	3	0	1000	1	32	08:09:32	1165744	0	0	0	0	0	0	0	0	0	0	0	0	0	0	0	0	0
112112	08:09:32	10009	Trial2BackEng	N	3	0	1000	1	33	08:09:32	1167250	0	0	0	0	0	0	0	0	0	0	0	0	0	0	0	0	0
112112	08:09:32	10009	Trial2BackEng	Y	3	57	853	1	34	08:09:32	1168623	0	0	0	0	0	0	0	0	0	0	0	0	0	0	0	0	0
112112	08:09:32	10009	Trial2BackEng	N	3	0	1000	1	35	08:09:32	1170262	0	0	0	0	0	0	0	0	0	0	0	0	0	0	0	0	0
112112	08:09:32	10009	Trial2BackEng	N	3	0	1000	1	36	08:09:32	1171768	0	0	0	0	0	0	0	0	0	0	0	0	0	0	0	0	0
112112	08:09:32	10009	Trial2BackEng	N	3	0	1000	1	37	08:09:32	1173274	0	0	0	0	0	0	0	0	0	0	0	0	0	0	0	0	0
112112	08:09:32	10009	Trial2BackEng	N	3	0	1000	1	38	08:09:32	1174781	0	0	0	0	0	0	0	0	0	0	0	0	0	0	0	0	0
112112	08:09:32	10009	Trial2BackEng	N	3	0	1000	1	39	08:09:32	1176286	0	0	0	0	0	0	0	0	0	0	0	0	0	0	0	0	0
112112	08:09:32	10009	Trial2BackEng	N	3	0	1000	1	40	08:09:32	1177806	0	0	0	0	0	0	0	0	0	0	0	0	0	0	0	0	0
112112	08:09:32	10009	Trial2BackEng	Y	3	0	1000	0	40	08:09:32	1179312	0	0	0	0	0	0	0	0	0	0	0	0	0	0	0	0	0
112112	08:09:32	10009	Trial2BackEng	N	3	0	1000	1	41	08:09:32	1180831	0	0	0	0	0	0	0	0	0	0	0	0	0	0	0	0	0
112112	08:09:32	10009	Trial2BackEng	N	3	0	1000	1	42	08:09:32	1182337	0	0	0	0	0	0	0	0	0	0	0	0	0	0	0	0	0
112112	08:09:32	10009	Trial2BackEng	N	3	0	1000	1	43	08:09:32	1183843	0	0	0	0	0	0	0	0	0	0	0	0	0	0	0	0	0
112112	08:09:32	10009	Trial2BackEng	N	3	0	1000	1	44	08:09:32	1185349	0	0	0	0	0	0	0	0	0	0	0	0	0	0	0	0	0
112112	08:09:32	10009	Trial2BackEng	Y	3	0	1000	0	44	08:09:32	1186855	0	0	0	0	0	0	0	0	0	0	0	0	0	0	0	0	0
112112	08:09:32	10009	Trial2BackEng	N	3	0	1000	1	45	08:09:32	1188362	0	0	0	0	0	0	0	0	0	0	0	0	0	0	0	0	0
112112	08:09:32	10009	Trial2BackEng	N	3	0	1000	1	46	08:09:32	1189868	0	0	0	0	0	0	0	0	0	0	0	0	0	0	0	0	0
112112	08:09:32	10009	Trial2BackEng	N	3	0	1000	1	47	08:09:32	1191374	0	0	0	0	0	0	0	0	0	0	0	0	0	0	0	0	0
112112	08:09:32	10009	Trial2BackEng	N	3	0	1000	1	48	08:09:32	1192880	0	0	0	0	0	0	0	0	0	0	0	0	0	0	0	0	0
112112	08:09:32	10009	Trial2BackEng	N	3	0	1000	1	49	08:09:32	1194386	0	0	0	0	0	0	0	0	0	0	0	0	0	0	0	0	0
112112	08:09:32	10009	Trial2BackEng	Y	3	57	852	1	50	08:09:32	1195759	0	0	0	0	0	0	0	0	0	0	0	0	0	0	0	0	0
112112	08:09:32	10009	Trial2BackEng	N	3	0	1000	1	51	08:09:32	1197398	0	0	0	0	0	0	0	0	0	0	0	0	0	0	0	0	0
112112	08:09:32	10009	Trial2BackEng	N	3	0	1000	1	52	08:09:32	1198904	0	0	0	0	0	0	0	0	0	0	0	0	0	0	0	0	0
112112	08:09:32	10009	Trial2BackEng	N	3	0	1000	1	53	08:09:32	1200437	0	0	0	0	0	0	0	0	0	0	0	0	0	0	0	0	0
112112	08:09:32	10009	Trial2BackEng	N	3	0	1000	1	54	08:09:32	1201943	0	0	0	0	0	0	0	0	0	0	0	0	0	0	0	0	0
112112	08:09:32	10009	Trial2BackEng	N	3	0	1000	1	55	08:09:32	1203449	0	0	0	0	0	0	0	0	0	0	0	0	0	0	0	0	0
112112	08:09:32	10009	Trial2BackEng	N	3	0	1000	1	56	08:09:32	1204955	0	0	0	0	0	0	0	0	0	0	0	0	0	0	0	0	0
112112	08:09:32	10009	Trial2BackEng	Y	3	57	587	1	57	08:09:32	1206061	0	0	0	0	0	0	0	0	0	0	0	0	0	0	0	0	0
112112	08:09:32	10009	Trial2BackEng	N	3	0	1000	1	58	08:09:32	1207967	0	0	0	0	0	0	0	0	0	0	0	0	0	0	0	0	0
112112	08:09:32	10009	Trial2BackEng	N	3	0	1000	1	59	08:09:32	1209473	0	0	0	0	0	0	0	0	0	0	0	0	0	0	0	0	0
112112	08:09:32	10009	Trial2BackEng	Y	3	0	1000	0	59	08:09:32	1210979	0	0	0	0	0	0	0	0	0	0	0	0	0	0	0	0	0
112112	08:09:32	10009	Trial2BackEng	N	3	0	1000	1	60	08:09:32	1212485	0	0	0	0	0	0	0	0	0	0	0	0	0	0	0	0	0
112112	08:09:32	10009	Trial2BackEng	N	3	0	1000	1	61	08:09:32	1213991	0	0	0	0	0	0	0	0	0	0	0	0	0	0	0	0	0
112112	08:09:32	10009	Trial2BackEng	N	3	0	1000	1	62	08:09:32	1215497	0	0	0	0	0	0	0	0	0	0	0	0	0	0	0	0	0
112112	08:09:32	10009	Trial2BackEng	N	3	0	1000	1	63	08:09:32	1217003	0	0	0	0	0	0	0	0	0	0	0	0	0	0	0	0	0
112112	08:09:32	10009	Trial2BackEng	N	3	0	1000	1	64	08:09:32	1218509	0	0	0	0	0	0	0	0	0	0	0	0	0	0	0	0	0
112112	08:09:32	10009	Trial2BackEng	N	3	0	1000	1	65	08:09:32	1220016	0	0	0	0	0	0	0	0	0	0	0	0	0	0	0	0	0
112112	08:09:32	10009	Trial2BackEng	N	3	0	1000	1	66	08:09:32	1221521	0	0	0	0	0	0	0	0	0	0	0	0	0	0	0	0	0
112112	08:09:32	10009	Trial2BackEng	N	3	0	1000	1	67	08:09:32	1223028	0	0	0	0	0	0	0	0	0	0	0	0	0	0	0	0	0
112112	08:09:32	10009	Trial2BackEng	N	3	0	1000	1	68	08:09:32	1224534	0	0	0	0	0	0	0	0	0	0	0	0	0	0	0	0	0
112112	08:09:32	10009	Trial2BackEng	N	3	0	1000	1	69	08:09:32	1226040	0	0	0	0	0	0	0	0	0	0	0	0	0	0	0	0	0
112112	08:09:32	10009	Trial2BackEng	Y	3	57	750	1	70	08:09:32	1227306	0	0	0	0	0	0	0	0	0	0	0	0	0	0	0	0	0
112112	08:09:32	10009	Trial2BackEng	N	3	0	1000	1	71	08:09:32	1229052	0	0	0	0	0	0	0	0	0	0	0	0	0	0	0	0	0
112112	08:09:32	10009	Trial2BackEng	N	3	0	1000	1	72	08:09:32	1230558	0	0	0	0	0	0	0	0	0	0	0	0	0	0	0	0	0
112112	08:09:32	10009	Trial2BackEng	N	3	0	1000	1	73	08:09:32	1232064	0	0	0	0	0	0	0	0	0	0	0	0	0	0	0	0	0
112112	08:09:32	10009	Trial2BackEng	Y	3	0	1000	0	73	08:09:32	1233583	0	0	0	0	0	0	0	0	0	0	0	0	0	0	0	0	0
112112	08:09:32	10009	Trial2BackEng	N	3	0	1000	1	74	08:09:32	1235089	0	0	0	0	0	0	0	0	0	0	0	0	0	0	0	0	0
112112	08:09:32	10009	Trial2BackEng	N	3	0	1000	1	75	08:09:32	1236595	0	0	0	0	0	0	0	0	0	0	0	0	0	0	0	0	0
112112	08:09:32	10009	Trial2BackEng	N	3	0	1000	1	76	08:09:32	1238101	0	0	0	0	0	0	0	0	0	0	0	0	0	0	0	0	0
112112	08:09:32	10009	Trial2BackEng	N	3	0	1000	1	77	08:09:32	1239607	0	0	0	0	0	0	0	0	0	0	0	0	0	0	0	0	0
112112	08:09:32	10009	Trial2BackEng	N	3	0	1000	1	78	08:09:32	1241113	0	0	0	0	0	0	0	0	0	0	0	0	0	0	0	0	0
112112	08:09:32	10009	Trial2BackEng	Y	3	0	1000	0	78	08:09:32	1242620	0	0	0	0	0	0	0	0	0	0	0	0	0	0	0	0	0
112112	08:09:32	10009	Trial2BackEng	N	3	0	1000	1	79	08:09:32	1244139	0	0	0	0	0	0	0	0	0	0	0	0	0	0	0	0	0
112112	08:09:32	10009	Trial2BackEng	N	3	0	1000	1	80	08:09:32	1245645	0	0	0	0	0	0	0	0	0	0	0	0	0	0	0	0	0
112112	08:09:32	10009	Trial2BackEng	N	3	0	1000	1	81	08:09:32	1247151	0	0	0	0	0	0	0	0	0	0	0	0	0	0	0	0	0
112112	08:09:32	10009	Trial2BackEng	N	3	0	1000	1	82	08:09:32	1248657	0	0	0	0	0	0	0	0	0	0	0	0	0	0	0	0	0
112112	08:09:32	10009	Trial2BackEng	N	3	0	1000	1	83	08:09:32	1250163	0	0	0	0	0	0	0	0	0	0	0	0	0	0	0	0	0
112112	08:09:32	10009	Trial2BackEng	N	3	0	1000	1	84	08:09:32	1251669	0	0	0	0	0	0	0	0	0	0	0	0	0	0	0	0	0
112112	08:09:32	10009	Trial2BackEng	N	3	0	1000	1	85	08:09:32	1253175	0	0	0	0	0	0	0	0	0	0	0	0	0	0	0	0	0
112112	08:09:32	10009	Trial2BackEng	N	3	0	1000	1	86	08:09:32	1254681	0	0	0	0	0	0	0	0	0	0	0	0	0	0	0	0	0
112112	08:09:32	10009	Trial2BackEng	N	3	0	1000	1	87	08:09:32	1256201	0	0	0	0	0	0	0	0	0	0	0	0	0	0	0	0	0
112112	08:09:32	10009	Trial2BackEng	Y	3	57	556	1	88	08:09:32	1257267	0	0	0	0	0	0	0	0	0	0	0	0	0	0	0	0	0
112112	08:09:32	10009	Trial2BackEng	N	3	0	1000	1	89	08:09:32	1259213	0	0	0	0	0	0	0	0	0	0	0	0	0	0	0	0	0
112112	08:09:32	10009	Trial2BackEng	N	3	0	1000	1	90	08:09:32	1260719	0	0	0	0	0	0	0	0	0	0	0	0	0	0	0	0	0
112112	08:09:32	10009	Trial2BackEng	N	3	0	1000	1	91	08:09:32	1262225	0	0	0	0	0	0	0	0	0	0	0	0	0	0	0	0	0
112112	08:09:32	10009	Trial2BackEng	N	3	0	1000	1	92	08:09:32	1263731	0	0	0	0	0	0	0	0	0	0	0	0	0	0	0	0	0
112112	08:09:32	10009	Trial2BackEng	N	3	0	1000	1	93	08:09:32	1265237	0	0	0	0	0	0	0	0	0	0	0	0	0	0	0	0	0
112112	08:09:32	10009	Trial2BackEng	N	3	0	1000	1	94	08:09:32	1266756	0	0	0	0	0	0	0	0	0	0	0	0	0	0	0	0	0
112112	08:09:32	10009	Trial2BackEng	N	3	0	1000	1	95	08:09:32	1268263	0	0	0	0	0	0	0	0	0	0	0	0	0	0	0	0	0
112112	08:09:32	10009	Trial2BackEng	N	3	0	1000	1	96	08:09:32	1269782	0	0	0	0	0	0	0	0	0	0	0	0	0	0	0	0	0
112112	08:09:32	10009	Trial2BackEng	Y	3	0	1000	0	96	08:09:32	1271288	0	0	0	0	0	0	0	0	0	0	0	0	0	0	0	0	0
112112	08:09:32	10009	Trial2BackEng	N	3	0	1000	1	97	08:09:32	1272794	0	0	0	0	0	0	0	0	0	0	0	0	0	0	0	0	0
112112	08:09:32	10009	Trial2BackEng	N	3	0	1000	1	98	08:09:32	1274300	0	0	0	0	0	0	0	0	0	0	0	0	0	0	0	0	0
112112	08:09:32	10009	Trial2BackEng	N	3	0	1000	1	99	08:09:32	1275806	0	0	0	0	0	0	0	0	0	0	0	0	0	0	0	0	0
112112	08:09:32	10009	Trial2BackEng	N	3	0	1000	1	100	08:09:32	1277312	0	0	0	0	0	0	0	0	0	0	0	0	0	0	0	0	0
112112	08:09:32	10009	Trial2BackEng	Y	3	57	932	1	101	08:09:32	1278765	0	0	0	0	0	0	0	0	0	0	0	0	0	0	0	0	0
112112	08:09:32	10009	Trial2BackEng	N	3	0	1000	1	102	08:09:32	1280324	0	0	0	0	0	0	0	0	0	0	0	0	0	0	0	0	0
112112	08:09:32	10009	Trial2BackEng	N	3	0	1000	1	103	08:09:32	1281830	0	0	0	0	0	0	0	0	0	0	0	0	0	0	0	0	0
112112	08:09:32	10009	Trial2BackEng	N	3	0	1000	1	104	08:09:32	1283336	0	0	0	0	0	0	0	0	0	0	0	0	0	0	0	0	0
112112	08:09:32	10009	Trial2BackEng	Y	3	0	1000	0	104	08:09:32	1284842	0	0	0	0	0	0	0	0	0	0	0	0	0	0	0	0	0
112112	08:09:32	10009	Trial2BackEng	N	3	0	1000	1	105	08:09:32	1286349	0	0	0	0	0	0	0	0	0	0	0	0	0	0	0	0	0
112112	08:09:32	10009	Trial2BackEng	N	3	0	1000	1	106	08:09:32	1287868	0	0	0	0	0	0	0	0	0	0	0	0	0	0	0	0	0
112112	08:09:32	10009	Trial2BackEng	N	3	0	1000	1	107	08:09:32	1289374	0	0	0	0	0	0	0	0	0	0	0	0	0	0	0	0	0
112112	08:09:32	10009	Trial2BackEng	N	3	0	1000	1	108	08:09:32	1290880	0	0	0	0	0	0	0	0	0	0	0	0	0	0	0	0	0
112112	08:09:32	10009	Trial2BackEng	N	3	0	1000	1	109	08:09:32	1292386	0	0	0	0	0	0	0	0	0	0	0	0	0	0	0	0	0
112112	08:09:32	10009	Trial2BackEng	Y	3	57	754	1	110	08:09:32	1293652	0	0	0	0	0	0	0	0	0	0	0	0	0	0	0	0	0
112112	08:09:32	10009	Trial2BackEng	N	3	0	1000	1	111	08:09:32	1295398	0	0	0	0	0	0	0	0	0	0	0	0	0	0	0	0	0
112112	08:09:32	10009	Trial2BackEng	N	3	0	1000	1	112	08:09:32	1296904	0	0	0	0	0	0	0	0	0	0	0	0	0	0	0	0	0
112112	08:09:32	10009	Trial2BackEng	N	3	0	1000	1	113	08:09:32	1298410	0	0	0	0	0	0	0	0	0	0	0	0	0	0	0	0	0
112112	08:09:32	10009	Trial2BackEng	Y	3	57	793	1	114	08:09:32	1299716	0	0	0	0	0	0	0	0	0	0	0	0	0	0	0	0	0
112112	08:09:32	10009	Memory1R6mo	Score	5	M1	14710	0	114	08:09:32	1362398	0	0	0	0	0	0	0	0	0	0	0	0	0	0	0	0	0
112112	08:09:32	10009	Memory1R6mo	Score	5	M2	228	0	114	08:09:32	1362678	0	0	0	0	0	0	0	0	0	0	0	0	0	0	0	0	0
112112	08:09:32	10009	Memory1R6mo	Score	5	M4	404	0	114	08:09:32	1363131	0	0	0	0	0	0	0	0	0	0	0	0	0	0	0	0	0
112112	08:09:32	10009	Memory1R6mo	Score	5	M3	343	0	114	08:09:32	1363517	0	0	0	0	0	0	0	0	0	0	0	0	0	0	0	0	0
112112	08:09:32	10009	Memory1R6mo	Score	5	M5	741	0	114	08:09:32	1364304	0	0	0	0	0	0	0	0	0	0	0	0	0	0	0	0	0
112112	08:09:32	10009	Memory1R6mo	Score	5	Done	1834	0	114	08:09:32	1366183	0	0	0	0	0	0	0	0	0	0	0	0	0	0	0	0	0
112112	08:09:32	10009	Memory2R6mo	Score2	5	11	11597	0	114	08:09:32	1397797	0	0	0	0	0	0	0	0	0	0	0	0	0	0	0	0	0
112112	08:09:32	10009	Memory2R6mo	Score2	5	22	180	0	114	08:09:32	1398024	0	0	0	0	0	0	0	0	0	0	0	0	0	0	0	0	0
112112	08:09:32	10009	Memory2R6mo	Score2	5	33	442	0	114	08:09:32	1398517	0	0	0	0	0	0	0	0	0	0	0	0	0	0	0	0	0
112112	08:09:32	10009	Memory2R6mo	Score2	5	44	213	0	114	08:09:32	1398783	0	0	0	0	0	0	0	0	0	0	0	0	0	0	0	0	0
112112	08:09:32	10009	Memory2R6mo	Score2	5	55	234	0	114	08:09:32	1399063	0	0	0	0	0	0	0	0	0	0	0	0	0	0	0	0	0
112112	08:09:32	10009	Memory2R6mo	Score2	5	66	194	0	114	08:09:32	1399303	0	0	0	0	0	0	0	0	0	0	0	0	0	0	0	0	0
112112	08:09:32	10009	Memory2R6mo	Score2	5	77	258	0	114	08:09:32	1399609	0	0	0	0	0	0	0	0	0	0	0	0	0	0	0	0	0
112112	08:09:32	10009	Memory2R6mo	Score2	5	88	207	0	114	08:09:32	1399863	0	0	0	0	0	0	0	0	0	0	0	0	0	0	0	0	0
112112	08:09:32	10009	Memory2R6mo	Score2	5	Done	482	0	114	08:09:32	1400396	0	0	0	0	0	0	0	0	0	0	0	0	0	0	0	0	0
112112	08:09:32	10009	Memory3R6mo	Score3	5	111	8060	0	114	08:09:32	1428424	0	0	0	0	0	0	0	0	0	0	0	0	0	0	0	0	0
112112	08:09:32	10009	Memory3R6mo	Score3	5	333	216	0	114	08:09:32	1428691	0	0	0	0	0	0	0	0	0	0	0	0	0	0	0	0	0
112112	08:09:32	10009	Memory3R6mo	Score3	5	222	613	0	114	08:09:32	1429357	0	0	0	0	0	0	0	0	0	0	0	0	0	0	0	0	0
112112	08:09:32	10009	Memory3R6mo	Score3	5	444	411	0	114	08:09:32	1429824	0	0	0	0	0	0	0	0	0	0	0	0	0	0	0	0	0
112112	08:09:32	10009	Memory3R6mo	Score3	5	555	296	0	114	08:09:32	1430170	0	0	0	0	0	0	0	0	0	0	0	0	0	0	0	0	0
112112	08:09:32	10009	Memory3R6mo	Score3	5	666	313	0	114	08:09:32	1430544	0	0	0	0	0	0	0	0	0	0	0	0	0	0	0	0	0
112112	08:09:32	10009	Memory3R6mo	Score3	5	777	297	0	114	08:09:32	1430890	0	0	0	0	0	0	0	0	0	0	0	0	0	0	0	0	0
112112	08:09:32	10009	Memory3R6mo	Score3	5	888	270	0	114	08:09:32	1431210	0	0	0	0	0	0	0	0	0	0	0	0	0	0	0	0	0
112112	08:09:32	10009	Memory3R6mo	Score3	5	Done	233	0	114	08:09:32	1431503	0	0	0	0	0	0	0	0	0	0	0	0	0	0	0	0	0
112112	08:09:32	10009	LoriaEngLH3	Stop	6	7	3454	0	114	08:09:32	1493026	0	0	0	0	0	0	0	0	0	0	0	0	0	0	0	0	0
112112	08:09:32	10009	EngTrail	Trails	7	1Trails	967	0	114	08:09:32	1517388	0	0	0	0	0	0	0	0	0	0	0	0	0	0	0	0	0
112112	08:09:32	10009	Serial7Eng6mo	Serial7Eng6mo	8	73	9965	0	114	08:09:32	1549950	1	0	0	0	0	0	0	0	0	0	0	0	0	0	0	0	0
112112	08:09:32	10009	Serial7Eng6mo	Serial7Eng6mo	8	66	3298	0	114	08:09:32	1553271	2	0	0	0	0	0	0	0	0	0	0	0	0	0	0	0	0
112112	08:09:32	10009	Serial7Eng6mo	Serial7Eng6mo	8	59	2379	0	114	08:09:32	1555668	3	0	0	0	0	0	0	0	0	0	0	0	0	0	0	0	0
112112	08:09:32	10009	Serial7Eng6mo	Serial7Eng6mo	8	52	2981	0	114	08:09:32	1558668	4	0	0	0	0	0	0	0	0	0	0	0	0	0	0	0	0
112112	08:09:32	10009	Serial7Eng6mo	Serial7Eng6mo	8	45	3230	0	114	08:09:32	1561920	5	0	0	0	0	0	0	0	0	0	0	0	0	0	0	0	0
112112	08:09:32	10009	corsiblockEngFwrd	recallseqEngFwrd	9	4	1167	0	114	08:09:32	1623228	5	0	0	0	0	0	0	0	0	0	0	0	0	0	0	0	0
112112	08:09:32	10009	corsiblockEngFwrd	recallseqEngFwrd	9	3	609	0	114	08:09:32	1623895	5	0	0	0	0	0	0	0	0	0	0	0	0	0	0	0	0
112112	08:09:32	10009	corsiblockEngFwrd	recallseqEngFwrd	9	doneCorsiEng	841	0	114	08:09:32	1624787	5	0	0	0	0	0	0	0	0	0	0	0	0	0	0	2	0
112112	08:09:32	10009	corsiblockEngFwrd	recallseqEngFwrd	9	6	1149	0	114	08:09:32	1632065	5	0	0	0	0	0	0	0	0	0	0	0	0	0	0	2	0
112112	08:09:32	10009	corsiblockEngFwrd	recallseqEngFwrd	9	8	693	0	114	08:09:32	1632811	5	0	0	0	0	0	0	0	0	0	0	0	0	0	0	2	0
112112	08:09:32	10009	corsiblockEngFwrd	recallseqEngFwrd	9	2	723	0	114	08:09:32	1633584	5	0	0	0	0	0	0	0	0	0	0	0	0	0	0	2	0
112112	08:09:32	10009	corsiblockEngFwrd	recallseqEngFwrd	9	doneCorsiEng	885	0	114	08:09:32	1634517	5	0	0	0	0	0	0	0	0	0	0	0	0	0	0	3	0
112112	08:09:32	10009	corsiblockEngFwrd	recallseqEngFwrd	9	1	707	0	114	08:09:32	1642354	5	0	0	0	0	0	0	0	0	0	0	0	0	0	0	3	0
112112	08:09:32	10009	corsiblockEngFwrd	recallseqEngFwrd	9	7	1075	0	114	08:09:32	1643473	5	0	0	0	0	0	0	0	0	0	0	0	0	0	0	3	0
112112	08:09:32	10009	corsiblockEngFwrd	recallseqEngFwrd	9	9	508	0	114	08:09:32	1644033	5	0	0	0	0	0	0	0	0	0	0	0	0	0	0	3	0
112112	08:09:32	10009	corsiblockEngFwrd	recallseqEngFwrd	9	5	636	0	114	08:09:32	1644726	5	0	0	0	0	0	0	0	0	0	0	0	0	0	0	3	0
112112	08:09:32	10009	corsiblockEngFwrd	recallseqEngFwrd	9	doneCorsiEng	719	0	114	08:09:32	1645499	5	0	0	0	0	0	0	0	0	0	0	0	0	0	0	4	0
112112	08:09:32	10009	corsiblockEngFwrd	recallseqEngFwrd	9	1	736	0	114	08:09:32	1654376	5	0	0	0	0	0	0	0	0	0	0	0	0	0	0	4	0
112112	08:09:32	10009	corsiblockEngFwrd	recallseqEngFwrd	9	8	798	0	114	08:09:32	1655228	5	0	0	0	0	0	0	0	0	0	0	0	0	0	0	4	0
112112	08:09:32	10009	corsiblockEngFwrd	recallseqEngFwrd	9	2	664	0	114	08:09:32	1655948	5	0	0	0	0	0	0	0	0	0	0	0	0	0	0	4	0
112112	08:09:32	10009	corsiblockEngFwrd	recallseqEngFwrd	9	4	425	0	114	08:09:32	1656428	5	0	0	0	0	0	0	0	0	0	0	0	0	0	0	4	0
112112	08:09:32	10009	corsiblockEngFwrd	recallseqEngFwrd	9	7	529	0	114	08:09:32	1657001	5	0	0	0	0	0	0	0	0	0	0	0	0	0	0	4	0
112112	08:09:32	10009	corsiblockEngFwrd	recallseqEngFwrd	9	doneCorsiEng	1196	0	114	08:09:32	1658254	5	0	0	0	0	0	0	0	0	0	0	0	0	0	0	5	0
112112	08:09:32	10009	corsiblockEngFwrd	recallseqEngFwrd	9	3	1026	0	114	08:09:32	1668410	5	0	0	0	0	0	0	0	0	0	0	0	0	0	0	5	0
112112	08:09:32	10009	corsiblockEngFwrd	recallseqEngFwrd	9	6	907	0	114	08:09:32	1669369	5	0	0	0	0	0	0	0	0	0	0	0	0	0	0	5	0
112112	08:09:32	10009	corsiblockEngFwrd	recallseqEngFwrd	9	5	555	0	114	08:09:32	1669969	5	0	0	0	0	0	0	0	0	0	0	0	0	0	0	5	0
112112	08:09:32	10009	corsiblockEngFwrd	recallseqEngFwrd	9	9	3171	0	114	08:09:32	1673195	5	0	0	0	0	0	0	0	0	0	0	0	0	0	0	5	0
112112	08:09:32	10009	corsiblockEngFwrd	recallseqEngFwrd	9	8	1034	0	114	08:09:32	1674274	5	0	0	0	0	0	0	0	0	0	0	0	0	0	0	5	0
112112	08:09:32	10009	corsiblockEngFwrd	recallseqEngFwrd	9	doneCorsiEng	4458	0	114	08:09:32	1678779	5	0	0	0	0	0	0	0	0	0	0	0	0	0	0	5	0
112112	08:09:32	10009	corsiblockEngFwrd	recallseqEngFwrd	9	4	5309	0	114	08:09:32	1693173	5	0	0	0	0	0	0	0	0	0	0	0	0	0	0	5	0
112112	08:09:32	10009	corsiblockEngFwrd	recallseqEngFwrd	9	3	527	0	114	08:09:32	1693747	5	0	0	0	0	0	0	0	0	0	0	0	0	0	0	5	0
112112	08:09:32	10009	corsiblockEngFwrd	recallseqEngFwrd	9	1	1186	0	114	08:09:32	1694986	5	0	0	0	0	0	0	0	0	0	0	0	0	0	0	5	0
112112	08:09:32	10009	corsiblockEngFwrd	recallseqEngFwrd	9	2	563	0	114	08:09:32	1695599	5	0	0	0	0	0	0	0	0	0	0	0	0	0	0	5	0
112112	08:09:32	10009	corsiblockEngFwrd	recallseqEngFwrd	9	7	429	0	114	08:09:32	1696078	5	0	0	0	0	0	0	0	0	0	0	0	0	0	0	5	0
112112	08:09:32	10009	corsiblockEngFwrd	recallseqEngFwrd	9	5	630	0	114	08:09:32	1696758	5	0	0	0	0	0	0	0	0	0	0	0	0	0	0	5	0
112112	08:09:32	10009	corsiblockEngFwrd	recallseqEngFwrd	9	doneCorsiEng	846	0	114	08:09:32	1697651	5	0	0	0	0	0	0	0	0	0	0	0	0	0	0	5	0
112112	08:09:32	10009	corsiblockEngRev	recallseqEngRev	10	7	874	0	114	08:09:32	1707554	5	0	0	0	0	0	0	0	0	0	0	0	0	0	0	5	0
112112	08:09:32	10009	corsiblockEngRev	recallseqEngRev	10	4	562	0	114	08:09:32	1708167	5	0	0	0	0	0	0	0	0	0	0	0	0	0	0	5	0
112112	08:09:32	10009	corsiblockEngRev	recallseqEngRev	10	doneCorsiEng	853	0	114	08:09:32	1709073	5	0	0	0	0	0	0	0	0	0	0	0	0	0	0	5	2
112112	08:09:32	10009	corsiblockEngRev	recallseqEngRev	10	9	789	0	114	08:09:32	1715991	5	0	0	0	0	0	0	0	0	0	0	0	0	0	0	5	2
112112	08:09:32	10009	corsiblockEngRev	recallseqEngRev	10	5	781	0	114	08:09:32	1716817	5	0	0	0	0	0	0	0	0	0	0	0	0	0	0	5	2
112112	08:09:32	10009	corsiblockEngRev	recallseqEngRev	10	6	507	0	114	08:09:32	1717377	5	0	0	0	0	0	0	0	0	0	0	0	0	0	0	5	2
112112	08:09:32	10009	corsiblockEngRev	recallseqEngRev	10	doneCorsiEng	667	0	114	08:09:32	1718097	5	0	0	0	0	0	0	0	0	0	0	0	0	0	0	5	3
112112	08:09:32	10009	corsiblockEngRev	recallseqEngRev	10	2	1241	0	114	08:09:32	1726480	5	0	0	0	0	0	0	0	0	0	0	0	0	0	0	5	3
112112	08:09:32	10009	corsiblockEngRev	recallseqEngRev	10	1	748	0	114	08:09:32	1727279	5	0	0	0	0	0	0	0	0	0	0	0	0	0	0	5	3
112112	08:09:32	10009	corsiblockEngRev	recallseqEngRev	10	3	508	0	114	08:09:32	1727839	5	0	0	0	0	0	0	0	0	0	0	0	0	0	0	5	3
112112	08:09:32	10009	corsiblockEngRev	recallseqEngRev	10	8	564	0	114	08:09:32	1728452	5	0	0	0	0	0	0	0	0	0	0	0	0	0	0	5	3
112112	08:09:32	10009	corsiblockEngRev	recallseqEngRev	10	doneCorsiEng	839	0	114	08:09:32	1729345	5	0	0	0	0	0	0	0	0	0	0	0	0	0	0	5	4
112112	08:09:32	10009	corsiblockEngRev	recallseqEngRev	10	3	848	0	114	08:09:32	1738328	5	0	0	0	0	0	0	0	0	0	0	0	0	0	0	5	4
112112	08:09:32	10009	corsiblockEngRev	recallseqEngRev	10	7	683	0	114	08:09:32	1739061	5	0	0	0	0	0	0	0	0	0	0	0	0	0	0	5	4
112112	08:09:32	10009	corsiblockEngRev	recallseqEngRev	10	2	646	0	114	08:09:32	1739754	5	0	0	0	0	0	0	0	0	0	0	0	0	0	0	5	4
112112	08:09:32	10009	corsiblockEngRev	recallseqEngRev	10	9	625	0	114	08:09:32	1740434	5	0	0	0	0	0	0	0	0	0	0	0	0	0	0	5	4
112112	08:09:32	10009	corsiblockEngRev	recallseqEngRev	10	5	585	0	114	08:09:32	1741074	5	0	0	0	0	0	0	0	0	0	0	0	0	0	0	5	4
112112	08:09:32	10009	corsiblockEngRev	recallseqEngRev	10	doneCorsiEng	625	0	114	08:09:32	1741754	5	0	0	0	0	0	0	0	0	0	0	0	0	0	0	5	5
112112	08:09:32	10009	corsiblockEngRev	recallseqEngRev	10	3	605	0	114	08:09:32	1751483	5	0	0	0	0	0	0	0	0	0	0	0	0	0	0	5	5
112112	08:09:32	10009	corsiblockEngRev	recallseqEngRev	10	1	1136	0	114	08:09:32	1752669	5	0	0	0	0	0	0	0	0	0	0	0	0	0	0	5	5
112112	08:09:32	10009	corsiblockEngRev	recallseqEngRev	10	8	909	0	114	08:09:32	1753629	5	0	0	0	0	0	0	0	0	0	0	0	0	0	0	5	5
112112	08:09:32	10009	corsiblockEngRev	recallseqEngRev	10	1	854	0	114	08:09:32	1754535	5	0	0	0	0	0	0	0	0	0	0	0	0	0	0	5	5
112112	08:09:32	10009	corsiblockEngRev	recallseqEngRev	10	5	988	0	114	08:09:32	1755575	5	0	0	0	0	0	0	0	0	0	0	0	0	0	0	5	5
112112	08:09:32	10009	corsiblockEngRev	recallseqEngRev	10	6	540	0	114	08:09:32	1756161	5	0	0	0	0	0	0	0	0	0	0	0	0	0	0	5	5
112112	08:09:32	10009	corsiblockEngRev	recallseqEngRev	10	doneCorsiEng	890	0	114	08:09:32	1757107	5	0	0	0	0	0	0	0	0	0	0	0	0	0	0	5	5
112112	08:09:32	10009	corsiblockEngRev	recallseqEngRev	10	7	835	0	114	08:09:32	1767023	5	0	0	0	0	0	0	0	0	0	0	0	0	0	0	5	5
112112	08:09:32	10009	corsiblockEngRev	recallseqEngRev	10	8	635	0	114	08:09:32	1767703	5	0	0	0	0	0	0	0	0	0	0	0	0	0	0	5	5
112112	08:09:32	10009	corsiblockEngRev	recallseqEngRev	10	5	1691	0	114	08:09:32	1769449	5	0	0	0	0	0	0	0	0	0	0	0	0	0	0	5	5
112112	08:09:32	10009	corsiblockEngRev	recallseqEngRev	10	6	657	0	114	08:09:32	1770156	5	0	0	0	0	0	0	0	0	0	0	0	0	0	0	5	5
112112	08:09:32	10009	corsiblockEngRev	recallseqEngRev	10	2	519	0	114	08:09:32	1770729	5	0	0	0	0	0	0	0	0	0	0	0	0	0	0	5	5
112112	08:09:32	10009	corsiblockEngRev	recallseqEngRev	10	9	570	0	114	08:09:32	1771355	5	0	0	0	0	0	0	0	0	0	0	0	0	0	0	5	5
112112	08:09:32	10009	corsiblockEngRev	recallseqEngRev	10	doneCorsiEng	991	0	114	08:09:32	1772395	5	0	0	0	0	0	0	0	0	0	0	0	0	0	0	5	5
112112	08:09:32	10009	testEng6mo	WordsEng6mo	11	1Eng6mo	13070	0	114	08:09:32	1795559	5	3	0	0	0	0	0	0	0	0	0	0	0	0	0	5	5
112112	08:09:32	10009	testEng6mo	WordsEng6mo	11	2Eng6mo	396	0	114	08:09:32	1795998	5	3	3	0	0	0	0	0	0	0	0	0	0	0	0	5	5
112112	08:09:32	10009	testEng6mo	WordsEng6mo	11	3Eng6mo	428	0	114	08:09:32	1796478	5	3	3	3	0	0	0	0	0	0	0	0	0	0	0	5	5
112112	08:09:32	10009	testEng6mo	WordsEng6mo	11	4Eng6mo	340	0	114	08:09:32	1796865	5	3	3	3	3	0	0	0	0	0	0	0	0	0	0	5	5
112112	08:09:32	10009	testEng6mo	WordsEng6mo	11	5Eng6mo	306	0	114	08:09:32	1797225	5	3	3	3	3	3	0	0	0	0	0	0	0	0	0	5	5
112112	08:09:32	10009	testEng6mo	WordsEng6mo	11	6Eng6mo	354	0	114	08:09:32	1797624	5	3	3	3	3	3	3	0	0	0	0	0	0	0	0	5	5
112112	08:09:32	10009	testEng6mo	WordsEng6mo	11	7Eng6mo	346	0	114	08:09:32	1798024	5	3	3	3	3	3	3	3	0	0	0	0	0	0	0	5	5
112112	08:09:32	10009	testEng6mo	WordsEng6mo	11	8Eng6mo	274	0	114	08:09:32	1798344	5	3	3	3	3	3	3	3	3	0	0	0	0	0	0	5	5
112112	08:09:32	10009	testEng6mo	WordsEng6mo	11	DoneEng6mo	546	0	114	08:09:32	1798944	5	3	3	3	3	3	3	3	3	0	0	0	0	0	0	5	5
112112	08:09:32	10009	DigitSpanFwrdEng6mo	Score1FwrdEng6mo	12	DS1	2889	0	114	08:09:32	1815830	5	3	3	3	3	3	3	3	3	0	0	0	0	0	0	5	5
112112	08:09:32	10009	DigitSpanFwrdEng6mo	Gate1FwrdEng6mo	12	0	1	0	114	08:09:32	1815835	5	3	3	3	3	3	3	3	3	3	0	0	0	0	0	5	5
112112	08:09:32	10009	DigitSpanFwrdEng6mo	Score2FwrdEng6mo	12	DS1	2961	0	114	08:09:32	1825573	5	3	3	3	3	3	3	3	3	3	0	0	0	0	0	5	5
112112	08:09:32	10009	DigitSpanFwrdEng6mo	Gate3FwrdEng6mo	12	0	1	0	114	08:09:32	1825577	5	3	3	3	3	3	3	3	3	4	0	0	0	0	0	5	5
112112	08:09:32	10009	DigitSpanFwrdEng6mo	Score3FwrdEng6mo	12	DS1	4326	0	114	08:09:32	1837928	5	3	3	3	3	3	3	3	3	4	0	0	0	0	0	5	5
112112	08:09:32	10009	DigitSpanFwrdEng6mo	Gate5FwrdEng6mo	12	0	1	0	114	08:09:32	1837933	5	3	3	3	3	3	3	3	3	5	0	0	0	0	0	5	5
112112	08:09:32	10009	DigitSpanFwrdEng6mo	Score4FwrdEng6mo	12	DS1	2864	0	114	08:09:32	1850336	5	3	3	3	3	3	3	3	3	5	0	0	0	0	0	5	5
112112	08:09:32	10009	DigitSpanFwrdEng6mo	Gate7FwrdEng6mo	12	0	1	0	114	08:09:32	1850340	5	3	3	3	3	3	3	3	3	6	0	0	0	0	0	5	5
112112	08:09:32	10009	DigitSpanFwrdEng6mo	Score5FwrdEng6mo	12	DS1	1747	0	114	08:09:32	1863078	5	3	3	3	3	3	3	3	3	6	0	0	0	0	0	5	5
112112	08:09:32	10009	DigitSpanFwrdEng6mo	Gate9FwrdEng6mo	12	0	1	0	114	08:09:32	1863082	5	3	3	3	3	3	3	3	3	7	0	0	0	0	0	5	5
112112	08:09:32	10009	DigitSpanFwrdEng6mo	Score6FwrdEng6mo	12	DS1	3915	0	114	08:09:32	1879964	5	3	3	3	3	3	3	3	3	8	0	0	0	0	0	5	5
112112	08:09:32	10009	DigitSpanEng6mo	Score1Eng6mo	13	DS1	4771	0	114	08:09:32	1901142	5	3	3	3	3	3	3	3	3	8	0	0	0	0	0	5	5
112112	08:09:32	10009	DigitSpanEng6mo	Gate1Eng6mo	13	0	1	0	114	08:09:32	1901147	5	3	3	3	3	3	3	3	3	8	2	0	0	0	0	5	5
112112	08:09:32	10009	DigitSpanEng6mo	Score2Eng6mo	13	DS1	3207	0	114	08:09:32	1909285	5	3	3	3	3	3	3	3	3	8	2	0	0	0	0	5	5
112112	08:09:32	10009	DigitSpanEng6mo	Gate3Eng6mo	13	0	1	0	114	08:09:32	1909290	5	3	3	3	3	3	3	3	3	8	3	0	0	0	0	5	5
112112	08:09:32	10009	DigitSpanEng6mo	Score3Eng6mo	13	DS1	5581	0	114	08:09:32	1921427	5	3	3	3	3	3	3	3	3	8	3	0	0	0	0	5	5
112112	08:09:32	10009	DigitSpanEng6mo	Gate5Eng6mo	13	0	1	0	114	08:09:32	1921434	5	3	3	3	3	3	3	3	3	8	4	0	0	0	0	5	5
112112	08:09:32	10009	DigitSpanEng6mo	Score4Eng6mo	13	DS1	6226	0	114	08:09:32	1935435	5	3	3	3	3	3	3	3	3	8	4	0	0	0	0	5	5
112112	08:09:32	10009	DigitSpanEng6mo	Gate7Eng6mo	13	0	1	0	114	08:09:32	1935439	5	3	3	3	3	3	3	3	3	8	5	0	0	0	0	5	5
112112	08:09:32	10009	DigitSpanEng6mo	Score5Eng6mo	13	DS1	8331	0	114	08:09:32	1952988	5	3	3	3	3	3	3	3	3	8	5	0	0	0	0	5	5
112112	08:09:32	10009	DigitSpanEng6mo	Gate9Eng6mo	13	0	1	0	114	08:09:32	1952994	5	3	3	3	3	3	3	3	3	8	6	0	0	0	0	5	5
112112	08:09:32	10009	DigitSpanEng6mo	Score6Eng6mo	13	DS2	10234	0	114	08:09:32	1975166	5	3	3	3	3	3	3	3	3	8	6	0	0	0	0	5	5
112112	08:09:32	10009	DigitSpanEng6mo	Gate11Eng6mo	13	0	1	0	114	08:09:32	1975170	5	3	3	3	3	3	3	3	3	8	6	0	0	0	0	5	5
112112	08:09:32	10009	DigitSpanEng6mo	Score66Eng6mo	13	DS2	17856	0	114	08:09:32	2003794	5	3	3	3	3	3	3	3	3	8	6	0	0	0	0	5	5
112112	08:09:32	10009	Trial	ResponseIL	14	0	175	0	114	08:09:32	2067368	5	3	3	3	3	3	3	3	3	8	6	0	0	0	0	5	5
112112	08:09:32	10009	Trial	IncongruentLeft	14	203	359	1	114	08:09:32	2067755	5	3	3	3	3	3	3	3	3	8	6	0	0	0	0	5	5
112112	08:09:32	10009	Trial	ResponseCR	14	0	175	0	114	08:09:32	2069074	5	3	3	3	3	3	3	3	3	8	6	0	0	0	0	5	5
112112	08:09:32	10009	Trial	CongruentRight	14	205	237	1	114	08:09:32	2069341	5	3	3	3	3	3	3	3	3	8	6	0	0	0	0	5	5
112112	08:09:32	10009	Trial	ResponseIR	14	0	175	0	114	08:09:32	2070780	5	3	3	3	3	3	3	3	3	8	6	0	0	0	0	5	5
112112	08:09:32	10009	Trial	IncongruentRight	14	205	307	1	114	08:09:32	2071113	5	3	3	3	3	3	3	3	3	8	6	0	0	0	0	5	5
112112	08:09:32	10009	Trial	ResponseCL	14	0	175	0	114	08:09:32	2072486	5	3	3	3	3	3	3	3	3	8	6	0	0	0	0	5	5
112112	08:09:32	10009	Trial	CongruentLeft	14	203	249	1	114	08:09:32	2072752	5	3	3	3	3	3	3	3	3	8	6	0	0	0	0	5	5
112112	08:09:32	10009	Trial	ResponseCR	14	0	175	0	114	08:09:32	2074192	5	3	3	3	3	3	3	3	3	8	6	0	0	0	0	5	5
112112	08:09:32	10009	Trial	CongruentRight	14	205	239	1	114	08:09:32	2074459	5	3	3	3	3	3	3	3	3	8	6	0	0	0	0	5	5
112112	08:09:32	10009	Trial	ResponseIR	14	0	175	0	114	08:09:32	2075898	5	3	3	3	3	3	3	3	3	8	6	0	0	0	0	5	5
112112	08:09:32	10009	Trial	IncongruentRight	14	205	325	1	114	08:09:32	2076244	5	3	3	3	3	3	3	3	3	8	6	0	0	0	0	5	5
112112	08:09:32	10009	Trial	ResponseCL	14	0	175	0	114	08:09:32	2077604	5	3	3	3	3	3	3	3	3	8	6	0	0	0	0	5	5
112112	08:09:32	10009	Trial	CongruentLeft	14	203	235	1	114	08:09:32	2077857	5	3	3	3	3	3	3	3	3	8	6	0	0	0	0	5	5
112112	08:09:32	10009	Trial	ResponseIL	14	0	175	0	114	08:09:32	2079310	5	3	3	3	3	3	3	3	3	8	6	0	0	0	0	5	5
112112	08:09:32	10009	Trial	IncongruentLeft	14	203	321	1	114	08:09:32	2079657	5	3	3	3	3	3	3	3	3	8	6	0	0	0	0	5	5
112112	08:09:32	10009	Trial	ResponseIL	14	0	175	0	114	08:09:32	2081016	5	3	3	3	3	3	3	3	3	8	6	0	0	0	0	5	5
112112	08:09:32	10009	Trial	IncongruentLeft	14	203	311	1	114	08:09:32	2081349	5	3	3	3	3	3	3	3	3	8	6	0	0	0	0	5	5
112112	08:09:32	10009	Trial	ResponseCR	14	0	175	0	114	08:09:32	2082722	5	3	3	3	3	3	3	3	3	8	6	0	0	0	0	5	5
112112	08:09:32	10009	Trial	CongruentRight	14	205	206	1	114	08:09:32	2082948	5	3	3	3	3	3	3	3	3	8	6	0	0	0	0	5	5
112112	08:09:32	10009	Trial	ResponseIR	14	0	175	0	114	08:09:32	2084428	5	3	3	3	3	3	3	3	3	8	6	0	0	0	0	5	5
112112	08:09:32	10009	Trial	IncongruentRight	14	205	307	1	114	08:09:32	2084761	5	3	3	3	3	3	3	3	3	8	6	0	0	0	0	5	5
112112	08:09:32	10009	Trial	ResponseCL	14	0	175	0	114	08:09:32	2086134	5	3	3	3	3	3	3	3	3	8	6	0	0	0	0	5	5
112112	08:09:32	10009	Trial	CongruentLeft	14	203	217	1	114	08:09:32	2086374	5	3	3	3	3	3	3	3	3	8	6	0	0	0	0	5	5
112112	08:09:32	10009	Trial	ResponseCR	14	0	175	0	114	08:09:32	2087840	5	3	3	3	3	3	3	3	3	8	6	0	0	0	0	5	5
112112	08:09:32	10009	Trial	CongruentRight	14	205	271	1	114	08:09:32	2088133	5	3	3	3	3	3	3	3	3	8	6	0	0	0	0	5	5
112112	08:09:32	10009	Trial	ResponseIL	14	0	175	0	114	08:09:32	2089546	5	3	3	3	3	3	3	3	3	8	6	0	0	0	0	5	5
112112	08:09:32	10009	Trial	IncongruentLeft	14	203	293	1	114	08:09:32	2089866	5	3	3	3	3	3	3	3	3	8	6	0	0	0	0	5	5
112112	08:09:32	10009	Trial	ResponseIR	14	0	175	0	114	08:09:32	2091252	5	3	3	3	3	3	3	3	3	8	6	0	0	0	0	5	5
112112	08:09:32	10009	Trial	IncongruentRight	14	205	267	1	114	08:09:32	2091545	5	3	3	3	3	3	3	3	3	8	6	0	0	0	0	5	5
112112	08:09:32	10009	Trial	ResponseCR	14	0	175	0	114	08:09:32	2092958	5	3	3	3	3	3	3	3	3	8	6	0	0	0	0	5	5
112112	08:09:32	10009	Trial	CongruentRight	14	205	225	1	114	08:09:32	2093211	5	3	3	3	3	3	3	3	3	8	6	0	0	0	0	5	5
112112	08:09:32	10009	Trial	ResponseCL	14	0	175	0	114	08:09:32	2094664	5	3	3	3	3	3	3	3	3	8	6	0	0	0	0	5	5
112112	08:09:32	10009	Trial	CongruentLeft	14	203	279	1	114	08:09:32	2094970	5	3	3	3	3	3	3	3	3	8	6	0	0	0	0	5	5
112112	08:09:32	10009	Trial	ResponseCR	14	0	175	0	114	08:09:32	2096370	5	3	3	3	3	3	3	3	3	8	6	0	0	0	0	5	5
112112	08:09:32	10009	Trial	CongruentRight	14	205	221	1	114	08:09:32	2096610	5	3	3	3	3	3	3	3	3	8	6	0	0	0	0	5	5
112112	08:09:32	10009	Trial	ResponseIR	14	0	175	0	114	08:09:32	2098076	5	3	3	3	3	3	3	3	3	8	6	0	0	0	0	5	5
112112	08:09:32	10009	Trial	IncongruentRight	14	205	355	1	114	08:09:32	2098449	5	3	3	3	3	3	3	3	3	8	6	0	0	0	0	5	5
112112	08:09:32	10009	Trial	ResponseIL	14	0	175	0	114	08:09:32	2099782	5	3	3	3	3	3	3	3	3	8	6	0	0	0	0	5	5
112112	08:09:32	10009	Trial	IncongruentLeft	14	203	265	1	114	08:09:32	2100075	5	3	3	3	3	3	3	3	3	8	6	0	0	0	0	5	5
112112	08:09:32	10009	Trial	ResponseIL	14	0	175	0	114	08:09:32	2101488	5	3	3	3	3	3	3	3	3	8	6	0	0	0	0	5	5
112112	08:09:32	10009	Trial	IncongruentLeft	14	203	287	1	114	08:09:32	2101794	5	3	3	3	3	3	3	3	3	8	6	0	0	0	0	5	5
112112	08:09:32	10009	Trial	ResponseCL	14	0	175	0	114	08:09:32	2103194	5	3	3	3	3	3	3	3	3	8	6	0	0	0	0	5	5
112112	08:09:32	10009	Trial	CongruentLeft	14	203	229	1	114	08:09:32	2103447	5	3	3	3	3	3	3	3	3	8	6	0	0	0	0	5	5
112112	08:09:32	10009	Trial	ResponseCR	14	0	175	0	114	08:09:32	2104900	5	3	3	3	3	3	3	3	3	8	6	0	0	0	0	5	5
112112	08:09:32	10009	Trial	CongruentRight	14	205	187	1	114	08:09:32	2105113	5	3	3	3	3	3	3	3	3	8	6	0	0	0	0	5	5
112112	08:09:32	10009	Trial	ResponseIL	14	0	175	0	114	08:09:32	2106606	5	3	3	3	3	3	3	3	3	8	6	0	0	0	0	5	5
112112	08:09:32	10009	Trial	IncongruentLeft	14	203	256	1	114	08:09:32	2106885	5	3	3	3	3	3	3	3	3	8	6	0	0	0	0	5	5
112112	08:09:32	10009	Trial	ResponseIR	14	0	175	0	114	08:09:32	2108312	5	3	3	3	3	3	3	3	3	8	6	0	0	0	0	5	5
112112	08:09:32	10009	Trial	IncongruentRight	14	205	247	1	114	08:09:32	2108578	5	3	3	3	3	3	3	3	3	8	6	0	0	0	0	5	5
112112	08:09:32	10009	Trial	ResponseCR	14	0	175	0	114	08:09:32	2110018	5	3	3	3	3	3	3	3	3	8	6	0	0	0	0	5	5
112112	08:09:32	10009	Trial	CongruentRight	14	205	205	1	114	08:09:32	2110244	5	3	3	3	3	3	3	3	3	8	6	0	0	0	0	5	5
112112	08:09:32	10009	Trial	ResponseCL	14	0	175	0	114	08:09:32	2111724	5	3	3	3	3	3	3	3	3	8	6	0	0	0	0	5	5
112112	08:09:32	10009	Trial	CongruentLeft	14	203	243	1	114	08:09:32	2111990	5	3	3	3	3	3	3	3	3	8	6	0	0	0	0	5	5
112112	08:09:32	10009	Trial	ResponseIR	14	0	175	0	114	08:09:32	2113430	5	3	3	3	3	3	3	3	3	8	6	0	0	0	0	5	5
112112	08:09:32	10009	Trial	IncongruentRight	14	205	233	1	114	08:09:32	2113683	5	3	3	3	3	3	3	3	3	8	6	0	0	0	0	5	5
112112	08:09:32	10009	Trial	ResponseIL	14	0	175	0	114	08:09:32	2115136	5	3	3	3	3	3	3	3	3	8	6	0	0	0	0	5	5
112112	08:09:32	10009	Trial	IncongruentLeft	14	203	255	1	114	08:09:32	2115415	5	3	3	3	3	3	3	3	3	8	6	0	0	0	0	5	5
112112	08:09:32	10009	Trial	ResponseIR	14	0	175	0	114	08:09:32	2116842	5	3	3	3	3	3	3	3	3	8	6	0	0	0	0	5	5
112112	08:09:32	10009	Trial	IncongruentRight	14	205	245	1	114	08:09:32	2117108	5	3	3	3	3	3	3	3	3	8	6	0	0	0	0	5	5
112112	08:09:32	10009	Trial	ResponseCR	14	0	175	0	114	08:09:32	2118547	5	3	3	3	3	3	3	3	3	8	6	0	0	0	0	5	5
112112	08:09:32	10009	Trial	CongruentRight	14	205	203	1	114	08:09:32	2118774	5	3	3	3	3	3	3	3	3	8	6	0	0	0	0	5	5
112112	08:09:32	10009	Trial	ResponseIL	14	0	175	0	114	08:09:32	2120253	5	3	3	3	3	3	3	3	3	8	6	0	0	0	0	5	5
112112	08:09:32	10009	Trial	IncongruentLeft	14	203	288	1	114	08:09:32	2120560	5	3	3	3	3	3	3	3	3	8	6	0	0	0	0	5	5
112112	08:09:32	10009	Trial	ResponseCL	14	0	175	0	114	08:09:32	2121959	5	3	3	3	3	3	3	3	3	8	6	0	0	0	0	5	5
112112	08:09:32	10009	Trial	CongruentLeft	14	203	231	1	114	08:09:32	2122212	5	3	3	3	3	3	3	3	3	8	6	0	0	0	0	5	5
112112	08:09:32	10009	Trial	ResponseCR	14	0	175	0	114	08:09:32	2123665	5	3	3	3	3	3	3	3	3	8	6	0	0	0	0	5	5
112112	08:09:32	10009	Trial	CongruentRight	14	205	205	1	114	08:09:32	2123892	5	3	3	3	3	3	3	3	3	8	6	0	0	0	0	5	5
112112	08:09:32	10009	Trial	ResponseIL	14	0	175	0	114	08:09:32	2125371	5	3	3	3	3	3	3	3	3	8	6	0	0	0	0	5	5
112112	08:09:32	10009	Trial	IncongruentLeft	14	203	259	1	114	08:09:32	2125651	5	3	3	3	3	3	3	3	3	8	6	0	0	0	0	5	5
112112	08:09:32	10009	Trial	ResponseIR	14	0	175	0	114	08:09:32	2127077	5	3	3	3	3	3	3	3	3	8	6	0	0	0	0	5	5
112112	08:09:32	10009	Trial	IncongruentRight	14	205	281	1	114	08:09:32	2127384	5	3	3	3	3	3	3	3	3	8	6	0	0	0	0	5	5
112112	08:09:32	10009	Trial	ResponseIR	14	0	175	0	114	08:09:32	2128783	5	3	3	3	3	3	3	3	3	8	6	0	0	0	0	5	5
112112	08:09:32	10009	Trial	IncongruentRight	14	205	287	1	114	08:09:32	2129090	5	3	3	3	3	3	3	3	3	8	6	0	0	0	0	5	5
112112	08:09:32	10009	Trial	ResponseCL	14	0	175	0	114	08:09:32	2130490	5	3	3	3	3	3	3	3	3	8	6	0	0	0	0	5	5
112112	08:09:32	10009	Trial	CongruentLeft	14	203	213	1	114	08:09:32	2130729	5	3	3	3	3	3	3	3	3	8	6	0	0	0	0	5	5
112112	08:09:32	10009	Trial	ResponseIL	14	0	175	0	114	08:09:32	2132195	5	3	3	3	3	3	3	3	3	8	6	0	0	0	0	5	5
112112	08:09:32	10009	Trial	IncongruentLeft	14	203	315	1	114	08:09:32	2132528	5	3	3	3	3	3	3	3	3	8	6	0	0	0	0	5	5
112112	08:09:32	10009	Trial	ResponseCR	14	0	175	0	114	08:09:32	2133901	5	3	3	3	3	3	3	3	3	8	6	0	0	0	0	5	5
112112	08:09:32	10009	Trial	CongruentRight	14	205	369	1	114	08:09:32	2134288	5	3	3	3	3	3	3	3	3	8	6	0	0	0	0	5	5
112112	08:09:32	10009	Trial	ResponseCL	14	0	175	0	114	08:09:32	2135607	5	3	3	3	3	3	3	3	3	8	6	0	0	0	0	5	5
112112	08:09:32	10009	Trial	CongruentLeft	14	203	263	1	114	08:09:32	2135887	5	3	3	3	3	3	3	3	3	8	6	0	0	0	0	5	5
112112	08:09:32	10009	Trial	ResponseIR	14	0	175	0	114	08:09:32	2137313	5	3	3	3	3	3	3	3	3	8	6	0	0	0	0	5	5
112112	08:09:32	10009	Trial	IncongruentRight	14	205	332	1	114	08:09:32	2137673	5	3	3	3	3	3	3	3	3	8	6	0	0	0	0	5	5
112112	08:09:32	10009	Trial	ResponseCR	14	0	175	0	114	08:09:32	2139019	5	3	3	3	3	3	3	3	3	8	6	0	0	0	0	5	5
112112	08:09:32	10009	Trial	CongruentRight	14	205	419	1	114	08:09:32	2139459	5	3	3	3	3	3	3	3	3	8	6	0	0	0	0	5	5
112112	08:09:32	10009	Trial	ResponseIL	14	0	175	0	114	08:09:32	2140725	5	3	3	3	3	3	3	3	3	8	6	0	0	0	0	5	5
112112	08:09:32	10009	Trial	IncongruentLeft	14	203	200	1	114	08:09:32	2140952	5	3	3	3	3	3	3	3	3	8	6	0	0	0	0	5	5
112112	08:09:32	10009	Trial	ResponseCL	14	0	175	0	114	08:09:32	2142431	5	3	3	3	3	3	3	3	3	8	6	0	0	0	0	5	5
112112	08:09:32	10009	Trial	CongruentLeft	14	203	255	1	114	08:09:32	2142711	5	3	3	3	3	3	3	3	3	8	6	0	0	0	0	5	5
112112	08:09:32	10009	Trial	ResponseIL	14	0	175	0	114	08:09:32	2144137	5	3	3	3	3	3	3	3	3	8	6	0	0	0	0	5	5
112112	08:09:32	10009	Trial	IncongruentLeft	14	205	228	0	114	08:09:32	2144390	5	3	3	3	3	3	3	3	3	8	6	0	0	0	0	5	5
112112	08:09:32	10009	Trial	ResponseIR	14	0	175	0	114	08:09:32	2145843	5	3	3	3	3	3	3	3	3	8	6	0	0	0	0	5	5
112112	08:09:32	10009	Trial	IncongruentRight	14	205	299	1	114	08:09:32	2146163	5	3	3	3	3	3	3	3	3	8	6	0	0	0	0	5	5
112112	08:09:32	10009	Trial	ResponseCR	14	0	175	0	114	08:09:32	2147549	5	3	3	3	3	3	3	3	3	8	6	0	0	0	0	5	5
112112	08:09:32	10009	Trial	CongruentRight	14	205	321	1	114	08:09:32	2147896	5	3	3	3	3	3	3	3	3	8	6	0	0	0	0	5	5
112112	08:09:32	10009	Trial	ResponseCL	14	0	175	0	114	08:09:32	2149255	5	3	3	3	3	3	3	3	3	8	6	0	0	0	0	5	5
112112	08:09:32	10009	Trial	CongruentLeft	14	203	215	1	114	08:09:32	2149495	5	3	3	3	3	3	3	3	3	8	6	0	0	0	0	5	5
112112	08:09:32	10009	Trial	ResponseCL	14	0	175	0	114	08:09:32	2150961	5	3	3	3	3	3	3	3	3	8	6	0	0	0	0	5	5
112112	08:09:32	10009	Trial	CongruentLeft	14	203	253	1	114	08:09:32	2151241	5	3	3	3	3	3	3	3	3	8	6	0	0	0	0	5	5
112112	08:09:32	10009	Trial	ResponseIR	14	0	175	0	114	08:09:32	2152667	5	3	3	3	3	3	3	3	3	8	6	0	0	0	0	5	5
112112	08:09:32	10009	Trial	IncongruentRight	14	205	258	1	114	08:09:32	2152947	5	3	3	3	3	3	3	3	3	8	6	0	0	0	0	5	5
112112	08:09:32	10009	Trial	ResponseIL	14	0	175	0	114	08:09:32	2154373	5	3	3	3	3	3	3	3	3	8	6	0	0	0	0	5	5
112112	08:09:32	10009	Trial	IncongruentLeft	14	203	264	1	114	08:09:32	2154666	5	3	3	3	3	3	3	3	3	8	6	0	0	0	0	5	5
112112	08:09:32	10009	Trial	ResponseIR	14	0	175	0	114	08:09:32	2156079	5	3	3	3	3	3	3	3	3	8	6	0	0	0	0	5	5
112112	08:09:32	10009	Trial	IncongruentRight	14	205	383	1	114	08:09:32	2156479	5	3	3	3	3	3	3	3	3	8	6	0	0	0	0	5	5
112112	08:09:32	10009	Trial	ResponseCR	14	0	175	0	114	08:09:32	2157785	5	3	3	3	3	3	3	3	3	8	6	0	0	0	0	5	5
112112	08:09:32	10009	Trial	CongruentRight	14	205	325	1	114	08:09:32	2158132	5	3	3	3	3	3	3	3	3	8	6	0	0	0	0	5	5
112112	08:09:32	10009	Trial	ResponseCR	14	0	175	0	114	08:09:32	2159491	5	3	3	3	3	3	3	3	3	8	6	0	0	0	0	5	5
112112	08:09:32	10009	Trial	CongruentRight	14	205	299	1	114	08:09:32	2159811	5	3	3	3	3	3	3	3	3	8	6	0	0	0	0	5	5
112112	08:09:32	10009	Trial	ResponseIL	14	0	175	0	114	08:09:32	2161197	5	3	3	3	3	3	3	3	3	8	6	0	0	0	0	5	5
112112	08:09:32	10009	Trial	IncongruentLeft	14	203	401	1	114	08:09:32	2161623	5	3	3	3	3	3	3	3	3	8	6	0	0	0	0	5	5
112112	08:09:32	10009	Trial	ResponseCL	14	0	175	0	114	08:09:32	2162903	5	3	3	3	3	3	3	3	3	8	6	0	0	0	0	5	5
112112	08:09:32	10009	Trial	CongruentLeft	14	203	374	1	114	08:09:32	2163303	5	3	3	3	3	3	3	3	3	8	6	0	0	0	0	5	5
112112	08:09:32	10009	Trial	ResponseCR	14	0	175	0	114	08:09:32	2164609	5	3	3	3	3	3	3	3	3	8	6	0	0	0	0	5	5
112112	08:09:32	10009	Trial	CongruentRight	14	205	188	1	114	08:09:32	2164822	5	3	3	3	3	3	3	3	3	8	6	0	0	0	0	5	5
112112	08:09:32	10009	Trial	ResponseCL	14	0	175	0	114	08:09:32	2166315	5	3	3	3	3	3	3	3	3	8	6	0	0	0	0	5	5
112112	08:09:32	10009	Trial	CongruentLeft	14	203	194	1	114	08:09:32	2166528	5	3	3	3	3	3	3	3	3	8	6	0	0	0	0	5	5
112112	08:09:32	10009	Trial	ResponseIR	14	0	175	0	114	08:09:32	2168021	5	3	3	3	3	3	3	3	3	8	6	0	0	0	0	5	5
112112	08:09:32	10009	Trial	IncongruentRight	14	205	216	1	114	08:09:32	2168261	5	3	3	3	3	3	3	3	3	8	6	0	0	0	0	5	5
112112	08:09:32	10009	Trial	ResponseCR	14	0	175	0	114	08:09:32	2169727	5	3	3	3	3	3	3	3	3	8	6	0	0	0	0	5	5
112112	08:09:32	10009	Trial	CongruentRight	14	205	238	1	114	08:09:32	2169993	5	3	3	3	3	3	3	3	3	8	6	0	0	0	0	5	5
112112	08:09:32	10009	Trial	ResponseCL	14	0	175	0	114	08:09:32	2171433	5	3	3	3	3	3	3	3	3	8	6	0	0	0	0	5	5
112112	08:09:32	10009	Trial	CongruentLeft	14	203	260	1	114	08:09:32	2171713	5	3	3	3	3	3	3	3	3	8	6	0	0	0	0	5	5
112112	08:09:32	10009	Trial	ResponseIL	14	0	175	0	114	08:09:32	2173139	5	3	3	3	3	3	3	3	3	8	6	0	0	0	0	5	5
112112	08:09:32	10009	Trial	IncongruentLeft	14	203	234	1	114	08:09:32	2173392	5	3	3	3	3	3	3	3	3	8	6	0	0	0	0	5	5
112112	08:09:32	10009	Trial	ResponseIL	14	0	175	0	114	08:09:32	2174845	5	3	3	3	3	3	3	3	3	8	6	0	0	0	0	5	5
112112	08:09:32	10009	Trial	IncongruentLeft	14	203	272	1	114	08:09:32	2175138	5	3	3	3	3	3	3	3	3	8	6	0	0	0	0	5	5
112112	08:09:32	10009	Trial	ResponseCR	14	0	175	0	114	08:09:32	2176551	5	3	3	3	3	3	3	3	3	8	6	0	0	0	0	5	5
112112	08:09:32	10009	Trial	CongruentRight	14	205	214	1	114	08:09:32	2176791	5	3	3	3	3	3	3	3	3	8	6	0	0	0	0	5	5
112112	08:09:32	10009	Trial	ResponseIR	14	0	175	0	114	08:09:32	2178257	5	3	3	3	3	3	3	3	3	8	6	0	0	0	0	5	5
112112	08:09:32	10009	Trial	IncongruentRight	14	205	268	1	114	08:09:32	2178550	5	3	3	3	3	3	3	3	3	8	6	0	0	0	0	5	5
112112	08:09:32	10009	Trial	ResponseCL	14	0	175	0	114	08:09:32	2179963	5	3	3	3	3	3	3	3	3	8	6	0	0	0	0	5	5
112112	08:09:32	10009	Trial	CongruentLeft	14	203	338	1	114	08:09:32	2180323	5	3	3	3	3	3	3	3	3	8	6	0	0	0	0	5	5
112112	08:09:32	10009	Trial	ResponseIR	14	0	175	0	114	08:09:32	2181669	5	3	3	3	3	3	3	3	3	8	6	0	0	0	0	5	5
112112	08:09:32	10009	Trial	IncongruentRight	14	205	312	1	114	08:09:32	2182002	5	3	3	3	3	3	3	3	3	8	6	0	0	0	0	5	5
112112	08:09:32	10009	Trial	ResponseCR	14	0	175	0	114	08:09:32	2183375	5	3	3	3	3	3	3	3	3	8	6	0	0	0	0	5	5
112112	08:09:32	10009	Trial	CongruentRight	14	205	254	1	114	08:09:32	2183655	5	3	3	3	3	3	3	3	3	8	6	0	0	0	0	5	5
112112	08:09:32	10009	Trial	ResponseIL	14	0	175	0	114	08:09:32	2185081	5	3	3	3	3	3	3	3	3	8	6	0	0	0	0	5	5
112112	08:09:32	10009	Trial	IncongruentLeft	14	203	277	1	114	08:09:32	2185374	5	3	3	3	3	3	3	3	3	8	6	0	0	0	0	5	5
112112	08:09:32	10009	Trial	ResponseCL	14	0	175	0	114	08:09:32	2186787	5	3	3	3	3	3	3	3	3	8	6	0	0	0	0	5	5
112112	08:09:32	10009	Trial	CongruentLeft	14	203	298	1	114	08:09:32	2187106	5	3	3	3	3	3	3	3	3	8	6	0	0	0	0	5	5
112112	08:09:32	10009	Trial	ResponseCR	14	0	175	0	114	08:09:32	2188493	5	3	3	3	3	3	3	3	3	8	6	0	0	0	0	5	5
112112	08:09:32	10009	Trial	CongruentRight	14	205	240	1	114	08:09:32	2188759	5	3	3	3	3	3	3	3	3	8	6	0	0	0	0	5	5
112112	08:09:32	10009	Trial	ResponseIL	14	0	175	0	114	08:09:32	2190199	5	3	3	3	3	3	3	3	3	8	6	0	0	0	0	5	5
112112	08:09:32	10009	Trial	IncongruentLeft	14	203	294	1	114	08:09:32	2190518	5	3	3	3	3	3	3	3	3	8	6	0	0	0	0	5	5
112112	08:09:32	10009	Trial	ResponseCR	14	0	175	0	114	08:09:32	2191904	5	3	3	3	3	3	3	3	3	8	6	0	0	0	0	5	5
112112	08:09:32	10009	Trial	CongruentRight	14	205	220	1	114	08:09:32	2192144	5	3	3	3	3	3	3	3	3	8	6	0	0	0	0	5	5
112112	08:09:32	10009	Trial	ResponseCR	14	0	175	0	114	08:09:32	2193611	5	3	3	3	3	3	3	3	3	8	6	0	0	0	0	5	5
112112	08:09:32	10009	Trial	CongruentRight	14	205	290	1	114	08:09:32	2193917	5	3	3	3	3	3	3	3	3	8	6	0	0	0	0	5	5
112112	08:09:32	10009	Trial	ResponseIR	14	0	175	0	114	08:09:32	2195317	5	3	3	3	3	3	3	3	3	8	6	0	0	0	0	5	5
112112	08:09:32	10009	Trial	IncongruentRight	14	203	232	0	114	08:09:32	2195570	5	3	3	3	3	3	3	3	3	8	6	0	0	0	0	5	5
112112	08:09:32	10009	Trial	ResponseCL	14	0	175	0	114	08:09:32	2197023	5	3	3	3	3	3	3	3	3	8	6	0	0	0	0	5	5
112112	08:09:32	10009	Trial	CongruentLeft	14	203	190	1	114	08:09:32	2197236	5	3	3	3	3	3	3	3	3	8	6	0	0	0	0	5	5
112112	08:09:32	10009	Trial	ResponseIL	14	0	175	0	114	08:09:32	2198729	5	3	3	3	3	3	3	3	3	8	6	0	0	0	0	5	5
112112	08:09:32	10009	Trial	IncongruentLeft	14	203	340	1	114	08:09:32	2199088	5	3	3	3	3	3	3	3	3	8	6	0	0	0	0	5	5
112112	08:09:32	10009	Trial	ResponseCL	14	0	175	0	114	08:09:32	2200435	5	3	3	3	3	3	3	3	3	8	6	0	0	0	0	5	5
112112	08:09:32	10009	Trial	CongruentLeft	14	203	282	1	114	08:09:32	2200741	5	3	3	3	3	3	3	3	3	8	6	0	0	0	0	5	5
112112	08:09:32	10009	Trial	ResponseIR	14	0	175	0	114	08:09:32	2202140	5	3	3	3	3	3	3	3	3	8	6	0	0	0	0	5	5
112112	08:09:32	10009	Trial	IncongruentRight	14	205	352	1	114	08:09:32	2202514	5	3	3	3	3	3	3	3	3	8	6	0	0	0	0	5	5
112112	08:09:32	10009	Trial	ResponseIL	14	0	175	0	114	08:09:32	2203846	5	3	3	3	3	3	3	3	3	8	6	0	0	0	0	5	5
112112	08:09:32	10009	Trial	IncongruentLeft	14	203	294	1	114	08:09:32	2204166	5	3	3	3	3	3	3	3	3	8	6	0	0	0	0	5	5
112112	08:09:32	10009	Trial	ResponseCR	14	0	175	0	114	08:09:32	2205552	5	3	3	3	3	3	3	3	3	8	6	0	0	0	0	5	5
112112	08:09:32	10009	Trial	CongruentRight	14	205	220	1	114	08:09:32	2205792	5	3	3	3	3	3	3	3	3	8	6	0	0	0	0	5	5
112112	08:09:32	10009	Trial	ResponseCL	14	0	175	0	114	08:09:32	2207258	5	3	3	3	3	3	3	3	3	8	6	0	0	0	0	5	5
112112	08:09:32	10009	Trial	CongruentLeft	14	203	258	1	114	08:09:32	2207538	5	3	3	3	3	3	3	3	3	8	6	0	0	0	0	5	5
112112	08:09:32	10009	Trial	ResponseIL	14	0	175	0	114	08:09:32	2208965	5	3	3	3	3	3	3	3	3	8	6	0	0	0	0	5	5
112112	08:09:32	10009	Trial	IncongruentLeft	14	203	360	1	114	08:09:32	2209351	5	3	3	3	3	3	3	3	3	8	6	0	0	0	0	5	5
112112	08:09:32	10009	Trial	ResponseCL	14	0	175	0	114	08:09:32	2210670	5	3	3	3	3	3	3	3	3	8	6	0	0	0	0	5	5
112112	08:09:32	10009	Trial	CongruentLeft	14	203	254	1	114	08:09:32	2210950	5	3	3	3	3	3	3	3	3	8	6	0	0	0	0	5	5
112112	08:09:32	10009	Trial	ResponseIR	14	0	175	0	114	08:09:32	2212376	5	3	3	3	3	3	3	3	3	8	6	0	0	0	0	5	5
112112	08:09:32	10009	Trial	IncongruentRight	14	205	231	1	114	08:09:32	2212643	5	3	3	3	3	3	3	3	3	8	6	0	0	0	0	5	5
112112	08:09:32	10009	Trial	ResponseCR	14	0	175	0	114	08:09:32	2214082	5	3	3	3	3	3	3	3	3	8	6	0	0	0	0	5	5
112112	08:09:32	10009	Trial	CongruentRight	14	205	250	1	114	08:09:32	2214349	5	3	3	3	3	3	3	3	3	8	6	0	0	0	0	5	5
112112	08:09:32	10009	Trial	ResponseIL	14	0	175	0	114	08:09:32	2215789	5	3	3	3	3	3	3	3	3	8	6	0	0	0	0	5	5
112112	08:09:32	10009	Trial	IncongruentLeft	14	203	256	1	114	08:09:32	2216068	5	3	3	3	3	3	3	3	3	8	6	0	0	0	0	5	5
112112	08:09:32	10009	Trial	ResponseCL	14	0	175	0	114	08:09:32	2217494	5	3	3	3	3	3	3	3	3	8	6	0	0	0	0	5	5
112112	08:09:32	10009	Trial	CongruentLeft	14	203	278	1	114	08:09:32	2217801	5	3	3	3	3	3	3	3	3	8	6	0	0	0	0	5	5
112112	08:09:32	10009	Trial	ResponseIR	14	0	175	0	114	08:09:32	2219200	5	3	3	3	3	3	3	3	3	8	6	0	0	0	0	5	5
112112	08:09:32	10009	Trial	IncongruentRight	14	205	284	1	114	08:09:32	2219507	5	3	3	3	3	3	3	3	3	8	6	0	0	0	0	5	5
112112	08:09:32	10009	Trial	ResponseIL	14	0	175	0	114	08:09:32	2220906	5	3	3	3	3	3	3	3	3	8	6	0	0	0	0	5	5
112112	08:09:32	10009	Trial	IncongruentLeft	14	203	322	1	114	08:09:32	2221253	5	3	3	3	3	3	3	3	3	8	6	0	0	0	0	5	5
112112	08:09:32	10009	Trial	ResponseCL	14	0	175	0	114	08:09:32	2222612	5	3	3	3	3	3	3	3	3	8	6	0	0	0	0	5	5
112112	08:09:32	10009	Trial	CongruentLeft	14	203	200	1	114	08:09:32	2222839	5	3	3	3	3	3	3	3	3	8	6	0	0	0	0	5	5
112112	08:09:32	10009	Trial	ResponseIL	14	0	175	0	114	08:09:32	2224318	5	3	3	3	3	3	3	3	3	8	6	0	0	0	0	5	5
112112	08:09:32	10009	Trial	IncongruentLeft	14	203	286	1	114	08:09:32	2224625	5	3	3	3	3	3	3	3	3	8	6	0	0	0	0	5	5
112112	08:09:32	10009	Trial	ResponseCR	14	0	175	0	114	08:09:32	2226024	5	3	3	3	3	3	3	3	3	8	6	0	0	0	0	5	5
112112	08:09:32	10009	Trial	CongruentRight	14	205	228	1	114	08:09:32	2226277	5	3	3	3	3	3	3	3	3	8	6	0	0	0	0	5	5
112112	08:09:32	10009	Trial	ResponseCL	14	0	175	0	114	08:09:32	2227730	5	3	3	3	3	3	3	3	3	8	6	0	0	0	0	5	5
112112	08:09:32	10009	Trial	CongruentLeft	14	203	218	1	114	08:09:32	2227970	5	3	3	3	3	3	3	3	3	8	6	0	0	0	0	5	5
112112	08:09:32	10009	Trial	ResponseIR	14	0	175	0	114	08:09:32	2229436	5	3	3	3	3	3	3	3	3	8	6	0	0	0	0	5	5
112112	08:09:32	10009	Trial	IncongruentRight	14	205	272	1	114	08:09:32	2229729	5	3	3	3	3	3	3	3	3	8	6	0	0	0	0	5	5
112112	08:09:32	10009	Trial	ResponseCL	14	0	175	0	114	08:09:32	2231142	5	3	3	3	3	3	3	3	3	8	6	0	0	0	0	5	5
112112	08:09:32	10009	Trial	CongruentLeft	14	203	246	1	114	08:09:32	2231409	5	3	3	3	3	3	3	3	3	8	6	0	0	0	0	5	5
112112	08:09:32	10009	Trial	ResponseCR	14	0	175	0	114	08:09:32	2232848	5	3	3	3	3	3	3	3	3	8	6	0	0	0	0	5	5
112112	08:09:32	10009	Trial	CongruentRight	14	205	236	1	114	08:09:32	2233101	5	3	3	3	3	3	3	3	3	8	6	0	0	0	0	5	5
112112	08:09:32	10009	Trial	ResponseIL	14	0	175	0	114	08:09:32	2234554	5	3	3	3	3	3	3	3	3	8	6	0	0	0	0	5	5
112112	08:09:32	10009	Trial	IncongruentLeft	14	203	274	1	114	08:09:32	2234847	5	3	3	3	3	3	3	3	3	8	6	0	0	0	0	5	5
112112	08:09:32	10009	WordsAbsEng6mo	PAbsEng6mo1	16	Abs1	4041	0	114	08:09:32	2246962	5	3	3	3	3	3	3	3	3	8	6	0	0	0	0	5	5
112112	08:09:32	10009	WordsAbsEng6mo	AbsEng6mo1	16	Abs1	3539	0	114	08:09:32	2250534	5	3	3	3	3	3	3	3	3	8	6	1	0	0	0	5	5
112112	08:09:32	10009	WordsAbsEng6mo	AbsEng6mo2	16	Abs1	26775	0	114	08:09:32	2277350	5	3	3	3	3	3	3	3	3	8	6	2	0	0	0	5	5
112112	08:09:32	10009	WordsAbsEng6mo	AbsEng6mo3	16	Abs1	16998	0	114	08:09:32	2294383	5	3	3	3	3	3	3	3	3	8	6	3	0	0	0	5	5
112112	08:09:32	10009	Trial2BackEngS	NS	17	0	1000	1	114	08:09:32	2330035	5	3	3	3	3	3	3	3	3	8	6	3	0	0	0	5	5
112112	08:09:32	10009	Trial2BackEngS	NS	17	0	1000	1	114	08:09:32	2331541	5	3	3	3	3	3	3	3	3	8	6	3	0	0	0	5	5
112112	08:09:32	10009	Trial2BackEngS	NS	17	0	1000	1	114	08:09:32	2333048	5	3	3	3	3	3	3	3	3	8	6	3	0	0	0	5	5
112112	08:09:32	10009	Trial2BackEngS	YS	17	0	1000	0	114	08:09:32	2334554	5	3	3	3	3	3	3	3	3	8	6	3	0	0	0	5	5
112112	08:09:32	10009	Trial2BackEngS	NS	17	0	1000	1	114	08:09:32	2336060	5	3	3	3	3	3	3	3	3	8	6	3	0	0	0	5	5
112112	08:09:32	10009	Trial2BackEngS	NS	17	0	1000	1	114	08:09:32	2337566	5	3	3	3	3	3	3	3	3	8	6	3	0	0	0	5	5
112112	08:09:32	10009	Trial2BackEngS	NS	17	0	1000	1	114	08:09:32	2339085	5	3	3	3	3	3	3	3	3	8	6	3	0	0	0	5	5
112112	08:09:32	10009	Trial2BackEngS	NS	17	0	1000	1	114	08:09:32	2340591	5	3	3	3	3	3	3	3	3	8	6	3	0	0	0	5	5
112112	08:09:32	10009	Trial2BackEngS	YS	17	57	751	1	114	08:09:32	2341857	5	3	3	3	3	3	3	3	3	8	6	3	0	0	0	5	5
112112	08:09:32	10009	Trial2BackEngS	NS	17	0	1000	1	114	08:09:32	2343603	5	3	3	3	3	3	3	3	3	8	6	3	0	0	0	5	5
112112	08:09:32	10009	Trial2BackEngS	NS	17	0	1000	1	114	08:09:32	2345109	5	3	3	3	3	3	3	3	3	8	6	3	0	0	0	5	5
112112	08:09:32	10009	Trial2BackEngS	YS	17	0	1000	0	114	08:09:32	2346615	5	3	3	3	3	3	3	3	3	8	6	3	0	0	0	5	5
112112	08:09:32	10009	Trial2BackEngS	NS	17	0	1000	1	114	08:09:32	2348121	5	3	3	3	3	3	3	3	3	8	6	3	0	0	0	5	5
112112	08:09:32	10009	Trial2BackEngS	NS	17	0	1000	1	114	08:09:32	2349627	5	3	3	3	3	3	3	3	3	8	6	3	0	0	0	5	5
112112	08:09:32	10009	Trial2BackEngS	NS	17	0	1000	1	114	08:09:32	2351134	5	3	3	3	3	3	3	3	3	8	6	3	0	0	0	5	5
112112	08:09:32	10009	Trial2BackEngS	YS	17	0	1000	0	114	08:09:32	2352640	5	3	3	3	3	3	3	3	3	8	6	3	0	0	0	5	5
112112	08:09:32	10009	Trial2BackEngS	NS	17	0	1000	1	114	08:09:32	2354146	5	3	3	3	3	3	3	3	3	8	6	3	0	0	0	5	5
112112	08:09:32	10009	Trial2BackEngS	NS	17	0	1000	1	114	08:09:32	2355652	5	3	3	3	3	3	3	3	3	8	6	3	0	0	0	5	5
112112	08:09:32	10009	Trial2BackEngS	NS	17	0	1000	1	114	08:09:32	2357158	5	3	3	3	3	3	3	3	3	8	6	3	0	0	0	5	5
112112	08:09:32	10009	Trial2BackEngS	NS	17	0	1000	1	114	08:09:32	2358664	5	3	3	3	3	3	3	3	3	8	6	3	0	0	0	5	5
112112	08:09:32	10009	Trial2BackEngS	YS	17	57	517	1	114	08:09:32	2359690	5	3	3	3	3	3	3	3	3	8	6	3	0	0	0	5	5
112112	08:09:32	10009	Trial2BackEngS	NS	17	0	1000	1	114	08:09:32	2361676	5	3	3	3	3	3	3	3	3	8	6	3	0	0	0	5	5
112112	08:09:32	10009	Trial2BackEngS	NS	17	0	1000	1	114	08:09:32	2363182	5	3	3	3	3	3	3	3	3	8	6	3	0	0	0	5	5
112112	08:09:32	10009	Trial2BackEngS	NS	17	0	1000	1	114	08:09:32	2364701	5	3	3	3	3	3	3	3	3	8	6	3	0	0	0	5	5
112112	08:09:32	10009	Trial2BackEngS	NS	17	0	1000	1	114	08:09:32	2366221	5	3	3	3	3	3	3	3	3	8	6	3	0	0	0	5	5
112112	08:09:32	10009	Trial2BackEngS	NS	17	0	1000	1	114	08:09:32	2367727	5	3	3	3	3	3	3	3	3	8	6	3	0	0	0	5	5
112112	08:09:32	10009	Trial2BackEngS	NS	17	0	1000	1	114	08:09:32	2369233	5	3	3	3	3	3	3	3	3	8	6	3	0	0	0	5	5
112112	08:09:32	10009	Trial2BackEngS	NS	17	0	1000	1	114	08:09:32	2370739	5	3	3	3	3	3	3	3	3	8	6	3	0	0	0	5	5
112112	08:09:32	10009	Trial2BackEngS	NS	17	0	1000	1	114	08:09:32	2372245	5	3	3	3	3	3	3	3	3	8	6	3	0	0	0	5	5
112112	08:09:32	10009	Trial2BackEngS	NS	17	0	1000	1	114	08:09:32	2373751	5	3	3	3	3	3	3	3	3	8	6	3	0	0	0	5	5
112112	08:09:32	10009	Trial2BackEngS	NS	17	0	1000	1	114	08:09:32	2375257	5	3	3	3	3	3	3	3	3	8	6	3	0	0	0	5	5
112112	08:09:32	10009	Trial2BackEngS	YS	17	0	1000	0	114	08:09:32	2376763	5	3	3	3	3	3	3	3	3	8	6	3	0	0	0	5	5
112112	08:09:32	10009	Trial2BackEngS	NS	17	0	1000	1	114	08:09:32	2378269	5	3	3	3	3	3	3	3	3	8	6	3	0	0	0	5	5
112112	08:09:32	10009	Trial2BackEngS	NS	17	0	1000	1	114	08:09:32	2379775	5	3	3	3	3	3	3	3	3	8	6	3	0	0	0	5	5
112112	08:09:32	10009	Trial2BackEngS	NS	17	0	1000	1	114	08:09:32	2381281	5	3	3	3	3	3	3	3	3	8	6	3	0	0	0	5	5
112112	08:09:32	10009	Trial2BackEngS	YS	17	0	1000	0	114	08:09:32	2382787	5	3	3	3	3	3	3	3	3	8	6	3	0	0	0	5	5
112112	08:09:32	10009	Trial2BackEngS	NS	17	0	1000	1	114	08:09:32	2384293	5	3	3	3	3	3	3	3	3	8	6	3	0	0	0	5	5
112112	08:09:32	10009	Trial2BackEngS	NS	17	0	1000	1	114	08:09:32	2385799	5	3	3	3	3	3	3	3	3	8	6	3	0	0	0	5	5
112112	08:09:32	10009	Trial2BackEngS	NS	17	0	1000	1	114	08:09:32	2387306	5	3	3	3	3	3	3	3	3	8	6	3	0	0	0	5	5
112112	08:09:32	10009	Trial2BackEngS	NS	17	0	1000	1	114	08:09:32	2388812	5	3	3	3	3	3	3	3	3	8	6	3	0	0	0	5	5
112112	08:09:32	10009	Trial2BackEngS	NS	17	0	1000	1	114	08:09:32	2390318	5	3	3	3	3	3	3	3	3	8	6	3	0	0	0	5	5
112112	08:09:32	10009	Trial2BackEngS	NS	17	0	1000	1	114	08:09:32	2391824	5	3	3	3	3	3	3	3	3	8	6	3	0	0	0	5	5
112112	08:09:32	10009	Trial2BackEngS	NS	17	0	1000	1	114	08:09:32	2393330	5	3	3	3	3	3	3	3	3	8	6	3	0	0	0	5	5
112112	08:09:32	10009	Trial2BackEngS	YS	17	57	843	1	114	08:09:32	2394689	5	3	3	3	3	3	3	3	3	8	6	3	0	0	0	5	5
112112	08:09:32	10009	Trial2BackEngS	NS	17	0	1000	1	114	08:09:32	2396342	5	3	3	3	3	3	3	3	3	8	6	3	0	0	0	5	5
112112	08:09:32	10009	Trial2BackEngS	NS	17	0	1000	1	114	08:09:32	2397848	5	3	3	3	3	3	3	3	3	8	6	3	0	0	0	5	5
112112	08:09:32	10009	Trial2BackEngS	NS	17	0	1000	1	114	08:09:32	2399354	5	3	3	3	3	3	3	3	3	8	6	3	0	0	0	5	5
112112	08:09:32	10009	Trial2BackEngS	NS	17	0	1000	1	114	08:09:32	2400860	5	3	3	3	3	3	3	3	3	8	6	3	0	0	0	5	5
112112	08:09:32	10009	Trial2BackEngS	YS	17	57	976	1	114	08:09:32	2402353	5	3	3	3	3	3	3	3	3	8	6	3	0	0	0	5	5
112112	08:09:32	10009	Trial2BackEngS	NS	17	0	1000	1	114	08:09:32	2403872	5	3	3	3	3	3	3	3	3	8	6	3	0	0	0	5	5
112112	08:09:32	10009	Trial2BackEngS	NS	17	0	1000	1	114	08:09:32	2405378	5	3	3	3	3	3	3	3	3	8	6	3	0	0	0	5	5
112112	08:09:32	10009	Trial2BackEngS	NS	17	0	1000	1	114	08:09:32	2406885	5	3	3	3	3	3	3	3	3	8	6	3	0	0	0	5	5
112112	08:09:32	10009	Trial2BackEngS	NS	17	0	1000	1	114	08:09:32	2408390	5	3	3	3	3	3	3	3	3	8	6	3	0	0	0	5	5
112112	08:09:32	10009	Trial2BackEngS	NS	17	0	1000	1	114	08:09:32	2409896	5	3	3	3	3	3	3	3	3	8	6	3	0	0	0	5	5
112112	08:09:32	10009	Trial2BackEngS	NS	17	0	1000	1	114	08:09:32	2411402	5	3	3	3	3	3	3	3	3	8	6	3	0	0	0	5	5
112112	08:09:32	10009	Trial2BackEngS	YS	17	57	738	1	114	08:09:32	2412655	5	3	3	3	3	3	3	3	3	8	6	3	0	0	0	5	5
112112	08:09:32	10009	Trial2BackEngS	NS	17	0	1000	1	114	08:09:32	2414415	5	3	3	3	3	3	3	3	3	8	6	3	0	0	0	5	5
112112	08:09:32	10009	Trial2BackEngS	NS	17	0	1000	1	114	08:09:32	2415921	5	3	3	3	3	3	3	3	3	8	6	3	0	0	0	5	5
112112	08:09:32	10009	Trial2BackEngS	NS	17	0	1000	1	114	08:09:32	2417427	5	3	3	3	3	3	3	3	3	8	6	3	0	0	0	5	5
112112	08:09:32	10009	Trial2BackEngS	NS	17	0	1000	1	114	08:09:32	2418933	5	3	3	3	3	3	3	3	3	8	6	3	0	0	0	5	5
112112	08:09:32	10009	Trial2BackEngS	NS	17	0	1000	1	114	08:09:32	2420439	5	3	3	3	3	3	3	3	3	8	6	3	0	0	0	5	5
112112	08:09:32	10009	Trial2BackEngS	NS	17	0	1000	1	114	08:09:32	2421945	5	3	3	3	3	3	3	3	3	8	6	3	0	0	0	5	5
112112	08:09:32	10009	Trial2BackEngS	NS	17	0	1000	1	114	08:09:32	2423451	5	3	3	3	3	3	3	3	3	8	6	3	0	0	0	5	5
112112	08:09:32	10009	Trial2BackEngS	YS	17	57	657	1	114	08:09:32	2424624	5	3	3	3	3	3	3	3	3	8	6	3	0	0	0	5	5
112112	08:09:32	10009	Trial2BackEngS	NS	17	0	1000	1	114	08:09:32	2426463	5	3	3	3	3	3	3	3	3	8	6	3	0	0	0	5	5
112112	08:09:32	10009	Trial2BackEngS	NS	17	0	1000	1	114	08:09:32	2427982	5	3	3	3	3	3	3	3	3	8	6	3	0	0	0	5	5
112112	08:09:32	10009	Trial2BackEngS	NS	17	0	1000	1	114	08:09:32	2429488	5	3	3	3	3	3	3	3	3	8	6	3	0	0	0	5	5
112112	08:09:32	10009	Trial2BackEngS	NS	17	0	1000	1	114	08:09:32	2430995	5	3	3	3	3	3	3	3	3	8	6	3	0	0	0	5	5
112112	08:09:32	10009	Trial2BackEngS	YS	17	0	1000	0	114	08:09:32	2432501	5	3	3	3	3	3	3	3	3	8	6	3	0	0	0	5	5
112112	08:09:32	10009	Trial2BackEngS	NS	17	0	1000	1	114	08:09:32	2434007	5	3	3	3	3	3	3	3	3	8	6	3	0	0	0	5	5
112112	08:09:32	10009	Trial2BackEngS	NS	17	57	709	0	114	08:09:32	2435233	5	3	3	3	3	3	3	3	3	8	6	3	0	0	0	5	5
112112	08:09:32	10009	Trial2BackEngS	YS	17	0	1000	0	114	08:09:32	2437019	5	3	3	3	3	3	3	3	3	8	6	3	0	0	0	5	5
112112	08:09:32	10009	Trial2BackEngS	NS	17	0	1000	1	114	08:09:32	2438525	5	3	3	3	3	3	3	3	3	8	6	3	0	0	0	5	5
112112	08:09:32	10009	Trial2BackEngS	NS	17	0	1000	1	114	08:09:32	2440031	5	3	3	3	3	3	3	3	3	8	6	3	0	0	0	5	5
112112	08:09:32	10009	Trial2BackEngS	NS	17	0	1000	1	114	08:09:32	2441537	5	3	3	3	3	3	3	3	3	8	6	3	0	0	0	5	5
112112	08:09:32	10009	Trial2BackEngS	NS	17	0	1000	1	114	08:09:32	2443043	5	3	3	3	3	3	3	3	3	8	6	3	0	0	0	5	5
112112	08:09:32	10009	Trial2BackEngS	NS	17	0	1000	1	114	08:09:32	2444549	5	3	3	3	3	3	3	3	3	8	6	3	0	0	0	5	5
112112	08:09:32	10009	Trial2BackEngS	NS	17	0	1000	1	114	08:09:32	2446055	5	3	3	3	3	3	3	3	3	8	6	3	0	0	0	5	5
112112	08:09:32	10009	Trial2BackEngS	YS	17	57	516	1	114	08:09:32	2447081	5	3	3	3	3	3	3	3	3	8	6	3	0	0	0	5	5
112112	08:09:32	10009	Trial2BackEngS	NS	17	0	1000	1	114	08:09:32	2449067	5	3	3	3	3	3	3	3	3	8	6	3	0	0	0	5	5
112112	08:09:32	10009	Trial2BackEngS	NS	17	0	1000	1	114	08:09:32	2450573	5	3	3	3	3	3	3	3	3	8	6	3	0	0	0	5	5
112112	08:09:32	10009	Trial2BackEngS	NS	17	0	1000	1	114	08:09:32	2452079	5	3	3	3	3	3	3	3	3	8	6	3	0	0	0	5	5
112112	08:09:32	10009	Trial2BackEngS	NS	17	0	1000	1	114	08:09:32	2453585	5	3	3	3	3	3	3	3	3	8	6	3	0	0	0	5	5
112112	08:09:32	10009	Trial2BackEngS	YS	17	0	1000	0	114	08:09:32	2455091	5	3	3	3	3	3	3	3	3	8	6	3	0	0	0	5	5
112112	08:09:32	10009	Trial2BackEngS	NS	17	0	1000	1	114	08:09:32	2456597	5	3	3	3	3	3	3	3	3	8	6	3	0	0	0	5	5
112112	08:09:32	10009	Trial2BackEngS	NS	17	0	1000	1	114	08:09:32	2458104	5	3	3	3	3	3	3	3	3	8	6	3	0	0	0	5	5
112112	08:09:32	10009	Trial2BackEngS	NS	17	0	1000	1	114	08:09:32	2459610	5	3	3	3	3	3	3	3	3	8	6	3	0	0	0	5	5
112112	08:09:32	10009	Trial2BackEngS	NS	17	57	769	0	114	08:09:32	2460889	5	3	3	3	3	3	3	3	3	8	6	3	0	0	0	5	5
112112	08:09:32	10009	Trial2BackEngS	YS	17	0	1000	0	114	08:09:32	2462622	5	3	3	3	3	3	3	3	3	8	6	3	0	0	0	5	5
112112	08:09:32	10009	Trial2BackEngS	NS	17	0	1000	1	114	08:09:32	2464128	5	3	3	3	3	3	3	3	3	8	6	3	0	0	0	5	5
112112	08:09:32	10009	Trial2BackEngS	NS	17	0	1000	1	114	08:09:32	2465647	5	3	3	3	3	3	3	3	3	8	6	3	0	0	0	5	5
112112	08:09:32	10009	Trial2BackEngS	YS	17	0	1000	0	114	08:09:32	2467167	5	3	3	3	3	3	3	3	3	8	6	3	0	0	0	5	5
112112	08:09:32	10009	Trial2BackEngS	NS	17	0	1000	1	114	08:09:32	2468673	5	3	3	3	3	3	3	3	3	8	6	3	0	0	0	5	5
112112	08:09:32	10009	Trial2BackEngS	NS	17	0	1000	1	114	08:09:32	2470179	5	3	3	3	3	3	3	3	3	8	6	3	0	0	0	5	5
112112	08:09:32	10009	Trial2BackEngS	NS	17	0	1000	1	114	08:09:32	2471685	5	3	3	3	3	3	3	3	3	8	6	3	0	0	0	5	5
112112	08:09:32	10009	Trial2BackEngS	NS	17	0	1000	1	114	08:09:32	2473204	5	3	3	3	3	3	3	3	3	8	6	3	0	0	0	5	5
112112	08:09:32	10009	Trial2BackEngS	NS	17	0	1000	1	114	08:09:32	2474710	5	3	3	3	3	3	3	3	3	8	6	3	0	0	0	5	5
112112	08:09:32	10009	Trial2BackEngS	NS	17	0	1000	1	114	08:09:32	2476216	5	3	3	3	3	3	3	3	3	8	6	3	0	0	0	5	5
112112	08:09:32	10009	Trial2BackEngS	NS	17	0	1000	1	114	08:09:32	2477722	5	3	3	3	3	3	3	3	3	8	6	3	0	0	0	5	5
112112	08:09:32	10009	Trial2BackEngS	NS	17	0	1000	1	114	08:09:32	2479228	5	3	3	3	3	3	3	3	3	8	6	3	0	0	0	5	5
112112	08:09:32	10009	Trial2BackEngS	YS	17	0	1000	0	114	08:09:32	2480734	5	3	3	3	3	3	3	3	3	8	6	3	0	0	0	5	5
112112	08:09:32	10009	Trial2BackEngS	NS	17	0	1000	1	114	08:09:32	2482241	5	3	3	3	3	3	3	3	3	8	6	3	0	0	0	5	5
112112	08:09:32	10009	Trial2BackEngS	NS	17	0	1000	1	114	08:09:32	2483746	5	3	3	3	3	3	3	3	3	8	6	3	0	0	0	5	5
112112	08:09:32	10009	Trial2BackEngS	NS	17	0	1000	1	114	08:09:32	2485266	5	3	3	3	3	3	3	3	3	8	6	3	0	0	0	5	5
112112	08:09:32	10009	Trial2BackEngS	NS	17	0	1000	1	114	08:09:32	2486772	5	3	3	3	3	3	3	3	3	8	6	3	0	0	0	5	5
112112	08:09:32	10009	Trial2BackEngS	NS	17	0	1000	1	114	08:09:32	2488278	5	3	3	3	3	3	3	3	3	8	6	3	0	0	0	5	5
112112	08:09:32	10009	Trial2BackEngS	NS	17	0	1000	1	114	08:09:32	2489784	5	3	3	3	3	3	3	3	3	8	6	3	0	0	0	5	5
112112	08:09:32	10009	Trial2BackEngS	NS	17	0	1000	1	114	08:09:32	2491290	5	3	3	3	3	3	3	3	3	8	6	3	0	0	0	5	5
112112	08:09:32	10009	Trial2BackEngS	YS	17	0	1000	0	114	08:09:32	2492796	5	3	3	3	3	3	3	3	3	8	6	3	0	0	0	5	5
112112	08:09:32	10009	Trial2BackEngS	NS	17	0	1000	1	114	08:09:32	2494302	5	3	3	3	3	3	3	3	3	8	6	3	0	0	0	5	5
112112	08:09:32	10009	Trial2BackEngS	NS	17	0	1000	1	114	08:09:32	2495808	5	3	3	3	3	3	3	3	3	8	6	3	0	0	0	5	5
112112	08:09:32	10009	Trial2BackEngS	NS	17	0	1000	1	114	08:09:32	2497314	5	3	3	3	3	3	3	3	3	8	6	3	0	0	0	5	5
112112	08:09:32	10009	Trial2BackEngS	NS	17	0	1000	1	114	08:09:32	2498820	5	3	3	3	3	3	3	3	3	8	6	3	0	0	0	5	5
112112	08:09:32	10009	Trial2BackEngS	NS	17	0	1000	1	114	08:09:32	2500326	5	3	3	3	3	3	3	3	3	8	6	3	0	0	0	5	5
112112	08:09:32	10009	Trial2BackEngS	NS	17	0	1000	1	114	08:09:32	2501832	5	3	3	3	3	3	3	3	3	8	6	3	0	0	0	5	5
112112	08:09:32	10009	Trial2BackEngS	NS	17	0	1000	1	114	08:09:32	2503338	5	3	3	3	3	3	3	3	3	8	6	3	0	0	0	5	5
112112	08:09:32	10009	Trial2BackEngS	NS	17	0	1000	1	114	08:09:32	2504845	5	3	3	3	3	3	3	3	3	8	6	3	0	0	0	5	5
112112	08:09:32	10009	Trial2BackEngS	NS	17	0	1000	1	114	08:09:32	2506351	5	3	3	3	3	3	3	3	3	8	6	3	0	0	0	5	5
112112	08:09:32	10009	Trial2BackEngS	YS	17	57	539	1	114	08:09:32	2507403	5	3	3	3	3	3	3	3	3	8	6	3	0	0	0	5	5
112112	08:09:32	10009	Trial2BackEngS	NS	17	0	1000	1	114	08:09:32	2509363	5	3	3	3	3	3	3	3	3	8	6	3	0	0	0	5	5
112112	08:09:32	10009	ClockEng6mo	ClockEng6mo	19	Clock1	23966	0	114	08:09:32	2533460	5	3	3	3	3	3	3	3	3	8	6	3	1	0	0	5	5
112112	08:09:32	10009	ClockEng6mo	ClockEng6mo	19	Clock11	837	0	114	08:09:32	2534353	5	3	3	3	3	3	3	3	3	8	6	3	1	1	0	5	5
112112	08:09:32	10009	ClockEng6mo	ClockEng6mo	19	Clock111	1992	0	114	08:09:32	2536392	5	3	3	3	3	3	3	3	3	8	6	3	1	1	1	5	5
112112	08:09:32	10009	ClockEng6mo	ClockEng6mo	19	Clockdone	2625	0	114	08:09:32	2539071	5	3	3	3	3	3	3	3	3	8	6	3	1	1	1	5	5
112112	08:09:32	10009	FASEngVF6mo	StopEngVF6mo	20	13	4946	0	114	08:09:32	2626197	5	3	3	3	3	3	3	3	3	8	6	3	1	1	1	5	5
