date	time	subject	blockcode	trialcode	values.TaskNumber	response	latency	correct	values.Score	script.starttime	script.elapsedtime	values.ScoreS7	values.Word1	values.Word2	values.Word3	values.Word4	values.Word5	values.Word6	values.Word7	values.Word8	values.DigitSpanFwrd	values.DigitSpanBack	values.ScoreAbs	values.Contour	values.Numbers	values.Hands	values.corsiblockspanFwrd	values.corsiblockspanRev	values.problemnumber	values.subjectattempts	values.targetmoves	values.subjectmoves	expressions.excessmoves	values.movestring	expressions.targetachieved	values.problemscore	values.totalscoreTOL	expressions.firstmovetime	expressions.executiontime	expressions.solutiontime	values.t_choicestart	values.t_choiceend
012513	09:52:49	10033	Language	Language	0	French	1433951	0	0	09:52:49	1434071	0	0	0	0	0	0	0	0	0	0	0	0	0	0	0	0	0	0	0	0	0	0		1	0	0	0	0	0	0	0
012513	09:52:49	10033	Session	Session	0	6mo	1047	0	0	09:52:49	1435177	0	0	0	0	0	0	0	0	0	0	0	0	0	0	0	0	0	0	0	0	0	0		1	0	0	0	0	0	0	0
012513	09:52:49	10033	HandFr	HandFr	0	RightFr	1501	0	0	09:52:49	1436737	0	0	0	0	0	0	0	0	0	0	0	0	0	0	0	0	0	0	0	0	0	0		1	0	0	0	0	0	0	0
012513	09:52:49	10033	AudioCheckFr	WordsFr	0	0	0	0	0	09:52:49	1785183	0	0	0	0	0	0	0	0	0	0	0	0	0	0	0	0	0	0	0	0	0	0		1	0	0	0	0	0	0	0
012513	09:52:49	10033	CubeFr	CubeFr	1	1Cube	88905	0	0	09:52:49	1876918	0	0	0	0	0	0	0	0	0	0	0	0	0	0	0	0	0	0	0	0	0	0		1	0	0	0	0	0	0	0
012513	09:52:49	10033	pm.simpleFrRight	blank.simpleFr	2	0	2100	1	0	09:52:49	1911584	0	0	0	0	0	0	0	0	0	0	0	0	0	0	0	0	0	0	0	0	0	0		1	0	0	0	0	0	0	0
012513	09:52:49	10033	pm.simpleFrRight	pm.simpleFr	2	57	824	0	0	09:52:49	1912437	0	0	0	0	0	0	0	0	0	0	0	0	0	0	0	0	0	0	0	0	0	0		1	0	0	0	0	0	0	0
012513	09:52:49	10033	pm.simpleFrRight	blank.simpleFr	2	0	1700	1	0	09:52:49	1914156	0	0	0	0	0	0	0	0	0	0	0	0	0	0	0	0	0	0	0	0	0	0		1	0	0	0	0	0	0	0
012513	09:52:49	10033	pm.simpleFrRight	pm.simpleFr	2	57	636	0	0	09:52:49	1914810	0	0	0	0	0	0	0	0	0	0	0	0	0	0	0	0	0	0	0	0	0	0		1	0	0	0	0	0	0	0
012513	09:52:49	10033	pm.simpleFrRight	blank.simpleFr	2	0	1500	1	0	09:52:49	1916342	0	0	0	0	0	0	0	0	0	0	0	0	0	0	0	0	0	0	0	0	0	0		1	0	0	0	0	0	0	0
012513	09:52:49	10033	pm.simpleFrRight	pm.simpleFr	2	57	578	0	0	09:52:49	1916942	0	0	0	0	0	0	0	0	0	0	0	0	0	0	0	0	0	0	0	0	0	0		1	0	0	0	0	0	0	0
012513	09:52:49	10033	pm.simpleFrRight	blank.simpleFr	2	0	1900	1	0	09:52:49	1918861	0	0	0	0	0	0	0	0	0	0	0	0	0	0	0	0	0	0	0	0	0	0		1	0	0	0	0	0	0	0
012513	09:52:49	10033	pm.simpleFrRight	pm.simpleFr	2	57	572	0	0	09:52:49	1919461	0	0	0	0	0	0	0	0	0	0	0	0	0	0	0	0	0	0	0	0	0	0		1	0	0	0	0	0	0	0
012513	09:52:49	10033	pm.simpleFrRight	blank.simpleFr	2	0	2400	1	0	09:52:49	1921873	0	0	0	0	0	0	0	0	0	0	0	0	0	0	0	0	0	0	0	0	0	0		1	0	0	0	0	0	0	0
012513	09:52:49	10033	pm.simpleFrRight	pm.simpleFr	2	57	711	0	0	09:52:49	1922606	0	0	0	0	0	0	0	0	0	0	0	0	0	0	0	0	0	0	0	0	0	0		1	0	0	0	0	0	0	0
012513	09:52:49	10033	pm.simpleFrRight	blank.simpleFr	2	0	1600	1	0	09:52:49	1924219	0	0	0	0	0	0	0	0	0	0	0	0	0	0	0	0	0	0	0	0	0	0		1	0	0	0	0	0	0	0
012513	09:52:49	10033	pm.simpleFrRight	pm.simpleFr	2	57	669	0	0	09:52:49	1924912	0	0	0	0	0	0	0	0	0	0	0	0	0	0	0	0	0	0	0	0	0	0		1	0	0	0	0	0	0	0
012513	09:52:49	10033	pm.simpleFrRight	blank.simpleFr	2	0	1800	1	0	09:52:49	1926725	0	0	0	0	0	0	0	0	0	0	0	0	0	0	0	0	0	0	0	0	0	0		1	0	0	0	0	0	0	0
012513	09:52:49	10033	pm.simpleFrRight	pm.simpleFr	2	57	514	0	0	09:52:49	1927258	0	0	0	0	0	0	0	0	0	0	0	0	0	0	0	0	0	0	0	0	0	0		1	0	0	0	0	0	0	0
012513	09:52:49	10033	pm.simpleFrRight	blank.simpleFr	2	0	2300	1	0	09:52:49	1929577	0	0	0	0	0	0	0	0	0	0	0	0	0	0	0	0	0	0	0	0	0	0		1	0	0	0	0	0	0	0
012513	09:52:49	10033	pm.simpleFrRight	pm.simpleFr	2	57	577	0	0	09:52:49	1930177	0	0	0	0	0	0	0	0	0	0	0	0	0	0	0	0	0	0	0	0	0	0		1	0	0	0	0	0	0	0
012513	09:52:49	10033	pm.simpleFrRight	blank.simpleFr	2	0	2200	1	0	09:52:49	1932402	0	0	0	0	0	0	0	0	0	0	0	0	0	0	0	0	0	0	0	0	0	0		1	0	0	0	0	0	0	0
012513	09:52:49	10033	pm.simpleFrRight	pm.simpleFr	2	57	598	0	0	09:52:49	1933029	0	0	0	0	0	0	0	0	0	0	0	0	0	0	0	0	0	0	0	0	0	0		1	0	0	0	0	0	0	0
012513	09:52:49	10033	pm.simpleFrRight	blank.simpleFr	2	0	2500	1	0	09:52:49	1935548	0	0	0	0	0	0	0	0	0	0	0	0	0	0	0	0	0	0	0	0	0	0		1	0	0	0	0	0	0	0
012513	09:52:49	10033	pm.simpleFrRight	pm.simpleFr	2	57	492	0	0	09:52:49	1936067	0	0	0	0	0	0	0	0	0	0	0	0	0	0	0	0	0	0	0	0	0	0		1	0	0	0	0	0	0	0
012513	09:52:49	10033	pm.simpleFrRight	blank.simpleFr	2	0	2000	1	0	09:52:49	1938093	0	0	0	0	0	0	0	0	0	0	0	0	0	0	0	0	0	0	0	0	0	0		1	0	0	0	0	0	0	0
012513	09:52:49	10033	pm.simpleFrRight	pm.simpleFr	2	57	459	0	0	09:52:49	1938573	0	0	0	0	0	0	0	0	0	0	0	0	0	0	0	0	0	0	0	0	0	0		1	0	0	0	0	0	0	0
012513	09:52:49	10033	pm.simpleFrRight	blank.simpleFr	2	0	1600	1	0	09:52:49	1940186	0	0	0	0	0	0	0	0	0	0	0	0	0	0	0	0	0	0	0	0	0	0		1	0	0	0	0	0	0	0
012513	09:52:49	10033	pm.simpleFrRight	pm.simpleFr	2	57	478	0	0	09:52:49	1940692	0	0	0	0	0	0	0	0	0	0	0	0	0	0	0	0	0	0	0	0	0	0		1	0	0	0	0	0	0	0
012513	09:52:49	10033	pm.simpleFrRight	blank.simpleFr	2	0	2300	1	0	09:52:49	1943012	0	0	0	0	0	0	0	0	0	0	0	0	0	0	0	0	0	0	0	0	0	0		1	0	0	0	0	0	0	0
012513	09:52:49	10033	pm.simpleFrRight	pm.simpleFr	2	57	548	0	0	09:52:49	1943585	0	0	0	0	0	0	0	0	0	0	0	0	0	0	0	0	0	0	0	0	0	0		1	0	0	0	0	0	0	0
012513	09:52:49	10033	pm.simpleFrRight	blank.simpleFr	2	0	2500	1	0	09:52:49	1946104	0	0	0	0	0	0	0	0	0	0	0	0	0	0	0	0	0	0	0	0	0	0		1	0	0	0	0	0	0	0
012513	09:52:49	10033	pm.simpleFrRight	pm.simpleFr	2	57	816	0	0	09:52:49	1946943	0	0	0	0	0	0	0	0	0	0	0	0	0	0	0	0	0	0	0	0	0	0		1	0	0	0	0	0	0	0
012513	09:52:49	10033	pm.simpleFrRight	blank.simpleFr	2	0	2200	1	0	09:52:49	1949156	0	0	0	0	0	0	0	0	0	0	0	0	0	0	0	0	0	0	0	0	0	0		1	0	0	0	0	0	0	0
012513	09:52:49	10033	pm.simpleFrRight	pm.simpleFr	2	57	388	0	0	09:52:49	1949569	0	0	0	0	0	0	0	0	0	0	0	0	0	0	0	0	0	0	0	0	0	0		1	0	0	0	0	0	0	0
012513	09:52:49	10033	pm.simpleFrRight	blank.simpleFr	2	0	1500	1	0	09:52:49	1951088	0	0	0	0	0	0	0	0	0	0	0	0	0	0	0	0	0	0	0	0	0	0		1	0	0	0	0	0	0	0
012513	09:52:49	10033	pm.simpleFrRight	pm.simpleFr	2	57	487	0	0	09:52:49	1951595	0	0	0	0	0	0	0	0	0	0	0	0	0	0	0	0	0	0	0	0	0	0		1	0	0	0	0	0	0	0
012513	09:52:49	10033	pm.simpleFrRight	blank.simpleFr	2	0	2000	1	0	09:52:49	1953607	0	0	0	0	0	0	0	0	0	0	0	0	0	0	0	0	0	0	0	0	0	0		1	0	0	0	0	0	0	0
012513	09:52:49	10033	pm.simpleFrRight	pm.simpleFr	2	57	337	0	0	09:52:49	1953967	0	0	0	0	0	0	0	0	0	0	0	0	0	0	0	0	0	0	0	0	0	0		1	0	0	0	0	0	0	0
012513	09:52:49	10033	pm.simpleFrRight	blank.simpleFr	2	0	2400	1	0	09:52:49	1956379	0	0	0	0	0	0	0	0	0	0	0	0	0	0	0	0	0	0	0	0	0	0		1	0	0	0	0	0	0	0
012513	09:52:49	10033	pm.simpleFrRight	pm.simpleFr	2	57	460	0	0	09:52:49	1956859	0	0	0	0	0	0	0	0	0	0	0	0	0	0	0	0	0	0	0	0	0	0		1	0	0	0	0	0	0	0
012513	09:52:49	10033	pm.simpleFrRight	blank.simpleFr	2	0	1800	1	0	09:52:49	1958672	0	0	0	0	0	0	0	0	0	0	0	0	0	0	0	0	0	0	0	0	0	0		1	0	0	0	0	0	0	0
012513	09:52:49	10033	pm.simpleFrRight	pm.simpleFr	2	57	407	0	0	09:52:49	1959098	0	0	0	0	0	0	0	0	0	0	0	0	0	0	0	0	0	0	0	0	0	0		1	0	0	0	0	0	0	0
012513	09:52:49	10033	pm.simpleFrRight	blank.simpleFr	2	0	2100	1	0	09:52:49	1961217	0	0	0	0	0	0	0	0	0	0	0	0	0	0	0	0	0	0	0	0	0	0		1	0	0	0	0	0	0	0
012513	09:52:49	10033	pm.simpleFrRight	pm.simpleFr	2	57	358	0	0	09:52:49	1961604	0	0	0	0	0	0	0	0	0	0	0	0	0	0	0	0	0	0	0	0	0	0		1	0	0	0	0	0	0	0
012513	09:52:49	10033	pm.simpleFrRight	blank.simpleFr	2	0	1900	1	0	09:52:49	1963523	0	0	0	0	0	0	0	0	0	0	0	0	0	0	0	0	0	0	0	0	0	0		1	0	0	0	0	0	0	0
012513	09:52:49	10033	pm.simpleFrRight	pm.simpleFr	2	57	468	0	0	09:52:49	1964016	0	0	0	0	0	0	0	0	0	0	0	0	0	0	0	0	0	0	0	0	0	0		1	0	0	0	0	0	0	0
012513	09:52:49	10033	pm.simpleFrRight	blank.simpleFr	2	0	1700	1	0	09:52:49	1965736	0	0	0	0	0	0	0	0	0	0	0	0	0	0	0	0	0	0	0	0	0	0		1	0	0	0	0	0	0	0
012513	09:52:49	10033	pm.simpleFrRight	pm.simpleFr	2	57	466	0	0	09:52:49	1966229	0	0	0	0	0	0	0	0	0	0	0	0	0	0	0	0	0	0	0	0	0	0		1	0	0	0	0	0	0	0
012513	09:52:49	10033	pm.simpleFrRight	blank.simpleFr	2	0	2300	1	0	09:52:49	1968548	0	0	0	0	0	0	0	0	0	0	0	0	0	0	0	0	0	0	0	0	0	0		1	0	0	0	0	0	0	0
012513	09:52:49	10033	pm.simpleFrRight	pm.simpleFr	2	57	483	0	0	09:52:49	1969054	0	0	0	0	0	0	0	0	0	0	0	0	0	0	0	0	0	0	0	0	0	0		1	0	0	0	0	0	0	0
012513	09:52:49	10033	pm.simpleFrRight	blank.simpleFr	2	0	1900	1	0	09:52:49	1970973	0	0	0	0	0	0	0	0	0	0	0	0	0	0	0	0	0	0	0	0	0	0		1	0	0	0	0	0	0	0
012513	09:52:49	10033	pm.simpleFrRight	pm.simpleFr	2	57	441	0	0	09:52:49	1971440	0	0	0	0	0	0	0	0	0	0	0	0	0	0	0	0	0	0	0	0	0	0		1	0	0	0	0	0	0	0
012513	09:52:49	10033	pm.simpleFrRight	blank.simpleFr	2	0	1600	1	0	09:52:49	1973053	0	0	0	0	0	0	0	0	0	0	0	0	0	0	0	0	0	0	0	0	0	0		1	0	0	0	0	0	0	0
012513	09:52:49	10033	pm.simpleFrRight	pm.simpleFr	2	57	491	0	0	09:52:49	1973572	0	0	0	0	0	0	0	0	0	0	0	0	0	0	0	0	0	0	0	0	0	0		1	0	0	0	0	0	0	0
012513	09:52:49	10033	pm.simpleFrRight	blank.simpleFr	2	0	1500	1	0	09:52:49	1975092	0	0	0	0	0	0	0	0	0	0	0	0	0	0	0	0	0	0	0	0	0	0		1	0	0	0	0	0	0	0
012513	09:52:49	10033	pm.simpleFrRight	pm.simpleFr	2	57	323	0	0	09:52:49	1975438	0	0	0	0	0	0	0	0	0	0	0	0	0	0	0	0	0	0	0	0	0	0		1	0	0	0	0	0	0	0
012513	09:52:49	10033	pm.simpleFrRight	blank.simpleFr	2	0	2400	1	0	09:52:49	1977851	0	0	0	0	0	0	0	0	0	0	0	0	0	0	0	0	0	0	0	0	0	0		1	0	0	0	0	0	0	0
012513	09:52:49	10033	pm.simpleFrRight	pm.simpleFr	2	57	460	0	0	09:52:49	1978331	0	0	0	0	0	0	0	0	0	0	0	0	0	0	0	0	0	0	0	0	0	0		1	0	0	0	0	0	0	0
012513	09:52:49	10033	pm.simpleFrRight	blank.simpleFr	2	0	2100	1	0	09:52:49	1980450	0	0	0	0	0	0	0	0	0	0	0	0	0	0	0	0	0	0	0	0	0	0		1	0	0	0	0	0	0	0
012513	09:52:49	10033	pm.simpleFrRight	pm.simpleFr	2	57	325	0	0	09:52:49	1980796	0	0	0	0	0	0	0	0	0	0	0	0	0	0	0	0	0	0	0	0	0	0		1	0	0	0	0	0	0	0
012513	09:52:49	10033	pm.simpleFrRight	blank.simpleFr	2	0	1800	1	0	09:52:49	1982609	0	0	0	0	0	0	0	0	0	0	0	0	0	0	0	0	0	0	0	0	0	0		1	0	0	0	0	0	0	0
012513	09:52:49	10033	pm.simpleFrRight	pm.simpleFr	2	57	358	0	0	09:52:49	1982995	0	0	0	0	0	0	0	0	0	0	0	0	0	0	0	0	0	0	0	0	0	0		1	0	0	0	0	0	0	0
012513	09:52:49	10033	pm.simpleFrRight	blank.simpleFr	2	0	2000	1	0	09:52:49	1985008	0	0	0	0	0	0	0	0	0	0	0	0	0	0	0	0	0	0	0	0	0	0		1	0	0	0	0	0	0	0
012513	09:52:49	10033	pm.simpleFrRight	pm.simpleFr	2	57	295	0	0	09:52:49	1985328	0	0	0	0	0	0	0	0	0	0	0	0	0	0	0	0	0	0	0	0	0	0		1	0	0	0	0	0	0	0
012513	09:52:49	10033	pm.simpleFrRight	blank.simpleFr	2	0	2200	1	0	09:52:49	1987540	0	0	0	0	0	0	0	0	0	0	0	0	0	0	0	0	0	0	0	0	0	0		1	0	0	0	0	0	0	0
012513	09:52:49	10033	pm.simpleFrRight	pm.simpleFr	2	57	339	0	0	09:52:49	1987900	0	0	0	0	0	0	0	0	0	0	0	0	0	0	0	0	0	0	0	0	0	0		1	0	0	0	0	0	0	0
012513	09:52:49	10033	pm.simpleFrRight	blank.simpleFr	2	0	1700	1	0	09:52:49	1989619	0	0	0	0	0	0	0	0	0	0	0	0	0	0	0	0	0	0	0	0	0	0		1	0	0	0	0	0	0	0
012513	09:52:49	10033	pm.simpleFrRight	pm.simpleFr	2	57	356	0	0	09:52:49	1989992	0	0	0	0	0	0	0	0	0	0	0	0	0	0	0	0	0	0	0	0	0	0		1	0	0	0	0	0	0	0
012513	09:52:49	10033	pm.simpleFrRight	blank.simpleFr	2	0	2500	1	0	09:52:49	1992511	0	0	0	0	0	0	0	0	0	0	0	0	0	0	0	0	0	0	0	0	0	0		1	0	0	0	0	0	0	0
012513	09:52:49	10033	pm.simpleFrRight	pm.simpleFr	2	57	311	0	0	09:52:49	1992844	0	0	0	0	0	0	0	0	0	0	0	0	0	0	0	0	0	0	0	0	0	0		1	0	0	0	0	0	0	0
012513	09:52:49	10033	pm.simpleFrRight	blank.simpleFr	2	0	2200	1	0	09:52:49	1995057	0	0	0	0	0	0	0	0	0	0	0	0	0	0	0	0	0	0	0	0	0	0		1	0	0	0	0	0	0	0
012513	09:52:49	10033	pm.simpleFrRight	pm.simpleFr	2	57	309	0	0	09:52:49	1995390	0	0	0	0	0	0	0	0	0	0	0	0	0	0	0	0	0	0	0	0	0	0		1	0	0	0	0	0	0	0
012513	09:52:49	10033	pm.simpleFrRight	blank.simpleFr	2	0	2300	1	0	09:52:49	1997709	0	0	0	0	0	0	0	0	0	0	0	0	0	0	0	0	0	0	0	0	0	0		1	0	0	0	0	0	0	0
012513	09:52:49	10033	pm.simpleFrRight	pm.simpleFr	2	57	329	0	0	09:52:49	1998056	0	0	0	0	0	0	0	0	0	0	0	0	0	0	0	0	0	0	0	0	0	0		1	0	0	0	0	0	0	0
012513	09:52:49	10033	pm.simpleFrRight	blank.simpleFr	2	0	1700	1	0	09:52:49	1999775	0	0	0	0	0	0	0	0	0	0	0	0	0	0	0	0	0	0	0	0	0	0		1	0	0	0	0	0	0	0
012513	09:52:49	10033	pm.simpleFrRight	pm.simpleFr	2	57	407	0	0	09:52:49	2000202	0	0	0	0	0	0	0	0	0	0	0	0	0	0	0	0	0	0	0	0	0	0		1	0	0	0	0	0	0	0
012513	09:52:49	10033	pm.simpleFrRight	blank.simpleFr	2	0	1500	1	0	09:52:49	2001721	0	0	0	0	0	0	0	0	0	0	0	0	0	0	0	0	0	0	0	0	0	0		1	0	0	0	0	0	0	0
012513	09:52:49	10033	pm.simpleFrRight	pm.simpleFr	2	57	349	0	0	09:52:49	2002094	0	0	0	0	0	0	0	0	0	0	0	0	0	0	0	0	0	0	0	0	0	0		1	0	0	0	0	0	0	0
012513	09:52:49	10033	pm.simpleFrRight	blank.simpleFr	2	0	2000	1	0	09:52:49	2004107	0	0	0	0	0	0	0	0	0	0	0	0	0	0	0	0	0	0	0	0	0	0		1	0	0	0	0	0	0	0
012513	09:52:49	10033	pm.simpleFrRight	pm.simpleFr	2	57	332	0	0	09:52:49	2004467	0	0	0	0	0	0	0	0	0	0	0	0	0	0	0	0	0	0	0	0	0	0		1	0	0	0	0	0	0	0
012513	09:52:49	10033	pm.simpleFrRight	blank.simpleFr	2	0	1800	1	0	09:52:49	2006293	0	0	0	0	0	0	0	0	0	0	0	0	0	0	0	0	0	0	0	0	0	0		1	0	0	0	0	0	0	0
012513	09:52:49	10033	pm.simpleFrRight	pm.simpleFr	2	57	338	0	0	09:52:49	2006652	0	0	0	0	0	0	0	0	0	0	0	0	0	0	0	0	0	0	0	0	0	0		1	0	0	0	0	0	0	0
012513	09:52:49	10033	pm.simpleFrRight	blank.simpleFr	2	0	2500	1	0	09:52:49	2009171	0	0	0	0	0	0	0	0	0	0	0	0	0	0	0	0	0	0	0	0	0	0		1	0	0	0	0	0	0	0
012513	09:52:49	10033	pm.simpleFrRight	pm.simpleFr	2	57	339	0	0	09:52:49	2009531	0	0	0	0	0	0	0	0	0	0	0	0	0	0	0	0	0	0	0	0	0	0		1	0	0	0	0	0	0	0
012513	09:52:49	10033	Trial2BackFr	N	3	0	1000	1	1	09:52:49	2104653	0	0	0	0	0	0	0	0	0	0	0	0	0	0	0	0	0	0	0	0	0	0		1	0	0	0	0	0	0	0
012513	09:52:49	10033	Trial2BackFr	N	3	0	1000	1	2	09:52:49	2106159	0	0	0	0	0	0	0	0	0	0	0	0	0	0	0	0	0	0	0	0	0	0		1	0	0	0	0	0	0	0
012513	09:52:49	10033	Trial2BackFr	N	3	0	1000	1	3	09:52:49	2107665	0	0	0	0	0	0	0	0	0	0	0	0	0	0	0	0	0	0	0	0	0	0		1	0	0	0	0	0	0	0
012513	09:52:49	10033	Trial2BackFr	N	3	0	1000	1	4	09:52:49	2109171	0	0	0	0	0	0	0	0	0	0	0	0	0	0	0	0	0	0	0	0	0	0		1	0	0	0	0	0	0	0
012513	09:52:49	10033	Trial2BackFr	N	3	0	1000	1	5	09:52:49	2110677	0	0	0	0	0	0	0	0	0	0	0	0	0	0	0	0	0	0	0	0	0	0		1	0	0	0	0	0	0	0
012513	09:52:49	10033	Trial2BackFr	N	3	0	1000	1	6	09:52:49	2112183	0	0	0	0	0	0	0	0	0	0	0	0	0	0	0	0	0	0	0	0	0	0		1	0	0	0	0	0	0	0
012513	09:52:49	10033	Trial2BackFr	N	3	0	1000	1	7	09:52:49	2113689	0	0	0	0	0	0	0	0	0	0	0	0	0	0	0	0	0	0	0	0	0	0		1	0	0	0	0	0	0	0
012513	09:52:49	10033	Trial2BackFr	N	3	0	1000	1	8	09:52:49	2115195	0	0	0	0	0	0	0	0	0	0	0	0	0	0	0	0	0	0	0	0	0	0		1	0	0	0	0	0	0	0
012513	09:52:49	10033	Trial2BackFr	Y	3	0	1000	0	8	09:52:49	2116701	0	0	0	0	0	0	0	0	0	0	0	0	0	0	0	0	0	0	0	0	0	0		1	0	0	0	0	0	0	0
012513	09:52:49	10033	Trial2BackFr	N	3	0	1000	1	9	09:52:49	2118221	0	0	0	0	0	0	0	0	0	0	0	0	0	0	0	0	0	0	0	0	0	0		1	0	0	0	0	0	0	0
012513	09:52:49	10033	Trial2BackFr	N	3	0	1000	1	10	09:52:49	2119727	0	0	0	0	0	0	0	0	0	0	0	0	0	0	0	0	0	0	0	0	0	0		1	0	0	0	0	0	0	0
012513	09:52:49	10033	Trial2BackFr	N	3	0	1000	1	11	09:52:49	2121233	0	0	0	0	0	0	0	0	0	0	0	0	0	0	0	0	0	0	0	0	0	0		1	0	0	0	0	0	0	0
012513	09:52:49	10033	Trial2BackFr	Y	3	57	728	1	12	09:52:49	2122472	0	0	0	0	0	0	0	0	0	0	0	0	0	0	0	0	0	0	0	0	0	0		1	0	0	0	0	0	0	0
012513	09:52:49	10033	Trial2BackFr	N	3	0	1000	1	13	09:52:49	2124245	0	0	0	0	0	0	0	0	0	0	0	0	0	0	0	0	0	0	0	0	0	0		1	0	0	0	0	0	0	0
012513	09:52:49	10033	Trial2BackFr	N	3	0	1000	1	14	09:52:49	2125751	0	0	0	0	0	0	0	0	0	0	0	0	0	0	0	0	0	0	0	0	0	0		1	0	0	0	0	0	0	0
012513	09:52:49	10033	Trial2BackFr	N	3	0	1000	1	15	09:52:49	2127257	0	0	0	0	0	0	0	0	0	0	0	0	0	0	0	0	0	0	0	0	0	0		1	0	0	0	0	0	0	0
012513	09:52:49	10033	Trial2BackFr	N	3	0	1000	1	16	09:52:49	2128763	0	0	0	0	0	0	0	0	0	0	0	0	0	0	0	0	0	0	0	0	0	0		1	0	0	0	0	0	0	0
012513	09:52:49	10033	Trial2BackFr	N	3	0	1000	1	17	09:52:49	2130269	0	0	0	0	0	0	0	0	0	0	0	0	0	0	0	0	0	0	0	0	0	0		1	0	0	0	0	0	0	0
012513	09:52:49	10033	Trial2BackFr	Y	3	57	539	1	18	09:52:49	2131322	0	0	0	0	0	0	0	0	0	0	0	0	0	0	0	0	0	0	0	0	0	0		1	0	0	0	0	0	0	0
012513	09:52:49	10033	Trial2BackFr	N	3	0	1000	1	19	09:52:49	2133281	0	0	0	0	0	0	0	0	0	0	0	0	0	0	0	0	0	0	0	0	0	0		1	0	0	0	0	0	0	0
012513	09:52:49	10033	Trial2BackFr	N	3	0	1000	1	20	09:52:49	2134800	0	0	0	0	0	0	0	0	0	0	0	0	0	0	0	0	0	0	0	0	0	0		1	0	0	0	0	0	0	0
012513	09:52:49	10033	Trial2BackFr	N	3	0	1000	1	21	09:52:49	2136307	0	0	0	0	0	0	0	0	0	0	0	0	0	0	0	0	0	0	0	0	0	0		1	0	0	0	0	0	0	0
012513	09:52:49	10033	Trial2BackFr	N	3	0	1000	1	22	09:52:49	2137813	0	0	0	0	0	0	0	0	0	0	0	0	0	0	0	0	0	0	0	0	0	0		1	0	0	0	0	0	0	0
012513	09:52:49	10033	Trial2BackFr	Y	3	57	579	1	23	09:52:49	2138905	0	0	0	0	0	0	0	0	0	0	0	0	0	0	0	0	0	0	0	0	0	0		1	0	0	0	0	0	0	0
012513	09:52:49	10033	Trial2BackFr	N	3	0	1000	1	24	09:52:49	2140825	0	0	0	0	0	0	0	0	0	0	0	0	0	0	0	0	0	0	0	0	0	0		1	0	0	0	0	0	0	0
012513	09:52:49	10033	Trial2BackFr	N	3	0	1000	1	25	09:52:49	2142331	0	0	0	0	0	0	0	0	0	0	0	0	0	0	0	0	0	0	0	0	0	0		1	0	0	0	0	0	0	0
012513	09:52:49	10033	Trial2BackFr	N	3	0	1000	1	26	09:52:49	2143837	0	0	0	0	0	0	0	0	0	0	0	0	0	0	0	0	0	0	0	0	0	0		1	0	0	0	0	0	0	0
012513	09:52:49	10033	Trial2BackFr	N	3	0	1000	1	27	09:52:49	2145356	0	0	0	0	0	0	0	0	0	0	0	0	0	0	0	0	0	0	0	0	0	0		1	0	0	0	0	0	0	0
012513	09:52:49	10033	Trial2BackFr	N	3	0	1000	1	28	09:52:49	2146862	0	0	0	0	0	0	0	0	0	0	0	0	0	0	0	0	0	0	0	0	0	0		1	0	0	0	0	0	0	0
012513	09:52:49	10033	Trial2BackFr	N	3	0	1000	1	29	09:52:49	2148368	0	0	0	0	0	0	0	0	0	0	0	0	0	0	0	0	0	0	0	0	0	0		1	0	0	0	0	0	0	0
012513	09:52:49	10033	Trial2BackFr	Y	3	57	759	1	30	09:52:49	2149648	0	0	0	0	0	0	0	0	0	0	0	0	0	0	0	0	0	0	0	0	0	0		1	0	0	0	0	0	0	0
012513	09:52:49	10033	Trial2BackFr	N	3	0	1000	1	31	09:52:49	2151381	0	0	0	0	0	0	0	0	0	0	0	0	0	0	0	0	0	0	0	0	0	0		1	0	0	0	0	0	0	0
012513	09:52:49	10033	Trial2BackFr	N	3	0	1000	1	32	09:52:49	2152886	0	0	0	0	0	0	0	0	0	0	0	0	0	0	0	0	0	0	0	0	0	0		1	0	0	0	0	0	0	0
012513	09:52:49	10033	Trial2BackFr	N	3	0	1000	1	33	09:52:49	2154393	0	0	0	0	0	0	0	0	0	0	0	0	0	0	0	0	0	0	0	0	0	0		1	0	0	0	0	0	0	0
012513	09:52:49	10033	Trial2BackFr	Y	3	57	767	1	34	09:52:49	2155672	0	0	0	0	0	0	0	0	0	0	0	0	0	0	0	0	0	0	0	0	0	0		1	0	0	0	0	0	0	0
012513	09:52:49	10033	Trial2BackFr	N	3	0	1000	1	35	09:52:49	2157405	0	0	0	0	0	0	0	0	0	0	0	0	0	0	0	0	0	0	0	0	0	0		1	0	0	0	0	0	0	0
012513	09:52:49	10033	Trial2BackFr	N	3	0	1000	1	36	09:52:49	2158911	0	0	0	0	0	0	0	0	0	0	0	0	0	0	0	0	0	0	0	0	0	0		1	0	0	0	0	0	0	0
012513	09:52:49	10033	Trial2BackFr	N	3	0	1000	1	37	09:52:49	2160417	0	0	0	0	0	0	0	0	0	0	0	0	0	0	0	0	0	0	0	0	0	0		1	0	0	0	0	0	0	0
012513	09:52:49	10033	Trial2BackFr	N	3	0	1000	1	38	09:52:49	2161936	0	0	0	0	0	0	0	0	0	0	0	0	0	0	0	0	0	0	0	0	0	0		1	0	0	0	0	0	0	0
012513	09:52:49	10033	Trial2BackFr	N	3	0	1000	1	39	09:52:49	2163442	0	0	0	0	0	0	0	0	0	0	0	0	0	0	0	0	0	0	0	0	0	0		1	0	0	0	0	0	0	0
012513	09:52:49	10033	Trial2BackFr	N	3	0	1000	1	40	09:52:49	2164948	0	0	0	0	0	0	0	0	0	0	0	0	0	0	0	0	0	0	0	0	0	0		1	0	0	0	0	0	0	0
012513	09:52:49	10033	Trial2BackFr	Y	3	0	1000	0	40	09:52:49	2166454	0	0	0	0	0	0	0	0	0	0	0	0	0	0	0	0	0	0	0	0	0	0		1	0	0	0	0	0	0	0
012513	09:52:49	10033	Trial2BackFr	N	3	0	1000	1	41	09:52:49	2167974	0	0	0	0	0	0	0	0	0	0	0	0	0	0	0	0	0	0	0	0	0	0		1	0	0	0	0	0	0	0
012513	09:52:49	10033	Trial2BackFr	N	3	0	1000	1	42	09:52:49	2169520	0	0	0	0	0	0	0	0	0	0	0	0	0	0	0	0	0	0	0	0	0	0		1	0	0	0	0	0	0	0
012513	09:52:49	10033	Trial2BackFr	N	3	0	1000	1	43	09:52:49	2171026	0	0	0	0	0	0	0	0	0	0	0	0	0	0	0	0	0	0	0	0	0	0		1	0	0	0	0	0	0	0
012513	09:52:49	10033	Trial2BackFr	N	3	0	1000	1	44	09:52:49	2172532	0	0	0	0	0	0	0	0	0	0	0	0	0	0	0	0	0	0	0	0	0	0		1	0	0	0	0	0	0	0
012513	09:52:49	10033	Trial2BackFr	Y	3	57	899	1	45	09:52:49	2173944	0	0	0	0	0	0	0	0	0	0	0	0	0	0	0	0	0	0	0	0	0	0		1	0	0	0	0	0	0	0
012513	09:52:49	10033	Trial2BackFr	N	3	0	1000	1	46	09:52:49	2175544	0	0	0	0	0	0	0	0	0	0	0	0	0	0	0	0	0	0	0	0	0	0		1	0	0	0	0	0	0	0
012513	09:52:49	10033	Trial2BackFr	N	3	0	1000	1	47	09:52:49	2177050	0	0	0	0	0	0	0	0	0	0	0	0	0	0	0	0	0	0	0	0	0	0		1	0	0	0	0	0	0	0
012513	09:52:49	10033	Trial2BackFr	N	3	0	1000	1	48	09:52:49	2178556	0	0	0	0	0	0	0	0	0	0	0	0	0	0	0	0	0	0	0	0	0	0		1	0	0	0	0	0	0	0
012513	09:52:49	10033	Trial2BackFr	N	3	0	1000	1	49	09:52:49	2180062	0	0	0	0	0	0	0	0	0	0	0	0	0	0	0	0	0	0	0	0	0	0		1	0	0	0	0	0	0	0
012513	09:52:49	10033	Trial2BackFr	N	3	0	1000	1	50	09:52:49	2181568	0	0	0	0	0	0	0	0	0	0	0	0	0	0	0	0	0	0	0	0	0	0		1	0	0	0	0	0	0	0
012513	09:52:49	10033	Trial2BackFr	Y	3	57	614	1	51	09:52:49	2182701	0	0	0	0	0	0	0	0	0	0	0	0	0	0	0	0	0	0	0	0	0	0		1	0	0	0	0	0	0	0
012513	09:52:49	10033	Trial2BackFr	N	3	0	1000	1	52	09:52:49	2184580	0	0	0	0	0	0	0	0	0	0	0	0	0	0	0	0	0	0	0	0	0	0		1	0	0	0	0	0	0	0
012513	09:52:49	10033	Trial2BackFr	N	3	0	1000	1	53	09:52:49	2186100	0	0	0	0	0	0	0	0	0	0	0	0	0	0	0	0	0	0	0	0	0	0		1	0	0	0	0	0	0	0
012513	09:52:49	10033	Trial2BackFr	N	3	0	1000	1	54	09:52:49	2187606	0	0	0	0	0	0	0	0	0	0	0	0	0	0	0	0	0	0	0	0	0	0		1	0	0	0	0	0	0	0
012513	09:52:49	10033	Trial2BackFr	N	3	0	1000	1	55	09:52:49	2189112	0	0	0	0	0	0	0	0	0	0	0	0	0	0	0	0	0	0	0	0	0	0		1	0	0	0	0	0	0	0
012513	09:52:49	10033	Trial2BackFr	N	3	0	1000	1	56	09:52:49	2190618	0	0	0	0	0	0	0	0	0	0	0	0	0	0	0	0	0	0	0	0	0	0		1	0	0	0	0	0	0	0
012513	09:52:49	10033	Trial2BackFr	N	3	0	1000	1	57	09:52:49	2192124	0	0	0	0	0	0	0	0	0	0	0	0	0	0	0	0	0	0	0	0	0	0		1	0	0	0	0	0	0	0
012513	09:52:49	10033	Trial2BackFr	Y	3	57	747	1	58	09:52:49	2193390	0	0	0	0	0	0	0	0	0	0	0	0	0	0	0	0	0	0	0	0	0	0		1	0	0	0	0	0	0	0
012513	09:52:49	10033	Trial2BackFr	N	3	0	1000	1	59	09:52:49	2195136	0	0	0	0	0	0	0	0	0	0	0	0	0	0	0	0	0	0	0	0	0	0		1	0	0	0	0	0	0	0
012513	09:52:49	10033	Trial2BackFr	N	3	0	1000	1	60	09:52:49	2196642	0	0	0	0	0	0	0	0	0	0	0	0	0	0	0	0	0	0	0	0	0	0		1	0	0	0	0	0	0	0
012513	09:52:49	10033	Trial2BackFr	Y	3	0	1000	0	60	09:52:49	2198148	0	0	0	0	0	0	0	0	0	0	0	0	0	0	0	0	0	0	0	0	0	0		1	0	0	0	0	0	0	0
012513	09:52:49	10033	Trial2BackFr	N	3	0	1000	1	61	09:52:49	2199654	0	0	0	0	0	0	0	0	0	0	0	0	0	0	0	0	0	0	0	0	0	0		1	0	0	0	0	0	0	0
012513	09:52:49	10033	Trial2BackFr	N	3	0	1000	1	62	09:52:49	2201160	0	0	0	0	0	0	0	0	0	0	0	0	0	0	0	0	0	0	0	0	0	0		1	0	0	0	0	0	0	0
012513	09:52:49	10033	Trial2BackFr	N	3	0	1000	1	63	09:52:49	2202666	0	0	0	0	0	0	0	0	0	0	0	0	0	0	0	0	0	0	0	0	0	0		1	0	0	0	0	0	0	0
012513	09:52:49	10033	Trial2BackFr	N	3	0	1000	1	64	09:52:49	2204172	0	0	0	0	0	0	0	0	0	0	0	0	0	0	0	0	0	0	0	0	0	0		1	0	0	0	0	0	0	0
012513	09:52:49	10033	Trial2BackFr	N	3	0	1000	1	65	09:52:49	2205692	0	0	0	0	0	0	0	0	0	0	0	0	0	0	0	0	0	0	0	0	0	0		1	0	0	0	0	0	0	0
012513	09:52:49	10033	Trial2BackFr	N	3	57	650	0	65	09:52:49	2206851	0	0	0	0	0	0	0	0	0	0	0	0	0	0	0	0	0	0	0	0	0	0		1	0	0	0	0	0	0	0
012513	09:52:49	10033	Trial2BackFr	N	3	0	1000	1	66	09:52:49	2208704	0	0	0	0	0	0	0	0	0	0	0	0	0	0	0	0	0	0	0	0	0	0		1	0	0	0	0	0	0	0
012513	09:52:49	10033	Trial2BackFr	N	3	0	1000	1	67	09:52:49	2210210	0	0	0	0	0	0	0	0	0	0	0	0	0	0	0	0	0	0	0	0	0	0		1	0	0	0	0	0	0	0
012513	09:52:49	10033	Trial2BackFr	N	3	0	1000	1	68	09:52:49	2211729	0	0	0	0	0	0	0	0	0	0	0	0	0	0	0	0	0	0	0	0	0	0		1	0	0	0	0	0	0	0
012513	09:52:49	10033	Trial2BackFr	N	3	0	1000	1	69	09:52:49	2213235	0	0	0	0	0	0	0	0	0	0	0	0	0	0	0	0	0	0	0	0	0	0		1	0	0	0	0	0	0	0
012513	09:52:49	10033	Trial2BackFr	Y	3	0	1000	0	69	09:52:49	2214741	0	0	0	0	0	0	0	0	0	0	0	0	0	0	0	0	0	0	0	0	0	0		1	0	0	0	0	0	0	0
012513	09:52:49	10033	Trial2BackFr	N	3	0	1000	1	70	09:52:49	2216248	0	0	0	0	0	0	0	0	0	0	0	0	0	0	0	0	0	0	0	0	0	0		1	0	0	0	0	0	0	0
012513	09:52:49	10033	Trial2BackFr	N	3	0	1000	1	71	09:52:49	2217754	0	0	0	0	0	0	0	0	0	0	0	0	0	0	0	0	0	0	0	0	0	0		1	0	0	0	0	0	0	0
012513	09:52:49	10033	Trial2BackFr	N	3	0	1000	1	72	09:52:49	2219260	0	0	0	0	0	0	0	0	0	0	0	0	0	0	0	0	0	0	0	0	0	0		1	0	0	0	0	0	0	0
012513	09:52:49	10033	Trial2BackFr	Y	3	0	1000	0	72	09:52:49	2220766	0	0	0	0	0	0	0	0	0	0	0	0	0	0	0	0	0	0	0	0	0	0		1	0	0	0	0	0	0	0
012513	09:52:49	10033	Trial2BackFr	N	3	0	1000	1	73	09:52:49	2222272	0	0	0	0	0	0	0	0	0	0	0	0	0	0	0	0	0	0	0	0	0	0		1	0	0	0	0	0	0	0
012513	09:52:49	10033	Trial2BackFr	N	3	0	1000	1	74	09:52:49	2223791	0	0	0	0	0	0	0	0	0	0	0	0	0	0	0	0	0	0	0	0	0	0		1	0	0	0	0	0	0	0
012513	09:52:49	10033	Trial2BackFr	N	3	0	1000	1	75	09:52:49	2225297	0	0	0	0	0	0	0	0	0	0	0	0	0	0	0	0	0	0	0	0	0	0		1	0	0	0	0	0	0	0
012513	09:52:49	10033	Trial2BackFr	N	3	0	1000	1	76	09:52:49	2226803	0	0	0	0	0	0	0	0	0	0	0	0	0	0	0	0	0	0	0	0	0	0		1	0	0	0	0	0	0	0
012513	09:52:49	10033	Trial2BackFr	N	3	0	1000	1	77	09:52:49	2228323	0	0	0	0	0	0	0	0	0	0	0	0	0	0	0	0	0	0	0	0	0	0		1	0	0	0	0	0	0	0
012513	09:52:49	10033	Trial2BackFr	Y	3	0	1000	0	77	09:52:49	2229842	0	0	0	0	0	0	0	0	0	0	0	0	0	0	0	0	0	0	0	0	0	0		1	0	0	0	0	0	0	0
012513	09:52:49	10033	Trial2BackFr	N	3	0	1000	1	78	09:52:49	2231361	0	0	0	0	0	0	0	0	0	0	0	0	0	0	0	0	0	0	0	0	0	0		1	0	0	0	0	0	0	0
012513	09:52:49	10033	Trial2BackFr	N	3	0	1000	1	79	09:52:49	2232867	0	0	0	0	0	0	0	0	0	0	0	0	0	0	0	0	0	0	0	0	0	0		1	0	0	0	0	0	0	0
012513	09:52:49	10033	Trial2BackFr	N	3	0	1000	1	80	09:52:49	2234373	0	0	0	0	0	0	0	0	0	0	0	0	0	0	0	0	0	0	0	0	0	0		1	0	0	0	0	0	0	0
012513	09:52:49	10033	Trial2BackFr	N	3	0	1000	1	81	09:52:49	2235893	0	0	0	0	0	0	0	0	0	0	0	0	0	0	0	0	0	0	0	0	0	0		1	0	0	0	0	0	0	0
012513	09:52:49	10033	Trial2BackFr	N	3	0	1000	1	82	09:52:49	2237399	0	0	0	0	0	0	0	0	0	0	0	0	0	0	0	0	0	0	0	0	0	0		1	0	0	0	0	0	0	0
012513	09:52:49	10033	Trial2BackFr	N	3	0	1000	1	83	09:52:49	2238905	0	0	0	0	0	0	0	0	0	0	0	0	0	0	0	0	0	0	0	0	0	0		1	0	0	0	0	0	0	0
012513	09:52:49	10033	Trial2BackFr	N	3	0	1000	1	84	09:52:49	2240411	0	0	0	0	0	0	0	0	0	0	0	0	0	0	0	0	0	0	0	0	0	0		1	0	0	0	0	0	0	0
012513	09:52:49	10033	Trial2BackFr	N	3	0	1000	1	85	09:52:49	2241917	0	0	0	0	0	0	0	0	0	0	0	0	0	0	0	0	0	0	0	0	0	0		1	0	0	0	0	0	0	0
012513	09:52:49	10033	Trial2BackFr	N	3	0	1000	1	86	09:52:49	2243423	0	0	0	0	0	0	0	0	0	0	0	0	0	0	0	0	0	0	0	0	0	0		1	0	0	0	0	0	0	0
012513	09:52:49	10033	Trial2BackFr	Y	3	0	1000	0	86	09:52:49	2244929	0	0	0	0	0	0	0	0	0	0	0	0	0	0	0	0	0	0	0	0	0	0		1	0	0	0	0	0	0	0
012513	09:52:49	10033	Trial2BackFr	N	3	0	1000	1	87	09:52:49	2246435	0	0	0	0	0	0	0	0	0	0	0	0	0	0	0	0	0	0	0	0	0	0		1	0	0	0	0	0	0	0
012513	09:52:49	10033	Trial2BackFr	N	3	0	1000	1	88	09:52:49	2247954	0	0	0	0	0	0	0	0	0	0	0	0	0	0	0	0	0	0	0	0	0	0		1	0	0	0	0	0	0	0
012513	09:52:49	10033	Trial2BackFr	N	3	0	1000	1	89	09:52:49	2249461	0	0	0	0	0	0	0	0	0	0	0	0	0	0	0	0	0	0	0	0	0	0		1	0	0	0	0	0	0	0
012513	09:52:49	10033	Trial2BackFr	N	3	0	1000	1	90	09:52:49	2250967	0	0	0	0	0	0	0	0	0	0	0	0	0	0	0	0	0	0	0	0	0	0		1	0	0	0	0	0	0	0
012513	09:52:49	10033	Trial2BackFr	N	3	0	1000	1	91	09:52:49	2252473	0	0	0	0	0	0	0	0	0	0	0	0	0	0	0	0	0	0	0	0	0	0		1	0	0	0	0	0	0	0
012513	09:52:49	10033	Trial2BackFr	N	3	0	1000	1	92	09:52:49	2253979	0	0	0	0	0	0	0	0	0	0	0	0	0	0	0	0	0	0	0	0	0	0		1	0	0	0	0	0	0	0
012513	09:52:49	10033	Trial2BackFr	N	3	0	1000	1	93	09:52:49	2255485	0	0	0	0	0	0	0	0	0	0	0	0	0	0	0	0	0	0	0	0	0	0		1	0	0	0	0	0	0	0
012513	09:52:49	10033	Trial2BackFr	N	3	0	1000	1	94	09:52:49	2257004	0	0	0	0	0	0	0	0	0	0	0	0	0	0	0	0	0	0	0	0	0	0		1	0	0	0	0	0	0	0
012513	09:52:49	10033	Trial2BackFr	Y	3	57	888	1	95	09:52:49	2258404	0	0	0	0	0	0	0	0	0	0	0	0	0	0	0	0	0	0	0	0	0	0		1	0	0	0	0	0	0	0
012513	09:52:49	10033	Trial2BackFr	N	3	0	1000	1	96	09:52:49	2260016	0	0	0	0	0	0	0	0	0	0	0	0	0	0	0	0	0	0	0	0	0	0		1	0	0	0	0	0	0	0
012513	09:52:49	10033	Trial2BackFr	N	3	0	1000	1	97	09:52:49	2261522	0	0	0	0	0	0	0	0	0	0	0	0	0	0	0	0	0	0	0	0	0	0		1	0	0	0	0	0	0	0
012513	09:52:49	10033	Trial2BackFr	N	3	0	1000	1	98	09:52:49	2263029	0	0	0	0	0	0	0	0	0	0	0	0	0	0	0	0	0	0	0	0	0	0		1	0	0	0	0	0	0	0
012513	09:52:49	10033	Trial2BackFr	N	3	0	1000	1	99	09:52:49	2264535	0	0	0	0	0	0	0	0	0	0	0	0	0	0	0	0	0	0	0	0	0	0		1	0	0	0	0	0	0	0
012513	09:52:49	10033	Trial2BackFr	Y	3	57	622	1	100	09:52:49	2265667	0	0	0	0	0	0	0	0	0	0	0	0	0	0	0	0	0	0	0	0	0	0		1	0	0	0	0	0	0	0
012513	09:52:49	10033	Trial2BackFr	N	3	0	1000	1	101	09:52:49	2267547	0	0	0	0	0	0	0	0	0	0	0	0	0	0	0	0	0	0	0	0	0	0		1	0	0	0	0	0	0	0
012513	09:52:49	10033	Trial2BackFr	N	3	0	1000	1	102	09:52:49	2269053	0	0	0	0	0	0	0	0	0	0	0	0	0	0	0	0	0	0	0	0	0	0		1	0	0	0	0	0	0	0
012513	09:52:49	10033	Trial2BackFr	N	3	0	1000	1	103	09:52:49	2270559	0	0	0	0	0	0	0	0	0	0	0	0	0	0	0	0	0	0	0	0	0	0		1	0	0	0	0	0	0	0
012513	09:52:49	10033	Trial2BackFr	Y	3	57	774	1	104	09:52:49	2271852	0	0	0	0	0	0	0	0	0	0	0	0	0	0	0	0	0	0	0	0	0	0		1	0	0	0	0	0	0	0
012513	09:52:49	10033	Trial2BackFr	N	3	0	1000	1	105	09:52:49	2273571	0	0	0	0	0	0	0	0	0	0	0	0	0	0	0	0	0	0	0	0	0	0		1	0	0	0	0	0	0	0
012513	09:52:49	10033	Trial2BackFr	N	3	0	1000	1	106	09:52:49	2275077	0	0	0	0	0	0	0	0	0	0	0	0	0	0	0	0	0	0	0	0	0	0		1	0	0	0	0	0	0	0
012513	09:52:49	10033	Trial2BackFr	N	3	0	1000	1	107	09:52:49	2276583	0	0	0	0	0	0	0	0	0	0	0	0	0	0	0	0	0	0	0	0	0	0		1	0	0	0	0	0	0	0
012513	09:52:49	10033	Trial2BackFr	N	3	0	1000	1	108	09:52:49	2278089	0	0	0	0	0	0	0	0	0	0	0	0	0	0	0	0	0	0	0	0	0	0		1	0	0	0	0	0	0	0
012513	09:52:49	10033	Trial2BackFr	N	3	0	1000	1	109	09:52:49	2279595	0	0	0	0	0	0	0	0	0	0	0	0	0	0	0	0	0	0	0	0	0	0		1	0	0	0	0	0	0	0
012513	09:52:49	10033	Trial2BackFr	Y	3	57	969	1	110	09:52:49	2281074	0	0	0	0	0	0	0	0	0	0	0	0	0	0	0	0	0	0	0	0	0	0		1	0	0	0	0	0	0	0
012513	09:52:49	10033	Trial2BackFr	N	3	0	1000	1	111	09:52:49	2282607	0	0	0	0	0	0	0	0	0	0	0	0	0	0	0	0	0	0	0	0	0	0		1	0	0	0	0	0	0	0
012513	09:52:49	10033	Trial2BackFr	N	3	0	1000	1	112	09:52:49	2284113	0	0	0	0	0	0	0	0	0	0	0	0	0	0	0	0	0	0	0	0	0	0		1	0	0	0	0	0	0	0
012513	09:52:49	10033	Trial2BackFr	N	3	0	1000	1	113	09:52:49	2285619	0	0	0	0	0	0	0	0	0	0	0	0	0	0	0	0	0	0	0	0	0	0		1	0	0	0	0	0	0	0
012513	09:52:49	10033	Trial2BackFr	Y	3	0	1000	0	113	09:52:49	2287139	0	0	0	0	0	0	0	0	0	0	0	0	0	0	0	0	0	0	0	0	0	0		1	0	0	0	0	0	0	0
012513	09:52:49	10033	Memory1R6moFr	ScoreFr	5	M1	14784	0	113	09:52:49	3285161	0	0	0	0	0	0	0	0	0	0	0	0	0	0	0	0	0	0	0	0	0	0		1	0	0	0	0	0	0	0
012513	09:52:49	10033	Memory1R6moFr	ScoreFr	5	M2	326	0	113	09:52:49	3285534	0	0	0	0	0	0	0	0	0	0	0	0	0	0	0	0	0	0	0	0	0	0		1	0	0	0	0	0	0	0
012513	09:52:49	10033	Memory1R6moFr	ScoreFr	5	M4	1664	0	113	09:52:49	3287253	0	0	0	0	0	0	0	0	0	0	0	0	0	0	0	0	0	0	0	0	0	0		1	0	0	0	0	0	0	0
012513	09:52:49	10033	Memory1R6moFr	ScoreFr	5	Done	1097	0	113	09:52:49	3288399	0	0	0	0	0	0	0	0	0	0	0	0	0	0	0	0	0	0	0	0	0	0		1	0	0	0	0	0	0	0
012513	09:52:49	10033	Memory2R6moFr	ScoreFr2	5	55	15688	0	113	09:52:49	3321187	0	0	0	0	0	0	0	0	0	0	0	0	0	0	0	0	0	0	0	0	0	0		1	0	0	0	0	0	0	0
012513	09:52:49	10033	Memory2R6moFr	ScoreFr2	5	44	219	0	113	09:52:49	3321453	0	0	0	0	0	0	0	0	0	0	0	0	0	0	0	0	0	0	0	0	0	0		1	0	0	0	0	0	0	0
012513	09:52:49	10033	Memory2R6moFr	ScoreFr2	5	33	321	0	113	09:52:49	3321826	0	0	0	0	0	0	0	0	0	0	0	0	0	0	0	0	0	0	0	0	0	0		1	0	0	0	0	0	0	0
012513	09:52:49	10033	Memory2R6moFr	ScoreFr2	5	22	291	0	113	09:52:49	3322173	0	0	0	0	0	0	0	0	0	0	0	0	0	0	0	0	0	0	0	0	0	0		1	0	0	0	0	0	0	0
012513	09:52:49	10033	Memory2R6moFr	ScoreFr2	5	11	217	0	113	09:52:49	3322439	0	0	0	0	0	0	0	0	0	0	0	0	0	0	0	0	0	0	0	0	0	0		1	0	0	0	0	0	0	0
012513	09:52:49	10033	Memory2R6moFr	ScoreFr2	5	Done	863	0	113	09:52:49	3323345	0	0	0	0	0	0	0	0	0	0	0	0	0	0	0	0	0	0	0	0	0	0		1	0	0	0	0	0	0	0
012513	09:52:49	10033	Memory3R6moFr	ScoreFr3	5	888	16568	0	113	09:52:49	3357665	0	0	0	0	0	0	0	0	0	0	0	0	0	0	0	0	0	0	0	0	0	0		1	0	0	0	0	0	0	0
012513	09:52:49	10033	Memory3R6moFr	ScoreFr3	5	666	380	0	113	09:52:49	3358091	0	0	0	0	0	0	0	0	0	0	0	0	0	0	0	0	0	0	0	0	0	0		1	0	0	0	0	0	0	0
012513	09:52:49	10033	Memory3R6moFr	ScoreFr3	5	666	561	0	113	09:52:49	3358704	0	0	0	0	0	0	0	0	0	0	0	0	0	0	0	0	0	0	0	0	0	0		1	0	0	0	0	0	0	0
012513	09:52:49	10033	Memory3R6moFr	ScoreFr3	5	555	252	0	113	09:52:49	3359011	0	0	0	0	0	0	0	0	0	0	0	0	0	0	0	0	0	0	0	0	0	0		1	0	0	0	0	0	0	0
012513	09:52:49	10033	Memory3R6moFr	ScoreFr3	5	444	322	0	113	09:52:49	3359384	0	0	0	0	0	0	0	0	0	0	0	0	0	0	0	0	0	0	0	0	0	0		1	0	0	0	0	0	0	0
012513	09:52:49	10033	Memory3R6moFr	ScoreFr3	5	333	324	0	113	09:52:49	3359757	0	0	0	0	0	0	0	0	0	0	0	0	0	0	0	0	0	0	0	0	0	0		1	0	0	0	0	0	0	0
012513	09:52:49	10033	Memory3R6moFr	ScoreFr3	5	222	303	0	113	09:52:49	3360117	0	0	0	0	0	0	0	0	0	0	0	0	0	0	0	0	0	0	0	0	0	0		1	0	0	0	0	0	0	0
012513	09:52:49	10033	Memory3R6moFr	ScoreFr3	5	111	231	0	113	09:52:49	3360397	0	0	0	0	0	0	0	0	0	0	0	0	0	0	0	0	0	0	0	0	0	0		1	0	0	0	0	0	0	0
012513	09:52:49	10033	Memory3R6moFr	ScoreFr3	5	Done	13935	0	113	09:52:49	3374378	0	0	0	0	0	0	0	0	0	0	0	0	0	0	0	0	0	0	0	0	0	0		1	0	0	0	0	0	0	0
012513	09:52:49	10033	LoriaFrLH3	Stop	6	6	3640	0	113	09:52:49	3438273	0	0	0	0	0	0	0	0	0	0	0	0	0	0	0	0	0	0	0	0	0	0		1	0	0	0	0	0	0	0
012513	09:52:49	10033	FrTrail	Trails	7	1Trails	833	0	113	09:52:49	3468553	0	0	0	0	0	0	0	0	0	0	0	0	0	0	0	0	0	0	0	0	0	0		1	0	0	0	0	0	0	0
012513	09:52:49	10033	Serial7Fr6mo	Serial7Fr6mo	8	73	17060	0	113	09:52:49	3507768	1	0	0	0	0	0	0	0	0	0	0	0	0	0	0	0	0	0	0	0	0	0		1	0	0	0	0	0	0	0
012513	09:52:49	10033	Serial7Fr6mo	Serial7Fr6mo	8	66	2061	0	113	09:52:49	3509846	2	0	0	0	0	0	0	0	0	0	0	0	0	0	0	0	0	0	0	0	0	0		1	0	0	0	0	0	0	0
012513	09:52:49	10033	Serial7Fr6mo	Serial7Fr6mo	8	59	10960	0	113	09:52:49	3520829	3	0	0	0	0	0	0	0	0	0	0	0	0	0	0	0	0	0	0	0	0	0		1	0	0	0	0	0	0	0
012513	09:52:49	10033	Serial7Fr6mo	Serial7Fr6mo	8	52	2592	0	113	09:52:49	3523442	4	0	0	0	0	0	0	0	0	0	0	0	0	0	0	0	0	0	0	0	0	0		1	0	0	0	0	0	0	0
012513	09:52:49	10033	Serial7Fr6mo	Serial7Fr6mo	8	45	2908	0	113	09:52:49	3526374	5	0	0	0	0	0	0	0	0	0	0	0	0	0	0	0	0	0	0	0	0	0		1	0	0	0	0	0	0	0
012513	09:52:49	10033	corsiblockFrFwrd	recallseqFrFwrd	9	8	14704	0	113	09:52:49	3595333	5	0	0	0	0	0	0	0	0	0	0	0	0	0	0	0	0	0	0	0	0	0		1	0	0	0	0	0	0	0
012513	09:52:49	10033	corsiblockFrFwrd	recallseqFrFwrd	9	9	990	0	113	09:52:49	3596372	5	0	0	0	0	0	0	0	0	0	0	0	0	0	0	0	0	0	0	0	0	0		1	0	0	0	0	0	0	0
012513	09:52:49	10033	corsiblockFrFwrd	recallseqFrFwrd	9	doneCorsiFr	4278	0	113	09:52:49	3600704	5	0	0	0	0	0	0	0	0	0	0	0	0	0	0	2	0	0	0	0	0	0		1	0	0	0	0	0	0	0
012513	09:52:49	10033	corsiblockFrFwrd	recallseqFrFwrd	9	6	1603	0	113	09:52:49	3608421	5	0	0	0	0	0	0	0	0	0	0	0	0	0	0	2	0	0	0	0	0	0		1	0	0	0	0	0	0	0
012513	09:52:49	10033	corsiblockFrFwrd	recallseqFrFwrd	9	4	622	0	113	09:52:49	3609087	5	0	0	0	0	0	0	0	0	0	0	0	0	0	0	2	0	0	0	0	0	0		1	0	0	0	0	0	0	0
012513	09:52:49	10033	corsiblockFrFwrd	recallseqFrFwrd	9	2	835	0	113	09:52:49	3609967	5	0	0	0	0	0	0	0	0	0	0	0	0	0	0	2	0	0	0	0	0	0		1	0	0	0	0	0	0	0
012513	09:52:49	10033	corsiblockFrFwrd	recallseqFrFwrd	9	doneCorsiFr	924	0	113	09:52:49	3610940	5	0	0	0	0	0	0	0	0	0	0	0	0	0	0	3	0	0	0	0	0	0		1	0	0	0	0	0	0	0
012513	09:52:49	10033	corsiblockFrFwrd	recallseqFrFwrd	9	7	889	0	113	09:52:49	3618963	5	0	0	0	0	0	0	0	0	0	0	0	0	0	0	3	0	0	0	0	0	0		1	0	0	0	0	0	0	0
012513	09:52:49	10033	corsiblockFrFwrd	recallseqFrFwrd	9	3	1127	0	113	09:52:49	3620136	5	0	0	0	0	0	0	0	0	0	0	0	0	0	0	3	0	0	0	0	0	0		1	0	0	0	0	0	0	0
012513	09:52:49	10033	corsiblockFrFwrd	recallseqFrFwrd	9	5	722	0	113	09:52:49	3620909	5	0	0	0	0	0	0	0	0	0	0	0	0	0	0	3	0	0	0	0	0	0		1	0	0	0	0	0	0	0
012513	09:52:49	10033	corsiblockFrFwrd	recallseqFrFwrd	9	1	1005	0	113	09:52:49	3621962	5	0	0	0	0	0	0	0	0	0	0	0	0	0	0	3	0	0	0	0	0	0		1	0	0	0	0	0	0	0
012513	09:52:49	10033	corsiblockFrFwrd	recallseqFrFwrd	9	doneCorsiFr	1016	0	113	09:52:49	3623028	5	0	0	0	0	0	0	0	0	0	0	0	0	0	0	4	0	0	0	0	0	0		1	0	0	0	0	0	0	0
012513	09:52:49	10033	corsiblockFrFwrd	recallseqFrFwrd	9	8	673	0	113	09:52:49	3631825	5	0	0	0	0	0	0	0	0	0	0	0	0	0	0	4	0	0	0	0	0	0		1	0	0	0	0	0	0	0
012513	09:52:49	10033	corsiblockFrFwrd	recallseqFrFwrd	9	7	625	0	113	09:52:49	3632504	5	0	0	0	0	0	0	0	0	0	0	0	0	0	0	4	0	0	0	0	0	0		1	0	0	0	0	0	0	0
012513	09:52:49	10033	corsiblockFrFwrd	recallseqFrFwrd	9	1	929	0	113	09:52:49	3633491	5	0	0	0	0	0	0	0	0	0	0	0	0	0	0	4	0	0	0	0	0	0		1	0	0	0	0	0	0	0
012513	09:52:49	10033	corsiblockFrFwrd	recallseqFrFwrd	9	3	783	0	113	09:52:49	3634330	5	0	0	0	0	0	0	0	0	0	0	0	0	0	0	4	0	0	0	0	0	0		1	0	0	0	0	0	0	0
012513	09:52:49	10033	corsiblockFrFwrd	recallseqFrFwrd	9	6	952	0	113	09:52:49	3635330	5	0	0	0	0	0	0	0	0	0	0	0	0	0	0	4	0	0	0	0	0	0		1	0	0	0	0	0	0	0
012513	09:52:49	10033	corsiblockFrFwrd	recallseqFrFwrd	9	doneCorsiFr	1200	0	113	09:52:49	3636583	5	0	0	0	0	0	0	0	0	0	0	0	0	0	0	4	0	0	0	0	0	0		1	0	0	0	0	0	0	0
012513	09:52:49	10033	corsiblockFrFwrd	recallseqFrFwrd	9	9	1550	0	113	09:52:49	3646219	5	0	0	0	0	0	0	0	0	0	0	0	0	0	0	4	0	0	0	0	0	0		1	0	0	0	0	0	0	0
012513	09:52:49	10033	corsiblockFrFwrd	recallseqFrFwrd	9	2	735	0	113	09:52:49	3647005	5	0	0	0	0	0	0	0	0	0	0	0	0	0	0	4	0	0	0	0	0	0		1	0	0	0	0	0	0	0
012513	09:52:49	10033	corsiblockFrFwrd	recallseqFrFwrd	9	4	629	0	113	09:52:49	3647685	5	0	0	0	0	0	0	0	0	0	0	0	0	0	0	4	0	0	0	0	0	0		1	0	0	0	0	0	0	0
012513	09:52:49	10033	corsiblockFrFwrd	recallseqFrFwrd	9	5	637	0	113	09:52:49	3648378	5	0	0	0	0	0	0	0	0	0	0	0	0	0	0	4	0	0	0	0	0	0		1	0	0	0	0	0	0	0
012513	09:52:49	10033	corsiblockFrFwrd	recallseqFrFwrd	9	9	672	0	113	09:52:49	3649098	5	0	0	0	0	0	0	0	0	0	0	0	0	0	0	4	0	0	0	0	0	0		1	0	0	0	0	0	0	0
012513	09:52:49	10033	corsiblockFrFwrd	recallseqFrFwrd	9	doneCorsiFr	1265	0	113	09:52:49	3650417	5	0	0	0	0	0	0	0	0	0	0	0	0	0	0	4	0	0	0	0	0	0		1	0	0	0	0	0	0	0
012513	09:52:49	10033	corsiblockFrRev	recallseqFrRev	10	1	1576	0	113	09:52:49	3664212	5	0	0	0	0	0	0	0	0	0	0	0	0	0	0	4	0	0	0	0	0	0		1	0	0	0	0	0	0	0
012513	09:52:49	10033	corsiblockFrRev	recallseqFrRev	10	4	630	0	113	09:52:49	3664891	5	0	0	0	0	0	0	0	0	0	0	0	0	0	0	4	0	0	0	0	0	0		1	0	0	0	0	0	0	0
012513	09:52:49	10033	corsiblockFrRev	recallseqFrRev	10	doneCorsiFr	1342	0	113	09:52:49	3666277	5	0	0	0	0	0	0	0	0	0	0	0	0	0	0	4	2	0	0	0	0	0		1	0	0	0	0	0	0	0
012513	09:52:49	10033	corsiblockFrRev	recallseqFrRev	10	8	910	0	113	09:52:49	3673314	5	0	0	0	0	0	0	0	0	0	0	0	0	0	0	4	2	0	0	0	0	0		1	0	0	0	0	0	0	0
012513	09:52:49	10033	corsiblockFrRev	recallseqFrRev	10	7	654	0	113	09:52:49	3674021	5	0	0	0	0	0	0	0	0	0	0	0	0	0	0	4	2	0	0	0	0	0		1	0	0	0	0	0	0	0
012513	09:52:49	10033	corsiblockFrRev	recallseqFrRev	10	6	900	0	113	09:52:49	3674967	5	0	0	0	0	0	0	0	0	0	0	0	0	0	0	4	2	0	0	0	0	0		1	0	0	0	0	0	0	0
012513	09:52:49	10033	corsiblockFrRev	recallseqFrRev	10	doneCorsiFr	746	0	113	09:52:49	3675767	5	0	0	0	0	0	0	0	0	0	0	0	0	0	0	4	3	0	0	0	0	0		1	0	0	0	0	0	0	0
012513	09:52:49	10033	corsiblockFrRev	recallseqFrRev	10	9	773	0	113	09:52:49	3683670	5	0	0	0	0	0	0	0	0	0	0	0	0	0	0	4	3	0	0	0	0	0		1	0	0	0	0	0	0	0
012513	09:52:49	10033	corsiblockFrRev	recallseqFrRev	10	5	867	0	113	09:52:49	3684590	5	0	0	0	0	0	0	0	0	0	0	0	0	0	0	4	3	0	0	0	0	0		1	0	0	0	0	0	0	0
012513	09:52:49	10033	corsiblockFrRev	recallseqFrRev	10	2	698	0	113	09:52:49	3685336	5	0	0	0	0	0	0	0	0	0	0	0	0	0	0	4	3	0	0	0	0	0		1	0	0	0	0	0	0	0
012513	09:52:49	10033	corsiblockFrRev	recallseqFrRev	10	doneCorsiFr	1088	0	113	09:52:49	3686469	5	0	0	0	0	0	0	0	0	0	0	0	0	0	0	4	3	0	0	0	0	0		1	0	0	0	0	0	0	0
012513	09:52:49	10033	corsiblockFrRev	recallseqFrRev	10	8	1143	0	113	09:52:49	3694706	5	0	0	0	0	0	0	0	0	0	0	0	0	0	0	4	3	0	0	0	0	0		1	0	0	0	0	0	0	0
012513	09:52:49	10033	corsiblockFrRev	recallseqFrRev	10	2	831	0	113	09:52:49	3695586	5	0	0	0	0	0	0	0	0	0	0	0	0	0	0	4	3	0	0	0	0	0		1	0	0	0	0	0	0	0
012513	09:52:49	10033	corsiblockFrRev	recallseqFrRev	10	7	551	0	113	09:52:49	3696185	5	0	0	0	0	0	0	0	0	0	0	0	0	0	0	4	3	0	0	0	0	0		1	0	0	0	0	0	0	0
012513	09:52:49	10033	corsiblockFrRev	recallseqFrRev	10	9	607	0	113	09:52:49	3696838	5	0	0	0	0	0	0	0	0	0	0	0	0	0	0	4	3	0	0	0	0	0		1	0	0	0	0	0	0	0
012513	09:52:49	10033	corsiblockFrRev	recallseqFrRev	10	doneCorsiFr	1122	0	113	09:52:49	3698011	5	0	0	0	0	0	0	0	0	0	0	0	0	0	0	4	4	0	0	0	0	0		1	0	0	0	0	0	0	0
012513	09:52:49	10033	corsiblockFrRev	recallseqFrRev	10	4	2269	0	113	09:52:49	3707394	5	0	0	0	0	0	0	0	0	0	0	0	0	0	0	4	4	0	0	0	0	0		1	0	0	0	0	0	0	0
012513	09:52:49	10033	corsiblockFrRev	recallseqFrRev	10	1	918	0	113	09:52:49	3708367	5	0	0	0	0	0	0	0	0	0	0	0	0	0	0	4	4	0	0	0	0	0		1	0	0	0	0	0	0	0
012513	09:52:49	10033	corsiblockFrRev	recallseqFrRev	10	6	889	0	113	09:52:49	3709313	5	0	0	0	0	0	0	0	0	0	0	0	0	0	0	4	4	0	0	0	0	0		1	0	0	0	0	0	0	0
012513	09:52:49	10033	corsiblockFrRev	recallseqFrRev	10	5	703	0	113	09:52:49	3710073	5	0	0	0	0	0	0	0	0	0	0	0	0	0	0	4	4	0	0	0	0	0		1	0	0	0	0	0	0	0
012513	09:52:49	10033	corsiblockFrRev	recallseqFrRev	10	doneCorsiFr	1519	0	113	09:52:49	3711646	5	0	0	0	0	0	0	0	0	0	0	0	0	0	0	4	4	0	0	0	0	0		1	0	0	0	0	0	0	0
012513	09:52:49	10033	corsiblockFrRev	recallseqFrRev	10	6	1821	0	113	09:52:49	3721548	5	0	0	0	0	0	0	0	0	0	0	0	0	0	0	4	4	0	0	0	0	0		1	0	0	0	0	0	0	0
012513	09:52:49	10033	corsiblockFrRev	recallseqFrRev	10	8	732	0	113	09:52:49	3722335	5	0	0	0	0	0	0	0	0	0	0	0	0	0	0	4	4	0	0	0	0	0		1	0	0	0	0	0	0	0
012513	09:52:49	10033	corsiblockFrRev	recallseqFrRev	10	5	705	0	113	09:52:49	3723094	5	0	0	0	0	0	0	0	0	0	0	0	0	0	0	4	4	0	0	0	0	0		1	0	0	0	0	0	0	0
012513	09:52:49	10033	corsiblockFrRev	recallseqFrRev	10	4	505	0	113	09:52:49	3723654	5	0	0	0	0	0	0	0	0	0	0	0	0	0	0	4	4	0	0	0	0	0		1	0	0	0	0	0	0	0
012513	09:52:49	10033	corsiblockFrRev	recallseqFrRev	10	2	929	0	113	09:52:49	3724628	5	0	0	0	0	0	0	0	0	0	0	0	0	0	0	4	4	0	0	0	0	0		1	0	0	0	0	0	0	0
012513	09:52:49	10033	corsiblockFrRev	recallseqFrRev	10	doneCorsiFr	1037	0	113	09:52:49	3725720	5	0	0	0	0	0	0	0	0	0	0	0	0	0	0	4	4	0	0	0	0	0		1	0	0	0	0	0	0	0
012513	09:52:49	10033	testFr6mo	WordsFr6mo	11	3Fr6mo	639	0	113	09:52:49	3757974	5	0	0	3	0	0	0	0	0	0	0	0	0	0	0	4	4	0	0	0	0	0		1	0	0	0	0	0	0	0
012513	09:52:49	10033	testFr6mo	WordsFr6mo	11	5Fr6mo	1666	0	113	09:52:49	3759693	5	0	0	3	0	3	0	0	0	0	0	0	0	0	0	4	4	0	0	0	0	0		1	0	0	0	0	0	0	0
012513	09:52:49	10033	testFr6mo	WordsFr6mo	11	8Fr6mo	10170	0	113	09:52:49	3769916	5	0	0	3	0	3	0	0	3	0	0	0	0	0	0	4	4	0	0	0	0	0		1	0	0	0	0	0	0	0
012513	09:52:49	10033	testFr6mo	WordsFr6mo	11	1Fr6mo	8164	0	113	09:52:49	3778126	5	3	0	3	0	3	0	0	3	0	0	0	0	0	0	4	4	0	0	0	0	0		1	0	0	0	0	0	0	0
012513	09:52:49	10033	testFr6mo	WordsFr6mo	11	DoneFr6mo	6633	0	113	09:52:49	3784803	5	3	0	3	0	3	0	0	3	0	0	0	0	0	0	4	4	0	0	0	0	0		1	0	0	0	0	0	0	0
012513	09:52:49	10033	testFr6mo	Cat2Fr6mo	11	R2Fr6mo	29369	0	113	09:52:49	3814204	5	3	2	3	0	3	0	0	3	0	0	0	0	0	0	4	4	0	0	0	0	0		1	0	0	0	0	0	0	0
012513	09:52:49	10033	testFr6mo	Cat4Fr6mo	11	0	1	0	113	09:52:49	3814211	5	3	2	3	0	3	0	0	3	0	0	0	0	0	0	4	4	0	0	0	0	0		1	0	0	0	0	0	0	0
012513	09:52:49	10033	testFr6mo	Ch4Fr6mo	11	RR4Fr6mo	5488	0	113	09:52:49	3819722	5	3	2	3	1	3	0	0	3	0	0	0	0	0	0	4	4	0	0	0	0	0		1	0	0	0	0	0	0	0
012513	09:52:49	10033	testFr6mo	Cat6Fr6mo	11	0	1	0	113	09:52:49	3819730	5	3	2	3	1	3	0	0	3	0	0	0	0	0	0	4	4	0	0	0	0	0		1	0	0	0	0	0	0	0
012513	09:52:49	10033	testFr6mo	Ch6Fr6mo	11	WW6Fr6mo	9653	0	113	09:52:49	3829424	5	3	2	3	1	3	0	0	3	0	0	0	0	0	0	4	4	0	0	0	0	0		1	0	0	0	0	0	0	0
012513	09:52:49	10033	testFr6mo	Cat7Fr6mo	11	W7Fr6mo	14419	0	113	09:52:49	3843885	5	3	2	3	1	3	0	0	3	0	0	0	0	0	0	4	4	0	0	0	0	0		1	0	0	0	0	0	0	0
012513	09:52:49	10033	testFr6mo	Ch7Fr6mo	11	RR7Fr6mo	6670	0	113	09:52:49	3850589	5	3	2	3	1	3	0	1	3	0	0	0	0	0	0	4	4	0	0	0	0	0		1	0	0	0	0	0	0	0
012513	09:52:49	10033	DigitSpanFwrdFr6mo	Score1FwrdFr6mo	12	DS1	3568	0	113	09:52:49	3872714	5	3	2	3	1	3	0	1	3	0	0	0	0	0	0	4	4	0	0	0	0	0		1	0	0	0	0	0	0	0
012513	09:52:49	10033	DigitSpanFwrdFr6mo	Gate1FwrdFr6mo	12	0	1	0	113	09:52:49	3872719	5	3	2	3	1	3	0	1	3	3	0	0	0	0	0	4	4	0	0	0	0	0		1	0	0	0	0	0	0	0
012513	09:52:49	10033	DigitSpanFwrdFr6mo	Score2FwrdFr6mo	12	DS1	3548	0	113	09:52:49	3882576	5	3	2	3	1	3	0	1	3	3	0	0	0	0	0	4	4	0	0	0	0	0		1	0	0	0	0	0	0	0
012513	09:52:49	10033	DigitSpanFwrdFr6mo	Gate3FwrdFr6mo	12	0	1	0	113	09:52:49	3882581	5	3	2	3	1	3	0	1	3	4	0	0	0	0	0	4	4	0	0	0	0	0		1	0	0	0	0	0	0	0
012513	09:52:49	10033	DigitSpanFwrdFr6mo	Score3FwrdFr6mo	12	DS1	3704	0	113	09:52:49	3893532	5	3	2	3	1	3	0	1	3	4	0	0	0	0	0	4	4	0	0	0	0	0		1	0	0	0	0	0	0	0
012513	09:52:49	10033	DigitSpanFwrdFr6mo	Gate5FwrdFr6mo	12	0	1	0	113	09:52:49	3893537	5	3	2	3	1	3	0	1	3	5	0	0	0	0	0	4	4	0	0	0	0	0		1	0	0	0	0	0	0	0
012513	09:52:49	10033	DigitSpanFwrdFr6mo	Score4FwrdFr6mo	12	DS1	3738	0	113	09:52:49	3905780	5	3	2	3	1	3	0	1	3	5	0	0	0	0	0	4	4	0	0	0	0	0		1	0	0	0	0	0	0	0
012513	09:52:49	10033	DigitSpanFwrdFr6mo	Gate7FwrdFr6mo	12	0	1	0	113	09:52:49	3905785	5	3	2	3	1	3	0	1	3	6	0	0	0	0	0	4	4	0	0	0	0	0		1	0	0	0	0	0	0	0
012513	09:52:49	10033	DigitSpanFwrdFr6mo	Score5FwrdFr6mo	12	DS1	3762	0	113	09:52:49	3919494	5	3	2	3	1	3	0	1	3	6	0	0	0	0	0	4	4	0	0	0	0	0		1	0	0	0	0	0	0	0
012513	09:52:49	10033	DigitSpanFwrdFr6mo	Gate9FwrdFr6mo	12	0	1	0	113	09:52:49	3919499	5	3	2	3	1	3	0	1	3	7	0	0	0	0	0	4	4	0	0	0	0	0		1	0	0	0	0	0	0	0
012513	09:52:49	10033	DigitSpanFwrdFr6mo	Score6FwrdFr6mo	12	DS2	7991	0	113	09:52:49	3938594	5	3	2	3	1	3	0	1	3	7	0	0	0	0	0	4	4	0	0	0	0	0		1	0	0	0	0	0	0	0
012513	09:52:49	10033	DigitSpanFwrdFr6mo	Gate11FwrdFr6mo	12	0	1	0	113	09:52:49	3938598	5	3	2	3	1	3	0	1	3	7	0	0	0	0	0	4	4	0	0	0	0	0		1	0	0	0	0	0	0	0
012513	09:52:49	10033	DigitSpanFwrdFr6mo	Score66FwrdFr6mo	12	DS2	8022	0	113	09:52:49	3957586	5	3	2	3	1	3	0	1	3	7	0	0	0	0	0	4	4	0	0	0	0	0		1	0	0	0	0	0	0	0
012513	09:52:49	10033	DigitSpanFr6mo	Score1Fr6mo	13	DS1	2925	0	113	09:52:49	3976738	5	3	2	3	1	3	0	1	3	7	0	0	0	0	0	4	4	0	0	0	0	0		1	0	0	0	0	0	0	0
012513	09:52:49	10033	DigitSpanFr6mo	Gate1Fr6mo	13	0	1	0	113	09:52:49	3976743	5	3	2	3	1	3	0	1	3	7	2	0	0	0	0	4	4	0	0	0	0	0		1	0	0	0	0	0	0	0
012513	09:52:49	10033	DigitSpanFr6mo	Score2Fr6mo	13	DS1	3362	0	113	09:52:49	3984668	5	3	2	3	1	3	0	1	3	7	2	0	0	0	0	4	4	0	0	0	0	0		1	0	0	0	0	0	0	0
012513	09:52:49	10033	DigitSpanFr6mo	Gate3Fr6mo	13	0	1	0	113	09:52:49	3984673	5	3	2	3	1	3	0	1	3	7	3	0	0	0	0	4	4	0	0	0	0	0		1	0	0	0	0	0	0	0
012513	09:52:49	10033	DigitSpanFr6mo	Score3Fr6mo	13	DS1	4089	0	113	09:52:49	3994438	5	3	2	3	1	3	0	1	3	7	3	0	0	0	0	4	4	0	0	0	0	0		1	0	0	0	0	0	0	0
012513	09:52:49	10033	DigitSpanFr6mo	Gate5Fr6mo	13	0	1	0	113	09:52:49	3994442	5	3	2	3	1	3	0	1	3	7	4	0	0	0	0	4	4	0	0	0	0	0		1	0	0	0	0	0	0	0
012513	09:52:49	10033	DigitSpanFr6mo	Score4Fr6mo	13	DS2	11090	0	113	09:52:49	4012470	5	3	2	3	1	3	0	1	3	7	4	0	0	0	0	4	4	0	0	0	0	0		1	0	0	0	0	0	0	0
012513	09:52:49	10033	DigitSpanFr6mo	Gate7Fr6mo	13	0	1	0	113	09:52:49	4012475	5	3	2	3	1	3	0	1	3	7	4	0	0	0	0	4	4	0	0	0	0	0		1	0	0	0	0	0	0	0
012513	09:52:49	10033	DigitSpanFr6mo	Score44Fr6mo	13	DS2	16502	0	113	09:52:49	4037380	5	3	2	3	1	3	0	1	3	7	4	0	0	0	0	4	4	0	0	0	0	0		1	0	0	0	0	0	0	0
012513	09:52:49	10033	Trial	ResponseIL	14	0	175	0	113	09:52:49	4099302	5	3	2	3	1	3	0	1	3	7	4	0	0	0	0	4	4	0	0	0	0	0		1	0	0	0	0	0	0	0
012513	09:52:49	10033	Trial	IncongruentLeft	14	0	1000	0	113	09:52:49	4100315	5	3	2	3	1	3	0	1	3	7	4	0	0	0	0	4	4	0	0	0	0	0		1	0	0	0	0	0	0	0
012513	09:52:49	10033	Trial	ResponseCR	14	0	175	0	113	09:52:49	4101021	5	3	2	3	1	3	0	1	3	7	4	0	0	0	0	4	4	0	0	0	0	0		1	0	0	0	0	0	0	0
012513	09:52:49	10033	Trial	CongruentRight	14	205	619	1	113	09:52:49	4101661	5	3	2	3	1	3	0	1	3	7	4	0	0	0	0	4	4	0	0	0	0	0		1	0	0	0	0	0	0	0
012513	09:52:49	10033	Trial	ResponseIR	14	0	175	0	113	09:52:49	4102727	5	3	2	3	1	3	0	1	3	7	4	0	0	0	0	4	4	0	0	0	0	0		1	0	0	0	0	0	0	0
012513	09:52:49	10033	Trial	IncongruentRight	14	203	369	0	113	09:52:49	4103113	5	3	2	3	1	3	0	1	3	7	4	0	0	0	0	4	4	0	0	0	0	0		1	0	0	0	0	0	0	0
012513	09:52:49	10033	Trial	ResponseCL	14	0	175	0	113	09:52:49	4104433	5	3	2	3	1	3	0	1	3	7	4	0	0	0	0	4	4	0	0	0	0	0		1	0	0	0	0	0	0	0
012513	09:52:49	10033	Trial	CongruentLeft	14	203	583	1	113	09:52:49	4105033	5	3	2	3	1	3	0	1	3	7	4	0	0	0	0	4	4	0	0	0	0	0		1	0	0	0	0	0	0	0
012513	09:52:49	10033	Trial	ResponseCR	14	0	175	0	113	09:52:49	4106139	5	3	2	3	1	3	0	1	3	7	4	0	0	0	0	4	4	0	0	0	0	0		1	0	0	0	0	0	0	0
012513	09:52:49	10033	Trial	CongruentRight	14	205	445	1	113	09:52:49	4106605	5	3	2	3	1	3	0	1	3	7	4	0	0	0	0	4	4	0	0	0	0	0		1	0	0	0	0	0	0	0
012513	09:52:49	10033	Trial	ResponseIR	14	0	175	0	113	09:52:49	4107845	5	3	2	3	1	3	0	1	3	7	4	0	0	0	0	4	4	0	0	0	0	0		1	0	0	0	0	0	0	0
012513	09:52:49	10033	Trial	IncongruentRight	14	205	675	1	113	09:52:49	4108538	5	3	2	3	1	3	0	1	3	7	4	0	0	0	0	4	4	0	0	0	0	0		1	0	0	0	0	0	0	0
012513	09:52:49	10033	Trial	ResponseCL	14	0	175	0	113	09:52:49	4109551	5	3	2	3	1	3	0	1	3	7	4	0	0	0	0	4	4	0	0	0	0	0		1	0	0	0	0	0	0	0
012513	09:52:49	10033	Trial	CongruentLeft	14	203	489	1	113	09:52:49	4110057	5	3	2	3	1	3	0	1	3	7	4	0	0	0	0	4	4	0	0	0	0	0		1	0	0	0	0	0	0	0
012513	09:52:49	10033	Trial	ResponseIL	14	0	175	0	113	09:52:49	4111257	5	3	2	3	1	3	0	1	3	7	4	0	0	0	0	4	4	0	0	0	0	0		1	0	0	0	0	0	0	0
012513	09:52:49	10033	Trial	IncongruentLeft	14	203	543	1	113	09:52:49	4111817	5	3	2	3	1	3	0	1	3	7	4	0	0	0	0	4	4	0	0	0	0	0		1	0	0	0	0	0	0	0
012513	09:52:49	10033	Trial	ResponseIL	14	0	175	0	113	09:52:49	4112976	5	3	2	3	1	3	0	1	3	7	4	0	0	0	0	4	4	0	0	0	0	0		1	0	0	0	0	0	0	0
012513	09:52:49	10033	Trial	IncongruentLeft	14	203	407	1	113	09:52:49	4113403	5	3	2	3	1	3	0	1	3	7	4	0	0	0	0	4	4	0	0	0	0	0		1	0	0	0	0	0	0	0
012513	09:52:49	10033	Trial	ResponseCR	14	0	175	0	113	09:52:49	4114682	5	3	2	3	1	3	0	1	3	7	4	0	0	0	0	4	4	0	0	0	0	0		1	0	0	0	0	0	0	0
012513	09:52:49	10033	Trial	CongruentRight	14	205	382	1	113	09:52:49	4115082	5	3	2	3	1	3	0	1	3	7	4	0	0	0	0	4	4	0	0	0	0	0		1	0	0	0	0	0	0	0
012513	09:52:49	10033	Trial	ResponseIR	14	0	175	0	113	09:52:49	4116388	5	3	2	3	1	3	0	1	3	7	4	0	0	0	0	4	4	0	0	0	0	0		1	0	0	0	0	0	0	0
012513	09:52:49	10033	Trial	IncongruentRight	14	205	547	1	113	09:52:49	4116961	5	3	2	3	1	3	0	1	3	7	4	0	0	0	0	4	4	0	0	0	0	0		1	0	0	0	0	0	0	0
012513	09:52:49	10033	Trial	ResponseCL	14	0	175	0	113	09:52:49	4118094	5	3	2	3	1	3	0	1	3	7	4	0	0	0	0	4	4	0	0	0	0	0		1	0	0	0	0	0	0	0
012513	09:52:49	10033	Trial	CongruentLeft	14	203	361	1	113	09:52:49	4118481	5	3	2	3	1	3	0	1	3	7	4	0	0	0	0	4	4	0	0	0	0	0		1	0	0	0	0	0	0	0
012513	09:52:49	10033	Trial	ResponseCR	14	0	175	0	113	09:52:49	4119800	5	3	2	3	1	3	0	1	3	7	4	0	0	0	0	4	4	0	0	0	0	0		1	0	0	0	0	0	0	0
012513	09:52:49	10033	Trial	CongruentRight	14	205	271	1	113	09:52:49	4120093	5	3	2	3	1	3	0	1	3	7	4	0	0	0	0	4	4	0	0	0	0	0		1	0	0	0	0	0	0	0
012513	09:52:49	10033	Trial	ResponseIL	14	0	175	0	113	09:52:49	4121506	5	3	2	3	1	3	0	1	3	7	4	0	0	0	0	4	4	0	0	0	0	0		1	0	0	0	0	0	0	0
012513	09:52:49	10033	Trial	IncongruentLeft	14	203	437	1	113	09:52:49	4121973	5	3	2	3	1	3	0	1	3	7	4	0	0	0	0	4	4	0	0	0	0	0		1	0	0	0	0	0	0	0
012513	09:52:49	10033	Trial	ResponseIR	14	0	175	0	113	09:52:49	4123212	5	3	2	3	1	3	0	1	3	7	4	0	0	0	0	4	4	0	0	0	0	0		1	0	0	0	0	0	0	0
012513	09:52:49	10033	Trial	IncongruentRight	14	205	395	1	113	09:52:49	4123625	5	3	2	3	1	3	0	1	3	7	4	0	0	0	0	4	4	0	0	0	0	0		1	0	0	0	0	0	0	0
012513	09:52:49	10033	Trial	ResponseCR	14	0	175	0	113	09:52:49	4124918	5	3	2	3	1	3	0	1	3	7	4	0	0	0	0	4	4	0	0	0	0	0		1	0	0	0	0	0	0	0
012513	09:52:49	10033	Trial	CongruentRight	14	205	368	1	113	09:52:49	4125304	5	3	2	3	1	3	0	1	3	7	4	0	0	0	0	4	4	0	0	0	0	0		1	0	0	0	0	0	0	0
012513	09:52:49	10033	Trial	ResponseCL	14	0	175	0	113	09:52:49	4126624	5	3	2	3	1	3	0	1	3	7	4	0	0	0	0	4	4	0	0	0	0	0		1	0	0	0	0	0	0	0
012513	09:52:49	10033	Trial	CongruentLeft	14	203	311	1	113	09:52:49	4126957	5	3	2	3	1	3	0	1	3	7	4	0	0	0	0	4	4	0	0	0	0	0		1	0	0	0	0	0	0	0
012513	09:52:49	10033	Trial	ResponseCR	14	0	175	0	113	09:52:49	4128330	5	3	2	3	1	3	0	1	3	7	4	0	0	0	0	4	4	0	0	0	0	0		1	0	0	0	0	0	0	0
012513	09:52:49	10033	Trial	CongruentRight	14	205	253	1	113	09:52:49	4128610	5	3	2	3	1	3	0	1	3	7	4	0	0	0	0	4	4	0	0	0	0	0		1	0	0	0	0	0	0	0
012513	09:52:49	10033	Trial	ResponseIR	14	0	175	0	113	09:52:49	4130036	5	3	2	3	1	3	0	1	3	7	4	0	0	0	0	4	4	0	0	0	0	0		1	0	0	0	0	0	0	0
012513	09:52:49	10033	Trial	IncongruentRight	14	205	403	1	113	09:52:49	4130462	5	3	2	3	1	3	0	1	3	7	4	0	0	0	0	4	4	0	0	0	0	0		1	0	0	0	0	0	0	0
012513	09:52:49	10033	Trial	ResponseIL	14	0	175	0	113	09:52:49	4131742	5	3	2	3	1	3	0	1	3	7	4	0	0	0	0	4	4	0	0	0	0	0		1	0	0	0	0	0	0	0
012513	09:52:49	10033	Trial	IncongruentLeft	14	205	329	0	113	09:52:49	4132088	5	3	2	3	1	3	0	1	3	7	4	0	0	0	0	4	4	0	0	0	0	0		1	0	0	0	0	0	0	0
012513	09:52:49	10033	Trial	ResponseIL	14	0	175	0	113	09:52:49	4133448	5	3	2	3	1	3	0	1	3	7	4	0	0	0	0	4	4	0	0	0	0	0		1	0	0	0	0	0	0	0
012513	09:52:49	10033	Trial	IncongruentLeft	14	203	447	1	113	09:52:49	4133914	5	3	2	3	1	3	0	1	3	7	4	0	0	0	0	4	4	0	0	0	0	0		1	0	0	0	0	0	0	0
012513	09:52:49	10033	Trial	ResponseCL	14	0	175	0	113	09:52:49	4135154	5	3	2	3	1	3	0	1	3	7	4	0	0	0	0	4	4	0	0	0	0	0		1	0	0	0	0	0	0	0
012513	09:52:49	10033	Trial	CongruentLeft	14	203	309	1	113	09:52:49	4135487	5	3	2	3	1	3	0	1	3	7	4	0	0	0	0	4	4	0	0	0	0	0		1	0	0	0	0	0	0	0
012513	09:52:49	10033	Trial	ResponseCR	14	0	175	0	113	09:52:49	4136860	5	3	2	3	1	3	0	1	3	7	4	0	0	0	0	4	4	0	0	0	0	0		1	0	0	0	0	0	0	0
012513	09:52:49	10033	Trial	CongruentRight	14	205	251	1	113	09:52:49	4137140	5	3	2	3	1	3	0	1	3	7	4	0	0	0	0	4	4	0	0	0	0	0		1	0	0	0	0	0	0	0
012513	09:52:49	10033	Trial	ResponseIL	14	0	175	0	113	09:52:49	4138566	5	3	2	3	1	3	0	1	3	7	4	0	0	0	0	4	4	0	0	0	0	0		1	0	0	0	0	0	0	0
012513	09:52:49	10033	Trial	IncongruentLeft	14	203	353	1	113	09:52:49	4138939	5	3	2	3	1	3	0	1	3	7	4	0	0	0	0	4	4	0	0	0	0	0		1	0	0	0	0	0	0	0
012513	09:52:49	10033	Trial	ResponseIR	14	0	175	0	113	09:52:49	4140272	5	3	2	3	1	3	0	1	3	7	4	0	0	0	0	4	4	0	0	0	0	0		1	0	0	0	0	0	0	0
012513	09:52:49	10033	Trial	IncongruentRight	14	205	375	1	113	09:52:49	4140672	5	3	2	3	1	3	0	1	3	7	4	0	0	0	0	4	4	0	0	0	0	0		1	0	0	0	0	0	0	0
012513	09:52:49	10033	Trial	ResponseCR	14	0	175	0	113	09:52:49	4141978	5	3	2	3	1	3	0	1	3	7	4	0	0	0	0	4	4	0	0	0	0	0		1	0	0	0	0	0	0	0
012513	09:52:49	10033	Trial	CongruentRight	14	205	269	1	113	09:52:49	4142271	5	3	2	3	1	3	0	1	3	7	4	0	0	0	0	4	4	0	0	0	0	0		1	0	0	0	0	0	0	0
012513	09:52:49	10033	Trial	ResponseCL	14	0	175	0	113	09:52:49	4143684	5	3	2	3	1	3	0	1	3	7	4	0	0	0	0	4	4	0	0	0	0	0		1	0	0	0	0	0	0	0
012513	09:52:49	10033	Trial	CongruentLeft	14	203	259	1	113	09:52:49	4143964	5	3	2	3	1	3	0	1	3	7	4	0	0	0	0	4	4	0	0	0	0	0		1	0	0	0	0	0	0	0
012513	09:52:49	10033	Trial	ResponseIR	14	0	175	0	113	09:52:49	4145390	5	3	2	3	1	3	0	1	3	7	4	0	0	0	0	4	4	0	0	0	0	0		1	0	0	0	0	0	0	0
012513	09:52:49	10033	Trial	IncongruentRight	14	205	345	1	113	09:52:49	4145763	5	3	2	3	1	3	0	1	3	7	4	0	0	0	0	4	4	0	0	0	0	0		1	0	0	0	0	0	0	0
012513	09:52:49	10033	Trial	ResponseIL	14	0	175	0	113	09:52:49	4147096	5	3	2	3	1	3	0	1	3	7	4	0	0	0	0	4	4	0	0	0	0	0		1	0	0	0	0	0	0	0
012513	09:52:49	10033	Trial	IncongruentLeft	14	203	271	1	113	09:52:49	4147389	5	3	2	3	1	3	0	1	3	7	4	0	0	0	0	4	4	0	0	0	0	0		1	0	0	0	0	0	0	0
012513	09:52:49	10033	Trial	ResponseIR	14	0	175	0	113	09:52:49	4148802	5	3	2	3	1	3	0	1	3	7	4	0	0	0	0	4	4	0	0	0	0	0		1	0	0	0	0	0	0	0
012513	09:52:49	10033	Trial	IncongruentRight	14	205	325	1	113	09:52:49	4149148	5	3	2	3	1	3	0	1	3	7	4	0	0	0	0	4	4	0	0	0	0	0		1	0	0	0	0	0	0	0
012513	09:52:49	10033	Trial	ResponseCR	14	0	175	0	113	09:52:49	4150508	5	3	2	3	1	3	0	1	3	7	4	0	0	0	0	4	4	0	0	0	0	0		1	0	0	0	0	0	0	0
012513	09:52:49	10033	Trial	CongruentRight	14	205	283	1	113	09:52:49	4150814	5	3	2	3	1	3	0	1	3	7	4	0	0	0	0	4	4	0	0	0	0	0		1	0	0	0	0	0	0	0
012513	09:52:49	10033	Trial	ResponseIL	14	0	175	0	113	09:52:49	4152214	5	3	2	3	1	3	0	1	3	7	4	0	0	0	0	4	4	0	0	0	0	0		1	0	0	0	0	0	0	0
012513	09:52:49	10033	Trial	IncongruentLeft	14	203	273	1	113	09:52:49	4152507	5	3	2	3	1	3	0	1	3	7	4	0	0	0	0	4	4	0	0	0	0	0		1	0	0	0	0	0	0	0
012513	09:52:49	10033	Trial	ResponseCL	14	0	175	0	113	09:52:49	4153920	5	3	2	3	1	3	0	1	3	7	4	0	0	0	0	4	4	0	0	0	0	0		1	0	0	0	0	0	0	0
012513	09:52:49	10033	Trial	CongruentLeft	14	203	407	1	113	09:52:49	4154346	5	3	2	3	1	3	0	1	3	7	4	0	0	0	0	4	4	0	0	0	0	0		1	0	0	0	0	0	0	0
012513	09:52:49	10033	Trial	ResponseCR	14	0	175	0	113	09:52:49	4155626	5	3	2	3	1	3	0	1	3	7	4	0	0	0	0	4	4	0	0	0	0	0		1	0	0	0	0	0	0	0
012513	09:52:49	10033	Trial	CongruentRight	14	205	349	1	113	09:52:49	4155999	5	3	2	3	1	3	0	1	3	7	4	0	0	0	0	4	4	0	0	0	0	0		1	0	0	0	0	0	0	0
012513	09:52:49	10033	Trial	ResponseIL	14	0	175	0	113	09:52:49	4157332	5	3	2	3	1	3	0	1	3	7	4	0	0	0	0	4	4	0	0	0	0	0		1	0	0	0	0	0	0	0
012513	09:52:49	10033	Trial	IncongruentLeft	14	203	291	1	113	09:52:49	4157652	5	3	2	3	1	3	0	1	3	7	4	0	0	0	0	4	4	0	0	0	0	0		1	0	0	0	0	0	0	0
012513	09:52:49	10033	Trial	ResponseIR	14	0	175	0	113	09:52:49	4159038	5	3	2	3	1	3	0	1	3	7	4	0	0	0	0	4	4	0	0	0	0	0		1	0	0	0	0	0	0	0
012513	09:52:49	10033	Trial	IncongruentRight	14	205	297	1	113	09:52:49	4159358	5	3	2	3	1	3	0	1	3	7	4	0	0	0	0	4	4	0	0	0	0	0		1	0	0	0	0	0	0	0
012513	09:52:49	10033	Trial	ResponseIR	14	0	175	0	113	09:52:49	4160744	5	3	2	3	1	3	0	1	3	7	4	0	0	0	0	4	4	0	0	0	0	0		1	0	0	0	0	0	0	0
012513	09:52:49	10033	Trial	IncongruentRight	14	203	223	0	113	09:52:49	4160984	5	3	2	3	1	3	0	1	3	7	4	0	0	0	0	4	4	0	0	0	0	0		1	0	0	0	0	0	0	0
012513	09:52:49	10033	Trial	ResponseCL	14	0	175	0	113	09:52:49	4162450	5	3	2	3	1	3	0	1	3	7	4	0	0	0	0	4	4	0	0	0	0	0		1	0	0	0	0	0	0	0
012513	09:52:49	10033	Trial	CongruentLeft	14	203	277	1	113	09:52:49	4162743	5	3	2	3	1	3	0	1	3	7	4	0	0	0	0	4	4	0	0	0	0	0		1	0	0	0	0	0	0	0
012513	09:52:49	10033	Trial	ResponseIL	14	0	175	0	113	09:52:49	4164155	5	3	2	3	1	3	0	1	3	7	4	0	0	0	0	4	4	0	0	0	0	0		1	0	0	0	0	0	0	0
012513	09:52:49	10033	Trial	IncongruentLeft	14	203	284	1	113	09:52:49	4164462	5	3	2	3	1	3	0	1	3	7	4	0	0	0	0	4	4	0	0	0	0	0		1	0	0	0	0	0	0	0
012513	09:52:49	10033	Trial	ResponseCR	14	0	175	0	113	09:52:49	4165862	5	3	2	3	1	3	0	1	3	7	4	0	0	0	0	4	4	0	0	0	0	0		1	0	0	0	0	0	0	0
012513	09:52:49	10033	Trial	CongruentRight	14	205	257	1	113	09:52:49	4166141	5	3	2	3	1	3	0	1	3	7	4	0	0	0	0	4	4	0	0	0	0	0		1	0	0	0	0	0	0	0
012513	09:52:49	10033	Trial	ResponseCL	14	0	175	0	113	09:52:49	4167568	5	3	2	3	1	3	0	1	3	7	4	0	0	0	0	4	4	0	0	0	0	0		1	0	0	0	0	0	0	0
012513	09:52:49	10033	Trial	CongruentLeft	14	203	295	1	113	09:52:49	4167888	5	3	2	3	1	3	0	1	3	7	4	0	0	0	0	4	4	0	0	0	0	0		1	0	0	0	0	0	0	0
012513	09:52:49	10033	Trial	ResponseIR	14	0	175	0	113	09:52:49	4169274	5	3	2	3	1	3	0	1	3	7	4	0	0	0	0	4	4	0	0	0	0	0		1	0	0	0	0	0	0	0
012513	09:52:49	10033	Trial	IncongruentRight	14	205	253	1	113	09:52:49	4169553	5	3	2	3	1	3	0	1	3	7	4	0	0	0	0	4	4	0	0	0	0	0		1	0	0	0	0	0	0	0
012513	09:52:49	10033	Trial	ResponseCR	14	0	175	0	113	09:52:49	4170980	5	3	2	3	1	3	0	1	3	7	4	0	0	0	0	4	4	0	0	0	0	0		1	0	0	0	0	0	0	0
012513	09:52:49	10033	Trial	CongruentRight	14	205	307	1	113	09:52:49	4171313	5	3	2	3	1	3	0	1	3	7	4	0	0	0	0	4	4	0	0	0	0	0		1	0	0	0	0	0	0	0
012513	09:52:49	10033	Trial	ResponseIL	14	0	175	0	113	09:52:49	4172685	5	3	2	3	1	3	0	1	3	7	4	0	0	0	0	4	4	0	0	0	0	0		1	0	0	0	0	0	0	0
012513	09:52:49	10033	Trial	IncongruentLeft	14	203	311	1	113	09:52:49	4173019	5	3	2	3	1	3	0	1	3	7	4	0	0	0	0	4	4	0	0	0	0	0		1	0	0	0	0	0	0	0
012513	09:52:49	10033	Trial	ResponseCL	14	0	175	0	113	09:52:49	4174391	5	3	2	3	1	3	0	1	3	7	4	0	0	0	0	4	4	0	0	0	0	0		1	0	0	0	0	0	0	0
012513	09:52:49	10033	Trial	CongruentLeft	14	203	303	1	113	09:52:49	4174711	5	3	2	3	1	3	0	1	3	7	4	0	0	0	0	4	4	0	0	0	0	0		1	0	0	0	0	0	0	0
012513	09:52:49	10033	Trial	ResponseIL	14	0	175	0	113	09:52:49	4176097	5	3	2	3	1	3	0	1	3	7	4	0	0	0	0	4	4	0	0	0	0	0		1	0	0	0	0	0	0	0
012513	09:52:49	10033	Trial	IncongruentLeft	14	203	389	1	113	09:52:49	4176511	5	3	2	3	1	3	0	1	3	7	4	0	0	0	0	4	4	0	0	0	0	0		1	0	0	0	0	0	0	0
012513	09:52:49	10033	Trial	ResponseIR	14	0	175	0	113	09:52:49	4177803	5	3	2	3	1	3	0	1	3	7	4	0	0	0	0	4	4	0	0	0	0	0		1	0	0	0	0	0	0	0
012513	09:52:49	10033	Trial	IncongruentRight	14	205	331	1	113	09:52:49	4178163	5	3	2	3	1	3	0	1	3	7	4	0	0	0	0	4	4	0	0	0	0	0		1	0	0	0	0	0	0	0
012513	09:52:49	10033	Trial	ResponseCR	14	0	175	0	113	09:52:49	4179509	5	3	2	3	1	3	0	1	3	7	4	0	0	0	0	4	4	0	0	0	0	0		1	0	0	0	0	0	0	0
012513	09:52:49	10033	Trial	CongruentRight	14	205	241	1	113	09:52:49	4179776	5	3	2	3	1	3	0	1	3	7	4	0	0	0	0	4	4	0	0	0	0	0		1	0	0	0	0	0	0	0
012513	09:52:49	10033	Trial	ResponseCL	14	0	175	0	113	09:52:49	4181215	5	3	2	3	1	3	0	1	3	7	4	0	0	0	0	4	4	0	0	0	0	0		1	0	0	0	0	0	0	0
012513	09:52:49	10033	Trial	CongruentLeft	14	203	231	1	113	09:52:49	4181469	5	3	2	3	1	3	0	1	3	7	4	0	0	0	0	4	4	0	0	0	0	0		1	0	0	0	0	0	0	0
012513	09:52:49	10033	Trial	ResponseCL	14	0	175	0	113	09:52:49	4182921	5	3	2	3	1	3	0	1	3	7	4	0	0	0	0	4	4	0	0	0	0	0		1	0	0	0	0	0	0	0
012513	09:52:49	10033	Trial	CongruentLeft	14	203	285	1	113	09:52:49	4183228	5	3	2	3	1	3	0	1	3	7	4	0	0	0	0	4	4	0	0	0	0	0		1	0	0	0	0	0	0	0
012513	09:52:49	10033	Trial	ResponseIR	14	0	175	0	113	09:52:49	4184628	5	3	2	3	1	3	0	1	3	7	4	0	0	0	0	4	4	0	0	0	0	0		1	0	0	0	0	0	0	0
012513	09:52:49	10033	Trial	IncongruentRight	14	205	355	1	113	09:52:49	4185001	5	3	2	3	1	3	0	1	3	7	4	0	0	0	0	4	4	0	0	0	0	0		1	0	0	0	0	0	0	0
012513	09:52:49	10033	Trial	ResponseIL	14	0	175	0	113	09:52:49	4186333	5	3	2	3	1	3	0	1	3	7	4	0	0	0	0	4	4	0	0	0	0	0		1	0	0	0	0	0	0	0
012513	09:52:49	10033	Trial	IncongruentLeft	14	205	281	0	113	09:52:49	4186640	5	3	2	3	1	3	0	1	3	7	4	0	0	0	0	4	4	0	0	0	0	0		1	0	0	0	0	0	0	0
012513	09:52:49	10033	Trial	ResponseIR	14	0	175	0	113	09:52:49	4188039	5	3	2	3	1	3	0	1	3	7	4	0	0	0	0	4	4	0	0	0	0	0		1	0	0	0	0	0	0	0
012513	09:52:49	10033	Trial	IncongruentRight	14	205	271	1	113	09:52:49	4188333	5	3	2	3	1	3	0	1	3	7	4	0	0	0	0	4	4	0	0	0	0	0		1	0	0	0	0	0	0	0
012513	09:52:49	10033	Trial	ResponseCR	14	0	175	0	113	09:52:49	4189745	5	3	2	3	1	3	0	1	3	7	4	0	0	0	0	4	4	0	0	0	0	0		1	0	0	0	0	0	0	0
012513	09:52:49	10033	Trial	CongruentRight	14	203	244	0	113	09:52:49	4190012	5	3	2	3	1	3	0	1	3	7	4	0	0	0	0	4	4	0	0	0	0	0		1	0	0	0	0	0	0	0
012513	09:52:49	10033	Trial	ResponseCR	14	0	175	0	113	09:52:49	4191451	5	3	2	3	1	3	0	1	3	7	4	0	0	0	0	4	4	0	0	0	0	0		1	0	0	0	0	0	0	0
012513	09:52:49	10033	Trial	CongruentRight	14	205	314	1	113	09:52:49	4191784	5	3	2	3	1	3	0	1	3	7	4	0	0	0	0	4	4	0	0	0	0	0		1	0	0	0	0	0	0	0
012513	09:52:49	10033	Trial	ResponseIL	14	0	175	0	113	09:52:49	4193157	5	3	2	3	1	3	0	1	3	7	4	0	0	0	0	4	4	0	0	0	0	0		1	0	0	0	0	0	0	0
012513	09:52:49	10033	Trial	IncongruentLeft	14	203	273	1	113	09:52:49	4193451	5	3	2	3	1	3	0	1	3	7	4	0	0	0	0	4	4	0	0	0	0	0		1	0	0	0	0	0	0	0
012513	09:52:49	10033	Trial	ResponseCL	14	0	175	0	113	09:52:49	4194863	5	3	2	3	1	3	0	1	3	7	4	0	0	0	0	4	4	0	0	0	0	0		1	0	0	0	0	0	0	0
012513	09:52:49	10033	Trial	CongruentLeft	14	203	295	1	113	09:52:49	4195183	5	3	2	3	1	3	0	1	3	7	4	0	0	0	0	4	4	0	0	0	0	0		1	0	0	0	0	0	0	0
012513	09:52:49	10033	Trial	ResponseCR	14	0	175	0	113	09:52:49	4196569	5	3	2	3	1	3	0	1	3	7	4	0	0	0	0	4	4	0	0	0	0	0		1	0	0	0	0	0	0	0
012513	09:52:49	10033	Trial	CongruentRight	14	205	317	1	113	09:52:49	4196902	5	3	2	3	1	3	0	1	3	7	4	0	0	0	0	4	4	0	0	0	0	0		1	0	0	0	0	0	0	0
012513	09:52:49	10033	Trial	ResponseCL	14	0	175	0	113	09:52:49	4198275	5	3	2	3	1	3	0	1	3	7	4	0	0	0	0	4	4	0	0	0	0	0		1	0	0	0	0	0	0	0
012513	09:52:49	10033	Trial	CongruentLeft	14	203	274	1	113	09:52:49	4198568	5	3	2	3	1	3	0	1	3	7	4	0	0	0	0	4	4	0	0	0	0	0		1	0	0	0	0	0	0	0
012513	09:52:49	10033	Trial	ResponseIR	14	0	175	0	113	09:52:49	4199981	5	3	2	3	1	3	0	1	3	7	4	0	0	0	0	4	4	0	0	0	0	0		1	0	0	0	0	0	0	0
012513	09:52:49	10033	Trial	IncongruentRight	14	205	441	1	113	09:52:49	4200448	5	3	2	3	1	3	0	1	3	7	4	0	0	0	0	4	4	0	0	0	0	0		1	0	0	0	0	0	0	0
012513	09:52:49	10033	Trial	ResponseCR	14	0	175	0	113	09:52:49	4201687	5	3	2	3	1	3	0	1	3	7	4	0	0	0	0	4	4	0	0	0	0	0		1	0	0	0	0	0	0	0
012513	09:52:49	10033	Trial	CongruentRight	14	205	462	1	113	09:52:49	4202167	5	3	2	3	1	3	0	1	3	7	4	0	0	0	0	4	4	0	0	0	0	0		1	0	0	0	0	0	0	0
012513	09:52:49	10033	Trial	ResponseCL	14	0	175	0	113	09:52:49	4203393	5	3	2	3	1	3	0	1	3	7	4	0	0	0	0	4	4	0	0	0	0	0		1	0	0	0	0	0	0	0
012513	09:52:49	10033	Trial	CongruentLeft	14	203	292	1	113	09:52:49	4203713	5	3	2	3	1	3	0	1	3	7	4	0	0	0	0	4	4	0	0	0	0	0		1	0	0	0	0	0	0	0
012513	09:52:49	10033	Trial	ResponseIL	14	0	175	0	113	09:52:49	4205099	5	3	2	3	1	3	0	1	3	7	4	0	0	0	0	4	4	0	0	0	0	0		1	0	0	0	0	0	0	0
012513	09:52:49	10033	Trial	IncongruentLeft	14	203	411	1	113	09:52:49	4205539	5	3	2	3	1	3	0	1	3	7	4	0	0	0	0	4	4	0	0	0	0	0		1	0	0	0	0	0	0	0
012513	09:52:49	10033	Trial	ResponseIL	14	0	175	0	113	09:52:49	4206805	5	3	2	3	1	3	0	1	3	7	4	0	0	0	0	4	4	0	0	0	0	0		1	0	0	0	0	0	0	0
012513	09:52:49	10033	Trial	IncongruentLeft	14	203	401	1	113	09:52:49	4207232	5	3	2	3	1	3	0	1	3	7	4	0	0	0	0	4	4	0	0	0	0	0		1	0	0	0	0	0	0	0
012513	09:52:49	10033	Trial	ResponseCR	14	0	175	0	113	09:52:49	4208511	5	3	2	3	1	3	0	1	3	7	4	0	0	0	0	4	4	0	0	0	0	0		1	0	0	0	0	0	0	0
012513	09:52:49	10033	Trial	CongruentRight	14	205	310	1	113	09:52:49	4208844	5	3	2	3	1	3	0	1	3	7	4	0	0	0	0	4	4	0	0	0	0	0		1	0	0	0	0	0	0	0
012513	09:52:49	10033	Trial	ResponseIR	14	0	175	0	113	09:52:49	4210217	5	3	2	3	1	3	0	1	3	7	4	0	0	0	0	4	4	0	0	0	0	0		1	0	0	0	0	0	0	0
012513	09:52:49	10033	Trial	IncongruentRight	14	205	333	1	113	09:52:49	4210577	5	3	2	3	1	3	0	1	3	7	4	0	0	0	0	4	4	0	0	0	0	0		1	0	0	0	0	0	0	0
012513	09:52:49	10033	Trial	ResponseCL	14	0	175	0	113	09:52:49	4211923	5	3	2	3	1	3	0	1	3	7	4	0	0	0	0	4	4	0	0	0	0	0		1	0	0	0	0	0	0	0
012513	09:52:49	10033	Trial	CongruentLeft	14	203	275	1	113	09:52:49	4212216	5	3	2	3	1	3	0	1	3	7	4	0	0	0	0	4	4	0	0	0	0	0		1	0	0	0	0	0	0	0
012513	09:52:49	10033	Trial	ResponseIR	14	0	175	0	113	09:52:49	4213629	5	3	2	3	1	3	0	1	3	7	4	0	0	0	0	4	4	0	0	0	0	0		1	0	0	0	0	0	0	0
012513	09:52:49	10033	Trial	IncongruentRight	14	205	312	1	113	09:52:49	4213962	5	3	2	3	1	3	0	1	3	7	4	0	0	0	0	4	4	0	0	0	0	0		1	0	0	0	0	0	0	0
012513	09:52:49	10033	Trial	ResponseCR	14	0	175	0	113	09:52:49	4215335	5	3	2	3	1	3	0	1	3	7	4	0	0	0	0	4	4	0	0	0	0	0		1	0	0	0	0	0	0	0
012513	09:52:49	10033	Trial	CongruentRight	14	205	271	1	113	09:52:49	4215628	5	3	2	3	1	3	0	1	3	7	4	0	0	0	0	4	4	0	0	0	0	0		1	0	0	0	0	0	0	0
012513	09:52:49	10033	Trial	ResponseIL	14	0	175	0	113	09:52:49	4217041	5	3	2	3	1	3	0	1	3	7	4	0	0	0	0	4	4	0	0	0	0	0		1	0	0	0	0	0	0	0
012513	09:52:49	10033	Trial	IncongruentLeft	14	203	357	1	113	09:52:49	4217414	5	3	2	3	1	3	0	1	3	7	4	0	0	0	0	4	4	0	0	0	0	0		1	0	0	0	0	0	0	0
012513	09:52:49	10033	Trial	ResponseCL	14	0	175	0	113	09:52:49	4218747	5	3	2	3	1	3	0	1	3	7	4	0	0	0	0	4	4	0	0	0	0	0		1	0	0	0	0	0	0	0
012513	09:52:49	10033	Trial	CongruentLeft	14	203	314	1	113	09:52:49	4219080	5	3	2	3	1	3	0	1	3	7	4	0	0	0	0	4	4	0	0	0	0	0		1	0	0	0	0	0	0	0
012513	09:52:49	10033	Trial	ResponseCR	14	0	175	0	113	09:52:49	4220453	5	3	2	3	1	3	0	1	3	7	4	0	0	0	0	4	4	0	0	0	0	0		1	0	0	0	0	0	0	0
012513	09:52:49	10033	Trial	CongruentRight	14	205	272	1	113	09:52:49	4220746	5	3	2	3	1	3	0	1	3	7	4	0	0	0	0	4	4	0	0	0	0	0		1	0	0	0	0	0	0	0
012513	09:52:49	10033	Trial	ResponseIL	14	0	175	0	113	09:52:49	4222159	5	3	2	3	1	3	0	1	3	7	4	0	0	0	0	4	4	0	0	0	0	0		1	0	0	0	0	0	0	0
012513	09:52:49	10033	Trial	IncongruentLeft	14	203	311	1	113	09:52:49	4222492	5	3	2	3	1	3	0	1	3	7	4	0	0	0	0	4	4	0	0	0	0	0		1	0	0	0	0	0	0	0
012513	09:52:49	10033	Trial	ResponseCR	14	0	175	0	113	09:52:49	4223865	5	3	2	3	1	3	0	1	3	7	4	0	0	0	0	4	4	0	0	0	0	0		1	0	0	0	0	0	0	0
012513	09:52:49	10033	Trial	CongruentRight	14	205	300	1	113	09:52:49	4224185	5	3	2	3	1	3	0	1	3	7	4	0	0	0	0	4	4	0	0	0	0	0		1	0	0	0	0	0	0	0
012513	09:52:49	10033	Trial	ResponseCR	14	0	175	0	113	09:52:49	4225571	5	3	2	3	1	3	0	1	3	7	4	0	0	0	0	4	4	0	0	0	0	0		1	0	0	0	0	0	0	0
012513	09:52:49	10033	Trial	CongruentRight	14	205	322	1	113	09:52:49	4225917	5	3	2	3	1	3	0	1	3	7	4	0	0	0	0	4	4	0	0	0	0	0		1	0	0	0	0	0	0	0
012513	09:52:49	10033	Trial	ResponseIR	14	0	175	0	113	09:52:49	4227277	5	3	2	3	1	3	0	1	3	7	4	0	0	0	0	4	4	0	0	0	0	0		1	0	0	0	0	0	0	0
012513	09:52:49	10033	Trial	IncongruentRight	14	205	472	1	113	09:52:49	4227770	5	3	2	3	1	3	0	1	3	7	4	0	0	0	0	4	4	0	0	0	0	0		1	0	0	0	0	0	0	0
012513	09:52:49	10033	Trial	ResponseCL	14	0	175	0	113	09:52:49	4228983	5	3	2	3	1	3	0	1	3	7	4	0	0	0	0	4	4	0	0	0	0	0		1	0	0	0	0	0	0	0
012513	09:52:49	10033	Trial	CongruentLeft	14	203	286	1	113	09:52:49	4229289	5	3	2	3	1	3	0	1	3	7	4	0	0	0	0	4	4	0	0	0	0	0		1	0	0	0	0	0	0	0
012513	09:52:49	10033	Trial	ResponseIL	14	0	175	0	113	09:52:49	4230689	5	3	2	3	1	3	0	1	3	7	4	0	0	0	0	4	4	0	0	0	0	0		1	0	0	0	0	0	0	0
012513	09:52:49	10033	Trial	IncongruentLeft	14	203	436	1	113	09:52:49	4231142	5	3	2	3	1	3	0	1	3	7	4	0	0	0	0	4	4	0	0	0	0	0		1	0	0	0	0	0	0	0
012513	09:52:49	10033	Trial	ResponseCL	14	0	175	0	113	09:52:49	4232395	5	3	2	3	1	3	0	1	3	7	4	0	0	0	0	4	4	0	0	0	0	0		1	0	0	0	0	0	0	0
012513	09:52:49	10033	Trial	CongruentLeft	14	203	297	1	113	09:52:49	4232715	5	3	2	3	1	3	0	1	3	7	4	0	0	0	0	4	4	0	0	0	0	0		1	0	0	0	0	0	0	0
012513	09:52:49	10033	Trial	ResponseIR	14	0	175	0	113	09:52:49	4234101	5	3	2	3	1	3	0	1	3	7	4	0	0	0	0	4	4	0	0	0	0	0		1	0	0	0	0	0	0	0
012513	09:52:49	10033	Trial	IncongruentRight	14	205	369	1	113	09:52:49	4234487	5	3	2	3	1	3	0	1	3	7	4	0	0	0	0	4	4	0	0	0	0	0		1	0	0	0	0	0	0	0
012513	09:52:49	10033	Trial	ResponseIL	14	0	175	0	113	09:52:49	4235807	5	3	2	3	1	3	0	1	3	7	4	0	0	0	0	4	4	0	0	0	0	0		1	0	0	0	0	0	0	0
012513	09:52:49	10033	Trial	IncongruentLeft	14	203	326	1	113	09:52:49	4236153	5	3	2	3	1	3	0	1	3	7	4	0	0	0	0	4	4	0	0	0	0	0		1	0	0	0	0	0	0	0
012513	09:52:49	10033	Trial	ResponseCR	14	0	175	0	113	09:52:49	4237513	5	3	2	3	1	3	0	1	3	7	4	0	0	0	0	4	4	0	0	0	0	0		1	0	0	0	0	0	0	0
012513	09:52:49	10033	Trial	CongruentRight	14	205	332	1	113	09:52:49	4237873	5	3	2	3	1	3	0	1	3	7	4	0	0	0	0	4	4	0	0	0	0	0		1	0	0	0	0	0	0	0
012513	09:52:49	10033	Trial	ResponseCL	14	0	175	0	113	09:52:49	4239219	5	3	2	3	1	3	0	1	3	7	4	0	0	0	0	4	4	0	0	0	0	0		1	0	0	0	0	0	0	0
012513	09:52:49	10033	Trial	CongruentLeft	14	203	274	1	113	09:52:49	4239512	5	3	2	3	1	3	0	1	3	7	4	0	0	0	0	4	4	0	0	0	0	0		1	0	0	0	0	0	0	0
012513	09:52:49	10033	Trial	ResponseIL	14	0	175	0	113	09:52:49	4240925	5	3	2	3	1	3	0	1	3	7	4	0	0	0	0	4	4	0	0	0	0	0		1	0	0	0	0	0	0	0
012513	09:52:49	10033	Trial	IncongruentLeft	14	203	280	1	113	09:52:49	4241231	5	3	2	3	1	3	0	1	3	7	4	0	0	0	0	4	4	0	0	0	0	0		1	0	0	0	0	0	0	0
012513	09:52:49	10033	Trial	ResponseCL	14	0	175	0	113	09:52:49	4242631	5	3	2	3	1	3	0	1	3	7	4	0	0	0	0	4	4	0	0	0	0	0		1	0	0	0	0	0	0	0
012513	09:52:49	10033	Trial	CongruentLeft	14	203	318	1	113	09:52:49	4242977	5	3	2	3	1	3	0	1	3	7	4	0	0	0	0	4	4	0	0	0	0	0		1	0	0	0	0	0	0	0
012513	09:52:49	10033	Trial	ResponseIR	14	0	175	0	113	09:52:49	4244337	5	3	2	3	1	3	0	1	3	7	4	0	0	0	0	4	4	0	0	0	0	0		1	0	0	0	0	0	0	0
012513	09:52:49	10033	Trial	IncongruentRight	14	205	452	1	113	09:52:49	4244816	5	3	2	3	1	3	0	1	3	7	4	0	0	0	0	4	4	0	0	0	0	0		1	0	0	0	0	0	0	0
012513	09:52:49	10033	Trial	ResponseCR	14	0	175	0	113	09:52:49	4246043	5	3	2	3	1	3	0	1	3	7	4	0	0	0	0	4	4	0	0	0	0	0		1	0	0	0	0	0	0	0
012513	09:52:49	10033	Trial	CongruentRight	14	205	282	1	113	09:52:49	4246349	5	3	2	3	1	3	0	1	3	7	4	0	0	0	0	4	4	0	0	0	0	0		1	0	0	0	0	0	0	0
012513	09:52:49	10033	Trial	ResponseIL	14	0	175	0	113	09:52:49	4247749	5	3	2	3	1	3	0	1	3	7	4	0	0	0	0	4	4	0	0	0	0	0		1	0	0	0	0	0	0	0
012513	09:52:49	10033	Trial	IncongruentLeft	14	203	336	1	113	09:52:49	4248108	5	3	2	3	1	3	0	1	3	7	4	0	0	0	0	4	4	0	0	0	0	0		1	0	0	0	0	0	0	0
012513	09:52:49	10033	Trial	ResponseCL	14	0	175	0	113	09:52:49	4249455	5	3	2	3	1	3	0	1	3	7	4	0	0	0	0	4	4	0	0	0	0	0		1	0	0	0	0	0	0	0
012513	09:52:49	10033	Trial	CongruentLeft	14	203	278	1	113	09:52:49	4249761	5	3	2	3	1	3	0	1	3	7	4	0	0	0	0	4	4	0	0	0	0	0		1	0	0	0	0	0	0	0
012513	09:52:49	10033	Trial	ResponseIR	14	0	175	0	113	09:52:49	4251161	5	3	2	3	1	3	0	1	3	7	4	0	0	0	0	4	4	0	0	0	0	0		1	0	0	0	0	0	0	0
012513	09:52:49	10033	Trial	IncongruentRight	14	205	348	1	113	09:52:49	4251534	5	3	2	3	1	3	0	1	3	7	4	0	0	0	0	4	4	0	0	0	0	0		1	0	0	0	0	0	0	0
012513	09:52:49	10033	Trial	ResponseIL	14	0	175	0	113	09:52:49	4252867	5	3	2	3	1	3	0	1	3	7	4	0	0	0	0	4	4	0	0	0	0	0		1	0	0	0	0	0	0	0
012513	09:52:49	10033	Trial	IncongruentLeft	14	203	370	1	113	09:52:49	4253253	5	3	2	3	1	3	0	1	3	7	4	0	0	0	0	4	4	0	0	0	0	0		1	0	0	0	0	0	0	0
012513	09:52:49	10033	Trial	ResponseCL	14	0	175	0	113	09:52:49	4254573	5	3	2	3	1	3	0	1	3	7	4	0	0	0	0	4	4	0	0	0	0	0		1	0	0	0	0	0	0	0
012513	09:52:49	10033	Trial	CongruentLeft	14	203	312	1	113	09:52:49	4254906	5	3	2	3	1	3	0	1	3	7	4	0	0	0	0	4	4	0	0	0	0	0		1	0	0	0	0	0	0	0
012513	09:52:49	10033	Trial	ResponseIL	14	0	175	0	113	09:52:49	4256279	5	3	2	3	1	3	0	1	3	7	4	0	0	0	0	4	4	0	0	0	0	0		1	0	0	0	0	0	0	0
012513	09:52:49	10033	Trial	IncongruentLeft	14	205	270	0	113	09:52:49	4256572	5	3	2	3	1	3	0	1	3	7	4	0	0	0	0	4	4	0	0	0	0	0		1	0	0	0	0	0	0	0
012513	09:52:49	10033	Trial	ResponseCR	14	0	175	0	113	09:52:49	4257985	5	3	2	3	1	3	0	1	3	7	4	0	0	0	0	4	4	0	0	0	0	0		1	0	0	0	0	0	0	0
012513	09:52:49	10033	Trial	CongruentRight	14	205	228	1	113	09:52:49	4258238	5	3	2	3	1	3	0	1	3	7	4	0	0	0	0	4	4	0	0	0	0	0		1	0	0	0	0	0	0	0
012513	09:52:49	10033	Trial	ResponseCL	14	0	175	0	113	09:52:49	4259690	5	3	2	3	1	3	0	1	3	7	4	0	0	0	0	4	4	0	0	0	0	0		1	0	0	0	0	0	0	0
012513	09:52:49	10033	Trial	CongruentLeft	14	203	266	1	113	09:52:49	4259984	5	3	2	3	1	3	0	1	3	7	4	0	0	0	0	4	4	0	0	0	0	0		1	0	0	0	0	0	0	0
012513	09:52:49	10033	Trial	ResponseIR	14	0	175	0	113	09:52:49	4261396	5	3	2	3	1	3	0	1	3	7	4	0	0	0	0	4	4	0	0	0	0	0		1	0	0	0	0	0	0	0
012513	09:52:49	10033	Trial	IncongruentRight	14	205	352	1	113	09:52:49	4261770	5	3	2	3	1	3	0	1	3	7	4	0	0	0	0	4	4	0	0	0	0	0		1	0	0	0	0	0	0	0
012513	09:52:49	10033	Trial	ResponseCL	14	0	175	0	113	09:52:49	4263102	5	3	2	3	1	3	0	1	3	7	4	0	0	0	0	4	4	0	0	0	0	0		1	0	0	0	0	0	0	0
012513	09:52:49	10033	Trial	CongruentLeft	14	203	278	1	113	09:52:49	4263409	5	3	2	3	1	3	0	1	3	7	4	0	0	0	0	4	4	0	0	0	0	0		1	0	0	0	0	0	0	0
012513	09:52:49	10033	Trial	ResponseCR	14	0	175	0	113	09:52:49	4264808	5	3	2	3	1	3	0	1	3	7	4	0	0	0	0	4	4	0	0	0	0	0		1	0	0	0	0	0	0	0
012513	09:52:49	10033	Trial	CongruentRight	14	205	252	1	113	09:52:49	4265088	5	3	2	3	1	3	0	1	3	7	4	0	0	0	0	4	4	0	0	0	0	0		1	0	0	0	0	0	0	0
012513	09:52:49	10033	Trial	ResponseIL	14	0	175	0	113	09:52:49	4266514	5	3	2	3	1	3	0	1	3	7	4	0	0	0	0	4	4	0	0	0	0	0		1	0	0	0	0	0	0	0
012513	09:52:49	10033	Trial	IncongruentLeft	14	203	290	1	113	09:52:49	4266821	5	3	2	3	1	3	0	1	3	7	4	0	0	0	0	4	4	0	0	0	0	0		1	0	0	0	0	0	0	0
012513	09:52:49	10033	WordsAbsFr6mo	PAbsFr6mo1	16	Abs1	4106	0	113	09:52:49	4281175	5	3	2	3	1	3	0	1	3	7	4	0	0	0	0	4	4	0	0	0	0	0		1	0	0	0	0	0	0	0
012513	09:52:49	10033	WordsAbsFr6mo	AbsFr6mo1	16	Abs2	31073	0	113	09:52:49	4312283	5	3	2	3	1	3	0	1	3	7	4	0	0	0	0	4	4	0	0	0	0	0		1	0	0	0	0	0	0	0
012513	09:52:49	10033	WordsAbsFr6mo	AbsFr6mo2	16	Abs2	12469	0	113	09:52:49	4324784	5	3	2	3	1	3	0	1	3	7	4	0	0	0	0	4	4	0	0	0	0	0		1	0	0	0	0	0	0	0
012513	09:52:49	10033	WordsAbsFr6mo	AbsFr6mo3	16	Abs1	10552	0	113	09:52:49	4335366	5	3	2	3	1	3	0	1	3	7	4	1	0	0	0	4	4	0	0	0	0	0		1	0	0	0	0	0	0	0
012513	09:52:49	10033	Trial2BackFrS	NS	17	0	1000	1	113	09:52:49	4409390	5	3	2	3	1	3	0	1	3	7	4	1	0	0	0	4	4	0	0	0	0	0		1	0	0	0	0	0	0	0
012513	09:52:49	10033	Trial2BackFrS	NS	17	0	1000	1	113	09:52:49	4410896	5	3	2	3	1	3	0	1	3	7	4	1	0	0	0	4	4	0	0	0	0	0		1	0	0	0	0	0	0	0
012513	09:52:49	10033	Trial2BackFrS	NS	17	0	1000	1	113	09:52:49	4412415	5	3	2	3	1	3	0	1	3	7	4	1	0	0	0	4	4	0	0	0	0	0		1	0	0	0	0	0	0	0
012513	09:52:49	10033	Trial2BackFrS	YS	17	0	1000	0	113	09:52:49	4413921	5	3	2	3	1	3	0	1	3	7	4	1	0	0	0	4	4	0	0	0	0	0		1	0	0	0	0	0	0	0
012513	09:52:49	10033	Trial2BackFrS	NS	17	0	1000	1	113	09:52:49	4415441	5	3	2	3	1	3	0	1	3	7	4	1	0	0	0	4	4	0	0	0	0	0		1	0	0	0	0	0	0	0
012513	09:52:49	10033	Trial2BackFrS	NS	17	0	1000	1	113	09:52:49	4416947	5	3	2	3	1	3	0	1	3	7	4	1	0	0	0	4	4	0	0	0	0	0		1	0	0	0	0	0	0	0
012513	09:52:49	10033	Trial2BackFrS	NS	17	0	1000	1	113	09:52:49	4418466	5	3	2	3	1	3	0	1	3	7	4	1	0	0	0	4	4	0	0	0	0	0		1	0	0	0	0	0	0	0
012513	09:52:49	10033	Trial2BackFrS	NS	17	0	1000	1	113	09:52:49	4419972	5	3	2	3	1	3	0	1	3	7	4	1	0	0	0	4	4	0	0	0	0	0		1	0	0	0	0	0	0	0
012513	09:52:49	10033	Trial2BackFrS	YS	17	57	641	1	113	09:52:49	4421132	5	3	2	3	1	3	0	1	3	7	4	1	0	0	0	4	4	0	0	0	0	0		1	0	0	0	0	0	0	0
012513	09:52:49	10033	Trial2BackFrS	NS	17	0	1000	1	113	09:52:49	4422984	5	3	2	3	1	3	0	1	3	7	4	1	0	0	0	4	4	0	0	0	0	0		1	0	0	0	0	0	0	0
012513	09:52:49	10033	Trial2BackFrS	NS	17	0	1000	1	113	09:52:49	4424491	5	3	2	3	1	3	0	1	3	7	4	1	0	0	0	4	4	0	0	0	0	0		1	0	0	0	0	0	0	0
012513	09:52:49	10033	Trial2BackFrS	YS	17	0	1000	0	113	09:52:49	4425996	5	3	2	3	1	3	0	1	3	7	4	1	0	0	0	4	4	0	0	0	0	0		1	0	0	0	0	0	0	0
012513	09:52:49	10033	Trial2BackFrS	NS	17	0	1000	1	113	09:52:49	4427502	5	3	2	3	1	3	0	1	3	7	4	1	0	0	0	4	4	0	0	0	0	0		1	0	0	0	0	0	0	0
012513	09:52:49	10033	Trial2BackFrS	NS	17	0	1000	1	113	09:52:49	4429023	5	3	2	3	1	3	0	1	3	7	4	1	0	0	0	4	4	0	0	0	0	0		1	0	0	0	0	0	0	0
012513	09:52:49	10033	Trial2BackFrS	NS	17	0	1000	1	113	09:52:49	4430528	5	3	2	3	1	3	0	1	3	7	4	1	0	0	0	4	4	0	0	0	0	0		1	0	0	0	0	0	0	0
012513	09:52:49	10033	Trial2BackFrS	YS	17	0	1000	0	113	09:52:49	4432034	5	3	2	3	1	3	0	1	3	7	4	1	0	0	0	4	4	0	0	0	0	0		1	0	0	0	0	0	0	0
012513	09:52:49	10033	Trial2BackFrS	NS	17	0	1000	1	113	09:52:49	4433540	5	3	2	3	1	3	0	1	3	7	4	1	0	0	0	4	4	0	0	0	0	0		1	0	0	0	0	0	0	0
012513	09:52:49	10033	Trial2BackFrS	NS	17	0	1000	1	113	09:52:49	4435046	5	3	2	3	1	3	0	1	3	7	4	1	0	0	0	4	4	0	0	0	0	0		1	0	0	0	0	0	0	0
012513	09:52:49	10033	Trial2BackFrS	NS	17	0	1000	1	113	09:52:49	4436552	5	3	2	3	1	3	0	1	3	7	4	1	0	0	0	4	4	0	0	0	0	0		1	0	0	0	0	0	0	0
012513	09:52:49	10033	Trial2BackFrS	NS	17	0	1000	1	113	09:52:49	4438072	5	3	2	3	1	3	0	1	3	7	4	1	0	0	0	4	4	0	0	0	0	0		1	0	0	0	0	0	0	0
012513	09:52:49	10033	Trial2BackFrS	YS	17	57	557	1	113	09:52:49	4439138	5	3	2	3	1	3	0	1	3	7	4	1	0	0	0	4	4	0	0	0	0	0		1	0	0	0	0	0	0	0
012513	09:52:49	10033	Trial2BackFrS	NS	17	0	1000	1	113	09:52:49	4441084	5	3	2	3	1	3	0	1	3	7	4	1	0	0	0	4	4	0	0	0	0	0		1	0	0	0	0	0	0	0
012513	09:52:49	10033	Trial2BackFrS	NS	17	0	1000	1	113	09:52:49	4442590	5	3	2	3	1	3	0	1	3	7	4	1	0	0	0	4	4	0	0	0	0	0		1	0	0	0	0	0	0	0
012513	09:52:49	10033	Trial2BackFrS	NS	17	0	1000	1	113	09:52:49	4444096	5	3	2	3	1	3	0	1	3	7	4	1	0	0	0	4	4	0	0	0	0	0		1	0	0	0	0	0	0	0
012513	09:52:49	10033	Trial2BackFrS	NS	17	0	1000	1	113	09:52:49	4445602	5	3	2	3	1	3	0	1	3	7	4	1	0	0	0	4	4	0	0	0	0	0		1	0	0	0	0	0	0	0
012513	09:52:49	10033	Trial2BackFrS	NS	17	0	1000	1	113	09:52:49	4447108	5	3	2	3	1	3	0	1	3	7	4	1	0	0	0	4	4	0	0	0	0	0		1	0	0	0	0	0	0	0
012513	09:52:49	10033	Trial2BackFrS	NS	17	0	1000	1	113	09:52:49	4448614	5	3	2	3	1	3	0	1	3	7	4	1	0	0	0	4	4	0	0	0	0	0		1	0	0	0	0	0	0	0
012513	09:52:49	10033	Trial2BackFrS	NS	17	0	1000	1	113	09:52:49	4450120	5	3	2	3	1	3	0	1	3	7	4	1	0	0	0	4	4	0	0	0	0	0		1	0	0	0	0	0	0	0
012513	09:52:49	10033	Trial2BackFrS	NS	17	57	604	0	113	09:52:49	4451239	5	3	2	3	1	3	0	1	3	7	4	1	0	0	0	4	4	0	0	0	0	0		1	0	0	0	0	0	0	0
012513	09:52:49	10033	Trial2BackFrS	NS	17	0	1000	1	113	09:52:49	4453132	5	3	2	3	1	3	0	1	3	7	4	1	0	0	0	4	4	0	0	0	0	0		1	0	0	0	0	0	0	0
012513	09:52:49	10033	Trial2BackFrS	NS	17	0	1000	1	113	09:52:49	4454638	5	3	2	3	1	3	0	1	3	7	4	1	0	0	0	4	4	0	0	0	0	0		1	0	0	0	0	0	0	0
012513	09:52:49	10033	Trial2BackFrS	YS	17	0	1000	0	113	09:52:49	4456158	5	3	2	3	1	3	0	1	3	7	4	1	0	0	0	4	4	0	0	0	0	0		1	0	0	0	0	0	0	0
012513	09:52:49	10033	Trial2BackFrS	NS	17	0	1000	1	113	09:52:49	4457664	5	3	2	3	1	3	0	1	3	7	4	1	0	0	0	4	4	0	0	0	0	0		1	0	0	0	0	0	0	0
012513	09:52:49	10033	Trial2BackFrS	NS	17	0	1000	1	113	09:52:49	4459170	5	3	2	3	1	3	0	1	3	7	4	1	0	0	0	4	4	0	0	0	0	0		1	0	0	0	0	0	0	0
012513	09:52:49	10033	Trial2BackFrS	NS	17	0	1000	1	113	09:52:49	4460676	5	3	2	3	1	3	0	1	3	7	4	1	0	0	0	4	4	0	0	0	0	0		1	0	0	0	0	0	0	0
012513	09:52:49	10033	Trial2BackFrS	YS	17	57	704	1	113	09:52:49	4461889	5	3	2	3	1	3	0	1	3	7	4	1	0	0	0	4	4	0	0	0	0	0		1	0	0	0	0	0	0	0
012513	09:52:49	10033	Trial2BackFrS	NS	17	0	1000	1	113	09:52:49	4463688	5	3	2	3	1	3	0	1	3	7	4	1	0	0	0	4	4	0	0	0	0	0		1	0	0	0	0	0	0	0
012513	09:52:49	10033	Trial2BackFrS	NS	17	0	1000	1	113	09:52:49	4465194	5	3	2	3	1	3	0	1	3	7	4	1	0	0	0	4	4	0	0	0	0	0		1	0	0	0	0	0	0	0
012513	09:52:49	10033	Trial2BackFrS	NS	17	0	1000	1	113	09:52:49	4466713	5	3	2	3	1	3	0	1	3	7	4	1	0	0	0	4	4	0	0	0	0	0		1	0	0	0	0	0	0	0
012513	09:52:49	10033	Trial2BackFrS	NS	17	0	1000	1	113	09:52:49	4468219	5	3	2	3	1	3	0	1	3	7	4	1	0	0	0	4	4	0	0	0	0	0		1	0	0	0	0	0	0	0
012513	09:52:49	10033	Trial2BackFrS	NS	17	0	1000	1	113	09:52:49	4469739	5	3	2	3	1	3	0	1	3	7	4	1	0	0	0	4	4	0	0	0	0	0		1	0	0	0	0	0	0	0
012513	09:52:49	10033	Trial2BackFrS	NS	17	0	1000	1	113	09:52:49	4471245	5	3	2	3	1	3	0	1	3	7	4	1	0	0	0	4	4	0	0	0	0	0		1	0	0	0	0	0	0	0
012513	09:52:49	10033	Trial2BackFrS	NS	17	0	1000	1	113	09:52:49	4472751	5	3	2	3	1	3	0	1	3	7	4	1	0	0	0	4	4	0	0	0	0	0		1	0	0	0	0	0	0	0
012513	09:52:49	10033	Trial2BackFrS	YS	17	0	1000	0	113	09:52:49	4474257	5	3	2	3	1	3	0	1	3	7	4	1	0	0	0	4	4	0	0	0	0	0		1	0	0	0	0	0	0	0
012513	09:52:49	10033	Trial2BackFrS	NS	17	0	1000	1	113	09:52:49	4475763	5	3	2	3	1	3	0	1	3	7	4	1	0	0	0	4	4	0	0	0	0	0		1	0	0	0	0	0	0	0
012513	09:52:49	10033	Trial2BackFrS	NS	17	0	1000	1	113	09:52:49	4477269	5	3	2	3	1	3	0	1	3	7	4	1	0	0	0	4	4	0	0	0	0	0		1	0	0	0	0	0	0	0
012513	09:52:49	10033	Trial2BackFrS	NS	17	57	991	0	113	09:52:49	4478775	5	3	2	3	1	3	0	1	3	7	4	1	0	0	0	4	4	0	0	0	0	0		1	0	0	0	0	0	0	0
012513	09:52:49	10033	Trial2BackFrS	NS	17	0	1000	1	113	09:52:49	4480281	5	3	2	3	1	3	0	1	3	7	4	1	0	0	0	4	4	0	0	0	0	0		1	0	0	0	0	0	0	0
012513	09:52:49	10033	Trial2BackFrS	YS	17	57	939	1	113	09:52:49	4481734	5	3	2	3	1	3	0	1	3	7	4	1	0	0	0	4	4	0	0	0	0	0		1	0	0	0	0	0	0	0
012513	09:52:49	10033	Trial2BackFrS	NS	17	0	1000	1	113	09:52:49	4483293	5	3	2	3	1	3	0	1	3	7	4	1	0	0	0	4	4	0	0	0	0	0		1	0	0	0	0	0	0	0
012513	09:52:49	10033	Trial2BackFrS	NS	17	0	1000	1	113	09:52:49	4484799	5	3	2	3	1	3	0	1	3	7	4	1	0	0	0	4	4	0	0	0	0	0		1	0	0	0	0	0	0	0
012513	09:52:49	10033	Trial2BackFrS	NS	17	0	1000	1	113	09:52:49	4486319	5	3	2	3	1	3	0	1	3	7	4	1	0	0	0	4	4	0	0	0	0	0		1	0	0	0	0	0	0	0
012513	09:52:49	10033	Trial2BackFrS	NS	17	0	1000	1	113	09:52:49	4487825	5	3	2	3	1	3	0	1	3	7	4	1	0	0	0	4	4	0	0	0	0	0		1	0	0	0	0	0	0	0
012513	09:52:49	10033	Trial2BackFrS	NS	17	0	1000	1	113	09:52:49	4489331	5	3	2	3	1	3	0	1	3	7	4	1	0	0	0	4	4	0	0	0	0	0		1	0	0	0	0	0	0	0
012513	09:52:49	10033	Trial2BackFrS	NS	17	0	1000	1	113	09:52:49	4490837	5	3	2	3	1	3	0	1	3	7	4	1	0	0	0	4	4	0	0	0	0	0		1	0	0	0	0	0	0	0
012513	09:52:49	10033	Trial2BackFrS	YS	17	0	1000	0	113	09:52:49	4492343	5	3	2	3	1	3	0	1	3	7	4	1	0	0	0	4	4	0	0	0	0	0		1	0	0	0	0	0	0	0
012513	09:52:49	10033	Trial2BackFrS	NS	17	0	1000	1	113	09:52:49	4493862	5	3	2	3	1	3	0	1	3	7	4	1	0	0	0	4	4	0	0	0	0	0		1	0	0	0	0	0	0	0
012513	09:52:49	10033	Trial2BackFrS	NS	17	0	1000	1	113	09:52:49	4495368	5	3	2	3	1	3	0	1	3	7	4	1	0	0	0	4	4	0	0	0	0	0		1	0	0	0	0	0	0	0
012513	09:52:49	10033	Trial2BackFrS	NS	17	0	1000	1	113	09:52:49	4496888	5	3	2	3	1	3	0	1	3	7	4	1	0	0	0	4	4	0	0	0	0	0		1	0	0	0	0	0	0	0
012513	09:52:49	10033	Trial2BackFrS	NS	17	0	1000	1	113	09:52:49	4498394	5	3	2	3	1	3	0	1	3	7	4	1	0	0	0	4	4	0	0	0	0	0		1	0	0	0	0	0	0	0
012513	09:52:49	10033	Trial2BackFrS	NS	17	0	1000	1	113	09:52:49	4499900	5	3	2	3	1	3	0	1	3	7	4	1	0	0	0	4	4	0	0	0	0	0		1	0	0	0	0	0	0	0
012513	09:52:49	10033	Trial2BackFrS	NS	17	57	919	0	113	09:52:49	4501339	5	3	2	3	1	3	0	1	3	7	4	1	0	0	0	4	4	0	0	0	0	0		1	0	0	0	0	0	0	0
012513	09:52:49	10033	Trial2BackFrS	NS	17	0	1000	1	113	09:52:49	4502912	5	3	2	3	1	3	0	1	3	7	4	1	0	0	0	4	4	0	0	0	0	0		1	0	0	0	0	0	0	0
012513	09:52:49	10033	Trial2BackFrS	YS	17	0	1000	0	113	09:52:49	4504418	5	3	2	3	1	3	0	1	3	7	4	1	0	0	0	4	4	0	0	0	0	0		1	0	0	0	0	0	0	0
012513	09:52:49	10033	Trial2BackFrS	NS	17	0	1000	1	113	09:52:49	4505924	5	3	2	3	1	3	0	1	3	7	4	1	0	0	0	4	4	0	0	0	0	0		1	0	0	0	0	0	0	0
012513	09:52:49	10033	Trial2BackFrS	NS	17	0	1000	1	113	09:52:49	4507430	5	3	2	3	1	3	0	1	3	7	4	1	0	0	0	4	4	0	0	0	0	0		1	0	0	0	0	0	0	0
012513	09:52:49	10033	Trial2BackFrS	NS	17	0	1000	1	113	09:52:49	4508936	5	3	2	3	1	3	0	1	3	7	4	1	0	0	0	4	4	0	0	0	0	0		1	0	0	0	0	0	0	0
012513	09:52:49	10033	Trial2BackFrS	NS	17	0	1000	1	113	09:52:49	4510442	5	3	2	3	1	3	0	1	3	7	4	1	0	0	0	4	4	0	0	0	0	0		1	0	0	0	0	0	0	0
012513	09:52:49	10033	Trial2BackFrS	YS	17	0	1000	0	113	09:52:49	4511962	5	3	2	3	1	3	0	1	3	7	4	1	0	0	0	4	4	0	0	0	0	0		1	0	0	0	0	0	0	0
012513	09:52:49	10033	Trial2BackFrS	NS	17	0	1000	1	113	09:52:49	4513468	5	3	2	3	1	3	0	1	3	7	4	1	0	0	0	4	4	0	0	0	0	0		1	0	0	0	0	0	0	0
012513	09:52:49	10033	Trial2BackFrS	NS	17	0	1000	1	113	09:52:49	4514974	5	3	2	3	1	3	0	1	3	7	4	1	0	0	0	4	4	0	0	0	0	0		1	0	0	0	0	0	0	0
012513	09:52:49	10033	Trial2BackFrS	YS	17	0	1000	0	113	09:52:49	4516480	5	3	2	3	1	3	0	1	3	7	4	1	0	0	0	4	4	0	0	0	0	0		1	0	0	0	0	0	0	0
012513	09:52:49	10033	Trial2BackFrS	NS	17	0	1000	1	113	09:52:49	4517986	5	3	2	3	1	3	0	1	3	7	4	1	0	0	0	4	4	0	0	0	0	0		1	0	0	0	0	0	0	0
012513	09:52:49	10033	Trial2BackFrS	NS	17	0	1000	1	113	09:52:49	4519492	5	3	2	3	1	3	0	1	3	7	4	1	0	0	0	4	4	0	0	0	0	0		1	0	0	0	0	0	0	0
012513	09:52:49	10033	Trial2BackFrS	NS	17	0	1000	1	113	09:52:49	4520998	5	3	2	3	1	3	0	1	3	7	4	1	0	0	0	4	4	0	0	0	0	0		1	0	0	0	0	0	0	0
012513	09:52:49	10033	Trial2BackFrS	NS	17	0	1000	1	113	09:52:49	4522517	5	3	2	3	1	3	0	1	3	7	4	1	0	0	0	4	4	0	0	0	0	0		1	0	0	0	0	0	0	0
012513	09:52:49	10033	Trial2BackFrS	NS	17	0	1000	1	113	09:52:49	4524023	5	3	2	3	1	3	0	1	3	7	4	1	0	0	0	4	4	0	0	0	0	0		1	0	0	0	0	0	0	0
012513	09:52:49	10033	Trial2BackFrS	NS	17	0	1000	1	113	09:52:49	4525529	5	3	2	3	1	3	0	1	3	7	4	1	0	0	0	4	4	0	0	0	0	0		1	0	0	0	0	0	0	0
012513	09:52:49	10033	Trial2BackFrS	YS	17	0	1000	0	113	09:52:49	4527035	5	3	2	3	1	3	0	1	3	7	4	1	0	0	0	4	4	0	0	0	0	0		1	0	0	0	0	0	0	0
012513	09:52:49	10033	Trial2BackFrS	NS	17	0	1000	1	113	09:52:49	4528555	5	3	2	3	1	3	0	1	3	7	4	1	0	0	0	4	4	0	0	0	0	0		1	0	0	0	0	0	0	0
012513	09:52:49	10033	Trial2BackFrS	NS	17	0	1000	1	113	09:52:49	4530061	5	3	2	3	1	3	0	1	3	7	4	1	0	0	0	4	4	0	0	0	0	0		1	0	0	0	0	0	0	0
012513	09:52:49	10033	Trial2BackFrS	NS	17	0	1000	1	113	09:52:49	4531580	5	3	2	3	1	3	0	1	3	7	4	1	0	0	0	4	4	0	0	0	0	0		1	0	0	0	0	0	0	0
012513	09:52:49	10033	Trial2BackFrS	NS	17	0	1000	1	113	09:52:49	4533087	5	3	2	3	1	3	0	1	3	7	4	1	0	0	0	4	4	0	0	0	0	0		1	0	0	0	0	0	0	0
012513	09:52:49	10033	Trial2BackFrS	YS	17	0	1000	0	113	09:52:49	4534592	5	3	2	3	1	3	0	1	3	7	4	1	0	0	0	4	4	0	0	0	0	0		1	0	0	0	0	0	0	0
012513	09:52:49	10033	Trial2BackFrS	NS	17	0	1000	1	113	09:52:49	4536098	5	3	2	3	1	3	0	1	3	7	4	1	0	0	0	4	4	0	0	0	0	0		1	0	0	0	0	0	0	0
012513	09:52:49	10033	Trial2BackFrS	NS	17	0	1000	1	113	09:52:49	4537605	5	3	2	3	1	3	0	1	3	7	4	1	0	0	0	4	4	0	0	0	0	0		1	0	0	0	0	0	0	0
012513	09:52:49	10033	Trial2BackFrS	NS	17	0	1000	1	113	09:52:49	4539111	5	3	2	3	1	3	0	1	3	7	4	1	0	0	0	4	4	0	0	0	0	0		1	0	0	0	0	0	0	0
012513	09:52:49	10033	Trial2BackFrS	NS	17	0	1000	1	113	09:52:49	4540617	5	3	2	3	1	3	0	1	3	7	4	1	0	0	0	4	4	0	0	0	0	0		1	0	0	0	0	0	0	0
012513	09:52:49	10033	Trial2BackFrS	YS	17	0	1000	0	113	09:52:49	4542136	5	3	2	3	1	3	0	1	3	7	4	1	0	0	0	4	4	0	0	0	0	0		1	0	0	0	0	0	0	0
012513	09:52:49	10033	Trial2BackFrS	NS	17	0	1000	1	113	09:52:49	4543642	5	3	2	3	1	3	0	1	3	7	4	1	0	0	0	4	4	0	0	0	0	0		1	0	0	0	0	0	0	0
012513	09:52:49	10033	Trial2BackFrS	NS	17	0	1000	1	113	09:52:49	4545148	5	3	2	3	1	3	0	1	3	7	4	1	0	0	0	4	4	0	0	0	0	0		1	0	0	0	0	0	0	0
012513	09:52:49	10033	Trial2BackFrS	YS	17	0	1000	0	113	09:52:49	4546654	5	3	2	3	1	3	0	1	3	7	4	1	0	0	0	4	4	0	0	0	0	0		1	0	0	0	0	0	0	0
012513	09:52:49	10033	Trial2BackFrS	NS	17	0	1000	1	113	09:52:49	4548160	5	3	2	3	1	3	0	1	3	7	4	1	0	0	0	4	4	0	0	0	0	0		1	0	0	0	0	0	0	0
012513	09:52:49	10033	Trial2BackFrS	NS	17	0	1000	1	113	09:52:49	4549666	5	3	2	3	1	3	0	1	3	7	4	1	0	0	0	4	4	0	0	0	0	0		1	0	0	0	0	0	0	0
012513	09:52:49	10033	Trial2BackFrS	NS	17	0	1000	1	113	09:52:49	4551172	5	3	2	3	1	3	0	1	3	7	4	1	0	0	0	4	4	0	0	0	0	0		1	0	0	0	0	0	0	0
012513	09:52:49	10033	Trial2BackFrS	NS	17	0	1000	1	113	09:52:49	4552678	5	3	2	3	1	3	0	1	3	7	4	1	0	0	0	4	4	0	0	0	0	0		1	0	0	0	0	0	0	0
012513	09:52:49	10033	Trial2BackFrS	NS	17	0	1000	1	113	09:52:49	4554185	5	3	2	3	1	3	0	1	3	7	4	1	0	0	0	4	4	0	0	0	0	0		1	0	0	0	0	0	0	0
012513	09:52:49	10033	Trial2BackFrS	NS	17	0	1000	1	113	09:52:49	4555691	5	3	2	3	1	3	0	1	3	7	4	1	0	0	0	4	4	0	0	0	0	0		1	0	0	0	0	0	0	0
012513	09:52:49	10033	Trial2BackFrS	NS	17	0	1000	1	113	09:52:49	4557197	5	3	2	3	1	3	0	1	3	7	4	1	0	0	0	4	4	0	0	0	0	0		1	0	0	0	0	0	0	0
012513	09:52:49	10033	Trial2BackFrS	NS	17	0	1000	1	113	09:52:49	4558716	5	3	2	3	1	3	0	1	3	7	4	1	0	0	0	4	4	0	0	0	0	0		1	0	0	0	0	0	0	0
012513	09:52:49	10033	Trial2BackFrS	YS	17	0	1000	0	113	09:52:49	4560222	5	3	2	3	1	3	0	1	3	7	4	1	0	0	0	4	4	0	0	0	0	0		1	0	0	0	0	0	0	0
012513	09:52:49	10033	Trial2BackFrS	NS	17	0	1000	1	113	09:52:49	4561728	5	3	2	3	1	3	0	1	3	7	4	1	0	0	0	4	4	0	0	0	0	0		1	0	0	0	0	0	0	0
012513	09:52:49	10033	Trial2BackFrS	NS	17	0	1000	1	113	09:52:49	4563234	5	3	2	3	1	3	0	1	3	7	4	1	0	0	0	4	4	0	0	0	0	0		1	0	0	0	0	0	0	0
012513	09:52:49	10033	Trial2BackFrS	NS	17	0	1000	1	113	09:52:49	4564740	5	3	2	3	1	3	0	1	3	7	4	1	0	0	0	4	4	0	0	0	0	0		1	0	0	0	0	0	0	0
012513	09:52:49	10033	Trial2BackFrS	NS	17	0	1000	1	113	09:52:49	4566260	5	3	2	3	1	3	0	1	3	7	4	1	0	0	0	4	4	0	0	0	0	0		1	0	0	0	0	0	0	0
012513	09:52:49	10033	Trial2BackFrS	NS	17	0	1000	1	113	09:52:49	4567766	5	3	2	3	1	3	0	1	3	7	4	1	0	0	0	4	4	0	0	0	0	0		1	0	0	0	0	0	0	0
012513	09:52:49	10033	Trial2BackFrS	NS	17	0	1000	1	113	09:52:49	4569272	5	3	2	3	1	3	0	1	3	7	4	1	0	0	0	4	4	0	0	0	0	0		1	0	0	0	0	0	0	0
012513	09:52:49	10033	Trial2BackFrS	NS	17	0	1000	1	113	09:52:49	4570791	5	3	2	3	1	3	0	1	3	7	4	1	0	0	0	4	4	0	0	0	0	0		1	0	0	0	0	0	0	0
012513	09:52:49	10033	Trial2BackFrS	YS	17	0	1000	0	113	09:52:49	4572297	5	3	2	3	1	3	0	1	3	7	4	1	0	0	0	4	4	0	0	0	0	0		1	0	0	0	0	0	0	0
012513	09:52:49	10033	Trial2BackFrS	NS	17	0	1000	1	113	09:52:49	4573817	5	3	2	3	1	3	0	1	3	7	4	1	0	0	0	4	4	0	0	0	0	0		1	0	0	0	0	0	0	0
012513	09:52:49	10033	Trial2BackFrS	NS	17	0	1000	1	113	09:52:49	4575323	5	3	2	3	1	3	0	1	3	7	4	1	0	0	0	4	4	0	0	0	0	0		1	0	0	0	0	0	0	0
012513	09:52:49	10033	Trial2BackFrS	NS	17	0	1000	1	113	09:52:49	4576829	5	3	2	3	1	3	0	1	3	7	4	1	0	0	0	4	4	0	0	0	0	0		1	0	0	0	0	0	0	0
012513	09:52:49	10033	Trial2BackFrS	NS	17	0	1000	1	113	09:52:49	4578335	5	3	2	3	1	3	0	1	3	7	4	1	0	0	0	4	4	0	0	0	0	0		1	0	0	0	0	0	0	0
012513	09:52:49	10033	Trial2BackFrS	NS	17	0	1000	1	113	09:52:49	4579841	5	3	2	3	1	3	0	1	3	7	4	1	0	0	0	4	4	0	0	0	0	0		1	0	0	0	0	0	0	0
012513	09:52:49	10033	Trial2BackFrS	NS	17	0	1000	1	113	09:52:49	4581360	5	3	2	3	1	3	0	1	3	7	4	1	0	0	0	4	4	0	0	0	0	0		1	0	0	0	0	0	0	0
012513	09:52:49	10033	Trial2BackFrS	NS	17	0	1000	1	113	09:52:49	4582866	5	3	2	3	1	3	0	1	3	7	4	1	0	0	0	4	4	0	0	0	0	0		1	0	0	0	0	0	0	0
012513	09:52:49	10033	Trial2BackFrS	NS	17	0	1000	1	113	09:52:49	4584372	5	3	2	3	1	3	0	1	3	7	4	1	0	0	0	4	4	0	0	0	0	0		1	0	0	0	0	0	0	0
012513	09:52:49	10033	Trial2BackFrS	NS	17	0	1000	1	113	09:52:49	4585878	5	3	2	3	1	3	0	1	3	7	4	1	0	0	0	4	4	0	0	0	0	0		1	0	0	0	0	0	0	0
012513	09:52:49	10033	Trial2BackFrS	YS	17	0	1000	0	113	09:52:49	4587384	5	3	2	3	1	3	0	1	3	7	4	1	0	0	0	4	4	0	0	0	0	0		1	0	0	0	0	0	0	0
012513	09:52:49	10033	Trial2BackFrS	NS	17	0	1000	1	113	09:52:49	4588904	5	3	2	3	1	3	0	1	3	7	4	1	0	0	0	4	4	0	0	0	0	0		1	0	0	0	0	0	0	0
012513	09:52:49	10033	ClockFr6mo	ClockFr6mo	19	Clock1	12257	0	113	09:52:49	4601272	5	3	2	3	1	3	0	1	3	7	4	1	1	0	0	4	4	0	0	0	0	0		1	0	0	0	0	0	0	0
012513	09:52:49	10033	ClockFr6mo	ClockFr6mo	19	Clock11	483	0	113	09:52:49	4601805	5	3	2	3	1	3	0	1	3	7	4	1	1	1	0	4	4	0	0	0	0	0		1	0	0	0	0	0	0	0
012513	09:52:49	10033	ClockFr6mo	ClockFr6mo	19	Clock111	446	0	113	09:52:49	4602299	5	3	2	3	1	3	0	1	3	7	4	1	1	1	1	4	4	0	0	0	0	0		1	0	0	0	0	0	0	0
012513	09:52:49	10033	ClockFr6mo	ClockFr6mo	19	Clockdone	1201	0	113	09:52:49	4603551	5	3	2	3	1	3	0	1	3	7	4	1	1	1	1	4	4	0	0	0	0	0		1	0	0	0	0	0	0	0
012513	09:52:49	10033	FASFrVF6mo	StopFrVF6mo	20	9	8743	0	113	09:52:49	4721665	5	3	2	3	1	3	0	1	3	7	4	1	1	1	1	4	4	0	0	0	0	0		1	0	0	0	0	0	0	0
012513	09:52:49	10033	practiceTOLFR	choice	20	R	13698	0	113	09:52:49	4844201	5	3	2	3	1	3	0	1	3	7	4	1	1	1	1	4	4	0	1	2	0	-2	R	0	0	0	13783	0	0	4830417	4844200
012513	09:52:49	10033	practiceTOLFR	choice	20	B	1210	0	113	09:52:49	4851305	5	3	2	3	1	3	0	1	3	7	4	1	1	1	1	4	4	0	1	2	1	-1	R3B	0	0	0	13783	0	0	4850037	4851304
012513	09:52:49	10033	practiceTOLFR	feedbackFR	20	0	2000	0	113	09:52:49	4857803	5	3	2	3	1	3	0	1	3	7	4	1	1	1	1	4	4	0	1	2	2	0	R3B1	1	3	3	13783	11565	25348	4850037	4851304
012513	09:52:49	10033	testTOLFR	choice	20	R	5942	0	113	09:52:49	4870552	5	3	2	3	1	3	0	1	3	7	4	1	1	1	1	4	4	2	1	2	0	-2	R	0	0	0	6017	0	0	4864535	4870552
012513	09:52:49	10033	testTOLFR	choice	20	B	1057	0	113	09:52:49	4876528	5	3	2	3	1	3	0	1	3	7	4	1	1	1	1	4	4	2	1	2	1	-1	R1B	0	0	0	6017	0	0	4875420	4876528
012513	09:52:49	10033	testTOLFR	choice	20	R	1995	0	113	09:52:49	4881344	5	3	2	3	1	3	0	1	3	7	4	1	1	1	1	4	4	2	1	2	2	0	R1B3R	0	0	0	6017	0	0	4879300	4881343
012513	09:52:49	10033	testTOLFR	feedbackFR	20	0	2000	0	113	09:52:49	4886570	5	3	2	3	1	3	0	1	3	7	4	1	1	1	1	4	4	2	1	2	3	1	R1B3R2	1	0	0	6017	13981	19998	4879300	4881343
012513	09:52:49	10033	testTOLFR	choice	20	B	4006	0	113	09:52:49	4891632	5	3	2	3	1	3	0	1	3	7	4	1	1	1	1	4	4	2	2	2	0	-2	B	0	0	0	4049	0	0	4887582	4891631
012513	09:52:49	10033	testTOLFR	choice	20	R	1310	0	113	09:52:49	4895479	5	3	2	3	1	3	0	1	3	7	4	1	1	1	1	4	4	2	2	2	1	-1	B3R	0	0	0	4049	0	0	4894116	4895479
012513	09:52:49	10033	testTOLFR	feedbackFR	20	0	2000	0	113	09:52:49	4900040	5	3	2	3	1	3	0	1	3	7	4	1	1	1	1	4	4	2	2	2	2	0	B3R2	1	2	2	4049	6373	10422	4894116	4895479
012513	09:52:49	10033	testTOLFR	choice	20	B	19973	0	113	09:52:49	4921087	5	3	2	3	1	3	0	1	3	7	4	1	1	1	1	4	4	4	1	3	0	-3	B	0	0	2	20034	0	0	4901053	4921087
012513	09:52:49	10033	testTOLFR	choice	20	R	1022	0	113	09:52:49	4924607	5	3	2	3	1	3	0	1	3	7	4	1	1	1	1	4	4	4	1	3	1	-2	B3R	0	0	2	20034	0	0	4923539	4924607
012513	09:52:49	10033	testTOLFR	choice	20	B	1783	0	113	09:52:49	4928367	5	3	2	3	1	3	0	1	3	7	4	1	1	1	1	4	4	4	1	3	2	-1	B3R2B	0	0	2	20034	0	0	4926532	4928367
012513	09:52:49	10033	testTOLFR	feedbackFR	20	0	2000	0	113	09:52:49	4932468	5	3	2	3	1	3	0	1	3	7	4	1	1	1	1	4	4	4	1	3	3	0	B3R2B2	1	3	5	20034	9348	29382	4926532	4928367
012513	09:52:49	10033	testTOLFR	choice	20	R	3316	0	113	09:52:49	4936871	5	3	2	3	1	3	0	1	3	7	4	1	1	1	1	4	4	7	1	4	0	-4	R	0	0	5	3388	0	0	4933482	4936870
012513	09:52:49	10033	testTOLFR	choice	20	G	855	0	113	09:52:49	4941927	5	3	2	3	1	3	0	1	3	7	4	1	1	1	1	4	4	7	1	4	1	-3	R2G	0	0	5	3388	0	0	4941019	4941926
012513	09:52:49	10033	testTOLFR	choice	20	R	3126	0	113	09:52:49	4947423	5	3	2	3	1	3	0	1	3	7	4	1	1	1	1	4	4	7	1	4	2	-2	R2G3R	0	0	5	3388	0	0	4944251	4947422
012513	09:52:49	10033	testTOLFR	choice	20	B	745	0	113	09:52:49	4952318	5	3	2	3	1	3	0	1	3	7	4	1	1	1	1	4	4	7	1	4	3	-1	R2G3R1B	0	0	5	3388	0	0	4951523	4952318
012513	09:52:49	10033	testTOLFR	feedbackFR	20	0	2000	0	113	09:52:49	4955894	5	3	2	3	1	3	0	1	3	7	4	1	1	1	1	4	4	7	1	4	4	0	R2G3R1B1	1	3	8	3388	16989	20377	4951523	4952318
012513	09:52:49	10033	testTOLFR	choice	20	R	4019	0	113	09:52:49	4960990	5	3	2	3	1	3	0	1	3	7	4	1	1	1	1	4	4	10	1	5	0	-5	R	0	0	8	4084	0	0	4956906	4960990
012513	09:52:49	10033	testTOLFR	choice	20	G	2019	0	113	09:52:49	4970839	5	3	2	3	1	3	0	1	3	7	4	1	1	1	1	4	4	10	1	5	1	-4	R3G	0	0	8	4084	0	0	4968771	4970838
012513	09:52:49	10033	testTOLFR	choice	20	R	780	0	113	09:52:49	4982102	5	3	2	3	1	3	0	1	3	7	4	1	1	1	1	4	4	10	1	5	2	-3	R3G2R	0	0	8	4084	0	0	4981274	4982102
012513	09:52:49	10033	testTOLFR	choice	20	G	1318	0	113	09:52:49	4985878	5	3	2	3	1	3	0	1	3	7	4	1	1	1	1	4	4	10	1	5	3	-2	R3G2R1G	0	0	8	4084	0	0	4984506	4985878
012513	09:52:49	10033	testTOLFR	choice	20	B	895	0	113	09:52:49	4990174	5	3	2	3	1	3	0	1	3	7	4	1	1	1	1	4	4	10	1	5	4	-1	R3G2R1G3B	0	0	8	4084	0	0	4989226	4990173
012513	09:52:49	10033	testTOLFR	choice	20	G	763	0	113	09:52:49	4993134	5	3	2	3	1	3	0	1	3	7	4	1	1	1	1	4	4	10	1	5	5	0	R3G2R1G3B1G	0	0	8	4084	0	0	4992322	4993133
012513	09:52:49	10033	testTOLFR	feedbackFR	20	0	2000	0	113	09:52:49	4997216	5	3	2	3	1	3	0	1	3	7	4	1	1	1	1	4	4	10	1	5	6	1	R3G2R1G3B1G1	1	0	8	4084	34188	38272	4992322	4993133
012513	09:52:49	10033	testTOLFR	choice	20	R	3506	0	113	09:52:49	5001781	5	3	2	3	1	3	0	1	3	7	4	1	1	1	1	4	4	10	2	5	0	-5	R	0	0	8	3551	0	0	4998230	5001781
012513	09:52:49	10033	testTOLFR	choice	20	G	874	0	113	09:52:49	5010077	5	3	2	3	1	3	0	1	3	7	4	1	1	1	1	4	4	10	2	5	1	-4	R2G	0	0	8	3551	0	0	5009154	5010077
012513	09:52:49	10033	testTOLFR	choice	20	R	955	0	113	09:52:49	5013357	5	3	2	3	1	3	0	1	3	7	4	1	1	1	1	4	4	10	2	5	2	-3	R2G3R	0	0	8	3551	0	0	5012354	5013357
012513	09:52:49	10033	testTOLFR	choice	20	B	726	0	113	09:52:49	5015621	5	3	2	3	1	3	0	1	3	7	4	1	1	1	1	4	4	10	2	5	3	-2	R2G3R1B	0	0	8	3551	0	0	5014841	5015621
012513	09:52:49	10033	testTOLFR	choice	20	G	1175	0	113	09:52:49	5018429	5	3	2	3	1	3	0	1	3	7	4	1	1	1	1	4	4	10	2	5	4	-1	R2G3R1B1G	0	0	8	3551	0	0	5017210	5018429
012513	09:52:49	10033	testTOLFR	feedbackFR	20	0	2000	0	113	09:52:49	5022165	5	3	2	3	1	3	0	1	3	7	4	1	1	1	1	4	4	10	2	5	5	0	R2G3R1B1G1	1	2	10	3551	18348	21899	5017210	5018429
