date	time	subject	blockcode	trialcode	values.TaskNumber	response	latency	correct	values.Score	script.starttime	script.elapsedtime	values.ScoreS7	values.Word1	values.Word2	values.Word3	values.Word4	values.Word5	values.Word6	values.Word7	values.Word8	values.DigitSpanFwrd	values.DigitSpanBack	values.ScoreAbs	values.Contour	values.Numbers	values.Hands	values.corsiblockspanFwrd	values.corsiblockspanRev
070312	17:36:06	10020	Language	Language	0	English	1226574	0	0	17:36:06	1227044	0	0	0	0	0	0	0	0	0	0	0	0	0	0	0	0	0
070312	17:36:06	10020	Session	Session	0	Baseline	2611	0	0	17:36:06	1229749	0	0	0	0	0	0	0	0	0	0	0	0	0	0	0	0	0
070312	17:36:06	10020	HandEng	HandEng	0	Right	4483	0	0	17:36:06	1234414	0	0	0	0	0	0	0	0	0	0	0	0	0	0	0	0	0
070312	17:36:06	10020	CubeEng	CubeEng	1	1Cube	36227	0	0	17:36:06	1319754	0	0	0	0	0	0	0	0	0	0	0	0	0	0	0	0	0
070312	17:36:06	10020	pm.simpleEngRight	blank.simpleEng	2	0	1887	1	0	17:36:06	1348036	0	0	0	0	0	0	0	0	0	0	0	0	0	0	0	0	0
070312	17:36:06	10020	pm.simpleEngRight	pm.simpleEng	2	57	7648	0	0	17:36:06	1355726	0	0	0	0	0	0	0	0	0	0	0	0	0	0	0	0	0
070312	17:36:06	10020	pm.simpleEngRight	blank.simpleEng	2	0	1987	1	0	17:36:06	1357739	0	0	0	0	0	0	0	0	0	0	0	0	0	0	0	0	0
070312	17:36:06	10020	pm.simpleEngRight	pm.simpleEng	2	57	729	0	0	17:36:06	1358499	0	0	0	0	0	0	0	0	0	0	0	0	0	0	0	0	0
070312	17:36:06	10020	pm.simpleEngRight	blank.simpleEng	2	0	2387	1	0	17:36:06	1360911	0	0	0	0	0	0	0	0	0	0	0	0	0	0	0	0	0
070312	17:36:06	10020	pm.simpleEngRight	pm.simpleEng	2	57	277	0	0	17:36:06	1361231	0	0	0	0	0	0	0	0	0	0	0	0	0	0	0	0	0
070312	17:36:06	10020	pm.simpleEngRight	blank.simpleEng	2	0	1687	1	0	17:36:06	1362950	0	0	0	0	0	0	0	0	0	0	0	0	0	0	0	0	0
070312	17:36:06	10020	pm.simpleEngRight	pm.simpleEng	2	57	334	0	0	17:36:06	1363323	0	0	0	0	0	0	0	0	0	0	0	0	0	0	0	0	0
070312	17:36:06	10020	pm.simpleEngRight	blank.simpleEng	2	0	2287	1	0	17:36:06	1365642	0	0	0	0	0	0	0	0	0	0	0	0	0	0	0	0	0
070312	17:36:06	10020	pm.simpleEngRight	pm.simpleEng	2	57	282	0	0	17:36:06	1365962	0	0	0	0	0	0	0	0	0	0	0	0	0	0	0	0	0
070312	17:36:06	10020	pm.simpleEngRight	blank.simpleEng	2	0	2087	1	0	17:36:06	1368081	0	0	0	0	0	0	0	0	0	0	0	0	0	0	0	0	0
070312	17:36:06	10020	pm.simpleEngRight	pm.simpleEng	2	57	307	0	0	17:36:06	1368428	0	0	0	0	0	0	0	0	0	0	0	0	0	0	0	0	0
070312	17:36:06	10020	pm.simpleEngRight	blank.simpleEng	2	0	2487	1	0	17:36:06	1370947	0	0	0	0	0	0	0	0	0	0	0	0	0	0	0	0	0
070312	17:36:06	10020	pm.simpleEngRight	pm.simpleEng	2	57	305	0	0	17:36:06	1371293	0	0	0	0	0	0	0	0	0	0	0	0	0	0	0	0	0
070312	17:36:06	10020	pm.simpleEngRight	blank.simpleEng	2	0	1787	1	0	17:36:06	1373106	0	0	0	0	0	0	0	0	0	0	0	0	0	0	0	0	0
070312	17:36:06	10020	pm.simpleEngRight	pm.simpleEng	2	57	322	0	0	17:36:06	1373466	0	0	0	0	0	0	0	0	0	0	0	0	0	0	0	0	0
070312	17:36:06	10020	pm.simpleEngRight	blank.simpleEng	2	0	1487	1	0	17:36:06	1374972	0	0	0	0	0	0	0	0	0	0	0	0	0	0	0	0	0
070312	17:36:06	10020	pm.simpleEngRight	pm.simpleEng	2	57	264	0	0	17:36:06	1375278	0	0	0	0	0	0	0	0	0	0	0	0	0	0	0	0	0
070312	17:36:06	10020	pm.simpleEngRight	blank.simpleEng	2	0	2187	1	0	17:36:06	1377491	0	0	0	0	0	0	0	0	0	0	0	0	0	0	0	0	0
070312	17:36:06	10020	pm.simpleEngRight	pm.simpleEng	2	57	321	0	0	17:36:06	1377851	0	0	0	0	0	0	0	0	0	0	0	0	0	0	0	0	0
070312	17:36:06	10020	pm.simpleEngRight	blank.simpleEng	2	0	1587	1	0	17:36:06	1379463	0	0	0	0	0	0	0	0	0	0	0	0	0	0	0	0	0
070312	17:36:06	10020	pm.simpleEngRight	pm.simpleEng	2	57	316	0	0	17:36:06	1379810	0	0	0	0	0	0	0	0	0	0	0	0	0	0	0	0	0
070312	17:36:06	10020	pm.simpleEngRight	blank.simpleEng	2	0	1987	1	0	17:36:06	1381823	0	0	0	0	0	0	0	0	0	0	0	0	0	0	0	0	0
070312	17:36:06	10020	pm.simpleEngRight	pm.simpleEng	2	57	229	0	0	17:36:06	1382089	0	0	0	0	0	0	0	0	0	0	0	0	0	0	0	0	0
070312	17:36:06	10020	pm.simpleEngRight	blank.simpleEng	2	0	2387	1	0	17:36:06	1384501	0	0	0	0	0	0	0	0	0	0	0	0	0	0	0	0	0
070312	17:36:06	10020	pm.simpleEngRight	pm.simpleEng	2	57	222	0	0	17:36:06	1384755	0	0	0	0	0	0	0	0	0	0	0	0	0	0	0	0	0
070312	17:36:06	10020	pm.simpleEngRight	blank.simpleEng	2	0	2087	1	0	17:36:06	1386874	0	0	0	0	0	0	0	0	0	0	0	0	0	0	0	0	0
070312	17:36:06	10020	pm.simpleEngRight	pm.simpleEng	2	57	234	0	0	17:36:06	1387140	0	0	0	0	0	0	0	0	0	0	0	0	0	0	0	0	0
070312	17:36:06	10020	pm.simpleEngRight	blank.simpleEng	2	0	1787	1	0	17:36:06	1388953	0	0	0	0	0	0	0	0	0	0	0	0	0	0	0	0	0
070312	17:36:06	10020	pm.simpleEngRight	pm.simpleEng	2	57	283	0	0	17:36:06	1389273	0	0	0	0	0	0	0	0	0	0	0	0	0	0	0	0	0
070312	17:36:06	10020	pm.simpleEngRight	blank.simpleEng	2	0	1687	1	0	17:36:06	1390992	0	0	0	0	0	0	0	0	0	0	0	0	0	0	0	0	0
070312	17:36:06	10020	pm.simpleEngRight	pm.simpleEng	2	57	260	0	0	17:36:06	1391285	0	0	0	0	0	0	0	0	0	0	0	0	0	0	0	0	0
070312	17:36:06	10020	pm.simpleEngRight	blank.simpleEng	2	0	1487	1	0	17:36:06	1392791	0	0	0	0	0	0	0	0	0	0	0	0	0	0	0	0	0
070312	17:36:06	10020	pm.simpleEngRight	pm.simpleEng	2	57	301	0	0	17:36:06	1393125	0	0	0	0	0	0	0	0	0	0	0	0	0	0	0	0	0
070312	17:36:06	10020	pm.simpleEngRight	blank.simpleEng	2	0	2287	1	0	17:36:06	1395444	0	0	0	0	0	0	0	0	0	0	0	0	0	0	0	0	0
070312	17:36:06	10020	pm.simpleEngRight	pm.simpleEng	2	57	368	0	0	17:36:06	1395844	0	0	0	0	0	0	0	0	0	0	0	0	0	0	0	0	0
070312	17:36:06	10020	pm.simpleEngRight	blank.simpleEng	2	0	1887	1	0	17:36:06	1397763	0	0	0	0	0	0	0	0	0	0	0	0	0	0	0	0	0
070312	17:36:06	10020	pm.simpleEngRight	pm.simpleEng	2	57	256	0	0	17:36:06	1398056	0	0	0	0	0	0	0	0	0	0	0	0	0	0	0	0	0
070312	17:36:06	10020	pm.simpleEngRight	blank.simpleEng	2	0	2187	1	0	17:36:06	1400269	0	0	0	0	0	0	0	0	0	0	0	0	0	0	0	0	0
070312	17:36:06	10020	pm.simpleEngRight	pm.simpleEng	2	57	247	0	0	17:36:06	1400548	0	0	0	0	0	0	0	0	0	0	0	0	0	0	0	0	0
070312	17:36:06	10020	pm.simpleEngRight	blank.simpleEng	2	0	2487	1	0	17:36:06	1403067	0	0	0	0	0	0	0	0	0	0	0	0	0	0	0	0	0
070312	17:36:06	10020	pm.simpleEngRight	pm.simpleEng	2	57	264	0	0	17:36:06	1403374	0	0	0	0	0	0	0	0	0	0	0	0	0	0	0	0	0
070312	17:36:06	10020	pm.simpleEngRight	blank.simpleEng	2	0	1587	1	0	17:36:06	1404987	0	0	0	0	0	0	0	0	0	0	0	0	0	0	0	0	0
070312	17:36:06	10020	pm.simpleEngRight	pm.simpleEng	2	57	281	0	0	17:36:06	1405307	0	0	0	0	0	0	0	0	0	0	0	0	0	0	0	0	0
070312	17:36:06	10020	pm.simpleEngRight	blank.simpleEng	2	0	1987	1	0	17:36:06	1407319	0	0	0	0	0	0	0	0	0	0	0	0	0	0	0	0	0
070312	17:36:06	10020	pm.simpleEngRight	pm.simpleEng	2	57	253	0	0	17:36:06	1407612	0	0	0	0	0	0	0	0	0	0	0	0	0	0	0	0	0
070312	17:36:06	10020	pm.simpleEngRight	blank.simpleEng	2	0	1587	1	0	17:36:06	1409225	0	0	0	0	0	0	0	0	0	0	0	0	0	0	0	0	0
070312	17:36:06	10020	pm.simpleEngRight	pm.simpleEng	2	57	298	0	0	17:36:06	1409558	0	0	0	0	0	0	0	0	0	0	0	0	0	0	0	0	0
070312	17:36:06	10020	pm.simpleEngRight	blank.simpleEng	2	0	1787	1	0	17:36:06	1411371	0	0	0	0	0	0	0	0	0	0	0	0	0	0	0	0	0
070312	17:36:06	10020	pm.simpleEngRight	pm.simpleEng	2	57	248	0	0	17:36:06	1411651	0	0	0	0	0	0	0	0	0	0	0	0	0	0	0	0	0
070312	17:36:06	10020	pm.simpleEngRight	blank.simpleEng	2	0	2487	1	0	17:36:06	1414170	0	0	0	0	0	0	0	0	0	0	0	0	0	0	0	0	0
070312	17:36:06	10020	pm.simpleEngRight	pm.simpleEng	2	57	1130	0	0	17:36:06	1415329	0	0	0	0	0	0	0	0	0	0	0	0	0	0	0	0	0
070312	17:36:06	10020	pm.simpleEngRight	blank.simpleEng	2	0	2387	1	0	17:36:06	1417742	0	0	0	0	0	0	0	0	0	0	0	0	0	0	0	0	0
070312	17:36:06	10020	pm.simpleEngRight	pm.simpleEng	2	57	277	0	0	17:36:06	1418062	0	0	0	0	0	0	0	0	0	0	0	0	0	0	0	0	0
070312	17:36:06	10020	pm.simpleEngRight	blank.simpleEng	2	0	1687	1	0	17:36:06	1419781	0	0	0	0	0	0	0	0	0	0	0	0	0	0	0	0	0
070312	17:36:06	10020	pm.simpleEngRight	pm.simpleEng	2	57	318	0	0	17:36:06	1420141	0	0	0	0	0	0	0	0	0	0	0	0	0	0	0	0	0
070312	17:36:06	10020	pm.simpleEngRight	blank.simpleEng	2	0	1487	1	0	17:36:06	1421660	0	0	0	0	0	0	0	0	0	0	0	0	0	0	0	0	0
070312	17:36:06	10020	pm.simpleEngRight	pm.simpleEng	2	57	295	0	0	17:36:06	1421993	0	0	0	0	0	0	0	0	0	0	0	0	0	0	0	0	0
070312	17:36:06	10020	pm.simpleEngRight	blank.simpleEng	2	0	2187	1	0	17:36:06	1424206	0	0	0	0	0	0	0	0	0	0	0	0	0	0	0	0	0
070312	17:36:06	10020	pm.simpleEngRight	pm.simpleEng	2	57	294	0	0	17:36:06	1424539	0	0	0	0	0	0	0	0	0	0	0	0	0	0	0	0	0
070312	17:36:06	10020	pm.simpleEngRight	blank.simpleEng	2	0	2287	1	0	17:36:06	1426858	0	0	0	0	0	0	0	0	0	0	0	0	0	0	0	0	0
070312	17:36:06	10020	pm.simpleEngRight	pm.simpleEng	2	57	297	0	0	17:36:06	1427191	0	0	0	0	0	0	0	0	0	0	0	0	0	0	0	0	0
070312	17:36:06	10020	pm.simpleEngRight	blank.simpleEng	2	0	2087	1	0	17:36:06	1429310	0	0	0	0	0	0	0	0	0	0	0	0	0	0	0	0	0
070312	17:36:06	10020	pm.simpleEngRight	pm.simpleEng	2	57	821	0	0	17:36:06	1430163	0	0	0	0	0	0	0	0	0	0	0	0	0	0	0	0	0
070312	17:36:06	10020	pm.simpleEngRight	blank.simpleEng	2	0	1887	1	0	17:36:06	1432069	0	0	0	0	0	0	0	0	0	0	0	0	0	0	0	0	0
070312	17:36:06	10020	pm.simpleEngRight	pm.simpleEng	2	57	302	0	0	17:36:06	1432403	0	0	0	0	0	0	0	0	0	0	0	0	0	0	0	0	0
070312	17:36:06	10020	pm.simpleEngRight	blank.simpleEng	2	0	2487	1	0	17:36:06	1434922	0	0	0	0	0	0	0	0	0	0	0	0	0	0	0	0	0
070312	17:36:06	10020	pm.simpleEngRight	pm.simpleEng	2	57	298	0	0	17:36:06	1435255	0	0	0	0	0	0	0	0	0	0	0	0	0	0	0	0	0
070312	17:36:06	10020	pm.simpleEngRight	blank.simpleEng	2	0	2087	1	0	17:36:06	1437361	0	0	0	0	0	0	0	0	0	0	0	0	0	0	0	0	0
070312	17:36:06	10020	pm.simpleEngRight	pm.simpleEng	2	57	276	0	0	17:36:06	1437667	0	0	0	0	0	0	0	0	0	0	0	0	0	0	0	0	0
070312	17:36:06	10020	pm.simpleEngRight	blank.simpleEng	2	0	1787	1	0	17:36:06	1439480	0	0	0	0	0	0	0	0	0	0	0	0	0	0	0	0	0
070312	17:36:06	10020	pm.simpleEngRight	pm.simpleEng	2	57	299	0	0	17:36:06	1439813	0	0	0	0	0	0	0	0	0	0	0	0	0	0	0	0	0
070312	17:36:06	10020	pm.simpleEngRight	blank.simpleEng	2	0	1887	1	0	17:36:06	1441732	0	0	0	0	0	0	0	0	0	0	0	0	0	0	0	0	0
070312	17:36:06	10020	pm.simpleEngRight	pm.simpleEng	2	57	287	0	0	17:36:06	1442052	0	0	0	0	0	0	0	0	0	0	0	0	0	0	0	0	0
070312	17:36:06	10020	pm.simpleEngRight	blank.simpleEng	2	0	1587	1	0	17:36:06	1443665	0	0	0	0	0	0	0	0	0	0	0	0	0	0	0	0	0
070312	17:36:06	10020	pm.simpleEngRight	pm.simpleEng	2	57	466	0	0	17:36:06	1444171	0	0	0	0	0	0	0	0	0	0	0	0	0	0	0	0	0
070312	17:36:06	10020	pm.simpleEngRight	blank.simpleEng	2	0	1687	1	0	17:36:06	1445891	0	0	0	0	0	0	0	0	0	0	0	0	0	0	0	0	0
070312	17:36:06	10020	pm.simpleEngRight	pm.simpleEng	2	57	320	0	0	17:36:06	1446251	0	0	0	0	0	0	0	0	0	0	0	0	0	0	0	0	0
070312	17:36:06	10020	pm.simpleEngRight	blank.simpleEng	2	0	1987	1	0	17:36:06	1448263	0	0	0	0	0	0	0	0	0	0	0	0	0	0	0	0	0
070312	17:36:06	10020	pm.simpleEngRight	pm.simpleEng	2	57	284	0	0	17:36:06	1448583	0	0	0	0	0	0	0	0	0	0	0	0	0	0	0	0	0
070312	17:36:06	10020	Trial2BackEng	N	3	0	1000	1	1	17:36:06	1529805	0	0	0	0	0	0	0	0	0	0	0	0	0	0	0	0	0
070312	17:36:06	10020	Trial2BackEng	N	3	0	1000	1	2	17:36:06	1531324	0	0	0	0	0	0	0	0	0	0	0	0	0	0	0	0	0
070312	17:36:06	10020	Trial2BackEng	N	3	0	1000	1	3	17:36:06	1532844	0	0	0	0	0	0	0	0	0	0	0	0	0	0	0	0	0
070312	17:36:06	10020	Trial2BackEng	N	3	0	1000	1	4	17:36:06	1534363	0	0	0	0	0	0	0	0	0	0	0	0	0	0	0	0	0
070312	17:36:06	10020	Trial2BackEng	N	3	0	1000	1	5	17:36:06	1535882	0	0	0	0	0	0	0	0	0	0	0	0	0	0	0	0	0
070312	17:36:06	10020	Trial2BackEng	N	3	0	1000	1	6	17:36:06	1537402	0	0	0	0	0	0	0	0	0	0	0	0	0	0	0	0	0
070312	17:36:06	10020	Trial2BackEng	N	3	0	1000	1	7	17:36:06	1538921	0	0	0	0	0	0	0	0	0	0	0	0	0	0	0	0	0
070312	17:36:06	10020	Trial2BackEng	N	3	0	1000	1	8	17:36:06	1540441	0	0	0	0	0	0	0	0	0	0	0	0	0	0	0	0	0
070312	17:36:06	10020	Trial2BackEng	Y	3	57	494	1	9	17:36:06	1541467	0	0	0	0	0	0	0	0	0	0	0	0	0	0	0	0	0
070312	17:36:06	10020	Trial2BackEng	N	3	0	1000	1	10	17:36:06	1543466	0	0	0	0	0	0	0	0	0	0	0	0	0	0	0	0	0
070312	17:36:06	10020	Trial2BackEng	N	3	0	1000	1	11	17:36:06	1544985	0	0	0	0	0	0	0	0	0	0	0	0	0	0	0	0	0
070312	17:36:06	10020	Trial2BackEng	N	3	0	1000	1	12	17:36:06	1546505	0	0	0	0	0	0	0	0	0	0	0	0	0	0	0	0	0
070312	17:36:06	10020	Trial2BackEng	Y	3	57	766	1	13	17:36:06	1547798	0	0	0	0	0	0	0	0	0	0	0	0	0	0	0	0	0
070312	17:36:06	10020	Trial2BackEng	N	3	0	1000	1	14	17:36:06	1549530	0	0	0	0	0	0	0	0	0	0	0	0	0	0	0	0	0
070312	17:36:06	10020	Trial2BackEng	N	3	0	1000	1	15	17:36:06	1551050	0	0	0	0	0	0	0	0	0	0	0	0	0	0	0	0	0
070312	17:36:06	10020	Trial2BackEng	N	3	0	1000	1	16	17:36:06	1552569	0	0	0	0	0	0	0	0	0	0	0	0	0	0	0	0	0
070312	17:36:06	10020	Trial2BackEng	N	3	0	1000	1	17	17:36:06	1554088	0	0	0	0	0	0	0	0	0	0	0	0	0	0	0	0	0
070312	17:36:06	10020	Trial2BackEng	N	3	0	1000	1	18	17:36:06	1555608	0	0	0	0	0	0	0	0	0	0	0	0	0	0	0	0	0
070312	17:36:06	10020	Trial2BackEng	Y	3	57	431	1	19	17:36:06	1556568	0	0	0	0	0	0	0	0	0	0	0	0	0	0	0	0	0
070312	17:36:06	10020	Trial2BackEng	N	3	0	1000	1	20	17:36:06	1558633	0	0	0	0	0	0	0	0	0	0	0	0	0	0	0	0	0
070312	17:36:06	10020	Trial2BackEng	N	3	0	1000	1	21	17:36:06	1560153	0	0	0	0	0	0	0	0	0	0	0	0	0	0	0	0	0
070312	17:36:06	10020	Trial2BackEng	N	3	0	1000	1	22	17:36:06	1561672	0	0	0	0	0	0	0	0	0	0	0	0	0	0	0	0	0
070312	17:36:06	10020	Trial2BackEng	N	3	0	1000	1	23	17:36:06	1563192	0	0	0	0	0	0	0	0	0	0	0	0	0	0	0	0	0
070312	17:36:06	10020	Trial2BackEng	Y	3	57	415	1	24	17:36:06	1564138	0	0	0	0	0	0	0	0	0	0	0	0	0	0	0	0	0
070312	17:36:06	10020	Trial2BackEng	N	3	0	1000	1	25	17:36:06	1566217	0	0	0	0	0	0	0	0	0	0	0	0	0	0	0	0	0
070312	17:36:06	10020	Trial2BackEng	N	3	0	1000	1	26	17:36:06	1567736	0	0	0	0	0	0	0	0	0	0	0	0	0	0	0	0	0
070312	17:36:06	10020	Trial2BackEng	N	3	0	1000	1	27	17:36:06	1569256	0	0	0	0	0	0	0	0	0	0	0	0	0	0	0	0	0
070312	17:36:06	10020	Trial2BackEng	N	3	0	1000	1	28	17:36:06	1570775	0	0	0	0	0	0	0	0	0	0	0	0	0	0	0	0	0
070312	17:36:06	10020	Trial2BackEng	N	3	0	1000	1	29	17:36:06	1572295	0	0	0	0	0	0	0	0	0	0	0	0	0	0	0	0	0
070312	17:36:06	10020	Trial2BackEng	N	3	0	1000	1	30	17:36:06	1573814	0	0	0	0	0	0	0	0	0	0	0	0	0	0	0	0	0
070312	17:36:06	10020	Trial2BackEng	Y	3	57	336	1	31	17:36:06	1574680	0	0	0	0	0	0	0	0	0	0	0	0	0	0	0	0	0
070312	17:36:06	10020	Trial2BackEng	N	3	0	1000	1	32	17:36:06	1576840	0	0	0	0	0	0	0	0	0	0	0	0	0	0	0	0	0
070312	17:36:06	10020	Trial2BackEng	N	3	0	1000	1	33	17:36:06	1578359	0	0	0	0	0	0	0	0	0	0	0	0	0	0	0	0	0
070312	17:36:06	10020	Trial2BackEng	N	3	0	1000	1	34	17:36:06	1579878	0	0	0	0	0	0	0	0	0	0	0	0	0	0	0	0	0
070312	17:36:06	10020	Trial2BackEng	Y	3	57	496	1	35	17:36:06	1580904	0	0	0	0	0	0	0	0	0	0	0	0	0	0	0	0	0
070312	17:36:06	10020	Trial2BackEng	N	3	0	1000	1	36	17:36:06	1582904	0	0	0	0	0	0	0	0	0	0	0	0	0	0	0	0	0
070312	17:36:06	10020	Trial2BackEng	N	3	0	1000	1	37	17:36:06	1584423	0	0	0	0	0	0	0	0	0	0	0	0	0	0	0	0	0
070312	17:36:06	10020	Trial2BackEng	N	3	0	1000	1	38	17:36:06	1585943	0	0	0	0	0	0	0	0	0	0	0	0	0	0	0	0	0
070312	17:36:06	10020	Trial2BackEng	N	3	0	1000	1	39	17:36:06	1587462	0	0	0	0	0	0	0	0	0	0	0	0	0	0	0	0	0
070312	17:36:06	10020	Trial2BackEng	N	3	0	1000	1	40	17:36:06	1588982	0	0	0	0	0	0	0	0	0	0	0	0	0	0	0	0	0
070312	17:36:06	10020	Trial2BackEng	N	3	0	1000	1	41	17:36:06	1590501	0	0	0	0	0	0	0	0	0	0	0	0	0	0	0	0	0
070312	17:36:06	10020	Trial2BackEng	Y	3	57	657	1	42	17:36:06	1591687	0	0	0	0	0	0	0	0	0	0	0	0	0	0	0	0	0
070312	17:36:06	10020	Trial2BackEng	N	3	0	1000	1	43	17:36:06	1593526	0	0	0	0	0	0	0	0	0	0	0	0	0	0	0	0	0
070312	17:36:06	10020	Trial2BackEng	N	3	0	1000	1	44	17:36:06	1595046	0	0	0	0	0	0	0	0	0	0	0	0	0	0	0	0	0
070312	17:36:06	10020	Trial2BackEng	N	3	0	1000	1	45	17:36:06	1596565	0	0	0	0	0	0	0	0	0	0	0	0	0	0	0	0	0
070312	17:36:06	10020	Trial2BackEng	N	3	0	1000	1	46	17:36:06	1598084	0	0	0	0	0	0	0	0	0	0	0	0	0	0	0	0	0
070312	17:36:06	10020	Trial2BackEng	Y	3	57	498	1	47	17:36:06	1599111	0	0	0	0	0	0	0	0	0	0	0	0	0	0	0	0	0
070312	17:36:06	10020	Trial2BackEng	N	3	0	1000	1	48	17:36:06	1601110	0	0	0	0	0	0	0	0	0	0	0	0	0	0	0	0	0
070312	17:36:06	10020	Trial2BackEng	N	3	0	1000	1	49	17:36:06	1602629	0	0	0	0	0	0	0	0	0	0	0	0	0	0	0	0	0
070312	17:36:06	10020	Trial2BackEng	N	3	0	1000	1	50	17:36:06	1604149	0	0	0	0	0	0	0	0	0	0	0	0	0	0	0	0	0
070312	17:36:06	10020	Trial2BackEng	N	3	0	1000	1	51	17:36:06	1605668	0	0	0	0	0	0	0	0	0	0	0	0	0	0	0	0	0
070312	17:36:06	10020	Trial2BackEng	N	3	0	1000	1	52	17:36:06	1607188	0	0	0	0	0	0	0	0	0	0	0	0	0	0	0	0	0
070312	17:36:06	10020	Trial2BackEng	Y	3	57	386	1	53	17:36:06	1608107	0	0	0	0	0	0	0	0	0	0	0	0	0	0	0	0	0
070312	17:36:06	10020	Trial2BackEng	N	3	0	1000	1	54	17:36:06	1610213	0	0	0	0	0	0	0	0	0	0	0	0	0	0	0	0	0
070312	17:36:06	10020	Trial2BackEng	N	3	0	1000	1	55	17:36:06	1611733	0	0	0	0	0	0	0	0	0	0	0	0	0	0	0	0	0
070312	17:36:06	10020	Trial2BackEng	N	3	0	1000	1	56	17:36:06	1613252	0	0	0	0	0	0	0	0	0	0	0	0	0	0	0	0	0
070312	17:36:06	10020	Trial2BackEng	N	3	0	1000	1	57	17:36:06	1614771	0	0	0	0	0	0	0	0	0	0	0	0	0	0	0	0	0
070312	17:36:06	10020	Trial2BackEng	N	3	0	1000	1	58	17:36:06	1616291	0	0	0	0	0	0	0	0	0	0	0	0	0	0	0	0	0
070312	17:36:06	10020	Trial2BackEng	N	3	0	1000	1	59	17:36:06	1617850	0	0	0	0	0	0	0	0	0	0	0	0	0	0	0	0	0
070312	17:36:06	10020	Trial2BackEng	Y	3	57	412	1	60	17:36:06	1618796	0	0	0	0	0	0	0	0	0	0	0	0	0	0	0	0	0
070312	17:36:06	10020	Trial2BackEng	N	3	0	1000	1	61	17:36:06	1620876	0	0	0	0	0	0	0	0	0	0	0	0	0	0	0	0	0
070312	17:36:06	10020	Trial2BackEng	N	3	0	1000	1	62	17:36:06	1622395	0	0	0	0	0	0	0	0	0	0	0	0	0	0	0	0	0
070312	17:36:06	10020	Trial2BackEng	Y	3	0	1000	0	62	17:36:06	1623914	0	0	0	0	0	0	0	0	0	0	0	0	0	0	0	0	0
070312	17:36:06	10020	Trial2BackEng	N	3	0	1000	1	63	17:36:06	1625434	0	0	0	0	0	0	0	0	0	0	0	0	0	0	0	0	0
070312	17:36:06	10020	Trial2BackEng	N	3	0	1000	1	64	17:36:06	1626953	0	0	0	0	0	0	0	0	0	0	0	0	0	0	0	0	0
070312	17:36:06	10020	Trial2BackEng	N	3	0	1000	1	65	17:36:06	1628472	0	0	0	0	0	0	0	0	0	0	0	0	0	0	0	0	0
070312	17:36:06	10020	Trial2BackEng	N	3	0	1000	1	66	17:36:06	1629992	0	0	0	0	0	0	0	0	0	0	0	0	0	0	0	0	0
070312	17:36:06	10020	Trial2BackEng	N	3	0	1000	1	67	17:36:06	1631511	0	0	0	0	0	0	0	0	0	0	0	0	0	0	0	0	0
070312	17:36:06	10020	Trial2BackEng	N	3	0	1000	1	68	17:36:06	1633031	0	0	0	0	0	0	0	0	0	0	0	0	0	0	0	0	0
070312	17:36:06	10020	Trial2BackEng	N	3	0	1000	1	69	17:36:06	1634550	0	0	0	0	0	0	0	0	0	0	0	0	0	0	0	0	0
070312	17:36:06	10020	Trial2BackEng	N	3	57	992	0	69	17:36:06	1636069	0	0	0	0	0	0	0	0	0	0	0	0	0	0	0	0	0
070312	17:36:06	10020	Trial2BackEng	N	3	0	1000	1	70	17:36:06	1637589	0	0	0	0	0	0	0	0	0	0	0	0	0	0	0	0	0
070312	17:36:06	10020	Trial2BackEng	N	3	0	1000	1	71	17:36:06	1639108	0	0	0	0	0	0	0	0	0	0	0	0	0	0	0	0	0
070312	17:36:06	10020	Trial2BackEng	Y	3	0	1000	0	71	17:36:06	1640628	0	0	0	0	0	0	0	0	0	0	0	0	0	0	0	0	0
070312	17:36:06	10020	Trial2BackEng	N	3	0	1000	1	72	17:36:06	1642147	0	0	0	0	0	0	0	0	0	0	0	0	0	0	0	0	0
070312	17:36:06	10020	Trial2BackEng	N	3	0	1000	1	73	17:36:06	1643666	0	0	0	0	0	0	0	0	0	0	0	0	0	0	0	0	0
070312	17:36:06	10020	Trial2BackEng	N	3	0	1000	1	74	17:36:06	1645186	0	0	0	0	0	0	0	0	0	0	0	0	0	0	0	0	0
070312	17:36:06	10020	Trial2BackEng	Y	3	0	1000	0	74	17:36:06	1646705	0	0	0	0	0	0	0	0	0	0	0	0	0	0	0	0	0
070312	17:36:06	10020	Trial2BackEng	N	3	0	1000	1	75	17:36:06	1648225	0	0	0	0	0	0	0	0	0	0	0	0	0	0	0	0	0
070312	17:36:06	10020	Trial2BackEng	N	3	0	1000	1	76	17:36:06	1649744	0	0	0	0	0	0	0	0	0	0	0	0	0	0	0	0	0
070312	17:36:06	10020	Trial2BackEng	N	3	0	1000	1	77	17:36:06	1651263	0	0	0	0	0	0	0	0	0	0	0	0	0	0	0	0	0
070312	17:36:06	10020	Trial2BackEng	N	3	0	1000	1	78	17:36:06	1652783	0	0	0	0	0	0	0	0	0	0	0	0	0	0	0	0	0
070312	17:36:06	10020	Trial2BackEng	N	3	0	1000	1	79	17:36:06	1654303	0	0	0	0	0	0	0	0	0	0	0	0	0	0	0	0	0
070312	17:36:06	10020	Trial2BackEng	Y	3	57	807	1	80	17:36:06	1655635	0	0	0	0	0	0	0	0	0	0	0	0	0	0	0	0	0
070312	17:36:06	10020	Trial2BackEng	N	3	0	1000	1	81	17:36:06	1657328	0	0	0	0	0	0	0	0	0	0	0	0	0	0	0	0	0
070312	17:36:06	10020	Trial2BackEng	N	3	0	1000	1	82	17:36:06	1658847	0	0	0	0	0	0	0	0	0	0	0	0	0	0	0	0	0
070312	17:36:06	10020	Trial2BackEng	N	3	0	1000	1	83	17:36:06	1660366	0	0	0	0	0	0	0	0	0	0	0	0	0	0	0	0	0
070312	17:36:06	10020	Trial2BackEng	N	3	0	1000	1	84	17:36:06	1661886	0	0	0	0	0	0	0	0	0	0	0	0	0	0	0	0	0
070312	17:36:06	10020	Trial2BackEng	N	3	0	1000	1	85	17:36:06	1663406	0	0	0	0	0	0	0	0	0	0	0	0	0	0	0	0	0
070312	17:36:06	10020	Trial2BackEng	N	3	0	1000	1	86	17:36:06	1664925	0	0	0	0	0	0	0	0	0	0	0	0	0	0	0	0	0
070312	17:36:06	10020	Trial2BackEng	N	3	0	1000	1	87	17:36:06	1666444	0	0	0	0	0	0	0	0	0	0	0	0	0	0	0	0	0
070312	17:36:06	10020	Trial2BackEng	N	3	0	1000	1	88	17:36:06	1667964	0	0	0	0	0	0	0	0	0	0	0	0	0	0	0	0	0
070312	17:36:06	10020	Trial2BackEng	N	3	0	1000	1	89	17:36:06	1669483	0	0	0	0	0	0	0	0	0	0	0	0	0	0	0	0	0
070312	17:36:06	10020	Trial2BackEng	Y	3	0	1000	0	89	17:36:06	1671002	0	0	0	0	0	0	0	0	0	0	0	0	0	0	0	0	0
070312	17:36:06	10020	Trial2BackEng	N	3	0	1000	1	90	17:36:06	1672522	0	0	0	0	0	0	0	0	0	0	0	0	0	0	0	0	0
070312	17:36:06	10020	Trial2BackEng	N	3	0	1000	1	91	17:36:06	1674041	0	0	0	0	0	0	0	0	0	0	0	0	0	0	0	0	0
070312	17:36:06	10020	Trial2BackEng	N	3	0	1000	1	92	17:36:06	1675561	0	0	0	0	0	0	0	0	0	0	0	0	0	0	0	0	0
070312	17:36:06	10020	Trial2BackEng	N	3	0	1000	1	93	17:36:06	1677080	0	0	0	0	0	0	0	0	0	0	0	0	0	0	0	0	0
070312	17:36:06	10020	Trial2BackEng	N	3	0	1000	1	94	17:36:06	1678600	0	0	0	0	0	0	0	0	0	0	0	0	0	0	0	0	0
070312	17:36:06	10020	Trial2BackEng	N	3	0	1000	1	95	17:36:06	1680119	0	0	0	0	0	0	0	0	0	0	0	0	0	0	0	0	0
070312	17:36:06	10020	Trial2BackEng	N	3	0	1000	1	96	17:36:06	1681638	0	0	0	0	0	0	0	0	0	0	0	0	0	0	0	0	0
070312	17:36:06	10020	Trial2BackEng	N	3	0	1000	1	97	17:36:06	1683158	0	0	0	0	0	0	0	0	0	0	0	0	0	0	0	0	0
070312	17:36:06	10020	Trial2BackEng	Y	3	0	1000	0	97	17:36:06	1684677	0	0	0	0	0	0	0	0	0	0	0	0	0	0	0	0	0
070312	17:36:06	10020	Trial2BackEng	N	3	57	48	0	97	17:36:06	1685250	0	0	0	0	0	0	0	0	0	0	0	0	0	0	0	0	0
070312	17:36:06	10020	Trial2BackEng	N	3	0	1000	1	98	17:36:06	1687703	0	0	0	0	0	0	0	0	0	0	0	0	0	0	0	0	0
070312	17:36:06	10020	Trial2BackEng	N	3	0	1000	1	99	17:36:06	1689222	0	0	0	0	0	0	0	0	0	0	0	0	0	0	0	0	0
070312	17:36:06	10020	Trial2BackEng	N	3	0	1000	1	100	17:36:06	1690741	0	0	0	0	0	0	0	0	0	0	0	0	0	0	0	0	0
070312	17:36:06	10020	Trial2BackEng	Y	3	57	544	1	101	17:36:06	1691808	0	0	0	0	0	0	0	0	0	0	0	0	0	0	0	0	0
070312	17:36:06	10020	Trial2BackEng	N	3	0	1000	1	102	17:36:06	1693767	0	0	0	0	0	0	0	0	0	0	0	0	0	0	0	0	0
070312	17:36:06	10020	Trial2BackEng	N	3	0	1000	1	103	17:36:06	1695286	0	0	0	0	0	0	0	0	0	0	0	0	0	0	0	0	0
070312	17:36:06	10020	Trial2BackEng	N	3	0	1000	1	104	17:36:06	1696806	0	0	0	0	0	0	0	0	0	0	0	0	0	0	0	0	0
070312	17:36:06	10020	Trial2BackEng	Y	3	57	671	1	105	17:36:06	1698005	0	0	0	0	0	0	0	0	0	0	0	0	0	0	0	0	0
070312	17:36:06	10020	Trial2BackEng	N	3	0	1000	1	106	17:36:06	1699831	0	0	0	0	0	0	0	0	0	0	0	0	0	0	0	0	0
070312	17:36:06	10020	Trial2BackEng	N	3	0	1000	1	107	17:36:06	1701350	0	0	0	0	0	0	0	0	0	0	0	0	0	0	0	0	0
070312	17:36:06	10020	Trial2BackEng	N	3	0	1000	1	108	17:36:06	1702870	0	0	0	0	0	0	0	0	0	0	0	0	0	0	0	0	0
070312	17:36:06	10020	Trial2BackEng	N	3	0	1000	1	109	17:36:06	1704389	0	0	0	0	0	0	0	0	0	0	0	0	0	0	0	0	0
070312	17:36:06	10020	Trial2BackEng	N	3	0	1000	1	110	17:36:06	1705909	0	0	0	0	0	0	0	0	0	0	0	0	0	0	0	0	0
070312	17:36:06	10020	Trial2BackEng	Y	3	57	752	1	111	17:36:06	1707188	0	0	0	0	0	0	0	0	0	0	0	0	0	0	0	0	0
070312	17:36:06	10020	Trial2BackEng	N	3	0	1000	1	112	17:36:06	1708934	0	0	0	0	0	0	0	0	0	0	0	0	0	0	0	0	0
070312	17:36:06	10020	Trial2BackEng	N	3	0	1000	1	113	17:36:06	1710454	0	0	0	0	0	0	0	0	0	0	0	0	0	0	0	0	0
070312	17:36:06	10020	Trial2BackEng	N	3	0	1000	1	114	17:36:06	1711973	0	0	0	0	0	0	0	0	0	0	0	0	0	0	0	0	0
070312	17:36:06	10020	Trial2BackEng	Y	3	0	1000	0	114	17:36:06	1713492	0	0	0	0	0	0	0	0	0	0	0	0	0	0	0	0	0
070312	17:36:06	10020	Memory1RBaseline	Score	5	M1	32266	0	114	17:36:06	1820410	0	0	0	0	0	0	0	0	0	0	0	0	0	0	0	0	0
070312	17:36:06	10020	Memory1RBaseline	Score	5	M3	771	0	114	17:36:06	1821223	0	0	0	0	0	0	0	0	0	0	0	0	0	0	0	0	0
070312	17:36:06	10020	Memory1RBaseline	Score	5	M4	1094	0	114	17:36:06	1822356	0	0	0	0	0	0	0	0	0	0	0	0	0	0	0	0	0
070312	17:36:06	10020	Memory1RBaseline	Score	5	M5	450	0	114	17:36:06	1822849	0	0	0	0	0	0	0	0	0	0	0	0	0	0	0	0	0
070312	17:36:06	10020	Memory1RBaseline	Score	5	M8	2996	0	114	17:36:06	1825888	0	0	0	0	0	0	0	0	0	0	0	0	0	0	0	0	0
070312	17:36:06	10020	Memory1RBaseline	Score	5	Done	4349	0	114	17:36:06	1830273	0	0	0	0	0	0	0	0	0	0	0	0	0	0	0	0	0
070312	17:36:06	10020	Memory2RBaseline	Score2	5	11	10909	0	114	17:36:06	1865420	0	0	0	0	0	0	0	0	0	0	0	0	0	0	0	0	0
070312	17:36:06	10020	Memory2RBaseline	Score2	5	22	393	0	114	17:36:06	1865859	0	0	0	0	0	0	0	0	0	0	0	0	0	0	0	0	0
070312	17:36:06	10020	Memory2RBaseline	Score2	5	22	81	0	114	17:36:06	1865979	0	0	0	0	0	0	0	0	0	0	0	0	0	0	0	0	0
070312	17:36:06	10020	Memory2RBaseline	Score2	5	22	402	0	114	17:36:06	1866419	0	0	0	0	0	0	0	0	0	0	0	0	0	0	0	0	0
070312	17:36:06	10020	Memory2RBaseline	Score2	5	33	298	0	114	17:36:06	1866752	0	0	0	0	0	0	0	0	0	0	0	0	0	0	0	0	0
070312	17:36:06	10020	Memory2RBaseline	Score2	5	55	1213	0	114	17:36:06	1868005	0	0	0	0	0	0	0	0	0	0	0	0	0	0	0	0	0
070312	17:36:06	10020	Memory2RBaseline	Score2	5	44	663	0	114	17:36:06	1868711	0	0	0	0	0	0	0	0	0	0	0	0	0	0	0	0	0
070312	17:36:06	10020	Memory2RBaseline	Score2	5	77	478	0	114	17:36:06	1869231	0	0	0	0	0	0	0	0	0	0	0	0	0	0	0	0	0
070312	17:36:06	10020	Memory2RBaseline	Score2	5	88	406	0	114	17:36:06	1869684	0	0	0	0	0	0	0	0	0	0	0	0	0	0	0	0	0
070312	17:36:06	10020	Memory2RBaseline	Score2	5	Done	23921	0	114	17:36:06	1893648	0	0	0	0	0	0	0	0	0	0	0	0	0	0	0	0	0
070312	17:36:06	10020	Memory3RBaseline	Score3	5	111	74706	0	114	17:36:06	1992529	0	0	0	0	0	0	0	0	0	0	0	0	0	0	0	0	0
070312	17:36:06	10020	Memory3RBaseline	Score3	5	222	242	0	114	17:36:06	1992809	0	0	0	0	0	0	0	0	0	0	0	0	0	0	0	0	0
070312	17:36:06	10020	Memory3RBaseline	Score3	5	444	2707	0	114	17:36:06	1995555	0	0	0	0	0	0	0	0	0	0	0	0	0	0	0	0	0
070312	17:36:06	10020	Memory3RBaseline	Score3	5	555	321	0	114	17:36:06	1995914	0	0	0	0	0	0	0	0	0	0	0	0	0	0	0	0	0
070312	17:36:06	10020	Memory3RBaseline	Score3	5	666	313	0	114	17:36:06	1996274	0	0	0	0	0	0	0	0	0	0	0	0	0	0	0	0	0
070312	17:36:06	10020	Memory3RBaseline	Score3	5	777	377	0	114	17:36:06	1996687	0	0	0	0	0	0	0	0	0	0	0	0	0	0	0	0	0
070312	17:36:06	10020	Memory3RBaseline	Score3	5	888	532	0	114	17:36:06	1997261	0	0	0	0	0	0	0	0	0	0	0	0	0	0	0	0	0
070312	17:36:06	10020	Memory3RBaseline	Score3	5	333	18071	0	114	17:36:06	2015373	0	0	0	0	0	0	0	0	0	0	0	0	0	0	0	0	0
070312	17:36:06	10020	Memory3RBaseline	Score3	5	Done	10542	0	114	17:36:06	2025956	0	0	0	0	0	0	0	0	0	0	0	0	0	0	0	0	0
070312	17:36:06	10020	LoriaEngLH3	Stop	6	4	3840	0	114	17:36:06	2116242	0	0	0	0	0	0	0	0	0	0	0	0	0	0	0	0	0
070312	17:36:06	10020	EngTrail	Trails	7	2Trails	1420	0	114	17:36:06	2163995	0	0	0	0	0	0	0	0	0	0	0	0	0	0	0	0	0
070312	17:36:06	10020	Serial7EngBaseline	Serial7EngBaseline	8	83	4449	0	114	17:36:06	2198729	1	0	0	0	0	0	0	0	0	0	0	0	0	0	0	0	0
070312	17:36:06	10020	Serial7EngBaseline	Serial7EngBaseline	8	76	2929	0	114	17:36:06	2201688	2	0	0	0	0	0	0	0	0	0	0	0	0	0	0	0	0
070312	17:36:06	10020	Serial7EngBaseline	Serial7EngBaseline	8	69	2722	0	114	17:36:06	2204434	3	0	0	0	0	0	0	0	0	0	0	0	0	0	0	0	0
070312	17:36:06	10020	Serial7EngBaseline	Serial7EngBaseline	8	62	3744	0	114	17:36:06	2208206	4	0	0	0	0	0	0	0	0	0	0	0	0	0	0	0	0
070312	17:36:06	10020	Serial7EngBaseline	Serial7EngBaseline	8	55	2141	0	114	17:36:06	2210379	5	0	0	0	0	0	0	0	0	0	0	0	0	0	0	0	0
070312	17:36:06	10020	corsiblockEngFwrd	recallseqEngFwrd	9	5	1259	0	114	17:36:06	2276099	5	0	0	0	0	0	0	0	0	0	0	0	0	0	0	0	0
070312	17:36:06	10020	corsiblockEngFwrd	recallseqEngFwrd	9	9	1174	0	114	17:36:06	2277312	5	0	0	0	0	0	0	0	0	0	0	0	0	0	0	0	0
070312	17:36:06	10020	corsiblockEngFwrd	recallseqEngFwrd	9	doneCorsiEng	5585	0	114	17:36:06	2282937	5	0	0	0	0	0	0	0	0	0	0	0	0	0	0	2	0
070312	17:36:06	10020	corsiblockEngFwrd	recallseqEngFwrd	9	6	1637	0	114	17:36:06	2290667	5	0	0	0	0	0	0	0	0	0	0	0	0	0	0	2	0
070312	17:36:06	10020	corsiblockEngFwrd	recallseqEngFwrd	9	7	1014	0	114	17:36:06	2291720	5	0	0	0	0	0	0	0	0	0	0	0	0	0	0	2	0
070312	17:36:06	10020	corsiblockEngFwrd	recallseqEngFwrd	9	4	778	0	114	17:36:06	2292533	5	0	0	0	0	0	0	0	0	0	0	0	0	0	0	2	0
070312	17:36:06	10020	corsiblockEngFwrd	recallseqEngFwrd	9	doneCorsiEng	1925	0	114	17:36:06	2294492	5	0	0	0	0	0	0	0	0	0	0	0	0	0	0	3	0
070312	17:36:06	10020	corsiblockEngFwrd	recallseqEngFwrd	9	1	1411	0	114	17:36:06	2302995	5	0	0	0	0	0	0	0	0	0	0	0	0	0	0	3	0
070312	17:36:06	10020	corsiblockEngFwrd	recallseqEngFwrd	9	2	607	0	114	17:36:06	2303635	5	0	0	0	0	0	0	0	0	0	0	0	0	0	0	3	0
070312	17:36:06	10020	corsiblockEngFwrd	recallseqEngFwrd	9	3	638	0	114	17:36:06	2304315	5	0	0	0	0	0	0	0	0	0	0	0	0	0	0	3	0
070312	17:36:06	10020	corsiblockEngFwrd	recallseqEngFwrd	9	8	910	0	114	17:36:06	2305261	5	0	0	0	0	0	0	0	0	0	0	0	0	0	0	3	0
070312	17:36:06	10020	corsiblockEngFwrd	recallseqEngFwrd	9	doneCorsiEng	788	0	114	17:36:06	2306087	5	0	0	0	0	0	0	0	0	0	0	0	0	0	0	4	0
070312	17:36:06	10020	corsiblockEngFwrd	recallseqEngFwrd	9	6	1399	0	114	17:36:06	2315577	5	0	0	0	0	0	0	0	0	0	0	0	0	0	0	4	0
070312	17:36:06	10020	corsiblockEngFwrd	recallseqEngFwrd	9	7	1176	0	114	17:36:06	2316790	5	0	0	0	0	0	0	0	0	0	0	0	0	0	0	4	0
070312	17:36:06	10020	corsiblockEngFwrd	recallseqEngFwrd	9	8	635	0	114	17:36:06	2317470	5	0	0	0	0	0	0	0	0	0	0	0	0	0	0	4	0
070312	17:36:06	10020	corsiblockEngFwrd	recallseqEngFwrd	9	9	835	0	114	17:36:06	2318349	5	0	0	0	0	0	0	0	0	0	0	0	0	0	0	4	0
070312	17:36:06	10020	corsiblockEngFwrd	recallseqEngFwrd	9	5	837	0	114	17:36:06	2319229	5	0	0	0	0	0	0	0	0	0	0	0	0	0	0	4	0
070312	17:36:06	10020	corsiblockEngFwrd	recallseqEngFwrd	9	doneCorsiEng	1084	0	114	17:36:06	2320349	5	0	0	0	0	0	0	0	0	0	0	0	0	0	0	5	0
070312	17:36:06	10020	corsiblockEngFwrd	recallseqEngFwrd	9	2	994	0	114	17:36:06	2330438	5	0	0	0	0	0	0	0	0	0	0	0	0	0	0	5	0
070312	17:36:06	10020	corsiblockEngFwrd	recallseqEngFwrd	9	4	795	0	114	17:36:06	2331278	5	0	0	0	0	0	0	0	0	0	0	0	0	0	0	5	0
070312	17:36:06	10020	corsiblockEngFwrd	recallseqEngFwrd	9	1	1003	0	114	17:36:06	2332317	5	0	0	0	0	0	0	0	0	0	0	0	0	0	0	5	0
070312	17:36:06	10020	corsiblockEngFwrd	recallseqEngFwrd	9	3	868	0	114	17:36:06	2333223	5	0	0	0	0	0	0	0	0	0	0	0	0	0	0	5	0
070312	17:36:06	10020	corsiblockEngFwrd	recallseqEngFwrd	9	5	3985	0	114	17:36:06	2337248	5	0	0	0	0	0	0	0	0	0	0	0	0	0	0	5	0
070312	17:36:06	10020	corsiblockEngFwrd	recallseqEngFwrd	9	4	920	0	114	17:36:06	2338208	5	0	0	0	0	0	0	0	0	0	0	0	0	0	0	5	0
070312	17:36:06	10020	corsiblockEngFwrd	recallseqEngFwrd	9	doneCorsiEng	1009	0	114	17:36:06	2339261	5	0	0	0	0	0	0	0	0	0	0	0	0	0	0	6	0
070312	17:36:06	10020	corsiblockEngFwrd	recallseqEngFwrd	9	9	1426	0	114	17:36:06	2350777	5	0	0	0	0	0	0	0	0	0	0	0	0	0	0	6	0
070312	17:36:06	10020	corsiblockEngFwrd	recallseqEngFwrd	9	6	1368	0	114	17:36:06	2352189	5	0	0	0	0	0	0	0	0	0	0	0	0	0	0	6	0
070312	17:36:06	10020	corsiblockEngFwrd	recallseqEngFwrd	9	8	4755	0	114	17:36:06	2356987	5	0	0	0	0	0	0	0	0	0	0	0	0	0	0	6	0
070312	17:36:06	10020	corsiblockEngFwrd	recallseqEngFwrd	9	2	973	0	114	17:36:06	2358000	5	0	0	0	0	0	0	0	0	0	0	0	0	0	0	6	0
070312	17:36:06	10020	corsiblockEngFwrd	recallseqEngFwrd	9	7	1408	0	114	17:36:06	2359453	5	0	0	0	0	0	0	0	0	0	0	0	0	0	0	6	0
070312	17:36:06	10020	corsiblockEngFwrd	recallseqEngFwrd	9	1	995	0	114	17:36:06	2360493	5	0	0	0	0	0	0	0	0	0	0	0	0	0	0	6	0
070312	17:36:06	10020	corsiblockEngFwrd	recallseqEngFwrd	9	3	715	0	114	17:36:06	2361253	5	0	0	0	0	0	0	0	0	0	0	0	0	0	0	6	0
070312	17:36:06	10020	corsiblockEngFwrd	recallseqEngFwrd	9	doneCorsiEng	1172	0	114	17:36:06	2362465	5	0	0	0	0	0	0	0	0	0	0	0	0	0	0	6	0
070312	17:36:06	10020	corsiblockEngFwrd	recallseqEngFwrd	9	resetCorsiEng	1614	0	114	17:36:06	2374127	5	0	0	0	0	0	0	0	0	0	0	0	0	0	0	6	0
070312	17:36:06	10020	corsiblockEngFwrd	recallseqEngFwrd	9	resetCorsiEng	1745	0	114	17:36:06	2375913	5	0	0	0	0	0	0	0	0	0	0	0	0	0	0	6	0
070312	17:36:06	10020	corsiblockEngFwrd	recallseqEngFwrd	9	9	11839	0	114	17:36:06	2387789	5	0	0	0	0	0	0	0	0	0	0	0	0	0	0	6	0
070312	17:36:06	10020	corsiblockEngFwrd	recallseqEngFwrd	9	4	1275	0	114	17:36:06	2389108	5	0	0	0	0	0	0	0	0	0	0	0	0	0	0	6	0
070312	17:36:06	10020	corsiblockEngFwrd	recallseqEngFwrd	9	6	852	0	114	17:36:06	2390001	5	0	0	0	0	0	0	0	0	0	0	0	0	0	0	6	0
070312	17:36:06	10020	corsiblockEngFwrd	recallseqEngFwrd	9	5	2327	0	114	17:36:06	2392373	5	0	0	0	0	0	0	0	0	0	0	0	0	0	0	6	0
070312	17:36:06	10020	corsiblockEngFwrd	recallseqEngFwrd	9	2	1051	0	114	17:36:06	2393466	5	0	0	0	0	0	0	0	0	0	0	0	0	0	0	6	0
070312	17:36:06	10020	corsiblockEngFwrd	recallseqEngFwrd	9	7	934	0	114	17:36:06	2394439	5	0	0	0	0	0	0	0	0	0	0	0	0	0	0	6	0
070312	17:36:06	10020	corsiblockEngFwrd	recallseqEngFwrd	9	4	1408	0	114	17:36:06	2395892	5	0	0	0	0	0	0	0	0	0	0	0	0	0	0	6	0
070312	17:36:06	10020	corsiblockEngFwrd	recallseqEngFwrd	9	doneCorsiEng	1116	0	114	17:36:06	2397052	5	0	0	0	0	0	0	0	0	0	0	0	0	0	0	6	0
070312	17:36:06	10020	corsiblockEngRev	recallseqEngRev	10	6	1866	0	114	17:36:06	2413152	5	0	0	0	0	0	0	0	0	0	0	0	0	0	0	6	0
070312	17:36:06	10020	corsiblockEngRev	recallseqEngRev	10	9	1240	0	114	17:36:06	2414431	5	0	0	0	0	0	0	0	0	0	0	0	0	0	0	6	0
070312	17:36:06	10020	corsiblockEngRev	recallseqEngRev	10	resetCorsiEng	4608	0	114	17:36:06	2419083	5	0	0	0	0	0	0	0	0	0	0	0	0	0	0	6	0
070312	17:36:06	10020	corsiblockEngRev	recallseqEngRev	10	9	2035	0	114	17:36:06	2421162	5	0	0	0	0	0	0	0	0	0	0	0	0	0	0	6	0
070312	17:36:06	10020	corsiblockEngRev	recallseqEngRev	10	6	990	0	114	17:36:06	2422188	5	0	0	0	0	0	0	0	0	0	0	0	0	0	0	6	0
070312	17:36:06	10020	corsiblockEngRev	recallseqEngRev	10	doneCorsiEng	1011	0	114	17:36:06	2423241	5	0	0	0	0	0	0	0	0	0	0	0	0	0	0	6	2
070312	17:36:06	10020	corsiblockEngRev	recallseqEngRev	10	4	1556	0	114	17:36:06	2430892	5	0	0	0	0	0	0	0	0	0	0	0	0	0	0	6	2
070312	17:36:06	10020	corsiblockEngRev	recallseqEngRev	10	8	1204	0	114	17:36:06	2432131	5	0	0	0	0	0	0	0	0	0	0	0	0	0	0	6	2
070312	17:36:06	10020	corsiblockEngRev	recallseqEngRev	10	5	828	0	114	17:36:06	2432997	5	0	0	0	0	0	0	0	0	0	0	0	0	0	0	6	2
070312	17:36:06	10020	corsiblockEngRev	recallseqEngRev	10	doneCorsiEng	1210	0	114	17:36:06	2434250	5	0	0	0	0	0	0	0	0	0	0	0	0	0	0	6	3
070312	17:36:06	10020	corsiblockEngRev	recallseqEngRev	10	2	1027	0	114	17:36:06	2442367	5	0	0	0	0	0	0	0	0	0	0	0	0	0	0	6	3
070312	17:36:06	10020	corsiblockEngRev	recallseqEngRev	10	1	1009	0	114	17:36:06	2443420	5	0	0	0	0	0	0	0	0	0	0	0	0	0	0	6	3
070312	17:36:06	10020	corsiblockEngRev	recallseqEngRev	10	3	779	0	114	17:36:06	2444233	5	0	0	0	0	0	0	0	0	0	0	0	0	0	0	6	3
070312	17:36:06	10020	corsiblockEngRev	recallseqEngRev	10	7	974	0	114	17:36:06	2445246	5	0	0	0	0	0	0	0	0	0	0	0	0	0	0	6	3
070312	17:36:06	10020	corsiblockEngRev	recallseqEngRev	10	doneCorsiEng	1273	0	114	17:36:06	2446552	5	0	0	0	0	0	0	0	0	0	0	0	0	0	0	6	4
070312	17:36:06	10020	corsiblockEngRev	recallseqEngRev	10	2	2260	0	114	17:36:06	2456908	5	0	0	0	0	0	0	0	0	0	0	0	0	0	0	6	4
070312	17:36:06	10020	corsiblockEngRev	recallseqEngRev	10	4	1090	0	114	17:36:06	2458041	5	0	0	0	0	0	0	0	0	0	0	0	0	0	0	6	4
070312	17:36:06	10020	corsiblockEngRev	recallseqEngRev	10	8	1158	0	114	17:36:06	2459240	5	0	0	0	0	0	0	0	0	0	0	0	0	0	0	6	4
070312	17:36:06	10020	corsiblockEngRev	recallseqEngRev	10	9	878	0	114	17:36:06	2460160	5	0	0	0	0	0	0	0	0	0	0	0	0	0	0	6	4
070312	17:36:06	10020	corsiblockEngRev	recallseqEngRev	10	1	927	0	114	17:36:06	2461120	5	0	0	0	0	0	0	0	0	0	0	0	0	0	0	6	4
070312	17:36:06	10020	corsiblockEngRev	recallseqEngRev	10	doneCorsiEng	1288	0	114	17:36:06	2462453	5	0	0	0	0	0	0	0	0	0	0	0	0	0	0	6	4
070312	17:36:06	10020	corsiblockEngRev	recallseqEngRev	10	1	2104	0	114	17:36:06	2472608	5	0	0	0	0	0	0	0	0	0	0	0	0	0	0	6	4
070312	17:36:06	10020	corsiblockEngRev	recallseqEngRev	10	3	750	0	114	17:36:06	2473395	5	0	0	0	0	0	0	0	0	0	0	0	0	0	0	6	4
070312	17:36:06	10020	corsiblockEngRev	recallseqEngRev	10	5	2820	0	114	17:36:06	2476261	5	0	0	0	0	0	0	0	0	0	0	0	0	0	0	6	4
070312	17:36:06	10020	corsiblockEngRev	recallseqEngRev	10	6	531	0	114	17:36:06	2476833	5	0	0	0	0	0	0	0	0	0	0	0	0	0	0	6	4
070312	17:36:06	10020	corsiblockEngRev	recallseqEngRev	10	7	934	0	114	17:36:06	2477807	5	0	0	0	0	0	0	0	0	0	0	0	0	0	0	6	4
070312	17:36:06	10020	corsiblockEngRev	recallseqEngRev	10	doneCorsiEng	801	0	114	17:36:06	2478646	5	0	0	0	0	0	0	0	0	0	0	0	0	0	0	6	4
070312	17:36:06	10020	testEngBaseline	WordsEngBaseline	11	1EngBaseline	12253	0	114	17:36:06	2508421	5	1	0	0	0	0	0	0	0	0	0	0	0	0	0	6	4
070312	17:36:06	10020	testEngBaseline	WordsEngBaseline	11	2EngBaseline	257	0	114	17:36:06	2508715	5	1	1	0	0	0	0	0	0	0	0	0	0	0	0	6	4
070312	17:36:06	10020	testEngBaseline	WordsEngBaseline	11	3EngBaseline	541	0	114	17:36:06	2509301	5	1	1	1	0	0	0	0	0	0	0	0	0	0	0	6	4
070312	17:36:06	10020	testEngBaseline	WordsEngBaseline	11	4EngBaseline	314	0	114	17:36:06	2509661	5	1	1	1	1	0	0	0	0	0	0	0	0	0	0	6	4
070312	17:36:06	10020	testEngBaseline	WordsEngBaseline	11	6EngBaseline	1458	0	114	17:36:06	2511154	5	1	1	1	1	0	1	0	0	0	0	0	0	0	0	6	4
070312	17:36:06	10020	testEngBaseline	WordsEngBaseline	11	5EngBaseline	261	0	114	17:36:06	2511460	5	1	1	1	1	1	1	0	0	0	0	0	0	0	0	6	4
070312	17:36:06	10020	testEngBaseline	WordsEngBaseline	11	7EngBaseline	523	0	114	17:36:06	2512020	5	1	1	1	1	1	1	1	0	0	0	0	0	0	0	6	4
070312	17:36:06	10020	testEngBaseline	WordsEngBaseline	11	8EngBaseline	299	0	114	17:36:06	2512353	5	1	1	1	1	1	1	1	1	0	0	0	0	0	0	6	4
070312	17:36:06	10020	testEngBaseline	WordsEngBaseline	11	DoneEngBaseline	5662	0	114	17:36:06	2518058	5	1	1	1	1	1	1	1	1	0	0	0	0	0	0	6	4
070312	17:36:06	10020	DigitSpanFwrdEngBaseline	Score1FwrdEngBaseline	12	DS1	3725	0	114	17:36:06	2604743	5	1	1	1	1	1	1	1	1	0	0	0	0	0	0	6	4
070312	17:36:06	10020	DigitSpanFwrdEngBaseline	Gate1FwrdEngBaseline	12	0	1	0	114	17:36:06	2604758	5	1	1	1	1	1	1	1	1	3	0	0	0	0	0	6	4
070312	17:36:06	10020	DigitSpanFwrdEngBaseline	Score2FwrdEngBaseline	12	DS1	2604	0	114	17:36:06	2613113	5	1	1	1	1	1	1	1	1	3	0	0	0	0	0	6	4
070312	17:36:06	10020	DigitSpanFwrdEngBaseline	Gate3FwrdEngBaseline	12	0	1	0	114	17:36:06	2613128	5	1	1	1	1	1	1	1	1	4	0	0	0	0	0	6	4
070312	17:36:06	10020	DigitSpanFwrdEngBaseline	Score3FwrdEngBaseline	12	DS1	3088	0	114	17:36:06	2624002	5	1	1	1	1	1	1	1	1	4	0	0	0	0	0	6	4
070312	17:36:06	10020	DigitSpanFwrdEngBaseline	Gate5FwrdEngBaseline	12	0	1	0	114	17:36:06	2624018	5	1	1	1	1	1	1	1	1	5	0	0	0	0	0	6	4
070312	17:36:06	10020	DigitSpanFwrdEngBaseline	Score4FwrdEngBaseline	12	DS2	6415	0	114	17:36:06	2640249	5	1	1	1	1	1	1	1	1	5	0	0	0	0	0	6	4
070312	17:36:06	10020	DigitSpanFwrdEngBaseline	Gate7FwrdEngBaseline	12	0	1	0	114	17:36:06	2640264	5	1	1	1	1	1	1	1	1	5	0	0	0	0	0	6	4
070312	17:36:06	10020	DigitSpanFwrdEngBaseline	Score44FwrdEngBaseline	12	DS2	6336	0	114	17:36:06	2656456	5	1	1	1	1	1	1	1	1	5	0	0	0	0	0	6	4
070312	17:36:06	10020	DigitSpanEngBaseline	Score1EngBaseline	13	DS1	4264	0	114	17:36:06	2675462	5	1	1	1	1	1	1	1	1	5	0	0	0	0	0	6	4
070312	17:36:06	10020	DigitSpanEngBaseline	Gate1EngBaseline	13	0	1	0	114	17:36:06	2675477	5	1	1	1	1	1	1	1	1	5	2	0	0	0	0	6	4
070312	17:36:06	10020	DigitSpanEngBaseline	Score2EngBaseline	13	DS1	4844	0	114	17:36:06	2685271	5	1	1	1	1	1	1	1	1	5	2	0	0	0	0	6	4
070312	17:36:06	10020	DigitSpanEngBaseline	Gate3EngBaseline	13	0	1	0	114	17:36:06	2685286	5	1	1	1	1	1	1	1	1	5	3	0	0	0	0	6	4
070312	17:36:06	10020	DigitSpanEngBaseline	Score3EngBaseline	13	DS1	8589	0	114	17:36:06	2700439	5	1	1	1	1	1	1	1	1	5	3	0	0	0	0	6	4
070312	17:36:06	10020	DigitSpanEngBaseline	Gate5EngBaseline	13	0	1	0	114	17:36:06	2700454	5	1	1	1	1	1	1	1	1	5	4	0	0	0	0	6	4
070312	17:36:06	10020	DigitSpanEngBaseline	Score4EngBaseline	13	DS2	11619	0	114	17:36:06	2720111	5	1	1	1	1	1	1	1	1	5	4	0	0	0	0	6	4
070312	17:36:06	10020	DigitSpanEngBaseline	Gate7EngBaseline	13	0	1	0	114	17:36:06	2720126	5	1	1	1	1	1	1	1	1	5	4	0	0	0	0	6	4
070312	17:36:06	10020	DigitSpanEngBaseline	Score44EngBaseline	13	DS1	10014	0	114	17:36:06	2738383	5	1	1	1	1	1	1	1	1	5	4	0	0	0	0	6	4
070312	17:36:06	10020	DigitSpanEngBaseline	Gate8EngBaseline	13	0	1	0	114	17:36:06	2738399	5	1	1	1	1	1	1	1	1	5	5	0	0	0	0	6	4
070312	17:36:06	10020	DigitSpanEngBaseline	Score5EngBaseline	13	DS1	17928	0	114	17:36:06	2765986	5	1	1	1	1	1	1	1	1	5	5	0	0	0	0	6	4
070312	17:36:06	10020	DigitSpanEngBaseline	Gate9EngBaseline	13	0	1	0	114	17:36:06	2766001	5	1	1	1	1	1	1	1	1	5	6	0	0	0	0	6	4
070312	17:36:06	10020	DigitSpanEngBaseline	Score6EngBaseline	13	DS2	16489	0	114	17:36:06	2794441	5	1	1	1	1	1	1	1	1	5	6	0	0	0	0	6	4
070312	17:36:06	10020	DigitSpanEngBaseline	Gate11EngBaseline	13	0	1	0	114	17:36:06	2794457	5	1	1	1	1	1	1	1	1	5	6	0	0	0	0	6	4
070312	17:36:06	10020	DigitSpanEngBaseline	Score66EngBaseline	13	DS1	29009	0	114	17:36:06	2834252	5	1	1	1	1	1	1	1	1	5	7	0	0	0	0	6	4
070312	17:36:06	10020	Trial	IncongruentRight	14	203	582	0	114	17:36:06	2936705	5	1	1	1	1	1	1	1	1	5	7	0	0	0	0	6	4
070312	17:36:06	10020	Trial	IncongruentLeft	14	203	574	1	114	17:36:06	2937705	5	1	1	1	1	1	1	1	1	5	7	0	0	0	0	6	4
070312	17:36:06	10020	Trial	CongruentRight	14	205	327	1	114	17:36:06	2938451	5	1	1	1	1	1	1	1	1	5	7	0	0	0	0	6	4
070312	17:36:06	10020	Trial	IncongruentRight	14	205	482	1	114	17:36:06	2939624	5	1	1	1	1	1	1	1	1	5	7	0	0	0	0	6	4
070312	17:36:06	10020	Trial	CongruentLeft	14	203	442	1	114	17:36:06	2940583	5	1	1	1	1	1	1	1	1	5	7	0	0	0	0	6	4
070312	17:36:06	10020	Trial	CongruentRight	14	205	387	1	114	17:36:06	2941530	5	1	1	1	1	1	1	1	1	5	7	0	0	0	0	6	4
070312	17:36:06	10020	Trial	IncongruentRight	14	205	395	1	114	17:36:06	2942529	5	1	1	1	1	1	1	1	1	5	7	0	0	0	0	6	4
070312	17:36:06	10020	Trial	CongruentLeft	14	203	452	1	114	17:36:06	2943596	5	1	1	1	1	1	1	1	1	5	7	0	0	0	0	6	4
070312	17:36:06	10020	Trial	IncongruentLeft	14	205	380	0	114	17:36:06	2944515	5	1	1	1	1	1	1	1	1	5	7	0	0	0	0	6	4
070312	17:36:06	10020	Trial	IncongruentLeft	14	205	484	0	114	17:36:06	2945621	5	1	1	1	1	1	1	1	1	5	7	0	0	0	0	6	4
070312	17:36:06	10020	Trial	CongruentRight	14	203	29	0	114	17:36:06	2946168	5	1	1	1	1	1	1	1	1	5	7	0	0	0	0	6	4
070312	17:36:06	10020	Trial	IncongruentRight	14	205	597	1	114	17:36:06	2947727	5	1	1	1	1	1	1	1	1	5	7	0	0	0	0	6	4
070312	17:36:06	10020	Trial	CongruentLeft	14	203	461	1	114	17:36:06	2948594	5	1	1	1	1	1	1	1	1	5	7	0	0	0	0	6	4
070312	17:36:06	10020	Trial	CongruentRight	14	205	406	1	114	17:36:06	2949540	5	1	1	1	1	1	1	1	1	5	7	0	0	0	0	6	4
070312	17:36:06	10020	Trial	IncongruentLeft	14	203	414	1	114	17:36:06	2950553	5	1	1	1	1	1	1	1	1	5	7	0	0	0	0	6	4
070312	17:36:06	10020	Trial	IncongruentRight	14	205	487	1	114	17:36:06	2951619	5	1	1	1	1	1	1	1	1	5	7	0	0	0	0	6	4
070312	17:36:06	10020	Trial	CongruentRight	14	205	527	1	114	17:36:06	2952659	5	1	1	1	1	1	1	1	1	5	7	0	0	0	0	6	4
070312	17:36:06	10020	Trial	CongruentLeft	14	203	536	1	114	17:36:06	2953672	5	1	1	1	1	1	1	1	1	5	7	0	0	0	0	6	4
070312	17:36:06	10020	Trial	CongruentRight	14	205	528	1	114	17:36:06	2954658	5	1	1	1	1	1	1	1	1	5	7	0	0	0	0	6	4
070312	17:36:06	10020	Trial	IncongruentRight	14	205	504	1	114	17:36:06	2955644	5	1	1	1	1	1	1	1	1	5	7	0	0	0	0	6	4
070312	17:36:06	10020	Trial	IncongruentLeft	14	205	449	0	114	17:36:06	2956577	5	1	1	1	1	1	1	1	1	5	7	0	0	0	0	6	4
070312	17:36:06	10020	Trial	IncongruentLeft	14	203	537	1	114	17:36:06	2957670	5	1	1	1	1	1	1	1	1	5	7	0	0	0	0	6	4
070312	17:36:06	10020	Trial	CongruentLeft	14	203	545	1	114	17:36:06	2958683	5	1	1	1	1	1	1	1	1	5	7	0	0	0	0	6	4
070312	17:36:06	10020	Trial	CongruentRight	14	205	570	1	114	17:36:06	2959696	5	1	1	1	1	1	1	1	1	5	7	0	0	0	0	6	4
070312	17:36:06	10020	Trial	IncongruentLeft	14	203	434	1	114	17:36:06	2960562	5	1	1	1	1	1	1	1	1	5	7	0	0	0	0	6	4
070312	17:36:06	10020	Trial	IncongruentRight	14	205	491	1	114	17:36:06	2961615	5	1	1	1	1	1	1	1	1	5	7	0	0	0	0	6	4
070312	17:36:06	10020	Trial	CongruentRight	14	205	499	1	114	17:36:06	2962628	5	1	1	1	1	1	1	1	1	5	7	0	0	0	0	6	4
070312	17:36:06	10020	Trial	CongruentLeft	14	203	523	1	114	17:36:06	2963654	5	1	1	1	1	1	1	1	1	5	7	0	0	0	0	6	4
070312	17:36:06	10020	Trial	IncongruentRight	14	205	501	1	114	17:36:06	2964627	5	1	1	1	1	1	1	1	1	5	7	0	0	0	0	6	4
070312	17:36:06	10020	Trial	IncongruentLeft	14	203	476	1	114	17:36:06	2965600	5	1	1	1	1	1	1	1	1	5	7	0	0	0	0	6	4
070312	17:36:06	10020	Trial	IncongruentRight	14	205	437	1	114	17:36:06	2966560	5	1	1	1	1	1	1	1	1	5	7	0	0	0	0	6	4
070312	17:36:06	10020	Trial	CongruentRight	14	203	365	0	114	17:36:06	2967493	5	1	1	1	1	1	1	1	1	5	7	0	0	0	0	6	4
070312	17:36:06	10020	Trial	IncongruentLeft	14	203	533	1	114	17:36:06	2968666	5	1	1	1	1	1	1	1	1	5	7	0	0	0	0	6	4
070312	17:36:06	10020	Trial	CongruentLeft	14	203	414	1	114	17:36:06	2969545	5	1	1	1	1	1	1	1	1	5	7	0	0	0	0	6	4
070312	17:36:06	10020	Trial	CongruentRight	14	205	470	1	114	17:36:06	2970598	5	1	1	1	1	1	1	1	1	5	7	0	0	0	0	6	4
070312	17:36:06	10020	Trial	IncongruentLeft	14	203	449	1	114	17:36:06	2971584	5	1	1	1	1	1	1	1	1	5	7	0	0	0	0	6	4
070312	17:36:06	10020	Trial	IncongruentRight	14	205	521	1	114	17:36:06	2972664	5	1	1	1	1	1	1	1	1	5	7	0	0	0	0	6	4
070312	17:36:06	10020	Trial	IncongruentRight	14	203	370	0	114	17:36:06	2973504	5	1	1	1	1	1	1	1	1	5	7	0	0	0	0	6	4
070312	17:36:06	10020	Trial	CongruentLeft	14	203	458	1	114	17:36:06	2974597	5	1	1	1	1	1	1	1	1	5	7	0	0	0	0	6	4
070312	17:36:06	10020	Trial	IncongruentLeft	14	205	515	0	114	17:36:06	2975650	5	1	1	1	1	1	1	1	1	5	7	0	0	0	0	6	4
070312	17:36:06	10020	Trial	CongruentRight	14	205	507	1	114	17:36:06	2976649	5	1	1	1	1	1	1	1	1	5	7	0	0	0	0	6	4
070312	17:36:06	10020	Trial	CongruentLeft	14	203	483	1	114	17:36:06	2977622	5	1	1	1	1	1	1	1	1	5	7	0	0	0	0	6	4
070312	17:36:06	10020	Trial	IncongruentRight	14	205	460	1	114	17:36:06	2978595	5	1	1	1	1	1	1	1	1	5	7	0	0	0	0	6	4
070312	17:36:06	10020	Trial	CongruentRight	14	205	468	1	114	17:36:06	2979608	5	1	1	1	1	1	1	1	1	5	7	0	0	0	0	6	4
070312	17:36:06	10020	Trial	IncongruentLeft	14	203	508	1	114	17:36:06	2980648	5	1	1	1	1	1	1	1	1	5	7	0	0	0	0	6	4
070312	17:36:06	10020	Trial	CongruentLeft	14	203	485	1	114	17:36:06	2981621	5	1	1	1	1	1	1	1	1	5	7	0	0	0	0	6	4
070312	17:36:06	10020	Trial	IncongruentLeft	14	203	461	1	114	17:36:06	2982594	5	1	1	1	1	1	1	1	1	5	7	0	0	0	0	6	4
070312	17:36:06	10020	Trial	IncongruentRight	14	205	470	1	114	17:36:06	2983606	5	1	1	1	1	1	1	1	1	5	7	0	0	0	0	6	4
070312	17:36:06	10020	Trial	CongruentRight	14	205	414	1	114	17:36:06	2984553	5	1	1	1	1	1	1	1	1	5	7	0	0	0	0	6	4
070312	17:36:06	10020	Trial	CongruentLeft	14	203	422	1	114	17:36:06	2985552	5	1	1	1	1	1	1	1	1	5	7	0	0	0	0	6	4
070312	17:36:06	10020	Trial	CongruentLeft	14	203	543	1	114	17:36:06	2986672	5	1	1	1	1	1	1	1	1	5	7	0	0	0	0	6	4
070312	17:36:06	10020	Trial	IncongruentRight	14	205	487	1	114	17:36:06	2987618	5	1	1	1	1	1	1	1	1	5	7	0	0	0	0	6	4
070312	17:36:06	10020	Trial	IncongruentLeft	14	203	447	1	114	17:36:06	2988578	5	1	1	1	1	1	1	1	1	5	7	0	0	0	0	6	4
070312	17:36:06	10020	Trial	IncongruentRight	14	205	472	1	114	17:36:06	2989604	5	1	1	1	1	1	1	1	1	5	7	0	0	0	0	6	4
070312	17:36:06	10020	Trial	CongruentRight	14	205	496	1	114	17:36:06	2990631	5	1	1	1	1	1	1	1	1	5	7	0	0	0	0	6	4
070312	17:36:06	10020	Trial	CongruentRight	14	205	441	1	114	17:36:06	2991577	5	1	1	1	1	1	1	1	1	5	7	0	0	0	0	6	4
070312	17:36:06	10020	Trial	IncongruentLeft	14	203	513	1	114	17:36:06	2992643	5	1	1	1	1	1	1	1	1	5	7	0	0	0	0	6	4
070312	17:36:06	10020	Trial	CongruentLeft	14	203	553	1	114	17:36:06	2993683	5	1	1	1	1	1	1	1	1	5	7	0	0	0	0	6	4
070312	17:36:06	10020	Trial	CongruentRight	14	205	546	1	114	17:36:06	2994682	5	1	1	1	1	1	1	1	1	5	7	0	0	0	0	6	4
070312	17:36:06	10020	Trial	CongruentLeft	14	203	442	1	114	17:36:06	2995575	5	1	1	1	1	1	1	1	1	5	7	0	0	0	0	6	4
070312	17:36:06	10020	Trial	IncongruentRight	14	205	420	1	114	17:36:06	2996548	5	1	1	1	1	1	1	1	1	5	7	0	0	0	0	6	4
070312	17:36:06	10020	Trial	CongruentRight	14	203	379	0	114	17:36:06	2997508	5	1	1	1	1	1	1	1	1	5	7	0	0	0	0	6	4
070312	17:36:06	10020	Trial	CongruentLeft	14	203	547	1	114	17:36:06	2998681	5	1	1	1	1	1	1	1	1	5	7	0	0	0	0	6	4
070312	17:36:06	10020	Trial	IncongruentLeft	14	203	572	1	114	17:36:06	2999707	5	1	1	1	1	1	1	1	1	5	7	0	0	0	0	6	4
070312	17:36:06	10020	Trial	IncongruentLeft	14	205	484	0	114	17:36:06	3000613	5	1	1	1	1	1	1	1	1	5	7	0	0	0	0	6	4
070312	17:36:06	10020	Trial	CongruentRight	14	205	460	1	114	17:36:06	3001586	5	1	1	1	1	1	1	1	1	5	7	0	0	0	0	6	4
070312	17:36:06	10020	Trial	IncongruentRight	14	205	565	1	114	17:36:06	3002692	5	1	1	1	1	1	1	1	1	5	7	0	0	0	0	6	4
070312	17:36:06	10020	Trial	CongruentLeft	14	203	477	1	114	17:36:06	3003599	5	1	1	1	1	1	1	1	1	5	7	0	0	0	0	6	4
070312	17:36:06	10020	Trial	IncongruentRight	14	205	440	1	114	17:36:06	3004585	5	1	1	1	1	1	1	1	1	5	7	0	0	0	0	6	4
070312	17:36:06	10020	Trial	CongruentRight	14	205	401	1	114	17:36:06	3005545	5	1	1	1	1	1	1	1	1	5	7	0	0	0	0	6	4
070312	17:36:06	10020	Trial	IncongruentLeft	14	203	569	1	114	17:36:06	3006704	5	1	1	1	1	1	1	1	1	5	7	0	0	0	0	6	4
070312	17:36:06	10020	Trial	CongruentLeft	14	0	737	0	114	17:36:06	3007864	5	1	1	1	1	1	1	1	1	5	7	0	0	0	0	6	4
070312	17:36:06	10020	Trial	CongruentRight	14	205	505	1	114	17:36:06	3008650	5	1	1	1	1	1	1	1	1	5	7	0	0	0	0	6	4
070312	17:36:06	10020	Trial	IncongruentLeft	14	203	610	1	114	17:36:06	3009743	5	1	1	1	1	1	1	1	1	5	7	0	0	0	0	6	4
070312	17:36:06	10020	Trial	CongruentRight	14	205	490	1	114	17:36:06	3010622	5	1	1	1	1	1	1	1	1	5	7	0	0	0	0	6	4
070312	17:36:06	10020	Trial	CongruentRight	14	205	469	1	114	17:36:06	3011622	5	1	1	1	1	1	1	1	1	5	7	0	0	0	0	6	4
070312	17:36:06	10020	Trial	IncongruentRight	14	205	478	1	114	17:36:06	3012635	5	1	1	1	1	1	1	1	1	5	7	0	0	0	0	6	4
070312	17:36:06	10020	Trial	CongruentLeft	14	203	470	1	114	17:36:06	3013622	5	1	1	1	1	1	1	1	1	5	7	0	0	0	0	6	4
070312	17:36:06	10020	Trial	IncongruentLeft	14	203	415	1	114	17:36:06	3014568	5	1	1	1	1	1	1	1	1	5	7	0	0	0	0	6	4
070312	17:36:06	10020	Trial	CongruentLeft	14	203	343	1	114	17:36:06	3015487	5	1	1	1	1	1	1	1	1	5	7	0	0	0	0	6	4
070312	17:36:06	10020	Trial	IncongruentRight	14	203	351	0	114	17:36:06	3016500	5	1	1	1	1	1	1	1	1	5	7	0	0	0	0	6	4
070312	17:36:06	10020	Trial	IncongruentLeft	14	203	376	1	114	17:36:06	3017527	5	1	1	1	1	1	1	1	1	5	7	0	0	0	0	6	4
070312	17:36:06	10020	Trial	CongruentRight	14	205	481	1	114	17:36:06	3018633	5	1	1	1	1	1	1	1	1	5	7	0	0	0	0	6	4
070312	17:36:06	10020	Trial	CongruentLeft	14	203	489	1	114	17:36:06	3019632	5	1	1	1	1	1	1	1	1	5	7	0	0	0	0	6	4
070312	17:36:06	10020	Trial	IncongruentLeft	14	203	481	1	114	17:36:06	3020632	5	1	1	1	1	1	1	1	1	5	7	0	0	0	0	6	4
070312	17:36:06	10020	Trial	CongruentLeft	14	203	458	1	114	17:36:06	3021605	5	1	1	1	1	1	1	1	1	5	7	0	0	0	0	6	4
070312	17:36:06	10020	Trial	IncongruentRight	14	205	450	1	114	17:36:06	3022591	5	1	1	1	1	1	1	1	1	5	7	0	0	0	0	6	4
070312	17:36:06	10020	Trial	CongruentRight	14	205	522	1	114	17:36:06	3023671	5	1	1	1	1	1	1	1	1	5	7	0	0	0	0	6	4
070312	17:36:06	10020	Trial	IncongruentLeft	14	203	499	1	114	17:36:06	3024644	5	1	1	1	1	1	1	1	1	5	7	0	0	0	0	6	4
070312	17:36:06	10020	Trial	CongruentLeft	14	203	491	1	114	17:36:06	3025643	5	1	1	1	1	1	1	1	1	5	7	0	0	0	0	6	4
070312	17:36:06	10020	Trial	IncongruentRight	14	205	484	1	114	17:36:06	3026630	5	1	1	1	1	1	1	1	1	5	7	0	0	0	0	6	4
070312	17:36:06	10020	Trial	IncongruentLeft	14	203	491	1	114	17:36:06	3027643	5	1	1	1	1	1	1	1	1	5	7	0	0	0	0	6	4
070312	17:36:06	10020	Trial	CongruentLeft	14	203	548	1	114	17:36:06	3028695	5	1	1	1	1	1	1	1	1	5	7	0	0	0	0	6	4
070312	17:36:06	10020	Trial	IncongruentLeft	14	203	445	1	114	17:36:06	3029588	5	1	1	1	1	1	1	1	1	5	7	0	0	0	0	6	4
070312	17:36:06	10020	Trial	CongruentRight	14	0	737	0	114	17:36:06	3030868	5	1	1	1	1	1	1	1	1	5	7	0	0	0	0	6	4
070312	17:36:06	10020	Trial	CongruentLeft	14	203	573	1	114	17:36:06	3031721	5	1	1	1	1	1	1	1	1	5	7	0	0	0	0	6	4
070312	17:36:06	10020	Trial	IncongruentRight	14	205	502	1	114	17:36:06	3032641	5	1	1	1	1	1	1	1	1	5	7	0	0	0	0	6	4
070312	17:36:06	10020	Trial	CongruentLeft	14	203	414	1	114	17:36:06	3033561	5	1	1	1	1	1	1	1	1	5	7	0	0	0	0	6	4
070312	17:36:06	10020	Trial	CongruentRight	14	205	377	1	114	17:36:06	3034533	5	1	1	1	1	1	1	1	1	5	7	0	0	0	0	6	4
070312	17:36:06	10020	Trial	IncongruentLeft	14	203	402	1	114	17:36:06	3035560	5	1	1	1	1	1	1	1	1	5	7	0	0	0	0	6	4
070312	17:36:06	10020	Trial750Eng	IncongruentRight750	15	0	487	0	114	17:36:06	3046142	5	1	1	1	1	1	1	1	1	5	7	0	0	0	0	6	4
070312	17:36:06	10020	Trial750Eng	IncongruentLeft750	15	203	403	1	114	17:36:06	3046822	5	1	1	1	1	1	1	1	1	5	7	0	0	0	0	6	4
070312	17:36:06	10020	Trial750Eng	CongruentRight750	15	205	395	1	114	17:36:06	3047568	5	1	1	1	1	1	1	1	1	5	7	0	0	0	0	6	4
070312	17:36:06	10020	Trial750Eng	IncongruentRight750	15	203	353	0	114	17:36:06	3048275	5	1	1	1	1	1	1	1	1	5	7	0	0	0	0	6	4
070312	17:36:06	10020	Trial750Eng	CongruentLeft750	15	0	487	0	114	17:36:06	3049154	5	1	1	1	1	1	1	1	1	5	7	0	0	0	0	6	4
070312	17:36:06	10020	Trial750Eng	CongruentRight750	15	205	479	1	114	17:36:06	3049914	5	1	1	1	1	1	1	1	1	5	7	0	0	0	0	6	4
070312	17:36:06	10020	Trial750Eng	IncongruentRight750	15	203	471	0	114	17:36:06	3050660	5	1	1	1	1	1	1	1	1	5	7	0	0	0	0	6	4
070312	17:36:06	10020	Trial750Eng	CongruentLeft750	15	203	367	1	114	17:36:06	3051313	5	1	1	1	1	1	1	1	1	5	7	0	0	0	0	6	4
070312	17:36:06	10020	Trial750Eng	IncongruentLeft750	15	0	487	0	114	17:36:06	3052180	5	1	1	1	1	1	1	1	1	5	7	0	0	0	0	6	4
070312	17:36:06	10020	Trial750Eng	IncongruentLeft750	15	203	381	1	114	17:36:06	3052833	5	1	1	1	1	1	1	1	1	5	7	0	0	0	0	6	4
070312	17:36:06	10020	Trial750Eng	CongruentRight750	15	203	357	0	114	17:36:06	3053579	5	1	1	1	1	1	1	1	1	5	7	0	0	0	0	6	4
070312	17:36:06	10020	Trial750Eng	IncongruentRight750	15	0	487	0	114	17:36:06	3054446	5	1	1	1	1	1	1	1	1	5	7	0	0	0	0	6	4
070312	17:36:06	10020	Trial750Eng	CongruentLeft750	15	205	292	0	114	17:36:06	3055019	5	1	1	1	1	1	1	1	1	5	7	0	0	0	0	6	4
070312	17:36:06	10020	Trial750Eng	CongruentRight750	15	205	460	1	114	17:36:06	3055938	5	1	1	1	1	1	1	1	1	5	7	0	0	0	0	6	4
070312	17:36:06	10020	Trial750Eng	IncongruentLeft750	15	203	433	1	114	17:36:06	3056658	5	1	1	1	1	1	1	1	1	5	7	0	0	0	0	6	4
070312	17:36:06	10020	Trial750Eng	IncongruentRight750	15	205	454	1	114	17:36:06	3057431	5	1	1	1	1	1	1	1	1	5	7	0	0	0	0	6	4
070312	17:36:06	10020	Trial750Eng	CongruentRight750	15	0	487	0	114	17:36:06	3058204	5	1	1	1	1	1	1	1	1	5	7	0	0	0	0	6	4
070312	17:36:06	10020	Trial750Eng	CongruentLeft750	15	0	487	0	114	17:36:06	3058964	5	1	1	1	1	1	1	1	1	5	7	0	0	0	0	6	4
070312	17:36:06	10020	Trial750Eng	CongruentRight750	15	0	487	0	114	17:36:06	3059723	5	1	1	1	1	1	1	1	1	5	7	0	0	0	0	6	4
070312	17:36:06	10020	Trial750Eng	IncongruentRight750	15	0	487	0	114	17:36:06	3060483	5	1	1	1	1	1	1	1	1	5	7	0	0	0	0	6	4
070312	17:36:06	10020	Trial750Eng	IncongruentLeft750	15	0	487	0	114	17:36:06	3061243	5	1	1	1	1	1	1	1	1	5	7	0	0	0	0	6	4
070312	17:36:06	10020	Trial750Eng	IncongruentLeft750	15	0	487	0	114	17:36:06	3062002	5	1	1	1	1	1	1	1	1	5	7	0	0	0	0	6	4
070312	17:36:06	10020	Trial750Eng	CongruentLeft750	15	0	487	0	114	17:36:06	3062762	5	1	1	1	1	1	1	1	1	5	7	0	0	0	0	6	4
070312	17:36:06	10020	Trial750Eng	CongruentRight750	15	0	487	0	114	17:36:06	3063522	5	1	1	1	1	1	1	1	1	5	7	0	0	0	0	6	4
070312	17:36:06	10020	Trial750Eng	IncongruentLeft750	15	0	487	0	114	17:36:06	3064282	5	1	1	1	1	1	1	1	1	5	7	0	0	0	0	6	4
070312	17:36:06	10020	Trial750Eng	IncongruentRight750	15	0	487	0	114	17:36:06	3065041	5	1	1	1	1	1	1	1	1	5	7	0	0	0	0	6	4
070312	17:36:06	10020	Trial750Eng	CongruentRight750	15	0	487	0	114	17:36:06	3065801	5	1	1	1	1	1	1	1	1	5	7	0	0	0	0	6	4
070312	17:36:06	10020	Trial750Eng	CongruentLeft750	15	0	487	0	114	17:36:06	3066561	5	1	1	1	1	1	1	1	1	5	7	0	0	0	0	6	4
070312	17:36:06	10020	Trial750Eng	IncongruentRight750	15	0	487	0	114	17:36:06	3067320	5	1	1	1	1	1	1	1	1	5	7	0	0	0	0	6	4
070312	17:36:06	10020	Trial750Eng	IncongruentLeft750	15	0	487	0	114	17:36:06	3068080	5	1	1	1	1	1	1	1	1	5	7	0	0	0	0	6	4
070312	17:36:06	10020	Trial750Eng	IncongruentRight750	15	205	448	1	114	17:36:06	3068800	5	1	1	1	1	1	1	1	1	5	7	0	0	0	0	6	4
070312	17:36:06	10020	Trial750Eng	CongruentRight750	15	0	487	0	114	17:36:06	3069586	5	1	1	1	1	1	1	1	1	5	7	0	0	0	0	6	4
070312	17:36:06	10020	Trial750Eng	IncongruentLeft750	15	203	462	1	114	17:36:06	3070319	5	1	1	1	1	1	1	1	1	5	7	0	0	0	0	6	4
070312	17:36:06	10020	Trial750Eng	CongruentLeft750	15	0	487	0	114	17:36:06	3071092	5	1	1	1	1	1	1	1	1	5	7	0	0	0	0	6	4
070312	17:36:06	10020	Trial750Eng	CongruentRight750	15	205	412	1	114	17:36:06	3071785	5	1	1	1	1	1	1	1	1	5	7	0	0	0	0	6	4
070312	17:36:06	10020	Trial750Eng	IncongruentLeft750	15	203	389	1	114	17:36:06	3072518	5	1	1	1	1	1	1	1	1	5	7	0	0	0	0	6	4
070312	17:36:06	10020	Trial750Eng	IncongruentRight750	15	205	330	1	114	17:36:06	3073198	5	1	1	1	1	1	1	1	1	5	7	0	0	0	0	6	4
070312	17:36:06	10020	Trial750Eng	IncongruentRight750	15	205	464	1	114	17:36:06	3074078	5	1	1	1	1	1	1	1	1	5	7	0	0	0	0	6	4
070312	17:36:06	10020	Trial750Eng	CongruentLeft750	15	0	487	0	114	17:36:06	3074851	5	1	1	1	1	1	1	1	1	5	7	0	0	0	0	6	4
070312	17:36:06	10020	Trial750Eng	IncongruentLeft750	15	0	487	0	114	17:36:06	3075610	5	1	1	1	1	1	1	1	1	5	7	0	0	0	0	6	4
070312	17:36:06	10020	Trial750Eng	CongruentRight750	15	205	454	1	114	17:36:06	3076344	5	1	1	1	1	1	1	1	1	5	7	0	0	0	0	6	4
070312	17:36:06	10020	Trial750Eng	CongruentLeft750	15	203	431	1	114	17:36:06	3077077	5	1	1	1	1	1	1	1	1	5	7	0	0	0	0	6	4
070312	17:36:06	10020	Trial750Eng	IncongruentRight750	15	205	340	1	114	17:36:06	3077730	5	1	1	1	1	1	1	1	1	5	7	0	0	0	0	6	4
070312	17:36:06	10020	Trial750Eng	CongruentRight750	15	203	282	0	114	17:36:06	3078423	5	1	1	1	1	1	1	1	1	5	7	0	0	0	0	6	4
070312	17:36:06	10020	Trial750Eng	IncongruentLeft750	15	203	352	1	114	17:36:06	3079236	5	1	1	1	1	1	1	1	1	5	7	0	0	0	0	6	4
070312	17:36:06	10020	Trial750Eng	CongruentLeft750	15	203	456	1	114	17:36:06	3080102	5	1	1	1	1	1	1	1	1	5	7	0	0	0	0	6	4
070312	17:36:06	10020	Trial750Eng	IncongruentLeft750	15	203	365	1	114	17:36:06	3080755	5	1	1	1	1	1	1	1	1	5	7	0	0	0	0	6	4
070312	17:36:06	10020	Trial750Eng	IncongruentRight750	15	205	403	1	114	17:36:06	3081541	5	1	1	1	1	1	1	1	1	5	7	0	0	0	0	6	4
070312	17:36:06	10020	Trial750Eng	CongruentRight750	15	203	443	0	114	17:36:06	3082341	5	1	1	1	1	1	1	1	1	5	7	0	0	0	0	6	4
070312	17:36:06	10020	Trial750Eng	CongruentLeft750	15	0	487	0	114	17:36:06	3083128	5	1	1	1	1	1	1	1	1	5	7	0	0	0	0	6	4
070312	17:36:06	10020	Trial750Eng	CongruentLeft750	15	203	457	1	114	17:36:06	3083860	5	1	1	1	1	1	1	1	1	5	7	0	0	0	0	6	4
070312	17:36:06	10020	Trial750Eng	IncongruentRight750	15	0	487	0	114	17:36:06	3084634	5	1	1	1	1	1	1	1	1	5	7	0	0	0	0	6	4
070312	17:36:06	10020	Trial750Eng	IncongruentLeft750	15	203	391	1	114	17:36:06	3085300	5	1	1	1	1	1	1	1	1	5	7	0	0	0	0	6	4
070312	17:36:06	10020	Trial750Eng	IncongruentRight750	15	205	335	1	114	17:36:06	3086006	5	1	1	1	1	1	1	1	1	5	7	0	0	0	0	6	4
070312	17:36:06	10020	Trial750Eng	CongruentRight750	15	0	487	0	114	17:36:06	3086899	5	1	1	1	1	1	1	1	1	5	7	0	0	0	0	6	4
070312	17:36:06	10020	Trial750Eng	CongruentRight750	15	205	413	1	114	17:36:06	3087592	5	1	1	1	1	1	1	1	1	5	7	0	0	0	0	6	4
070312	17:36:06	10020	Trial750Eng	IncongruentLeft750	15	203	389	1	114	17:36:06	3088325	5	1	1	1	1	1	1	1	1	5	7	0	0	0	0	6	4
070312	17:36:06	10020	Trial750Eng	CongruentLeft750	15	203	475	1	114	17:36:06	3089152	5	1	1	1	1	1	1	1	1	5	7	0	0	0	0	6	4
070312	17:36:06	10020	Trial750Eng	CongruentRight750	15	203	321	0	114	17:36:06	3089751	5	1	1	1	1	1	1	1	1	5	7	0	0	0	0	6	4
070312	17:36:06	10020	Trial750Eng	CongruentLeft750	15	0	487	0	114	17:36:06	3090658	5	1	1	1	1	1	1	1	1	5	7	0	0	0	0	6	4
070312	17:36:06	10020	Trial750Eng	IncongruentRight750	15	0	487	0	114	17:36:06	3091418	5	1	1	1	1	1	1	1	1	5	7	0	0	0	0	6	4
070312	17:36:06	10020	Trial750Eng	CongruentRight750	15	0	487	0	114	17:36:06	3092177	5	1	1	1	1	1	1	1	1	5	7	0	0	0	0	6	4
070312	17:36:06	10020	Trial750Eng	CongruentLeft750	15	203	415	1	114	17:36:06	3092870	5	1	1	1	1	1	1	1	1	5	7	0	0	0	0	6	4
070312	17:36:06	10020	Trial750Eng	IncongruentLeft750	15	0	487	0	114	17:36:06	3093683	5	1	1	1	1	1	1	1	1	5	7	0	0	0	0	6	4
070312	17:36:06	10020	Trial750Eng	IncongruentLeft750	15	203	381	1	114	17:36:06	3094336	5	1	1	1	1	1	1	1	1	5	7	0	0	0	0	6	4
070312	17:36:06	10020	Trial750Eng	CongruentRight750	15	203	373	0	114	17:36:06	3095096	5	1	1	1	1	1	1	1	1	5	7	0	0	0	0	6	4
070312	17:36:06	10020	Trial750Eng	IncongruentRight750	15	205	27	1	114	17:36:06	3095496	5	1	1	1	1	1	1	1	1	5	7	0	0	0	0	6	4
070312	17:36:06	10020	Trial750Eng	CongruentLeft750	15	203	417	1	114	17:36:06	3096629	5	1	1	1	1	1	1	1	1	5	7	0	0	0	0	6	4
070312	17:36:06	10020	Trial750Eng	IncongruentRight750	15	205	441	1	114	17:36:06	3097415	5	1	1	1	1	1	1	1	1	5	7	0	0	0	0	6	4
070312	17:36:06	10020	Trial750Eng	CongruentRight750	15	203	398	0	114	17:36:06	3098122	5	1	1	1	1	1	1	1	1	5	7	0	0	0	0	6	4
070312	17:36:06	10020	Trial750Eng	IncongruentLeft750	15	203	436	1	114	17:36:06	3098895	5	1	1	1	1	1	1	1	1	5	7	0	0	0	0	6	4
070312	17:36:06	10020	Trial750Eng	CongruentLeft750	15	203	394	1	114	17:36:06	3099601	5	1	1	1	1	1	1	1	1	5	7	0	0	0	0	6	4
070312	17:36:06	10020	Trial750Eng	CongruentRight750	15	205	451	1	114	17:36:06	3100427	5	1	1	1	1	1	1	1	1	5	7	0	0	0	0	6	4
070312	17:36:06	10020	Trial750Eng	IncongruentLeft750	15	203	423	1	114	17:36:06	3101134	5	1	1	1	1	1	1	1	1	5	7	0	0	0	0	6	4
070312	17:36:06	10020	Trial750Eng	CongruentRight750	15	205	445	1	114	17:36:06	3101907	5	1	1	1	1	1	1	1	1	5	7	0	0	0	0	6	4
070312	17:36:06	10020	Trial750Eng	CongruentRight750	15	0	487	0	114	17:36:06	3102693	5	1	1	1	1	1	1	1	1	5	7	0	0	0	0	6	4
070312	17:36:06	10020	Trial750Eng	IncongruentRight750	15	0	487	0	114	17:36:06	3103453	5	1	1	1	1	1	1	1	1	5	7	0	0	0	0	6	4
070312	17:36:06	10020	Trial750Eng	CongruentLeft750	15	0	487	0	114	17:36:06	3104213	5	1	1	1	1	1	1	1	1	5	7	0	0	0	0	6	4
070312	17:36:06	10020	Trial750Eng	IncongruentLeft750	15	203	444	1	114	17:36:06	3104932	5	1	1	1	1	1	1	1	1	5	7	0	0	0	0	6	4
070312	17:36:06	10020	Trial750Eng	CongruentLeft750	15	203	356	1	114	17:36:06	3105599	5	1	1	1	1	1	1	1	1	5	7	0	0	0	0	6	4
070312	17:36:06	10020	Trial750Eng	IncongruentRight750	15	203	378	0	114	17:36:06	3106372	5	1	1	1	1	1	1	1	1	5	7	0	0	0	0	6	4
070312	17:36:06	10020	Trial750Eng	IncongruentLeft750	15	0	487	0	114	17:36:06	3107225	5	1	1	1	1	1	1	1	1	5	7	0	0	0	0	6	4
070312	17:36:06	10020	Trial750Eng	CongruentRight750	15	0	487	0	114	17:36:06	3107984	5	1	1	1	1	1	1	1	1	5	7	0	0	0	0	6	4
070312	17:36:06	10020	Trial750Eng	CongruentLeft750	15	203	448	1	114	17:36:06	3108704	5	1	1	1	1	1	1	1	1	5	7	0	0	0	0	6	4
070312	17:36:06	10020	Trial750Eng	IncongruentLeft750	15	205	440	0	114	17:36:06	3109464	5	1	1	1	1	1	1	1	1	5	7	0	0	0	0	6	4
070312	17:36:06	10020	Trial750Eng	CongruentLeft750	15	0	487	0	114	17:36:06	3110250	5	1	1	1	1	1	1	1	1	5	7	0	0	0	0	6	4
070312	17:36:06	10020	Trial750Eng	IncongruentRight750	15	0	487	0	114	17:36:06	3111010	5	1	1	1	1	1	1	1	1	5	7	0	0	0	0	6	4
070312	17:36:06	10020	Trial750Eng	CongruentRight750	15	0	487	0	114	17:36:06	3111770	5	1	1	1	1	1	1	1	1	5	7	0	0	0	0	6	4
070312	17:36:06	10020	Trial750Eng	IncongruentLeft750	15	0	487	0	114	17:36:06	3112529	5	1	1	1	1	1	1	1	1	5	7	0	0	0	0	6	4
070312	17:36:06	10020	Trial750Eng	CongruentLeft750	15	203	463	1	114	17:36:06	3113262	5	1	1	1	1	1	1	1	1	5	7	0	0	0	0	6	4
070312	17:36:06	10020	Trial750Eng	IncongruentRight750	15	205	423	1	114	17:36:06	3113982	5	1	1	1	1	1	1	1	1	5	7	0	0	0	0	6	4
070312	17:36:06	10020	Trial750Eng	IncongruentLeft750	15	0	487	0	114	17:36:06	3114796	5	1	1	1	1	1	1	1	1	5	7	0	0	0	0	6	4
070312	17:36:06	10020	Trial750Eng	CongruentLeft750	15	0	487	0	114	17:36:06	3115555	5	1	1	1	1	1	1	1	1	5	7	0	0	0	0	6	4
070312	17:36:06	10020	Trial750Eng	IncongruentLeft750	15	0	487	0	114	17:36:06	3116315	5	1	1	1	1	1	1	1	1	5	7	0	0	0	0	6	4
070312	17:36:06	10020	Trial750Eng	CongruentRight750	15	205	485	1	114	17:36:06	3117074	5	1	1	1	1	1	1	1	1	5	7	0	0	0	0	6	4
070312	17:36:06	10020	Trial750Eng	CongruentLeft750	15	203	414	1	114	17:36:06	3117767	5	1	1	1	1	1	1	1	1	5	7	0	0	0	0	6	4
070312	17:36:06	10020	Trial750Eng	IncongruentRight750	15	0	487	0	114	17:36:06	3118580	5	1	1	1	1	1	1	1	1	5	7	0	0	0	0	6	4
070312	17:36:06	10020	Trial750Eng	CongruentLeft750	15	203	396	1	114	17:36:06	3119246	5	1	1	1	1	1	1	1	1	5	7	0	0	0	0	6	4
070312	17:36:06	10020	Trial750Eng	CongruentRight750	15	205	436	1	114	17:36:06	3120046	5	1	1	1	1	1	1	1	1	5	7	0	0	0	0	6	4
070312	17:36:06	10020	Trial750Eng	IncongruentLeft750	15	203	346	1	114	17:36:06	3120713	5	1	1	1	1	1	1	1	1	5	7	0	0	0	0	6	4
070312	17:36:06	10020	WordsAbsEngBaseline	PAbsEngBaseline1	16	Abs1	5163	0	114	17:36:06	3155179	5	1	1	1	1	1	1	1	1	5	7	0	0	0	0	6	4
070312	17:36:06	10020	WordsAbsEngBaseline	AbsEngBaseline1	16	Abs1	3198	0	114	17:36:06	3158498	5	1	1	1	1	1	1	1	1	5	7	1	0	0	0	6	4
070312	17:36:06	10020	WordsAbsEngBaseline	AbsEngBaseline2	16	Abs1	3123	0	114	17:36:06	3161657	5	1	1	1	1	1	1	1	1	5	7	2	0	0	0	6	4
070312	17:36:06	10020	WordsAbsEngBaseline	AbsEngBaseline3	16	Abs1	5908	0	114	17:36:06	3167601	5	1	1	1	1	1	1	1	1	5	7	3	0	0	0	6	4
070312	17:36:06	10020	Trial2BackEngS	NS	17	0	1000	1	114	17:36:06	3259591	5	1	1	1	1	1	1	1	1	5	7	3	0	0	0	6	4
070312	17:36:06	10020	Trial2BackEngS	NS	17	0	1000	1	114	17:36:06	3261111	5	1	1	1	1	1	1	1	1	5	7	3	0	0	0	6	4
070312	17:36:06	10020	Trial2BackEngS	NS	17	0	1000	1	114	17:36:06	3262630	5	1	1	1	1	1	1	1	1	5	7	3	0	0	0	6	4
070312	17:36:06	10020	Trial2BackEngS	YS	17	57	380	1	114	17:36:06	3263536	5	1	1	1	1	1	1	1	1	5	7	3	0	0	0	6	4
070312	17:36:06	10020	Trial2BackEngS	NS	17	0	1000	1	114	17:36:06	3265656	5	1	1	1	1	1	1	1	1	5	7	3	0	0	0	6	4
070312	17:36:06	10020	Trial2BackEngS	NS	17	0	1000	1	114	17:36:06	3267175	5	1	1	1	1	1	1	1	1	5	7	3	0	0	0	6	4
070312	17:36:06	10020	Trial2BackEngS	NS	17	0	1000	1	114	17:36:06	3268694	5	1	1	1	1	1	1	1	1	5	7	3	0	0	0	6	4
070312	17:36:06	10020	Trial2BackEngS	NS	17	0	1000	1	114	17:36:06	3270214	5	1	1	1	1	1	1	1	1	5	7	3	0	0	0	6	4
070312	17:36:06	10020	Trial2BackEngS	YS	17	57	348	1	114	17:36:06	3271093	5	1	1	1	1	1	1	1	1	5	7	3	0	0	0	6	4
070312	17:36:06	10020	Trial2BackEngS	NS	17	0	1000	1	114	17:36:06	3273239	5	1	1	1	1	1	1	1	1	5	7	3	0	0	0	6	4
070312	17:36:06	10020	Trial2BackEngS	NS	17	0	1000	1	114	17:36:06	3274759	5	1	1	1	1	1	1	1	1	5	7	3	0	0	0	6	4
070312	17:36:06	10020	Trial2BackEngS	YS	17	0	1000	0	114	17:36:06	3276278	5	1	1	1	1	1	1	1	1	5	7	3	0	0	0	6	4
070312	17:36:06	10020	Trial2BackEngS	NS	17	0	1000	1	114	17:36:06	3277798	5	1	1	1	1	1	1	1	1	5	7	3	0	0	0	6	4
070312	17:36:06	10020	Trial2BackEngS	NS	17	0	1000	1	114	17:36:06	3279317	5	1	1	1	1	1	1	1	1	5	7	3	0	0	0	6	4
070312	17:36:06	10020	Trial2BackEngS	NS	17	0	1000	1	114	17:36:06	3280836	5	1	1	1	1	1	1	1	1	5	7	3	0	0	0	6	4
070312	17:36:06	10020	Trial2BackEngS	YS	17	0	1000	0	114	17:36:06	3282356	5	1	1	1	1	1	1	1	1	5	7	3	0	0	0	6	4
070312	17:36:06	10020	Trial2BackEngS	NS	17	0	1000	1	114	17:36:06	3283875	5	1	1	1	1	1	1	1	1	5	7	3	0	0	0	6	4
070312	17:36:06	10020	Trial2BackEngS	NS	17	0	1000	1	114	17:36:06	3285394	5	1	1	1	1	1	1	1	1	5	7	3	0	0	0	6	4
070312	17:36:06	10020	Trial2BackEngS	NS	17	0	1000	1	114	17:36:06	3286914	5	1	1	1	1	1	1	1	1	5	7	3	0	0	0	6	4
070312	17:36:06	10020	Trial2BackEngS	NS	17	0	1000	1	114	17:36:06	3288433	5	1	1	1	1	1	1	1	1	5	7	3	0	0	0	6	4
070312	17:36:06	10020	Trial2BackEngS	YS	17	57	608	1	114	17:36:06	3289566	5	1	1	1	1	1	1	1	1	5	7	3	0	0	0	6	4
070312	17:36:06	10020	Trial2BackEngS	NS	17	0	1000	1	114	17:36:06	3291459	5	1	1	1	1	1	1	1	1	5	7	3	0	0	0	6	4
070312	17:36:06	10020	Trial2BackEngS	NS	17	0	1000	1	114	17:36:06	3292978	5	1	1	1	1	1	1	1	1	5	7	3	0	0	0	6	4
070312	17:36:06	10020	Trial2BackEngS	NS	17	0	1000	1	114	17:36:06	3294497	5	1	1	1	1	1	1	1	1	5	7	3	0	0	0	6	4
070312	17:36:06	10020	Trial2BackEngS	NS	17	57	880	0	114	17:36:06	3295910	5	1	1	1	1	1	1	1	1	5	7	3	0	0	0	6	4
070312	17:36:06	10020	Trial2BackEngS	NS	17	0	1000	1	114	17:36:06	3297523	5	1	1	1	1	1	1	1	1	5	7	3	0	0	0	6	4
070312	17:36:06	10020	Trial2BackEngS	NS	17	0	1000	1	114	17:36:06	3299042	5	1	1	1	1	1	1	1	1	5	7	3	0	0	0	6	4
070312	17:36:06	10020	Trial2BackEngS	NS	17	0	1000	1	114	17:36:06	3300562	5	1	1	1	1	1	1	1	1	5	7	3	0	0	0	6	4
070312	17:36:06	10020	Trial2BackEngS	NS	17	0	1000	1	114	17:36:06	3302081	5	1	1	1	1	1	1	1	1	5	7	3	0	0	0	6	4
070312	17:36:06	10020	Trial2BackEngS	NS	17	0	1000	1	114	17:36:06	3303601	5	1	1	1	1	1	1	1	1	5	7	3	0	0	0	6	4
070312	17:36:06	10020	Trial2BackEngS	NS	17	0	1000	1	114	17:36:06	3305120	5	1	1	1	1	1	1	1	1	5	7	3	0	0	0	6	4
070312	17:36:06	10020	Trial2BackEngS	YS	17	57	754	1	114	17:36:06	3306399	5	1	1	1	1	1	1	1	1	5	7	3	0	0	0	6	4
070312	17:36:06	10020	Trial2BackEngS	NS	17	0	1000	1	114	17:36:06	3308146	5	1	1	1	1	1	1	1	1	5	7	3	0	0	0	6	4
070312	17:36:06	10020	Trial2BackEngS	NS	17	0	1000	1	114	17:36:06	3309665	5	1	1	1	1	1	1	1	1	5	7	3	0	0	0	6	4
070312	17:36:06	10020	Trial2BackEngS	NS	17	0	1000	1	114	17:36:06	3311184	5	1	1	1	1	1	1	1	1	5	7	3	0	0	0	6	4
070312	17:36:06	10020	Trial2BackEngS	YS	17	57	721	1	114	17:36:06	3312437	5	1	1	1	1	1	1	1	1	5	7	3	0	0	0	6	4
070312	17:36:06	10020	Trial2BackEngS	NS	17	0	1000	1	114	17:36:06	3314210	5	1	1	1	1	1	1	1	1	5	7	3	0	0	0	6	4
070312	17:36:06	10020	Trial2BackEngS	NS	17	0	1000	1	114	17:36:06	3315729	5	1	1	1	1	1	1	1	1	5	7	3	0	0	0	6	4
070312	17:36:06	10020	Trial2BackEngS	NS	17	0	1000	1	114	17:36:06	3317248	5	1	1	1	1	1	1	1	1	5	7	3	0	0	0	6	4
070312	17:36:06	10020	Trial2BackEngS	NS	17	0	1000	1	114	17:36:06	3318768	5	1	1	1	1	1	1	1	1	5	7	3	0	0	0	6	4
070312	17:36:06	10020	Trial2BackEngS	NS	17	0	1000	1	114	17:36:06	3320287	5	1	1	1	1	1	1	1	1	5	7	3	0	0	0	6	4
070312	17:36:06	10020	Trial2BackEngS	NS	17	0	1000	1	114	17:36:06	3321807	5	1	1	1	1	1	1	1	1	5	7	3	0	0	0	6	4
070312	17:36:06	10020	Trial2BackEngS	NS	17	57	883	0	114	17:36:06	3323219	5	1	1	1	1	1	1	1	1	5	7	3	0	0	0	6	4
070312	17:36:06	10020	Trial2BackEngS	YS	17	0	1000	0	114	17:36:06	3324832	5	1	1	1	1	1	1	1	1	5	7	3	0	0	0	6	4
070312	17:36:06	10020	Trial2BackEngS	NS	17	0	1000	1	114	17:36:06	3326352	5	1	1	1	1	1	1	1	1	5	7	3	0	0	0	6	4
070312	17:36:06	10020	Trial2BackEngS	NS	17	0	1000	1	114	17:36:06	3327871	5	1	1	1	1	1	1	1	1	5	7	3	0	0	0	6	4
070312	17:36:06	10020	Trial2BackEngS	NS	17	57	866	0	114	17:36:06	3329270	5	1	1	1	1	1	1	1	1	5	7	3	0	0	0	6	4
070312	17:36:06	10020	Trial2BackEngS	NS	17	0	1000	1	114	17:36:06	3330897	5	1	1	1	1	1	1	1	1	5	7	3	0	0	0	6	4
070312	17:36:06	10020	Trial2BackEngS	YS	17	0	1000	0	114	17:36:06	3332416	5	1	1	1	1	1	1	1	1	5	7	3	0	0	0	6	4
070312	17:36:06	10020	Trial2BackEngS	NS	17	0	1000	1	114	17:36:06	3333935	5	1	1	1	1	1	1	1	1	5	7	3	0	0	0	6	4
070312	17:36:06	10020	Trial2BackEngS	NS	17	0	1000	1	114	17:36:06	3335455	5	1	1	1	1	1	1	1	1	5	7	3	0	0	0	6	4
070312	17:36:06	10020	Trial2BackEngS	NS	17	0	1000	1	114	17:36:06	3336974	5	1	1	1	1	1	1	1	1	5	7	3	0	0	0	6	4
070312	17:36:06	10020	Trial2BackEngS	NS	17	0	1000	1	114	17:36:06	3338494	5	1	1	1	1	1	1	1	1	5	7	3	0	0	0	6	4
070312	17:36:06	10020	Trial2BackEngS	NS	17	0	1000	1	114	17:36:06	3340013	5	1	1	1	1	1	1	1	1	5	7	3	0	0	0	6	4
070312	17:36:06	10020	Trial2BackEngS	NS	17	0	1000	1	114	17:36:06	3341532	5	1	1	1	1	1	1	1	1	5	7	3	0	0	0	6	4
070312	17:36:06	10020	Trial2BackEngS	YS	17	57	757	1	114	17:36:06	3342812	5	1	1	1	1	1	1	1	1	5	7	3	0	0	0	6	4
070312	17:36:06	10020	Trial2BackEngS	NS	17	0	1000	1	114	17:36:06	3344558	5	1	1	1	1	1	1	1	1	5	7	3	0	0	0	6	4
070312	17:36:06	10020	Trial2BackEngS	NS	17	0	1000	1	114	17:36:06	3346077	5	1	1	1	1	1	1	1	1	5	7	3	0	0	0	6	4
070312	17:36:06	10020	Trial2BackEngS	NS	17	0	1000	1	114	17:36:06	3347597	5	1	1	1	1	1	1	1	1	5	7	3	0	0	0	6	4
070312	17:36:06	10020	Trial2BackEngS	NS	17	0	1000	1	114	17:36:06	3349116	5	1	1	1	1	1	1	1	1	5	7	3	0	0	0	6	4
070312	17:36:06	10020	Trial2BackEngS	NS	17	0	1000	1	114	17:36:06	3350635	5	1	1	1	1	1	1	1	1	5	7	3	0	0	0	6	4
070312	17:36:06	10020	Trial2BackEngS	NS	17	0	1000	1	114	17:36:06	3352155	5	1	1	1	1	1	1	1	1	5	7	3	0	0	0	6	4
070312	17:36:06	10020	Trial2BackEngS	NS	17	0	1000	1	114	17:36:06	3353674	5	1	1	1	1	1	1	1	1	5	7	3	0	0	0	6	4
070312	17:36:06	10020	Trial2BackEngS	YS	17	57	471	1	114	17:36:06	3354674	5	1	1	1	1	1	1	1	1	5	7	3	0	0	0	6	4
070312	17:36:06	10020	Trial2BackEngS	NS	17	0	1000	1	114	17:36:06	3356700	5	1	1	1	1	1	1	1	1	5	7	3	0	0	0	6	4
070312	17:36:06	10020	Trial2BackEngS	NS	17	0	1000	1	114	17:36:06	3358219	5	1	1	1	1	1	1	1	1	5	7	3	0	0	0	6	4
070312	17:36:06	10020	Trial2BackEngS	NS	17	0	1000	1	114	17:36:06	3359738	5	1	1	1	1	1	1	1	1	5	7	3	0	0	0	6	4
070312	17:36:06	10020	Trial2BackEngS	NS	17	0	1000	1	114	17:36:06	3361258	5	1	1	1	1	1	1	1	1	5	7	3	0	0	0	6	4
070312	17:36:06	10020	Trial2BackEngS	YS	17	57	455	1	114	17:36:06	3362244	5	1	1	1	1	1	1	1	1	5	7	3	0	0	0	6	4
070312	17:36:06	10020	Trial2BackEngS	NS	17	0	1000	1	114	17:36:06	3364283	5	1	1	1	1	1	1	1	1	5	7	3	0	0	0	6	4
070312	17:36:06	10020	Trial2BackEngS	NS	17	0	1000	1	114	17:36:06	3365803	5	1	1	1	1	1	1	1	1	5	7	3	0	0	0	6	4
070312	17:36:06	10020	Trial2BackEngS	YS	17	0	1000	0	114	17:36:06	3367322	5	1	1	1	1	1	1	1	1	5	7	3	0	0	0	6	4
070312	17:36:06	10020	Trial2BackEngS	NS	17	0	1000	1	114	17:36:06	3368842	5	1	1	1	1	1	1	1	1	5	7	3	0	0	0	6	4
070312	17:36:06	10020	Trial2BackEngS	NS	17	0	1000	1	114	17:36:06	3370361	5	1	1	1	1	1	1	1	1	5	7	3	0	0	0	6	4
070312	17:36:06	10020	Trial2BackEngS	NS	17	0	1000	1	114	17:36:06	3371880	5	1	1	1	1	1	1	1	1	5	7	3	0	0	0	6	4
070312	17:36:06	10020	Trial2BackEngS	NS	17	0	1000	1	114	17:36:06	3373400	5	1	1	1	1	1	1	1	1	5	7	3	0	0	0	6	4
070312	17:36:06	10020	Trial2BackEngS	NS	17	0	1000	1	114	17:36:06	3374919	5	1	1	1	1	1	1	1	1	5	7	3	0	0	0	6	4
070312	17:36:06	10020	Trial2BackEngS	NS	17	0	1000	1	114	17:36:06	3376439	5	1	1	1	1	1	1	1	1	5	7	3	0	0	0	6	4
070312	17:36:06	10020	Trial2BackEngS	YS	17	57	682	1	114	17:36:06	3377651	5	1	1	1	1	1	1	1	1	5	7	3	0	0	0	6	4
070312	17:36:06	10020	Trial2BackEngS	NS	17	0	1000	1	114	17:36:06	3379464	5	1	1	1	1	1	1	1	1	5	7	3	0	0	0	6	4
070312	17:36:06	10020	Trial2BackEngS	NS	17	0	1000	1	114	17:36:06	3380983	5	1	1	1	1	1	1	1	1	5	7	3	0	0	0	6	4
070312	17:36:06	10020	Trial2BackEngS	NS	17	0	1000	1	114	17:36:06	3382503	5	1	1	1	1	1	1	1	1	5	7	3	0	0	0	6	4
070312	17:36:06	10020	Trial2BackEngS	NS	17	0	1000	1	114	17:36:06	3384022	5	1	1	1	1	1	1	1	1	5	7	3	0	0	0	6	4
070312	17:36:06	10020	Trial2BackEngS	YS	17	0	1000	0	114	17:36:06	3385542	5	1	1	1	1	1	1	1	1	5	7	3	0	0	0	6	4
070312	17:36:06	10020	Trial2BackEngS	NS	17	57	987	0	114	17:36:06	3387061	5	1	1	1	1	1	1	1	1	5	7	3	0	0	0	6	4
070312	17:36:06	10020	Trial2BackEngS	NS	17	0	1000	1	114	17:36:06	3388580	5	1	1	1	1	1	1	1	1	5	7	3	0	0	0	6	4
070312	17:36:06	10020	Trial2BackEngS	NS	17	0	1000	1	114	17:36:06	3390100	5	1	1	1	1	1	1	1	1	5	7	3	0	0	0	6	4
070312	17:36:06	10020	Trial2BackEngS	NS	17	57	509	0	114	17:36:06	3391139	5	1	1	1	1	1	1	1	1	5	7	3	0	0	0	6	4
070312	17:36:06	10020	Trial2BackEngS	YS	17	0	1000	0	114	17:36:06	3393126	5	1	1	1	1	1	1	1	1	5	7	3	0	0	0	6	4
070312	17:36:06	10020	Trial2BackEngS	NS	17	0	1000	1	114	17:36:06	3394645	5	1	1	1	1	1	1	1	1	5	7	3	0	0	0	6	4
070312	17:36:06	10020	Trial2BackEngS	NS	17	0	1000	1	114	17:36:06	3396164	5	1	1	1	1	1	1	1	1	5	7	3	0	0	0	6	4
070312	17:36:06	10020	Trial2BackEngS	YS	17	57	431	1	114	17:36:06	3397137	5	1	1	1	1	1	1	1	1	5	7	3	0	0	0	6	4
070312	17:36:06	10020	Trial2BackEngS	NS	17	0	1000	1	114	17:36:06	3399190	5	1	1	1	1	1	1	1	1	5	7	3	0	0	0	6	4
070312	17:36:06	10020	Trial2BackEngS	NS	17	0	1000	1	114	17:36:06	3400709	5	1	1	1	1	1	1	1	1	5	7	3	0	0	0	6	4
070312	17:36:06	10020	Trial2BackEngS	NS	17	0	1000	1	114	17:36:06	3402228	5	1	1	1	1	1	1	1	1	5	7	3	0	0	0	6	4
070312	17:36:06	10020	Trial2BackEngS	NS	17	0	1000	1	114	17:36:06	3403748	5	1	1	1	1	1	1	1	1	5	7	3	0	0	0	6	4
070312	17:36:06	10020	Trial2BackEngS	NS	17	0	1000	1	114	17:36:06	3405267	5	1	1	1	1	1	1	1	1	5	7	3	0	0	0	6	4
070312	17:36:06	10020	Trial2BackEngS	NS	17	0	1000	1	114	17:36:06	3406787	5	1	1	1	1	1	1	1	1	5	7	3	0	0	0	6	4
070312	17:36:06	10020	Trial2BackEngS	NS	17	0	1000	1	114	17:36:06	3408306	5	1	1	1	1	1	1	1	1	5	7	3	0	0	0	6	4
070312	17:36:06	10020	Trial2BackEngS	NS	17	0	1000	1	114	17:36:06	3409825	5	1	1	1	1	1	1	1	1	5	7	3	0	0	0	6	4
070312	17:36:06	10020	Trial2BackEngS	YS	17	57	591	1	114	17:36:06	3410945	5	1	1	1	1	1	1	1	1	5	7	3	0	0	0	6	4
070312	17:36:06	10020	Trial2BackEngS	NS	17	0	1000	1	114	17:36:06	3412851	5	1	1	1	1	1	1	1	1	5	7	3	0	0	0	6	4
070312	17:36:06	10020	Trial2BackEngS	NS	17	0	1000	1	114	17:36:06	3414370	5	1	1	1	1	1	1	1	1	5	7	3	0	0	0	6	4
070312	17:36:06	10020	Trial2BackEngS	NS	17	0	1000	1	114	17:36:06	3415890	5	1	1	1	1	1	1	1	1	5	7	3	0	0	0	6	4
070312	17:36:06	10020	Trial2BackEngS	NS	17	0	1000	1	114	17:36:06	3417409	5	1	1	1	1	1	1	1	1	5	7	3	0	0	0	6	4
070312	17:36:06	10020	Trial2BackEngS	NS	17	0	1000	1	114	17:36:06	3418928	5	1	1	1	1	1	1	1	1	5	7	3	0	0	0	6	4
070312	17:36:06	10020	Trial2BackEngS	NS	17	0	1000	1	114	17:36:06	3420448	5	1	1	1	1	1	1	1	1	5	7	3	0	0	0	6	4
070312	17:36:06	10020	Trial2BackEngS	NS	17	0	1000	1	114	17:36:06	3421967	5	1	1	1	1	1	1	1	1	5	7	3	0	0	0	6	4
070312	17:36:06	10020	Trial2BackEngS	YS	17	57	657	1	114	17:36:06	3423153	5	1	1	1	1	1	1	1	1	5	7	3	0	0	0	6	4
070312	17:36:06	10020	Trial2BackEngS	NS	17	0	1000	1	114	17:36:06	3424993	5	1	1	1	1	1	1	1	1	5	7	3	0	0	0	6	4
070312	17:36:06	10020	Trial2BackEngS	NS	17	0	1000	1	114	17:36:06	3426512	5	1	1	1	1	1	1	1	1	5	7	3	0	0	0	6	4
070312	17:36:06	10020	Trial2BackEngS	NS	17	0	1000	1	114	17:36:06	3428032	5	1	1	1	1	1	1	1	1	5	7	3	0	0	0	6	4
070312	17:36:06	10020	Trial2BackEngS	NS	17	0	1000	1	114	17:36:06	3429551	5	1	1	1	1	1	1	1	1	5	7	3	0	0	0	6	4
070312	17:36:06	10020	Trial2BackEngS	NS	17	0	1000	1	114	17:36:06	3431070	5	1	1	1	1	1	1	1	1	5	7	3	0	0	0	6	4
070312	17:36:06	10020	Trial2BackEngS	NS	17	0	1000	1	114	17:36:06	3432590	5	1	1	1	1	1	1	1	1	5	7	3	0	0	0	6	4
070312	17:36:06	10020	Trial2BackEngS	NS	17	0	1000	1	114	17:36:06	3434109	5	1	1	1	1	1	1	1	1	5	7	3	0	0	0	6	4
070312	17:36:06	10020	Trial2BackEngS	NS	17	0	1000	1	114	17:36:06	3435629	5	1	1	1	1	1	1	1	1	5	7	3	0	0	0	6	4
070312	17:36:06	10020	Trial2BackEngS	NS	17	0	1000	1	114	17:36:06	3437148	5	1	1	1	1	1	1	1	1	5	7	3	0	0	0	6	4
070312	17:36:06	10020	Trial2BackEngS	YS	17	0	1000	0	114	17:36:06	3438667	5	1	1	1	1	1	1	1	1	5	7	3	0	0	0	6	4
070312	17:36:06	10020	Trial2BackEngS	NS	17	0	1000	1	114	17:36:06	3440187	5	1	1	1	1	1	1	1	1	5	7	3	0	0	0	6	4
070312	17:36:06	10020	ClockEngBaseline	ClockEngBaseline	19	Clock1	67394	0	114	17:36:06	3507707	5	1	1	1	1	1	1	1	1	5	7	3	1	0	0	6	4
070312	17:36:06	10020	ClockEngBaseline	ClockEngBaseline	19	Clock22	758	0	114	17:36:06	3508506	5	1	1	1	1	1	1	1	1	5	7	3	1	0	0	6	4
070312	17:36:06	10020	ClockEngBaseline	ClockEngBaseline	19	Clock111	782	0	114	17:36:06	3509333	5	1	1	1	1	1	1	1	1	5	7	3	1	0	1	6	4
070312	17:36:06	10020	ClockEngBaseline	ClockEngBaseline	19	Clockdone	596	0	114	17:36:06	3509973	5	1	1	1	1	1	1	1	1	5	7	3	1	0	1	6	4
070312	17:36:06	10020	FASEngVFBaseline	StopEngVFBaseline	20	20	15893	0	114	17:36:06	3641510	5	1	1	1	1	1	1	1	1	5	7	3	1	0	1	6	4
