date	time	subject	blockcode	trialcode	values.TaskNumber	response	latency	correct	values.Score	script.starttime	script.elapsedtime	values.ScoreS7	values.Word1	values.Word2	values.Word3	values.Word4	values.Word5	values.Word6	values.Word7	values.Word8	values.DigitSpanFwrd	values.DigitSpanBack	values.ScoreAbs	values.Contour	values.Numbers	values.Hands	values.corsiblockspanFwrd	values.corsiblockspanRev
080112	12:06:40	10032	Language	Language	0	French	22226	0	0	12:06:40	22345	0	0	0	0	0	0	0	0	0	0	0	0	0	0	0	0	0
080112	12:06:40	10032	Session	Session	0	Baseline	526	0	0	12:06:40	22945	0	0	0	0	0	0	0	0	0	0	0	0	0	0	0	0	0
080112	12:06:40	10032	HandFr	HandFr	0	RightFr	1576231	0	0	12:06:40	1599256	0	0	0	0	0	0	0	0	0	0	0	0	0	0	0	0	0
080112	12:06:40	10032	AudioCheckFr	WordsFr	0	0	0	0	0	12:06:40	1644632	0	0	0	0	0	0	0	0	0	0	0	0	0	0	0	0	0
080112	12:06:40	10032	CubeFr	CubeFr	1	1Cube	42791	0	0	12:06:40	1690179	0	0	0	0	0	0	0	0	0	0	0	0	0	0	0	0	0
080112	12:06:40	10032	pm.simpleFrRight	blank.simpleFr	2	0	2187	1	0	12:06:40	1754154	0	0	0	0	0	0	0	0	0	0	0	0	0	0	0	0	0
080112	12:06:40	10032	pm.simpleFrRight	pm.simpleFr	2	57	470	0	0	12:06:40	1754660	0	0	0	0	0	0	0	0	0	0	0	0	0	0	0	0	0
080112	12:06:40	10032	pm.simpleFrRight	blank.simpleFr	2	0	2287	1	0	12:06:40	1756979	0	0	0	0	0	0	0	0	0	0	0	0	0	0	0	0	0
080112	12:06:40	10032	pm.simpleFrRight	pm.simpleFr	2	57	621	0	0	12:06:40	1757632	0	0	0	0	0	0	0	0	0	0	0	0	0	0	0	0	0
080112	12:06:40	10032	pm.simpleFrRight	blank.simpleFr	2	0	2087	1	0	12:06:40	1759752	0	0	0	0	0	0	0	0	0	0	0	0	0	0	0	0	0
080112	12:06:40	10032	pm.simpleFrRight	pm.simpleFr	2	57	585	0	0	12:06:40	1760378	0	0	0	0	0	0	0	0	0	0	0	0	0	0	0	0	0
080112	12:06:40	10032	pm.simpleFrRight	blank.simpleFr	2	0	1787	1	0	12:06:40	1762191	0	0	0	0	0	0	0	0	0	0	0	0	0	0	0	0	0
080112	12:06:40	10032	pm.simpleFrRight	pm.simpleFr	2	57	514	0	0	12:06:40	1762737	0	0	0	0	0	0	0	0	0	0	0	0	0	0	0	0	0
080112	12:06:40	10032	pm.simpleFrRight	blank.simpleFr	2	0	2387	1	0	12:06:40	1765150	0	0	0	0	0	0	0	0	0	0	0	0	0	0	0	0	0
080112	12:06:40	10032	pm.simpleFrRight	pm.simpleFr	2	57	499	0	0	12:06:40	1765683	0	0	0	0	0	0	0	0	0	0	0	0	0	0	0	0	0
080112	12:06:40	10032	pm.simpleFrRight	blank.simpleFr	2	0	1987	1	0	12:06:40	1767695	0	0	0	0	0	0	0	0	0	0	0	0	0	0	0	0	0
080112	12:06:40	10032	pm.simpleFrRight	pm.simpleFr	2	57	609	0	0	12:06:40	1768335	0	0	0	0	0	0	0	0	0	0	0	0	0	0	0	0	0
080112	12:06:40	10032	pm.simpleFrRight	blank.simpleFr	2	0	1587	1	0	12:06:40	1769948	0	0	0	0	0	0	0	0	0	0	0	0	0	0	0	0	0
080112	12:06:40	10032	pm.simpleFrRight	pm.simpleFr	2	57	421	0	0	12:06:40	1770401	0	0	0	0	0	0	0	0	0	0	0	0	0	0	0	0	0
080112	12:06:40	10032	pm.simpleFrRight	blank.simpleFr	2	0	1487	1	0	12:06:40	1771920	0	0	0	0	0	0	0	0	0	0	0	0	0	0	0	0	0
080112	12:06:40	10032	pm.simpleFrRight	pm.simpleFr	2	57	592	0	0	12:06:40	1772547	0	0	0	0	0	0	0	0	0	0	0	0	0	0	0	0	0
080112	12:06:40	10032	pm.simpleFrRight	blank.simpleFr	2	0	2487	1	0	12:06:40	1775066	0	0	0	0	0	0	0	0	0	0	0	0	0	0	0	0	0
080112	12:06:40	10032	pm.simpleFrRight	pm.simpleFr	2	57	439	0	0	12:06:40	1775545	0	0	0	0	0	0	0	0	0	0	0	0	0	0	0	0	0
080112	12:06:40	10032	pm.simpleFrRight	blank.simpleFr	2	0	1887	1	0	12:06:40	1777465	0	0	0	0	0	0	0	0	0	0	0	0	0	0	0	0	0
080112	12:06:40	10032	pm.simpleFrRight	pm.simpleFr	2	57	570	0	0	12:06:40	1778078	0	0	0	0	0	0	0	0	0	0	0	0	0	0	0	0	0
080112	12:06:40	10032	pm.simpleFrRight	blank.simpleFr	2	0	1687	1	0	12:06:40	1779797	0	0	0	0	0	0	0	0	0	0	0	0	0	0	0	0	0
080112	12:06:40	10032	pm.simpleFrRight	pm.simpleFr	2	57	571	0	0	12:06:40	1780410	0	0	0	0	0	0	0	0	0	0	0	0	0	0	0	0	0
080112	12:06:40	10032	pm.simpleFrRight	blank.simpleFr	2	0	1787	1	0	12:06:40	1782223	0	0	0	0	0	0	0	0	0	0	0	0	0	0	0	0	0
080112	12:06:40	10032	pm.simpleFrRight	pm.simpleFr	2	57	321	0	0	12:06:40	1782583	0	0	0	0	0	0	0	0	0	0	0	0	0	0	0	0	0
080112	12:06:40	10032	pm.simpleFrRight	blank.simpleFr	2	0	1687	1	0	12:06:40	1784302	0	0	0	0	0	0	0	0	0	0	0	0	0	0	0	0	0
080112	12:06:40	10032	pm.simpleFrRight	pm.simpleFr	2	57	338	0	0	12:06:40	1784675	0	0	0	0	0	0	0	0	0	0	0	0	0	0	0	0	0
080112	12:06:40	10032	pm.simpleFrRight	blank.simpleFr	2	0	1487	1	0	12:06:40	1786195	0	0	0	0	0	0	0	0	0	0	0	0	0	0	0	0	0
080112	12:06:40	10032	pm.simpleFrRight	pm.simpleFr	2	57	429	0	0	12:06:40	1786661	0	0	0	0	0	0	0	0	0	0	0	0	0	0	0	0	0
080112	12:06:40	10032	pm.simpleFrRight	blank.simpleFr	2	0	2387	1	0	12:06:40	1789073	0	0	0	0	0	0	0	0	0	0	0	0	0	0	0	0	0
080112	12:06:40	10032	pm.simpleFrRight	pm.simpleFr	2	57	494	0	0	12:06:40	1789607	0	0	0	0	0	0	0	0	0	0	0	0	0	0	0	0	0
080112	12:06:40	10032	pm.simpleFrRight	blank.simpleFr	2	0	1987	1	0	12:06:40	1791619	0	0	0	0	0	0	0	0	0	0	0	0	0	0	0	0	0
080112	12:06:40	10032	pm.simpleFrRight	pm.simpleFr	2	57	589	0	0	12:06:40	1792246	0	0	0	0	0	0	0	0	0	0	0	0	0	0	0	0	0
080112	12:06:40	10032	pm.simpleFrRight	blank.simpleFr	2	0	1587	1	0	12:06:40	1793858	0	0	0	0	0	0	0	0	0	0	0	0	0	0	0	0	0
080112	12:06:40	10032	pm.simpleFrRight	pm.simpleFr	2	57	317	0	0	12:06:40	1794218	0	0	0	0	0	0	0	0	0	0	0	0	0	0	0	0	0
080112	12:06:40	10032	pm.simpleFrRight	blank.simpleFr	2	0	1887	1	0	12:06:40	1796138	0	0	0	0	0	0	0	0	0	0	0	0	0	0	0	0	0
080112	12:06:40	10032	pm.simpleFrRight	pm.simpleFr	2	57	375	0	0	12:06:40	1796550	0	0	0	0	0	0	0	0	0	0	0	0	0	0	0	0	0
080112	12:06:40	10032	pm.simpleFrRight	blank.simpleFr	2	0	2487	1	0	12:06:40	1799070	0	0	0	0	0	0	0	0	0	0	0	0	0	0	0	0	0
080112	12:06:40	10032	pm.simpleFrRight	pm.simpleFr	2	57	354	0	0	12:06:40	1799456	0	0	0	0	0	0	0	0	0	0	0	0	0	0	0	0	0
080112	12:06:40	10032	pm.simpleFrRight	blank.simpleFr	2	0	2087	1	0	12:06:40	1801575	0	0	0	0	0	0	0	0	0	0	0	0	0	0	0	0	0
080112	12:06:40	10032	pm.simpleFrRight	pm.simpleFr	2	57	345	0	0	12:06:40	1801962	0	0	0	0	0	0	0	0	0	0	0	0	0	0	0	0	0
080112	12:06:40	10032	pm.simpleFrRight	blank.simpleFr	2	0	2287	1	0	12:06:40	1804281	0	0	0	0	0	0	0	0	0	0	0	0	0	0	0	0	0
080112	12:06:40	10032	pm.simpleFrRight	pm.simpleFr	2	57	422	0	0	12:06:40	1804734	0	0	0	0	0	0	0	0	0	0	0	0	0	0	0	0	0
080112	12:06:40	10032	pm.simpleFrRight	blank.simpleFr	2	0	2187	1	0	12:06:40	1806946	0	0	0	0	0	0	0	0	0	0	0	0	0	0	0	0	0
080112	12:06:40	10032	pm.simpleFrRight	pm.simpleFr	2	57	509	0	0	12:06:40	1807493	0	0	0	0	0	0	0	0	0	0	0	0	0	0	0	0	0
080112	12:06:40	10032	pm.simpleFrRight	blank.simpleFr	2	0	2387	1	0	12:06:40	1809905	0	0	0	0	0	0	0	0	0	0	0	0	0	0	0	0	0
080112	12:06:40	10032	pm.simpleFrRight	pm.simpleFr	2	57	479	0	0	12:06:40	1810425	0	0	0	0	0	0	0	0	0	0	0	0	0	0	0	0	0
080112	12:06:40	10032	pm.simpleFrRight	blank.simpleFr	2	0	1587	1	0	12:06:40	1812038	0	0	0	0	0	0	0	0	0	0	0	0	0	0	0	0	0
080112	12:06:40	10032	pm.simpleFrRight	pm.simpleFr	2	57	441	0	0	12:06:40	1812518	0	0	0	0	0	0	0	0	0	0	0	0	0	0	0	0	0
080112	12:06:40	10032	pm.simpleFrRight	blank.simpleFr	2	0	1687	1	0	12:06:40	1814237	0	0	0	0	0	0	0	0	0	0	0	0	0	0	0	0	0
080112	12:06:40	10032	pm.simpleFrRight	pm.simpleFr	2	57	674	0	0	12:06:40	1814943	0	0	0	0	0	0	0	0	0	0	0	0	0	0	0	0	0
080112	12:06:40	10032	pm.simpleFrRight	blank.simpleFr	2	0	2187	1	0	12:06:40	1817156	0	0	0	0	0	0	0	0	0	0	0	0	0	0	0	0	0
080112	12:06:40	10032	pm.simpleFrRight	pm.simpleFr	2	57	572	0	0	12:06:40	1817769	0	0	0	0	0	0	0	0	0	0	0	0	0	0	0	0	0
080112	12:06:40	10032	pm.simpleFrRight	blank.simpleFr	2	0	1987	1	0	12:06:40	1819781	0	0	0	0	0	0	0	0	0	0	0	0	0	0	0	0	0
080112	12:06:40	10032	pm.simpleFrRight	pm.simpleFr	2	57	730	0	0	12:06:40	1820541	0	0	0	0	0	0	0	0	0	0	0	0	0	0	0	0	0
080112	12:06:40	10032	pm.simpleFrRight	blank.simpleFr	2	0	2087	1	0	12:06:40	1822660	0	0	0	0	0	0	0	0	0	0	0	0	0	0	0	0	0
080112	12:06:40	10032	pm.simpleFrRight	pm.simpleFr	2	57	507	0	0	12:06:40	1823207	0	0	0	0	0	0	0	0	0	0	0	0	0	0	0	0	0
080112	12:06:40	10032	pm.simpleFrRight	blank.simpleFr	2	0	1787	1	0	12:06:40	1825019	0	0	0	0	0	0	0	0	0	0	0	0	0	0	0	0	0
080112	12:06:40	10032	pm.simpleFrRight	pm.simpleFr	2	57	548	0	0	12:06:40	1825606	0	0	0	0	0	0	0	0	0	0	0	0	0	0	0	0	0
080112	12:06:40	10032	pm.simpleFrRight	blank.simpleFr	2	0	1887	1	0	12:06:40	1827512	0	0	0	0	0	0	0	0	0	0	0	0	0	0	0	0	0
080112	12:06:40	10032	pm.simpleFrRight	pm.simpleFr	2	57	264	0	0	12:06:40	1827818	0	0	0	0	0	0	0	0	0	0	0	0	0	0	0	0	0
080112	12:06:40	10032	pm.simpleFrRight	blank.simpleFr	2	0	2487	1	0	12:06:40	1830337	0	0	0	0	0	0	0	0	0	0	0	0	0	0	0	0	0
080112	12:06:40	10032	pm.simpleFrRight	pm.simpleFr	2	57	510	0	0	12:06:40	1830884	0	0	0	0	0	0	0	0	0	0	0	0	0	0	0	0	0
080112	12:06:40	10032	pm.simpleFrRight	blank.simpleFr	2	0	1487	1	0	12:06:40	1832403	0	0	0	0	0	0	0	0	0	0	0	0	0	0	0	0	0
080112	12:06:40	10032	pm.simpleFrRight	pm.simpleFr	2	57	716	0	0	12:06:40	1833149	0	0	0	0	0	0	0	0	0	0	0	0	0	0	0	0	0
080112	12:06:40	10032	pm.simpleFrRight	blank.simpleFr	2	0	2287	1	0	12:06:40	1835469	0	0	0	0	0	0	0	0	0	0	0	0	0	0	0	0	0
080112	12:06:40	10032	pm.simpleFrRight	pm.simpleFr	2	57	578	0	0	12:06:40	1836082	0	0	0	0	0	0	0	0	0	0	0	0	0	0	0	0	0
080112	12:06:40	10032	pm.simpleFrRight	blank.simpleFr	2	0	2087	1	0	12:06:40	1838201	0	0	0	0	0	0	0	0	0	0	0	0	0	0	0	0	0
080112	12:06:40	10032	pm.simpleFrRight	pm.simpleFr	2	57	1031	0	0	12:06:40	1839267	0	0	0	0	0	0	0	0	0	0	0	0	0	0	0	0	0
080112	12:06:40	10032	pm.simpleFrRight	blank.simpleFr	2	0	1687	1	0	12:06:40	1840986	0	0	0	0	0	0	0	0	0	0	0	0	0	0	0	0	0
080112	12:06:40	10032	pm.simpleFrRight	pm.simpleFr	2	57	309	0	0	12:06:40	1841333	0	0	0	0	0	0	0	0	0	0	0	0	0	0	0	0	0
080112	12:06:40	10032	pm.simpleFrRight	blank.simpleFr	2	0	1987	1	0	12:06:40	1843345	0	0	0	0	0	0	0	0	0	0	0	0	0	0	0	0	0
080112	12:06:40	10032	pm.simpleFrRight	pm.simpleFr	2	57	334	0	0	12:06:40	1843718	0	0	0	0	0	0	0	0	0	0	0	0	0	0	0	0	0
080112	12:06:40	10032	pm.simpleFrRight	blank.simpleFr	2	0	2287	1	0	12:06:40	1846038	0	0	0	0	0	0	0	0	0	0	0	0	0	0	0	0	0
080112	12:06:40	10032	pm.simpleFrRight	pm.simpleFr	2	57	490	0	0	12:06:40	1846558	0	0	0	0	0	0	0	0	0	0	0	0	0	0	0	0	0
080112	12:06:40	10032	pm.simpleFrRight	blank.simpleFr	2	0	1587	1	0	12:06:40	1848170	0	0	0	0	0	0	0	0	0	0	0	0	0	0	0	0	0
080112	12:06:40	10032	pm.simpleFrRight	pm.simpleFr	2	57	645	0	0	12:06:40	1848850	0	0	0	0	0	0	0	0	0	0	0	0	0	0	0	0	0
080112	12:06:40	10032	pm.simpleFrRight	blank.simpleFr	2	0	1787	1	0	12:06:40	1850663	0	0	0	0	0	0	0	0	0	0	0	0	0	0	0	0	0
080112	12:06:40	10032	pm.simpleFrRight	pm.simpleFr	2	57	377	0	0	12:06:40	1851076	0	0	0	0	0	0	0	0	0	0	0	0	0	0	0	0	0
080112	12:06:40	10032	pm.simpleFrRight	blank.simpleFr	2	0	2187	1	0	12:06:40	1853288	0	0	0	0	0	0	0	0	0	0	0	0	0	0	0	0	0
080112	12:06:40	10032	pm.simpleFrRight	pm.simpleFr	2	57	471	0	0	12:06:40	1853795	0	0	0	0	0	0	0	0	0	0	0	0	0	0	0	0	0
080112	12:06:40	10032	Trial2BackFr	N	3	0	1000	1	1	12:06:40	1959966	0	0	0	0	0	0	0	0	0	0	0	0	0	0	0	0	0
080112	12:06:40	10032	Trial2BackFr	N	3	0	1000	1	2	12:06:40	1961486	0	0	0	0	0	0	0	0	0	0	0	0	0	0	0	0	0
080112	12:06:40	10032	Trial2BackFr	N	3	0	1000	1	3	12:06:40	1963005	0	0	0	0	0	0	0	0	0	0	0	0	0	0	0	0	0
080112	12:06:40	10032	Trial2BackFr	N	3	0	1000	1	4	12:06:40	1964524	0	0	0	0	0	0	0	0	0	0	0	0	0	0	0	0	0
080112	12:06:40	10032	Trial2BackFr	N	3	0	1000	1	5	12:06:40	1966044	0	0	0	0	0	0	0	0	0	0	0	0	0	0	0	0	0
080112	12:06:40	10032	Trial2BackFr	N	3	0	1000	1	6	12:06:40	1967563	0	0	0	0	0	0	0	0	0	0	0	0	0	0	0	0	0
080112	12:06:40	10032	Trial2BackFr	N	3	0	1000	1	7	12:06:40	1969083	0	0	0	0	0	0	0	0	0	0	0	0	0	0	0	0	0
080112	12:06:40	10032	Trial2BackFr	N	3	0	1000	1	8	12:06:40	1970602	0	0	0	0	0	0	0	0	0	0	0	0	0	0	0	0	0
080112	12:06:40	10032	Trial2BackFr	Y	3	0	1000	0	8	12:06:40	1972121	0	0	0	0	0	0	0	0	0	0	0	0	0	0	0	0	0
080112	12:06:40	10032	Trial2BackFr	N	3	0	1000	1	9	12:06:40	1973641	0	0	0	0	0	0	0	0	0	0	0	0	0	0	0	0	0
080112	12:06:40	10032	Trial2BackFr	N	3	0	1000	1	10	12:06:40	1975160	0	0	0	0	0	0	0	0	0	0	0	0	0	0	0	0	0
080112	12:06:40	10032	Trial2BackFr	N	3	0	1000	1	11	12:06:40	1976680	0	0	0	0	0	0	0	0	0	0	0	0	0	0	0	0	0
080112	12:06:40	10032	Trial2BackFr	Y	3	0	1000	0	11	12:06:40	1978199	0	0	0	0	0	0	0	0	0	0	0	0	0	0	0	0	0
080112	12:06:40	10032	Trial2BackFr	N	3	0	1000	1	12	12:06:40	1979718	0	0	0	0	0	0	0	0	0	0	0	0	0	0	0	0	0
080112	12:06:40	10032	Trial2BackFr	N	3	0	1000	1	13	12:06:40	1981238	0	0	0	0	0	0	0	0	0	0	0	0	0	0	0	0	0
080112	12:06:40	10032	Trial2BackFr	N	3	0	1000	1	14	12:06:40	1982757	0	0	0	0	0	0	0	0	0	0	0	0	0	0	0	0	0
080112	12:06:40	10032	Trial2BackFr	N	3	0	1000	1	15	12:06:40	1984277	0	0	0	0	0	0	0	0	0	0	0	0	0	0	0	0	0
080112	12:06:40	10032	Trial2BackFr	N	3	0	1000	1	16	12:06:40	1985796	0	0	0	0	0	0	0	0	0	0	0	0	0	0	0	0	0
080112	12:06:40	10032	Trial2BackFr	Y	3	0	1000	0	16	12:06:40	1987315	0	0	0	0	0	0	0	0	0	0	0	0	0	0	0	0	0
080112	12:06:40	10032	Trial2BackFr	N	3	0	1000	1	17	12:06:40	1988835	0	0	0	0	0	0	0	0	0	0	0	0	0	0	0	0	0
080112	12:06:40	10032	Trial2BackFr	N	3	0	1000	1	18	12:06:40	1990354	0	0	0	0	0	0	0	0	0	0	0	0	0	0	0	0	0
080112	12:06:40	10032	Trial2BackFr	N	3	0	1000	1	19	12:06:40	1991874	0	0	0	0	0	0	0	0	0	0	0	0	0	0	0	0	0
080112	12:06:40	10032	Trial2BackFr	N	3	0	1000	1	20	12:06:40	1993393	0	0	0	0	0	0	0	0	0	0	0	0	0	0	0	0	0
080112	12:06:40	10032	Trial2BackFr	Y	3	0	1000	0	20	12:06:40	1994912	0	0	0	0	0	0	0	0	0	0	0	0	0	0	0	0	0
080112	12:06:40	10032	Trial2BackFr	N	3	0	1000	1	21	12:06:40	1996432	0	0	0	0	0	0	0	0	0	0	0	0	0	0	0	0	0
080112	12:06:40	10032	Trial2BackFr	N	3	0	1000	1	22	12:06:40	1997951	0	0	0	0	0	0	0	0	0	0	0	0	0	0	0	0	0
080112	12:06:40	10032	Trial2BackFr	N	3	0	1000	1	23	12:06:40	1999471	0	0	0	0	0	0	0	0	0	0	0	0	0	0	0	0	0
080112	12:06:40	10032	Trial2BackFr	N	3	0	1000	1	24	12:06:40	2000990	0	0	0	0	0	0	0	0	0	0	0	0	0	0	0	0	0
080112	12:06:40	10032	Trial2BackFr	N	3	0	1000	1	25	12:06:40	2002509	0	0	0	0	0	0	0	0	0	0	0	0	0	0	0	0	0
080112	12:06:40	10032	Trial2BackFr	N	3	0	1000	1	26	12:06:40	2004029	0	0	0	0	0	0	0	0	0	0	0	0	0	0	0	0	0
080112	12:06:40	10032	Trial2BackFr	Y	3	0	1000	0	26	12:06:40	2005548	0	0	0	0	0	0	0	0	0	0	0	0	0	0	0	0	0
080112	12:06:40	10032	Trial2BackFr	N	3	0	1000	1	27	12:06:40	2007068	0	0	0	0	0	0	0	0	0	0	0	0	0	0	0	0	0
080112	12:06:40	10032	Trial2BackFr	N	3	0	1000	1	28	12:06:40	2008587	0	0	0	0	0	0	0	0	0	0	0	0	0	0	0	0	0
080112	12:06:40	10032	Trial2BackFr	N	3	0	1000	1	29	12:06:40	2010106	0	0	0	0	0	0	0	0	0	0	0	0	0	0	0	0	0
080112	12:06:40	10032	Trial2BackFr	Y	3	0	1000	0	29	12:06:40	2011626	0	0	0	0	0	0	0	0	0	0	0	0	0	0	0	0	0
080112	12:06:40	10032	Trial2BackFr	N	3	57	465	0	29	12:06:40	2012625	0	0	0	0	0	0	0	0	0	0	0	0	0	0	0	0	0
080112	12:06:40	10032	Trial2BackFr	N	3	0	1000	1	30	12:06:40	2014651	0	0	0	0	0	0	0	0	0	0	0	0	0	0	0	0	0
080112	12:06:40	10032	Trial2BackFr	N	3	0	1000	1	31	12:06:40	2016171	0	0	0	0	0	0	0	0	0	0	0	0	0	0	0	0	0
080112	12:06:40	10032	Trial2BackFr	N	3	0	1000	1	32	12:06:40	2017690	0	0	0	0	0	0	0	0	0	0	0	0	0	0	0	0	0
080112	12:06:40	10032	Trial2BackFr	N	3	0	1000	1	33	12:06:40	2019236	0	0	0	0	0	0	0	0	0	0	0	0	0	0	0	0	0
080112	12:06:40	10032	Trial2BackFr	N	3	0	1000	1	34	12:06:40	2020756	0	0	0	0	0	0	0	0	0	0	0	0	0	0	0	0	0
080112	12:06:40	10032	Trial2BackFr	Y	3	0	1000	0	34	12:06:40	2022275	0	0	0	0	0	0	0	0	0	0	0	0	0	0	0	0	0
080112	12:06:40	10032	Trial2BackFr	N	3	0	1000	1	35	12:06:40	2023794	0	0	0	0	0	0	0	0	0	0	0	0	0	0	0	0	0
080112	12:06:40	10032	Trial2BackFr	N	3	0	1000	1	36	12:06:40	2025314	0	0	0	0	0	0	0	0	0	0	0	0	0	0	0	0	0
080112	12:06:40	10032	Trial2BackFr	N	3	0	1000	1	37	12:06:40	2026833	0	0	0	0	0	0	0	0	0	0	0	0	0	0	0	0	0
080112	12:06:40	10032	Trial2BackFr	N	3	0	1000	1	38	12:06:40	2028353	0	0	0	0	0	0	0	0	0	0	0	0	0	0	0	0	0
080112	12:06:40	10032	Trial2BackFr	Y	3	0	1000	0	38	12:06:40	2029872	0	0	0	0	0	0	0	0	0	0	0	0	0	0	0	0	0
080112	12:06:40	10032	Trial2BackFr	N	3	0	1000	1	39	12:06:40	2031391	0	0	0	0	0	0	0	0	0	0	0	0	0	0	0	0	0
080112	12:06:40	10032	Trial2BackFr	N	3	0	1000	1	40	12:06:40	2032911	0	0	0	0	0	0	0	0	0	0	0	0	0	0	0	0	0
080112	12:06:40	10032	Trial2BackFr	N	3	0	1000	1	41	12:06:40	2034430	0	0	0	0	0	0	0	0	0	0	0	0	0	0	0	0	0
080112	12:06:40	10032	Trial2BackFr	N	3	0	1000	1	42	12:06:40	2035950	0	0	0	0	0	0	0	0	0	0	0	0	0	0	0	0	0
080112	12:06:40	10032	Trial2BackFr	N	3	0	1000	1	43	12:06:40	2037469	0	0	0	0	0	0	0	0	0	0	0	0	0	0	0	0	0
080112	12:06:40	10032	Trial2BackFr	Y	3	0	1000	0	43	12:06:40	2038989	0	0	0	0	0	0	0	0	0	0	0	0	0	0	0	0	0
080112	12:06:40	10032	Trial2BackFr	N	3	0	1000	1	44	12:06:40	2040508	0	0	0	0	0	0	0	0	0	0	0	0	0	0	0	0	0
080112	12:06:40	10032	Trial2BackFr	N	3	57	758	0	44	12:06:40	2041787	0	0	0	0	0	0	0	0	0	0	0	0	0	0	0	0	0
080112	12:06:40	10032	Trial2BackFr	N	3	0	1000	1	45	12:06:40	2043533	0	0	0	0	0	0	0	0	0	0	0	0	0	0	0	0	0
080112	12:06:40	10032	Trial2BackFr	N	3	0	1000	1	46	12:06:40	2045053	0	0	0	0	0	0	0	0	0	0	0	0	0	0	0	0	0
080112	12:06:40	10032	Trial2BackFr	N	3	0	1000	1	47	12:06:40	2046572	0	0	0	0	0	0	0	0	0	0	0	0	0	0	0	0	0
080112	12:06:40	10032	Trial2BackFr	N	3	0	1000	1	48	12:06:40	2048091	0	0	0	0	0	0	0	0	0	0	0	0	0	0	0	0	0
080112	12:06:40	10032	Trial2BackFr	Y	3	0	1000	0	48	12:06:40	2049611	0	0	0	0	0	0	0	0	0	0	0	0	0	0	0	0	0
080112	12:06:40	10032	Trial2BackFr	N	3	0	1000	1	49	12:06:40	2051130	0	0	0	0	0	0	0	0	0	0	0	0	0	0	0	0	0
080112	12:06:40	10032	Trial2BackFr	N	3	0	1000	1	50	12:06:40	2052650	0	0	0	0	0	0	0	0	0	0	0	0	0	0	0	0	0
080112	12:06:40	10032	Trial2BackFr	Y	3	0	1000	0	50	12:06:40	2054169	0	0	0	0	0	0	0	0	0	0	0	0	0	0	0	0	0
080112	12:06:40	10032	Trial2BackFr	N	3	0	1000	1	51	12:06:40	2055688	0	0	0	0	0	0	0	0	0	0	0	0	0	0	0	0	0
080112	12:06:40	10032	Trial2BackFr	N	3	0	1000	1	52	12:06:40	2057208	0	0	0	0	0	0	0	0	0	0	0	0	0	0	0	0	0
080112	12:06:40	10032	Trial2BackFr	N	3	0	1000	1	53	12:06:40	2058727	0	0	0	0	0	0	0	0	0	0	0	0	0	0	0	0	0
080112	12:06:40	10032	Trial2BackFr	N	3	0	1000	1	54	12:06:40	2060247	0	0	0	0	0	0	0	0	0	0	0	0	0	0	0	0	0
080112	12:06:40	10032	Trial2BackFr	N	3	57	634	0	54	12:06:40	2061406	0	0	0	0	0	0	0	0	0	0	0	0	0	0	0	0	0
080112	12:06:40	10032	Trial2BackFr	N	3	0	1000	1	55	12:06:40	2063272	0	0	0	0	0	0	0	0	0	0	0	0	0	0	0	0	0
080112	12:06:40	10032	Trial2BackFr	N	3	0	1000	1	56	12:06:40	2064792	0	0	0	0	0	0	0	0	0	0	0	0	0	0	0	0	0
080112	12:06:40	10032	Trial2BackFr	N	3	0	1000	1	57	12:06:40	2066311	0	0	0	0	0	0	0	0	0	0	0	0	0	0	0	0	0
080112	12:06:40	10032	Trial2BackFr	N	3	0	1000	1	58	12:06:40	2067830	0	0	0	0	0	0	0	0	0	0	0	0	0	0	0	0	0
080112	12:06:40	10032	Trial2BackFr	N	3	0	1000	1	59	12:06:40	2069350	0	0	0	0	0	0	0	0	0	0	0	0	0	0	0	0	0
080112	12:06:40	10032	Trial2BackFr	Y	3	0	1000	0	59	12:06:40	2070869	0	0	0	0	0	0	0	0	0	0	0	0	0	0	0	0	0
080112	12:06:40	10032	Trial2BackFr	N	3	0	1000	1	60	12:06:40	2072388	0	0	0	0	0	0	0	0	0	0	0	0	0	0	0	0	0
080112	12:06:40	10032	Trial2BackFr	N	3	0	1000	1	61	12:06:40	2073908	0	0	0	0	0	0	0	0	0	0	0	0	0	0	0	0	0
080112	12:06:40	10032	Trial2BackFr	N	3	0	1000	1	62	12:06:40	2075427	0	0	0	0	0	0	0	0	0	0	0	0	0	0	0	0	0
080112	12:06:40	10032	Trial2BackFr	Y	3	0	1000	0	62	12:06:40	2076947	0	0	0	0	0	0	0	0	0	0	0	0	0	0	0	0	0
080112	12:06:40	10032	Trial2BackFr	N	3	0	1000	1	63	12:06:40	2078466	0	0	0	0	0	0	0	0	0	0	0	0	0	0	0	0	0
080112	12:06:40	10032	Trial2BackFr	N	3	0	1000	1	64	12:06:40	2079986	0	0	0	0	0	0	0	0	0	0	0	0	0	0	0	0	0
080112	12:06:40	10032	Trial2BackFr	N	3	0	1000	1	65	12:06:40	2081505	0	0	0	0	0	0	0	0	0	0	0	0	0	0	0	0	0
080112	12:06:40	10032	Trial2BackFr	N	3	0	1000	1	66	12:06:40	2083024	0	0	0	0	0	0	0	0	0	0	0	0	0	0	0	0	0
080112	12:06:40	10032	Trial2BackFr	N	3	0	1000	1	67	12:06:40	2084544	0	0	0	0	0	0	0	0	0	0	0	0	0	0	0	0	0
080112	12:06:40	10032	Trial2BackFr	Y	3	0	1000	0	67	12:06:40	2086063	0	0	0	0	0	0	0	0	0	0	0	0	0	0	0	0	0
080112	12:06:40	10032	Trial2BackFr	N	3	0	1000	1	68	12:06:40	2087583	0	0	0	0	0	0	0	0	0	0	0	0	0	0	0	0	0
080112	12:06:40	10032	Trial2BackFr	N	3	0	1000	1	69	12:06:40	2089102	0	0	0	0	0	0	0	0	0	0	0	0	0	0	0	0	0
080112	12:06:40	10032	Trial2BackFr	N	3	0	1000	1	70	12:06:40	2090621	0	0	0	0	0	0	0	0	0	0	0	0	0	0	0	0	0
080112	12:06:40	10032	Trial2BackFr	N	3	0	1000	1	71	12:06:40	2092141	0	0	0	0	0	0	0	0	0	0	0	0	0	0	0	0	0
080112	12:06:40	10032	Trial2BackFr	N	3	0	1000	1	72	12:06:40	2093660	0	0	0	0	0	0	0	0	0	0	0	0	0	0	0	0	0
080112	12:06:40	10032	Trial2BackFr	N	3	0	1000	1	73	12:06:40	2095180	0	0	0	0	0	0	0	0	0	0	0	0	0	0	0	0	0
080112	12:06:40	10032	Trial2BackFr	N	3	0	1000	1	74	12:06:40	2096699	0	0	0	0	0	0	0	0	0	0	0	0	0	0	0	0	0
080112	12:06:40	10032	Trial2BackFr	N	3	0	1000	1	75	12:06:40	2098218	0	0	0	0	0	0	0	0	0	0	0	0	0	0	0	0	0
080112	12:06:40	10032	Trial2BackFr	N	3	0	1000	1	76	12:06:40	2099738	0	0	0	0	0	0	0	0	0	0	0	0	0	0	0	0	0
080112	12:06:40	10032	Trial2BackFr	Y	3	0	1000	0	76	12:06:40	2101257	0	0	0	0	0	0	0	0	0	0	0	0	0	0	0	0	0
080112	12:06:40	10032	Trial2BackFr	N	3	0	1000	1	77	12:06:40	2102777	0	0	0	0	0	0	0	0	0	0	0	0	0	0	0	0	0
080112	12:06:40	10032	Trial2BackFr	N	3	0	1000	1	78	12:06:40	2104296	0	0	0	0	0	0	0	0	0	0	0	0	0	0	0	0	0
080112	12:06:40	10032	Trial2BackFr	N	3	0	1000	1	79	12:06:40	2105815	0	0	0	0	0	0	0	0	0	0	0	0	0	0	0	0	0
080112	12:06:40	10032	Trial2BackFr	N	3	57	777	0	79	12:06:40	2107121	0	0	0	0	0	0	0	0	0	0	0	0	0	0	0	0	0
080112	12:06:40	10032	Trial2BackFr	N	3	0	1000	1	80	12:06:40	2108841	0	0	0	0	0	0	0	0	0	0	0	0	0	0	0	0	0
080112	12:06:40	10032	Trial2BackFr	N	3	0	1000	1	81	12:06:40	2110360	0	0	0	0	0	0	0	0	0	0	0	0	0	0	0	0	0
080112	12:06:40	10032	Trial2BackFr	N	3	0	1000	1	82	12:06:40	2111880	0	0	0	0	0	0	0	0	0	0	0	0	0	0	0	0	0
080112	12:06:40	10032	Trial2BackFr	N	3	0	1000	1	83	12:06:40	2113399	0	0	0	0	0	0	0	0	0	0	0	0	0	0	0	0	0
080112	12:06:40	10032	Trial2BackFr	Y	3	0	1000	0	83	12:06:40	2114919	0	0	0	0	0	0	0	0	0	0	0	0	0	0	0	0	0
080112	12:06:40	10032	Trial2BackFr	N	3	0	1000	1	84	12:06:40	2116438	0	0	0	0	0	0	0	0	0	0	0	0	0	0	0	0	0
080112	12:06:40	10032	Trial2BackFr	N	3	0	1000	1	85	12:06:40	2117957	0	0	0	0	0	0	0	0	0	0	0	0	0	0	0	0	0
080112	12:06:40	10032	Trial2BackFr	N	3	0	1000	1	86	12:06:40	2119477	0	0	0	0	0	0	0	0	0	0	0	0	0	0	0	0	0
080112	12:06:40	10032	Trial2BackFr	N	3	0	1000	1	87	12:06:40	2120996	0	0	0	0	0	0	0	0	0	0	0	0	0	0	0	0	0
080112	12:06:40	10032	Trial2BackFr	Y	3	0	1000	0	87	12:06:40	2122515	0	0	0	0	0	0	0	0	0	0	0	0	0	0	0	0	0
080112	12:06:40	10032	Trial2BackFr	N	3	0	1000	1	88	12:06:40	2124035	0	0	0	0	0	0	0	0	0	0	0	0	0	0	0	0	0
080112	12:06:40	10032	Trial2BackFr	N	3	0	1000	1	89	12:06:40	2125554	0	0	0	0	0	0	0	0	0	0	0	0	0	0	0	0	0
080112	12:06:40	10032	Trial2BackFr	N	3	0	1000	1	90	12:06:40	2127074	0	0	0	0	0	0	0	0	0	0	0	0	0	0	0	0	0
080112	12:06:40	10032	Trial2BackFr	Y	3	0	1000	0	90	12:06:40	2128593	0	0	0	0	0	0	0	0	0	0	0	0	0	0	0	0	0
080112	12:06:40	10032	Trial2BackFr	N	3	0	1000	1	91	12:06:40	2130112	0	0	0	0	0	0	0	0	0	0	0	0	0	0	0	0	0
080112	12:06:40	10032	Trial2BackFr	N	3	57	752	0	91	12:06:40	2131392	0	0	0	0	0	0	0	0	0	0	0	0	0	0	0	0	0
080112	12:06:40	10032	Trial2BackFr	N	3	0	1000	1	92	12:06:40	2133138	0	0	0	0	0	0	0	0	0	0	0	0	0	0	0	0	0
080112	12:06:40	10032	Trial2BackFr	N	3	0	1000	1	93	12:06:40	2134657	0	0	0	0	0	0	0	0	0	0	0	0	0	0	0	0	0
080112	12:06:40	10032	Trial2BackFr	N	3	0	1000	1	94	12:06:40	2136177	0	0	0	0	0	0	0	0	0	0	0	0	0	0	0	0	0
080112	12:06:40	10032	Trial2BackFr	Y	3	0	1000	0	94	12:06:40	2137696	0	0	0	0	0	0	0	0	0	0	0	0	0	0	0	0	0
080112	12:06:40	10032	Trial2BackFr	N	3	0	1000	1	95	12:06:40	2139216	0	0	0	0	0	0	0	0	0	0	0	0	0	0	0	0	0
080112	12:06:40	10032	Trial2BackFr	N	3	0	1000	1	96	12:06:40	2140735	0	0	0	0	0	0	0	0	0	0	0	0	0	0	0	0	0
080112	12:06:40	10032	Trial2BackFr	N	3	0	1000	1	97	12:06:40	2142254	0	0	0	0	0	0	0	0	0	0	0	0	0	0	0	0	0
080112	12:06:40	10032	Trial2BackFr	Y	3	0	1000	0	97	12:06:40	2143774	0	0	0	0	0	0	0	0	0	0	0	0	0	0	0	0	0
080112	12:06:40	10032	Memory1RBaselineFr	ScoreFr	5	M1	35298	0	97	12:06:40	2220904	0	0	0	0	0	0	0	0	0	0	0	0	0	0	0	0	0
080112	12:06:40	10032	Memory1RBaselineFr	ScoreFr	5	M6	2561	0	97	12:06:40	2223502	0	0	0	0	0	0	0	0	0	0	0	0	0	0	0	0	0
080112	12:06:40	10032	Memory1RBaselineFr	ScoreFr	5	Done	1266	0	97	12:06:40	2224809	0	0	0	0	0	0	0	0	0	0	0	0	0	0	0	0	0
080112	12:06:40	10032	Memory2RBaselineFr	ScoreFr2	5	66	25963	0	97	12:06:40	2269551	0	0	0	0	0	0	0	0	0	0	0	0	0	0	0	0	0
080112	12:06:40	10032	Memory2RBaselineFr	ScoreFr2	5	77	281	0	97	12:06:40	2269871	0	0	0	0	0	0	0	0	0	0	0	0	0	0	0	0	0
080112	12:06:40	10032	Memory2RBaselineFr	ScoreFr2	5	88	305	0	97	12:06:40	2270217	0	0	0	0	0	0	0	0	0	0	0	0	0	0	0	0	0
080112	12:06:40	10032	Memory2RBaselineFr	ScoreFr2	5	11	766	0	97	12:06:40	2271017	0	0	0	0	0	0	0	0	0	0	0	0	0	0	0	0	0
080112	12:06:40	10032	Memory2RBaselineFr	ScoreFr2	5	Done	1279	0	97	12:06:40	2272337	0	0	0	0	0	0	0	0	0	0	0	0	0	0	0	0	0
080112	12:06:40	10032	Memory3RBaselineFr	ScoreFr3	5	111	31872	0	97	12:06:40	2323210	0	0	0	0	0	0	0	0	0	0	0	0	0	0	0	0	0
080112	12:06:40	10032	Memory3RBaselineFr	ScoreFr3	5	222	333	0	97	12:06:40	2323583	0	0	0	0	0	0	0	0	0	0	0	0	0	0	0	0	0
080112	12:06:40	10032	Memory3RBaselineFr	ScoreFr3	5	333	736	0	97	12:06:40	2324356	0	0	0	0	0	0	0	0	0	0	0	0	0	0	0	0	0
080112	12:06:40	10032	Memory3RBaselineFr	ScoreFr3	5	666	2179	0	97	12:06:40	2326582	0	0	0	0	0	0	0	0	0	0	0	0	0	0	0	0	0
080112	12:06:40	10032	Memory3RBaselineFr	ScoreFr3	5	777	313	0	97	12:06:40	2326942	0	0	0	0	0	0	0	0	0	0	0	0	0	0	0	0	0
080112	12:06:40	10032	Memory3RBaselineFr	ScoreFr3	5	888	281	0	97	12:06:40	2327262	0	0	0	0	0	0	0	0	0	0	0	0	0	0	0	0	0
080112	12:06:40	10032	Memory3RBaselineFr	ScoreFr3	5	Done	641	0	97	12:06:40	2327941	0	0	0	0	0	0	0	0	0	0	0	0	0	0	0	0	0
080112	12:06:40	10032	LoriaFrLH3	Stop	6	3	3433	0	97	12:06:40	2424305	0	0	0	0	0	0	0	0	0	0	0	0	0	0	0	0	0
080112	12:06:40	10032	FrTrail	Trails	7	1Trails	901	0	97	12:06:40	2477429	0	0	0	0	0	0	0	0	0	0	0	0	0	0	0	0	0
080112	12:06:40	10032	Serial7FrBaseline	Serial7FrBaseline	8	83	2448	0	97	12:06:40	2507684	1	0	0	0	0	0	0	0	0	0	0	0	0	0	0	0	0
080112	12:06:40	10032	Serial7FrBaseline	Serial7FrBaseline	8	74	28887	0	97	12:06:40	2536596	1	0	0	0	0	0	0	0	0	0	0	0	0	0	0	0	0
080112	12:06:40	10032	Serial7FrBaseline	Serial7FrBaseline	8	67	5376	0	97	12:06:40	2541994	2	0	0	0	0	0	0	0	0	0	0	0	0	0	0	0	0
080112	12:06:40	10032	Serial7FrBaseline	Serial7FrBaseline	8	60	2554	0	97	12:06:40	2544567	3	0	0	0	0	0	0	0	0	0	0	0	0	0	0	0	0
080112	12:06:40	10032	Serial7FrBaseline	Serial7FrBaseline	8	51	2566	0	97	12:06:40	2547153	3	0	0	0	0	0	0	0	0	0	0	0	0	0	0	0	0
080112	12:06:40	10032	corsiblockFrFwrd	recallseqFrFwrd	9	7	22948	0	97	12:06:40	2638490	3	0	0	0	0	0	0	0	0	0	0	0	0	0	0	0	0
080112	12:06:40	10032	corsiblockFrFwrd	recallseqFrFwrd	9	5	3229	0	97	12:06:40	2641755	3	0	0	0	0	0	0	0	0	0	0	0	0	0	0	0	0
080112	12:06:40	10032	corsiblockFrFwrd	recallseqFrFwrd	9	doneCorsiFr	6315	0	97	12:06:40	2648113	3	0	0	0	0	0	0	0	0	0	0	0	0	0	0	2	0
080112	12:06:40	10032	corsiblockFrFwrd	recallseqFrFwrd	9	3	10354	0	97	12:06:40	2664560	3	0	0	0	0	0	0	0	0	0	0	0	0	0	0	2	0
080112	12:06:40	10032	corsiblockFrFwrd	recallseqFrFwrd	9	7	18423	0	97	12:06:40	2683019	3	0	0	0	0	0	0	0	0	0	0	0	0	0	0	2	0
080112	12:06:40	10032	corsiblockFrFwrd	recallseqFrFwrd	9	4	5251	0	97	12:06:40	2688311	3	0	0	0	0	0	0	0	0	0	0	0	0	0	0	2	0
080112	12:06:40	10032	corsiblockFrFwrd	recallseqFrFwrd	9	doneCorsiFr	13679	0	97	12:06:40	2702025	3	0	0	0	0	0	0	0	0	0	0	0	0	0	0	2	0
080112	12:06:40	10032	corsiblockFrFwrd	recallseqFrFwrd	9	8	3514	0	97	12:06:40	2711594	3	0	0	0	0	0	0	0	0	0	0	0	0	0	0	2	0
080112	12:06:40	10032	corsiblockFrFwrd	recallseqFrFwrd	9	4	5547	0	97	12:06:40	2717179	3	0	0	0	0	0	0	0	0	0	0	0	0	0	0	2	0
080112	12:06:40	10032	corsiblockFrFwrd	recallseqFrFwrd	9	1	6859	0	97	12:06:40	2724083	3	0	0	0	0	0	0	0	0	0	0	0	0	0	0	2	0
080112	12:06:40	10032	corsiblockFrFwrd	recallseqFrFwrd	9	doneCorsiFr	8419	0	97	12:06:40	2732546	3	0	0	0	0	0	0	0	0	0	0	0	0	0	0	3	0
080112	12:06:40	10032	corsiblockFrFwrd	recallseqFrFwrd	9	3	4208	0	97	12:06:40	2742849	3	0	0	0	0	0	0	0	0	0	0	0	0	0	0	3	0
080112	12:06:40	10032	corsiblockFrFwrd	recallseqFrFwrd	9	2	3269	0	97	12:06:40	2746154	3	0	0	0	0	0	0	0	0	0	0	0	0	0	0	3	0
080112	12:06:40	10032	corsiblockFrFwrd	recallseqFrFwrd	9	7	3756	0	97	12:06:40	2749953	3	0	0	0	0	0	0	0	0	0	0	0	0	0	0	3	0
080112	12:06:40	10032	corsiblockFrFwrd	recallseqFrFwrd	9	8	3077	0	97	12:06:40	2753071	3	0	0	0	0	0	0	0	0	0	0	0	0	0	0	3	0
080112	12:06:40	10032	corsiblockFrFwrd	recallseqFrFwrd	9	doneCorsiFr	8054	0	97	12:06:40	2761162	3	0	0	0	0	0	0	0	0	0	0	0	0	0	0	3	0
080112	12:06:40	10032	corsiblockFrFwrd	recallseqFrFwrd	9	2	4377	0	97	12:06:40	2772584	3	0	0	0	0	0	0	0	0	0	0	0	0	0	0	3	0
080112	12:06:40	10032	corsiblockFrFwrd	recallseqFrFwrd	9	1	3037	0	97	12:06:40	2775662	3	0	0	0	0	0	0	0	0	0	0	0	0	0	0	3	0
080112	12:06:40	10032	corsiblockFrFwrd	recallseqFrFwrd	9	9	4087	0	97	12:06:40	2779795	3	0	0	0	0	0	0	0	0	0	0	0	0	0	0	3	0
080112	12:06:40	10032	corsiblockFrFwrd	recallseqFrFwrd	9	4	5371	0	97	12:06:40	2785206	3	0	0	0	0	0	0	0	0	0	0	0	0	0	0	3	0
080112	12:06:40	10032	corsiblockFrFwrd	recallseqFrFwrd	9	doneCorsiFr	4303	0	97	12:06:40	2789550	3	0	0	0	0	0	0	0	0	0	0	0	0	0	0	3	0
080112	12:06:40	10032	corsiblockFrRev	recallseqFrRev	10	9	6125	0	97	12:06:40	2826563	3	0	0	0	0	0	0	0	0	0	0	0	0	0	0	3	0
080112	12:06:40	10032	corsiblockFrRev	recallseqFrRev	10	4	2346	0	97	12:06:40	2828948	3	0	0	0	0	0	0	0	0	0	0	0	0	0	0	3	0
080112	12:06:40	10032	corsiblockFrRev	recallseqFrRev	10	doneCorsiFr	2369	0	97	12:06:40	2831361	3	0	0	0	0	0	0	0	0	0	0	0	0	0	0	3	2
080112	12:06:40	10032	corsiblockFrRev	recallseqFrRev	10	7	2904	0	97	12:06:40	2840357	3	0	0	0	0	0	0	0	0	0	0	0	0	0	0	3	2
080112	12:06:40	10032	corsiblockFrRev	recallseqFrRev	10	8	1631	0	97	12:06:40	2842023	3	0	0	0	0	0	0	0	0	0	0	0	0	0	0	3	2
080112	12:06:40	10032	corsiblockFrRev	recallseqFrRev	10	8	62	0	97	12:06:40	2842130	3	0	0	0	0	0	0	0	0	0	0	0	0	0	0	3	2
080112	12:06:40	10032	corsiblockFrRev	recallseqFrRev	10	6	3715	0	97	12:06:40	2845888	3	0	0	0	0	0	0	0	0	0	0	0	0	0	0	3	2
080112	12:06:40	10032	corsiblockFrRev	recallseqFrRev	10	doneCorsiFr	2947	0	97	12:06:40	2848874	3	0	0	0	0	0	0	0	0	0	0	0	0	0	0	3	2
080112	12:06:40	10032	corsiblockFrRev	recallseqFrRev	10	2	4264	0	97	12:06:40	2859190	3	0	0	0	0	0	0	0	0	0	0	0	0	0	0	3	2
080112	12:06:40	10032	corsiblockFrRev	recallseqFrRev	10	3	1918	0	97	12:06:40	2861149	3	0	0	0	0	0	0	0	0	0	0	0	0	0	0	3	2
080112	12:06:40	10032	corsiblockFrRev	recallseqFrRev	10	1	2063	0	97	12:06:40	2863255	3	0	0	0	0	0	0	0	0	0	0	0	0	0	0	3	2
080112	12:06:40	10032	corsiblockFrRev	recallseqFrRev	10	doneCorsiFr	2773	0	97	12:06:40	2866067	3	0	0	0	0	0	0	0	0	0	0	0	0	0	0	3	3
080112	12:06:40	10032	corsiblockFrRev	recallseqFrRev	10	2	2134	0	97	12:06:40	2874290	3	0	0	0	0	0	0	0	0	0	0	0	0	0	0	3	3
080112	12:06:40	10032	corsiblockFrRev	recallseqFrRev	10	7	2570	0	97	12:06:40	2876903	3	0	0	0	0	0	0	0	0	0	0	0	0	0	0	3	3
080112	12:06:40	10032	corsiblockFrRev	recallseqFrRev	10	4	2373	0	97	12:06:40	2879315	3	0	0	0	0	0	0	0	0	0	0	0	0	0	0	3	3
080112	12:06:40	10032	corsiblockFrRev	recallseqFrRev	10	1	4825	0	97	12:06:40	2884180	3	0	0	0	0	0	0	0	0	0	0	0	0	0	0	3	3
080112	12:06:40	10032	corsiblockFrRev	recallseqFrRev	10	doneCorsiFr	8096	0	97	12:06:40	2892310	3	0	0	0	0	0	0	0	0	0	0	0	0	0	0	3	3
080112	12:06:40	10032	corsiblockFrRev	recallseqFrRev	10	9	1771	0	97	12:06:40	2901133	3	0	0	0	0	0	0	0	0	0	0	0	0	0	0	3	3
080112	12:06:40	10032	corsiblockFrRev	recallseqFrRev	10	8	2030	0	97	12:06:40	2903199	3	0	0	0	0	0	0	0	0	0	0	0	0	0	0	3	3
080112	12:06:40	10032	corsiblockFrRev	recallseqFrRev	10	4	2412	0	97	12:06:40	2905651	3	0	0	0	0	0	0	0	0	0	0	0	0	0	0	3	3
080112	12:06:40	10032	corsiblockFrRev	recallseqFrRev	10	6	1718	0	97	12:06:40	2907411	3	0	0	0	0	0	0	0	0	0	0	0	0	0	0	3	3
080112	12:06:40	10032	corsiblockFrRev	recallseqFrRev	10	doneCorsiFr	2185	0	97	12:06:40	2909636	3	0	0	0	0	0	0	0	0	0	0	0	0	0	0	3	4
080112	12:06:40	10032	corsiblockFrRev	recallseqFrRev	10	5	3523	0	97	12:06:40	2920246	3	0	0	0	0	0	0	0	0	0	0	0	0	0	0	3	4
080112	12:06:40	10032	corsiblockFrRev	recallseqFrRev	10	3	2366	0	97	12:06:40	2922645	3	0	0	0	0	0	0	0	0	0	0	0	0	0	0	3	4
080112	12:06:40	10032	corsiblockFrRev	recallseqFrRev	10	5	3422	0	97	12:06:40	2926110	3	0	0	0	0	0	0	0	0	0	0	0	0	0	0	3	4
080112	12:06:40	10032	corsiblockFrRev	recallseqFrRev	10	1	8757	0	97	12:06:40	2934906	3	0	0	0	0	0	0	0	0	0	0	0	0	0	0	3	4
080112	12:06:40	10032	corsiblockFrRev	recallseqFrRev	10	1	25	0	97	12:06:40	2934973	3	0	0	0	0	0	0	0	0	0	0	0	0	0	0	3	4
080112	12:06:40	10032	corsiblockFrRev	recallseqFrRev	10	doneCorsiFr	4390	0	97	12:06:40	2939398	3	0	0	0	0	0	0	0	0	0	0	0	0	0	0	3	4
080112	12:06:40	10032	corsiblockFrRev	recallseqFrRev	10	8	3202	0	97	12:06:40	2950647	3	0	0	0	0	0	0	0	0	0	0	0	0	0	0	3	4
080112	12:06:40	10032	corsiblockFrRev	recallseqFrRev	10	6	2756	0	97	12:06:40	2953446	3	0	0	0	0	0	0	0	0	0	0	0	0	0	0	3	4
080112	12:06:40	10032	corsiblockFrRev	recallseqFrRev	10	4	1189	0	97	12:06:40	2954672	3	0	0	0	0	0	0	0	0	0	0	0	0	0	0	3	4
080112	12:06:40	10032	corsiblockFrRev	recallseqFrRev	10	7	2683	0	97	12:06:40	2957391	3	0	0	0	0	0	0	0	0	0	0	0	0	0	0	3	4
080112	12:06:40	10032	corsiblockFrRev	recallseqFrRev	10	doneCorsiFr	2348	0	97	12:06:40	2959777	3	0	0	0	0	0	0	0	0	0	0	0	0	0	0	3	4
080112	12:06:40	10032	testFrBaseline	WordsFrBaseline	11	1FrBaseline	2796	0	97	12:06:40	2997629	3	1	0	0	0	0	0	0	0	0	0	0	0	0	0	3	4
080112	12:06:40	10032	testFrBaseline	WordsFrBaseline	11	6FrBaseline	445	0	97	12:06:40	2998108	3	1	0	0	0	0	1	0	0	0	0	0	0	0	0	3	4
080112	12:06:40	10032	testFrBaseline	WordsFrBaseline	11	7FrBaseline	382	0	97	12:06:40	2998535	3	1	0	0	0	0	1	1	0	0	0	0	0	0	0	3	4
080112	12:06:40	10032	testFrBaseline	WordsFrBaseline	11	DoneFrBaseline	828	0	97	12:06:40	2999401	3	1	0	0	0	0	1	1	0	0	0	0	0	0	0	3	4
080112	12:06:40	10032	testFrBaseline	Cat2FrBaseline	11	0	1	0	97	12:06:40	2999418	3	1	0	0	0	0	1	1	0	0	0	0	0	0	0	3	4
080112	12:06:40	10032	testFrBaseline	Ch2FrBaseline	11	RR2FrBaseline	8113	0	97	12:06:40	3007558	3	1	3	0	0	0	1	1	0	0	0	0	0	0	0	3	4
080112	12:06:40	10032	testFrBaseline	Cat3FrBaseline	11	W3FrBaseline	10285	0	97	12:06:40	3017887	3	1	3	0	0	0	1	1	0	0	0	0	0	0	0	3	4
080112	12:06:40	10032	testFrBaseline	Ch3FrBaseline	11	RR3FrBaseline	5315	0	97	12:06:40	3023245	3	1	3	3	0	0	1	1	0	0	0	0	0	0	0	3	4
080112	12:06:40	10032	testFrBaseline	Cat4FrBaseline	11	0	1	0	97	12:06:40	3023261	3	1	3	3	0	0	1	1	0	0	0	0	0	0	0	3	4
080112	12:06:40	10032	testFrBaseline	Ch4FrBaseline	11	RR4FrBaseline	8078	0	97	12:06:40	3031361	3	1	3	3	3	0	1	1	0	0	0	0	0	0	0	3	4
080112	12:06:40	10032	testFrBaseline	Cat5FrBaseline	11	W5FrBaseline	6392	0	97	12:06:40	3037799	3	1	3	3	3	0	1	1	0	0	0	0	0	0	0	3	4
080112	12:06:40	10032	testFrBaseline	Ch5FrBaseline	11	RR5FrBaseline	7411	0	97	12:06:40	3045249	3	1	3	3	3	3	1	1	0	0	0	0	0	0	0	3	4
080112	12:06:40	10032	testFrBaseline	Cat8FrBaseline	11	W8FrBaseline	7737	0	97	12:06:40	3053020	3	1	3	3	3	3	1	1	0	0	0	0	0	0	0	3	4
080112	12:06:40	10032	testFrBaseline	Ch8FrBaseline	11	RR8FrBaseline	5102	0	97	12:06:40	3058164	3	1	3	3	3	3	1	1	3	0	0	0	0	0	0	3	4
080112	12:06:40	10032	DigitSpanFwrdFrBaseline	Score1FwrdFrBaseline	12	DS1	5034	0	97	12:06:40	3082381	3	1	3	3	3	3	1	1	3	0	0	0	0	0	0	3	4
080112	12:06:40	10032	DigitSpanFwrdFrBaseline	Gate1FwrdFrBaseline	12	0	1	0	97	12:06:40	3082397	3	1	3	3	3	3	1	1	3	3	0	0	0	0	0	3	4
080112	12:06:40	10032	DigitSpanFwrdFrBaseline	Score2FwrdFrBaseline	12	DS1	6028	0	97	12:06:40	3094590	3	1	3	3	3	3	1	1	3	3	0	0	0	0	0	3	4
080112	12:06:40	10032	DigitSpanFwrdFrBaseline	Gate3FwrdFrBaseline	12	0	1	0	97	12:06:40	3094605	3	1	3	3	3	3	1	1	3	4	0	0	0	0	0	3	4
080112	12:06:40	10032	DigitSpanFwrdFrBaseline	Score3FwrdFrBaseline	12	DS2	8363	0	97	12:06:40	3109931	3	1	3	3	3	3	1	1	3	4	0	0	0	0	0	3	4
080112	12:06:40	10032	DigitSpanFwrdFrBaseline	Gate5FwrdFrBaseline	12	0	1	0	97	12:06:40	3109946	3	1	3	3	3	3	1	1	3	4	0	0	0	0	0	3	4
080112	12:06:40	10032	DigitSpanFwrdFrBaseline	Score33FwrdFrBaseline	12	DS2	16524	0	97	12:06:40	3134907	3	1	3	3	3	3	1	1	3	4	0	0	0	0	0	3	4
080112	12:06:40	10032	DigitSpanFrBaseline	Score1FrBaseline	13	DS1	4155	0	97	12:06:40	3153900	3	1	3	3	3	3	1	1	3	4	0	0	0	0	0	3	4
080112	12:06:40	10032	DigitSpanFrBaseline	Gate1FrBaseline	13	0	1	0	97	12:06:40	3153915	3	1	3	3	3	3	1	1	3	4	2	0	0	0	0	3	4
080112	12:06:40	10032	DigitSpanFrBaseline	Score2FrBaseline	13	DS2	5935	0	97	12:06:40	3164349	3	1	3	3	3	3	1	1	3	4	2	0	0	0	0	3	4
080112	12:06:40	10032	DigitSpanFrBaseline	Gate3FrBaseline	13	0	1	0	97	12:06:40	3164364	3	1	3	3	3	3	1	1	3	4	2	0	0	0	0	3	4
080112	12:06:40	10032	DigitSpanFrBaseline	Score22FrBaseline	13	DS2	8444	0	97	12:06:40	3177464	3	1	3	3	3	3	1	1	3	4	2	0	0	0	0	3	4
080112	12:06:40	10032	Trial	IncongruentRight	14	0	737	0	97	12:06:40	3260884	3	1	3	3	3	3	1	1	3	4	2	0	0	0	0	3	4
080112	12:06:40	10032	Trial	IncongruentLeft	14	203	605	1	97	12:06:40	3261764	3	1	3	3	3	3	1	1	3	4	2	0	0	0	0	3	4
080112	12:06:40	10032	Trial	CongruentRight	14	205	422	1	97	12:06:40	3262577	3	1	3	3	3	3	1	1	3	4	2	0	0	0	0	3	4
080112	12:06:40	10032	Trial	IncongruentRight	14	203	318	0	97	12:06:40	3263483	3	1	3	3	3	3	1	1	3	4	2	0	0	0	0	3	4
080112	12:06:40	10032	Trial	CongruentLeft	14	205	313	0	97	12:06:40	3264483	3	1	3	3	3	3	1	1	3	4	2	0	0	0	0	3	4
080112	12:06:40	10032	Trial	CongruentRight	14	205	2	1	97	12:06:40	3265177	3	1	3	3	3	3	1	1	3	4	2	0	0	0	0	3	4
080112	12:06:40	10032	Trial	IncongruentRight	14	205	378	1	97	12:06:40	3266549	3	1	3	3	3	3	1	1	3	4	2	0	0	0	0	3	4
080112	12:06:40	10032	Trial	CongruentLeft	14	203	418	1	97	12:06:40	3267588	3	1	3	3	3	3	1	1	3	4	2	0	0	0	0	3	4
080112	12:06:40	10032	Trial	IncongruentLeft	14	203	619	1	97	12:06:40	3268788	3	1	3	3	3	3	1	1	3	4	2	0	0	0	0	3	4
080112	12:06:40	10032	Trial	IncongruentLeft	14	203	595	1	97	12:06:40	3269760	3	1	3	3	3	3	1	1	3	4	2	0	0	0	0	3	4
080112	12:06:40	10032	Trial	CongruentRight	14	205	683	1	97	12:06:40	3270853	3	1	3	3	3	3	1	1	3	4	2	0	0	0	0	3	4
080112	12:06:40	10032	Trial	IncongruentRight	14	205	532	1	97	12:06:40	3271707	3	1	3	3	3	3	1	1	3	4	2	0	0	0	0	3	4
080112	12:06:40	10032	Trial	CongruentLeft	14	203	588	1	97	12:06:40	3272759	3	1	3	3	3	3	1	1	3	4	2	0	0	0	0	3	4
080112	12:06:40	10032	Trial	CongruentRight	14	205	613	1	97	12:06:40	3273786	3	1	3	3	3	3	1	1	3	4	2	0	0	0	0	3	4
080112	12:06:40	10032	Trial	IncongruentLeft	14	203	621	1	97	12:06:40	3274785	3	1	3	3	3	3	1	1	3	4	2	0	0	0	0	3	4
080112	12:06:40	10032	Trial	IncongruentRight	14	205	629	1	97	12:06:40	3275798	3	1	3	3	3	3	1	1	3	4	2	0	0	0	0	3	4
080112	12:06:40	10032	Trial	CongruentRight	14	205	717	1	97	12:06:40	3276891	3	1	3	3	3	3	1	1	3	4	2	0	0	0	0	3	4
080112	12:06:40	10032	Trial	CongruentLeft	14	0	737	0	97	12:06:40	3277904	3	1	3	3	3	3	1	1	3	4	2	0	0	0	0	3	4
080112	12:06:40	10032	Trial	CongruentRight	14	0	737	0	97	12:06:40	3279050	3	1	3	3	3	3	1	1	3	4	2	0	0	0	0	3	4
080112	12:06:40	10032	Trial	IncongruentRight	14	0	737	0	97	12:06:40	3280063	3	1	3	3	3	3	1	1	3	4	2	0	0	0	0	3	4
080112	12:06:40	10032	Trial	IncongruentLeft	14	203	690	1	97	12:06:40	3281023	3	1	3	3	3	3	1	1	3	4	2	0	0	0	0	3	4
080112	12:06:40	10032	Trial	IncongruentLeft	14	205	250	0	97	12:06:40	3281583	3	1	3	3	3	3	1	1	3	4	2	0	0	0	0	3	4
080112	12:06:40	10032	Trial	CongruentLeft	14	205	483	0	97	12:06:40	3282822	3	1	3	3	3	3	1	1	3	4	2	0	0	0	0	3	4
080112	12:06:40	10032	Trial	CongruentRight	14	0	737	0	97	12:06:40	3284075	3	1	3	3	3	3	1	1	3	4	2	0	0	0	0	3	4
080112	12:06:40	10032	Trial	IncongruentLeft	14	203	535	1	97	12:06:40	3284888	3	1	3	3	3	3	1	1	3	4	2	0	0	0	0	3	4
080112	12:06:40	10032	Trial	IncongruentRight	14	205	543	1	97	12:06:40	3285887	3	1	3	3	3	3	1	1	3	4	2	0	0	0	0	3	4
080112	12:06:40	10032	Trial	CongruentRight	14	203	728	0	97	12:06:40	3287074	3	1	3	3	3	3	1	1	3	4	2	0	0	0	0	3	4
080112	12:06:40	10032	Trial	CongruentLeft	14	0	737	0	97	12:06:40	3288087	3	1	3	3	3	3	1	1	3	4	2	0	0	0	0	3	4
080112	12:06:40	10032	Trial	IncongruentRight	14	0	737	0	97	12:06:40	3289100	3	1	3	3	3	3	1	1	3	4	2	0	0	0	0	3	4
080112	12:06:40	10032	Trial	IncongruentLeft	14	203	629	1	97	12:06:40	3290006	3	1	3	3	3	3	1	1	3	4	2	0	0	0	0	3	4
080112	12:06:40	10032	Trial	IncongruentRight	14	205	542	1	97	12:06:40	3290912	3	1	3	3	3	3	1	1	3	4	2	0	0	0	0	3	4
080112	12:06:40	10032	Trial	CongruentRight	14	0	737	0	97	12:06:40	3292112	3	1	3	3	3	3	1	1	3	4	2	0	0	0	0	3	4
080112	12:06:40	10032	Trial	IncongruentLeft	14	203	609	1	97	12:06:40	3292992	3	1	3	3	3	3	1	1	3	4	2	0	0	0	0	3	4
080112	12:06:40	10032	Trial	CongruentLeft	14	203	537	1	97	12:06:40	3293925	3	1	3	3	3	3	1	1	3	4	2	0	0	0	0	3	4
080112	12:06:40	10032	Trial	CongruentRight	14	205	658	1	97	12:06:40	3295044	3	1	3	3	3	3	1	1	3	4	2	0	0	0	0	3	4
080112	12:06:40	10032	Trial	IncongruentLeft	14	203	621	1	97	12:06:40	3296017	3	1	3	3	3	3	1	1	3	4	2	0	0	0	0	3	4
080112	12:06:40	10032	Trial	IncongruentRight	14	205	629	1	97	12:06:40	3297030	3	1	3	3	3	3	1	1	3	4	2	0	0	0	0	3	4
080112	12:06:40	10032	Trial	IncongruentRight	14	205	686	1	97	12:06:40	3298083	3	1	3	3	3	3	1	1	3	4	2	0	0	0	0	3	4
080112	12:06:40	10032	Trial	CongruentLeft	14	203	630	1	97	12:06:40	3299029	3	1	3	3	3	3	1	1	3	4	2	0	0	0	0	3	4
080112	12:06:40	10032	Trial	IncongruentLeft	14	203	606	1	97	12:06:40	3300002	3	1	3	3	3	3	1	1	3	4	2	0	0	0	0	3	4
080112	12:06:40	10032	Trial	CongruentRight	14	205	583	1	97	12:06:40	3300975	3	1	3	3	3	3	1	1	3	4	2	0	0	0	0	3	4
080112	12:06:40	10032	Trial	CongruentLeft	14	0	737	0	97	12:06:40	3302121	3	1	3	3	3	3	1	1	3	4	2	0	0	0	0	3	4
080112	12:06:40	10032	Trial	IncongruentRight	14	205	328	1	97	12:06:40	3302721	3	1	3	3	3	3	1	1	3	4	2	0	0	0	0	3	4
080112	12:06:40	10032	Trial	CongruentRight	14	203	496	0	97	12:06:40	3303894	3	1	3	3	3	3	1	1	3	4	2	0	0	0	0	3	4
080112	12:06:40	10032	Trial	IncongruentLeft	14	0	737	0	97	12:06:40	3305133	3	1	3	3	3	3	1	1	3	4	2	0	0	0	0	3	4
080112	12:06:40	10032	Trial	CongruentLeft	14	205	291	0	97	12:06:40	3305707	3	1	3	3	3	3	1	1	3	4	2	0	0	0	0	3	4
080112	12:06:40	10032	Trial	IncongruentLeft	14	0	737	0	97	12:06:40	3307146	3	1	3	3	3	3	1	1	3	4	2	0	0	0	0	3	4
080112	12:06:40	10032	Trial	IncongruentRight	14	205	647	1	97	12:06:40	3308065	3	1	3	3	3	3	1	1	3	4	2	0	0	0	0	3	4
080112	12:06:40	10032	Trial	CongruentRight	14	0	737	0	97	12:06:40	3309159	3	1	3	3	3	3	1	1	3	4	2	0	0	0	0	3	4
080112	12:06:40	10032	Trial	CongruentLeft	14	203	634	1	97	12:06:40	3310065	3	1	3	3	3	3	1	1	3	4	2	0	0	0	0	3	4
080112	12:06:40	10032	Trial	CongruentLeft	14	203	627	1	97	12:06:40	3311064	3	1	3	3	3	3	1	1	3	4	2	0	0	0	0	3	4
080112	12:06:40	10032	Trial	IncongruentRight	14	0	737	0	97	12:06:40	3312171	3	1	3	3	3	3	1	1	3	4	2	0	0	0	0	3	4
080112	12:06:40	10032	Trial	IncongruentLeft	14	205	599	0	97	12:06:40	3313050	3	1	3	3	3	3	1	1	3	4	2	0	0	0	0	3	4
080112	12:06:40	10032	Trial	IncongruentRight	14	0	737	0	97	12:06:40	3314183	3	1	3	3	3	3	1	1	3	4	2	0	0	0	0	3	4
080112	12:06:40	10032	Trial	CongruentRight	14	0	737	0	97	12:06:40	3315196	3	1	3	3	3	3	1	1	3	4	2	0	0	0	0	3	4
080112	12:06:40	10032	Trial	CongruentRight	14	0	737	0	97	12:06:40	3316209	3	1	3	3	3	3	1	1	3	4	2	0	0	0	0	3	4
080112	12:06:40	10032	Trial	IncongruentLeft	14	203	560	1	97	12:06:40	3317049	3	1	3	3	3	3	1	1	3	4	2	0	0	0	0	3	4
080112	12:06:40	10032	Trial	CongruentLeft	14	203	616	1	97	12:06:40	3318102	3	1	3	3	3	3	1	1	3	4	2	0	0	0	0	3	4
080112	12:06:40	10032	Trial	CongruentRight	14	205	641	1	97	12:06:40	3319128	3	1	3	3	3	3	1	1	3	4	2	0	0	0	0	3	4
080112	12:06:40	10032	Trial	CongruentLeft	14	0	737	0	97	12:06:40	3320221	3	1	3	3	3	3	1	1	3	4	2	0	0	0	0	3	4
080112	12:06:40	10032	Trial	IncongruentRight	14	0	737	0	97	12:06:40	3321234	3	1	3	3	3	3	1	1	3	4	2	0	0	0	0	3	4
080112	12:06:40	10032	Trial	CongruentRight	14	205	719	1	97	12:06:40	3322233	3	1	3	3	3	3	1	1	3	4	2	0	0	0	0	3	4
080112	12:06:40	10032	Trial	CongruentLeft	14	0	737	0	97	12:06:40	3323246	3	1	3	3	3	3	1	1	3	4	2	0	0	0	0	3	4
080112	12:06:40	10032	Trial	IncongruentLeft	14	203	674	1	97	12:06:40	3324193	3	1	3	3	3	3	1	1	3	4	2	0	0	0	0	3	4
080112	12:06:40	10032	Trial	IncongruentLeft	14	0	737	0	97	12:06:40	3325259	3	1	3	3	3	3	1	1	3	4	2	0	0	0	0	3	4
080112	12:06:40	10032	Trial	CongruentRight	14	205	582	1	97	12:06:40	3326112	3	1	3	3	3	3	1	1	3	4	2	0	0	0	0	3	4
080112	12:06:40	10032	Trial	IncongruentRight	14	0	737	0	97	12:06:40	3327271	3	1	3	3	3	3	1	1	3	4	2	0	0	0	0	3	4
080112	12:06:40	10032	Trial	CongruentLeft	14	203	697	1	97	12:06:40	3328244	3	1	3	3	3	3	1	1	3	4	2	0	0	0	0	3	4
080112	12:06:40	10032	Trial	IncongruentRight	14	0	737	0	97	12:06:40	3329284	3	1	3	3	3	3	1	1	3	4	2	0	0	0	0	3	4
080112	12:06:40	10032	Trial	CongruentRight	14	0	737	0	97	12:06:40	3330297	3	1	3	3	3	3	1	1	3	4	2	0	0	0	0	3	4
080112	12:06:40	10032	Trial	IncongruentLeft	14	203	600	1	97	12:06:40	3331176	3	1	3	3	3	3	1	1	3	4	2	0	0	0	0	3	4
080112	12:06:40	10032	Trial	CongruentLeft	14	203	624	1	97	12:06:40	3332203	3	1	3	3	3	3	1	1	3	4	2	0	0	0	0	3	4
080112	12:06:40	10032	Trial	CongruentRight	14	205	585	1	97	12:06:40	3333162	3	1	3	3	3	3	1	1	3	4	2	0	0	0	0	3	4
080112	12:06:40	10032	Trial	IncongruentLeft	14	203	580	1	97	12:06:40	3334162	3	1	3	3	3	3	1	1	3	4	2	0	0	0	0	3	4
080112	12:06:40	10032	Trial	CongruentRight	14	205	524	1	97	12:06:40	3335108	3	1	3	3	3	3	1	1	3	4	2	0	0	0	0	3	4
080112	12:06:40	10032	Trial	CongruentRight	14	205	645	1	97	12:06:40	3336228	3	1	3	3	3	3	1	1	3	4	2	0	0	0	0	3	4
080112	12:06:40	10032	Trial	IncongruentRight	14	0	737	0	97	12:06:40	3337307	3	1	3	3	3	3	1	1	3	4	2	0	0	0	0	3	4
080112	12:06:40	10032	Trial	CongruentLeft	14	203	629	1	97	12:06:40	3338214	3	1	3	3	3	3	1	1	3	4	2	0	0	0	0	3	4
080112	12:06:40	10032	Trial	IncongruentLeft	14	0	737	0	97	12:06:40	3339320	3	1	3	3	3	3	1	1	3	4	2	0	0	0	0	3	4
080112	12:06:40	10032	Trial	CongruentLeft	14	0	737	0	97	12:06:40	3340333	3	1	3	3	3	3	1	1	3	4	2	0	0	0	0	3	4
080112	12:06:40	10032	Trial	IncongruentRight	14	205	483	1	97	12:06:40	3341093	3	1	3	3	3	3	1	1	3	4	2	0	0	0	0	3	4
080112	12:06:40	10032	Trial	IncongruentLeft	14	203	476	1	97	12:06:40	3342079	3	1	3	3	3	3	1	1	3	4	2	0	0	0	0	3	4
080112	12:06:40	10032	Trial	CongruentRight	14	205	389	1	97	12:06:40	3342999	3	1	3	3	3	3	1	1	3	4	2	0	0	0	0	3	4
080112	12:06:40	10032	Trial	CongruentLeft	14	203	496	1	97	12:06:40	3344118	3	1	3	3	3	3	1	1	3	4	2	0	0	0	0	3	4
080112	12:06:40	10032	Trial	IncongruentLeft	14	203	648	1	97	12:06:40	3345264	3	1	3	3	3	3	1	1	3	4	2	0	0	0	0	3	4
080112	12:06:40	10032	Trial	CongruentLeft	14	203	608	1	97	12:06:40	3346224	3	1	3	3	3	3	1	1	3	4	2	0	0	0	0	3	4
080112	12:06:40	10032	Trial	IncongruentRight	14	205	505	1	97	12:06:40	3347130	3	1	3	3	3	3	1	1	3	4	2	0	0	0	0	3	4
080112	12:06:40	10032	Trial	CongruentRight	14	205	593	1	97	12:06:40	3348210	3	1	3	3	3	3	1	1	3	4	2	0	0	0	0	3	4
080112	12:06:40	10032	Trial	IncongruentLeft	14	203	618	1	97	12:06:40	3349236	3	1	3	3	3	3	1	1	3	4	2	0	0	0	0	3	4
080112	12:06:40	10032	Trial	CongruentLeft	14	203	626	1	97	12:06:40	3350249	3	1	3	3	3	3	1	1	3	4	2	0	0	0	0	3	4
080112	12:06:40	10032	Trial	IncongruentRight	14	205	538	1	97	12:06:40	3351155	3	1	3	3	3	3	1	1	3	4	2	0	0	0	0	3	4
080112	12:06:40	10032	Trial	IncongruentLeft	14	203	723	1	97	12:06:40	3352342	3	1	3	3	3	3	1	1	3	4	2	0	0	0	0	3	4
080112	12:06:40	10032	Trial	CongruentLeft	14	0	737	0	97	12:06:40	3353354	3	1	3	3	3	3	1	1	3	4	2	0	0	0	0	3	4
080112	12:06:40	10032	Trial	IncongruentLeft	14	0	737	0	97	12:06:40	3354368	3	1	3	3	3	3	1	1	3	4	2	0	0	0	0	3	4
080112	12:06:40	10032	Trial	CongruentRight	14	205	705	1	97	12:06:40	3355354	3	1	3	3	3	3	1	1	3	4	2	0	0	0	0	3	4
080112	12:06:40	10032	Trial	CongruentLeft	14	203	729	1	97	12:06:40	3356367	3	1	3	3	3	3	1	1	3	4	2	0	0	0	0	3	4
080112	12:06:40	10032	Trial	IncongruentRight	14	205	532	1	97	12:06:40	3357193	3	1	3	3	3	3	1	1	3	4	2	0	0	0	0	3	4
080112	12:06:40	10032	Trial	CongruentLeft	14	203	509	1	97	12:06:40	3358166	3	1	3	3	3	3	1	1	3	4	2	0	0	0	0	3	4
080112	12:06:40	10032	Trial	CongruentRight	14	205	469	1	97	12:06:40	3359126	3	1	3	3	3	3	1	1	3	4	2	0	0	0	0	3	4
080112	12:06:40	10032	Trial	IncongruentLeft	14	203	462	1	97	12:06:40	3360112	3	1	3	3	3	3	1	1	3	4	2	0	0	0	0	3	4
080112	12:06:40	10032	WordsAbsFrBaseline	PAbsFrBaseline1	16	Abs1	5479	0	97	12:06:40	3397684	3	1	3	3	3	3	1	1	3	4	2	0	0	0	0	3	4
080112	12:06:40	10032	WordsAbsFrBaseline	AbsFrBaseline1	16	Abs1	3089	0	97	12:06:40	3400816	3	1	3	3	3	3	1	1	3	4	2	1	0	0	0	3	4
080112	12:06:40	10032	WordsAbsFrBaseline	AbsFrBaseline2	16	Abs2	10236	0	97	12:06:40	3411092	3	1	3	3	3	3	1	1	3	4	2	1	0	0	0	3	4
080112	12:06:40	10032	WordsAbsFrBaseline	AbsFrBaseline3	16	Abs1	21280	0	97	12:06:40	3432417	3	1	3	3	3	3	1	1	3	4	2	2	0	0	0	3	4
080112	12:06:40	10032	Trial2BackFrS	NS	17	0	1000	1	97	12:06:40	3478812	3	1	3	3	3	3	1	1	3	4	2	2	0	0	0	3	4
080112	12:06:40	10032	Trial2BackFrS	NS	17	0	1000	1	97	12:06:40	3480331	3	1	3	3	3	3	1	1	3	4	2	2	0	0	0	3	4
080112	12:06:40	10032	Trial2BackFrS	NS	17	0	1000	1	97	12:06:40	3481850	3	1	3	3	3	3	1	1	3	4	2	2	0	0	0	3	4
080112	12:06:40	10032	Trial2BackFrS	YS	17	0	1000	0	97	12:06:40	3483370	3	1	3	3	3	3	1	1	3	4	2	2	0	0	0	3	4
080112	12:06:40	10032	Trial2BackFrS	NS	17	0	1000	1	97	12:06:40	3484889	3	1	3	3	3	3	1	1	3	4	2	2	0	0	0	3	4
080112	12:06:40	10032	Trial2BackFrS	NS	17	0	1000	1	97	12:06:40	3486409	3	1	3	3	3	3	1	1	3	4	2	2	0	0	0	3	4
080112	12:06:40	10032	Trial2BackFrS	NS	17	0	1000	1	97	12:06:40	3487928	3	1	3	3	3	3	1	1	3	4	2	2	0	0	0	3	4
080112	12:06:40	10032	Trial2BackFrS	NS	17	0	1000	1	97	12:06:40	3489447	3	1	3	3	3	3	1	1	3	4	2	2	0	0	0	3	4
080112	12:06:40	10032	Trial2BackFrS	YS	17	0	1000	0	97	12:06:40	3490967	3	1	3	3	3	3	1	1	3	4	2	2	0	0	0	3	4
080112	12:06:40	10032	Trial2BackFrS	NS	17	0	1000	1	97	12:06:40	3492486	3	1	3	3	3	3	1	1	3	4	2	2	0	0	0	3	4
080112	12:06:40	10032	Trial2BackFrS	NS	17	0	1000	1	97	12:06:40	3494006	3	1	3	3	3	3	1	1	3	4	2	2	0	0	0	3	4
080112	12:06:40	10032	Trial2BackFrS	YS	17	0	1000	0	97	12:06:40	3495525	3	1	3	3	3	3	1	1	3	4	2	2	0	0	0	3	4
080112	12:06:40	10032	Trial2BackFrS	NS	17	0	1000	1	97	12:06:40	3497044	3	1	3	3	3	3	1	1	3	4	2	2	0	0	0	3	4
080112	12:06:40	10032	Trial2BackFrS	NS	17	0	1000	1	97	12:06:40	3498564	3	1	3	3	3	3	1	1	3	4	2	2	0	0	0	3	4
080112	12:06:40	10032	Trial2BackFrS	NS	17	0	1000	1	97	12:06:40	3500083	3	1	3	3	3	3	1	1	3	4	2	2	0	0	0	3	4
080112	12:06:40	10032	Trial2BackFrS	YS	17	0	1000	0	97	12:06:40	3501603	3	1	3	3	3	3	1	1	3	4	2	2	0	0	0	3	4
080112	12:06:40	10032	Trial2BackFrS	NS	17	57	832	0	97	12:06:40	3502962	3	1	3	3	3	3	1	1	3	4	2	2	0	0	0	3	4
080112	12:06:40	10032	Trial2BackFrS	NS	17	0	1000	1	97	12:06:40	3504628	3	1	3	3	3	3	1	1	3	4	2	2	0	0	0	3	4
080112	12:06:40	10032	Trial2BackFrS	NS	17	0	1000	1	97	12:06:40	3506147	3	1	3	3	3	3	1	1	3	4	2	2	0	0	0	3	4
080112	12:06:40	10032	Trial2BackFrS	NS	17	0	1000	1	97	12:06:40	3507667	3	1	3	3	3	3	1	1	3	4	2	2	0	0	0	3	4
080112	12:06:40	10032	Trial2BackFrS	YS	17	0	1000	0	97	12:06:40	3509186	3	1	3	3	3	3	1	1	3	4	2	2	0	0	0	3	4
080112	12:06:40	10032	Trial2BackFrS	NS	17	0	1000	1	97	12:06:40	3510706	3	1	3	3	3	3	1	1	3	4	2	2	0	0	0	3	4
080112	12:06:40	10032	Trial2BackFrS	NS	17	0	1000	1	97	12:06:40	3512225	3	1	3	3	3	3	1	1	3	4	2	2	0	0	0	3	4
080112	12:06:40	10032	Trial2BackFrS	NS	17	0	1000	1	97	12:06:40	3513744	3	1	3	3	3	3	1	1	3	4	2	2	0	0	0	3	4
080112	12:06:40	10032	Trial2BackFrS	NS	17	0	1000	1	97	12:06:40	3515264	3	1	3	3	3	3	1	1	3	4	2	2	0	0	0	3	4
080112	12:06:40	10032	Trial2BackFrS	NS	17	0	1000	1	97	12:06:40	3516784	3	1	3	3	3	3	1	1	3	4	2	2	0	0	0	3	4
080112	12:06:40	10032	Trial2BackFrS	NS	17	0	1000	1	97	12:06:40	3518303	3	1	3	3	3	3	1	1	3	4	2	2	0	0	0	3	4
080112	12:06:40	10032	Trial2BackFrS	NS	17	0	1000	1	97	12:06:40	3519822	3	1	3	3	3	3	1	1	3	4	2	2	0	0	0	3	4
080112	12:06:40	10032	Trial2BackFrS	NS	17	0	1000	1	97	12:06:40	3521341	3	1	3	3	3	3	1	1	3	4	2	2	0	0	0	3	4
080112	12:06:40	10032	Trial2BackFrS	NS	17	0	1000	1	97	12:06:40	3522861	3	1	3	3	3	3	1	1	3	4	2	2	0	0	0	3	4
080112	12:06:40	10032	Trial2BackFrS	NS	17	0	1000	1	97	12:06:40	3524380	3	1	3	3	3	3	1	1	3	4	2	2	0	0	0	3	4
080112	12:06:40	10032	Trial2BackFrS	YS	17	0	1000	0	97	12:06:40	3525900	3	1	3	3	3	3	1	1	3	4	2	2	0	0	0	3	4
080112	12:06:40	10032	Trial2BackFrS	NS	17	57	486	0	97	12:06:40	3526913	3	1	3	3	3	3	1	1	3	4	2	2	0	0	0	3	4
080112	12:06:40	10032	Trial2BackFrS	NS	17	0	1000	1	97	12:06:40	3528925	3	1	3	3	3	3	1	1	3	4	2	2	0	0	0	3	4
080112	12:06:40	10032	Trial2BackFrS	NS	17	0	1000	1	97	12:06:40	3530445	3	1	3	3	3	3	1	1	3	4	2	2	0	0	0	3	4
080112	12:06:40	10032	Trial2BackFrS	YS	17	0	1000	0	97	12:06:40	3531964	3	1	3	3	3	3	1	1	3	4	2	2	0	0	0	3	4
080112	12:06:40	10032	Trial2BackFrS	NS	17	0	1000	1	97	12:06:40	3533483	3	1	3	3	3	3	1	1	3	4	2	2	0	0	0	3	4
080112	12:06:40	10032	Trial2BackFrS	NS	17	0	1000	1	97	12:06:40	3535003	3	1	3	3	3	3	1	1	3	4	2	2	0	0	0	3	4
080112	12:06:40	10032	Trial2BackFrS	NS	17	0	1000	1	97	12:06:40	3536522	3	1	3	3	3	3	1	1	3	4	2	2	0	0	0	3	4
080112	12:06:40	10032	Trial2BackFrS	NS	17	0	1000	1	97	12:06:40	3538041	3	1	3	3	3	3	1	1	3	4	2	2	0	0	0	3	4
080112	12:06:40	10032	Trial2BackFrS	NS	17	0	1000	1	97	12:06:40	3539561	3	1	3	3	3	3	1	1	3	4	2	2	0	0	0	3	4
080112	12:06:40	10032	Trial2BackFrS	NS	17	57	921	0	97	12:06:40	3541014	3	1	3	3	3	3	1	1	3	4	2	2	0	0	0	3	4
080112	12:06:40	10032	Trial2BackFrS	NS	17	0	1000	1	97	12:06:40	3542586	3	1	3	3	3	3	1	1	3	4	2	2	0	0	0	3	4
080112	12:06:40	10032	Trial2BackFrS	YS	17	57	599	1	97	12:06:40	3543719	3	1	3	3	3	3	1	1	3	4	2	2	0	0	0	3	4
080112	12:06:40	10032	Trial2BackFrS	NS	17	0	1000	1	97	12:06:40	3545612	3	1	3	3	3	3	1	1	3	4	2	2	0	0	0	3	4
080112	12:06:40	10032	Trial2BackFrS	NS	17	0	1000	1	97	12:06:40	3547132	3	1	3	3	3	3	1	1	3	4	2	2	0	0	0	3	4
080112	12:06:40	10032	Trial2BackFrS	NS	17	0	1000	1	97	12:06:40	3548651	3	1	3	3	3	3	1	1	3	4	2	2	0	0	0	3	4
080112	12:06:40	10032	Trial2BackFrS	NS	17	0	1000	1	97	12:06:40	3550170	3	1	3	3	3	3	1	1	3	4	2	2	0	0	0	3	4
080112	12:06:40	10032	Trial2BackFrS	YS	17	0	1000	0	97	12:06:40	3551690	3	1	3	3	3	3	1	1	3	4	2	2	0	0	0	3	4
080112	12:06:40	10032	Trial2BackFrS	NS	17	0	1000	1	97	12:06:40	3553209	3	1	3	3	3	3	1	1	3	4	2	2	0	0	0	3	4
080112	12:06:40	10032	Trial2BackFrS	NS	17	0	1000	1	97	12:06:40	3554728	3	1	3	3	3	3	1	1	3	4	2	2	0	0	0	3	4
080112	12:06:40	10032	Trial2BackFrS	NS	17	0	1000	1	97	12:06:40	3556248	3	1	3	3	3	3	1	1	3	4	2	2	0	0	0	3	4
080112	12:06:40	10032	Trial2BackFrS	NS	17	0	1000	1	97	12:06:40	3557767	3	1	3	3	3	3	1	1	3	4	2	2	0	0	0	3	4
080112	12:06:40	10032	Trial2BackFrS	NS	17	0	1000	1	97	12:06:40	3559287	3	1	3	3	3	3	1	1	3	4	2	2	0	0	0	3	4
080112	12:06:40	10032	Trial2BackFrS	NS	17	57	971	0	97	12:06:40	3560779	3	1	3	3	3	3	1	1	3	4	2	2	0	0	0	3	4
080112	12:06:40	10032	Trial2BackFrS	YS	17	0	1000	0	97	12:06:40	3562312	3	1	3	3	3	3	1	1	3	4	2	2	0	0	0	3	4
080112	12:06:40	10032	Trial2BackFrS	NS	17	0	1000	1	97	12:06:40	3563831	3	1	3	3	3	3	1	1	3	4	2	2	0	0	0	3	4
080112	12:06:40	10032	Trial2BackFrS	NS	17	0	1000	1	97	12:06:40	3565351	3	1	3	3	3	3	1	1	3	4	2	2	0	0	0	3	4
080112	12:06:40	10032	Trial2BackFrS	NS	17	0	1000	1	97	12:06:40	3566870	3	1	3	3	3	3	1	1	3	4	2	2	0	0	0	3	4
080112	12:06:40	10032	Trial2BackFrS	NS	17	0	1000	1	97	12:06:40	3568390	3	1	3	3	3	3	1	1	3	4	2	2	0	0	0	3	4
080112	12:06:40	10032	Trial2BackFrS	NS	17	0	1000	1	97	12:06:40	3569909	3	1	3	3	3	3	1	1	3	4	2	2	0	0	0	3	4
080112	12:06:40	10032	Trial2BackFrS	NS	17	0	1000	1	97	12:06:40	3571428	3	1	3	3	3	3	1	1	3	4	2	2	0	0	0	3	4
080112	12:06:40	10032	Trial2BackFrS	NS	17	0	1000	1	97	12:06:40	3572948	3	1	3	3	3	3	1	1	3	4	2	2	0	0	0	3	4
080112	12:06:40	10032	Trial2BackFrS	YS	17	0	1000	0	97	12:06:40	3574467	3	1	3	3	3	3	1	1	3	4	2	2	0	0	0	3	4
080112	12:06:40	10032	Trial2BackFrS	NS	17	0	1000	1	97	12:06:40	3576000	3	1	3	3	3	3	1	1	3	4	2	2	0	0	0	3	4
080112	12:06:40	10032	Trial2BackFrS	NS	17	0	1000	1	97	12:06:40	3577520	3	1	3	3	3	3	1	1	3	4	2	2	0	0	0	3	4
080112	12:06:40	10032	Trial2BackFrS	NS	17	0	1000	1	97	12:06:40	3579039	3	1	3	3	3	3	1	1	3	4	2	2	0	0	0	3	4
080112	12:06:40	10032	Trial2BackFrS	NS	17	0	1000	1	97	12:06:40	3580558	3	1	3	3	3	3	1	1	3	4	2	2	0	0	0	3	4
080112	12:06:40	10032	Trial2BackFrS	YS	17	0	1000	0	97	12:06:40	3582077	3	1	3	3	3	3	1	1	3	4	2	2	0	0	0	3	4
080112	12:06:40	10032	Trial2BackFrS	NS	17	0	1000	1	97	12:06:40	3583597	3	1	3	3	3	3	1	1	3	4	2	2	0	0	0	3	4
080112	12:06:40	10032	Trial2BackFrS	NS	17	0	1000	1	97	12:06:40	3585116	3	1	3	3	3	3	1	1	3	4	2	2	0	0	0	3	4
080112	12:06:40	10032	Trial2BackFrS	YS	17	0	1000	0	97	12:06:40	3586636	3	1	3	3	3	3	1	1	3	4	2	2	0	0	0	3	4
080112	12:06:40	10032	Trial2BackFrS	NS	17	57	597	0	97	12:06:40	3587755	3	1	3	3	3	3	1	1	3	4	2	2	0	0	0	3	4
080112	12:06:40	10032	Trial2BackFrS	NS	17	57	564	0	97	12:06:40	3589235	3	1	3	3	3	3	1	1	3	4	2	2	0	0	0	3	4
080112	12:06:40	10032	Trial2BackFrS	NS	17	0	1000	1	97	12:06:40	3591154	3	1	3	3	3	3	1	1	3	4	2	2	0	0	0	3	4
080112	12:06:40	10032	Trial2BackFrS	NS	17	0	1000	1	97	12:06:40	3592673	3	1	3	3	3	3	1	1	3	4	2	2	0	0	0	3	4
080112	12:06:40	10032	Trial2BackFrS	NS	17	0	1000	1	97	12:06:40	3594193	3	1	3	3	3	3	1	1	3	4	2	2	0	0	0	3	4
080112	12:06:40	10032	Trial2BackFrS	NS	17	0	1000	1	97	12:06:40	3595712	3	1	3	3	3	3	1	1	3	4	2	2	0	0	0	3	4
080112	12:06:40	10032	Trial2BackFrS	YS	17	0	1000	0	97	12:06:40	3597232	3	1	3	3	3	3	1	1	3	4	2	2	0	0	0	3	4
080112	12:06:40	10032	Trial2BackFrS	NS	17	0	1000	1	97	12:06:40	3598751	3	1	3	3	3	3	1	1	3	4	2	2	0	0	0	3	4
080112	12:06:40	10032	Trial2BackFrS	NS	17	0	1000	1	97	12:06:40	3600270	3	1	3	3	3	3	1	1	3	4	2	2	0	0	0	3	4
080112	12:06:40	10032	Trial2BackFrS	NS	17	0	1000	1	97	12:06:40	3601790	3	1	3	3	3	3	1	1	3	4	2	2	0	0	0	3	4
080112	12:06:40	10032	Trial2BackFrS	NS	17	0	1000	1	97	12:06:40	3603309	3	1	3	3	3	3	1	1	3	4	2	2	0	0	0	3	4
080112	12:06:40	10032	Trial2BackFrS	YS	17	0	1000	0	97	12:06:40	3604828	3	1	3	3	3	3	1	1	3	4	2	2	0	0	0	3	4
080112	12:06:40	10032	Trial2BackFrS	NS	17	0	1000	1	97	12:06:40	3606348	3	1	3	3	3	3	1	1	3	4	2	2	0	0	0	3	4
080112	12:06:40	10032	Trial2BackFrS	NS	17	0	1000	1	97	12:06:40	3607868	3	1	3	3	3	3	1	1	3	4	2	2	0	0	0	3	4
080112	12:06:40	10032	Trial2BackFrS	NS	17	0	1000	1	97	12:06:40	3609387	3	1	3	3	3	3	1	1	3	4	2	2	0	0	0	3	4
080112	12:06:40	10032	Trial2BackFrS	NS	17	57	950	0	97	12:06:40	3610866	3	1	3	3	3	3	1	1	3	4	2	2	0	0	0	3	4
080112	12:06:40	10032	Trial2BackFrS	YS	17	57	692	1	97	12:06:40	3612119	3	1	3	3	3	3	1	1	3	4	2	2	0	0	0	3	4
080112	12:06:40	10032	Trial2BackFrS	NS	17	0	1000	1	97	12:06:40	3613905	3	1	3	3	3	3	1	1	3	4	2	2	0	0	0	3	4
080112	12:06:40	10032	Trial2BackFrS	NS	17	0	1000	1	97	12:06:40	3615424	3	1	3	3	3	3	1	1	3	4	2	2	0	0	0	3	4
080112	12:06:40	10032	Trial2BackFrS	YS	17	0	1000	0	97	12:06:40	3616944	3	1	3	3	3	3	1	1	3	4	2	2	0	0	0	3	4
080112	12:06:40	10032	Trial2BackFrS	NS	17	0	1000	1	97	12:06:40	3618463	3	1	3	3	3	3	1	1	3	4	2	2	0	0	0	3	4
080112	12:06:40	10032	Trial2BackFrS	NS	17	0	1000	1	97	12:06:40	3619983	3	1	3	3	3	3	1	1	3	4	2	2	0	0	0	3	4
080112	12:06:40	10032	Trial2BackFrS	NS	17	0	1000	1	97	12:06:40	3621502	3	1	3	3	3	3	1	1	3	4	2	2	0	0	0	3	4
080112	12:06:40	10032	Trial2BackFrS	NS	17	0	1000	1	97	12:06:40	3623021	3	1	3	3	3	3	1	1	3	4	2	2	0	0	0	3	4
080112	12:06:40	10032	Trial2BackFrS	NS	17	0	1000	1	97	12:06:40	3624541	3	1	3	3	3	3	1	1	3	4	2	2	0	0	0	3	4
080112	12:06:40	10032	Trial2BackFrS	NS	17	57	564	0	97	12:06:40	3625634	3	1	3	3	3	3	1	1	3	4	2	2	0	0	0	3	4
080112	12:06:40	10032	Trial2BackFrS	NS	17	0	1000	1	97	12:06:40	3627566	3	1	3	3	3	3	1	1	3	4	2	2	0	0	0	3	4
080112	12:06:40	10032	Trial2BackFrS	NS	17	0	1000	1	97	12:06:40	3629086	3	1	3	3	3	3	1	1	3	4	2	2	0	0	0	3	4
080112	12:06:40	10032	Trial2BackFrS	YS	17	0	1000	0	97	12:06:40	3630605	3	1	3	3	3	3	1	1	3	4	2	2	0	0	0	3	4
080112	12:06:40	10032	Trial2BackFrS	NS	17	0	1000	1	97	12:06:40	3632124	3	1	3	3	3	3	1	1	3	4	2	2	0	0	0	3	4
080112	12:06:40	10032	Trial2BackFrS	NS	17	0	1000	1	97	12:06:40	3633644	3	1	3	3	3	3	1	1	3	4	2	2	0	0	0	3	4
080112	12:06:40	10032	Trial2BackFrS	NS	17	0	1000	1	97	12:06:40	3635163	3	1	3	3	3	3	1	1	3	4	2	2	0	0	0	3	4
080112	12:06:40	10032	Trial2BackFrS	NS	17	57	597	0	97	12:06:40	3636283	3	1	3	3	3	3	1	1	3	4	2	2	0	0	0	3	4
080112	12:06:40	10032	Trial2BackFrS	NS	17	0	1000	1	97	12:06:40	3638189	3	1	3	3	3	3	1	1	3	4	2	2	0	0	0	3	4
080112	12:06:40	10032	Trial2BackFrS	NS	17	0	1000	1	97	12:06:40	3639708	3	1	3	3	3	3	1	1	3	4	2	2	0	0	0	3	4
080112	12:06:40	10032	Trial2BackFrS	NS	17	0	1000	1	97	12:06:40	3641228	3	1	3	3	3	3	1	1	3	4	2	2	0	0	0	3	4
080112	12:06:40	10032	Trial2BackFrS	YS	17	0	1000	0	97	12:06:40	3642747	3	1	3	3	3	3	1	1	3	4	2	2	0	0	0	3	4
080112	12:06:40	10032	Trial2BackFrS	NS	17	0	1000	1	97	12:06:40	3644267	3	1	3	3	3	3	1	1	3	4	2	2	0	0	0	3	4
080112	12:06:40	10032	Trial2BackFrS	NS	17	0	1000	1	97	12:06:40	3645786	3	1	3	3	3	3	1	1	3	4	2	2	0	0	0	3	4
080112	12:06:40	10032	Trial2BackFrS	NS	17	57	791	0	97	12:06:40	3647105	3	1	3	3	3	3	1	1	3	4	2	2	0	0	0	3	4
080112	12:06:40	10032	Trial2BackFrS	NS	17	0	1000	1	97	12:06:40	3648811	3	1	3	3	3	3	1	1	3	4	2	2	0	0	0	3	4
080112	12:06:40	10032	Trial2BackFrS	NS	17	0	1000	1	97	12:06:40	3650331	3	1	3	3	3	3	1	1	3	4	2	2	0	0	0	3	4
080112	12:06:40	10032	Trial2BackFrS	NS	17	0	1000	1	97	12:06:40	3651850	3	1	3	3	3	3	1	1	3	4	2	2	0	0	0	3	4
080112	12:06:40	10032	Trial2BackFrS	NS	17	0	1000	1	97	12:06:40	3653369	3	1	3	3	3	3	1	1	3	4	2	2	0	0	0	3	4
080112	12:06:40	10032	Trial2BackFrS	NS	17	0	1000	1	97	12:06:40	3654889	3	1	3	3	3	3	1	1	3	4	2	2	0	0	0	3	4
080112	12:06:40	10032	Trial2BackFrS	NS	17	0	1000	1	97	12:06:40	3656409	3	1	3	3	3	3	1	1	3	4	2	2	0	0	0	3	4
080112	12:06:40	10032	Trial2BackFrS	YS	17	0	1000	0	97	12:06:40	3657928	3	1	3	3	3	3	1	1	3	4	2	2	0	0	0	3	4
080112	12:06:40	10032	Trial2BackFrS	NS	17	0	1000	1	97	12:06:40	3659447	3	1	3	3	3	3	1	1	3	4	2	2	0	0	0	3	4
080112	12:06:40	10032	ClockFrBaseline	ClockFrBaseline	19	Clock1	91300	0	97	12:06:40	3750851	3	1	3	3	3	3	1	1	3	4	2	2	1	0	0	3	4
080112	12:06:40	10032	ClockFrBaseline	ClockFrBaseline	19	Clock11	573	0	97	12:06:40	3751464	3	1	3	3	3	3	1	1	3	4	2	2	1	1	0	3	4
080112	12:06:40	10032	ClockFrBaseline	ClockFrBaseline	19	Clock111	960	0	97	12:06:40	3752464	3	1	3	3	3	3	1	1	3	4	2	2	1	1	1	3	4
080112	12:06:40	10032	ClockFrBaseline	ClockFrBaseline	19	Clockdone	560	0	97	12:06:40	3753064	3	1	3	3	3	3	1	1	3	4	2	2	1	1	1	3	4
080112	12:06:40	10032	FASFrVFBaseline	StopFrVFBaseline	20	9	7743	0	97	12:06:40	3876310	3	1	3	3	3	3	1	1	3	4	2	2	1	1	1	3	4
