date	time	subject	blockcode	trialcode	values.TaskNumber	response	latency	correct	values.Score	script.starttime	script.elapsedtime	values.ScoreS7	values.Word1	values.Word2	values.Word3	values.Word4	values.Word5	values.Word6	values.Word7	values.Word8	values.DigitSpanFwrd	values.DigitSpanBack	values.ScoreAbs	values.Contour	values.Numbers	values.Hands	values.corsiblockspanFwrd	values.corsiblockspanRev
082012	15:18:35	10034	Language	Language	0	English	31013	0	0	15:18:35	31113	0	0	0	0	0	0	0	0	0	0	0	0	0	0	0	0	0
082012	15:18:35	10034	Session	Session	0	Baseline	691	0	0	15:18:35	31885	0	0	0	0	0	0	0	0	0	0	0	0	0	0	0	0	0
082012	15:18:35	10034	HandEng	HandEng	0	Right	735715	0	0	15:18:35	767681	0	0	0	0	0	0	0	0	0	0	0	0	0	0	0	0	0
082012	15:18:35	10034	CubeEng	CubeEng	1	1Cube	68570	0	0	15:18:35	894656	0	0	0	0	0	0	0	0	0	0	0	0	0	0	0	0	0
082012	15:18:35	10034	pm.simpleEngRight	blank.simpleEng	2	0	1687	1	0	15:18:35	954858	0	0	0	0	0	0	0	0	0	0	0	0	0	0	0	0	0
082012	15:18:35	10034	pm.simpleEngRight	pm.simpleEng	2	57	2805	0	0	15:18:35	957697	0	0	0	0	0	0	0	0	0	0	0	0	0	0	0	0	0
082012	15:18:35	10034	pm.simpleEngRight	blank.simpleEng	2	0	1587	1	0	15:18:35	959309	0	0	0	0	0	0	0	0	0	0	0	0	0	0	0	0	0
082012	15:18:35	10034	pm.simpleEngRight	pm.simpleEng	2	57	1089	0	0	15:18:35	960429	0	0	0	0	0	0	0	0	0	0	0	0	0	0	0	0	0
082012	15:18:35	10034	pm.simpleEngRight	blank.simpleEng	2	0	1987	1	0	15:18:35	962441	0	0	0	0	0	0	0	0	0	0	0	0	0	0	0	0	0
082012	15:18:35	10034	pm.simpleEngRight	pm.simpleEng	2	57	997	0	0	15:18:35	963481	0	0	0	0	0	0	0	0	0	0	0	0	0	0	0	0	0
082012	15:18:35	10034	pm.simpleEngRight	blank.simpleEng	2	0	2287	1	0	15:18:35	965787	0	0	0	0	0	0	0	0	0	0	0	0	0	0	0	0	0
082012	15:18:35	10034	pm.simpleEngRight	pm.simpleEng	2	57	724	0	0	15:18:35	966546	0	0	0	0	0	0	0	0	0	0	0	0	0	0	0	0	0
082012	15:18:35	10034	pm.simpleEngRight	blank.simpleEng	2	0	1487	1	0	15:18:35	968052	0	0	0	0	0	0	0	0	0	0	0	0	0	0	0	0	0
082012	15:18:35	10034	pm.simpleEngRight	pm.simpleEng	2	57	793	0	0	15:18:35	968879	0	0	0	0	0	0	0	0	0	0	0	0	0	0	0	0	0
082012	15:18:35	10034	pm.simpleEngRight	blank.simpleEng	2	0	2387	1	0	15:18:35	971291	0	0	0	0	0	0	0	0	0	0	0	0	0	0	0	0	0
082012	15:18:35	10034	pm.simpleEngRight	pm.simpleEng	2	57	1411	0	0	15:18:35	972744	0	0	0	0	0	0	0	0	0	0	0	0	0	0	0	0	0
082012	15:18:35	10034	pm.simpleEngRight	blank.simpleEng	2	0	1787	1	0	15:18:35	974556	0	0	0	0	0	0	0	0	0	0	0	0	0	0	0	0	0
082012	15:18:35	10034	pm.simpleEngRight	pm.simpleEng	2	57	1266	0	0	15:18:35	975862	0	0	0	0	0	0	0	0	0	0	0	0	0	0	0	0	0
082012	15:18:35	10034	pm.simpleEngRight	blank.simpleEng	2	0	1887	1	0	15:18:35	977768	0	0	0	0	0	0	0	0	0	0	0	0	0	0	0	0	0
082012	15:18:35	10034	pm.simpleEngRight	pm.simpleEng	2	57	949	0	0	15:18:35	978755	0	0	0	0	0	0	0	0	0	0	0	0	0	0	0	0	0
082012	15:18:35	10034	pm.simpleEngRight	blank.simpleEng	2	0	2187	1	0	15:18:35	980967	0	0	0	0	0	0	0	0	0	0	0	0	0	0	0	0	0
082012	15:18:35	10034	pm.simpleEngRight	pm.simpleEng	2	57	919	0	0	15:18:35	981927	0	0	0	0	0	0	0	0	0	0	0	0	0	0	0	0	0
082012	15:18:35	10034	pm.simpleEngRight	blank.simpleEng	2	0	2487	1	0	15:18:35	984446	0	0	0	0	0	0	0	0	0	0	0	0	0	0	0	0	0
082012	15:18:35	10034	pm.simpleEngRight	pm.simpleEng	2	57	784	0	0	15:18:35	985272	0	0	0	0	0	0	0	0	0	0	0	0	0	0	0	0	0
082012	15:18:35	10034	pm.simpleEngRight	blank.simpleEng	2	0	2087	1	0	15:18:35	987378	0	0	0	0	0	0	0	0	0	0	0	0	0	0	0	0	0
082012	15:18:35	10034	pm.simpleEngRight	pm.simpleEng	2	57	988	0	0	15:18:35	988404	0	0	0	0	0	0	0	0	0	0	0	0	0	0	0	0	0
082012	15:18:35	10034	pm.simpleEngRight	blank.simpleEng	2	0	2087	1	0	15:18:35	990510	0	0	0	0	0	0	0	0	0	0	0	0	0	0	0	0	0
082012	15:18:35	10034	pm.simpleEngRight	pm.simpleEng	2	57	736	0	0	15:18:35	991283	0	0	0	0	0	0	0	0	0	0	0	0	0	0	0	0	0
082012	15:18:35	10034	pm.simpleEngRight	blank.simpleEng	2	0	2187	1	0	15:18:35	993495	0	0	0	0	0	0	0	0	0	0	0	0	0	0	0	0	0
082012	15:18:35	10034	pm.simpleEngRight	pm.simpleEng	2	57	566	0	0	15:18:35	994095	0	0	0	0	0	0	0	0	0	0	0	0	0	0	0	0	0
082012	15:18:35	10034	pm.simpleEngRight	blank.simpleEng	2	0	2487	1	0	15:18:35	996614	0	0	0	0	0	0	0	0	0	0	0	0	0	0	0	0	0
082012	15:18:35	10034	pm.simpleEngRight	pm.simpleEng	2	57	695	0	0	15:18:35	997347	0	0	0	0	0	0	0	0	0	0	0	0	0	0	0	0	0
082012	15:18:35	10034	pm.simpleEngRight	blank.simpleEng	2	0	1487	1	0	15:18:35	998853	0	0	0	0	0	0	0	0	0	0	0	0	0	0	0	0	0
082012	15:18:35	10034	pm.simpleEngRight	pm.simpleEng	2	57	584	0	0	15:18:35	999480	0	0	0	0	0	0	0	0	0	0	0	0	0	0	0	0	0
082012	15:18:35	10034	pm.simpleEngRight	blank.simpleEng	2	0	1887	1	0	15:18:35	1001386	0	0	0	0	0	0	0	0	0	0	0	0	0	0	0	0	0
082012	15:18:35	10034	pm.simpleEngRight	pm.simpleEng	2	57	1028	0	0	15:18:35	1002452	0	0	0	0	0	0	0	0	0	0	0	0	0	0	0	0	0
082012	15:18:35	10034	pm.simpleEngRight	blank.simpleEng	2	0	1687	1	0	15:18:35	1004158	0	0	0	0	0	0	0	0	0	0	0	0	0	0	0	0	0
082012	15:18:35	10034	pm.simpleEngRight	pm.simpleEng	2	57	848	0	0	15:18:35	1005037	0	0	0	0	0	0	0	0	0	0	0	0	0	0	0	0	0
082012	15:18:35	10034	pm.simpleEngRight	blank.simpleEng	2	0	1987	1	0	15:18:35	1007050	0	0	0	0	0	0	0	0	0	0	0	0	0	0	0	0	0
082012	15:18:35	10034	pm.simpleEngRight	pm.simpleEng	2	57	787	0	0	15:18:35	1007876	0	0	0	0	0	0	0	0	0	0	0	0	0	0	0	0	0
082012	15:18:35	10034	pm.simpleEngRight	blank.simpleEng	2	0	2387	1	0	15:18:35	1010289	0	0	0	0	0	0	0	0	0	0	0	0	0	0	0	0	0
082012	15:18:35	10034	pm.simpleEngRight	pm.simpleEng	2	57	1533	0	0	15:18:35	1011861	0	0	0	0	0	0	0	0	0	0	0	0	0	0	0	0	0
082012	15:18:35	10034	pm.simpleEngRight	blank.simpleEng	2	0	2287	1	0	15:18:35	1014167	0	0	0	0	0	0	0	0	0	0	0	0	0	0	0	0	0
082012	15:18:35	10034	pm.simpleEngRight	pm.simpleEng	2	57	854	0	0	15:18:35	1015060	0	0	0	0	0	0	0	0	0	0	0	0	0	0	0	0	0
082012	15:18:35	10034	pm.simpleEngRight	blank.simpleEng	2	0	1587	1	0	15:18:35	1016672	0	0	0	0	0	0	0	0	0	0	0	0	0	0	0	0	0
082012	15:18:35	10034	pm.simpleEngRight	pm.simpleEng	2	57	588	0	0	15:18:35	1017299	0	0	0	0	0	0	0	0	0	0	0	0	0	0	0	0	0
082012	15:18:35	10034	pm.simpleEngRight	blank.simpleEng	2	0	1787	1	0	15:18:35	1019112	0	0	0	0	0	0	0	0	0	0	0	0	0	0	0	0	0
082012	15:18:35	10034	pm.simpleEngRight	pm.simpleEng	2	57	693	0	0	15:18:35	1019845	0	0	0	0	0	0	0	0	0	0	0	0	0	0	0	0	0
082012	15:18:35	10034	pm.simpleEngRight	blank.simpleEng	2	0	2387	1	0	15:18:35	1022257	0	0	0	0	0	0	0	0	0	0	0	0	0	0	0	0	0
082012	15:18:35	10034	pm.simpleEngRight	pm.simpleEng	2	57	892	0	0	15:18:35	1023190	0	0	0	0	0	0	0	0	0	0	0	0	0	0	0	0	0
082012	15:18:35	10034	pm.simpleEngRight	blank.simpleEng	2	0	1687	1	0	15:18:35	1024896	0	0	0	0	0	0	0	0	0	0	0	0	0	0	0	0	0
082012	15:18:35	10034	pm.simpleEngRight	pm.simpleEng	2	57	525	0	0	15:18:35	1025456	0	0	0	0	0	0	0	0	0	0	0	0	0	0	0	0	0
082012	15:18:35	10034	pm.simpleEngRight	blank.simpleEng	2	0	2287	1	0	15:18:35	1027775	0	0	0	0	0	0	0	0	0	0	0	0	0	0	0	0	0
082012	15:18:35	10034	pm.simpleEngRight	pm.simpleEng	2	57	558	0	0	15:18:35	1028375	0	0	0	0	0	0	0	0	0	0	0	0	0	0	0	0	0
082012	15:18:35	10034	pm.simpleEngRight	blank.simpleEng	2	0	1487	1	0	15:18:35	1029881	0	0	0	0	0	0	0	0	0	0	0	0	0	0	0	0	0
082012	15:18:35	10034	pm.simpleEngRight	pm.simpleEng	2	57	548	0	0	15:18:35	1030467	0	0	0	0	0	0	0	0	0	0	0	0	0	0	0	0	0
082012	15:18:35	10034	pm.simpleEngRight	blank.simpleEng	2	0	1587	1	0	15:18:35	1032080	0	0	0	0	0	0	0	0	0	0	0	0	0	0	0	0	0
082012	15:18:35	10034	pm.simpleEngRight	pm.simpleEng	2	57	877	0	0	15:18:35	1032999	0	0	0	0	0	0	0	0	0	0	0	0	0	0	0	0	0
082012	15:18:35	10034	pm.simpleEngRight	blank.simpleEng	2	0	2487	1	0	15:18:35	1035518	0	0	0	0	0	0	0	0	0	0	0	0	0	0	0	0	0
082012	15:18:35	10034	pm.simpleEngRight	pm.simpleEng	2	57	718	0	0	15:18:35	1036278	0	0	0	0	0	0	0	0	0	0	0	0	0	0	0	0	0
082012	15:18:35	10034	pm.simpleEngRight	blank.simpleEng	2	0	2087	1	0	15:18:35	1038384	0	0	0	0	0	0	0	0	0	0	0	0	0	0	0	0	0
082012	15:18:35	10034	pm.simpleEngRight	pm.simpleEng	2	57	572	0	0	15:18:35	1038997	0	0	0	0	0	0	0	0	0	0	0	0	0	0	0	0	0
082012	15:18:35	10034	pm.simpleEngRight	blank.simpleEng	2	0	1787	1	0	15:18:35	1040810	0	0	0	0	0	0	0	0	0	0	0	0	0	0	0	0	0
082012	15:18:35	10034	pm.simpleEngRight	pm.simpleEng	2	57	611	0	0	15:18:35	1041463	0	0	0	0	0	0	0	0	0	0	0	0	0	0	0	0	0
082012	15:18:35	10034	pm.simpleEngRight	blank.simpleEng	2	0	1987	1	0	15:18:35	1043475	0	0	0	0	0	0	0	0	0	0	0	0	0	0	0	0	0
082012	15:18:35	10034	pm.simpleEngRight	pm.simpleEng	2	57	505	0	0	15:18:35	1044022	0	0	0	0	0	0	0	0	0	0	0	0	0	0	0	0	0
082012	15:18:35	10034	pm.simpleEngRight	blank.simpleEng	2	0	1887	1	0	15:18:35	1045928	0	0	0	0	0	0	0	0	0	0	0	0	0	0	0	0	0
082012	15:18:35	10034	pm.simpleEngRight	pm.simpleEng	2	57	469	0	0	15:18:35	1046434	0	0	0	0	0	0	0	0	0	0	0	0	0	0	0	0	0
082012	15:18:35	10034	pm.simpleEngRight	blank.simpleEng	2	0	2187	1	0	15:18:35	1048646	0	0	0	0	0	0	0	0	0	0	0	0	0	0	0	0	0
082012	15:18:35	10034	pm.simpleEngRight	pm.simpleEng	2	57	518	0	0	15:18:35	1049206	0	0	0	0	0	0	0	0	0	0	0	0	0	0	0	0	0
082012	15:18:35	10034	pm.simpleEngRight	blank.simpleEng	2	0	1687	1	0	15:18:35	1050926	0	0	0	0	0	0	0	0	0	0	0	0	0	0	0	0	0
082012	15:18:35	10034	pm.simpleEngRight	pm.simpleEng	2	57	543	0	0	15:18:35	1051499	0	0	0	0	0	0	0	0	0	0	0	0	0	0	0	0	0
082012	15:18:35	10034	pm.simpleEngRight	blank.simpleEng	2	0	2487	1	0	15:18:35	1054018	0	0	0	0	0	0	0	0	0	0	0	0	0	0	0	0	0
082012	15:18:35	10034	pm.simpleEngRight	pm.simpleEng	2	57	555	0	0	15:18:35	1054604	0	0	0	0	0	0	0	0	0	0	0	0	0	0	0	0	0
082012	15:18:35	10034	pm.simpleEngRight	blank.simpleEng	2	0	2187	1	0	15:18:35	1056816	0	0	0	0	0	0	0	0	0	0	0	0	0	0	0	0	0
082012	15:18:35	10034	pm.simpleEngRight	pm.simpleEng	2	57	508	0	0	15:18:35	1057363	0	0	0	0	0	0	0	0	0	0	0	0	0	0	0	0	0
082012	15:18:35	10034	pm.simpleEngRight	blank.simpleEng	2	0	1887	1	0	15:18:35	1059269	0	0	0	0	0	0	0	0	0	0	0	0	0	0	0	0	0
082012	15:18:35	10034	pm.simpleEngRight	pm.simpleEng	2	57	647	0	0	15:18:35	1059949	0	0	0	0	0	0	0	0	0	0	0	0	0	0	0	0	0
082012	15:18:35	10034	pm.simpleEngRight	blank.simpleEng	2	0	2287	1	0	15:18:35	1062268	0	0	0	0	0	0	0	0	0	0	0	0	0	0	0	0	0
082012	15:18:35	10034	pm.simpleEngRight	pm.simpleEng	2	57	464	0	0	15:18:35	1062774	0	0	0	0	0	0	0	0	0	0	0	0	0	0	0	0	0
082012	15:18:35	10034	pm.simpleEngRight	blank.simpleEng	2	0	1787	1	0	15:18:35	1064587	0	0	0	0	0	0	0	0	0	0	0	0	0	0	0	0	0
082012	15:18:35	10034	pm.simpleEngRight	pm.simpleEng	2	57	499	0	0	15:18:35	1065120	0	0	0	0	0	0	0	0	0	0	0	0	0	0	0	0	0
082012	15:18:35	10034	pm.simpleEngRight	blank.simpleEng	2	0	1587	1	0	15:18:35	1066733	0	0	0	0	0	0	0	0	0	0	0	0	0	0	0	0	0
082012	15:18:35	10034	pm.simpleEngRight	pm.simpleEng	2	57	432	0	0	15:18:35	1067199	0	0	0	0	0	0	0	0	0	0	0	0	0	0	0	0	0
082012	15:18:35	10034	Trial2BackEng	N	3	0	1000	1	1	15:18:35	1138304	0	0	0	0	0	0	0	0	0	0	0	0	0	0	0	0	0
082012	15:18:35	10034	Trial2BackEng	N	3	0	1000	1	2	15:18:35	1139823	0	0	0	0	0	0	0	0	0	0	0	0	0	0	0	0	0
082012	15:18:35	10034	Trial2BackEng	N	3	0	1000	1	3	15:18:35	1141342	0	0	0	0	0	0	0	0	0	0	0	0	0	0	0	0	0
082012	15:18:35	10034	Trial2BackEng	N	3	0	1000	1	4	15:18:35	1142862	0	0	0	0	0	0	0	0	0	0	0	0	0	0	0	0	0
082012	15:18:35	10034	Trial2BackEng	N	3	0	1000	1	5	15:18:35	1144381	0	0	0	0	0	0	0	0	0	0	0	0	0	0	0	0	0
082012	15:18:35	10034	Trial2BackEng	N	3	0	1000	1	6	15:18:35	1145900	0	0	0	0	0	0	0	0	0	0	0	0	0	0	0	0	0
082012	15:18:35	10034	Trial2BackEng	N	3	0	1000	1	7	15:18:35	1147420	0	0	0	0	0	0	0	0	0	0	0	0	0	0	0	0	0
082012	15:18:35	10034	Trial2BackEng	N	3	0	1000	1	8	15:18:35	1148939	0	0	0	0	0	0	0	0	0	0	0	0	0	0	0	0	0
082012	15:18:35	10034	Trial2BackEng	Y	3	0	1000	0	8	15:18:35	1150459	0	0	0	0	0	0	0	0	0	0	0	0	0	0	0	0	0
082012	15:18:35	10034	Trial2BackEng	N	3	0	1000	1	9	15:18:35	1151978	0	0	0	0	0	0	0	0	0	0	0	0	0	0	0	0	0
082012	15:18:35	10034	Trial2BackEng	N	3	0	1000	1	10	15:18:35	1153497	0	0	0	0	0	0	0	0	0	0	0	0	0	0	0	0	0
082012	15:18:35	10034	Trial2BackEng	N	3	0	1000	1	11	15:18:35	1155017	0	0	0	0	0	0	0	0	0	0	0	0	0	0	0	0	0
082012	15:18:35	10034	Trial2BackEng	Y	3	57	821	1	12	15:18:35	1156363	0	0	0	0	0	0	0	0	0	0	0	0	0	0	0	0	0
082012	15:18:35	10034	Trial2BackEng	N	3	0	1000	1	13	15:18:35	1158042	0	0	0	0	0	0	0	0	0	0	0	0	0	0	0	0	0
082012	15:18:35	10034	Trial2BackEng	N	3	0	1000	1	14	15:18:35	1159562	0	0	0	0	0	0	0	0	0	0	0	0	0	0	0	0	0
082012	15:18:35	10034	Trial2BackEng	N	3	0	1000	1	15	15:18:35	1161081	0	0	0	0	0	0	0	0	0	0	0	0	0	0	0	0	0
082012	15:18:35	10034	Trial2BackEng	N	3	0	1000	1	16	15:18:35	1162600	0	0	0	0	0	0	0	0	0	0	0	0	0	0	0	0	0
082012	15:18:35	10034	Trial2BackEng	N	3	0	1000	1	17	15:18:35	1164120	0	0	0	0	0	0	0	0	0	0	0	0	0	0	0	0	0
082012	15:18:35	10034	Trial2BackEng	Y	3	0	1000	0	17	15:18:35	1165639	0	0	0	0	0	0	0	0	0	0	0	0	0	0	0	0	0
082012	15:18:35	10034	Trial2BackEng	N	3	0	1000	1	18	15:18:35	1167159	0	0	0	0	0	0	0	0	0	0	0	0	0	0	0	0	0
082012	15:18:35	10034	Trial2BackEng	N	3	0	1000	1	19	15:18:35	1168678	0	0	0	0	0	0	0	0	0	0	0	0	0	0	0	0	0
082012	15:18:35	10034	Trial2BackEng	N	3	0	1000	1	20	15:18:35	1170197	0	0	0	0	0	0	0	0	0	0	0	0	0	0	0	0	0
082012	15:18:35	10034	Trial2BackEng	N	3	0	1000	1	21	15:18:35	1171717	0	0	0	0	0	0	0	0	0	0	0	0	0	0	0	0	0
082012	15:18:35	10034	Trial2BackEng	Y	3	57	857	1	22	15:18:35	1173103	0	0	0	0	0	0	0	0	0	0	0	0	0	0	0	0	0
082012	15:18:35	10034	Trial2BackEng	N	3	0	1000	1	23	15:18:35	1174742	0	0	0	0	0	0	0	0	0	0	0	0	0	0	0	0	0
082012	15:18:35	10034	Trial2BackEng	N	3	0	1000	1	24	15:18:35	1176261	0	0	0	0	0	0	0	0	0	0	0	0	0	0	0	0	0
082012	15:18:35	10034	Trial2BackEng	N	3	0	1000	1	25	15:18:35	1177781	0	0	0	0	0	0	0	0	0	0	0	0	0	0	0	0	0
082012	15:18:35	10034	Trial2BackEng	N	3	0	1000	1	26	15:18:35	1179300	0	0	0	0	0	0	0	0	0	0	0	0	0	0	0	0	0
082012	15:18:35	10034	Trial2BackEng	N	3	0	1000	1	27	15:18:35	1180820	0	0	0	0	0	0	0	0	0	0	0	0	0	0	0	0	0
082012	15:18:35	10034	Trial2BackEng	N	3	0	1000	1	28	15:18:35	1182339	0	0	0	0	0	0	0	0	0	0	0	0	0	0	0	0	0
082012	15:18:35	10034	Trial2BackEng	Y	3	57	795	1	29	15:18:35	1183659	0	0	0	0	0	0	0	0	0	0	0	0	0	0	0	0	0
082012	15:18:35	10034	Trial2BackEng	N	3	0	1000	1	30	15:18:35	1185364	0	0	0	0	0	0	0	0	0	0	0	0	0	0	0	0	0
082012	15:18:35	10034	Trial2BackEng	N	3	0	1000	1	31	15:18:35	1186884	0	0	0	0	0	0	0	0	0	0	0	0	0	0	0	0	0
082012	15:18:35	10034	Trial2BackEng	N	3	0	1000	1	32	15:18:35	1188403	0	0	0	0	0	0	0	0	0	0	0	0	0	0	0	0	0
082012	15:18:35	10034	Trial2BackEng	Y	3	0	1000	0	32	15:18:35	1189922	0	0	0	0	0	0	0	0	0	0	0	0	0	0	0	0	0
082012	15:18:35	10034	Trial2BackEng	N	3	57	107	0	32	15:18:35	1190562	0	0	0	0	0	0	0	0	0	0	0	0	0	0	0	0	0
082012	15:18:35	10034	Trial2BackEng	N	3	0	1000	1	33	15:18:35	1192948	0	0	0	0	0	0	0	0	0	0	0	0	0	0	0	0	0
082012	15:18:35	10034	Trial2BackEng	N	3	0	1000	1	34	15:18:35	1194467	0	0	0	0	0	0	0	0	0	0	0	0	0	0	0	0	0
082012	15:18:35	10034	Trial2BackEng	N	3	0	1000	1	35	15:18:35	1195987	0	0	0	0	0	0	0	0	0	0	0	0	0	0	0	0	0
082012	15:18:35	10034	Trial2BackEng	N	3	0	1000	1	36	15:18:35	1197506	0	0	0	0	0	0	0	0	0	0	0	0	0	0	0	0	0
082012	15:18:35	10034	Trial2BackEng	N	3	0	1000	1	37	15:18:35	1199026	0	0	0	0	0	0	0	0	0	0	0	0	0	0	0	0	0
082012	15:18:35	10034	Trial2BackEng	Y	3	57	987	1	38	15:18:35	1200545	0	0	0	0	0	0	0	0	0	0	0	0	0	0	0	0	0
082012	15:18:35	10034	Trial2BackEng	N	3	0	1000	1	39	15:18:35	1202064	0	0	0	0	0	0	0	0	0	0	0	0	0	0	0	0	0
082012	15:18:35	10034	Trial2BackEng	N	3	0	1000	1	40	15:18:35	1203584	0	0	0	0	0	0	0	0	0	0	0	0	0	0	0	0	0
082012	15:18:35	10034	Trial2BackEng	N	3	0	1000	1	41	15:18:35	1205103	0	0	0	0	0	0	0	0	0	0	0	0	0	0	0	0	0
082012	15:18:35	10034	Trial2BackEng	N	3	0	1000	1	42	15:18:35	1206623	0	0	0	0	0	0	0	0	0	0	0	0	0	0	0	0	0
082012	15:18:35	10034	Trial2BackEng	Y	3	57	686	1	43	15:18:35	1207835	0	0	0	0	0	0	0	0	0	0	0	0	0	0	0	0	0
082012	15:18:35	10034	Trial2BackEng	N	3	0	1000	1	44	15:18:35	1209648	0	0	0	0	0	0	0	0	0	0	0	0	0	0	0	0	0
082012	15:18:35	10034	Trial2BackEng	N	3	0	1000	1	45	15:18:35	1211168	0	0	0	0	0	0	0	0	0	0	0	0	0	0	0	0	0
082012	15:18:35	10034	Trial2BackEng	N	3	0	1000	1	46	15:18:35	1212687	0	0	0	0	0	0	0	0	0	0	0	0	0	0	0	0	0
082012	15:18:35	10034	Trial2BackEng	N	3	0	1000	1	47	15:18:35	1214206	0	0	0	0	0	0	0	0	0	0	0	0	0	0	0	0	0
082012	15:18:35	10034	Trial2BackEng	N	3	0	1000	1	48	15:18:35	1215726	0	0	0	0	0	0	0	0	0	0	0	0	0	0	0	0	0
082012	15:18:35	10034	Trial2BackEng	Y	3	57	911	1	49	15:18:35	1217165	0	0	0	0	0	0	0	0	0	0	0	0	0	0	0	0	0
082012	15:18:35	10034	Trial2BackEng	N	3	0	1000	1	50	15:18:35	1218751	0	0	0	0	0	0	0	0	0	0	0	0	0	0	0	0	0
082012	15:18:35	10034	Trial2BackEng	N	3	0	1000	1	51	15:18:35	1220270	0	0	0	0	0	0	0	0	0	0	0	0	0	0	0	0	0
082012	15:18:35	10034	Trial2BackEng	N	3	0	1000	1	52	15:18:35	1221790	0	0	0	0	0	0	0	0	0	0	0	0	0	0	0	0	0
082012	15:18:35	10034	Trial2BackEng	N	3	0	1000	1	53	15:18:35	1223309	0	0	0	0	0	0	0	0	0	0	0	0	0	0	0	0	0
082012	15:18:35	10034	Trial2BackEng	N	3	0	1000	1	54	15:18:35	1224829	0	0	0	0	0	0	0	0	0	0	0	0	0	0	0	0	0
082012	15:18:35	10034	Trial2BackEng	N	3	0	1000	1	55	15:18:35	1226348	0	0	0	0	0	0	0	0	0	0	0	0	0	0	0	0	0
082012	15:18:35	10034	Trial2BackEng	Y	3	0	1000	0	55	15:18:35	1227867	0	0	0	0	0	0	0	0	0	0	0	0	0	0	0	0	0
082012	15:18:35	10034	Trial2BackEng	N	3	0	1000	1	56	15:18:35	1229387	0	0	0	0	0	0	0	0	0	0	0	0	0	0	0	0	0
082012	15:18:35	10034	Trial2BackEng	N	3	0	1000	1	57	15:18:35	1230906	0	0	0	0	0	0	0	0	0	0	0	0	0	0	0	0	0
082012	15:18:35	10034	Trial2BackEng	Y	3	0	1000	0	57	15:18:35	1232425	0	0	0	0	0	0	0	0	0	0	0	0	0	0	0	0	0
082012	15:18:35	10034	Trial2BackEng	N	3	0	1000	1	58	15:18:35	1233945	0	0	0	0	0	0	0	0	0	0	0	0	0	0	0	0	0
082012	15:18:35	10034	Trial2BackEng	N	3	0	1000	1	59	15:18:35	1235464	0	0	0	0	0	0	0	0	0	0	0	0	0	0	0	0	0
082012	15:18:35	10034	Trial2BackEng	N	3	0	1000	1	60	15:18:35	1236984	0	0	0	0	0	0	0	0	0	0	0	0	0	0	0	0	0
082012	15:18:35	10034	Trial2BackEng	N	3	0	1000	1	61	15:18:35	1238503	0	0	0	0	0	0	0	0	0	0	0	0	0	0	0	0	0
082012	15:18:35	10034	Trial2BackEng	N	3	0	1000	1	62	15:18:35	1240022	0	0	0	0	0	0	0	0	0	0	0	0	0	0	0	0	0
082012	15:18:35	10034	Trial2BackEng	N	3	0	1000	1	63	15:18:35	1241542	0	0	0	0	0	0	0	0	0	0	0	0	0	0	0	0	0
082012	15:18:35	10034	Trial2BackEng	N	3	0	1000	1	64	15:18:35	1243061	0	0	0	0	0	0	0	0	0	0	0	0	0	0	0	0	0
082012	15:18:35	10034	Trial2BackEng	N	3	0	1000	1	65	15:18:35	1244581	0	0	0	0	0	0	0	0	0	0	0	0	0	0	0	0	0
082012	15:18:35	10034	Trial2BackEng	N	3	0	1000	1	66	15:18:35	1246100	0	0	0	0	0	0	0	0	0	0	0	0	0	0	0	0	0
082012	15:18:35	10034	Trial2BackEng	N	3	0	1000	1	67	15:18:35	1247619	0	0	0	0	0	0	0	0	0	0	0	0	0	0	0	0	0
082012	15:18:35	10034	Trial2BackEng	Y	3	57	745	1	68	15:18:35	1248899	0	0	0	0	0	0	0	0	0	0	0	0	0	0	0	0	0
082012	15:18:35	10034	Trial2BackEng	N	3	0	1000	1	69	15:18:35	1250645	0	0	0	0	0	0	0	0	0	0	0	0	0	0	0	0	0
082012	15:18:35	10034	Trial2BackEng	N	3	0	1000	1	70	15:18:35	1252164	0	0	0	0	0	0	0	0	0	0	0	0	0	0	0	0	0
082012	15:18:35	10034	Trial2BackEng	N	3	0	1000	1	71	15:18:35	1253684	0	0	0	0	0	0	0	0	0	0	0	0	0	0	0	0	0
082012	15:18:35	10034	Trial2BackEng	Y	3	57	745	1	72	15:18:35	1254963	0	0	0	0	0	0	0	0	0	0	0	0	0	0	0	0	0
082012	15:18:35	10034	Trial2BackEng	N	3	0	1000	1	73	15:18:35	1256709	0	0	0	0	0	0	0	0	0	0	0	0	0	0	0	0	0
082012	15:18:35	10034	Trial2BackEng	N	3	0	1000	1	74	15:18:35	1258228	0	0	0	0	0	0	0	0	0	0	0	0	0	0	0	0	0
082012	15:18:35	10034	Trial2BackEng	N	3	0	1000	1	75	15:18:35	1259748	0	0	0	0	0	0	0	0	0	0	0	0	0	0	0	0	0
082012	15:18:35	10034	Trial2BackEng	N	3	0	1000	1	76	15:18:35	1261267	0	0	0	0	0	0	0	0	0	0	0	0	0	0	0	0	0
082012	15:18:35	10034	Trial2BackEng	N	3	0	1000	1	77	15:18:35	1262787	0	0	0	0	0	0	0	0	0	0	0	0	0	0	0	0	0
082012	15:18:35	10034	Trial2BackEng	Y	3	57	857	1	78	15:18:35	1264172	0	0	0	0	0	0	0	0	0	0	0	0	0	0	0	0	0
082012	15:18:35	10034	Trial2BackEng	N	3	0	1000	1	79	15:18:35	1265812	0	0	0	0	0	0	0	0	0	0	0	0	0	0	0	0	0
082012	15:18:35	10034	Trial2BackEng	N	3	0	1000	1	80	15:18:35	1267331	0	0	0	0	0	0	0	0	0	0	0	0	0	0	0	0	0
082012	15:18:35	10034	Trial2BackEng	N	3	0	1000	1	81	15:18:35	1268851	0	0	0	0	0	0	0	0	0	0	0	0	0	0	0	0	0
082012	15:18:35	10034	Trial2BackEng	N	3	0	1000	1	82	15:18:35	1270370	0	0	0	0	0	0	0	0	0	0	0	0	0	0	0	0	0
082012	15:18:35	10034	Trial2BackEng	N	3	0	1000	1	83	15:18:35	1271890	0	0	0	0	0	0	0	0	0	0	0	0	0	0	0	0	0
082012	15:18:35	10034	Trial2BackEng	N	3	0	1000	1	84	15:18:35	1273409	0	0	0	0	0	0	0	0	0	0	0	0	0	0	0	0	0
082012	15:18:35	10034	Trial2BackEng	N	3	0	1000	1	85	15:18:35	1274928	0	0	0	0	0	0	0	0	0	0	0	0	0	0	0	0	0
082012	15:18:35	10034	Trial2BackEng	N	3	0	1000	1	86	15:18:35	1276447	0	0	0	0	0	0	0	0	0	0	0	0	0	0	0	0	0
082012	15:18:35	10034	Trial2BackEng	N	3	0	1000	1	87	15:18:35	1277967	0	0	0	0	0	0	0	0	0	0	0	0	0	0	0	0	0
082012	15:18:35	10034	Trial2BackEng	Y	3	57	988	1	88	15:18:35	1279486	0	0	0	0	0	0	0	0	0	0	0	0	0	0	0	0	0
082012	15:18:35	10034	Trial2BackEng	N	3	0	1000	1	89	15:18:35	1281006	0	0	0	0	0	0	0	0	0	0	0	0	0	0	0	0	0
082012	15:18:35	10034	Trial2BackEng	N	3	0	1000	1	90	15:18:35	1282525	0	0	0	0	0	0	0	0	0	0	0	0	0	0	0	0	0
082012	15:18:35	10034	Trial2BackEng	N	3	0	1000	1	91	15:18:35	1284045	0	0	0	0	0	0	0	0	0	0	0	0	0	0	0	0	0
082012	15:18:35	10034	Trial2BackEng	N	3	0	1000	1	92	15:18:35	1285564	0	0	0	0	0	0	0	0	0	0	0	0	0	0	0	0	0
082012	15:18:35	10034	Trial2BackEng	N	3	0	1000	1	93	15:18:35	1287083	0	0	0	0	0	0	0	0	0	0	0	0	0	0	0	0	0
082012	15:18:35	10034	Trial2BackEng	N	3	0	1000	1	94	15:18:35	1288603	0	0	0	0	0	0	0	0	0	0	0	0	0	0	0	0	0
082012	15:18:35	10034	Trial2BackEng	N	3	0	1000	1	95	15:18:35	1290122	0	0	0	0	0	0	0	0	0	0	0	0	0	0	0	0	0
082012	15:18:35	10034	Trial2BackEng	N	3	0	1000	1	96	15:18:35	1291642	0	0	0	0	0	0	0	0	0	0	0	0	0	0	0	0	0
082012	15:18:35	10034	Trial2BackEng	Y	3	57	690	1	97	15:18:35	1292854	0	0	0	0	0	0	0	0	0	0	0	0	0	0	0	0	0
082012	15:18:35	10034	Trial2BackEng	N	3	0	1000	1	98	15:18:35	1294667	0	0	0	0	0	0	0	0	0	0	0	0	0	0	0	0	0
082012	15:18:35	10034	Trial2BackEng	N	3	0	1000	1	99	15:18:35	1296186	0	0	0	0	0	0	0	0	0	0	0	0	0	0	0	0	0
082012	15:18:35	10034	Trial2BackEng	N	3	0	1000	1	100	15:18:35	1297706	0	0	0	0	0	0	0	0	0	0	0	0	0	0	0	0	0
082012	15:18:35	10034	Trial2BackEng	N	3	0	1000	1	101	15:18:35	1299225	0	0	0	0	0	0	0	0	0	0	0	0	0	0	0	0	0
082012	15:18:35	10034	Trial2BackEng	Y	3	57	770	1	102	15:18:35	1300518	0	0	0	0	0	0	0	0	0	0	0	0	0	0	0	0	0
082012	15:18:35	10034	Trial2BackEng	N	3	0	1000	1	103	15:18:35	1302251	0	0	0	0	0	0	0	0	0	0	0	0	0	0	0	0	0
082012	15:18:35	10034	Trial2BackEng	N	3	0	1000	1	104	15:18:35	1303770	0	0	0	0	0	0	0	0	0	0	0	0	0	0	0	0	0
082012	15:18:35	10034	Trial2BackEng	N	3	0	1000	1	105	15:18:35	1305289	0	0	0	0	0	0	0	0	0	0	0	0	0	0	0	0	0
082012	15:18:35	10034	Trial2BackEng	Y	3	57	834	1	106	15:18:35	1306649	0	0	0	0	0	0	0	0	0	0	0	0	0	0	0	0	0
082012	15:18:35	10034	Trial2BackEng	N	3	0	1000	1	107	15:18:35	1308315	0	0	0	0	0	0	0	0	0	0	0	0	0	0	0	0	0
082012	15:18:35	10034	Trial2BackEng	N	3	0	1000	1	108	15:18:35	1309834	0	0	0	0	0	0	0	0	0	0	0	0	0	0	0	0	0
082012	15:18:35	10034	Trial2BackEng	N	3	0	1000	1	109	15:18:35	1311354	0	0	0	0	0	0	0	0	0	0	0	0	0	0	0	0	0
082012	15:18:35	10034	Trial2BackEng	N	3	0	1000	1	110	15:18:35	1312873	0	0	0	0	0	0	0	0	0	0	0	0	0	0	0	0	0
082012	15:18:35	10034	Trial2BackEng	N	3	0	1000	1	111	15:18:35	1314392	0	0	0	0	0	0	0	0	0	0	0	0	0	0	0	0	0
082012	15:18:35	10034	Trial2BackEng	Y	3	57	594	1	112	15:18:35	1315512	0	0	0	0	0	0	0	0	0	0	0	0	0	0	0	0	0
082012	15:18:35	10034	Trial2BackEng	N	3	0	1000	1	113	15:18:35	1317418	0	0	0	0	0	0	0	0	0	0	0	0	0	0	0	0	0
082012	15:18:35	10034	Trial2BackEng	N	3	0	1000	1	114	15:18:35	1318937	0	0	0	0	0	0	0	0	0	0	0	0	0	0	0	0	0
082012	15:18:35	10034	Trial2BackEng	N	3	0	1000	1	115	15:18:35	1320457	0	0	0	0	0	0	0	0	0	0	0	0	0	0	0	0	0
082012	15:18:35	10034	Trial2BackEng	Y	3	57	546	1	116	15:18:35	1321536	0	0	0	0	0	0	0	0	0	0	0	0	0	0	0	0	0
082012	15:18:35	10034	Memory1RBaseline	Score	5	M1	40128	0	116	15:18:35	1396573	0	0	0	0	0	0	0	0	0	0	0	0	0	0	0	0	0
082012	15:18:35	10034	Memory1RBaseline	Score	5	M4	1878	0	116	15:18:35	1398492	0	0	0	0	0	0	0	0	0	0	0	0	0	0	0	0	0
082012	15:18:35	10034	Memory1RBaseline	Score	5	M7	1526	0	116	15:18:35	1400065	0	0	0	0	0	0	0	0	0	0	0	0	0	0	0	0	0
082012	15:18:35	10034	Memory1RBaseline	Score	5	M8	146	0	116	15:18:35	1400251	0	0	0	0	0	0	0	0	0	0	0	0	0	0	0	0	0
082012	15:18:35	10034	Memory1RBaseline	Score	5	Done	647	0	116	15:18:35	1400944	0	0	0	0	0	0	0	0	0	0	0	0	0	0	0	0	0
082012	15:18:35	10034	Memory2RBaseline	Score2	5	11	18815	0	116	15:18:35	1442341	0	0	0	0	0	0	0	0	0	0	0	0	0	0	0	0	0
082012	15:18:35	10034	Memory2RBaseline	Score2	5	44	1677	0	116	15:18:35	1444060	0	0	0	0	0	0	0	0	0	0	0	0	0	0	0	0	0
082012	15:18:35	10034	Memory2RBaseline	Score2	5	55	1061	0	116	15:18:35	1445166	0	0	0	0	0	0	0	0	0	0	0	0	0	0	0	0	0
082012	15:18:35	10034	Memory2RBaseline	Score2	5	66	843	0	116	15:18:35	1446046	0	0	0	0	0	0	0	0	0	0	0	0	0	0	0	0	0
082012	15:18:35	10034	Memory2RBaseline	Score2	5	77	507	0	116	15:18:35	1446592	0	0	0	0	0	0	0	0	0	0	0	0	0	0	0	0	0
082012	15:18:35	10034	Memory2RBaseline	Score2	5	88	337	0	116	15:18:35	1446966	0	0	0	0	0	0	0	0	0	0	0	0	0	0	0	0	0
082012	15:18:35	10034	Memory2RBaseline	Score2	5	Done	3196	0	116	15:18:35	1450204	0	0	0	0	0	0	0	0	0	0	0	0	0	0	0	0	0
082012	15:18:35	10034	Memory3RBaseline	Score3	5	111	16099	0	116	15:18:35	1490881	0	0	0	0	0	0	0	0	0	0	0	0	0	0	0	0	0
082012	15:18:35	10034	Memory3RBaseline	Score3	5	333	655	0	116	15:18:35	1491574	0	0	0	0	0	0	0	0	0	0	0	0	0	0	0	0	0
082012	15:18:35	10034	Memory3RBaseline	Score3	5	444	314	0	116	15:18:35	1491934	0	0	0	0	0	0	0	0	0	0	0	0	0	0	0	0	0
082012	15:18:35	10034	Memory3RBaseline	Score3	5	555	1074	0	116	15:18:35	1493054	0	0	0	0	0	0	0	0	0	0	0	0	0	0	0	0	0
082012	15:18:35	10034	Memory3RBaseline	Score3	5	666	339	0	116	15:18:35	1493427	0	0	0	0	0	0	0	0	0	0	0	0	0	0	0	0	0
082012	15:18:35	10034	Memory3RBaseline	Score3	5	777	390	0	116	15:18:35	1493853	0	0	0	0	0	0	0	0	0	0	0	0	0	0	0	0	0
082012	15:18:35	10034	Memory3RBaseline	Score3	5	888	363	0	116	15:18:35	1494253	0	0	0	0	0	0	0	0	0	0	0	0	0	0	0	0	0
082012	15:18:35	10034	Memory3RBaseline	Score3	5	Done	3027	0	116	15:18:35	1497318	0	0	0	0	0	0	0	0	0	0	0	0	0	0	0	0	0
082012	15:18:35	10034	LoriaEngLH3	Stop	6	5	3280	0	116	15:18:35	1575754	0	0	0	0	0	0	0	0	0	0	0	0	0	0	0	0	0
082012	15:18:35	10034	EngTrail	Trails	7	1Trails	1369	0	116	15:18:35	1632384	0	0	0	0	0	0	0	0	0	0	0	0	0	0	0	0	0
082012	15:18:35	10034	Serial7EngBaseline	Serial7EngBaseline	8	83	30767	0	116	15:18:35	1683967	1	0	0	0	0	0	0	0	0	0	0	0	0	0	0	0	0
082012	15:18:35	10034	Serial7EngBaseline	Serial7EngBaseline	8	75	2356	0	116	15:18:35	1686339	1	0	0	0	0	0	0	0	0	0	0	0	0	0	0	0	0
082012	15:18:35	10034	Serial7EngBaseline	Serial7EngBaseline	8	67	2088	0	116	15:18:35	1688445	1	0	0	0	0	0	0	0	0	0	0	0	0	0	0	0	0
082012	15:18:35	10034	Serial7EngBaseline	Serial7EngBaseline	8	53	1542	0	116	15:18:35	1690005	1	0	0	0	0	0	0	0	0	0	0	0	0	0	0	0	0
082012	15:18:35	10034	Serial7EngBaseline	Serial7EngBaseline	8	45	1863	0	116	15:18:35	1691884	1	0	0	0	0	0	0	0	0	0	0	0	0	0	0	0	0
082012	15:18:35	10034	corsiblockEngFwrd	recallseqEngFwrd	9	7	3501	0	116	15:18:35	1759457	1	0	0	0	0	0	0	0	0	0	0	0	0	0	0	0	0
082012	15:18:35	10034	corsiblockEngFwrd	recallseqEngFwrd	9	4	1845	0	116	15:18:35	1761336	1	0	0	0	0	0	0	0	0	0	0	0	0	0	0	0	0
082012	15:18:35	10034	corsiblockEngFwrd	recallseqEngFwrd	9	doneCorsiEng	2550	0	116	15:18:35	1763922	1	0	0	0	0	0	0	0	0	0	0	0	0	0	0	2	0
082012	15:18:35	10034	corsiblockEngFwrd	recallseqEngFwrd	9	1	977	0	116	15:18:35	1770985	1	0	0	0	0	0	0	0	0	0	0	0	0	0	0	2	0
082012	15:18:35	10034	corsiblockEngFwrd	recallseqEngFwrd	9	3	1084	0	116	15:18:35	1772105	1	0	0	0	0	0	0	0	0	0	0	0	0	0	0	2	0
082012	15:18:35	10034	corsiblockEngFwrd	recallseqEngFwrd	9	9	1124	0	116	15:18:35	1773264	1	0	0	0	0	0	0	0	0	0	0	0	0	0	0	2	0
082012	15:18:35	10034	corsiblockEngFwrd	recallseqEngFwrd	9	doneCorsiEng	1949	0	116	15:18:35	1775250	1	0	0	0	0	0	0	0	0	0	0	0	0	0	0	3	0
082012	15:18:35	10034	corsiblockEngFwrd	recallseqEngFwrd	9	5	1640	0	116	15:18:35	1783980	1	0	0	0	0	0	0	0	0	0	0	0	0	0	0	3	0
082012	15:18:35	10034	corsiblockEngFwrd	recallseqEngFwrd	9	6	905	0	116	15:18:35	1784926	1	0	0	0	0	0	0	0	0	0	0	0	0	0	0	3	0
082012	15:18:35	10034	corsiblockEngFwrd	recallseqEngFwrd	9	8	1255	0	116	15:18:35	1786219	1	0	0	0	0	0	0	0	0	0	0	0	0	0	0	3	0
082012	15:18:35	10034	corsiblockEngFwrd	recallseqEngFwrd	9	2	1146	0	116	15:18:35	1787406	1	0	0	0	0	0	0	0	0	0	0	0	0	0	0	3	0
082012	15:18:35	10034	corsiblockEngFwrd	recallseqEngFwrd	9	doneCorsiEng	3656	0	116	15:18:35	1791097	1	0	0	0	0	0	0	0	0	0	0	0	0	0	0	4	0
082012	15:18:35	10034	corsiblockEngFwrd	recallseqEngFwrd	9	1	1105	0	116	15:18:35	1800294	1	0	0	0	0	0	0	0	0	0	0	0	0	0	0	4	0
082012	15:18:35	10034	corsiblockEngFwrd	recallseqEngFwrd	9	4	1255	0	116	15:18:35	1801587	1	0	0	0	0	0	0	0	0	0	0	0	0	0	0	4	0
082012	15:18:35	10034	corsiblockEngFwrd	recallseqEngFwrd	9	6	874	0	116	15:18:35	1802506	1	0	0	0	0	0	0	0	0	0	0	0	0	0	0	4	0
082012	15:18:35	10034	corsiblockEngFwrd	recallseqEngFwrd	9	8	995	0	116	15:18:35	1803546	1	0	0	0	0	0	0	0	0	0	0	0	0	0	0	4	0
082012	15:18:35	10034	corsiblockEngFwrd	recallseqEngFwrd	9	9	955	0	116	15:18:35	1804545	1	0	0	0	0	0	0	0	0	0	0	0	0	0	0	4	0
082012	15:18:35	10034	corsiblockEngFwrd	recallseqEngFwrd	9	doneCorsiEng	2388	0	116	15:18:35	1806971	1	0	0	0	0	0	0	0	0	0	0	0	0	0	0	5	0
082012	15:18:35	10034	corsiblockEngFwrd	recallseqEngFwrd	9	7	1157	0	116	15:18:35	1817247	1	0	0	0	0	0	0	0	0	0	0	0	0	0	0	5	0
082012	15:18:35	10034	corsiblockEngFwrd	recallseqEngFwrd	9	5	718	0	116	15:18:35	1818006	1	0	0	0	0	0	0	0	0	0	0	0	0	0	0	5	0
082012	15:18:35	10034	corsiblockEngFwrd	recallseqEngFwrd	9	3	902	0	116	15:18:35	1818953	1	0	0	0	0	0	0	0	0	0	0	0	0	0	0	5	0
082012	15:18:35	10034	corsiblockEngFwrd	recallseqEngFwrd	9	2	780	0	116	15:18:35	1819766	1	0	0	0	0	0	0	0	0	0	0	0	0	0	0	5	0
082012	15:18:35	10034	corsiblockEngFwrd	recallseqEngFwrd	9	9	654	0	116	15:18:35	1820459	1	0	0	0	0	0	0	0	0	0	0	0	0	0	0	5	0
082012	15:18:35	10034	corsiblockEngFwrd	recallseqEngFwrd	9	doneCorsiEng	1122	0	116	15:18:35	1821618	1	0	0	0	0	0	0	0	0	0	0	0	0	0	0	5	0
082012	15:18:35	10034	corsiblockEngFwrd	recallseqEngFwrd	9	1	1057	0	116	15:18:35	1831721	1	0	0	0	0	0	0	0	0	0	0	0	0	0	0	5	0
082012	15:18:35	10034	corsiblockEngFwrd	recallseqEngFwrd	9	6	1195	0	116	15:18:35	1832961	1	0	0	0	0	0	0	0	0	0	0	0	0	0	0	5	0
082012	15:18:35	10034	corsiblockEngFwrd	recallseqEngFwrd	9	8	804	0	116	15:18:35	1833800	1	0	0	0	0	0	0	0	0	0	0	0	0	0	0	5	0
082012	15:18:35	10034	corsiblockEngFwrd	recallseqEngFwrd	9	3	860	0	116	15:18:35	1834694	1	0	0	0	0	0	0	0	0	0	0	0	0	0	0	5	0
082012	15:18:35	10034	corsiblockEngFwrd	recallseqEngFwrd	9	7	751	0	116	15:18:35	1835479	1	0	0	0	0	0	0	0	0	0	0	0	0	0	0	5	0
082012	15:18:35	10034	corsiblockEngFwrd	recallseqEngFwrd	9	9	693	0	116	15:18:35	1836213	1	0	0	0	0	0	0	0	0	0	0	0	0	0	0	5	0
082012	15:18:35	10034	corsiblockEngFwrd	recallseqEngFwrd	9	doneCorsiEng	1096	0	116	15:18:35	1837345	1	0	0	0	0	0	0	0	0	0	0	0	0	0	0	5	0
082012	15:18:35	10034	corsiblockEngRev	recallseqEngRev	10	4	1500	0	116	15:18:35	1850274	1	0	0	0	0	0	0	0	0	0	0	0	0	0	0	5	0
082012	15:18:35	10034	corsiblockEngRev	recallseqEngRev	10	5	762	0	116	15:18:35	1851073	1	0	0	0	0	0	0	0	0	0	0	0	0	0	0	5	0
082012	15:18:35	10034	corsiblockEngRev	recallseqEngRev	10	doneCorsiEng	762	0	116	15:18:35	1851873	1	0	0	0	0	0	0	0	0	0	0	0	0	0	0	5	2
082012	15:18:35	10034	corsiblockEngRev	recallseqEngRev	10	3	1640	0	116	15:18:35	1859603	1	0	0	0	0	0	0	0	0	0	0	0	0	0	0	5	2
082012	15:18:35	10034	corsiblockEngRev	recallseqEngRev	10	9	824	0	116	15:18:35	1860469	1	0	0	0	0	0	0	0	0	0	0	0	0	0	0	5	2
082012	15:18:35	10034	corsiblockEngRev	recallseqEngRev	10	7	654	0	116	15:18:35	1861162	1	0	0	0	0	0	0	0	0	0	0	0	0	0	0	5	2
082012	15:18:35	10034	corsiblockEngRev	recallseqEngRev	10	doneCorsiEng	1297	0	116	15:18:35	1862495	1	0	0	0	0	0	0	0	0	0	0	0	0	0	0	5	3
082012	15:18:35	10034	corsiblockEngRev	recallseqEngRev	10	1	1890	0	116	15:18:35	1871478	1	0	0	0	0	0	0	0	0	0	0	0	0	0	0	5	3
082012	15:18:35	10034	corsiblockEngRev	recallseqEngRev	10	6	1565	0	116	15:18:35	1873078	1	0	0	0	0	0	0	0	0	0	0	0	0	0	0	5	3
082012	15:18:35	10034	corsiblockEngRev	recallseqEngRev	10	8	1517	0	116	15:18:35	1874637	1	0	0	0	0	0	0	0	0	0	0	0	0	0	0	5	3
082012	15:18:35	10034	corsiblockEngRev	recallseqEngRev	10	2	750	0	116	15:18:35	1875423	1	0	0	0	0	0	0	0	0	0	0	0	0	0	0	5	3
082012	15:18:35	10034	corsiblockEngRev	recallseqEngRev	10	doneCorsiEng	1748	0	116	15:18:35	1877209	1	0	0	0	0	0	0	0	0	0	0	0	0	0	0	5	3
082012	15:18:35	10034	corsiblockEngRev	recallseqEngRev	10	3	1863	0	116	15:18:35	1886126	1	0	0	0	0	0	0	0	0	0	0	0	0	0	0	5	3
082012	15:18:35	10034	corsiblockEngRev	recallseqEngRev	10	9	925	0	116	15:18:35	1887085	1	0	0	0	0	0	0	0	0	0	0	0	0	0	0	5	3
082012	15:18:35	10034	corsiblockEngRev	recallseqEngRev	10	8	982	0	116	15:18:35	1888112	1	0	0	0	0	0	0	0	0	0	0	0	0	0	0	5	3
082012	15:18:35	10034	corsiblockEngRev	recallseqEngRev	10	4	763	0	116	15:18:35	1888911	1	0	0	0	0	0	0	0	0	0	0	0	0	0	0	5	3
082012	15:18:35	10034	corsiblockEngRev	recallseqEngRev	10	doneCorsiEng	988	0	116	15:18:35	1889937	1	0	0	0	0	0	0	0	0	0	0	0	0	0	0	5	3
082012	15:18:35	10034	testEngBaseline	WordsEngBaseline	11	1EngBaseline	1236	0	116	15:18:35	1912182	1	1	0	0	0	0	0	0	0	0	0	0	0	0	0	5	3
082012	15:18:35	10034	testEngBaseline	WordsEngBaseline	11	3EngBaseline	517	0	116	15:18:35	1912742	1	1	0	1	0	0	0	0	0	0	0	0	0	0	0	5	3
082012	15:18:35	10034	testEngBaseline	WordsEngBaseline	11	4EngBaseline	245	0	116	15:18:35	1913022	1	1	0	1	1	0	0	0	0	0	0	0	0	0	0	5	3
082012	15:18:35	10034	testEngBaseline	WordsEngBaseline	11	6EngBaseline	293	0	116	15:18:35	1913355	1	1	0	1	1	0	1	0	0	0	0	0	0	0	0	5	3
082012	15:18:35	10034	testEngBaseline	WordsEngBaseline	11	5EngBaseline	304	0	116	15:18:35	1913701	1	1	0	1	1	1	1	0	0	0	0	0	0	0	0	5	3
082012	15:18:35	10034	testEngBaseline	WordsEngBaseline	11	7EngBaseline	453	0	116	15:18:35	1914195	1	1	0	1	1	1	1	1	0	0	0	0	0	0	0	5	3
082012	15:18:35	10034	testEngBaseline	WordsEngBaseline	11	8EngBaseline	288	0	116	15:18:35	1914528	1	1	0	1	1	1	1	1	1	0	0	0	0	0	0	5	3
082012	15:18:35	10034	testEngBaseline	WordsEngBaseline	11	DoneEngBaseline	3108	0	116	15:18:35	1917673	1	1	0	1	1	1	1	1	1	0	0	0	0	0	0	5	3
082012	15:18:35	10034	testEngBaseline	Cat2EngBaseline	11	0	1	0	116	15:18:35	1917690	1	1	0	1	1	1	1	1	1	0	0	0	0	0	0	5	3
082012	15:18:35	10034	testEngBaseline	Ch2EngBaseline	11	RR2EngBaseline	3005	0	116	15:18:35	1920725	1	1	3	1	1	1	1	1	1	0	0	0	0	0	0	5	3
082012	15:18:35	10034	DigitSpanFwrdEngBaseline	Score1FwrdEngBaseline	12	DS1	3890	0	116	15:18:35	1941876	1	1	3	1	1	1	1	1	1	0	0	0	0	0	0	5	3
082012	15:18:35	10034	DigitSpanFwrdEngBaseline	Gate1FwrdEngBaseline	12	0	1	0	116	15:18:35	1941892	1	1	3	1	1	1	1	1	1	3	0	0	0	0	0	5	3
082012	15:18:35	10034	DigitSpanFwrdEngBaseline	Score2FwrdEngBaseline	12	DS1	4307	0	116	15:18:35	1951952	1	1	3	1	1	1	1	1	1	3	0	0	0	0	0	5	3
082012	15:18:35	10034	DigitSpanFwrdEngBaseline	Gate3FwrdEngBaseline	12	0	1	0	116	15:18:35	1951968	1	1	3	1	1	1	1	1	1	4	0	0	0	0	0	5	3
082012	15:18:35	10034	DigitSpanFwrdEngBaseline	Score3FwrdEngBaseline	12	DS1	4192	0	116	15:18:35	1963947	1	1	3	1	1	1	1	1	1	4	0	0	0	0	0	5	3
082012	15:18:35	10034	DigitSpanFwrdEngBaseline	Gate5FwrdEngBaseline	12	0	1	0	116	15:18:35	1963963	1	1	3	1	1	1	1	1	1	5	0	0	0	0	0	5	3
082012	15:18:35	10034	DigitSpanFwrdEngBaseline	Score4FwrdEngBaseline	12	DS1	3999	0	116	15:18:35	1977488	1	1	3	1	1	1	1	1	1	5	0	0	0	0	0	5	3
082012	15:18:35	10034	DigitSpanFwrdEngBaseline	Gate7FwrdEngBaseline	12	0	1	0	116	15:18:35	1977504	1	1	3	1	1	1	1	1	1	6	0	0	0	0	0	5	3
082012	15:18:35	10034	DigitSpanFwrdEngBaseline	Score5FwrdEngBaseline	12	DS2	6875	0	116	15:18:35	1995428	1	1	3	1	1	1	1	1	1	6	0	0	0	0	0	5	3
082012	15:18:35	10034	DigitSpanFwrdEngBaseline	Gate9FwrdEngBaseline	12	0	1	0	116	15:18:35	1995443	1	1	3	1	1	1	1	1	1	6	0	0	0	0	0	5	3
082012	15:18:35	10034	DigitSpanFwrdEngBaseline	Score55FwrdEngBaseline	12	DS1	5381	0	116	15:18:35	2012261	1	1	3	1	1	1	1	1	1	6	0	0	0	0	0	5	3
082012	15:18:35	10034	DigitSpanFwrdEngBaseline	Gate10FwrdEngBaseline	12	0	1	0	116	15:18:35	2012276	1	1	3	1	1	1	1	1	1	7	0	0	0	0	0	5	3
082012	15:18:35	10034	DigitSpanFwrdEngBaseline	Score6FwrdEngBaseline	12	DS2	5531	0	116	15:18:35	2031120	1	1	3	1	1	1	1	1	1	7	0	0	0	0	0	5	3
082012	15:18:35	10034	DigitSpanFwrdEngBaseline	Gate11FwrdEngBaseline	12	0	1	0	116	15:18:35	2031135	1	1	3	1	1	1	1	1	1	7	0	0	0	0	0	5	3
082012	15:18:35	10034	DigitSpanFwrdEngBaseline	Score66FwrdEngBaseline	12	DS2	6404	0	116	15:18:35	2050712	1	1	3	1	1	1	1	1	1	7	0	0	0	0	0	5	3
082012	15:18:35	10034	DigitSpanEngBaseline	Score1EngBaseline	13	DS1	4278	0	116	15:18:35	2071344	1	1	3	1	1	1	1	1	1	7	0	0	0	0	0	5	3
082012	15:18:35	10034	DigitSpanEngBaseline	Gate1EngBaseline	13	0	1	0	116	15:18:35	2071359	1	1	3	1	1	1	1	1	1	7	2	0	0	0	0	5	3
082012	15:18:35	10034	DigitSpanEngBaseline	Score2EngBaseline	13	DS2	6738	0	116	15:18:35	2082792	1	1	3	1	1	1	1	1	1	7	2	0	0	0	0	5	3
082012	15:18:35	10034	DigitSpanEngBaseline	Gate3EngBaseline	13	0	1	0	116	15:18:35	2082808	1	1	3	1	1	1	1	1	1	7	2	0	0	0	0	5	3
082012	15:18:35	10034	DigitSpanEngBaseline	Score22EngBaseline	13	DS2	8165	0	116	15:18:35	2095734	1	1	3	1	1	1	1	1	1	7	2	0	0	0	0	5	3
082012	15:18:35	10034	Trial	IncongruentRight	14	0	737	0	116	15:18:35	2186337	1	1	3	1	1	1	1	1	1	7	2	0	0	0	0	5	3
082012	15:18:35	10034	Trial	IncongruentLeft	14	0	737	0	116	15:18:35	2187350	1	1	3	1	1	1	1	1	1	7	2	0	0	0	0	5	3
082012	15:18:35	10034	Trial	CongruentRight	14	205	33	1	116	15:18:35	2187657	1	1	3	1	1	1	1	1	1	7	2	0	0	0	0	5	3
082012	15:18:35	10034	Trial	IncongruentRight	14	205	665	1	116	15:18:35	2189296	1	1	3	1	1	1	1	1	1	7	2	0	0	0	0	5	3
082012	15:18:35	10034	Trial	CongruentLeft	14	203	433	1	116	15:18:35	2190056	1	1	3	1	1	1	1	1	1	7	2	0	0	0	0	5	3
082012	15:18:35	10034	Trial	CongruentRight	14	205	362	1	116	15:18:35	2190989	1	1	3	1	1	1	1	1	1	7	2	0	0	0	0	5	3
082012	15:18:35	10034	Trial	IncongruentRight	14	205	597	1	116	15:18:35	2192228	1	1	3	1	1	1	1	1	1	7	2	0	0	0	0	5	3
082012	15:18:35	10034	Trial	CongruentLeft	14	203	477	1	116	15:18:35	2193108	1	1	3	1	1	1	1	1	1	7	2	0	0	0	0	5	3
082012	15:18:35	10034	Trial	IncongruentLeft	14	0	737	0	116	15:18:35	2194361	1	1	3	1	1	1	1	1	1	7	2	0	0	0	0	5	3
082012	15:18:35	10034	Trial	IncongruentLeft	14	203	702	1	116	15:18:35	2195333	1	1	3	1	1	1	1	1	1	7	2	0	0	0	0	5	3
082012	15:18:35	10034	Trial	CongruentRight	14	205	710	1	116	15:18:35	2196346	1	1	3	1	1	1	1	1	1	7	2	0	0	0	0	5	3
082012	15:18:35	10034	Trial	IncongruentRight	14	205	734	1	116	15:18:35	2197373	1	1	3	1	1	1	1	1	1	7	2	0	0	0	0	5	3
082012	15:18:35	10034	Trial	CongruentLeft	14	203	538	1	116	15:18:35	2198186	1	1	3	1	1	1	1	1	1	7	2	0	0	0	0	5	3
082012	15:18:35	10034	Trial	CongruentRight	14	205	466	1	116	15:18:35	2199119	1	1	3	1	1	1	1	1	1	7	2	0	0	0	0	5	3
082012	15:18:35	10034	Trial	IncongruentLeft	14	203	395	1	116	15:18:35	2200038	1	1	3	1	1	1	1	1	1	7	2	0	0	0	0	5	3
082012	15:18:35	10034	Trial	IncongruentRight	14	205	406	1	116	15:18:35	2201064	1	1	3	1	1	1	1	1	1	7	2	0	0	0	0	5	3
082012	15:18:35	10034	Trial	CongruentRight	14	205	702	1	116	15:18:35	2202357	1	1	3	1	1	1	1	1	1	7	2	0	0	0	0	5	3
082012	15:18:35	10034	Trial	CongruentLeft	14	203	470	1	116	15:18:35	2203130	1	1	3	1	1	1	1	1	1	7	2	0	0	0	0	5	3
082012	15:18:35	10034	Trial	CongruentRight	14	205	623	1	116	15:18:35	2204277	1	1	3	1	1	1	1	1	1	7	2	0	0	0	0	5	3
082012	15:18:35	10034	Trial	IncongruentRight	14	0	737	0	116	15:18:35	2205383	1	1	3	1	1	1	1	1	1	7	2	0	0	0	0	5	3
082012	15:18:35	10034	Trial	IncongruentLeft	14	203	543	1	116	15:18:35	2206196	1	1	3	1	1	1	1	1	1	7	2	0	0	0	0	5	3
082012	15:18:35	10034	Trial	IncongruentLeft	14	203	602	1	116	15:18:35	2207275	1	1	3	1	1	1	1	1	1	7	2	0	0	0	0	5	3
082012	15:18:35	10034	Trial	CongruentLeft	14	203	595	1	116	15:18:35	2208262	1	1	3	1	1	1	1	1	1	7	2	0	0	0	0	5	3
082012	15:18:35	10034	Trial	CongruentRight	14	205	475	1	116	15:18:35	2209141	1	1	3	1	1	1	1	1	1	7	2	0	0	0	0	5	3
082012	15:18:35	10034	Trial	IncongruentLeft	14	203	500	1	116	15:18:35	2210168	1	1	3	1	1	1	1	1	1	7	2	0	0	0	0	5	3
082012	15:18:35	10034	Trial	IncongruentRight	14	205	460	1	116	15:18:35	2211127	1	1	3	1	1	1	1	1	1	7	2	0	0	0	0	5	3
082012	15:18:35	10034	Trial	CongruentRight	14	205	619	1	116	15:18:35	2212287	1	1	3	1	1	1	1	1	1	7	2	0	0	0	0	5	3
082012	15:18:35	10034	Trial	CongruentLeft	14	203	509	1	116	15:18:35	2213180	1	1	3	1	1	1	1	1	1	7	2	0	0	0	0	5	3
082012	15:18:35	10034	Trial	IncongruentRight	14	205	521	1	116	15:18:35	2214193	1	1	3	1	1	1	1	1	1	7	2	0	0	0	0	5	3
082012	15:18:35	10034	Trial	IncongruentLeft	14	203	382	1	116	15:18:35	2215045	1	1	3	1	1	1	1	1	1	7	2	0	0	0	0	5	3
082012	15:18:35	10034	Trial	IncongruentRight	14	205	390	1	116	15:18:35	2216058	1	1	3	1	1	1	1	1	1	7	2	0	0	0	0	5	3
082012	15:18:35	10034	Trial	CongruentRight	14	205	542	1	116	15:18:35	2217205	1	1	3	1	1	1	1	1	1	7	2	0	0	0	0	5	3
082012	15:18:35	10034	Trial	IncongruentLeft	14	203	519	1	116	15:18:35	2218191	1	1	3	1	1	1	1	1	1	7	2	0	0	0	0	5	3
082012	15:18:35	10034	Trial	CongruentLeft	14	203	607	1	116	15:18:35	2219271	1	1	3	1	1	1	1	1	1	7	2	0	0	0	0	5	3
082012	15:18:35	10034	Trial	CongruentRight	14	205	472	1	116	15:18:35	2220137	1	1	3	1	1	1	1	1	1	7	2	0	0	0	0	5	3
082012	15:18:35	10034	Trial	IncongruentLeft	14	203	400	1	116	15:18:35	2221070	1	1	3	1	1	1	1	1	1	7	2	0	0	0	0	5	3
082012	15:18:35	10034	Trial	IncongruentRight	14	205	440	1	116	15:18:35	2222110	1	1	3	1	1	1	1	1	1	7	2	0	0	0	0	5	3
082012	15:18:35	10034	Trial	IncongruentRight	14	203	401	0	116	15:18:35	2223069	1	1	3	1	1	1	1	1	1	7	2	0	0	0	0	5	3
082012	15:18:35	10034	Trial	CongruentLeft	14	203	681	1	116	15:18:35	2224348	1	1	3	1	1	1	1	1	1	7	2	0	0	0	0	5	3
082012	15:18:35	10034	Trial	IncongruentLeft	14	0	737	0	116	15:18:35	2225401	1	1	3	1	1	1	1	1	1	7	2	0	0	0	0	5	3
082012	15:18:35	10034	Trial	CongruentRight	14	205	524	1	116	15:18:35	2226201	1	1	3	1	1	1	1	1	1	7	2	0	0	0	0	5	3
082012	15:18:35	10034	Trial	CongruentLeft	14	203	709	1	116	15:18:35	2227387	1	1	3	1	1	1	1	1	1	7	2	0	0	0	0	5	3
082012	15:18:35	10034	Trial	IncongruentRight	14	205	445	1	116	15:18:35	2228120	1	1	3	1	1	1	1	1	1	7	2	0	0	0	0	5	3
082012	15:18:35	10034	Trial	CongruentRight	14	205	568	1	116	15:18:35	2229253	1	1	3	1	1	1	1	1	1	7	2	0	0	0	0	5	3
082012	15:18:35	10034	Trial	IncongruentLeft	14	203	688	1	116	15:18:35	2230373	1	1	3	1	1	1	1	1	1	7	2	0	0	0	0	5	3
082012	15:18:35	10034	Trial	CongruentLeft	14	203	617	1	116	15:18:35	2231306	1	1	3	1	1	1	1	1	1	7	2	0	0	0	0	5	3
082012	15:18:35	10034	Trial	IncongruentLeft	14	203	625	1	116	15:18:35	2232319	1	1	3	1	1	1	1	1	1	7	2	0	0	0	0	5	3
082012	15:18:35	10034	Trial	IncongruentRight	14	205	537	1	116	15:18:35	2233225	1	1	3	1	1	1	1	1	1	7	2	0	0	0	0	5	3
082012	15:18:35	10034	Trial	CongruentRight	14	205	706	1	116	15:18:35	2234398	1	1	3	1	1	1	1	1	1	7	2	0	0	0	0	5	3
082012	15:18:35	10034	Trial	CongruentLeft	14	203	554	1	116	15:18:35	2235237	1	1	3	1	1	1	1	1	1	7	2	0	0	0	0	5	3
082012	15:18:35	10034	Trial	CongruentLeft	14	203	547	1	116	15:18:35	2236237	1	1	3	1	1	1	1	1	1	7	2	0	0	0	0	5	3
082012	15:18:35	10034	Trial	IncongruentRight	14	205	571	1	116	15:18:35	2237263	1	1	3	1	1	1	1	1	1	7	2	0	0	0	0	5	3
082012	15:18:35	10034	Trial	IncongruentLeft	14	203	644	1	116	15:18:35	2238329	1	1	3	1	1	1	1	1	1	7	2	0	0	0	0	5	3
082012	15:18:35	10034	Trial	IncongruentRight	14	205	428	1	116	15:18:35	2239116	1	1	3	1	1	1	1	1	1	7	2	0	0	0	0	5	3
082012	15:18:35	10034	Trial	CongruentRight	14	205	660	1	116	15:18:35	2240342	1	1	3	1	1	1	1	1	1	7	2	0	0	0	0	5	3
082012	15:18:35	10034	Trial	CongruentRight	14	205	557	1	116	15:18:35	2241235	1	1	3	1	1	1	1	1	1	7	2	0	0	0	0	5	3
082012	15:18:35	10034	Trial	IncongruentLeft	14	203	533	1	116	15:18:35	2242221	1	1	3	1	1	1	1	1	1	7	2	0	0	0	0	5	3
082012	15:18:35	10034	Trial	CongruentLeft	14	203	542	1	116	15:18:35	2243221	1	1	3	1	1	1	1	1	1	7	2	0	0	0	0	5	3
082012	15:18:35	10034	Trial	CongruentRight	14	205	550	1	116	15:18:35	2244234	1	1	3	1	1	1	1	1	1	7	2	0	0	0	0	5	3
082012	15:18:35	10034	Trial	CongruentLeft	14	203	574	1	116	15:18:35	2245260	1	1	3	1	1	1	1	1	1	7	2	0	0	0	0	5	3
082012	15:18:35	10034	Trial	IncongruentRight	14	205	471	1	116	15:18:35	2246153	1	1	3	1	1	1	1	1	1	7	2	0	0	0	0	5	3
082012	15:18:35	10034	Trial	CongruentRight	14	205	639	1	116	15:18:35	2247326	1	1	3	1	1	1	1	1	1	7	2	0	0	0	0	5	3
082012	15:18:35	10034	Trial	CongruentLeft	14	203	503	1	116	15:18:35	2248179	1	1	3	1	1	1	1	1	1	7	2	0	0	0	0	5	3
082012	15:18:35	10034	Trial	IncongruentLeft	14	203	624	1	116	15:18:35	2249298	1	1	3	1	1	1	1	1	1	7	2	0	0	0	0	5	3
082012	15:18:35	10034	Trial	IncongruentLeft	14	203	600	1	116	15:18:35	2250285	1	1	3	1	1	1	1	1	1	7	2	0	0	0	0	5	3
082012	15:18:35	10034	Trial	CongruentRight	14	205	592	1	116	15:18:35	2251271	1	1	3	1	1	1	1	1	1	7	2	0	0	0	0	5	3
082012	15:18:35	10034	Trial	IncongruentRight	14	205	537	1	116	15:18:35	2252217	1	1	3	1	1	1	1	1	1	7	2	0	0	0	0	5	3
082012	15:18:35	10034	Trial	CongruentLeft	14	203	481	1	116	15:18:35	2253164	1	1	3	1	1	1	1	1	1	7	2	0	0	0	0	5	3
082012	15:18:35	10034	Trial	IncongruentRight	14	205	442	1	116	15:18:35	2254123	1	1	3	1	1	1	1	1	1	7	2	0	0	0	0	5	3
082012	15:18:35	10034	Trial	CongruentRight	14	205	466	1	116	15:18:35	2255149	1	1	3	1	1	1	1	1	1	7	2	0	0	0	0	5	3
082012	15:18:35	10034	Trial	IncongruentLeft	14	203	538	1	116	15:18:35	2256215	1	1	3	1	1	1	1	1	1	7	2	0	0	0	0	5	3
082012	15:18:35	10034	Trial	CongruentLeft	14	203	579	1	116	15:18:35	2257255	1	1	3	1	1	1	1	1	1	7	2	0	0	0	0	5	3
082012	15:18:35	10034	Trial	CongruentRight	14	205	555	1	116	15:18:35	2258228	1	1	3	1	1	1	1	1	1	7	2	0	0	0	0	5	3
082012	15:18:35	10034	Trial	IncongruentLeft	14	203	500	1	116	15:18:35	2259174	1	1	3	1	1	1	1	1	1	7	2	0	0	0	0	5	3
082012	15:18:35	10034	Trial	CongruentRight	14	205	380	1	116	15:18:35	2260054	1	1	3	1	1	1	1	1	1	7	2	0	0	0	0	5	3
082012	15:18:35	10034	Trial	CongruentRight	14	205	567	1	116	15:18:35	2261253	1	1	3	1	1	1	1	1	1	7	2	0	0	0	0	5	3
082012	15:18:35	10034	Trial	IncongruentRight	14	0	737	0	116	15:18:35	2262413	1	1	3	1	1	1	1	1	1	7	2	0	0	0	0	5	3
082012	15:18:35	10034	Trial	CongruentLeft	14	203	647	1	116	15:18:35	2263333	1	1	3	1	1	1	1	1	1	7	2	0	0	0	0	5	3
082012	15:18:35	10034	Trial	IncongruentLeft	14	203	608	1	116	15:18:35	2264292	1	1	3	1	1	1	1	1	1	7	2	0	0	0	0	5	3
082012	15:18:35	10034	Trial	CongruentLeft	14	203	601	1	116	15:18:35	2265292	1	1	3	1	1	1	1	1	1	7	2	0	0	0	0	5	3
082012	15:18:35	10034	Trial	IncongruentRight	14	205	580	1	116	15:18:35	2266278	1	1	3	1	1	1	1	1	1	7	2	0	0	0	0	5	3
082012	15:18:35	10034	Trial	IncongruentLeft	14	203	412	1	116	15:18:35	2267118	1	1	3	1	1	1	1	1	1	7	2	0	0	0	0	5	3
082012	15:18:35	10034	Trial	CongruentRight	14	205	389	1	116	15:18:35	2268091	1	1	3	1	1	1	1	1	1	7	2	0	0	0	0	5	3
082012	15:18:35	10034	Trial	CongruentLeft	14	203	397	1	116	15:18:35	2269090	1	1	3	1	1	1	1	1	1	7	2	0	0	0	0	5	3
082012	15:18:35	10034	Trial	IncongruentLeft	14	203	533	1	116	15:18:35	2270237	1	1	3	1	1	1	1	1	1	7	2	0	0	0	0	5	3
082012	15:18:35	10034	Trial	CongruentLeft	14	203	558	1	116	15:18:35	2271263	1	1	3	1	1	1	1	1	1	7	2	0	0	0	0	5	3
082012	15:18:35	10034	Trial	IncongruentRight	14	205	550	1	116	15:18:35	2272249	1	1	3	1	1	1	1	1	1	7	2	0	0	0	0	5	3
082012	15:18:35	10034	Trial	CongruentRight	14	205	655	1	116	15:18:35	2273355	1	1	3	1	1	1	1	1	1	7	2	0	0	0	0	5	3
082012	15:18:35	10034	Trial	IncongruentLeft	14	203	422	1	116	15:18:35	2274115	1	1	3	1	1	1	1	1	1	7	2	0	0	0	0	5	3
082012	15:18:35	10034	Trial	CongruentLeft	14	203	607	1	116	15:18:35	2275301	1	1	3	1	1	1	1	1	1	7	2	0	0	0	0	5	3
082012	15:18:35	10034	Trial	IncongruentRight	14	205	455	1	116	15:18:35	2276154	1	1	3	1	1	1	1	1	1	7	2	0	0	0	0	5	3
082012	15:18:35	10034	Trial	IncongruentLeft	14	203	448	1	116	15:18:35	2277140	1	1	3	1	1	1	1	1	1	7	2	0	0	0	0	5	3
082012	15:18:35	10034	Trial	CongruentLeft	14	203	520	1	116	15:18:35	2278220	1	1	3	1	1	1	1	1	1	7	2	0	0	0	0	5	3
082012	15:18:35	10034	Trial	IncongruentLeft	14	203	496	1	116	15:18:35	2279193	1	1	3	1	1	1	1	1	1	7	2	0	0	0	0	5	3
082012	15:18:35	10034	Trial	CongruentRight	14	205	489	1	116	15:18:35	2280179	1	1	3	1	1	1	1	1	1	7	2	0	0	0	0	5	3
082012	15:18:35	10034	Trial	CongruentLeft	14	203	402	1	116	15:18:35	2281099	1	1	3	1	1	1	1	1	1	7	2	0	0	0	0	5	3
082012	15:18:35	10034	Trial	IncongruentRight	14	205	426	1	116	15:18:35	2282126	1	1	3	1	1	1	1	1	1	7	2	0	0	0	0	5	3
082012	15:18:35	10034	Trial	CongruentLeft	14	203	466	1	116	15:18:35	2283165	1	1	3	1	1	1	1	1	1	7	2	0	0	0	0	5	3
082012	15:18:35	10034	Trial	CongruentRight	14	205	411	1	116	15:18:35	2284098	1	1	3	1	1	1	1	1	1	7	2	0	0	0	0	5	3
082012	15:18:35	10034	Trial	IncongruentLeft	14	203	435	1	116	15:18:35	2285124	1	1	3	1	1	1	1	1	1	7	2	0	0	0	0	5	3
082012	15:18:35	10034	Trial750Eng	IncongruentRight750	15	0	487	0	116	15:18:35	2294600	1	1	3	1	1	1	1	1	1	7	2	0	0	0	0	5	3
082012	15:18:35	10034	Trial750Eng	IncongruentLeft750	15	205	13	0	116	15:18:35	2294893	1	1	3	1	1	1	1	1	1	7	2	0	0	0	0	5	3
082012	15:18:35	10034	Trial750Eng	CongruentRight750	15	205	388	1	116	15:18:35	2296026	1	1	3	1	1	1	1	1	1	7	2	0	0	0	0	5	3
082012	15:18:35	10034	Trial750Eng	IncongruentRight750	15	203	314	0	116	15:18:35	2296693	1	1	3	1	1	1	1	1	1	7	2	0	0	0	0	5	3
082012	15:18:35	10034	Trial750Eng	CongruentLeft750	15	203	400	1	116	15:18:35	2297532	1	1	3	1	1	1	1	1	1	7	2	0	0	0	0	5	3
082012	15:18:35	10034	Trial750Eng	CongruentRight750	15	205	357	1	116	15:18:35	2298225	1	1	3	1	1	1	1	1	1	7	2	0	0	0	0	5	3
082012	15:18:35	10034	Trial750Eng	IncongruentRight750	15	0	487	0	116	15:18:35	2299105	1	1	3	1	1	1	1	1	1	7	2	0	0	0	0	5	3
082012	15:18:35	10034	Trial750Eng	CongruentLeft750	15	203	467	1	116	15:18:35	2299851	1	1	3	1	1	1	1	1	1	7	2	0	0	0	0	5	3
082012	15:18:35	10034	Trial750Eng	IncongruentLeft750	15	0	487	0	116	15:18:35	2300611	1	1	3	1	1	1	1	1	1	7	2	0	0	0	0	5	3
082012	15:18:35	10034	Trial750Eng	IncongruentLeft750	15	0	487	0	116	15:18:35	2301371	1	1	3	1	1	1	1	1	1	7	2	0	0	0	0	5	3
082012	15:18:35	10034	Trial750Eng	CongruentRight750	15	0	487	0	116	15:18:35	2302130	1	1	3	1	1	1	1	1	1	7	2	0	0	0	0	5	3
082012	15:18:35	10034	Trial750Eng	IncongruentRight750	15	0	487	0	116	15:18:35	2302890	1	1	3	1	1	1	1	1	1	7	2	0	0	0	0	5	3
082012	15:18:35	10034	Trial750Eng	CongruentLeft750	15	203	458	1	116	15:18:35	2303623	1	1	3	1	1	1	1	1	1	7	2	0	0	0	0	5	3
082012	15:18:35	10034	Trial750Eng	CongruentRight750	15	205	402	1	116	15:18:35	2304330	1	1	3	1	1	1	1	1	1	7	2	0	0	0	0	5	3
082012	15:18:35	10034	Trial750Eng	IncongruentLeft750	15	203	424	1	116	15:18:35	2305089	1	1	3	1	1	1	1	1	1	7	2	0	0	0	0	5	3
082012	15:18:35	10034	Trial750Eng	IncongruentRight750	15	0	487	0	116	15:18:35	2305902	1	1	3	1	1	1	1	1	1	7	2	0	0	0	0	5	3
082012	15:18:35	10034	Trial750Eng	CongruentRight750	15	0	487	0	116	15:18:35	2306662	1	1	3	1	1	1	1	1	1	7	2	0	0	0	0	5	3
082012	15:18:35	10034	Trial750Eng	CongruentLeft750	15	0	487	0	116	15:18:35	2307422	1	1	3	1	1	1	1	1	1	7	2	0	0	0	0	5	3
082012	15:18:35	10034	Trial750Eng	CongruentRight750	15	205	390	1	116	15:18:35	2308088	1	1	3	1	1	1	1	1	1	7	2	0	0	0	0	5	3
082012	15:18:35	10034	Trial750Eng	IncongruentRight750	15	0	487	0	116	15:18:35	2308928	1	1	3	1	1	1	1	1	1	7	2	0	0	0	0	5	3
082012	15:18:35	10034	Trial750Eng	IncongruentLeft750	15	0	487	0	116	15:18:35	2309687	1	1	3	1	1	1	1	1	1	7	2	0	0	0	0	5	3
082012	15:18:35	10034	Trial750Eng	IncongruentLeft750	15	0	487	0	116	15:18:35	2310447	1	1	3	1	1	1	1	1	1	7	2	0	0	0	0	5	3
082012	15:18:35	10034	Trial750Eng	CongruentLeft750	15	203	117	1	116	15:18:35	2310833	1	1	3	1	1	1	1	1	1	7	2	0	0	0	0	5	3
082012	15:18:35	10034	Trial750Eng	CongruentRight750	15	205	413	1	116	15:18:35	2311900	1	1	3	1	1	1	1	1	1	7	2	0	0	0	0	5	3
082012	15:18:35	10034	Trial750Eng	IncongruentLeft750	15	203	451	1	116	15:18:35	2312673	1	1	3	1	1	1	1	1	1	7	2	0	0	0	0	5	3
082012	15:18:35	10034	Trial750Eng	IncongruentRight750	15	205	344	1	116	15:18:35	2313326	1	1	3	1	1	1	1	1	1	7	2	0	0	0	0	5	3
082012	15:18:35	10034	Trial750Eng	CongruentRight750	15	0	487	0	116	15:18:35	2314206	1	1	3	1	1	1	1	1	1	7	2	0	0	0	0	5	3
082012	15:18:35	10034	Trial750Eng	CongruentLeft750	15	0	487	0	116	15:18:35	2314965	1	1	3	1	1	1	1	1	1	7	2	0	0	0	0	5	3
082012	15:18:35	10034	Trial750Eng	IncongruentRight750	15	205	430	1	116	15:18:35	2315672	1	1	3	1	1	1	1	1	1	7	2	0	0	0	0	5	3
082012	15:18:35	10034	Trial750Eng	IncongruentLeft750	15	203	375	1	116	15:18:35	2316378	1	1	3	1	1	1	1	1	1	7	2	0	0	0	0	5	3
082012	15:18:35	10034	Trial750Eng	IncongruentRight750	15	205	348	1	116	15:18:35	2317098	1	1	3	1	1	1	1	1	1	7	2	0	0	0	0	5	3
082012	15:18:35	10034	Trial750Eng	CongruentRight750	15	0	487	0	116	15:18:35	2317977	1	1	3	1	1	1	1	1	1	7	2	0	0	0	0	5	3
082012	15:18:35	10034	Trial750Eng	IncongruentLeft750	15	203	474	1	116	15:18:35	2318724	1	1	3	1	1	1	1	1	1	7	2	0	0	0	0	5	3
082012	15:18:35	10034	Trial750Eng	CongruentLeft750	15	0	487	0	116	15:18:35	2319483	1	1	3	1	1	1	1	1	1	7	2	0	0	0	0	5	3
082012	15:18:35	10034	Trial750Eng	CongruentRight750	15	0	487	0	116	15:18:35	2320243	1	1	3	1	1	1	1	1	1	7	2	0	0	0	0	5	3
082012	15:18:35	10034	Trial750Eng	IncongruentLeft750	15	203	368	1	116	15:18:35	2320883	1	1	3	1	1	1	1	1	1	7	2	0	0	0	0	5	3
082012	15:18:35	10034	Trial750Eng	IncongruentRight750	15	205	409	1	116	15:18:35	2321683	1	1	3	1	1	1	1	1	1	7	2	0	0	0	0	5	3
082012	15:18:35	10034	Trial750Eng	IncongruentRight750	15	0	487	0	116	15:18:35	2322509	1	1	3	1	1	1	1	1	1	7	2	0	0	0	0	5	3
082012	15:18:35	10034	Trial750Eng	CongruentLeft750	15	203	391	1	116	15:18:35	2323175	1	1	3	1	1	1	1	1	1	7	2	0	0	0	0	5	3
082012	15:18:35	10034	Trial750Eng	IncongruentLeft750	15	205	383	0	116	15:18:35	2323922	1	1	3	1	1	1	1	1	1	7	2	0	0	0	0	5	3
082012	15:18:35	10034	Trial750Eng	CongruentRight750	15	0	487	0	116	15:18:35	2324775	1	1	3	1	1	1	1	1	1	7	2	0	0	0	0	5	3
082012	15:18:35	10034	Trial750Eng	CongruentLeft750	15	0	487	0	116	15:18:35	2325534	1	1	3	1	1	1	1	1	1	7	2	0	0	0	0	5	3
082012	15:18:35	10034	Trial750Eng	IncongruentRight750	15	203	5	0	116	15:18:35	2325815	1	1	3	1	1	1	1	1	1	7	2	0	0	0	0	5	3
082012	15:18:35	10034	Trial750Eng	CongruentRight750	15	0	487	0	116	15:18:35	2327040	1	1	3	1	1	1	1	1	1	7	2	0	0	0	0	5	3
082012	15:18:35	10034	Trial750Eng	IncongruentLeft750	15	0	487	0	116	15:18:35	2327800	1	1	3	1	1	1	1	1	1	7	2	0	0	0	0	5	3
082012	15:18:35	10034	Trial750Eng	CongruentLeft750	15	205	379	0	116	15:18:35	2328453	1	1	3	1	1	1	1	1	1	7	2	0	0	0	0	5	3
082012	15:18:35	10034	Trial750Eng	IncongruentLeft750	15	203	164	1	116	15:18:35	2329000	1	1	3	1	1	1	1	1	1	7	2	0	0	0	0	5	3
082012	15:18:35	10034	Trial750Eng	IncongruentRight750	15	0	487	0	116	15:18:35	2330066	1	1	3	1	1	1	1	1	1	7	2	0	0	0	0	5	3
082012	15:18:35	10034	Trial750Eng	CongruentRight750	15	0	487	0	116	15:18:35	2330826	1	1	3	1	1	1	1	1	1	7	2	0	0	0	0	5	3
082012	15:18:35	10034	Trial750Eng	CongruentLeft750	15	0	487	0	116	15:18:35	2331585	1	1	3	1	1	1	1	1	1	7	2	0	0	0	0	5	3
082012	15:18:35	10034	Trial750Eng	CongruentLeft750	15	0	487	0	116	15:18:35	2332345	1	1	3	1	1	1	1	1	1	7	2	0	0	0	0	5	3
082012	15:18:35	10034	Trial750Eng	IncongruentRight750	15	0	487	0	116	15:18:35	2333105	1	1	3	1	1	1	1	1	1	7	2	0	0	0	0	5	3
082012	15:18:35	10034	Trial750Eng	IncongruentLeft750	15	203	467	1	116	15:18:35	2333851	1	1	3	1	1	1	1	1	1	7	2	0	0	0	0	5	3
082012	15:18:35	10034	Trial750Eng	IncongruentRight750	15	205	411	1	116	15:18:35	2334557	1	1	3	1	1	1	1	1	1	7	2	0	0	0	0	5	3
082012	15:18:35	10034	Trial750Eng	CongruentRight750	15	0	487	0	116	15:18:35	2335370	1	1	3	1	1	1	1	1	1	7	2	0	0	0	0	5	3
082012	15:18:35	10034	Trial750Eng	CongruentRight750	15	0	487	0	116	15:18:35	2336130	1	1	3	1	1	1	1	1	1	7	2	0	0	0	0	5	3
082012	15:18:35	10034	Trial750Eng	IncongruentLeft750	15	203	433	1	116	15:18:35	2336836	1	1	3	1	1	1	1	1	1	7	2	0	0	0	0	5	3
082012	15:18:35	10034	Trial750Eng	CongruentLeft750	15	0	487	0	116	15:18:35	2337636	1	1	3	1	1	1	1	1	1	7	2	0	0	0	0	5	3
082012	15:18:35	10034	Trial750Eng	CongruentRight750	15	0	487	0	116	15:18:35	2338396	1	1	3	1	1	1	1	1	1	7	2	0	0	0	0	5	3
082012	15:18:35	10034	Trial750Eng	CongruentLeft750	15	203	471	1	116	15:18:35	2339142	1	1	3	1	1	1	1	1	1	7	2	0	0	0	0	5	3
082012	15:18:35	10034	Trial750Eng	IncongruentRight750	15	0	487	0	116	15:18:35	2339902	1	1	3	1	1	1	1	1	1	7	2	0	0	0	0	5	3
082012	15:18:35	10034	Trial750Eng	CongruentRight750	15	0	487	0	116	15:18:35	2340662	1	1	3	1	1	1	1	1	1	7	2	0	0	0	0	5	3
082012	15:18:35	10034	Trial750Eng	CongruentLeft750	15	203	445	1	116	15:18:35	2341381	1	1	3	1	1	1	1	1	1	7	2	0	0	0	0	5	3
082012	15:18:35	10034	Trial750Eng	IncongruentLeft750	15	0	487	0	116	15:18:35	2342168	1	1	3	1	1	1	1	1	1	7	2	0	0	0	0	5	3
082012	15:18:35	10034	Trial750Eng	IncongruentLeft750	15	0	487	0	116	15:18:35	2342927	1	1	3	1	1	1	1	1	1	7	2	0	0	0	0	5	3
082012	15:18:35	10034	Trial750Eng	CongruentRight750	15	0	487	0	116	15:18:35	2343687	1	1	3	1	1	1	1	1	1	7	2	0	0	0	0	5	3
082012	15:18:35	10034	Trial750Eng	IncongruentRight750	15	203	347	0	116	15:18:35	2344314	1	1	3	1	1	1	1	1	1	7	2	0	0	0	0	5	3
082012	15:18:35	10034	Trial750Eng	CongruentLeft750	15	0	487	0	116	15:18:35	2345193	1	1	3	1	1	1	1	1	1	7	2	0	0	0	0	5	3
082012	15:18:35	10034	Trial750Eng	IncongruentRight750	15	203	10	0	116	15:18:35	2345474	1	1	3	1	1	1	1	1	1	7	2	0	0	0	0	5	3
082012	15:18:35	10034	Trial750Eng	CongruentRight750	15	0	487	0	116	15:18:35	2346699	1	1	3	1	1	1	1	1	1	7	2	0	0	0	0	5	3
082012	15:18:35	10034	Trial750Eng	IncongruentLeft750	15	0	487	0	116	15:18:35	2347459	1	1	3	1	1	1	1	1	1	7	2	0	0	0	0	5	3
082012	15:18:35	10034	Trial750Eng	CongruentLeft750	15	203	464	1	116	15:18:35	2348205	1	1	3	1	1	1	1	1	1	7	2	0	0	0	0	5	3
082012	15:18:35	10034	Trial750Eng	CongruentRight750	15	0	487	0	116	15:18:35	2348965	1	1	3	1	1	1	1	1	1	7	2	0	0	0	0	5	3
082012	15:18:35	10034	Trial750Eng	IncongruentLeft750	15	203	382	1	116	15:18:35	2349618	1	1	3	1	1	1	1	1	1	7	2	0	0	0	0	5	3
082012	15:18:35	10034	Trial750Eng	CongruentRight750	15	205	374	1	116	15:18:35	2350378	1	1	3	1	1	1	1	1	1	7	2	0	0	0	0	5	3
082012	15:18:35	10034	Trial750Eng	CongruentRight750	15	0	487	0	116	15:18:35	2351231	1	1	3	1	1	1	1	1	1	7	2	0	0	0	0	5	3
082012	15:18:35	10034	Trial750Eng	IncongruentRight750	15	0	487	0	116	15:18:35	2351990	1	1	3	1	1	1	1	1	1	7	2	0	0	0	0	5	3
082012	15:18:35	10034	Trial750Eng	CongruentLeft750	15	0	487	0	116	15:18:35	2352750	1	1	3	1	1	1	1	1	1	7	2	0	0	0	0	5	3
082012	15:18:35	10034	Trial750Eng	IncongruentLeft750	15	0	487	0	116	15:18:35	2353510	1	1	3	1	1	1	1	1	1	7	2	0	0	0	0	5	3
082012	15:18:35	10034	Trial750Eng	CongruentLeft750	15	0	487	0	116	15:18:35	2354270	1	1	3	1	1	1	1	1	1	7	2	0	0	0	0	5	3
082012	15:18:35	10034	Trial750Eng	IncongruentRight750	15	0	487	0	116	15:18:35	2355029	1	1	3	1	1	1	1	1	1	7	2	0	0	0	0	5	3
082012	15:18:35	10034	Trial750Eng	IncongruentLeft750	15	203	414	1	116	15:18:35	2355722	1	1	3	1	1	1	1	1	1	7	2	0	0	0	0	5	3
082012	15:18:35	10034	Trial750Eng	CongruentRight750	15	205	406	1	116	15:18:35	2356469	1	1	3	1	1	1	1	1	1	7	2	0	0	0	0	5	3
082012	15:18:35	10034	Trial750Eng	CongruentLeft750	15	203	444	1	116	15:18:35	2357255	1	1	3	1	1	1	1	1	1	7	2	0	0	0	0	5	3
082012	15:18:35	10034	Trial750Eng	IncongruentLeft750	15	0	487	0	116	15:18:35	2358041	1	1	3	1	1	1	1	1	1	7	2	0	0	0	0	5	3
082012	15:18:35	10034	Trial750Eng	CongruentLeft750	15	0	487	0	116	15:18:35	2358801	1	1	3	1	1	1	1	1	1	7	2	0	0	0	0	5	3
082012	15:18:35	10034	Trial750Eng	IncongruentRight750	15	0	487	0	116	15:18:35	2359561	1	1	3	1	1	1	1	1	1	7	2	0	0	0	0	5	3
082012	15:18:35	10034	Trial750Eng	CongruentRight750	15	203	394	0	116	15:18:35	2360227	1	1	3	1	1	1	1	1	1	7	2	0	0	0	0	5	3
082012	15:18:35	10034	Trial750Eng	IncongruentLeft750	15	203	339	1	116	15:18:35	2360933	1	1	3	1	1	1	1	1	1	7	2	0	0	0	0	5	3
082012	15:18:35	10034	Trial750Eng	CongruentLeft750	15	0	487	0	116	15:18:35	2361826	1	1	3	1	1	1	1	1	1	7	2	0	0	0	0	5	3
082012	15:18:35	10034	Trial750Eng	IncongruentRight750	15	0	487	0	116	15:18:35	2362586	1	1	3	1	1	1	1	1	1	7	2	0	0	0	0	5	3
082012	15:18:35	10034	Trial750Eng	IncongruentLeft750	15	203	457	1	116	15:18:35	2363319	1	1	3	1	1	1	1	1	1	7	2	0	0	0	0	5	3
082012	15:18:35	10034	Trial750Eng	CongruentLeft750	15	0	487	0	116	15:18:35	2364092	1	1	3	1	1	1	1	1	1	7	2	0	0	0	0	5	3
082012	15:18:35	10034	Trial750Eng	IncongruentLeft750	15	0	487	0	116	15:18:35	2364852	1	1	3	1	1	1	1	1	1	7	2	0	0	0	0	5	3
082012	15:18:35	10034	Trial750Eng	CongruentRight750	15	0	487	0	116	15:18:35	2365612	1	1	3	1	1	1	1	1	1	7	2	0	0	0	0	5	3
082012	15:18:35	10034	Trial750Eng	CongruentLeft750	15	203	359	1	116	15:18:35	2366251	1	1	3	1	1	1	1	1	1	7	2	0	0	0	0	5	3
082012	15:18:35	10034	Trial750Eng	IncongruentRight750	15	0	487	0	116	15:18:35	2367118	1	1	3	1	1	1	1	1	1	7	2	0	0	0	0	5	3
082012	15:18:35	10034	Trial750Eng	CongruentLeft750	15	203	437	1	116	15:18:35	2367824	1	1	3	1	1	1	1	1	1	7	2	0	0	0	0	5	3
082012	15:18:35	10034	Trial750Eng	CongruentRight750	15	205	381	1	116	15:18:35	2368530	1	1	3	1	1	1	1	1	1	7	2	0	0	0	0	5	3
082012	15:18:35	10034	Trial750Eng	IncongruentLeft750	15	203	355	1	116	15:18:35	2369250	1	1	3	1	1	1	1	1	1	7	2	0	0	0	0	5	3
082012	15:18:35	10034	WordsAbsEngBaseline	PAbsEngBaseline1	16	Abs1	9009	0	116	15:18:35	2394160	1	1	3	1	1	1	1	1	1	7	2	0	0	0	0	5	3
082012	15:18:35	10034	WordsAbsEngBaseline	AbsEngBaseline1	16	Abs1	5159	0	116	15:18:35	2399358	1	1	3	1	1	1	1	1	1	7	2	1	0	0	0	5	3
082012	15:18:35	10034	WordsAbsEngBaseline	AbsEngBaseline2	16	Abs2	19233	0	116	15:18:35	2418630	1	1	3	1	1	1	1	1	1	7	2	1	0	0	0	5	3
082012	15:18:35	10034	WordsAbsEngBaseline	AbsEngBaseline3	16	Abs2	23584	0	116	15:18:35	2442247	1	1	3	1	1	1	1	1	1	7	2	1	0	0	0	5	3
082012	15:18:35	10034	Trial2BackEngS	NS	17	0	1000	1	116	15:18:35	2486789	1	1	3	1	1	1	1	1	1	7	2	1	0	0	0	5	3
082012	15:18:35	10034	Trial2BackEngS	NS	17	0	1000	1	116	15:18:35	2488308	1	1	3	1	1	1	1	1	1	7	2	1	0	0	0	5	3
082012	15:18:35	10034	Trial2BackEngS	NS	17	0	1000	1	116	15:18:35	2489828	1	1	3	1	1	1	1	1	1	7	2	1	0	0	0	5	3
082012	15:18:35	10034	Trial2BackEngS	YS	17	57	464	1	116	15:18:35	2490814	1	1	3	1	1	1	1	1	1	7	2	1	0	0	0	5	3
082012	15:18:35	10034	Trial2BackEngS	NS	17	0	1000	1	116	15:18:35	2492853	1	1	3	1	1	1	1	1	1	7	2	1	0	0	0	5	3
082012	15:18:35	10034	Trial2BackEngS	NS	17	0	1000	1	116	15:18:35	2494373	1	1	3	1	1	1	1	1	1	7	2	1	0	0	0	5	3
082012	15:18:35	10034	Trial2BackEngS	NS	17	0	1000	1	116	15:18:35	2495892	1	1	3	1	1	1	1	1	1	7	2	1	0	0	0	5	3
082012	15:18:35	10034	Trial2BackEngS	NS	17	0	1000	1	116	15:18:35	2497411	1	1	3	1	1	1	1	1	1	7	2	1	0	0	0	5	3
082012	15:18:35	10034	Trial2BackEngS	YS	17	57	688	1	116	15:18:35	2498624	1	1	3	1	1	1	1	1	1	7	2	1	0	0	0	5	3
082012	15:18:35	10034	Trial2BackEngS	NS	17	0	1000	1	116	15:18:35	2500437	1	1	3	1	1	1	1	1	1	7	2	1	0	0	0	5	3
082012	15:18:35	10034	Trial2BackEngS	NS	17	0	1000	1	116	15:18:35	2501956	1	1	3	1	1	1	1	1	1	7	2	1	0	0	0	5	3
082012	15:18:35	10034	Trial2BackEngS	YS	17	0	1000	0	116	15:18:35	2503476	1	1	3	1	1	1	1	1	1	7	2	1	0	0	0	5	3
082012	15:18:35	10034	Trial2BackEngS	NS	17	0	1000	1	116	15:18:35	2504995	1	1	3	1	1	1	1	1	1	7	2	1	0	0	0	5	3
082012	15:18:35	10034	Trial2BackEngS	NS	17	0	1000	1	116	15:18:35	2506514	1	1	3	1	1	1	1	1	1	7	2	1	0	0	0	5	3
082012	15:18:35	10034	Trial2BackEngS	NS	17	0	1000	1	116	15:18:35	2508034	1	1	3	1	1	1	1	1	1	7	2	1	0	0	0	5	3
082012	15:18:35	10034	Trial2BackEngS	YS	17	57	497	1	116	15:18:35	2509060	1	1	3	1	1	1	1	1	1	7	2	1	0	0	0	5	3
082012	15:18:35	10034	Trial2BackEngS	NS	17	0	1000	1	116	15:18:35	2511059	1	1	3	1	1	1	1	1	1	7	2	1	0	0	0	5	3
082012	15:18:35	10034	Trial2BackEngS	NS	17	0	1000	1	116	15:18:35	2512579	1	1	3	1	1	1	1	1	1	7	2	1	0	0	0	5	3
082012	15:18:35	10034	Trial2BackEngS	NS	17	0	1000	1	116	15:18:35	2514098	1	1	3	1	1	1	1	1	1	7	2	1	0	0	0	5	3
082012	15:18:35	10034	Trial2BackEngS	NS	17	0	1000	1	116	15:18:35	2515617	1	1	3	1	1	1	1	1	1	7	2	1	0	0	0	5	3
082012	15:18:35	10034	Trial2BackEngS	YS	17	57	594	1	116	15:18:35	2516737	1	1	3	1	1	1	1	1	1	7	2	1	0	0	0	5	3
082012	15:18:35	10034	Trial2BackEngS	NS	17	0	1000	1	116	15:18:35	2518643	1	1	3	1	1	1	1	1	1	7	2	1	0	0	0	5	3
082012	15:18:35	10034	Trial2BackEngS	NS	17	0	1000	1	116	15:18:35	2520162	1	1	3	1	1	1	1	1	1	7	2	1	0	0	0	5	3
082012	15:18:35	10034	Trial2BackEngS	NS	17	0	1000	1	116	15:18:35	2521682	1	1	3	1	1	1	1	1	1	7	2	1	0	0	0	5	3
082012	15:18:35	10034	Trial2BackEngS	NS	17	57	721	0	116	15:18:35	2522934	1	1	3	1	1	1	1	1	1	7	2	1	0	0	0	5	3
082012	15:18:35	10034	Trial2BackEngS	NS	17	0	1000	1	116	15:18:35	2524707	1	1	3	1	1	1	1	1	1	7	2	1	0	0	0	5	3
082012	15:18:35	10034	Trial2BackEngS	NS	17	0	1000	1	116	15:18:35	2526226	1	1	3	1	1	1	1	1	1	7	2	1	0	0	0	5	3
082012	15:18:35	10034	Trial2BackEngS	NS	17	0	1000	1	116	15:18:35	2527746	1	1	3	1	1	1	1	1	1	7	2	1	0	0	0	5	3
082012	15:18:35	10034	Trial2BackEngS	NS	17	0	1000	1	116	15:18:35	2529265	1	1	3	1	1	1	1	1	1	7	2	1	0	0	0	5	3
082012	15:18:35	10034	Trial2BackEngS	NS	17	0	1000	1	116	15:18:35	2530785	1	1	3	1	1	1	1	1	1	7	2	1	0	0	0	5	3
082012	15:18:35	10034	Trial2BackEngS	NS	17	0	1000	1	116	15:18:35	2532304	1	1	3	1	1	1	1	1	1	7	2	1	0	0	0	5	3
082012	15:18:35	10034	Trial2BackEngS	YS	17	57	627	1	116	15:18:35	2533464	1	1	3	1	1	1	1	1	1	7	2	1	0	0	0	5	3
082012	15:18:35	10034	Trial2BackEngS	NS	17	0	1000	1	116	15:18:35	2535329	1	1	3	1	1	1	1	1	1	7	2	1	0	0	0	5	3
082012	15:18:35	10034	Trial2BackEngS	NS	17	0	1000	1	116	15:18:35	2536849	1	1	3	1	1	1	1	1	1	7	2	1	0	0	0	5	3
082012	15:18:35	10034	Trial2BackEngS	NS	17	0	1000	1	116	15:18:35	2538368	1	1	3	1	1	1	1	1	1	7	2	1	0	0	0	5	3
082012	15:18:35	10034	Trial2BackEngS	YS	17	57	626	1	116	15:18:35	2539528	1	1	3	1	1	1	1	1	1	7	2	1	0	0	0	5	3
082012	15:18:35	10034	Trial2BackEngS	NS	17	0	1000	1	116	15:18:35	2541394	1	1	3	1	1	1	1	1	1	7	2	1	0	0	0	5	3
082012	15:18:35	10034	Trial2BackEngS	NS	17	0	1000	1	116	15:18:35	2542913	1	1	3	1	1	1	1	1	1	7	2	1	0	0	0	5	3
082012	15:18:35	10034	Trial2BackEngS	NS	17	0	1000	1	116	15:18:35	2544432	1	1	3	1	1	1	1	1	1	7	2	1	0	0	0	5	3
082012	15:18:35	10034	Trial2BackEngS	NS	17	0	1000	1	116	15:18:35	2545952	1	1	3	1	1	1	1	1	1	7	2	1	0	0	0	5	3
082012	15:18:35	10034	Trial2BackEngS	NS	17	0	1000	1	116	15:18:35	2547471	1	1	3	1	1	1	1	1	1	7	2	1	0	0	0	5	3
082012	15:18:35	10034	Trial2BackEngS	NS	17	0	1000	1	116	15:18:35	2548991	1	1	3	1	1	1	1	1	1	7	2	1	0	0	0	5	3
082012	15:18:35	10034	Trial2BackEngS	NS	17	0	1000	1	116	15:18:35	2550510	1	1	3	1	1	1	1	1	1	7	2	1	0	0	0	5	3
082012	15:18:35	10034	Trial2BackEngS	YS	17	0	1000	0	116	15:18:35	2552029	1	1	3	1	1	1	1	1	1	7	2	1	0	0	0	5	3
082012	15:18:35	10034	Trial2BackEngS	NS	17	0	1000	1	116	15:18:35	2553549	1	1	3	1	1	1	1	1	1	7	2	1	0	0	0	5	3
082012	15:18:35	10034	Trial2BackEngS	NS	17	0	1000	1	116	15:18:35	2555068	1	1	3	1	1	1	1	1	1	7	2	1	0	0	0	5	3
082012	15:18:35	10034	Trial2BackEngS	NS	17	0	1000	1	116	15:18:35	2556587	1	1	3	1	1	1	1	1	1	7	2	1	0	0	0	5	3
082012	15:18:35	10034	Trial2BackEngS	NS	17	0	1000	1	116	15:18:35	2558107	1	1	3	1	1	1	1	1	1	7	2	1	0	0	0	5	3
082012	15:18:35	10034	Trial2BackEngS	YS	17	57	567	1	116	15:18:35	2559200	1	1	3	1	1	1	1	1	1	7	2	1	0	0	0	5	3
082012	15:18:35	10034	Trial2BackEngS	NS	17	0	1000	1	116	15:18:35	2561132	1	1	3	1	1	1	1	1	1	7	2	1	0	0	0	5	3
082012	15:18:35	10034	Trial2BackEngS	NS	17	0	1000	1	116	15:18:35	2562652	1	1	3	1	1	1	1	1	1	7	2	1	0	0	0	5	3
082012	15:18:35	10034	Trial2BackEngS	NS	17	0	1000	1	116	15:18:35	2564171	1	1	3	1	1	1	1	1	1	7	2	1	0	0	0	5	3
082012	15:18:35	10034	Trial2BackEngS	NS	17	0	1000	1	116	15:18:35	2565690	1	1	3	1	1	1	1	1	1	7	2	1	0	0	0	5	3
082012	15:18:35	10034	Trial2BackEngS	NS	17	0	1000	1	116	15:18:35	2567210	1	1	3	1	1	1	1	1	1	7	2	1	0	0	0	5	3
082012	15:18:35	10034	Trial2BackEngS	NS	17	0	1000	1	116	15:18:35	2568729	1	1	3	1	1	1	1	1	1	7	2	1	0	0	0	5	3
082012	15:18:35	10034	Trial2BackEngS	YS	17	57	728	1	116	15:18:35	2569982	1	1	3	1	1	1	1	1	1	7	2	1	0	0	0	5	3
082012	15:18:35	10034	Trial2BackEngS	NS	17	0	1000	1	116	15:18:35	2571755	1	1	3	1	1	1	1	1	1	7	2	1	0	0	0	5	3
082012	15:18:35	10034	Trial2BackEngS	NS	17	0	1000	1	116	15:18:35	2573274	1	1	3	1	1	1	1	1	1	7	2	1	0	0	0	5	3
082012	15:18:35	10034	Trial2BackEngS	NS	17	0	1000	1	116	15:18:35	2574794	1	1	3	1	1	1	1	1	1	7	2	1	0	0	0	5	3
082012	15:18:35	10034	Trial2BackEngS	NS	17	0	1000	1	116	15:18:35	2576313	1	1	3	1	1	1	1	1	1	7	2	1	0	0	0	5	3
082012	15:18:35	10034	Trial2BackEngS	NS	17	0	1000	1	116	15:18:35	2577832	1	1	3	1	1	1	1	1	1	7	2	1	0	0	0	5	3
082012	15:18:35	10034	Trial2BackEngS	NS	17	0	1000	1	116	15:18:35	2579352	1	1	3	1	1	1	1	1	1	7	2	1	0	0	0	5	3
082012	15:18:35	10034	Trial2BackEngS	NS	17	57	842	0	116	15:18:35	2580724	1	1	3	1	1	1	1	1	1	7	2	1	0	0	0	5	3
082012	15:18:35	10034	Trial2BackEngS	YS	17	57	951	1	116	15:18:35	2582337	1	1	3	1	1	1	1	1	1	7	2	1	0	0	0	5	3
082012	15:18:35	10034	Trial2BackEngS	NS	17	0	1000	1	116	15:18:35	2583870	1	1	3	1	1	1	1	1	1	7	2	1	0	0	0	5	3
082012	15:18:35	10034	Trial2BackEngS	NS	17	0	1000	1	116	15:18:35	2585389	1	1	3	1	1	1	1	1	1	7	2	1	0	0	0	5	3
082012	15:18:35	10034	Trial2BackEngS	NS	17	57	660	0	116	15:18:35	2586575	1	1	3	1	1	1	1	1	1	7	2	1	0	0	0	5	3
082012	15:18:35	10034	Trial2BackEngS	NS	17	0	1000	1	116	15:18:35	2588415	1	1	3	1	1	1	1	1	1	7	2	1	0	0	0	5	3
082012	15:18:35	10034	Trial2BackEngS	YS	17	0	1000	0	116	15:18:35	2589934	1	1	3	1	1	1	1	1	1	7	2	1	0	0	0	5	3
082012	15:18:35	10034	Trial2BackEngS	NS	17	0	1000	1	116	15:18:35	2591453	1	1	3	1	1	1	1	1	1	7	2	1	0	0	0	5	3
082012	15:18:35	10034	Trial2BackEngS	NS	17	57	548	0	116	15:18:35	2592533	1	1	3	1	1	1	1	1	1	7	2	1	0	0	0	5	3
082012	15:18:35	10034	Trial2BackEngS	YS	17	0	1000	0	116	15:18:35	2594479	1	1	3	1	1	1	1	1	1	7	2	1	0	0	0	5	3
082012	15:18:35	10034	Trial2BackEngS	NS	17	0	1000	1	116	15:18:35	2595998	1	1	3	1	1	1	1	1	1	7	2	1	0	0	0	5	3
082012	15:18:35	10034	Trial2BackEngS	NS	17	0	1000	1	116	15:18:35	2597518	1	1	3	1	1	1	1	1	1	7	2	1	0	0	0	5	3
082012	15:18:35	10034	Trial2BackEngS	NS	17	0	1000	1	116	15:18:35	2599037	1	1	3	1	1	1	1	1	1	7	2	1	0	0	0	5	3
082012	15:18:35	10034	Trial2BackEngS	NS	17	0	1000	1	116	15:18:35	2600556	1	1	3	1	1	1	1	1	1	7	2	1	0	0	0	5	3
082012	15:18:35	10034	Trial2BackEngS	NS	17	0	1000	1	116	15:18:35	2602076	1	1	3	1	1	1	1	1	1	7	2	1	0	0	0	5	3
082012	15:18:35	10034	Trial2BackEngS	NS	17	0	1000	1	116	15:18:35	2603595	1	1	3	1	1	1	1	1	1	7	2	1	0	0	0	5	3
082012	15:18:35	10034	Trial2BackEngS	YS	17	57	614	1	116	15:18:35	2604741	1	1	3	1	1	1	1	1	1	7	2	1	0	0	0	5	3
082012	15:18:35	10034	Trial2BackEngS	NS	17	0	1000	1	116	15:18:35	2606621	1	1	3	1	1	1	1	1	1	7	2	1	0	0	0	5	3
082012	15:18:35	10034	Trial2BackEngS	NS	17	0	1000	1	116	15:18:35	2608140	1	1	3	1	1	1	1	1	1	7	2	1	0	0	0	5	3
082012	15:18:35	10034	Trial2BackEngS	NS	17	0	1000	1	116	15:18:35	2609659	1	1	3	1	1	1	1	1	1	7	2	1	0	0	0	5	3
082012	15:18:35	10034	Trial2BackEngS	NS	17	0	1000	1	116	15:18:35	2611179	1	1	3	1	1	1	1	1	1	7	2	1	0	0	0	5	3
082012	15:18:35	10034	Trial2BackEngS	YS	17	57	630	1	116	15:18:35	2612338	1	1	3	1	1	1	1	1	1	7	2	1	0	0	0	5	3
082012	15:18:35	10034	Trial2BackEngS	NS	17	0	1000	1	116	15:18:35	2614204	1	1	3	1	1	1	1	1	1	7	2	1	0	0	0	5	3
082012	15:18:35	10034	Trial2BackEngS	NS	17	0	1000	1	116	15:18:35	2615724	1	1	3	1	1	1	1	1	1	7	2	1	0	0	0	5	3
082012	15:18:35	10034	Trial2BackEngS	NS	17	0	1000	1	116	15:18:35	2617243	1	1	3	1	1	1	1	1	1	7	2	1	0	0	0	5	3
082012	15:18:35	10034	Trial2BackEngS	NS	17	57	805	0	116	15:18:35	2618576	1	1	3	1	1	1	1	1	1	7	2	1	0	0	0	5	3
082012	15:18:35	10034	Trial2BackEngS	YS	17	0	1000	0	116	15:18:35	2620269	1	1	3	1	1	1	1	1	1	7	2	1	0	0	0	5	3
082012	15:18:35	10034	Trial2BackEngS	NS	17	0	1000	1	116	15:18:35	2621788	1	1	3	1	1	1	1	1	1	7	2	1	0	0	0	5	3
082012	15:18:35	10034	Trial2BackEngS	NS	17	0	1000	1	116	15:18:35	2623307	1	1	3	1	1	1	1	1	1	7	2	1	0	0	0	5	3
082012	15:18:35	10034	Trial2BackEngS	YS	17	57	613	1	116	15:18:35	2624453	1	1	3	1	1	1	1	1	1	7	2	1	0	0	0	5	3
082012	15:18:35	10034	Trial2BackEngS	NS	17	0	1000	1	116	15:18:35	2626333	1	1	3	1	1	1	1	1	1	7	2	1	0	0	0	5	3
082012	15:18:35	10034	Trial2BackEngS	NS	17	0	1000	1	116	15:18:35	2627852	1	1	3	1	1	1	1	1	1	7	2	1	0	0	0	5	3
082012	15:18:35	10034	Trial2BackEngS	NS	17	0	1000	1	116	15:18:35	2629371	1	1	3	1	1	1	1	1	1	7	2	1	0	0	0	5	3
082012	15:18:35	10034	Trial2BackEngS	NS	17	57	645	0	116	15:18:35	2630544	1	1	3	1	1	1	1	1	1	7	2	1	0	0	0	5	3
082012	15:18:35	10034	Trial2BackEngS	NS	17	0	1000	1	116	15:18:35	2632397	1	1	3	1	1	1	1	1	1	7	2	1	0	0	0	5	3
082012	15:18:35	10034	Trial2BackEngS	NS	17	0	1000	1	116	15:18:35	2633916	1	1	3	1	1	1	1	1	1	7	2	1	0	0	0	5	3
082012	15:18:35	10034	Trial2BackEngS	NS	17	0	1000	1	116	15:18:35	2635436	1	1	3	1	1	1	1	1	1	7	2	1	0	0	0	5	3
082012	15:18:35	10034	Trial2BackEngS	NS	17	0	1000	1	116	15:18:35	2636955	1	1	3	1	1	1	1	1	1	7	2	1	0	0	0	5	3
082012	15:18:35	10034	Trial2BackEngS	YS	17	57	261	1	116	15:18:35	2637741	1	1	3	1	1	1	1	1	1	7	2	1	0	0	0	5	3
082012	15:18:35	10034	Trial2BackEngS	NS	17	0	1000	1	116	15:18:35	2639981	1	1	3	1	1	1	1	1	1	7	2	1	0	0	0	5	3
082012	15:18:35	10034	Trial2BackEngS	NS	17	0	1000	1	116	15:18:35	2641500	1	1	3	1	1	1	1	1	1	7	2	1	0	0	0	5	3
082012	15:18:35	10034	Trial2BackEngS	NS	17	0	1000	1	116	15:18:35	2643019	1	1	3	1	1	1	1	1	1	7	2	1	0	0	0	5	3
082012	15:18:35	10034	Trial2BackEngS	NS	17	0	1000	1	116	15:18:35	2644539	1	1	3	1	1	1	1	1	1	7	2	1	0	0	0	5	3
082012	15:18:35	10034	Trial2BackEngS	NS	17	0	1000	1	116	15:18:35	2646058	1	1	3	1	1	1	1	1	1	7	2	1	0	0	0	5	3
082012	15:18:35	10034	Trial2BackEngS	NS	17	0	1000	1	116	15:18:35	2647577	1	1	3	1	1	1	1	1	1	7	2	1	0	0	0	5	3
082012	15:18:35	10034	Trial2BackEngS	NS	17	0	1000	1	116	15:18:35	2649097	1	1	3	1	1	1	1	1	1	7	2	1	0	0	0	5	3
082012	15:18:35	10034	Trial2BackEngS	YS	17	57	599	1	116	15:18:35	2650230	1	1	3	1	1	1	1	1	1	7	2	1	0	0	0	5	3
082012	15:18:35	10034	Trial2BackEngS	NS	17	0	1000	1	116	15:18:35	2652122	1	1	3	1	1	1	1	1	1	7	2	1	0	0	0	5	3
082012	15:18:35	10034	Trial2BackEngS	NS	17	0	1000	1	116	15:18:35	2653642	1	1	3	1	1	1	1	1	1	7	2	1	0	0	0	5	3
082012	15:18:35	10034	Trial2BackEngS	NS	17	0	1000	1	116	15:18:35	2655161	1	1	3	1	1	1	1	1	1	7	2	1	0	0	0	5	3
082012	15:18:35	10034	Trial2BackEngS	NS	17	0	1000	1	116	15:18:35	2656680	1	1	3	1	1	1	1	1	1	7	2	1	0	0	0	5	3
082012	15:18:35	10034	Trial2BackEngS	NS	17	0	1000	1	116	15:18:35	2658200	1	1	3	1	1	1	1	1	1	7	2	1	0	0	0	5	3
082012	15:18:35	10034	Trial2BackEngS	NS	17	0	1000	1	116	15:18:35	2659719	1	1	3	1	1	1	1	1	1	7	2	1	0	0	0	5	3
082012	15:18:35	10034	Trial2BackEngS	NS	17	0	1000	1	116	15:18:35	2661239	1	1	3	1	1	1	1	1	1	7	2	1	0	0	0	5	3
082012	15:18:35	10034	Trial2BackEngS	NS	17	0	1000	1	116	15:18:35	2662758	1	1	3	1	1	1	1	1	1	7	2	1	0	0	0	5	3
082012	15:18:35	10034	Trial2BackEngS	NS	17	0	1000	1	116	15:18:35	2664277	1	1	3	1	1	1	1	1	1	7	2	1	0	0	0	5	3
082012	15:18:35	10034	Trial2BackEngS	YS	17	0	1000	0	116	15:18:35	2665797	1	1	3	1	1	1	1	1	1	7	2	1	0	0	0	5	3
082012	15:18:35	10034	Trial2BackEngS	NS	17	0	1000	1	116	15:18:35	2667316	1	1	3	1	1	1	1	1	1	7	2	1	0	0	0	5	3
082012	15:18:35	10034	ClockEngBaseline	ClockEngBaseline	19	Clock1	65288	0	116	15:18:35	2732717	1	1	3	1	1	1	1	1	1	7	2	1	1	0	0	5	3
082012	15:18:35	10034	ClockEngBaseline	ClockEngBaseline	19	Clock11	603	0	116	15:18:35	2733356	1	1	3	1	1	1	1	1	1	7	2	1	1	1	0	5	3
082012	15:18:35	10034	ClockEngBaseline	ClockEngBaseline	19	Clock222	515	0	116	15:18:35	2733916	1	1	3	1	1	1	1	1	1	7	2	1	1	1	0	5	3
082012	15:18:35	10034	ClockEngBaseline	ClockEngBaseline	19	Clockdone	739	0	116	15:18:35	2734689	1	1	3	1	1	1	1	1	1	7	2	1	1	1	0	5	3
082012	15:18:35	10034	FASEngVFBaseline	StopEngVFBaseline	20	12	4768	0	116	15:18:35	2849978	1	1	3	1	1	1	1	1	1	7	2	1	1	1	0	5	3
