date	time	subject	blockcode	trialcode	values.TaskNumber	response	latency	correct	values.Score	script.starttime	script.elapsedtime	values.ScoreS7	values.Word1	values.Word2	values.Word3	values.Word4	values.Word5	values.Word6	values.Word7	values.Word8	values.DigitSpanFwrd	values.DigitSpanBack	values.ScoreAbs	values.Contour	values.Numbers	values.Hands	values.corsiblockspanFwrd	values.corsiblockspanRev
091412	12:01:26	10042	Language	Language	0	French	3726	0	0	12:01:26	4197	0	0	0	0	0	0	0	0	0	0	0	0	0	0	0	0	0
091412	12:01:26	10042	Session	Session	0	Baseline	898	0	0	12:01:26	5169	0	0	0	0	0	0	0	0	0	0	0	0	0	0	0	0	0
091412	12:01:26	10042	HandFr	HandFr	0	RightFr	557046	0	0	12:01:26	562296	0	0	0	0	0	0	0	0	0	0	0	0	0	0	0	0	0
091412	12:01:26	10042	AudioCheckFr	WordsFr	0	0	0	0	0	12:01:26	587151	0	0	0	0	0	0	0	0	0	0	0	0	0	0	0	0	0
091412	12:01:26	10042	CubeFr	CubeFr	1	1Cube	38670	0	0	12:01:26	628336	0	0	0	0	0	0	0	0	0	0	0	0	0	0	0	0	0
091412	12:01:26	10042	pm.simpleFrRight	blank.simpleFr	2	0	2087	1	0	12:01:26	669466	0	0	0	0	0	0	0	0	0	0	0	0	0	0	0	0	0
091412	12:01:26	10042	pm.simpleFrRight	pm.simpleFr	2	57	1951	0	0	12:01:26	671452	0	0	0	0	0	0	0	0	0	0	0	0	0	0	0	0	0
091412	12:01:26	10042	pm.simpleFrRight	blank.simpleFr	2	0	1887	1	0	12:01:26	673371	0	0	0	0	0	0	0	0	0	0	0	0	0	0	0	0	0
091412	12:01:26	10042	pm.simpleFrRight	pm.simpleFr	2	57	1566	0	0	12:01:26	674970	0	0	0	0	0	0	0	0	0	0	0	0	0	0	0	0	0
091412	12:01:26	10042	pm.simpleFrRight	blank.simpleFr	2	0	2487	1	0	12:01:26	677489	0	0	0	0	0	0	0	0	0	0	0	0	0	0	0	0	0
091412	12:01:26	10042	pm.simpleFrRight	pm.simpleFr	2	57	904	0	0	12:01:26	678436	0	0	0	0	0	0	0	0	0	0	0	0	0	0	0	0	0
091412	12:01:26	10042	pm.simpleFrRight	blank.simpleFr	2	0	1687	1	0	12:01:26	680155	0	0	0	0	0	0	0	0	0	0	0	0	0	0	0	0	0
091412	12:01:26	10042	pm.simpleFrRight	pm.simpleFr	2	57	815	0	0	12:01:26	681008	0	0	0	0	0	0	0	0	0	0	0	0	0	0	0	0	0
091412	12:01:26	10042	pm.simpleFrRight	blank.simpleFr	2	0	1587	1	0	12:01:26	682621	0	0	0	0	0	0	0	0	0	0	0	0	0	0	0	0	0
091412	12:01:26	10042	pm.simpleFrRight	pm.simpleFr	2	57	381	0	0	12:01:26	683034	0	0	0	0	0	0	0	0	0	0	0	0	0	0	0	0	0
091412	12:01:26	10042	pm.simpleFrRight	blank.simpleFr	2	0	2187	1	0	12:01:26	685246	0	0	0	0	0	0	0	0	0	0	0	0	0	0	0	0	0
091412	12:01:26	10042	pm.simpleFrRight	pm.simpleFr	2	57	459	0	0	12:01:26	685740	0	0	0	0	0	0	0	0	0	0	0	0	0	0	0	0	0
091412	12:01:26	10042	pm.simpleFrRight	blank.simpleFr	2	0	1787	1	0	12:01:26	687552	0	0	0	0	0	0	0	0	0	0	0	0	0	0	0	0	0
091412	12:01:26	10042	pm.simpleFrRight	pm.simpleFr	2	57	458	0	0	12:01:26	688045	0	0	0	0	0	0	0	0	0	0	0	0	0	0	0	0	0
091412	12:01:26	10042	pm.simpleFrRight	blank.simpleFr	2	0	1487	1	0	12:01:26	689565	0	0	0	0	0	0	0	0	0	0	0	0	0	0	0	0	0
091412	12:01:26	10042	pm.simpleFrRight	pm.simpleFr	2	57	509	0	0	12:01:26	690111	0	0	0	0	0	0	0	0	0	0	0	0	0	0	0	0	0
091412	12:01:26	10042	pm.simpleFrRight	blank.simpleFr	2	0	2387	1	0	12:01:26	692524	0	0	0	0	0	0	0	0	0	0	0	0	0	0	0	0	0
091412	12:01:26	10042	pm.simpleFrRight	pm.simpleFr	2	57	446	0	0	12:01:26	693003	0	0	0	0	0	0	0	0	0	0	0	0	0	0	0	0	0
091412	12:01:26	10042	pm.simpleFrRight	blank.simpleFr	2	0	1987	1	0	12:01:26	695016	0	0	0	0	0	0	0	0	0	0	0	0	0	0	0	0	0
091412	12:01:26	10042	pm.simpleFrRight	pm.simpleFr	2	57	546	0	0	12:01:26	695602	0	0	0	0	0	0	0	0	0	0	0	0	0	0	0	0	0
091412	12:01:26	10042	pm.simpleFrRight	blank.simpleFr	2	0	2287	1	0	12:01:26	697921	0	0	0	0	0	0	0	0	0	0	0	0	0	0	0	0	0
091412	12:01:26	10042	pm.simpleFrRight	pm.simpleFr	2	57	424	0	0	12:01:26	698388	0	0	0	0	0	0	0	0	0	0	0	0	0	0	0	0	0
091412	12:01:26	10042	pm.simpleFrRight	blank.simpleFr	2	0	2087	1	0	12:01:26	700507	0	0	0	0	0	0	0	0	0	0	0	0	0	0	0	0	0
091412	12:01:26	10042	pm.simpleFrRight	pm.simpleFr	2	57	335	0	0	12:01:26	700880	0	0	0	0	0	0	0	0	0	0	0	0	0	0	0	0	0
091412	12:01:26	10042	pm.simpleFrRight	blank.simpleFr	2	0	1587	1	0	12:01:26	702493	0	0	0	0	0	0	0	0	0	0	0	0	0	0	0	0	0
091412	12:01:26	10042	pm.simpleFrRight	pm.simpleFr	2	57	397	0	0	12:01:26	702919	0	0	0	0	0	0	0	0	0	0	0	0	0	0	0	0	0
091412	12:01:26	10042	pm.simpleFrRight	blank.simpleFr	2	0	2387	1	0	12:01:26	705332	0	0	0	0	0	0	0	0	0	0	0	0	0	0	0	0	0
091412	12:01:26	10042	pm.simpleFrRight	pm.simpleFr	2	57	646	0	0	12:01:26	706012	0	0	0	0	0	0	0	0	0	0	0	0	0	0	0	0	0
091412	12:01:26	10042	pm.simpleFrRight	blank.simpleFr	2	0	2487	1	0	12:01:26	708531	0	0	0	0	0	0	0	0	0	0	0	0	0	0	0	0	0
091412	12:01:26	10042	pm.simpleFrRight	pm.simpleFr	2	57	423	0	0	12:01:26	708984	0	0	0	0	0	0	0	0	0	0	0	0	0	0	0	0	0
091412	12:01:26	10042	pm.simpleFrRight	blank.simpleFr	2	0	1487	1	0	12:01:26	710503	0	0	0	0	0	0	0	0	0	0	0	0	0	0	0	0	0
091412	12:01:26	10042	pm.simpleFrRight	pm.simpleFr	2	57	306	0	0	12:01:26	710850	0	0	0	0	0	0	0	0	0	0	0	0	0	0	0	0	0
091412	12:01:26	10042	pm.simpleFrRight	blank.simpleFr	2	0	1887	1	0	12:01:26	712769	0	0	0	0	0	0	0	0	0	0	0	0	0	0	0	0	0
091412	12:01:26	10042	pm.simpleFrRight	pm.simpleFr	2	57	329	0	0	12:01:26	713129	0	0	0	0	0	0	0	0	0	0	0	0	0	0	0	0	0
091412	12:01:26	10042	pm.simpleFrRight	blank.simpleFr	2	0	2287	1	0	12:01:26	715448	0	0	0	0	0	0	0	0	0	0	0	0	0	0	0	0	0
091412	12:01:26	10042	pm.simpleFrRight	pm.simpleFr	2	57	321	0	0	12:01:26	715808	0	0	0	0	0	0	0	0	0	0	0	0	0	0	0	0	0
091412	12:01:26	10042	pm.simpleFrRight	blank.simpleFr	2	0	1787	1	0	12:01:26	717620	0	0	0	0	0	0	0	0	0	0	0	0	0	0	0	0	0
091412	12:01:26	10042	pm.simpleFrRight	pm.simpleFr	2	57	341	0	0	12:01:26	717994	0	0	0	0	0	0	0	0	0	0	0	0	0	0	0	0	0
091412	12:01:26	10042	pm.simpleFrRight	blank.simpleFr	2	0	1987	1	0	12:01:26	720006	0	0	0	0	0	0	0	0	0	0	0	0	0	0	0	0	0
091412	12:01:26	10042	pm.simpleFrRight	pm.simpleFr	2	57	291	0	0	12:01:26	720339	0	0	0	0	0	0	0	0	0	0	0	0	0	0	0	0	0
091412	12:01:26	10042	pm.simpleFrRight	blank.simpleFr	2	0	2187	1	0	12:01:26	722552	0	0	0	0	0	0	0	0	0	0	0	0	0	0	0	0	0
091412	12:01:26	10042	pm.simpleFrRight	pm.simpleFr	2	57	258	0	0	12:01:26	722845	0	0	0	0	0	0	0	0	0	0	0	0	0	0	0	0	0
091412	12:01:26	10042	pm.simpleFrRight	blank.simpleFr	2	0	1687	1	0	12:01:26	724564	0	0	0	0	0	0	0	0	0	0	0	0	0	0	0	0	0
091412	12:01:26	10042	pm.simpleFrRight	pm.simpleFr	2	57	389	0	0	12:01:26	724991	0	0	0	0	0	0	0	0	0	0	0	0	0	0	0	0	0
091412	12:01:26	10042	pm.simpleFrRight	blank.simpleFr	2	0	1987	1	0	12:01:26	727003	0	0	0	0	0	0	0	0	0	0	0	0	0	0	0	0	0
091412	12:01:26	10042	pm.simpleFrRight	pm.simpleFr	2	57	270	0	0	12:01:26	727310	0	0	0	0	0	0	0	0	0	0	0	0	0	0	0	0	0
091412	12:01:26	10042	pm.simpleFrRight	blank.simpleFr	2	0	2187	1	0	12:01:26	729522	0	0	0	0	0	0	0	0	0	0	0	0	0	0	0	0	0
091412	12:01:26	10042	pm.simpleFrRight	pm.simpleFr	2	57	263	0	0	12:01:26	729816	0	0	0	0	0	0	0	0	0	0	0	0	0	0	0	0	0
091412	12:01:26	10042	pm.simpleFrRight	blank.simpleFr	2	0	1787	1	0	12:01:26	731628	0	0	0	0	0	0	0	0	0	0	0	0	0	0	0	0	0
091412	12:01:26	10042	pm.simpleFrRight	pm.simpleFr	2	57	429	0	0	12:01:26	732095	0	0	0	0	0	0	0	0	0	0	0	0	0	0	0	0	0
091412	12:01:26	10042	pm.simpleFrRight	blank.simpleFr	2	0	2387	1	0	12:01:26	734507	0	0	0	0	0	0	0	0	0	0	0	0	0	0	0	0	0
091412	12:01:26	10042	pm.simpleFrRight	pm.simpleFr	2	57	318	0	0	12:01:26	734867	0	0	0	0	0	0	0	0	0	0	0	0	0	0	0	0	0
091412	12:01:26	10042	pm.simpleFrRight	blank.simpleFr	2	0	1587	1	0	12:01:26	736480	0	0	0	0	0	0	0	0	0	0	0	0	0	0	0	0	0
091412	12:01:26	10042	pm.simpleFrRight	pm.simpleFr	2	57	297	0	0	12:01:26	736813	0	0	0	0	0	0	0	0	0	0	0	0	0	0	0	0	0
091412	12:01:26	10042	pm.simpleFrRight	blank.simpleFr	2	0	2487	1	0	12:01:26	739332	0	0	0	0	0	0	0	0	0	0	0	0	0	0	0	0	0
091412	12:01:26	10042	pm.simpleFrRight	pm.simpleFr	2	57	309	0	0	12:01:26	739678	0	0	0	0	0	0	0	0	0	0	0	0	0	0	0	0	0
091412	12:01:26	10042	pm.simpleFrRight	blank.simpleFr	2	0	1887	1	0	12:01:26	741598	0	0	0	0	0	0	0	0	0	0	0	0	0	0	0	0	0
091412	12:01:26	10042	pm.simpleFrRight	pm.simpleFr	2	57	315	0	0	12:01:26	741944	0	0	0	0	0	0	0	0	0	0	0	0	0	0	0	0	0
091412	12:01:26	10042	pm.simpleFrRight	blank.simpleFr	2	0	2287	1	0	12:01:26	744250	0	0	0	0	0	0	0	0	0	0	0	0	0	0	0	0	0
091412	12:01:26	10042	pm.simpleFrRight	pm.simpleFr	2	57	431	0	0	12:01:26	744716	0	0	0	0	0	0	0	0	0	0	0	0	0	0	0	0	0
091412	12:01:26	10042	pm.simpleFrRight	blank.simpleFr	2	0	1687	1	0	12:01:26	746422	0	0	0	0	0	0	0	0	0	0	0	0	0	0	0	0	0
091412	12:01:26	10042	pm.simpleFrRight	pm.simpleFr	2	57	339	0	0	12:01:26	746796	0	0	0	0	0	0	0	0	0	0	0	0	0	0	0	0	0
091412	12:01:26	10042	pm.simpleFrRight	blank.simpleFr	2	0	1487	1	0	12:01:26	748302	0	0	0	0	0	0	0	0	0	0	0	0	0	0	0	0	0
091412	12:01:26	10042	pm.simpleFrRight	pm.simpleFr	2	57	315	0	0	12:01:26	748648	0	0	0	0	0	0	0	0	0	0	0	0	0	0	0	0	0
091412	12:01:26	10042	pm.simpleFrRight	blank.simpleFr	2	0	2087	1	0	12:01:26	750767	0	0	0	0	0	0	0	0	0	0	0	0	0	0	0	0	0
091412	12:01:26	10042	pm.simpleFrRight	pm.simpleFr	2	57	314	0	0	12:01:26	751114	0	0	0	0	0	0	0	0	0	0	0	0	0	0	0	0	0
091412	12:01:26	10042	pm.simpleFrRight	blank.simpleFr	2	0	1587	1	0	12:01:26	752727	0	0	0	0	0	0	0	0	0	0	0	0	0	0	0	0	0
091412	12:01:26	10042	pm.simpleFrRight	pm.simpleFr	2	57	450	0	0	12:01:26	753220	0	0	0	0	0	0	0	0	0	0	0	0	0	0	0	0	0
091412	12:01:26	10042	pm.simpleFrRight	blank.simpleFr	2	0	1887	1	0	12:01:26	755139	0	0	0	0	0	0	0	0	0	0	0	0	0	0	0	0	0
091412	12:01:26	10042	pm.simpleFrRight	pm.simpleFr	2	57	326	0	0	12:01:26	755499	0	0	0	0	0	0	0	0	0	0	0	0	0	0	0	0	0
091412	12:01:26	10042	pm.simpleFrRight	blank.simpleFr	2	0	1687	1	0	12:01:26	757218	0	0	0	0	0	0	0	0	0	0	0	0	0	0	0	0	0
091412	12:01:26	10042	pm.simpleFrRight	pm.simpleFr	2	57	343	0	0	12:01:26	757591	0	0	0	0	0	0	0	0	0	0	0	0	0	0	0	0	0
091412	12:01:26	10042	pm.simpleFrRight	blank.simpleFr	2	0	2087	1	0	12:01:26	759710	0	0	0	0	0	0	0	0	0	0	0	0	0	0	0	0	0
091412	12:01:26	10042	pm.simpleFrRight	pm.simpleFr	2	57	298	0	0	12:01:26	760044	0	0	0	0	0	0	0	0	0	0	0	0	0	0	0	0	0
091412	12:01:26	10042	pm.simpleFrRight	blank.simpleFr	2	0	1787	1	0	12:01:26	761856	0	0	0	0	0	0	0	0	0	0	0	0	0	0	0	0	0
091412	12:01:26	10042	pm.simpleFrRight	pm.simpleFr	2	57	296	0	0	12:01:26	762190	0	0	0	0	0	0	0	0	0	0	0	0	0	0	0	0	0
091412	12:01:26	10042	pm.simpleFrRight	blank.simpleFr	2	0	2287	1	0	12:01:26	764509	0	0	0	0	0	0	0	0	0	0	0	0	0	0	0	0	0
091412	12:01:26	10042	pm.simpleFrRight	pm.simpleFr	2	57	398	0	0	12:01:26	764948	0	0	0	0	0	0	0	0	0	0	0	0	0	0	0	0	0
091412	12:01:26	10042	pm.simpleFrRight	blank.simpleFr	2	0	1487	1	0	12:01:26	766468	0	0	0	0	0	0	0	0	0	0	0	0	0	0	0	0	0
091412	12:01:26	10042	pm.simpleFrRight	pm.simpleFr	2	57	436	0	0	12:01:26	766934	0	0	0	0	0	0	0	0	0	0	0	0	0	0	0	0	0
091412	12:01:26	10042	Trial2BackFr	N	3	0	1000	1	1	12:01:26	934788	0	0	0	0	0	0	0	0	0	0	0	0	0	0	0	0	0
091412	12:01:26	10042	Trial2BackFr	N	3	0	1000	1	2	12:01:26	936307	0	0	0	0	0	0	0	0	0	0	0	0	0	0	0	0	0
091412	12:01:26	10042	Trial2BackFr	N	3	0	1000	1	3	12:01:26	937827	0	0	0	0	0	0	0	0	0	0	0	0	0	0	0	0	0
091412	12:01:26	10042	Trial2BackFr	N	3	0	1000	1	4	12:01:26	939346	0	0	0	0	0	0	0	0	0	0	0	0	0	0	0	0	0
091412	12:01:26	10042	Trial2BackFr	N	3	0	1000	1	5	12:01:26	940866	0	0	0	0	0	0	0	0	0	0	0	0	0	0	0	0	0
091412	12:01:26	10042	Trial2BackFr	N	3	0	1000	1	6	12:01:26	942385	0	0	0	0	0	0	0	0	0	0	0	0	0	0	0	0	0
091412	12:01:26	10042	Trial2BackFr	N	3	0	1000	1	7	12:01:26	943905	0	0	0	0	0	0	0	0	0	0	0	0	0	0	0	0	0
091412	12:01:26	10042	Trial2BackFr	N	3	0	1000	1	8	12:01:26	945424	0	0	0	0	0	0	0	0	0	0	0	0	0	0	0	0	0
091412	12:01:26	10042	Trial2BackFr	Y	3	0	1000	0	8	12:01:26	946943	0	0	0	0	0	0	0	0	0	0	0	0	0	0	0	0	0
091412	12:01:26	10042	Trial2BackFr	N	3	0	1000	1	9	12:01:26	948463	0	0	0	0	0	0	0	0	0	0	0	0	0	0	0	0	0
091412	12:01:26	10042	Trial2BackFr	N	3	0	1000	1	10	12:01:26	949982	0	0	0	0	0	0	0	0	0	0	0	0	0	0	0	0	0
091412	12:01:26	10042	Trial2BackFr	N	3	0	1000	1	11	12:01:26	951501	0	0	0	0	0	0	0	0	0	0	0	0	0	0	0	0	0
091412	12:01:26	10042	Trial2BackFr	Y	3	57	461	1	12	12:01:26	952488	0	0	0	0	0	0	0	0	0	0	0	0	0	0	0	0	0
091412	12:01:26	10042	Trial2BackFr	N	3	0	1000	1	13	12:01:26	954527	0	0	0	0	0	0	0	0	0	0	0	0	0	0	0	0	0
091412	12:01:26	10042	Trial2BackFr	N	3	0	1000	1	14	12:01:26	956046	0	0	0	0	0	0	0	0	0	0	0	0	0	0	0	0	0
091412	12:01:26	10042	Trial2BackFr	N	3	0	1000	1	15	12:01:26	957566	0	0	0	0	0	0	0	0	0	0	0	0	0	0	0	0	0
091412	12:01:26	10042	Trial2BackFr	N	3	0	1000	1	16	12:01:26	959085	0	0	0	0	0	0	0	0	0	0	0	0	0	0	0	0	0
091412	12:01:26	10042	Trial2BackFr	N	3	0	1000	1	17	12:01:26	960605	0	0	0	0	0	0	0	0	0	0	0	0	0	0	0	0	0
091412	12:01:26	10042	Trial2BackFr	Y	3	57	558	1	18	12:01:26	961697	0	0	0	0	0	0	0	0	0	0	0	0	0	0	0	0	0
091412	12:01:26	10042	Trial2BackFr	N	3	0	1000	1	19	12:01:26	963630	0	0	0	0	0	0	0	0	0	0	0	0	0	0	0	0	0
091412	12:01:26	10042	Trial2BackFr	N	3	0	1000	1	20	12:01:26	965149	0	0	0	0	0	0	0	0	0	0	0	0	0	0	0	0	0
091412	12:01:26	10042	Trial2BackFr	N	3	0	1000	1	21	12:01:26	966669	0	0	0	0	0	0	0	0	0	0	0	0	0	0	0	0	0
091412	12:01:26	10042	Trial2BackFr	N	3	0	1000	1	22	12:01:26	968215	0	0	0	0	0	0	0	0	0	0	0	0	0	0	0	0	0
091412	12:01:26	10042	Trial2BackFr	Y	3	0	1000	0	22	12:01:26	969734	0	0	0	0	0	0	0	0	0	0	0	0	0	0	0	0	0
091412	12:01:26	10042	Trial2BackFr	N	3	0	1000	1	23	12:01:26	971254	0	0	0	0	0	0	0	0	0	0	0	0	0	0	0	0	0
091412	12:01:26	10042	Trial2BackFr	N	3	0	1000	1	24	12:01:26	972773	0	0	0	0	0	0	0	0	0	0	0	0	0	0	0	0	0
091412	12:01:26	10042	Trial2BackFr	N	3	0	1000	1	25	12:01:26	974292	0	0	0	0	0	0	0	0	0	0	0	0	0	0	0	0	0
091412	12:01:26	10042	Trial2BackFr	N	3	0	1000	1	26	12:01:26	975812	0	0	0	0	0	0	0	0	0	0	0	0	0	0	0	0	0
091412	12:01:26	10042	Trial2BackFr	N	3	0	1000	1	27	12:01:26	977331	0	0	0	0	0	0	0	0	0	0	0	0	0	0	0	0	0
091412	12:01:26	10042	Trial2BackFr	N	3	0	1000	1	28	12:01:26	978851	0	0	0	0	0	0	0	0	0	0	0	0	0	0	0	0	0
091412	12:01:26	10042	Trial2BackFr	Y	3	57	728	1	29	12:01:26	980103	0	0	0	0	0	0	0	0	0	0	0	0	0	0	0	0	0
091412	12:01:26	10042	Trial2BackFr	N	3	0	1000	1	30	12:01:26	981876	0	0	0	0	0	0	0	0	0	0	0	0	0	0	0	0	0
091412	12:01:26	10042	Trial2BackFr	N	3	0	1000	1	31	12:01:26	983396	0	0	0	0	0	0	0	0	0	0	0	0	0	0	0	0	0
091412	12:01:26	10042	Trial2BackFr	N	3	0	1000	1	32	12:01:26	984915	0	0	0	0	0	0	0	0	0	0	0	0	0	0	0	0	0
091412	12:01:26	10042	Trial2BackFr	Y	3	57	583	1	33	12:01:26	986021	0	0	0	0	0	0	0	0	0	0	0	0	0	0	0	0	0
091412	12:01:26	10042	Trial2BackFr	N	3	0	1000	1	34	12:01:26	987940	0	0	0	0	0	0	0	0	0	0	0	0	0	0	0	0	0
091412	12:01:26	10042	Trial2BackFr	N	3	0	1000	1	35	12:01:26	989460	0	0	0	0	0	0	0	0	0	0	0	0	0	0	0	0	0
091412	12:01:26	10042	Trial2BackFr	N	3	0	1000	1	36	12:01:26	990979	0	0	0	0	0	0	0	0	0	0	0	0	0	0	0	0	0
091412	12:01:26	10042	Trial2BackFr	N	3	0	1000	1	37	12:01:26	992499	0	0	0	0	0	0	0	0	0	0	0	0	0	0	0	0	0
091412	12:01:26	10042	Trial2BackFr	N	3	0	1000	1	38	12:01:26	994018	0	0	0	0	0	0	0	0	0	0	0	0	0	0	0	0	0
091412	12:01:26	10042	Trial2BackFr	N	3	0	1000	1	39	12:01:26	995537	0	0	0	0	0	0	0	0	0	0	0	0	0	0	0	0	0
091412	12:01:26	10042	Trial2BackFr	Y	3	57	457	1	40	12:01:26	996524	0	0	0	0	0	0	0	0	0	0	0	0	0	0	0	0	0
091412	12:01:26	10042	Trial2BackFr	N	3	0	1000	1	41	12:01:26	998563	0	0	0	0	0	0	0	0	0	0	0	0	0	0	0	0	0
091412	12:01:26	10042	Trial2BackFr	N	3	0	1000	1	42	12:01:26	1000082	0	0	0	0	0	0	0	0	0	0	0	0	0	0	0	0	0
091412	12:01:26	10042	Trial2BackFr	N	3	0	1000	1	43	12:01:26	1001602	0	0	0	0	0	0	0	0	0	0	0	0	0	0	0	0	0
091412	12:01:26	10042	Trial2BackFr	N	3	0	1000	1	44	12:01:26	1003121	0	0	0	0	0	0	0	0	0	0	0	0	0	0	0	0	0
091412	12:01:26	10042	Trial2BackFr	Y	3	57	601	1	45	12:01:26	1004254	0	0	0	0	0	0	0	0	0	0	0	0	0	0	0	0	0
091412	12:01:26	10042	Trial2BackFr	N	3	0	1000	1	46	12:01:26	1006146	0	0	0	0	0	0	0	0	0	0	0	0	0	0	0	0	0
091412	12:01:26	10042	Trial2BackFr	N	3	0	1000	1	47	12:01:26	1007666	0	0	0	0	0	0	0	0	0	0	0	0	0	0	0	0	0
091412	12:01:26	10042	Trial2BackFr	N	3	0	1000	1	48	12:01:26	1009185	0	0	0	0	0	0	0	0	0	0	0	0	0	0	0	0	0
091412	12:01:26	10042	Trial2BackFr	N	3	0	1000	1	49	12:01:26	1010705	0	0	0	0	0	0	0	0	0	0	0	0	0	0	0	0	0
091412	12:01:26	10042	Trial2BackFr	N	3	0	1000	1	50	12:01:26	1012224	0	0	0	0	0	0	0	0	0	0	0	0	0	0	0	0	0
091412	12:01:26	10042	Trial2BackFr	Y	3	57	442	1	51	12:01:26	1013197	0	0	0	0	0	0	0	0	0	0	0	0	0	0	0	0	0
091412	12:01:26	10042	Trial2BackFr	N	3	0	1000	1	52	12:01:26	1015250	0	0	0	0	0	0	0	0	0	0	0	0	0	0	0	0	0
091412	12:01:26	10042	Trial2BackFr	N	3	0	1000	1	53	12:01:26	1016769	0	0	0	0	0	0	0	0	0	0	0	0	0	0	0	0	0
091412	12:01:26	10042	Trial2BackFr	N	3	0	1000	1	54	12:01:26	1018288	0	0	0	0	0	0	0	0	0	0	0	0	0	0	0	0	0
091412	12:01:26	10042	Trial2BackFr	N	3	0	1000	1	55	12:01:26	1019808	0	0	0	0	0	0	0	0	0	0	0	0	0	0	0	0	0
091412	12:01:26	10042	Trial2BackFr	N	3	0	1000	1	56	12:01:26	1021327	0	0	0	0	0	0	0	0	0	0	0	0	0	0	0	0	0
091412	12:01:26	10042	Trial2BackFr	N	3	0	1000	1	57	12:01:26	1022847	0	0	0	0	0	0	0	0	0	0	0	0	0	0	0	0	0
091412	12:01:26	10042	Trial2BackFr	Y	3	57	603	1	58	12:01:26	1023980	0	0	0	0	0	0	0	0	0	0	0	0	0	0	0	0	0
091412	12:01:26	10042	Trial2BackFr	N	3	0	1000	1	59	12:01:26	1025872	0	0	0	0	0	0	0	0	0	0	0	0	0	0	0	0	0
091412	12:01:26	10042	Trial2BackFr	N	3	0	1000	1	60	12:01:26	1027392	0	0	0	0	0	0	0	0	0	0	0	0	0	0	0	0	0
091412	12:01:26	10042	Trial2BackFr	Y	3	57	410	1	61	12:01:26	1028324	0	0	0	0	0	0	0	0	0	0	0	0	0	0	0	0	0
091412	12:01:26	10042	Trial2BackFr	N	3	0	1000	1	62	12:01:26	1030417	0	0	0	0	0	0	0	0	0	0	0	0	0	0	0	0	0
091412	12:01:26	10042	Trial2BackFr	N	3	0	1000	1	63	12:01:26	1031936	0	0	0	0	0	0	0	0	0	0	0	0	0	0	0	0	0
091412	12:01:26	10042	Trial2BackFr	N	3	0	1000	1	64	12:01:26	1033456	0	0	0	0	0	0	0	0	0	0	0	0	0	0	0	0	0
091412	12:01:26	10042	Trial2BackFr	N	3	0	1000	1	65	12:01:26	1034975	0	0	0	0	0	0	0	0	0	0	0	0	0	0	0	0	0
091412	12:01:26	10042	Trial2BackFr	N	3	0	1000	1	66	12:01:26	1036495	0	0	0	0	0	0	0	0	0	0	0	0	0	0	0	0	0
091412	12:01:26	10042	Trial2BackFr	N	3	0	1000	1	67	12:01:26	1038014	0	0	0	0	0	0	0	0	0	0	0	0	0	0	0	0	0
091412	12:01:26	10042	Trial2BackFr	N	3	0	1000	1	68	12:01:26	1039533	0	0	0	0	0	0	0	0	0	0	0	0	0	0	0	0	0
091412	12:01:26	10042	Trial2BackFr	N	3	0	1000	1	69	12:01:26	1041053	0	0	0	0	0	0	0	0	0	0	0	0	0	0	0	0	0
091412	12:01:26	10042	Trial2BackFr	N	3	0	1000	1	70	12:01:26	1042572	0	0	0	0	0	0	0	0	0	0	0	0	0	0	0	0	0
091412	12:01:26	10042	Trial2BackFr	N	3	0	1000	1	71	12:01:26	1044092	0	0	0	0	0	0	0	0	0	0	0	0	0	0	0	0	0
091412	12:01:26	10042	Trial2BackFr	Y	3	57	510	1	72	12:01:26	1045131	0	0	0	0	0	0	0	0	0	0	0	0	0	0	0	0	0
091412	12:01:26	10042	Trial2BackFr	N	3	0	1000	1	73	12:01:26	1047117	0	0	0	0	0	0	0	0	0	0	0	0	0	0	0	0	0
091412	12:01:26	10042	Trial2BackFr	N	3	0	1000	1	74	12:01:26	1048637	0	0	0	0	0	0	0	0	0	0	0	0	0	0	0	0	0
091412	12:01:26	10042	Trial2BackFr	N	3	0	1000	1	75	12:01:26	1050156	0	0	0	0	0	0	0	0	0	0	0	0	0	0	0	0	0
091412	12:01:26	10042	Trial2BackFr	Y	3	57	782	1	76	12:01:26	1051462	0	0	0	0	0	0	0	0	0	0	0	0	0	0	0	0	0
091412	12:01:26	10042	Trial2BackFr	N	3	0	1000	1	77	12:01:26	1053181	0	0	0	0	0	0	0	0	0	0	0	0	0	0	0	0	0
091412	12:01:26	10042	Trial2BackFr	N	3	0	1000	1	78	12:01:26	1054701	0	0	0	0	0	0	0	0	0	0	0	0	0	0	0	0	0
091412	12:01:26	10042	Trial2BackFr	N	3	0	1000	1	79	12:01:26	1056220	0	0	0	0	0	0	0	0	0	0	0	0	0	0	0	0	0
091412	12:01:26	10042	Trial2BackFr	N	3	0	1000	1	80	12:01:26	1057739	0	0	0	0	0	0	0	0	0	0	0	0	0	0	0	0	0
091412	12:01:26	10042	Trial2BackFr	N	3	0	1000	1	81	12:01:26	1059259	0	0	0	0	0	0	0	0	0	0	0	0	0	0	0	0	0
091412	12:01:26	10042	Trial2BackFr	Y	3	0	1000	0	81	12:01:26	1060778	0	0	0	0	0	0	0	0	0	0	0	0	0	0	0	0	0
091412	12:01:26	10042	Trial2BackFr	N	3	0	1000	1	82	12:01:26	1062298	0	0	0	0	0	0	0	0	0	0	0	0	0	0	0	0	0
091412	12:01:26	10042	Trial2BackFr	N	3	0	1000	1	83	12:01:26	1063817	0	0	0	0	0	0	0	0	0	0	0	0	0	0	0	0	0
091412	12:01:26	10042	Trial2BackFr	N	3	0	1000	1	84	12:01:26	1065337	0	0	0	0	0	0	0	0	0	0	0	0	0	0	0	0	0
091412	12:01:26	10042	Trial2BackFr	N	3	0	1000	1	85	12:01:26	1066856	0	0	0	0	0	0	0	0	0	0	0	0	0	0	0	0	0
091412	12:01:26	10042	Trial2BackFr	N	3	0	1000	1	86	12:01:26	1068375	0	0	0	0	0	0	0	0	0	0	0	0	0	0	0	0	0
091412	12:01:26	10042	Trial2BackFr	N	3	0	1000	1	87	12:01:26	1069895	0	0	0	0	0	0	0	0	0	0	0	0	0	0	0	0	0
091412	12:01:26	10042	Trial2BackFr	N	3	0	1000	1	88	12:01:26	1071414	0	0	0	0	0	0	0	0	0	0	0	0	0	0	0	0	0
091412	12:01:26	10042	Trial2BackFr	N	3	0	1000	1	89	12:01:26	1072934	0	0	0	0	0	0	0	0	0	0	0	0	0	0	0	0	0
091412	12:01:26	10042	Trial2BackFr	N	3	0	1000	1	90	12:01:26	1074453	0	0	0	0	0	0	0	0	0	0	0	0	0	0	0	0	0
091412	12:01:26	10042	Trial2BackFr	Y	3	57	772	1	91	12:01:26	1075759	0	0	0	0	0	0	0	0	0	0	0	0	0	0	0	0	0
091412	12:01:26	10042	Trial2BackFr	N	3	0	1000	1	92	12:01:26	1077478	0	0	0	0	0	0	0	0	0	0	0	0	0	0	0	0	0
091412	12:01:26	10042	Trial2BackFr	N	3	0	1000	1	93	12:01:26	1078998	0	0	0	0	0	0	0	0	0	0	0	0	0	0	0	0	0
091412	12:01:26	10042	Trial2BackFr	N	3	0	1000	1	94	12:01:26	1080517	0	0	0	0	0	0	0	0	0	0	0	0	0	0	0	0	0
091412	12:01:26	10042	Trial2BackFr	N	3	0	1000	1	95	12:01:26	1082037	0	0	0	0	0	0	0	0	0	0	0	0	0	0	0	0	0
091412	12:01:26	10042	Trial2BackFr	N	3	0	1000	1	96	12:01:26	1083556	0	0	0	0	0	0	0	0	0	0	0	0	0	0	0	0	0
091412	12:01:26	10042	Trial2BackFr	N	3	0	1000	1	97	12:01:26	1085075	0	0	0	0	0	0	0	0	0	0	0	0	0	0	0	0	0
091412	12:01:26	10042	Trial2BackFr	N	3	0	1000	1	98	12:01:26	1086595	0	0	0	0	0	0	0	0	0	0	0	0	0	0	0	0	0
091412	12:01:26	10042	Trial2BackFr	N	3	0	1000	1	99	12:01:26	1088114	0	0	0	0	0	0	0	0	0	0	0	0	0	0	0	0	0
091412	12:01:26	10042	Trial2BackFr	Y	3	57	679	1	100	12:01:26	1089327	0	0	0	0	0	0	0	0	0	0	0	0	0	0	0	0	0
091412	12:01:26	10042	Trial2BackFr	N	3	0	1000	1	101	12:01:26	1091140	0	0	0	0	0	0	0	0	0	0	0	0	0	0	0	0	0
091412	12:01:26	10042	Trial2BackFr	N	3	0	1000	1	102	12:01:26	1092659	0	0	0	0	0	0	0	0	0	0	0	0	0	0	0	0	0
091412	12:01:26	10042	Trial2BackFr	N	3	0	1000	1	103	12:01:26	1094179	0	0	0	0	0	0	0	0	0	0	0	0	0	0	0	0	0
091412	12:01:26	10042	Trial2BackFr	N	3	0	1000	1	104	12:01:26	1095698	0	0	0	0	0	0	0	0	0	0	0	0	0	0	0	0	0
091412	12:01:26	10042	Trial2BackFr	Y	3	57	647	1	105	12:01:26	1096871	0	0	0	0	0	0	0	0	0	0	0	0	0	0	0	0	0
091412	12:01:26	10042	Trial2BackFr	N	3	0	1000	1	106	12:01:26	1098723	0	0	0	0	0	0	0	0	0	0	0	0	0	0	0	0	0
091412	12:01:26	10042	Trial2BackFr	N	3	0	1000	1	107	12:01:26	1100243	0	0	0	0	0	0	0	0	0	0	0	0	0	0	0	0	0
091412	12:01:26	10042	Trial2BackFr	N	3	0	1000	1	108	12:01:26	1101762	0	0	0	0	0	0	0	0	0	0	0	0	0	0	0	0	0
091412	12:01:26	10042	Trial2BackFr	Y	3	57	486	1	109	12:01:26	1102775	0	0	0	0	0	0	0	0	0	0	0	0	0	0	0	0	0
091412	12:01:26	10042	Trial2BackFr	N	3	0	1000	1	110	12:01:26	1104788	0	0	0	0	0	0	0	0	0	0	0	0	0	0	0	0	0
091412	12:01:26	10042	Trial2BackFr	N	3	0	1000	1	111	12:01:26	1106307	0	0	0	0	0	0	0	0	0	0	0	0	0	0	0	0	0
091412	12:01:26	10042	Trial2BackFr	N	3	0	1000	1	112	12:01:26	1107827	0	0	0	0	0	0	0	0	0	0	0	0	0	0	0	0	0
091412	12:01:26	10042	Trial2BackFr	N	3	0	1000	1	113	12:01:26	1109346	0	0	0	0	0	0	0	0	0	0	0	0	0	0	0	0	0
091412	12:01:26	10042	Trial2BackFr	N	3	0	1000	1	114	12:01:26	1110866	0	0	0	0	0	0	0	0	0	0	0	0	0	0	0	0	0
091412	12:01:26	10042	Trial2BackFr	Y	3	57	647	1	115	12:01:26	1112038	0	0	0	0	0	0	0	0	0	0	0	0	0	0	0	0	0
091412	12:01:26	10042	Trial2BackFr	N	3	0	1000	1	116	12:01:26	1113891	0	0	0	0	0	0	0	0	0	0	0	0	0	0	0	0	0
091412	12:01:26	10042	Trial2BackFr	N	3	0	1000	1	117	12:01:26	1115410	0	0	0	0	0	0	0	0	0	0	0	0	0	0	0	0	0
091412	12:01:26	10042	Trial2BackFr	N	3	0	1000	1	118	12:01:26	1116930	0	0	0	0	0	0	0	0	0	0	0	0	0	0	0	0	0
091412	12:01:26	10042	Trial2BackFr	Y	3	57	375	1	119	12:01:26	1117836	0	0	0	0	0	0	0	0	0	0	0	0	0	0	0	0	0
091412	12:01:26	10042	Trial3BackFr	NN	4	0	1000	1	119	12:01:26	1201430	0	0	0	0	0	0	0	0	0	0	0	0	0	0	0	0	0
091412	12:01:26	10042	Trial3BackFr	NN	4	0	1000	1	119	12:01:26	1202949	0	0	0	0	0	0	0	0	0	0	0	0	0	0	0	0	0
091412	12:01:26	10042	Trial3BackFr	NN	4	0	1000	1	119	12:01:26	1204468	0	0	0	0	0	0	0	0	0	0	0	0	0	0	0	0	0
091412	12:01:26	10042	Trial3BackFr	YY	4	57	659	1	119	12:01:26	1205655	0	0	0	0	0	0	0	0	0	0	0	0	0	0	0	0	0
091412	12:01:26	10042	Trial3BackFr	NN	4	0	1000	1	119	12:01:26	1207494	0	0	0	0	0	0	0	0	0	0	0	0	0	0	0	0	0
091412	12:01:26	10042	Trial3BackFr	NN	4	0	1000	1	119	12:01:26	1209013	0	0	0	0	0	0	0	0	0	0	0	0	0	0	0	0	0
091412	12:01:26	10042	Trial3BackFr	NN	4	0	1000	1	119	12:01:26	1210533	0	0	0	0	0	0	0	0	0	0	0	0	0	0	0	0	0
091412	12:01:26	10042	Trial3BackFr	NN	4	0	1000	1	119	12:01:26	1212052	0	0	0	0	0	0	0	0	0	0	0	0	0	0	0	0	0
091412	12:01:26	10042	Trial3BackFr	YY	4	57	627	1	119	12:01:26	1213212	0	0	0	0	0	0	0	0	0	0	0	0	0	0	0	0	0
091412	12:01:26	10042	Trial3BackFr	NN	4	0	1000	1	119	12:01:26	1215077	0	0	0	0	0	0	0	0	0	0	0	0	0	0	0	0	0
091412	12:01:26	10042	Trial3BackFr	NN	4	0	1000	1	119	12:01:26	1216597	0	0	0	0	0	0	0	0	0	0	0	0	0	0	0	0	0
091412	12:01:26	10042	Trial3BackFr	NN	4	0	1000	1	119	12:01:26	1218116	0	0	0	0	0	0	0	0	0	0	0	0	0	0	0	0	0
091412	12:01:26	10042	Trial3BackFr	NN	4	0	1000	1	119	12:01:26	1219636	0	0	0	0	0	0	0	0	0	0	0	0	0	0	0	0	0
091412	12:01:26	10042	Trial3BackFr	NN	4	0	1000	1	119	12:01:26	1221155	0	0	0	0	0	0	0	0	0	0	0	0	0	0	0	0	0
091412	12:01:26	10042	Trial3BackFr	NN	4	0	1000	1	119	12:01:26	1222674	0	0	0	0	0	0	0	0	0	0	0	0	0	0	0	0	0
091412	12:01:26	10042	Trial3BackFr	NN	4	0	1000	1	119	12:01:26	1224194	0	0	0	0	0	0	0	0	0	0	0	0	0	0	0	0	0
091412	12:01:26	10042	Trial3BackFr	YY	4	0	1000	0	119	12:01:26	1225713	0	0	0	0	0	0	0	0	0	0	0	0	0	0	0	0	0
091412	12:01:26	10042	Trial3BackFr	NN	4	0	1000	1	119	12:01:26	1227233	0	0	0	0	0	0	0	0	0	0	0	0	0	0	0	0	0
091412	12:01:26	10042	Trial3BackFr	NN	4	0	1000	1	119	12:01:26	1228752	0	0	0	0	0	0	0	0	0	0	0	0	0	0	0	0	0
091412	12:01:26	10042	Trial3BackFr	NN	4	0	1000	1	119	12:01:26	1230271	0	0	0	0	0	0	0	0	0	0	0	0	0	0	0	0	0
091412	12:01:26	10042	Trial3BackFr	NN	4	0	1000	1	119	12:01:26	1231791	0	0	0	0	0	0	0	0	0	0	0	0	0	0	0	0	0
091412	12:01:26	10042	Trial3BackFr	NN	4	0	1000	1	119	12:01:26	1233310	0	0	0	0	0	0	0	0	0	0	0	0	0	0	0	0	0
091412	12:01:26	10042	Trial3BackFr	YY	4	0	1000	0	119	12:01:26	1234830	0	0	0	0	0	0	0	0	0	0	0	0	0	0	0	0	0
091412	12:01:26	10042	Trial3BackFr	NN	4	0	1000	1	119	12:01:26	1236349	0	0	0	0	0	0	0	0	0	0	0	0	0	0	0	0	0
091412	12:01:26	10042	Trial3BackFr	NN	4	0	1000	1	119	12:01:26	1237868	0	0	0	0	0	0	0	0	0	0	0	0	0	0	0	0	0
091412	12:01:26	10042	Trial3BackFr	NN	4	0	1000	1	119	12:01:26	1239388	0	0	0	0	0	0	0	0	0	0	0	0	0	0	0	0	0
091412	12:01:26	10042	Trial3BackFr	YY	4	0	1000	0	119	12:01:26	1240907	0	0	0	0	0	0	0	0	0	0	0	0	0	0	0	0	0
091412	12:01:26	10042	Trial3BackFr	NN	4	0	1000	1	119	12:01:26	1242427	0	0	0	0	0	0	0	0	0	0	0	0	0	0	0	0	0
091412	12:01:26	10042	Trial3BackFr	NN	4	0	1000	1	119	12:01:26	1243946	0	0	0	0	0	0	0	0	0	0	0	0	0	0	0	0	0
091412	12:01:26	10042	Trial3BackFr	NN	4	0	1000	1	119	12:01:26	1245465	0	0	0	0	0	0	0	0	0	0	0	0	0	0	0	0	0
091412	12:01:26	10042	Trial3BackFr	YY	4	0	1000	0	119	12:01:26	1246985	0	0	0	0	0	0	0	0	0	0	0	0	0	0	0	0	0
091412	12:01:26	10042	Trial3BackFr	NN	4	0	1000	1	119	12:01:26	1248504	0	0	0	0	0	0	0	0	0	0	0	0	0	0	0	0	0
091412	12:01:26	10042	Trial3BackFr	NN	4	0	1000	1	119	12:01:26	1250024	0	0	0	0	0	0	0	0	0	0	0	0	0	0	0	0	0
091412	12:01:26	10042	Trial3BackFr	NN	4	0	1000	1	119	12:01:26	1251543	0	0	0	0	0	0	0	0	0	0	0	0	0	0	0	0	0
091412	12:01:26	10042	Trial3BackFr	NN	4	0	1000	1	119	12:01:26	1253062	0	0	0	0	0	0	0	0	0	0	0	0	0	0	0	0	0
091412	12:01:26	10042	Trial3BackFr	NN	4	0	1000	1	119	12:01:26	1254582	0	0	0	0	0	0	0	0	0	0	0	0	0	0	0	0	0
091412	12:01:26	10042	Trial3BackFr	NN	4	0	1000	1	119	12:01:26	1256101	0	0	0	0	0	0	0	0	0	0	0	0	0	0	0	0	0
091412	12:01:26	10042	Trial3BackFr	NN	4	0	1000	1	119	12:01:26	1257621	0	0	0	0	0	0	0	0	0	0	0	0	0	0	0	0	0
091412	12:01:26	10042	Trial3BackFr	NN	4	0	1000	1	119	12:01:26	1259140	0	0	0	0	0	0	0	0	0	0	0	0	0	0	0	0	0
091412	12:01:26	10042	Trial3BackFr	NN	4	0	1000	1	119	12:01:26	1260660	0	0	0	0	0	0	0	0	0	0	0	0	0	0	0	0	0
091412	12:01:26	10042	Trial3BackFr	NN	4	0	1000	1	119	12:01:26	1262179	0	0	0	0	0	0	0	0	0	0	0	0	0	0	0	0	0
091412	12:01:26	10042	Trial3BackFr	YY	4	0	1000	0	119	12:01:26	1263698	0	0	0	0	0	0	0	0	0	0	0	0	0	0	0	0	0
091412	12:01:26	10042	Trial3BackFr	NN	4	0	1000	1	119	12:01:26	1265218	0	0	0	0	0	0	0	0	0	0	0	0	0	0	0	0	0
091412	12:01:26	10042	Trial3BackFr	NN	4	0	1000	1	119	12:01:26	1266737	0	0	0	0	0	0	0	0	0	0	0	0	0	0	0	0	0
091412	12:01:26	10042	Trial3BackFr	NN	4	0	1000	1	119	12:01:26	1268257	0	0	0	0	0	0	0	0	0	0	0	0	0	0	0	0	0
091412	12:01:26	10042	Trial3BackFr	NN	4	0	1000	1	119	12:01:26	1269776	0	0	0	0	0	0	0	0	0	0	0	0	0	0	0	0	0
091412	12:01:26	10042	Trial3BackFr	YY	4	0	1000	0	119	12:01:26	1271295	0	0	0	0	0	0	0	0	0	0	0	0	0	0	0	0	0
091412	12:01:26	10042	Trial3BackFr	NN	4	0	1000	1	119	12:01:26	1272815	0	0	0	0	0	0	0	0	0	0	0	0	0	0	0	0	0
091412	12:01:26	10042	Trial3BackFr	NN	4	0	1000	1	119	12:01:26	1274334	0	0	0	0	0	0	0	0	0	0	0	0	0	0	0	0	0
091412	12:01:26	10042	Trial3BackFr	NN	4	0	1000	1	119	12:01:26	1275853	0	0	0	0	0	0	0	0	0	0	0	0	0	0	0	0	0
091412	12:01:26	10042	Trial3BackFr	NN	4	0	1000	1	119	12:01:26	1277373	0	0	0	0	0	0	0	0	0	0	0	0	0	0	0	0	0
091412	12:01:26	10042	Trial3BackFr	NN	4	0	1000	1	119	12:01:26	1278892	0	0	0	0	0	0	0	0	0	0	0	0	0	0	0	0	0
091412	12:01:26	10042	Trial3BackFr	YY	4	57	378	1	119	12:01:26	1279798	0	0	0	0	0	0	0	0	0	0	0	0	0	0	0	0	0
091412	12:01:26	10042	Trial3BackFr	NN	4	0	1000	1	119	12:01:26	1281918	0	0	0	0	0	0	0	0	0	0	0	0	0	0	0	0	0
091412	12:01:26	10042	Trial3BackFr	NN	4	0	1000	1	119	12:01:26	1283437	0	0	0	0	0	0	0	0	0	0	0	0	0	0	0	0	0
091412	12:01:26	10042	Trial3BackFr	NN	4	0	1000	1	119	12:01:26	1284957	0	0	0	0	0	0	0	0	0	0	0	0	0	0	0	0	0
091412	12:01:26	10042	Trial3BackFr	NN	4	0	1000	1	119	12:01:26	1286476	0	0	0	0	0	0	0	0	0	0	0	0	0	0	0	0	0
091412	12:01:26	10042	Trial3BackFr	NN	4	0	1000	1	119	12:01:26	1287995	0	0	0	0	0	0	0	0	0	0	0	0	0	0	0	0	0
091412	12:01:26	10042	Trial3BackFr	NN	4	0	1000	1	119	12:01:26	1289515	0	0	0	0	0	0	0	0	0	0	0	0	0	0	0	0	0
091412	12:01:26	10042	Trial3BackFr	YY	4	0	1000	0	119	12:01:26	1291034	0	0	0	0	0	0	0	0	0	0	0	0	0	0	0	0	0
091412	12:01:26	10042	Trial3BackFr	NN	4	0	1000	1	119	12:01:26	1292554	0	0	0	0	0	0	0	0	0	0	0	0	0	0	0	0	0
091412	12:01:26	10042	Trial3BackFr	NN	4	0	1000	1	119	12:01:26	1294073	0	0	0	0	0	0	0	0	0	0	0	0	0	0	0	0	0
091412	12:01:26	10042	Trial3BackFr	NN	4	0	1000	1	119	12:01:26	1295592	0	0	0	0	0	0	0	0	0	0	0	0	0	0	0	0	0
091412	12:01:26	10042	Trial3BackFr	YY	4	0	1000	0	119	12:01:26	1297112	0	0	0	0	0	0	0	0	0	0	0	0	0	0	0	0	0
091412	12:01:26	10042	Trial3BackFr	NN	4	0	1000	1	119	12:01:26	1298631	0	0	0	0	0	0	0	0	0	0	0	0	0	0	0	0	0
091412	12:01:26	10042	Trial3BackFr	NN	4	0	1000	1	119	12:01:26	1300151	0	0	0	0	0	0	0	0	0	0	0	0	0	0	0	0	0
091412	12:01:26	10042	Trial3BackFr	NN	4	0	1000	1	119	12:01:26	1301670	0	0	0	0	0	0	0	0	0	0	0	0	0	0	0	0	0
091412	12:01:26	10042	Trial3BackFr	NN	4	0	1000	1	119	12:01:26	1303189	0	0	0	0	0	0	0	0	0	0	0	0	0	0	0	0	0
091412	12:01:26	10042	Trial3BackFr	NN	4	0	1000	1	119	12:01:26	1304709	0	0	0	0	0	0	0	0	0	0	0	0	0	0	0	0	0
091412	12:01:26	10042	Trial3BackFr	NN	4	0	1000	1	119	12:01:26	1306228	0	0	0	0	0	0	0	0	0	0	0	0	0	0	0	0	0
091412	12:01:26	10042	Trial3BackFr	NN	4	0	1000	1	119	12:01:26	1307748	0	0	0	0	0	0	0	0	0	0	0	0	0	0	0	0	0
091412	12:01:26	10042	Trial3BackFr	NN	4	0	1000	1	119	12:01:26	1309267	0	0	0	0	0	0	0	0	0	0	0	0	0	0	0	0	0
091412	12:01:26	10042	Trial3BackFr	NN	4	0	1000	1	119	12:01:26	1310786	0	0	0	0	0	0	0	0	0	0	0	0	0	0	0	0	0
091412	12:01:26	10042	Trial3BackFr	YY	4	0	1000	0	119	12:01:26	1312306	0	0	0	0	0	0	0	0	0	0	0	0	0	0	0	0	0
091412	12:01:26	10042	Trial3BackFr	NN	4	0	1000	1	119	12:01:26	1313825	0	0	0	0	0	0	0	0	0	0	0	0	0	0	0	0	0
091412	12:01:26	10042	Trial3BackFr	NN	4	0	1000	1	119	12:01:26	1315344	0	0	0	0	0	0	0	0	0	0	0	0	0	0	0	0	0
091412	12:01:26	10042	Trial3BackFr	NN	4	0	1000	1	119	12:01:26	1316864	0	0	0	0	0	0	0	0	0	0	0	0	0	0	0	0	0
091412	12:01:26	10042	Trial3BackFr	YY	4	0	1000	0	119	12:01:26	1318383	0	0	0	0	0	0	0	0	0	0	0	0	0	0	0	0	0
091412	12:01:26	10042	Trial3BackFr	NN	4	0	1000	1	119	12:01:26	1319903	0	0	0	0	0	0	0	0	0	0	0	0	0	0	0	0	0
091412	12:01:26	10042	Trial3BackFr	NN	4	0	1000	1	119	12:01:26	1321422	0	0	0	0	0	0	0	0	0	0	0	0	0	0	0	0	0
091412	12:01:26	10042	Trial3BackFr	NN	4	0	1000	1	119	12:01:26	1322942	0	0	0	0	0	0	0	0	0	0	0	0	0	0	0	0	0
091412	12:01:26	10042	Trial3BackFr	NN	4	0	1000	1	119	12:01:26	1324461	0	0	0	0	0	0	0	0	0	0	0	0	0	0	0	0	0
091412	12:01:26	10042	Trial3BackFr	NN	4	0	1000	1	119	12:01:26	1325980	0	0	0	0	0	0	0	0	0	0	0	0	0	0	0	0	0
091412	12:01:26	10042	Trial3BackFr	YY	4	57	377	1	119	12:01:26	1326887	0	0	0	0	0	0	0	0	0	0	0	0	0	0	0	0	0
091412	12:01:26	10042	Trial3BackFr	NN	4	0	1000	1	119	12:01:26	1329006	0	0	0	0	0	0	0	0	0	0	0	0	0	0	0	0	0
091412	12:01:26	10042	Trial3BackFr	NN	4	0	1000	1	119	12:01:26	1330525	0	0	0	0	0	0	0	0	0	0	0	0	0	0	0	0	0
091412	12:01:26	10042	Trial3BackFr	NN	4	0	1000	1	119	12:01:26	1332045	0	0	0	0	0	0	0	0	0	0	0	0	0	0	0	0	0
091412	12:01:26	10042	Trial3BackFr	NN	4	0	1000	1	119	12:01:26	1333564	0	0	0	0	0	0	0	0	0	0	0	0	0	0	0	0	0
091412	12:01:26	10042	Trial3BackFr	NN	4	0	1000	1	119	12:01:26	1335084	0	0	0	0	0	0	0	0	0	0	0	0	0	0	0	0	0
091412	12:01:26	10042	Trial3BackFr	NN	4	0	1000	1	119	12:01:26	1336603	0	0	0	0	0	0	0	0	0	0	0	0	0	0	0	0	0
091412	12:01:26	10042	Trial3BackFr	NN	4	0	1000	1	119	12:01:26	1338122	0	0	0	0	0	0	0	0	0	0	0	0	0	0	0	0	0
091412	12:01:26	10042	Trial3BackFr	NN	4	0	1000	1	119	12:01:26	1339642	0	0	0	0	0	0	0	0	0	0	0	0	0	0	0	0	0
091412	12:01:26	10042	Trial3BackFr	NN	4	0	1000	1	119	12:01:26	1341161	0	0	0	0	0	0	0	0	0	0	0	0	0	0	0	0	0
091412	12:01:26	10042	Trial3BackFr	YY	4	57	812	1	119	12:01:26	1342507	0	0	0	0	0	0	0	0	0	0	0	0	0	0	0	0	0
091412	12:01:26	10042	Trial3BackFr	NN	4	0	1000	1	119	12:01:26	1344186	0	0	0	0	0	0	0	0	0	0	0	0	0	0	0	0	0
091412	12:01:26	10042	Trial3BackFr	NN	4	0	1000	1	119	12:01:26	1345706	0	0	0	0	0	0	0	0	0	0	0	0	0	0	0	0	0
091412	12:01:26	10042	Trial3BackFr	NN	4	0	1000	1	119	12:01:26	1347225	0	0	0	0	0	0	0	0	0	0	0	0	0	0	0	0	0
091412	12:01:26	10042	Trial3BackFr	NN	4	0	1000	1	119	12:01:26	1348758	0	0	0	0	0	0	0	0	0	0	0	0	0	0	0	0	0
091412	12:01:26	10042	Trial3BackFr	NN	4	0	1000	1	119	12:01:26	1350278	0	0	0	0	0	0	0	0	0	0	0	0	0	0	0	0	0
091412	12:01:26	10042	Trial3BackFr	NN	4	0	1000	1	119	12:01:26	1351797	0	0	0	0	0	0	0	0	0	0	0	0	0	0	0	0	0
091412	12:01:26	10042	Trial3BackFr	NN	4	0	1000	1	119	12:01:26	1353316	0	0	0	0	0	0	0	0	0	0	0	0	0	0	0	0	0
091412	12:01:26	10042	Trial3BackFr	NN	4	0	1000	1	119	12:01:26	1354836	0	0	0	0	0	0	0	0	0	0	0	0	0	0	0	0	0
091412	12:01:26	10042	Trial3BackFr	YY	4	0	1000	0	119	12:01:26	1356355	0	0	0	0	0	0	0	0	0	0	0	0	0	0	0	0	0
091412	12:01:26	10042	Trial3BackFr	NN	4	0	1000	1	119	12:01:26	1357874	0	0	0	0	0	0	0	0	0	0	0	0	0	0	0	0	0
091412	12:01:26	10042	Trial3BackFr	NN	4	0	1000	1	119	12:01:26	1359394	0	0	0	0	0	0	0	0	0	0	0	0	0	0	0	0	0
091412	12:01:26	10042	Trial3BackFr	NN	4	0	1000	1	119	12:01:26	1360913	0	0	0	0	0	0	0	0	0	0	0	0	0	0	0	0	0
091412	12:01:26	10042	Trial3BackFr	NN	4	0	1000	1	119	12:01:26	1362433	0	0	0	0	0	0	0	0	0	0	0	0	0	0	0	0	0
091412	12:01:26	10042	Trial3BackFr	YY	4	0	1000	0	119	12:01:26	1363952	0	0	0	0	0	0	0	0	0	0	0	0	0	0	0	0	0
091412	12:01:26	10042	Trial3BackFr	NN	4	0	1000	1	119	12:01:26	1365471	0	0	0	0	0	0	0	0	0	0	0	0	0	0	0	0	0
091412	12:01:26	10042	Trial3BackFr	NN	4	0	1000	1	119	12:01:26	1366991	0	0	0	0	0	0	0	0	0	0	0	0	0	0	0	0	0
091412	12:01:26	10042	Trial3BackFr	NN	4	0	1000	1	119	12:01:26	1368510	0	0	0	0	0	0	0	0	0	0	0	0	0	0	0	0	0
091412	12:01:26	10042	Trial3BackFr	YY	4	0	1000	0	119	12:01:26	1370030	0	0	0	0	0	0	0	0	0	0	0	0	0	0	0	0	0
091412	12:01:26	10042	Trial3BackFr	NN	4	0	1000	1	119	12:01:26	1371549	0	0	0	0	0	0	0	0	0	0	0	0	0	0	0	0	0
091412	12:01:26	10042	Trial3BackFr	NN	4	0	1000	1	119	12:01:26	1373069	0	0	0	0	0	0	0	0	0	0	0	0	0	0	0	0	0
091412	12:01:26	10042	Trial3BackFr	NN	4	0	1000	1	119	12:01:26	1374588	0	0	0	0	0	0	0	0	0	0	0	0	0	0	0	0	0
091412	12:01:26	10042	Trial3BackFr	NN	4	0	1000	1	119	12:01:26	1376107	0	0	0	0	0	0	0	0	0	0	0	0	0	0	0	0	0
091412	12:01:26	10042	Trial3BackFr	NN	4	0	1000	1	119	12:01:26	1377627	0	0	0	0	0	0	0	0	0	0	0	0	0	0	0	0	0
091412	12:01:26	10042	Trial3BackFr	YY	4	57	666	1	119	12:01:26	1378826	0	0	0	0	0	0	0	0	0	0	0	0	0	0	0	0	0
091412	12:01:26	10042	Trial3BackFr	NN	4	0	1000	1	119	12:01:26	1380652	0	0	0	0	0	0	0	0	0	0	0	0	0	0	0	0	0
091412	12:01:26	10042	Trial3BackFr	NN	4	0	1000	1	119	12:01:26	1382172	0	0	0	0	0	0	0	0	0	0	0	0	0	0	0	0	0
091412	12:01:26	10042	Trial3BackFr	NN	4	0	1000	1	119	12:01:26	1383691	0	0	0	0	0	0	0	0	0	0	0	0	0	0	0	0	0
091412	12:01:26	10042	Trial3BackFr	YY	4	57	602	1	119	12:01:26	1384824	0	0	0	0	0	0	0	0	0	0	0	0	0	0	0	0	0
091412	12:01:26	10042	Memory1RBaselineFr	ScoreFr	5	M1	20130	0	119	12:01:26	1443214	0	0	0	0	0	0	0	0	0	0	0	0	0	0	0	0	0
091412	12:01:26	10042	Memory1RBaselineFr	ScoreFr	5	M2	267	0	119	12:01:26	1443521	0	0	0	0	0	0	0	0	0	0	0	0	0	0	0	0	0
091412	12:01:26	10042	Memory1RBaselineFr	ScoreFr	5	M4	1658	0	119	12:01:26	1445214	0	0	0	0	0	0	0	0	0	0	0	0	0	0	0	0	0
091412	12:01:26	10042	Memory1RBaselineFr	ScoreFr	5	M6	1486	0	119	12:01:26	1446733	0	0	0	0	0	0	0	0	0	0	0	0	0	0	0	0	0
091412	12:01:26	10042	Memory1RBaselineFr	ScoreFr	5	M7	246	0	119	12:01:26	1447013	0	0	0	0	0	0	0	0	0	0	0	0	0	0	0	0	0
091412	12:01:26	10042	Memory1RBaselineFr	ScoreFr	5	Done	590	0	119	12:01:26	1447639	0	0	0	0	0	0	0	0	0	0	0	0	0	0	0	0	0
091412	12:01:26	10042	Memory2RBaselineFr	ScoreFr2	5	22	47384	0	119	12:01:26	1516612	0	0	0	0	0	0	0	0	0	0	0	0	0	0	0	0	0
091412	12:01:26	10042	Memory2RBaselineFr	ScoreFr2	5	11	453	0	119	12:01:26	1517132	0	0	0	0	0	0	0	0	0	0	0	0	0	0	0	0	0
091412	12:01:26	10042	Memory2RBaselineFr	ScoreFr2	5	33	487	0	119	12:01:26	1517692	0	0	0	0	0	0	0	0	0	0	0	0	0	0	0	0	0
091412	12:01:26	10042	Memory2RBaselineFr	ScoreFr2	5	44	594	0	119	12:01:26	1518385	0	0	0	0	0	0	0	0	0	0	0	0	0	0	0	0	0
091412	12:01:26	10042	Memory2RBaselineFr	ScoreFr2	5	55	259	0	119	12:01:26	1518718	0	0	0	0	0	0	0	0	0	0	0	0	0	0	0	0	0
091412	12:01:26	10042	Memory2RBaselineFr	ScoreFr2	5	66	317	0	119	12:01:26	1519118	0	0	0	0	0	0	0	0	0	0	0	0	0	0	0	0	0
091412	12:01:26	10042	Memory2RBaselineFr	ScoreFr2	5	77	457	0	119	12:01:26	1519638	0	0	0	0	0	0	0	0	0	0	0	0	0	0	0	0	0
091412	12:01:26	10042	Memory2RBaselineFr	ScoreFr2	5	88	446	0	119	12:01:26	1520157	0	0	0	0	0	0	0	0	0	0	0	0	0	0	0	0	0
091412	12:01:26	10042	Memory2RBaselineFr	ScoreFr2	5	Done	939	0	119	12:01:26	1521157	0	0	0	0	0	0	0	0	0	0	0	0	0	0	0	0	0
091412	12:01:26	10042	Memory3RBaselineFr	ScoreFr3	5	111	23373	0	119	12:01:26	1563647	0	0	0	0	0	0	0	0	0	0	0	0	0	0	0	0	0
091412	12:01:26	10042	Memory3RBaselineFr	ScoreFr3	5	222	263	0	119	12:01:26	1563980	0	0	0	0	0	0	0	0	0	0	0	0	0	0	0	0	0
091412	12:01:26	10042	Memory3RBaselineFr	ScoreFr3	5	555	2112	0	119	12:01:26	1566166	0	0	0	0	0	0	0	0	0	0	0	0	0	0	0	0	0
091412	12:01:26	10042	Memory3RBaselineFr	ScoreFr3	5	666	379	0	119	12:01:26	1566619	0	0	0	0	0	0	0	0	0	0	0	0	0	0	0	0	0
091412	12:01:26	10042	Memory3RBaselineFr	ScoreFr3	5	777	397	0	119	12:01:26	1567086	0	0	0	0	0	0	0	0	0	0	0	0	0	0	0	0	0
091412	12:01:26	10042	Memory3RBaselineFr	ScoreFr3	5	444	9318	0	119	12:01:26	1576468	0	0	0	0	0	0	0	0	0	0	0	0	0	0	0	0	0
091412	12:01:26	10042	Memory3RBaselineFr	ScoreFr3	5	333	7950	0	119	12:01:26	1584492	0	0	0	0	0	0	0	0	0	0	0	0	0	0	0	0	0
091412	12:01:26	10042	Memory3RBaselineFr	ScoreFr3	5	Done	15406	0	119	12:01:26	1599979	0	0	0	0	0	0	0	0	0	0	0	0	0	0	0	0	0
091412	12:01:26	10042	LoriaFrLH3	Stop	6	3	5034	0	119	12:01:26	1689239	0	0	0	0	0	0	0	0	0	0	0	0	0	0	0	0	0
091412	12:01:26	10042	FrTrail	Trails	7	1Trails	1033	0	119	12:01:26	1746215	0	0	0	0	0	0	0	0	0	0	0	0	0	0	0	0	0
091412	12:01:26	10042	Serial7FrBaseline	Serial7FrBaseline	8	83	20476	0	119	12:01:26	1794052	1	0	0	0	0	0	0	0	0	0	0	0	0	0	0	0	0
091412	12:01:26	10042	Serial7FrBaseline	Serial7FrBaseline	8	76	2617	0	119	12:01:26	1796691	2	0	0	0	0	0	0	0	0	0	0	0	0	0	0	0	0
091412	12:01:26	10042	Serial7FrBaseline	Serial7FrBaseline	8	69	2281	0	119	12:01:26	1798997	3	0	0	0	0	0	0	0	0	0	0	0	0	0	0	0	0
091412	12:01:26	10042	Serial7FrBaseline	Serial7FrBaseline	8	62	2307	0	119	12:01:26	1801330	4	0	0	0	0	0	0	0	0	0	0	0	0	0	0	0	0
091412	12:01:26	10042	Serial7FrBaseline	Serial7FrBaseline	8	55	2202	0	119	12:01:26	1803556	5	0	0	0	0	0	0	0	0	0	0	0	0	0	0	0	0
091412	12:01:26	10042	corsiblockFrFwrd	recallseqFrFwrd	9	4	2658	0	119	12:01:26	1853043	5	0	0	0	0	0	0	0	0	0	0	0	0	0	0	0	0
091412	12:01:26	10042	corsiblockFrFwrd	recallseqFrFwrd	9	3	966	0	119	12:01:26	1854043	5	0	0	0	0	0	0	0	0	0	0	0	0	0	0	0	0
091412	12:01:26	10042	corsiblockFrFwrd	recallseqFrFwrd	9	doneCorsiFr	2278	0	119	12:01:26	1856362	5	0	0	0	0	0	0	0	0	0	0	0	0	0	0	2	0
091412	12:01:26	10042	corsiblockFrFwrd	recallseqFrFwrd	9	6	1740	0	119	12:01:26	1864185	5	0	0	0	0	0	0	0	0	0	0	0	0	0	0	2	0
091412	12:01:26	10042	corsiblockFrFwrd	recallseqFrFwrd	9	7	1319	0	119	12:01:26	1865545	5	0	0	0	0	0	0	0	0	0	0	0	0	0	0	2	0
091412	12:01:26	10042	corsiblockFrFwrd	recallseqFrFwrd	9	1	984	0	119	12:01:26	1866571	5	0	0	0	0	0	0	0	0	0	0	0	0	0	0	2	0
091412	12:01:26	10042	corsiblockFrFwrd	recallseqFrFwrd	9	doneCorsiFr	1494	0	119	12:01:26	1868104	5	0	0	0	0	0	0	0	0	0	0	0	0	0	0	3	0
091412	12:01:26	10042	corsiblockFrFwrd	recallseqFrFwrd	9	2	973	0	119	12:01:26	1876167	5	0	0	0	0	0	0	0	0	0	0	0	0	0	0	3	0
091412	12:01:26	10042	corsiblockFrFwrd	recallseqFrFwrd	9	9	809	0	119	12:01:26	1877020	5	0	0	0	0	0	0	0	0	0	0	0	0	0	0	3	0
091412	12:01:26	10042	corsiblockFrFwrd	recallseqFrFwrd	9	5	1372	0	119	12:01:26	1878433	5	0	0	0	0	0	0	0	0	0	0	0	0	0	0	3	0
091412	12:01:26	10042	corsiblockFrFwrd	recallseqFrFwrd	9	8	648	0	119	12:01:26	1879126	5	0	0	0	0	0	0	0	0	0	0	0	0	0	0	3	0
091412	12:01:26	10042	corsiblockFrFwrd	recallseqFrFwrd	9	doneCorsiFr	1067	0	119	12:01:26	1880232	5	0	0	0	0	0	0	0	0	0	0	0	0	0	0	4	0
091412	12:01:26	10042	corsiblockFrFwrd	recallseqFrFwrd	9	6	1174	0	119	12:01:26	1889495	5	0	0	0	0	0	0	0	0	0	0	0	0	0	0	4	0
091412	12:01:26	10042	corsiblockFrFwrd	recallseqFrFwrd	9	4	833	0	119	12:01:26	1890375	5	0	0	0	0	0	0	0	0	0	0	0	0	0	0	4	0
091412	12:01:26	10042	corsiblockFrFwrd	recallseqFrFwrd	9	9	1255	0	119	12:01:26	1891668	5	0	0	0	0	0	0	0	0	0	0	0	0	0	0	4	0
091412	12:01:26	10042	corsiblockFrFwrd	recallseqFrFwrd	9	2	1172	0	119	12:01:26	1892881	5	0	0	0	0	0	0	0	0	0	0	0	0	0	0	4	0
091412	12:01:26	10042	corsiblockFrFwrd	recallseqFrFwrd	9	3	1104	0	119	12:01:26	1894027	5	0	0	0	0	0	0	0	0	0	0	0	0	0	0	4	0
091412	12:01:26	10042	corsiblockFrFwrd	recallseqFrFwrd	9	doneCorsiFr	3365	0	119	12:01:26	1897425	5	0	0	0	0	0	0	0	0	0	0	0	0	0	0	4	0
091412	12:01:26	10042	corsiblockFrFwrd	recallseqFrFwrd	9	5	1180	0	119	12:01:26	1906662	5	0	0	0	0	0	0	0	0	0	0	0	0	0	0	4	0
091412	12:01:26	10042	corsiblockFrFwrd	recallseqFrFwrd	9	1	1274	0	119	12:01:26	1907982	5	0	0	0	0	0	0	0	0	0	0	0	0	0	0	4	0
091412	12:01:26	10042	corsiblockFrFwrd	recallseqFrFwrd	9	8	1378	0	119	12:01:26	1909394	5	0	0	0	0	0	0	0	0	0	0	0	0	0	0	4	0
091412	12:01:26	10042	corsiblockFrFwrd	recallseqFrFwrd	9	7	1062	0	119	12:01:26	1910500	5	0	0	0	0	0	0	0	0	0	0	0	0	0	0	4	0
091412	12:01:26	10042	corsiblockFrFwrd	recallseqFrFwrd	9	8	1091	0	119	12:01:26	1911633	5	0	0	0	0	0	0	0	0	0	0	0	0	0	0	4	0
091412	12:01:26	10042	corsiblockFrFwrd	recallseqFrFwrd	9	doneCorsiFr	1345	0	119	12:01:26	1913019	5	0	0	0	0	0	0	0	0	0	0	0	0	0	0	5	0
091412	12:01:26	10042	corsiblockFrFwrd	recallseqFrFwrd	9	6	1394	0	119	12:01:26	1922509	5	0	0	0	0	0	0	0	0	0	0	0	0	0	0	5	0
091412	12:01:26	10042	corsiblockFrFwrd	recallseqFrFwrd	9	3	667	0	119	12:01:26	1923215	5	0	0	0	0	0	0	0	0	0	0	0	0	0	0	5	0
091412	12:01:26	10042	corsiblockFrFwrd	recallseqFrFwrd	9	2	792	0	119	12:01:26	1924042	5	0	0	0	0	0	0	0	0	0	0	0	0	0	0	5	0
091412	12:01:26	10042	corsiblockFrFwrd	recallseqFrFwrd	9	9	942	0	119	12:01:26	1925028	5	0	0	0	0	0	0	0	0	0	0	0	0	0	0	5	0
091412	12:01:26	10042	corsiblockFrFwrd	recallseqFrFwrd	9	5	991	0	119	12:01:26	1926068	5	0	0	0	0	0	0	0	0	0	0	0	0	0	0	5	0
091412	12:01:26	10042	corsiblockFrFwrd	recallseqFrFwrd	9	1	908	0	119	12:01:26	1927014	5	0	0	0	0	0	0	0	0	0	0	0	0	0	0	5	0
091412	12:01:26	10042	corsiblockFrFwrd	recallseqFrFwrd	9	doneCorsiFr	2242	0	119	12:01:26	1929293	5	0	0	0	0	0	0	0	0	0	0	0	0	0	0	5	0
091412	12:01:26	10042	corsiblockFrFwrd	recallseqFrFwrd	9	4	1720	0	119	12:01:26	1940062	5	0	0	0	0	0	0	0	0	0	0	0	0	0	0	5	0
091412	12:01:26	10042	corsiblockFrFwrd	recallseqFrFwrd	9	7	1625	0	119	12:01:26	1941728	5	0	0	0	0	0	0	0	0	0	0	0	0	0	0	5	0
091412	12:01:26	10042	corsiblockFrFwrd	recallseqFrFwrd	9	1	1800	0	119	12:01:26	1943568	5	0	0	0	0	0	0	0	0	0	0	0	0	0	0	5	0
091412	12:01:26	10042	corsiblockFrFwrd	recallseqFrFwrd	9	7	1015	0	119	12:01:26	1944621	5	0	0	0	0	0	0	0	0	0	0	0	0	0	0	5	0
091412	12:01:26	10042	corsiblockFrFwrd	recallseqFrFwrd	9	9	906	0	119	12:01:26	1945567	5	0	0	0	0	0	0	0	0	0	0	0	0	0	0	5	0
091412	12:01:26	10042	corsiblockFrFwrd	recallseqFrFwrd	9	doneCorsiFr	3585	0	119	12:01:26	1949192	5	0	0	0	0	0	0	0	0	0	0	0	0	0	0	5	0
091412	12:01:26	10042	corsiblockFrRev	recallseqFrRev	10	2	3791	0	119	12:01:26	1966665	5	0	0	0	0	0	0	0	0	0	0	0	0	0	0	5	0
091412	12:01:26	10042	corsiblockFrRev	recallseqFrRev	10	3	1374	0	119	12:01:26	1968078	5	0	0	0	0	0	0	0	0	0	0	0	0	0	0	5	0
091412	12:01:26	10042	corsiblockFrRev	recallseqFrRev	10	doneCorsiFr	1569	0	119	12:01:26	1969690	5	0	0	0	0	0	0	0	0	0	0	0	0	0	0	5	2
091412	12:01:26	10042	corsiblockFrRev	recallseqFrRev	10	9	2786	0	119	12:01:26	1978567	5	0	0	0	0	0	0	0	0	0	0	0	0	0	0	5	2
091412	12:01:26	10042	corsiblockFrRev	recallseqFrRev	10	6	977	0	119	12:01:26	1979580	5	0	0	0	0	0	0	0	0	0	0	0	0	0	0	5	2
091412	12:01:26	10042	corsiblockFrRev	recallseqFrRev	10	7	1051	0	119	12:01:26	1980673	5	0	0	0	0	0	0	0	0	0	0	0	0	0	0	5	2
091412	12:01:26	10042	corsiblockFrRev	recallseqFrRev	10	doneCorsiFr	1246	0	119	12:01:26	1981952	5	0	0	0	0	0	0	0	0	0	0	0	0	0	0	5	3
091412	12:01:26	10042	corsiblockFrRev	recallseqFrRev	10	5	1428	0	119	12:01:26	1990469	5	0	0	0	0	0	0	0	0	0	0	0	0	0	0	5	3
091412	12:01:26	10042	corsiblockFrRev	recallseqFrRev	10	1	986	0	119	12:01:26	1991495	5	0	0	0	0	0	0	0	0	0	0	0	0	0	0	5	3
091412	12:01:26	10042	corsiblockFrRev	recallseqFrRev	10	4	880	0	119	12:01:26	1992415	5	0	0	0	0	0	0	0	0	0	0	0	0	0	0	5	3
091412	12:01:26	10042	corsiblockFrRev	recallseqFrRev	10	8	944	0	119	12:01:26	1993401	5	0	0	0	0	0	0	0	0	0	0	0	0	0	0	5	3
091412	12:01:26	10042	corsiblockFrRev	recallseqFrRev	10	doneCorsiFr	598	0	119	12:01:26	1994041	5	0	0	0	0	0	0	0	0	0	0	0	0	0	0	5	4
091412	12:01:26	10042	corsiblockFrRev	recallseqFrRev	10	8	2300	0	119	12:01:26	2004437	5	0	0	0	0	0	0	0	0	0	0	0	0	0	0	5	4
091412	12:01:26	10042	corsiblockFrRev	recallseqFrRev	10	5	722	0	119	12:01:26	2005197	5	0	0	0	0	0	0	0	0	0	0	0	0	0	0	5	4
091412	12:01:26	10042	corsiblockFrRev	recallseqFrRev	10	1	1242	0	119	12:01:26	2006476	5	0	0	0	0	0	0	0	0	0	0	0	0	0	0	5	4
091412	12:01:26	10042	corsiblockFrRev	recallseqFrRev	10	3	811	0	119	12:01:26	2007329	5	0	0	0	0	0	0	0	0	0	0	0	0	0	0	5	4
091412	12:01:26	10042	corsiblockFrRev	recallseqFrRev	10	6	830	0	119	12:01:26	2008195	5	0	0	0	0	0	0	0	0	0	0	0	0	0	0	5	4
091412	12:01:26	10042	corsiblockFrRev	recallseqFrRev	10	doneCorsiFr	1484	0	119	12:01:26	2009715	5	0	0	0	0	0	0	0	0	0	0	0	0	0	0	5	4
091412	12:01:26	10042	corsiblockFrRev	recallseqFrRev	10	9	4522	0	119	12:01:26	2022283	5	0	0	0	0	0	0	0	0	0	0	0	0	0	0	5	4
091412	12:01:26	10042	corsiblockFrRev	recallseqFrRev	10	1	1387	0	119	12:01:26	2023709	5	0	0	0	0	0	0	0	0	0	0	0	0	0	0	5	4
091412	12:01:26	10042	corsiblockFrRev	recallseqFrRev	10	4	862	0	119	12:01:26	2024642	5	0	0	0	0	0	0	0	0	0	0	0	0	0	0	5	4
091412	12:01:26	10042	corsiblockFrRev	recallseqFrRev	10	2	596	0	119	12:01:26	2025282	5	0	0	0	0	0	0	0	0	0	0	0	0	0	0	5	4
091412	12:01:26	10042	corsiblockFrRev	recallseqFrRev	10	7	869	0	119	12:01:26	2026188	5	0	0	0	0	0	0	0	0	0	0	0	0	0	0	5	4
091412	12:01:26	10042	corsiblockFrRev	recallseqFrRev	10	doneCorsiFr	2050	0	119	12:01:26	2028281	5	0	0	0	0	0	0	0	0	0	0	0	0	0	0	5	4
091412	12:01:26	10042	testFrBaseline	WordsFrBaseline	11	1FrBaseline	1839	0	119	12:01:26	2068559	5	1	0	0	0	0	0	0	0	0	0	0	0	0	0	5	4
091412	12:01:26	10042	testFrBaseline	WordsFrBaseline	11	2FrBaseline	232	0	119	12:01:26	2068839	5	1	1	0	0	0	0	0	0	0	0	0	0	0	0	5	4
091412	12:01:26	10042	testFrBaseline	WordsFrBaseline	11	3FrBaseline	1951	0	119	12:01:26	2070824	5	1	1	1	0	0	0	0	0	0	0	0	0	0	0	5	4
091412	12:01:26	10042	testFrBaseline	WordsFrBaseline	11	4FrBaseline	222	0	119	12:01:26	2071091	5	1	1	1	1	0	0	0	0	0	0	0	0	0	0	5	4
091412	12:01:26	10042	testFrBaseline	WordsFrBaseline	11	6FrBaseline	2428	0	119	12:01:26	2073556	5	1	1	1	1	0	1	0	0	0	0	0	0	0	0	5	4
091412	12:01:26	10042	testFrBaseline	WordsFrBaseline	11	7FrBaseline	170	0	119	12:01:26	2073770	5	1	1	1	1	0	1	1	0	0	0	0	0	0	0	5	4
091412	12:01:26	10042	testFrBaseline	WordsFrBaseline	11	DoneFrBaseline	2485	0	119	12:01:26	2076289	5	1	1	1	1	0	1	1	0	0	0	0	0	0	0	5	4
091412	12:01:26	10042	testFrBaseline	Cat5FrBaseline	11	R5FrBaseline	10118	0	119	12:01:26	2086444	5	1	1	1	1	2	1	1	0	0	0	0	0	0	0	5	4
091412	12:01:26	10042	testFrBaseline	Cat8FrBaseline	11	R8FrBaseline	5466	0	119	12:01:26	2091949	5	1	1	1	1	2	1	1	2	0	0	0	0	0	0	5	4
091412	12:01:26	10042	DigitSpanFwrdFrBaseline	Score1FwrdFrBaseline	12	DS1	6575	0	119	12:01:26	2118618	5	1	1	1	1	2	1	1	2	0	0	0	0	0	0	5	4
091412	12:01:26	10042	DigitSpanFwrdFrBaseline	Gate1FwrdFrBaseline	12	0	1	0	119	12:01:26	2118634	5	1	1	1	1	2	1	1	2	3	0	0	0	0	0	5	4
091412	12:01:26	10042	DigitSpanFwrdFrBaseline	Score2FwrdFrBaseline	12	DS1	2860	0	119	12:01:26	2127695	5	1	1	1	1	2	1	1	2	3	0	0	0	0	0	5	4
091412	12:01:26	10042	DigitSpanFwrdFrBaseline	Gate3FwrdFrBaseline	12	0	1	0	119	12:01:26	2127710	5	1	1	1	1	2	1	1	2	4	0	0	0	0	0	5	4
091412	12:01:26	10042	DigitSpanFwrdFrBaseline	Score3FwrdFrBaseline	12	DS1	7181	0	119	12:01:26	2141849	5	1	1	1	1	2	1	1	2	4	0	0	0	0	0	5	4
091412	12:01:26	10042	DigitSpanFwrdFrBaseline	Gate5FwrdFrBaseline	12	0	1	0	119	12:01:26	2141865	5	1	1	1	1	2	1	1	2	5	0	0	0	0	0	5	4
091412	12:01:26	10042	DigitSpanFwrdFrBaseline	Score4FwrdFrBaseline	12	DS1	3277	0	119	12:01:26	2153672	5	1	1	1	1	2	1	1	2	5	0	0	0	0	0	5	4
091412	12:01:26	10042	DigitSpanFwrdFrBaseline	Gate7FwrdFrBaseline	12	0	1	0	119	12:01:26	2153687	5	1	1	1	1	2	1	1	2	6	0	0	0	0	0	5	4
091412	12:01:26	10042	DigitSpanFwrdFrBaseline	Score5FwrdFrBaseline	12	DS1	4123	0	119	12:01:26	2169905	5	1	1	1	1	2	1	1	2	6	0	0	0	0	0	5	4
091412	12:01:26	10042	DigitSpanFwrdFrBaseline	Gate9FwrdFrBaseline	12	0	1	0	119	12:01:26	2169920	5	1	1	1	1	2	1	1	2	7	0	0	0	0	0	5	4
091412	12:01:26	10042	DigitSpanFwrdFrBaseline	Score6FwrdFrBaseline	12	DS1	5359	0	119	12:01:26	2188484	5	1	1	1	1	2	1	1	2	8	0	0	0	0	0	5	4
091412	12:01:26	10042	DigitSpanFrBaseline	Score1FrBaseline	13	DS1	3032	0	119	12:01:26	2210342	5	1	1	1	1	2	1	1	2	8	0	0	0	0	0	5	4
091412	12:01:26	10042	DigitSpanFrBaseline	Gate1FrBaseline	13	0	1	0	119	12:01:26	2210358	5	1	1	1	1	2	1	1	2	8	2	0	0	0	0	5	4
091412	12:01:26	10042	DigitSpanFrBaseline	Score2FrBaseline	13	DS1	6126	0	119	12:01:26	2220965	5	1	1	1	1	2	1	1	2	8	2	0	0	0	0	5	4
091412	12:01:26	10042	DigitSpanFrBaseline	Gate3FrBaseline	13	0	1	0	119	12:01:26	2220981	5	1	1	1	1	2	1	1	2	8	3	0	0	0	0	5	4
091412	12:01:26	10042	DigitSpanFrBaseline	Score3FrBaseline	13	DS1	8741	0	119	12:01:26	2235439	5	1	1	1	1	2	1	1	2	8	3	0	0	0	0	5	4
091412	12:01:26	10042	DigitSpanFrBaseline	Gate5FrBaseline	13	0	1	0	119	12:01:26	2235454	5	1	1	1	1	2	1	1	2	8	4	0	0	0	0	5	4
091412	12:01:26	10042	DigitSpanFrBaseline	Score4FrBaseline	13	DS1	5938	0	119	12:01:26	2248661	5	1	1	1	1	2	1	1	2	8	4	0	0	0	0	5	4
091412	12:01:26	10042	DigitSpanFrBaseline	Gate7FrBaseline	13	0	1	0	119	12:01:26	2248676	5	1	1	1	1	2	1	1	2	8	5	0	0	0	0	5	4
091412	12:01:26	10042	DigitSpanFrBaseline	Score5FrBaseline	13	DS1	5609	0	119	12:01:26	2263095	5	1	1	1	1	2	1	1	2	8	5	0	0	0	0	5	4
091412	12:01:26	10042	DigitSpanFrBaseline	Gate9FrBaseline	13	0	1	0	119	12:01:26	2263110	5	1	1	1	1	2	1	1	2	8	6	0	0	0	0	5	4
091412	12:01:26	10042	DigitSpanFrBaseline	Score6FrBaseline	13	DS1	7017	0	119	12:01:26	2279902	5	1	1	1	1	2	1	1	2	8	7	0	0	0	0	5	4
091412	12:01:26	10042	Trial	IncongruentRight	14	0	737	0	119	12:01:26	2339184	5	1	1	1	1	2	1	1	2	8	7	0	0	0	0	5	4
091412	12:01:26	10042	Trial	IncongruentLeft	14	203	440	1	119	12:01:26	2339904	5	1	1	1	1	2	1	1	2	8	7	0	0	0	0	5	4
091412	12:01:26	10042	Trial	CongruentRight	14	205	416	1	119	12:01:26	2340877	5	1	1	1	1	2	1	1	2	8	7	0	0	0	0	5	4
091412	12:01:26	10042	Trial	IncongruentRight	14	205	440	1	119	12:01:26	2341903	5	1	1	1	1	2	1	1	2	8	7	0	0	0	0	5	4
091412	12:01:26	10042	Trial	CongruentLeft	14	203	401	1	119	12:01:26	2342863	5	1	1	1	1	2	1	1	2	8	7	0	0	0	0	5	4
091412	12:01:26	10042	Trial	CongruentRight	14	205	508	1	119	12:01:26	2343982	5	1	1	1	1	2	1	1	2	8	7	0	0	0	0	5	4
091412	12:01:26	10042	Trial	IncongruentRight	14	205	516	1	119	12:01:26	2344982	5	1	1	1	1	2	1	1	2	8	7	0	0	0	0	5	4
091412	12:01:26	10042	Trial	CongruentLeft	14	203	365	1	119	12:01:26	2345835	5	1	1	1	1	2	1	1	2	8	7	0	0	0	0	5	4
091412	12:01:26	10042	Trial	IncongruentLeft	14	205	293	0	119	12:01:26	2346768	5	1	1	1	1	2	1	1	2	8	7	0	0	0	0	5	4
091412	12:01:26	10042	Trial	IncongruentLeft	14	203	477	1	119	12:01:26	2347941	5	1	1	1	1	2	1	1	2	8	7	0	0	0	0	5	4
091412	12:01:26	10042	Trial	CongruentRight	14	205	406	1	119	12:01:26	2348874	5	1	1	1	1	2	1	1	2	8	7	0	0	0	0	5	4
091412	12:01:26	10042	Trial	IncongruentRight	14	205	414	1	119	12:01:26	2349887	5	1	1	1	1	2	1	1	2	8	7	0	0	0	0	5	4
091412	12:01:26	10042	Trial	CongruentLeft	14	203	406	1	119	12:01:26	2350873	5	1	1	1	1	2	1	1	2	8	7	0	0	0	0	5	4
091412	12:01:26	10042	Trial	CongruentRight	14	205	543	1	119	12:01:26	2352006	5	1	1	1	1	2	1	1	2	8	7	0	0	0	0	5	4
091412	12:01:26	10042	Trial	IncongruentLeft	14	203	439	1	119	12:01:26	2352912	5	1	1	1	1	2	1	1	2	8	7	0	0	0	0	5	4
091412	12:01:26	10042	Trial	IncongruentRight	14	205	320	1	119	12:01:26	2353792	5	1	1	1	1	2	1	1	2	8	7	0	0	0	0	5	4
091412	12:01:26	10042	Trial	CongruentRight	14	203	312	0	119	12:01:26	2354778	5	1	1	1	1	2	1	1	2	8	7	0	0	0	0	5	4
091412	12:01:26	10042	Trial	CongruentLeft	14	0	737	0	119	12:01:26	2356191	5	1	1	1	1	2	1	1	2	8	7	0	0	0	0	5	4
091412	12:01:26	10042	Trial	CongruentRight	14	205	504	1	119	12:01:26	2356977	5	1	1	1	1	2	1	1	2	8	7	0	0	0	0	5	4
091412	12:01:26	10042	Trial	IncongruentRight	14	205	545	1	119	12:01:26	2358017	5	1	1	1	1	2	1	1	2	8	7	0	0	0	0	5	4
091412	12:01:26	10042	Trial	IncongruentLeft	14	203	394	1	119	12:01:26	2358857	5	1	1	1	1	2	1	1	2	8	7	0	0	0	0	5	4
091412	12:01:26	10042	Trial	IncongruentLeft	14	0	737	0	119	12:01:26	2360203	5	1	1	1	1	2	1	1	2	8	7	0	0	0	0	5	4
091412	12:01:26	10042	Trial	CongruentLeft	14	0	737	0	119	12:01:26	2361216	5	1	1	1	1	2	1	1	2	8	7	0	0	0	0	5	4
091412	12:01:26	10042	Trial	CongruentRight	14	205	616	1	119	12:01:26	2362109	5	1	1	1	1	2	1	1	2	8	7	0	0	0	0	5	4
091412	12:01:26	10042	Trial	IncongruentLeft	14	203	465	1	119	12:01:26	2362961	5	1	1	1	1	2	1	1	2	8	7	0	0	0	0	5	4
091412	12:01:26	10042	Trial	IncongruentRight	14	205	377	1	119	12:01:26	2363868	5	1	1	1	1	2	1	1	2	8	7	0	0	0	0	5	4
091412	12:01:26	10042	Trial	CongruentRight	14	203	308	0	119	12:01:26	2364814	5	1	1	1	1	2	1	1	2	8	7	0	0	0	0	5	4
091412	12:01:26	10042	Trial	CongruentLeft	14	0	737	0	119	12:01:26	2366227	5	1	1	1	1	2	1	1	2	8	7	0	0	0	0	5	4
091412	12:01:26	10042	Trial	IncongruentRight	14	205	532	1	119	12:01:26	2367040	5	1	1	1	1	2	1	1	2	8	7	0	0	0	0	5	4
091412	12:01:26	10042	Trial	IncongruentLeft	14	203	445	1	119	12:01:26	2367946	5	1	1	1	1	2	1	1	2	8	7	0	0	0	0	5	4
091412	12:01:26	10042	Trial	IncongruentRight	14	205	310	1	119	12:01:26	2368813	5	1	1	1	1	2	1	1	2	8	7	0	0	0	0	5	4
091412	12:01:26	10042	Trial	CongruentRight	14	203	289	0	119	12:01:26	2369799	5	1	1	1	1	2	1	1	2	8	7	0	0	0	0	5	4
091412	12:01:26	10042	Trial	IncongruentLeft	14	203	505	1	119	12:01:26	2371025	5	1	1	1	1	2	1	1	2	8	7	0	0	0	0	5	4
091412	12:01:26	10042	Trial	CongruentLeft	14	203	657	1	119	12:01:26	2372171	5	1	1	1	1	2	1	1	2	8	7	0	0	0	0	5	4
091412	12:01:26	10042	Trial	CongruentRight	14	205	505	1	119	12:01:26	2373024	5	1	1	1	1	2	1	1	2	8	7	0	0	0	0	5	4
091412	12:01:26	10042	Trial	IncongruentLeft	14	203	498	1	119	12:01:26	2374011	5	1	1	1	1	2	1	1	2	8	7	0	0	0	0	5	4
091412	12:01:26	10042	Trial	IncongruentRight	14	205	346	1	119	12:01:26	2374864	5	1	1	1	1	2	1	1	2	8	7	0	0	0	0	5	4
091412	12:01:26	10042	Trial	IncongruentRight	14	205	451	1	119	12:01:26	2375956	5	1	1	1	1	2	1	1	2	8	7	0	0	0	0	5	4
091412	12:01:26	10042	Trial	CongruentLeft	14	203	379	1	119	12:01:26	2376889	5	1	1	1	1	2	1	1	2	8	7	0	0	0	0	5	4
091412	12:01:26	10042	Trial	IncongruentLeft	14	203	404	1	119	12:01:26	2377917	5	1	1	1	1	2	1	1	2	8	7	0	0	0	0	5	4
091412	12:01:26	10042	Trial	CongruentRight	14	205	396	1	119	12:01:26	2378902	5	1	1	1	1	2	1	1	2	8	7	0	0	0	0	5	4
091412	12:01:26	10042	Trial	CongruentLeft	14	203	468	1	119	12:01:26	2379982	5	1	1	1	1	2	1	1	2	8	7	0	0	0	0	5	4
091412	12:01:26	10042	Trial	IncongruentRight	14	205	397	1	119	12:01:26	2380902	5	1	1	1	1	2	1	1	2	8	7	0	0	0	0	5	4
091412	12:01:26	10042	Trial	CongruentRight	14	205	453	1	119	12:01:26	2381968	5	1	1	1	1	2	1	1	2	8	7	0	0	0	0	5	4
091412	12:01:26	10042	Trial	IncongruentLeft	14	203	349	1	119	12:01:26	2382860	5	1	1	1	1	2	1	1	2	8	7	0	0	0	0	5	4
091412	12:01:26	10042	Trial	CongruentLeft	14	205	422	0	119	12:01:26	2383926	5	1	1	1	1	2	1	1	2	8	7	0	0	0	0	5	4
091412	12:01:26	10042	Trial	IncongruentLeft	14	203	526	1	119	12:01:26	2385033	5	1	1	1	1	2	1	1	2	8	7	0	0	0	0	5	4
091412	12:01:26	10042	Trial	IncongruentRight	14	205	407	1	119	12:01:26	2385913	5	1	1	1	1	2	1	1	2	8	7	0	0	0	0	5	4
091412	12:01:26	10042	Trial	CongruentRight	14	205	479	1	119	12:01:26	2386992	5	1	1	1	1	2	1	1	2	8	7	0	0	0	0	5	4
091412	12:01:26	10042	Trial	CongruentLeft	14	203	407	1	119	12:01:26	2387912	5	1	1	1	1	2	1	1	2	8	7	0	0	0	0	5	4
091412	12:01:26	10042	Trial	CongruentLeft	14	203	384	1	119	12:01:26	2388885	5	1	1	1	1	2	1	1	2	8	7	0	0	0	0	5	4
091412	12:01:26	10042	Trial	IncongruentRight	14	205	408	1	119	12:01:26	2389911	5	1	1	1	1	2	1	1	2	8	7	0	0	0	0	5	4
091412	12:01:26	10042	Trial	IncongruentLeft	14	203	433	1	119	12:01:26	2390937	5	1	1	1	1	2	1	1	2	8	7	0	0	0	0	5	4
091412	12:01:26	10042	Trial	IncongruentRight	14	205	409	1	119	12:01:26	2391910	5	1	1	1	1	2	1	1	2	8	7	0	0	0	0	5	4
091412	12:01:26	10042	Trial	CongruentRight	14	205	481	1	119	12:01:26	2392990	5	1	1	1	1	2	1	1	2	8	7	0	0	0	0	5	4
091412	12:01:26	10042	Trial	CongruentRight	14	205	441	1	119	12:01:26	2393950	5	1	1	1	1	2	1	1	2	8	7	0	0	0	0	5	4
091412	12:01:26	10042	Trial	IncongruentLeft	14	203	450	1	119	12:01:26	2394949	5	1	1	1	1	2	1	1	2	8	7	0	0	0	0	5	4
091412	12:01:26	10042	Trial	CongruentLeft	14	203	410	1	119	12:01:26	2395909	5	1	1	1	1	2	1	1	2	8	7	0	0	0	0	5	4
091412	12:01:26	10042	Trial	CongruentRight	14	205	482	1	119	12:01:26	2396988	5	1	1	1	1	2	1	1	2	8	7	0	0	0	0	5	4
091412	12:01:26	10042	Trial	CongruentLeft	14	203	467	1	119	12:01:26	2397975	5	1	1	1	1	2	1	1	2	8	7	0	0	0	0	5	4
091412	12:01:26	10042	Trial	IncongruentRight	14	205	278	1	119	12:01:26	2398801	5	1	1	1	1	2	1	1	2	8	7	0	0	0	0	5	4
091412	12:01:26	10042	Trial	CongruentRight	14	205	430	1	119	12:01:26	2399947	5	1	1	1	1	2	1	1	2	8	7	0	0	0	0	5	4
091412	12:01:26	10042	Trial	CongruentLeft	14	203	407	1	119	12:01:26	2400920	5	1	1	1	1	2	1	1	2	8	7	0	0	0	0	5	4
091412	12:01:26	10042	Trial	IncongruentLeft	14	203	431	1	119	12:01:26	2401946	5	1	1	1	1	2	1	1	2	8	7	0	0	0	0	5	4
091412	12:01:26	10042	Trial	IncongruentLeft	14	203	456	1	119	12:01:26	2402973	5	1	1	1	1	2	1	1	2	8	7	0	0	0	0	5	4
091412	12:01:26	10042	Trial	CongruentRight	14	205	384	1	119	12:01:26	2403906	5	1	1	1	1	2	1	1	2	8	7	0	0	0	0	5	4
091412	12:01:26	10042	Trial	IncongruentRight	14	205	472	1	119	12:01:26	2404986	5	1	1	1	1	2	1	1	2	8	7	0	0	0	0	5	4
091412	12:01:26	10042	Trial	CongruentLeft	14	203	656	1	119	12:01:26	2406171	5	1	1	1	1	2	1	1	2	8	7	0	0	0	0	5	4
091412	12:01:26	10042	Trial	IncongruentRight	14	205	601	1	119	12:01:26	2407118	5	1	1	1	1	2	1	1	2	8	7	0	0	0	0	5	4
091412	12:01:26	10042	Trial	CongruentRight	14	205	625	1	119	12:01:26	2408144	5	1	1	1	1	2	1	1	2	8	7	0	0	0	0	5	4
091412	12:01:26	10042	Trial	IncongruentLeft	14	203	474	1	119	12:01:26	2408984	5	1	1	1	1	2	1	1	2	8	7	0	0	0	0	5	4
091412	12:01:26	10042	Trial	CongruentLeft	14	203	498	1	119	12:01:26	2410010	5	1	1	1	1	2	1	1	2	8	7	0	0	0	0	5	4
091412	12:01:26	10042	Trial	CongruentRight	14	205	443	1	119	12:01:26	2410956	5	1	1	1	1	2	1	1	2	8	7	0	0	0	0	5	4
091412	12:01:26	10042	Trial	IncongruentLeft	14	203	403	1	119	12:01:26	2411916	5	1	1	1	1	2	1	1	2	8	7	0	0	0	0	5	4
091412	12:01:26	10042	Trial	CongruentRight	14	205	459	1	119	12:01:26	2412969	5	1	1	1	1	2	1	1	2	8	7	0	0	0	0	5	4
091412	12:01:26	10042	Trial	CongruentRight	14	205	404	1	119	12:01:26	2413915	5	1	1	1	1	2	1	1	2	8	7	0	0	0	0	5	4
091412	12:01:26	10042	Trial	IncongruentRight	14	205	524	1	119	12:01:26	2415035	5	1	1	1	1	2	1	1	2	8	7	0	0	0	0	5	4
091412	12:01:26	10042	Trial	CongruentLeft	14	203	452	1	119	12:01:26	2415968	5	1	1	1	1	2	1	1	2	8	7	0	0	0	0	5	4
091412	12:01:26	10042	Trial	IncongruentLeft	14	203	413	1	119	12:01:26	2416927	5	1	1	1	1	2	1	1	2	8	7	0	0	0	0	5	4
091412	12:01:26	10042	Trial	CongruentLeft	14	203	405	1	119	12:01:26	2417914	5	1	1	1	1	2	1	1	2	8	7	0	0	0	0	5	4
091412	12:01:26	10042	Trial	IncongruentRight	14	205	445	1	119	12:01:26	2418953	5	1	1	1	1	2	1	1	2	8	7	0	0	0	0	5	4
091412	12:01:26	10042	Trial	IncongruentLeft	14	203	550	1	119	12:01:26	2420060	5	1	1	1	1	2	1	1	2	8	7	0	0	0	0	5	4
091412	12:01:26	10042	Trial	CongruentRight	14	205	414	1	119	12:01:26	2420926	5	1	1	1	1	2	1	1	2	8	7	0	0	0	0	5	4
091412	12:01:26	10042	Trial	CongruentLeft	14	203	470	1	119	12:01:26	2421979	5	1	1	1	1	2	1	1	2	8	7	0	0	0	0	5	4
091412	12:01:26	10042	Trial	IncongruentLeft	14	203	479	1	119	12:01:26	2422991	5	1	1	1	1	2	1	1	2	8	7	0	0	0	0	5	4
091412	12:01:26	10042	Trial	CongruentLeft	14	203	458	1	119	12:01:26	2423978	5	1	1	1	1	2	1	1	2	8	7	0	0	0	0	5	4
091412	12:01:26	10042	Trial	IncongruentRight	14	205	399	1	119	12:01:26	2424911	5	1	1	1	1	2	1	1	2	8	7	0	0	0	0	5	4
091412	12:01:26	10042	Trial	CongruentRight	14	205	379	1	119	12:01:26	2425897	5	1	1	1	1	2	1	1	2	8	7	0	0	0	0	5	4
091412	12:01:26	10042	Trial	IncongruentLeft	14	203	451	1	119	12:01:26	2426977	5	1	1	1	1	2	1	1	2	8	7	0	0	0	0	5	4
091412	12:01:26	10042	Trial	CongruentLeft	14	203	492	1	119	12:01:26	2428016	5	1	1	1	1	2	1	1	2	8	7	0	0	0	0	5	4
091412	12:01:26	10042	Trial	IncongruentRight	14	205	372	1	119	12:01:26	2428896	5	1	1	1	1	2	1	1	2	8	7	0	0	0	0	5	4
091412	12:01:26	10042	Trial	IncongruentLeft	14	203	444	1	119	12:01:26	2429962	5	1	1	1	1	2	1	1	2	8	7	0	0	0	0	5	4
091412	12:01:26	10042	Trial	CongruentLeft	14	205	293	0	119	12:01:26	2430815	5	1	1	1	1	2	1	1	2	8	7	0	0	0	0	5	4
091412	12:01:26	10042	Trial	IncongruentLeft	14	203	397	1	119	12:01:26	2431922	5	1	1	1	1	2	1	1	2	8	7	0	0	0	0	5	4
091412	12:01:26	10042	Trial	CongruentRight	14	205	449	1	119	12:01:26	2432963	5	1	1	1	1	2	1	1	2	8	7	0	0	0	0	5	4
091412	12:01:26	10042	Trial	CongruentLeft	14	203	430	1	119	12:01:26	2433947	5	1	1	1	1	2	1	1	2	8	7	0	0	0	0	5	4
091412	12:01:26	10042	Trial	IncongruentRight	14	205	406	1	119	12:01:26	2434920	5	1	1	1	1	2	1	1	2	8	7	0	0	0	0	5	4
091412	12:01:26	10042	Trial	CongruentLeft	14	203	398	1	119	12:01:26	2435920	5	1	1	1	1	2	1	1	2	8	7	0	0	0	0	5	4
091412	12:01:26	10042	Trial	CongruentRight	14	205	295	1	119	12:01:26	2436813	5	1	1	1	1	2	1	1	2	8	7	0	0	0	0	5	4
091412	12:01:26	10042	Trial	IncongruentLeft	14	203	255	1	119	12:01:26	2437773	5	1	1	1	1	2	1	1	2	8	7	0	0	0	0	5	4
091412	12:01:26	10042	Trial750Fr	IncongruentRight750	15	0	487	0	119	12:01:26	2452033	5	1	1	1	1	2	1	1	2	8	7	0	0	0	0	5	4
091412	12:01:26	10042	Trial750Fr	IncongruentLeft750	15	203	437	1	119	12:01:26	2452753	5	1	1	1	1	2	1	1	2	8	7	0	0	0	0	5	4
091412	12:01:26	10042	Trial750Fr	CongruentRight750	15	205	349	1	119	12:01:26	2453420	5	1	1	1	1	2	1	1	2	8	7	0	0	0	0	5	4
091412	12:01:26	10042	Trial750Fr	IncongruentRight750	15	203	259	0	119	12:01:26	2454072	5	1	1	1	1	2	1	1	2	8	7	0	0	0	0	5	4
091412	12:01:26	10042	Trial750Fr	CongruentLeft750	15	0	487	0	119	12:01:26	2455046	5	1	1	1	1	2	1	1	2	8	7	0	0	0	0	5	4
091412	12:01:26	10042	Trial750Fr	CongruentRight750	15	205	433	1	119	12:01:26	2455752	5	1	1	1	1	2	1	1	2	8	7	0	0	0	0	5	4
091412	12:01:26	10042	Trial750Fr	IncongruentRight750	15	0	487	0	119	12:01:26	2456552	5	1	1	1	1	2	1	1	2	8	7	0	0	0	0	5	4
091412	12:01:26	10042	Trial750Fr	CongruentLeft750	15	203	383	1	119	12:01:26	2457205	5	1	1	1	1	2	1	1	2	8	7	0	0	0	0	5	4
091412	12:01:26	10042	Trial750Fr	IncongruentLeft750	15	205	311	0	119	12:01:26	2457898	5	1	1	1	1	2	1	1	2	8	7	0	0	0	0	5	4
091412	12:01:26	10042	Trial750Fr	IncongruentLeft750	15	203	477	1	119	12:01:26	2458804	5	1	1	1	1	2	1	1	2	8	7	0	0	0	0	5	4
091412	12:01:26	10042	Trial750Fr	CongruentRight750	15	205	450	1	119	12:01:26	2459524	5	1	1	1	1	2	1	1	2	8	7	0	0	0	0	5	4
091412	12:01:26	10042	Trial750Fr	IncongruentRight750	15	0	487	0	119	12:01:26	2460310	5	1	1	1	1	2	1	1	2	8	7	0	0	0	0	5	4
091412	12:01:26	10042	Trial750Fr	CongruentLeft750	15	203	432	1	119	12:01:26	2461017	5	1	1	1	1	2	1	1	2	8	7	0	0	0	0	5	4
091412	12:01:26	10042	Trial750Fr	CongruentRight750	15	205	312	1	119	12:01:26	2461656	5	1	1	1	1	2	1	1	2	8	7	0	0	0	0	5	4
091412	12:01:26	10042	Trial750Fr	IncongruentLeft750	15	203	334	1	119	12:01:26	2462429	5	1	1	1	1	2	1	1	2	8	7	0	0	0	0	5	4
091412	12:01:26	10042	Trial750Fr	IncongruentRight750	15	205	340	1	119	12:01:26	2463176	5	1	1	1	1	2	1	1	2	8	7	0	0	0	0	5	4
091412	12:01:26	10042	Trial750Fr	CongruentRight750	15	0	487	0	119	12:01:26	2464069	5	1	1	1	1	2	1	1	2	8	7	0	0	0	0	5	4
091412	12:01:26	10042	Trial750Fr	CongruentLeft750	15	203	418	1	119	12:01:26	2464761	5	1	1	1	1	2	1	1	2	8	7	0	0	0	0	5	4
091412	12:01:26	10042	Trial750Fr	CongruentRight750	15	205	330	1	119	12:01:26	2465428	5	1	1	1	1	2	1	1	2	8	7	0	0	0	0	5	4
091412	12:01:26	10042	Trial750Fr	IncongruentRight750	15	205	400	1	119	12:01:26	2466255	5	1	1	1	1	2	1	1	2	8	7	0	0	0	0	5	4
091412	12:01:26	10042	Trial750Fr	IncongruentLeft750	15	203	373	1	119	12:01:26	2466974	5	1	1	1	1	2	1	1	2	8	7	0	0	0	0	5	4
091412	12:01:26	10042	Trial750Fr	IncongruentLeft750	15	203	381	1	119	12:01:26	2467734	5	1	1	1	1	2	1	1	2	8	7	0	0	0	0	5	4
091412	12:01:26	10042	Trial750Fr	CongruentLeft750	15	0	487	0	119	12:01:26	2468587	5	1	1	1	1	2	1	1	2	8	7	0	0	0	0	5	4
091412	12:01:26	10042	Trial750Fr	CongruentRight750	15	205	411	1	119	12:01:26	2469280	5	1	1	1	1	2	1	1	2	8	7	0	0	0	0	5	4
091412	12:01:26	10042	Trial750Fr	IncongruentLeft750	15	203	452	1	119	12:01:26	2470080	5	1	1	1	1	2	1	1	2	8	7	0	0	0	0	5	4
091412	12:01:26	10042	Trial750Fr	IncongruentRight750	15	205	409	1	119	12:01:26	2470773	5	1	1	1	1	2	1	1	2	8	7	0	0	0	0	5	4
091412	12:01:26	10042	Trial750Fr	CongruentRight750	15	205	446	1	119	12:01:26	2471559	5	1	1	1	1	2	1	1	2	8	7	0	0	0	0	5	4
091412	12:01:26	10042	Trial750Fr	CongruentLeft750	15	203	391	1	119	12:01:26	2472265	5	1	1	1	1	2	1	1	2	8	7	0	0	0	0	5	4
091412	12:01:26	10042	Trial750Fr	IncongruentRight750	15	205	365	1	119	12:01:26	2472985	5	1	1	1	1	2	1	1	2	8	7	0	0	0	0	5	4
091412	12:01:26	10042	Trial750Fr	IncongruentLeft750	15	203	338	1	119	12:01:26	2473705	5	1	1	1	1	2	1	1	2	8	7	0	0	0	0	5	4
091412	12:01:26	10042	Trial750Fr	IncongruentRight750	15	205	296	1	119	12:01:26	2474412	5	1	1	1	1	2	1	1	2	8	7	0	0	0	0	5	4
091412	12:01:26	10042	Trial750Fr	CongruentRight750	15	205	417	1	119	12:01:26	2475291	5	1	1	1	1	2	1	1	2	8	7	0	0	0	0	5	4
091412	12:01:26	10042	Trial750Fr	IncongruentLeft750	15	203	390	1	119	12:01:26	2476011	5	1	1	1	1	2	1	1	2	8	7	0	0	0	0	5	4
091412	12:01:26	10042	Trial750Fr	CongruentLeft750	15	0	487	0	119	12:01:26	2476850	5	1	1	1	1	2	1	1	2	8	7	0	0	0	0	5	4
091412	12:01:26	10042	Trial750Fr	CongruentRight750	15	205	484	1	119	12:01:26	2477610	5	1	1	1	1	2	1	1	2	8	7	0	0	0	0	5	4
091412	12:01:26	10042	Trial750Fr	IncongruentLeft750	15	0	487	0	119	12:01:26	2478370	5	1	1	1	1	2	1	1	2	8	7	0	0	0	0	5	4
091412	12:01:26	10042	Trial750Fr	IncongruentRight750	15	205	436	1	119	12:01:26	2479076	5	1	1	1	1	2	1	1	2	8	7	0	0	0	0	5	4
091412	12:01:26	10042	Trial750Fr	IncongruentRight750	15	0	487	0	119	12:01:26	2479876	5	1	1	1	1	2	1	1	2	8	7	0	0	0	0	5	4
091412	12:01:26	10042	Trial750Fr	CongruentLeft750	15	0	487	0	119	12:01:26	2480636	5	1	1	1	1	2	1	1	2	8	7	0	0	0	0	5	4
091412	12:01:26	10042	Trial750Fr	IncongruentLeft750	15	0	487	0	119	12:01:26	2481395	5	1	1	1	1	2	1	1	2	8	7	0	0	0	0	5	4
091412	12:01:26	10042	Trial750Fr	CongruentRight750	15	205	307	1	119	12:01:26	2481981	5	1	1	1	1	2	1	1	2	8	7	0	0	0	0	5	4
091412	12:01:26	10042	Trial750Fr	CongruentLeft750	15	203	395	1	119	12:01:26	2482822	5	1	1	1	1	2	1	1	2	8	7	0	0	0	0	5	4
091412	12:01:26	10042	Trial750Fr	IncongruentRight750	15	205	385	1	119	12:01:26	2483568	5	1	1	1	1	2	1	1	2	8	7	0	0	0	0	5	4
091412	12:01:26	10042	Trial750Fr	CongruentRight750	15	205	454	1	119	12:01:26	2484381	5	1	1	1	1	2	1	1	2	8	7	0	0	0	0	5	4
091412	12:01:26	10042	Trial750Fr	IncongruentLeft750	15	203	431	1	119	12:01:26	2485114	5	1	1	1	1	2	1	1	2	8	7	0	0	0	0	5	4
091412	12:01:26	10042	Trial750Fr	CongruentLeft750	15	0	487	0	119	12:01:26	2485914	5	1	1	1	1	2	1	1	2	8	7	0	0	0	0	5	4
091412	12:01:26	10042	Trial750Fr	IncongruentLeft750	15	0	487	0	119	12:01:26	2486673	5	1	1	1	1	2	1	1	2	8	7	0	0	0	0	5	4
091412	12:01:26	10042	Trial750Fr	IncongruentRight750	15	203	5	0	119	12:01:26	2486954	5	1	1	1	1	2	1	1	2	8	7	0	0	0	0	5	4
091412	12:01:26	10042	Trial750Fr	CongruentRight750	15	0	487	0	119	12:01:26	2488179	5	1	1	1	1	2	1	1	2	8	7	0	0	0	0	5	4
091412	12:01:26	10042	Trial750Fr	CongruentLeft750	15	0	487	0	119	12:01:26	2488939	5	1	1	1	1	2	1	1	2	8	7	0	0	0	0	5	4
091412	12:01:26	10042	Trial750Fr	CongruentLeft750	15	0	487	0	119	12:01:26	2489699	5	1	1	1	1	2	1	1	2	8	7	0	0	0	0	5	4
091412	12:01:26	10042	Trial750Fr	IncongruentRight750	15	205	404	1	119	12:01:26	2490379	5	1	1	1	1	2	1	1	2	8	7	0	0	0	0	5	4
091412	12:01:26	10042	Trial750Fr	IncongruentLeft750	15	203	443	1	119	12:01:26	2491178	5	1	1	1	1	2	1	1	2	8	7	0	0	0	0	5	4
091412	12:01:26	10042	Trial750Fr	IncongruentRight750	15	205	369	1	119	12:01:26	2491844	5	1	1	1	1	2	1	1	2	8	7	0	0	0	0	5	4
091412	12:01:26	10042	Trial750Fr	CongruentRight750	15	203	359	0	119	12:01:26	2492591	5	1	1	1	1	2	1	1	2	8	7	0	0	0	0	5	4
091412	12:01:26	10042	Trial750Fr	CongruentRight750	15	0	487	0	119	12:01:26	2493457	5	1	1	1	1	2	1	1	2	8	7	0	0	0	0	5	4
091412	12:01:26	10042	Trial750Fr	IncongruentLeft750	15	203	468	1	119	12:01:26	2494204	5	1	1	1	1	2	1	1	2	8	7	0	0	0	0	5	4
091412	12:01:26	10042	Trial750Fr	CongruentLeft750	15	0	487	0	119	12:01:26	2494963	5	1	1	1	1	2	1	1	2	8	7	0	0	0	0	5	4
091412	12:01:26	10042	Trial750Fr	CongruentRight750	15	205	291	1	119	12:01:26	2495536	5	1	1	1	1	2	1	1	2	8	7	0	0	0	0	5	4
091412	12:01:26	10042	Trial750Fr	CongruentLeft750	15	203	411	1	119	12:01:26	2496416	5	1	1	1	1	2	1	1	2	8	7	0	0	0	0	5	4
091412	12:01:26	10042	Trial750Fr	IncongruentRight750	15	205	368	1	119	12:01:26	2497109	5	1	1	1	1	2	1	1	2	8	7	0	0	0	0	5	4
091412	12:01:26	10042	Trial750Fr	CongruentRight750	15	203	316	0	119	12:01:26	2497819	5	1	1	1	1	2	1	1	2	8	7	0	0	0	0	5	4
091412	12:01:26	10042	Trial750Fr	CongruentLeft750	15	0	487	0	119	12:01:26	2498722	5	1	1	1	1	2	1	1	2	8	7	0	0	0	0	5	4
091412	12:01:26	10042	Trial750Fr	IncongruentLeft750	15	205	341	0	119	12:01:26	2499335	5	1	1	1	1	2	1	1	2	8	7	0	0	0	0	5	4
091412	12:01:26	10042	Trial750Fr	IncongruentLeft750	15	0	487	0	119	12:01:26	2500228	5	1	1	1	1	2	1	1	2	8	7	0	0	0	0	5	4
091412	12:01:26	10042	Trial750Fr	CongruentRight750	15	0	487	0	119	12:01:26	2500988	5	1	1	1	1	2	1	1	2	8	7	0	0	0	0	5	4
091412	12:01:26	10042	Trial750Fr	IncongruentRight750	15	0	487	0	119	12:01:26	2501747	5	1	1	1	1	2	1	1	2	8	7	0	0	0	0	5	4
091412	12:01:26	10042	Trial750Fr	CongruentLeft750	15	203	483	1	119	12:01:26	2502507	5	1	1	1	1	2	1	1	2	8	7	0	0	0	0	5	4
091412	12:01:26	10042	Trial750Fr	IncongruentRight750	15	205	299	1	119	12:01:26	2503080	5	1	1	1	1	2	1	1	2	8	7	0	0	0	0	5	4
091412	12:01:26	10042	Trial750Fr	CongruentRight750	15	203	275	0	119	12:01:26	2503813	5	1	1	1	1	2	1	1	2	8	7	0	0	0	0	5	4
091412	12:01:26	10042	Trial750Fr	IncongruentLeft750	15	0	487	0	119	12:01:26	2504773	5	1	1	1	1	2	1	1	2	8	7	0	0	0	0	5	4
091412	12:01:26	10042	Trial750Fr	CongruentLeft750	15	205	353	0	119	12:01:26	2505399	5	1	1	1	1	2	1	1	2	8	7	0	0	0	0	5	4
091412	12:01:26	10042	Trial750Fr	CongruentRight750	15	0	487	0	119	12:01:26	2506279	5	1	1	1	1	2	1	1	2	8	7	0	0	0	0	5	4
091412	12:01:26	10042	Trial750Fr	IncongruentLeft750	15	203	463	1	119	12:01:26	2507012	5	1	1	1	1	2	1	1	2	8	7	0	0	0	0	5	4
091412	12:01:26	10042	Trial750Fr	CongruentRight750	15	205	359	1	119	12:01:26	2507678	5	1	1	1	1	2	1	1	2	8	7	0	0	0	0	5	4
091412	12:01:26	10042	Trial750Fr	CongruentRight750	15	205	461	1	119	12:01:26	2508518	5	1	1	1	1	2	1	1	2	8	7	0	0	0	0	5	4
091412	12:01:26	10042	Trial750Fr	IncongruentRight750	15	0	487	0	119	12:01:26	2509291	5	1	1	1	1	2	1	1	2	8	7	0	0	0	0	5	4
091412	12:01:26	10042	Trial750Fr	CongruentLeft750	15	203	427	1	119	12:01:26	2509997	5	1	1	1	1	2	1	1	2	8	7	0	0	0	0	5	4
091412	12:01:26	10042	Trial750Fr	IncongruentLeft750	15	203	451	1	119	12:01:26	2510783	5	1	1	1	1	2	1	1	2	8	7	0	0	0	0	5	4
091412	12:01:26	10042	Trial750Fr	CongruentLeft750	15	203	409	1	119	12:01:26	2511476	5	1	1	1	1	2	1	1	2	8	7	0	0	0	0	5	4
091412	12:01:26	10042	Trial750Fr	IncongruentRight750	15	205	383	1	119	12:01:26	2512196	5	1	1	1	1	2	1	1	2	8	7	0	0	0	0	5	4
091412	12:01:26	10042	Trial750Fr	IncongruentLeft750	15	0	487	0	119	12:01:26	2513049	5	1	1	1	1	2	1	1	2	8	7	0	0	0	0	5	4
091412	12:01:26	10042	Trial750Fr	CongruentRight750	15	0	487	0	119	12:01:26	2513810	5	1	1	1	1	2	1	1	2	8	7	0	0	0	0	5	4
091412	12:01:26	10042	Trial750Fr	CongruentLeft750	15	203	453	1	119	12:01:26	2514542	5	1	1	1	1	2	1	1	2	8	7	0	0	0	0	5	4
091412	12:01:26	10042	Trial750Fr	IncongruentLeft750	15	205	445	0	119	12:01:26	2515288	5	1	1	1	1	2	1	1	2	8	7	0	0	0	0	5	4
091412	12:01:26	10042	Trial750Fr	CongruentLeft750	15	0	487	0	119	12:01:26	2516075	5	1	1	1	1	2	1	1	2	8	7	0	0	0	0	5	4
091412	12:01:26	10042	Trial750Fr	IncongruentRight750	15	205	414	1	119	12:01:26	2516781	5	1	1	1	1	2	1	1	2	8	7	0	0	0	0	5	4
091412	12:01:26	10042	Trial750Fr	CongruentRight750	15	0	487	0	119	12:01:26	2517581	5	1	1	1	1	2	1	1	2	8	7	0	0	0	0	5	4
091412	12:01:26	10042	Trial750Fr	IncongruentLeft750	15	203	457	1	119	12:01:26	2518314	5	1	1	1	1	2	1	1	2	8	7	0	0	0	0	5	4
091412	12:01:26	10042	Trial750Fr	CongruentLeft750	15	203	417	1	119	12:01:26	2519034	5	1	1	1	1	2	1	1	2	8	7	0	0	0	0	5	4
091412	12:01:26	10042	Trial750Fr	IncongruentRight750	15	205	407	1	119	12:01:26	2519767	5	1	1	1	1	2	1	1	2	8	7	0	0	0	0	5	4
091412	12:01:26	10042	Trial750Fr	IncongruentLeft750	15	203	412	1	119	12:01:26	2520526	5	1	1	1	1	2	1	1	2	8	7	0	0	0	0	5	4
091412	12:01:26	10042	Trial750Fr	CongruentLeft750	15	203	469	1	119	12:01:26	2521339	5	1	1	1	1	2	1	1	2	8	7	0	0	0	0	5	4
091412	12:01:26	10042	Trial750Fr	IncongruentLeft750	15	203	458	1	119	12:01:26	2522072	5	1	1	1	1	2	1	1	2	8	7	0	0	0	0	5	4
091412	12:01:26	10042	Trial750Fr	CongruentRight750	15	0	487	0	119	12:01:26	2522845	5	1	1	1	1	2	1	1	2	8	7	0	0	0	0	5	4
091412	12:01:26	10042	Trial750Fr	CongruentLeft750	15	203	408	1	119	12:01:26	2523525	5	1	1	1	1	2	1	1	2	8	7	0	0	0	0	5	4
091412	12:01:26	10042	Trial750Fr	IncongruentRight750	15	0	487	0	119	12:01:26	2524351	5	1	1	1	1	2	1	1	2	8	7	0	0	0	0	5	4
091412	12:01:26	10042	Trial750Fr	CongruentLeft750	15	203	342	1	119	12:01:26	2524964	5	1	1	1	1	2	1	1	2	8	7	0	0	0	0	5	4
091412	12:01:26	10042	Trial750Fr	CongruentRight750	15	203	318	0	119	12:01:26	2525711	5	1	1	1	1	2	1	1	2	8	7	0	0	0	0	5	4
091412	12:01:26	10042	Trial750Fr	IncongruentLeft750	15	0	487	0	119	12:01:26	2526617	5	1	1	1	1	2	1	1	2	8	7	0	0	0	0	5	4
091412	12:01:26	10042	WordsAbsFrBaseline	PAbsFrBaseline1	16	Abs1	5665	0	119	12:01:26	2671414	5	1	1	1	1	2	1	1	2	8	7	0	0	0	0	5	4
091412	12:01:26	10042	WordsAbsFrBaseline	AbsFrBaseline1	16	Abs1	3568	0	119	12:01:26	2675025	5	1	1	1	1	2	1	1	2	8	7	1	0	0	0	5	4
091412	12:01:26	10042	WordsAbsFrBaseline	AbsFrBaseline2	16	Abs2	8717	0	119	12:01:26	2683782	5	1	1	1	1	2	1	1	2	8	7	1	0	0	0	5	4
091412	12:01:26	10042	WordsAbsFrBaseline	AbsFrBaseline3	16	Abs1	15023	0	119	12:01:26	2698843	5	1	1	1	1	2	1	1	2	8	7	2	0	0	0	5	4
091412	12:01:26	10042	Trial2BackFrS	NS	17	0	1000	1	119	12:01:26	2798923	5	1	1	1	1	2	1	1	2	8	7	2	0	0	0	5	4
091412	12:01:26	10042	Trial2BackFrS	NS	17	0	1000	1	119	12:01:26	2800442	5	1	1	1	1	2	1	1	2	8	7	2	0	0	0	5	4
091412	12:01:26	10042	Trial2BackFrS	NS	17	0	1000	1	119	12:01:26	2801962	5	1	1	1	1	2	1	1	2	8	7	2	0	0	0	5	4
091412	12:01:26	10042	Trial2BackFrS	YS	17	57	444	1	119	12:01:26	2802935	5	1	1	1	1	2	1	1	2	8	7	2	0	0	0	5	4
091412	12:01:26	10042	Trial2BackFrS	NS	17	0	1000	1	119	12:01:26	2804987	5	1	1	1	1	2	1	1	2	8	7	2	0	0	0	5	4
091412	12:01:26	10042	Trial2BackFrS	NS	17	0	1000	1	119	12:01:26	2806507	5	1	1	1	1	2	1	1	2	8	7	2	0	0	0	5	4
091412	12:01:26	10042	Trial2BackFrS	NS	17	0	1000	1	119	12:01:26	2808026	5	1	1	1	1	2	1	1	2	8	7	2	0	0	0	5	4
091412	12:01:26	10042	Trial2BackFrS	NS	17	0	1000	1	119	12:01:26	2809545	5	1	1	1	1	2	1	1	2	8	7	2	0	0	0	5	4
091412	12:01:26	10042	Trial2BackFrS	YS	17	57	284	1	119	12:01:26	2810358	5	1	1	1	1	2	1	1	2	8	7	2	0	0	0	5	4
091412	12:01:26	10042	Trial2BackFrS	NS	17	0	1000	1	119	12:01:26	2812571	5	1	1	1	1	2	1	1	2	8	7	2	0	0	0	5	4
091412	12:01:26	10042	Trial2BackFrS	NS	17	0	1000	1	119	12:01:26	2814090	5	1	1	1	1	2	1	1	2	8	7	2	0	0	0	5	4
091412	12:01:26	10042	Trial2BackFrS	YS	17	0	1000	0	119	12:01:26	2815610	5	1	1	1	1	2	1	1	2	8	7	2	0	0	0	5	4
091412	12:01:26	10042	Trial2BackFrS	NS	17	0	1000	1	119	12:01:26	2817129	5	1	1	1	1	2	1	1	2	8	7	2	0	0	0	5	4
091412	12:01:26	10042	Trial2BackFrS	NS	17	0	1000	1	119	12:01:26	2818648	5	1	1	1	1	2	1	1	2	8	7	2	0	0	0	5	4
091412	12:01:26	10042	Trial2BackFrS	NS	17	0	1000	1	119	12:01:26	2820168	5	1	1	1	1	2	1	1	2	8	7	2	0	0	0	5	4
091412	12:01:26	10042	Trial2BackFrS	YS	17	57	381	1	119	12:01:26	2821074	5	1	1	1	1	2	1	1	2	8	7	2	0	0	0	5	4
091412	12:01:26	10042	Trial2BackFrS	NS	17	0	1000	1	119	12:01:26	2823193	5	1	1	1	1	2	1	1	2	8	7	2	0	0	0	5	4
091412	12:01:26	10042	Trial2BackFrS	NS	17	0	1000	1	119	12:01:26	2824713	5	1	1	1	1	2	1	1	2	8	7	2	0	0	0	5	4
091412	12:01:26	10042	Trial2BackFrS	NS	17	0	1000	1	119	12:01:26	2826232	5	1	1	1	1	2	1	1	2	8	7	2	0	0	0	5	4
091412	12:01:26	10042	Trial2BackFrS	NS	17	0	1000	1	119	12:01:26	2827751	5	1	1	1	1	2	1	1	2	8	7	2	0	0	0	5	4
091412	12:01:26	10042	Trial2BackFrS	YS	17	57	702	1	119	12:01:26	2828978	5	1	1	1	1	2	1	1	2	8	7	2	0	0	0	5	4
091412	12:01:26	10042	Trial2BackFrS	NS	17	0	1000	1	119	12:01:26	2830777	5	1	1	1	1	2	1	1	2	8	7	2	0	0	0	5	4
091412	12:01:26	10042	Trial2BackFrS	NS	17	0	1000	1	119	12:01:26	2832296	5	1	1	1	1	2	1	1	2	8	7	2	0	0	0	5	4
091412	12:01:26	10042	Trial2BackFrS	NS	17	0	1000	1	119	12:01:26	2833816	5	1	1	1	1	2	1	1	2	8	7	2	0	0	0	5	4
091412	12:01:26	10042	Trial2BackFrS	NS	17	57	893	0	119	12:01:26	2835242	5	1	1	1	1	2	1	1	2	8	7	2	0	0	0	5	4
091412	12:01:26	10042	Trial2BackFrS	NS	17	0	1000	1	119	12:01:26	2836841	5	1	1	1	1	2	1	1	2	8	7	2	0	0	0	5	4
091412	12:01:26	10042	Trial2BackFrS	NS	17	0	1000	1	119	12:01:26	2838361	5	1	1	1	1	2	1	1	2	8	7	2	0	0	0	5	4
091412	12:01:26	10042	Trial2BackFrS	NS	17	0	1000	1	119	12:01:26	2839880	5	1	1	1	1	2	1	1	2	8	7	2	0	0	0	5	4
091412	12:01:26	10042	Trial2BackFrS	NS	17	0	1000	1	119	12:01:26	2841400	5	1	1	1	1	2	1	1	2	8	7	2	0	0	0	5	4
091412	12:01:26	10042	Trial2BackFrS	NS	17	0	1000	1	119	12:01:26	2842919	5	1	1	1	1	2	1	1	2	8	7	2	0	0	0	5	4
091412	12:01:26	10042	Trial2BackFrS	NS	17	0	1000	1	119	12:01:26	2844438	5	1	1	1	1	2	1	1	2	8	7	2	0	0	0	5	4
091412	12:01:26	10042	Trial2BackFrS	YS	17	57	303	1	119	12:01:26	2845264	5	1	1	1	1	2	1	1	2	8	7	2	0	0	0	5	4
091412	12:01:26	10042	Trial2BackFrS	NS	17	0	1000	1	119	12:01:26	2847464	5	1	1	1	1	2	1	1	2	8	7	2	0	0	0	5	4
091412	12:01:26	10042	Trial2BackFrS	NS	17	0	1000	1	119	12:01:26	2848983	5	1	1	1	1	2	1	1	2	8	7	2	0	0	0	5	4
091412	12:01:26	10042	Trial2BackFrS	NS	17	0	1000	1	119	12:01:26	2850503	5	1	1	1	1	2	1	1	2	8	7	2	0	0	0	5	4
091412	12:01:26	10042	Trial2BackFrS	YS	17	57	958	1	119	12:01:26	2851982	5	1	1	1	1	2	1	1	2	8	7	2	0	0	0	5	4
091412	12:01:26	10042	Trial2BackFrS	NS	17	0	1000	1	119	12:01:26	2853528	5	1	1	1	1	2	1	1	2	8	7	2	0	0	0	5	4
091412	12:01:26	10042	Trial2BackFrS	NS	17	0	1000	1	119	12:01:26	2855047	5	1	1	1	1	2	1	1	2	8	7	2	0	0	0	5	4
091412	12:01:26	10042	Trial2BackFrS	NS	17	0	1000	1	119	12:01:26	2856567	5	1	1	1	1	2	1	1	2	8	7	2	0	0	0	5	4
091412	12:01:26	10042	Trial2BackFrS	NS	17	0	1000	1	119	12:01:26	2858086	5	1	1	1	1	2	1	1	2	8	7	2	0	0	0	5	4
091412	12:01:26	10042	Trial2BackFrS	NS	17	0	1000	1	119	12:01:26	2859606	5	1	1	1	1	2	1	1	2	8	7	2	0	0	0	5	4
091412	12:01:26	10042	Trial2BackFrS	NS	17	0	1000	1	119	12:01:26	2861125	5	1	1	1	1	2	1	1	2	8	7	2	0	0	0	5	4
091412	12:01:26	10042	Trial2BackFrS	NS	17	57	752	0	119	12:01:26	2862404	5	1	1	1	1	2	1	1	2	8	7	2	0	0	0	5	4
091412	12:01:26	10042	Trial2BackFrS	YS	17	0	1000	0	119	12:01:26	2864150	5	1	1	1	1	2	1	1	2	8	7	2	0	0	0	5	4
091412	12:01:26	10042	Trial2BackFrS	NS	17	0	1000	1	119	12:01:26	2865670	5	1	1	1	1	2	1	1	2	8	7	2	0	0	0	5	4
091412	12:01:26	10042	Trial2BackFrS	NS	17	0	1000	1	119	12:01:26	2867190	5	1	1	1	1	2	1	1	2	8	7	2	0	0	0	5	4
091412	12:01:26	10042	Trial2BackFrS	NS	17	0	1000	1	119	12:01:26	2868709	5	1	1	1	1	2	1	1	2	8	7	2	0	0	0	5	4
091412	12:01:26	10042	Trial2BackFrS	NS	17	0	1000	1	119	12:01:26	2870228	5	1	1	1	1	2	1	1	2	8	7	2	0	0	0	5	4
091412	12:01:26	10042	Trial2BackFrS	YS	17	57	512	1	119	12:01:26	2871268	5	1	1	1	1	2	1	1	2	8	7	2	0	0	0	5	4
091412	12:01:26	10042	Trial2BackFrS	NS	17	0	1000	1	119	12:01:26	2873254	5	1	1	1	1	2	1	1	2	8	7	2	0	0	0	5	4
091412	12:01:26	10042	Trial2BackFrS	NS	17	0	1000	1	119	12:01:26	2874773	5	1	1	1	1	2	1	1	2	8	7	2	0	0	0	5	4
091412	12:01:26	10042	Trial2BackFrS	NS	17	0	1000	1	119	12:01:26	2876292	5	1	1	1	1	2	1	1	2	8	7	2	0	0	0	5	4
091412	12:01:26	10042	Trial2BackFrS	NS	17	0	1000	1	119	12:01:26	2877812	5	1	1	1	1	2	1	1	2	8	7	2	0	0	0	5	4
091412	12:01:26	10042	Trial2BackFrS	NS	17	0	1000	1	119	12:01:26	2879331	5	1	1	1	1	2	1	1	2	8	7	2	0	0	0	5	4
091412	12:01:26	10042	Trial2BackFrS	NS	17	57	866	0	119	12:01:26	2880731	5	1	1	1	1	2	1	1	2	8	7	2	0	0	0	5	4
091412	12:01:26	10042	Trial2BackFrS	YS	17	0	1000	0	119	12:01:26	2882357	5	1	1	1	1	2	1	1	2	8	7	2	0	0	0	5	4
091412	12:01:26	10042	Trial2BackFrS	NS	17	0	1000	1	119	12:01:26	2883876	5	1	1	1	1	2	1	1	2	8	7	2	0	0	0	5	4
091412	12:01:26	10042	Trial2BackFrS	NS	17	0	1000	1	119	12:01:26	2885395	5	1	1	1	1	2	1	1	2	8	7	2	0	0	0	5	4
091412	12:01:26	10042	Trial2BackFrS	NS	17	0	1000	1	119	12:01:26	2886915	5	1	1	1	1	2	1	1	2	8	7	2	0	0	0	5	4
091412	12:01:26	10042	Trial2BackFrS	NS	17	0	1000	1	119	12:01:26	2888435	5	1	1	1	1	2	1	1	2	8	7	2	0	0	0	5	4
091412	12:01:26	10042	Trial2BackFrS	NS	17	0	1000	1	119	12:01:26	2889954	5	1	1	1	1	2	1	1	2	8	7	2	0	0	0	5	4
091412	12:01:26	10042	Trial2BackFrS	NS	17	0	1000	1	119	12:01:26	2891473	5	1	1	1	1	2	1	1	2	8	7	2	0	0	0	5	4
091412	12:01:26	10042	Trial2BackFrS	NS	17	0	1000	1	119	12:01:26	2892992	5	1	1	1	1	2	1	1	2	8	7	2	0	0	0	5	4
091412	12:01:26	10042	Trial2BackFrS	YS	17	57	468	1	119	12:01:26	2893992	5	1	1	1	1	2	1	1	2	8	7	2	0	0	0	5	4
091412	12:01:26	10042	Trial2BackFrS	NS	17	0	1000	1	119	12:01:26	2896018	5	1	1	1	1	2	1	1	2	8	7	2	0	0	0	5	4
091412	12:01:26	10042	Trial2BackFrS	NS	17	0	1000	1	119	12:01:26	2897537	5	1	1	1	1	2	1	1	2	8	7	2	0	0	0	5	4
091412	12:01:26	10042	Trial2BackFrS	NS	17	0	1000	1	119	12:01:26	2899057	5	1	1	1	1	2	1	1	2	8	7	2	0	0	0	5	4
091412	12:01:26	10042	Trial2BackFrS	NS	17	0	1000	1	119	12:01:26	2900576	5	1	1	1	1	2	1	1	2	8	7	2	0	0	0	5	4
091412	12:01:26	10042	Trial2BackFrS	YS	17	57	388	1	119	12:01:26	2901496	5	1	1	1	1	2	1	1	2	8	7	2	0	0	0	5	4
091412	12:01:26	10042	Trial2BackFrS	NS	17	0	1000	1	119	12:01:26	2903602	5	1	1	1	1	2	1	1	2	8	7	2	0	0	0	5	4
091412	12:01:26	10042	Trial2BackFrS	NS	17	0	1000	1	119	12:01:26	2905121	5	1	1	1	1	2	1	1	2	8	7	2	0	0	0	5	4
091412	12:01:26	10042	Trial2BackFrS	YS	17	57	932	1	119	12:01:26	2906587	5	1	1	1	1	2	1	1	2	8	7	2	0	0	0	5	4
091412	12:01:26	10042	Trial2BackFrS	NS	17	0	1000	1	119	12:01:26	2908147	5	1	1	1	1	2	1	1	2	8	7	2	0	0	0	5	4
091412	12:01:26	10042	Trial2BackFrS	NS	17	0	1000	1	119	12:01:26	2909666	5	1	1	1	1	2	1	1	2	8	7	2	0	0	0	5	4
091412	12:01:26	10042	Trial2BackFrS	NS	17	0	1000	1	119	12:01:26	2911185	5	1	1	1	1	2	1	1	2	8	7	2	0	0	0	5	4
091412	12:01:26	10042	Trial2BackFrS	NS	17	0	1000	1	119	12:01:26	2912705	5	1	1	1	1	2	1	1	2	8	7	2	0	0	0	5	4
091412	12:01:26	10042	Trial2BackFrS	NS	17	0	1000	1	119	12:01:26	2914224	5	1	1	1	1	2	1	1	2	8	7	2	0	0	0	5	4
091412	12:01:26	10042	Trial2BackFrS	NS	17	0	1000	1	119	12:01:26	2915743	5	1	1	1	1	2	1	1	2	8	7	2	0	0	0	5	4
091412	12:01:26	10042	Trial2BackFrS	YS	17	57	597	1	119	12:01:26	2916863	5	1	1	1	1	2	1	1	2	8	7	2	0	0	0	5	4
091412	12:01:26	10042	Trial2BackFrS	NS	17	0	1000	1	119	12:01:26	2918769	5	1	1	1	1	2	1	1	2	8	7	2	0	0	0	5	4
091412	12:01:26	10042	Trial2BackFrS	NS	17	0	1000	1	119	12:01:26	2920288	5	1	1	1	1	2	1	1	2	8	7	2	0	0	0	5	4
091412	12:01:26	10042	Trial2BackFrS	NS	17	0	1000	1	119	12:01:26	2921808	5	1	1	1	1	2	1	1	2	8	7	2	0	0	0	5	4
091412	12:01:26	10042	Trial2BackFrS	NS	17	0	1000	1	119	12:01:26	2923327	5	1	1	1	1	2	1	1	2	8	7	2	0	0	0	5	4
091412	12:01:26	10042	Trial2BackFrS	YS	17	0	1000	0	119	12:01:26	2924847	5	1	1	1	1	2	1	1	2	8	7	2	0	0	0	5	4
091412	12:01:26	10042	Trial2BackFrS	NS	17	0	1000	1	119	12:01:26	2926366	5	1	1	1	1	2	1	1	2	8	7	2	0	0	0	5	4
091412	12:01:26	10042	Trial2BackFrS	NS	17	0	1000	1	119	12:01:26	2927886	5	1	1	1	1	2	1	1	2	8	7	2	0	0	0	5	4
091412	12:01:26	10042	Trial2BackFrS	NS	17	0	1000	1	119	12:01:26	2929405	5	1	1	1	1	2	1	1	2	8	7	2	0	0	0	5	4
091412	12:01:26	10042	Trial2BackFrS	NS	17	57	615	0	119	12:01:26	2930551	5	1	1	1	1	2	1	1	2	8	7	2	0	0	0	5	4
091412	12:01:26	10042	Trial2BackFrS	YS	17	0	1000	0	119	12:01:26	2932430	5	1	1	1	1	2	1	1	2	8	7	2	0	0	0	5	4
091412	12:01:26	10042	Trial2BackFrS	NS	17	0	1000	1	119	12:01:26	2933950	5	1	1	1	1	2	1	1	2	8	7	2	0	0	0	5	4
091412	12:01:26	10042	Trial2BackFrS	NS	17	0	1000	1	119	12:01:26	2935469	5	1	1	1	1	2	1	1	2	8	7	2	0	0	0	5	4
091412	12:01:26	10042	Trial2BackFrS	YS	17	57	647	1	119	12:01:26	2936642	5	1	1	1	1	2	1	1	2	8	7	2	0	0	0	5	4
091412	12:01:26	10042	Trial2BackFrS	NS	17	0	1000	1	119	12:01:26	2938495	5	1	1	1	1	2	1	1	2	8	7	2	0	0	0	5	4
091412	12:01:26	10042	Trial2BackFrS	NS	17	0	1000	1	119	12:01:26	2940014	5	1	1	1	1	2	1	1	2	8	7	2	0	0	0	5	4
091412	12:01:26	10042	Trial2BackFrS	NS	17	0	1000	1	119	12:01:26	2941534	5	1	1	1	1	2	1	1	2	8	7	2	0	0	0	5	4
091412	12:01:26	10042	Trial2BackFrS	NS	17	0	1000	1	119	12:01:26	2943053	5	1	1	1	1	2	1	1	2	8	7	2	0	0	0	5	4
091412	12:01:26	10042	Trial2BackFrS	NS	17	0	1000	1	119	12:01:26	2944573	5	1	1	1	1	2	1	1	2	8	7	2	0	0	0	5	4
091412	12:01:26	10042	Trial2BackFrS	NS	17	0	1000	1	119	12:01:26	2946092	5	1	1	1	1	2	1	1	2	8	7	2	0	0	0	5	4
091412	12:01:26	10042	Trial2BackFrS	NS	17	0	1000	1	119	12:01:26	2947611	5	1	1	1	1	2	1	1	2	8	7	2	0	0	0	5	4
091412	12:01:26	10042	Trial2BackFrS	NS	17	0	1000	1	119	12:01:26	2949130	5	1	1	1	1	2	1	1	2	8	7	2	0	0	0	5	4
091412	12:01:26	10042	Trial2BackFrS	YS	17	0	1000	0	119	12:01:26	2950650	5	1	1	1	1	2	1	1	2	8	7	2	0	0	0	5	4
091412	12:01:26	10042	Trial2BackFrS	NS	17	0	1000	1	119	12:01:26	2952169	5	1	1	1	1	2	1	1	2	8	7	2	0	0	0	5	4
091412	12:01:26	10042	Trial2BackFrS	NS	17	0	1000	1	119	12:01:26	2953688	5	1	1	1	1	2	1	1	2	8	7	2	0	0	0	5	4
091412	12:01:26	10042	Trial2BackFrS	NS	17	0	1000	1	119	12:01:26	2955209	5	1	1	1	1	2	1	1	2	8	7	2	0	0	0	5	4
091412	12:01:26	10042	Trial2BackFrS	NS	17	0	1000	1	119	12:01:26	2956728	5	1	1	1	1	2	1	1	2	8	7	2	0	0	0	5	4
091412	12:01:26	10042	Trial2BackFrS	NS	17	0	1000	1	119	12:01:26	2958247	5	1	1	1	1	2	1	1	2	8	7	2	0	0	0	5	4
091412	12:01:26	10042	Trial2BackFrS	NS	17	0	1000	1	119	12:01:26	2959766	5	1	1	1	1	2	1	1	2	8	7	2	0	0	0	5	4
091412	12:01:26	10042	Trial2BackFrS	NS	17	0	1000	1	119	12:01:26	2961286	5	1	1	1	1	2	1	1	2	8	7	2	0	0	0	5	4
091412	12:01:26	10042	Trial2BackFrS	YS	17	57	670	1	119	12:01:26	2962485	5	1	1	1	1	2	1	1	2	8	7	2	0	0	0	5	4
091412	12:01:26	10042	Trial2BackFrS	NS	17	0	1000	1	119	12:01:26	2964311	5	1	1	1	1	2	1	1	2	8	7	2	0	0	0	5	4
091412	12:01:26	10042	Trial2BackFrS	NS	17	0	1000	1	119	12:01:26	2965844	5	1	1	1	1	2	1	1	2	8	7	2	0	0	0	5	4
091412	12:01:26	10042	Trial2BackFrS	NS	17	0	1000	1	119	12:01:26	2967364	5	1	1	1	1	2	1	1	2	8	7	2	0	0	0	5	4
091412	12:01:26	10042	Trial2BackFrS	NS	17	0	1000	1	119	12:01:26	2968883	5	1	1	1	1	2	1	1	2	8	7	2	0	0	0	5	4
091412	12:01:26	10042	Trial2BackFrS	NS	17	0	1000	1	119	12:01:26	2970402	5	1	1	1	1	2	1	1	2	8	7	2	0	0	0	5	4
091412	12:01:26	10042	Trial2BackFrS	NS	17	57	705	0	119	12:01:26	2971642	5	1	1	1	1	2	1	1	2	8	7	2	0	0	0	5	4
091412	12:01:26	10042	Trial2BackFrS	NS	17	0	1000	1	119	12:01:26	2973427	5	1	1	1	1	2	1	1	2	8	7	2	0	0	0	5	4
091412	12:01:26	10042	Trial2BackFrS	NS	17	0	1000	1	119	12:01:26	2974947	5	1	1	1	1	2	1	1	2	8	7	2	0	0	0	5	4
091412	12:01:26	10042	Trial2BackFrS	NS	17	0	1000	1	119	12:01:26	2976466	5	1	1	1	1	2	1	1	2	8	7	2	0	0	0	5	4
091412	12:01:26	10042	Trial2BackFrS	YS	17	57	849	1	119	12:01:26	2977839	5	1	1	1	1	2	1	1	2	8	7	2	0	0	0	5	4
091412	12:01:26	10042	Trial2BackFrS	NS	17	0	1000	1	119	12:01:26	2979492	5	1	1	1	1	2	1	1	2	8	7	2	0	0	0	5	4
091412	12:01:26	10042	ClockFrBaseline	ClockFrBaseline	19	Clock1	46577	0	119	12:01:26	3026181	5	1	1	1	1	2	1	1	2	8	7	2	1	0	0	5	4
091412	12:01:26	10042	ClockFrBaseline	ClockFrBaseline	19	Clock11	644	0	119	12:01:26	3026860	5	1	1	1	1	2	1	1	2	8	7	2	1	1	0	5	4
091412	12:01:26	10042	ClockFrBaseline	ClockFrBaseline	19	Clock111	532	0	119	12:01:26	3027433	5	1	1	1	1	2	1	1	2	8	7	2	1	1	1	5	4
091412	12:01:26	10042	ClockFrBaseline	ClockFrBaseline	19	Clockdone	567	0	119	12:01:26	3028046	5	1	1	1	1	2	1	1	2	8	7	2	1	1	1	5	4
091412	12:01:26	10042	FASFrVFBaseline	StopFrVFBaseline	20	17	10406	0	119	12:01:26	3143949	5	1	1	1	1	2	1	1	2	8	7	2	1	1	1	5	4
