date	time	subject	blockcode	trialcode	values.TaskNumber	response	latency	correct	values.Score	script.starttime	script.elapsedtime	values.ScoreS7	values.Word1	values.Word2	values.Word3	values.Word4	values.Word5	values.Word6	values.Word7	values.Word8	values.DigitSpanFwrd	values.DigitSpanBack	values.ScoreAbs	values.Contour	values.Numbers	values.Hands	values.corsiblockspanFwrd	values.corsiblockspanRev
073012	12:14:35	10029	Language	Language	0	English	38213	0	0	12:14:35	38333	0	0	0	0	0	0	0	0	0	0	0	0	0	0	0	0	0
073012	12:14:35	10029	Session	Session	0	Baseline	2295	0	0	12:14:35	40705	0	0	0	0	0	0	0	0	0	0	0	0	0	0	0	0	0
073012	12:14:35	10029	HandEng	HandEng	0	Right	1087899	0	0	12:14:35	1128680	0	0	0	0	0	0	0	0	0	0	0	0	0	0	0	0	0
073012	12:14:35	10029	CubeEng	CubeEng	1	1Cube	89673	0	0	12:14:35	1254613	0	0	0	0	0	0	0	0	0	0	0	0	0	0	0	0	0
073012	12:14:35	10029	pm.simpleEngRight	blank.simpleEng	2	57	507	0	0	12:14:35	1282308	0	0	0	0	0	0	0	0	0	0	0	0	0	0	0	0	0
073012	12:14:35	10029	pm.simpleEngRight	blank.simpleEng	2	0	1887	1	0	12:14:35	1284881	0	0	0	0	0	0	0	0	0	0	0	0	0	0	0	0	0
073012	12:14:35	10029	pm.simpleEngRight	pm.simpleEng	2	57	485	0	0	12:14:35	1285400	0	0	0	0	0	0	0	0	0	0	0	0	0	0	0	0	0
073012	12:14:35	10029	pm.simpleEngRight	blank.simpleEng	2	0	2087	1	0	12:14:35	1287506	0	0	0	0	0	0	0	0	0	0	0	0	0	0	0	0	0
073012	12:14:35	10029	pm.simpleEngRight	pm.simpleEng	2	57	516	0	0	12:14:35	1288053	0	0	0	0	0	0	0	0	0	0	0	0	0	0	0	0	0
073012	12:14:35	10029	pm.simpleEngRight	blank.simpleEng	2	0	2487	1	0	12:14:35	1290572	0	0	0	0	0	0	0	0	0	0	0	0	0	0	0	0	0
073012	12:14:35	10029	pm.simpleEngRight	pm.simpleEng	2	57	507	0	0	12:14:35	1291118	0	0	0	0	0	0	0	0	0	0	0	0	0	0	0	0	0
073012	12:14:35	10029	pm.simpleEngRight	blank.simpleEng	2	0	1587	1	0	12:14:35	1292731	0	0	0	0	0	0	0	0	0	0	0	0	0	0	0	0	0
073012	12:14:35	10029	pm.simpleEngRight	pm.simpleEng	2	57	411	0	0	12:14:35	1293184	0	0	0	0	0	0	0	0	0	0	0	0	0	0	0	0	0
073012	12:14:35	10029	pm.simpleEngRight	blank.simpleEng	2	0	1787	1	0	12:14:35	1294996	0	0	0	0	0	0	0	0	0	0	0	0	0	0	0	0	0
073012	12:14:35	10029	pm.simpleEngRight	pm.simpleEng	2	57	433	0	0	12:14:35	1295463	0	0	0	0	0	0	0	0	0	0	0	0	0	0	0	0	0
073012	12:14:35	10029	pm.simpleEngRight	blank.simpleEng	2	0	1687	1	0	12:14:35	1297169	0	0	0	0	0	0	0	0	0	0	0	0	0	0	0	0	0
073012	12:14:35	10029	pm.simpleEngRight	pm.simpleEng	2	57	277	0	0	12:14:35	1297489	0	0	0	0	0	0	0	0	0	0	0	0	0	0	0	0	0
073012	12:14:35	10029	pm.simpleEngRight	blank.simpleEng	2	0	1487	1	0	12:14:35	1298995	0	0	0	0	0	0	0	0	0	0	0	0	0	0	0	0	0
073012	12:14:35	10029	pm.simpleEngRight	pm.simpleEng	2	57	291	0	0	12:14:35	1299328	0	0	0	0	0	0	0	0	0	0	0	0	0	0	0	0	0
073012	12:14:35	10029	pm.simpleEngRight	blank.simpleEng	2	0	1987	1	0	12:14:35	1301341	0	0	0	0	0	0	0	0	0	0	0	0	0	0	0	0	0
073012	12:14:35	10029	pm.simpleEngRight	pm.simpleEng	2	57	265	0	0	12:14:35	1301647	0	0	0	0	0	0	0	0	0	0	0	0	0	0	0	0	0
073012	12:14:35	10029	pm.simpleEngRight	blank.simpleEng	2	0	2387	1	0	12:14:35	1304059	0	0	0	0	0	0	0	0	0	0	0	0	0	0	0	0	0
073012	12:14:35	10029	pm.simpleEngRight	pm.simpleEng	2	57	282	0	0	12:14:35	1304379	0	0	0	0	0	0	0	0	0	0	0	0	0	0	0	0	0
073012	12:14:35	10029	pm.simpleEngRight	blank.simpleEng	2	0	2287	1	0	12:14:35	1306698	0	0	0	0	0	0	0	0	0	0	0	0	0	0	0	0	0
073012	12:14:35	10029	pm.simpleEngRight	pm.simpleEng	2	57	283	0	0	12:14:35	1307018	0	0	0	0	0	0	0	0	0	0	0	0	0	0	0	0	0
073012	12:14:35	10029	pm.simpleEngRight	blank.simpleEng	2	0	2287	1	0	12:14:35	1309324	0	0	0	0	0	0	0	0	0	0	0	0	0	0	0	0	0
073012	12:14:35	10029	pm.simpleEngRight	pm.simpleEng	2	57	410	0	0	12:14:35	1309764	0	0	0	0	0	0	0	0	0	0	0	0	0	0	0	0	0
073012	12:14:35	10029	pm.simpleEngRight	blank.simpleEng	2	0	1987	1	0	12:14:35	1311776	0	0	0	0	0	0	0	0	0	0	0	0	0	0	0	0	0
073012	12:14:35	10029	pm.simpleEngRight	pm.simpleEng	2	57	437	0	0	12:14:35	1312256	0	0	0	0	0	0	0	0	0	0	0	0	0	0	0	0	0
073012	12:14:35	10029	pm.simpleEngRight	blank.simpleEng	2	0	1887	1	0	12:14:35	1314162	0	0	0	0	0	0	0	0	0	0	0	0	0	0	0	0	0
073012	12:14:35	10029	pm.simpleEngRight	pm.simpleEng	2	57	307	0	0	12:14:35	1314508	0	0	0	0	0	0	0	0	0	0	0	0	0	0	0	0	0
073012	12:14:35	10029	pm.simpleEngRight	blank.simpleEng	2	0	1787	1	0	12:14:35	1316321	0	0	0	0	0	0	0	0	0	0	0	0	0	0	0	0	0
073012	12:14:35	10029	pm.simpleEngRight	pm.simpleEng	2	57	260	0	0	12:14:35	1316614	0	0	0	0	0	0	0	0	0	0	0	0	0	0	0	0	0
073012	12:14:35	10029	pm.simpleEngRight	blank.simpleEng	2	0	1587	1	0	12:14:35	1318227	0	0	0	0	0	0	0	0	0	0	0	0	0	0	0	0	0
073012	12:14:35	10029	pm.simpleEngRight	pm.simpleEng	2	57	306	0	0	12:14:35	1318573	0	0	0	0	0	0	0	0	0	0	0	0	0	0	0	0	0
073012	12:14:35	10029	pm.simpleEngRight	blank.simpleEng	2	0	2387	1	0	12:14:35	1320986	0	0	0	0	0	0	0	0	0	0	0	0	0	0	0	0	0
073012	12:14:35	10029	pm.simpleEngRight	pm.simpleEng	2	57	287	0	0	12:14:35	1321319	0	0	0	0	0	0	0	0	0	0	0	0	0	0	0	0	0
073012	12:14:35	10029	pm.simpleEngRight	blank.simpleEng	2	0	2187	1	0	12:14:35	1323531	0	0	0	0	0	0	0	0	0	0	0	0	0	0	0	0	0
073012	12:14:35	10029	pm.simpleEngRight	pm.simpleEng	2	57	266	0	0	12:14:35	1323838	0	0	0	0	0	0	0	0	0	0	0	0	0	0	0	0	0
073012	12:14:35	10029	pm.simpleEngRight	blank.simpleEng	2	0	2087	1	0	12:14:35	1325957	0	0	0	0	0	0	0	0	0	0	0	0	0	0	0	0	0
073012	12:14:35	10029	pm.simpleEngRight	pm.simpleEng	2	57	272	0	0	12:14:35	1326264	0	0	0	0	0	0	0	0	0	0	0	0	0	0	0	0	0
073012	12:14:35	10029	pm.simpleEngRight	blank.simpleEng	2	0	2487	1	0	12:14:35	1328783	0	0	0	0	0	0	0	0	0	0	0	0	0	0	0	0	0
073012	12:14:35	10029	pm.simpleEngRight	pm.simpleEng	2	57	327	0	0	12:14:35	1329142	0	0	0	0	0	0	0	0	0	0	0	0	0	0	0	0	0
073012	12:14:35	10029	pm.simpleEngRight	blank.simpleEng	2	0	1687	1	0	12:14:35	1330848	0	0	0	0	0	0	0	0	0	0	0	0	0	0	0	0	0
073012	12:14:35	10029	pm.simpleEngRight	pm.simpleEng	2	57	437	0	0	12:14:35	1331315	0	0	0	0	0	0	0	0	0	0	0	0	0	0	0	0	0
073012	12:14:35	10029	pm.simpleEngRight	blank.simpleEng	2	0	1487	1	0	12:14:35	1332821	0	0	0	0	0	0	0	0	0	0	0	0	0	0	0	0	0
073012	12:14:35	10029	pm.simpleEngRight	pm.simpleEng	2	57	368	0	0	12:14:35	1333221	0	0	0	0	0	0	0	0	0	0	0	0	0	0	0	0	0
073012	12:14:35	10029	pm.simpleEngRight	blank.simpleEng	2	0	2487	1	0	12:14:35	1335740	0	0	0	0	0	0	0	0	0	0	0	0	0	0	0	0	0
073012	12:14:35	10029	pm.simpleEngRight	pm.simpleEng	2	57	256	0	0	12:14:35	1336033	0	0	0	0	0	0	0	0	0	0	0	0	0	0	0	0	0
073012	12:14:35	10029	pm.simpleEngRight	blank.simpleEng	2	0	2187	1	0	12:14:35	1338245	0	0	0	0	0	0	0	0	0	0	0	0	0	0	0	0	0
073012	12:14:35	10029	pm.simpleEngRight	pm.simpleEng	2	57	335	0	0	12:14:35	1338618	0	0	0	0	0	0	0	0	0	0	0	0	0	0	0	0	0
073012	12:14:35	10029	pm.simpleEngRight	blank.simpleEng	2	0	1487	1	0	12:14:35	1340125	0	0	0	0	0	0	0	0	0	0	0	0	0	0	0	0	0
073012	12:14:35	10029	pm.simpleEngRight	pm.simpleEng	2	57	296	0	0	12:14:35	1340458	0	0	0	0	0	0	0	0	0	0	0	0	0	0	0	0	0
073012	12:14:35	10029	pm.simpleEngRight	blank.simpleEng	2	0	1687	1	0	12:14:35	1342164	0	0	0	0	0	0	0	0	0	0	0	0	0	0	0	0	0
073012	12:14:35	10029	pm.simpleEngRight	pm.simpleEng	2	57	256	0	0	12:14:35	1342457	0	0	0	0	0	0	0	0	0	0	0	0	0	0	0	0	0
073012	12:14:35	10029	pm.simpleEngRight	blank.simpleEng	2	0	1787	1	0	12:14:35	1344269	0	0	0	0	0	0	0	0	0	0	0	0	0	0	0	0	0
073012	12:14:35	10029	pm.simpleEngRight	pm.simpleEng	2	57	263	0	0	12:14:35	1344563	0	0	0	0	0	0	0	0	0	0	0	0	0	0	0	0	0
073012	12:14:35	10029	pm.simpleEngRight	blank.simpleEng	2	0	1887	1	0	12:14:35	1346468	0	0	0	0	0	0	0	0	0	0	0	0	0	0	0	0	0
073012	12:14:35	10029	pm.simpleEngRight	pm.simpleEng	2	57	256	0	0	12:14:35	1346762	0	0	0	0	0	0	0	0	0	0	0	0	0	0	0	0	0
073012	12:14:35	10029	pm.simpleEngRight	blank.simpleEng	2	0	1987	1	0	12:14:35	1348774	0	0	0	0	0	0	0	0	0	0	0	0	0	0	0	0	0
073012	12:14:35	10029	pm.simpleEngRight	pm.simpleEng	2	57	302	0	0	12:14:35	1349107	0	0	0	0	0	0	0	0	0	0	0	0	0	0	0	0	0
073012	12:14:35	10029	pm.simpleEngRight	blank.simpleEng	2	0	2287	1	0	12:14:35	1351426	0	0	0	0	0	0	0	0	0	0	0	0	0	0	0	0	0
073012	12:14:35	10029	pm.simpleEngRight	pm.simpleEng	2	57	257	0	0	12:14:35	1351720	0	0	0	0	0	0	0	0	0	0	0	0	0	0	0	0	0
073012	12:14:35	10029	pm.simpleEngRight	blank.simpleEng	2	0	2387	1	0	12:14:35	1354132	0	0	0	0	0	0	0	0	0	0	0	0	0	0	0	0	0
073012	12:14:35	10029	pm.simpleEngRight	pm.simpleEng	2	57	256	0	0	12:14:35	1354425	0	0	0	0	0	0	0	0	0	0	0	0	0	0	0	0	0
073012	12:14:35	10029	pm.simpleEngRight	blank.simpleEng	2	0	1587	1	0	12:14:35	1356038	0	0	0	0	0	0	0	0	0	0	0	0	0	0	0	0	0
073012	12:14:35	10029	pm.simpleEngRight	pm.simpleEng	2	57	334	0	0	12:14:35	1356411	0	0	0	0	0	0	0	0	0	0	0	0	0	0	0	0	0
073012	12:14:35	10029	pm.simpleEngRight	blank.simpleEng	2	0	2087	1	0	12:14:35	1358530	0	0	0	0	0	0	0	0	0	0	0	0	0	0	0	0	0
073012	12:14:35	10029	pm.simpleEngRight	pm.simpleEng	2	57	242	0	0	12:14:35	1358810	0	0	0	0	0	0	0	0	0	0	0	0	0	0	0	0	0
073012	12:14:35	10029	pm.simpleEngRight	blank.simpleEng	2	0	2487	1	0	12:14:35	1361329	0	0	0	0	0	0	0	0	0	0	0	0	0	0	0	0	0
073012	12:14:35	10029	pm.simpleEngRight	pm.simpleEng	2	57	275	0	0	12:14:35	1361635	0	0	0	0	0	0	0	0	0	0	0	0	0	0	0	0	0
073012	12:14:35	10029	pm.simpleEngRight	blank.simpleEng	2	0	1687	1	0	12:14:35	1363341	0	0	0	0	0	0	0	0	0	0	0	0	0	0	0	0	0
073012	12:14:35	10029	pm.simpleEngRight	pm.simpleEng	2	57	294	0	0	12:14:35	1363675	0	0	0	0	0	0	0	0	0	0	0	0	0	0	0	0	0
073012	12:14:35	10029	pm.simpleEngRight	blank.simpleEng	2	0	1787	1	0	12:14:35	1365487	0	0	0	0	0	0	0	0	0	0	0	0	0	0	0	0	0
073012	12:14:35	10029	pm.simpleEngRight	pm.simpleEng	2	57	229	0	0	12:14:35	1365754	0	0	0	0	0	0	0	0	0	0	0	0	0	0	0	0	0
073012	12:14:35	10029	pm.simpleEngRight	blank.simpleEng	2	0	1487	1	0	12:14:35	1367260	0	0	0	0	0	0	0	0	0	0	0	0	0	0	0	0	0
073012	12:14:35	10029	pm.simpleEngRight	pm.simpleEng	2	57	280	0	0	12:14:35	1367580	0	0	0	0	0	0	0	0	0	0	0	0	0	0	0	0	0
073012	12:14:35	10029	pm.simpleEngRight	blank.simpleEng	2	0	2087	1	0	12:14:35	1369699	0	0	0	0	0	0	0	0	0	0	0	0	0	0	0	0	0
073012	12:14:35	10029	pm.simpleEngRight	pm.simpleEng	2	57	241	0	0	12:14:35	1369979	0	0	0	0	0	0	0	0	0	0	0	0	0	0	0	0	0
073012	12:14:35	10029	pm.simpleEngRight	blank.simpleEng	2	0	1587	1	0	12:14:35	1371591	0	0	0	0	0	0	0	0	0	0	0	0	0	0	0	0	0
073012	12:14:35	10029	pm.simpleEngRight	pm.simpleEng	2	57	284	0	0	12:14:35	1371911	0	0	0	0	0	0	0	0	0	0	0	0	0	0	0	0	0
073012	12:14:35	10029	pm.simpleEngRight	blank.simpleEng	2	0	2287	1	0	12:14:35	1374230	0	0	0	0	0	0	0	0	0	0	0	0	0	0	0	0	0
073012	12:14:35	10029	pm.simpleEngRight	pm.simpleEng	2	57	317	0	0	12:14:35	1374590	0	0	0	0	0	0	0	0	0	0	0	0	0	0	0	0	0
073012	12:14:35	10029	pm.simpleEngRight	blank.simpleEng	2	0	1887	1	0	12:14:35	1376509	0	0	0	0	0	0	0	0	0	0	0	0	0	0	0	0	0
073012	12:14:35	10029	pm.simpleEngRight	pm.simpleEng	2	57	262	0	0	12:14:35	1376802	0	0	0	0	0	0	0	0	0	0	0	0	0	0	0	0	0
073012	12:14:35	10029	Trial2BackEng	N	3	0	1000	1	1	12:14:35	1444135	0	0	0	0	0	0	0	0	0	0	0	0	0	0	0	0	0
073012	12:14:35	10029	Trial2BackEng	N	3	0	1000	1	2	12:14:35	1445654	0	0	0	0	0	0	0	0	0	0	0	0	0	0	0	0	0
073012	12:14:35	10029	Trial2BackEng	N	3	0	1000	1	3	12:14:35	1447173	0	0	0	0	0	0	0	0	0	0	0	0	0	0	0	0	0
073012	12:14:35	10029	Trial2BackEng	N	3	0	1000	1	4	12:14:35	1448693	0	0	0	0	0	0	0	0	0	0	0	0	0	0	0	0	0
073012	12:14:35	10029	Trial2BackEng	N	3	0	1000	1	5	12:14:35	1450212	0	0	0	0	0	0	0	0	0	0	0	0	0	0	0	0	0
073012	12:14:35	10029	Trial2BackEng	N	3	0	1000	1	6	12:14:35	1451732	0	0	0	0	0	0	0	0	0	0	0	0	0	0	0	0	0
073012	12:14:35	10029	Trial2BackEng	N	3	0	1000	1	7	12:14:35	1453251	0	0	0	0	0	0	0	0	0	0	0	0	0	0	0	0	0
073012	12:14:35	10029	Trial2BackEng	N	3	0	1000	1	8	12:14:35	1454770	0	0	0	0	0	0	0	0	0	0	0	0	0	0	0	0	0
073012	12:14:35	10029	Trial2BackEng	Y	3	0	1000	0	8	12:14:35	1456290	0	0	0	0	0	0	0	0	0	0	0	0	0	0	0	0	0
073012	12:14:35	10029	Trial2BackEng	N	3	0	1000	1	9	12:14:35	1457809	0	0	0	0	0	0	0	0	0	0	0	0	0	0	0	0	0
073012	12:14:35	10029	Trial2BackEng	N	3	0	1000	1	10	12:14:35	1459328	0	0	0	0	0	0	0	0	0	0	0	0	0	0	0	0	0
073012	12:14:35	10029	Trial2BackEng	N	3	0	1000	1	11	12:14:35	1460848	0	0	0	0	0	0	0	0	0	0	0	0	0	0	0	0	0
073012	12:14:35	10029	Trial2BackEng	Y	3	0	1000	0	11	12:14:35	1462367	0	0	0	0	0	0	0	0	0	0	0	0	0	0	0	0	0
073012	12:14:35	10029	Trial2BackEng	N	3	0	1000	1	12	12:14:35	1463887	0	0	0	0	0	0	0	0	0	0	0	0	0	0	0	0	0
073012	12:14:35	10029	Trial2BackEng	N	3	0	1000	1	13	12:14:35	1465406	0	0	0	0	0	0	0	0	0	0	0	0	0	0	0	0	0
073012	12:14:35	10029	Trial2BackEng	N	3	0	1000	1	14	12:14:35	1466925	0	0	0	0	0	0	0	0	0	0	0	0	0	0	0	0	0
073012	12:14:35	10029	Trial2BackEng	N	3	0	1000	1	15	12:14:35	1468445	0	0	0	0	0	0	0	0	0	0	0	0	0	0	0	0	0
073012	12:14:35	10029	Trial2BackEng	N	3	0	1000	1	16	12:14:35	1469964	0	0	0	0	0	0	0	0	0	0	0	0	0	0	0	0	0
073012	12:14:35	10029	Trial2BackEng	Y	3	0	1000	0	16	12:14:35	1471483	0	0	0	0	0	0	0	0	0	0	0	0	0	0	0	0	0
073012	12:14:35	10029	Trial2BackEng	N	3	0	1000	1	17	12:14:35	1473003	0	0	0	0	0	0	0	0	0	0	0	0	0	0	0	0	0
073012	12:14:35	10029	Trial2BackEng	N	3	0	1000	1	18	12:14:35	1474522	0	0	0	0	0	0	0	0	0	0	0	0	0	0	0	0	0
073012	12:14:35	10029	Trial2BackEng	N	3	0	1000	1	19	12:14:35	1476042	0	0	0	0	0	0	0	0	0	0	0	0	0	0	0	0	0
073012	12:14:35	10029	Trial2BackEng	N	3	0	1000	1	20	12:14:35	1477561	0	0	0	0	0	0	0	0	0	0	0	0	0	0	0	0	0
073012	12:14:35	10029	Trial2BackEng	Y	3	57	396	1	21	12:14:35	1478480	0	0	0	0	0	0	0	0	0	0	0	0	0	0	0	0	0
073012	12:14:35	10029	Trial2BackEng	N	3	0	1000	1	22	12:14:35	1480586	0	0	0	0	0	0	0	0	0	0	0	0	0	0	0	0	0
073012	12:14:35	10029	Trial2BackEng	N	3	0	1000	1	23	12:14:35	1482106	0	0	0	0	0	0	0	0	0	0	0	0	0	0	0	0	0
073012	12:14:35	10029	Trial2BackEng	N	3	0	1000	1	24	12:14:35	1483625	0	0	0	0	0	0	0	0	0	0	0	0	0	0	0	0	0
073012	12:14:35	10029	Trial2BackEng	N	3	0	1000	1	25	12:14:35	1485144	0	0	0	0	0	0	0	0	0	0	0	0	0	0	0	0	0
073012	12:14:35	10029	Trial2BackEng	N	3	0	1000	1	26	12:14:35	1486664	0	0	0	0	0	0	0	0	0	0	0	0	0	0	0	0	0
073012	12:14:35	10029	Trial2BackEng	N	3	0	1000	1	27	12:14:35	1488183	0	0	0	0	0	0	0	0	0	0	0	0	0	0	0	0	0
073012	12:14:35	10029	Trial2BackEng	Y	3	57	509	1	28	12:14:35	1489222	0	0	0	0	0	0	0	0	0	0	0	0	0	0	0	0	0
073012	12:14:35	10029	Trial2BackEng	N	3	0	1000	1	29	12:14:35	1491209	0	0	0	0	0	0	0	0	0	0	0	0	0	0	0	0	0
073012	12:14:35	10029	Trial2BackEng	N	3	0	1000	1	30	12:14:35	1492728	0	0	0	0	0	0	0	0	0	0	0	0	0	0	0	0	0
073012	12:14:35	10029	Trial2BackEng	N	3	0	1000	1	31	12:14:35	1494247	0	0	0	0	0	0	0	0	0	0	0	0	0	0	0	0	0
073012	12:14:35	10029	Trial2BackEng	Y	3	0	1000	0	31	12:14:35	1495767	0	0	0	0	0	0	0	0	0	0	0	0	0	0	0	0	0
073012	12:14:35	10029	Trial2BackEng	N	3	0	1000	1	32	12:14:35	1497286	0	0	0	0	0	0	0	0	0	0	0	0	0	0	0	0	0
073012	12:14:35	10029	Trial2BackEng	N	3	0	1000	1	33	12:14:35	1498805	0	0	0	0	0	0	0	0	0	0	0	0	0	0	0	0	0
073012	12:14:35	10029	Trial2BackEng	N	3	0	1000	1	34	12:14:35	1500325	0	0	0	0	0	0	0	0	0	0	0	0	0	0	0	0	0
073012	12:14:35	10029	Trial2BackEng	N	3	0	1000	1	35	12:14:35	1501844	0	0	0	0	0	0	0	0	0	0	0	0	0	0	0	0	0
073012	12:14:35	10029	Trial2BackEng	N	3	0	1000	1	36	12:14:35	1503363	0	0	0	0	0	0	0	0	0	0	0	0	0	0	0	0	0
073012	12:14:35	10029	Trial2BackEng	N	3	0	1000	1	37	12:14:35	1504883	0	0	0	0	0	0	0	0	0	0	0	0	0	0	0	0	0
073012	12:14:35	10029	Trial2BackEng	Y	3	0	1000	0	37	12:14:35	1506402	0	0	0	0	0	0	0	0	0	0	0	0	0	0	0	0	0
073012	12:14:35	10029	Trial2BackEng	N	3	0	1000	1	38	12:14:35	1507922	0	0	0	0	0	0	0	0	0	0	0	0	0	0	0	0	0
073012	12:14:35	10029	Trial2BackEng	N	3	0	1000	1	39	12:14:35	1509441	0	0	0	0	0	0	0	0	0	0	0	0	0	0	0	0	0
073012	12:14:35	10029	Trial2BackEng	N	3	0	1000	1	40	12:14:35	1510960	0	0	0	0	0	0	0	0	0	0	0	0	0	0	0	0	0
073012	12:14:35	10029	Trial2BackEng	N	3	0	1000	1	41	12:14:35	1512480	0	0	0	0	0	0	0	0	0	0	0	0	0	0	0	0	0
073012	12:14:35	10029	Trial2BackEng	Y	3	57	580	1	42	12:14:35	1513586	0	0	0	0	0	0	0	0	0	0	0	0	0	0	0	0	0
073012	12:14:35	10029	Trial2BackEng	N	3	0	1000	1	43	12:14:35	1515505	0	0	0	0	0	0	0	0	0	0	0	0	0	0	0	0	0
073012	12:14:35	10029	Trial2BackEng	N	3	0	1000	1	44	12:14:35	1517024	0	0	0	0	0	0	0	0	0	0	0	0	0	0	0	0	0
073012	12:14:35	10029	Trial2BackEng	N	3	0	1000	1	45	12:14:35	1518544	0	0	0	0	0	0	0	0	0	0	0	0	0	0	0	0	0
073012	12:14:35	10029	Trial2BackEng	N	3	0	1000	1	46	12:14:35	1520063	0	0	0	0	0	0	0	0	0	0	0	0	0	0	0	0	0
073012	12:14:35	10029	Trial2BackEng	N	3	0	1000	1	47	12:14:35	1521583	0	0	0	0	0	0	0	0	0	0	0	0	0	0	0	0	0
073012	12:14:35	10029	Trial2BackEng	Y	3	0	1000	0	47	12:14:35	1523102	0	0	0	0	0	0	0	0	0	0	0	0	0	0	0	0	0
073012	12:14:35	10029	Trial2BackEng	N	3	0	1000	1	48	12:14:35	1524621	0	0	0	0	0	0	0	0	0	0	0	0	0	0	0	0	0
073012	12:14:35	10029	Trial2BackEng	N	3	0	1000	1	49	12:14:35	1526141	0	0	0	0	0	0	0	0	0	0	0	0	0	0	0	0	0
073012	12:14:35	10029	Trial2BackEng	N	3	0	1000	1	50	12:14:35	1527660	0	0	0	0	0	0	0	0	0	0	0	0	0	0	0	0	0
073012	12:14:35	10029	Trial2BackEng	N	3	0	1000	1	51	12:14:35	1529179	0	0	0	0	0	0	0	0	0	0	0	0	0	0	0	0	0
073012	12:14:35	10029	Trial2BackEng	N	3	0	1000	1	52	12:14:35	1530699	0	0	0	0	0	0	0	0	0	0	0	0	0	0	0	0	0
073012	12:14:35	10029	Trial2BackEng	N	3	0	1000	1	53	12:14:35	1532218	0	0	0	0	0	0	0	0	0	0	0	0	0	0	0	0	0
073012	12:14:35	10029	Trial2BackEng	Y	3	57	473	1	54	12:14:35	1533218	0	0	0	0	0	0	0	0	0	0	0	0	0	0	0	0	0
073012	12:14:35	10029	Trial2BackEng	N	3	0	1000	1	55	12:14:35	1535244	0	0	0	0	0	0	0	0	0	0	0	0	0	0	0	0	0
073012	12:14:35	10029	Trial2BackEng	N	3	0	1000	1	56	12:14:35	1536763	0	0	0	0	0	0	0	0	0	0	0	0	0	0	0	0	0
073012	12:14:35	10029	Trial2BackEng	Y	3	0	1000	0	56	12:14:35	1538282	0	0	0	0	0	0	0	0	0	0	0	0	0	0	0	0	0
073012	12:14:35	10029	Trial2BackEng	N	3	0	1000	1	57	12:14:35	1539802	0	0	0	0	0	0	0	0	0	0	0	0	0	0	0	0	0
073012	12:14:35	10029	Trial2BackEng	N	3	0	1000	1	58	12:14:35	1541321	0	0	0	0	0	0	0	0	0	0	0	0	0	0	0	0	0
073012	12:14:35	10029	Trial2BackEng	N	3	0	1000	1	59	12:14:35	1542841	0	0	0	0	0	0	0	0	0	0	0	0	0	0	0	0	0
073012	12:14:35	10029	Trial2BackEng	N	3	0	1000	1	60	12:14:35	1544360	0	0	0	0	0	0	0	0	0	0	0	0	0	0	0	0	0
073012	12:14:35	10029	Trial2BackEng	N	3	0	1000	1	61	12:14:35	1545879	0	0	0	0	0	0	0	0	0	0	0	0	0	0	0	0	0
073012	12:14:35	10029	Trial2BackEng	N	3	0	1000	1	62	12:14:35	1547399	0	0	0	0	0	0	0	0	0	0	0	0	0	0	0	0	0
073012	12:14:35	10029	Trial2BackEng	N	3	0	1000	1	63	12:14:35	1548918	0	0	0	0	0	0	0	0	0	0	0	0	0	0	0	0	0
073012	12:14:35	10029	Trial2BackEng	N	3	0	1000	1	64	12:14:35	1550437	0	0	0	0	0	0	0	0	0	0	0	0	0	0	0	0	0
073012	12:14:35	10029	Trial2BackEng	N	3	0	1000	1	65	12:14:35	1551957	0	0	0	0	0	0	0	0	0	0	0	0	0	0	0	0	0
073012	12:14:35	10029	Trial2BackEng	N	3	0	1000	1	66	12:14:35	1553476	0	0	0	0	0	0	0	0	0	0	0	0	0	0	0	0	0
073012	12:14:35	10029	Trial2BackEng	Y	3	57	606	1	67	12:14:35	1554609	0	0	0	0	0	0	0	0	0	0	0	0	0	0	0	0	0
073012	12:14:35	10029	Trial2BackEng	N	3	0	1000	1	68	12:14:35	1556501	0	0	0	0	0	0	0	0	0	0	0	0	0	0	0	0	0
073012	12:14:35	10029	Trial2BackEng	N	3	0	1000	1	69	12:14:35	1558021	0	0	0	0	0	0	0	0	0	0	0	0	0	0	0	0	0
073012	12:14:35	10029	Trial2BackEng	N	3	0	1000	1	70	12:14:35	1559540	0	0	0	0	0	0	0	0	0	0	0	0	0	0	0	0	0
073012	12:14:35	10029	Trial2BackEng	Y	3	0	1000	0	70	12:14:35	1561059	0	0	0	0	0	0	0	0	0	0	0	0	0	0	0	0	0
073012	12:14:35	10029	Trial2BackEng	N	3	0	1000	1	71	12:14:35	1562579	0	0	0	0	0	0	0	0	0	0	0	0	0	0	0	0	0
073012	12:14:35	10029	Trial2BackEng	N	3	0	1000	1	72	12:14:35	1564098	0	0	0	0	0	0	0	0	0	0	0	0	0	0	0	0	0
073012	12:14:35	10029	Trial2BackEng	N	3	0	1000	1	73	12:14:35	1565618	0	0	0	0	0	0	0	0	0	0	0	0	0	0	0	0	0
073012	12:14:35	10029	Trial2BackEng	N	3	0	1000	1	74	12:14:35	1567137	0	0	0	0	0	0	0	0	0	0	0	0	0	0	0	0	0
073012	12:14:35	10029	Trial2BackEng	N	3	0	1000	1	75	12:14:35	1568656	0	0	0	0	0	0	0	0	0	0	0	0	0	0	0	0	0
073012	12:14:35	10029	Trial2BackEng	Y	3	57	561	1	76	12:14:35	1569749	0	0	0	0	0	0	0	0	0	0	0	0	0	0	0	0	0
073012	12:14:35	10029	Trial2BackEng	N	3	0	1000	1	77	12:14:35	1571682	0	0	0	0	0	0	0	0	0	0	0	0	0	0	0	0	0
073012	12:14:35	10029	Trial2BackEng	N	3	0	1000	1	78	12:14:35	1573201	0	0	0	0	0	0	0	0	0	0	0	0	0	0	0	0	0
073012	12:14:35	10029	Trial2BackEng	N	3	0	1000	1	79	12:14:35	1574721	0	0	0	0	0	0	0	0	0	0	0	0	0	0	0	0	0
073012	12:14:35	10029	Trial2BackEng	N	3	0	1000	1	80	12:14:35	1576240	0	0	0	0	0	0	0	0	0	0	0	0	0	0	0	0	0
073012	12:14:35	10029	Trial2BackEng	N	3	0	1000	1	81	12:14:35	1577759	0	0	0	0	0	0	0	0	0	0	0	0	0	0	0	0	0
073012	12:14:35	10029	Trial2BackEng	N	3	0	1000	1	82	12:14:35	1579279	0	0	0	0	0	0	0	0	0	0	0	0	0	0	0	0	0
073012	12:14:35	10029	Trial2BackEng	N	3	0	1000	1	83	12:14:35	1580798	0	0	0	0	0	0	0	0	0	0	0	0	0	0	0	0	0
073012	12:14:35	10029	Trial2BackEng	N	3	0	1000	1	84	12:14:35	1582317	0	0	0	0	0	0	0	0	0	0	0	0	0	0	0	0	0
073012	12:14:35	10029	Trial2BackEng	N	3	0	1000	1	85	12:14:35	1583837	0	0	0	0	0	0	0	0	0	0	0	0	0	0	0	0	0
073012	12:14:35	10029	Trial2BackEng	Y	3	57	388	1	86	12:14:35	1584756	0	0	0	0	0	0	0	0	0	0	0	0	0	0	0	0	0
073012	12:14:35	10029	Trial2BackEng	N	3	0	1000	1	87	12:14:35	1586862	0	0	0	0	0	0	0	0	0	0	0	0	0	0	0	0	0
073012	12:14:35	10029	Trial2BackEng	N	3	0	1000	1	88	12:14:35	1588382	0	0	0	0	0	0	0	0	0	0	0	0	0	0	0	0	0
073012	12:14:35	10029	Trial2BackEng	N	3	0	1000	1	89	12:14:35	1589901	0	0	0	0	0	0	0	0	0	0	0	0	0	0	0	0	0
073012	12:14:35	10029	Trial2BackEng	N	3	0	1000	1	90	12:14:35	1591420	0	0	0	0	0	0	0	0	0	0	0	0	0	0	0	0	0
073012	12:14:35	10029	Trial2BackEng	N	3	0	1000	1	91	12:14:35	1592940	0	0	0	0	0	0	0	0	0	0	0	0	0	0	0	0	0
073012	12:14:35	10029	Trial2BackEng	N	3	0	1000	1	92	12:14:35	1594459	0	0	0	0	0	0	0	0	0	0	0	0	0	0	0	0	0
073012	12:14:35	10029	Trial2BackEng	N	3	57	502	0	92	12:14:35	1595485	0	0	0	0	0	0	0	0	0	0	0	0	0	0	0	0	0
073012	12:14:35	10029	Trial2BackEng	N	3	0	1000	1	93	12:14:35	1597485	0	0	0	0	0	0	0	0	0	0	0	0	0	0	0	0	0
073012	12:14:35	10029	Trial2BackEng	Y	3	0	1000	0	93	12:14:35	1599004	0	0	0	0	0	0	0	0	0	0	0	0	0	0	0	0	0
073012	12:14:35	10029	Trial2BackEng	N	3	0	1000	1	94	12:14:35	1600523	0	0	0	0	0	0	0	0	0	0	0	0	0	0	0	0	0
073012	12:14:35	10029	Trial2BackEng	N	3	0	1000	1	95	12:14:35	1602043	0	0	0	0	0	0	0	0	0	0	0	0	0	0	0	0	0
073012	12:14:35	10029	Trial2BackEng	N	3	0	1000	1	96	12:14:35	1603562	0	0	0	0	0	0	0	0	0	0	0	0	0	0	0	0	0
073012	12:14:35	10029	Trial2BackEng	N	3	0	1000	1	97	12:14:35	1605081	0	0	0	0	0	0	0	0	0	0	0	0	0	0	0	0	0
073012	12:14:35	10029	Trial2BackEng	Y	3	57	391	1	98	12:14:35	1606001	0	0	0	0	0	0	0	0	0	0	0	0	0	0	0	0	0
073012	12:14:35	10029	Trial2BackEng	N	3	0	1000	1	99	12:14:35	1608107	0	0	0	0	0	0	0	0	0	0	0	0	0	0	0	0	0
073012	12:14:35	10029	Trial2BackEng	N	3	0	1000	1	100	12:14:35	1609626	0	0	0	0	0	0	0	0	0	0	0	0	0	0	0	0	0
073012	12:14:35	10029	Trial2BackEng	N	3	0	1000	1	101	12:14:35	1611145	0	0	0	0	0	0	0	0	0	0	0	0	0	0	0	0	0
073012	12:14:35	10029	Trial2BackEng	Y	3	0	1000	0	101	12:14:35	1612665	0	0	0	0	0	0	0	0	0	0	0	0	0	0	0	0	0
073012	12:14:35	10029	Trial2BackEng	N	3	0	1000	1	102	12:14:35	1614184	0	0	0	0	0	0	0	0	0	0	0	0	0	0	0	0	0
073012	12:14:35	10029	Trial2BackEng	N	3	0	1000	1	103	12:14:35	1615704	0	0	0	0	0	0	0	0	0	0	0	0	0	0	0	0	0
073012	12:14:35	10029	Trial2BackEng	N	3	0	1000	1	104	12:14:35	1617223	0	0	0	0	0	0	0	0	0	0	0	0	0	0	0	0	0
073012	12:14:35	10029	Trial2BackEng	N	3	0	1000	1	105	12:14:35	1618742	0	0	0	0	0	0	0	0	0	0	0	0	0	0	0	0	0
073012	12:14:35	10029	Trial2BackEng	N	3	0	1000	1	106	12:14:35	1620262	0	0	0	0	0	0	0	0	0	0	0	0	0	0	0	0	0
073012	12:14:35	10029	Trial2BackEng	Y	3	57	410	1	107	12:14:35	1621194	0	0	0	0	0	0	0	0	0	0	0	0	0	0	0	0	0
073012	12:14:35	10029	Trial2BackEng	N	3	0	1000	1	108	12:14:35	1623287	0	0	0	0	0	0	0	0	0	0	0	0	0	0	0	0	0
073012	12:14:35	10029	Trial2BackEng	N	3	0	1000	1	109	12:14:35	1624806	0	0	0	0	0	0	0	0	0	0	0	0	0	0	0	0	0
073012	12:14:35	10029	Trial2BackEng	N	3	0	1000	1	110	12:14:35	1626326	0	0	0	0	0	0	0	0	0	0	0	0	0	0	0	0	0
073012	12:14:35	10029	Trial2BackEng	Y	3	57	746	1	111	12:14:35	1627605	0	0	0	0	0	0	0	0	0	0	0	0	0	0	0	0	0
073012	12:14:35	10029	Memory1RBaseline	Score	5	M1	13815	0	111	12:14:35	1685808	0	0	0	0	0	0	0	0	0	0	0	0	0	0	0	0	0
073012	12:14:35	10029	Memory1RBaseline	Score	5	M2	155	0	111	12:14:35	1686008	0	0	0	0	0	0	0	0	0	0	0	0	0	0	0	0	0
073012	12:14:35	10029	Memory1RBaseline	Score	5	M3	595	0	111	12:14:35	1686648	0	0	0	0	0	0	0	0	0	0	0	0	0	0	0	0	0
073012	12:14:35	10029	Memory1RBaseline	Score	5	M5	1843	0	111	12:14:35	1688527	0	0	0	0	0	0	0	0	0	0	0	0	0	0	0	0	0
073012	12:14:35	10029	Memory1RBaseline	Score	5	M7	2051	0	111	12:14:35	1690619	0	0	0	0	0	0	0	0	0	0	0	0	0	0	0	0	0
073012	12:14:35	10029	Memory1RBaseline	Score	5	M8	215	0	111	12:14:35	1690873	0	0	0	0	0	0	0	0	0	0	0	0	0	0	0	0	0
073012	12:14:35	10029	Memory1RBaseline	Score	5	Done	1377	0	111	12:14:35	1692285	0	0	0	0	0	0	0	0	0	0	0	0	0	0	0	0	0
073012	12:14:35	10029	Memory2RBaseline	Score2	5	22	18068	0	111	12:14:35	1731869	0	0	0	0	0	0	0	0	0	0	0	0	0	0	0	0	0
073012	12:14:35	10029	Memory2RBaseline	Score2	5	22	276	0	111	12:14:35	1732189	0	0	0	0	0	0	0	0	0	0	0	0	0	0	0	0	0
073012	12:14:35	10029	Memory2RBaseline	Score2	5	11	1084	0	111	12:14:35	1733308	0	0	0	0	0	0	0	0	0	0	0	0	0	0	0	0	0
073012	12:14:35	10029	Memory2RBaseline	Score2	5	22	324	0	111	12:14:35	1733668	0	0	0	0	0	0	0	0	0	0	0	0	0	0	0	0	0
073012	12:14:35	10029	Memory2RBaseline	Score2	5	33	357	0	111	12:14:35	1734068	0	0	0	0	0	0	0	0	0	0	0	0	0	0	0	0	0
073012	12:14:35	10029	Memory2RBaseline	Score2	5	44	884	0	111	12:14:35	1734988	0	0	0	0	0	0	0	0	0	0	0	0	0	0	0	0	0
073012	12:14:35	10029	Memory2RBaseline	Score2	5	55	341	0	111	12:14:35	1735374	0	0	0	0	0	0	0	0	0	0	0	0	0	0	0	0	0
073012	12:14:35	10029	Memory2RBaseline	Score2	5	77	1882	0	111	12:14:35	1737293	0	0	0	0	0	0	0	0	0	0	0	0	0	0	0	0	0
073012	12:14:35	10029	Memory2RBaseline	Score2	5	88	355	0	111	12:14:35	1737693	0	0	0	0	0	0	0	0	0	0	0	0	0	0	0	0	0
073012	12:14:35	10029	Memory2RBaseline	Score2	5	Done	2947	0	111	12:14:35	1740679	0	0	0	0	0	0	0	0	0	0	0	0	0	0	0	0	0
073012	12:14:35	10029	Memory3RBaseline	Score3	5	111	15284	0	111	12:14:35	1777330	0	0	0	0	0	0	0	0	0	0	0	0	0	0	0	0	0
073012	12:14:35	10029	Memory3RBaseline	Score3	5	222	285	0	111	12:14:35	1777650	0	0	0	0	0	0	0	0	0	0	0	0	0	0	0	0	0
073012	12:14:35	10029	Memory3RBaseline	Score3	5	333	373	0	111	12:14:35	1778063	0	0	0	0	0	0	0	0	0	0	0	0	0	0	0	0	0
073012	12:14:35	10029	Memory3RBaseline	Score3	5	444	488	0	111	12:14:35	1778596	0	0	0	0	0	0	0	0	0	0	0	0	0	0	0	0	0
073012	12:14:35	10029	Memory3RBaseline	Score3	5	555	507	0	111	12:14:35	1779143	0	0	0	0	0	0	0	0	0	0	0	0	0	0	0	0	0
073012	12:14:35	10029	Memory3RBaseline	Score3	5	666	360	0	111	12:14:35	1779543	0	0	0	0	0	0	0	0	0	0	0	0	0	0	0	0	0
073012	12:14:35	10029	Memory3RBaseline	Score3	5	777	947	0	111	12:14:35	1780529	0	0	0	0	0	0	0	0	0	0	0	0	0	0	0	0	0
073012	12:14:35	10029	Memory3RBaseline	Score3	5	888	326	0	111	12:14:35	1780902	0	0	0	0	0	0	0	0	0	0	0	0	0	0	0	0	0
073012	12:14:35	10029	Memory3RBaseline	Score3	5	Done	5681	0	111	12:14:35	1786620	0	0	0	0	0	0	0	0	0	0	0	0	0	0	0	0	0
073012	12:14:35	10029	LoriaEngLH3	Stop	6	3	8906	0	111	12:14:35	1865615	0	0	0	0	0	0	0	0	0	0	0	0	0	0	0	0	0
073012	12:14:35	10029	EngTrail	Trails	7	1Trails	1466	0	111	12:14:35	1939210	0	0	0	0	0	0	0	0	0	0	0	0	0	0	0	0	0
073012	12:14:35	10029	Serial7EngBaseline	Serial7EngBaseline	8	83	3986	0	111	12:14:35	1990070	1	0	0	0	0	0	0	0	0	0	0	0	0	0	0	0	0
073012	12:14:35	10029	Serial7EngBaseline	Serial7EngBaseline	8	76	2943	0	111	12:14:35	1993029	2	0	0	0	0	0	0	0	0	0	0	0	0	0	0	0	0
073012	12:14:35	10029	Serial7EngBaseline	Serial7EngBaseline	8	69	3707	0	111	12:14:35	1996761	3	0	0	0	0	0	0	0	0	0	0	0	0	0	0	0	0
073012	12:14:35	10029	Serial7EngBaseline	Serial7EngBaseline	8	62	3389	0	111	12:14:35	2000173	4	0	0	0	0	0	0	0	0	0	0	0	0	0	0	0	0
073012	12:14:35	10029	Serial7EngBaseline	Serial7EngBaseline	8	55	3303	0	111	12:14:35	2003506	5	0	0	0	0	0	0	0	0	0	0	0	0	0	0	0	0
073012	12:14:35	10029	corsiblockEngFwrd	recallseqEngFwrd	9	9	2837	0	111	12:14:35	2041010	5	0	0	0	0	0	0	0	0	0	0	0	0	0	0	0	0
073012	12:14:35	10029	corsiblockEngFwrd	recallseqEngFwrd	9	5	1038	0	111	12:14:35	2042089	5	0	0	0	0	0	0	0	0	0	0	0	0	0	0	0	0
073012	12:14:35	10029	corsiblockEngFwrd	recallseqEngFwrd	9	doneCorsiEng	1207	0	111	12:14:35	2043342	5	0	0	0	0	0	0	0	0	0	0	0	0	0	0	2	0
073012	12:14:35	10029	corsiblockEngFwrd	recallseqEngFwrd	9	4	1334	0	111	12:14:35	2050766	5	0	0	0	0	0	0	0	0	0	0	0	0	0	0	2	0
073012	12:14:35	10029	corsiblockEngFwrd	recallseqEngFwrd	9	7	914	0	111	12:14:35	2051725	5	0	0	0	0	0	0	0	0	0	0	0	0	0	0	2	0
073012	12:14:35	10029	corsiblockEngFwrd	recallseqEngFwrd	9	6	1330	0	111	12:14:35	2053098	5	0	0	0	0	0	0	0	0	0	0	0	0	0	0	2	0
073012	12:14:35	10029	corsiblockEngFwrd	recallseqEngFwrd	9	doneCorsiEng	1006	0	111	12:14:35	2054138	5	0	0	0	0	0	0	0	0	0	0	0	0	0	0	3	0
073012	12:14:35	10029	corsiblockEngFwrd	recallseqEngFwrd	9	3	1379	0	111	12:14:35	2062601	5	0	0	0	0	0	0	0	0	0	0	0	0	0	0	3	0
073012	12:14:35	10029	corsiblockEngFwrd	recallseqEngFwrd	9	1	727	0	111	12:14:35	2063360	5	0	0	0	0	0	0	0	0	0	0	0	0	0	0	3	0
073012	12:14:35	10029	corsiblockEngFwrd	recallseqEngFwrd	9	2	654	0	111	12:14:35	2064054	5	0	0	0	0	0	0	0	0	0	0	0	0	0	0	3	0
073012	12:14:35	10029	corsiblockEngFwrd	recallseqEngFwrd	9	8	1258	0	111	12:14:35	2065346	5	0	0	0	0	0	0	0	0	0	0	0	0	0	0	3	0
073012	12:14:35	10029	corsiblockEngFwrd	recallseqEngFwrd	9	doneCorsiEng	1221	0	111	12:14:35	2066612	5	0	0	0	0	0	0	0	0	0	0	0	0	0	0	4	0
073012	12:14:35	10029	corsiblockEngFwrd	recallseqEngFwrd	9	7	737	0	111	12:14:35	2075435	5	0	0	0	0	0	0	0	0	0	0	0	0	0	0	4	0
073012	12:14:35	10029	corsiblockEngFwrd	recallseqEngFwrd	9	2	508	0	111	12:14:35	2075982	5	0	0	0	0	0	0	0	0	0	0	0	0	0	0	4	0
073012	12:14:35	10029	corsiblockEngFwrd	recallseqEngFwrd	9	1	865	0	111	12:14:35	2076888	5	0	0	0	0	0	0	0	0	0	0	0	0	0	0	4	0
073012	12:14:35	10029	corsiblockEngFwrd	recallseqEngFwrd	9	3	671	0	111	12:14:35	2077595	5	0	0	0	0	0	0	0	0	0	0	0	0	0	0	4	0
073012	12:14:35	10029	corsiblockEngFwrd	recallseqEngFwrd	9	4	573	0	111	12:14:35	2078208	5	0	0	0	0	0	0	0	0	0	0	0	0	0	0	4	0
073012	12:14:35	10029	corsiblockEngFwrd	recallseqEngFwrd	9	doneCorsiEng	951	0	111	12:14:35	2079194	5	0	0	0	0	0	0	0	0	0	0	0	0	0	0	4	0
073012	12:14:35	10029	corsiblockEngFwrd	recallseqEngFwrd	9	8	971	0	111	12:14:35	2088217	5	0	0	0	0	0	0	0	0	0	0	0	0	0	0	4	0
073012	12:14:35	10029	corsiblockEngFwrd	recallseqEngFwrd	9	4	646	0	111	12:14:35	2088897	5	0	0	0	0	0	0	0	0	0	0	0	0	0	0	4	0
073012	12:14:35	10029	corsiblockEngFwrd	recallseqEngFwrd	9	6	630	0	111	12:14:35	2089563	5	0	0	0	0	0	0	0	0	0	0	0	0	0	0	4	0
073012	12:14:35	10029	corsiblockEngFwrd	recallseqEngFwrd	9	9	796	0	111	12:14:35	2090403	5	0	0	0	0	0	0	0	0	0	0	0	0	0	0	4	0
073012	12:14:35	10029	corsiblockEngFwrd	recallseqEngFwrd	9	8	732	0	111	12:14:35	2091176	5	0	0	0	0	0	0	0	0	0	0	0	0	0	0	4	0
073012	12:14:35	10029	corsiblockEngFwrd	recallseqEngFwrd	9	doneCorsiEng	791	0	111	12:14:35	2092002	5	0	0	0	0	0	0	0	0	0	0	0	0	0	0	5	0
073012	12:14:35	10029	corsiblockEngFwrd	recallseqEngFwrd	9	7	1490	0	111	12:14:35	2101585	5	0	0	0	0	0	0	0	0	0	0	0	0	0	0	5	0
073012	12:14:35	10029	corsiblockEngFwrd	recallseqEngFwrd	9	5	3573	0	111	12:14:35	2105196	5	0	0	0	0	0	0	0	0	0	0	0	0	0	0	5	0
073012	12:14:35	10029	corsiblockEngFwrd	recallseqEngFwrd	9	3	1514	0	111	12:14:35	2106756	5	0	0	0	0	0	0	0	0	0	0	0	0	0	0	5	0
073012	12:14:35	10029	corsiblockEngFwrd	recallseqEngFwrd	9	9	1106	0	111	12:14:35	2107902	5	0	0	0	0	0	0	0	0	0	0	0	0	0	0	5	0
073012	12:14:35	10029	corsiblockEngFwrd	recallseqEngFwrd	9	6	1064	0	111	12:14:35	2109008	5	0	0	0	0	0	0	0	0	0	0	0	0	0	0	5	0
073012	12:14:35	10029	corsiblockEngFwrd	recallseqEngFwrd	9	doneCorsiEng	766	0	111	12:14:35	2109808	5	0	0	0	0	0	0	0	0	0	0	0	0	0	0	5	0
073012	12:14:35	10029	corsiblockEngFwrd	recallseqEngFwrd	9	2	852	0	111	12:14:35	2119711	5	0	0	0	0	0	0	0	0	0	0	0	0	0	0	5	0
073012	12:14:35	10029	corsiblockEngFwrd	recallseqEngFwrd	9	4	607	0	111	12:14:35	2120364	5	0	0	0	0	0	0	0	0	0	0	0	0	0	0	5	0
073012	12:14:35	10029	corsiblockEngFwrd	recallseqEngFwrd	9	3	610	0	111	12:14:35	2121017	5	0	0	0	0	0	0	0	0	0	0	0	0	0	0	5	0
073012	12:14:35	10029	corsiblockEngFwrd	recallseqEngFwrd	9	9	1061	0	111	12:14:35	2122123	5	0	0	0	0	0	0	0	0	0	0	0	0	0	0	5	0
073012	12:14:35	10029	corsiblockEngFwrd	recallseqEngFwrd	9	8	1171	0	111	12:14:35	2123336	5	0	0	0	0	0	0	0	0	0	0	0	0	0	0	5	0
073012	12:14:35	10029	corsiblockEngFwrd	recallseqEngFwrd	9	doneCorsiEng	1078	0	111	12:14:35	2124455	5	0	0	0	0	0	0	0	0	0	0	0	0	0	0	5	0
073012	12:14:35	10029	corsiblockEngRev	recallseqEngRev	10	7	1514	0	111	12:14:35	2136330	5	0	0	0	0	0	0	0	0	0	0	0	0	0	0	5	0
073012	12:14:35	10029	corsiblockEngRev	recallseqEngRev	10	4	627	0	111	12:14:35	2136997	5	0	0	0	0	0	0	0	0	0	0	0	0	0	0	5	0
073012	12:14:35	10029	corsiblockEngRev	recallseqEngRev	10	doneCorsiEng	889	0	111	12:14:35	2137930	5	0	0	0	0	0	0	0	0	0	0	0	0	0	0	5	2
073012	12:14:35	10029	corsiblockEngRev	recallseqEngRev	10	3	1345	0	111	12:14:35	2145367	5	0	0	0	0	0	0	0	0	0	0	0	0	0	0	5	2
073012	12:14:35	10029	corsiblockEngRev	recallseqEngRev	10	6	574	0	111	12:14:35	2145980	5	0	0	0	0	0	0	0	0	0	0	0	0	0	0	5	2
073012	12:14:35	10029	corsiblockEngRev	recallseqEngRev	10	1	737	0	111	12:14:35	2146753	5	0	0	0	0	0	0	0	0	0	0	0	0	0	0	5	2
073012	12:14:35	10029	corsiblockEngRev	recallseqEngRev	10	doneCorsiEng	892	0	111	12:14:35	2147686	5	0	0	0	0	0	0	0	0	0	0	0	0	0	0	5	3
073012	12:14:35	10029	corsiblockEngRev	recallseqEngRev	10	8	692	0	111	12:14:35	2155469	5	0	0	0	0	0	0	0	0	0	0	0	0	0	0	5	3
073012	12:14:35	10029	corsiblockEngRev	recallseqEngRev	10	5	807	0	111	12:14:35	2156322	5	0	0	0	0	0	0	0	0	0	0	0	0	0	0	5	3
073012	12:14:35	10029	corsiblockEngRev	recallseqEngRev	10	2	507	0	111	12:14:35	2156868	5	0	0	0	0	0	0	0	0	0	0	0	0	0	0	5	3
073012	12:14:35	10029	corsiblockEngRev	recallseqEngRev	10	9	624	0	111	12:14:35	2157535	5	0	0	0	0	0	0	0	0	0	0	0	0	0	0	5	3
073012	12:14:35	10029	corsiblockEngRev	recallseqEngRev	10	doneCorsiEng	1117	0	111	12:14:35	2158694	5	0	0	0	0	0	0	0	0	0	0	0	0	0	0	5	3
073012	12:14:35	10029	corsiblockEngRev	recallseqEngRev	10	8	2307	0	111	12:14:35	2168051	5	0	0	0	0	0	0	0	0	0	0	0	0	0	0	5	3
073012	12:14:35	10029	corsiblockEngRev	recallseqEngRev	10	5	754	0	111	12:14:35	2168837	5	0	0	0	0	0	0	0	0	0	0	0	0	0	0	5	3
073012	12:14:35	10029	corsiblockEngRev	recallseqEngRev	10	2	807	0	111	12:14:35	2169690	5	0	0	0	0	0	0	0	0	0	0	0	0	0	0	5	3
073012	12:14:35	10029	corsiblockEngRev	recallseqEngRev	10	1	625	0	111	12:14:35	2170356	5	0	0	0	0	0	0	0	0	0	0	0	0	0	0	5	3
073012	12:14:35	10029	corsiblockEngRev	recallseqEngRev	10	doneCorsiEng	1160	0	111	12:14:35	2171556	5	0	0	0	0	0	0	0	0	0	0	0	0	0	0	5	3
073012	12:14:35	10029	testEngBaseline	WordsEngBaseline	11	2EngBaseline	1182	0	111	12:14:35	2203863	5	0	1	0	0	0	0	0	0	0	0	0	0	0	0	5	3
073012	12:14:35	10029	testEngBaseline	WordsEngBaseline	11	2EngBaseline	1077	0	111	12:14:35	2204982	5	0	1	0	0	0	0	0	0	0	0	0	0	0	0	5	3
073012	12:14:35	10029	testEngBaseline	WordsEngBaseline	11	1EngBaseline	300	0	111	12:14:35	2205329	5	1	1	0	0	0	0	0	0	0	0	0	0	0	0	5	3
073012	12:14:35	10029	testEngBaseline	WordsEngBaseline	11	3EngBaseline	351	0	111	12:14:35	2205742	5	1	1	1	0	0	0	0	0	0	0	0	0	0	0	5	3
073012	12:14:35	10029	testEngBaseline	WordsEngBaseline	11	4EngBaseline	437	0	111	12:14:35	2206222	5	1	1	1	1	0	0	0	0	0	0	0	0	0	0	5	3
073012	12:14:35	10029	testEngBaseline	WordsEngBaseline	11	5EngBaseline	1197	0	111	12:14:35	2207461	5	1	1	1	1	1	0	0	0	0	0	0	0	0	0	5	3
073012	12:14:35	10029	testEngBaseline	WordsEngBaseline	11	6EngBaseline	950	0	111	12:14:35	2208447	5	1	1	1	1	1	1	0	0	0	0	0	0	0	0	5	3
073012	12:14:35	10029	testEngBaseline	WordsEngBaseline	11	7EngBaseline	294	0	111	12:14:35	2208794	5	1	1	1	1	1	1	1	0	0	0	0	0	0	0	5	3
073012	12:14:35	10029	testEngBaseline	WordsEngBaseline	11	DoneEngBaseline	978	0	111	12:14:35	2209807	5	1	1	1	1	1	1	1	0	0	0	0	0	0	0	5	3
073012	12:14:35	10029	testEngBaseline	Cat2EngBaseline	11	0	1	0	111	12:14:35	2209824	5	1	1	1	1	1	1	1	0	0	0	0	0	0	0	5	3
073012	12:14:35	10029	testEngBaseline	Ch2EngBaseline	11	RR2EngBaseline	15802	0	111	12:14:35	2225680	5	1	3	1	1	1	1	1	0	0	0	0	0	0	0	5	3
073012	12:14:35	10029	testEngBaseline	Cat8EngBaseline	11	R8EngBaseline	7538	0	111	12:14:35	2233263	5	1	3	1	1	1	1	1	2	0	0	0	0	0	0	5	3
073012	12:14:35	10029	DigitSpanFwrdEngBaseline	Score1FwrdEngBaseline	12	DS1	3470	0	111	12:14:35	2252109	5	1	3	1	1	1	1	1	2	0	0	0	0	0	0	5	3
073012	12:14:35	10029	DigitSpanFwrdEngBaseline	Gate1FwrdEngBaseline	12	0	1	0	111	12:14:35	2252124	5	1	3	1	1	1	1	1	2	3	0	0	0	0	0	5	3
073012	12:14:35	10029	DigitSpanFwrdEngBaseline	Score2FwrdEngBaseline	12	DS1	3445	0	111	12:14:35	2261331	5	1	3	1	1	1	1	1	2	3	0	0	0	0	0	5	3
073012	12:14:35	10029	DigitSpanFwrdEngBaseline	Gate3FwrdEngBaseline	12	0	1	0	111	12:14:35	2261347	5	1	3	1	1	1	1	1	2	4	0	0	0	0	0	5	3
073012	12:14:35	10029	DigitSpanFwrdEngBaseline	Score3FwrdEngBaseline	12	DS1	3876	0	111	12:14:35	2273020	5	1	3	1	1	1	1	1	2	4	0	0	0	0	0	5	3
073012	12:14:35	10029	DigitSpanFwrdEngBaseline	Gate5FwrdEngBaseline	12	0	1	0	111	12:14:35	2273036	5	1	3	1	1	1	1	1	2	5	0	0	0	0	0	5	3
073012	12:14:35	10029	DigitSpanFwrdEngBaseline	Score4FwrdEngBaseline	12	DS1	3433	0	111	12:14:35	2286001	5	1	3	1	1	1	1	1	2	5	0	0	0	0	0	5	3
073012	12:14:35	10029	DigitSpanFwrdEngBaseline	Gate7FwrdEngBaseline	12	0	1	0	111	12:14:35	2286017	5	1	3	1	1	1	1	1	2	6	0	0	0	0	0	5	3
073012	12:14:35	10029	DigitSpanFwrdEngBaseline	Score5FwrdEngBaseline	12	DS1	6753	0	111	12:14:35	2303847	5	1	3	1	1	1	1	1	2	6	0	0	0	0	0	5	3
073012	12:14:35	10029	DigitSpanFwrdEngBaseline	Gate9FwrdEngBaseline	12	0	1	0	111	12:14:35	2303863	5	1	3	1	1	1	1	1	2	7	0	0	0	0	0	5	3
073012	12:14:35	10029	DigitSpanFwrdEngBaseline	Score6FwrdEngBaseline	12	DS1	7851	0	111	12:14:35	2325038	5	1	3	1	1	1	1	1	2	8	0	0	0	0	0	5	3
073012	12:14:35	10029	DigitSpanEngBaseline	Score1EngBaseline	13	DS1	3887	0	111	12:14:35	2345230	5	1	3	1	1	1	1	1	2	8	0	0	0	0	0	5	3
073012	12:14:35	10029	DigitSpanEngBaseline	Gate1EngBaseline	13	0	1	0	111	12:14:35	2345245	5	1	3	1	1	1	1	1	2	8	2	0	0	0	0	5	3
073012	12:14:35	10029	DigitSpanEngBaseline	Score2EngBaseline	13	DS1	3322	0	111	12:14:35	2353267	5	1	3	1	1	1	1	1	2	8	2	0	0	0	0	5	3
073012	12:14:35	10029	DigitSpanEngBaseline	Gate3EngBaseline	13	0	1	0	111	12:14:35	2353282	5	1	3	1	1	1	1	1	2	8	3	0	0	0	0	5	3
073012	12:14:35	10029	DigitSpanEngBaseline	Score3EngBaseline	13	DS1	7883	0	111	12:14:35	2367767	5	1	3	1	1	1	1	1	2	8	3	0	0	0	0	5	3
073012	12:14:35	10029	DigitSpanEngBaseline	Gate5EngBaseline	13	0	1	0	111	12:14:35	2367782	5	1	3	1	1	1	1	1	2	8	4	0	0	0	0	5	3
073012	12:14:35	10029	DigitSpanEngBaseline	Score4EngBaseline	13	DS2	11620	0	111	12:14:35	2387479	5	1	3	1	1	1	1	1	2	8	4	0	0	0	0	5	3
073012	12:14:35	10029	DigitSpanEngBaseline	Gate7EngBaseline	13	0	1	0	111	12:14:35	2387494	5	1	3	1	1	1	1	1	2	8	4	0	0	0	0	5	3
073012	12:14:35	10029	DigitSpanEngBaseline	Score44EngBaseline	13	DS2	9678	0	111	12:14:35	2405418	5	1	3	1	1	1	1	1	2	8	4	0	0	0	0	5	3
073012	12:14:35	10029	Trial	IncongruentRight	14	205	626	1	111	12:14:35	2477002	5	1	3	1	1	1	1	1	2	8	4	0	0	0	0	5	3
073012	12:14:35	10029	Trial	IncongruentLeft	14	203	426	1	111	12:14:35	2477802	5	1	3	1	1	1	1	1	2	8	4	0	0	0	0	5	3
073012	12:14:35	10029	Trial	CongruentRight	14	205	291	1	111	12:14:35	2478655	5	1	3	1	1	1	1	1	2	8	4	0	0	0	0	5	3
073012	12:14:35	10029	Trial	IncongruentRight	14	205	539	1	111	12:14:35	2479907	5	1	3	1	1	1	1	1	2	8	4	0	0	0	0	5	3
073012	12:14:35	10029	Trial	CongruentLeft	14	203	438	1	111	12:14:35	2480827	5	1	3	1	1	1	1	1	2	8	4	0	0	0	0	5	3
073012	12:14:35	10029	Trial	CongruentRight	14	205	350	1	111	12:14:35	2481733	5	1	3	1	1	1	1	1	2	8	4	0	0	0	0	5	3
073012	12:14:35	10029	Trial	IncongruentRight	14	205	519	1	111	12:14:35	2482906	5	1	3	1	1	1	1	1	2	8	4	0	0	0	0	5	3
073012	12:14:35	10029	Trial	CongruentLeft	14	203	543	1	111	12:14:35	2483919	5	1	3	1	1	1	1	1	2	8	4	0	0	0	0	5	3
073012	12:14:35	10029	Trial	IncongruentLeft	14	205	440	0	111	12:14:35	2484825	5	1	3	1	1	1	1	1	2	8	4	0	0	0	0	5	3
073012	12:14:35	10029	Trial	IncongruentLeft	14	0	737	0	111	12:14:35	2486105	5	1	3	1	1	1	1	1	2	8	4	0	0	0	0	5	3
073012	12:14:35	10029	Trial	CongruentRight	14	205	456	1	111	12:14:35	2486838	5	1	3	1	1	1	1	1	2	8	4	0	0	0	0	5	3
073012	12:14:35	10029	Trial	IncongruentRight	14	205	561	1	111	12:14:35	2487944	5	1	3	1	1	1	1	1	2	8	4	0	0	0	0	5	3
073012	12:14:35	10029	Trial	CongruentLeft	14	203	473	1	111	12:14:35	2488850	5	1	3	1	1	1	1	1	2	8	4	0	0	0	0	5	3
073012	12:14:35	10029	Trial	CongruentRight	14	205	466	1	111	12:14:35	2489850	5	1	3	1	1	1	1	1	2	8	4	0	0	0	0	5	3
073012	12:14:35	10029	Trial	IncongruentLeft	14	203	605	1	111	12:14:35	2490996	5	1	3	1	1	1	1	1	2	8	4	0	0	0	0	5	3
073012	12:14:35	10029	Trial	IncongruentRight	14	205	549	1	111	12:14:35	2491943	5	1	3	1	1	1	1	1	2	8	4	0	0	0	0	5	3
073012	12:14:35	10029	Trial	CongruentRight	14	205	461	1	111	12:14:35	2492849	5	1	3	1	1	1	1	1	2	8	4	0	0	0	0	5	3
073012	12:14:35	10029	Trial	CongruentLeft	14	203	598	1	111	12:14:35	2493995	5	1	3	1	1	1	1	1	2	8	4	0	0	0	0	5	3
073012	12:14:35	10029	Trial	CongruentRight	14	205	446	1	111	12:14:35	2494834	5	1	3	1	1	1	1	1	2	8	4	0	0	0	0	5	3
073012	12:14:35	10029	Trial	IncongruentRight	14	205	519	1	111	12:14:35	2495914	5	1	3	1	1	1	1	1	2	8	4	0	0	0	0	5	3
073012	12:14:35	10029	Trial	IncongruentLeft	14	203	575	1	111	12:14:35	2496967	5	1	3	1	1	1	1	1	2	8	4	0	0	0	0	5	3
073012	12:14:35	10029	Trial	IncongruentLeft	14	0	737	0	111	12:14:35	2498113	5	1	3	1	1	1	1	1	2	8	4	0	0	0	0	5	3
073012	12:14:35	10029	Trial	CongruentLeft	14	0	737	0	111	12:14:35	2499126	5	1	3	1	1	1	1	1	2	8	4	0	0	0	0	5	3
073012	12:14:35	10029	Trial	CongruentRight	14	205	490	1	111	12:14:35	2499886	5	1	3	1	1	1	1	1	2	8	4	0	0	0	0	5	3
073012	12:14:35	10029	Trial	IncongruentLeft	14	203	707	1	111	12:14:35	2501112	5	1	3	1	1	1	1	1	2	8	4	0	0	0	0	5	3
073012	12:14:35	10029	Trial	IncongruentRight	14	205	459	1	111	12:14:35	2501858	5	1	3	1	1	1	1	1	2	8	4	0	0	0	0	5	3
073012	12:14:35	10029	Trial	CongruentRight	14	205	564	1	111	12:14:35	2502965	5	1	3	1	1	1	1	1	2	8	4	0	0	0	0	5	3
073012	12:14:35	10029	Trial	CongruentLeft	14	203	671	1	111	12:14:35	2504084	5	1	3	1	1	1	1	1	2	8	4	0	0	0	0	5	3
073012	12:14:35	10029	Trial	IncongruentRight	14	205	423	1	111	12:14:35	2504830	5	1	3	1	1	1	1	1	2	8	4	0	0	0	0	5	3
073012	12:14:35	10029	Trial	IncongruentLeft	14	203	527	1	111	12:14:35	2505937	5	1	3	1	1	1	1	1	2	8	4	0	0	0	0	5	3
073012	12:14:35	10029	Trial	IncongruentRight	14	205	397	1	111	12:14:35	2506817	5	1	3	1	1	1	1	1	2	8	4	0	0	0	0	5	3
073012	12:14:35	10029	Trial	CongruentRight	14	205	528	1	111	12:14:35	2507936	5	1	3	1	1	1	1	1	2	8	4	0	0	0	0	5	3
073012	12:14:35	10029	Trial	IncongruentLeft	14	203	473	1	111	12:14:35	2508882	5	1	3	1	1	1	1	1	2	8	4	0	0	0	0	5	3
073012	12:14:35	10029	Trial	CongruentLeft	14	203	609	1	111	12:14:35	2510015	5	1	3	1	1	1	1	1	2	8	4	0	0	0	0	5	3
073012	12:14:35	10029	Trial	CongruentRight	14	205	441	1	111	12:14:35	2510855	5	1	3	1	1	1	1	1	2	8	4	0	0	0	0	5	3
073012	12:14:35	10029	Trial	IncongruentLeft	14	203	546	1	111	12:14:35	2511961	5	1	3	1	1	1	1	1	2	8	4	0	0	0	0	5	3
073012	12:14:35	10029	Trial	IncongruentRight	14	205	490	1	111	12:14:35	2512894	5	1	3	1	1	1	1	1	2	8	4	0	0	0	0	5	3
073012	12:14:35	10029	Trial	IncongruentRight	14	205	579	1	111	12:14:35	2513987	5	1	3	1	1	1	1	1	2	8	4	0	0	0	0	5	3
073012	12:14:35	10029	Trial	CongruentLeft	14	203	475	1	111	12:14:35	2514880	5	1	3	1	1	1	1	1	2	8	4	0	0	0	0	5	3
073012	12:14:35	10029	Trial	IncongruentLeft	14	203	676	1	111	12:14:35	2516079	5	1	3	1	1	1	1	1	2	8	4	0	0	0	0	5	3
073012	12:14:35	10029	Trial	CongruentRight	14	205	476	1	111	12:14:35	2516879	5	1	3	1	1	1	1	1	2	8	4	0	0	0	0	5	3
073012	12:14:35	10029	Trial	CongruentLeft	14	203	452	1	111	12:14:35	2517865	5	1	3	1	1	1	1	1	2	8	4	0	0	0	0	5	3
073012	12:14:35	10029	Trial	IncongruentRight	14	205	397	1	111	12:14:35	2518798	5	1	3	1	1	1	1	1	2	8	4	0	0	0	0	5	3
073012	12:14:35	10029	Trial	CongruentRight	14	205	533	1	111	12:14:35	2519944	5	1	3	1	1	1	1	1	2	8	4	0	0	0	0	5	3
073012	12:14:35	10029	Trial	IncongruentLeft	14	203	541	1	111	12:14:35	2520944	5	1	3	1	1	1	1	1	2	8	4	0	0	0	0	5	3
073012	12:14:35	10029	Trial	CongruentLeft	14	205	358	0	111	12:14:35	2521770	5	1	3	1	1	1	1	1	2	8	4	0	0	0	0	5	3
073012	12:14:35	10029	Trial	IncongruentLeft	14	205	494	0	111	12:14:35	2522903	5	1	3	1	1	1	1	1	2	8	4	0	0	0	0	5	3
073012	12:14:35	10029	Trial	IncongruentRight	14	205	519	1	111	12:14:35	2523929	5	1	3	1	1	1	1	1	2	8	4	0	0	0	0	5	3
073012	12:14:35	10029	Trial	CongruentRight	14	205	479	1	111	12:14:35	2524889	5	1	3	1	1	1	1	1	2	8	4	0	0	0	0	5	3
073012	12:14:35	10029	Trial	CongruentLeft	14	203	535	1	111	12:14:35	2525942	5	1	3	1	1	1	1	1	2	8	4	0	0	0	0	5	3
073012	12:14:35	10029	Trial	CongruentLeft	14	203	480	1	111	12:14:35	2526888	5	1	3	1	1	1	1	1	2	8	4	0	0	0	0	5	3
073012	12:14:35	10029	Trial	IncongruentRight	14	205	408	1	111	12:14:35	2527808	5	1	3	1	1	1	1	1	2	8	4	0	0	0	0	5	3
073012	12:14:35	10029	Trial	IncongruentLeft	14	203	480	1	111	12:14:35	2528887	5	1	3	1	1	1	1	1	2	8	4	0	0	0	0	5	3
073012	12:14:35	10029	Trial	IncongruentRight	14	205	457	1	111	12:14:35	2529860	5	1	3	1	1	1	1	1	2	8	4	0	0	0	0	5	3
073012	12:14:35	10029	Trial	CongruentRight	14	205	417	1	111	12:14:35	2530820	5	1	3	1	1	1	1	1	2	8	4	0	0	0	0	5	3
073012	12:14:35	10029	Trial	CongruentRight	14	205	442	1	111	12:14:35	2531846	5	1	3	1	1	1	1	1	2	8	4	0	0	0	0	5	3
073012	12:14:35	10029	Trial	IncongruentLeft	14	203	610	1	111	12:14:35	2533005	5	1	3	1	1	1	1	1	2	8	4	0	0	0	0	5	3
073012	12:14:35	10029	Trial	CongruentLeft	14	203	589	1	111	12:14:35	2534005	5	1	3	1	1	1	1	1	2	8	4	0	0	0	0	5	3
073012	12:14:35	10029	Trial	CongruentRight	14	205	565	1	111	12:14:35	2534978	5	1	3	1	1	1	1	1	2	8	4	0	0	0	0	5	3
073012	12:14:35	10029	Trial	CongruentLeft	14	203	606	1	111	12:14:35	2536017	5	1	3	1	1	1	1	1	2	8	4	0	0	0	0	5	3
073012	12:14:35	10029	Trial	IncongruentRight	14	205	566	1	111	12:14:35	2536977	5	1	3	1	1	1	1	1	2	8	4	0	0	0	0	5	3
073012	12:14:35	10029	Trial	CongruentRight	14	205	574	1	111	12:14:35	2537990	5	1	3	1	1	1	1	1	2	8	4	0	0	0	0	5	3
073012	12:14:35	10029	Trial	CongruentLeft	14	203	439	1	111	12:14:35	2538857	5	1	3	1	1	1	1	1	2	8	4	0	0	0	0	5	3
073012	12:14:35	10029	Trial	IncongruentLeft	14	203	463	1	111	12:14:35	2539869	5	1	3	1	1	1	1	1	2	8	4	0	0	0	0	5	3
073012	12:14:35	10029	Trial	IncongruentLeft	14	203	536	1	111	12:14:35	2540949	5	1	3	1	1	1	1	1	2	8	4	0	0	0	0	5	3
073012	12:14:35	10029	Trial	CongruentRight	14	205	512	1	111	12:14:35	2541921	5	1	3	1	1	1	1	1	2	8	4	0	0	0	0	5	3
073012	12:14:35	10029	Trial	IncongruentRight	14	205	472	1	111	12:14:35	2542881	5	1	3	1	1	1	1	1	2	8	4	0	0	0	0	5	3
073012	12:14:35	10029	Trial	CongruentLeft	14	203	513	1	111	12:14:35	2543921	5	1	3	1	1	1	1	1	2	8	4	0	0	0	0	5	3
073012	12:14:35	10029	Trial	IncongruentRight	14	205	505	1	111	12:14:35	2544921	5	1	3	1	1	1	1	1	2	8	4	0	0	0	0	5	3
073012	12:14:35	10029	Trial	CongruentRight	14	205	449	1	111	12:14:35	2545853	5	1	3	1	1	1	1	1	2	8	4	0	0	0	0	5	3
073012	12:14:35	10029	Trial	IncongruentLeft	14	203	570	1	111	12:14:35	2546973	5	1	3	1	1	1	1	1	2	8	4	0	0	0	0	5	3
073012	12:14:35	10029	Trial	CongruentLeft	14	203	530	1	111	12:14:35	2547933	5	1	3	1	1	1	1	1	2	8	4	0	0	0	0	5	3
073012	12:14:35	10029	Trial	CongruentRight	14	205	507	1	111	12:14:35	2548919	5	1	3	1	1	1	1	1	2	8	4	0	0	0	0	5	3
073012	12:14:35	10029	Trial	IncongruentLeft	14	203	483	1	111	12:14:35	2549892	5	1	3	1	1	1	1	1	2	8	4	0	0	0	0	5	3
073012	12:14:35	10029	Trial	CongruentRight	14	205	363	1	111	12:14:35	2550771	5	1	3	1	1	1	1	1	2	8	4	0	0	0	0	5	3
073012	12:14:35	10029	Trial	CongruentRight	14	205	404	1	111	12:14:35	2551811	5	1	3	1	1	1	1	1	2	8	4	0	0	0	0	5	3
073012	12:14:35	10029	Trial	IncongruentRight	14	205	316	1	111	12:14:35	2552717	5	1	3	1	1	1	1	1	2	8	4	0	0	0	0	5	3
073012	12:14:35	10029	Trial	CongruentLeft	14	205	277	0	111	12:14:35	2553677	5	1	3	1	1	1	1	1	2	8	4	0	0	0	0	5	3
073012	12:14:35	10029	Trial	IncongruentLeft	14	203	573	1	111	12:14:35	2554983	5	1	3	1	1	1	1	1	2	8	4	0	0	0	0	5	3
073012	12:14:35	10029	Trial	CongruentLeft	14	203	581	1	111	12:14:35	2555983	5	1	3	1	1	1	1	1	2	8	4	0	0	0	0	5	3
073012	12:14:35	10029	Trial	IncongruentRight	14	205	445	1	111	12:14:35	2556849	5	1	3	1	1	1	1	1	2	8	4	0	0	0	0	5	3
073012	12:14:35	10029	Trial	IncongruentLeft	14	203	582	1	111	12:14:35	2557982	5	1	3	1	1	1	1	1	2	8	4	0	0	0	0	5	3
073012	12:14:35	10029	Trial	CongruentRight	14	205	414	1	111	12:14:35	2558821	5	1	3	1	1	1	1	1	2	8	4	0	0	0	0	5	3
073012	12:14:35	10029	Trial	CongruentLeft	14	203	455	1	111	12:14:35	2559861	5	1	3	1	1	1	1	1	2	8	4	0	0	0	0	5	3
073012	12:14:35	10029	Trial	IncongruentLeft	14	203	671	1	111	12:14:35	2561074	5	1	3	1	1	1	1	1	2	8	4	0	0	0	0	5	3
073012	12:14:35	10029	Trial	CongruentLeft	14	203	696	1	111	12:14:35	2562100	5	1	3	1	1	1	1	1	2	8	4	0	0	0	0	5	3
073012	12:14:35	10029	Trial	IncongruentRight	14	205	640	1	111	12:14:35	2563046	5	1	3	1	1	1	1	1	2	8	4	0	0	0	0	5	3
073012	12:14:35	10029	Trial	CongruentRight	14	205	619	1	111	12:14:35	2564033	5	1	3	1	1	1	1	1	2	8	4	0	0	0	0	5	3
073012	12:14:35	10029	Trial	IncongruentLeft	14	203	499	1	111	12:14:35	2564912	5	1	3	1	1	1	1	1	2	8	4	0	0	0	0	5	3
073012	12:14:35	10029	Trial	CongruentLeft	14	203	572	1	111	12:14:35	2565992	5	1	3	1	1	1	1	1	2	8	4	0	0	0	0	5	3
073012	12:14:35	10029	Trial	IncongruentRight	14	205	404	1	111	12:14:35	2566818	5	1	3	1	1	1	1	1	2	8	4	0	0	0	0	5	3
073012	12:14:35	10029	Trial	IncongruentLeft	14	203	509	1	111	12:14:35	2567924	5	1	3	1	1	1	1	1	2	8	4	0	0	0	0	5	3
073012	12:14:35	10029	Trial	CongruentLeft	14	203	517	1	111	12:14:35	2568924	5	1	3	1	1	1	1	1	2	8	4	0	0	0	0	5	3
073012	12:14:35	10029	Trial	IncongruentLeft	14	203	701	1	111	12:14:35	2570110	5	1	3	1	1	1	1	1	2	8	4	0	0	0	0	5	3
073012	12:14:35	10029	Trial	CongruentRight	14	205	645	1	111	12:14:35	2571056	5	1	3	1	1	1	1	1	2	8	4	0	0	0	0	5	3
073012	12:14:35	10029	Trial	CongruentLeft	14	203	590	1	111	12:14:35	2572003	5	1	3	1	1	1	1	1	2	8	4	0	0	0	0	5	3
073012	12:14:35	10029	Trial	IncongruentRight	14	205	438	1	111	12:14:35	2572856	5	1	3	1	1	1	1	1	2	8	4	0	0	0	0	5	3
073012	12:14:35	10029	Trial	CongruentLeft	14	203	431	1	111	12:14:35	2573842	5	1	3	1	1	1	1	1	2	8	4	0	0	0	0	5	3
073012	12:14:35	10029	Trial	CongruentRight	14	205	375	1	111	12:14:35	2574788	5	1	3	1	1	1	1	1	2	8	4	0	0	0	0	5	3
073012	12:14:35	10029	Trial	IncongruentLeft	14	203	304	1	111	12:14:35	2575708	5	1	3	1	1	1	1	1	2	8	4	0	0	0	0	5	3
073012	12:14:35	10029	Trial750Eng	IncongruentRight750	15	0	487	0	111	12:14:35	2586943	5	1	3	1	1	1	1	1	2	8	4	0	0	0	0	5	3
073012	12:14:35	10029	Trial750Eng	IncongruentLeft750	15	0	487	0	111	12:14:35	2587703	5	1	3	1	1	1	1	1	2	8	4	0	0	0	0	5	3
073012	12:14:35	10029	Trial750Eng	CongruentRight750	15	205	375	1	111	12:14:35	2588356	5	1	3	1	1	1	1	1	2	8	4	0	0	0	0	5	3
073012	12:14:35	10029	Trial750Eng	IncongruentRight750	15	203	447	0	111	12:14:35	2589182	5	1	3	1	1	1	1	1	2	8	4	0	0	0	0	5	3
073012	12:14:35	10029	Trial750Eng	CongruentLeft750	15	0	487	0	111	12:14:35	2589969	5	1	3	1	1	1	1	1	2	8	4	0	0	0	0	5	3
073012	12:14:35	10029	Trial750Eng	CongruentRight750	15	205	445	1	111	12:14:35	2590688	5	1	3	1	1	1	1	1	2	8	4	0	0	0	0	5	3
073012	12:14:35	10029	Trial750Eng	IncongruentRight750	15	205	453	1	111	12:14:35	2591461	5	1	3	1	1	1	1	1	2	8	4	0	0	0	0	5	3
073012	12:14:35	10029	Trial750Eng	CongruentLeft750	15	0	487	0	111	12:14:35	2592234	5	1	3	1	1	1	1	1	2	8	4	0	0	0	0	5	3
073012	12:14:35	10029	Trial750Eng	IncongruentLeft750	15	0	487	0	111	12:14:35	2592994	5	1	3	1	1	1	1	1	2	8	4	0	0	0	0	5	3
073012	12:14:35	10029	Trial750Eng	IncongruentLeft750	15	0	487	0	111	12:14:35	2593754	5	1	3	1	1	1	1	1	2	8	4	0	0	0	0	5	3
073012	12:14:35	10029	Trial750Eng	CongruentRight750	15	203	20	0	111	12:14:35	2594047	5	1	3	1	1	1	1	1	2	8	4	0	0	0	0	5	3
073012	12:14:35	10029	Trial750Eng	IncongruentRight750	15	0	487	0	111	12:14:35	2595260	5	1	3	1	1	1	1	1	2	8	4	0	0	0	0	5	3
073012	12:14:35	10029	Trial750Eng	CongruentLeft750	15	0	487	0	111	12:14:35	2596019	5	1	3	1	1	1	1	1	2	8	4	0	0	0	0	5	3
073012	12:14:35	10029	Trial750Eng	CongruentRight750	15	205	426	1	111	12:14:35	2596726	5	1	3	1	1	1	1	1	2	8	4	0	0	0	0	5	3
073012	12:14:35	10029	Trial750Eng	IncongruentLeft750	15	0	487	0	111	12:14:35	2597525	5	1	3	1	1	1	1	1	2	8	4	0	0	0	0	5	3
073012	12:14:35	10029	Trial750Eng	IncongruentRight750	15	205	392	1	111	12:14:35	2598192	5	1	3	1	1	1	1	1	2	8	4	0	0	0	0	5	3
073012	12:14:35	10029	Trial750Eng	CongruentRight750	15	0	487	0	111	12:14:35	2599032	5	1	3	1	1	1	1	1	2	8	4	0	0	0	0	5	3
073012	12:14:35	10029	Trial750Eng	CongruentLeft750	15	203	406	1	111	12:14:35	2599711	5	1	3	1	1	1	1	1	2	8	4	0	0	0	0	5	3
073012	12:14:35	10029	Trial750Eng	CongruentRight750	15	205	366	1	111	12:14:35	2600431	5	1	3	1	1	1	1	1	2	8	4	0	0	0	0	5	3
073012	12:14:35	10029	Trial750Eng	IncongruentRight750	15	0	487	0	111	12:14:35	2601297	5	1	3	1	1	1	1	1	2	8	4	0	0	0	0	5	3
073012	12:14:35	10029	Trial750Eng	IncongruentLeft750	15	0	487	0	111	12:14:35	2602057	5	1	3	1	1	1	1	1	2	8	4	0	0	0	0	5	3
073012	12:14:35	10029	Trial750Eng	IncongruentLeft750	15	0	487	0	111	12:14:35	2602817	5	1	3	1	1	1	1	1	2	8	4	0	0	0	0	5	3
073012	12:14:35	10029	Trial750Eng	CongruentLeft750	15	0	487	0	111	12:14:35	2603577	5	1	3	1	1	1	1	1	2	8	4	0	0	0	0	5	3
073012	12:14:35	10029	Trial750Eng	CongruentRight750	15	203	21	0	111	12:14:35	2603869	5	1	3	1	1	1	1	1	2	8	4	0	0	0	0	5	3
073012	12:14:35	10029	Trial750Eng	IncongruentLeft750	15	205	317	0	111	12:14:35	2604922	5	1	3	1	1	1	1	1	2	8	4	0	0	0	0	5	3
073012	12:14:35	10029	Trial750Eng	IncongruentRight750	15	0	487	0	111	12:14:35	2605842	5	1	3	1	1	1	1	1	2	8	4	0	0	0	0	5	3
073012	12:14:35	10029	Trial750Eng	CongruentRight750	15	205	331	1	111	12:14:35	2606455	5	1	3	1	1	1	1	1	2	8	4	0	0	0	0	5	3
073012	12:14:35	10029	Trial750Eng	CongruentLeft750	15	203	388	1	111	12:14:35	2607268	5	1	3	1	1	1	1	1	2	8	4	0	0	0	0	5	3
073012	12:14:35	10029	Trial750Eng	IncongruentRight750	15	0	487	0	111	12:14:35	2608108	5	1	3	1	1	1	1	1	2	8	4	0	0	0	0	5	3
073012	12:14:35	10029	Trial750Eng	IncongruentLeft750	15	0	487	0	111	12:14:35	2608867	5	1	3	1	1	1	1	1	2	8	4	0	0	0	0	5	3
073012	12:14:35	10029	Trial750Eng	IncongruentRight750	15	0	487	0	111	12:14:35	2609627	5	1	3	1	1	1	1	1	2	8	4	0	0	0	0	5	3
073012	12:14:35	10029	Trial750Eng	CongruentRight750	15	205	482	1	111	12:14:35	2610387	5	1	3	1	1	1	1	1	2	8	4	0	0	0	0	5	3
073012	12:14:35	10029	Trial750Eng	IncongruentLeft750	15	0	487	0	111	12:14:35	2611147	5	1	3	1	1	1	1	1	2	8	4	0	0	0	0	5	3
073012	12:14:35	10029	Trial750Eng	CongruentLeft750	15	0	487	0	111	12:14:35	2611906	5	1	3	1	1	1	1	1	2	8	4	0	0	0	0	5	3
073012	12:14:35	10029	Trial750Eng	CongruentRight750	15	0	487	0	111	12:14:35	2612666	5	1	3	1	1	1	1	1	2	8	4	0	0	0	0	5	3
073012	12:14:35	10029	Trial750Eng	IncongruentLeft750	15	203	467	1	111	12:14:35	2613412	5	1	3	1	1	1	1	1	2	8	4	0	0	0	0	5	3
073012	12:14:35	10029	Trial750Eng	IncongruentRight750	15	0	487	0	111	12:14:35	2614172	5	1	3	1	1	1	1	1	2	8	4	0	0	0	0	5	3
073012	12:14:35	10029	Trial750Eng	IncongruentRight750	15	0	487	0	111	12:14:35	2614932	5	1	3	1	1	1	1	1	2	8	4	0	0	0	0	5	3
073012	12:14:35	10029	Trial750Eng	CongruentLeft750	15	0	487	0	111	12:14:35	2615691	5	1	3	1	1	1	1	1	2	8	4	0	0	0	0	5	3
073012	12:14:35	10029	Trial750Eng	IncongruentLeft750	15	0	487	0	111	12:14:35	2616451	5	1	3	1	1	1	1	1	2	8	4	0	0	0	0	5	3
073012	12:14:35	10029	Trial750Eng	CongruentRight750	15	205	458	1	111	12:14:35	2617184	5	1	3	1	1	1	1	1	2	8	4	0	0	0	0	5	3
073012	12:14:35	10029	Trial750Eng	CongruentLeft750	15	0	487	0	111	12:14:35	2617957	5	1	3	1	1	1	1	1	2	8	4	0	0	0	0	5	3
073012	12:14:35	10029	Trial750Eng	IncongruentRight750	15	205	456	1	111	12:14:35	2618690	5	1	3	1	1	1	1	1	2	8	4	0	0	0	0	5	3
073012	12:14:35	10029	Trial750Eng	CongruentRight750	15	0	487	0	111	12:14:35	2619463	5	1	3	1	1	1	1	1	2	8	4	0	0	0	0	5	3
073012	12:14:35	10029	Trial750Eng	IncongruentLeft750	15	0	487	0	111	12:14:35	2620223	5	1	3	1	1	1	1	1	2	8	4	0	0	0	0	5	3
073012	12:14:35	10029	Trial750Eng	CongruentLeft750	15	0	487	0	111	12:14:35	2620982	5	1	3	1	1	1	1	1	2	8	4	0	0	0	0	5	3
073012	12:14:35	10029	Trial750Eng	IncongruentLeft750	15	0	487	0	111	12:14:35	2621742	5	1	3	1	1	1	1	1	2	8	4	0	0	0	0	5	3
073012	12:14:35	10029	Trial750Eng	IncongruentRight750	15	0	487	0	111	12:14:35	2622502	5	1	3	1	1	1	1	1	2	8	4	0	0	0	0	5	3
073012	12:14:35	10029	Trial750Eng	CongruentRight750	15	205	439	1	111	12:14:35	2623222	5	1	3	1	1	1	1	1	2	8	4	0	0	0	0	5	3
073012	12:14:35	10029	Trial750Eng	CongruentLeft750	15	0	487	0	111	12:14:35	2624008	5	1	3	1	1	1	1	1	2	8	4	0	0	0	0	5	3
073012	12:14:35	10029	Trial750Eng	CongruentLeft750	15	0	487	0	111	12:14:35	2624768	5	1	3	1	1	1	1	1	2	8	4	0	0	0	0	5	3
073012	12:14:35	10029	Trial750Eng	IncongruentRight750	15	0	487	0	111	12:14:35	2625527	5	1	3	1	1	1	1	1	2	8	4	0	0	0	0	5	3
073012	12:14:35	10029	Trial750Eng	IncongruentLeft750	15	0	487	0	111	12:14:35	2626287	5	1	3	1	1	1	1	1	2	8	4	0	0	0	0	5	3
073012	12:14:35	10029	Trial750Eng	IncongruentRight750	15	205	478	1	111	12:14:35	2627047	5	1	3	1	1	1	1	1	2	8	4	0	0	0	0	5	3
073012	12:14:35	10029	Trial750Eng	CongruentRight750	15	0	487	0	111	12:14:35	2627806	5	1	3	1	1	1	1	1	2	8	4	0	0	0	0	5	3
073012	12:14:35	10029	Trial750Eng	CongruentRight750	15	0	487	0	111	12:14:35	2628566	5	1	3	1	1	1	1	1	2	8	4	0	0	0	0	5	3
073012	12:14:35	10029	Trial750Eng	IncongruentLeft750	15	0	487	0	111	12:14:35	2629326	5	1	3	1	1	1	1	1	2	8	4	0	0	0	0	5	3
073012	12:14:35	10029	Trial750Eng	CongruentLeft750	15	0	487	0	111	12:14:35	2630085	5	1	3	1	1	1	1	1	2	8	4	0	0	0	0	5	3
073012	12:14:35	10029	Trial750Eng	CongruentRight750	15	0	487	0	111	12:14:35	2630845	5	1	3	1	1	1	1	1	2	8	4	0	0	0	0	5	3
073012	12:14:35	10029	Trial750Eng	CongruentLeft750	15	0	487	0	111	12:14:35	2631605	5	1	3	1	1	1	1	1	2	8	4	0	0	0	0	5	3
073012	12:14:35	10029	Trial750Eng	IncongruentRight750	15	0	487	0	111	12:14:35	2632364	5	1	3	1	1	1	1	1	2	8	4	0	0	0	0	5	3
073012	12:14:35	10029	Trial750Eng	CongruentRight750	15	205	480	1	111	12:14:35	2633124	5	1	3	1	1	1	1	1	2	8	4	0	0	0	0	5	3
073012	12:14:35	10029	Trial750Eng	CongruentLeft750	15	0	487	0	111	12:14:35	2633884	5	1	3	1	1	1	1	1	2	8	4	0	0	0	0	5	3
073012	12:14:35	10029	Trial750Eng	IncongruentLeft750	15	0	487	0	111	12:14:35	2634643	5	1	3	1	1	1	1	1	2	8	4	0	0	0	0	5	3
073012	12:14:35	10029	Trial750Eng	IncongruentLeft750	15	203	25	1	111	12:14:35	2634950	5	1	3	1	1	1	1	1	2	8	4	0	0	0	0	5	3
073012	12:14:35	10029	Trial750Eng	CongruentRight750	15	0	487	0	111	12:14:35	2636150	5	1	3	1	1	1	1	1	2	8	4	0	0	0	0	5	3
073012	12:14:35	10029	Trial750Eng	IncongruentRight750	15	0	487	0	111	12:14:35	2636909	5	1	3	1	1	1	1	1	2	8	4	0	0	0	0	5	3
073012	12:14:35	10029	Trial750Eng	CongruentLeft750	15	205	63	0	111	12:14:35	2637243	5	1	3	1	1	1	1	1	2	8	4	0	0	0	0	5	3
073012	12:14:35	10029	Trial750Eng	IncongruentRight750	15	0	487	0	111	12:14:35	2638415	5	1	3	1	1	1	1	1	2	8	4	0	0	0	0	5	3
073012	12:14:35	10029	Trial750Eng	CongruentRight750	15	0	487	0	111	12:14:35	2639175	5	1	3	1	1	1	1	1	2	8	4	0	0	0	0	5	3
073012	12:14:35	10029	Trial750Eng	IncongruentLeft750	15	203	485	1	111	12:14:35	2639934	5	1	3	1	1	1	1	1	2	8	4	0	0	0	0	5	3
073012	12:14:35	10029	Trial750Eng	CongruentLeft750	15	0	487	0	111	12:14:35	2640694	5	1	3	1	1	1	1	1	2	8	4	0	0	0	0	5	3
073012	12:14:35	10029	Trial750Eng	CongruentRight750	15	0	487	0	111	12:14:35	2641454	5	1	3	1	1	1	1	1	2	8	4	0	0	0	0	5	3
073012	12:14:35	10029	Trial750Eng	IncongruentLeft750	15	0	487	0	111	12:14:35	2642214	5	1	3	1	1	1	1	1	2	8	4	0	0	0	0	5	3
073012	12:14:35	10029	Trial750Eng	CongruentRight750	15	0	487	0	111	12:14:35	2642973	5	1	3	1	1	1	1	1	2	8	4	0	0	0	0	5	3
073012	12:14:35	10029	Trial750Eng	CongruentRight750	15	0	487	0	111	12:14:35	2643733	5	1	3	1	1	1	1	1	2	8	4	0	0	0	0	5	3
073012	12:14:35	10029	Trial750Eng	IncongruentRight750	15	0	487	0	111	12:14:35	2644493	5	1	3	1	1	1	1	1	2	8	4	0	0	0	0	5	3
073012	12:14:35	10029	Trial750Eng	CongruentLeft750	15	203	431	1	111	12:14:35	2645199	5	1	3	1	1	1	1	1	2	8	4	0	0	0	0	5	3
073012	12:14:35	10029	Trial750Eng	IncongruentLeft750	15	0	487	0	111	12:14:35	2645999	5	1	3	1	1	1	1	1	2	8	4	0	0	0	0	5	3
073012	12:14:35	10029	Trial750Eng	CongruentLeft750	15	0	487	0	111	12:14:35	2646758	5	1	3	1	1	1	1	1	2	8	4	0	0	0	0	5	3
073012	12:14:35	10029	Trial750Eng	IncongruentRight750	15	203	21	0	111	12:14:35	2647052	5	1	3	1	1	1	1	1	2	8	4	0	0	0	0	5	3
073012	12:14:35	10029	Trial750Eng	IncongruentLeft750	15	205	350	0	111	12:14:35	2648144	5	1	3	1	1	1	1	1	2	8	4	0	0	0	0	5	3
073012	12:14:35	10029	Trial750Eng	CongruentRight750	15	0	487	0	111	12:14:35	2649024	5	1	3	1	1	1	1	1	2	8	4	0	0	0	0	5	3
073012	12:14:35	10029	Trial750Eng	CongruentLeft750	15	203	460	1	111	12:14:35	2649757	5	1	3	1	1	1	1	1	2	8	4	0	0	0	0	5	3
073012	12:14:35	10029	Trial750Eng	IncongruentLeft750	15	0	487	0	111	12:14:35	2650530	5	1	3	1	1	1	1	1	2	8	4	0	0	0	0	5	3
073012	12:14:35	10029	Trial750Eng	CongruentLeft750	15	0	487	0	111	12:14:35	2651290	5	1	3	1	1	1	1	1	2	8	4	0	0	0	0	5	3
073012	12:14:35	10029	Trial750Eng	IncongruentRight750	15	203	338	0	111	12:14:35	2651903	5	1	3	1	1	1	1	1	2	8	4	0	0	0	0	5	3
073012	12:14:35	10029	Trial750Eng	CongruentRight750	15	0	487	0	111	12:14:35	2652796	5	1	3	1	1	1	1	1	2	8	4	0	0	0	0	5	3
073012	12:14:35	10029	Trial750Eng	IncongruentLeft750	15	0	487	0	111	12:14:35	2653556	5	1	3	1	1	1	1	1	2	8	4	0	0	0	0	5	3
073012	12:14:35	10029	Trial750Eng	CongruentLeft750	15	0	487	0	111	12:14:35	2654315	5	1	3	1	1	1	1	1	2	8	4	0	0	0	0	5	3
073012	12:14:35	10029	Trial750Eng	IncongruentRight750	15	0	487	0	111	12:14:35	2655075	5	1	3	1	1	1	1	1	2	8	4	0	0	0	0	5	3
073012	12:14:35	10029	Trial750Eng	IncongruentLeft750	15	0	487	0	111	12:14:35	2655835	5	1	3	1	1	1	1	1	2	8	4	0	0	0	0	5	3
073012	12:14:35	10029	Trial750Eng	CongruentLeft750	15	0	487	0	111	12:14:35	2656594	5	1	3	1	1	1	1	1	2	8	4	0	0	0	0	5	3
073012	12:14:35	10029	Trial750Eng	IncongruentLeft750	15	0	487	0	111	12:14:35	2657354	5	1	3	1	1	1	1	1	2	8	4	0	0	0	0	5	3
073012	12:14:35	10029	Trial750Eng	CongruentRight750	15	205	433	1	111	12:14:35	2658060	5	1	3	1	1	1	1	1	2	8	4	0	0	0	0	5	3
073012	12:14:35	10029	Trial750Eng	CongruentLeft750	15	0	487	0	111	12:14:35	2658860	5	1	3	1	1	1	1	1	2	8	4	0	0	0	0	5	3
073012	12:14:35	10029	Trial750Eng	IncongruentRight750	15	205	464	1	111	12:14:35	2659593	5	1	3	1	1	1	1	1	2	8	4	0	0	0	0	5	3
073012	12:14:35	10029	Trial750Eng	CongruentLeft750	15	203	392	1	111	12:14:35	2660286	5	1	3	1	1	1	1	1	2	8	4	0	0	0	0	5	3
073012	12:14:35	10029	Trial750Eng	CongruentRight750	15	205	381	1	111	12:14:35	2661019	5	1	3	1	1	1	1	1	2	8	4	0	0	0	0	5	3
073012	12:14:35	10029	Trial750Eng	IncongruentLeft750	15	203	419	1	111	12:14:35	2661806	5	1	3	1	1	1	1	1	2	8	4	0	0	0	0	5	3
073012	12:14:35	10029	WordsAbsEngBaseline	PAbsEngBaseline1	16	Abs1	5255	0	111	12:14:35	2675320	5	1	3	1	1	1	1	1	2	8	4	0	0	0	0	5	3
073012	12:14:35	10029	WordsAbsEngBaseline	AbsEngBaseline1	16	Abs1	3171	0	111	12:14:35	2678532	5	1	3	1	1	1	1	1	2	8	4	1	0	0	0	5	3
073012	12:14:35	10029	WordsAbsEngBaseline	AbsEngBaseline2	16	Abs1	3583	0	111	12:14:35	2682157	5	1	3	1	1	1	1	1	2	8	4	2	0	0	0	5	3
073012	12:14:35	10029	WordsAbsEngBaseline	AbsEngBaseline3	16	Abs1	8710	0	111	12:14:35	2690900	5	1	3	1	1	1	1	1	2	8	4	3	0	0	0	5	3
073012	12:14:35	10029	Trial2BackEngS	NS	17	0	1000	1	111	12:14:35	2736881	5	1	3	1	1	1	1	1	2	8	4	3	0	0	0	5	3
073012	12:14:35	10029	Trial2BackEngS	NS	17	0	1000	1	111	12:14:35	2738400	5	1	3	1	1	1	1	1	2	8	4	3	0	0	0	5	3
073012	12:14:35	10029	Trial2BackEngS	NS	17	0	1000	1	111	12:14:35	2739920	5	1	3	1	1	1	1	1	2	8	4	3	0	0	0	5	3
073012	12:14:35	10029	Trial2BackEngS	YS	17	57	605	1	111	12:14:35	2741053	5	1	3	1	1	1	1	1	2	8	4	3	0	0	0	5	3
073012	12:14:35	10029	Trial2BackEngS	NS	17	0	1000	1	111	12:14:35	2742945	5	1	3	1	1	1	1	1	2	8	4	3	0	0	0	5	3
073012	12:14:35	10029	Trial2BackEngS	NS	17	0	1000	1	111	12:14:35	2744465	5	1	3	1	1	1	1	1	2	8	4	3	0	0	0	5	3
073012	12:14:35	10029	Trial2BackEngS	NS	17	0	1000	1	111	12:14:35	2745984	5	1	3	1	1	1	1	1	2	8	4	3	0	0	0	5	3
073012	12:14:35	10029	Trial2BackEngS	NS	17	0	1000	1	111	12:14:35	2747503	5	1	3	1	1	1	1	1	2	8	4	3	0	0	0	5	3
073012	12:14:35	10029	Trial2BackEngS	YS	17	0	1000	0	111	12:14:35	2749023	5	1	3	1	1	1	1	1	2	8	4	3	0	0	0	5	3
073012	12:14:35	10029	Trial2BackEngS	NS	17	0	1000	1	111	12:14:35	2750542	5	1	3	1	1	1	1	1	2	8	4	3	0	0	0	5	3
073012	12:14:35	10029	Trial2BackEngS	NS	17	0	1000	1	111	12:14:35	2752062	5	1	3	1	1	1	1	1	2	8	4	3	0	0	0	5	3
073012	12:14:35	10029	Trial2BackEngS	YS	17	0	1000	0	111	12:14:35	2753581	5	1	3	1	1	1	1	1	2	8	4	3	0	0	0	5	3
073012	12:14:35	10029	Trial2BackEngS	NS	17	0	1000	1	111	12:14:35	2755100	5	1	3	1	1	1	1	1	2	8	4	3	0	0	0	5	3
073012	12:14:35	10029	Trial2BackEngS	NS	17	0	1000	1	111	12:14:35	2756620	5	1	3	1	1	1	1	1	2	8	4	3	0	0	0	5	3
073012	12:14:35	10029	Trial2BackEngS	NS	17	0	1000	1	111	12:14:35	2758139	5	1	3	1	1	1	1	1	2	8	4	3	0	0	0	5	3
073012	12:14:35	10029	Trial2BackEngS	YS	17	57	433	1	111	12:14:35	2759099	5	1	3	1	1	1	1	1	2	8	4	3	0	0	0	5	3
073012	12:14:35	10029	Trial2BackEngS	NS	17	0	1000	1	111	12:14:35	2761164	5	1	3	1	1	1	1	1	2	8	4	3	0	0	0	5	3
073012	12:14:35	10029	Trial2BackEngS	NS	17	0	1000	1	111	12:14:35	2762684	5	1	3	1	1	1	1	1	2	8	4	3	0	0	0	5	3
073012	12:14:35	10029	Trial2BackEngS	NS	17	0	1000	1	111	12:14:35	2764203	5	1	3	1	1	1	1	1	2	8	4	3	0	0	0	5	3
073012	12:14:35	10029	Trial2BackEngS	NS	17	0	1000	1	111	12:14:35	2765722	5	1	3	1	1	1	1	1	2	8	4	3	0	0	0	5	3
073012	12:14:35	10029	Trial2BackEngS	YS	17	0	1000	0	111	12:14:35	2767242	5	1	3	1	1	1	1	1	2	8	4	3	0	0	0	5	3
073012	12:14:35	10029	Trial2BackEngS	NS	17	0	1000	1	111	12:14:35	2768761	5	1	3	1	1	1	1	1	2	8	4	3	0	0	0	5	3
073012	12:14:35	10029	Trial2BackEngS	NS	17	0	1000	1	111	12:14:35	2770280	5	1	3	1	1	1	1	1	2	8	4	3	0	0	0	5	3
073012	12:14:35	10029	Trial2BackEngS	NS	17	0	1000	1	111	12:14:35	2771800	5	1	3	1	1	1	1	1	2	8	4	3	0	0	0	5	3
073012	12:14:35	10029	Trial2BackEngS	NS	17	0	1000	1	111	12:14:35	2773319	5	1	3	1	1	1	1	1	2	8	4	3	0	0	0	5	3
073012	12:14:35	10029	Trial2BackEngS	NS	17	0	1000	1	111	12:14:35	2774839	5	1	3	1	1	1	1	1	2	8	4	3	0	0	0	5	3
073012	12:14:35	10029	Trial2BackEngS	NS	17	0	1000	1	111	12:14:35	2776358	5	1	3	1	1	1	1	1	2	8	4	3	0	0	0	5	3
073012	12:14:35	10029	Trial2BackEngS	NS	17	0	1000	1	111	12:14:35	2777877	5	1	3	1	1	1	1	1	2	8	4	3	0	0	0	5	3
073012	12:14:35	10029	Trial2BackEngS	NS	17	0	1000	1	111	12:14:35	2779397	5	1	3	1	1	1	1	1	2	8	4	3	0	0	0	5	3
073012	12:14:35	10029	Trial2BackEngS	NS	17	0	1000	1	111	12:14:35	2780916	5	1	3	1	1	1	1	1	2	8	4	3	0	0	0	5	3
073012	12:14:35	10029	Trial2BackEngS	NS	17	0	1000	1	111	12:14:35	2782436	5	1	3	1	1	1	1	1	2	8	4	3	0	0	0	5	3
073012	12:14:35	10029	Trial2BackEngS	YS	17	0	1000	0	111	12:14:35	2783955	5	1	3	1	1	1	1	1	2	8	4	3	0	0	0	5	3
073012	12:14:35	10029	Trial2BackEngS	NS	17	0	1000	1	111	12:14:35	2785474	5	1	3	1	1	1	1	1	2	8	4	3	0	0	0	5	3
073012	12:14:35	10029	Trial2BackEngS	NS	17	0	1000	1	111	12:14:35	2786994	5	1	3	1	1	1	1	1	2	8	4	3	0	0	0	5	3
073012	12:14:35	10029	Trial2BackEngS	NS	17	0	1000	1	111	12:14:35	2788513	5	1	3	1	1	1	1	1	2	8	4	3	0	0	0	5	3
073012	12:14:35	10029	Trial2BackEngS	YS	17	0	1000	0	111	12:14:35	2790032	5	1	3	1	1	1	1	1	2	8	4	3	0	0	0	5	3
073012	12:14:35	10029	Trial2BackEngS	NS	17	0	1000	1	111	12:14:35	2791552	5	1	3	1	1	1	1	1	2	8	4	3	0	0	0	5	3
073012	12:14:35	10029	Trial2BackEngS	NS	17	0	1000	1	111	12:14:35	2793071	5	1	3	1	1	1	1	1	2	8	4	3	0	0	0	5	3
073012	12:14:35	10029	Trial2BackEngS	NS	17	0	1000	1	111	12:14:35	2794590	5	1	3	1	1	1	1	1	2	8	4	3	0	0	0	5	3
073012	12:14:35	10029	Trial2BackEngS	NS	17	0	1000	1	111	12:14:35	2796110	5	1	3	1	1	1	1	1	2	8	4	3	0	0	0	5	3
073012	12:14:35	10029	Trial2BackEngS	NS	17	0	1000	1	111	12:14:35	2797629	5	1	3	1	1	1	1	1	2	8	4	3	0	0	0	5	3
073012	12:14:35	10029	Trial2BackEngS	NS	17	0	1000	1	111	12:14:35	2799149	5	1	3	1	1	1	1	1	2	8	4	3	0	0	0	5	3
073012	12:14:35	10029	Trial2BackEngS	NS	17	0	1000	1	111	12:14:35	2800668	5	1	3	1	1	1	1	1	2	8	4	3	0	0	0	5	3
073012	12:14:35	10029	Trial2BackEngS	YS	17	0	1000	0	111	12:14:35	2802187	5	1	3	1	1	1	1	1	2	8	4	3	0	0	0	5	3
073012	12:14:35	10029	Trial2BackEngS	NS	17	0	1000	1	111	12:14:35	2803707	5	1	3	1	1	1	1	1	2	8	4	3	0	0	0	5	3
073012	12:14:35	10029	Trial2BackEngS	NS	17	0	1000	1	111	12:14:35	2805226	5	1	3	1	1	1	1	1	2	8	4	3	0	0	0	5	3
073012	12:14:35	10029	Trial2BackEngS	NS	17	0	1000	1	111	12:14:35	2806745	5	1	3	1	1	1	1	1	2	8	4	3	0	0	0	5	3
073012	12:14:35	10029	Trial2BackEngS	NS	17	0	1000	1	111	12:14:35	2808265	5	1	3	1	1	1	1	1	2	8	4	3	0	0	0	5	3
073012	12:14:35	10029	Trial2BackEngS	YS	17	0	1000	0	111	12:14:35	2809784	5	1	3	1	1	1	1	1	2	8	4	3	0	0	0	5	3
073012	12:14:35	10029	Trial2BackEngS	NS	17	0	1000	1	111	12:14:35	2811304	5	1	3	1	1	1	1	1	2	8	4	3	0	0	0	5	3
073012	12:14:35	10029	Trial2BackEngS	NS	17	0	1000	1	111	12:14:35	2812823	5	1	3	1	1	1	1	1	2	8	4	3	0	0	0	5	3
073012	12:14:35	10029	Trial2BackEngS	NS	17	0	1000	1	111	12:14:35	2814342	5	1	3	1	1	1	1	1	2	8	4	3	0	0	0	5	3
073012	12:14:35	10029	Trial2BackEngS	NS	17	0	1000	1	111	12:14:35	2815862	5	1	3	1	1	1	1	1	2	8	4	3	0	0	0	5	3
073012	12:14:35	10029	Trial2BackEngS	NS	17	0	1000	1	111	12:14:35	2817381	5	1	3	1	1	1	1	1	2	8	4	3	0	0	0	5	3
073012	12:14:35	10029	Trial2BackEngS	NS	17	0	1000	1	111	12:14:35	2818954	5	1	3	1	1	1	1	1	2	8	4	3	0	0	0	5	3
073012	12:14:35	10029	Trial2BackEngS	YS	17	0	1000	0	111	12:14:35	2820473	5	1	3	1	1	1	1	1	2	8	4	3	0	0	0	5	3
073012	12:14:35	10029	Trial2BackEngS	NS	17	0	1000	1	111	12:14:35	2821992	5	1	3	1	1	1	1	1	2	8	4	3	0	0	0	5	3
073012	12:14:35	10029	Trial2BackEngS	NS	17	0	1000	1	111	12:14:35	2823512	5	1	3	1	1	1	1	1	2	8	4	3	0	0	0	5	3
073012	12:14:35	10029	Trial2BackEngS	NS	17	0	1000	1	111	12:14:35	2825031	5	1	3	1	1	1	1	1	2	8	4	3	0	0	0	5	3
073012	12:14:35	10029	Trial2BackEngS	NS	17	0	1000	1	111	12:14:35	2826551	5	1	3	1	1	1	1	1	2	8	4	3	0	0	0	5	3
073012	12:14:35	10029	Trial2BackEngS	NS	17	0	1000	1	111	12:14:35	2828070	5	1	3	1	1	1	1	1	2	8	4	3	0	0	0	5	3
073012	12:14:35	10029	Trial2BackEngS	NS	17	0	1000	1	111	12:14:35	2829589	5	1	3	1	1	1	1	1	2	8	4	3	0	0	0	5	3
073012	12:14:35	10029	Trial2BackEngS	NS	17	0	1000	1	111	12:14:35	2831109	5	1	3	1	1	1	1	1	2	8	4	3	0	0	0	5	3
073012	12:14:35	10029	Trial2BackEngS	YS	17	0	1000	0	111	12:14:35	2832628	5	1	3	1	1	1	1	1	2	8	4	3	0	0	0	5	3
073012	12:14:35	10029	Trial2BackEngS	NS	17	0	1000	1	111	12:14:35	2834147	5	1	3	1	1	1	1	1	2	8	4	3	0	0	0	5	3
073012	12:14:35	10029	Trial2BackEngS	NS	17	0	1000	1	111	12:14:35	2835667	5	1	3	1	1	1	1	1	2	8	4	3	0	0	0	5	3
073012	12:14:35	10029	Trial2BackEngS	NS	17	0	1000	1	111	12:14:35	2837186	5	1	3	1	1	1	1	1	2	8	4	3	0	0	0	5	3
073012	12:14:35	10029	Trial2BackEngS	NS	17	0	1000	1	111	12:14:35	2838705	5	1	3	1	1	1	1	1	2	8	4	3	0	0	0	5	3
073012	12:14:35	10029	Trial2BackEngS	YS	17	0	1000	0	111	12:14:35	2840225	5	1	3	1	1	1	1	1	2	8	4	3	0	0	0	5	3
073012	12:14:35	10029	Trial2BackEngS	NS	17	0	1000	1	111	12:14:35	2841744	5	1	3	1	1	1	1	1	2	8	4	3	0	0	0	5	3
073012	12:14:35	10029	Trial2BackEngS	NS	17	0	1000	1	111	12:14:35	2843264	5	1	3	1	1	1	1	1	2	8	4	3	0	0	0	5	3
073012	12:14:35	10029	Trial2BackEngS	YS	17	0	1000	0	111	12:14:35	2844783	5	1	3	1	1	1	1	1	2	8	4	3	0	0	0	5	3
073012	12:14:35	10029	Trial2BackEngS	NS	17	0	1000	1	111	12:14:35	2846302	5	1	3	1	1	1	1	1	2	8	4	3	0	0	0	5	3
073012	12:14:35	10029	Trial2BackEngS	NS	17	0	1000	1	111	12:14:35	2847822	5	1	3	1	1	1	1	1	2	8	4	3	0	0	0	5	3
073012	12:14:35	10029	Trial2BackEngS	NS	17	0	1000	1	111	12:14:35	2849341	5	1	3	1	1	1	1	1	2	8	4	3	0	0	0	5	3
073012	12:14:35	10029	Trial2BackEngS	NS	17	0	1000	1	111	12:14:35	2850860	5	1	3	1	1	1	1	1	2	8	4	3	0	0	0	5	3
073012	12:14:35	10029	Trial2BackEngS	NS	17	0	1000	1	111	12:14:35	2852380	5	1	3	1	1	1	1	1	2	8	4	3	0	0	0	5	3
073012	12:14:35	10029	Trial2BackEngS	NS	17	0	1000	1	111	12:14:35	2853899	5	1	3	1	1	1	1	1	2	8	4	3	0	0	0	5	3
073012	12:14:35	10029	Trial2BackEngS	YS	17	0	1000	0	111	12:14:35	2855419	5	1	3	1	1	1	1	1	2	8	4	3	0	0	0	5	3
073012	12:14:35	10029	Trial2BackEngS	NS	17	0	1000	1	111	12:14:35	2856938	5	1	3	1	1	1	1	1	2	8	4	3	0	0	0	5	3
073012	12:14:35	10029	Trial2BackEngS	NS	17	0	1000	1	111	12:14:35	2858457	5	1	3	1	1	1	1	1	2	8	4	3	0	0	0	5	3
073012	12:14:35	10029	Trial2BackEngS	NS	17	0	1000	1	111	12:14:35	2859977	5	1	3	1	1	1	1	1	2	8	4	3	0	0	0	5	3
073012	12:14:35	10029	Trial2BackEngS	NS	17	0	1000	1	111	12:14:35	2861523	5	1	3	1	1	1	1	1	2	8	4	3	0	0	0	5	3
073012	12:14:35	10029	Trial2BackEngS	YS	17	0	1000	0	111	12:14:35	2863042	5	1	3	1	1	1	1	1	2	8	4	3	0	0	0	5	3
073012	12:14:35	10029	Trial2BackEngS	NS	17	0	1000	1	111	12:14:35	2864561	5	1	3	1	1	1	1	1	2	8	4	3	0	0	0	5	3
073012	12:14:35	10029	Trial2BackEngS	NS	17	0	1000	1	111	12:14:35	2866081	5	1	3	1	1	1	1	1	2	8	4	3	0	0	0	5	3
073012	12:14:35	10029	Trial2BackEngS	NS	17	0	1000	1	111	12:14:35	2867600	5	1	3	1	1	1	1	1	2	8	4	3	0	0	0	5	3
073012	12:14:35	10029	Trial2BackEngS	NS	17	0	1000	1	111	12:14:35	2869120	5	1	3	1	1	1	1	1	2	8	4	3	0	0	0	5	3
073012	12:14:35	10029	Trial2BackEngS	YS	17	0	1000	0	111	12:14:35	2870639	5	1	3	1	1	1	1	1	2	8	4	3	0	0	0	5	3
073012	12:14:35	10029	Trial2BackEngS	NS	17	0	1000	1	111	12:14:35	2872158	5	1	3	1	1	1	1	1	2	8	4	3	0	0	0	5	3
073012	12:14:35	10029	Trial2BackEngS	NS	17	0	1000	1	111	12:14:35	2873678	5	1	3	1	1	1	1	1	2	8	4	3	0	0	0	5	3
073012	12:14:35	10029	Trial2BackEngS	YS	17	57	555	1	111	12:14:35	2874757	5	1	3	1	1	1	1	1	2	8	4	3	0	0	0	5	3
073012	12:14:35	10029	Trial2BackEngS	NS	17	0	1000	1	111	12:14:35	2876703	5	1	3	1	1	1	1	1	2	8	4	3	0	0	0	5	3
073012	12:14:35	10029	Trial2BackEngS	NS	17	0	1000	1	111	12:14:35	2878223	5	1	3	1	1	1	1	1	2	8	4	3	0	0	0	5	3
073012	12:14:35	10029	Trial2BackEngS	NS	17	0	1000	1	111	12:14:35	2879742	5	1	3	1	1	1	1	1	2	8	4	3	0	0	0	5	3
073012	12:14:35	10029	Trial2BackEngS	NS	17	0	1000	1	111	12:14:35	2881261	5	1	3	1	1	1	1	1	2	8	4	3	0	0	0	5	3
073012	12:14:35	10029	Trial2BackEngS	NS	17	0	1000	1	111	12:14:35	2882781	5	1	3	1	1	1	1	1	2	8	4	3	0	0	0	5	3
073012	12:14:35	10029	Trial2BackEngS	NS	17	0	1000	1	111	12:14:35	2884300	5	1	3	1	1	1	1	1	2	8	4	3	0	0	0	5	3
073012	12:14:35	10029	Trial2BackEngS	NS	17	0	1000	1	111	12:14:35	2885819	5	1	3	1	1	1	1	1	2	8	4	3	0	0	0	5	3
073012	12:14:35	10029	Trial2BackEngS	NS	17	0	1000	1	111	12:14:35	2887339	5	1	3	1	1	1	1	1	2	8	4	3	0	0	0	5	3
073012	12:14:35	10029	Trial2BackEngS	YS	17	57	365	1	111	12:14:35	2888232	5	1	3	1	1	1	1	1	2	8	4	3	0	0	0	5	3
073012	12:14:35	10029	Trial2BackEngS	NS	17	0	1000	1	111	12:14:35	2890364	5	1	3	1	1	1	1	1	2	8	4	3	0	0	0	5	3
073012	12:14:35	10029	Trial2BackEngS	NS	17	0	1000	1	111	12:14:35	2891883	5	1	3	1	1	1	1	1	2	8	4	3	0	0	0	5	3
073012	12:14:35	10029	Trial2BackEngS	NS	17	0	1000	1	111	12:14:35	2893403	5	1	3	1	1	1	1	1	2	8	4	3	0	0	0	5	3
073012	12:14:35	10029	Trial2BackEngS	NS	17	0	1000	1	111	12:14:35	2894922	5	1	3	1	1	1	1	1	2	8	4	3	0	0	0	5	3
073012	12:14:35	10029	Trial2BackEngS	NS	17	0	1000	1	111	12:14:35	2896442	5	1	3	1	1	1	1	1	2	8	4	3	0	0	0	5	3
073012	12:14:35	10029	Trial2BackEngS	NS	17	0	1000	1	111	12:14:35	2897961	5	1	3	1	1	1	1	1	2	8	4	3	0	0	0	5	3
073012	12:14:35	10029	Trial2BackEngS	NS	17	0	1000	1	111	12:14:35	2899480	5	1	3	1	1	1	1	1	2	8	4	3	0	0	0	5	3
073012	12:14:35	10029	Trial2BackEngS	YS	17	0	1000	0	111	12:14:35	2901000	5	1	3	1	1	1	1	1	2	8	4	3	0	0	0	5	3
073012	12:14:35	10029	Trial2BackEngS	NS	17	0	1000	1	111	12:14:35	2902519	5	1	3	1	1	1	1	1	2	8	4	3	0	0	0	5	3
073012	12:14:35	10029	Trial2BackEngS	NS	17	0	1000	1	111	12:14:35	2904039	5	1	3	1	1	1	1	1	2	8	4	3	0	0	0	5	3
073012	12:14:35	10029	Trial2BackEngS	NS	17	0	1000	1	111	12:14:35	2905558	5	1	3	1	1	1	1	1	2	8	4	3	0	0	0	5	3
073012	12:14:35	10029	Trial2BackEngS	NS	17	0	1000	1	111	12:14:35	2907077	5	1	3	1	1	1	1	1	2	8	4	3	0	0	0	5	3
073012	12:14:35	10029	Trial2BackEngS	NS	17	0	1000	1	111	12:14:35	2908597	5	1	3	1	1	1	1	1	2	8	4	3	0	0	0	5	3
073012	12:14:35	10029	Trial2BackEngS	NS	17	0	1000	1	111	12:14:35	2910116	5	1	3	1	1	1	1	1	2	8	4	3	0	0	0	5	3
073012	12:14:35	10029	Trial2BackEngS	NS	17	0	1000	1	111	12:14:35	2911636	5	1	3	1	1	1	1	1	2	8	4	3	0	0	0	5	3
073012	12:14:35	10029	Trial2BackEngS	NS	17	0	1000	1	111	12:14:35	2913155	5	1	3	1	1	1	1	1	2	8	4	3	0	0	0	5	3
073012	12:14:35	10029	Trial2BackEngS	NS	17	0	1000	1	111	12:14:35	2914674	5	1	3	1	1	1	1	1	2	8	4	3	0	0	0	5	3
073012	12:14:35	10029	Trial2BackEngS	YS	17	0	1000	0	111	12:14:35	2916193	5	1	3	1	1	1	1	1	2	8	4	3	0	0	0	5	3
073012	12:14:35	10029	Trial2BackEngS	NS	17	0	1000	1	111	12:14:35	2917713	5	1	3	1	1	1	1	1	2	8	4	3	0	0	0	5	3
073012	12:14:35	10029	ClockEngBaseline	ClockEngBaseline	19	Clock1	86699	0	111	12:14:35	3004517	5	1	3	1	1	1	1	1	2	8	4	3	1	0	0	5	3
073012	12:14:35	10029	ClockEngBaseline	ClockEngBaseline	19	Clock11	419	0	111	12:14:35	3004970	5	1	3	1	1	1	1	1	2	8	4	3	1	1	0	5	3
073012	12:14:35	10029	ClockEngBaseline	ClockEngBaseline	19	Clock111	461	0	111	12:14:35	3005477	5	1	3	1	1	1	1	1	2	8	4	3	1	1	1	5	3
073012	12:14:35	10029	ClockEngBaseline	ClockEngBaseline	19	Clockdone	555	0	111	12:14:35	3006077	5	1	3	1	1	1	1	1	2	8	4	3	1	1	1	5	3
073012	12:14:35	10029	FASEngVFBaseline	StopEngVFBaseline	20	9	10184	0	111	12:14:35	3111755	5	1	3	1	1	1	1	1	2	8	4	3	1	1	1	5	3
