date	time	subject	blockcode	trialcode	values.TaskNumber	response	latency	correct	values.Score	script.starttime	script.elapsedtime	values.ScoreS7	values.Word1	values.Word2	values.Word3	values.Word4	values.Word5	values.Word6	values.Word7	values.Word8	values.DigitSpanFwrd	values.DigitSpanBack	values.ScoreAbs	values.Contour	values.Numbers	values.Hands	values.corsiblockspanFwrd	values.corsiblockspanRev
090412	15:17:14	10017	Language	Language	0	English	473356	0	0	15:17:14	473477	0	0	0	0	0	0	0	0	0	0	0	0	0	0	0	0	0
090412	15:17:14	10017	Session	Session	0	3mo	1006	0	0	15:17:14	474570	0	0	0	0	0	0	0	0	0	0	0	0	0	0	0	0	0
090412	15:17:14	10017	HandEng	HandEng	0	Right	438126	0	0	15:17:14	912779	0	0	0	0	0	0	0	0	0	0	0	0	0	0	0	0	0
090412	15:17:14	10017	CubeEng	CubeEng	1	1Cube	54581	0	0	15:17:14	1123560	0	0	0	0	0	0	0	0	0	0	0	0	0	0	0	0	0
090412	15:17:14	10017	pm.simpleEngRight	blank.simpleEng	2	0	1587	1	0	15:17:14	1164783	0	0	0	0	0	0	0	0	0	0	0	0	0	0	0	0	0
090412	15:17:14	10017	pm.simpleEngRight	pm.simpleEng	2	57	853	0	0	15:17:14	1165676	0	0	0	0	0	0	0	0	0	0	0	0	0	0	0	0	0
090412	15:17:14	10017	pm.simpleEngRight	blank.simpleEng	2	0	1887	1	0	15:17:14	1167582	0	0	0	0	0	0	0	0	0	0	0	0	0	0	0	0	0
090412	15:17:14	10017	pm.simpleEngRight	pm.simpleEng	2	57	422	0	0	15:17:14	1168035	0	0	0	0	0	0	0	0	0	0	0	0	0	0	0	0	0
090412	15:17:14	10017	pm.simpleEngRight	blank.simpleEng	2	0	1487	1	0	15:17:14	1169541	0	0	0	0	0	0	0	0	0	0	0	0	0	0	0	0	0
090412	15:17:14	10017	pm.simpleEngRight	pm.simpleEng	2	57	383	0	0	15:17:14	1169955	0	0	0	0	0	0	0	0	0	0	0	0	0	0	0	0	0
090412	15:17:14	10017	pm.simpleEngRight	blank.simpleEng	2	0	2387	1	0	15:17:14	1172367	0	0	0	0	0	0	0	0	0	0	0	0	0	0	0	0	0
090412	15:17:14	10017	pm.simpleEngRight	pm.simpleEng	2	57	341	0	0	15:17:14	1172740	0	0	0	0	0	0	0	0	0	0	0	0	0	0	0	0	0
090412	15:17:14	10017	pm.simpleEngRight	blank.simpleEng	2	0	1987	1	0	15:17:14	1174753	0	0	0	0	0	0	0	0	0	0	0	0	0	0	0	0	0
090412	15:17:14	10017	pm.simpleEngRight	pm.simpleEng	2	57	307	0	0	15:17:14	1175099	0	0	0	0	0	0	0	0	0	0	0	0	0	0	0	0	0
090412	15:17:14	10017	pm.simpleEngRight	blank.simpleEng	2	0	1687	1	0	15:17:14	1176805	0	0	0	0	0	0	0	0	0	0	0	0	0	0	0	0	0
090412	15:17:14	10017	pm.simpleEngRight	pm.simpleEng	2	57	335	0	0	15:17:14	1177178	0	0	0	0	0	0	0	0	0	0	0	0	0	0	0	0	0
090412	15:17:14	10017	pm.simpleEngRight	blank.simpleEng	2	0	2487	1	0	15:17:14	1179697	0	0	0	0	0	0	0	0	0	0	0	0	0	0	0	0	0
090412	15:17:14	10017	pm.simpleEngRight	pm.simpleEng	2	57	418	0	0	15:17:14	1180150	0	0	0	0	0	0	0	0	0	0	0	0	0	0	0	0	0
090412	15:17:14	10017	pm.simpleEngRight	blank.simpleEng	2	0	2187	1	0	15:17:14	1182363	0	0	0	0	0	0	0	0	0	0	0	0	0	0	0	0	0
090412	15:17:14	10017	pm.simpleEngRight	pm.simpleEng	2	57	296	0	0	15:17:14	1182696	0	0	0	0	0	0	0	0	0	0	0	0	0	0	0	0	0
090412	15:17:14	10017	pm.simpleEngRight	blank.simpleEng	2	0	2087	1	0	15:17:14	1184802	0	0	0	0	0	0	0	0	0	0	0	0	0	0	0	0	0
090412	15:17:14	10017	pm.simpleEngRight	pm.simpleEng	2	57	321	0	0	15:17:14	1185162	0	0	0	0	0	0	0	0	0	0	0	0	0	0	0	0	0
090412	15:17:14	10017	pm.simpleEngRight	blank.simpleEng	2	0	2287	1	0	15:17:14	1187468	0	0	0	0	0	0	0	0	0	0	0	0	0	0	0	0	0
090412	15:17:14	10017	pm.simpleEngRight	pm.simpleEng	2	57	312	0	0	15:17:14	1187814	0	0	0	0	0	0	0	0	0	0	0	0	0	0	0	0	0
090412	15:17:14	10017	pm.simpleEngRight	blank.simpleEng	2	0	1787	1	0	15:17:14	1189627	0	0	0	0	0	0	0	0	0	0	0	0	0	0	0	0	0
090412	15:17:14	10017	pm.simpleEngRight	pm.simpleEng	2	57	329	0	0	15:17:14	1189987	0	0	0	0	0	0	0	0	0	0	0	0	0	0	0	0	0
090412	15:17:14	10017	pm.simpleEngRight	blank.simpleEng	2	0	1987	1	0	15:17:14	1191999	0	0	0	0	0	0	0	0	0	0	0	0	0	0	0	0	0
090412	15:17:14	10017	pm.simpleEngRight	pm.simpleEng	2	57	292	0	0	15:17:14	1192332	0	0	0	0	0	0	0	0	0	0	0	0	0	0	0	0	0
090412	15:17:14	10017	pm.simpleEngRight	blank.simpleEng	2	0	2387	1	0	15:17:14	1194745	0	0	0	0	0	0	0	0	0	0	0	0	0	0	0	0	0
090412	15:17:14	10017	pm.simpleEngRight	pm.simpleEng	2	57	347	0	0	15:17:14	1195131	0	0	0	0	0	0	0	0	0	0	0	0	0	0	0	0	0
090412	15:17:14	10017	pm.simpleEngRight	blank.simpleEng	2	0	1587	1	0	15:17:14	1196744	0	0	0	0	0	0	0	0	0	0	0	0	0	0	0	0	0
090412	15:17:14	10017	pm.simpleEngRight	pm.simpleEng	2	57	347	0	0	15:17:14	1197130	0	0	0	0	0	0	0	0	0	0	0	0	0	0	0	0	0
090412	15:17:14	10017	pm.simpleEngRight	blank.simpleEng	2	0	1687	1	0	15:17:14	1198850	0	0	0	0	0	0	0	0	0	0	0	0	0	0	0	0	0
090412	15:17:14	10017	pm.simpleEngRight	pm.simpleEng	2	57	257	0	0	15:17:14	1199143	0	0	0	0	0	0	0	0	0	0	0	0	0	0	0	0	0
090412	15:17:14	10017	pm.simpleEngRight	blank.simpleEng	2	0	2487	1	0	15:17:14	1201649	0	0	0	0	0	0	0	0	0	0	0	0	0	0	0	0	0
090412	15:17:14	10017	pm.simpleEngRight	pm.simpleEng	2	57	355	0	0	15:17:14	1202035	0	0	0	0	0	0	0	0	0	0	0	0	0	0	0	0	0
090412	15:17:14	10017	pm.simpleEngRight	blank.simpleEng	2	0	1487	1	0	15:17:14	1203541	0	0	0	0	0	0	0	0	0	0	0	0	0	0	0	0	0
090412	15:17:14	10017	pm.simpleEngRight	pm.simpleEng	2	57	350	0	0	15:17:14	1203927	0	0	0	0	0	0	0	0	0	0	0	0	0	0	0	0	0
090412	15:17:14	10017	pm.simpleEngRight	blank.simpleEng	2	0	1787	1	0	15:17:14	1205740	0	0	0	0	0	0	0	0	0	0	0	0	0	0	0	0	0
090412	15:17:14	10017	pm.simpleEngRight	pm.simpleEng	2	57	279	0	0	15:17:14	1206060	0	0	0	0	0	0	0	0	0	0	0	0	0	0	0	0	0
090412	15:17:14	10017	pm.simpleEngRight	blank.simpleEng	2	0	2087	1	0	15:17:14	1208179	0	0	0	0	0	0	0	0	0	0	0	0	0	0	0	0	0
090412	15:17:14	10017	pm.simpleEngRight	pm.simpleEng	2	57	319	0	0	15:17:14	1208539	0	0	0	0	0	0	0	0	0	0	0	0	0	0	0	0	0
090412	15:17:14	10017	pm.simpleEngRight	blank.simpleEng	2	0	2187	1	0	15:17:14	1210752	0	0	0	0	0	0	0	0	0	0	0	0	0	0	0	0	0
090412	15:17:14	10017	pm.simpleEngRight	pm.simpleEng	2	57	323	0	0	15:17:14	1211111	0	0	0	0	0	0	0	0	0	0	0	0	0	0	0	0	0
090412	15:17:14	10017	pm.simpleEngRight	blank.simpleEng	2	0	2287	1	0	15:17:14	1213430	0	0	0	0	0	0	0	0	0	0	0	0	0	0	0	0	0
090412	15:17:14	10017	pm.simpleEngRight	pm.simpleEng	2	57	284	0	0	15:17:14	1213750	0	0	0	0	0	0	0	0	0	0	0	0	0	0	0	0	0
090412	15:17:14	10017	pm.simpleEngRight	blank.simpleEng	2	0	1887	1	0	15:17:14	1215656	0	0	0	0	0	0	0	0	0	0	0	0	0	0	0	0	0
090412	15:17:14	10017	pm.simpleEngRight	pm.simpleEng	2	57	363	0	0	15:17:14	1216056	0	0	0	0	0	0	0	0	0	0	0	0	0	0	0	0	0
090412	15:17:14	10017	pm.simpleEngRight	blank.simpleEng	2	0	1687	1	0	15:17:14	1217762	0	0	0	0	0	0	0	0	0	0	0	0	0	0	0	0	0
090412	15:17:14	10017	pm.simpleEngRight	pm.simpleEng	2	57	305	0	0	15:17:14	1218108	0	0	0	0	0	0	0	0	0	0	0	0	0	0	0	0	0
090412	15:17:14	10017	pm.simpleEngRight	blank.simpleEng	2	0	1487	1	0	15:17:14	1219628	0	0	0	0	0	0	0	0	0	0	0	0	0	0	0	0	0
090412	15:17:14	10017	pm.simpleEngRight	pm.simpleEng	2	57	279	0	0	15:17:14	1219948	0	0	0	0	0	0	0	0	0	0	0	0	0	0	0	0	0
090412	15:17:14	10017	pm.simpleEngRight	blank.simpleEng	2	0	1587	1	0	15:17:14	1221561	0	0	0	0	0	0	0	0	0	0	0	0	0	0	0	0	0
090412	15:17:14	10017	pm.simpleEngRight	pm.simpleEng	2	57	333	0	0	15:17:14	1221934	0	0	0	0	0	0	0	0	0	0	0	0	0	0	0	0	0
090412	15:17:14	10017	pm.simpleEngRight	blank.simpleEng	2	0	2287	1	0	15:17:14	1224239	0	0	0	0	0	0	0	0	0	0	0	0	0	0	0	0	0
090412	15:17:14	10017	pm.simpleEngRight	pm.simpleEng	2	57	291	0	0	15:17:14	1224573	0	0	0	0	0	0	0	0	0	0	0	0	0	0	0	0	0
090412	15:17:14	10017	pm.simpleEngRight	blank.simpleEng	2	0	2487	1	0	15:17:14	1227092	0	0	0	0	0	0	0	0	0	0	0	0	0	0	0	0	0
090412	15:17:14	10017	pm.simpleEngRight	pm.simpleEng	2	57	303	0	0	15:17:14	1227425	0	0	0	0	0	0	0	0	0	0	0	0	0	0	0	0	0
090412	15:17:14	10017	pm.simpleEngRight	blank.simpleEng	2	0	2387	1	0	15:17:14	1229837	0	0	0	0	0	0	0	0	0	0	0	0	0	0	0	0	0
090412	15:17:14	10017	pm.simpleEngRight	pm.simpleEng	2	57	309	0	0	15:17:14	1230184	0	0	0	0	0	0	0	0	0	0	0	0	0	0	0	0	0
090412	15:17:14	10017	pm.simpleEngRight	blank.simpleEng	2	0	1987	1	0	15:17:14	1232196	0	0	0	0	0	0	0	0	0	0	0	0	0	0	0	0	0
090412	15:17:14	10017	pm.simpleEngRight	pm.simpleEng	2	57	319	0	0	15:17:14	1232556	0	0	0	0	0	0	0	0	0	0	0	0	0	0	0	0	0
090412	15:17:14	10017	pm.simpleEngRight	blank.simpleEng	2	0	1787	1	0	15:17:14	1234369	0	0	0	0	0	0	0	0	0	0	0	0	0	0	0	0	0
090412	15:17:14	10017	pm.simpleEngRight	pm.simpleEng	2	57	338	0	0	15:17:14	1234742	0	0	0	0	0	0	0	0	0	0	0	0	0	0	0	0	0
090412	15:17:14	10017	pm.simpleEngRight	blank.simpleEng	2	0	2087	1	0	15:17:14	1236861	0	0	0	0	0	0	0	0	0	0	0	0	0	0	0	0	0
090412	15:17:14	10017	pm.simpleEngRight	pm.simpleEng	2	57	293	0	0	15:17:14	1237194	0	0	0	0	0	0	0	0	0	0	0	0	0	0	0	0	0
090412	15:17:14	10017	pm.simpleEngRight	blank.simpleEng	2	0	2187	1	0	15:17:14	1239407	0	0	0	0	0	0	0	0	0	0	0	0	0	0	0	0	0
090412	15:17:14	10017	pm.simpleEngRight	pm.simpleEng	2	57	339	0	0	15:17:14	1239780	0	0	0	0	0	0	0	0	0	0	0	0	0	0	0	0	0
090412	15:17:14	10017	pm.simpleEngRight	blank.simpleEng	2	0	1887	1	0	15:17:14	1241699	0	0	0	0	0	0	0	0	0	0	0	0	0	0	0	0	0
090412	15:17:14	10017	pm.simpleEngRight	pm.simpleEng	2	57	319	0	0	15:17:14	1242059	0	0	0	0	0	0	0	0	0	0	0	0	0	0	0	0	0
090412	15:17:14	10017	pm.simpleEngRight	blank.simpleEng	2	0	2487	1	0	15:17:14	1244578	0	0	0	0	0	0	0	0	0	0	0	0	0	0	0	0	0
090412	15:17:14	10017	pm.simpleEngRight	pm.simpleEng	2	57	304	0	0	15:17:14	1244924	0	0	0	0	0	0	0	0	0	0	0	0	0	0	0	0	0
090412	15:17:14	10017	pm.simpleEngRight	blank.simpleEng	2	0	1587	1	0	15:17:14	1246537	0	0	0	0	0	0	0	0	0	0	0	0	0	0	0	0	0
090412	15:17:14	10017	pm.simpleEngRight	pm.simpleEng	2	57	393	0	0	15:17:14	1246964	0	0	0	0	0	0	0	0	0	0	0	0	0	0	0	0	0
090412	15:17:14	10017	pm.simpleEngRight	blank.simpleEng	2	0	1787	1	0	15:17:14	1248776	0	0	0	0	0	0	0	0	0	0	0	0	0	0	0	0	0
090412	15:17:14	10017	pm.simpleEngRight	pm.simpleEng	2	57	266	0	0	15:17:14	1249083	0	0	0	0	0	0	0	0	0	0	0	0	0	0	0	0	0
090412	15:17:14	10017	pm.simpleEngRight	blank.simpleEng	2	0	2387	1	0	15:17:14	1251495	0	0	0	0	0	0	0	0	0	0	0	0	0	0	0	0	0
090412	15:17:14	10017	pm.simpleEngRight	pm.simpleEng	2	57	283	0	0	15:17:14	1251815	0	0	0	0	0	0	0	0	0	0	0	0	0	0	0	0	0
090412	15:17:14	10017	pm.simpleEngRight	blank.simpleEng	2	0	1487	1	0	15:17:14	1253321	0	0	0	0	0	0	0	0	0	0	0	0	0	0	0	0	0
090412	15:17:14	10017	pm.simpleEngRight	pm.simpleEng	2	57	425	0	0	15:17:14	1253788	0	0	0	0	0	0	0	0	0	0	0	0	0	0	0	0	0
090412	15:17:14	10017	pm.simpleEngRight	blank.simpleEng	2	0	2187	1	0	15:17:14	1256000	0	0	0	0	0	0	0	0	0	0	0	0	0	0	0	0	0
090412	15:17:14	10017	pm.simpleEngRight	pm.simpleEng	2	57	370	0	0	15:17:14	1256400	0	0	0	0	0	0	0	0	0	0	0	0	0	0	0	0	0
090412	15:17:14	10017	pm.simpleEngRight	blank.simpleEng	2	0	1687	1	0	15:17:14	1258106	0	0	0	0	0	0	0	0	0	0	0	0	0	0	0	0	0
090412	15:17:14	10017	pm.simpleEngRight	pm.simpleEng	2	57	296	0	0	15:17:14	1258439	0	0	0	0	0	0	0	0	0	0	0	0	0	0	0	0	0
090412	15:17:14	10017	Trial2BackEng	N	3	0	1000	1	1	15:17:14	1313763	0	0	0	0	0	0	0	0	0	0	0	0	0	0	0	0	0
090412	15:17:14	10017	Trial2BackEng	N	3	0	1000	1	2	15:17:14	1315283	0	0	0	0	0	0	0	0	0	0	0	0	0	0	0	0	0
090412	15:17:14	10017	Trial2BackEng	N	3	0	1000	1	3	15:17:14	1316802	0	0	0	0	0	0	0	0	0	0	0	0	0	0	0	0	0
090412	15:17:14	10017	Trial2BackEng	N	3	0	1000	1	4	15:17:14	1318321	0	0	0	0	0	0	0	0	0	0	0	0	0	0	0	0	0
090412	15:17:14	10017	Trial2BackEng	N	3	0	1000	1	5	15:17:14	1319841	0	0	0	0	0	0	0	0	0	0	0	0	0	0	0	0	0
090412	15:17:14	10017	Trial2BackEng	N	3	0	1000	1	6	15:17:14	1321360	0	0	0	0	0	0	0	0	0	0	0	0	0	0	0	0	0
090412	15:17:14	10017	Trial2BackEng	N	3	0	1000	1	7	15:17:14	1322879	0	0	0	0	0	0	0	0	0	0	0	0	0	0	0	0	0
090412	15:17:14	10017	Trial2BackEng	N	3	0	1000	1	8	15:17:14	1324399	0	0	0	0	0	0	0	0	0	0	0	0	0	0	0	0	0
090412	15:17:14	10017	Trial2BackEng	Y	3	0	1000	0	8	15:17:14	1325918	0	0	0	0	0	0	0	0	0	0	0	0	0	0	0	0	0
090412	15:17:14	10017	Trial2BackEng	N	3	0	1000	1	9	15:17:14	1327438	0	0	0	0	0	0	0	0	0	0	0	0	0	0	0	0	0
090412	15:17:14	10017	Trial2BackEng	N	3	0	1000	1	10	15:17:14	1328957	0	0	0	0	0	0	0	0	0	0	0	0	0	0	0	0	0
090412	15:17:14	10017	Trial2BackEng	N	3	0	1000	1	11	15:17:14	1330476	0	0	0	0	0	0	0	0	0	0	0	0	0	0	0	0	0
090412	15:17:14	10017	Trial2BackEng	Y	3	57	552	1	12	15:17:14	1331556	0	0	0	0	0	0	0	0	0	0	0	0	0	0	0	0	0
090412	15:17:14	10017	Trial2BackEng	N	3	0	1000	1	13	15:17:14	1333502	0	0	0	0	0	0	0	0	0	0	0	0	0	0	0	0	0
090412	15:17:14	10017	Trial2BackEng	N	3	0	1000	1	14	15:17:14	1335021	0	0	0	0	0	0	0	0	0	0	0	0	0	0	0	0	0
090412	15:17:14	10017	Trial2BackEng	N	3	0	1000	1	15	15:17:14	1336541	0	0	0	0	0	0	0	0	0	0	0	0	0	0	0	0	0
090412	15:17:14	10017	Trial2BackEng	N	3	0	1000	1	16	15:17:14	1338060	0	0	0	0	0	0	0	0	0	0	0	0	0	0	0	0	0
090412	15:17:14	10017	Trial2BackEng	N	3	0	1000	1	17	15:17:14	1339579	0	0	0	0	0	0	0	0	0	0	0	0	0	0	0	0	0
090412	15:17:14	10017	Trial2BackEng	Y	3	57	617	1	18	15:17:14	1340725	0	0	0	0	0	0	0	0	0	0	0	0	0	0	0	0	0
090412	15:17:14	10017	Trial2BackEng	N	3	0	1000	1	19	15:17:14	1342605	0	0	0	0	0	0	0	0	0	0	0	0	0	0	0	0	0
090412	15:17:14	10017	Trial2BackEng	N	3	0	1000	1	20	15:17:14	1344124	0	0	0	0	0	0	0	0	0	0	0	0	0	0	0	0	0
090412	15:17:14	10017	Trial2BackEng	N	3	0	1000	1	21	15:17:14	1345644	0	0	0	0	0	0	0	0	0	0	0	0	0	0	0	0	0
090412	15:17:14	10017	Trial2BackEng	N	3	0	1000	1	22	15:17:14	1347163	0	0	0	0	0	0	0	0	0	0	0	0	0	0	0	0	0
090412	15:17:14	10017	Trial2BackEng	Y	3	57	489	1	23	15:17:14	1348176	0	0	0	0	0	0	0	0	0	0	0	0	0	0	0	0	0
090412	15:17:14	10017	Trial2BackEng	N	3	0	1000	1	24	15:17:14	1350188	0	0	0	0	0	0	0	0	0	0	0	0	0	0	0	0	0
090412	15:17:14	10017	Trial2BackEng	N	3	0	1000	1	25	15:17:14	1351708	0	0	0	0	0	0	0	0	0	0	0	0	0	0	0	0	0
090412	15:17:14	10017	Trial2BackEng	N	3	0	1000	1	26	15:17:14	1353227	0	0	0	0	0	0	0	0	0	0	0	0	0	0	0	0	0
090412	15:17:14	10017	Trial2BackEng	N	3	0	1000	1	27	15:17:14	1354747	0	0	0	0	0	0	0	0	0	0	0	0	0	0	0	0	0
090412	15:17:14	10017	Trial2BackEng	N	3	0	1000	1	28	15:17:14	1356266	0	0	0	0	0	0	0	0	0	0	0	0	0	0	0	0	0
090412	15:17:14	10017	Trial2BackEng	N	3	0	1000	1	29	15:17:14	1357785	0	0	0	0	0	0	0	0	0	0	0	0	0	0	0	0	0
090412	15:17:14	10017	Trial2BackEng	Y	3	57	571	1	30	15:17:14	1358878	0	0	0	0	0	0	0	0	0	0	0	0	0	0	0	0	0
090412	15:17:14	10017	Trial2BackEng	N	3	0	1000	1	31	15:17:14	1360811	0	0	0	0	0	0	0	0	0	0	0	0	0	0	0	0	0
090412	15:17:14	10017	Trial2BackEng	N	3	0	1000	1	32	15:17:14	1362330	0	0	0	0	0	0	0	0	0	0	0	0	0	0	0	0	0
090412	15:17:14	10017	Trial2BackEng	N	3	0	1000	1	33	15:17:14	1363850	0	0	0	0	0	0	0	0	0	0	0	0	0	0	0	0	0
090412	15:17:14	10017	Trial2BackEng	Y	3	57	459	1	34	15:17:14	1364836	0	0	0	0	0	0	0	0	0	0	0	0	0	0	0	0	0
090412	15:17:14	10017	Trial2BackEng	N	3	0	1000	1	35	15:17:14	1366875	0	0	0	0	0	0	0	0	0	0	0	0	0	0	0	0	0
090412	15:17:14	10017	Trial2BackEng	N	3	0	1000	1	36	15:17:14	1368394	0	0	0	0	0	0	0	0	0	0	0	0	0	0	0	0	0
090412	15:17:14	10017	Trial2BackEng	N	3	0	1000	1	37	15:17:14	1369914	0	0	0	0	0	0	0	0	0	0	0	0	0	0	0	0	0
090412	15:17:14	10017	Trial2BackEng	N	3	0	1000	1	38	15:17:14	1371433	0	0	0	0	0	0	0	0	0	0	0	0	0	0	0	0	0
090412	15:17:14	10017	Trial2BackEng	N	3	0	1000	1	39	15:17:14	1372953	0	0	0	0	0	0	0	0	0	0	0	0	0	0	0	0	0
090412	15:17:14	10017	Trial2BackEng	N	3	57	859	0	39	15:17:14	1374339	0	0	0	0	0	0	0	0	0	0	0	0	0	0	0	0	0
090412	15:17:14	10017	Trial2BackEng	Y	3	0	1000	0	39	15:17:14	1375978	0	0	0	0	0	0	0	0	0	0	0	0	0	0	0	0	0
090412	15:17:14	10017	Trial2BackEng	N	3	0	1000	1	40	15:17:14	1377497	0	0	0	0	0	0	0	0	0	0	0	0	0	0	0	0	0
090412	15:17:14	10017	Trial2BackEng	N	3	0	1000	1	41	15:17:14	1379017	0	0	0	0	0	0	0	0	0	0	0	0	0	0	0	0	0
090412	15:17:14	10017	Trial2BackEng	N	3	0	1000	1	42	15:17:14	1380536	0	0	0	0	0	0	0	0	0	0	0	0	0	0	0	0	0
090412	15:17:14	10017	Trial2BackEng	N	3	0	1000	1	43	15:17:14	1382056	0	0	0	0	0	0	0	0	0	0	0	0	0	0	0	0	0
090412	15:17:14	10017	Trial2BackEng	Y	3	57	652	1	44	15:17:14	1383242	0	0	0	0	0	0	0	0	0	0	0	0	0	0	0	0	0
090412	15:17:14	10017	Trial2BackEng	N	3	0	1000	1	45	15:17:14	1385081	0	0	0	0	0	0	0	0	0	0	0	0	0	0	0	0	0
090412	15:17:14	10017	Trial2BackEng	N	3	0	1000	1	46	15:17:14	1386600	0	0	0	0	0	0	0	0	0	0	0	0	0	0	0	0	0
090412	15:17:14	10017	Trial2BackEng	N	3	0	1000	1	47	15:17:14	1388120	0	0	0	0	0	0	0	0	0	0	0	0	0	0	0	0	0
090412	15:17:14	10017	Trial2BackEng	N	3	0	1000	1	48	15:17:14	1389639	0	0	0	0	0	0	0	0	0	0	0	0	0	0	0	0	0
090412	15:17:14	10017	Trial2BackEng	N	3	0	1000	1	49	15:17:14	1391159	0	0	0	0	0	0	0	0	0	0	0	0	0	0	0	0	0
090412	15:17:14	10017	Trial2BackEng	Y	3	57	525	1	50	15:17:14	1392211	0	0	0	0	0	0	0	0	0	0	0	0	0	0	0	0	0
090412	15:17:14	10017	Trial2BackEng	N	3	0	1000	1	51	15:17:14	1394184	0	0	0	0	0	0	0	0	0	0	0	0	0	0	0	0	0
090412	15:17:14	10017	Trial2BackEng	N	3	0	1000	1	52	15:17:14	1395703	0	0	0	0	0	0	0	0	0	0	0	0	0	0	0	0	0
090412	15:17:14	10017	Trial2BackEng	N	3	0	1000	1	53	15:17:14	1397223	0	0	0	0	0	0	0	0	0	0	0	0	0	0	0	0	0
090412	15:17:14	10017	Trial2BackEng	N	3	0	1000	1	54	15:17:14	1398742	0	0	0	0	0	0	0	0	0	0	0	0	0	0	0	0	0
090412	15:17:14	10017	Trial2BackEng	N	3	0	1000	1	55	15:17:14	1400262	0	0	0	0	0	0	0	0	0	0	0	0	0	0	0	0	0
090412	15:17:14	10017	Trial2BackEng	N	3	0	1000	1	56	15:17:14	1401781	0	0	0	0	0	0	0	0	0	0	0	0	0	0	0	0	0
090412	15:17:14	10017	Trial2BackEng	Y	3	57	702	1	57	15:17:14	1403007	0	0	0	0	0	0	0	0	0	0	0	0	0	0	0	0	0
090412	15:17:14	10017	Trial2BackEng	N	3	0	1000	1	58	15:17:14	1404806	0	0	0	0	0	0	0	0	0	0	0	0	0	0	0	0	0
090412	15:17:14	10017	Trial2BackEng	N	3	0	1000	1	59	15:17:14	1406326	0	0	0	0	0	0	0	0	0	0	0	0	0	0	0	0	0
090412	15:17:14	10017	Trial2BackEng	Y	3	57	749	1	60	15:17:14	1407605	0	0	0	0	0	0	0	0	0	0	0	0	0	0	0	0	0
090412	15:17:14	10017	Trial2BackEng	N	3	0	1000	1	61	15:17:14	1409351	0	0	0	0	0	0	0	0	0	0	0	0	0	0	0	0	0
090412	15:17:14	10017	Trial2BackEng	N	3	0	1000	1	62	15:17:14	1410871	0	0	0	0	0	0	0	0	0	0	0	0	0	0	0	0	0
090412	15:17:14	10017	Trial2BackEng	N	3	0	1000	1	63	15:17:14	1412390	0	0	0	0	0	0	0	0	0	0	0	0	0	0	0	0	0
090412	15:17:14	10017	Trial2BackEng	N	3	0	1000	1	64	15:17:14	1413909	0	0	0	0	0	0	0	0	0	0	0	0	0	0	0	0	0
090412	15:17:14	10017	Trial2BackEng	N	3	0	1000	1	65	15:17:14	1415429	0	0	0	0	0	0	0	0	0	0	0	0	0	0	0	0	0
090412	15:17:14	10017	Trial2BackEng	N	3	0	1000	1	66	15:17:14	1416948	0	0	0	0	0	0	0	0	0	0	0	0	0	0	0	0	0
090412	15:17:14	10017	Trial2BackEng	N	3	0	1000	1	67	15:17:14	1418467	0	0	0	0	0	0	0	0	0	0	0	0	0	0	0	0	0
090412	15:17:14	10017	Trial2BackEng	N	3	0	1000	1	68	15:17:14	1419987	0	0	0	0	0	0	0	0	0	0	0	0	0	0	0	0	0
090412	15:17:14	10017	Trial2BackEng	N	3	0	1000	1	69	15:17:14	1421506	0	0	0	0	0	0	0	0	0	0	0	0	0	0	0	0	0
090412	15:17:14	10017	Trial2BackEng	N	3	0	1000	1	70	15:17:14	1423026	0	0	0	0	0	0	0	0	0	0	0	0	0	0	0	0	0
090412	15:17:14	10017	Trial2BackEng	Y	3	57	577	1	71	15:17:14	1424132	0	0	0	0	0	0	0	0	0	0	0	0	0	0	0	0	0
090412	15:17:14	10017	Trial2BackEng	N	3	0	1000	1	72	15:17:14	1426051	0	0	0	0	0	0	0	0	0	0	0	0	0	0	0	0	0
090412	15:17:14	10017	Trial2BackEng	N	3	0	1000	1	73	15:17:14	1427570	0	0	0	0	0	0	0	0	0	0	0	0	0	0	0	0	0
090412	15:17:14	10017	Trial2BackEng	N	3	0	1000	1	74	15:17:14	1429090	0	0	0	0	0	0	0	0	0	0	0	0	0	0	0	0	0
090412	15:17:14	10017	Trial2BackEng	Y	3	57	641	1	75	15:17:14	1430263	0	0	0	0	0	0	0	0	0	0	0	0	0	0	0	0	0
090412	15:17:14	10017	Trial2BackEng	N	3	0	1000	1	76	15:17:14	1432115	0	0	0	0	0	0	0	0	0	0	0	0	0	0	0	0	0
090412	15:17:14	10017	Trial2BackEng	N	3	0	1000	1	77	15:17:14	1433635	0	0	0	0	0	0	0	0	0	0	0	0	0	0	0	0	0
090412	15:17:14	10017	Trial2BackEng	N	3	0	1000	1	78	15:17:14	1435154	0	0	0	0	0	0	0	0	0	0	0	0	0	0	0	0	0
090412	15:17:14	10017	Trial2BackEng	N	3	0	1000	1	79	15:17:14	1436673	0	0	0	0	0	0	0	0	0	0	0	0	0	0	0	0	0
090412	15:17:14	10017	Trial2BackEng	N	3	0	1000	1	80	15:17:14	1438193	0	0	0	0	0	0	0	0	0	0	0	0	0	0	0	0	0
090412	15:17:14	10017	Trial2BackEng	Y	3	57	465	1	81	15:17:14	1439192	0	0	0	0	0	0	0	0	0	0	0	0	0	0	0	0	0
090412	15:17:14	10017	Trial2BackEng	N	3	0	1000	1	82	15:17:14	1441218	0	0	0	0	0	0	0	0	0	0	0	0	0	0	0	0	0
090412	15:17:14	10017	Trial2BackEng	N	3	0	1000	1	83	15:17:14	1442738	0	0	0	0	0	0	0	0	0	0	0	0	0	0	0	0	0
090412	15:17:14	10017	Trial2BackEng	N	3	0	1000	1	84	15:17:14	1444257	0	0	0	0	0	0	0	0	0	0	0	0	0	0	0	0	0
090412	15:17:14	10017	Trial2BackEng	N	3	0	1000	1	85	15:17:14	1445776	0	0	0	0	0	0	0	0	0	0	0	0	0	0	0	0	0
090412	15:17:14	10017	Trial2BackEng	N	3	0	1000	1	86	15:17:14	1447296	0	0	0	0	0	0	0	0	0	0	0	0	0	0	0	0	0
090412	15:17:14	10017	Trial2BackEng	N	3	0	1000	1	87	15:17:14	1448815	0	0	0	0	0	0	0	0	0	0	0	0	0	0	0	0	0
090412	15:17:14	10017	Trial2BackEng	N	3	0	1000	1	88	15:17:14	1450335	0	0	0	0	0	0	0	0	0	0	0	0	0	0	0	0	0
090412	15:17:14	10017	Trial2BackEng	N	3	0	1000	1	89	15:17:14	1451854	0	0	0	0	0	0	0	0	0	0	0	0	0	0	0	0	0
090412	15:17:14	10017	Trial2BackEng	N	3	0	1000	1	90	15:17:14	1453373	0	0	0	0	0	0	0	0	0	0	0	0	0	0	0	0	0
090412	15:17:14	10017	Trial2BackEng	Y	3	57	885	1	91	15:17:14	1454786	0	0	0	0	0	0	0	0	0	0	0	0	0	0	0	0	0
090412	15:17:14	10017	Trial2BackEng	N	3	0	1000	1	92	15:17:14	1456399	0	0	0	0	0	0	0	0	0	0	0	0	0	0	0	0	0
090412	15:17:14	10017	Trial2BackEng	N	3	0	1000	1	93	15:17:14	1457918	0	0	0	0	0	0	0	0	0	0	0	0	0	0	0	0	0
090412	15:17:14	10017	Trial2BackEng	N	3	0	1000	1	94	15:17:14	1459438	0	0	0	0	0	0	0	0	0	0	0	0	0	0	0	0	0
090412	15:17:14	10017	Trial2BackEng	N	3	0	1000	1	95	15:17:14	1460957	0	0	0	0	0	0	0	0	0	0	0	0	0	0	0	0	0
090412	15:17:14	10017	Trial2BackEng	N	3	0	1000	1	96	15:17:14	1462476	0	0	0	0	0	0	0	0	0	0	0	0	0	0	0	0	0
090412	15:17:14	10017	Trial2BackEng	N	3	0	1000	1	97	15:17:14	1463996	0	0	0	0	0	0	0	0	0	0	0	0	0	0	0	0	0
090412	15:17:14	10017	Trial2BackEng	N	3	0	1000	1	98	15:17:14	1465515	0	0	0	0	0	0	0	0	0	0	0	0	0	0	0	0	0
090412	15:17:14	10017	Trial2BackEng	N	3	0	1000	1	99	15:17:14	1467034	0	0	0	0	0	0	0	0	0	0	0	0	0	0	0	0	0
090412	15:17:14	10017	Trial2BackEng	Y	3	57	615	1	100	15:17:14	1468181	0	0	0	0	0	0	0	0	0	0	0	0	0	0	0	0	0
090412	15:17:14	10017	Trial2BackEng	N	3	0	1000	1	101	15:17:14	1470060	0	0	0	0	0	0	0	0	0	0	0	0	0	0	0	0	0
090412	15:17:14	10017	Trial2BackEng	N	3	0	1000	1	102	15:17:14	1471579	0	0	0	0	0	0	0	0	0	0	0	0	0	0	0	0	0
090412	15:17:14	10017	Trial2BackEng	N	3	0	1000	1	103	15:17:14	1473099	0	0	0	0	0	0	0	0	0	0	0	0	0	0	0	0	0
090412	15:17:14	10017	Trial2BackEng	N	3	0	1000	1	104	15:17:14	1474618	0	0	0	0	0	0	0	0	0	0	0	0	0	0	0	0	0
090412	15:17:14	10017	Trial2BackEng	Y	3	57	839	1	105	15:17:14	1475991	0	0	0	0	0	0	0	0	0	0	0	0	0	0	0	0	0
090412	15:17:14	10017	Trial2BackEng	N	3	0	1000	1	106	15:17:14	1477644	0	0	0	0	0	0	0	0	0	0	0	0	0	0	0	0	0
090412	15:17:14	10017	Trial2BackEng	N	3	0	1000	1	107	15:17:14	1479163	0	0	0	0	0	0	0	0	0	0	0	0	0	0	0	0	0
090412	15:17:14	10017	Trial2BackEng	N	3	0	1000	1	108	15:17:14	1480682	0	0	0	0	0	0	0	0	0	0	0	0	0	0	0	0	0
090412	15:17:14	10017	Trial2BackEng	Y	3	57	727	1	109	15:17:14	1481935	0	0	0	0	0	0	0	0	0	0	0	0	0	0	0	0	0
090412	15:17:14	10017	Trial2BackEng	N	3	0	1000	1	110	15:17:14	1483708	0	0	0	0	0	0	0	0	0	0	0	0	0	0	0	0	0
090412	15:17:14	10017	Trial2BackEng	N	3	0	1000	1	111	15:17:14	1485227	0	0	0	0	0	0	0	0	0	0	0	0	0	0	0	0	0
090412	15:17:14	10017	Trial2BackEng	N	3	0	1000	1	112	15:17:14	1486747	0	0	0	0	0	0	0	0	0	0	0	0	0	0	0	0	0
090412	15:17:14	10017	Trial2BackEng	N	3	0	1000	1	113	15:17:14	1488266	0	0	0	0	0	0	0	0	0	0	0	0	0	0	0	0	0
090412	15:17:14	10017	Trial2BackEng	N	3	0	1000	1	114	15:17:14	1489785	0	0	0	0	0	0	0	0	0	0	0	0	0	0	0	0	0
090412	15:17:14	10017	Trial2BackEng	Y	3	57	600	1	115	15:17:14	1490918	0	0	0	0	0	0	0	0	0	0	0	0	0	0	0	0	0
090412	15:17:14	10017	Trial2BackEng	N	3	0	1000	1	116	15:17:14	1492811	0	0	0	0	0	0	0	0	0	0	0	0	0	0	0	0	0
090412	15:17:14	10017	Trial2BackEng	N	3	0	1000	1	117	15:17:14	1494330	0	0	0	0	0	0	0	0	0	0	0	0	0	0	0	0	0
090412	15:17:14	10017	Trial2BackEng	N	3	0	1000	1	118	15:17:14	1495849	0	0	0	0	0	0	0	0	0	0	0	0	0	0	0	0	0
090412	15:17:14	10017	Trial2BackEng	Y	3	57	759	1	119	15:17:14	1497142	0	0	0	0	0	0	0	0	0	0	0	0	0	0	0	0	0
090412	15:17:14	10017	Trial3BackEng	NN	4	0	1000	1	119	15:17:14	1522079	0	0	0	0	0	0	0	0	0	0	0	0	0	0	0	0	0
090412	15:17:14	10017	Trial3BackEng	NN	4	0	1000	1	119	15:17:14	1523598	0	0	0	0	0	0	0	0	0	0	0	0	0	0	0	0	0
090412	15:17:14	10017	Trial3BackEng	NN	4	0	1000	1	119	15:17:14	1525118	0	0	0	0	0	0	0	0	0	0	0	0	0	0	0	0	0
090412	15:17:14	10017	Trial3BackEng	YY	4	57	850	1	119	15:17:14	1526490	0	0	0	0	0	0	0	0	0	0	0	0	0	0	0	0	0
090412	15:17:14	10017	Trial3BackEng	NN	4	0	1000	1	119	15:17:14	1528143	0	0	0	0	0	0	0	0	0	0	0	0	0	0	0	0	0
090412	15:17:14	10017	Trial3BackEng	NN	4	0	1000	1	119	15:17:14	1529662	0	0	0	0	0	0	0	0	0	0	0	0	0	0	0	0	0
090412	15:17:14	10017	Trial3BackEng	NN	4	0	1000	1	119	15:17:14	1531182	0	0	0	0	0	0	0	0	0	0	0	0	0	0	0	0	0
090412	15:17:14	10017	Trial3BackEng	NN	4	0	1000	1	119	15:17:14	1532701	0	0	0	0	0	0	0	0	0	0	0	0	0	0	0	0	0
090412	15:17:14	10017	Trial3BackEng	YY	4	57	403	1	119	15:17:14	1533634	0	0	0	0	0	0	0	0	0	0	0	0	0	0	0	0	0
090412	15:17:14	10017	Trial3BackEng	NN	4	0	1000	1	119	15:17:14	1535727	0	0	0	0	0	0	0	0	0	0	0	0	0	0	0	0	0
090412	15:17:14	10017	Trial3BackEng	NN	4	0	1000	1	119	15:17:14	1537246	0	0	0	0	0	0	0	0	0	0	0	0	0	0	0	0	0
090412	15:17:14	10017	Trial3BackEng	NN	4	0	1000	1	119	15:17:14	1538765	0	0	0	0	0	0	0	0	0	0	0	0	0	0	0	0	0
090412	15:17:14	10017	Trial3BackEng	NN	4	0	1000	1	119	15:17:14	1540285	0	0	0	0	0	0	0	0	0	0	0	0	0	0	0	0	0
090412	15:17:14	10017	Trial3BackEng	NN	4	0	1000	1	119	15:17:14	1541804	0	0	0	0	0	0	0	0	0	0	0	0	0	0	0	0	0
090412	15:17:14	10017	Trial3BackEng	NN	4	0	1000	1	119	15:17:14	1543324	0	0	0	0	0	0	0	0	0	0	0	0	0	0	0	0	0
090412	15:17:14	10017	Trial3BackEng	NN	4	0	1000	1	119	15:17:14	1544843	0	0	0	0	0	0	0	0	0	0	0	0	0	0	0	0	0
090412	15:17:14	10017	Trial3BackEng	YY	4	57	577	1	119	15:17:14	1545976	0	0	0	0	0	0	0	0	0	0	0	0	0	0	0	0	0
090412	15:17:14	10017	Trial3BackEng	NN	4	0	1000	1	119	15:17:14	1547895	0	0	0	0	0	0	0	0	0	0	0	0	0	0	0	0	0
090412	15:17:14	10017	Trial3BackEng	NN	4	0	1000	1	119	15:17:14	1549415	0	0	0	0	0	0	0	0	0	0	0	0	0	0	0	0	0
090412	15:17:14	10017	Trial3BackEng	NN	4	0	1000	1	119	15:17:14	1550934	0	0	0	0	0	0	0	0	0	0	0	0	0	0	0	0	0
090412	15:17:14	10017	Trial3BackEng	NN	4	0	1000	1	119	15:17:14	1552453	0	0	0	0	0	0	0	0	0	0	0	0	0	0	0	0	0
090412	15:17:14	10017	Trial3BackEng	NN	4	0	1000	1	119	15:17:14	1553973	0	0	0	0	0	0	0	0	0	0	0	0	0	0	0	0	0
090412	15:17:14	10017	Trial3BackEng	YY	4	0	1000	0	119	15:17:14	1555492	0	0	0	0	0	0	0	0	0	0	0	0	0	0	0	0	0
090412	15:17:14	10017	Trial3BackEng	NN	4	0	1000	1	119	15:17:14	1557011	0	0	0	0	0	0	0	0	0	0	0	0	0	0	0	0	0
090412	15:17:14	10017	Trial3BackEng	NN	4	0	1000	1	119	15:17:14	1558531	0	0	0	0	0	0	0	0	0	0	0	0	0	0	0	0	0
090412	15:17:14	10017	Trial3BackEng	NN	4	0	1000	1	119	15:17:14	1560050	0	0	0	0	0	0	0	0	0	0	0	0	0	0	0	0	0
090412	15:17:14	10017	Trial3BackEng	YY	4	57	589	1	119	15:17:14	1561170	0	0	0	0	0	0	0	0	0	0	0	0	0	0	0	0	0
090412	15:17:14	10017	Trial3BackEng	NN	4	0	1000	1	119	15:17:14	1563075	0	0	0	0	0	0	0	0	0	0	0	0	0	0	0	0	0
090412	15:17:14	10017	Trial3BackEng	NN	4	0	1000	1	119	15:17:14	1564595	0	0	0	0	0	0	0	0	0	0	0	0	0	0	0	0	0
090412	15:17:14	10017	Trial3BackEng	NN	4	0	1000	1	119	15:17:14	1566114	0	0	0	0	0	0	0	0	0	0	0	0	0	0	0	0	0
090412	15:17:14	10017	Trial3BackEng	YY	4	0	1000	0	119	15:17:14	1567634	0	0	0	0	0	0	0	0	0	0	0	0	0	0	0	0	0
090412	15:17:14	10017	Trial3BackEng	NN	4	0	1000	1	119	15:17:14	1569153	0	0	0	0	0	0	0	0	0	0	0	0	0	0	0	0	0
090412	15:17:14	10017	Trial3BackEng	NN	4	0	1000	1	119	15:17:14	1570672	0	0	0	0	0	0	0	0	0	0	0	0	0	0	0	0	0
090412	15:17:14	10017	Trial3BackEng	NN	4	0	1000	1	119	15:17:14	1572192	0	0	0	0	0	0	0	0	0	0	0	0	0	0	0	0	0
090412	15:17:14	10017	Trial3BackEng	NN	4	57	799	0	119	15:17:14	1573525	0	0	0	0	0	0	0	0	0	0	0	0	0	0	0	0	0
090412	15:17:14	10017	Trial3BackEng	NN	4	0	1000	1	119	15:17:14	1575217	0	0	0	0	0	0	0	0	0	0	0	0	0	0	0	0	0
090412	15:17:14	10017	Trial3BackEng	NN	4	0	1000	1	119	15:17:14	1576737	0	0	0	0	0	0	0	0	0	0	0	0	0	0	0	0	0
090412	15:17:14	10017	Trial3BackEng	NN	4	0	1000	1	119	15:17:14	1578269	0	0	0	0	0	0	0	0	0	0	0	0	0	0	0	0	0
090412	15:17:14	10017	Trial3BackEng	NN	4	0	1000	1	119	15:17:14	1579789	0	0	0	0	0	0	0	0	0	0	0	0	0	0	0	0	0
090412	15:17:14	10017	Trial3BackEng	NN	4	0	1000	1	119	15:17:14	1581308	0	0	0	0	0	0	0	0	0	0	0	0	0	0	0	0	0
090412	15:17:14	10017	Trial3BackEng	NN	4	0	1000	1	119	15:17:14	1582827	0	0	0	0	0	0	0	0	0	0	0	0	0	0	0	0	0
090412	15:17:14	10017	Trial3BackEng	YY	4	0	1000	0	119	15:17:14	1584347	0	0	0	0	0	0	0	0	0	0	0	0	0	0	0	0	0
090412	15:17:14	10017	Trial3BackEng	NN	4	0	1000	1	119	15:17:14	1585867	0	0	0	0	0	0	0	0	0	0	0	0	0	0	0	0	0
090412	15:17:14	10017	Trial3BackEng	NN	4	0	1000	1	119	15:17:14	1587386	0	0	0	0	0	0	0	0	0	0	0	0	0	0	0	0	0
090412	15:17:14	10017	Trial3BackEng	NN	4	0	1000	1	119	15:17:14	1588905	0	0	0	0	0	0	0	0	0	0	0	0	0	0	0	0	0
090412	15:17:14	10017	Trial3BackEng	NN	4	0	1000	1	119	15:17:14	1590424	0	0	0	0	0	0	0	0	0	0	0	0	0	0	0	0	0
090412	15:17:14	10017	Trial3BackEng	YY	4	57	582	1	119	15:17:14	1591531	0	0	0	0	0	0	0	0	0	0	0	0	0	0	0	0	0
090412	15:17:14	10017	Trial3BackEng	NN	4	0	1000	1	119	15:17:14	1593450	0	0	0	0	0	0	0	0	0	0	0	0	0	0	0	0	0
090412	15:17:14	10017	Trial3BackEng	NN	4	0	1000	1	119	15:17:14	1594969	0	0	0	0	0	0	0	0	0	0	0	0	0	0	0	0	0
090412	15:17:14	10017	Trial3BackEng	NN	4	0	1000	1	119	15:17:14	1596489	0	0	0	0	0	0	0	0	0	0	0	0	0	0	0	0	0
090412	15:17:14	10017	Trial3BackEng	NN	4	0	1000	1	119	15:17:14	1598008	0	0	0	0	0	0	0	0	0	0	0	0	0	0	0	0	0
090412	15:17:14	10017	Trial3BackEng	NN	4	0	1000	1	119	15:17:14	1599528	0	0	0	0	0	0	0	0	0	0	0	0	0	0	0	0	0
090412	15:17:14	10017	Trial3BackEng	YY	4	57	759	1	119	15:17:14	1600821	0	0	0	0	0	0	0	0	0	0	0	0	0	0	0	0	0
090412	15:17:14	10017	Trial3BackEng	NN	4	0	1000	1	119	15:17:14	1602553	0	0	0	0	0	0	0	0	0	0	0	0	0	0	0	0	0
090412	15:17:14	10017	Trial3BackEng	NN	4	0	1000	1	119	15:17:14	1604072	0	0	0	0	0	0	0	0	0	0	0	0	0	0	0	0	0
090412	15:17:14	10017	Trial3BackEng	NN	4	0	1000	1	119	15:17:14	1605592	0	0	0	0	0	0	0	0	0	0	0	0	0	0	0	0	0
090412	15:17:14	10017	Trial3BackEng	NN	4	0	1000	1	119	15:17:14	1607111	0	0	0	0	0	0	0	0	0	0	0	0	0	0	0	0	0
090412	15:17:14	10017	Trial3BackEng	NN	4	0	1000	1	119	15:17:14	1608631	0	0	0	0	0	0	0	0	0	0	0	0	0	0	0	0	0
090412	15:17:14	10017	Trial3BackEng	NN	4	0	1000	1	119	15:17:14	1610150	0	0	0	0	0	0	0	0	0	0	0	0	0	0	0	0	0
090412	15:17:14	10017	Trial3BackEng	YY	4	57	712	1	119	15:17:14	1611389	0	0	0	0	0	0	0	0	0	0	0	0	0	0	0	0	0
090412	15:17:14	10017	Trial3BackEng	NN	4	0	1000	1	119	15:17:14	1613175	0	0	0	0	0	0	0	0	0	0	0	0	0	0	0	0	0
090412	15:17:14	10017	Trial3BackEng	NN	4	0	1000	1	119	15:17:14	1614695	0	0	0	0	0	0	0	0	0	0	0	0	0	0	0	0	0
090412	15:17:14	10017	Trial3BackEng	NN	4	0	1000	1	119	15:17:14	1616214	0	0	0	0	0	0	0	0	0	0	0	0	0	0	0	0	0
090412	15:17:14	10017	Trial3BackEng	YY	4	0	1000	0	119	15:17:14	1617734	0	0	0	0	0	0	0	0	0	0	0	0	0	0	0	0	0
090412	15:17:14	10017	Trial3BackEng	NN	4	0	1000	1	119	15:17:14	1619253	0	0	0	0	0	0	0	0	0	0	0	0	0	0	0	0	0
090412	15:17:14	10017	Trial3BackEng	NN	4	57	601	0	119	15:17:14	1620388	0	0	0	0	0	0	0	0	0	0	0	0	0	0	0	0	0
090412	15:17:14	10017	Trial3BackEng	NN	4	0	1000	1	119	15:17:14	1622278	0	0	0	0	0	0	0	0	0	0	0	0	0	0	0	0	0
090412	15:17:14	10017	Trial3BackEng	NN	4	0	1000	1	119	15:17:14	1623798	0	0	0	0	0	0	0	0	0	0	0	0	0	0	0	0	0
090412	15:17:14	10017	Trial3BackEng	NN	4	0	1000	1	119	15:17:14	1625317	0	0	0	0	0	0	0	0	0	0	0	0	0	0	0	0	0
090412	15:17:14	10017	Trial3BackEng	NN	4	0	1000	1	119	15:17:14	1626836	0	0	0	0	0	0	0	0	0	0	0	0	0	0	0	0	0
090412	15:17:14	10017	Trial3BackEng	NN	4	0	1000	1	119	15:17:14	1628356	0	0	0	0	0	0	0	0	0	0	0	0	0	0	0	0	0
090412	15:17:14	10017	Trial3BackEng	NN	4	0	1000	1	119	15:17:14	1629875	0	0	0	0	0	0	0	0	0	0	0	0	0	0	0	0	0
090412	15:17:14	10017	Trial3BackEng	NN	4	0	1000	1	119	15:17:14	1631395	0	0	0	0	0	0	0	0	0	0	0	0	0	0	0	0	0
090412	15:17:14	10017	Trial3BackEng	YY	4	57	443	1	119	15:17:14	1632368	0	0	0	0	0	0	0	0	0	0	0	0	0	0	0	0	0
090412	15:17:14	10017	Trial3BackEng	NN	4	0	1000	1	119	15:17:14	1634420	0	0	0	0	0	0	0	0	0	0	0	0	0	0	0	0	0
090412	15:17:14	10017	Trial3BackEng	NN	4	0	1000	1	119	15:17:14	1635939	0	0	0	0	0	0	0	0	0	0	0	0	0	0	0	0	0
090412	15:17:14	10017	Trial3BackEng	NN	4	0	1000	1	119	15:17:14	1637459	0	0	0	0	0	0	0	0	0	0	0	0	0	0	0	0	0
090412	15:17:14	10017	Trial3BackEng	YY	4	0	1000	0	119	15:17:14	1638978	0	0	0	0	0	0	0	0	0	0	0	0	0	0	0	0	0
090412	15:17:14	10017	Trial3BackEng	NN	4	0	1000	1	119	15:17:14	1640498	0	0	0	0	0	0	0	0	0	0	0	0	0	0	0	0	0
090412	15:17:14	10017	Trial3BackEng	NN	4	0	1000	1	119	15:17:14	1642017	0	0	0	0	0	0	0	0	0	0	0	0	0	0	0	0	0
090412	15:17:14	10017	Trial3BackEng	NN	4	0	1000	1	119	15:17:14	1643536	0	0	0	0	0	0	0	0	0	0	0	0	0	0	0	0	0
090412	15:17:14	10017	Trial3BackEng	NN	4	0	1000	1	119	15:17:14	1645056	0	0	0	0	0	0	0	0	0	0	0	0	0	0	0	0	0
090412	15:17:14	10017	Trial3BackEng	NN	4	0	1000	1	119	15:17:14	1646575	0	0	0	0	0	0	0	0	0	0	0	0	0	0	0	0	0
090412	15:17:14	10017	Trial3BackEng	YY	4	0	1000	0	119	15:17:14	1648095	0	0	0	0	0	0	0	0	0	0	0	0	0	0	0	0	0
090412	15:17:14	10017	Trial3BackEng	NN	4	0	1000	1	119	15:17:14	1649614	0	0	0	0	0	0	0	0	0	0	0	0	0	0	0	0	0
090412	15:17:14	10017	Trial3BackEng	NN	4	0	1000	1	119	15:17:14	1651133	0	0	0	0	0	0	0	0	0	0	0	0	0	0	0	0	0
090412	15:17:14	10017	Trial3BackEng	NN	4	0	1000	1	119	15:17:14	1652653	0	0	0	0	0	0	0	0	0	0	0	0	0	0	0	0	0
090412	15:17:14	10017	Trial3BackEng	NN	4	0	1000	1	119	15:17:14	1654172	0	0	0	0	0	0	0	0	0	0	0	0	0	0	0	0	0
090412	15:17:14	10017	Trial3BackEng	NN	4	0	1000	1	119	15:17:14	1655692	0	0	0	0	0	0	0	0	0	0	0	0	0	0	0	0	0
090412	15:17:14	10017	Trial3BackEng	NN	4	0	1000	1	119	15:17:14	1657211	0	0	0	0	0	0	0	0	0	0	0	0	0	0	0	0	0
090412	15:17:14	10017	Trial3BackEng	NN	4	0	1000	1	119	15:17:14	1658730	0	0	0	0	0	0	0	0	0	0	0	0	0	0	0	0	0
090412	15:17:14	10017	Trial3BackEng	NN	4	0	1000	1	119	15:17:14	1660263	0	0	0	0	0	0	0	0	0	0	0	0	0	0	0	0	0
090412	15:17:14	10017	Trial3BackEng	NN	4	0	1000	1	119	15:17:14	1661782	0	0	0	0	0	0	0	0	0	0	0	0	0	0	0	0	0
090412	15:17:14	10017	Trial3BackEng	YY	4	57	727	1	119	15:17:14	1663035	0	0	0	0	0	0	0	0	0	0	0	0	0	0	0	0	0
090412	15:17:14	10017	Trial3BackEng	NN	4	0	1000	1	119	15:17:14	1664808	0	0	0	0	0	0	0	0	0	0	0	0	0	0	0	0	0
090412	15:17:14	10017	Trial3BackEng	NN	4	0	1000	1	119	15:17:14	1666327	0	0	0	0	0	0	0	0	0	0	0	0	0	0	0	0	0
090412	15:17:14	10017	Trial3BackEng	NN	4	0	1000	1	119	15:17:14	1667847	0	0	0	0	0	0	0	0	0	0	0	0	0	0	0	0	0
090412	15:17:14	10017	Trial3BackEng	NN	4	0	1000	1	119	15:17:14	1669366	0	0	0	0	0	0	0	0	0	0	0	0	0	0	0	0	0
090412	15:17:14	10017	Trial3BackEng	NN	4	0	1000	1	119	15:17:14	1670885	0	0	0	0	0	0	0	0	0	0	0	0	0	0	0	0	0
090412	15:17:14	10017	Trial3BackEng	NN	4	0	1000	1	119	15:17:14	1672405	0	0	0	0	0	0	0	0	0	0	0	0	0	0	0	0	0
090412	15:17:14	10017	Trial3BackEng	NN	4	0	1000	1	119	15:17:14	1673924	0	0	0	0	0	0	0	0	0	0	0	0	0	0	0	0	0
090412	15:17:14	10017	Trial3BackEng	NN	4	0	1000	1	119	15:17:14	1675443	0	0	0	0	0	0	0	0	0	0	0	0	0	0	0	0	0
090412	15:17:14	10017	Trial3BackEng	YY	4	0	1000	0	119	15:17:14	1676963	0	0	0	0	0	0	0	0	0	0	0	0	0	0	0	0	0
090412	15:17:14	10017	Trial3BackEng	NN	4	0	1000	1	119	15:17:14	1678482	0	0	0	0	0	0	0	0	0	0	0	0	0	0	0	0	0
090412	15:17:14	10017	Trial3BackEng	NN	4	0	1000	1	119	15:17:14	1680002	0	0	0	0	0	0	0	0	0	0	0	0	0	0	0	0	0
090412	15:17:14	10017	Trial3BackEng	NN	4	0	1000	1	119	15:17:14	1681521	0	0	0	0	0	0	0	0	0	0	0	0	0	0	0	0	0
090412	15:17:14	10017	Trial3BackEng	NN	4	0	1000	1	119	15:17:14	1683040	0	0	0	0	0	0	0	0	0	0	0	0	0	0	0	0	0
090412	15:17:14	10017	Trial3BackEng	YY	4	57	540	1	119	15:17:14	1684106	0	0	0	0	0	0	0	0	0	0	0	0	0	0	0	0	0
090412	15:17:14	10017	Trial3BackEng	NN	4	0	1000	1	119	15:17:14	1686066	0	0	0	0	0	0	0	0	0	0	0	0	0	0	0	0	0
090412	15:17:14	10017	Trial3BackEng	NN	4	0	1000	1	119	15:17:14	1687585	0	0	0	0	0	0	0	0	0	0	0	0	0	0	0	0	0
090412	15:17:14	10017	Trial3BackEng	NN	4	0	1000	1	119	15:17:14	1689105	0	0	0	0	0	0	0	0	0	0	0	0	0	0	0	0	0
090412	15:17:14	10017	Trial3BackEng	YY	4	0	1000	0	119	15:17:14	1690624	0	0	0	0	0	0	0	0	0	0	0	0	0	0	0	0	0
090412	15:17:14	10017	Trial3BackEng	NN	4	0	1000	1	119	15:17:14	1692143	0	0	0	0	0	0	0	0	0	0	0	0	0	0	0	0	0
090412	15:17:14	10017	Trial3BackEng	NN	4	0	1000	1	119	15:17:14	1693663	0	0	0	0	0	0	0	0	0	0	0	0	0	0	0	0	0
090412	15:17:14	10017	Trial3BackEng	NN	4	0	1000	1	119	15:17:14	1695182	0	0	0	0	0	0	0	0	0	0	0	0	0	0	0	0	0
090412	15:17:14	10017	Trial3BackEng	NN	4	0	1000	1	119	15:17:14	1696702	0	0	0	0	0	0	0	0	0	0	0	0	0	0	0	0	0
090412	15:17:14	10017	Trial3BackEng	NN	4	0	1000	1	119	15:17:14	1698221	0	0	0	0	0	0	0	0	0	0	0	0	0	0	0	0	0
090412	15:17:14	10017	Trial3BackEng	YY	4	0	1000	0	119	15:17:14	1699740	0	0	0	0	0	0	0	0	0	0	0	0	0	0	0	0	0
090412	15:17:14	10017	Trial3BackEng	NN	4	0	1000	1	119	15:17:14	1701260	0	0	0	0	0	0	0	0	0	0	0	0	0	0	0	0	0
090412	15:17:14	10017	Trial3BackEng	NN	4	0	1000	1	119	15:17:14	1702779	0	0	0	0	0	0	0	0	0	0	0	0	0	0	0	0	0
090412	15:17:14	10017	Trial3BackEng	NN	4	0	1000	1	119	15:17:14	1704299	0	0	0	0	0	0	0	0	0	0	0	0	0	0	0	0	0
090412	15:17:14	10017	Trial3BackEng	YY	4	0	1000	0	119	15:17:14	1705818	0	0	0	0	0	0	0	0	0	0	0	0	0	0	0	0	0
090412	15:17:14	10017	Memory1R3mo	Score	5	M1	16858	0	119	15:17:14	1773550	0	0	0	0	0	0	0	0	0	0	0	0	0	0	0	0	0
090412	15:17:14	10017	Memory1R3mo	Score	5	M2	246	0	119	15:17:14	1773844	0	0	0	0	0	0	0	0	0	0	0	0	0	0	0	0	0
090412	15:17:14	10017	Memory1R3mo	Score	5	M4	1953	0	119	15:17:14	1775843	0	0	0	0	0	0	0	0	0	0	0	0	0	0	0	0	0
090412	15:17:14	10017	Memory1R3mo	Score	5	M6	1394	0	119	15:17:14	1777282	0	0	0	0	0	0	0	0	0	0	0	0	0	0	0	0	0
090412	15:17:14	10017	Memory1R3mo	Score	5	M8	154	0	119	15:17:14	1777482	0	0	0	0	0	0	0	0	0	0	0	0	0	0	0	0	0
090412	15:17:14	10017	Memory1R3mo	Score	5	M8	539	0	119	15:17:14	1778056	0	0	0	0	0	0	0	0	0	0	0	0	0	0	0	0	0
090412	15:17:14	10017	Memory1R3mo	Score	5	M7	269	0	119	15:17:14	1778362	0	0	0	0	0	0	0	0	0	0	0	0	0	0	0	0	0
090412	15:17:14	10017	Memory1R3mo	Score	5	Done	875	0	119	15:17:14	1779282	0	0	0	0	0	0	0	0	0	0	0	0	0	0	0	0	0
090412	15:17:14	10017	Memory2R3mo	Score2	5	11	9373	0	119	15:17:14	1807817	0	0	0	0	0	0	0	0	0	0	0	0	0	0	0	0	0
090412	15:17:14	10017	Memory2R3mo	Score2	5	22	276	0	119	15:17:14	1808137	0	0	0	0	0	0	0	0	0	0	0	0	0	0	0	0	0
090412	15:17:14	10017	Memory2R3mo	Score2	5	33	267	0	119	15:17:14	1808443	0	0	0	0	0	0	0	0	0	0	0	0	0	0	0	0	0
090412	15:17:14	10017	Memory2R3mo	Score2	5	44	297	0	119	15:17:14	1808776	0	0	0	0	0	0	0	0	0	0	0	0	0	0	0	0	0
090412	15:17:14	10017	Memory2R3mo	Score2	5	55	291	0	119	15:17:14	1809110	0	0	0	0	0	0	0	0	0	0	0	0	0	0	0	0	0
090412	15:17:14	10017	Memory2R3mo	Score2	5	66	719	0	119	15:17:14	1809869	0	0	0	0	0	0	0	0	0	0	0	0	0	0	0	0	0
090412	15:17:14	10017	Memory2R3mo	Score2	5	77	223	0	119	15:17:14	1810136	0	0	0	0	0	0	0	0	0	0	0	0	0	0	0	0	0
090412	15:17:14	10017	Memory2R3mo	Score2	5	88	253	0	119	15:17:14	1810429	0	0	0	0	0	0	0	0	0	0	0	0	0	0	0	0	0
090412	15:17:14	10017	Memory2R3mo	Score2	5	Done	583	0	119	15:17:14	1811056	0	0	0	0	0	0	0	0	0	0	0	0	0	0	0	0	0
090412	15:17:14	10017	Memory3R3mo	Score3	5	111	33236	0	119	15:17:14	1866726	0	0	0	0	0	0	0	0	0	0	0	0	0	0	0	0	0
090412	15:17:14	10017	Memory3R3mo	Score3	5	222	277	0	119	15:17:14	1867046	0	0	0	0	0	0	0	0	0	0	0	0	0	0	0	0	0
090412	15:17:14	10017	Memory3R3mo	Score3	5	333	268	0	119	15:17:14	1867353	0	0	0	0	0	0	0	0	0	0	0	0	0	0	0	0	0
090412	15:17:14	10017	Memory3R3mo	Score3	5	444	697	0	119	15:17:14	1868086	0	0	0	0	0	0	0	0	0	0	0	0	0	0	0	0	0
090412	15:17:14	10017	Memory3R3mo	Score3	5	555	229	0	119	15:17:14	1868352	0	0	0	0	0	0	0	0	0	0	0	0	0	0	0	0	0
090412	15:17:14	10017	Memory3R3mo	Score3	5	666	1147	0	119	15:17:14	1869538	0	0	0	0	0	0	0	0	0	0	0	0	0	0	0	0	0
090412	15:17:14	10017	Memory3R3mo	Score3	5	777	368	0	119	15:17:14	1869952	0	0	0	0	0	0	0	0	0	0	0	0	0	0	0	0	0
090412	15:17:14	10017	Memory3R3mo	Score3	5	888	563	0	119	15:17:14	1870551	0	0	0	0	0	0	0	0	0	0	0	0	0	0	0	0	0
090412	15:17:14	10017	Memory3R3mo	Score3	5	Done	803	0	119	15:17:14	1871391	0	0	0	0	0	0	0	0	0	0	0	0	0	0	0	0	0
090412	15:17:14	10017	LoriaEngLH3	Stop	6	6	4863	0	119	15:17:14	1950147	0	0	0	0	0	0	0	0	0	0	0	0	0	0	0	0	0
090412	15:17:14	10017	EngTrail	Trails	7	1Trails	776	0	119	15:17:14	1974909	0	0	0	0	0	0	0	0	0	0	0	0	0	0	0	0	0
090412	15:17:14	10017	Serial7Eng3mo	Serial7Eng3mo	8	83	47881	0	119	15:17:14	2034864	1	0	0	0	0	0	0	0	0	0	0	0	0	0	0	0	0
090412	15:17:14	10017	Serial7Eng3mo	Serial7Eng3mo	8	76	2769	0	119	15:17:14	2037650	2	0	0	0	0	0	0	0	0	0	0	0	0	0	0	0	0
090412	15:17:14	10017	Serial7Eng3mo	Serial7Eng3mo	8	63	2528	0	119	15:17:14	2040196	2	0	0	0	0	0	0	0	0	0	0	0	0	0	0	0	0
090412	15:17:14	10017	Serial7Eng3mo	Serial7Eng3mo	8	56	2165	0	119	15:17:14	2042382	3	0	0	0	0	0	0	0	0	0	0	0	0	0	0	0	0
090412	15:17:14	10017	Serial7Eng3mo	Serial7Eng3mo	8	49	4572	0	119	15:17:14	2046980	4	0	0	0	0	0	0	0	0	0	0	0	0	0	0	0	0
090412	15:17:14	10017	corsiblockEngFwrd	recallseqEngFwrd	9	2	2716	0	119	15:17:14	2079967	4	0	0	0	0	0	0	0	0	0	0	0	0	0	0	0	0
090412	15:17:14	10017	corsiblockEngFwrd	recallseqEngFwrd	9	3	1077	0	119	15:17:14	2081086	4	0	0	0	0	0	0	0	0	0	0	0	0	0	0	0	0
090412	15:17:14	10017	corsiblockEngFwrd	recallseqEngFwrd	9	doneCorsiEng	7318	0	119	15:17:14	2088443	4	0	0	0	0	0	0	0	0	0	0	0	0	0	0	2	0
090412	15:17:14	10017	corsiblockEngFwrd	recallseqEngFwrd	9	1	1782	0	119	15:17:14	2096320	4	0	0	0	0	0	0	0	0	0	0	0	0	0	0	2	0
090412	15:17:14	10017	corsiblockEngFwrd	recallseqEngFwrd	9	5	1244	0	119	15:17:14	2097600	4	0	0	0	0	0	0	0	0	0	0	0	0	0	0	2	0
090412	15:17:14	10017	corsiblockEngFwrd	recallseqEngFwrd	9	6	668	0	119	15:17:14	2098306	4	0	0	0	0	0	0	0	0	0	0	0	0	0	0	2	0
090412	15:17:14	10017	corsiblockEngFwrd	recallseqEngFwrd	9	doneCorsiEng	1217	0	119	15:17:14	2099559	4	0	0	0	0	0	0	0	0	0	0	0	0	0	0	3	0
090412	15:17:14	10017	corsiblockEngFwrd	recallseqEngFwrd	9	4	1546	0	119	15:17:14	2108196	4	0	0	0	0	0	0	0	0	0	0	0	0	0	0	3	0
090412	15:17:14	10017	corsiblockEngFwrd	recallseqEngFwrd	9	7	848	0	119	15:17:14	2109088	4	0	0	0	0	0	0	0	0	0	0	0	0	0	0	3	0
090412	15:17:14	10017	corsiblockEngFwrd	recallseqEngFwrd	9	9	963	0	119	15:17:14	2110088	4	0	0	0	0	0	0	0	0	0	0	0	0	0	0	3	0
090412	15:17:14	10017	corsiblockEngFwrd	recallseqEngFwrd	9	8	915	0	119	15:17:14	2111048	4	0	0	0	0	0	0	0	0	0	0	0	0	0	0	3	0
090412	15:17:14	10017	corsiblockEngFwrd	recallseqEngFwrd	9	doneCorsiEng	980	0	119	15:17:14	2112074	4	0	0	0	0	0	0	0	0	0	0	0	0	0	0	4	0
090412	15:17:14	10017	corsiblockEngFwrd	recallseqEngFwrd	9	5	944	0	119	15:17:14	2121110	4	0	0	0	0	0	0	0	0	0	0	0	0	0	0	4	0
090412	15:17:14	10017	corsiblockEngFwrd	recallseqEngFwrd	9	7	981	0	119	15:17:14	2122137	4	0	0	0	0	0	0	0	0	0	0	0	0	0	0	4	0
090412	15:17:14	10017	corsiblockEngFwrd	recallseqEngFwrd	9	6	891	0	119	15:17:14	2123069	4	0	0	0	0	0	0	0	0	0	0	0	0	0	0	4	0
090412	15:17:14	10017	corsiblockEngFwrd	recallseqEngFwrd	9	9	846	0	119	15:17:14	2123962	4	0	0	0	0	0	0	0	0	0	0	0	0	0	0	4	0
090412	15:17:14	10017	corsiblockEngFwrd	recallseqEngFwrd	9	1	857	0	119	15:17:14	2124855	4	0	0	0	0	0	0	0	0	0	0	0	0	0	0	4	0
090412	15:17:14	10017	corsiblockEngFwrd	recallseqEngFwrd	9	doneCorsiEng	1060	0	119	15:17:14	2125962	4	0	0	0	0	0	0	0	0	0	0	0	0	0	0	5	0
090412	15:17:14	10017	corsiblockEngFwrd	recallseqEngFwrd	9	2	1504	0	119	15:17:14	2136557	4	0	0	0	0	0	0	0	0	0	0	0	0	0	0	5	0
090412	15:17:14	10017	corsiblockEngFwrd	recallseqEngFwrd	9	4	654	0	119	15:17:14	2137250	4	0	0	0	0	0	0	0	0	0	0	0	0	0	0	5	0
090412	15:17:14	10017	corsiblockEngFwrd	recallseqEngFwrd	9	3	873	0	119	15:17:14	2138170	4	0	0	0	0	0	0	0	0	0	0	0	0	0	0	5	0
090412	15:17:14	10017	corsiblockEngFwrd	recallseqEngFwrd	9	8	865	0	119	15:17:14	2139076	4	0	0	0	0	0	0	0	0	0	0	0	0	0	0	5	0
090412	15:17:14	10017	corsiblockEngFwrd	recallseqEngFwrd	9	3	823	0	119	15:17:14	2139943	4	0	0	0	0	0	0	0	0	0	0	0	0	0	0	5	0
090412	15:17:14	10017	corsiblockEngFwrd	recallseqEngFwrd	9	doneCorsiEng	1012	0	119	15:17:14	2140995	4	0	0	0	0	0	0	0	0	0	0	0	0	0	0	5	0
090412	15:17:14	10017	corsiblockEngFwrd	recallseqEngFwrd	9	5	733	0	119	15:17:14	2150778	4	0	0	0	0	0	0	0	0	0	0	0	0	0	0	5	0
090412	15:17:14	10017	corsiblockEngFwrd	recallseqEngFwrd	9	4	816	0	119	15:17:14	2151631	4	0	0	0	0	0	0	0	0	0	0	0	0	0	0	5	0
090412	15:17:14	10017	corsiblockEngFwrd	recallseqEngFwrd	9	2	731	0	119	15:17:14	2152404	4	0	0	0	0	0	0	0	0	0	0	0	0	0	0	5	0
090412	15:17:14	10017	corsiblockEngFwrd	recallseqEngFwrd	9	9	670	0	119	15:17:14	2153111	4	0	0	0	0	0	0	0	0	0	0	0	0	0	0	5	0
090412	15:17:14	10017	corsiblockEngFwrd	recallseqEngFwrd	9	1	1355	0	119	15:17:14	2154510	4	0	0	0	0	0	0	0	0	0	0	0	0	0	0	5	0
090412	15:17:14	10017	corsiblockEngFwrd	recallseqEngFwrd	9	7	1973	0	119	15:17:14	2156523	4	0	0	0	0	0	0	0	0	0	0	0	0	0	0	5	0
090412	15:17:14	10017	corsiblockEngFwrd	recallseqEngFwrd	9	doneCorsiEng	1032	0	119	15:17:14	2157589	4	0	0	0	0	0	0	0	0	0	0	0	0	0	0	5	0
090412	15:17:14	10017	corsiblockEngRev	recallseqEngRev	10	5	1418	0	119	15:17:14	2170317	4	0	0	0	0	0	0	0	0	0	0	0	0	0	0	5	0
090412	15:17:14	10017	corsiblockEngRev	recallseqEngRev	10	2	789	0	119	15:17:14	2171143	4	0	0	0	0	0	0	0	0	0	0	0	0	0	0	5	0
090412	15:17:14	10017	corsiblockEngRev	recallseqEngRev	10	doneCorsiEng	1051	0	119	15:17:14	2172236	4	0	0	0	0	0	0	0	0	0	0	0	0	0	0	5	2
090412	15:17:14	10017	corsiblockEngRev	recallseqEngRev	10	3	1275	0	119	15:17:14	2179607	4	0	0	0	0	0	0	0	0	0	0	0	0	0	0	5	2
090412	15:17:14	10017	corsiblockEngRev	recallseqEngRev	10	6	707	0	119	15:17:14	2180353	4	0	0	0	0	0	0	0	0	0	0	0	0	0	0	5	2
090412	15:17:14	10017	corsiblockEngRev	recallseqEngRev	10	7	753	0	119	15:17:14	2181139	4	0	0	0	0	0	0	0	0	0	0	0	0	0	0	5	2
090412	15:17:14	10017	corsiblockEngRev	recallseqEngRev	10	doneCorsiEng	854	0	119	15:17:14	2182032	4	0	0	0	0	0	0	0	0	0	0	0	0	0	0	5	3
090412	15:17:14	10017	corsiblockEngRev	recallseqEngRev	10	8	1239	0	119	15:17:14	2190362	4	0	0	0	0	0	0	0	0	0	0	0	0	0	0	5	3
090412	15:17:14	10017	corsiblockEngRev	recallseqEngRev	10	4	711	0	119	15:17:14	2191109	4	0	0	0	0	0	0	0	0	0	0	0	0	0	0	5	3
090412	15:17:14	10017	corsiblockEngRev	recallseqEngRev	10	9	893	0	119	15:17:14	2192042	4	0	0	0	0	0	0	0	0	0	0	0	0	0	0	5	3
090412	15:17:14	10017	corsiblockEngRev	recallseqEngRev	10	1	1176	0	119	15:17:14	2193254	4	0	0	0	0	0	0	0	0	0	0	0	0	0	0	5	3
090412	15:17:14	10017	corsiblockEngRev	recallseqEngRev	10	doneCorsiEng	1363	0	119	15:17:14	2194654	4	0	0	0	0	0	0	0	0	0	0	0	0	0	0	5	4
090412	15:17:14	10017	corsiblockEngRev	recallseqEngRev	10	6	1233	0	119	15:17:14	2203983	4	0	0	0	0	0	0	0	0	0	0	0	0	0	0	5	4
090412	15:17:14	10017	corsiblockEngRev	recallseqEngRev	10	2	882	0	119	15:17:14	2204903	4	0	0	0	0	0	0	0	0	0	0	0	0	0	0	5	4
090412	15:17:14	10017	corsiblockEngRev	recallseqEngRev	10	9	746	0	119	15:17:14	2205689	4	0	0	0	0	0	0	0	0	0	0	0	0	0	0	5	4
090412	15:17:14	10017	corsiblockEngRev	recallseqEngRev	10	7	704	0	119	15:17:14	2206436	4	0	0	0	0	0	0	0	0	0	0	0	0	0	0	5	4
090412	15:17:14	10017	corsiblockEngRev	recallseqEngRev	10	5	934	0	119	15:17:14	2207409	4	0	0	0	0	0	0	0	0	0	0	0	0	0	0	5	4
090412	15:17:14	10017	corsiblockEngRev	recallseqEngRev	10	doneCorsiEng	825	0	119	15:17:14	2208275	4	0	0	0	0	0	0	0	0	0	0	0	0	0	0	5	5
090412	15:17:14	10017	corsiblockEngRev	recallseqEngRev	10	6	3956	0	119	15:17:14	2221323	4	0	0	0	0	0	0	0	0	0	0	0	0	0	0	5	5
090412	15:17:14	10017	corsiblockEngRev	recallseqEngRev	10	2	1198	0	119	15:17:14	2222563	4	0	0	0	0	0	0	0	0	0	0	0	0	0	0	5	5
090412	15:17:14	10017	corsiblockEngRev	recallseqEngRev	10	8	3103	0	119	15:17:14	2225708	4	0	0	0	0	0	0	0	0	0	0	0	0	0	0	5	5
090412	15:17:14	10017	corsiblockEngRev	recallseqEngRev	10	3	693	0	119	15:17:14	2226441	4	0	0	0	0	0	0	0	0	0	0	0	0	0	0	5	5
090412	15:17:14	10017	corsiblockEngRev	recallseqEngRev	10	1	600	0	119	15:17:14	2227081	4	0	0	0	0	0	0	0	0	0	0	0	0	0	0	5	5
090412	15:17:14	10017	corsiblockEngRev	recallseqEngRev	10	doneCorsiEng	1208	0	119	15:17:14	2228334	4	0	0	0	0	0	0	0	0	0	0	0	0	0	0	5	5
090412	15:17:14	10017	corsiblockEngRev	recallseqEngRev	10	1	2097	0	119	15:17:14	2239476	4	0	0	0	0	0	0	0	0	0	0	0	0	0	0	5	5
090412	15:17:14	10017	corsiblockEngRev	recallseqEngRev	10	5	869	0	119	15:17:14	2240382	4	0	0	0	0	0	0	0	0	0	0	0	0	0	0	5	5
090412	15:17:14	10017	corsiblockEngRev	recallseqEngRev	10	8	643	0	119	15:17:14	2241062	4	0	0	0	0	0	0	0	0	0	0	0	0	0	0	5	5
090412	15:17:14	10017	corsiblockEngRev	recallseqEngRev	10	3	883	0	119	15:17:14	2241981	4	0	0	0	0	0	0	0	0	0	0	0	0	0	0	5	5
090412	15:17:14	10017	corsiblockEngRev	recallseqEngRev	10	7	923	0	119	15:17:14	2242941	4	0	0	0	0	0	0	0	0	0	0	0	0	0	0	5	5
090412	15:17:14	10017	corsiblockEngRev	recallseqEngRev	10	9	1947	0	119	15:17:14	2244927	4	0	0	0	0	0	0	0	0	0	0	0	0	0	0	5	5
090412	15:17:14	10017	corsiblockEngRev	recallseqEngRev	10	doneCorsiEng	1170	0	119	15:17:14	2246140	4	0	0	0	0	0	0	0	0	0	0	0	0	0	0	5	5
090412	15:17:14	10017	testEng3mo	WordsEng3mo	11	1Eng3mo	9036	0	119	15:17:14	2267305	4	1	0	0	0	0	0	0	0	0	0	0	0	0	0	5	5
090412	15:17:14	10017	testEng3mo	WordsEng3mo	11	2Eng3mo	599	0	119	15:17:14	2267944	4	1	1	0	0	0	0	0	0	0	0	0	0	0	0	5	5
090412	15:17:14	10017	testEng3mo	WordsEng3mo	11	3Eng3mo	224	0	119	15:17:14	2268211	4	1	1	1	0	0	0	0	0	0	0	0	0	0	0	5	5
090412	15:17:14	10017	testEng3mo	WordsEng3mo	11	4Eng3mo	230	0	119	15:17:14	2268478	4	1	1	1	1	0	0	0	0	0	0	0	0	0	0	5	5
090412	15:17:14	10017	testEng3mo	WordsEng3mo	11	5Eng3mo	275	0	119	15:17:14	2268798	4	1	1	1	1	1	0	0	0	0	0	0	0	0	0	5	5
090412	15:17:14	10017	testEng3mo	WordsEng3mo	11	6Eng3mo	275	0	119	15:17:14	2269118	4	1	1	1	1	1	1	0	0	0	0	0	0	0	0	5	5
090412	15:17:14	10017	testEng3mo	WordsEng3mo	11	7Eng3mo	555	0	119	15:17:14	2269717	4	1	1	1	1	1	1	1	0	0	0	0	0	0	0	5	5
090412	15:17:14	10017	testEng3mo	WordsEng3mo	11	8Eng3mo	211	0	119	15:17:14	2269970	4	1	1	1	1	1	1	1	1	0	0	0	0	0	0	5	5
090412	15:17:14	10017	testEng3mo	WordsEng3mo	11	DoneEng3mo	382	0	119	15:17:14	2270397	4	1	1	1	1	1	1	1	1	0	0	0	0	0	0	5	5
090412	15:17:14	10017	DigitSpanFwrdEng3mo	Score1FwrdEng3mo	12	DS1	4948	0	119	15:17:14	2288269	4	1	1	1	1	1	1	1	1	0	0	0	0	0	0	5	5
090412	15:17:14	10017	DigitSpanFwrdEng3mo	Gate1FwrdEng3mo	12	0	1	0	119	15:17:14	2288284	4	1	1	1	1	1	1	1	1	3	0	0	0	0	0	5	5
090412	15:17:14	10017	DigitSpanFwrdEng3mo	Score2FwrdEng3mo	12	DS1	4869	0	119	15:17:14	2299731	4	1	1	1	1	1	1	1	1	3	0	0	0	0	0	5	5
090412	15:17:14	10017	DigitSpanFwrdEng3mo	Gate3FwrdEng3mo	12	0	1	0	119	15:17:14	2299747	4	1	1	1	1	1	1	1	1	4	0	0	0	0	0	5	5
090412	15:17:14	10017	DigitSpanFwrdEng3mo	Score3FwrdEng3mo	12	DS1	4013	0	119	15:17:14	2311806	4	1	1	1	1	1	1	1	1	4	0	0	0	0	0	5	5
090412	15:17:14	10017	DigitSpanFwrdEng3mo	Gate5FwrdEng3mo	12	0	1	0	119	15:17:14	2311822	4	1	1	1	1	1	1	1	1	5	0	0	0	0	0	5	5
090412	15:17:14	10017	DigitSpanFwrdEng3mo	Score4FwrdEng3mo	12	DS1	4391	0	119	15:17:14	2325761	4	1	1	1	1	1	1	1	1	5	0	0	0	0	0	5	5
090412	15:17:14	10017	DigitSpanFwrdEng3mo	Gate7FwrdEng3mo	12	0	1	0	119	15:17:14	2325776	4	1	1	1	1	1	1	1	1	6	0	0	0	0	0	5	5
090412	15:17:14	10017	DigitSpanFwrdEng3mo	Score5FwrdEng3mo	12	DS1	5528	0	119	15:17:14	2342354	4	1	1	1	1	1	1	1	1	6	0	0	0	0	0	5	5
090412	15:17:14	10017	DigitSpanFwrdEng3mo	Gate9FwrdEng3mo	12	0	1	0	119	15:17:14	2342369	4	1	1	1	1	1	1	1	1	7	0	0	0	0	0	5	5
090412	15:17:14	10017	DigitSpanFwrdEng3mo	Score6FwrdEng3mo	12	DS2	8967	0	119	15:17:14	2364705	4	1	1	1	1	1	1	1	1	7	0	0	0	0	0	5	5
090412	15:17:14	10017	DigitSpanFwrdEng3mo	Gate11FwrdEng3mo	12	0	1	0	119	15:17:14	2364720	4	1	1	1	1	1	1	1	1	7	0	0	0	0	0	5	5
090412	15:17:14	10017	DigitSpanFwrdEng3mo	Score66FwrdEng3mo	12	DS1	9277	0	119	15:17:14	2386989	4	1	1	1	1	1	1	1	1	8	0	0	0	0	0	5	5
090412	15:17:14	10017	DigitSpanEng3mo	Score1Eng3mo	13	DS1	4182	0	119	15:17:14	2405688	4	1	1	1	1	1	1	1	1	8	0	0	0	0	0	5	5
090412	15:17:14	10017	DigitSpanEng3mo	Gate1Eng3mo	13	0	1	0	119	15:17:14	2405704	4	1	1	1	1	1	1	1	1	8	2	0	0	0	0	5	5
090412	15:17:14	10017	DigitSpanEng3mo	Score2Eng3mo	13	DS1	4754	0	119	15:17:14	2415418	4	1	1	1	1	1	1	1	1	8	2	0	0	0	0	5	5
090412	15:17:14	10017	DigitSpanEng3mo	Gate3Eng3mo	13	0	1	0	119	15:17:14	2415433	4	1	1	1	1	1	1	1	1	8	3	0	0	0	0	5	5
090412	15:17:14	10017	DigitSpanEng3mo	Score3Eng3mo	13	DS1	6774	0	119	15:17:14	2428785	4	1	1	1	1	1	1	1	1	8	3	0	0	0	0	5	5
090412	15:17:14	10017	DigitSpanEng3mo	Gate5Eng3mo	13	0	1	0	119	15:17:14	2428801	4	1	1	1	1	1	1	1	1	8	4	0	0	0	0	5	5
090412	15:17:14	10017	DigitSpanEng3mo	Score4Eng3mo	13	DS1	12710	0	119	15:17:14	2449564	4	1	1	1	1	1	1	1	1	8	4	0	0	0	0	5	5
090412	15:17:14	10017	DigitSpanEng3mo	Gate7Eng3mo	13	0	1	0	119	15:17:14	2449579	4	1	1	1	1	1	1	1	1	8	5	0	0	0	0	5	5
090412	15:17:14	10017	DigitSpanEng3mo	Score5Eng3mo	13	DS1	57755	0	119	15:17:14	2516870	4	1	1	1	1	1	1	1	1	8	5	0	0	0	0	5	5
090412	15:17:14	10017	DigitSpanEng3mo	Gate9Eng3mo	13	0	1	0	119	15:17:14	2516885	4	1	1	1	1	1	1	1	1	8	6	0	0	0	0	5	5
090412	15:17:14	10017	DigitSpanEng3mo	Score6Eng3mo	13	DS1	26094	0	119	15:17:14	2554988	4	1	1	1	1	1	1	1	1	8	7	0	0	0	0	5	5
090412	15:17:14	10017	Trial	IncongruentRight	14	205	696	1	119	15:17:14	2600143	4	1	1	1	1	1	1	1	1	8	7	0	0	0	0	5	5
090412	15:17:14	10017	Trial	IncongruentLeft	14	203	608	1	119	15:17:14	2601049	4	1	1	1	1	1	1	1	1	8	7	0	0	0	0	5	5
090412	15:17:14	10017	Trial	CongruentRight	14	205	585	1	119	15:17:14	2602035	4	1	1	1	1	1	1	1	1	8	7	0	0	0	0	5	5
090412	15:17:14	10017	Trial	IncongruentRight	14	205	433	1	119	15:17:14	2602875	4	1	1	1	1	1	1	1	1	8	7	0	0	0	0	5	5
090412	15:17:14	10017	Trial	CongruentLeft	14	203	668	1	119	15:17:14	2604128	4	1	1	1	1	1	1	1	1	8	7	0	0	0	0	5	5
090412	15:17:14	10017	Trial	CongruentRight	14	205	597	1	119	15:17:14	2605047	4	1	1	1	1	1	1	1	1	8	7	0	0	0	0	5	5
090412	15:17:14	10017	Trial	IncongruentRight	14	205	461	1	119	15:17:14	2605914	4	1	1	1	1	1	1	1	1	8	7	0	0	0	0	5	5
090412	15:17:14	10017	Trial	CongruentLeft	14	203	549	1	119	15:17:14	2607007	4	1	1	1	1	1	1	1	1	8	7	0	0	0	0	5	5
090412	15:17:14	10017	Trial	IncongruentLeft	14	203	718	1	119	15:17:14	2608179	4	1	1	1	1	1	1	1	1	8	7	0	0	0	0	5	5
090412	15:17:14	10017	Trial	IncongruentLeft	14	203	518	1	119	15:17:14	2608979	4	1	1	1	1	1	1	1	1	8	7	0	0	0	0	5	5
090412	15:17:14	10017	Trial	CongruentRight	14	205	543	1	119	15:17:14	2609992	4	1	1	1	1	1	1	1	1	8	7	0	0	0	0	5	5
090412	15:17:14	10017	Trial	IncongruentRight	14	205	410	1	119	15:17:14	2610872	4	1	1	1	1	1	1	1	1	8	7	0	0	0	0	5	5
090412	15:17:14	10017	Trial	CongruentLeft	14	203	610	1	119	15:17:14	2612071	4	1	1	1	1	1	1	1	1	8	7	0	0	0	0	5	5
090412	15:17:14	10017	Trial	CongruentRight	14	205	586	1	119	15:17:14	2613057	4	1	1	1	1	1	1	1	1	8	7	0	0	0	0	5	5
090412	15:17:14	10017	Trial	IncongruentLeft	14	203	563	1	119	15:17:14	2614030	4	1	1	1	1	1	1	1	1	8	7	0	0	0	0	5	5
090412	15:17:14	10017	Trial	IncongruentRight	14	205	523	1	119	15:17:14	2614990	4	1	1	1	1	1	1	1	1	8	7	0	0	0	0	5	5
090412	15:17:14	10017	Trial	CongruentRight	14	205	451	1	119	15:17:14	2615923	4	1	1	1	1	1	1	1	1	8	7	0	0	0	0	5	5
090412	15:17:14	10017	Trial	CongruentLeft	14	203	476	1	119	15:17:14	2616936	4	1	1	1	1	1	1	1	1	8	7	0	0	0	0	5	5
090412	15:17:14	10017	Trial	CongruentRight	14	205	628	1	119	15:17:14	2618095	4	1	1	1	1	1	1	1	1	8	7	0	0	0	0	5	5
090412	15:17:14	10017	Trial	IncongruentRight	14	205	508	1	119	15:17:14	2618975	4	1	1	1	1	1	1	1	1	8	7	0	0	0	0	5	5
090412	15:17:14	10017	Trial	IncongruentLeft	14	203	517	1	119	15:17:14	2619975	4	1	1	1	1	1	1	1	1	8	7	0	0	0	0	5	5
090412	15:17:14	10017	Trial	IncongruentLeft	14	203	525	1	119	15:17:14	2620988	4	1	1	1	1	1	1	1	1	8	7	0	0	0	0	5	5
090412	15:17:14	10017	Trial	CongruentLeft	14	203	486	1	119	15:17:14	2621947	4	1	1	1	1	1	1	1	1	8	7	0	0	0	0	5	5
090412	15:17:14	10017	Trial	CongruentRight	14	205	510	1	119	15:17:14	2622973	4	1	1	1	1	1	1	1	1	8	7	0	0	0	0	5	5
090412	15:17:14	10017	Trial	IncongruentLeft	14	203	518	1	119	15:17:14	2623986	4	1	1	1	1	1	1	1	1	8	7	0	0	0	0	5	5
090412	15:17:14	10017	Trial	IncongruentRight	14	0	737	0	119	15:17:14	2625186	4	1	1	1	1	1	1	1	1	8	7	0	0	0	0	5	5
090412	15:17:14	10017	Trial	CongruentRight	14	205	487	1	119	15:17:14	2625946	4	1	1	1	1	1	1	1	1	8	7	0	0	0	0	5	5
090412	15:17:14	10017	Trial	CongruentLeft	14	203	480	1	119	15:17:14	2626945	4	1	1	1	1	1	1	1	1	8	7	0	0	0	0	5	5
090412	15:17:14	10017	Trial	IncongruentRight	14	205	523	1	119	15:17:14	2627998	4	1	1	1	1	1	1	1	1	8	7	0	0	0	0	5	5
090412	15:17:14	10017	Trial	IncongruentLeft	14	203	515	1	119	15:17:14	2628985	4	1	1	1	1	1	1	1	1	8	7	0	0	0	0	5	5
090412	15:17:14	10017	Trial	IncongruentRight	14	205	524	1	119	15:17:14	2629997	4	1	1	1	1	1	1	1	1	8	7	0	0	0	0	5	5
090412	15:17:14	10017	Trial	CongruentRight	14	205	468	1	119	15:17:14	2630944	4	1	1	1	1	1	1	1	1	8	7	0	0	0	0	5	5
090412	15:17:14	10017	Trial	IncongruentLeft	14	203	556	1	119	15:17:14	2632023	4	1	1	1	1	1	1	1	1	8	7	0	0	0	0	5	5
090412	15:17:14	10017	Trial	CongruentLeft	14	203	533	1	119	15:17:14	2633009	4	1	1	1	1	1	1	1	1	8	7	0	0	0	0	5	5
090412	15:17:14	10017	Trial	CongruentRight	14	205	445	1	119	15:17:14	2633916	4	1	1	1	1	1	1	1	1	8	7	0	0	0	0	5	5
090412	15:17:14	10017	Trial	IncongruentLeft	14	203	517	1	119	15:17:14	2634982	4	1	1	1	1	1	1	1	1	8	7	0	0	0	0	5	5
090412	15:17:14	10017	Trial	IncongruentRight	14	205	542	1	119	15:17:14	2636008	4	1	1	1	1	1	1	1	1	8	7	0	0	0	0	5	5
090412	15:17:14	10017	Trial	IncongruentRight	14	205	454	1	119	15:17:14	2636928	4	1	1	1	1	1	1	1	1	8	7	0	0	0	0	5	5
090412	15:17:14	10017	Trial	CongruentLeft	14	203	559	1	119	15:17:14	2638034	4	1	1	1	1	1	1	1	1	8	7	0	0	0	0	5	5
090412	15:17:14	10017	Trial	IncongruentLeft	14	203	615	1	119	15:17:14	2639087	4	1	1	1	1	1	1	1	1	8	7	0	0	0	0	5	5
090412	15:17:14	10017	Trial	CongruentRight	14	205	543	1	119	15:17:14	2640007	4	1	1	1	1	1	1	1	1	8	7	0	0	0	0	5	5
090412	15:17:14	10017	Trial	CongruentLeft	14	203	600	1	119	15:17:14	2641073	4	1	1	1	1	1	1	1	1	8	7	0	0	0	0	5	5
090412	15:17:14	10017	Trial	IncongruentRight	14	205	464	1	119	15:17:14	2641926	4	1	1	1	1	1	1	1	1	8	7	0	0	0	0	5	5
090412	15:17:14	10017	Trial	CongruentRight	14	205	648	1	119	15:17:14	2643112	4	1	1	1	1	1	1	1	1	8	7	0	0	0	0	5	5
090412	15:17:14	10017	Trial	IncongruentLeft	14	203	529	1	119	15:17:14	2643992	4	1	1	1	1	1	1	1	1	8	7	0	0	0	0	5	5
090412	15:17:14	10017	Trial	CongruentLeft	14	203	473	1	119	15:17:14	2644938	4	1	1	1	1	1	1	1	1	8	7	0	0	0	0	5	5
090412	15:17:14	10017	Trial	IncongruentLeft	14	203	578	1	119	15:17:14	2646044	4	1	1	1	1	1	1	1	1	8	7	0	0	0	0	5	5
090412	15:17:14	10017	Trial	IncongruentRight	14	205	507	1	119	15:17:14	2646977	4	1	1	1	1	1	1	1	1	8	7	0	0	0	0	5	5
090412	15:17:14	10017	Trial	CongruentRight	14	205	418	1	119	15:17:14	2647883	4	1	1	1	1	1	1	1	1	8	7	0	0	0	0	5	5
090412	15:17:14	10017	Trial	CongruentLeft	14	203	475	1	119	15:17:14	2648937	4	1	1	1	1	1	1	1	1	8	7	0	0	0	0	5	5
090412	15:17:14	10017	Trial	CongruentLeft	14	203	563	1	119	15:17:14	2650029	4	1	1	1	1	1	1	1	1	8	7	0	0	0	0	5	5
090412	15:17:14	10017	Trial	IncongruentRight	14	205	555	1	119	15:17:14	2651016	4	1	1	1	1	1	1	1	1	8	7	0	0	0	0	5	5
090412	15:17:14	10017	Trial	IncongruentLeft	14	203	500	1	119	15:17:14	2651962	4	1	1	1	1	1	1	1	1	8	7	0	0	0	0	5	5
090412	15:17:14	10017	Trial	IncongruentRight	14	205	428	1	119	15:17:14	2652895	4	1	1	1	1	1	1	1	1	8	7	0	0	0	0	5	5
090412	15:17:14	10017	Trial	CongruentRight	14	205	405	1	119	15:17:14	2653868	4	1	1	1	1	1	1	1	1	8	7	0	0	0	0	5	5
090412	15:17:14	10017	Trial	CongruentRight	14	205	381	1	119	15:17:14	2654841	4	1	1	1	1	1	1	1	1	8	7	0	0	0	0	5	5
090412	15:17:14	10017	Trial	IncongruentLeft	14	205	373	0	119	15:17:14	2655840	4	1	1	1	1	1	1	1	1	8	7	0	0	0	0	5	5
090412	15:17:14	10017	Trial	CongruentLeft	14	203	557	1	119	15:17:14	2657026	4	1	1	1	1	1	1	1	1	8	7	0	0	0	0	5	5
090412	15:17:14	10017	Trial	CongruentRight	14	205	550	1	119	15:17:14	2658013	4	1	1	1	1	1	1	1	1	8	7	0	0	0	0	5	5
090412	15:17:14	10017	Trial	CongruentLeft	14	203	607	1	119	15:17:14	2659065	4	1	1	1	1	1	1	1	1	8	7	0	0	0	0	5	5
090412	15:17:14	10017	Trial	IncongruentRight	14	205	570	1	119	15:17:14	2660039	4	1	1	1	1	1	1	1	1	8	7	0	0	0	0	5	5
090412	15:17:14	10017	Trial	CongruentRight	14	205	482	1	119	15:17:14	2660958	4	1	1	1	1	1	1	1	1	8	7	0	0	0	0	5	5
090412	15:17:14	10017	Trial	CongruentLeft	14	203	522	1	119	15:17:14	2661998	4	1	1	1	1	1	1	1	1	8	7	0	0	0	0	5	5
090412	15:17:14	10017	Trial	IncongruentLeft	14	203	578	1	119	15:17:14	2663051	4	1	1	1	1	1	1	1	1	8	7	0	0	0	0	5	5
090412	15:17:14	10017	Trial	IncongruentLeft	14	203	667	1	119	15:17:14	2664144	4	1	1	1	1	1	1	1	1	8	7	0	0	0	0	5	5
090412	15:17:14	10017	Trial	CongruentRight	14	205	499	1	119	15:17:14	2664970	4	1	1	1	1	1	1	1	1	8	7	0	0	0	0	5	5
090412	15:17:14	10017	Trial	IncongruentRight	14	205	492	1	119	15:17:14	2665970	4	1	1	1	1	1	1	1	1	8	7	0	0	0	0	5	5
090412	15:17:14	10017	Trial	CongruentLeft	14	203	548	1	119	15:17:14	2667022	4	1	1	1	1	1	1	1	1	8	7	0	0	0	0	5	5
090412	15:17:14	10017	Trial	IncongruentRight	14	205	557	1	119	15:17:14	2668022	4	1	1	1	1	1	1	1	1	8	7	0	0	0	0	5	5
090412	15:17:14	10017	Trial	CongruentRight	14	205	437	1	119	15:17:14	2668902	4	1	1	1	1	1	1	1	1	8	7	0	0	0	0	5	5
090412	15:17:14	10017	Trial	IncongruentLeft	14	203	445	1	119	15:17:14	2669915	4	1	1	1	1	1	1	1	1	8	7	0	0	0	0	5	5
090412	15:17:14	10017	Trial	CongruentLeft	14	203	486	1	119	15:17:14	2670954	4	1	1	1	1	1	1	1	1	8	7	0	0	0	0	5	5
090412	15:17:14	10017	Trial	CongruentRight	14	205	494	1	119	15:17:14	2671967	4	1	1	1	1	1	1	1	1	8	7	0	0	0	0	5	5
090412	15:17:14	10017	Trial	IncongruentLeft	14	203	503	1	119	15:17:14	2672967	4	1	1	1	1	1	1	1	1	8	7	0	0	0	0	5	5
090412	15:17:14	10017	Trial	CongruentRight	14	205	543	1	119	15:17:14	2674006	4	1	1	1	1	1	1	1	1	8	7	0	0	0	0	5	5
090412	15:17:14	10017	Trial	CongruentRight	14	205	487	1	119	15:17:14	2674953	4	1	1	1	1	1	1	1	1	8	7	0	0	0	0	5	5
090412	15:17:14	10017	Trial	IncongruentRight	14	205	480	1	119	15:17:14	2675952	4	1	1	1	1	1	1	1	1	8	7	0	0	0	0	5	5
090412	15:17:14	10017	Trial	CongruentLeft	14	203	504	1	119	15:17:14	2676965	4	1	1	1	1	1	1	1	1	8	7	0	0	0	0	5	5
090412	15:17:14	10017	Trial	IncongruentLeft	14	203	512	1	119	15:17:14	2677978	4	1	1	1	1	1	1	1	1	8	7	0	0	0	0	5	5
090412	15:17:14	10017	Trial	CongruentLeft	14	203	441	1	119	15:17:14	2678911	4	1	1	1	1	1	1	1	1	8	7	0	0	0	0	5	5
090412	15:17:14	10017	Trial	IncongruentRight	14	205	513	1	119	15:17:14	2679977	4	1	1	1	1	1	1	1	1	8	7	0	0	0	0	5	5
090412	15:17:14	10017	Trial	IncongruentLeft	14	203	601	1	119	15:17:14	2681070	4	1	1	1	1	1	1	1	1	8	7	0	0	0	0	5	5
090412	15:17:14	10017	Trial	CongruentRight	14	205	499	1	119	15:17:14	2681963	4	1	1	1	1	1	1	1	1	8	7	0	0	0	0	5	5
090412	15:17:14	10017	Trial	CongruentLeft	14	203	474	1	119	15:17:14	2682936	4	1	1	1	1	1	1	1	1	8	7	0	0	0	0	5	5
090412	15:17:14	10017	Trial	IncongruentLeft	14	203	531	1	119	15:17:14	2683989	4	1	1	1	1	1	1	1	1	8	7	0	0	0	0	5	5
090412	15:17:14	10017	Trial	CongruentLeft	14	203	491	1	119	15:17:14	2684962	4	1	1	1	1	1	1	1	1	8	7	0	0	0	0	5	5
090412	15:17:14	10017	Trial	IncongruentRight	14	205	500	1	119	15:17:14	2685961	4	1	1	1	1	1	1	1	1	8	7	0	0	0	0	5	5
090412	15:17:14	10017	Trial	CongruentRight	14	205	412	1	119	15:17:14	2686881	4	1	1	1	1	1	1	1	1	8	7	0	0	0	0	5	5
090412	15:17:14	10017	Trial	IncongruentLeft	14	203	468	1	119	15:17:14	2687934	4	1	1	1	1	1	1	1	1	8	7	0	0	0	0	5	5
090412	15:17:14	10017	Trial	CongruentLeft	14	203	525	1	119	15:17:14	2688987	4	1	1	1	1	1	1	1	1	8	7	0	0	0	0	5	5
090412	15:17:14	10017	Trial	IncongruentRight	14	205	485	1	119	15:17:14	2689946	4	1	1	1	1	1	1	1	1	8	7	0	0	0	0	5	5
090412	15:17:14	10017	Trial	IncongruentLeft	14	0	737	0	119	15:17:14	2691199	4	1	1	1	1	1	1	1	1	8	7	0	0	0	0	5	5
090412	15:17:14	10017	Trial	CongruentLeft	14	203	601	1	119	15:17:14	2692079	4	1	1	1	1	1	1	1	1	8	7	0	0	0	0	5	5
090412	15:17:14	10017	Trial	IncongruentLeft	14	203	705	1	119	15:17:14	2693185	4	1	1	1	1	1	1	1	1	8	7	0	0	0	0	5	5
090412	15:17:14	10017	Trial	CongruentRight	14	205	665	1	119	15:17:14	2694145	4	1	1	1	1	1	1	1	1	8	7	0	0	0	0	5	5
090412	15:17:14	10017	Trial	CongruentLeft	14	0	737	0	119	15:17:14	2695211	4	1	1	1	1	1	1	1	1	8	7	0	0	0	0	5	5
090412	15:17:14	10017	Trial	IncongruentRight	14	205	717	1	119	15:17:14	2696197	4	1	1	1	1	1	1	1	1	8	7	0	0	0	0	5	5
090412	15:17:14	10017	Trial	CongruentLeft	14	203	517	1	119	15:17:14	2696997	4	1	1	1	1	1	1	1	1	8	7	0	0	0	0	5	5
090412	15:17:14	10017	Trial	CongruentRight	14	205	478	1	119	15:17:14	2697970	4	1	1	1	1	1	1	1	1	8	7	0	0	0	0	5	5
090412	15:17:14	10017	Trial	IncongruentLeft	14	203	665	1	119	15:17:14	2699169	4	1	1	1	1	1	1	1	1	8	7	0	0	0	0	5	5
090412	15:17:14	10017	Trial750Eng	IncongruentRight750	15	0	487	0	119	15:17:14	2721294	4	1	1	1	1	1	1	1	1	8	7	0	0	0	0	5	5
090412	15:17:14	10017	Trial750Eng	IncongruentLeft750	15	0	487	0	119	15:17:14	2722053	4	1	1	1	1	1	1	1	1	8	7	0	0	0	0	5	5
090412	15:17:14	10017	Trial750Eng	CongruentRight750	15	0	487	0	119	15:17:14	2722813	4	1	1	1	1	1	1	1	1	8	7	0	0	0	0	5	5
090412	15:17:14	10017	Trial750Eng	IncongruentRight750	15	205	458	1	119	15:17:14	2723546	4	1	1	1	1	1	1	1	1	8	7	0	0	0	0	5	5
090412	15:17:14	10017	Trial750Eng	CongruentLeft750	15	0	487	0	119	15:17:14	2724319	4	1	1	1	1	1	1	1	1	8	7	0	0	0	0	5	5
090412	15:17:14	10017	Trial750Eng	CongruentRight750	15	0	487	0	119	15:17:14	2725079	4	1	1	1	1	1	1	1	1	8	7	0	0	0	0	5	5
090412	15:17:14	10017	Trial750Eng	IncongruentRight750	15	205	463	1	119	15:17:14	2725812	4	1	1	1	1	1	1	1	1	8	7	0	0	0	0	5	5
090412	15:17:14	10017	Trial750Eng	CongruentLeft750	15	0	487	0	119	15:17:14	2726585	4	1	1	1	1	1	1	1	1	8	7	0	0	0	0	5	5
090412	15:17:14	10017	Trial750Eng	IncongruentLeft750	15	0	487	0	119	15:17:14	2727345	4	1	1	1	1	1	1	1	1	8	7	0	0	0	0	5	5
090412	15:17:14	10017	Trial750Eng	IncongruentLeft750	15	0	487	0	119	15:17:14	2728104	4	1	1	1	1	1	1	1	1	8	7	0	0	0	0	5	5
090412	15:17:14	10017	Trial750Eng	CongruentRight750	15	205	478	1	119	15:17:14	2728864	4	1	1	1	1	1	1	1	1	8	7	0	0	0	0	5	5
090412	15:17:14	10017	Trial750Eng	IncongruentRight750	15	0	487	0	119	15:17:14	2729624	4	1	1	1	1	1	1	1	1	8	7	0	0	0	0	5	5
090412	15:17:14	10017	Trial750Eng	CongruentLeft750	15	0	487	0	119	15:17:14	2730384	4	1	1	1	1	1	1	1	1	8	7	0	0	0	0	5	5
090412	15:17:14	10017	Trial750Eng	CongruentRight750	15	0	487	0	119	15:17:14	2731143	4	1	1	1	1	1	1	1	1	8	7	0	0	0	0	5	5
090412	15:17:14	10017	Trial750Eng	IncongruentLeft750	15	0	487	0	119	15:17:14	2731903	4	1	1	1	1	1	1	1	1	8	7	0	0	0	0	5	5
090412	15:17:14	10017	Trial750Eng	IncongruentRight750	15	0	487	0	119	15:17:14	2732662	4	1	1	1	1	1	1	1	1	8	7	0	0	0	0	5	5
090412	15:17:14	10017	Trial750Eng	CongruentRight750	15	205	480	1	119	15:17:14	2733422	4	1	1	1	1	1	1	1	1	8	7	0	0	0	0	5	5
090412	15:17:14	10017	Trial750Eng	CongruentLeft750	15	0	487	0	119	15:17:14	2734182	4	1	1	1	1	1	1	1	1	8	7	0	0	0	0	5	5
090412	15:17:14	10017	Trial750Eng	CongruentRight750	15	0	487	0	119	15:17:14	2734941	4	1	1	1	1	1	1	1	1	8	7	0	0	0	0	5	5
090412	15:17:14	10017	Trial750Eng	IncongruentRight750	15	0	487	0	119	15:17:14	2735701	4	1	1	1	1	1	1	1	1	8	7	0	0	0	0	5	5
090412	15:17:14	10017	Trial750Eng	IncongruentLeft750	15	0	487	0	119	15:17:14	2736461	4	1	1	1	1	1	1	1	1	8	7	0	0	0	0	5	5
090412	15:17:14	10017	Trial750Eng	IncongruentLeft750	15	0	487	0	119	15:17:14	2737221	4	1	1	1	1	1	1	1	1	8	7	0	0	0	0	5	5
090412	15:17:14	10017	Trial750Eng	CongruentLeft750	15	0	487	0	119	15:17:14	2737980	4	1	1	1	1	1	1	1	1	8	7	0	0	0	0	5	5
090412	15:17:14	10017	Trial750Eng	CongruentRight750	15	0	487	0	119	15:17:14	2738740	4	1	1	1	1	1	1	1	1	8	7	0	0	0	0	5	5
090412	15:17:14	10017	Trial750Eng	IncongruentLeft750	15	0	487	0	119	15:17:14	2739500	4	1	1	1	1	1	1	1	1	8	7	0	0	0	0	5	5
090412	15:17:14	10017	Trial750Eng	IncongruentRight750	15	203	443	0	119	15:17:14	2740219	4	1	1	1	1	1	1	1	1	8	7	0	0	0	0	5	5
090412	15:17:14	10017	Trial750Eng	CongruentRight750	15	205	19	1	119	15:17:14	2740553	4	1	1	1	1	1	1	1	1	8	7	0	0	0	0	5	5
090412	15:17:14	10017	Trial750Eng	CongruentLeft750	15	0	487	0	119	15:17:14	2741766	4	1	1	1	1	1	1	1	1	8	7	0	0	0	0	5	5
090412	15:17:14	10017	Trial750Eng	IncongruentRight750	15	0	487	0	119	15:17:14	2742525	4	1	1	1	1	1	1	1	1	8	7	0	0	0	0	5	5
090412	15:17:14	10017	Trial750Eng	IncongruentLeft750	15	205	169	0	119	15:17:14	2742965	4	1	1	1	1	1	1	1	1	8	7	0	0	0	0	5	5
090412	15:17:14	10017	Trial750Eng	IncongruentRight750	15	0	487	0	119	15:17:14	2744031	4	1	1	1	1	1	1	1	1	8	7	0	0	0	0	5	5
090412	15:17:14	10017	Trial750Eng	CongruentRight750	15	0	487	0	119	15:17:14	2744791	4	1	1	1	1	1	1	1	1	8	7	0	0	0	0	5	5
090412	15:17:14	10017	Trial750Eng	IncongruentLeft750	15	0	487	0	119	15:17:14	2745551	4	1	1	1	1	1	1	1	1	8	7	0	0	0	0	5	5
090412	15:17:14	10017	Trial750Eng	CongruentLeft750	15	0	487	0	119	15:17:14	2746310	4	1	1	1	1	1	1	1	1	8	7	0	0	0	0	5	5
090412	15:17:14	10017	Trial750Eng	CongruentRight750	15	0	487	0	119	15:17:14	2747070	4	1	1	1	1	1	1	1	1	8	7	0	0	0	0	5	5
090412	15:17:14	10017	Trial750Eng	IncongruentLeft750	15	0	487	0	119	15:17:14	2747830	4	1	1	1	1	1	1	1	1	8	7	0	0	0	0	5	5
090412	15:17:14	10017	Trial750Eng	IncongruentRight750	15	0	487	0	119	15:17:14	2748589	4	1	1	1	1	1	1	1	1	8	7	0	0	0	0	5	5
090412	15:17:14	10017	Trial750Eng	IncongruentRight750	15	0	487	0	119	15:17:14	2749349	4	1	1	1	1	1	1	1	1	8	7	0	0	0	0	5	5
090412	15:17:14	10017	Trial750Eng	CongruentLeft750	15	0	487	0	119	15:17:14	2750109	4	1	1	1	1	1	1	1	1	8	7	0	0	0	0	5	5
090412	15:17:14	10017	Trial750Eng	IncongruentLeft750	15	0	487	0	119	15:17:14	2750869	4	1	1	1	1	1	1	1	1	8	7	0	0	0	0	5	5
090412	15:17:14	10017	Trial750Eng	CongruentRight750	15	0	487	0	119	15:17:14	2751628	4	1	1	1	1	1	1	1	1	8	7	0	0	0	0	5	5
090412	15:17:14	10017	Trial750Eng	CongruentLeft750	15	205	26	0	119	15:17:14	2751935	4	1	1	1	1	1	1	1	1	8	7	0	0	0	0	5	5
090412	15:17:14	10017	Trial750Eng	IncongruentRight750	15	0	487	0	119	15:17:14	2753134	4	1	1	1	1	1	1	1	1	8	7	0	0	0	0	5	5
090412	15:17:14	10017	Trial750Eng	CongruentRight750	15	0	487	0	119	15:17:14	2753894	4	1	1	1	1	1	1	1	1	8	7	0	0	0	0	5	5
090412	15:17:14	10017	Trial750Eng	IncongruentLeft750	15	0	487	0	119	15:17:14	2754654	4	1	1	1	1	1	1	1	1	8	7	0	0	0	0	5	5
090412	15:17:14	10017	Trial750Eng	CongruentLeft750	15	0	487	0	119	15:17:14	2755414	4	1	1	1	1	1	1	1	1	8	7	0	0	0	0	5	5
090412	15:17:14	10017	Trial750Eng	IncongruentLeft750	15	0	487	0	119	15:17:14	2756173	4	1	1	1	1	1	1	1	1	8	7	0	0	0	0	5	5
090412	15:17:14	10017	Trial750Eng	IncongruentRight750	15	0	487	0	119	15:17:14	2756933	4	1	1	1	1	1	1	1	1	8	7	0	0	0	0	5	5
090412	15:17:14	10017	Trial750Eng	CongruentRight750	15	0	487	0	119	15:17:14	2757692	4	1	1	1	1	1	1	1	1	8	7	0	0	0	0	5	5
090412	15:17:14	10017	Trial750Eng	CongruentLeft750	15	0	487	0	119	15:17:14	2758452	4	1	1	1	1	1	1	1	1	8	7	0	0	0	0	5	5
090412	15:17:14	10017	Trial750Eng	CongruentLeft750	15	203	481	1	119	15:17:14	2759212	4	1	1	1	1	1	1	1	1	8	7	0	0	0	0	5	5
090412	15:17:14	10017	Trial750Eng	IncongruentRight750	15	0	487	0	119	15:17:14	2759972	4	1	1	1	1	1	1	1	1	8	7	0	0	0	0	5	5
090412	15:17:14	10017	Trial750Eng	IncongruentLeft750	15	0	487	0	119	15:17:14	2760731	4	1	1	1	1	1	1	1	1	8	7	0	0	0	0	5	5
090412	15:17:14	10017	Trial750Eng	IncongruentRight750	15	205	459	1	119	15:17:14	2761464	4	1	1	1	1	1	1	1	1	8	7	0	0	0	0	5	5
090412	15:17:14	10017	Trial750Eng	CongruentRight750	15	205	435	1	119	15:17:14	2762197	4	1	1	1	1	1	1	1	1	8	7	0	0	0	0	5	5
090412	15:17:14	10017	Trial750Eng	CongruentRight750	15	205	409	1	119	15:17:14	2762917	4	1	1	1	1	1	1	1	1	8	7	0	0	0	0	5	5
090412	15:17:14	10017	Trial750Eng	IncongruentLeft750	15	205	446	0	119	15:17:14	2763703	4	1	1	1	1	1	1	1	1	8	7	0	0	0	0	5	5
090412	15:17:14	10017	Trial750Eng	CongruentLeft750	15	0	487	0	119	15:17:14	2764490	4	1	1	1	1	1	1	1	1	8	7	0	0	0	0	5	5
090412	15:17:14	10017	Trial750Eng	CongruentRight750	15	0	487	0	119	15:17:14	2765249	4	1	1	1	1	1	1	1	1	8	7	0	0	0	0	5	5
090412	15:17:14	10017	Trial750Eng	CongruentLeft750	15	0	487	0	119	15:17:14	2766009	4	1	1	1	1	1	1	1	1	8	7	0	0	0	0	5	5
090412	15:17:14	10017	Trial750Eng	IncongruentRight750	15	203	333	0	119	15:17:14	2766622	4	1	1	1	1	1	1	1	1	8	7	0	0	0	0	5	5
090412	15:17:14	10017	Trial750Eng	CongruentRight750	15	0	487	0	119	15:17:14	2767515	4	1	1	1	1	1	1	1	1	8	7	0	0	0	0	5	5
090412	15:17:14	10017	Trial750Eng	CongruentLeft750	15	0	487	0	119	15:17:14	2768275	4	1	1	1	1	1	1	1	1	8	7	0	0	0	0	5	5
090412	15:17:14	10017	Trial750Eng	IncongruentLeft750	15	0	487	0	119	15:17:14	2769035	4	1	1	1	1	1	1	1	1	8	7	0	0	0	0	5	5
090412	15:17:14	10017	Trial750Eng	IncongruentLeft750	15	0	487	0	119	15:17:14	2769794	4	1	1	1	1	1	1	1	1	8	7	0	0	0	0	5	5
090412	15:17:14	10017	Trial750Eng	CongruentRight750	15	205	420	1	119	15:17:14	2770487	4	1	1	1	1	1	1	1	1	8	7	0	0	0	0	5	5
090412	15:17:14	10017	Trial750Eng	IncongruentRight750	15	0	487	0	119	15:17:14	2771300	4	1	1	1	1	1	1	1	1	8	7	0	0	0	0	5	5
090412	15:17:14	10017	Trial750Eng	CongruentLeft750	15	203	481	1	119	15:17:14	2772060	4	1	1	1	1	1	1	1	1	8	7	0	0	0	0	5	5
090412	15:17:14	10017	Trial750Eng	IncongruentRight750	15	0	487	0	119	15:17:14	2772820	4	1	1	1	1	1	1	1	1	8	7	0	0	0	0	5	5
090412	15:17:14	10017	Trial750Eng	CongruentRight750	15	0	487	0	119	15:17:14	2773579	4	1	1	1	1	1	1	1	1	8	7	0	0	0	0	5	5
090412	15:17:14	10017	Trial750Eng	IncongruentLeft750	15	0	487	0	119	15:17:14	2774339	4	1	1	1	1	1	1	1	1	8	7	0	0	0	0	5	5
090412	15:17:14	10017	Trial750Eng	CongruentLeft750	15	203	483	1	119	15:17:14	2775099	4	1	1	1	1	1	1	1	1	8	7	0	0	0	0	5	5
090412	15:17:14	10017	Trial750Eng	CongruentRight750	15	205	459	1	119	15:17:14	2775832	4	1	1	1	1	1	1	1	1	8	7	0	0	0	0	5	5
090412	15:17:14	10017	Trial750Eng	IncongruentLeft750	15	203	451	1	119	15:17:14	2776591	4	1	1	1	1	1	1	1	1	8	7	0	0	0	0	5	5
090412	15:17:14	10017	Trial750Eng	CongruentRight750	15	205	473	1	119	15:17:14	2777351	4	1	1	1	1	1	1	1	1	8	7	0	0	0	0	5	5
090412	15:17:14	10017	Trial750Eng	CongruentRight750	15	0	487	0	119	15:17:14	2778111	4	1	1	1	1	1	1	1	1	8	7	0	0	0	0	5	5
090412	15:17:14	10017	Trial750Eng	IncongruentRight750	15	0	487	0	119	15:17:14	2778871	4	1	1	1	1	1	1	1	1	8	7	0	0	0	0	5	5
090412	15:17:14	10017	Trial750Eng	CongruentLeft750	15	0	487	0	119	15:17:14	2779630	4	1	1	1	1	1	1	1	1	8	7	0	0	0	0	5	5
090412	15:17:14	10017	Trial750Eng	IncongruentLeft750	15	0	487	0	119	15:17:14	2780390	4	1	1	1	1	1	1	1	1	8	7	0	0	0	0	5	5
090412	15:17:14	10017	Trial750Eng	CongruentLeft750	15	0	487	0	119	15:17:14	2781150	4	1	1	1	1	1	1	1	1	8	7	0	0	0	0	5	5
090412	15:17:14	10017	Trial750Eng	IncongruentRight750	15	0	487	0	119	15:17:14	2781909	4	1	1	1	1	1	1	1	1	8	7	0	0	0	0	5	5
090412	15:17:14	10017	Trial750Eng	IncongruentLeft750	15	0	487	0	119	15:17:14	2782669	4	1	1	1	1	1	1	1	1	8	7	0	0	0	0	5	5
090412	15:17:14	10017	Trial750Eng	CongruentRight750	15	205	472	1	119	15:17:14	2783415	4	1	1	1	1	1	1	1	1	8	7	0	0	0	0	5	5
090412	15:17:14	10017	Trial750Eng	CongruentLeft750	15	0	487	0	119	15:17:14	2784175	4	1	1	1	1	1	1	1	1	8	7	0	0	0	0	5	5
090412	15:17:14	10017	Trial750Eng	IncongruentLeft750	15	0	487	0	119	15:17:14	2784935	4	1	1	1	1	1	1	1	1	8	7	0	0	0	0	5	5
090412	15:17:14	10017	Trial750Eng	CongruentLeft750	15	203	415	1	119	15:17:14	2785628	4	1	1	1	1	1	1	1	1	8	7	0	0	0	0	5	5
090412	15:17:14	10017	Trial750Eng	IncongruentRight750	15	203	407	0	119	15:17:14	2786374	4	1	1	1	1	1	1	1	1	8	7	0	0	0	0	5	5
090412	15:17:14	10017	Trial750Eng	CongruentRight750	15	0	487	0	119	15:17:14	2787201	4	1	1	1	1	1	1	1	1	8	7	0	0	0	0	5	5
090412	15:17:14	10017	Trial750Eng	IncongruentLeft750	15	0	487	0	119	15:17:14	2787960	4	1	1	1	1	1	1	1	1	8	7	0	0	0	0	5	5
090412	15:17:14	10017	Trial750Eng	CongruentLeft750	15	0	487	0	119	15:17:14	2788720	4	1	1	1	1	1	1	1	1	8	7	0	0	0	0	5	5
090412	15:17:14	10017	Trial750Eng	IncongruentRight750	15	0	487	0	119	15:17:14	2789480	4	1	1	1	1	1	1	1	1	8	7	0	0	0	0	5	5
090412	15:17:14	10017	Trial750Eng	IncongruentLeft750	15	0	487	0	119	15:17:14	2790239	4	1	1	1	1	1	1	1	1	8	7	0	0	0	0	5	5
090412	15:17:14	10017	Trial750Eng	CongruentLeft750	15	0	487	0	119	15:17:14	2790999	4	1	1	1	1	1	1	1	1	8	7	0	0	0	0	5	5
090412	15:17:14	10017	Trial750Eng	IncongruentLeft750	15	0	487	0	119	15:17:14	2791759	4	1	1	1	1	1	1	1	1	8	7	0	0	0	0	5	5
090412	15:17:14	10017	Trial750Eng	CongruentRight750	15	205	439	1	119	15:17:14	2792478	4	1	1	1	1	1	1	1	1	8	7	0	0	0	0	5	5
090412	15:17:14	10017	Trial750Eng	CongruentLeft750	15	0	487	0	119	15:17:14	2793265	4	1	1	1	1	1	1	1	1	8	7	0	0	0	0	5	5
090412	15:17:14	10017	Trial750Eng	IncongruentRight750	15	205	469	1	119	15:17:14	2794011	4	1	1	1	1	1	1	1	1	8	7	0	0	0	0	5	5
090412	15:17:14	10017	Trial750Eng	CongruentLeft750	15	0	487	0	119	15:17:14	2794771	4	1	1	1	1	1	1	1	1	8	7	0	0	0	0	5	5
090412	15:17:14	10017	Trial750Eng	CongruentRight750	15	0	487	0	119	15:17:14	2795531	4	1	1	1	1	1	1	1	1	8	7	0	0	0	0	5	5
090412	15:17:14	10017	Trial750Eng	IncongruentLeft750	15	205	458	0	119	15:17:14	2796264	4	1	1	1	1	1	1	1	1	8	7	0	0	0	0	5	5
090412	15:17:14	10017	WordsAbsEng3mo	PAbsEng3mo1	16	Abs1	5280	0	119	15:17:14	2811017	4	1	1	1	1	1	1	1	1	8	7	0	0	0	0	5	5
090412	15:17:14	10017	WordsAbsEng3mo	AbsEng3mo1	16	Abs1	2466	0	119	15:17:14	2813523	4	1	1	1	1	1	1	1	1	8	7	1	0	0	0	5	5
090412	15:17:14	10017	WordsAbsEng3mo	AbsEng3mo2	16	Abs1	4624	0	119	15:17:14	2818188	4	1	1	1	1	1	1	1	1	8	7	2	0	0	0	5	5
090412	15:17:14	10017	WordsAbsEng3mo	AbsEng3mo3	16	Abs1	4351	0	119	15:17:14	2822573	4	1	1	1	1	1	1	1	1	8	7	3	0	0	0	5	5
090412	15:17:14	10017	Trial2BackEngS	NS	17	0	1000	1	119	15:17:14	2873939	4	1	1	1	1	1	1	1	1	8	7	3	0	0	0	5	5
090412	15:17:14	10017	Trial2BackEngS	NS	17	0	1000	1	119	15:17:14	2875458	4	1	1	1	1	1	1	1	1	8	7	3	0	0	0	5	5
090412	15:17:14	10017	Trial2BackEngS	NS	17	0	1000	1	119	15:17:14	2876978	4	1	1	1	1	1	1	1	1	8	7	3	0	0	0	5	5
090412	15:17:14	10017	Trial2BackEngS	YS	17	57	454	1	119	15:17:14	2877964	4	1	1	1	1	1	1	1	1	8	7	3	0	0	0	5	5
090412	15:17:14	10017	Trial2BackEngS	NS	17	0	1000	1	119	15:17:14	2880003	4	1	1	1	1	1	1	1	1	8	7	3	0	0	0	5	5
090412	15:17:14	10017	Trial2BackEngS	NS	17	0	1000	1	119	15:17:14	2881522	4	1	1	1	1	1	1	1	1	8	7	3	0	0	0	5	5
090412	15:17:14	10017	Trial2BackEngS	NS	17	0	1000	1	119	15:17:14	2883042	4	1	1	1	1	1	1	1	1	8	7	3	0	0	0	5	5
090412	15:17:14	10017	Trial2BackEngS	NS	17	0	1000	1	119	15:17:14	2884561	4	1	1	1	1	1	1	1	1	8	7	3	0	0	0	5	5
090412	15:17:14	10017	Trial2BackEngS	YS	17	57	582	1	119	15:17:14	2885667	4	1	1	1	1	1	1	1	1	8	7	3	0	0	0	5	5
090412	15:17:14	10017	Trial2BackEngS	NS	17	0	1000	1	119	15:17:14	2887587	4	1	1	1	1	1	1	1	1	8	7	3	0	0	0	5	5
090412	15:17:14	10017	Trial2BackEngS	NS	17	0	1000	1	119	15:17:14	2889106	4	1	1	1	1	1	1	1	1	8	7	3	0	0	0	5	5
090412	15:17:14	10017	Trial2BackEngS	YS	17	0	1000	0	119	15:17:14	2890625	4	1	1	1	1	1	1	1	1	8	7	3	0	0	0	5	5
090412	15:17:14	10017	Trial2BackEngS	NS	17	0	1000	1	119	15:17:14	2892145	4	1	1	1	1	1	1	1	1	8	7	3	0	0	0	5	5
090412	15:17:14	10017	Trial2BackEngS	NS	17	0	1000	1	119	15:17:14	2893664	4	1	1	1	1	1	1	1	1	8	7	3	0	0	0	5	5
090412	15:17:14	10017	Trial2BackEngS	NS	17	0	1000	1	119	15:17:14	2895184	4	1	1	1	1	1	1	1	1	8	7	3	0	0	0	5	5
090412	15:17:14	10017	Trial2BackEngS	YS	17	0	1000	0	119	15:17:14	2896703	4	1	1	1	1	1	1	1	1	8	7	3	0	0	0	5	5
090412	15:17:14	10017	Trial2BackEngS	NS	17	0	1000	1	119	15:17:14	2898222	4	1	1	1	1	1	1	1	1	8	7	3	0	0	0	5	5
090412	15:17:14	10017	Trial2BackEngS	NS	17	0	1000	1	119	15:17:14	2899742	4	1	1	1	1	1	1	1	1	8	7	3	0	0	0	5	5
090412	15:17:14	10017	Trial2BackEngS	NS	17	0	1000	1	119	15:17:14	2901261	4	1	1	1	1	1	1	1	1	8	7	3	0	0	0	5	5
090412	15:17:14	10017	Trial2BackEngS	NS	17	0	1000	1	119	15:17:14	2902780	4	1	1	1	1	1	1	1	1	8	7	3	0	0	0	5	5
090412	15:17:14	10017	Trial2BackEngS	YS	17	57	618	1	119	15:17:14	2903927	4	1	1	1	1	1	1	1	1	8	7	3	0	0	0	5	5
090412	15:17:14	10017	Trial2BackEngS	NS	17	0	1000	1	119	15:17:14	2905806	4	1	1	1	1	1	1	1	1	8	7	3	0	0	0	5	5
090412	15:17:14	10017	Trial2BackEngS	NS	17	0	1000	1	119	15:17:14	2907325	4	1	1	1	1	1	1	1	1	8	7	3	0	0	0	5	5
090412	15:17:14	10017	Trial2BackEngS	NS	17	0	1000	1	119	15:17:14	2908845	4	1	1	1	1	1	1	1	1	8	7	3	0	0	0	5	5
090412	15:17:14	10017	Trial2BackEngS	NS	17	0	1000	1	119	15:17:14	2910364	4	1	1	1	1	1	1	1	1	8	7	3	0	0	0	5	5
090412	15:17:14	10017	Trial2BackEngS	NS	17	0	1000	1	119	15:17:14	2911883	4	1	1	1	1	1	1	1	1	8	7	3	0	0	0	5	5
090412	15:17:14	10017	Trial2BackEngS	NS	17	0	1000	1	119	15:17:14	2913403	4	1	1	1	1	1	1	1	1	8	7	3	0	0	0	5	5
090412	15:17:14	10017	Trial2BackEngS	NS	17	0	1000	1	119	15:17:14	2914922	4	1	1	1	1	1	1	1	1	8	7	3	0	0	0	5	5
090412	15:17:14	10017	Trial2BackEngS	NS	17	0	1000	1	119	15:17:14	2916442	4	1	1	1	1	1	1	1	1	8	7	3	0	0	0	5	5
090412	15:17:14	10017	Trial2BackEngS	NS	17	0	1000	1	119	15:17:14	2917961	4	1	1	1	1	1	1	1	1	8	7	3	0	0	0	5	5
090412	15:17:14	10017	Trial2BackEngS	NS	17	0	1000	1	119	15:17:14	2919480	4	1	1	1	1	1	1	1	1	8	7	3	0	0	0	5	5
090412	15:17:14	10017	Trial2BackEngS	YS	17	57	910	1	119	15:17:14	2920920	4	1	1	1	1	1	1	1	1	8	7	3	0	0	0	5	5
090412	15:17:14	10017	Trial2BackEngS	NS	17	0	1000	1	119	15:17:14	2922506	4	1	1	1	1	1	1	1	1	8	7	3	0	0	0	5	5
090412	15:17:14	10017	Trial2BackEngS	NS	17	0	1000	1	119	15:17:14	2924025	4	1	1	1	1	1	1	1	1	8	7	3	0	0	0	5	5
090412	15:17:14	10017	Trial2BackEngS	NS	17	0	1000	1	119	15:17:14	2925545	4	1	1	1	1	1	1	1	1	8	7	3	0	0	0	5	5
090412	15:17:14	10017	Trial2BackEngS	YS	17	0	1000	0	119	15:17:14	2927064	4	1	1	1	1	1	1	1	1	8	7	3	0	0	0	5	5
090412	15:17:14	10017	Trial2BackEngS	NS	17	0	1000	1	119	15:17:14	2928583	4	1	1	1	1	1	1	1	1	8	7	3	0	0	0	5	5
090412	15:17:14	10017	Trial2BackEngS	NS	17	0	1000	1	119	15:17:14	2930103	4	1	1	1	1	1	1	1	1	8	7	3	0	0	0	5	5
090412	15:17:14	10017	Trial2BackEngS	NS	17	0	1000	1	119	15:17:14	2931622	4	1	1	1	1	1	1	1	1	8	7	3	0	0	0	5	5
090412	15:17:14	10017	Trial2BackEngS	NS	17	0	1000	1	119	15:17:14	2933141	4	1	1	1	1	1	1	1	1	8	7	3	0	0	0	5	5
090412	15:17:14	10017	Trial2BackEngS	NS	17	0	1000	1	119	15:17:14	2934661	4	1	1	1	1	1	1	1	1	8	7	3	0	0	0	5	5
090412	15:17:14	10017	Trial2BackEngS	NS	17	0	1000	1	119	15:17:14	2936180	4	1	1	1	1	1	1	1	1	8	7	3	0	0	0	5	5
090412	15:17:14	10017	Trial2BackEngS	NS	17	0	1000	1	119	15:17:14	2937700	4	1	1	1	1	1	1	1	1	8	7	3	0	0	0	5	5
090412	15:17:14	10017	Trial2BackEngS	YS	17	0	1000	0	119	15:17:14	2939219	4	1	1	1	1	1	1	1	1	8	7	3	0	0	0	5	5
090412	15:17:14	10017	Trial2BackEngS	NS	17	0	1000	1	119	15:17:14	2940739	4	1	1	1	1	1	1	1	1	8	7	3	0	0	0	5	5
090412	15:17:14	10017	Trial2BackEngS	NS	17	0	1000	1	119	15:17:14	2942258	4	1	1	1	1	1	1	1	1	8	7	3	0	0	0	5	5
090412	15:17:14	10017	Trial2BackEngS	NS	17	0	1000	1	119	15:17:14	2943777	4	1	1	1	1	1	1	1	1	8	7	3	0	0	0	5	5
090412	15:17:14	10017	Trial2BackEngS	NS	17	0	1000	1	119	15:17:14	2945297	4	1	1	1	1	1	1	1	1	8	7	3	0	0	0	5	5
090412	15:17:14	10017	Trial2BackEngS	YS	17	0	1000	0	119	15:17:14	2946816	4	1	1	1	1	1	1	1	1	8	7	3	0	0	0	5	5
090412	15:17:14	10017	Trial2BackEngS	NS	17	0	1000	1	119	15:17:14	2948335	4	1	1	1	1	1	1	1	1	8	7	3	0	0	0	5	5
090412	15:17:14	10017	Trial2BackEngS	NS	17	0	1000	1	119	15:17:14	2949855	4	1	1	1	1	1	1	1	1	8	7	3	0	0	0	5	5
090412	15:17:14	10017	Trial2BackEngS	NS	17	0	1000	1	119	15:17:14	2951374	4	1	1	1	1	1	1	1	1	8	7	3	0	0	0	5	5
090412	15:17:14	10017	Trial2BackEngS	NS	17	0	1000	1	119	15:17:14	2952893	4	1	1	1	1	1	1	1	1	8	7	3	0	0	0	5	5
090412	15:17:14	10017	Trial2BackEngS	NS	17	0	1000	1	119	15:17:14	2954413	4	1	1	1	1	1	1	1	1	8	7	3	0	0	0	5	5
090412	15:17:14	10017	Trial2BackEngS	NS	17	0	1000	1	119	15:17:14	2955932	4	1	1	1	1	1	1	1	1	8	7	3	0	0	0	5	5
090412	15:17:14	10017	Trial2BackEngS	YS	17	0	1000	0	119	15:17:14	2957452	4	1	1	1	1	1	1	1	1	8	7	3	0	0	0	5	5
090412	15:17:14	10017	Trial2BackEngS	NS	17	0	1000	1	119	15:17:14	2958971	4	1	1	1	1	1	1	1	1	8	7	3	0	0	0	5	5
090412	15:17:14	10017	Trial2BackEngS	NS	17	0	1000	1	119	15:17:14	2960490	4	1	1	1	1	1	1	1	1	8	7	3	0	0	0	5	5
090412	15:17:14	10017	Trial2BackEngS	NS	17	0	1000	1	119	15:17:14	2962010	4	1	1	1	1	1	1	1	1	8	7	3	0	0	0	5	5
090412	15:17:14	10017	Trial2BackEngS	NS	17	0	1000	1	119	15:17:14	2963529	4	1	1	1	1	1	1	1	1	8	7	3	0	0	0	5	5
090412	15:17:14	10017	Trial2BackEngS	NS	17	0	1000	1	119	15:17:14	2965049	4	1	1	1	1	1	1	1	1	8	7	3	0	0	0	5	5
090412	15:17:14	10017	Trial2BackEngS	NS	17	0	1000	1	119	15:17:14	2966568	4	1	1	1	1	1	1	1	1	8	7	3	0	0	0	5	5
090412	15:17:14	10017	Trial2BackEngS	NS	17	0	1000	1	119	15:17:14	2968087	4	1	1	1	1	1	1	1	1	8	7	3	0	0	0	5	5
090412	15:17:14	10017	Trial2BackEngS	YS	17	0	1000	0	119	15:17:14	2969607	4	1	1	1	1	1	1	1	1	8	7	3	0	0	0	5	5
090412	15:17:14	10017	Trial2BackEngS	NS	17	0	1000	1	119	15:17:14	2971126	4	1	1	1	1	1	1	1	1	8	7	3	0	0	0	5	5
090412	15:17:14	10017	Trial2BackEngS	NS	17	0	1000	1	119	15:17:14	2972646	4	1	1	1	1	1	1	1	1	8	7	3	0	0	0	5	5
090412	15:17:14	10017	Trial2BackEngS	NS	17	0	1000	1	119	15:17:14	2974165	4	1	1	1	1	1	1	1	1	8	7	3	0	0	0	5	5
090412	15:17:14	10017	Trial2BackEngS	NS	17	0	1000	1	119	15:17:14	2975685	4	1	1	1	1	1	1	1	1	8	7	3	0	0	0	5	5
090412	15:17:14	10017	Trial2BackEngS	YS	17	0	1000	0	119	15:17:14	2977204	4	1	1	1	1	1	1	1	1	8	7	3	0	0	0	5	5
090412	15:17:14	10017	Trial2BackEngS	NS	17	0	1000	1	119	15:17:14	2978723	4	1	1	1	1	1	1	1	1	8	7	3	0	0	0	5	5
090412	15:17:14	10017	Trial2BackEngS	NS	17	0	1000	1	119	15:17:14	2980242	4	1	1	1	1	1	1	1	1	8	7	3	0	0	0	5	5
090412	15:17:14	10017	Trial2BackEngS	YS	17	0	1000	0	119	15:17:14	2981762	4	1	1	1	1	1	1	1	1	8	7	3	0	0	0	5	5
090412	15:17:14	10017	Trial2BackEngS	NS	17	0	1000	1	119	15:17:14	2983281	4	1	1	1	1	1	1	1	1	8	7	3	0	0	0	5	5
090412	15:17:14	10017	Trial2BackEngS	NS	17	0	1000	1	119	15:17:14	2984801	4	1	1	1	1	1	1	1	1	8	7	3	0	0	0	5	5
090412	15:17:14	10017	Trial2BackEngS	NS	17	0	1000	1	119	15:17:14	2986320	4	1	1	1	1	1	1	1	1	8	7	3	0	0	0	5	5
090412	15:17:14	10017	Trial2BackEngS	NS	17	0	1000	1	119	15:17:14	2987839	4	1	1	1	1	1	1	1	1	8	7	3	0	0	0	5	5
090412	15:17:14	10017	Trial2BackEngS	NS	17	0	1000	1	119	15:17:14	2989359	4	1	1	1	1	1	1	1	1	8	7	3	0	0	0	5	5
090412	15:17:14	10017	Trial2BackEngS	NS	17	0	1000	1	119	15:17:14	2990878	4	1	1	1	1	1	1	1	1	8	7	3	0	0	0	5	5
090412	15:17:14	10017	Trial2BackEngS	YS	17	0	1000	0	119	15:17:14	2992398	4	1	1	1	1	1	1	1	1	8	7	3	0	0	0	5	5
090412	15:17:14	10017	Trial2BackEngS	NS	17	0	1000	1	119	15:17:14	2993917	4	1	1	1	1	1	1	1	1	8	7	3	0	0	0	5	5
090412	15:17:14	10017	Trial2BackEngS	NS	17	0	1000	1	119	15:17:14	2995436	4	1	1	1	1	1	1	1	1	8	7	3	0	0	0	5	5
090412	15:17:14	10017	Trial2BackEngS	NS	17	0	1000	1	119	15:17:14	2996956	4	1	1	1	1	1	1	1	1	8	7	3	0	0	0	5	5
090412	15:17:14	10017	Trial2BackEngS	NS	17	0	1000	1	119	15:17:14	2998475	4	1	1	1	1	1	1	1	1	8	7	3	0	0	0	5	5
090412	15:17:14	10017	Trial2BackEngS	YS	17	0	1000	0	119	15:17:14	2999994	4	1	1	1	1	1	1	1	1	8	7	3	0	0	0	5	5
090412	15:17:14	10017	Trial2BackEngS	NS	17	0	1000	1	119	15:17:14	3001514	4	1	1	1	1	1	1	1	1	8	7	3	0	0	0	5	5
090412	15:17:14	10017	Trial2BackEngS	NS	17	0	1000	1	119	15:17:14	3003033	4	1	1	1	1	1	1	1	1	8	7	3	0	0	0	5	5
090412	15:17:14	10017	Trial2BackEngS	NS	17	0	1000	1	119	15:17:14	3004553	4	1	1	1	1	1	1	1	1	8	7	3	0	0	0	5	5
090412	15:17:14	10017	Trial2BackEngS	NS	17	0	1000	1	119	15:17:14	3006072	4	1	1	1	1	1	1	1	1	8	7	3	0	0	0	5	5
090412	15:17:14	10017	Trial2BackEngS	YS	17	0	1000	0	119	15:17:14	3007591	4	1	1	1	1	1	1	1	1	8	7	3	0	0	0	5	5
090412	15:17:14	10017	Trial2BackEngS	NS	17	0	1000	1	119	15:17:14	3009111	4	1	1	1	1	1	1	1	1	8	7	3	0	0	0	5	5
090412	15:17:14	10017	Trial2BackEngS	NS	17	0	1000	1	119	15:17:14	3010630	4	1	1	1	1	1	1	1	1	8	7	3	0	0	0	5	5
090412	15:17:14	10017	Trial2BackEngS	YS	17	57	398	1	119	15:17:14	3011550	4	1	1	1	1	1	1	1	1	8	7	3	0	0	0	5	5
090412	15:17:14	10017	Trial2BackEngS	NS	17	0	1000	1	119	15:17:14	3013656	4	1	1	1	1	1	1	1	1	8	7	3	0	0	0	5	5
090412	15:17:14	10017	Trial2BackEngS	NS	17	0	1000	1	119	15:17:14	3015175	4	1	1	1	1	1	1	1	1	8	7	3	0	0	0	5	5
090412	15:17:14	10017	Trial2BackEngS	NS	17	0	1000	1	119	15:17:14	3016694	4	1	1	1	1	1	1	1	1	8	7	3	0	0	0	5	5
090412	15:17:14	10017	Trial2BackEngS	NS	17	0	1000	1	119	15:17:14	3018214	4	1	1	1	1	1	1	1	1	8	7	3	0	0	0	5	5
090412	15:17:14	10017	Trial2BackEngS	NS	17	0	1000	1	119	15:17:14	3019733	4	1	1	1	1	1	1	1	1	8	7	3	0	0	0	5	5
090412	15:17:14	10017	Trial2BackEngS	NS	17	0	1000	1	119	15:17:14	3021253	4	1	1	1	1	1	1	1	1	8	7	3	0	0	0	5	5
090412	15:17:14	10017	Trial2BackEngS	NS	17	0	1000	1	119	15:17:14	3022772	4	1	1	1	1	1	1	1	1	8	7	3	0	0	0	5	5
090412	15:17:14	10017	Trial2BackEngS	NS	17	0	1000	1	119	15:17:14	3024291	4	1	1	1	1	1	1	1	1	8	7	3	0	0	0	5	5
090412	15:17:14	10017	Trial2BackEngS	YS	17	57	961	1	119	15:17:14	3025784	4	1	1	1	1	1	1	1	1	8	7	3	0	0	0	5	5
090412	15:17:14	10017	Trial2BackEngS	NS	17	0	1000	1	119	15:17:14	3027317	4	1	1	1	1	1	1	1	1	8	7	3	0	0	0	5	5
090412	15:17:14	10017	Trial2BackEngS	NS	17	0	1000	1	119	15:17:14	3028836	4	1	1	1	1	1	1	1	1	8	7	3	0	0	0	5	5
090412	15:17:14	10017	Trial2BackEngS	NS	17	0	1000	1	119	15:17:14	3030356	4	1	1	1	1	1	1	1	1	8	7	3	0	0	0	5	5
090412	15:17:14	10017	Trial2BackEngS	NS	17	0	1000	1	119	15:17:14	3031875	4	1	1	1	1	1	1	1	1	8	7	3	0	0	0	5	5
090412	15:17:14	10017	Trial2BackEngS	NS	17	0	1000	1	119	15:17:14	3033394	4	1	1	1	1	1	1	1	1	8	7	3	0	0	0	5	5
090412	15:17:14	10017	Trial2BackEngS	NS	17	0	1000	1	119	15:17:14	3034914	4	1	1	1	1	1	1	1	1	8	7	3	0	0	0	5	5
090412	15:17:14	10017	Trial2BackEngS	NS	17	0	1000	1	119	15:17:14	3036433	4	1	1	1	1	1	1	1	1	8	7	3	0	0	0	5	5
090412	15:17:14	10017	Trial2BackEngS	YS	17	0	1000	0	119	15:17:14	3037952	4	1	1	1	1	1	1	1	1	8	7	3	0	0	0	5	5
090412	15:17:14	10017	Trial2BackEngS	NS	17	0	1000	1	119	15:17:14	3039472	4	1	1	1	1	1	1	1	1	8	7	3	0	0	0	5	5
090412	15:17:14	10017	Trial2BackEngS	NS	17	0	1000	1	119	15:17:14	3040991	4	1	1	1	1	1	1	1	1	8	7	3	0	0	0	5	5
090412	15:17:14	10017	Trial2BackEngS	NS	17	0	1000	1	119	15:17:14	3042511	4	1	1	1	1	1	1	1	1	8	7	3	0	0	0	5	5
090412	15:17:14	10017	Trial2BackEngS	NS	17	0	1000	1	119	15:17:14	3044030	4	1	1	1	1	1	1	1	1	8	7	3	0	0	0	5	5
090412	15:17:14	10017	Trial2BackEngS	NS	17	0	1000	1	119	15:17:14	3045549	4	1	1	1	1	1	1	1	1	8	7	3	0	0	0	5	5
090412	15:17:14	10017	Trial2BackEngS	NS	17	0	1000	1	119	15:17:14	3047069	4	1	1	1	1	1	1	1	1	8	7	3	0	0	0	5	5
090412	15:17:14	10017	Trial2BackEngS	NS	17	0	1000	1	119	15:17:14	3048588	4	1	1	1	1	1	1	1	1	8	7	3	0	0	0	5	5
090412	15:17:14	10017	Trial2BackEngS	NS	17	0	1000	1	119	15:17:14	3050108	4	1	1	1	1	1	1	1	1	8	7	3	0	0	0	5	5
090412	15:17:14	10017	Trial2BackEngS	NS	17	0	1000	1	119	15:17:14	3051627	4	1	1	1	1	1	1	1	1	8	7	3	0	0	0	5	5
090412	15:17:14	10017	Trial2BackEngS	YS	17	0	1000	0	119	15:17:14	3053146	4	1	1	1	1	1	1	1	1	8	7	3	0	0	0	5	5
090412	15:17:14	10017	Trial2BackEngS	NS	17	0	1000	1	119	15:17:14	3054666	4	1	1	1	1	1	1	1	1	8	7	3	0	0	0	5	5
090412	15:17:14	10017	ClockEng3mo	ClockEng3mo	19	Clock1	52286	0	119	15:17:14	3107058	4	1	1	1	1	1	1	1	1	8	7	3	1	0	0	5	5
090412	15:17:14	10017	ClockEng3mo	ClockEng3mo	19	Clock11	2042	0	119	15:17:14	3109137	4	1	1	1	1	1	1	1	1	8	7	3	1	1	0	5	5
090412	15:17:14	10017	ClockEng3mo	ClockEng3mo	19	Clock111	499	0	119	15:17:14	3109670	4	1	1	1	1	1	1	1	1	8	7	3	1	1	1	5	5
090412	15:17:14	10017	ClockEng3mo	ClockEng3mo	19	Clockdone	510	0	119	15:17:14	3110217	4	1	1	1	1	1	1	1	1	8	7	3	1	1	1	5	5
090412	15:17:14	10017	FASEngVF3mo	StopEngVF3mo	20	16	10423	0	119	15:17:14	3214697	4	1	1	1	1	1	1	1	1	8	7	3	1	1	1	5	5
