date	time	subject	blockcode	trialcode	values.TaskNumber	response	latency	correct	values.Score	script.starttime	script.elapsedtime	values.ScoreS7	values.Word1	values.Word2	values.Word3	values.Word4	values.Word5	values.Word6	values.Word7	values.Word8	values.DigitSpanFwrd	values.DigitSpanBack	values.ScoreAbs	values.Contour	values.Numbers	values.Hands	values.corsiblockspanFwrd	values.corsiblockspanRev
090712	14:05:29	10041	Language	Language	0	English	685083	0	0	14:05:29	685180	0	0	0	0	0	0	0	0	0	0	0	0	0	0	0	0	0
090712	14:05:29	10041	Session	Session	0	Baseline	1027	0	0	14:05:29	686312	0	0	0	0	0	0	0	0	0	0	0	0	0	0	0	0	0
090712	14:05:29	10041	HandEng	HandEng	0	Right	322702	0	0	14:05:29	1009097	0	0	0	0	0	0	0	0	0	0	0	0	0	0	0	0	0
090712	14:05:29	10041	CubeEng	CubeEng	1	1Cube	37149	0	0	14:05:29	1071032	0	0	0	0	0	0	0	0	0	0	0	0	0	0	0	0	0
090712	14:05:29	10041	pm.simpleEngRight	blank.simpleEng	2	0	1987	1	0	14:05:29	1107816	0	0	0	0	0	0	0	0	0	0	0	0	0	0	0	0	0
090712	14:05:29	10041	pm.simpleEngRight	pm.simpleEng	2	57	640	0	0	14:05:29	1108496	0	0	0	0	0	0	0	0	0	0	0	0	0	0	0	0	0
090712	14:05:29	10041	pm.simpleEngRight	blank.simpleEng	2	57	153	0	0	14:05:29	1109682	0	0	0	0	0	0	0	0	0	0	0	0	0	0	0	0	0
090712	14:05:29	10041	pm.simpleEngRight	blank.simpleEng	2	0	1887	1	0	14:05:29	1112014	0	0	0	0	0	0	0	0	0	0	0	0	0	0	0	0	0
090712	14:05:29	10041	pm.simpleEngRight	pm.simpleEng	2	57	666	0	0	14:05:29	1112721	0	0	0	0	0	0	0	0	0	0	0	0	0	0	0	0	0
090712	14:05:29	10041	pm.simpleEngRight	blank.simpleEng	2	57	183	0	0	14:05:29	1113947	0	0	0	0	0	0	0	0	0	0	0	0	0	0	0	0	0
090712	14:05:29	10041	pm.simpleEngRight	blank.simpleEng	2	0	1487	1	0	14:05:29	1116333	0	0	0	0	0	0	0	0	0	0	0	0	0	0	0	0	0
090712	14:05:29	10041	pm.simpleEngRight	pm.simpleEng	2	57	619	0	0	14:05:29	1116986	0	0	0	0	0	0	0	0	0	0	0	0	0	0	0	0	0
090712	14:05:29	10041	pm.simpleEngRight	blank.simpleEng	2	0	1687	1	0	14:05:29	1118692	0	0	0	0	0	0	0	0	0	0	0	0	0	0	0	0	0
090712	14:05:29	10041	pm.simpleEngRight	pm.simpleEng	2	57	1828	0	0	14:05:29	1120557	0	0	0	0	0	0	0	0	0	0	0	0	0	0	0	0	0
090712	14:05:29	10041	pm.simpleEngRight	blank.simpleEng	2	0	2487	1	0	14:05:29	1123077	0	0	0	0	0	0	0	0	0	0	0	0	0	0	0	0	0
090712	14:05:29	10041	pm.simpleEngRight	pm.simpleEng	2	57	515	0	0	14:05:29	1123623	0	0	0	0	0	0	0	0	0	0	0	0	0	0	0	0	0
090712	14:05:29	10041	pm.simpleEngRight	blank.simpleEng	2	0	2187	1	0	14:05:29	1125835	0	0	0	0	0	0	0	0	0	0	0	0	0	0	0	0	0
090712	14:05:29	10041	pm.simpleEngRight	pm.simpleEng	2	57	444	0	0	14:05:29	1126315	0	0	0	0	0	0	0	0	0	0	0	0	0	0	0	0	0
090712	14:05:29	10041	pm.simpleEngRight	blank.simpleEng	2	0	2387	1	0	14:05:29	1128728	0	0	0	0	0	0	0	0	0	0	0	0	0	0	0	0	0
090712	14:05:29	10041	pm.simpleEngRight	pm.simpleEng	2	57	448	0	0	14:05:29	1129207	0	0	0	0	0	0	0	0	0	0	0	0	0	0	0	0	0
090712	14:05:29	10041	pm.simpleEngRight	blank.simpleEng	2	0	2287	1	0	14:05:29	1131526	0	0	0	0	0	0	0	0	0	0	0	0	0	0	0	0	0
090712	14:05:29	10041	pm.simpleEngRight	pm.simpleEng	2	57	417	0	0	14:05:29	1131979	0	0	0	0	0	0	0	0	0	0	0	0	0	0	0	0	0
090712	14:05:29	10041	pm.simpleEngRight	blank.simpleEng	2	0	1787	1	0	14:05:29	1133792	0	0	0	0	0	0	0	0	0	0	0	0	0	0	0	0	0
090712	14:05:29	10041	pm.simpleEngRight	pm.simpleEng	2	57	471	0	0	14:05:29	1134298	0	0	0	0	0	0	0	0	0	0	0	0	0	0	0	0	0
090712	14:05:29	10041	pm.simpleEngRight	blank.simpleEng	2	0	2187	1	0	14:05:29	1136511	0	0	0	0	0	0	0	0	0	0	0	0	0	0	0	0	0
090712	14:05:29	10041	pm.simpleEngRight	pm.simpleEng	2	57	424	0	0	14:05:29	1136978	0	0	0	0	0	0	0	0	0	0	0	0	0	0	0	0	0
090712	14:05:29	10041	pm.simpleEngRight	blank.simpleEng	2	0	2387	1	0	14:05:29	1139390	0	0	0	0	0	0	0	0	0	0	0	0	0	0	0	0	0
090712	14:05:29	10041	pm.simpleEngRight	pm.simpleEng	2	57	345	0	0	14:05:29	1139776	0	0	0	0	0	0	0	0	0	0	0	0	0	0	0	0	0
090712	14:05:29	10041	pm.simpleEngRight	blank.simpleEng	2	0	2287	1	0	14:05:29	1142082	0	0	0	0	0	0	0	0	0	0	0	0	0	0	0	0	0
090712	14:05:29	10041	pm.simpleEngRight	pm.simpleEng	2	57	389	0	0	14:05:29	1142509	0	0	0	0	0	0	0	0	0	0	0	0	0	0	0	0	0
090712	14:05:29	10041	pm.simpleEngRight	blank.simpleEng	2	0	1487	1	0	14:05:29	1144015	0	0	0	0	0	0	0	0	0	0	0	0	0	0	0	0	0
090712	14:05:29	10041	pm.simpleEngRight	pm.simpleEng	2	57	488	0	0	14:05:29	1144534	0	0	0	0	0	0	0	0	0	0	0	0	0	0	0	0	0
090712	14:05:29	10041	pm.simpleEngRight	blank.simpleEng	2	0	1587	1	0	14:05:29	1146147	0	0	0	0	0	0	0	0	0	0	0	0	0	0	0	0	0
090712	14:05:29	10041	pm.simpleEngRight	pm.simpleEng	2	57	452	0	0	14:05:29	1146640	0	0	0	0	0	0	0	0	0	0	0	0	0	0	0	0	0
090712	14:05:29	10041	pm.simpleEngRight	blank.simpleEng	2	0	1787	1	0	14:05:29	1148453	0	0	0	0	0	0	0	0	0	0	0	0	0	0	0	0	0
090712	14:05:29	10041	pm.simpleEngRight	pm.simpleEng	2	57	418	0	0	14:05:29	1148906	0	0	0	0	0	0	0	0	0	0	0	0	0	0	0	0	0
090712	14:05:29	10041	pm.simpleEngRight	blank.simpleEng	2	0	1887	1	0	14:05:29	1150825	0	0	0	0	0	0	0	0	0	0	0	0	0	0	0	0	0
090712	14:05:29	10041	pm.simpleEngRight	pm.simpleEng	2	57	366	0	0	14:05:29	1151225	0	0	0	0	0	0	0	0	0	0	0	0	0	0	0	0	0
090712	14:05:29	10041	pm.simpleEngRight	blank.simpleEng	2	0	2487	1	0	14:05:29	1153744	0	0	0	0	0	0	0	0	0	0	0	0	0	0	0	0	0
090712	14:05:29	10041	pm.simpleEngRight	pm.simpleEng	2	57	375	0	0	14:05:29	1154157	0	0	0	0	0	0	0	0	0	0	0	0	0	0	0	0	0
090712	14:05:29	10041	pm.simpleEngRight	blank.simpleEng	2	0	2087	1	0	14:05:29	1156276	0	0	0	0	0	0	0	0	0	0	0	0	0	0	0	0	0
090712	14:05:29	10041	pm.simpleEngRight	pm.simpleEng	2	57	371	0	0	14:05:29	1156689	0	0	0	0	0	0	0	0	0	0	0	0	0	0	0	0	0
090712	14:05:29	10041	pm.simpleEngRight	blank.simpleEng	2	0	1987	1	0	14:05:29	1158702	0	0	0	0	0	0	0	0	0	0	0	0	0	0	0	0	0
090712	14:05:29	10041	pm.simpleEngRight	pm.simpleEng	2	57	361	0	0	14:05:29	1159102	0	0	0	0	0	0	0	0	0	0	0	0	0	0	0	0	0
090712	14:05:29	10041	pm.simpleEngRight	blank.simpleEng	2	0	1687	1	0	14:05:29	1160808	0	0	0	0	0	0	0	0	0	0	0	0	0	0	0	0	0
090712	14:05:29	10041	pm.simpleEngRight	pm.simpleEng	2	57	383	0	0	14:05:29	1161221	0	0	0	0	0	0	0	0	0	0	0	0	0	0	0	0	0
090712	14:05:29	10041	pm.simpleEngRight	blank.simpleEng	2	0	2087	1	0	14:05:29	1163340	0	0	0	0	0	0	0	0	0	0	0	0	0	0	0	0	0
090712	14:05:29	10041	pm.simpleEngRight	pm.simpleEng	2	57	411	0	0	14:05:29	1163793	0	0	0	0	0	0	0	0	0	0	0	0	0	0	0	0	0
090712	14:05:29	10041	pm.simpleEngRight	blank.simpleEng	2	0	2187	1	0	14:05:29	1166005	0	0	0	0	0	0	0	0	0	0	0	0	0	0	0	0	0
090712	14:05:29	10041	pm.simpleEngRight	pm.simpleEng	2	57	369	0	0	14:05:29	1166405	0	0	0	0	0	0	0	0	0	0	0	0	0	0	0	0	0
090712	14:05:29	10041	pm.simpleEngRight	blank.simpleEng	2	0	1587	1	0	14:05:29	1168018	0	0	0	0	0	0	0	0	0	0	0	0	0	0	0	0	0
090712	14:05:29	10041	pm.simpleEngRight	pm.simpleEng	2	57	373	0	0	14:05:29	1168431	0	0	0	0	0	0	0	0	0	0	0	0	0	0	0	0	0
090712	14:05:29	10041	pm.simpleEngRight	blank.simpleEng	2	0	1487	1	0	14:05:29	1169937	0	0	0	0	0	0	0	0	0	0	0	0	0	0	0	0	0
090712	14:05:29	10041	pm.simpleEngRight	pm.simpleEng	2	57	357	0	0	14:05:29	1170337	0	0	0	0	0	0	0	0	0	0	0	0	0	0	0	0	0
090712	14:05:29	10041	pm.simpleEngRight	blank.simpleEng	2	0	1887	1	0	14:05:29	1172243	0	0	0	0	0	0	0	0	0	0	0	0	0	0	0	0	0
090712	14:05:29	10041	pm.simpleEngRight	pm.simpleEng	2	57	387	0	0	14:05:29	1172669	0	0	0	0	0	0	0	0	0	0	0	0	0	0	0	0	0
090712	14:05:29	10041	pm.simpleEngRight	blank.simpleEng	2	0	1987	1	0	14:05:29	1174682	0	0	0	0	0	0	0	0	0	0	0	0	0	0	0	0	0
090712	14:05:29	10041	pm.simpleEngRight	pm.simpleEng	2	57	348	0	0	14:05:29	1175068	0	0	0	0	0	0	0	0	0	0	0	0	0	0	0	0	0
090712	14:05:29	10041	pm.simpleEngRight	blank.simpleEng	2	0	1787	1	0	14:05:29	1176881	0	0	0	0	0	0	0	0	0	0	0	0	0	0	0	0	0
090712	14:05:29	10041	pm.simpleEngRight	pm.simpleEng	2	57	405	0	0	14:05:29	1177321	0	0	0	0	0	0	0	0	0	0	0	0	0	0	0	0	0
090712	14:05:29	10041	pm.simpleEngRight	blank.simpleEng	2	0	2287	1	0	14:05:29	1179640	0	0	0	0	0	0	0	0	0	0	0	0	0	0	0	0	0
090712	14:05:29	10041	pm.simpleEngRight	pm.simpleEng	2	57	398	0	0	14:05:29	1180080	0	0	0	0	0	0	0	0	0	0	0	0	0	0	0	0	0
090712	14:05:29	10041	pm.simpleEngRight	blank.simpleEng	2	0	1687	1	0	14:05:29	1181785	0	0	0	0	0	0	0	0	0	0	0	0	0	0	0	0	0
090712	14:05:29	10041	pm.simpleEngRight	pm.simpleEng	2	57	364	0	0	14:05:29	1182185	0	0	0	0	0	0	0	0	0	0	0	0	0	0	0	0	0
090712	14:05:29	10041	pm.simpleEngRight	blank.simpleEng	2	0	2487	1	0	14:05:29	1184704	0	0	0	0	0	0	0	0	0	0	0	0	0	0	0	0	0
090712	14:05:29	10041	pm.simpleEngRight	pm.simpleEng	2	57	341	0	0	14:05:29	1185078	0	0	0	0	0	0	0	0	0	0	0	0	0	0	0	0	0
090712	14:05:29	10041	pm.simpleEngRight	blank.simpleEng	2	0	2387	1	0	14:05:29	1187490	0	0	0	0	0	0	0	0	0	0	0	0	0	0	0	0	0
090712	14:05:29	10041	pm.simpleEngRight	pm.simpleEng	2	57	324	0	0	14:05:29	1187850	0	0	0	0	0	0	0	0	0	0	0	0	0	0	0	0	0
090712	14:05:29	10041	pm.simpleEngRight	blank.simpleEng	2	0	1787	1	0	14:05:29	1189662	0	0	0	0	0	0	0	0	0	0	0	0	0	0	0	0	0
090712	14:05:29	10041	pm.simpleEngRight	pm.simpleEng	2	57	423	0	0	14:05:29	1190116	0	0	0	0	0	0	0	0	0	0	0	0	0	0	0	0	0
090712	14:05:29	10041	pm.simpleEngRight	blank.simpleEng	2	0	2287	1	0	14:05:29	1192434	0	0	0	0	0	0	0	0	0	0	0	0	0	0	0	0	0
090712	14:05:29	10041	pm.simpleEngRight	pm.simpleEng	2	57	355	0	0	14:05:29	1192821	0	0	0	0	0	0	0	0	0	0	0	0	0	0	0	0	0
090712	14:05:29	10041	pm.simpleEngRight	blank.simpleEng	2	0	2187	1	0	14:05:29	1195034	0	0	0	0	0	0	0	0	0	0	0	0	0	0	0	0	0
090712	14:05:29	10041	pm.simpleEngRight	pm.simpleEng	2	57	428	0	0	14:05:29	1195500	0	0	0	0	0	0	0	0	0	0	0	0	0	0	0	0	0
090712	14:05:29	10041	pm.simpleEngRight	blank.simpleEng	2	0	2487	1	0	14:05:29	1198019	0	0	0	0	0	0	0	0	0	0	0	0	0	0	0	0	0
090712	14:05:29	10041	pm.simpleEngRight	pm.simpleEng	2	57	338	0	0	14:05:29	1198392	0	0	0	0	0	0	0	0	0	0	0	0	0	0	0	0	0
090712	14:05:29	10041	pm.simpleEngRight	blank.simpleEng	2	0	1687	1	0	14:05:29	1200098	0	0	0	0	0	0	0	0	0	0	0	0	0	0	0	0	0
090712	14:05:29	10041	pm.simpleEngRight	pm.simpleEng	2	57	547	0	0	14:05:29	1200684	0	0	0	0	0	0	0	0	0	0	0	0	0	0	0	0	0
090712	14:05:29	10041	pm.simpleEngRight	blank.simpleEng	2	0	2087	1	0	14:05:29	1202804	0	0	0	0	0	0	0	0	0	0	0	0	0	0	0	0	0
090712	14:05:29	10041	pm.simpleEngRight	pm.simpleEng	2	57	418	0	0	14:05:29	1203257	0	0	0	0	0	0	0	0	0	0	0	0	0	0	0	0	0
090712	14:05:29	10041	pm.simpleEngRight	blank.simpleEng	2	0	1887	1	0	14:05:29	1205176	0	0	0	0	0	0	0	0	0	0	0	0	0	0	0	0	0
090712	14:05:29	10041	pm.simpleEngRight	pm.simpleEng	2	57	397	0	0	14:05:29	1205616	0	0	0	0	0	0	0	0	0	0	0	0	0	0	0	0	0
090712	14:05:29	10041	pm.simpleEngRight	blank.simpleEng	2	0	2387	1	0	14:05:29	1208028	0	0	0	0	0	0	0	0	0	0	0	0	0	0	0	0	0
090712	14:05:29	10041	pm.simpleEngRight	pm.simpleEng	2	57	329	0	0	14:05:29	1208388	0	0	0	0	0	0	0	0	0	0	0	0	0	0	0	0	0
090712	14:05:29	10041	pm.simpleEngRight	blank.simpleEng	2	0	1987	1	0	14:05:29	1210400	0	0	0	0	0	0	0	0	0	0	0	0	0	0	0	0	0
090712	14:05:29	10041	pm.simpleEngRight	pm.simpleEng	2	57	357	0	0	14:05:29	1210787	0	0	0	0	0	0	0	0	0	0	0	0	0	0	0	0	0
090712	14:05:29	10041	Trial2BackEng	N	3	0	1000	1	1	14:05:29	1316463	0	0	0	0	0	0	0	0	0	0	0	0	0	0	0	0	0
090712	14:05:29	10041	Trial2BackEng	N	3	0	1000	1	2	14:05:29	1317982	0	0	0	0	0	0	0	0	0	0	0	0	0	0	0	0	0
090712	14:05:29	10041	Trial2BackEng	N	3	0	1000	1	3	14:05:29	1319502	0	0	0	0	0	0	0	0	0	0	0	0	0	0	0	0	0
090712	14:05:29	10041	Trial2BackEng	N	3	0	1000	1	4	14:05:29	1321021	0	0	0	0	0	0	0	0	0	0	0	0	0	0	0	0	0
090712	14:05:29	10041	Trial2BackEng	N	3	0	1000	1	5	14:05:29	1322541	0	0	0	0	0	0	0	0	0	0	0	0	0	0	0	0	0
090712	14:05:29	10041	Trial2BackEng	N	3	0	1000	1	6	14:05:29	1324060	0	0	0	0	0	0	0	0	0	0	0	0	0	0	0	0	0
090712	14:05:29	10041	Trial2BackEng	N	3	0	1000	1	7	14:05:29	1325579	0	0	0	0	0	0	0	0	0	0	0	0	0	0	0	0	0
090712	14:05:29	10041	Trial2BackEng	N	3	0	1000	1	8	14:05:29	1327098	0	0	0	0	0	0	0	0	0	0	0	0	0	0	0	0	0
090712	14:05:29	10041	Trial2BackEng	Y	3	0	1000	0	8	14:05:29	1328618	0	0	0	0	0	0	0	0	0	0	0	0	0	0	0	0	0
090712	14:05:29	10041	Trial2BackEng	N	3	0	1000	1	9	14:05:29	1330137	0	0	0	0	0	0	0	0	0	0	0	0	0	0	0	0	0
090712	14:05:29	10041	Trial2BackEng	N	3	0	1000	1	10	14:05:29	1331657	0	0	0	0	0	0	0	0	0	0	0	0	0	0	0	0	0
090712	14:05:29	10041	Trial2BackEng	N	3	0	1000	1	11	14:05:29	1333176	0	0	0	0	0	0	0	0	0	0	0	0	0	0	0	0	0
090712	14:05:29	10041	Trial2BackEng	Y	3	0	1000	0	11	14:05:29	1334695	0	0	0	0	0	0	0	0	0	0	0	0	0	0	0	0	0
090712	14:05:29	10041	Trial2BackEng	N	3	0	1000	1	12	14:05:29	1336215	0	0	0	0	0	0	0	0	0	0	0	0	0	0	0	0	0
090712	14:05:29	10041	Trial2BackEng	N	3	0	1000	1	13	14:05:29	1337734	0	0	0	0	0	0	0	0	0	0	0	0	0	0	0	0	0
090712	14:05:29	10041	Trial2BackEng	N	3	0	1000	1	14	14:05:29	1339254	0	0	0	0	0	0	0	0	0	0	0	0	0	0	0	0	0
090712	14:05:29	10041	Trial2BackEng	N	3	0	1000	1	15	14:05:29	1340773	0	0	0	0	0	0	0	0	0	0	0	0	0	0	0	0	0
090712	14:05:29	10041	Trial2BackEng	N	3	0	1000	1	16	14:05:29	1342292	0	0	0	0	0	0	0	0	0	0	0	0	0	0	0	0	0
090712	14:05:29	10041	Trial2BackEng	Y	3	0	1000	0	16	14:05:29	1343812	0	0	0	0	0	0	0	0	0	0	0	0	0	0	0	0	0
090712	14:05:29	10041	Trial2BackEng	N	3	0	1000	1	17	14:05:29	1345331	0	0	0	0	0	0	0	0	0	0	0	0	0	0	0	0	0
090712	14:05:29	10041	Trial2BackEng	N	3	0	1000	1	18	14:05:29	1346850	0	0	0	0	0	0	0	0	0	0	0	0	0	0	0	0	0
090712	14:05:29	10041	Trial2BackEng	N	3	0	1000	1	19	14:05:29	1348370	0	0	0	0	0	0	0	0	0	0	0	0	0	0	0	0	0
090712	14:05:29	10041	Trial2BackEng	N	3	0	1000	1	20	14:05:29	1349889	0	0	0	0	0	0	0	0	0	0	0	0	0	0	0	0	0
090712	14:05:29	10041	Trial2BackEng	Y	3	0	1000	0	20	14:05:29	1351409	0	0	0	0	0	0	0	0	0	0	0	0	0	0	0	0	0
090712	14:05:29	10041	Trial2BackEng	N	3	0	1000	1	21	14:05:29	1352928	0	0	0	0	0	0	0	0	0	0	0	0	0	0	0	0	0
090712	14:05:29	10041	Trial2BackEng	N	3	0	1000	1	22	14:05:29	1354447	0	0	0	0	0	0	0	0	0	0	0	0	0	0	0	0	0
090712	14:05:29	10041	Trial2BackEng	N	3	0	1000	1	23	14:05:29	1355967	0	0	0	0	0	0	0	0	0	0	0	0	0	0	0	0	0
090712	14:05:29	10041	Trial2BackEng	N	3	0	1000	1	24	14:05:29	1357486	0	0	0	0	0	0	0	0	0	0	0	0	0	0	0	0	0
090712	14:05:29	10041	Trial2BackEng	N	3	0	1000	1	25	14:05:29	1359005	0	0	0	0	0	0	0	0	0	0	0	0	0	0	0	0	0
090712	14:05:29	10041	Trial2BackEng	N	3	0	1000	1	26	14:05:29	1360525	0	0	0	0	0	0	0	0	0	0	0	0	0	0	0	0	0
090712	14:05:29	10041	Trial2BackEng	Y	3	0	1000	0	26	14:05:29	1362044	0	0	0	0	0	0	0	0	0	0	0	0	0	0	0	0	0
090712	14:05:29	10041	Trial2BackEng	N	3	0	1000	1	27	14:05:29	1363564	0	0	0	0	0	0	0	0	0	0	0	0	0	0	0	0	0
090712	14:05:29	10041	Trial2BackEng	N	3	57	489	0	27	14:05:29	1364576	0	0	0	0	0	0	0	0	0	0	0	0	0	0	0	0	0
090712	14:05:29	10041	Trial2BackEng	N	3	0	1000	1	28	14:05:29	1366589	0	0	0	0	0	0	0	0	0	0	0	0	0	0	0	0	0
090712	14:05:29	10041	Trial2BackEng	Y	3	57	855	1	29	14:05:29	1367975	0	0	0	0	0	0	0	0	0	0	0	0	0	0	0	0	0
090712	14:05:29	10041	Trial2BackEng	N	3	0	1000	1	30	14:05:29	1369614	0	0	0	0	0	0	0	0	0	0	0	0	0	0	0	0	0
090712	14:05:29	10041	Trial2BackEng	N	3	0	1000	1	31	14:05:29	1371134	0	0	0	0	0	0	0	0	0	0	0	0	0	0	0	0	0
090712	14:05:29	10041	Trial2BackEng	N	3	0	1000	1	32	14:05:29	1372653	0	0	0	0	0	0	0	0	0	0	0	0	0	0	0	0	0
090712	14:05:29	10041	Trial2BackEng	N	3	0	1000	1	33	14:05:29	1374172	0	0	0	0	0	0	0	0	0	0	0	0	0	0	0	0	0
090712	14:05:29	10041	Trial2BackEng	N	3	0	1000	1	34	14:05:29	1375692	0	0	0	0	0	0	0	0	0	0	0	0	0	0	0	0	0
090712	14:05:29	10041	Trial2BackEng	N	3	0	1000	1	35	14:05:29	1377211	0	0	0	0	0	0	0	0	0	0	0	0	0	0	0	0	0
090712	14:05:29	10041	Trial2BackEng	Y	3	0	1000	0	35	14:05:29	1378731	0	0	0	0	0	0	0	0	0	0	0	0	0	0	0	0	0
090712	14:05:29	10041	Trial2BackEng	N	3	0	1000	1	36	14:05:29	1380250	0	0	0	0	0	0	0	0	0	0	0	0	0	0	0	0	0
090712	14:05:29	10041	Trial2BackEng	N	3	0	1000	1	37	14:05:29	1381769	0	0	0	0	0	0	0	0	0	0	0	0	0	0	0	0	0
090712	14:05:29	10041	Trial2BackEng	N	3	0	1000	1	38	14:05:29	1383289	0	0	0	0	0	0	0	0	0	0	0	0	0	0	0	0	0
090712	14:05:29	10041	Trial2BackEng	N	3	0	1000	1	39	14:05:29	1384808	0	0	0	0	0	0	0	0	0	0	0	0	0	0	0	0	0
090712	14:05:29	10041	Trial2BackEng	Y	3	0	1000	0	39	14:05:29	1386327	0	0	0	0	0	0	0	0	0	0	0	0	0	0	0	0	0
090712	14:05:29	10041	Trial2BackEng	N	3	0	1000	1	40	14:05:29	1387847	0	0	0	0	0	0	0	0	0	0	0	0	0	0	0	0	0
090712	14:05:29	10041	Trial2BackEng	N	3	0	1000	1	41	14:05:29	1389366	0	0	0	0	0	0	0	0	0	0	0	0	0	0	0	0	0
090712	14:05:29	10041	Trial2BackEng	N	3	0	1000	1	42	14:05:29	1390885	0	0	0	0	0	0	0	0	0	0	0	0	0	0	0	0	0
090712	14:05:29	10041	Trial2BackEng	N	3	0	1000	1	43	14:05:29	1392405	0	0	0	0	0	0	0	0	0	0	0	0	0	0	0	0	0
090712	14:05:29	10041	Trial2BackEng	N	3	0	1000	1	44	14:05:29	1393924	0	0	0	0	0	0	0	0	0	0	0	0	0	0	0	0	0
090712	14:05:29	10041	Trial2BackEng	Y	3	0	1000	0	44	14:05:29	1395444	0	0	0	0	0	0	0	0	0	0	0	0	0	0	0	0	0
090712	14:05:29	10041	Trial2BackEng	N	3	0	1000	1	45	14:05:29	1396963	0	0	0	0	0	0	0	0	0	0	0	0	0	0	0	0	0
090712	14:05:29	10041	Trial2BackEng	N	3	0	1000	1	46	14:05:29	1398482	0	0	0	0	0	0	0	0	0	0	0	0	0	0	0	0	0
090712	14:05:29	10041	Trial2BackEng	N	3	0	1000	1	47	14:05:29	1400002	0	0	0	0	0	0	0	0	0	0	0	0	0	0	0	0	0
090712	14:05:29	10041	Trial2BackEng	N	3	0	1000	1	48	14:05:29	1401521	0	0	0	0	0	0	0	0	0	0	0	0	0	0	0	0	0
090712	14:05:29	10041	Trial2BackEng	N	3	0	1000	1	49	14:05:29	1403041	0	0	0	0	0	0	0	0	0	0	0	0	0	0	0	0	0
090712	14:05:29	10041	Trial2BackEng	N	3	0	1000	1	50	14:05:29	1404560	0	0	0	0	0	0	0	0	0	0	0	0	0	0	0	0	0
090712	14:05:29	10041	Trial2BackEng	Y	3	0	1000	0	50	14:05:29	1406079	0	0	0	0	0	0	0	0	0	0	0	0	0	0	0	0	0
090712	14:05:29	10041	Trial2BackEng	N	3	0	1000	1	51	14:05:29	1407599	0	0	0	0	0	0	0	0	0	0	0	0	0	0	0	0	0
090712	14:05:29	10041	Trial2BackEng	N	3	0	1000	1	52	14:05:29	1409118	0	0	0	0	0	0	0	0	0	0	0	0	0	0	0	0	0
090712	14:05:29	10041	Trial2BackEng	Y	3	0	1000	0	52	14:05:29	1410637	0	0	0	0	0	0	0	0	0	0	0	0	0	0	0	0	0
090712	14:05:29	10041	Trial2BackEng	N	3	0	1000	1	53	14:05:29	1412157	0	0	0	0	0	0	0	0	0	0	0	0	0	0	0	0	0
090712	14:05:29	10041	Trial2BackEng	N	3	0	1000	1	54	14:05:29	1413676	0	0	0	0	0	0	0	0	0	0	0	0	0	0	0	0	0
090712	14:05:29	10041	Trial2BackEng	N	3	0	1000	1	55	14:05:29	1415195	0	0	0	0	0	0	0	0	0	0	0	0	0	0	0	0	0
090712	14:05:29	10041	Trial2BackEng	N	3	0	1000	1	56	14:05:29	1416715	0	0	0	0	0	0	0	0	0	0	0	0	0	0	0	0	0
090712	14:05:29	10041	Trial2BackEng	N	3	0	1000	1	57	14:05:29	1418234	0	0	0	0	0	0	0	0	0	0	0	0	0	0	0	0	0
090712	14:05:29	10041	Trial2BackEng	N	3	0	1000	1	58	14:05:29	1419754	0	0	0	0	0	0	0	0	0	0	0	0	0	0	0	0	0
090712	14:05:29	10041	Trial2BackEng	N	3	0	1000	1	59	14:05:29	1421273	0	0	0	0	0	0	0	0	0	0	0	0	0	0	0	0	0
090712	14:05:29	10041	Trial2BackEng	N	3	0	1000	1	60	14:05:29	1422792	0	0	0	0	0	0	0	0	0	0	0	0	0	0	0	0	0
090712	14:05:29	10041	Trial2BackEng	N	3	0	1000	1	61	14:05:29	1424312	0	0	0	0	0	0	0	0	0	0	0	0	0	0	0	0	0
090712	14:05:29	10041	Trial2BackEng	N	3	0	1000	1	62	14:05:29	1425831	0	0	0	0	0	0	0	0	0	0	0	0	0	0	0	0	0
090712	14:05:29	10041	Trial2BackEng	Y	3	0	1000	0	62	14:05:29	1427350	0	0	0	0	0	0	0	0	0	0	0	0	0	0	0	0	0
090712	14:05:29	10041	Trial2BackEng	N	3	0	1000	1	63	14:05:29	1428870	0	0	0	0	0	0	0	0	0	0	0	0	0	0	0	0	0
090712	14:05:29	10041	Trial2BackEng	N	3	0	1000	1	64	14:05:29	1430389	0	0	0	0	0	0	0	0	0	0	0	0	0	0	0	0	0
090712	14:05:29	10041	Trial2BackEng	N	3	0	1000	1	65	14:05:29	1431908	0	0	0	0	0	0	0	0	0	0	0	0	0	0	0	0	0
090712	14:05:29	10041	Trial2BackEng	Y	3	0	1000	0	65	14:05:29	1433428	0	0	0	0	0	0	0	0	0	0	0	0	0	0	0	0	0
090712	14:05:29	10041	Trial2BackEng	N	3	0	1000	1	66	14:05:29	1434947	0	0	0	0	0	0	0	0	0	0	0	0	0	0	0	0	0
090712	14:05:29	10041	Trial2BackEng	N	3	0	1000	1	67	14:05:29	1436467	0	0	0	0	0	0	0	0	0	0	0	0	0	0	0	0	0
090712	14:05:29	10041	Trial2BackEng	N	3	0	1000	1	68	14:05:29	1437986	0	0	0	0	0	0	0	0	0	0	0	0	0	0	0	0	0
090712	14:05:29	10041	Trial2BackEng	N	3	0	1000	1	69	14:05:29	1439505	0	0	0	0	0	0	0	0	0	0	0	0	0	0	0	0	0
090712	14:05:29	10041	Trial2BackEng	N	3	0	1000	1	70	14:05:29	1441025	0	0	0	0	0	0	0	0	0	0	0	0	0	0	0	0	0
090712	14:05:29	10041	Trial2BackEng	Y	3	0	1000	0	70	14:05:29	1442544	0	0	0	0	0	0	0	0	0	0	0	0	0	0	0	0	0
090712	14:05:29	10041	Trial2BackEng	N	3	0	1000	1	71	14:05:29	1444064	0	0	0	0	0	0	0	0	0	0	0	0	0	0	0	0	0
090712	14:05:29	10041	Trial2BackEng	N	3	0	1000	1	72	14:05:29	1445583	0	0	0	0	0	0	0	0	0	0	0	0	0	0	0	0	0
090712	14:05:29	10041	Trial2BackEng	N	3	0	1000	1	73	14:05:29	1447102	0	0	0	0	0	0	0	0	0	0	0	0	0	0	0	0	0
090712	14:05:29	10041	Trial2BackEng	N	3	0	1000	1	74	14:05:29	1448622	0	0	0	0	0	0	0	0	0	0	0	0	0	0	0	0	0
090712	14:05:29	10041	Trial2BackEng	N	3	0	1000	1	75	14:05:29	1450141	0	0	0	0	0	0	0	0	0	0	0	0	0	0	0	0	0
090712	14:05:29	10041	Trial2BackEng	N	3	0	1000	1	76	14:05:29	1451660	0	0	0	0	0	0	0	0	0	0	0	0	0	0	0	0	0
090712	14:05:29	10041	Trial2BackEng	N	3	0	1000	1	77	14:05:29	1453180	0	0	0	0	0	0	0	0	0	0	0	0	0	0	0	0	0
090712	14:05:29	10041	Trial2BackEng	N	3	0	1000	1	78	14:05:29	1454699	0	0	0	0	0	0	0	0	0	0	0	0	0	0	0	0	0
090712	14:05:29	10041	Trial2BackEng	N	3	0	1000	1	79	14:05:29	1456218	0	0	0	0	0	0	0	0	0	0	0	0	0	0	0	0	0
090712	14:05:29	10041	Trial2BackEng	Y	3	0	1000	0	79	14:05:29	1457738	0	0	0	0	0	0	0	0	0	0	0	0	0	0	0	0	0
090712	14:05:29	10041	Trial2BackEng	N	3	0	1000	1	80	14:05:29	1459257	0	0	0	0	0	0	0	0	0	0	0	0	0	0	0	0	0
090712	14:05:29	10041	Trial2BackEng	N	3	0	1000	1	81	14:05:29	1460776	0	0	0	0	0	0	0	0	0	0	0	0	0	0	0	0	0
090712	14:05:29	10041	Trial2BackEng	N	3	0	1000	1	82	14:05:29	1462296	0	0	0	0	0	0	0	0	0	0	0	0	0	0	0	0	0
090712	14:05:29	10041	Trial2BackEng	N	3	0	1000	1	83	14:05:29	1463842	0	0	0	0	0	0	0	0	0	0	0	0	0	0	0	0	0
090712	14:05:29	10041	Trial2BackEng	N	3	0	1000	1	84	14:05:29	1465361	0	0	0	0	0	0	0	0	0	0	0	0	0	0	0	0	0
090712	14:05:29	10041	Trial2BackEng	N	3	0	1000	1	85	14:05:29	1466880	0	0	0	0	0	0	0	0	0	0	0	0	0	0	0	0	0
090712	14:05:29	10041	Trial2BackEng	N	3	0	1000	1	86	14:05:29	1468400	0	0	0	0	0	0	0	0	0	0	0	0	0	0	0	0	0
090712	14:05:29	10041	Trial2BackEng	N	3	0	1000	1	87	14:05:29	1469919	0	0	0	0	0	0	0	0	0	0	0	0	0	0	0	0	0
090712	14:05:29	10041	Trial2BackEng	Y	3	0	1000	0	87	14:05:29	1471439	0	0	0	0	0	0	0	0	0	0	0	0	0	0	0	0	0
090712	14:05:29	10041	Trial2BackEng	N	3	0	1000	1	88	14:05:29	1472958	0	0	0	0	0	0	0	0	0	0	0	0	0	0	0	0	0
090712	14:05:29	10041	Trial2BackEng	N	3	0	1000	1	89	14:05:29	1474478	0	0	0	0	0	0	0	0	0	0	0	0	0	0	0	0	0
090712	14:05:29	10041	Trial2BackEng	N	3	57	452	0	89	14:05:29	1475464	0	0	0	0	0	0	0	0	0	0	0	0	0	0	0	0	0
090712	14:05:29	10041	Trial2BackEng	N	3	0	1000	1	90	14:05:29	1477503	0	0	0	0	0	0	0	0	0	0	0	0	0	0	0	0	0
090712	14:05:29	10041	Trial2BackEng	Y	3	57	690	1	91	14:05:29	1478716	0	0	0	0	0	0	0	0	0	0	0	0	0	0	0	0	0
090712	14:05:29	10041	Trial2BackEng	N	3	0	1000	1	92	14:05:29	1480528	0	0	0	0	0	0	0	0	0	0	0	0	0	0	0	0	0
090712	14:05:29	10041	Trial2BackEng	N	3	0	1000	1	93	14:05:29	1482048	0	0	0	0	0	0	0	0	0	0	0	0	0	0	0	0	0
090712	14:05:29	10041	Trial2BackEng	N	3	0	1000	1	94	14:05:29	1483567	0	0	0	0	0	0	0	0	0	0	0	0	0	0	0	0	0
090712	14:05:29	10041	Trial2BackEng	Y	3	0	1000	0	94	14:05:29	1485086	0	0	0	0	0	0	0	0	0	0	0	0	0	0	0	0	0
090712	14:05:29	10041	Trial2BackEng	N	3	57	482	0	94	14:05:29	1486099	0	0	0	0	0	0	0	0	0	0	0	0	0	0	0	0	0
090712	14:05:29	10041	Trial2BackEng	N	3	0	1000	1	95	14:05:29	1488112	0	0	0	0	0	0	0	0	0	0	0	0	0	0	0	0	0
090712	14:05:29	10041	Trial2BackEng	N	3	0	1000	1	96	14:05:29	1489631	0	0	0	0	0	0	0	0	0	0	0	0	0	0	0	0	0
090712	14:05:29	10041	Trial2BackEng	N	3	0	1000	1	97	14:05:29	1491151	0	0	0	0	0	0	0	0	0	0	0	0	0	0	0	0	0
090712	14:05:29	10041	Trial2BackEng	N	3	0	1000	1	98	14:05:29	1492670	0	0	0	0	0	0	0	0	0	0	0	0	0	0	0	0	0
090712	14:05:29	10041	Trial2BackEng	Y	3	0	1000	0	98	14:05:29	1494189	0	0	0	0	0	0	0	0	0	0	0	0	0	0	0	0	0
090712	14:05:29	10041	Trial2BackEng	N	3	0	1000	1	99	14:05:29	1495709	0	0	0	0	0	0	0	0	0	0	0	0	0	0	0	0	0
090712	14:05:29	10041	Trial2BackEng	N	3	0	1000	1	100	14:05:29	1497228	0	0	0	0	0	0	0	0	0	0	0	0	0	0	0	0	0
090712	14:05:29	10041	Trial2BackEng	N	3	0	1000	1	101	14:05:29	1498747	0	0	0	0	0	0	0	0	0	0	0	0	0	0	0	0	0
090712	14:05:29	10041	Trial2BackEng	Y	3	0	1000	0	101	14:05:29	1500267	0	0	0	0	0	0	0	0	0	0	0	0	0	0	0	0	0
090712	14:05:29	10041	Memory1RBaseline	Score	5	M1	36671	0	101	14:05:29	1573170	0	0	0	0	0	0	0	0	0	0	0	0	0	0	0	0	0
090712	14:05:29	10041	Memory1RBaseline	Score	5	M2	2617	0	101	14:05:29	1575822	0	0	0	0	0	0	0	0	0	0	0	0	0	0	0	0	0
090712	14:05:29	10041	Memory1RBaseline	Score	5	M3	309	0	101	14:05:29	1576169	0	0	0	0	0	0	0	0	0	0	0	0	0	0	0	0	0
090712	14:05:29	10041	Memory1RBaseline	Score	5	M4	1331	0	101	14:05:29	1577542	0	0	0	0	0	0	0	0	0	0	0	0	0	0	0	0	0
090712	14:05:29	10041	Memory1RBaseline	Score	5	M8	2102	0	101	14:05:29	1579687	0	0	0	0	0	0	0	0	0	0	0	0	0	0	0	0	0
090712	14:05:29	10041	Memory1RBaseline	Score	5	Done	36923	0	101	14:05:29	1616645	0	0	0	0	0	0	0	0	0	0	0	0	0	0	0	0	0
090712	14:05:29	10041	Memory2RBaseline	Score2	5	11	28290	0	101	14:05:29	1669837	0	0	0	0	0	0	0	0	0	0	0	0	0	0	0	0	0
090712	14:05:29	10041	Memory2RBaseline	Score2	5	22	220	0	101	14:05:29	1670103	0	0	0	0	0	0	0	0	0	0	0	0	0	0	0	0	0
090712	14:05:29	10041	Memory2RBaseline	Score2	5	33	505	0	101	14:05:29	1670650	0	0	0	0	0	0	0	0	0	0	0	0	0	0	0	0	0
090712	14:05:29	10041	Memory2RBaseline	Score2	5	44	263	0	101	14:05:29	1670956	0	0	0	0	0	0	0	0	0	0	0	0	0	0	0	0	0
090712	14:05:29	10041	Memory2RBaseline	Score2	5	55	628	0	101	14:05:29	1671623	0	0	0	0	0	0	0	0	0	0	0	0	0	0	0	0	0
090712	14:05:29	10041	Memory2RBaseline	Score2	5	66	226	0	101	14:05:29	1671889	0	0	0	0	0	0	0	0	0	0	0	0	0	0	0	0	0
090712	14:05:29	10041	Memory2RBaseline	Score2	5	77	311	0	101	14:05:29	1672236	0	0	0	0	0	0	0	0	0	0	0	0	0	0	0	0	0
090712	14:05:29	10041	Memory2RBaseline	Score2	5	88	364	0	101	14:05:29	1672635	0	0	0	0	0	0	0	0	0	0	0	0	0	0	0	0	0
090712	14:05:29	10041	Memory2RBaseline	Score2	5	Done	405	0	101	14:05:29	1673075	0	0	0	0	0	0	0	0	0	0	0	0	0	0	0	0	0
090712	14:05:29	10041	Memory3RBaseline	Score3	5	111	20650	0	101	14:05:29	1715777	0	0	0	0	0	0	0	0	0	0	0	0	0	0	0	0	0
090712	14:05:29	10041	Memory3RBaseline	Score3	5	222	245	0	101	14:05:29	1716057	0	0	0	0	0	0	0	0	0	0	0	0	0	0	0	0	0
090712	14:05:29	10041	Memory3RBaseline	Score3	5	333	421	0	101	14:05:29	1716524	0	0	0	0	0	0	0	0	0	0	0	0	0	0	0	0	0
090712	14:05:29	10041	Memory3RBaseline	Score3	5	444	243	0	101	14:05:29	1716804	0	0	0	0	0	0	0	0	0	0	0	0	0	0	0	0	0
090712	14:05:29	10041	Memory3RBaseline	Score3	5	555	243	0	101	14:05:29	1717084	0	0	0	0	0	0	0	0	0	0	0	0	0	0	0	0	0
090712	14:05:29	10041	Memory3RBaseline	Score3	5	666	251	0	101	14:05:29	1717377	0	0	0	0	0	0	0	0	0	0	0	0	0	0	0	0	0
090712	14:05:29	10041	Memory3RBaseline	Score3	5	777	254	0	101	14:05:29	1717670	0	0	0	0	0	0	0	0	0	0	0	0	0	0	0	0	0
090712	14:05:29	10041	Memory3RBaseline	Score3	5	888	257	0	101	14:05:29	1717963	0	0	0	0	0	0	0	0	0	0	0	0	0	0	0	0	0
090712	14:05:29	10041	Memory3RBaseline	Score3	5	Done	683	0	101	14:05:29	1718683	0	0	0	0	0	0	0	0	0	0	0	0	0	0	0	0	0
090712	14:05:29	10041	LoriaEngLH3	Stop	6	3	5941	0	101	14:05:29	1799745	0	0	0	0	0	0	0	0	0	0	0	0	0	0	0	0	0
090712	14:05:29	10041	EngTrail	Trails	7	1Trails	3784	0	101	14:05:29	1847043	0	0	0	0	0	0	0	0	0	0	0	0	0	0	0	0	0
090712	14:05:29	10041	Serial7EngBaseline	Serial7EngBaseline	8	83	3849	0	101	14:05:29	1918481	1	0	0	0	0	0	0	0	0	0	0	0	0	0	0	0	0
090712	14:05:29	10041	Serial7EngBaseline	Serial7EngBaseline	8	76	2331	0	101	14:05:29	1920840	2	0	0	0	0	0	0	0	0	0	0	0	0	0	0	0	0
090712	14:05:29	10041	Serial7EngBaseline	Serial7EngBaseline	8	59	2099	0	101	14:05:29	1922960	2	0	0	0	0	0	0	0	0	0	0	0	0	0	0	0	0
090712	14:05:29	10041	Serial7EngBaseline	Serial7EngBaseline	8	52	2245	0	101	14:05:29	1925225	3	0	0	0	0	0	0	0	0	0	0	0	0	0	0	0	0
090712	14:05:29	10041	Serial7EngBaseline	Serial7EngBaseline	8	45	1963	0	101	14:05:29	1927212	4	0	0	0	0	0	0	0	0	0	0	0	0	0	0	0	0
090712	14:05:29	10041	corsiblockEngFwrd	recallseqEngFwrd	9	3	8677	0	101	14:05:29	1984254	4	0	0	0	0	0	0	0	0	0	0	0	0	0	0	0	0
090712	14:05:29	10041	corsiblockEngFwrd	recallseqEngFwrd	9	7	2120	0	101	14:05:29	1986413	4	0	0	0	0	0	0	0	0	0	0	0	0	0	0	0	0
090712	14:05:29	10041	corsiblockEngFwrd	recallseqEngFwrd	9	doneCorsiEng	3417	0	101	14:05:29	1989865	4	0	0	0	0	0	0	0	0	0	0	0	0	0	0	2	0
090712	14:05:29	10041	corsiblockEngFwrd	recallseqEngFwrd	9	8	2722	0	101	14:05:29	1998675	4	0	0	0	0	0	0	0	0	0	0	0	0	0	0	2	0
090712	14:05:29	10041	corsiblockEngFwrd	recallseqEngFwrd	9	9	1531	0	101	14:05:29	2000248	4	0	0	0	0	0	0	0	0	0	0	0	0	0	0	2	0
090712	14:05:29	10041	corsiblockEngFwrd	recallseqEngFwrd	9	5	1447	0	101	14:05:29	2001727	4	0	0	0	0	0	0	0	0	0	0	0	0	0	0	2	0
090712	14:05:29	10041	corsiblockEngFwrd	recallseqEngFwrd	9	doneCorsiEng	2735	0	101	14:05:29	2004499	4	0	0	0	0	0	0	0	0	0	0	0	0	0	0	3	0
090712	14:05:29	10041	corsiblockEngFwrd	recallseqEngFwrd	9	2	2040	0	101	14:05:29	2013629	4	0	0	0	0	0	0	0	0	0	0	0	0	0	0	3	0
090712	14:05:29	10041	corsiblockEngFwrd	recallseqEngFwrd	9	6	1713	0	101	14:05:29	2015375	4	0	0	0	0	0	0	0	0	0	0	0	0	0	0	3	0
090712	14:05:29	10041	corsiblockEngFwrd	recallseqEngFwrd	9	4	1119	0	101	14:05:29	2016534	4	0	0	0	0	0	0	0	0	0	0	0	0	0	0	3	0
090712	14:05:29	10041	corsiblockEngFwrd	recallseqEngFwrd	9	1	1775	0	101	14:05:29	2018347	4	0	0	0	0	0	0	0	0	0	0	0	0	0	0	3	0
090712	14:05:29	10041	corsiblockEngFwrd	recallseqEngFwrd	9	doneCorsiEng	3579	0	101	14:05:29	2021959	4	0	0	0	0	0	0	0	0	0	0	0	0	0	0	4	0
090712	14:05:29	10041	corsiblockEngFwrd	recallseqEngFwrd	9	2	5932	0	101	14:05:29	2035980	4	0	0	0	0	0	0	0	0	0	0	0	0	0	0	4	0
090712	14:05:29	10041	corsiblockEngFwrd	recallseqEngFwrd	9	5	3497	0	101	14:05:29	2039512	4	0	0	0	0	0	0	0	0	0	0	0	0	0	0	4	0
090712	14:05:29	10041	corsiblockEngFwrd	recallseqEngFwrd	9	3	3117	0	101	14:05:29	2042670	4	0	0	0	0	0	0	0	0	0	0	0	0	0	0	4	0
090712	14:05:29	10041	corsiblockEngFwrd	recallseqEngFwrd	9	6	2039	0	101	14:05:29	2044749	4	0	0	0	0	0	0	0	0	0	0	0	0	0	0	4	0
090712	14:05:29	10041	corsiblockEngFwrd	recallseqEngFwrd	9	8	3184	0	101	14:05:29	2047975	4	0	0	0	0	0	0	0	0	0	0	0	0	0	0	4	0
090712	14:05:29	10041	corsiblockEngFwrd	recallseqEngFwrd	9	doneCorsiEng	1894	0	101	14:05:29	2049907	4	0	0	0	0	0	0	0	0	0	0	0	0	0	0	4	0
090712	14:05:29	10041	corsiblockEngFwrd	recallseqEngFwrd	9	9	2086	0	101	14:05:29	2060050	4	0	0	0	0	0	0	0	0	0	0	0	0	0	0	4	0
090712	14:05:29	10041	corsiblockEngFwrd	recallseqEngFwrd	9	4	6026	0	101	14:05:29	2066114	4	0	0	0	0	0	0	0	0	0	0	0	0	0	0	4	0
090712	14:05:29	10041	corsiblockEngFwrd	recallseqEngFwrd	9	1	1930	0	101	14:05:29	2068086	4	0	0	0	0	0	0	0	0	0	0	0	0	0	0	4	0
090712	14:05:29	10041	corsiblockEngFwrd	recallseqEngFwrd	9	7	5622	0	101	14:05:29	2073751	4	0	0	0	0	0	0	0	0	0	0	0	0	0	0	4	0
090712	14:05:29	10041	corsiblockEngFwrd	recallseqEngFwrd	9	9	3357	0	101	14:05:29	2077149	4	0	0	0	0	0	0	0	0	0	0	0	0	0	0	4	0
090712	14:05:29	10041	corsiblockEngFwrd	recallseqEngFwrd	9	doneCorsiEng	1958	0	101	14:05:29	2079148	4	0	0	0	0	0	0	0	0	0	0	0	0	0	0	5	0
090712	14:05:29	10041	corsiblockEngFwrd	recallseqEngFwrd	9	4	5085	0	101	14:05:29	2092316	4	0	0	0	0	0	0	0	0	0	0	0	0	0	0	5	0
090712	14:05:29	10041	corsiblockEngFwrd	recallseqEngFwrd	9	6	1439	0	101	14:05:29	2093796	4	0	0	0	0	0	0	0	0	0	0	0	0	0	0	5	0
090712	14:05:29	10041	corsiblockEngFwrd	recallseqEngFwrd	9	5	1591	0	101	14:05:29	2095422	4	0	0	0	0	0	0	0	0	0	0	0	0	0	0	5	0
090712	14:05:29	10041	corsiblockEngFwrd	recallseqEngFwrd	9	8	1621	0	101	14:05:29	2097088	4	0	0	0	0	0	0	0	0	0	0	0	0	0	0	5	0
090712	14:05:29	10041	corsiblockEngFwrd	recallseqEngFwrd	9	2	4763	0	101	14:05:29	2101886	4	0	0	0	0	0	0	0	0	0	0	0	0	0	0	5	0
090712	14:05:29	10041	corsiblockEngFwrd	recallseqEngFwrd	9	1	1045	0	101	14:05:29	2102965	4	0	0	0	0	0	0	0	0	0	0	0	0	0	0	5	0
090712	14:05:29	10041	corsiblockEngFwrd	recallseqEngFwrd	9	doneCorsiEng	3334	0	101	14:05:29	2106337	4	0	0	0	0	0	0	0	0	0	0	0	0	0	0	5	0
090712	14:05:29	10041	corsiblockEngFwrd	recallseqEngFwrd	9	doneCorsiEng	9927	0	101	14:05:29	2125316	4	0	0	0	0	0	0	0	0	0	0	0	0	0	0	5	0
090712	14:05:29	10041	corsiblockEngRev	recallseqEngRev	10	2	2453	0	101	14:05:29	2249757	4	0	0	0	0	0	0	0	0	0	0	0	0	0	0	5	0
090712	14:05:29	10041	corsiblockEngRev	recallseqEngRev	10	resetCorsiEng	9376	0	101	14:05:29	2259167	4	0	0	0	0	0	0	0	0	0	0	0	0	0	0	5	0
090712	14:05:29	10041	corsiblockEngRev	recallseqEngRev	10	6	6566	0	101	14:05:29	2265777	4	0	0	0	0	0	0	0	0	0	0	0	0	0	0	5	0
090712	14:05:29	10041	corsiblockEngRev	recallseqEngRev	10	2	2236	0	101	14:05:29	2268056	4	0	0	0	0	0	0	0	0	0	0	0	0	0	0	5	0
090712	14:05:29	10041	corsiblockEngRev	recallseqEngRev	10	doneCorsiEng	2108	0	101	14:05:29	2270202	4	0	0	0	0	0	0	0	0	0	0	0	0	0	0	5	2
090712	14:05:29	10041	corsiblockEngRev	recallseqEngRev	10	4	1079	0	101	14:05:29	2277373	4	0	0	0	0	0	0	0	0	0	0	0	0	0	0	5	2
090712	14:05:29	10041	corsiblockEngRev	recallseqEngRev	10	8	1712	0	101	14:05:29	2279119	4	0	0	0	0	0	0	0	0	0	0	0	0	0	0	5	2
090712	14:05:29	10041	corsiblockEngRev	recallseqEngRev	10	5	1166	0	101	14:05:29	2280318	4	0	0	0	0	0	0	0	0	0	0	0	0	0	0	5	2
090712	14:05:29	10041	corsiblockEngRev	recallseqEngRev	10	doneCorsiEng	1239	0	101	14:05:29	2281598	4	0	0	0	0	0	0	0	0	0	0	0	0	0	0	5	3
090712	14:05:29	10041	corsiblockEngRev	recallseqEngRev	10	7	1460	0	101	14:05:29	2290154	4	0	0	0	0	0	0	0	0	0	0	0	0	0	0	5	3
090712	14:05:29	10041	corsiblockEngRev	recallseqEngRev	10	9	1787	0	101	14:05:29	2291980	4	0	0	0	0	0	0	0	0	0	0	0	0	0	0	5	3
090712	14:05:29	10041	corsiblockEngRev	recallseqEngRev	10	1	1336	0	101	14:05:29	2293353	4	0	0	0	0	0	0	0	0	0	0	0	0	0	0	5	3
090712	14:05:29	10041	corsiblockEngRev	recallseqEngRev	10	4	3299	0	101	14:05:29	2296698	4	0	0	0	0	0	0	0	0	0	0	0	0	0	0	5	3
090712	14:05:29	10041	corsiblockEngRev	recallseqEngRev	10	doneCorsiEng	1554	0	101	14:05:29	2298297	4	0	0	0	0	0	0	0	0	0	0	0	0	0	0	5	3
090712	14:05:29	10041	corsiblockEngRev	recallseqEngRev	10	9	5536	0	101	14:05:29	2310879	4	0	0	0	0	0	0	0	0	0	0	0	0	0	0	5	3
090712	14:05:29	10041	corsiblockEngRev	recallseqEngRev	10	7	1157	0	101	14:05:29	2312078	4	0	0	0	0	0	0	0	0	0	0	0	0	0	0	5	3
090712	14:05:29	10041	corsiblockEngRev	recallseqEngRev	10	1	1197	0	101	14:05:29	2313318	4	0	0	0	0	0	0	0	0	0	0	0	0	0	0	5	3
090712	14:05:29	10041	corsiblockEngRev	recallseqEngRev	10	6	1222	0	101	14:05:29	2314584	4	0	0	0	0	0	0	0	0	0	0	0	0	0	0	5	3
090712	14:05:29	10041	corsiblockEngRev	recallseqEngRev	10	doneCorsiEng	2084	0	101	14:05:29	2316703	4	0	0	0	0	0	0	0	0	0	0	0	0	0	0	5	4
090712	14:05:29	10041	corsiblockEngRev	recallseqEngRev	10	2	1522	0	101	14:05:29	2325313	4	0	0	0	0	0	0	0	0	0	0	0	0	0	0	5	4
090712	14:05:29	10041	corsiblockEngRev	recallseqEngRev	10	3	1242	0	101	14:05:29	2326592	4	0	0	0	0	0	0	0	0	0	0	0	0	0	0	5	4
090712	14:05:29	10041	corsiblockEngRev	recallseqEngRev	10	4	1523	0	101	14:05:29	2328152	4	0	0	0	0	0	0	0	0	0	0	0	0	0	0	5	4
090712	14:05:29	10041	corsiblockEngRev	recallseqEngRev	10	5	1171	0	101	14:05:29	2329364	4	0	0	0	0	0	0	0	0	0	0	0	0	0	0	5	4
090712	14:05:29	10041	corsiblockEngRev	recallseqEngRev	10	8	1014	0	101	14:05:29	2330417	4	0	0	0	0	0	0	0	0	0	0	0	0	0	0	5	4
090712	14:05:29	10041	corsiblockEngRev	recallseqEngRev	10	doneCorsiEng	1514	0	101	14:05:29	2331977	4	0	0	0	0	0	0	0	0	0	0	0	0	0	0	5	4
090712	14:05:29	10041	corsiblockEngRev	recallseqEngRev	10	1	1760	0	101	14:05:29	2341786	4	0	0	0	0	0	0	0	0	0	0	0	0	0	0	5	4
090712	14:05:29	10041	corsiblockEngRev	recallseqEngRev	10	3	1856	0	101	14:05:29	2343678	4	0	0	0	0	0	0	0	0	0	0	0	0	0	0	5	4
090712	14:05:29	10041	corsiblockEngRev	recallseqEngRev	10	4	3140	0	101	14:05:29	2346864	4	0	0	0	0	0	0	0	0	0	0	0	0	0	0	5	4
090712	14:05:29	10041	corsiblockEngRev	recallseqEngRev	10	5	1115	0	101	14:05:29	2348024	4	0	0	0	0	0	0	0	0	0	0	0	0	0	0	5	4
090712	14:05:29	10041	corsiblockEngRev	recallseqEngRev	10	8	923	0	101	14:05:29	2348983	4	0	0	0	0	0	0	0	0	0	0	0	0	0	0	5	4
090712	14:05:29	10041	corsiblockEngRev	recallseqEngRev	10	doneCorsiEng	1091	0	101	14:05:29	2350116	4	0	0	0	0	0	0	0	0	0	0	0	0	0	0	5	4
090712	14:05:29	10041	testEngBaseline	WordsEngBaseline	11	7EngBaseline	1100	0	101	14:05:29	2389167	4	0	0	0	0	0	0	1	0	0	0	0	0	0	0	5	4
090712	14:05:29	10041	testEngBaseline	WordsEngBaseline	11	6EngBaseline	507	0	101	14:05:29	2389713	4	0	0	0	0	0	1	1	0	0	0	0	0	0	0	5	4
090712	14:05:29	10041	testEngBaseline	WordsEngBaseline	11	5EngBaseline	808	0	101	14:05:29	2390566	4	0	0	0	0	1	1	1	0	0	0	0	0	0	0	5	4
090712	14:05:29	10041	testEngBaseline	WordsEngBaseline	11	4EngBaseline	468	0	101	14:05:29	2391072	4	0	0	0	1	1	1	1	0	0	0	0	0	0	0	5	4
090712	14:05:29	10041	testEngBaseline	WordsEngBaseline	11	3EngBaseline	665	0	101	14:05:29	2391779	4	0	0	1	1	1	1	1	0	0	0	0	0	0	0	5	4
090712	14:05:29	10041	testEngBaseline	WordsEngBaseline	11	2EngBaseline	487	0	101	14:05:29	2392312	4	0	1	1	1	1	1	1	0	0	0	0	0	0	0	5	4
090712	14:05:29	10041	testEngBaseline	WordsEngBaseline	11	1EngBaseline	450	0	101	14:05:29	2392805	4	1	1	1	1	1	1	1	0	0	0	0	0	0	0	5	4
090712	14:05:29	10041	testEngBaseline	WordsEngBaseline	11	8EngBaseline	7004	0	101	14:05:29	2399855	4	1	1	1	1	1	1	1	1	0	0	0	0	0	0	5	4
090712	14:05:29	10041	testEngBaseline	WordsEngBaseline	11	DoneEngBaseline	682	0	101	14:05:29	2400575	4	1	1	1	1	1	1	1	1	0	0	0	0	0	0	5	4
090712	14:05:29	10041	DigitSpanFwrdEngBaseline	Score1FwrdEngBaseline	12	DS1	3417	0	101	14:05:29	2422059	4	1	1	1	1	1	1	1	1	0	0	0	0	0	0	5	4
090712	14:05:29	10041	DigitSpanFwrdEngBaseline	Gate1FwrdEngBaseline	12	0	1	0	101	14:05:29	2422074	4	1	1	1	1	1	1	1	1	3	0	0	0	0	0	5	4
090712	14:05:29	10041	DigitSpanFwrdEngBaseline	Score2FwrdEngBaseline	12	DS1	4508	0	101	14:05:29	2432348	4	1	1	1	1	1	1	1	1	3	0	0	0	0	0	5	4
090712	14:05:29	10041	DigitSpanFwrdEngBaseline	Gate3FwrdEngBaseline	12	0	1	0	101	14:05:29	2432364	4	1	1	1	1	1	1	1	1	4	0	0	0	0	0	5	4
090712	14:05:29	10041	DigitSpanFwrdEngBaseline	Score3FwrdEngBaseline	12	DS1	10735	0	101	14:05:29	2450887	4	1	1	1	1	1	1	1	1	4	0	0	0	0	0	5	4
090712	14:05:29	10041	DigitSpanFwrdEngBaseline	Gate5FwrdEngBaseline	12	0	1	0	101	14:05:29	2450902	4	1	1	1	1	1	1	1	1	5	0	0	0	0	0	5	4
090712	14:05:29	10041	DigitSpanFwrdEngBaseline	Score4FwrdEngBaseline	12	DS1	6273	0	101	14:05:29	2466707	4	1	1	1	1	1	1	1	1	5	0	0	0	0	0	5	4
090712	14:05:29	10041	DigitSpanFwrdEngBaseline	Gate7FwrdEngBaseline	12	0	1	0	101	14:05:29	2466723	4	1	1	1	1	1	1	1	1	6	0	0	0	0	0	5	4
090712	14:05:29	10041	DigitSpanFwrdEngBaseline	Score5FwrdEngBaseline	12	DS2	11978	0	101	14:05:29	2489778	4	1	1	1	1	1	1	1	1	6	0	0	0	0	0	5	4
090712	14:05:29	10041	DigitSpanFwrdEngBaseline	Gate9FwrdEngBaseline	12	0	1	0	101	14:05:29	2489793	4	1	1	1	1	1	1	1	1	6	0	0	0	0	0	5	4
090712	14:05:29	10041	DigitSpanFwrdEngBaseline	Score55FwrdEngBaseline	12	DS2	10641	0	101	14:05:29	2511849	4	1	1	1	1	1	1	1	1	6	0	0	0	0	0	5	4
090712	14:05:29	10041	DigitSpanEngBaseline	Score1EngBaseline	13	DS1	2995	0	101	14:05:29	2531521	4	1	1	1	1	1	1	1	1	6	0	0	0	0	0	5	4
090712	14:05:29	10041	DigitSpanEngBaseline	Gate1EngBaseline	13	0	1	0	101	14:05:29	2531536	4	1	1	1	1	1	1	1	1	6	2	0	0	0	0	5	4
090712	14:05:29	10041	DigitSpanEngBaseline	Score2EngBaseline	13	DS1	3603	0	101	14:05:29	2539863	4	1	1	1	1	1	1	1	1	6	2	0	0	0	0	5	4
090712	14:05:29	10041	DigitSpanEngBaseline	Gate3EngBaseline	13	0	1	0	101	14:05:29	2539879	4	1	1	1	1	1	1	1	1	6	3	0	0	0	0	5	4
090712	14:05:29	10041	DigitSpanEngBaseline	Score3EngBaseline	13	DS2	14911	0	101	14:05:29	2561375	4	1	1	1	1	1	1	1	1	6	3	0	0	0	0	5	4
090712	14:05:29	10041	DigitSpanEngBaseline	Gate5EngBaseline	13	0	1	0	101	14:05:29	2561390	4	1	1	1	1	1	1	1	1	6	3	0	0	0	0	5	4
090712	14:05:29	10041	DigitSpanEngBaseline	Score33EngBaseline	13	DS2	6517	0	101	14:05:29	2574236	4	1	1	1	1	1	1	1	1	6	3	0	0	0	0	5	4
090712	14:05:29	10041	Trial	IncongruentRight	14	205	701	1	101	14:05:29	2638103	4	1	1	1	1	1	1	1	1	6	3	0	0	0	0	5	4
090712	14:05:29	10041	Trial	IncongruentLeft	14	203	341	1	101	14:05:29	2638742	4	1	1	1	1	1	1	1	1	6	3	0	0	0	0	5	4
090712	14:05:29	10041	Trial	CongruentRight	14	205	382	1	101	14:05:29	2639782	4	1	1	1	1	1	1	1	1	6	3	0	0	0	0	5	4
090712	14:05:29	10041	Trial	IncongruentRight	14	205	470	1	101	14:05:29	2640875	4	1	1	1	1	1	1	1	1	6	3	0	0	0	0	5	4
090712	14:05:29	10041	Trial	CongruentLeft	14	203	337	1	101	14:05:29	2641754	4	1	1	1	1	1	1	1	1	6	3	0	0	0	0	5	4
090712	14:05:29	10041	Trial	CongruentRight	14	205	346	1	101	14:05:29	2642767	4	1	1	1	1	1	1	1	1	6	3	0	0	0	0	5	4
090712	14:05:29	10041	Trial	IncongruentRight	14	203	290	0	101	14:05:29	2643700	4	1	1	1	1	1	1	1	1	6	3	0	0	0	0	5	4
090712	14:05:29	10041	Trial	CongruentLeft	14	205	459	0	101	14:05:29	2644873	4	1	1	1	1	1	1	1	1	6	3	0	0	0	0	5	4
090712	14:05:29	10041	Trial	IncongruentLeft	14	0	737	0	101	14:05:29	2646139	4	1	1	1	1	1	1	1	1	6	3	0	0	0	0	5	4
090712	14:05:29	10041	Trial	IncongruentLeft	14	203	715	1	101	14:05:29	2647126	4	1	1	1	1	1	1	1	1	6	3	0	0	0	0	5	4
090712	14:05:29	10041	Trial	CongruentRight	14	205	435	1	101	14:05:29	2647845	4	1	1	1	1	1	1	1	1	6	3	0	0	0	0	5	4
090712	14:05:29	10041	Trial	IncongruentRight	14	203	316	0	101	14:05:29	2648725	4	1	1	1	1	1	1	1	1	6	3	0	0	0	0	5	4
090712	14:05:29	10041	Trial	CongruentLeft	14	0	737	0	101	14:05:29	2650151	4	1	1	1	1	1	1	1	1	6	3	0	0	0	0	5	4
090712	14:05:29	10041	Trial	CongruentRight	14	205	511	1	101	14:05:29	2650937	4	1	1	1	1	1	1	1	1	6	3	0	0	0	0	5	4
090712	14:05:29	10041	Trial	IncongruentLeft	14	203	456	1	101	14:05:29	2651884	4	1	1	1	1	1	1	1	1	6	3	0	0	0	0	5	4
090712	14:05:29	10041	Trial	IncongruentRight	14	205	384	1	101	14:05:29	2652803	4	1	1	1	1	1	1	1	1	6	3	0	0	0	0	5	4
090712	14:05:29	10041	Trial	CongruentRight	14	205	347	1	101	14:05:29	2653789	4	1	1	1	1	1	1	1	1	6	3	0	0	0	0	5	4
090712	14:05:29	10041	Trial	CongruentLeft	14	203	436	1	101	14:05:29	2654869	4	1	1	1	1	1	1	1	1	6	3	0	0	0	0	5	4
090712	14:05:29	10041	Trial	CongruentRight	14	205	332	1	101	14:05:29	2655775	4	1	1	1	1	1	1	1	1	6	3	0	0	0	0	5	4
090712	14:05:29	10041	Trial	IncongruentRight	14	205	468	1	101	14:05:29	2656908	4	1	1	1	1	1	1	1	1	6	3	0	0	0	0	5	4
090712	14:05:29	10041	Trial	IncongruentLeft	14	203	397	1	101	14:05:29	2657828	4	1	1	1	1	1	1	1	1	6	3	0	0	0	0	5	4
090712	14:05:29	10041	Trial	IncongruentLeft	14	205	309	0	101	14:05:29	2658747	4	1	1	1	1	1	1	1	1	6	3	0	0	0	0	5	4
090712	14:05:29	10041	Trial	CongruentLeft	14	203	589	1	101	14:05:29	2660027	4	1	1	1	1	1	1	1	1	6	3	0	0	0	0	5	4
090712	14:05:29	10041	Trial	CongruentRight	14	205	422	1	101	14:05:29	2660853	4	1	1	1	1	1	1	1	1	6	3	0	0	0	0	5	4
090712	14:05:29	10041	Trial	IncongruentLeft	14	203	446	1	101	14:05:29	2661880	4	1	1	1	1	1	1	1	1	6	3	0	0	0	0	5	4
090712	14:05:29	10041	Trial	IncongruentRight	14	205	407	1	101	14:05:29	2662839	4	1	1	1	1	1	1	1	1	6	3	0	0	0	0	5	4
090712	14:05:29	10041	Trial	CongruentRight	14	205	351	1	101	14:05:29	2663785	4	1	1	1	1	1	1	1	1	6	3	0	0	0	0	5	4
090712	14:05:29	10041	Trial	CongruentLeft	14	203	343	1	101	14:05:29	2664772	4	1	1	1	1	1	1	1	1	6	3	0	0	0	0	5	4
090712	14:05:29	10041	Trial	IncongruentRight	14	205	399	1	101	14:05:29	2665838	4	1	1	1	1	1	1	1	1	6	3	0	0	0	0	5	4
090712	14:05:29	10041	Trial	IncongruentLeft	14	203	696	1	101	14:05:29	2667130	4	1	1	1	1	1	1	1	1	6	3	0	0	0	0	5	4
090712	14:05:29	10041	Trial	IncongruentRight	14	205	544	1	101	14:05:29	2667983	4	1	1	1	1	1	1	1	1	6	3	0	0	0	0	5	4
090712	14:05:29	10041	Trial	CongruentRight	14	203	313	0	101	14:05:29	2668744	4	1	1	1	1	1	1	1	1	6	3	0	0	0	0	5	4
090712	14:05:29	10041	Trial	IncongruentLeft	14	0	737	0	101	14:05:29	2670156	4	1	1	1	1	1	1	1	1	6	3	0	0	0	0	5	4
090712	14:05:29	10041	Trial	CongruentLeft	14	203	554	1	101	14:05:29	2670982	4	1	1	1	1	1	1	1	1	6	3	0	0	0	0	5	4
090712	14:05:29	10041	Trial	CongruentRight	14	205	386	1	101	14:05:29	2671822	4	1	1	1	1	1	1	1	1	6	3	0	0	0	0	5	4
090712	14:05:29	10041	Trial	IncongruentLeft	14	203	618	1	101	14:05:29	2673048	4	1	1	1	1	1	1	1	1	6	3	0	0	0	0	5	4
090712	14:05:29	10041	Trial	IncongruentRight	14	205	357	1	101	14:05:29	2673795	4	1	1	1	1	1	1	1	1	6	3	0	0	0	0	5	4
090712	14:05:29	10041	Trial	IncongruentRight	14	205	526	1	101	14:05:29	2674967	4	1	1	1	1	1	1	1	1	6	3	0	0	0	0	5	4
090712	14:05:29	10041	Trial	CongruentLeft	14	203	438	1	101	14:05:29	2675887	4	1	1	1	1	1	1	1	1	6	3	0	0	0	0	5	4
090712	14:05:29	10041	Trial	IncongruentLeft	14	205	398	0	101	14:05:29	2676846	4	1	1	1	1	1	1	1	1	6	3	0	0	0	0	5	4
090712	14:05:29	10041	Trial	CongruentRight	14	0	737	0	101	14:05:29	2678166	4	1	1	1	1	1	1	1	1	6	3	0	0	0	0	5	4
090712	14:05:29	10041	Trial	CongruentLeft	14	203	463	1	101	14:05:29	2678899	4	1	1	1	1	1	1	1	1	6	3	0	0	0	0	5	4
090712	14:05:29	10041	Trial	IncongruentRight	14	205	394	1	101	14:05:29	2679845	4	1	1	1	1	1	1	1	1	6	3	0	0	0	0	5	4
090712	14:05:29	10041	Trial	CongruentRight	14	205	640	1	101	14:05:29	2681085	4	1	1	1	1	1	1	1	1	6	3	0	0	0	0	5	4
090712	14:05:29	10041	Trial	IncongruentLeft	14	203	395	1	101	14:05:29	2681845	4	1	1	1	1	1	1	1	1	6	3	0	0	0	0	5	4
090712	14:05:29	10041	Trial	CongruentLeft	14	203	467	1	101	14:05:29	2682924	4	1	1	1	1	1	1	1	1	6	3	0	0	0	0	5	4
090712	14:05:29	10041	Trial	IncongruentLeft	14	203	476	1	101	14:05:29	2683924	4	1	1	1	1	1	1	1	1	6	3	0	0	0	0	5	4
090712	14:05:29	10041	Trial	IncongruentRight	14	205	484	1	101	14:05:29	2684937	4	1	1	1	1	1	1	1	1	6	3	0	0	0	0	5	4
090712	14:05:29	10041	Trial	CongruentRight	14	205	396	1	101	14:05:29	2685843	4	1	1	1	1	1	1	1	1	6	3	0	0	0	0	5	4
090712	14:05:29	10041	Trial	CongruentLeft	14	203	357	1	101	14:05:29	2686803	4	1	1	1	1	1	1	1	1	6	3	0	0	0	0	5	4
090712	14:05:29	10041	Trial	CongruentLeft	14	203	413	1	101	14:05:29	2687869	4	1	1	1	1	1	1	1	1	6	3	0	0	0	0	5	4
090712	14:05:29	10041	Trial	IncongruentRight	14	203	454	0	101	14:05:29	2688908	4	1	1	1	1	1	1	1	1	6	3	0	0	0	0	5	4
090712	14:05:29	10041	Trial	IncongruentLeft	14	0	737	0	101	14:05:29	2690188	4	1	1	1	1	1	1	1	1	6	3	0	0	0	0	5	4
090712	14:05:29	10041	Trial	IncongruentRight	14	0	737	0	101	14:05:29	2691201	4	1	1	1	1	1	1	1	1	6	3	0	0	0	0	5	4
090712	14:05:29	10041	Trial	CongruentRight	14	203	276	0	101	14:05:29	2691747	4	1	1	1	1	1	1	1	1	6	3	0	0	0	0	5	4
090712	14:05:29	10041	Trial	CongruentRight	14	0	737	0	101	14:05:29	2693213	4	1	1	1	1	1	1	1	1	6	3	0	0	0	0	5	4
090712	14:05:29	10041	Trial	IncongruentLeft	14	203	410	1	101	14:05:29	2693906	4	1	1	1	1	1	1	1	1	6	3	0	0	0	0	5	4
090712	14:05:29	10041	Trial	CongruentLeft	14	203	512	1	101	14:05:29	2694999	4	1	1	1	1	1	1	1	1	6	3	0	0	0	0	5	4
090712	14:05:29	10041	Trial	CongruentRight	14	205	440	1	101	14:05:29	2695932	4	1	1	1	1	1	1	1	1	6	3	0	0	0	0	5	4
090712	14:05:29	10041	Trial	CongruentLeft	14	203	292	1	101	14:05:29	2696798	4	1	1	1	1	1	1	1	1	6	3	0	0	0	0	5	4
090712	14:05:29	10041	Trial	IncongruentRight	14	203	396	0	101	14:05:29	2697891	4	1	1	1	1	1	1	1	1	6	3	0	0	0	0	5	4
090712	14:05:29	10041	Trial	CongruentRight	14	205	532	1	101	14:05:29	2699037	4	1	1	1	1	1	1	1	1	6	3	0	0	0	0	5	4
090712	14:05:29	10041	Trial	CongruentLeft	14	203	364	1	101	14:05:29	2699864	4	1	1	1	1	1	1	1	1	6	3	0	0	0	0	5	4
090712	14:05:29	10041	Trial	IncongruentLeft	14	203	517	1	101	14:05:29	2701010	4	1	1	1	1	1	1	1	1	6	3	0	0	0	0	5	4
090712	14:05:29	10041	Trial	IncongruentLeft	14	203	558	1	101	14:05:29	2702049	4	1	1	1	1	1	1	1	1	6	3	0	0	0	0	5	4
090712	14:05:29	10041	Trial	CongruentRight	14	205	406	1	101	14:05:29	2702902	4	1	1	1	1	1	1	1	1	6	3	0	0	0	0	5	4
090712	14:05:29	10041	Trial	IncongruentRight	14	205	606	1	101	14:05:29	2704102	4	1	1	1	1	1	1	1	1	6	3	0	0	0	0	5	4
090712	14:05:29	10041	Trial	CongruentLeft	14	203	423	1	101	14:05:29	2704915	4	1	1	1	1	1	1	1	1	6	3	0	0	0	0	5	4
090712	14:05:29	10041	Trial	IncongruentRight	14	205	383	1	101	14:05:29	2705875	4	1	1	1	1	1	1	1	1	6	3	0	0	0	0	5	4
090712	14:05:29	10041	Trial	CongruentRight	14	205	535	1	101	14:05:29	2707034	4	1	1	1	1	1	1	1	1	6	3	0	0	0	0	5	4
090712	14:05:29	10041	Trial	IncongruentLeft	14	203	384	1	101	14:05:29	2707873	4	1	1	1	1	1	1	1	1	6	3	0	0	0	0	5	4
090712	14:05:29	10041	Trial	CongruentLeft	14	203	552	1	101	14:05:29	2709046	4	1	1	1	1	1	1	1	1	6	3	0	0	0	0	5	4
090712	14:05:29	10041	Trial	CongruentRight	14	205	368	1	101	14:05:29	2709860	4	1	1	1	1	1	1	1	1	6	3	0	0	0	0	5	4
090712	14:05:29	10041	Trial	IncongruentLeft	14	203	281	1	101	14:05:29	2710779	4	1	1	1	1	1	1	1	1	6	3	0	0	0	0	5	4
090712	14:05:29	10041	Trial	CongruentRight	14	205	353	1	101	14:05:29	2711846	4	1	1	1	1	1	1	1	1	6	3	0	0	0	0	5	4
090712	14:05:29	10041	Trial	CongruentRight	14	203	266	0	101	14:05:29	2712765	4	1	1	1	1	1	1	1	1	6	3	0	0	0	0	5	4
090712	14:05:29	10041	Trial	IncongruentRight	14	205	514	1	101	14:05:29	2714004	4	1	1	1	1	1	1	1	1	6	3	0	0	0	0	5	4
090712	14:05:29	10041	Trial	CongruentLeft	14	203	426	1	101	14:05:29	2714924	4	1	1	1	1	1	1	1	1	6	3	0	0	0	0	5	4
090712	14:05:29	10041	Trial	IncongruentLeft	14	203	562	1	101	14:05:29	2716057	4	1	1	1	1	1	1	1	1	6	3	0	0	0	0	5	4
090712	14:05:29	10041	Trial	CongruentLeft	14	203	587	1	101	14:05:29	2717083	4	1	1	1	1	1	1	1	1	6	3	0	0	0	0	5	4
090712	14:05:29	10041	Trial	IncongruentRight	14	205	499	1	101	14:05:29	2717990	4	1	1	1	1	1	1	1	1	6	3	0	0	0	0	5	4
090712	14:05:29	10041	Trial	IncongruentLeft	14	203	412	1	101	14:05:29	2718910	4	1	1	1	1	1	1	1	1	6	3	0	0	0	0	5	4
090712	14:05:29	10041	Trial	CongruentRight	14	205	388	1	101	14:05:29	2719882	4	1	1	1	1	1	1	1	1	6	3	0	0	0	0	5	4
090712	14:05:29	10041	Trial	CongruentLeft	14	203	317	1	101	14:05:29	2720802	4	1	1	1	1	1	1	1	1	6	3	0	0	0	0	5	4
090712	14:05:29	10041	Trial	IncongruentLeft	14	205	309	0	101	14:05:29	2721803	4	1	1	1	1	1	1	1	1	6	3	0	0	0	0	5	4
090712	14:05:29	10041	Trial	CongruentLeft	14	203	525	1	101	14:05:29	2723014	4	1	1	1	1	1	1	1	1	6	3	0	0	0	0	5	4
090712	14:05:29	10041	Trial	IncongruentRight	14	205	438	1	101	14:05:29	2723934	4	1	1	1	1	1	1	1	1	6	3	0	0	0	0	5	4
090712	14:05:29	10041	Trial	CongruentRight	14	205	622	1	101	14:05:29	2725107	4	1	1	1	1	1	1	1	1	6	3	0	0	0	0	5	4
090712	14:05:29	10041	Trial	IncongruentLeft	14	203	423	1	101	14:05:29	2725907	4	1	1	1	1	1	1	1	1	6	3	0	0	0	0	5	4
090712	14:05:29	10041	Trial	CongruentLeft	14	203	482	1	101	14:05:29	2726986	4	1	1	1	1	1	1	1	1	6	3	0	0	0	0	5	4
090712	14:05:29	10041	Trial	IncongruentRight	14	205	426	1	101	14:05:29	2727932	4	1	1	1	1	1	1	1	1	6	3	0	0	0	0	5	4
090712	14:05:29	10041	Trial	IncongruentLeft	14	203	352	1	101	14:05:29	2728851	4	1	1	1	1	1	1	1	1	6	3	0	0	0	0	5	4
090712	14:05:29	10041	Trial	CongruentLeft	14	203	491	1	101	14:05:29	2729984	4	1	1	1	1	1	1	1	1	6	3	0	0	0	0	5	4
090712	14:05:29	10041	Trial	IncongruentLeft	14	203	515	1	101	14:05:29	2731011	4	1	1	1	1	1	1	1	1	6	3	0	0	0	0	5	4
090712	14:05:29	10041	Trial	CongruentRight	14	205	428	1	101	14:05:29	2731930	4	1	1	1	1	1	1	1	1	6	3	0	0	0	0	5	4
090712	14:05:29	10041	Trial	CongruentLeft	14	203	404	1	101	14:05:29	2732903	4	1	1	1	1	1	1	1	1	6	3	0	0	0	0	5	4
090712	14:05:29	10041	Trial	IncongruentRight	14	205	396	1	101	14:05:29	2733889	4	1	1	1	1	1	1	1	1	6	3	0	0	0	0	5	4
090712	14:05:29	10041	Trial	CongruentLeft	14	203	405	1	101	14:05:29	2734902	4	1	1	1	1	1	1	1	1	6	3	0	0	0	0	5	4
090712	14:05:29	10041	Trial	CongruentRight	14	205	445	1	101	14:05:29	2735942	4	1	1	1	1	1	1	1	1	6	3	0	0	0	0	5	4
090712	14:05:29	10041	Trial	IncongruentLeft	14	203	374	1	101	14:05:29	2736875	4	1	1	1	1	1	1	1	1	6	3	0	0	0	0	5	4
090712	14:05:29	10041	Trial750Eng	IncongruentRight750	15	0	487	0	101	14:05:29	2756227	4	1	1	1	1	1	1	1	1	6	3	0	0	0	0	5	4
090712	14:05:29	10041	Trial750Eng	IncongruentLeft750	15	203	383	1	101	14:05:29	2756880	4	1	1	1	1	1	1	1	1	6	3	0	0	0	0	5	4
090712	14:05:29	10041	Trial750Eng	CongruentRight750	15	205	344	1	101	14:05:29	2757600	4	1	1	1	1	1	1	1	1	6	3	0	0	0	0	5	4
090712	14:05:29	10041	Trial750Eng	IncongruentRight750	15	203	254	0	101	14:05:29	2758266	4	1	1	1	1	1	1	1	1	6	3	0	0	0	0	5	4
090712	14:05:29	10041	Trial750Eng	CongruentLeft750	15	205	339	0	101	14:05:29	2759092	4	1	1	1	1	1	1	1	1	6	3	0	0	0	0	5	4
090712	14:05:29	10041	Trial750Eng	CongruentRight750	15	205	379	1	101	14:05:29	2759892	4	1	1	1	1	1	1	1	1	6	3	0	0	0	0	5	4
090712	14:05:29	10041	Trial750Eng	IncongruentRight750	15	0	487	0	101	14:05:29	2760745	4	1	1	1	1	1	1	1	1	6	3	0	0	0	0	5	4
090712	14:05:29	10041	Trial750Eng	CongruentLeft750	15	203	377	1	101	14:05:29	2761398	4	1	1	1	1	1	1	1	1	6	3	0	0	0	0	5	4
090712	14:05:29	10041	Trial750Eng	IncongruentLeft750	15	205	354	0	101	14:05:29	2762131	4	1	1	1	1	1	1	1	1	6	3	0	0	0	0	5	4
090712	14:05:29	10041	Trial750Eng	IncongruentLeft750	15	0	487	0	101	14:05:29	2763011	4	1	1	1	1	1	1	1	1	6	3	0	0	0	0	5	4
090712	14:05:29	10041	Trial750Eng	CongruentRight750	15	0	487	0	101	14:05:29	2763770	4	1	1	1	1	1	1	1	1	6	3	0	0	0	0	5	4
090712	14:05:29	10041	Trial750Eng	IncongruentRight750	15	0	487	0	101	14:05:29	2764530	4	1	1	1	1	1	1	1	1	6	3	0	0	0	0	5	4
090712	14:05:29	10041	Trial750Eng	CongruentLeft750	15	203	400	1	101	14:05:29	2765210	4	1	1	1	1	1	1	1	1	6	3	0	0	0	0	5	4
090712	14:05:29	10041	Trial750Eng	CongruentRight750	15	205	329	1	101	14:05:29	2765890	4	1	1	1	1	1	1	1	1	6	3	0	0	0	0	5	4
090712	14:05:29	10041	Trial750Eng	IncongruentLeft750	15	203	286	1	101	14:05:29	2766596	4	1	1	1	1	1	1	1	1	6	3	0	0	0	0	5	4
090712	14:05:29	10041	Trial750Eng	IncongruentRight750	15	203	372	0	101	14:05:29	2767436	4	1	1	1	1	1	1	1	1	6	3	0	0	0	0	5	4
090712	14:05:29	10041	Trial750Eng	CongruentRight750	15	0	487	0	101	14:05:29	2768289	4	1	1	1	1	1	1	1	1	6	3	0	0	0	0	5	4
090712	14:05:29	10041	Trial750Eng	CongruentLeft750	15	203	353	1	101	14:05:29	2768915	4	1	1	1	1	1	1	1	1	6	3	0	0	0	0	5	4
090712	14:05:29	10041	Trial750Eng	CongruentRight750	15	205	330	1	101	14:05:29	2769648	4	1	1	1	1	1	1	1	1	6	3	0	0	0	0	5	4
090712	14:05:29	10041	Trial750Eng	IncongruentRight750	15	203	304	0	101	14:05:29	2770368	4	1	1	1	1	1	1	1	1	6	3	0	0	0	0	5	4
090712	14:05:29	10041	Trial750Eng	IncongruentLeft750	15	0	487	0	101	14:05:29	2771301	4	1	1	1	1	1	1	1	1	6	3	0	0	0	0	5	4
090712	14:05:29	10041	Trial750Eng	IncongruentLeft750	15	203	445	1	101	14:05:29	2772020	4	1	1	1	1	1	1	1	1	6	3	0	0	0	0	5	4
090712	14:05:29	10041	Trial750Eng	CongruentLeft750	15	203	422	1	101	14:05:29	2772754	4	1	1	1	1	1	1	1	1	6	3	0	0	0	0	5	4
090712	14:05:29	10041	Trial750Eng	CongruentRight750	15	203	379	0	101	14:05:29	2773459	4	1	1	1	1	1	1	1	1	6	3	0	0	0	0	5	4
090712	14:05:29	10041	Trial750Eng	IncongruentLeft750	15	203	481	1	101	14:05:29	2774313	4	1	1	1	1	1	1	1	1	6	3	0	0	0	0	5	4
090712	14:05:29	10041	Trial750Eng	IncongruentRight750	15	205	409	1	101	14:05:29	2774993	4	1	1	1	1	1	1	1	1	6	3	0	0	0	0	5	4
090712	14:05:29	10041	Trial750Eng	CongruentRight750	15	203	290	0	101	14:05:29	2775632	4	1	1	1	1	1	1	1	1	6	3	0	0	0	0	5	4
090712	14:05:29	10041	Trial750Eng	CongruentLeft750	15	205	23	0	101	14:05:29	2776112	4	1	1	1	1	1	1	1	1	6	3	0	0	0	0	5	4
090712	14:05:29	10041	Trial750Eng	IncongruentRight750	15	203	317	0	101	14:05:29	2777152	4	1	1	1	1	1	1	1	1	6	3	0	0	0	0	5	4
090712	14:05:29	10041	Trial750Eng	IncongruentLeft750	15	203	421	1	101	14:05:29	2778018	4	1	1	1	1	1	1	1	1	6	3	0	0	0	0	5	4
090712	14:05:29	10041	Trial750Eng	IncongruentRight750	15	0	487	0	101	14:05:29	2778831	4	1	1	1	1	1	1	1	1	6	3	0	0	0	0	5	4
090712	14:05:29	10041	Trial750Eng	CongruentRight750	15	0	487	0	101	14:05:29	2779591	4	1	1	1	1	1	1	1	1	6	3	0	0	0	0	5	4
090712	14:05:29	10041	Trial750Eng	IncongruentLeft750	15	203	427	1	101	14:05:29	2780297	4	1	1	1	1	1	1	1	1	6	3	0	0	0	0	5	4
090712	14:05:29	10041	Trial750Eng	CongruentLeft750	15	0	487	0	101	14:05:29	2781097	4	1	1	1	1	1	1	1	1	6	3	0	0	0	0	5	4
090712	14:05:29	10041	Trial750Eng	CongruentRight750	15	205	409	1	101	14:05:29	2781776	4	1	1	1	1	1	1	1	1	6	3	0	0	0	0	5	4
090712	14:05:29	10041	Trial750Eng	IncongruentLeft750	15	0	487	0	101	14:05:29	2782603	4	1	1	1	1	1	1	1	1	6	3	0	0	0	0	5	4
090712	14:05:29	10041	Trial750Eng	IncongruentRight750	15	205	423	1	101	14:05:29	2783296	4	1	1	1	1	1	1	1	1	6	3	0	0	0	0	5	4
090712	14:05:29	10041	Trial750Eng	IncongruentRight750	15	0	487	0	101	14:05:29	2784109	4	1	1	1	1	1	1	1	1	6	3	0	0	0	0	5	4
090712	14:05:29	10041	Trial750Eng	CongruentLeft750	15	203	389	1	101	14:05:29	2784775	4	1	1	1	1	1	1	1	1	6	3	0	0	0	0	5	4
090712	14:05:29	10041	Trial750Eng	IncongruentLeft750	15	0	487	0	101	14:05:29	2785615	4	1	1	1	1	1	1	1	1	6	3	0	0	0	0	5	4
090712	14:05:29	10041	Trial750Eng	CongruentRight750	15	205	403	1	101	14:05:29	2786294	4	1	1	1	1	1	1	1	1	6	3	0	0	0	0	5	4
090712	14:05:29	10041	Trial750Eng	CongruentLeft750	15	203	283	1	101	14:05:29	2786934	4	1	1	1	1	1	1	1	1	6	3	0	0	0	0	5	4
090712	14:05:29	10041	Trial750Eng	IncongruentRight750	15	205	305	1	101	14:05:29	2787707	4	1	1	1	1	1	1	1	1	6	3	0	0	0	0	5	4
090712	14:05:29	10041	Trial750Eng	CongruentRight750	15	0	487	0	101	14:05:29	2788627	4	1	1	1	1	1	1	1	1	6	3	0	0	0	0	5	4
090712	14:05:29	10041	Trial750Eng	IncongruentLeft750	15	203	431	1	101	14:05:29	2789333	4	1	1	1	1	1	1	1	1	6	3	0	0	0	0	5	4
090712	14:05:29	10041	Trial750Eng	CongruentLeft750	15	0	487	0	101	14:05:29	2790133	4	1	1	1	1	1	1	1	1	6	3	0	0	0	0	5	4
090712	14:05:29	10041	Trial750Eng	IncongruentLeft750	15	0	487	0	101	14:05:29	2790893	4	1	1	1	1	1	1	1	1	6	3	0	0	0	0	5	4
090712	14:05:29	10041	Trial750Eng	IncongruentRight750	15	205	229	1	101	14:05:29	2791399	4	1	1	1	1	1	1	1	1	6	3	0	0	0	0	5	4
090712	14:05:29	10041	Trial750Eng	CongruentRight750	15	0	487	0	101	14:05:29	2792399	4	1	1	1	1	1	1	1	1	6	3	0	0	0	0	5	4
090712	14:05:29	10041	Trial750Eng	CongruentLeft750	15	203	403	1	101	14:05:29	2793078	4	1	1	1	1	1	1	1	1	6	3	0	0	0	0	5	4
090712	14:05:29	10041	Trial750Eng	CongruentLeft750	15	203	443	1	101	14:05:29	2793878	4	1	1	1	1	1	1	1	1	6	3	0	0	0	0	5	4
090712	14:05:29	10041	Trial750Eng	IncongruentRight750	15	205	433	1	101	14:05:29	2794611	4	1	1	1	1	1	1	1	1	6	3	0	0	0	0	5	4
090712	14:05:29	10041	Trial750Eng	IncongruentLeft750	15	203	310	1	101	14:05:29	2795237	4	1	1	1	1	1	1	1	1	6	3	0	0	0	0	5	4
090712	14:05:29	10041	Trial750Eng	IncongruentRight750	15	205	399	1	101	14:05:29	2796090	4	1	1	1	1	1	1	1	1	6	3	0	0	0	0	5	4
090712	14:05:29	10041	Trial750Eng	CongruentRight750	15	0	487	0	101	14:05:29	2796903	4	1	1	1	1	1	1	1	1	6	3	0	0	0	0	5	4
090712	14:05:29	10041	Trial750Eng	CongruentRight750	15	0	487	0	101	14:05:29	2797663	4	1	1	1	1	1	1	1	1	6	3	0	0	0	0	5	4
090712	14:05:29	10041	Trial750Eng	IncongruentLeft750	15	203	162	1	101	14:05:29	2798103	4	1	1	1	1	1	1	1	1	6	3	0	0	0	0	5	4
090712	14:05:29	10041	Trial750Eng	CongruentLeft750	15	205	315	0	101	14:05:29	2799009	4	1	1	1	1	1	1	1	1	6	3	0	0	0	0	5	4
090712	14:05:29	10041	Trial750Eng	CongruentRight750	15	0	487	0	101	14:05:29	2799929	4	1	1	1	1	1	1	1	1	6	3	0	0	0	0	5	4
090712	14:05:29	10041	Trial750Eng	CongruentLeft750	15	0	487	0	101	14:05:29	2800689	4	1	1	1	1	1	1	1	1	6	3	0	0	0	0	5	4
090712	14:05:29	10041	Trial750Eng	IncongruentRight750	15	0	487	0	101	14:05:29	2801448	4	1	1	1	1	1	1	1	1	6	3	0	0	0	0	5	4
090712	14:05:29	10041	Trial750Eng	CongruentRight750	15	205	409	1	101	14:05:29	2802128	4	1	1	1	1	1	1	1	1	6	3	0	0	0	0	5	4
090712	14:05:29	10041	Trial750Eng	CongruentLeft750	15	203	417	1	101	14:05:29	2802901	4	1	1	1	1	1	1	1	1	6	3	0	0	0	0	5	4
090712	14:05:29	10041	Trial750Eng	IncongruentLeft750	15	0	487	0	101	14:05:29	2803714	4	1	1	1	1	1	1	1	1	6	3	0	0	0	0	5	4
090712	14:05:29	10041	Trial750Eng	IncongruentLeft750	15	0	487	0	101	14:05:29	2804474	4	1	1	1	1	1	1	1	1	6	3	0	0	0	0	5	4
090712	14:05:29	10041	Trial750Eng	CongruentRight750	15	205	439	1	101	14:05:29	2805193	4	1	1	1	1	1	1	1	1	6	3	0	0	0	0	5	4
090712	14:05:29	10041	Trial750Eng	IncongruentRight750	15	0	487	0	101	14:05:29	2805980	4	1	1	1	1	1	1	1	1	6	3	0	0	0	0	5	4
090712	14:05:29	10041	Trial750Eng	CongruentLeft750	15	203	405	1	101	14:05:29	2806660	4	1	1	1	1	1	1	1	1	6	3	0	0	0	0	5	4
090712	14:05:29	10041	Trial750Eng	IncongruentRight750	15	205	382	1	101	14:05:29	2807392	4	1	1	1	1	1	1	1	1	6	3	0	0	0	0	5	4
090712	14:05:29	10041	Trial750Eng	CongruentRight750	15	0	487	0	101	14:05:29	2808246	4	1	1	1	1	1	1	1	1	6	3	0	0	0	0	5	4
090712	14:05:29	10041	Trial750Eng	IncongruentLeft750	15	203	395	1	101	14:05:29	2808912	4	1	1	1	1	1	1	1	1	6	3	0	0	0	0	5	4
090712	14:05:29	10041	Trial750Eng	CongruentLeft750	15	0	487	0	101	14:05:29	2809752	4	1	1	1	1	1	1	1	1	6	3	0	0	0	0	5	4
090712	14:05:29	10041	Trial750Eng	CongruentRight750	15	0	487	0	101	14:05:29	2810511	4	1	1	1	1	1	1	1	1	6	3	0	0	0	0	5	4
090712	14:05:29	10041	Trial750Eng	IncongruentLeft750	15	205	66	0	101	14:05:29	2810858	4	1	1	1	1	1	1	1	1	6	3	0	0	0	0	5	4
090712	14:05:29	10041	Trial750Eng	CongruentRight750	15	203	362	0	101	14:05:29	2811911	4	1	1	1	1	1	1	1	1	6	3	0	0	0	0	5	4
090712	14:05:29	10041	Trial750Eng	CongruentRight750	15	0	487	0	101	14:05:29	2812777	4	1	1	1	1	1	1	1	1	6	3	0	0	0	0	5	4
090712	14:05:29	10041	Trial750Eng	IncongruentRight750	15	0	487	0	101	14:05:29	2813537	4	1	1	1	1	1	1	1	1	6	3	0	0	0	0	5	4
090712	14:05:29	10041	Trial750Eng	CongruentLeft750	15	205	304	0	101	14:05:29	2814109	4	1	1	1	1	1	1	1	1	6	3	0	0	0	0	5	4
090712	14:05:29	10041	Trial750Eng	IncongruentLeft750	15	0	487	0	101	14:05:29	2815043	4	1	1	1	1	1	1	1	1	6	3	0	0	0	0	5	4
090712	14:05:29	10041	Trial750Eng	CongruentLeft750	15	0	487	0	101	14:05:29	2815802	4	1	1	1	1	1	1	1	1	6	3	0	0	0	0	5	4
090712	14:05:29	10041	Trial750Eng	IncongruentRight750	15	0	487	0	101	14:05:29	2816562	4	1	1	1	1	1	1	1	1	6	3	0	0	0	0	5	4
090712	14:05:29	10041	Trial750Eng	IncongruentLeft750	15	203	383	1	101	14:05:29	2817215	4	1	1	1	1	1	1	1	1	6	3	0	0	0	0	5	4
090712	14:05:29	10041	Trial750Eng	CongruentRight750	15	205	375	1	101	14:05:29	2817975	4	1	1	1	1	1	1	1	1	6	3	0	0	0	0	5	4
090712	14:05:29	10041	Trial750Eng	CongruentLeft750	15	203	300	1	101	14:05:29	2818641	4	1	1	1	1	1	1	1	1	6	3	0	0	0	0	5	4
090712	14:05:29	10041	Trial750Eng	IncongruentLeft750	15	203	450	1	101	14:05:29	2819534	4	1	1	1	1	1	1	1	1	6	3	0	0	0	0	5	4
090712	14:05:29	10041	Trial750Eng	CongruentLeft750	15	203	458	1	101	14:05:29	2820307	4	1	1	1	1	1	1	1	1	6	3	0	0	0	0	5	4
090712	14:05:29	10041	Trial750Eng	IncongruentRight750	15	205	448	1	101	14:05:29	2821040	4	1	1	1	1	1	1	1	1	6	3	0	0	0	0	5	4
090712	14:05:29	10041	Trial750Eng	CongruentRight750	15	0	487	0	101	14:05:29	2821826	4	1	1	1	1	1	1	1	1	6	3	0	0	0	0	5	4
090712	14:05:29	10041	Trial750Eng	IncongruentLeft750	15	203	414	1	101	14:05:29	2822520	4	1	1	1	1	1	1	1	1	6	3	0	0	0	0	5	4
090712	14:05:29	10041	Trial750Eng	CongruentLeft750	15	0	487	0	101	14:05:29	2823333	4	1	1	1	1	1	1	1	1	6	3	0	0	0	0	5	4
090712	14:05:29	10041	Trial750Eng	IncongruentRight750	15	205	428	1	101	14:05:29	2824039	4	1	1	1	1	1	1	1	1	6	3	0	0	0	0	5	4
090712	14:05:29	10041	Trial750Eng	IncongruentLeft750	15	203	244	1	101	14:05:29	2824612	4	1	1	1	1	1	1	1	1	6	3	0	0	0	0	5	4
090712	14:05:29	10041	Trial750Eng	CongruentLeft750	15	205	298	0	101	14:05:29	2825412	4	1	1	1	1	1	1	1	1	6	3	0	0	0	0	5	4
090712	14:05:29	10041	Trial750Eng	IncongruentLeft750	15	0	487	0	101	14:05:29	2826358	4	1	1	1	1	1	1	1	1	6	3	0	0	0	0	5	4
090712	14:05:29	10041	Trial750Eng	CongruentRight750	15	0	487	0	101	14:05:29	2827118	4	1	1	1	1	1	1	1	1	6	3	0	0	0	0	5	4
090712	14:05:29	10041	Trial750Eng	CongruentLeft750	15	203	387	1	101	14:05:29	2827784	4	1	1	1	1	1	1	1	1	6	3	0	0	0	0	5	4
090712	14:05:29	10041	Trial750Eng	IncongruentRight750	15	205	315	1	101	14:05:29	2828464	4	1	1	1	1	1	1	1	1	6	3	0	0	0	0	5	4
090712	14:05:29	10041	Trial750Eng	CongruentLeft750	15	203	353	1	101	14:05:29	2829250	4	1	1	1	1	1	1	1	1	6	3	0	0	0	0	5	4
090712	14:05:29	10041	Trial750Eng	CongruentRight750	15	203	374	0	101	14:05:29	2830023	4	1	1	1	1	1	1	1	1	6	3	0	0	0	0	5	4
090712	14:05:29	10041	Trial750Eng	IncongruentLeft750	15	203	460	1	101	14:05:29	2830849	4	1	1	1	1	1	1	1	1	6	3	0	0	0	0	5	4
090712	14:05:29	10041	WordsAbsEngBaseline	PAbsEngBaseline1	16	Abs1	8651	0	101	14:05:29	2845137	4	1	1	1	1	1	1	1	1	6	3	0	0	0	0	5	4
090712	14:05:29	10041	WordsAbsEngBaseline	AbsEngBaseline1	16	Abs1	3921	0	101	14:05:29	2849095	4	1	1	1	1	1	1	1	1	6	3	1	0	0	0	5	4
090712	14:05:29	10041	WordsAbsEngBaseline	AbsEngBaseline2	16	Abs1	14538	0	101	14:05:29	2863676	4	1	1	1	1	1	1	1	1	6	3	2	0	0	0	5	4
090712	14:05:29	10041	WordsAbsEngBaseline	AbsEngBaseline3	16	Abs1	21733	0	101	14:05:29	2885453	4	1	1	1	1	1	1	1	1	6	3	3	0	0	0	5	4
090712	14:05:29	10041	Trial2BackEngS	NS	17	0	1000	1	101	14:05:29	3100297	4	1	1	1	1	1	1	1	1	6	3	3	0	0	0	5	4
090712	14:05:29	10041	Trial2BackEngS	NS	17	0	1000	1	101	14:05:29	3101817	4	1	1	1	1	1	1	1	1	6	3	3	0	0	0	5	4
090712	14:05:29	10041	Trial2BackEngS	NS	17	0	1000	1	101	14:05:29	3103336	4	1	1	1	1	1	1	1	1	6	3	3	0	0	0	5	4
090712	14:05:29	10041	Trial2BackEngS	YS	17	0	1000	0	101	14:05:29	3104856	4	1	1	1	1	1	1	1	1	6	3	3	0	0	0	5	4
090712	14:05:29	10041	Trial2BackEngS	NS	17	0	1000	1	101	14:05:29	3106375	4	1	1	1	1	1	1	1	1	6	3	3	0	0	0	5	4
090712	14:05:29	10041	Trial2BackEngS	NS	17	0	1000	1	101	14:05:29	3107894	4	1	1	1	1	1	1	1	1	6	3	3	0	0	0	5	4
090712	14:05:29	10041	Trial2BackEngS	NS	17	0	1000	1	101	14:05:29	3109414	4	1	1	1	1	1	1	1	1	6	3	3	0	0	0	5	4
090712	14:05:29	10041	Trial2BackEngS	NS	17	0	1000	1	101	14:05:29	3110933	4	1	1	1	1	1	1	1	1	6	3	3	0	0	0	5	4
090712	14:05:29	10041	Trial2BackEngS	YS	17	57	774	1	101	14:05:29	3112239	4	1	1	1	1	1	1	1	1	6	3	3	0	0	0	5	4
090712	14:05:29	10041	Trial2BackEngS	NS	17	57	550	0	101	14:05:29	3113519	4	1	1	1	1	1	1	1	1	6	3	3	0	0	0	5	4
090712	14:05:29	10041	Trial2BackEngS	NS	17	0	1000	1	101	14:05:29	3115451	4	1	1	1	1	1	1	1	1	6	3	3	0	0	0	5	4
090712	14:05:29	10041	Trial2BackEngS	YS	17	0	1000	0	101	14:05:29	3116971	4	1	1	1	1	1	1	1	1	6	3	3	0	0	0	5	4
090712	14:05:29	10041	Trial2BackEngS	NS	17	0	1000	1	101	14:05:29	3118490	4	1	1	1	1	1	1	1	1	6	3	3	0	0	0	5	4
090712	14:05:29	10041	Trial2BackEngS	NS	17	0	1000	1	101	14:05:29	3120009	4	1	1	1	1	1	1	1	1	6	3	3	0	0	0	5	4
090712	14:05:29	10041	Trial2BackEngS	NS	17	0	1000	1	101	14:05:29	3121529	4	1	1	1	1	1	1	1	1	6	3	3	0	0	0	5	4
090712	14:05:29	10041	Trial2BackEngS	YS	17	0	1000	0	101	14:05:29	3123048	4	1	1	1	1	1	1	1	1	6	3	3	0	0	0	5	4
090712	14:05:29	10041	Trial2BackEngS	NS	17	0	1000	1	101	14:05:29	3124567	4	1	1	1	1	1	1	1	1	6	3	3	0	0	0	5	4
090712	14:05:29	10041	Trial2BackEngS	NS	17	0	1000	1	101	14:05:29	3126087	4	1	1	1	1	1	1	1	1	6	3	3	0	0	0	5	4
090712	14:05:29	10041	Trial2BackEngS	NS	17	57	611	0	101	14:05:29	3127220	4	1	1	1	1	1	1	1	1	6	3	3	0	0	0	5	4
090712	14:05:29	10041	Trial2BackEngS	NS	17	0	1000	1	101	14:05:29	3129112	4	1	1	1	1	1	1	1	1	6	3	3	0	0	0	5	4
090712	14:05:29	10041	Trial2BackEngS	YS	17	57	994	1	101	14:05:29	3130632	4	1	1	1	1	1	1	1	1	6	3	3	0	0	0	5	4
090712	14:05:29	10041	Trial2BackEngS	NS	17	0	1000	1	101	14:05:29	3132151	4	1	1	1	1	1	1	1	1	6	3	3	0	0	0	5	4
090712	14:05:29	10041	Trial2BackEngS	NS	17	0	1000	1	101	14:05:29	3133670	4	1	1	1	1	1	1	1	1	6	3	3	0	0	0	5	4
090712	14:05:29	10041	Trial2BackEngS	NS	17	57	819	0	101	14:05:29	3135016	4	1	1	1	1	1	1	1	1	6	3	3	0	0	0	5	4
090712	14:05:29	10041	Trial2BackEngS	NS	17	0	1000	1	101	14:05:29	3136696	4	1	1	1	1	1	1	1	1	6	3	3	0	0	0	5	4
090712	14:05:29	10041	Trial2BackEngS	NS	17	0	1000	1	101	14:05:29	3138215	4	1	1	1	1	1	1	1	1	6	3	3	0	0	0	5	4
090712	14:05:29	10041	Trial2BackEngS	NS	17	0	1000	1	101	14:05:29	3139734	4	1	1	1	1	1	1	1	1	6	3	3	0	0	0	5	4
090712	14:05:29	10041	Trial2BackEngS	NS	17	0	1000	1	101	14:05:29	3141254	4	1	1	1	1	1	1	1	1	6	3	3	0	0	0	5	4
090712	14:05:29	10041	Trial2BackEngS	NS	17	57	276	0	101	14:05:29	3142054	4	1	1	1	1	1	1	1	1	6	3	3	0	0	0	5	4
090712	14:05:29	10041	Trial2BackEngS	NS	17	0	1000	1	101	14:05:29	3144279	4	1	1	1	1	1	1	1	1	6	3	3	0	0	0	5	4
090712	14:05:29	10041	Trial2BackEngS	NS	17	0	1000	1	101	14:05:29	3145799	4	1	1	1	1	1	1	1	1	6	3	3	0	0	0	5	4
090712	14:05:29	10041	Trial2BackEngS	YS	17	57	403	1	101	14:05:29	3146732	4	1	1	1	1	1	1	1	1	6	3	3	0	0	0	5	4
090712	14:05:29	10041	Trial2BackEngS	NS	17	0	1000	1	101	14:05:29	3148824	4	1	1	1	1	1	1	1	1	6	3	3	0	0	0	5	4
090712	14:05:29	10041	Trial2BackEngS	NS	17	0	1000	1	101	14:05:29	3150343	4	1	1	1	1	1	1	1	1	6	3	3	0	0	0	5	4
090712	14:05:29	10041	Trial2BackEngS	NS	17	0	1000	1	101	14:05:29	3151863	4	1	1	1	1	1	1	1	1	6	3	3	0	0	0	5	4
090712	14:05:29	10041	Trial2BackEngS	YS	17	57	626	1	101	14:05:29	3153022	4	1	1	1	1	1	1	1	1	6	3	3	0	0	0	5	4
090712	14:05:29	10041	Trial2BackEngS	NS	17	0	1000	1	101	14:05:29	3154888	4	1	1	1	1	1	1	1	1	6	3	3	0	0	0	5	4
090712	14:05:29	10041	Trial2BackEngS	NS	17	0	1000	1	101	14:05:29	3156408	4	1	1	1	1	1	1	1	1	6	3	3	0	0	0	5	4
090712	14:05:29	10041	Trial2BackEngS	NS	17	0	1000	1	101	14:05:29	3157927	4	1	1	1	1	1	1	1	1	6	3	3	0	0	0	5	4
090712	14:05:29	10041	Trial2BackEngS	NS	17	0	1000	1	101	14:05:29	3159446	4	1	1	1	1	1	1	1	1	6	3	3	0	0	0	5	4
090712	14:05:29	10041	Trial2BackEngS	NS	17	57	562	0	101	14:05:29	3160539	4	1	1	1	1	1	1	1	1	6	3	3	0	0	0	5	4
090712	14:05:29	10041	Trial2BackEngS	NS	17	0	1000	1	101	14:05:29	3162472	4	1	1	1	1	1	1	1	1	6	3	3	0	0	0	5	4
090712	14:05:29	10041	Trial2BackEngS	NS	17	0	1000	1	101	14:05:29	3163991	4	1	1	1	1	1	1	1	1	6	3	3	0	0	0	5	4
090712	14:05:29	10041	Trial2BackEngS	YS	17	57	850	1	101	14:05:29	3165364	4	1	1	1	1	1	1	1	1	6	3	3	0	0	0	5	4
090712	14:05:29	10041	Trial2BackEngS	NS	17	0	1000	1	101	14:05:29	3167016	4	1	1	1	1	1	1	1	1	6	3	3	0	0	0	5	4
090712	14:05:29	10041	Trial2BackEngS	NS	17	0	1000	1	101	14:05:29	3168536	4	1	1	1	1	1	1	1	1	6	3	3	0	0	0	5	4
090712	14:05:29	10041	Trial2BackEngS	NS	17	0	1000	1	101	14:05:29	3170055	4	1	1	1	1	1	1	1	1	6	3	3	0	0	0	5	4
090712	14:05:29	10041	Trial2BackEngS	NS	17	0	1000	1	101	14:05:29	3171575	4	1	1	1	1	1	1	1	1	6	3	3	0	0	0	5	4
090712	14:05:29	10041	Trial2BackEngS	YS	17	57	322	1	101	14:05:29	3172428	4	1	1	1	1	1	1	1	1	6	3	3	0	0	0	5	4
090712	14:05:29	10041	Trial2BackEngS	NS	17	0	1000	1	101	14:05:29	3174600	4	1	1	1	1	1	1	1	1	6	3	3	0	0	0	5	4
090712	14:05:29	10041	Trial2BackEngS	NS	17	0	1000	1	101	14:05:29	3176119	4	1	1	1	1	1	1	1	1	6	3	3	0	0	0	5	4
090712	14:05:29	10041	Trial2BackEngS	NS	17	0	1000	1	101	14:05:29	3177639	4	1	1	1	1	1	1	1	1	6	3	3	0	0	0	5	4
090712	14:05:29	10041	Trial2BackEngS	NS	17	0	1000	1	101	14:05:29	3179158	4	1	1	1	1	1	1	1	1	6	3	3	0	0	0	5	4
090712	14:05:29	10041	Trial2BackEngS	NS	17	57	514	0	101	14:05:29	3180198	4	1	1	1	1	1	1	1	1	6	3	3	0	0	0	5	4
090712	14:05:29	10041	Trial2BackEngS	NS	17	0	1000	1	101	14:05:29	3182183	4	1	1	1	1	1	1	1	1	6	3	3	0	0	0	5	4
090712	14:05:29	10041	Trial2BackEngS	YS	17	0	1000	0	101	14:05:29	3183703	4	1	1	1	1	1	1	1	1	6	3	3	0	0	0	5	4
090712	14:05:29	10041	Trial2BackEngS	NS	17	0	1000	1	101	14:05:29	3185222	4	1	1	1	1	1	1	1	1	6	3	3	0	0	0	5	4
090712	14:05:29	10041	Trial2BackEngS	NS	17	0	1000	1	101	14:05:29	3186742	4	1	1	1	1	1	1	1	1	6	3	3	0	0	0	5	4
090712	14:05:29	10041	Trial2BackEngS	NS	17	57	450	0	101	14:05:29	3187715	4	1	1	1	1	1	1	1	1	6	3	3	0	0	0	5	4
090712	14:05:29	10041	Trial2BackEngS	NS	17	0	1000	1	101	14:05:29	3189767	4	1	1	1	1	1	1	1	1	6	3	3	0	0	0	5	4
090712	14:05:29	10041	Trial2BackEngS	NS	17	0	1000	1	101	14:05:29	3191286	4	1	1	1	1	1	1	1	1	6	3	3	0	0	0	5	4
090712	14:05:29	10041	Trial2BackEngS	NS	17	0	1000	1	101	14:05:29	3192806	4	1	1	1	1	1	1	1	1	6	3	3	0	0	0	5	4
090712	14:05:29	10041	Trial2BackEngS	NS	17	57	514	0	101	14:05:29	3193845	4	1	1	1	1	1	1	1	1	6	3	3	0	0	0	5	4
090712	14:05:29	10041	Trial2BackEngS	YS	17	0	1000	0	101	14:05:29	3195831	4	1	1	1	1	1	1	1	1	6	3	3	0	0	0	5	4
090712	14:05:29	10041	Trial2BackEngS	NS	17	0	1000	1	101	14:05:29	3197351	4	1	1	1	1	1	1	1	1	6	3	3	0	0	0	5	4
090712	14:05:29	10041	Trial2BackEngS	NS	17	0	1000	1	101	14:05:29	3198870	4	1	1	1	1	1	1	1	1	6	3	3	0	0	0	5	4
090712	14:05:29	10041	Trial2BackEngS	NS	17	57	594	0	101	14:05:29	3199990	4	1	1	1	1	1	1	1	1	6	3	3	0	0	0	5	4
090712	14:05:29	10041	Trial2BackEngS	NS	17	0	1000	1	101	14:05:29	3201895	4	1	1	1	1	1	1	1	1	6	3	3	0	0	0	5	4
090712	14:05:29	10041	Trial2BackEngS	YS	17	0	1000	0	101	14:05:29	3203415	4	1	1	1	1	1	1	1	1	6	3	3	0	0	0	5	4
090712	14:05:29	10041	Trial2BackEngS	NS	17	0	1000	1	101	14:05:29	3204934	4	1	1	1	1	1	1	1	1	6	3	3	0	0	0	5	4
090712	14:05:29	10041	Trial2BackEngS	NS	17	57	449	0	101	14:05:29	3205907	4	1	1	1	1	1	1	1	1	6	3	3	0	0	0	5	4
090712	14:05:29	10041	Trial2BackEngS	YS	17	0	1000	0	101	14:05:29	3207960	4	1	1	1	1	1	1	1	1	6	3	3	0	0	0	5	4
090712	14:05:29	10041	Trial2BackEngS	NS	17	0	1000	1	101	14:05:29	3209479	4	1	1	1	1	1	1	1	1	6	3	3	0	0	0	5	4
090712	14:05:29	10041	Trial2BackEngS	NS	17	0	1000	1	101	14:05:29	3210998	4	1	1	1	1	1	1	1	1	6	3	3	0	0	0	5	4
090712	14:05:29	10041	Trial2BackEngS	NS	17	57	657	0	101	14:05:29	3212184	4	1	1	1	1	1	1	1	1	6	3	3	0	0	0	5	4
090712	14:05:29	10041	Trial2BackEngS	NS	17	0	1000	1	101	14:05:29	3214023	4	1	1	1	1	1	1	1	1	6	3	3	0	0	0	5	4
090712	14:05:29	10041	Trial2BackEngS	NS	17	0	1000	1	101	14:05:29	3215543	4	1	1	1	1	1	1	1	1	6	3	3	0	0	0	5	4
090712	14:05:29	10041	Trial2BackEngS	NS	17	0	1000	1	101	14:05:29	3217063	4	1	1	1	1	1	1	1	1	6	3	3	0	0	0	5	4
090712	14:05:29	10041	Trial2BackEngS	YS	17	57	273	1	101	14:05:29	3217862	4	1	1	1	1	1	1	1	1	6	3	3	0	0	0	5	4
090712	14:05:29	10041	Trial2BackEngS	NS	17	0	1000	1	101	14:05:29	3220088	4	1	1	1	1	1	1	1	1	6	3	3	0	0	0	5	4
090712	14:05:29	10041	Trial2BackEngS	NS	17	0	1000	1	101	14:05:29	3221607	4	1	1	1	1	1	1	1	1	6	3	3	0	0	0	5	4
090712	14:05:29	10041	Trial2BackEngS	NS	17	0	1000	1	101	14:05:29	3223127	4	1	1	1	1	1	1	1	1	6	3	3	0	0	0	5	4
090712	14:05:29	10041	Trial2BackEngS	NS	17	57	304	0	101	14:05:29	3223953	4	1	1	1	1	1	1	1	1	6	3	3	0	0	0	5	4
090712	14:05:29	10041	Trial2BackEngS	YS	17	0	1000	0	101	14:05:29	3226152	4	1	1	1	1	1	1	1	1	6	3	3	0	0	0	5	4
090712	14:05:29	10041	Trial2BackEngS	NS	17	0	1000	1	101	14:05:29	3227671	4	1	1	1	1	1	1	1	1	6	3	3	0	0	0	5	4
090712	14:05:29	10041	Trial2BackEngS	NS	17	0	1000	1	101	14:05:29	3229191	4	1	1	1	1	1	1	1	1	6	3	3	0	0	0	5	4
090712	14:05:29	10041	Trial2BackEngS	NS	17	57	448	0	101	14:05:29	3230164	4	1	1	1	1	1	1	1	1	6	3	3	0	0	0	5	4
090712	14:05:29	10041	Trial2BackEngS	NS	17	0	1000	1	101	14:05:29	3232216	4	1	1	1	1	1	1	1	1	6	3	3	0	0	0	5	4
090712	14:05:29	10041	Trial2BackEngS	YS	17	0	1000	0	101	14:05:29	3233735	4	1	1	1	1	1	1	1	1	6	3	3	0	0	0	5	4
090712	14:05:29	10041	Trial2BackEngS	NS	17	0	1000	1	101	14:05:29	3235255	4	1	1	1	1	1	1	1	1	6	3	3	0	0	0	5	4
090712	14:05:29	10041	Trial2BackEngS	NS	17	0	1000	1	101	14:05:29	3236774	4	1	1	1	1	1	1	1	1	6	3	3	0	0	0	5	4
090712	14:05:29	10041	Trial2BackEngS	YS	17	0	1000	0	101	14:05:29	3238294	4	1	1	1	1	1	1	1	1	6	3	3	0	0	0	5	4
090712	14:05:29	10041	Trial2BackEngS	NS	17	0	1000	1	101	14:05:29	3239813	4	1	1	1	1	1	1	1	1	6	3	3	0	0	0	5	4
090712	14:05:29	10041	Trial2BackEngS	NS	17	57	513	0	101	14:05:29	3240852	4	1	1	1	1	1	1	1	1	6	3	3	0	0	0	5	4
090712	14:05:29	10041	Trial2BackEngS	NS	17	0	1000	1	101	14:05:29	3242838	4	1	1	1	1	1	1	1	1	6	3	3	0	0	0	5	4
090712	14:05:29	10041	Trial2BackEngS	NS	17	0	1000	1	101	14:05:29	3244358	4	1	1	1	1	1	1	1	1	6	3	3	0	0	0	5	4
090712	14:05:29	10041	Trial2BackEngS	NS	17	0	1000	1	101	14:05:29	3245877	4	1	1	1	1	1	1	1	1	6	3	3	0	0	0	5	4
090712	14:05:29	10041	Trial2BackEngS	NS	17	0	1000	1	101	14:05:29	3247397	4	1	1	1	1	1	1	1	1	6	3	3	0	0	0	5	4
090712	14:05:29	10041	Trial2BackEngS	NS	17	0	1000	1	101	14:05:29	3248916	4	1	1	1	1	1	1	1	1	6	3	3	0	0	0	5	4
090712	14:05:29	10041	Trial2BackEngS	NS	17	57	514	0	101	14:05:29	3249955	4	1	1	1	1	1	1	1	1	6	3	3	0	0	0	5	4
090712	14:05:29	10041	Trial2BackEngS	YS	17	0	1000	0	101	14:05:29	3251941	4	1	1	1	1	1	1	1	1	6	3	3	0	0	0	5	4
090712	14:05:29	10041	Trial2BackEngS	NS	17	0	1000	1	101	14:05:29	3253461	4	1	1	1	1	1	1	1	1	6	3	3	0	0	0	5	4
090712	14:05:29	10041	Trial2BackEngS	NS	17	0	1000	1	101	14:05:29	3254980	4	1	1	1	1	1	1	1	1	6	3	3	0	0	0	5	4
090712	14:05:29	10041	Trial2BackEngS	NS	17	57	754	0	101	14:05:29	3256259	4	1	1	1	1	1	1	1	1	6	3	3	0	0	0	5	4
090712	14:05:29	10041	Trial2BackEngS	NS	17	0	1000	1	101	14:05:29	3258005	4	1	1	1	1	1	1	1	1	6	3	3	0	0	0	5	4
090712	14:05:29	10041	Trial2BackEngS	NS	17	0	1000	1	101	14:05:29	3259525	4	1	1	1	1	1	1	1	1	6	3	3	0	0	0	5	4
090712	14:05:29	10041	Trial2BackEngS	NS	17	0	1000	1	101	14:05:29	3261044	4	1	1	1	1	1	1	1	1	6	3	3	0	0	0	5	4
090712	14:05:29	10041	Trial2BackEngS	NS	17	0	1000	1	101	14:05:29	3262563	4	1	1	1	1	1	1	1	1	6	3	3	0	0	0	5	4
090712	14:05:29	10041	Trial2BackEngS	YS	17	57	658	1	101	14:05:29	3263749	4	1	1	1	1	1	1	1	1	6	3	3	0	0	0	5	4
090712	14:05:29	10041	Trial2BackEngS	NS	17	0	1000	1	101	14:05:29	3265589	4	1	1	1	1	1	1	1	1	6	3	3	0	0	0	5	4
090712	14:05:29	10041	Trial2BackEngS	NS	17	0	1000	1	101	14:05:29	3267108	4	1	1	1	1	1	1	1	1	6	3	3	0	0	0	5	4
090712	14:05:29	10041	Trial2BackEngS	NS	17	0	1000	1	101	14:05:29	3268628	4	1	1	1	1	1	1	1	1	6	3	3	0	0	0	5	4
090712	14:05:29	10041	Trial2BackEngS	NS	17	57	34	0	101	14:05:29	3269187	4	1	1	1	1	1	1	1	1	6	3	3	0	0	0	5	4
090712	14:05:29	10041	Trial2BackEngS	NS	17	0	1000	1	101	14:05:29	3271653	4	1	1	1	1	1	1	1	1	6	3	3	0	0	0	5	4
090712	14:05:29	10041	Trial2BackEngS	NS	17	0	1000	1	101	14:05:29	3273172	4	1	1	1	1	1	1	1	1	6	3	3	0	0	0	5	4
090712	14:05:29	10041	Trial2BackEngS	NS	17	0	1000	1	101	14:05:29	3274692	4	1	1	1	1	1	1	1	1	6	3	3	0	0	0	5	4
090712	14:05:29	10041	Trial2BackEngS	NS	17	0	1000	1	101	14:05:29	3276211	4	1	1	1	1	1	1	1	1	6	3	3	0	0	0	5	4
090712	14:05:29	10041	Trial2BackEngS	NS	17	0	1000	1	101	14:05:29	3277731	4	1	1	1	1	1	1	1	1	6	3	3	0	0	0	5	4
090712	14:05:29	10041	Trial2BackEngS	YS	17	0	1000	0	101	14:05:29	3279250	4	1	1	1	1	1	1	1	1	6	3	3	0	0	0	5	4
090712	14:05:29	10041	Trial2BackEngS	NS	17	0	1000	1	101	14:05:29	3280769	4	1	1	1	1	1	1	1	1	6	3	3	0	0	0	5	4
090712	14:05:29	10041	ClockEngBaseline	ClockEngBaseline	19	Clock1	90210	0	101	14:05:29	3371092	4	1	1	1	1	1	1	1	1	6	3	3	1	0	0	5	4
090712	14:05:29	10041	ClockEngBaseline	ClockEngBaseline	19	Clock11	588	0	101	14:05:29	3371718	4	1	1	1	1	1	1	1	1	6	3	3	1	1	0	5	4
090712	14:05:29	10041	ClockEngBaseline	ClockEngBaseline	19	Clock111	561	0	101	14:05:29	3372318	4	1	1	1	1	1	1	1	1	6	3	3	1	1	1	5	4
090712	14:05:29	10041	ClockEngBaseline	ClockEngBaseline	19	Clockdone	905	0	101	14:05:29	3373264	4	1	1	1	1	1	1	1	1	6	3	3	1	1	1	5	4
090712	14:05:29	10041	FASEngVFBaseline	StopEngVFBaseline	20	18	23047	0	101	14:05:29	3513130	4	1	1	1	1	1	1	1	1	6	3	3	1	1	1	5	4
