date	time	subject	blockcode	trialcode	values.TaskNumber	response	latency	correct	values.Score	script.starttime	script.elapsedtime	values.ScoreS7	values.Word1	values.Word2	values.Word3	values.Word4	values.Word5	values.Word6	values.Word7	values.Word8	values.DigitSpanFwrd	values.DigitSpanBack	values.ScoreAbs	values.Contour	values.Numbers	values.Hands	values.corsiblockspanFwrd	values.corsiblockspanRev
070612	13:57:54	10022	Language	Language	0	French	235441	0	0	13:57:54	235801	0	0	0	0	0	0	0	0	0	0	0	0	0	0	0	0	0
070612	13:57:54	10022	Session	Session	0	Baseline	1252	0	0	13:57:54	237174	0	0	0	0	0	0	0	0	0	0	0	0	0	0	0	0	0
070612	13:57:54	10022	HandFr	HandFr	0	RightFr	675734	0	0	13:57:54	912986	0	0	0	0	0	0	0	0	0	0	0	0	0	0	0	0	0
070612	13:57:54	10022	AudioCheckFr	WordsFr	0	0	0	0	0	13:57:54	955188	0	0	0	0	0	0	0	0	0	0	0	0	0	0	0	0	0
070612	13:57:54	10022	CubeFr	CubeFr	1	1Cube	25794	0	0	13:57:54	986078	0	0	0	0	0	0	0	0	0	0	0	0	0	0	0	0	0
070612	13:57:54	10022	pm.simpleFrRight	blank.simpleFr	2	57	614	0	0	13:57:54	1075829	0	0	0	0	0	0	0	0	0	0	0	0	0	0	0	0	0
070612	13:57:54	10022	pm.simpleFrRight	blank.simpleFr	2	0	2487	1	0	13:57:54	1078668	0	0	0	0	0	0	0	0	0	0	0	0	0	0	0	0	0
070612	13:57:54	10022	pm.simpleFrRight	pm.simpleFr	2	57	2524	0	0	13:57:54	1081227	0	0	0	0	0	0	0	0	0	0	0	0	0	0	0	0	0
070612	13:57:54	10022	pm.simpleFrRight	blank.simpleFr	2	0	1587	1	0	13:57:54	1082839	0	0	0	0	0	0	0	0	0	0	0	0	0	0	0	0	0
070612	13:57:54	10022	pm.simpleFrRight	pm.simpleFr	2	57	687	0	0	13:57:54	1083559	0	0	0	0	0	0	0	0	0	0	0	0	0	0	0	0	0
070612	13:57:54	10022	pm.simpleFrRight	blank.simpleFr	2	0	1787	1	0	13:57:54	1085372	0	0	0	0	0	0	0	0	0	0	0	0	0	0	0	0	0
070612	13:57:54	10022	pm.simpleFrRight	pm.simpleFr	2	57	508	0	0	13:57:54	1085919	0	0	0	0	0	0	0	0	0	0	0	0	0	0	0	0	0
070612	13:57:54	10022	pm.simpleFrRight	blank.simpleFr	2	0	1887	1	0	13:57:54	1087838	0	0	0	0	0	0	0	0	0	0	0	0	0	0	0	0	0
070612	13:57:54	10022	pm.simpleFrRight	pm.simpleFr	2	57	409	0	0	13:57:54	1088278	0	0	0	0	0	0	0	0	0	0	0	0	0	0	0	0	0
070612	13:57:54	10022	pm.simpleFrRight	blank.simpleFr	2	0	2187	1	0	13:57:54	1090490	0	0	0	0	0	0	0	0	0	0	0	0	0	0	0	0	0
070612	13:57:54	10022	pm.simpleFrRight	pm.simpleFr	2	57	573	0	0	13:57:54	1091103	0	0	0	0	0	0	0	0	0	0	0	0	0	0	0	0	0
070612	13:57:54	10022	pm.simpleFrRight	blank.simpleFr	2	0	2087	1	0	13:57:54	1093222	0	0	0	0	0	0	0	0	0	0	0	0	0	0	0	0	0
070612	13:57:54	10022	pm.simpleFrRight	pm.simpleFr	2	57	465	0	0	13:57:54	1093728	0	0	0	0	0	0	0	0	0	0	0	0	0	0	0	0	0
070612	13:57:54	10022	pm.simpleFrRight	blank.simpleFr	2	0	2387	1	0	13:57:54	1096141	0	0	0	0	0	0	0	0	0	0	0	0	0	0	0	0	0
070612	13:57:54	10022	pm.simpleFrRight	pm.simpleFr	2	57	410	0	0	13:57:54	1096594	0	0	0	0	0	0	0	0	0	0	0	0	0	0	0	0	0
070612	13:57:54	10022	pm.simpleFrRight	blank.simpleFr	2	0	2287	1	0	13:57:54	1098913	0	0	0	0	0	0	0	0	0	0	0	0	0	0	0	0	0
070612	13:57:54	10022	pm.simpleFrRight	pm.simpleFr	2	57	454	0	0	13:57:54	1099406	0	0	0	0	0	0	0	0	0	0	0	0	0	0	0	0	0
070612	13:57:54	10022	pm.simpleFrRight	blank.simpleFr	2	0	1687	1	0	13:57:54	1101126	0	0	0	0	0	0	0	0	0	0	0	0	0	0	0	0	0
070612	13:57:54	10022	pm.simpleFrRight	pm.simpleFr	2	57	514	0	0	13:57:54	1101672	0	0	0	0	0	0	0	0	0	0	0	0	0	0	0	0	0
070612	13:57:54	10022	pm.simpleFrRight	blank.simpleFr	2	0	1487	1	0	13:57:54	1103191	0	0	0	0	0	0	0	0	0	0	0	0	0	0	0	0	0
070612	13:57:54	10022	pm.simpleFrRight	pm.simpleFr	2	57	463	0	0	13:57:54	1103685	0	0	0	0	0	0	0	0	0	0	0	0	0	0	0	0	0
070612	13:57:54	10022	pm.simpleFrRight	blank.simpleFr	2	0	2487	1	0	13:57:54	1106204	0	0	0	0	0	0	0	0	0	0	0	0	0	0	0	0	0
070612	13:57:54	10022	pm.simpleFrRight	pm.simpleFr	2	57	444	0	0	13:57:54	1106683	0	0	0	0	0	0	0	0	0	0	0	0	0	0	0	0	0
070612	13:57:54	10022	pm.simpleFrRight	blank.simpleFr	2	0	2287	1	0	13:57:54	1109003	0	0	0	0	0	0	0	0	0	0	0	0	0	0	0	0	0
070612	13:57:54	10022	pm.simpleFrRight	pm.simpleFr	2	57	333	0	0	13:57:54	1109376	0	0	0	0	0	0	0	0	0	0	0	0	0	0	0	0	0
070612	13:57:54	10022	pm.simpleFrRight	blank.simpleFr	2	0	1587	1	0	13:57:54	1110988	0	0	0	0	0	0	0	0	0	0	0	0	0	0	0	0	0
070612	13:57:54	10022	pm.simpleFrRight	pm.simpleFr	2	57	314	0	0	13:57:54	1111335	0	0	0	0	0	0	0	0	0	0	0	0	0	0	0	0	0
070612	13:57:54	10022	pm.simpleFrRight	blank.simpleFr	2	0	1787	1	0	13:57:54	1113148	0	0	0	0	0	0	0	0	0	0	0	0	0	0	0	0	0
070612	13:57:54	10022	pm.simpleFrRight	pm.simpleFr	2	57	476	0	0	13:57:54	1113654	0	0	0	0	0	0	0	0	0	0	0	0	0	0	0	0	0
070612	13:57:54	10022	pm.simpleFrRight	blank.simpleFr	2	0	2387	1	0	13:57:54	1116066	0	0	0	0	0	0	0	0	0	0	0	0	0	0	0	0	0
070612	13:57:54	10022	pm.simpleFrRight	pm.simpleFr	2	57	453	0	0	13:57:54	1116560	0	0	0	0	0	0	0	0	0	0	0	0	0	0	0	0	0
070612	13:57:54	10022	pm.simpleFrRight	blank.simpleFr	2	0	1487	1	0	13:57:54	1118066	0	0	0	0	0	0	0	0	0	0	0	0	0	0	0	0	0
070612	13:57:54	10022	pm.simpleFrRight	pm.simpleFr	2	57	453	0	0	13:57:54	1118559	0	0	0	0	0	0	0	0	0	0	0	0	0	0	0	0	0
070612	13:57:54	10022	pm.simpleFrRight	blank.simpleFr	2	0	1887	1	0	13:57:54	1120479	0	0	0	0	0	0	0	0	0	0	0	0	0	0	0	0	0
070612	13:57:54	10022	pm.simpleFrRight	pm.simpleFr	2	57	473	0	0	13:57:54	1120985	0	0	0	0	0	0	0	0	0	0	0	0	0	0	0	0	0
070612	13:57:54	10022	pm.simpleFrRight	blank.simpleFr	2	0	1987	1	0	13:57:54	1122997	0	0	0	0	0	0	0	0	0	0	0	0	0	0	0	0	0
070612	13:57:54	10022	pm.simpleFrRight	pm.simpleFr	2	57	466	0	0	13:57:54	1123504	0	0	0	0	0	0	0	0	0	0	0	0	0	0	0	0	0
070612	13:57:54	10022	pm.simpleFrRight	blank.simpleFr	2	0	2087	1	0	13:57:54	1125623	0	0	0	0	0	0	0	0	0	0	0	0	0	0	0	0	0
070612	13:57:54	10022	pm.simpleFrRight	pm.simpleFr	2	57	464	0	0	13:57:54	1126129	0	0	0	0	0	0	0	0	0	0	0	0	0	0	0	0	0
070612	13:57:54	10022	pm.simpleFrRight	blank.simpleFr	2	0	2187	1	0	13:57:54	1128342	0	0	0	0	0	0	0	0	0	0	0	0	0	0	0	0	0
070612	13:57:54	10022	pm.simpleFrRight	pm.simpleFr	2	57	385	0	0	13:57:54	1128768	0	0	0	0	0	0	0	0	0	0	0	0	0	0	0	0	0
070612	13:57:54	10022	pm.simpleFrRight	blank.simpleFr	2	0	1687	1	0	13:57:54	1130487	0	0	0	0	0	0	0	0	0	0	0	0	0	0	0	0	0
070612	13:57:54	10022	pm.simpleFrRight	pm.simpleFr	2	57	495	0	0	13:57:54	1131021	0	0	0	0	0	0	0	0	0	0	0	0	0	0	0	0	0
070612	13:57:54	10022	pm.simpleFrRight	blank.simpleFr	2	0	2087	1	0	13:57:54	1133140	0	0	0	0	0	0	0	0	0	0	0	0	0	0	0	0	0
070612	13:57:54	10022	pm.simpleFrRight	pm.simpleFr	2	57	418	0	0	13:57:54	1133593	0	0	0	0	0	0	0	0	0	0	0	0	0	0	0	0	0
070612	13:57:54	10022	pm.simpleFrRight	blank.simpleFr	2	0	1687	1	0	13:57:54	1135312	0	0	0	0	0	0	0	0	0	0	0	0	0	0	0	0	0
070612	13:57:54	10022	pm.simpleFrRight	pm.simpleFr	2	57	319	0	0	13:57:54	1135712	0	0	0	0	0	0	0	0	0	0	0	0	0	0	0	0	0
070612	13:57:54	10022	pm.simpleFrRight	blank.simpleFr	2	0	2187	1	0	13:57:54	1137925	0	0	0	0	0	0	0	0	0	0	0	0	0	0	0	0	0
070612	13:57:54	10022	pm.simpleFrRight	pm.simpleFr	2	57	434	0	0	13:57:54	1138391	0	0	0	0	0	0	0	0	0	0	0	0	0	0	0	0	0
070612	13:57:54	10022	pm.simpleFrRight	blank.simpleFr	2	0	1587	1	0	13:57:54	1140004	0	0	0	0	0	0	0	0	0	0	0	0	0	0	0	0	0
070612	13:57:54	10022	pm.simpleFrRight	pm.simpleFr	2	57	387	0	0	13:57:54	1140430	0	0	0	0	0	0	0	0	0	0	0	0	0	0	0	0	0
070612	13:57:54	10022	pm.simpleFrRight	blank.simpleFr	2	0	2487	1	0	13:57:54	1142949	0	0	0	0	0	0	0	0	0	0	0	0	0	0	0	0	0
070612	13:57:54	10022	pm.simpleFrRight	pm.simpleFr	2	57	385	0	0	13:57:54	1143376	0	0	0	0	0	0	0	0	0	0	0	0	0	0	0	0	0
070612	13:57:54	10022	pm.simpleFrRight	blank.simpleFr	2	0	1987	1	0	13:57:54	1145388	0	0	0	0	0	0	0	0	0	0	0	0	0	0	0	0	0
070612	13:57:54	10022	pm.simpleFrRight	pm.simpleFr	2	57	363	0	0	13:57:54	1145788	0	0	0	0	0	0	0	0	0	0	0	0	0	0	0	0	0
070612	13:57:54	10022	pm.simpleFrRight	blank.simpleFr	2	0	1887	1	0	13:57:54	1147707	0	0	0	0	0	0	0	0	0	0	0	0	0	0	0	0	0
070612	13:57:54	10022	pm.simpleFrRight	pm.simpleFr	2	57	331	0	0	13:57:54	1148081	0	0	0	0	0	0	0	0	0	0	0	0	0	0	0	0	0
070612	13:57:54	10022	pm.simpleFrRight	blank.simpleFr	2	0	2387	1	0	13:57:54	1150493	0	0	0	0	0	0	0	0	0	0	0	0	0	0	0	0	0
070612	13:57:54	10022	pm.simpleFrRight	pm.simpleFr	2	57	410	0	0	13:57:54	1150933	0	0	0	0	0	0	0	0	0	0	0	0	0	0	0	0	0
070612	13:57:54	10022	pm.simpleFrRight	blank.simpleFr	2	0	2287	1	0	13:57:54	1153238	0	0	0	0	0	0	0	0	0	0	0	0	0	0	0	0	0
070612	13:57:54	10022	pm.simpleFrRight	pm.simpleFr	2	57	368	0	0	13:57:54	1153638	0	0	0	0	0	0	0	0	0	0	0	0	0	0	0	0	0
070612	13:57:54	10022	pm.simpleFrRight	blank.simpleFr	2	0	1487	1	0	13:57:54	1155144	0	0	0	0	0	0	0	0	0	0	0	0	0	0	0	0	0
070612	13:57:54	10022	pm.simpleFrRight	pm.simpleFr	2	57	609	0	0	13:57:54	1155798	0	0	0	0	0	0	0	0	0	0	0	0	0	0	0	0	0
070612	13:57:54	10022	pm.simpleFrRight	blank.simpleFr	2	0	1787	1	0	13:57:54	1157610	0	0	0	0	0	0	0	0	0	0	0	0	0	0	0	0	0
070612	13:57:54	10022	pm.simpleFrRight	pm.simpleFr	2	57	348	0	0	13:57:54	1157997	0	0	0	0	0	0	0	0	0	0	0	0	0	0	0	0	0
070612	13:57:54	10022	pm.simpleFrRight	blank.simpleFr	2	0	2287	1	0	13:57:54	1160316	0	0	0	0	0	0	0	0	0	0	0	0	0	0	0	0	0
070612	13:57:54	10022	pm.simpleFrRight	pm.simpleFr	2	57	330	0	0	13:57:54	1160689	0	0	0	0	0	0	0	0	0	0	0	0	0	0	0	0	0
070612	13:57:54	10022	pm.simpleFrRight	blank.simpleFr	2	0	1487	1	0	13:57:54	1162208	0	0	0	0	0	0	0	0	0	0	0	0	0	0	0	0	0
070612	13:57:54	10022	pm.simpleFrRight	pm.simpleFr	2	57	454	0	0	13:57:54	1162701	0	0	0	0	0	0	0	0	0	0	0	0	0	0	0	0	0
070612	13:57:54	10022	pm.simpleFrRight	blank.simpleFr	2	0	2487	1	0	13:57:54	1165220	0	0	0	0	0	0	0	0	0	0	0	0	0	0	0	0	0
070612	13:57:54	10022	pm.simpleFrRight	pm.simpleFr	2	57	402	0	0	13:57:54	1165660	0	0	0	0	0	0	0	0	0	0	0	0	0	0	0	0	0
070612	13:57:54	10022	pm.simpleFrRight	blank.simpleFr	2	0	2087	1	0	13:57:54	1167779	0	0	0	0	0	0	0	0	0	0	0	0	0	0	0	0	0
070612	13:57:54	10022	pm.simpleFrRight	pm.simpleFr	2	57	387	0	0	13:57:54	1168206	0	0	0	0	0	0	0	0	0	0	0	0	0	0	0	0	0
070612	13:57:54	10022	pm.simpleFrRight	blank.simpleFr	2	0	1787	1	0	13:57:54	1170019	0	0	0	0	0	0	0	0	0	0	0	0	0	0	0	0	0
070612	13:57:54	10022	pm.simpleFrRight	pm.simpleFr	2	57	372	0	0	13:57:54	1170432	0	0	0	0	0	0	0	0	0	0	0	0	0	0	0	0	0
070612	13:57:54	10022	pm.simpleFrRight	blank.simpleFr	2	0	2387	1	0	13:57:54	1172844	0	0	0	0	0	0	0	0	0	0	0	0	0	0	0	0	0
070612	13:57:54	10022	pm.simpleFrRight	pm.simpleFr	2	57	394	0	0	13:57:54	1173270	0	0	0	0	0	0	0	0	0	0	0	0	0	0	0	0	0
070612	13:57:54	10022	pm.simpleFrRight	blank.simpleFr	2	0	1987	1	0	13:57:54	1175283	0	0	0	0	0	0	0	0	0	0	0	0	0	0	0	0	0
070612	13:57:54	10022	pm.simpleFrRight	pm.simpleFr	2	57	339	0	0	13:57:54	1175656	0	0	0	0	0	0	0	0	0	0	0	0	0	0	0	0	0
070612	13:57:54	10022	pm.simpleFrRight	blank.simpleFr	2	0	1687	1	0	13:57:54	1177376	0	0	0	0	0	0	0	0	0	0	0	0	0	0	0	0	0
070612	13:57:54	10022	pm.simpleFrRight	pm.simpleFr	2	57	407	0	0	13:57:54	1177815	0	0	0	0	0	0	0	0	0	0	0	0	0	0	0	0	0
070612	13:57:54	10022	Trial2BackFr	N	3	0	1000	1	1	13:57:54	1260996	0	0	0	0	0	0	0	0	0	0	0	0	0	0	0	0	0
070612	13:57:54	10022	Trial2BackFr	N	3	0	1000	1	2	13:57:54	1262516	0	0	0	0	0	0	0	0	0	0	0	0	0	0	0	0	0
070612	13:57:54	10022	Trial2BackFr	N	3	0	1000	1	3	13:57:54	1264035	0	0	0	0	0	0	0	0	0	0	0	0	0	0	0	0	0
070612	13:57:54	10022	Trial2BackFr	N	3	0	1000	1	4	13:57:54	1265555	0	0	0	0	0	0	0	0	0	0	0	0	0	0	0	0	0
070612	13:57:54	10022	Trial2BackFr	N	3	0	1000	1	5	13:57:54	1267074	0	0	0	0	0	0	0	0	0	0	0	0	0	0	0	0	0
070612	13:57:54	10022	Trial2BackFr	N	3	0	1000	1	6	13:57:54	1268593	0	0	0	0	0	0	0	0	0	0	0	0	0	0	0	0	0
070612	13:57:54	10022	Trial2BackFr	N	3	0	1000	1	7	13:57:54	1270113	0	0	0	0	0	0	0	0	0	0	0	0	0	0	0	0	0
070612	13:57:54	10022	Trial2BackFr	N	3	0	1000	1	8	13:57:54	1271632	0	0	0	0	0	0	0	0	0	0	0	0	0	0	0	0	0
070612	13:57:54	10022	Trial2BackFr	Y	3	0	1000	0	8	13:57:54	1273152	0	0	0	0	0	0	0	0	0	0	0	0	0	0	0	0	0
070612	13:57:54	10022	Trial2BackFr	N	3	0	1000	1	9	13:57:54	1274671	0	0	0	0	0	0	0	0	0	0	0	0	0	0	0	0	0
070612	13:57:54	10022	Trial2BackFr	N	3	0	1000	1	10	13:57:54	1276190	0	0	0	0	0	0	0	0	0	0	0	0	0	0	0	0	0
070612	13:57:54	10022	Trial2BackFr	N	3	0	1000	1	11	13:57:54	1277710	0	0	0	0	0	0	0	0	0	0	0	0	0	0	0	0	0
070612	13:57:54	10022	Trial2BackFr	Y	3	57	652	1	12	13:57:54	1278896	0	0	0	0	0	0	0	0	0	0	0	0	0	0	0	0	0
070612	13:57:54	10022	Trial2BackFr	N	3	0	1000	1	13	13:57:54	1280735	0	0	0	0	0	0	0	0	0	0	0	0	0	0	0	0	0
070612	13:57:54	10022	Trial2BackFr	N	3	0	1000	1	14	13:57:54	1282255	0	0	0	0	0	0	0	0	0	0	0	0	0	0	0	0	0
070612	13:57:54	10022	Trial2BackFr	N	3	0	1000	1	15	13:57:54	1283774	0	0	0	0	0	0	0	0	0	0	0	0	0	0	0	0	0
070612	13:57:54	10022	Trial2BackFr	N	3	0	1000	1	16	13:57:54	1285293	0	0	0	0	0	0	0	0	0	0	0	0	0	0	0	0	0
070612	13:57:54	10022	Trial2BackFr	N	3	0	1000	1	17	13:57:54	1286813	0	0	0	0	0	0	0	0	0	0	0	0	0	0	0	0	0
070612	13:57:54	10022	Trial2BackFr	Y	3	57	525	1	18	13:57:54	1287866	0	0	0	0	0	0	0	0	0	0	0	0	0	0	0	0	0
070612	13:57:54	10022	Trial2BackFr	N	3	0	1000	1	19	13:57:54	1289838	0	0	0	0	0	0	0	0	0	0	0	0	0	0	0	0	0
070612	13:57:54	10022	Trial2BackFr	N	3	57	700	0	19	13:57:54	1291064	0	0	0	0	0	0	0	0	0	0	0	0	0	0	0	0	0
070612	13:57:54	10022	Trial2BackFr	N	3	0	1000	1	20	13:57:54	1292864	0	0	0	0	0	0	0	0	0	0	0	0	0	0	0	0	0
070612	13:57:54	10022	Trial2BackFr	N	3	0	1000	1	21	13:57:54	1294383	0	0	0	0	0	0	0	0	0	0	0	0	0	0	0	0	0
070612	13:57:54	10022	Trial2BackFr	Y	3	57	554	1	22	13:57:54	1295463	0	0	0	0	0	0	0	0	0	0	0	0	0	0	0	0	0
070612	13:57:54	10022	Trial2BackFr	N	3	0	1000	1	23	13:57:54	1297409	0	0	0	0	0	0	0	0	0	0	0	0	0	0	0	0	0
070612	13:57:54	10022	Trial2BackFr	N	3	0	1000	1	24	13:57:54	1298928	0	0	0	0	0	0	0	0	0	0	0	0	0	0	0	0	0
070612	13:57:54	10022	Trial2BackFr	N	3	0	1000	1	25	13:57:54	1300448	0	0	0	0	0	0	0	0	0	0	0	0	0	0	0	0	0
070612	13:57:54	10022	Trial2BackFr	N	3	0	1000	1	26	13:57:54	1301967	0	0	0	0	0	0	0	0	0	0	0	0	0	0	0	0	0
070612	13:57:54	10022	Trial2BackFr	N	3	0	1000	1	27	13:57:54	1303486	0	0	0	0	0	0	0	0	0	0	0	0	0	0	0	0	0
070612	13:57:54	10022	Trial2BackFr	N	3	0	1000	1	28	13:57:54	1305006	0	0	0	0	0	0	0	0	0	0	0	0	0	0	0	0	0
070612	13:57:54	10022	Trial2BackFr	Y	3	0	1000	0	28	13:57:54	1306525	0	0	0	0	0	0	0	0	0	0	0	0	0	0	0	0	0
070612	13:57:54	10022	Trial2BackFr	N	3	0	1000	1	29	13:57:54	1308044	0	0	0	0	0	0	0	0	0	0	0	0	0	0	0	0	0
070612	13:57:54	10022	Trial2BackFr	N	3	0	1000	1	30	13:57:54	1309564	0	0	0	0	0	0	0	0	0	0	0	0	0	0	0	0	0
070612	13:57:54	10022	Trial2BackFr	N	3	0	1000	1	31	13:57:54	1311096	0	0	0	0	0	0	0	0	0	0	0	0	0	0	0	0	0
070612	13:57:54	10022	Trial2BackFr	Y	3	57	513	1	32	13:57:54	1312136	0	0	0	0	0	0	0	0	0	0	0	0	0	0	0	0	0
070612	13:57:54	10022	Trial2BackFr	N	3	0	1000	1	33	13:57:54	1314122	0	0	0	0	0	0	0	0	0	0	0	0	0	0	0	0	0
070612	13:57:54	10022	Trial2BackFr	N	3	0	1000	1	34	13:57:54	1315642	0	0	0	0	0	0	0	0	0	0	0	0	0	0	0	0	0
070612	13:57:54	10022	Trial2BackFr	N	3	0	1000	1	35	13:57:54	1317161	0	0	0	0	0	0	0	0	0	0	0	0	0	0	0	0	0
070612	13:57:54	10022	Trial2BackFr	N	3	0	1000	1	36	13:57:54	1318680	0	0	0	0	0	0	0	0	0	0	0	0	0	0	0	0	0
070612	13:57:54	10022	Trial2BackFr	N	3	0	1000	1	37	13:57:54	1320200	0	0	0	0	0	0	0	0	0	0	0	0	0	0	0	0	0
070612	13:57:54	10022	Trial2BackFr	N	3	0	1000	1	38	13:57:54	1321719	0	0	0	0	0	0	0	0	0	0	0	0	0	0	0	0	0
070612	13:57:54	10022	Trial2BackFr	Y	3	57	578	1	39	13:57:54	1322825	0	0	0	0	0	0	0	0	0	0	0	0	0	0	0	0	0
070612	13:57:54	10022	Trial2BackFr	N	3	0	1000	1	40	13:57:54	1324745	0	0	0	0	0	0	0	0	0	0	0	0	0	0	0	0	0
070612	13:57:54	10022	Trial2BackFr	N	3	0	1000	1	41	13:57:54	1326264	0	0	0	0	0	0	0	0	0	0	0	0	0	0	0	0	0
070612	13:57:54	10022	Trial2BackFr	N	3	0	1000	1	42	13:57:54	1327783	0	0	0	0	0	0	0	0	0	0	0	0	0	0	0	0	0
070612	13:57:54	10022	Trial2BackFr	N	3	0	1000	1	43	13:57:54	1329303	0	0	0	0	0	0	0	0	0	0	0	0	0	0	0	0	0
070612	13:57:54	10022	Trial2BackFr	Y	3	0	1000	0	43	13:57:54	1330822	0	0	0	0	0	0	0	0	0	0	0	0	0	0	0	0	0
070612	13:57:54	10022	Trial2BackFr	N	3	0	1000	1	44	13:57:54	1332342	0	0	0	0	0	0	0	0	0	0	0	0	0	0	0	0	0
070612	13:57:54	10022	Trial2BackFr	N	3	0	1000	1	45	13:57:54	1333861	0	0	0	0	0	0	0	0	0	0	0	0	0	0	0	0	0
070612	13:57:54	10022	Trial2BackFr	N	3	0	1000	1	46	13:57:54	1335380	0	0	0	0	0	0	0	0	0	0	0	0	0	0	0	0	0
070612	13:57:54	10022	Trial2BackFr	N	3	0	1000	1	47	13:57:54	1336900	0	0	0	0	0	0	0	0	0	0	0	0	0	0	0	0	0
070612	13:57:54	10022	Trial2BackFr	N	3	0	1000	1	48	13:57:54	1338419	0	0	0	0	0	0	0	0	0	0	0	0	0	0	0	0	0
070612	13:57:54	10022	Trial2BackFr	Y	3	57	630	1	49	13:57:54	1339578	0	0	0	0	0	0	0	0	0	0	0	0	0	0	0	0	0
070612	13:57:54	10022	Trial2BackFr	N	3	0	1000	1	50	13:57:54	1341445	0	0	0	0	0	0	0	0	0	0	0	0	0	0	0	0	0
070612	13:57:54	10022	Trial2BackFr	N	3	0	1000	1	51	13:57:54	1342964	0	0	0	0	0	0	0	0	0	0	0	0	0	0	0	0	0
070612	13:57:54	10022	Trial2BackFr	N	3	0	1000	1	52	13:57:54	1344483	0	0	0	0	0	0	0	0	0	0	0	0	0	0	0	0	0
070612	13:57:54	10022	Trial2BackFr	N	3	0	1000	1	53	13:57:54	1346003	0	0	0	0	0	0	0	0	0	0	0	0	0	0	0	0	0
070612	13:57:54	10022	Trial2BackFr	N	3	0	1000	1	54	13:57:54	1347522	0	0	0	0	0	0	0	0	0	0	0	0	0	0	0	0	0
070612	13:57:54	10022	Trial2BackFr	N	3	0	1000	1	55	13:57:54	1349042	0	0	0	0	0	0	0	0	0	0	0	0	0	0	0	0	0
070612	13:57:54	10022	Trial2BackFr	Y	3	0	1000	0	55	13:57:54	1350561	0	0	0	0	0	0	0	0	0	0	0	0	0	0	0	0	0
070612	13:57:54	10022	Trial2BackFr	N	3	57	520	0	55	13:57:54	1351614	0	0	0	0	0	0	0	0	0	0	0	0	0	0	0	0	0
070612	13:57:54	10022	Trial2BackFr	N	3	0	1000	1	56	13:57:54	1353586	0	0	0	0	0	0	0	0	0	0	0	0	0	0	0	0	0
070612	13:57:54	10022	Trial2BackFr	Y	3	0	1000	0	56	13:57:54	1355106	0	0	0	0	0	0	0	0	0	0	0	0	0	0	0	0	0
070612	13:57:54	10022	Trial2BackFr	N	3	0	1000	1	57	13:57:54	1356625	0	0	0	0	0	0	0	0	0	0	0	0	0	0	0	0	0
070612	13:57:54	10022	Trial2BackFr	N	3	0	1000	1	58	13:57:54	1358145	0	0	0	0	0	0	0	0	0	0	0	0	0	0	0	0	0
070612	13:57:54	10022	Trial2BackFr	N	3	0	1000	1	59	13:57:54	1359664	0	0	0	0	0	0	0	0	0	0	0	0	0	0	0	0	0
070612	13:57:54	10022	Trial2BackFr	N	3	0	1000	1	60	13:57:54	1361184	0	0	0	0	0	0	0	0	0	0	0	0	0	0	0	0	0
070612	13:57:54	10022	Trial2BackFr	N	3	0	1000	1	61	13:57:54	1362703	0	0	0	0	0	0	0	0	0	0	0	0	0	0	0	0	0
070612	13:57:54	10022	Trial2BackFr	N	3	0	1000	1	62	13:57:54	1364222	0	0	0	0	0	0	0	0	0	0	0	0	0	0	0	0	0
070612	13:57:54	10022	Trial2BackFr	N	3	0	1000	1	63	13:57:54	1365742	0	0	0	0	0	0	0	0	0	0	0	0	0	0	0	0	0
070612	13:57:54	10022	Trial2BackFr	N	3	0	1000	1	64	13:57:54	1367261	0	0	0	0	0	0	0	0	0	0	0	0	0	0	0	0	0
070612	13:57:54	10022	Trial2BackFr	N	3	0	1000	1	65	13:57:54	1368780	0	0	0	0	0	0	0	0	0	0	0	0	0	0	0	0	0
070612	13:57:54	10022	Trial2BackFr	N	3	0	1000	1	66	13:57:54	1370300	0	0	0	0	0	0	0	0	0	0	0	0	0	0	0	0	0
070612	13:57:54	10022	Trial2BackFr	Y	3	57	812	1	67	13:57:54	1371646	0	0	0	0	0	0	0	0	0	0	0	0	0	0	0	0	0
070612	13:57:54	10022	Trial2BackFr	N	3	0	1000	1	68	13:57:54	1373325	0	0	0	0	0	0	0	0	0	0	0	0	0	0	0	0	0
070612	13:57:54	10022	Trial2BackFr	N	3	0	1000	1	69	13:57:54	1374845	0	0	0	0	0	0	0	0	0	0	0	0	0	0	0	0	0
070612	13:57:54	10022	Trial2BackFr	N	3	0	1000	1	70	13:57:54	1376364	0	0	0	0	0	0	0	0	0	0	0	0	0	0	0	0	0
070612	13:57:54	10022	Trial2BackFr	Y	3	57	594	1	71	13:57:54	1377510	0	0	0	0	0	0	0	0	0	0	0	0	0	0	0	0	0
070612	13:57:54	10022	Trial2BackFr	N	3	0	1000	1	72	13:57:54	1379416	0	0	0	0	0	0	0	0	0	0	0	0	0	0	0	0	0
070612	13:57:54	10022	Trial2BackFr	N	3	0	1000	1	73	13:57:54	1380936	0	0	0	0	0	0	0	0	0	0	0	0	0	0	0	0	0
070612	13:57:54	10022	Trial2BackFr	N	3	0	1000	1	74	13:57:54	1382455	0	0	0	0	0	0	0	0	0	0	0	0	0	0	0	0	0
070612	13:57:54	10022	Trial2BackFr	N	3	0	1000	1	75	13:57:54	1383975	0	0	0	0	0	0	0	0	0	0	0	0	0	0	0	0	0
070612	13:57:54	10022	Trial2BackFr	N	3	0	1000	1	76	13:57:54	1385494	0	0	0	0	0	0	0	0	0	0	0	0	0	0	0	0	0
070612	13:57:54	10022	Trial2BackFr	Y	3	0	1000	0	76	13:57:54	1387013	0	0	0	0	0	0	0	0	0	0	0	0	0	0	0	0	0
070612	13:57:54	10022	Trial2BackFr	N	3	0	1000	1	77	13:57:54	1388533	0	0	0	0	0	0	0	0	0	0	0	0	0	0	0	0	0
070612	13:57:54	10022	Trial2BackFr	N	3	0	1000	1	78	13:57:54	1390052	0	0	0	0	0	0	0	0	0	0	0	0	0	0	0	0	0
070612	13:57:54	10022	Trial2BackFr	N	3	0	1000	1	79	13:57:54	1391572	0	0	0	0	0	0	0	0	0	0	0	0	0	0	0	0	0
070612	13:57:54	10022	Trial2BackFr	N	3	0	1000	1	80	13:57:54	1393091	0	0	0	0	0	0	0	0	0	0	0	0	0	0	0	0	0
070612	13:57:54	10022	Trial2BackFr	N	3	0	1000	1	81	13:57:54	1394610	0	0	0	0	0	0	0	0	0	0	0	0	0	0	0	0	0
070612	13:57:54	10022	Trial2BackFr	N	3	0	1000	1	82	13:57:54	1396130	0	0	0	0	0	0	0	0	0	0	0	0	0	0	0	0	0
070612	13:57:54	10022	Trial2BackFr	N	3	0	1000	1	83	13:57:54	1397649	0	0	0	0	0	0	0	0	0	0	0	0	0	0	0	0	0
070612	13:57:54	10022	Trial2BackFr	N	3	57	631	0	83	13:57:54	1398809	0	0	0	0	0	0	0	0	0	0	0	0	0	0	0	0	0
070612	13:57:54	10022	Trial2BackFr	N	3	0	1000	1	84	13:57:54	1400675	0	0	0	0	0	0	0	0	0	0	0	0	0	0	0	0	0
070612	13:57:54	10022	Trial2BackFr	Y	3	0	1000	0	84	13:57:54	1402194	0	0	0	0	0	0	0	0	0	0	0	0	0	0	0	0	0
070612	13:57:54	10022	Trial2BackFr	N	3	0	1000	1	85	13:57:54	1403713	0	0	0	0	0	0	0	0	0	0	0	0	0	0	0	0	0
070612	13:57:54	10022	Trial2BackFr	N	3	0	1000	1	86	13:57:54	1405233	0	0	0	0	0	0	0	0	0	0	0	0	0	0	0	0	0
070612	13:57:54	10022	Trial2BackFr	N	3	0	1000	1	87	13:57:54	1406752	0	0	0	0	0	0	0	0	0	0	0	0	0	0	0	0	0
070612	13:57:54	10022	Trial2BackFr	N	3	0	1000	1	88	13:57:54	1408272	0	0	0	0	0	0	0	0	0	0	0	0	0	0	0	0	0
070612	13:57:54	10022	Trial2BackFr	N	3	0	1000	1	89	13:57:54	1409791	0	0	0	0	0	0	0	0	0	0	0	0	0	0	0	0	0
070612	13:57:54	10022	Trial2BackFr	N	3	0	1000	1	90	13:57:54	1411310	0	0	0	0	0	0	0	0	0	0	0	0	0	0	0	0	0
070612	13:57:54	10022	Trial2BackFr	N	3	0	1000	1	91	13:57:54	1412830	0	0	0	0	0	0	0	0	0	0	0	0	0	0	0	0	0
070612	13:57:54	10022	Trial2BackFr	N	3	0	1000	1	92	13:57:54	1414349	0	0	0	0	0	0	0	0	0	0	0	0	0	0	0	0	0
070612	13:57:54	10022	Trial2BackFr	Y	3	57	987	1	93	13:57:54	1415869	0	0	0	0	0	0	0	0	0	0	0	0	0	0	0	0	0
070612	13:57:54	10022	Trial2BackFr	N	3	0	1000	1	94	13:57:54	1417388	0	0	0	0	0	0	0	0	0	0	0	0	0	0	0	0	0
070612	13:57:54	10022	Trial2BackFr	N	3	0	1000	1	95	13:57:54	1418907	0	0	0	0	0	0	0	0	0	0	0	0	0	0	0	0	0
070612	13:57:54	10022	Trial2BackFr	N	3	0	1000	1	96	13:57:54	1420427	0	0	0	0	0	0	0	0	0	0	0	0	0	0	0	0	0
070612	13:57:54	10022	Trial2BackFr	N	3	0	1000	1	97	13:57:54	1421946	0	0	0	0	0	0	0	0	0	0	0	0	0	0	0	0	0
070612	13:57:54	10022	Trial2BackFr	Y	3	57	798	1	98	13:57:54	1423279	0	0	0	0	0	0	0	0	0	0	0	0	0	0	0	0	0
070612	13:57:54	10022	Trial2BackFr	N	3	0	1000	1	99	13:57:54	1424972	0	0	0	0	0	0	0	0	0	0	0	0	0	0	0	0	0
070612	13:57:54	10022	Trial2BackFr	N	3	0	1000	1	100	13:57:54	1426491	0	0	0	0	0	0	0	0	0	0	0	0	0	0	0	0	0
070612	13:57:54	10022	Trial2BackFr	N	3	0	1000	1	101	13:57:54	1428011	0	0	0	0	0	0	0	0	0	0	0	0	0	0	0	0	0
070612	13:57:54	10022	Trial2BackFr	Y	3	57	653	1	102	13:57:54	1429197	0	0	0	0	0	0	0	0	0	0	0	0	0	0	0	0	0
070612	13:57:54	10022	Trial2BackFr	N	3	0	1000	1	103	13:57:54	1431036	0	0	0	0	0	0	0	0	0	0	0	0	0	0	0	0	0
070612	13:57:54	10022	Trial2BackFr	N	3	0	1000	1	104	13:57:54	1432555	0	0	0	0	0	0	0	0	0	0	0	0	0	0	0	0	0
070612	13:57:54	10022	Trial2BackFr	N	3	0	1000	1	105	13:57:54	1434075	0	0	0	0	0	0	0	0	0	0	0	0	0	0	0	0	0
070612	13:57:54	10022	Trial2BackFr	N	3	0	1000	1	106	13:57:54	1435594	0	0	0	0	0	0	0	0	0	0	0	0	0	0	0	0	0
070612	13:57:54	10022	Trial2BackFr	N	3	0	1000	1	107	13:57:54	1437114	0	0	0	0	0	0	0	0	0	0	0	0	0	0	0	0	0
070612	13:57:54	10022	Trial2BackFr	Y	3	57	590	1	108	13:57:54	1438233	0	0	0	0	0	0	0	0	0	0	0	0	0	0	0	0	0
070612	13:57:54	10022	Trial2BackFr	N	3	0	1000	1	109	13:57:54	1440139	0	0	0	0	0	0	0	0	0	0	0	0	0	0	0	0	0
070612	13:57:54	10022	Trial2BackFr	N	3	0	1000	1	110	13:57:54	1441658	0	0	0	0	0	0	0	0	0	0	0	0	0	0	0	0	0
070612	13:57:54	10022	Trial2BackFr	N	3	0	1000	1	111	13:57:54	1443178	0	0	0	0	0	0	0	0	0	0	0	0	0	0	0	0	0
070612	13:57:54	10022	Trial2BackFr	Y	3	0	1000	0	111	13:57:54	1444697	0	0	0	0	0	0	0	0	0	0	0	0	0	0	0	0	0
070612	13:57:54	10022	Memory1RBaselineFr	ScoreFr	5	M1	42634	0	111	13:57:54	1522733	0	0	0	0	0	0	0	0	0	0	0	0	0	0	0	0	0
070612	13:57:54	10022	Memory1RBaselineFr	ScoreFr	5	M3	1255	0	111	13:57:54	1524026	0	0	0	0	0	0	0	0	0	0	0	0	0	0	0	0	0
070612	13:57:54	10022	Memory1RBaselineFr	ScoreFr	5	M5	2346	0	111	13:57:54	1526412	0	0	0	0	0	0	0	0	0	0	0	0	0	0	0	0	0
070612	13:57:54	10022	Memory1RBaselineFr	ScoreFr	5	M7	1048	0	111	13:57:54	1527505	0	0	0	0	0	0	0	0	0	0	0	0	0	0	0	0	0
070612	13:57:54	10022	Memory1RBaselineFr	ScoreFr	5	Done	1555	0	111	13:57:54	1529104	0	0	0	0	0	0	0	0	0	0	0	0	0	0	0	0	0
070612	13:57:54	10022	Memory2RBaselineFr	ScoreFr2	5	11	28376	0	111	13:57:54	1576059	0	0	0	0	0	0	0	0	0	0	0	0	0	0	0	0	0
070612	13:57:54	10022	Memory2RBaselineFr	ScoreFr2	5	22	1089	0	111	13:57:54	1577192	0	0	0	0	0	0	0	0	0	0	0	0	0	0	0	0	0
070612	13:57:54	10022	Memory2RBaselineFr	ScoreFr2	5	33	315	0	111	13:57:54	1577552	0	0	0	0	0	0	0	0	0	0	0	0	0	0	0	0	0
070612	13:57:54	10022	Memory2RBaselineFr	ScoreFr2	5	55	8244	0	111	13:57:54	1585842	0	0	0	0	0	0	0	0	0	0	0	0	0	0	0	0	0
070612	13:57:54	10022	Memory2RBaselineFr	ScoreFr2	5	66	585	0	111	13:57:54	1586468	0	0	0	0	0	0	0	0	0	0	0	0	0	0	0	0	0
070612	13:57:54	10022	Memory2RBaselineFr	ScoreFr2	5	77	359	0	111	13:57:54	1586868	0	0	0	0	0	0	0	0	0	0	0	0	0	0	0	0	0
070612	13:57:54	10022	Memory2RBaselineFr	ScoreFr2	5	Done	3743	0	111	13:57:54	1590653	0	0	0	0	0	0	0	0	0	0	0	0	0	0	0	0	0
070612	13:57:54	10022	Memory3RBaselineFr	ScoreFr3	5	111	28167	0	111	13:57:54	1636782	0	0	0	0	0	0	0	0	0	0	0	0	0	0	0	0	0
070612	13:57:54	10022	Memory3RBaselineFr	ScoreFr3	5	222	245	0	111	13:57:54	1637062	0	0	0	0	0	0	0	0	0	0	0	0	0	0	0	0	0
070612	13:57:54	10022	Memory3RBaselineFr	ScoreFr3	5	333	261	0	111	13:57:54	1637368	0	0	0	0	0	0	0	0	0	0	0	0	0	0	0	0	0
070612	13:57:54	10022	Memory3RBaselineFr	ScoreFr3	5	555	274	0	111	13:57:54	1637688	0	0	0	0	0	0	0	0	0	0	0	0	0	0	0	0	0
070612	13:57:54	10022	Memory3RBaselineFr	ScoreFr3	5	444	394	0	111	13:57:54	1638128	0	0	0	0	0	0	0	0	0	0	0	0	0	0	0	0	0
070612	13:57:54	10022	Memory3RBaselineFr	ScoreFr3	5	666	435	0	111	13:57:54	1638608	0	0	0	0	0	0	0	0	0	0	0	0	0	0	0	0	0
070612	13:57:54	10022	Memory3RBaselineFr	ScoreFr3	5	777	291	0	111	13:57:54	1638941	0	0	0	0	0	0	0	0	0	0	0	0	0	0	0	0	0
070612	13:57:54	10022	Memory3RBaselineFr	ScoreFr3	5	888	526	0	111	13:57:54	1639501	0	0	0	0	0	0	0	0	0	0	0	0	0	0	0	0	0
070612	13:57:54	10022	Memory3RBaselineFr	ScoreFr3	5	Done	1278	0	111	13:57:54	1640820	0	0	0	0	0	0	0	0	0	0	0	0	0	0	0	0	0
070612	13:57:54	10022	LoriaFrLH3	Stop	6	5	5400	0	111	13:57:54	1752538	0	0	0	0	0	0	0	0	0	0	0	0	0	0	0	0	0
070612	13:57:54	10022	FrTrail	Trails	7	1Trails	2887	0	111	13:57:54	1819816	0	0	0	0	0	0	0	0	0	0	0	0	0	0	0	0	0
070612	13:57:54	10022	Serial7FrBaseline	Serial7FrBaseline	8	83	10568	0	111	13:57:54	1985846	1	0	0	0	0	0	0	0	0	0	0	0	0	0	0	0	0
070612	13:57:54	10022	Serial7FrBaseline	Serial7FrBaseline	8	76	3006	0	111	13:57:54	1988872	2	0	0	0	0	0	0	0	0	0	0	0	0	0	0	0	0
070612	13:57:54	10022	Serial7FrBaseline	Serial7FrBaseline	8	69	3531	0	111	13:57:54	1992431	3	0	0	0	0	0	0	0	0	0	0	0	0	0	0	0	0
070612	13:57:54	10022	Serial7FrBaseline	Serial7FrBaseline	8	62	3461	0	111	13:57:54	1995910	4	0	0	0	0	0	0	0	0	0	0	0	0	0	0	0	0
070612	13:57:54	10022	Serial7FrBaseline	Serial7FrBaseline	8	55	2159	0	111	13:57:54	1998096	5	0	0	0	0	0	0	0	0	0	0	0	0	0	0	0	0
070612	13:57:54	10022	corsiblockFrFwrd	recallseqFrFwrd	9	5	13772	0	111	13:57:54	2057179	5	0	0	0	0	0	0	0	0	0	0	0	0	0	0	0	0
070612	13:57:54	10022	corsiblockFrFwrd	recallseqFrFwrd	9	resetCorsiFr	4804	0	111	13:57:54	2062017	5	0	0	0	0	0	0	0	0	0	0	0	0	0	0	0	0
070612	13:57:54	10022	corsiblockFrFwrd	recallseqFrFwrd	9	7	1495	0	111	13:57:54	2063550	5	0	0	0	0	0	0	0	0	0	0	0	0	0	0	0	0
070612	13:57:54	10022	corsiblockFrFwrd	recallseqFrFwrd	9	5	1282	0	111	13:57:54	2064869	5	0	0	0	0	0	0	0	0	0	0	0	0	0	0	0	0
070612	13:57:54	10022	corsiblockFrFwrd	recallseqFrFwrd	9	doneCorsiFr	11290	0	111	13:57:54	2076198	5	0	0	0	0	0	0	0	0	0	0	0	0	0	0	2	0
070612	13:57:54	10022	corsiblockFrFwrd	recallseqFrFwrd	9	8	2038	0	111	13:57:54	2084328	5	0	0	0	0	0	0	0	0	0	0	0	0	0	0	2	0
070612	13:57:54	10022	corsiblockFrFwrd	recallseqFrFwrd	9	3	1279	0	111	13:57:54	2085648	5	0	0	0	0	0	0	0	0	0	0	0	0	0	0	2	0
070612	13:57:54	10022	corsiblockFrFwrd	recallseqFrFwrd	9	9	1295	0	111	13:57:54	2086980	5	0	0	0	0	0	0	0	0	0	0	0	0	0	0	2	0
070612	13:57:54	10022	corsiblockFrFwrd	recallseqFrFwrd	9	doneCorsiFr	1867	0	111	13:57:54	2088886	5	0	0	0	0	0	0	0	0	0	0	0	0	0	0	3	0
070612	13:57:54	10022	corsiblockFrFwrd	recallseqFrFwrd	9	2	1702	0	111	13:57:54	2097683	5	0	0	0	0	0	0	0	0	0	0	0	0	0	0	3	0
070612	13:57:54	10022	corsiblockFrFwrd	recallseqFrFwrd	9	6	948	0	111	13:57:54	2098669	5	0	0	0	0	0	0	0	0	0	0	0	0	0	0	3	0
070612	13:57:54	10022	corsiblockFrFwrd	recallseqFrFwrd	9	1	1114	0	111	13:57:54	2099829	5	0	0	0	0	0	0	0	0	0	0	0	0	0	0	3	0
070612	13:57:54	10022	corsiblockFrFwrd	recallseqFrFwrd	9	4	906	0	111	13:57:54	2100775	5	0	0	0	0	0	0	0	0	0	0	0	0	0	0	3	0
070612	13:57:54	10022	corsiblockFrFwrd	recallseqFrFwrd	9	doneCorsiFr	2208	0	111	13:57:54	2103027	5	0	0	0	0	0	0	0	0	0	0	0	0	0	0	4	0
070612	13:57:54	10022	corsiblockFrFwrd	recallseqFrFwrd	9	2	2049	0	111	13:57:54	2113170	5	0	0	0	0	0	0	0	0	0	0	0	0	0	0	4	0
070612	13:57:54	10022	corsiblockFrFwrd	recallseqFrFwrd	9	5	757	0	111	13:57:54	2113970	5	0	0	0	0	0	0	0	0	0	0	0	0	0	0	4	0
070612	13:57:54	10022	corsiblockFrFwrd	recallseqFrFwrd	9	9	813	0	111	13:57:54	2114823	5	0	0	0	0	0	0	0	0	0	0	0	0	0	0	4	0
070612	13:57:54	10022	corsiblockFrFwrd	recallseqFrFwrd	9	6	896	0	111	13:57:54	2115756	5	0	0	0	0	0	0	0	0	0	0	0	0	0	0	4	0
070612	13:57:54	10022	corsiblockFrFwrd	recallseqFrFwrd	9	8	1107	0	111	13:57:54	2116902	5	0	0	0	0	0	0	0	0	0	0	0	0	0	0	4	0
070612	13:57:54	10022	corsiblockFrFwrd	recallseqFrFwrd	9	doneCorsiFr	929	0	111	13:57:54	2117875	5	0	0	0	0	0	0	0	0	0	0	0	0	0	0	5	0
070612	13:57:54	10022	corsiblockFrFwrd	recallseqFrFwrd	9	7	970	0	111	13:57:54	2127938	5	0	0	0	0	0	0	0	0	0	0	0	0	0	0	5	0
070612	13:57:54	10022	corsiblockFrFwrd	recallseqFrFwrd	9	3	813	0	111	13:57:54	2128791	5	0	0	0	0	0	0	0	0	0	0	0	0	0	0	5	0
070612	13:57:54	10022	corsiblockFrFwrd	recallseqFrFwrd	9	1	680	0	111	13:57:54	2129510	5	0	0	0	0	0	0	0	0	0	0	0	0	0	0	5	0
070612	13:57:54	10022	corsiblockFrFwrd	recallseqFrFwrd	9	4	711	0	111	13:57:54	2130257	5	0	0	0	0	0	0	0	0	0	0	0	0	0	0	5	0
070612	13:57:54	10022	corsiblockFrFwrd	recallseqFrFwrd	9	1	1150	0	111	13:57:54	2131443	5	0	0	0	0	0	0	0	0	0	0	0	0	0	0	5	0
070612	13:57:54	10022	corsiblockFrFwrd	recallseqFrFwrd	9	2	1020	0	111	13:57:54	2132496	5	0	0	0	0	0	0	0	0	0	0	0	0	0	0	5	0
070612	13:57:54	10022	corsiblockFrFwrd	recallseqFrFwrd	9	doneCorsiFr	1159	0	111	13:57:54	2133695	5	0	0	0	0	0	0	0	0	0	0	0	0	0	0	5	0
070612	13:57:54	10022	corsiblockFrFwrd	recallseqFrFwrd	9	3	1541	0	111	13:57:54	2144291	5	0	0	0	0	0	0	0	0	0	0	0	0	0	0	5	0
070612	13:57:54	10022	corsiblockFrFwrd	recallseqFrFwrd	9	4	1019	0	111	13:57:54	2145344	5	0	0	0	0	0	0	0	0	0	0	0	0	0	0	5	0
070612	13:57:54	10022	corsiblockFrFwrd	recallseqFrFwrd	9	5	782	0	111	13:57:54	2146170	5	0	0	0	0	0	0	0	0	0	0	0	0	0	0	5	0
070612	13:57:54	10022	corsiblockFrFwrd	recallseqFrFwrd	9	8	740	0	111	13:57:54	2146943	5	0	0	0	0	0	0	0	0	0	0	0	0	0	0	5	0
070612	13:57:54	10022	corsiblockFrFwrd	recallseqFrFwrd	9	2	1032	0	111	13:57:54	2148010	5	0	0	0	0	0	0	0	0	0	0	0	0	0	0	5	0
070612	13:57:54	10022	corsiblockFrFwrd	recallseqFrFwrd	9	6	885	0	111	13:57:54	2148929	5	0	0	0	0	0	0	0	0	0	0	0	0	0	0	5	0
070612	13:57:54	10022	corsiblockFrFwrd	recallseqFrFwrd	9	doneCorsiFr	1317	0	111	13:57:54	2150289	5	0	0	0	0	0	0	0	0	0	0	0	0	0	0	6	0
070612	13:57:54	10022	corsiblockFrFwrd	recallseqFrFwrd	9	7	1020	0	111	13:57:54	2160391	5	0	0	0	0	0	0	0	0	0	0	0	0	0	0	6	0
070612	13:57:54	10022	corsiblockFrFwrd	recallseqFrFwrd	9	9	670	0	111	13:57:54	2161098	5	0	0	0	0	0	0	0	0	0	0	0	0	0	0	6	0
070612	13:57:54	10022	corsiblockFrFwrd	recallseqFrFwrd	9	5	732	0	111	13:57:54	2161871	5	0	0	0	0	0	0	0	0	0	0	0	0	0	0	6	0
070612	13:57:54	10022	corsiblockFrFwrd	recallseqFrFwrd	9	4	511	0	111	13:57:54	2162417	5	0	0	0	0	0	0	0	0	0	0	0	0	0	0	6	0
070612	13:57:54	10022	corsiblockFrFwrd	recallseqFrFwrd	9	7	693	0	111	13:57:54	2163150	5	0	0	0	0	0	0	0	0	0	0	0	0	0	0	6	0
070612	13:57:54	10022	corsiblockFrFwrd	recallseqFrFwrd	9	2	872	0	111	13:57:54	2164057	5	0	0	0	0	0	0	0	0	0	0	0	0	0	0	6	0
070612	13:57:54	10022	corsiblockFrFwrd	recallseqFrFwrd	9	8	646	0	111	13:57:54	2164737	5	0	0	0	0	0	0	0	0	0	0	0	0	0	0	6	0
070612	13:57:54	10022	corsiblockFrFwrd	recallseqFrFwrd	9	doneCorsiFr	1766	0	111	13:57:54	2166536	5	0	0	0	0	0	0	0	0	0	0	0	0	0	0	6	0
070612	13:57:54	10022	corsiblockFrFwrd	recallseqFrFwrd	9	6	1517	0	111	13:57:54	2178105	5	0	0	0	0	0	0	0	0	0	0	0	0	0	0	6	0
070612	13:57:54	10022	corsiblockFrFwrd	recallseqFrFwrd	9	1	717	0	111	13:57:54	2178864	5	0	0	0	0	0	0	0	0	0	0	0	0	0	0	6	0
070612	13:57:54	10022	corsiblockFrFwrd	recallseqFrFwrd	9	3	726	0	111	13:57:54	2179624	5	0	0	0	0	0	0	0	0	0	0	0	0	0	0	6	0
070612	13:57:54	10022	corsiblockFrFwrd	recallseqFrFwrd	9	1	1606	0	111	13:57:54	2181263	5	0	0	0	0	0	0	0	0	0	0	0	0	0	0	6	0
070612	13:57:54	10022	corsiblockFrFwrd	recallseqFrFwrd	9	4	2647	0	111	13:57:54	2183956	5	0	0	0	0	0	0	0	0	0	0	0	0	0	0	6	0
070612	13:57:54	10022	corsiblockFrFwrd	recallseqFrFwrd	9	9	794	0	111	13:57:54	2184795	5	0	0	0	0	0	0	0	0	0	0	0	0	0	0	6	0
070612	13:57:54	10022	corsiblockFrFwrd	recallseqFrFwrd	9	doneCorsiFr	1211	0	111	13:57:54	2186048	5	0	0	0	0	0	0	0	0	0	0	0	0	0	0	6	0
070612	13:57:54	10022	corsiblockFrRev	recallseqFrRev	10	9	2302	0	111	13:57:54	2217689	5	0	0	0	0	0	0	0	0	0	0	0	0	0	0	6	0
070612	13:57:54	10022	corsiblockFrRev	recallseqFrRev	10	3	1340	0	111	13:57:54	2219075	5	0	0	0	0	0	0	0	0	0	0	0	0	0	0	6	0
070612	13:57:54	10022	corsiblockFrRev	recallseqFrRev	10	doneCorsiFr	1866	0	111	13:57:54	2220981	5	0	0	0	0	0	0	0	0	0	0	0	0	0	0	6	2
070612	13:57:54	10022	corsiblockFrRev	recallseqFrRev	10	8	3669	0	111	13:57:54	2230737	5	0	0	0	0	0	0	0	0	0	0	0	0	0	0	6	2
070612	13:57:54	10022	corsiblockFrRev	recallseqFrRev	10	6	940	0	111	13:57:54	2231710	5	0	0	0	0	0	0	0	0	0	0	0	0	0	0	6	2
070612	13:57:54	10022	corsiblockFrRev	recallseqFrRev	10	2	743	0	111	13:57:54	2232497	5	0	0	0	0	0	0	0	0	0	0	0	0	0	0	6	2
070612	13:57:54	10022	corsiblockFrRev	recallseqFrRev	10	doneCorsiFr	1221	0	111	13:57:54	2233763	5	0	0	0	0	0	0	0	0	0	0	0	0	0	0	6	3
070612	13:57:54	10022	corsiblockFrRev	recallseqFrRev	10	5	1336	0	111	13:57:54	2242186	5	0	0	0	0	0	0	0	0	0	0	0	0	0	0	6	3
070612	13:57:54	10022	corsiblockFrRev	recallseqFrRev	10	7	739	0	111	13:57:54	2242959	5	0	0	0	0	0	0	0	0	0	0	0	0	0	0	6	3
070612	13:57:54	10022	corsiblockFrRev	recallseqFrRev	10	1	1214	0	111	13:57:54	2244212	5	0	0	0	0	0	0	0	0	0	0	0	0	0	0	6	3
070612	13:57:54	10022	corsiblockFrRev	recallseqFrRev	10	4	761	0	111	13:57:54	2245012	5	0	0	0	0	0	0	0	0	0	0	0	0	0	0	6	3
070612	13:57:54	10022	corsiblockFrRev	recallseqFrRev	10	doneCorsiFr	1034	0	111	13:57:54	2246078	5	0	0	0	0	0	0	0	0	0	0	0	0	0	0	6	4
070612	13:57:54	10022	corsiblockFrRev	recallseqFrRev	10	2	1453	0	111	13:57:54	2255621	5	0	0	0	0	0	0	0	0	0	0	0	0	0	0	6	4
070612	13:57:54	10022	corsiblockFrRev	recallseqFrRev	10	4	800	0	111	13:57:54	2256460	5	0	0	0	0	0	0	0	0	0	0	0	0	0	0	6	4
070612	13:57:54	10022	corsiblockFrRev	recallseqFrRev	10	1	1000	0	111	13:57:54	2257500	5	0	0	0	0	0	0	0	0	0	0	0	0	0	0	6	4
070612	13:57:54	10022	corsiblockFrRev	recallseqFrRev	10	6	993	0	111	13:57:54	2258526	5	0	0	0	0	0	0	0	0	0	0	0	0	0	0	6	4
070612	13:57:54	10022	corsiblockFrRev	recallseqFrRev	10	8	815	0	111	13:57:54	2259379	5	0	0	0	0	0	0	0	0	0	0	0	0	0	0	6	4
070612	13:57:54	10022	corsiblockFrRev	recallseqFrRev	10	doneCorsiFr	874	0	111	13:57:54	2260299	5	0	0	0	0	0	0	0	0	0	0	0	0	0	0	6	5
070612	13:57:54	10022	corsiblockFrRev	recallseqFrRev	10	9	8896	0	111	13:57:54	2278278	5	0	0	0	0	0	0	0	0	0	0	0	0	0	0	6	5
070612	13:57:54	10022	corsiblockFrRev	recallseqFrRev	10	3	1191	0	111	13:57:54	2279505	5	0	0	0	0	0	0	0	0	0	0	0	0	0	0	6	5
070612	13:57:54	10022	corsiblockFrRev	recallseqFrRev	10	5	956	0	111	13:57:54	2280504	5	0	0	0	0	0	0	0	0	0	0	0	0	0	0	6	5
070612	13:57:54	10022	corsiblockFrRev	recallseqFrRev	10	7	772	0	111	13:57:54	2281317	5	0	0	0	0	0	0	0	0	0	0	0	0	0	0	6	5
070612	13:57:54	10022	corsiblockFrRev	recallseqFrRev	10	6	863	0	111	13:57:54	2282224	5	0	0	0	0	0	0	0	0	0	0	0	0	0	0	6	5
070612	13:57:54	10022	corsiblockFrRev	recallseqFrRev	10	doneCorsiFr	1021	0	111	13:57:54	2283290	5	0	0	0	0	0	0	0	0	0	0	0	0	0	0	6	5
070612	13:57:54	10022	corsiblockFrRev	recallseqFrRev	10	4	1113	0	111	13:57:54	2293446	5	0	0	0	0	0	0	0	0	0	0	0	0	0	0	6	5
070612	13:57:54	10022	corsiblockFrRev	recallseqFrRev	10	8	735	0	111	13:57:54	2294219	5	0	0	0	0	0	0	0	0	0	0	0	0	0	0	6	5
070612	13:57:54	10022	corsiblockFrRev	recallseqFrRev	10	7	681	0	111	13:57:54	2294939	5	0	0	0	0	0	0	0	0	0	0	0	0	0	0	6	5
070612	13:57:54	10022	corsiblockFrRev	recallseqFrRev	10	3	842	0	111	13:57:54	2295818	5	0	0	0	0	0	0	0	0	0	0	0	0	0	0	6	5
070612	13:57:54	10022	corsiblockFrRev	recallseqFrRev	10	1	450	0	111	13:57:54	2296311	5	0	0	0	0	0	0	0	0	0	0	0	0	0	0	6	5
070612	13:57:54	10022	corsiblockFrRev	recallseqFrRev	10	9	1269	0	111	13:57:54	2297618	5	0	0	0	0	0	0	0	0	0	0	0	0	0	0	6	5
070612	13:57:54	10022	corsiblockFrRev	recallseqFrRev	10	doneCorsiFr	1019	0	111	13:57:54	2298670	5	0	0	0	0	0	0	0	0	0	0	0	0	0	0	6	6
070612	13:57:54	10022	corsiblockFrRev	recallseqFrRev	10	8	1388	0	111	13:57:54	2309146	5	0	0	0	0	0	0	0	0	0	0	0	0	0	0	6	6
070612	13:57:54	10022	corsiblockFrRev	recallseqFrRev	10	1	1482	0	111	13:57:54	2310666	5	0	0	0	0	0	0	0	0	0	0	0	0	0	0	6	6
070612	13:57:54	10022	corsiblockFrRev	recallseqFrRev	10	6	987	0	111	13:57:54	2311692	5	0	0	0	0	0	0	0	0	0	0	0	0	0	0	6	6
070612	13:57:54	10022	corsiblockFrRev	recallseqFrRev	10	7	984	0	111	13:57:54	2312718	5	0	0	0	0	0	0	0	0	0	0	0	0	0	0	6	6
070612	13:57:54	10022	corsiblockFrRev	recallseqFrRev	10	4	910	0	111	13:57:54	2313665	5	0	0	0	0	0	0	0	0	0	0	0	0	0	0	6	6
070612	13:57:54	10022	corsiblockFrRev	recallseqFrRev	10	2	636	0	111	13:57:54	2314344	5	0	0	0	0	0	0	0	0	0	0	0	0	0	0	6	6
070612	13:57:54	10022	corsiblockFrRev	recallseqFrRev	10	doneCorsiFr	1316	0	111	13:57:54	2315704	5	0	0	0	0	0	0	0	0	0	0	0	0	0	0	6	6
070612	13:57:54	10022	corsiblockFrRev	recallseqFrRev	10	4	1163	0	111	13:57:54	2326913	5	0	0	0	0	0	0	0	0	0	0	0	0	0	0	6	6
070612	13:57:54	10022	corsiblockFrRev	recallseqFrRev	10	3	860	0	111	13:57:54	2327806	5	0	0	0	0	0	0	0	0	0	0	0	0	0	0	6	6
070612	13:57:54	10022	corsiblockFrRev	recallseqFrRev	10	9	2055	0	111	13:57:54	2329898	5	0	0	0	0	0	0	0	0	0	0	0	0	0	0	6	6
070612	13:57:54	10022	corsiblockFrRev	recallseqFrRev	10	3	2083	0	111	13:57:54	2332017	5	0	0	0	0	0	0	0	0	0	0	0	0	0	0	6	6
070612	13:57:54	10022	corsiblockFrRev	recallseqFrRev	10	8	1171	0	111	13:57:54	2333230	5	0	0	0	0	0	0	0	0	0	0	0	0	0	0	6	6
070612	13:57:54	10022	corsiblockFrRev	recallseqFrRev	10	2	750	0	111	13:57:54	2334016	5	0	0	0	0	0	0	0	0	0	0	0	0	0	0	6	6
070612	13:57:54	10022	corsiblockFrRev	recallseqFrRev	10	doneCorsiFr	1374	0	111	13:57:54	2335443	5	0	0	0	0	0	0	0	0	0	0	0	0	0	0	6	6
070612	13:57:54	10022	testFrBaseline	WordsFrBaseline	11	7FrBaseline	769	0	111	13:57:54	2383544	5	0	0	0	0	0	0	1	0	0	0	0	0	0	0	6	6
070612	13:57:54	10022	testFrBaseline	WordsFrBaseline	11	6FrBaseline	244	0	111	13:57:54	2383824	5	0	0	0	0	0	1	1	0	0	0	0	0	0	0	6	6
070612	13:57:54	10022	testFrBaseline	WordsFrBaseline	11	5FrBaseline	276	0	111	13:57:54	2384144	5	0	0	0	0	1	1	1	0	0	0	0	0	0	0	6	6
070612	13:57:54	10022	testFrBaseline	WordsFrBaseline	11	4FrBaseline	524	0	111	13:57:54	2384703	5	0	0	0	1	1	1	1	0	0	0	0	0	0	0	6	6
070612	13:57:54	10022	testFrBaseline	WordsFrBaseline	11	3FrBaseline	284	0	111	13:57:54	2385023	5	0	0	1	1	1	1	1	0	0	0	0	0	0	0	6	6
070612	13:57:54	10022	testFrBaseline	WordsFrBaseline	11	2FrBaseline	429	0	111	13:57:54	2385490	5	0	1	1	1	1	1	1	0	0	0	0	0	0	0	6	6
070612	13:57:54	10022	testFrBaseline	WordsFrBaseline	11	1FrBaseline	506	0	111	13:57:54	2386036	5	1	1	1	1	1	1	1	0	0	0	0	0	0	0	6	6
070612	13:57:54	10022	testFrBaseline	WordsFrBaseline	11	DoneFrBaseline	1320	0	111	13:57:54	2387396	5	1	1	1	1	1	1	1	0	0	0	0	0	0	0	6	6
070612	13:57:54	10022	testFrBaseline	Cat8FrBaseline	11	R8FrBaseline	2907	0	111	13:57:54	2390367	5	1	1	1	1	1	1	1	2	0	0	0	0	0	0	6	6
070612	13:57:54	10022	DigitSpanFwrdFrBaseline	Score1FwrdFrBaseline	12	DS1	4185	0	111	13:57:54	2448491	5	1	1	1	1	1	1	1	2	0	0	0	0	0	0	6	6
070612	13:57:54	10022	DigitSpanFwrdFrBaseline	Gate1FwrdFrBaseline	12	0	1	0	111	13:57:54	2448506	5	1	1	1	1	1	1	1	2	3	0	0	0	0	0	6	6
070612	13:57:54	10022	DigitSpanFwrdFrBaseline	Score2FwrdFrBaseline	12	DS1	2272	0	111	13:57:54	2456941	5	1	1	1	1	1	1	1	2	3	0	0	0	0	0	6	6
070612	13:57:54	10022	DigitSpanFwrdFrBaseline	Gate3FwrdFrBaseline	12	0	1	0	111	13:57:54	2456956	5	1	1	1	1	1	1	1	2	4	0	0	0	0	0	6	6
070612	13:57:54	10022	DigitSpanFwrdFrBaseline	Score3FwrdFrBaseline	12	DS1	2649	0	111	13:57:54	2466551	5	1	1	1	1	1	1	1	2	4	0	0	0	0	0	6	6
070612	13:57:54	10022	DigitSpanFwrdFrBaseline	Gate5FwrdFrBaseline	12	0	1	0	111	13:57:54	2466566	5	1	1	1	1	1	1	1	2	5	0	0	0	0	0	6	6
070612	13:57:54	10022	DigitSpanFwrdFrBaseline	Score4FwrdFrBaseline	12	DS1	5511	0	111	13:57:54	2480612	5	1	1	1	1	1	1	1	2	5	0	0	0	0	0	6	6
070612	13:57:54	10022	DigitSpanFwrdFrBaseline	Gate7FwrdFrBaseline	12	0	1	0	111	13:57:54	2480627	5	1	1	1	1	1	1	1	2	6	0	0	0	0	0	6	6
070612	13:57:54	10022	DigitSpanFwrdFrBaseline	Score5FwrdFrBaseline	12	DS1	6150	0	111	13:57:54	2498844	5	1	1	1	1	1	1	1	2	6	0	0	0	0	0	6	6
070612	13:57:54	10022	DigitSpanFwrdFrBaseline	Gate9FwrdFrBaseline	12	0	1	0	111	13:57:54	2498860	5	1	1	1	1	1	1	1	2	7	0	0	0	0	0	6	6
070612	13:57:54	10022	DigitSpanFwrdFrBaseline	Score6FwrdFrBaseline	12	DS1	4123	0	111	13:57:54	2516157	5	1	1	1	1	1	1	1	2	8	0	0	0	0	0	6	6
070612	13:57:54	10022	DigitSpanFrBaseline	Score1FrBaseline	13	DS1	3694	0	111	13:57:54	2543760	5	1	1	1	1	1	1	1	2	8	0	0	0	0	0	6	6
070612	13:57:54	10022	DigitSpanFrBaseline	Gate1FrBaseline	13	0	1	0	111	13:57:54	2543775	5	1	1	1	1	1	1	1	2	8	2	0	0	0	0	6	6
070612	13:57:54	10022	DigitSpanFrBaseline	Score2FrBaseline	13	DS1	13457	0	111	13:57:54	2561713	5	1	1	1	1	1	1	1	2	8	2	0	0	0	0	6	6
070612	13:57:54	10022	DigitSpanFrBaseline	Gate3FrBaseline	13	0	1	0	111	13:57:54	2561728	5	1	1	1	1	1	1	1	2	8	3	0	0	0	0	6	6
070612	13:57:54	10022	DigitSpanFrBaseline	Score3FrBaseline	13	DS1	4654	0	111	13:57:54	2572095	5	1	1	1	1	1	1	1	2	8	3	0	0	0	0	6	6
070612	13:57:54	10022	DigitSpanFrBaseline	Gate5FrBaseline	13	0	1	0	111	13:57:54	2572111	5	1	1	1	1	1	1	1	2	8	4	0	0	0	0	6	6
070612	13:57:54	10022	DigitSpanFrBaseline	Score4FrBaseline	13	DS2	11796	0	111	13:57:54	2591168	5	1	1	1	1	1	1	1	2	8	4	0	0	0	0	6	6
070612	13:57:54	10022	DigitSpanFrBaseline	Gate7FrBaseline	13	0	1	0	111	13:57:54	2591183	5	1	1	1	1	1	1	1	2	8	4	0	0	0	0	6	6
070612	13:57:54	10022	DigitSpanFrBaseline	Score44FrBaseline	13	DS1	11036	0	111	13:57:54	2609441	5	1	1	1	1	1	1	1	2	8	4	0	0	0	0	6	6
070612	13:57:54	10022	DigitSpanFrBaseline	Gate8FrBaseline	13	0	1	0	111	13:57:54	2609456	5	1	1	1	1	1	1	1	2	8	5	0	0	0	0	6	6
070612	13:57:54	10022	DigitSpanFrBaseline	Score5FrBaseline	13	DS2	21067	0	111	13:57:54	2639295	5	1	1	1	1	1	1	1	2	8	5	0	0	0	0	6	6
070612	13:57:54	10022	DigitSpanFrBaseline	Gate9FrBaseline	13	0	1	0	111	13:57:54	2639311	5	1	1	1	1	1	1	1	2	8	5	0	0	0	0	6	6
070612	13:57:54	10022	DigitSpanFrBaseline	Score55FrBaseline	13	DS2	15961	0	111	13:57:54	2664112	5	1	1	1	1	1	1	1	2	8	5	0	0	0	0	6	6
070612	13:57:54	10022	Trial	IncongruentRight	14	205	545	1	111	13:57:54	2715599	5	1	1	1	1	1	1	1	2	8	5	0	0	0	0	6	6
070612	13:57:54	10022	Trial	IncongruentLeft	14	203	554	1	111	13:57:54	2716599	5	1	1	1	1	1	1	1	2	8	5	0	0	0	0	6	6
070612	13:57:54	10022	Trial	CongruentRight	14	205	450	1	111	13:57:54	2717492	5	1	1	1	1	1	1	1	2	8	5	0	0	0	0	6	6
070612	13:57:54	10022	Trial	IncongruentRight	14	205	685	1	111	13:57:54	2718744	5	1	1	1	1	1	1	1	2	8	5	0	0	0	0	6	6
070612	13:57:54	10022	Trial	CongruentLeft	14	203	677	1	111	13:57:54	2719744	5	1	1	1	1	1	1	1	2	8	5	0	0	0	0	6	6
070612	13:57:54	10022	Trial	CongruentRight	14	205	430	1	111	13:57:54	2720490	5	1	1	1	1	1	1	1	2	8	5	0	0	0	0	6	6
070612	13:57:54	10022	Trial	IncongruentRight	14	205	582	1	111	13:57:54	2721636	5	1	1	1	1	1	1	1	2	8	5	0	0	0	0	6	6
070612	13:57:54	10022	Trial	CongruentLeft	14	203	511	1	111	13:57:54	2722570	5	1	1	1	1	1	1	1	2	8	5	0	0	0	0	6	6
070612	13:57:54	10022	Trial	IncongruentLeft	14	203	599	1	111	13:57:54	2723662	5	1	1	1	1	1	1	1	2	8	5	0	0	0	0	6	6
070612	13:57:54	10022	Trial	IncongruentLeft	14	203	607	1	111	13:57:54	2724662	5	1	1	1	1	1	1	1	2	8	5	0	0	0	0	6	6
070612	13:57:54	10022	Trial	CongruentRight	14	205	536	1	111	13:57:54	2725595	5	1	1	1	1	1	1	1	2	8	5	0	0	0	0	6	6
070612	13:57:54	10022	Trial	IncongruentRight	14	205	576	1	111	13:57:54	2726635	5	1	1	1	1	1	1	1	2	8	5	0	0	0	0	6	6
070612	13:57:54	10022	Trial	CongruentLeft	14	203	504	1	111	13:57:54	2727567	5	1	1	1	1	1	1	1	2	8	5	0	0	0	0	6	6
070612	13:57:54	10022	Trial	CongruentRight	14	205	481	1	111	13:57:54	2728540	5	1	1	1	1	1	1	1	2	8	5	0	0	0	0	6	6
070612	13:57:54	10022	Trial	IncongruentLeft	14	203	457	1	111	13:57:54	2729513	5	1	1	1	1	1	1	1	2	8	5	0	0	0	0	6	6
070612	13:57:54	10022	Trial	IncongruentRight	14	205	498	1	111	13:57:54	2730553	5	1	1	1	1	1	1	1	2	8	5	0	0	0	0	6	6
070612	13:57:54	10022	Trial	CongruentRight	14	205	522	1	111	13:57:54	2731579	5	1	1	1	1	1	1	1	2	8	5	0	0	0	0	6	6
070612	13:57:54	10022	Trial	CongruentLeft	14	203	530	1	111	13:57:54	2732579	5	1	1	1	1	1	1	1	2	8	5	0	0	0	0	6	6
070612	13:57:54	10022	Trial	CongruentRight	14	205	443	1	111	13:57:54	2733498	5	1	1	1	1	1	1	1	2	8	5	0	0	0	0	6	6
070612	13:57:54	10022	Trial	IncongruentRight	14	205	531	1	111	13:57:54	2734591	5	1	1	1	1	1	1	1	2	8	5	0	0	0	0	6	6
070612	13:57:54	10022	Trial	IncongruentLeft	14	203	492	1	111	13:57:54	2735551	5	1	1	1	1	1	1	1	2	8	5	0	0	0	0	6	6
070612	13:57:54	10022	Trial	IncongruentLeft	14	203	596	1	111	13:57:54	2736644	5	1	1	1	1	1	1	1	2	8	5	0	0	0	0	6	6
070612	13:57:54	10022	Trial	CongruentLeft	14	203	540	1	111	13:57:54	2737590	5	1	1	1	1	1	1	1	2	8	5	0	0	0	0	6	6
070612	13:57:54	10022	Trial	CongruentRight	14	205	533	1	111	13:57:54	2738590	5	1	1	1	1	1	1	1	2	8	5	0	0	0	0	6	6
070612	13:57:54	10022	Trial	IncongruentLeft	14	203	557	1	111	13:57:54	2739603	5	1	1	1	1	1	1	1	2	8	5	0	0	0	0	6	6
070612	13:57:54	10022	Trial	IncongruentRight	14	205	486	1	111	13:57:54	2740536	5	1	1	1	1	1	1	1	2	8	5	0	0	0	0	6	6
070612	13:57:54	10022	Trial	CongruentRight	14	205	590	1	111	13:57:54	2741642	5	1	1	1	1	1	1	1	2	8	5	0	0	0	0	6	6
070612	13:57:54	10022	Trial	CongruentLeft	14	203	534	1	111	13:57:54	2742588	5	1	1	1	1	1	1	1	2	8	5	0	0	0	0	6	6
070612	13:57:54	10022	Trial	IncongruentRight	14	205	543	1	111	13:57:54	2743588	5	1	1	1	1	1	1	1	2	8	5	0	0	0	0	6	6
070612	13:57:54	10022	Trial	IncongruentLeft	14	203	567	1	111	13:57:54	2744614	5	1	1	1	1	1	1	1	2	8	5	0	0	0	0	6	6
070612	13:57:54	10022	Trial	IncongruentRight	14	205	496	1	111	13:57:54	2745547	5	1	1	1	1	1	1	1	2	8	5	0	0	0	0	6	6
070612	13:57:54	10022	Trial	CongruentRight	14	205	584	1	111	13:57:54	2746627	5	1	1	1	1	1	1	1	2	8	5	0	0	0	0	6	6
070612	13:57:54	10022	Trial	IncongruentLeft	14	203	576	1	111	13:57:54	2747626	5	1	1	1	1	1	1	1	2	8	5	0	0	0	0	6	6
070612	13:57:54	10022	Trial	CongruentLeft	14	203	504	1	111	13:57:54	2748559	5	1	1	1	1	1	1	1	2	8	5	0	0	0	0	6	6
070612	13:57:54	10022	Trial	CongruentRight	14	205	513	1	111	13:57:54	2749559	5	1	1	1	1	1	1	1	2	8	5	0	0	0	0	6	6
070612	13:57:54	10022	Trial	IncongruentLeft	14	203	585	1	111	13:57:54	2750638	5	1	1	1	1	1	1	1	2	8	5	0	0	0	0	6	6
070612	13:57:54	10022	Trial	IncongruentRight	14	205	564	1	111	13:57:54	2751625	5	1	1	1	1	1	1	1	2	8	5	0	0	0	0	6	6
070612	13:57:54	10022	Trial	IncongruentRight	14	205	572	1	111	13:57:54	2752638	5	1	1	1	1	1	1	1	2	8	5	0	0	0	0	6	6
070612	13:57:54	10022	Trial	CongruentLeft	14	203	501	1	111	13:57:54	2753557	5	1	1	1	1	1	1	1	2	8	5	0	0	0	0	6	6
070612	13:57:54	10022	Trial	IncongruentLeft	14	203	541	1	111	13:57:54	2754597	5	1	1	1	1	1	1	1	2	8	5	0	0	0	0	6	6
070612	13:57:54	10022	Trial	CongruentRight	14	205	438	1	111	13:57:54	2755503	5	1	1	1	1	1	1	1	2	8	5	0	0	0	0	6	6
070612	13:57:54	10022	Trial	CongruentLeft	14	203	414	1	111	13:57:54	2756476	5	1	1	1	1	1	1	1	2	8	5	0	0	0	0	6	6
070612	13:57:54	10022	Trial	IncongruentRight	14	205	423	1	111	13:57:54	2757476	5	1	1	1	1	1	1	1	2	8	5	0	0	0	0	6	6
070612	13:57:54	10022	Trial	CongruentRight	14	205	543	1	111	13:57:54	2758595	5	1	1	1	1	1	1	1	2	8	5	0	0	0	0	6	6
070612	13:57:54	10022	Trial	IncongruentLeft	14	203	439	1	111	13:57:54	2759502	5	1	1	1	1	1	1	1	2	8	5	0	0	0	0	6	6
070612	13:57:54	10022	Trial	CongruentLeft	14	203	608	1	111	13:57:54	2760661	5	1	1	1	1	1	1	1	2	8	5	0	0	0	0	6	6
070612	13:57:54	10022	Trial	IncongruentLeft	14	203	536	1	111	13:57:54	2761594	5	1	1	1	1	1	1	1	2	8	5	0	0	0	0	6	6
070612	13:57:54	10022	Trial	IncongruentRight	14	205	432	1	111	13:57:54	2762487	5	1	1	1	1	1	1	1	2	8	5	0	0	0	0	6	6
070612	13:57:54	10022	Trial	CongruentRight	14	205	473	1	111	13:57:54	2763527	5	1	1	1	1	1	1	1	2	8	5	0	0	0	0	6	6
070612	13:57:54	10022	Trial	CongruentLeft	14	203	465	1	111	13:57:54	2764526	5	1	1	1	1	1	1	1	2	8	5	0	0	0	0	6	6
070612	13:57:54	10022	Trial	CongruentLeft	14	203	586	1	111	13:57:54	2765646	5	1	1	1	1	1	1	1	2	8	5	0	0	0	0	6	6
070612	13:57:54	10022	Trial	IncongruentRight	14	205	466	1	111	13:57:54	2766526	5	1	1	1	1	1	1	1	2	8	5	0	0	0	0	6	6
070612	13:57:54	10022	Trial	IncongruentLeft	14	203	443	1	111	13:57:54	2767498	5	1	1	1	1	1	1	1	2	8	5	0	0	0	0	6	6
070612	13:57:54	10022	Trial	IncongruentRight	14	205	467	1	111	13:57:54	2768525	5	1	1	1	1	1	1	1	2	8	5	0	0	0	0	6	6
070612	13:57:54	10022	Trial	CongruentRight	14	205	459	1	111	13:57:54	2769511	5	1	1	1	1	1	1	1	2	8	5	0	0	0	0	6	6
070612	13:57:54	10022	Trial	CongruentRight	14	205	436	1	111	13:57:54	2770484	5	1	1	1	1	1	1	1	2	8	5	0	0	0	0	6	6
070612	13:57:54	10022	Trial	IncongruentLeft	14	203	380	1	111	13:57:54	2771430	5	1	1	1	1	1	1	1	2	8	5	0	0	0	0	6	6
070612	13:57:54	10022	Trial	CongruentLeft	14	203	516	1	111	13:57:54	2772563	5	1	1	1	1	1	1	1	2	8	5	0	0	0	0	6	6
070612	13:57:54	10022	Trial	CongruentRight	14	205	477	1	111	13:57:54	2773523	5	1	1	1	1	1	1	1	2	8	5	0	0	0	0	6	6
070612	13:57:54	10022	Trial	CongruentLeft	14	203	373	1	111	13:57:54	2774429	5	1	1	1	1	1	1	1	2	8	5	0	0	0	0	6	6
070612	13:57:54	10022	Trial	IncongruentRight	14	205	397	1	111	13:57:54	2775442	5	1	1	1	1	1	1	1	2	8	5	0	0	0	0	6	6
070612	13:57:54	10022	Trial	CongruentRight	14	205	486	1	111	13:57:54	2776535	5	1	1	1	1	1	1	1	2	8	5	0	0	0	0	6	6
070612	13:57:54	10022	Trial	CongruentLeft	14	203	462	1	111	13:57:54	2777508	5	1	1	1	1	1	1	1	2	8	5	0	0	0	0	6	6
070612	13:57:54	10022	Trial	IncongruentLeft	14	203	487	1	111	13:57:54	2778534	5	1	1	1	1	1	1	1	2	8	5	0	0	0	0	6	6
070612	13:57:54	10022	Trial	IncongruentLeft	14	203	447	1	111	13:57:54	2779494	5	1	1	1	1	1	1	1	2	8	5	0	0	0	0	6	6
070612	13:57:54	10022	Trial	CongruentRight	14	205	375	1	111	13:57:54	2780427	5	1	1	1	1	1	1	1	2	8	5	0	0	0	0	6	6
070612	13:57:54	10022	Trial	IncongruentRight	14	205	432	1	111	13:57:54	2781480	5	1	1	1	1	1	1	1	2	8	5	0	0	0	0	6	6
070612	13:57:54	10022	Trial	CongruentLeft	14	203	440	1	111	13:57:54	2782492	5	1	1	1	1	1	1	1	2	8	5	0	0	0	0	6	6
070612	13:57:54	10022	Trial	IncongruentRight	14	205	416	1	111	13:57:54	2783466	5	1	1	1	1	1	1	1	2	8	5	0	0	0	0	6	6
070612	13:57:54	10022	Trial	CongruentRight	14	205	460	1	111	13:57:54	2784518	5	1	1	1	1	1	1	1	2	8	5	0	0	0	0	6	6
070612	13:57:54	10022	Trial	IncongruentLeft	14	203	404	1	111	13:57:54	2785465	5	1	1	1	1	1	1	1	2	8	5	0	0	0	0	6	6
070612	13:57:54	10022	Trial	CongruentLeft	14	203	444	1	111	13:57:54	2786504	5	1	1	1	1	1	1	1	2	8	5	0	0	0	0	6	6
070612	13:57:54	10022	Trial	CongruentRight	14	205	453	1	111	13:57:54	2787517	5	1	1	1	1	1	1	1	2	8	5	0	0	0	0	6	6
070612	13:57:54	10022	Trial	IncongruentLeft	14	203	365	1	111	13:57:54	2788423	5	1	1	1	1	1	1	1	2	8	5	0	0	0	0	6	6
070612	13:57:54	10022	Trial	CongruentRight	14	205	374	1	111	13:57:54	2789437	5	1	1	1	1	1	1	1	2	8	5	0	0	0	0	6	6
070612	13:57:54	10022	Trial	CongruentRight	14	205	526	1	111	13:57:54	2790583	5	1	1	1	1	1	1	1	2	8	5	0	0	0	0	6	6
070612	13:57:54	10022	Trial	IncongruentRight	14	205	438	1	111	13:57:54	2791502	5	1	1	1	1	1	1	1	2	8	5	0	0	0	0	6	6
070612	13:57:54	10022	Trial	CongruentLeft	14	203	527	1	111	13:57:54	2792582	5	1	1	1	1	1	1	1	2	8	5	0	0	0	0	6	6
070612	13:57:54	10022	Trial	IncongruentLeft	14	203	455	1	111	13:57:54	2793515	5	1	1	1	1	1	1	1	2	8	5	0	0	0	0	6	6
070612	13:57:54	10022	Trial	CongruentLeft	14	203	399	1	111	13:57:54	2794461	5	1	1	1	1	1	1	1	2	8	5	0	0	0	0	6	6
070612	13:57:54	10022	Trial	IncongruentRight	14	205	520	1	111	13:57:54	2795581	5	1	1	1	1	1	1	1	2	8	5	0	0	0	0	6	6
070612	13:57:54	10022	Trial	IncongruentLeft	14	203	592	1	111	13:57:54	2796647	5	1	1	1	1	1	1	1	2	8	5	0	0	0	0	6	6
070612	13:57:54	10022	Trial	CongruentRight	14	205	360	1	111	13:57:54	2797420	5	1	1	1	1	1	1	1	2	8	5	0	0	0	0	6	6
070612	13:57:54	10022	Trial	CongruentLeft	14	203	369	1	111	13:57:54	2798420	5	1	1	1	1	1	1	1	2	8	5	0	0	0	0	6	6
070612	13:57:54	10022	Trial	IncongruentLeft	14	203	506	1	111	13:57:54	2799566	5	1	1	1	1	1	1	1	2	8	5	0	0	0	0	6	6
070612	13:57:54	10022	Trial	CongruentLeft	14	203	434	1	111	13:57:54	2800485	5	1	1	1	1	1	1	1	2	8	5	0	0	0	0	6	6
070612	13:57:54	10022	Trial	IncongruentRight	14	205	506	1	111	13:57:54	2801565	5	1	1	1	1	1	1	1	2	8	5	0	0	0	0	6	6
070612	13:57:54	10022	Trial	CongruentRight	14	205	562	1	111	13:57:54	2802618	5	1	1	1	1	1	1	1	2	8	5	0	0	0	0	6	6
070612	13:57:54	10022	Trial	IncongruentLeft	14	203	411	1	111	13:57:54	2803458	5	1	1	1	1	1	1	1	2	8	5	0	0	0	0	6	6
070612	13:57:54	10022	Trial	CongruentLeft	14	203	451	1	111	13:57:54	2804511	5	1	1	1	1	1	1	1	2	8	5	0	0	0	0	6	6
070612	13:57:54	10022	Trial	IncongruentRight	14	205	428	1	111	13:57:54	2805484	5	1	1	1	1	1	1	1	2	8	5	0	0	0	0	6	6
070612	13:57:54	10022	Trial	IncongruentLeft	14	203	436	1	111	13:57:54	2806483	5	1	1	1	1	1	1	1	2	8	5	0	0	0	0	6	6
070612	13:57:54	10022	Trial	CongruentLeft	14	203	476	1	111	13:57:54	2807523	5	1	1	1	1	1	1	1	2	8	5	0	0	0	0	6	6
070612	13:57:54	10022	Trial	IncongruentLeft	14	203	469	1	111	13:57:54	2808522	5	1	1	1	1	1	1	1	2	8	5	0	0	0	0	6	6
070612	13:57:54	10022	Trial	CongruentRight	14	205	413	1	111	13:57:54	2809469	5	1	1	1	1	1	1	1	2	8	5	0	0	0	0	6	6
070612	13:57:54	10022	Trial	CongruentLeft	14	203	421	1	111	13:57:54	2810468	5	1	1	1	1	1	1	1	2	8	5	0	0	0	0	6	6
070612	13:57:54	10022	Trial	IncongruentRight	14	205	462	1	111	13:57:54	2811508	5	1	1	1	1	1	1	1	2	8	5	0	0	0	0	6	6
070612	13:57:54	10022	Trial	CongruentLeft	14	203	374	1	111	13:57:54	2812428	5	1	1	1	1	1	1	1	2	8	5	0	0	0	0	6	6
070612	13:57:54	10022	Trial	CongruentRight	14	205	350	1	111	13:57:54	2813400	5	1	1	1	1	1	1	1	2	8	5	0	0	0	0	6	6
070612	13:57:54	10022	Trial	IncongruentLeft	14	203	375	1	111	13:57:54	2814427	5	1	1	1	1	1	1	1	2	8	5	0	0	0	0	6	6
070612	13:57:54	10022	Trial750Fr	IncongruentRight750	15	0	487	0	111	13:57:54	2824743	5	1	1	1	1	1	1	1	2	8	5	0	0	0	0	6	6
070612	13:57:54	10022	Trial750Fr	IncongruentLeft750	15	0	487	0	111	13:57:54	2825502	5	1	1	1	1	1	1	1	2	8	5	0	0	0	0	6	6
070612	13:57:54	10022	Trial750Fr	CongruentRight750	15	205	278	1	111	13:57:54	2826062	5	1	1	1	1	1	1	1	2	8	5	0	0	0	0	6	6
070612	13:57:54	10022	Trial750Fr	IncongruentRight750	15	0	487	0	111	13:57:54	2827008	5	1	1	1	1	1	1	1	2	8	5	0	0	0	0	6	6
070612	13:57:54	10022	Trial750Fr	CongruentLeft750	15	203	356	1	111	13:57:54	2827635	5	1	1	1	1	1	1	1	2	8	5	0	0	0	0	6	6
070612	13:57:54	10022	Trial750Fr	CongruentRight750	15	205	332	1	111	13:57:54	2828381	5	1	1	1	1	1	1	1	2	8	5	0	0	0	0	6	6
070612	13:57:54	10022	Trial750Fr	IncongruentRight750	15	0	487	0	111	13:57:54	2829274	5	1	1	1	1	1	1	1	2	8	5	0	0	0	0	6	6
070612	13:57:54	10022	Trial750Fr	CongruentLeft750	15	203	394	1	111	13:57:54	2829940	5	1	1	1	1	1	1	1	2	8	5	0	0	0	0	6	6
070612	13:57:54	10022	Trial750Fr	IncongruentLeft750	15	0	487	0	111	13:57:54	2830780	5	1	1	1	1	1	1	1	2	8	5	0	0	0	0	6	6
070612	13:57:54	10022	Trial750Fr	IncongruentLeft750	15	0	487	0	111	13:57:54	2831540	5	1	1	1	1	1	1	1	2	8	5	0	0	0	0	6	6
070612	13:57:54	10022	Trial750Fr	CongruentRight750	15	205	384	1	111	13:57:54	2832206	5	1	1	1	1	1	1	1	2	8	5	0	0	0	0	6	6
070612	13:57:54	10022	Trial750Fr	IncongruentRight750	15	203	345	0	111	13:57:54	2832926	5	1	1	1	1	1	1	1	2	8	5	0	0	0	0	6	6
070612	13:57:54	10022	Trial750Fr	CongruentLeft750	15	203	430	1	111	13:57:54	2833752	5	1	1	1	1	1	1	1	2	8	5	0	0	0	0	6	6
070612	13:57:54	10022	Trial750Fr	CongruentRight750	15	205	324	1	111	13:57:54	2834392	5	1	1	1	1	1	1	1	2	8	5	0	0	0	0	6	6
070612	13:57:54	10022	Trial750Fr	IncongruentLeft750	15	203	332	1	111	13:57:54	2835165	5	1	1	1	1	1	1	1	2	8	5	0	0	0	0	6	6
070612	13:57:54	10022	Trial750Fr	IncongruentRight750	15	205	370	1	111	13:57:54	2835938	5	1	1	1	1	1	1	1	2	8	5	0	0	0	0	6	6
070612	13:57:54	10022	Trial750Fr	CongruentRight750	15	0	487	0	111	13:57:54	2836804	5	1	1	1	1	1	1	1	2	8	5	0	0	0	0	6	6
070612	13:57:54	10022	Trial750Fr	CongruentLeft750	15	203	400	1	111	13:57:54	2837484	5	1	1	1	1	1	1	1	2	8	5	0	0	0	0	6	6
070612	13:57:54	10022	Trial750Fr	CongruentRight750	15	205	472	1	111	13:57:54	2838311	5	1	1	1	1	1	1	1	2	8	5	0	0	0	0	6	6
070612	13:57:54	10022	Trial750Fr	IncongruentRight750	15	0	487	0	111	13:57:54	2839070	5	1	1	1	1	1	1	1	2	8	5	0	0	0	0	6	6
070612	13:57:54	10022	Trial750Fr	IncongruentLeft750	15	203	389	1	111	13:57:54	2839737	5	1	1	1	1	1	1	1	2	8	5	0	0	0	0	6	6
070612	13:57:54	10022	Trial750Fr	IncongruentLeft750	15	203	446	1	111	13:57:54	2840550	5	1	1	1	1	1	1	1	2	8	5	0	0	0	0	6	6
070612	13:57:54	10022	Trial750Fr	CongruentLeft750	15	203	468	1	111	13:57:54	2841323	5	1	1	1	1	1	1	1	2	8	5	0	0	0	0	6	6
070612	13:57:54	10022	Trial750Fr	CongruentRight750	15	0	487	0	111	13:57:54	2842083	5	1	1	1	1	1	1	1	2	8	5	0	0	0	0	6	6
070612	13:57:54	10022	Trial750Fr	IncongruentLeft750	15	203	337	1	111	13:57:54	2842695	5	1	1	1	1	1	1	1	2	8	5	0	0	0	0	6	6
070612	13:57:54	10022	Trial750Fr	IncongruentRight750	15	205	298	1	111	13:57:54	2843415	5	1	1	1	1	1	1	1	2	8	5	0	0	0	0	6	6
070612	13:57:54	10022	Trial750Fr	CongruentRight750	15	0	487	0	111	13:57:54	2844348	5	1	1	1	1	1	1	1	2	8	5	0	0	0	0	6	6
070612	13:57:54	10022	Trial750Fr	CongruentLeft750	15	203	344	1	111	13:57:54	2844961	5	1	1	1	1	1	1	1	2	8	5	0	0	0	0	6	6
070612	13:57:54	10022	Trial750Fr	IncongruentRight750	15	205	352	1	111	13:57:54	2845734	5	1	1	1	1	1	1	1	2	8	5	0	0	0	0	6	6
070612	13:57:54	10022	Trial750Fr	IncongruentLeft750	15	203	421	1	111	13:57:54	2846547	5	1	1	1	1	1	1	1	2	8	5	0	0	0	0	6	6
070612	13:57:54	10022	Trial750Fr	IncongruentRight750	15	205	347	1	111	13:57:54	2847227	5	1	1	1	1	1	1	1	2	8	5	0	0	0	0	6	6
070612	13:57:54	10022	Trial750Fr	CongruentRight750	15	205	420	1	111	13:57:54	2848054	5	1	1	1	1	1	1	1	2	8	5	0	0	0	0	6	6
070612	13:57:54	10022	Trial750Fr	IncongruentLeft750	15	203	361	1	111	13:57:54	2848747	5	1	1	1	1	1	1	1	2	8	5	0	0	0	0	6	6
070612	13:57:54	10022	Trial750Fr	CongruentLeft750	15	205	303	0	111	13:57:54	2849426	5	1	1	1	1	1	1	1	2	8	5	0	0	0	0	6	6
070612	13:57:54	10022	Trial750Fr	CongruentRight750	15	205	389	1	111	13:57:54	2850266	5	1	1	1	1	1	1	1	2	8	5	0	0	0	0	6	6
070612	13:57:54	10022	Trial750Fr	IncongruentLeft750	15	203	429	1	111	13:57:54	2851066	5	1	1	1	1	1	1	1	2	8	5	0	0	0	0	6	6
070612	13:57:54	10022	Trial750Fr	IncongruentRight750	15	205	371	1	111	13:57:54	2851745	5	1	1	1	1	1	1	1	2	8	5	0	0	0	0	6	6
070612	13:57:54	10022	Trial750Fr	IncongruentRight750	15	205	472	1	111	13:57:54	2852598	5	1	1	1	1	1	1	1	2	8	5	0	0	0	0	6	6
070612	13:57:54	10022	Trial750Fr	CongruentLeft750	15	203	382	1	111	13:57:54	2853252	5	1	1	1	1	1	1	1	2	8	5	0	0	0	0	6	6
070612	13:57:54	10022	Trial750Fr	IncongruentLeft750	15	203	374	1	111	13:57:54	2854011	5	1	1	1	1	1	1	1	2	8	5	0	0	0	0	6	6
070612	13:57:54	10022	Trial750Fr	CongruentRight750	15	205	380	1	111	13:57:54	2854757	5	1	1	1	1	1	1	1	2	8	5	0	0	0	0	6	6
070612	13:57:54	10022	Trial750Fr	CongruentLeft750	15	203	417	1	111	13:57:54	2855544	5	1	1	1	1	1	1	1	2	8	5	0	0	0	0	6	6
070612	13:57:54	10022	Trial750Fr	IncongruentRight750	15	205	410	1	111	13:57:54	2856290	5	1	1	1	1	1	1	1	2	8	5	0	0	0	0	6	6
070612	13:57:54	10022	Trial750Fr	CongruentRight750	15	205	431	1	111	13:57:54	2857063	5	1	1	1	1	1	1	1	2	8	5	0	0	0	0	6	6
070612	13:57:54	10022	Trial750Fr	IncongruentLeft750	15	203	421	1	111	13:57:54	2857796	5	1	1	1	1	1	1	1	2	8	5	0	0	0	0	6	6
070612	13:57:54	10022	Trial750Fr	CongruentLeft750	15	203	459	1	111	13:57:54	2858583	5	1	1	1	1	1	1	1	2	8	5	0	0	0	0	6	6
070612	13:57:54	10022	Trial750Fr	IncongruentLeft750	15	0	487	0	111	13:57:54	2859356	5	1	1	1	1	1	1	1	2	8	5	0	0	0	0	6	6
070612	13:57:54	10022	Trial750Fr	IncongruentRight750	15	0	487	0	111	13:57:54	2860116	5	1	1	1	1	1	1	1	2	8	5	0	0	0	0	6	6
070612	13:57:54	10022	Trial750Fr	CongruentRight750	15	203	369	0	111	13:57:54	2860755	5	1	1	1	1	1	1	1	2	8	5	0	0	0	0	6	6
070612	13:57:54	10022	Trial750Fr	CongruentLeft750	15	203	377	1	111	13:57:54	2861528	5	1	1	1	1	1	1	1	2	8	5	0	0	0	0	6	6
070612	13:57:54	10022	Trial750Fr	CongruentLeft750	15	0	487	0	111	13:57:54	2862381	5	1	1	1	1	1	1	1	2	8	5	0	0	0	0	6	6
070612	13:57:54	10022	Trial750Fr	IncongruentRight750	15	205	455	1	111	13:57:54	2863114	5	1	1	1	1	1	1	1	2	8	5	0	0	0	0	6	6
070612	13:57:54	10022	Trial750Fr	IncongruentLeft750	15	203	335	1	111	13:57:54	2863754	5	1	1	1	1	1	1	1	2	8	5	0	0	0	0	6	6
070612	13:57:54	10022	Trial750Fr	IncongruentRight750	15	205	277	1	111	13:57:54	2864434	5	1	1	1	1	1	1	1	2	8	5	0	0	0	0	6	6
070612	13:57:54	10022	Trial750Fr	CongruentRight750	15	205	426	1	111	13:57:54	2865340	5	1	1	1	1	1	1	1	2	8	5	0	0	0	0	6	6
070612	13:57:54	10022	Trial750Fr	CongruentRight750	15	0	487	0	111	13:57:54	2866140	5	1	1	1	1	1	1	1	2	8	5	0	0	0	0	6	6
070612	13:57:54	10022	Trial750Fr	IncongruentLeft750	15	203	424	1	111	13:57:54	2866833	5	1	1	1	1	1	1	1	2	8	5	0	0	0	0	6	6
070612	13:57:54	10022	Trial750Fr	CongruentLeft750	15	203	464	1	111	13:57:54	2867646	5	1	1	1	1	1	1	1	2	8	5	0	0	0	0	6	6
070612	13:57:54	10022	Trial750Fr	CongruentRight750	15	205	454	1	111	13:57:54	2868379	5	1	1	1	1	1	1	1	2	8	5	0	0	0	0	6	6
070612	13:57:54	10022	Trial750Fr	CongruentLeft750	15	203	446	1	111	13:57:54	2869125	5	1	1	1	1	1	1	1	2	8	5	0	0	0	0	6	6
070612	13:57:54	10022	Trial750Fr	IncongruentRight750	15	205	436	1	111	13:57:54	2869858	5	1	1	1	1	1	1	1	2	8	5	0	0	0	0	6	6
070612	13:57:54	10022	Trial750Fr	CongruentRight750	15	205	474	1	111	13:57:54	2870645	5	1	1	1	1	1	1	1	2	8	5	0	0	0	0	6	6
070612	13:57:54	10022	Trial750Fr	CongruentLeft750	15	203	418	1	111	13:57:54	2871351	5	1	1	1	1	1	1	1	2	8	5	0	0	0	0	6	6
070612	13:57:54	10022	Trial750Fr	IncongruentLeft750	15	205	327	0	111	13:57:54	2872004	5	1	1	1	1	1	1	1	2	8	5	0	0	0	0	6	6
070612	13:57:54	10022	Trial750Fr	IncongruentLeft750	15	203	365	1	111	13:57:54	2872791	5	1	1	1	1	1	1	1	2	8	5	0	0	0	0	6	6
070612	13:57:54	10022	Trial750Fr	CongruentRight750	15	205	435	1	111	13:57:54	2873603	5	1	1	1	1	1	1	1	2	8	5	0	0	0	0	6	6
070612	13:57:54	10022	Trial750Fr	IncongruentRight750	15	0	487	0	111	13:57:54	2874403	5	1	1	1	1	1	1	1	2	8	5	0	0	0	0	6	6
070612	13:57:54	10022	Trial750Fr	CongruentLeft750	15	203	385	1	111	13:57:54	2875070	5	1	1	1	1	1	1	1	2	8	5	0	0	0	0	6	6
070612	13:57:54	10022	Trial750Fr	IncongruentRight750	15	205	409	1	111	13:57:54	2875842	5	1	1	1	1	1	1	1	2	8	5	0	0	0	0	6	6
070612	13:57:54	10022	Trial750Fr	CongruentRight750	15	205	447	1	111	13:57:54	2876629	5	1	1	1	1	1	1	1	2	8	5	0	0	0	0	6	6
070612	13:57:54	10022	Trial750Fr	IncongruentLeft750	15	203	388	1	111	13:57:54	2877322	5	1	1	1	1	1	1	1	2	8	5	0	0	0	0	6	6
070612	13:57:54	10022	Trial750Fr	CongruentLeft750	15	203	410	1	111	13:57:54	2878082	5	1	1	1	1	1	1	1	2	8	5	0	0	0	0	6	6
070612	13:57:54	10022	Trial750Fr	CongruentRight750	15	205	402	1	111	13:57:54	2878841	5	1	1	1	1	1	1	1	2	8	5	0	0	0	0	6	6
070612	13:57:54	10022	Trial750Fr	IncongruentLeft750	15	203	360	1	111	13:57:54	2879548	5	1	1	1	1	1	1	1	2	8	5	0	0	0	0	6	6
070612	13:57:54	10022	Trial750Fr	CongruentRight750	15	205	333	1	111	13:57:54	2880267	5	1	1	1	1	1	1	1	2	8	5	0	0	0	0	6	6
070612	13:57:54	10022	Trial750Fr	CongruentRight750	15	203	342	0	111	13:57:54	2881027	5	1	1	1	1	1	1	1	2	8	5	0	0	0	0	6	6
070612	13:57:54	10022	Trial750Fr	IncongruentRight750	15	205	363	1	111	13:57:54	2881800	5	1	1	1	1	1	1	1	2	8	5	0	0	0	0	6	6
070612	13:57:54	10022	Trial750Fr	CongruentLeft750	15	203	209	1	111	13:57:54	2882387	5	1	1	1	1	1	1	1	2	8	5	0	0	0	0	6	6
070612	13:57:54	10022	Trial750Fr	IncongruentLeft750	15	0	487	0	111	13:57:54	2883413	5	1	1	1	1	1	1	1	2	8	5	0	0	0	0	6	6
070612	13:57:54	10022	Trial750Fr	CongruentLeft750	15	0	487	0	111	13:57:54	2884173	5	1	1	1	1	1	1	1	2	8	5	0	0	0	0	6	6
070612	13:57:54	10022	Trial750Fr	IncongruentRight750	15	205	407	1	111	13:57:54	2884852	5	1	1	1	1	1	1	1	2	8	5	0	0	0	0	6	6
070612	13:57:54	10022	Trial750Fr	IncongruentLeft750	15	203	335	1	111	13:57:54	2885545	5	1	1	1	1	1	1	1	2	8	5	0	0	0	0	6	6
070612	13:57:54	10022	Trial750Fr	CongruentRight750	15	205	326	1	111	13:57:54	2886278	5	1	1	1	1	1	1	1	2	8	5	0	0	0	0	6	6
070612	13:57:54	10022	Trial750Fr	CongruentLeft750	15	203	395	1	111	13:57:54	2887092	5	1	1	1	1	1	1	1	2	8	5	0	0	0	0	6	6
070612	13:57:54	10022	Trial750Fr	IncongruentLeft750	15	203	432	1	111	13:57:54	2887878	5	1	1	1	1	1	1	1	2	8	5	0	0	0	0	6	6
070612	13:57:54	10022	Trial750Fr	CongruentLeft750	15	0	487	0	111	13:57:54	2888678	5	1	1	1	1	1	1	1	2	8	5	0	0	0	0	6	6
070612	13:57:54	10022	Trial750Fr	IncongruentRight750	15	205	382	1	111	13:57:54	2889330	5	1	1	1	1	1	1	1	2	8	5	0	0	0	0	6	6
070612	13:57:54	10022	Trial750Fr	CongruentRight750	15	203	374	0	111	13:57:54	2890090	5	1	1	1	1	1	1	1	2	8	5	0	0	0	0	6	6
070612	13:57:54	10022	Trial750Fr	IncongruentLeft750	15	203	444	1	111	13:57:54	2890903	5	1	1	1	1	1	1	1	2	8	5	0	0	0	0	6	6
070612	13:57:54	10022	Trial750Fr	CongruentLeft750	15	0	487	0	111	13:57:54	2891690	5	1	1	1	1	1	1	1	2	8	5	0	0	0	0	6	6
070612	13:57:54	10022	Trial750Fr	IncongruentRight750	15	205	346	1	111	13:57:54	2892316	5	1	1	1	1	1	1	1	2	8	5	0	0	0	0	6	6
070612	13:57:54	10022	Trial750Fr	IncongruentLeft750	15	203	275	1	111	13:57:54	2892996	5	1	1	1	1	1	1	1	2	8	5	0	0	0	0	6	6
070612	13:57:54	10022	Trial750Fr	CongruentLeft750	15	0	487	0	111	13:57:54	2893955	5	1	1	1	1	1	1	1	2	8	5	0	0	0	0	6	6
070612	13:57:54	10022	Trial750Fr	IncongruentLeft750	15	0	487	0	111	13:57:54	2894715	5	1	1	1	1	1	1	1	2	8	5	0	0	0	0	6	6
070612	13:57:54	10022	Trial750Fr	CongruentRight750	15	205	456	1	111	13:57:54	2895448	5	1	1	1	1	1	1	1	2	8	5	0	0	0	0	6	6
070612	13:57:54	10022	Trial750Fr	CongruentLeft750	15	203	369	1	111	13:57:54	2896115	5	1	1	1	1	1	1	1	2	8	5	0	0	0	0	6	6
070612	13:57:54	10022	Trial750Fr	IncongruentRight750	15	205	374	1	111	13:57:54	2896874	5	1	1	1	1	1	1	1	2	8	5	0	0	0	0	6	6
070612	13:57:54	10022	Trial750Fr	CongruentLeft750	15	203	332	1	111	13:57:54	2897581	5	1	1	1	1	1	1	1	2	8	5	0	0	0	0	6	6
070612	13:57:54	10022	Trial750Fr	CongruentRight750	15	0	487	0	111	13:57:54	2898474	5	1	1	1	1	1	1	1	2	8	5	0	0	0	0	6	6
070612	13:57:54	10022	Trial750Fr	IncongruentLeft750	15	203	441	1	111	13:57:54	2899194	5	1	1	1	1	1	1	1	2	8	5	0	0	0	0	6	6
070612	13:57:54	10022	WordsAbsFrBaseline	PAbsFrBaseline1	16	Abs1	4965	0	111	13:57:54	2917599	5	1	1	1	1	1	1	1	2	8	5	0	0	0	0	6	6
070612	13:57:54	10022	WordsAbsFrBaseline	AbsFrBaseline1	16	Abs1	4386	0	111	13:57:54	2922024	5	1	1	1	1	1	1	1	2	8	5	1	0	0	0	6	6
070612	13:57:54	10022	WordsAbsFrBaseline	AbsFrBaseline2	16	Abs1	819	0	111	13:57:54	2922878	5	1	1	1	1	1	1	1	2	8	5	2	0	0	0	6	6
070612	13:57:54	10022	WordsAbsFrBaseline	AbsFrBaseline3	16	Abs1	16142	0	111	13:57:54	2939058	5	1	1	1	1	1	1	1	2	8	5	3	0	0	0	6	6
070612	13:57:54	10022	Trial2BackFrS	NS	17	0	1000	1	111	13:57:54	3013482	5	1	1	1	1	1	1	1	2	8	5	3	0	0	0	6	6
070612	13:57:54	10022	Trial2BackFrS	NS	17	0	1000	1	111	13:57:54	3015001	5	1	1	1	1	1	1	1	2	8	5	3	0	0	0	6	6
070612	13:57:54	10022	Trial2BackFrS	NS	17	0	1000	1	111	13:57:54	3016520	5	1	1	1	1	1	1	1	2	8	5	3	0	0	0	6	6
070612	13:57:54	10022	Trial2BackFrS	YS	17	0	1000	0	111	13:57:54	3018040	5	1	1	1	1	1	1	1	2	8	5	3	0	0	0	6	6
070612	13:57:54	10022	Trial2BackFrS	NS	17	0	1000	1	111	13:57:54	3019559	5	1	1	1	1	1	1	1	2	8	5	3	0	0	0	6	6
070612	13:57:54	10022	Trial2BackFrS	NS	17	57	623	0	111	13:57:54	3020705	5	1	1	1	1	1	1	1	2	8	5	3	0	0	0	6	6
070612	13:57:54	10022	Trial2BackFrS	NS	17	0	1000	1	111	13:57:54	3022585	5	1	1	1	1	1	1	1	2	8	5	3	0	0	0	6	6
070612	13:57:54	10022	Trial2BackFrS	NS	17	0	1000	1	111	13:57:54	3024104	5	1	1	1	1	1	1	1	2	8	5	3	0	0	0	6	6
070612	13:57:54	10022	Trial2BackFrS	YS	17	57	638	1	111	13:57:54	3025264	5	1	1	1	1	1	1	1	2	8	5	3	0	0	0	6	6
070612	13:57:54	10022	Trial2BackFrS	NS	17	0	1000	1	111	13:57:54	3027130	5	1	1	1	1	1	1	1	2	8	5	3	0	0	0	6	6
070612	13:57:54	10022	Trial2BackFrS	NS	17	0	1000	1	111	13:57:54	3028649	5	1	1	1	1	1	1	1	2	8	5	3	0	0	0	6	6
070612	13:57:54	10022	Trial2BackFrS	YS	17	0	1000	0	111	13:57:54	3030168	5	1	1	1	1	1	1	1	2	8	5	3	0	0	0	6	6
070612	13:57:54	10022	Trial2BackFrS	NS	17	0	1000	1	111	13:57:54	3031688	5	1	1	1	1	1	1	1	2	8	5	3	0	0	0	6	6
070612	13:57:54	10022	Trial2BackFrS	NS	17	0	1000	1	111	13:57:54	3033207	5	1	1	1	1	1	1	1	2	8	5	3	0	0	0	6	6
070612	13:57:54	10022	Trial2BackFrS	NS	17	0	1000	1	111	13:57:54	3034727	5	1	1	1	1	1	1	1	2	8	5	3	0	0	0	6	6
070612	13:57:54	10022	Trial2BackFrS	YS	17	0	1000	0	111	13:57:54	3036246	5	1	1	1	1	1	1	1	2	8	5	3	0	0	0	6	6
070612	13:57:54	10022	Trial2BackFrS	NS	17	0	1000	1	111	13:57:54	3037765	5	1	1	1	1	1	1	1	2	8	5	3	0	0	0	6	6
070612	13:57:54	10022	Trial2BackFrS	NS	17	0	1000	1	111	13:57:54	3039285	5	1	1	1	1	1	1	1	2	8	5	3	0	0	0	6	6
070612	13:57:54	10022	Trial2BackFrS	NS	17	0	1000	1	111	13:57:54	3040804	5	1	1	1	1	1	1	1	2	8	5	3	0	0	0	6	6
070612	13:57:54	10022	Trial2BackFrS	NS	17	0	1000	1	111	13:57:54	3042324	5	1	1	1	1	1	1	1	2	8	5	3	0	0	0	6	6
070612	13:57:54	10022	Trial2BackFrS	YS	17	57	562	1	111	13:57:54	3043416	5	1	1	1	1	1	1	1	2	8	5	3	0	0	0	6	6
070612	13:57:54	10022	Trial2BackFrS	NS	17	0	1000	1	111	13:57:54	3045349	5	1	1	1	1	1	1	1	2	8	5	3	0	0	0	6	6
070612	13:57:54	10022	Trial2BackFrS	NS	17	0	1000	1	111	13:57:54	3046868	5	1	1	1	1	1	1	1	2	8	5	3	0	0	0	6	6
070612	13:57:54	10022	Trial2BackFrS	NS	17	0	1000	1	111	13:57:54	3048388	5	1	1	1	1	1	1	1	2	8	5	3	0	0	0	6	6
070612	13:57:54	10022	Trial2BackFrS	NS	17	0	1000	1	111	13:57:54	3049907	5	1	1	1	1	1	1	1	2	8	5	3	0	0	0	6	6
070612	13:57:54	10022	Trial2BackFrS	NS	17	0	1000	1	111	13:57:54	3051427	5	1	1	1	1	1	1	1	2	8	5	3	0	0	0	6	6
070612	13:57:54	10022	Trial2BackFrS	NS	17	0	1000	1	111	13:57:54	3052946	5	1	1	1	1	1	1	1	2	8	5	3	0	0	0	6	6
070612	13:57:54	10022	Trial2BackFrS	NS	17	0	1000	1	111	13:57:54	3054465	5	1	1	1	1	1	1	1	2	8	5	3	0	0	0	6	6
070612	13:57:54	10022	Trial2BackFrS	NS	17	0	1000	1	111	13:57:54	3055985	5	1	1	1	1	1	1	1	2	8	5	3	0	0	0	6	6
070612	13:57:54	10022	Trial2BackFrS	NS	17	0	1000	1	111	13:57:54	3057504	5	1	1	1	1	1	1	1	2	8	5	3	0	0	0	6	6
070612	13:57:54	10022	Trial2BackFrS	NS	17	0	1000	1	111	13:57:54	3059024	5	1	1	1	1	1	1	1	2	8	5	3	0	0	0	6	6
070612	13:57:54	10022	Trial2BackFrS	YS	17	57	694	1	111	13:57:54	3060250	5	1	1	1	1	1	1	1	2	8	5	3	0	0	0	6	6
070612	13:57:54	10022	Trial2BackFrS	NS	17	0	1000	1	111	13:57:54	3062049	5	1	1	1	1	1	1	1	2	8	5	3	0	0	0	6	6
070612	13:57:54	10022	Trial2BackFrS	NS	17	0	1000	1	111	13:57:54	3063569	5	1	1	1	1	1	1	1	2	8	5	3	0	0	0	6	6
070612	13:57:54	10022	Trial2BackFrS	NS	17	0	1000	1	111	13:57:54	3065088	5	1	1	1	1	1	1	1	2	8	5	3	0	0	0	6	6
070612	13:57:54	10022	Trial2BackFrS	YS	17	0	1000	0	111	13:57:54	3066607	5	1	1	1	1	1	1	1	2	8	5	3	0	0	0	6	6
070612	13:57:54	10022	Trial2BackFrS	NS	17	0	1000	1	111	13:57:54	3068127	5	1	1	1	1	1	1	1	2	8	5	3	0	0	0	6	6
070612	13:57:54	10022	Trial2BackFrS	NS	17	0	1000	1	111	13:57:54	3069646	5	1	1	1	1	1	1	1	2	8	5	3	0	0	0	6	6
070612	13:57:54	10022	Trial2BackFrS	NS	17	0	1000	1	111	13:57:54	3071166	5	1	1	1	1	1	1	1	2	8	5	3	0	0	0	6	6
070612	13:57:54	10022	Trial2BackFrS	NS	17	0	1000	1	111	13:57:54	3072685	5	1	1	1	1	1	1	1	2	8	5	3	0	0	0	6	6
070612	13:57:54	10022	Trial2BackFrS	NS	17	0	1000	1	111	13:57:54	3074204	5	1	1	1	1	1	1	1	2	8	5	3	0	0	0	6	6
070612	13:57:54	10022	Trial2BackFrS	NS	17	57	681	0	111	13:57:54	3075417	5	1	1	1	1	1	1	1	2	8	5	3	0	0	0	6	6
070612	13:57:54	10022	Trial2BackFrS	NS	17	0	1000	1	111	13:57:54	3077230	5	1	1	1	1	1	1	1	2	8	5	3	0	0	0	6	6
070612	13:57:54	10022	Trial2BackFrS	YS	17	0	1000	0	111	13:57:54	3078750	5	1	1	1	1	1	1	1	2	8	5	3	0	0	0	6	6
070612	13:57:54	10022	Trial2BackFrS	NS	17	0	1000	1	111	13:57:54	3080269	5	1	1	1	1	1	1	1	2	8	5	3	0	0	0	6	6
070612	13:57:54	10022	Trial2BackFrS	NS	17	0	1000	1	111	13:57:54	3081788	5	1	1	1	1	1	1	1	2	8	5	3	0	0	0	6	6
070612	13:57:54	10022	Trial2BackFrS	NS	17	0	1000	1	111	13:57:54	3083307	5	1	1	1	1	1	1	1	2	8	5	3	0	0	0	6	6
070612	13:57:54	10022	Trial2BackFrS	NS	17	0	1000	1	111	13:57:54	3084827	5	1	1	1	1	1	1	1	2	8	5	3	0	0	0	6	6
070612	13:57:54	10022	Trial2BackFrS	YS	17	57	874	1	111	13:57:54	3086226	5	1	1	1	1	1	1	1	2	8	5	3	0	0	0	6	6
070612	13:57:54	10022	Trial2BackFrS	NS	17	0	1000	1	111	13:57:54	3087852	5	1	1	1	1	1	1	1	2	8	5	3	0	0	0	6	6
070612	13:57:54	10022	Trial2BackFrS	NS	17	0	1000	1	111	13:57:54	3089372	5	1	1	1	1	1	1	1	2	8	5	3	0	0	0	6	6
070612	13:57:54	10022	Trial2BackFrS	NS	17	0	1000	1	111	13:57:54	3090891	5	1	1	1	1	1	1	1	2	8	5	3	0	0	0	6	6
070612	13:57:54	10022	Trial2BackFrS	NS	17	0	1000	1	111	13:57:54	3092411	5	1	1	1	1	1	1	1	2	8	5	3	0	0	0	6	6
070612	13:57:54	10022	Trial2BackFrS	NS	17	0	1000	1	111	13:57:54	3093930	5	1	1	1	1	1	1	1	2	8	5	3	0	0	0	6	6
070612	13:57:54	10022	Trial2BackFrS	NS	17	0	1000	1	111	13:57:54	3095449	5	1	1	1	1	1	1	1	2	8	5	3	0	0	0	6	6
070612	13:57:54	10022	Trial2BackFrS	YS	17	57	843	1	111	13:57:54	3096822	5	1	1	1	1	1	1	1	2	8	5	3	0	0	0	6	6
070612	13:57:54	10022	Trial2BackFrS	NS	17	0	1000	1	111	13:57:54	3098475	5	1	1	1	1	1	1	1	2	8	5	3	0	0	0	6	6
070612	13:57:54	10022	Trial2BackFrS	NS	17	0	1000	1	111	13:57:54	3099994	5	1	1	1	1	1	1	1	2	8	5	3	0	0	0	6	6
070612	13:57:54	10022	Trial2BackFrS	NS	17	0	1000	1	111	13:57:54	3101514	5	1	1	1	1	1	1	1	2	8	5	3	0	0	0	6	6
070612	13:57:54	10022	Trial2BackFrS	NS	17	0	1000	1	111	13:57:54	3103033	5	1	1	1	1	1	1	1	2	8	5	3	0	0	0	6	6
070612	13:57:54	10022	Trial2BackFrS	NS	17	57	876	0	111	13:57:54	3104432	5	1	1	1	1	1	1	1	2	8	5	3	0	0	0	6	6
070612	13:57:54	10022	Trial2BackFrS	NS	17	0	1000	1	111	13:57:54	3106058	5	1	1	1	1	1	1	1	2	8	5	3	0	0	0	6	6
070612	13:57:54	10022	Trial2BackFrS	NS	17	0	1000	1	111	13:57:54	3107578	5	1	1	1	1	1	1	1	2	8	5	3	0	0	0	6	6
070612	13:57:54	10022	Trial2BackFrS	YS	17	0	1000	0	111	13:57:54	3109097	5	1	1	1	1	1	1	1	2	8	5	3	0	0	0	6	6
070612	13:57:54	10022	Trial2BackFrS	NS	17	0	1000	1	111	13:57:54	3110617	5	1	1	1	1	1	1	1	2	8	5	3	0	0	0	6	6
070612	13:57:54	10022	Trial2BackFrS	NS	17	0	1000	1	111	13:57:54	3112136	5	1	1	1	1	1	1	1	2	8	5	3	0	0	0	6	6
070612	13:57:54	10022	Trial2BackFrS	NS	17	0	1000	1	111	13:57:54	3113655	5	1	1	1	1	1	1	1	2	8	5	3	0	0	0	6	6
070612	13:57:54	10022	Trial2BackFrS	NS	17	0	1000	1	111	13:57:54	3115175	5	1	1	1	1	1	1	1	2	8	5	3	0	0	0	6	6
070612	13:57:54	10022	Trial2BackFrS	YS	17	57	606	1	111	13:57:54	3116308	5	1	1	1	1	1	1	1	2	8	5	3	0	0	0	6	6
070612	13:57:54	10022	Trial2BackFrS	NS	17	0	1000	1	111	13:57:54	3118200	5	1	1	1	1	1	1	1	2	8	5	3	0	0	0	6	6
070612	13:57:54	10022	Trial2BackFrS	NS	17	0	1000	1	111	13:57:54	3119720	5	1	1	1	1	1	1	1	2	8	5	3	0	0	0	6	6
070612	13:57:54	10022	Trial2BackFrS	YS	17	57	653	1	111	13:57:54	3120906	5	1	1	1	1	1	1	1	2	8	5	3	0	0	0	6	6
070612	13:57:54	10022	Trial2BackFrS	NS	17	0	1000	1	111	13:57:54	3122745	5	1	1	1	1	1	1	1	2	8	5	3	0	0	0	6	6
070612	13:57:54	10022	Trial2BackFrS	NS	17	0	1000	1	111	13:57:54	3124265	5	1	1	1	1	1	1	1	2	8	5	3	0	0	0	6	6
070612	13:57:54	10022	Trial2BackFrS	NS	17	0	1000	1	111	13:57:54	3125784	5	1	1	1	1	1	1	1	2	8	5	3	0	0	0	6	6
070612	13:57:54	10022	Trial2BackFrS	NS	17	0	1000	1	111	13:57:54	3127303	5	1	1	1	1	1	1	1	2	8	5	3	0	0	0	6	6
070612	13:57:54	10022	Trial2BackFrS	NS	17	0	1000	1	111	13:57:54	3128823	5	1	1	1	1	1	1	1	2	8	5	3	0	0	0	6	6
070612	13:57:54	10022	Trial2BackFrS	NS	17	0	1000	1	111	13:57:54	3130343	5	1	1	1	1	1	1	1	2	8	5	3	0	0	0	6	6
070612	13:57:54	10022	Trial2BackFrS	YS	17	57	574	1	111	13:57:54	3131448	5	1	1	1	1	1	1	1	2	8	5	3	0	0	0	6	6
070612	13:57:54	10022	Trial2BackFrS	NS	17	0	1000	1	111	13:57:54	3133368	5	1	1	1	1	1	1	1	2	8	5	3	0	0	0	6	6
070612	13:57:54	10022	Trial2BackFrS	NS	17	0	1000	1	111	13:57:54	3134887	5	1	1	1	1	1	1	1	2	8	5	3	0	0	0	6	6
070612	13:57:54	10022	Trial2BackFrS	NS	17	0	1000	1	111	13:57:54	3136407	5	1	1	1	1	1	1	1	2	8	5	3	0	0	0	6	6
070612	13:57:54	10022	Trial2BackFrS	NS	17	0	1000	1	111	13:57:54	3137926	5	1	1	1	1	1	1	1	2	8	5	3	0	0	0	6	6
070612	13:57:54	10022	Trial2BackFrS	YS	17	0	1000	0	111	13:57:54	3139445	5	1	1	1	1	1	1	1	2	8	5	3	0	0	0	6	6
070612	13:57:54	10022	Trial2BackFrS	NS	17	0	1000	1	111	13:57:54	3140965	5	1	1	1	1	1	1	1	2	8	5	3	0	0	0	6	6
070612	13:57:54	10022	Trial2BackFrS	NS	17	57	575	0	111	13:57:54	3142071	5	1	1	1	1	1	1	1	2	8	5	3	0	0	0	6	6
070612	13:57:54	10022	Trial2BackFrS	NS	17	0	1000	1	111	13:57:54	3143990	5	1	1	1	1	1	1	1	2	8	5	3	0	0	0	6	6
070612	13:57:54	10022	Trial2BackFrS	NS	17	0	1000	1	111	13:57:54	3145510	5	1	1	1	1	1	1	1	2	8	5	3	0	0	0	6	6
070612	13:57:54	10022	Trial2BackFrS	YS	17	0	1000	0	111	13:57:54	3147029	5	1	1	1	1	1	1	1	2	8	5	3	0	0	0	6	6
070612	13:57:54	10022	Trial2BackFrS	NS	17	0	1000	1	111	13:57:54	3148548	5	1	1	1	1	1	1	1	2	8	5	3	0	0	0	6	6
070612	13:57:54	10022	Trial2BackFrS	NS	17	0	1000	1	111	13:57:54	3150068	5	1	1	1	1	1	1	1	2	8	5	3	0	0	0	6	6
070612	13:57:54	10022	Trial2BackFrS	YS	17	0	1000	0	111	13:57:54	3151587	5	1	1	1	1	1	1	1	2	8	5	3	0	0	0	6	6
070612	13:57:54	10022	Trial2BackFrS	NS	17	0	1000	1	111	13:57:54	3153107	5	1	1	1	1	1	1	1	2	8	5	3	0	0	0	6	6
070612	13:57:54	10022	Trial2BackFrS	NS	17	0	1000	1	111	13:57:54	3154626	5	1	1	1	1	1	1	1	2	8	5	3	0	0	0	6	6
070612	13:57:54	10022	Trial2BackFrS	NS	17	0	1000	1	111	13:57:54	3156145	5	1	1	1	1	1	1	1	2	8	5	3	0	0	0	6	6
070612	13:57:54	10022	Trial2BackFrS	NS	17	0	1000	1	111	13:57:54	3157665	5	1	1	1	1	1	1	1	2	8	5	3	0	0	0	6	6
070612	13:57:54	10022	Trial2BackFrS	NS	17	0	1000	1	111	13:57:54	3159184	5	1	1	1	1	1	1	1	2	8	5	3	0	0	0	6	6
070612	13:57:54	10022	Trial2BackFrS	NS	17	57	628	0	111	13:57:54	3160344	5	1	1	1	1	1	1	1	2	8	5	3	0	0	0	6	6
070612	13:57:54	10022	Trial2BackFrS	NS	17	0	1000	1	111	13:57:54	3162210	5	1	1	1	1	1	1	1	2	8	5	3	0	0	0	6	6
070612	13:57:54	10022	Trial2BackFrS	NS	17	0	1000	1	111	13:57:54	3163729	5	1	1	1	1	1	1	1	2	8	5	3	0	0	0	6	6
070612	13:57:54	10022	Trial2BackFrS	YS	17	57	883	1	111	13:57:54	3165142	5	1	1	1	1	1	1	1	2	8	5	3	0	0	0	6	6
070612	13:57:54	10022	Trial2BackFrS	NS	17	0	1000	1	111	13:57:54	3166755	5	1	1	1	1	1	1	1	2	8	5	3	0	0	0	6	6
070612	13:57:54	10022	Trial2BackFrS	NS	17	0	1000	1	111	13:57:54	3168274	5	1	1	1	1	1	1	1	2	8	5	3	0	0	0	6	6
070612	13:57:54	10022	Trial2BackFrS	NS	17	0	1000	1	111	13:57:54	3169793	5	1	1	1	1	1	1	1	2	8	5	3	0	0	0	6	6
070612	13:57:54	10022	Trial2BackFrS	NS	17	0	1000	1	111	13:57:54	3171313	5	1	1	1	1	1	1	1	2	8	5	3	0	0	0	6	6
070612	13:57:54	10022	Trial2BackFrS	NS	17	0	1000	1	111	13:57:54	3172832	5	1	1	1	1	1	1	1	2	8	5	3	0	0	0	6	6
070612	13:57:54	10022	Trial2BackFrS	NS	17	0	1000	1	111	13:57:54	3174352	5	1	1	1	1	1	1	1	2	8	5	3	0	0	0	6	6
070612	13:57:54	10022	Trial2BackFrS	NS	17	0	1000	1	111	13:57:54	3175871	5	1	1	1	1	1	1	1	2	8	5	3	0	0	0	6	6
070612	13:57:54	10022	Trial2BackFrS	YS	17	57	693	1	111	13:57:54	3177097	5	1	1	1	1	1	1	1	2	8	5	3	0	0	0	6	6
070612	13:57:54	10022	Trial2BackFrS	NS	17	0	1000	1	111	13:57:54	3178896	5	1	1	1	1	1	1	1	2	8	5	3	0	0	0	6	6
070612	13:57:54	10022	Trial2BackFrS	NS	17	0	1000	1	111	13:57:54	3180416	5	1	1	1	1	1	1	1	2	8	5	3	0	0	0	6	6
070612	13:57:54	10022	Trial2BackFrS	NS	17	0	1000	1	111	13:57:54	3181935	5	1	1	1	1	1	1	1	2	8	5	3	0	0	0	6	6
070612	13:57:54	10022	Trial2BackFrS	NS	17	0	1000	1	111	13:57:54	3183455	5	1	1	1	1	1	1	1	2	8	5	3	0	0	0	6	6
070612	13:57:54	10022	Trial2BackFrS	NS	17	0	1000	1	111	13:57:54	3184974	5	1	1	1	1	1	1	1	2	8	5	3	0	0	0	6	6
070612	13:57:54	10022	Trial2BackFrS	NS	17	0	1000	1	111	13:57:54	3186494	5	1	1	1	1	1	1	1	2	8	5	3	0	0	0	6	6
070612	13:57:54	10022	Trial2BackFrS	NS	17	57	662	0	111	13:57:54	3187680	5	1	1	1	1	1	1	1	2	8	5	3	0	0	0	6	6
070612	13:57:54	10022	Trial2BackFrS	NS	17	0	1000	1	111	13:57:54	3189519	5	1	1	1	1	1	1	1	2	8	5	3	0	0	0	6	6
070612	13:57:54	10022	Trial2BackFrS	NS	17	0	1000	1	111	13:57:54	3191039	5	1	1	1	1	1	1	1	2	8	5	3	0	0	0	6	6
070612	13:57:54	10022	Trial2BackFrS	YS	17	57	629	1	111	13:57:54	3192198	5	1	1	1	1	1	1	1	2	8	5	3	0	0	0	6	6
070612	13:57:54	10022	Trial2BackFrS	NS	17	0	1000	1	111	13:57:54	3194064	5	1	1	1	1	1	1	1	2	8	5	3	0	0	0	6	6
070612	13:57:54	10022	ClockFrBaseline	ClockFrBaseline	19	Clock2	46669	0	111	13:57:54	3240846	5	1	1	1	1	1	1	1	2	8	5	3	0	0	0	6	6
070612	13:57:54	10022	ClockFrBaseline	ClockFrBaseline	19	Clock11	410	0	111	13:57:54	3241299	5	1	1	1	1	1	1	1	2	8	5	3	0	1	0	6	6
070612	13:57:54	10022	ClockFrBaseline	ClockFrBaseline	19	Clock111	445	0	111	13:57:54	3241779	5	1	1	1	1	1	1	1	2	8	5	3	0	1	1	6	6
070612	13:57:54	10022	ClockFrBaseline	ClockFrBaseline	19	Clockdone	469	0	111	13:57:54	3242285	5	1	1	1	1	1	1	1	2	8	5	3	0	1	1	6	6
070612	13:57:54	10022	FASFrVFBaseline	StopFrVFBaseline	20	17	9439	0	111	13:57:54	3392921	5	1	1	1	1	1	1	1	2	8	5	3	0	1	1	6	6
