date	time	subject	blockcode	trialcode	values.TaskNumber	response	latency	correct	values.Score	script.starttime	script.elapsedtime	values.ScoreS7	values.Word1	values.Word2	values.Word3	values.Word4	values.Word5	values.Word6	values.Word7	values.Word8	values.DigitSpanFwrd	values.DigitSpanBack	values.ScoreAbs	values.Contour	values.Numbers	values.Hands	values.corsiblockspanFwrd	values.corsiblockspanRev
081512	17:18:01	10007	Language	Language	0	French	2451	0	0	17:18:01	2565	0	0	0	0	0	0	0	0	0	0	0	0	0	0	0	0	0
081512	17:18:01	10007	Session	Session	0	3mo	658	0	0	17:18:01	3298	0	0	0	0	0	0	0	0	0	0	0	0	0	0	0	0	0
081512	17:18:01	10007	HandFr	HandFr	0	LeftFr	111563	0	0	17:18:01	114948	0	0	0	0	0	0	0	0	0	0	0	0	0	0	0	0	0
081512	17:18:01	10007	AudioCheckFr	WordsFr	0	0	0	0	0	17:18:01	143102	0	0	0	0	0	0	0	0	0	0	0	0	0	0	0	0	0
081512	17:18:01	10007	CubeFr	CubeFr	1	1Cube	23136	0	0	17:18:01	168126	0	0	0	0	0	0	0	0	0	0	0	0	0	0	0	0	0
081512	17:18:01	10007	pm.simpleFrLeft	blank.simpleFr	2	0	1487	1	0	17:18:01	186492	0	0	0	0	0	0	0	0	0	0	0	0	0	0	0	0	0
081512	17:18:01	10007	pm.simpleFrLeft	pm.simpleFr	2	57	462	0	0	17:18:01	186985	0	0	0	0	0	0	0	0	0	0	0	0	0	0	0	0	0
081512	17:18:01	10007	pm.simpleFrLeft	blank.simpleFr	2	0	1687	1	0	17:18:01	188704	0	0	0	0	0	0	0	0	0	0	0	0	0	0	0	0	0
081512	17:18:01	10007	pm.simpleFrLeft	pm.simpleFr	2	57	282	0	0	17:18:01	189024	0	0	0	0	0	0	0	0	0	0	0	0	0	0	0	0	0
081512	17:18:01	10007	pm.simpleFrLeft	blank.simpleFr	2	0	2287	1	0	17:18:01	191343	0	0	0	0	0	0	0	0	0	0	0	0	0	0	0	0	0
081512	17:18:01	10007	pm.simpleFrLeft	pm.simpleFr	2	57	330	0	0	17:18:01	191717	0	0	0	0	0	0	0	0	0	0	0	0	0	0	0	0	0
081512	17:18:01	10007	pm.simpleFrLeft	blank.simpleFr	2	0	2087	1	0	17:18:01	193836	0	0	0	0	0	0	0	0	0	0	0	0	0	0	0	0	0
081512	17:18:01	10007	pm.simpleFrLeft	pm.simpleFr	2	57	271	0	0	17:18:01	194142	0	0	0	0	0	0	0	0	0	0	0	0	0	0	0	0	0
081512	17:18:01	10007	pm.simpleFrLeft	blank.simpleFr	2	0	2187	1	0	17:18:01	196355	0	0	0	0	0	0	0	0	0	0	0	0	0	0	0	0	0
081512	17:18:01	10007	pm.simpleFrLeft	pm.simpleFr	2	57	296	0	0	17:18:01	196688	0	0	0	0	0	0	0	0	0	0	0	0	0	0	0	0	0
081512	17:18:01	10007	pm.simpleFrLeft	blank.simpleFr	2	0	1987	1	0	17:18:01	198700	0	0	0	0	0	0	0	0	0	0	0	0	0	0	0	0	0
081512	17:18:01	10007	pm.simpleFrLeft	pm.simpleFr	2	57	318	0	0	17:18:01	199060	0	0	0	0	0	0	0	0	0	0	0	0	0	0	0	0	0
081512	17:18:01	10007	pm.simpleFrLeft	blank.simpleFr	2	0	2487	1	0	17:18:01	201579	0	0	0	0	0	0	0	0	0	0	0	0	0	0	0	0	0
081512	17:18:01	10007	pm.simpleFrLeft	pm.simpleFr	2	57	271	0	0	17:18:01	201886	0	0	0	0	0	0	0	0	0	0	0	0	0	0	0	0	0
081512	17:18:01	10007	pm.simpleFrLeft	blank.simpleFr	2	0	1887	1	0	17:18:01	203805	0	0	0	0	0	0	0	0	0	0	0	0	0	0	0	0	0
081512	17:18:01	10007	pm.simpleFrLeft	pm.simpleFr	2	57	317	0	0	17:18:01	204165	0	0	0	0	0	0	0	0	0	0	0	0	0	0	0	0	0
081512	17:18:01	10007	pm.simpleFrLeft	blank.simpleFr	2	0	2387	1	0	17:18:01	206577	0	0	0	0	0	0	0	0	0	0	0	0	0	0	0	0	0
081512	17:18:01	10007	pm.simpleFrLeft	pm.simpleFr	2	57	392	0	0	17:18:01	207004	0	0	0	0	0	0	0	0	0	0	0	0	0	0	0	0	0
081512	17:18:01	10007	pm.simpleFrLeft	blank.simpleFr	2	0	1787	1	0	17:18:01	208816	0	0	0	0	0	0	0	0	0	0	0	0	0	0	0	0	0
081512	17:18:01	10007	pm.simpleFrLeft	pm.simpleFr	2	57	265	0	0	17:18:01	209123	0	0	0	0	0	0	0	0	0	0	0	0	0	0	0	0	0
081512	17:18:01	10007	pm.simpleFrLeft	blank.simpleFr	2	0	1587	1	0	17:18:01	210736	0	0	0	0	0	0	0	0	0	0	0	0	0	0	0	0	0
081512	17:18:01	10007	pm.simpleFrLeft	pm.simpleFr	2	57	330	0	0	17:18:01	211109	0	0	0	0	0	0	0	0	0	0	0	0	0	0	0	0	0
081512	17:18:01	10007	pm.simpleFrLeft	blank.simpleFr	2	0	2087	1	0	17:18:01	213295	0	0	0	0	0	0	0	0	0	0	0	0	0	0	0	0	0
081512	17:18:01	10007	pm.simpleFrLeft	pm.simpleFr	2	57	300	0	0	17:18:01	213628	0	0	0	0	0	0	0	0	0	0	0	0	0	0	0	0	0
081512	17:18:01	10007	pm.simpleFrLeft	blank.simpleFr	2	0	1587	1	0	17:18:01	215241	0	0	0	0	0	0	0	0	0	0	0	0	0	0	0	0	0
081512	17:18:01	10007	pm.simpleFrLeft	pm.simpleFr	2	57	289	0	0	17:18:01	215561	0	0	0	0	0	0	0	0	0	0	0	0	0	0	0	0	0
081512	17:18:01	10007	pm.simpleFrLeft	blank.simpleFr	2	0	1487	1	0	17:18:01	217067	0	0	0	0	0	0	0	0	0	0	0	0	0	0	0	0	0
081512	17:18:01	10007	pm.simpleFrLeft	pm.simpleFr	2	57	304	0	0	17:18:01	217400	0	0	0	0	0	0	0	0	0	0	0	0	0	0	0	0	0
081512	17:18:01	10007	pm.simpleFrLeft	blank.simpleFr	2	0	1987	1	0	17:18:01	219412	0	0	0	0	0	0	0	0	0	0	0	0	0	0	0	0	0
081512	17:18:01	10007	pm.simpleFrLeft	pm.simpleFr	2	57	246	0	0	17:18:01	219692	0	0	0	0	0	0	0	0	0	0	0	0	0	0	0	0	0
081512	17:18:01	10007	pm.simpleFrLeft	blank.simpleFr	2	0	1687	1	0	17:18:01	221412	0	0	0	0	0	0	0	0	0	0	0	0	0	0	0	0	0
081512	17:18:01	10007	pm.simpleFrLeft	pm.simpleFr	2	57	263	0	0	17:18:01	221705	0	0	0	0	0	0	0	0	0	0	0	0	0	0	0	0	0
081512	17:18:01	10007	pm.simpleFrLeft	blank.simpleFr	2	0	2287	1	0	17:18:01	224024	0	0	0	0	0	0	0	0	0	0	0	0	0	0	0	0	0
081512	17:18:01	10007	pm.simpleFrLeft	pm.simpleFr	2	57	306	0	0	17:18:01	224370	0	0	0	0	0	0	0	0	0	0	0	0	0	0	0	0	0
081512	17:18:01	10007	pm.simpleFrLeft	blank.simpleFr	2	0	1787	1	0	17:18:01	226183	0	0	0	0	0	0	0	0	0	0	0	0	0	0	0	0	0
081512	17:18:01	10007	pm.simpleFrLeft	pm.simpleFr	2	57	275	0	0	17:18:01	226489	0	0	0	0	0	0	0	0	0	0	0	0	0	0	0	0	0
081512	17:18:01	10007	pm.simpleFrLeft	blank.simpleFr	2	0	1887	1	0	17:18:01	228409	0	0	0	0	0	0	0	0	0	0	0	0	0	0	0	0	0
081512	17:18:01	10007	pm.simpleFrLeft	pm.simpleFr	2	57	257	0	0	17:18:01	228702	0	0	0	0	0	0	0	0	0	0	0	0	0	0	0	0	0
081512	17:18:01	10007	pm.simpleFrLeft	blank.simpleFr	2	0	2387	1	0	17:18:01	231114	0	0	0	0	0	0	0	0	0	0	0	0	0	0	0	0	0
081512	17:18:01	10007	pm.simpleFrLeft	pm.simpleFr	2	57	319	0	0	17:18:01	231474	0	0	0	0	0	0	0	0	0	0	0	0	0	0	0	0	0
081512	17:18:01	10007	pm.simpleFrLeft	blank.simpleFr	2	0	2487	1	0	17:18:01	233993	0	0	0	0	0	0	0	0	0	0	0	0	0	0	0	0	0
081512	17:18:01	10007	pm.simpleFrLeft	pm.simpleFr	2	57	305	0	0	17:18:01	234340	0	0	0	0	0	0	0	0	0	0	0	0	0	0	0	0	0
081512	17:18:01	10007	pm.simpleFrLeft	blank.simpleFr	2	0	2187	1	0	17:18:01	236552	0	0	0	0	0	0	0	0	0	0	0	0	0	0	0	0	0
081512	17:18:01	10007	pm.simpleFrLeft	pm.simpleFr	2	57	370	0	0	17:18:01	236952	0	0	0	0	0	0	0	0	0	0	0	0	0	0	0	0	0
081512	17:18:01	10007	pm.simpleFrLeft	blank.simpleFr	2	0	2087	1	0	17:18:01	239071	0	0	0	0	0	0	0	0	0	0	0	0	0	0	0	0	0
081512	17:18:01	10007	pm.simpleFrLeft	pm.simpleFr	2	57	282	0	0	17:18:01	239391	0	0	0	0	0	0	0	0	0	0	0	0	0	0	0	0	0
081512	17:18:01	10007	pm.simpleFrLeft	blank.simpleFr	2	0	1487	1	0	17:18:01	240911	0	0	0	0	0	0	0	0	0	0	0	0	0	0	0	0	0
081512	17:18:01	10007	pm.simpleFrLeft	pm.simpleFr	2	57	300	0	0	17:18:01	241244	0	0	0	0	0	0	0	0	0	0	0	0	0	0	0	0	0
081512	17:18:01	10007	pm.simpleFrLeft	blank.simpleFr	2	0	1887	1	0	17:18:01	243150	0	0	0	0	0	0	0	0	0	0	0	0	0	0	0	0	0
081512	17:18:01	10007	pm.simpleFrLeft	pm.simpleFr	2	57	252	0	0	17:18:01	243443	0	0	0	0	0	0	0	0	0	0	0	0	0	0	0	0	0
081512	17:18:01	10007	pm.simpleFrLeft	blank.simpleFr	2	0	2187	1	0	17:18:01	245655	0	0	0	0	0	0	0	0	0	0	0	0	0	0	0	0	0
081512	17:18:01	10007	pm.simpleFrLeft	pm.simpleFr	2	57	259	0	0	17:18:01	245948	0	0	0	0	0	0	0	0	0	0	0	0	0	0	0	0	0
081512	17:18:01	10007	pm.simpleFrLeft	blank.simpleFr	2	0	1987	1	0	17:18:01	247961	0	0	0	0	0	0	0	0	0	0	0	0	0	0	0	0	0
081512	17:18:01	10007	pm.simpleFrLeft	pm.simpleFr	2	57	289	0	0	17:18:01	248281	0	0	0	0	0	0	0	0	0	0	0	0	0	0	0	0	0
081512	17:18:01	10007	pm.simpleFrLeft	blank.simpleFr	2	0	2287	1	0	17:18:01	250600	0	0	0	0	0	0	0	0	0	0	0	0	0	0	0	0	0
081512	17:18:01	10007	pm.simpleFrLeft	pm.simpleFr	2	57	274	0	0	17:18:01	250907	0	0	0	0	0	0	0	0	0	0	0	0	0	0	0	0	0
081512	17:18:01	10007	pm.simpleFrLeft	blank.simpleFr	2	0	1787	1	0	17:18:01	252719	0	0	0	0	0	0	0	0	0	0	0	0	0	0	0	0	0
081512	17:18:01	10007	pm.simpleFrLeft	pm.simpleFr	2	57	235	0	0	17:18:01	252986	0	0	0	0	0	0	0	0	0	0	0	0	0	0	0	0	0
081512	17:18:01	10007	pm.simpleFrLeft	blank.simpleFr	2	0	2487	1	0	17:18:01	255491	0	0	0	0	0	0	0	0	0	0	0	0	0	0	0	0	0
081512	17:18:01	10007	pm.simpleFrLeft	pm.simpleFr	2	57	246	0	0	17:18:01	255771	0	0	0	0	0	0	0	0	0	0	0	0	0	0	0	0	0
081512	17:18:01	10007	pm.simpleFrLeft	blank.simpleFr	2	0	1687	1	0	17:18:01	257491	0	0	0	0	0	0	0	0	0	0	0	0	0	0	0	0	0
081512	17:18:01	10007	pm.simpleFrLeft	pm.simpleFr	2	57	279	0	0	17:18:01	257811	0	0	0	0	0	0	0	0	0	0	0	0	0	0	0	0	0
081512	17:18:01	10007	pm.simpleFrLeft	blank.simpleFr	2	0	2387	1	0	17:18:01	260223	0	0	0	0	0	0	0	0	0	0	0	0	0	0	0	0	0
081512	17:18:01	10007	pm.simpleFrLeft	pm.simpleFr	2	57	283	0	0	17:18:01	260543	0	0	0	0	0	0	0	0	0	0	0	0	0	0	0	0	0
081512	17:18:01	10007	pm.simpleFrLeft	blank.simpleFr	2	0	1587	1	0	17:18:01	262156	0	0	0	0	0	0	0	0	0	0	0	0	0	0	0	0	0
081512	17:18:01	10007	pm.simpleFrLeft	pm.simpleFr	2	57	286	0	0	17:18:01	262475	0	0	0	0	0	0	0	0	0	0	0	0	0	0	0	0	0
081512	17:18:01	10007	pm.simpleFrLeft	blank.simpleFr	2	0	2487	1	0	17:18:01	264994	0	0	0	0	0	0	0	0	0	0	0	0	0	0	0	0	0
081512	17:18:01	10007	pm.simpleFrLeft	pm.simpleFr	2	57	263	0	0	17:18:01	265288	0	0	0	0	0	0	0	0	0	0	0	0	0	0	0	0	0
081512	17:18:01	10007	pm.simpleFrLeft	blank.simpleFr	2	0	2287	1	0	17:18:01	267607	0	0	0	0	0	0	0	0	0	0	0	0	0	0	0	0	0
081512	17:18:01	10007	pm.simpleFrLeft	pm.simpleFr	2	57	243	0	0	17:18:01	267887	0	0	0	0	0	0	0	0	0	0	0	0	0	0	0	0	0
081512	17:18:01	10007	pm.simpleFrLeft	blank.simpleFr	2	0	1787	1	0	17:18:01	269699	0	0	0	0	0	0	0	0	0	0	0	0	0	0	0	0	0
081512	17:18:01	10007	pm.simpleFrLeft	pm.simpleFr	2	57	278	0	0	17:18:01	270019	0	0	0	0	0	0	0	0	0	0	0	0	0	0	0	0	0
081512	17:18:01	10007	pm.simpleFrLeft	blank.simpleFr	2	0	1987	1	0	17:18:01	272032	0	0	0	0	0	0	0	0	0	0	0	0	0	0	0	0	0
081512	17:18:01	10007	pm.simpleFrLeft	pm.simpleFr	2	57	329	0	0	17:18:01	272392	0	0	0	0	0	0	0	0	0	0	0	0	0	0	0	0	0
081512	17:18:01	10007	pm.simpleFrLeft	blank.simpleFr	2	0	1487	1	0	17:18:01	273911	0	0	0	0	0	0	0	0	0	0	0	0	0	0	0	0	0
081512	17:18:01	10007	pm.simpleFrLeft	pm.simpleFr	2	57	274	0	0	17:18:01	274218	0	0	0	0	0	0	0	0	0	0	0	0	0	0	0	0	0
081512	17:18:01	10007	pm.simpleFrLeft	blank.simpleFr	2	0	2387	1	0	17:18:01	276630	0	0	0	0	0	0	0	0	0	0	0	0	0	0	0	0	0
081512	17:18:01	10007	pm.simpleFrLeft	pm.simpleFr	2	57	372	0	0	17:18:01	277043	0	0	0	0	0	0	0	0	0	0	0	0	0	0	0	0	0
081512	17:18:01	10007	pm.simpleFrLeft	blank.simpleFr	2	0	2187	1	0	17:18:01	279255	0	0	0	0	0	0	0	0	0	0	0	0	0	0	0	0	0
081512	17:18:01	10007	pm.simpleFrLeft	pm.simpleFr	2	57	306	0	0	17:18:01	279602	0	0	0	0	0	0	0	0	0	0	0	0	0	0	0	0	0
081512	17:18:01	10007	Trial2BackFr	N	3	0	1000	1	1	17:18:01	313775	0	0	0	0	0	0	0	0	0	0	0	0	0	0	0	0	0
081512	17:18:01	10007	Trial2BackFr	N	3	0	1000	1	2	17:18:01	315295	0	0	0	0	0	0	0	0	0	0	0	0	0	0	0	0	0
081512	17:18:01	10007	Trial2BackFr	N	3	0	1000	1	3	17:18:01	316814	0	0	0	0	0	0	0	0	0	0	0	0	0	0	0	0	0
081512	17:18:01	10007	Trial2BackFr	N	3	0	1000	1	4	17:18:01	318333	0	0	0	0	0	0	0	0	0	0	0	0	0	0	0	0	0
081512	17:18:01	10007	Trial2BackFr	N	3	0	1000	1	5	17:18:01	319853	0	0	0	0	0	0	0	0	0	0	0	0	0	0	0	0	0
081512	17:18:01	10007	Trial2BackFr	N	3	0	1000	1	6	17:18:01	321372	0	0	0	0	0	0	0	0	0	0	0	0	0	0	0	0	0
081512	17:18:01	10007	Trial2BackFr	N	3	0	1000	1	7	17:18:01	322892	0	0	0	0	0	0	0	0	0	0	0	0	0	0	0	0	0
081512	17:18:01	10007	Trial2BackFr	N	3	57	914	0	7	17:18:01	324331	0	0	0	0	0	0	0	0	0	0	0	0	0	0	0	0	0
081512	17:18:01	10007	Trial2BackFr	Y	3	57	783	1	8	17:18:01	325704	0	0	0	0	0	0	0	0	0	0	0	0	0	0	0	0	0
081512	17:18:01	10007	Trial2BackFr	N	3	0	1000	1	9	17:18:01	327410	0	0	0	0	0	0	0	0	0	0	0	0	0	0	0	0	0
081512	17:18:01	10007	Trial2BackFr	N	3	0	1000	1	10	17:18:01	328929	0	0	0	0	0	0	0	0	0	0	0	0	0	0	0	0	0
081512	17:18:01	10007	Trial2BackFr	N	3	0	1000	1	11	17:18:01	330449	0	0	0	0	0	0	0	0	0	0	0	0	0	0	0	0	0
081512	17:18:01	10007	Trial2BackFr	Y	3	57	365	1	12	17:18:01	331342	0	0	0	0	0	0	0	0	0	0	0	0	0	0	0	0	0
081512	17:18:01	10007	Trial2BackFr	N	3	0	1000	1	13	17:18:01	333474	0	0	0	0	0	0	0	0	0	0	0	0	0	0	0	0	0
081512	17:18:01	10007	Trial2BackFr	N	3	0	1000	1	14	17:18:01	334993	0	0	0	0	0	0	0	0	0	0	0	0	0	0	0	0	0
081512	17:18:01	10007	Trial2BackFr	N	3	0	1000	1	15	17:18:01	336513	0	0	0	0	0	0	0	0	0	0	0	0	0	0	0	0	0
081512	17:18:01	10007	Trial2BackFr	N	3	0	1000	1	16	17:18:01	338032	0	0	0	0	0	0	0	0	0	0	0	0	0	0	0	0	0
081512	17:18:01	10007	Trial2BackFr	N	3	0	1000	1	17	17:18:01	339552	0	0	0	0	0	0	0	0	0	0	0	0	0	0	0	0	0
081512	17:18:01	10007	Trial2BackFr	Y	3	57	525	1	18	17:18:01	340605	0	0	0	0	0	0	0	0	0	0	0	0	0	0	0	0	0
081512	17:18:01	10007	Trial2BackFr	N	3	0	1000	1	19	17:18:01	342577	0	0	0	0	0	0	0	0	0	0	0	0	0	0	0	0	0
081512	17:18:01	10007	Trial2BackFr	N	3	0	1000	1	20	17:18:01	344097	0	0	0	0	0	0	0	0	0	0	0	0	0	0	0	0	0
081512	17:18:01	10007	Trial2BackFr	N	3	0	1000	1	21	17:18:01	345616	0	0	0	0	0	0	0	0	0	0	0	0	0	0	0	0	0
081512	17:18:01	10007	Trial2BackFr	N	3	0	1000	1	22	17:18:01	347135	0	0	0	0	0	0	0	0	0	0	0	0	0	0	0	0	0
081512	17:18:01	10007	Trial2BackFr	Y	3	57	766	1	23	17:18:01	348428	0	0	0	0	0	0	0	0	0	0	0	0	0	0	0	0	0
081512	17:18:01	10007	Trial2BackFr	N	3	0	1000	1	24	17:18:01	350161	0	0	0	0	0	0	0	0	0	0	0	0	0	0	0	0	0
081512	17:18:01	10007	Trial2BackFr	N	3	0	1000	1	25	17:18:01	351680	0	0	0	0	0	0	0	0	0	0	0	0	0	0	0	0	0
081512	17:18:01	10007	Trial2BackFr	N	3	0	1000	1	26	17:18:01	353200	0	0	0	0	0	0	0	0	0	0	0	0	0	0	0	0	0
081512	17:18:01	10007	Trial2BackFr	N	3	0	1000	1	27	17:18:01	354719	0	0	0	0	0	0	0	0	0	0	0	0	0	0	0	0	0
081512	17:18:01	10007	Trial2BackFr	N	3	0	1000	1	28	17:18:01	356238	0	0	0	0	0	0	0	0	0	0	0	0	0	0	0	0	0
081512	17:18:01	10007	Trial2BackFr	N	3	0	1000	1	29	17:18:01	357758	0	0	0	0	0	0	0	0	0	0	0	0	0	0	0	0	0
081512	17:18:01	10007	Trial2BackFr	Y	3	57	703	1	30	17:18:01	358984	0	0	0	0	0	0	0	0	0	0	0	0	0	0	0	0	0
081512	17:18:01	10007	Trial2BackFr	N	3	0	1000	1	31	17:18:01	360783	0	0	0	0	0	0	0	0	0	0	0	0	0	0	0	0	0
081512	17:18:01	10007	Trial2BackFr	N	3	0	1000	1	32	17:18:01	362303	0	0	0	0	0	0	0	0	0	0	0	0	0	0	0	0	0
081512	17:18:01	10007	Trial2BackFr	N	3	0	1000	1	33	17:18:01	363822	0	0	0	0	0	0	0	0	0	0	0	0	0	0	0	0	0
081512	17:18:01	10007	Trial2BackFr	Y	3	57	335	1	34	17:18:01	364689	0	0	0	0	0	0	0	0	0	0	0	0	0	0	0	0	0
081512	17:18:01	10007	Trial2BackFr	N	3	0	1000	1	35	17:18:01	366848	0	0	0	0	0	0	0	0	0	0	0	0	0	0	0	0	0
081512	17:18:01	10007	Trial2BackFr	N	3	0	1000	1	36	17:18:01	368367	0	0	0	0	0	0	0	0	0	0	0	0	0	0	0	0	0
081512	17:18:01	10007	Trial2BackFr	N	3	0	1000	1	37	17:18:01	369887	0	0	0	0	0	0	0	0	0	0	0	0	0	0	0	0	0
081512	17:18:01	10007	Trial2BackFr	N	3	0	1000	1	38	17:18:01	371406	0	0	0	0	0	0	0	0	0	0	0	0	0	0	0	0	0
081512	17:18:01	10007	Trial2BackFr	N	3	0	1000	1	39	17:18:01	372925	0	0	0	0	0	0	0	0	0	0	0	0	0	0	0	0	0
081512	17:18:01	10007	Trial2BackFr	N	3	0	1000	1	40	17:18:01	374445	0	0	0	0	0	0	0	0	0	0	0	0	0	0	0	0	0
081512	17:18:01	10007	Trial2BackFr	Y	3	57	656	1	41	17:18:01	375631	0	0	0	0	0	0	0	0	0	0	0	0	0	0	0	0	0
081512	17:18:01	10007	Trial2BackFr	N	3	0	1000	1	42	17:18:01	377470	0	0	0	0	0	0	0	0	0	0	0	0	0	0	0	0	0
081512	17:18:01	10007	Trial2BackFr	N	3	0	1000	1	43	17:18:01	378990	0	0	0	0	0	0	0	0	0	0	0	0	0	0	0	0	0
081512	17:18:01	10007	Trial2BackFr	N	3	0	1000	1	44	17:18:01	380509	0	0	0	0	0	0	0	0	0	0	0	0	0	0	0	0	0
081512	17:18:01	10007	Trial2BackFr	N	3	0	1000	1	45	17:18:01	382028	0	0	0	0	0	0	0	0	0	0	0	0	0	0	0	0	0
081512	17:18:01	10007	Trial2BackFr	Y	3	57	560	1	46	17:18:01	383121	0	0	0	0	0	0	0	0	0	0	0	0	0	0	0	0	0
081512	17:18:01	10007	Trial2BackFr	N	3	0	1000	1	47	17:18:01	385054	0	0	0	0	0	0	0	0	0	0	0	0	0	0	0	0	0
081512	17:18:01	10007	Trial2BackFr	N	3	0	1000	1	48	17:18:01	386573	0	0	0	0	0	0	0	0	0	0	0	0	0	0	0	0	0
081512	17:18:01	10007	Trial2BackFr	N	3	0	1000	1	49	17:18:01	388093	0	0	0	0	0	0	0	0	0	0	0	0	0	0	0	0	0
081512	17:18:01	10007	Trial2BackFr	N	3	0	1000	1	50	17:18:01	389612	0	0	0	0	0	0	0	0	0	0	0	0	0	0	0	0	0
081512	17:18:01	10007	Trial2BackFr	N	3	0	1000	1	51	17:18:01	391131	0	0	0	0	0	0	0	0	0	0	0	0	0	0	0	0	0
081512	17:18:01	10007	Trial2BackFr	Y	3	57	353	1	52	17:18:01	392011	0	0	0	0	0	0	0	0	0	0	0	0	0	0	0	0	0
081512	17:18:01	10007	Trial2BackFr	N	3	0	1000	1	53	17:18:01	394157	0	0	0	0	0	0	0	0	0	0	0	0	0	0	0	0	0
081512	17:18:01	10007	Trial2BackFr	N	3	0	1000	1	54	17:18:01	395676	0	0	0	0	0	0	0	0	0	0	0	0	0	0	0	0	0
081512	17:18:01	10007	Trial2BackFr	N	3	0	1000	1	55	17:18:01	397196	0	0	0	0	0	0	0	0	0	0	0	0	0	0	0	0	0
081512	17:18:01	10007	Trial2BackFr	N	3	0	1000	1	56	17:18:01	398715	0	0	0	0	0	0	0	0	0	0	0	0	0	0	0	0	0
081512	17:18:01	10007	Trial2BackFr	N	3	0	1000	1	57	17:18:01	400235	0	0	0	0	0	0	0	0	0	0	0	0	0	0	0	0	0
081512	17:18:01	10007	Trial2BackFr	N	3	0	1000	1	58	17:18:01	401754	0	0	0	0	0	0	0	0	0	0	0	0	0	0	0	0	0
081512	17:18:01	10007	Trial2BackFr	Y	3	57	530	1	59	17:18:01	402807	0	0	0	0	0	0	0	0	0	0	0	0	0	0	0	0	0
081512	17:18:01	10007	Trial2BackFr	N	3	0	1000	1	60	17:18:01	404779	0	0	0	0	0	0	0	0	0	0	0	0	0	0	0	0	0
081512	17:18:01	10007	Trial2BackFr	N	3	0	1000	1	61	17:18:01	406299	0	0	0	0	0	0	0	0	0	0	0	0	0	0	0	0	0
081512	17:18:01	10007	Trial2BackFr	Y	3	0	1000	0	61	17:18:01	407818	0	0	0	0	0	0	0	0	0	0	0	0	0	0	0	0	0
081512	17:18:01	10007	Trial2BackFr	N	3	0	1000	1	62	17:18:01	409338	0	0	0	0	0	0	0	0	0	0	0	0	0	0	0	0	0
081512	17:18:01	10007	Trial2BackFr	N	3	0	1000	1	63	17:18:01	410857	0	0	0	0	0	0	0	0	0	0	0	0	0	0	0	0	0
081512	17:18:01	10007	Trial2BackFr	N	3	0	1000	1	64	17:18:01	412376	0	0	0	0	0	0	0	0	0	0	0	0	0	0	0	0	0
081512	17:18:01	10007	Trial2BackFr	N	3	0	1000	1	65	17:18:01	413896	0	0	0	0	0	0	0	0	0	0	0	0	0	0	0	0	0
081512	17:18:01	10007	Trial2BackFr	N	3	57	468	0	65	17:18:01	414895	0	0	0	0	0	0	0	0	0	0	0	0	0	0	0	0	0
081512	17:18:01	10007	Trial2BackFr	N	3	0	1000	1	66	17:18:01	416921	0	0	0	0	0	0	0	0	0	0	0	0	0	0	0	0	0
081512	17:18:01	10007	Trial2BackFr	N	3	0	1000	1	67	17:18:01	418441	0	0	0	0	0	0	0	0	0	0	0	0	0	0	0	0	0
081512	17:18:01	10007	Trial2BackFr	N	3	0	1000	1	68	17:18:01	419960	0	0	0	0	0	0	0	0	0	0	0	0	0	0	0	0	0
081512	17:18:01	10007	Trial2BackFr	N	3	0	1000	1	69	17:18:01	421479	0	0	0	0	0	0	0	0	0	0	0	0	0	0	0	0	0
081512	17:18:01	10007	Trial2BackFr	N	3	0	1000	1	70	17:18:01	422999	0	0	0	0	0	0	0	0	0	0	0	0	0	0	0	0	0
081512	17:18:01	10007	Trial2BackFr	Y	3	57	533	1	71	17:18:01	424065	0	0	0	0	0	0	0	0	0	0	0	0	0	0	0	0	0
081512	17:18:01	10007	Trial2BackFr	N	3	0	1000	1	72	17:18:01	426024	0	0	0	0	0	0	0	0	0	0	0	0	0	0	0	0	0
081512	17:18:01	10007	Trial2BackFr	N	3	0	1000	1	73	17:18:01	427544	0	0	0	0	0	0	0	0	0	0	0	0	0	0	0	0	0
081512	17:18:01	10007	Trial2BackFr	N	3	0	1000	1	74	17:18:01	429063	0	0	0	0	0	0	0	0	0	0	0	0	0	0	0	0	0
081512	17:18:01	10007	Trial2BackFr	Y	3	57	517	1	75	17:18:01	430103	0	0	0	0	0	0	0	0	0	0	0	0	0	0	0	0	0
081512	17:18:01	10007	Trial2BackFr	N	3	0	1000	1	76	17:18:01	432089	0	0	0	0	0	0	0	0	0	0	0	0	0	0	0	0	0
081512	17:18:01	10007	Trial2BackFr	N	3	0	1000	1	77	17:18:01	433608	0	0	0	0	0	0	0	0	0	0	0	0	0	0	0	0	0
081512	17:18:01	10007	Trial2BackFr	N	3	0	1000	1	78	17:18:01	435127	0	0	0	0	0	0	0	0	0	0	0	0	0	0	0	0	0
081512	17:18:01	10007	Trial2BackFr	N	3	0	1000	1	79	17:18:01	436647	0	0	0	0	0	0	0	0	0	0	0	0	0	0	0	0	0
081512	17:18:01	10007	Trial2BackFr	N	3	0	1000	1	80	17:18:01	438166	0	0	0	0	0	0	0	0	0	0	0	0	0	0	0	0	0
081512	17:18:01	10007	Trial2BackFr	Y	3	57	662	1	81	17:18:01	439353	0	0	0	0	0	0	0	0	0	0	0	0	0	0	0	0	0
081512	17:18:01	10007	Trial2BackFr	N	3	0	1000	1	82	17:18:01	441192	0	0	0	0	0	0	0	0	0	0	0	0	0	0	0	0	0
081512	17:18:01	10007	Trial2BackFr	N	3	0	1000	1	83	17:18:01	442711	0	0	0	0	0	0	0	0	0	0	0	0	0	0	0	0	0
081512	17:18:01	10007	Trial2BackFr	N	3	0	1000	1	84	17:18:01	444231	0	0	0	0	0	0	0	0	0	0	0	0	0	0	0	0	0
081512	17:18:01	10007	Trial2BackFr	N	3	0	1000	1	85	17:18:01	445750	0	0	0	0	0	0	0	0	0	0	0	0	0	0	0	0	0
081512	17:18:01	10007	Trial2BackFr	N	3	0	1000	1	86	17:18:01	447269	0	0	0	0	0	0	0	0	0	0	0	0	0	0	0	0	0
081512	17:18:01	10007	Trial2BackFr	N	3	57	454	0	86	17:18:01	448256	0	0	0	0	0	0	0	0	0	0	0	0	0	0	0	0	0
081512	17:18:01	10007	Trial2BackFr	N	3	0	1000	1	87	17:18:01	450295	0	0	0	0	0	0	0	0	0	0	0	0	0	0	0	0	0
081512	17:18:01	10007	Trial2BackFr	N	3	0	1000	1	88	17:18:01	451814	0	0	0	0	0	0	0	0	0	0	0	0	0	0	0	0	0
081512	17:18:01	10007	Trial2BackFr	N	3	0	1000	1	89	17:18:01	453334	0	0	0	0	0	0	0	0	0	0	0	0	0	0	0	0	0
081512	17:18:01	10007	Trial2BackFr	Y	3	57	422	1	90	17:18:01	454280	0	0	0	0	0	0	0	0	0	0	0	0	0	0	0	0	0
081512	17:18:01	10007	Trial2BackFr	N	3	0	1000	1	91	17:18:01	456359	0	0	0	0	0	0	0	0	0	0	0	0	0	0	0	0	0
081512	17:18:01	10007	Trial2BackFr	N	3	0	1000	1	92	17:18:01	457878	0	0	0	0	0	0	0	0	0	0	0	0	0	0	0	0	0
081512	17:18:01	10007	Trial2BackFr	N	3	0	1000	1	93	17:18:01	459398	0	0	0	0	0	0	0	0	0	0	0	0	0	0	0	0	0
081512	17:18:01	10007	Trial2BackFr	N	3	0	1000	1	94	17:18:01	460917	0	0	0	0	0	0	0	0	0	0	0	0	0	0	0	0	0
081512	17:18:01	10007	Trial2BackFr	N	3	0	1000	1	95	17:18:01	462437	0	0	0	0	0	0	0	0	0	0	0	0	0	0	0	0	0
081512	17:18:01	10007	Trial2BackFr	N	3	0	1000	1	96	17:18:01	463956	0	0	0	0	0	0	0	0	0	0	0	0	0	0	0	0	0
081512	17:18:01	10007	Trial2BackFr	N	3	0	1000	1	97	17:18:01	465476	0	0	0	0	0	0	0	0	0	0	0	0	0	0	0	0	0
081512	17:18:01	10007	Trial2BackFr	N	3	0	1000	1	98	17:18:01	466995	0	0	0	0	0	0	0	0	0	0	0	0	0	0	0	0	0
081512	17:18:01	10007	Trial2BackFr	Y	3	57	473	1	99	17:18:01	467994	0	0	0	0	0	0	0	0	0	0	0	0	0	0	0	0	0
081512	17:18:01	10007	Trial2BackFr	N	3	0	1000	1	100	17:18:01	470020	0	0	0	0	0	0	0	0	0	0	0	0	0	0	0	0	0
081512	17:18:01	10007	Trial2BackFr	N	3	0	1000	1	101	17:18:01	471540	0	0	0	0	0	0	0	0	0	0	0	0	0	0	0	0	0
081512	17:18:01	10007	Trial2BackFr	N	3	0	1000	1	102	17:18:01	473059	0	0	0	0	0	0	0	0	0	0	0	0	0	0	0	0	0
081512	17:18:01	10007	Trial2BackFr	N	3	0	1000	1	103	17:18:01	474578	0	0	0	0	0	0	0	0	0	0	0	0	0	0	0	0	0
081512	17:18:01	10007	Trial2BackFr	Y	3	57	393	1	104	17:18:01	475498	0	0	0	0	0	0	0	0	0	0	0	0	0	0	0	0	0
081512	17:18:01	10007	Trial2BackFr	N	3	0	1000	1	105	17:18:01	477604	0	0	0	0	0	0	0	0	0	0	0	0	0	0	0	0	0
081512	17:18:01	10007	Trial2BackFr	N	3	0	1000	1	106	17:18:01	479123	0	0	0	0	0	0	0	0	0	0	0	0	0	0	0	0	0
081512	17:18:01	10007	Trial2BackFr	N	3	0	1000	1	107	17:18:01	480643	0	0	0	0	0	0	0	0	0	0	0	0	0	0	0	0	0
081512	17:18:01	10007	Trial2BackFr	Y	3	57	488	1	108	17:18:01	481656	0	0	0	0	0	0	0	0	0	0	0	0	0	0	0	0	0
081512	17:18:01	10007	Trial2BackFr	N	3	0	1000	1	109	17:18:01	483668	0	0	0	0	0	0	0	0	0	0	0	0	0	0	0	0	0
081512	17:18:01	10007	Trial2BackFr	N	3	0	1000	1	110	17:18:01	485188	0	0	0	0	0	0	0	0	0	0	0	0	0	0	0	0	0
081512	17:18:01	10007	Trial2BackFr	N	3	0	1000	1	111	17:18:01	486707	0	0	0	0	0	0	0	0	0	0	0	0	0	0	0	0	0
081512	17:18:01	10007	Trial2BackFr	N	3	0	1000	1	112	17:18:01	488227	0	0	0	0	0	0	0	0	0	0	0	0	0	0	0	0	0
081512	17:18:01	10007	Trial2BackFr	N	3	0	1000	1	113	17:18:01	489746	0	0	0	0	0	0	0	0	0	0	0	0	0	0	0	0	0
081512	17:18:01	10007	Trial2BackFr	Y	3	57	730	1	114	17:18:01	490999	0	0	0	0	0	0	0	0	0	0	0	0	0	0	0	0	0
081512	17:18:01	10007	Trial2BackFr	N	3	0	1000	1	115	17:18:01	492771	0	0	0	0	0	0	0	0	0	0	0	0	0	0	0	0	0
081512	17:18:01	10007	Trial2BackFr	N	3	0	1000	1	116	17:18:01	494291	0	0	0	0	0	0	0	0	0	0	0	0	0	0	0	0	0
081512	17:18:01	10007	Trial2BackFr	N	3	0	1000	1	117	17:18:01	495810	0	0	0	0	0	0	0	0	0	0	0	0	0	0	0	0	0
081512	17:18:01	10007	Trial2BackFr	Y	3	57	249	1	118	17:18:01	496583	0	0	0	0	0	0	0	0	0	0	0	0	0	0	0	0	0
081512	17:18:01	10007	Trial3BackFr	NN	4	0	1000	1	118	17:18:01	513017	0	0	0	0	0	0	0	0	0	0	0	0	0	0	0	0	0
081512	17:18:01	10007	Trial3BackFr	NN	4	0	1000	1	118	17:18:01	514536	0	0	0	0	0	0	0	0	0	0	0	0	0	0	0	0	0
081512	17:18:01	10007	Trial3BackFr	NN	4	0	1000	1	118	17:18:01	516056	0	0	0	0	0	0	0	0	0	0	0	0	0	0	0	0	0
081512	17:18:01	10007	Trial3BackFr	YY	4	0	1000	0	118	17:18:01	517575	0	0	0	0	0	0	0	0	0	0	0	0	0	0	0	0	0
081512	17:18:01	10007	Trial3BackFr	NN	4	0	1000	1	118	17:18:01	519094	0	0	0	0	0	0	0	0	0	0	0	0	0	0	0	0	0
081512	17:18:01	10007	Trial3BackFr	NN	4	0	1000	1	118	17:18:01	520614	0	0	0	0	0	0	0	0	0	0	0	0	0	0	0	0	0
081512	17:18:01	10007	Trial3BackFr	NN	4	0	1000	1	118	17:18:01	522133	0	0	0	0	0	0	0	0	0	0	0	0	0	0	0	0	0
081512	17:18:01	10007	Trial3BackFr	NN	4	0	1000	1	118	17:18:01	523653	0	0	0	0	0	0	0	0	0	0	0	0	0	0	0	0	0
081512	17:18:01	10007	Trial3BackFr	YY	4	57	726	1	118	17:18:01	524905	0	0	0	0	0	0	0	0	0	0	0	0	0	0	0	0	0
081512	17:18:01	10007	Trial3BackFr	NN	4	0	1000	1	118	17:18:01	526678	0	0	0	0	0	0	0	0	0	0	0	0	0	0	0	0	0
081512	17:18:01	10007	Trial3BackFr	NN	4	0	1000	1	118	17:18:01	528197	0	0	0	0	0	0	0	0	0	0	0	0	0	0	0	0	0
081512	17:18:01	10007	Trial3BackFr	NN	4	0	1000	1	118	17:18:01	529717	0	0	0	0	0	0	0	0	0	0	0	0	0	0	0	0	0
081512	17:18:01	10007	Trial3BackFr	NN	4	0	1000	1	118	17:18:01	531236	0	0	0	0	0	0	0	0	0	0	0	0	0	0	0	0	0
081512	17:18:01	10007	Trial3BackFr	NN	4	57	326	0	118	17:18:01	532089	0	0	0	0	0	0	0	0	0	0	0	0	0	0	0	0	0
081512	17:18:01	10007	Trial3BackFr	NN	4	0	1000	1	118	17:18:01	534262	0	0	0	0	0	0	0	0	0	0	0	0	0	0	0	0	0
081512	17:18:01	10007	Trial3BackFr	NN	4	0	1000	1	118	17:18:01	535781	0	0	0	0	0	0	0	0	0	0	0	0	0	0	0	0	0
081512	17:18:01	10007	Trial3BackFr	YY	4	0	1000	0	118	17:18:01	537300	0	0	0	0	0	0	0	0	0	0	0	0	0	0	0	0	0
081512	17:18:01	10007	Trial3BackFr	NN	4	0	1000	1	118	17:18:01	538820	0	0	0	0	0	0	0	0	0	0	0	0	0	0	0	0	0
081512	17:18:01	10007	Trial3BackFr	NN	4	57	631	0	118	17:18:01	539979	0	0	0	0	0	0	0	0	0	0	0	0	0	0	0	0	0
081512	17:18:01	10007	Trial3BackFr	NN	4	0	1000	1	118	17:18:01	541845	0	0	0	0	0	0	0	0	0	0	0	0	0	0	0	0	0
081512	17:18:01	10007	Trial3BackFr	NN	4	0	1000	1	118	17:18:01	543365	0	0	0	0	0	0	0	0	0	0	0	0	0	0	0	0	0
081512	17:18:01	10007	Trial3BackFr	NN	4	0	1000	1	118	17:18:01	544884	0	0	0	0	0	0	0	0	0	0	0	0	0	0	0	0	0
081512	17:18:01	10007	Trial3BackFr	YY	4	0	1000	0	118	17:18:01	546403	0	0	0	0	0	0	0	0	0	0	0	0	0	0	0	0	0
081512	17:18:01	10007	Trial3BackFr	NN	4	0	1000	1	118	17:18:01	547923	0	0	0	0	0	0	0	0	0	0	0	0	0	0	0	0	0
081512	17:18:01	10007	Trial3BackFr	NN	4	0	1000	1	118	17:18:01	549442	0	0	0	0	0	0	0	0	0	0	0	0	0	0	0	0	0
081512	17:18:01	10007	Trial3BackFr	NN	4	0	1000	1	118	17:18:01	550962	0	0	0	0	0	0	0	0	0	0	0	0	0	0	0	0	0
081512	17:18:01	10007	Trial3BackFr	YY	4	0	1000	0	118	17:18:01	552481	0	0	0	0	0	0	0	0	0	0	0	0	0	0	0	0	0
081512	17:18:01	10007	Trial3BackFr	NN	4	0	1000	1	118	17:18:01	554001	0	0	0	0	0	0	0	0	0	0	0	0	0	0	0	0	0
081512	17:18:01	10007	Trial3BackFr	NN	4	0	1000	1	118	17:18:01	555520	0	0	0	0	0	0	0	0	0	0	0	0	0	0	0	0	0
081512	17:18:01	10007	Trial3BackFr	NN	4	0	1000	1	118	17:18:01	557039	0	0	0	0	0	0	0	0	0	0	0	0	0	0	0	0	0
081512	17:18:01	10007	Trial3BackFr	YY	4	57	331	1	118	17:18:01	557892	0	0	0	0	0	0	0	0	0	0	0	0	0	0	0	0	0
081512	17:18:01	10007	Trial3BackFr	NN	4	0	1000	1	118	17:18:01	560065	0	0	0	0	0	0	0	0	0	0	0	0	0	0	0	0	0
081512	17:18:01	10007	Trial3BackFr	NN	4	0	1000	1	118	17:18:01	561584	0	0	0	0	0	0	0	0	0	0	0	0	0	0	0	0	0
081512	17:18:01	10007	Trial3BackFr	NN	4	0	1000	1	118	17:18:01	563104	0	0	0	0	0	0	0	0	0	0	0	0	0	0	0	0	0
081512	17:18:01	10007	Trial3BackFr	NN	4	0	1000	1	118	17:18:01	564623	0	0	0	0	0	0	0	0	0	0	0	0	0	0	0	0	0
081512	17:18:01	10007	Trial3BackFr	NN	4	0	1000	1	118	17:18:01	566142	0	0	0	0	0	0	0	0	0	0	0	0	0	0	0	0	0
081512	17:18:01	10007	Trial3BackFr	NN	4	0	1000	1	118	17:18:01	567662	0	0	0	0	0	0	0	0	0	0	0	0	0	0	0	0	0
081512	17:18:01	10007	Trial3BackFr	NN	4	0	1000	1	118	17:18:01	569181	0	0	0	0	0	0	0	0	0	0	0	0	0	0	0	0	0
081512	17:18:01	10007	Trial3BackFr	NN	4	0	1000	1	118	17:18:01	570701	0	0	0	0	0	0	0	0	0	0	0	0	0	0	0	0	0
081512	17:18:01	10007	Trial3BackFr	NN	4	0	1000	1	118	17:18:01	572220	0	0	0	0	0	0	0	0	0	0	0	0	0	0	0	0	0
081512	17:18:01	10007	Trial3BackFr	NN	4	0	1000	1	118	17:18:01	573739	0	0	0	0	0	0	0	0	0	0	0	0	0	0	0	0	0
081512	17:18:01	10007	Trial3BackFr	YY	4	57	511	1	118	17:18:01	574779	0	0	0	0	0	0	0	0	0	0	0	0	0	0	0	0	0
081512	17:18:01	10007	Trial3BackFr	NN	4	0	1000	1	118	17:18:01	576765	0	0	0	0	0	0	0	0	0	0	0	0	0	0	0	0	0
081512	17:18:01	10007	Trial3BackFr	NN	4	0	1000	1	118	17:18:01	578284	0	0	0	0	0	0	0	0	0	0	0	0	0	0	0	0	0
081512	17:18:01	10007	Trial3BackFr	NN	4	0	1000	1	118	17:18:01	579804	0	0	0	0	0	0	0	0	0	0	0	0	0	0	0	0	0
081512	17:18:01	10007	Trial3BackFr	NN	4	0	1000	1	118	17:18:01	581323	0	0	0	0	0	0	0	0	0	0	0	0	0	0	0	0	0
081512	17:18:01	10007	Trial3BackFr	YY	4	57	367	1	118	17:18:01	582216	0	0	0	0	0	0	0	0	0	0	0	0	0	0	0	0	0
081512	17:18:01	10007	Trial3BackFr	NN	4	0	1000	1	118	17:18:01	584349	0	0	0	0	0	0	0	0	0	0	0	0	0	0	0	0	0
081512	17:18:01	10007	Trial3BackFr	NN	4	0	1000	1	118	17:18:01	585868	0	0	0	0	0	0	0	0	0	0	0	0	0	0	0	0	0
081512	17:18:01	10007	Trial3BackFr	NN	4	0	1000	1	118	17:18:01	587387	0	0	0	0	0	0	0	0	0	0	0	0	0	0	0	0	0
081512	17:18:01	10007	Trial3BackFr	NN	4	57	430	0	118	17:18:01	588347	0	0	0	0	0	0	0	0	0	0	0	0	0	0	0	0	0
081512	17:18:01	10007	Trial3BackFr	NN	4	0	1000	1	118	17:18:01	590413	0	0	0	0	0	0	0	0	0	0	0	0	0	0	0	0	0
081512	17:18:01	10007	Trial3BackFr	YY	4	0	1000	0	118	17:18:01	591932	0	0	0	0	0	0	0	0	0	0	0	0	0	0	0	0	0
081512	17:18:01	10007	Trial3BackFr	NN	4	0	1000	1	118	17:18:01	593452	0	0	0	0	0	0	0	0	0	0	0	0	0	0	0	0	0
081512	17:18:01	10007	Trial3BackFr	NN	4	0	1000	1	118	17:18:01	594971	0	0	0	0	0	0	0	0	0	0	0	0	0	0	0	0	0
081512	17:18:01	10007	Trial3BackFr	NN	4	0	1000	1	118	17:18:01	596491	0	0	0	0	0	0	0	0	0	0	0	0	0	0	0	0	0
081512	17:18:01	10007	Trial3BackFr	NN	4	0	1000	1	118	17:18:01	598010	0	0	0	0	0	0	0	0	0	0	0	0	0	0	0	0	0
081512	17:18:01	10007	Trial3BackFr	NN	4	57	672	0	118	17:18:01	599209	0	0	0	0	0	0	0	0	0	0	0	0	0	0	0	0	0
081512	17:18:01	10007	Trial3BackFr	NN	4	0	1000	1	118	17:18:01	601035	0	0	0	0	0	0	0	0	0	0	0	0	0	0	0	0	0
081512	17:18:01	10007	Trial3BackFr	YY	4	0	1000	0	118	17:18:01	602555	0	0	0	0	0	0	0	0	0	0	0	0	0	0	0	0	0
081512	17:18:01	10007	Trial3BackFr	NN	4	0	1000	1	118	17:18:01	604074	0	0	0	0	0	0	0	0	0	0	0	0	0	0	0	0	0
081512	17:18:01	10007	Trial3BackFr	NN	4	0	1000	1	118	17:18:01	605594	0	0	0	0	0	0	0	0	0	0	0	0	0	0	0	0	0
081512	17:18:01	10007	Trial3BackFr	NN	4	0	1000	1	118	17:18:01	607113	0	0	0	0	0	0	0	0	0	0	0	0	0	0	0	0	0
081512	17:18:01	10007	Trial3BackFr	YY	4	57	657	1	118	17:18:01	608299	0	0	0	0	0	0	0	0	0	0	0	0	0	0	0	0	0
081512	17:18:01	10007	Trial3BackFr	NN	4	0	1000	1	118	17:18:01	610138	0	0	0	0	0	0	0	0	0	0	0	0	0	0	0	0	0
081512	17:18:01	10007	Trial3BackFr	NN	4	0	1000	1	118	17:18:01	611658	0	0	0	0	0	0	0	0	0	0	0	0	0	0	0	0	0
081512	17:18:01	10007	Trial3BackFr	NN	4	0	1000	1	118	17:18:01	613177	0	0	0	0	0	0	0	0	0	0	0	0	0	0	0	0	0
081512	17:18:01	10007	Trial3BackFr	NN	4	0	1000	1	118	17:18:01	614697	0	0	0	0	0	0	0	0	0	0	0	0	0	0	0	0	0
081512	17:18:01	10007	Trial3BackFr	NN	4	0	1000	1	118	17:18:01	616216	0	0	0	0	0	0	0	0	0	0	0	0	0	0	0	0	0
081512	17:18:01	10007	Trial3BackFr	NN	4	0	1000	1	118	17:18:01	617735	0	0	0	0	0	0	0	0	0	0	0	0	0	0	0	0	0
081512	17:18:01	10007	Trial3BackFr	NN	4	0	1000	1	118	17:18:01	619255	0	0	0	0	0	0	0	0	0	0	0	0	0	0	0	0	0
081512	17:18:01	10007	Trial3BackFr	NN	4	0	1000	1	118	17:18:01	620774	0	0	0	0	0	0	0	0	0	0	0	0	0	0	0	0	0
081512	17:18:01	10007	Trial3BackFr	NN	4	0	1000	1	118	17:18:01	622294	0	0	0	0	0	0	0	0	0	0	0	0	0	0	0	0	0
081512	17:18:01	10007	Trial3BackFr	YY	4	57	468	1	118	17:18:01	623293	0	0	0	0	0	0	0	0	0	0	0	0	0	0	0	0	0
081512	17:18:01	10007	Trial3BackFr	NN	4	0	1000	1	118	17:18:01	625319	0	0	0	0	0	0	0	0	0	0	0	0	0	0	0	0	0
081512	17:18:01	10007	Trial3BackFr	NN	4	0	1000	1	118	17:18:01	626839	0	0	0	0	0	0	0	0	0	0	0	0	0	0	0	0	0
081512	17:18:01	10007	Trial3BackFr	NN	4	0	1000	1	118	17:18:01	628358	0	0	0	0	0	0	0	0	0	0	0	0	0	0	0	0	0
081512	17:18:01	10007	Trial3BackFr	YY	4	57	435	1	118	17:18:01	629318	0	0	0	0	0	0	0	0	0	0	0	0	0	0	0	0	0
081512	17:18:01	10007	Trial3BackFr	NN	4	0	1000	1	118	17:18:01	631383	0	0	0	0	0	0	0	0	0	0	0	0	0	0	0	0	0
081512	17:18:01	10007	Trial3BackFr	NN	4	0	1000	1	118	17:18:01	632903	0	0	0	0	0	0	0	0	0	0	0	0	0	0	0	0	0
081512	17:18:01	10007	Trial3BackFr	NN	4	0	1000	1	118	17:18:01	634422	0	0	0	0	0	0	0	0	0	0	0	0	0	0	0	0	0
081512	17:18:01	10007	Trial3BackFr	NN	4	0	1000	1	118	17:18:01	635942	0	0	0	0	0	0	0	0	0	0	0	0	0	0	0	0	0
081512	17:18:01	10007	Trial3BackFr	NN	4	0	1000	1	118	17:18:01	637461	0	0	0	0	0	0	0	0	0	0	0	0	0	0	0	0	0
081512	17:18:01	10007	Trial3BackFr	YY	4	57	612	1	118	17:18:01	638607	0	0	0	0	0	0	0	0	0	0	0	0	0	0	0	0	0
081512	17:18:01	10007	Trial3BackFr	NN	4	0	1000	1	118	17:18:01	640486	0	0	0	0	0	0	0	0	0	0	0	0	0	0	0	0	0
081512	17:18:01	10007	Trial3BackFr	NN	4	0	1000	1	118	17:18:01	642006	0	0	0	0	0	0	0	0	0	0	0	0	0	0	0	0	0
081512	17:18:01	10007	Trial3BackFr	NN	4	0	1000	1	118	17:18:01	643525	0	0	0	0	0	0	0	0	0	0	0	0	0	0	0	0	0
081512	17:18:01	10007	Trial3BackFr	NN	4	0	1000	1	118	17:18:01	645045	0	0	0	0	0	0	0	0	0	0	0	0	0	0	0	0	0
081512	17:18:01	10007	Trial3BackFr	NN	4	0	1000	1	118	17:18:01	646564	0	0	0	0	0	0	0	0	0	0	0	0	0	0	0	0	0
081512	17:18:01	10007	Trial3BackFr	NN	4	0	1000	1	118	17:18:01	648084	0	0	0	0	0	0	0	0	0	0	0	0	0	0	0	0	0
081512	17:18:01	10007	Trial3BackFr	NN	4	0	1000	1	118	17:18:01	649603	0	0	0	0	0	0	0	0	0	0	0	0	0	0	0	0	0
081512	17:18:01	10007	Trial3BackFr	NN	4	57	614	0	118	17:18:01	650749	0	0	0	0	0	0	0	0	0	0	0	0	0	0	0	0	0
081512	17:18:01	10007	Trial3BackFr	NN	4	0	1000	1	118	17:18:01	652628	0	0	0	0	0	0	0	0	0	0	0	0	0	0	0	0	0
081512	17:18:01	10007	Trial3BackFr	YY	4	0	1000	0	118	17:18:01	654148	0	0	0	0	0	0	0	0	0	0	0	0	0	0	0	0	0
081512	17:18:01	10007	Trial3BackFr	NN	4	0	1000	1	118	17:18:01	655667	0	0	0	0	0	0	0	0	0	0	0	0	0	0	0	0	0
081512	17:18:01	10007	Trial3BackFr	NN	4	0	1000	1	118	17:18:01	657187	0	0	0	0	0	0	0	0	0	0	0	0	0	0	0	0	0
081512	17:18:01	10007	Trial3BackFr	NN	4	0	1000	1	118	17:18:01	658706	0	0	0	0	0	0	0	0	0	0	0	0	0	0	0	0	0
081512	17:18:01	10007	Trial3BackFr	NN	4	0	1000	1	118	17:18:01	660225	0	0	0	0	0	0	0	0	0	0	0	0	0	0	0	0	0
081512	17:18:01	10007	Trial3BackFr	NN	4	0	1000	1	118	17:18:01	661745	0	0	0	0	0	0	0	0	0	0	0	0	0	0	0	0	0
081512	17:18:01	10007	Trial3BackFr	NN	4	0	1000	1	118	17:18:01	663264	0	0	0	0	0	0	0	0	0	0	0	0	0	0	0	0	0
081512	17:18:01	10007	Trial3BackFr	NN	4	0	1000	1	118	17:18:01	664784	0	0	0	0	0	0	0	0	0	0	0	0	0	0	0	0	0
081512	17:18:01	10007	Trial3BackFr	NN	4	0	1000	1	118	17:18:01	666303	0	0	0	0	0	0	0	0	0	0	0	0	0	0	0	0	0
081512	17:18:01	10007	Trial3BackFr	YY	4	57	650	1	118	17:18:01	667476	0	0	0	0	0	0	0	0	0	0	0	0	0	0	0	0	0
081512	17:18:01	10007	Trial3BackFr	NN	4	0	1000	1	118	17:18:01	669329	0	0	0	0	0	0	0	0	0	0	0	0	0	0	0	0	0
081512	17:18:01	10007	Trial3BackFr	NN	4	0	1000	1	118	17:18:01	670848	0	0	0	0	0	0	0	0	0	0	0	0	0	0	0	0	0
081512	17:18:01	10007	Trial3BackFr	NN	4	0	1000	1	118	17:18:01	672367	0	0	0	0	0	0	0	0	0	0	0	0	0	0	0	0	0
081512	17:18:01	10007	Trial3BackFr	NN	4	0	1000	1	118	17:18:01	673887	0	0	0	0	0	0	0	0	0	0	0	0	0	0	0	0	0
081512	17:18:01	10007	Trial3BackFr	YY	4	57	298	1	118	17:18:01	674713	0	0	0	0	0	0	0	0	0	0	0	0	0	0	0	0	0
081512	17:18:01	10007	Trial3BackFr	NN	4	0	1000	1	118	17:18:01	676912	0	0	0	0	0	0	0	0	0	0	0	0	0	0	0	0	0
081512	17:18:01	10007	Trial3BackFr	NN	4	0	1000	1	118	17:18:01	678432	0	0	0	0	0	0	0	0	0	0	0	0	0	0	0	0	0
081512	17:18:01	10007	Trial3BackFr	NN	4	0	1000	1	118	17:18:01	679951	0	0	0	0	0	0	0	0	0	0	0	0	0	0	0	0	0
081512	17:18:01	10007	Trial3BackFr	YY	4	0	1000	0	118	17:18:01	681471	0	0	0	0	0	0	0	0	0	0	0	0	0	0	0	0	0
081512	17:18:01	10007	Trial3BackFr	NN	4	0	1000	1	118	17:18:01	682990	0	0	0	0	0	0	0	0	0	0	0	0	0	0	0	0	0
081512	17:18:01	10007	Trial3BackFr	NN	4	0	1000	1	118	17:18:01	684509	0	0	0	0	0	0	0	0	0	0	0	0	0	0	0	0	0
081512	17:18:01	10007	Trial3BackFr	NN	4	0	1000	1	118	17:18:01	686029	0	0	0	0	0	0	0	0	0	0	0	0	0	0	0	0	0
081512	17:18:01	10007	Trial3BackFr	NN	4	57	636	0	118	17:18:01	687188	0	0	0	0	0	0	0	0	0	0	0	0	0	0	0	0	0
081512	17:18:01	10007	Trial3BackFr	NN	4	0	1000	1	118	17:18:01	689054	0	0	0	0	0	0	0	0	0	0	0	0	0	0	0	0	0
081512	17:18:01	10007	Trial3BackFr	YY	4	57	795	1	118	17:18:01	690373	0	0	0	0	0	0	0	0	0	0	0	0	0	0	0	0	0
081512	17:18:01	10007	Trial3BackFr	NN	4	0	1000	1	118	17:18:01	692080	0	0	0	0	0	0	0	0	0	0	0	0	0	0	0	0	0
081512	17:18:01	10007	Trial3BackFr	NN	4	0	1000	1	118	17:18:01	693599	0	0	0	0	0	0	0	0	0	0	0	0	0	0	0	0	0
081512	17:18:01	10007	Trial3BackFr	NN	4	0	1000	1	118	17:18:01	695118	0	0	0	0	0	0	0	0	0	0	0	0	0	0	0	0	0
081512	17:18:01	10007	Trial3BackFr	YY	4	57	618	1	118	17:18:01	696264	0	0	0	0	0	0	0	0	0	0	0	0	0	0	0	0	0
081512	17:18:01	10007	Memory1R3moFr	ScoreFr	5	M2	24940	0	118	17:18:01	748338	0	0	0	0	0	0	0	0	0	0	0	0	0	0	0	0	0
081512	17:18:01	10007	Memory1R3moFr	ScoreFr	5	M4	476	0	118	17:18:01	748857	0	0	0	0	0	0	0	0	0	0	0	0	0	0	0	0	0
081512	17:18:01	10007	Memory1R3moFr	ScoreFr	5	M5	260	0	118	17:18:01	749164	0	0	0	0	0	0	0	0	0	0	0	0	0	0	0	0	0
081512	17:18:01	10007	Memory1R3moFr	ScoreFr	5	M6	298	0	118	17:18:01	749497	0	0	0	0	0	0	0	0	0	0	0	0	0	0	0	0	0
081512	17:18:01	10007	Memory1R3moFr	ScoreFr	5	M7	469	0	118	17:18:01	750004	0	0	0	0	0	0	0	0	0	0	0	0	0	0	0	0	0
081512	17:18:01	10007	Memory1R3moFr	ScoreFr	5	M8	282	0	118	17:18:01	750323	0	0	0	0	0	0	0	0	0	0	0	0	0	0	0	0	0
081512	17:18:01	10007	Memory1R3moFr	ScoreFr	5	Done	698	0	118	17:18:01	751056	0	0	0	0	0	0	0	0	0	0	0	0	0	0	0	0	0
081512	17:18:01	10007	Memory2R3moFr	ScoreFr2	5	11	18143	0	118	17:18:01	790961	0	0	0	0	0	0	0	0	0	0	0	0	0	0	0	0	0
081512	17:18:01	10007	Memory2R3moFr	ScoreFr2	5	44	516	0	118	17:18:01	791521	0	0	0	0	0	0	0	0	0	0	0	0	0	0	0	0	0
081512	17:18:01	10007	Memory2R3moFr	ScoreFr2	5	55	229	0	118	17:18:01	791787	0	0	0	0	0	0	0	0	0	0	0	0	0	0	0	0	0
081512	17:18:01	10007	Memory2R3moFr	ScoreFr2	5	66	266	0	118	17:18:01	792094	0	0	0	0	0	0	0	0	0	0	0	0	0	0	0	0	0
081512	17:18:01	10007	Memory2R3moFr	ScoreFr2	5	77	287	0	118	17:18:01	792427	0	0	0	0	0	0	0	0	0	0	0	0	0	0	0	0	0
081512	17:18:01	10007	Memory2R3moFr	ScoreFr2	5	88	410	0	118	17:18:01	792880	0	0	0	0	0	0	0	0	0	0	0	0	0	0	0	0	0
081512	17:18:01	10007	Memory2R3moFr	ScoreFr2	5	Done	837	0	118	17:18:01	793760	0	0	0	0	0	0	0	0	0	0	0	0	0	0	0	0	0
081512	17:18:01	10007	Memory3R3moFr	ScoreFr3	5	111	15177	0	118	17:18:01	827240	0	0	0	0	0	0	0	0	0	0	0	0	0	0	0	0	0
081512	17:18:01	10007	Memory3R3moFr	ScoreFr3	5	333	461	0	118	17:18:01	827746	0	0	0	0	0	0	0	0	0	0	0	0	0	0	0	0	0
081512	17:18:01	10007	Memory3R3moFr	ScoreFr3	5	444	346	0	118	17:18:01	828133	0	0	0	0	0	0	0	0	0	0	0	0	0	0	0	0	0
081512	17:18:01	10007	Memory3R3moFr	ScoreFr3	5	555	320	0	118	17:18:01	828493	0	0	0	0	0	0	0	0	0	0	0	0	0	0	0	0	0
081512	17:18:01	10007	Memory3R3moFr	ScoreFr3	5	666	352	0	118	17:18:01	828879	0	0	0	0	0	0	0	0	0	0	0	0	0	0	0	0	0
081512	17:18:01	10007	Memory3R3moFr	ScoreFr3	5	777	445	0	118	17:18:01	829359	0	0	0	0	0	0	0	0	0	0	0	0	0	0	0	0	0
081512	17:18:01	10007	Memory3R3moFr	ScoreFr3	5	888	437	0	118	17:18:01	829839	0	0	0	0	0	0	0	0	0	0	0	0	0	0	0	0	0
081512	17:18:01	10007	Memory3R3moFr	ScoreFr3	5	Done	2286	0	118	17:18:01	832171	0	0	0	0	0	0	0	0	0	0	0	0	0	0	0	0	0
081512	17:18:01	10007	LoriaFrRH3	Stop	6	6	4932	0	118	17:18:01	903825	0	0	0	0	0	0	0	0	0	0	0	0	0	0	0	0	0
081512	17:18:01	10007	FrTrail	Trails	7	1Trails	445	0	118	17:18:01	928173	0	0	0	0	0	0	0	0	0	0	0	0	0	0	0	0	0
081512	17:18:01	10007	Serial7Fr3mo	Serial7Fr3mo	8	83	6660	0	118	17:18:01	959309	1	0	0	0	0	0	0	0	0	0	0	0	0	0	0	0	0
081512	17:18:01	10007	Serial7Fr3mo	Serial7Fr3mo	8	76	3779	0	118	17:18:01	963108	2	0	0	0	0	0	0	0	0	0	0	0	0	0	0	0	0
081512	17:18:01	10007	Serial7Fr3mo	Serial7Fr3mo	8	69	3116	0	118	17:18:01	966240	3	0	0	0	0	0	0	0	0	0	0	0	0	0	0	0	0
081512	17:18:01	10007	Serial7Fr3mo	Serial7Fr3mo	8	62	2416	0	118	17:18:01	968680	4	0	0	0	0	0	0	0	0	0	0	0	0	0	0	0	0
081512	17:18:01	10007	Serial7Fr3mo	Serial7Fr3mo	8	55	1945	0	118	17:18:01	970653	5	0	0	0	0	0	0	0	0	0	0	0	0	0	0	0	0
081512	17:18:01	10007	corsiblockFrFwrd	recallseqFrFwrd	9	4	6510	0	118	17:18:01	999814	5	0	0	0	0	0	0	0	0	0	0	0	0	0	0	0	0
081512	17:18:01	10007	corsiblockFrFwrd	recallseqFrFwrd	9	9	1054	0	118	17:18:01	1000907	5	0	0	0	0	0	0	0	0	0	0	0	0	0	0	0	0
081512	17:18:01	10007	corsiblockFrFwrd	recallseqFrFwrd	9	doneCorsiFr	1289	0	118	17:18:01	1002240	5	0	0	0	0	0	0	0	0	0	0	0	0	0	0	2	0
081512	17:18:01	10007	corsiblockFrFwrd	recallseqFrFwrd	9	8	1897	0	118	17:18:01	1010223	5	0	0	0	0	0	0	0	0	0	0	0	0	0	0	2	0
081512	17:18:01	10007	corsiblockFrFwrd	recallseqFrFwrd	9	7	965	0	118	17:18:01	1011223	5	0	0	0	0	0	0	0	0	0	0	0	0	0	0	2	0
081512	17:18:01	10007	corsiblockFrFwrd	recallseqFrFwrd	9	2	701	0	118	17:18:01	1011970	5	0	0	0	0	0	0	0	0	0	0	0	0	0	0	2	0
081512	17:18:01	10007	corsiblockFrFwrd	recallseqFrFwrd	9	doneCorsiFr	1395	0	118	17:18:01	1013409	5	0	0	0	0	0	0	0	0	0	0	0	0	0	0	3	0
081512	17:18:01	10007	corsiblockFrFwrd	recallseqFrFwrd	9	5	1041	0	118	17:18:01	1021539	5	0	0	0	0	0	0	0	0	0	0	0	0	0	0	3	0
081512	17:18:01	10007	corsiblockFrFwrd	recallseqFrFwrd	9	3	1081	0	118	17:18:01	1022658	5	0	0	0	0	0	0	0	0	0	0	0	0	0	0	3	0
081512	17:18:01	10007	corsiblockFrFwrd	recallseqFrFwrd	9	6	729	0	118	17:18:01	1023431	5	0	0	0	0	0	0	0	0	0	0	0	0	0	0	3	0
081512	17:18:01	10007	corsiblockFrFwrd	recallseqFrFwrd	9	1	916	0	118	17:18:01	1024391	5	0	0	0	0	0	0	0	0	0	0	0	0	0	0	3	0
081512	17:18:01	10007	corsiblockFrFwrd	recallseqFrFwrd	9	doneCorsiFr	1069	0	118	17:18:01	1025497	5	0	0	0	0	0	0	0	0	0	0	0	0	0	0	4	0
081512	17:18:01	10007	corsiblockFrFwrd	recallseqFrFwrd	9	2	1240	0	118	17:18:01	1034827	5	0	0	0	0	0	0	0	0	0	0	0	0	0	0	4	0
081512	17:18:01	10007	corsiblockFrFwrd	recallseqFrFwrd	9	1	1225	0	118	17:18:01	1036093	5	0	0	0	0	0	0	0	0	0	0	0	0	0	0	4	0
081512	17:18:01	10007	corsiblockFrFwrd	recallseqFrFwrd	9	3	1071	0	118	17:18:01	1037199	5	0	0	0	0	0	0	0	0	0	0	0	0	0	0	4	0
081512	17:18:01	10007	corsiblockFrFwrd	recallseqFrFwrd	9	5	589	0	118	17:18:01	1037826	5	0	0	0	0	0	0	0	0	0	0	0	0	0	0	4	0
081512	17:18:01	10007	corsiblockFrFwrd	recallseqFrFwrd	9	4	634	0	118	17:18:01	1038505	5	0	0	0	0	0	0	0	0	0	0	0	0	0	0	4	0
081512	17:18:01	10007	corsiblockFrFwrd	recallseqFrFwrd	9	doneCorsiFr	1034	0	118	17:18:01	1039585	5	0	0	0	0	0	0	0	0	0	0	0	0	0	0	5	0
081512	17:18:01	10007	corsiblockFrFwrd	recallseqFrFwrd	9	6	1441	0	118	17:18:01	1050114	5	0	0	0	0	0	0	0	0	0	0	0	0	0	0	5	0
081512	17:18:01	10007	corsiblockFrFwrd	recallseqFrFwrd	9	8	889	0	118	17:18:01	1051047	5	0	0	0	0	0	0	0	0	0	0	0	0	0	0	5	0
081512	17:18:01	10007	corsiblockFrFwrd	recallseqFrFwrd	9	7	748	0	118	17:18:01	1051833	5	0	0	0	0	0	0	0	0	0	0	0	0	0	0	5	0
081512	17:18:01	10007	corsiblockFrFwrd	recallseqFrFwrd	9	9	650	0	118	17:18:01	1052527	5	0	0	0	0	0	0	0	0	0	0	0	0	0	0	5	0
081512	17:18:01	10007	corsiblockFrFwrd	recallseqFrFwrd	9	1	893	0	118	17:18:01	1053460	5	0	0	0	0	0	0	0	0	0	0	0	0	0	0	5	0
081512	17:18:01	10007	corsiblockFrFwrd	recallseqFrFwrd	9	5	824	0	118	17:18:01	1054326	5	0	0	0	0	0	0	0	0	0	0	0	0	0	0	5	0
081512	17:18:01	10007	corsiblockFrFwrd	recallseqFrFwrd	9	doneCorsiFr	998	0	118	17:18:01	1055366	5	0	0	0	0	0	0	0	0	0	0	0	0	0	0	5	0
081512	17:18:01	10007	corsiblockFrFwrd	recallseqFrFwrd	9	2	1380	0	118	17:18:01	1065788	5	0	0	0	0	0	0	0	0	0	0	0	0	0	0	5	0
081512	17:18:01	10007	corsiblockFrFwrd	recallseqFrFwrd	9	4	687	0	118	17:18:01	1066521	5	0	0	0	0	0	0	0	0	0	0	0	0	0	0	5	0
081512	17:18:01	10007	corsiblockFrFwrd	recallseqFrFwrd	9	6	633	0	118	17:18:01	1067201	5	0	0	0	0	0	0	0	0	0	0	0	0	0	0	5	0
081512	17:18:01	10007	corsiblockFrFwrd	recallseqFrFwrd	9	8	929	0	118	17:18:01	1068174	5	0	0	0	0	0	0	0	0	0	0	0	0	0	0	5	0
081512	17:18:01	10007	corsiblockFrFwrd	recallseqFrFwrd	9	3	3014	0	118	17:18:01	1071226	5	0	0	0	0	0	0	0	0	0	0	0	0	0	0	5	0
081512	17:18:01	10007	corsiblockFrFwrd	recallseqFrFwrd	9	6	929	0	118	17:18:01	1072199	5	0	0	0	0	0	0	0	0	0	0	0	0	0	0	5	0
081512	17:18:01	10007	corsiblockFrFwrd	recallseqFrFwrd	9	doneCorsiFr	892	0	118	17:18:01	1073132	5	0	0	0	0	0	0	0	0	0	0	0	0	0	0	5	0
081512	17:18:01	10007	corsiblockFrRev	recallseqFrRev	10	9	1697	0	118	17:18:01	1085567	5	0	0	0	0	0	0	0	0	0	0	0	0	0	0	5	0
081512	17:18:01	10007	corsiblockFrRev	recallseqFrRev	10	3	988	0	118	17:18:01	1086593	5	0	0	0	0	0	0	0	0	0	0	0	0	0	0	5	0
081512	17:18:01	10007	corsiblockFrRev	recallseqFrRev	10	doneCorsiFr	1074	0	118	17:18:01	1087713	5	0	0	0	0	0	0	0	0	0	0	0	0	0	0	5	2
081512	17:18:01	10007	corsiblockFrRev	recallseqFrRev	10	2	1247	0	118	17:18:01	1095057	5	0	0	0	0	0	0	0	0	0	0	0	0	0	0	5	2
081512	17:18:01	10007	corsiblockFrRev	recallseqFrRev	10	7	635	0	118	17:18:01	1095736	5	0	0	0	0	0	0	0	0	0	0	0	0	0	0	5	2
081512	17:18:01	10007	corsiblockFrRev	recallseqFrRev	10	4	636	0	118	17:18:01	1096416	5	0	0	0	0	0	0	0	0	0	0	0	0	0	0	5	2
081512	17:18:01	10007	corsiblockFrRev	recallseqFrRev	10	doneCorsiFr	803	0	118	17:18:01	1097256	5	0	0	0	0	0	0	0	0	0	0	0	0	0	0	5	3
081512	17:18:01	10007	corsiblockFrRev	recallseqFrRev	10	6	1057	0	118	17:18:01	1105399	5	0	0	0	0	0	0	0	0	0	0	0	0	0	0	5	3
081512	17:18:01	10007	corsiblockFrRev	recallseqFrRev	10	8	764	0	118	17:18:01	1106199	5	0	0	0	0	0	0	0	0	0	0	0	0	0	0	5	3
081512	17:18:01	10007	corsiblockFrRev	recallseqFrRev	10	5	644	0	118	17:18:01	1106879	5	0	0	0	0	0	0	0	0	0	0	0	0	0	0	5	3
081512	17:18:01	10007	corsiblockFrRev	recallseqFrRev	10	1	973	0	118	17:18:01	1107892	5	0	0	0	0	0	0	0	0	0	0	0	0	0	0	5	3
081512	17:18:01	10007	corsiblockFrRev	recallseqFrRev	10	doneCorsiFr	1023	0	118	17:18:01	1108958	5	0	0	0	0	0	0	0	0	0	0	0	0	0	0	5	3
081512	17:18:01	10007	corsiblockFrRev	recallseqFrRev	10	9	826	0	118	17:18:01	1116835	5	0	0	0	0	0	0	0	0	0	0	0	0	0	0	5	3
081512	17:18:01	10007	corsiblockFrRev	recallseqFrRev	10	7	576	0	118	17:18:01	1117448	5	0	0	0	0	0	0	0	0	0	0	0	0	0	0	5	3
081512	17:18:01	10007	corsiblockFrRev	recallseqFrRev	10	3	819	0	118	17:18:01	1118301	5	0	0	0	0	0	0	0	0	0	0	0	0	0	0	5	3
081512	17:18:01	10007	corsiblockFrRev	recallseqFrRev	10	8	822	0	118	17:18:01	1119167	5	0	0	0	0	0	0	0	0	0	0	0	0	0	0	5	3
081512	17:18:01	10007	corsiblockFrRev	recallseqFrRev	10	doneCorsiFr	948	0	118	17:18:01	1120154	5	0	0	0	0	0	0	0	0	0	0	0	0	0	0	5	4
081512	17:18:01	10007	corsiblockFrRev	recallseqFrRev	10	4	1918	0	118	17:18:01	1129163	5	0	0	0	0	0	0	0	0	0	0	0	0	0	0	5	4
081512	17:18:01	10007	corsiblockFrRev	recallseqFrRev	10	6	535	0	118	17:18:01	1129736	5	0	0	0	0	0	0	0	0	0	0	0	0	0	0	5	4
081512	17:18:01	10007	corsiblockFrRev	recallseqFrRev	10	5	627	0	118	17:18:01	1130403	5	0	0	0	0	0	0	0	0	0	0	0	0	0	0	5	4
081512	17:18:01	10007	corsiblockFrRev	recallseqFrRev	10	2	560	0	118	17:18:01	1131002	5	0	0	0	0	0	0	0	0	0	0	0	0	0	0	5	4
081512	17:18:01	10007	corsiblockFrRev	recallseqFrRev	10	1	704	0	118	17:18:01	1131749	5	0	0	0	0	0	0	0	0	0	0	0	0	0	0	5	4
081512	17:18:01	10007	corsiblockFrRev	recallseqFrRev	10	doneCorsiFr	1078	0	118	17:18:01	1132868	5	0	0	0	0	0	0	0	0	0	0	0	0	0	0	5	5
081512	17:18:01	10007	corsiblockFrRev	recallseqFrRev	10	8	972	0	118	17:18:01	1142931	5	0	0	0	0	0	0	0	0	0	0	0	0	0	0	5	5
081512	17:18:01	10007	corsiblockFrRev	recallseqFrRev	10	6	719	0	118	17:18:01	1143691	5	0	0	0	0	0	0	0	0	0	0	0	0	0	0	5	5
081512	17:18:01	10007	corsiblockFrRev	recallseqFrRev	10	5	576	0	118	17:18:01	1144304	5	0	0	0	0	0	0	0	0	0	0	0	0	0	0	5	5
081512	17:18:01	10007	corsiblockFrRev	recallseqFrRev	10	3	610	0	118	17:18:01	1144957	5	0	0	0	0	0	0	0	0	0	0	0	0	0	0	5	5
081512	17:18:01	10007	corsiblockFrRev	recallseqFrRev	10	2	1062	0	118	17:18:01	1146063	5	0	0	0	0	0	0	0	0	0	0	0	0	0	0	5	5
081512	17:18:01	10007	corsiblockFrRev	recallseqFrRev	10	7	419	0	118	17:18:01	1146516	5	0	0	0	0	0	0	0	0	0	0	0	0	0	0	5	5
081512	17:18:01	10007	corsiblockFrRev	recallseqFrRev	10	doneCorsiFr	894	0	118	17:18:01	1147449	5	0	0	0	0	0	0	0	0	0	0	0	0	0	0	5	5
081512	17:18:01	10007	corsiblockFrRev	recallseqFrRev	10	2	903	0	118	17:18:01	1157405	5	0	0	0	0	0	0	0	0	0	0	0	0	0	0	5	5
081512	17:18:01	10007	corsiblockFrRev	recallseqFrRev	10	4	621	0	118	17:18:01	1158072	5	0	0	0	0	0	0	0	0	0	0	0	0	0	0	5	5
081512	17:18:01	10007	corsiblockFrRev	recallseqFrRev	10	8	730	0	118	17:18:01	1158845	5	0	0	0	0	0	0	0	0	0	0	0	0	0	0	5	5
081512	17:18:01	10007	corsiblockFrRev	recallseqFrRev	10	2	661	0	118	17:18:01	1159551	5	0	0	0	0	0	0	0	0	0	0	0	0	0	0	5	5
081512	17:18:01	10007	corsiblockFrRev	recallseqFrRev	10	1	787	0	118	17:18:01	1160378	5	0	0	0	0	0	0	0	0	0	0	0	0	0	0	5	5
081512	17:18:01	10007	corsiblockFrRev	recallseqFrRev	10	9	793	0	118	17:18:01	1161204	5	0	0	0	0	0	0	0	0	0	0	0	0	0	0	5	5
081512	17:18:01	10007	corsiblockFrRev	recallseqFrRev	10	doneCorsiFr	1023	0	118	17:18:01	1162270	5	0	0	0	0	0	0	0	0	0	0	0	0	0	0	5	5
081512	17:18:01	10007	testFr3mo	WordsFr3mo	11	2Fr3mo	988	0	118	17:18:01	1192272	5	0	1	0	0	0	0	0	0	0	0	0	0	0	0	5	5
081512	17:18:01	10007	testFr3mo	WordsFr3mo	11	5Fr3mo	2458	0	118	17:18:01	1194764	5	0	1	0	0	1	0	0	0	0	0	0	0	0	0	5	5
081512	17:18:01	10007	testFr3mo	WordsFr3mo	11	6Fr3mo	294	0	118	17:18:01	1195098	5	0	1	0	0	1	1	0	0	0	0	0	0	0	0	5	5
081512	17:18:01	10007	testFr3mo	WordsFr3mo	11	7Fr3mo	297	0	118	17:18:01	1195431	5	0	1	0	0	1	1	1	0	0	0	0	0	0	0	5	5
081512	17:18:01	10007	testFr3mo	WordsFr3mo	11	DoneFr3mo	508	0	118	17:18:01	1195977	5	0	1	0	0	1	1	1	0	0	0	0	0	0	0	5	5
081512	17:18:01	10007	testFr3mo	Cat1Fr3mo	11	0	1	0	118	17:18:01	1195993	5	0	1	0	0	1	1	1	0	0	0	0	0	0	0	5	5
081512	17:18:01	10007	testFr3mo	Ch1Fr3mo	11	RR1Fr3mo	4809	0	118	17:18:01	1200828	5	3	1	0	0	1	1	1	0	0	0	0	0	0	0	5	5
081512	17:18:01	10007	testFr3mo	Cat3Fr3mo	11	0	1	0	118	17:18:01	1200846	5	3	1	0	0	1	1	1	0	0	0	0	0	0	0	5	5
081512	17:18:01	10007	testFr3mo	Ch3Fr3mo	11	RR3Fr3mo	2602	0	118	17:18:01	1203480	5	3	1	3	0	1	1	1	0	0	0	0	0	0	0	5	5
081512	17:18:01	10007	testFr3mo	Cat4Fr3mo	11	R4Fr3mo	2665	0	118	17:18:01	1206186	5	3	1	3	2	1	1	1	0	0	0	0	0	0	0	5	5
081512	17:18:01	10007	testFr3mo	Cat8Fr3mo	11	R8Fr3mo	5592	0	118	17:18:01	1211811	5	3	1	3	2	1	1	1	2	0	0	0	0	0	0	5	5
081512	17:18:01	10007	DigitSpanFwrdFr3mo	Score1FwrdFr3mo	12	DS1	4333	0	118	17:18:01	1230816	5	3	1	3	2	1	1	1	2	0	0	0	0	0	0	5	5
081512	17:18:01	10007	DigitSpanFwrdFr3mo	Gate1FwrdFr3mo	12	0	1	0	118	17:18:01	1230832	5	3	1	3	2	1	1	1	2	3	0	0	0	0	0	5	5
081512	17:18:01	10007	DigitSpanFwrdFr3mo	Score2FwrdFr3mo	12	DS1	2521	0	118	17:18:01	1239080	5	3	1	3	2	1	1	1	2	3	0	0	0	0	0	5	5
081512	17:18:01	10007	DigitSpanFwrdFr3mo	Gate3FwrdFr3mo	12	0	1	0	118	17:18:01	1239095	5	3	1	3	2	1	1	1	2	4	0	0	0	0	0	5	5
081512	17:18:01	10007	DigitSpanFwrdFr3mo	Score3FwrdFr3mo	12	DS1	2789	0	118	17:18:01	1249142	5	3	1	3	2	1	1	1	2	4	0	0	0	0	0	5	5
081512	17:18:01	10007	DigitSpanFwrdFr3mo	Gate5FwrdFr3mo	12	0	1	0	118	17:18:01	1249158	5	3	1	3	2	1	1	1	2	5	0	0	0	0	0	5	5
081512	17:18:01	10007	DigitSpanFwrdFr3mo	Score4FwrdFr3mo	12	DS1	2988	0	118	17:18:01	1260671	5	3	1	3	2	1	1	1	2	5	0	0	0	0	0	5	5
081512	17:18:01	10007	DigitSpanFwrdFr3mo	Gate7FwrdFr3mo	12	0	1	0	118	17:18:01	1260686	5	3	1	3	2	1	1	1	2	6	0	0	0	0	0	5	5
081512	17:18:01	10007	DigitSpanFwrdFr3mo	Score5FwrdFr3mo	12	DS1	4533	0	118	17:18:01	1277305	5	3	1	3	2	1	1	1	2	6	0	0	0	0	0	5	5
081512	17:18:01	10007	DigitSpanFwrdFr3mo	Gate9FwrdFr3mo	12	0	1	0	118	17:18:01	1277320	5	3	1	3	2	1	1	1	2	7	0	0	0	0	0	5	5
081512	17:18:01	10007	DigitSpanFwrdFr3mo	Score6FwrdFr3mo	12	DS2	7237	0	118	17:18:01	1296457	5	3	1	3	2	1	1	1	2	7	0	0	0	0	0	5	5
081512	17:18:01	10007	DigitSpanFwrdFr3mo	Gate11FwrdFr3mo	12	0	1	0	118	17:18:01	1296472	5	3	1	3	2	1	1	1	2	7	0	0	0	0	0	5	5
081512	17:18:01	10007	DigitSpanFwrdFr3mo	Score66FwrdFr3mo	12	DS2	6407	0	118	17:18:01	1314637	5	3	1	3	2	1	1	1	2	7	0	0	0	0	0	5	5
081512	17:18:01	10007	DigitSpanFr3mo	Score1Fr3mo	13	DS1	3368	0	118	17:18:01	1329244	5	3	1	3	2	1	1	1	2	7	0	0	0	0	0	5	5
081512	17:18:01	10007	DigitSpanFr3mo	Gate1Fr3mo	13	0	1	0	118	17:18:01	1329259	5	3	1	3	2	1	1	1	2	7	2	0	0	0	0	5	5
081512	17:18:01	10007	DigitSpanFr3mo	Score2Fr3mo	13	DS1	2961	0	118	17:18:01	1336815	5	3	1	3	2	1	1	1	2	7	2	0	0	0	0	5	5
081512	17:18:01	10007	DigitSpanFr3mo	Gate3Fr3mo	13	0	1	0	118	17:18:01	1336830	5	3	1	3	2	1	1	1	2	7	3	0	0	0	0	5	5
081512	17:18:01	10007	DigitSpanFr3mo	Score3Fr3mo	13	DS1	5847	0	118	17:18:01	1348397	5	3	1	3	2	1	1	1	2	7	3	0	0	0	0	5	5
081512	17:18:01	10007	DigitSpanFr3mo	Gate5Fr3mo	13	0	1	0	118	17:18:01	1348412	5	3	1	3	2	1	1	1	2	7	4	0	0	0	0	5	5
081512	17:18:01	10007	DigitSpanFr3mo	Score4Fr3mo	13	DS1	8598	0	118	17:18:01	1364270	5	3	1	3	2	1	1	1	2	7	4	0	0	0	0	5	5
081512	17:18:01	10007	DigitSpanFr3mo	Gate7Fr3mo	13	0	1	0	118	17:18:01	1364286	5	3	1	3	2	1	1	1	2	7	5	0	0	0	0	5	5
081512	17:18:01	10007	DigitSpanFr3mo	Score5Fr3mo	13	DS1	14034	0	118	17:18:01	1386848	5	3	1	3	2	1	1	1	2	7	5	0	0	0	0	5	5
081512	17:18:01	10007	DigitSpanFr3mo	Gate9Fr3mo	13	0	1	0	118	17:18:01	1386863	5	3	1	3	2	1	1	1	2	7	6	0	0	0	0	5	5
081512	17:18:01	10007	DigitSpanFr3mo	Score6Fr3mo	13	DS2	8299	0	118	17:18:01	1404948	5	3	1	3	2	1	1	1	2	7	6	0	0	0	0	5	5
081512	17:18:01	10007	DigitSpanFr3mo	Gate11Fr3mo	13	0	1	0	118	17:18:01	1404963	5	3	1	3	2	1	1	1	2	7	6	0	0	0	0	5	5
081512	17:18:01	10007	DigitSpanFr3mo	Score66Fr3mo	13	DS2	13618	0	118	17:18:01	1428178	5	3	1	3	2	1	1	1	2	7	6	0	0	0	0	5	5
081512	17:18:01	10007	Trial	IncongruentRight	14	205	649	1	118	17:18:01	1460219	5	3	1	3	2	1	1	1	2	7	6	0	0	0	0	5	5
081512	17:18:01	10007	Trial	IncongruentLeft	14	203	578	1	118	17:18:01	1461152	5	3	1	3	2	1	1	1	2	7	6	0	0	0	0	5	5
081512	17:18:01	10007	Trial	CongruentRight	14	205	490	1	118	17:18:01	1462058	5	3	1	3	2	1	1	1	2	7	6	0	0	0	0	5	5
081512	17:18:01	10007	Trial	IncongruentRight	14	205	483	1	118	17:18:01	1463058	5	3	1	3	2	1	1	1	2	7	6	0	0	0	0	5	5
081512	17:18:01	10007	Trial	CongruentLeft	14	203	430	1	118	17:18:01	1464017	5	3	1	3	2	1	1	1	2	7	6	0	0	0	0	5	5
081512	17:18:01	10007	Trial	CongruentRight	14	205	486	1	118	17:18:01	1465070	5	3	1	3	2	1	1	1	2	7	6	0	0	0	0	5	5
081512	17:18:01	10007	Trial	IncongruentRight	14	205	511	1	118	17:18:01	1466097	5	3	1	3	2	1	1	1	2	7	6	0	0	0	0	5	5
081512	17:18:01	10007	Trial	CongruentLeft	14	203	471	1	118	17:18:01	1467056	5	3	1	3	2	1	1	1	2	7	6	0	0	0	0	5	5
081512	17:18:01	10007	Trial	IncongruentLeft	14	205	479	0	118	17:18:01	1468069	5	3	1	3	2	1	1	1	2	7	6	0	0	0	0	5	5
081512	17:18:01	10007	Trial	IncongruentLeft	14	203	648	1	118	17:18:01	1469229	5	3	1	3	2	1	1	1	2	7	6	0	0	0	0	5	5
081512	17:18:01	10007	Trial	CongruentRight	14	205	608	1	118	17:18:01	1470188	5	3	1	3	2	1	1	1	2	7	6	0	0	0	0	5	5
081512	17:18:01	10007	Trial	IncongruentRight	14	205	568	1	118	17:18:01	1471148	5	3	1	3	2	1	1	1	2	7	6	0	0	0	0	5	5
081512	17:18:01	10007	Trial	CongruentLeft	14	203	529	1	118	17:18:01	1472108	5	3	1	3	2	1	1	1	2	7	6	0	0	0	0	5	5
081512	17:18:01	10007	Trial	CongruentRight	14	205	505	1	118	17:18:01	1473094	5	3	1	3	2	1	1	1	2	7	6	0	0	0	0	5	5
081512	17:18:01	10007	Trial	IncongruentLeft	14	205	434	0	118	17:18:01	1474014	5	3	1	3	2	1	1	1	2	7	6	0	0	0	0	5	5
081512	17:18:01	10007	Trial	IncongruentRight	14	0	737	0	118	17:18:01	1475306	5	3	1	3	2	1	1	1	2	7	6	0	0	0	0	5	5
081512	17:18:01	10007	Trial	CongruentRight	14	205	546	1	118	17:18:01	1476133	5	3	1	3	2	1	1	1	2	7	6	0	0	0	0	5	5
081512	17:18:01	10007	Trial	CongruentLeft	14	203	491	1	118	17:18:01	1477065	5	3	1	3	2	1	1	1	2	7	6	0	0	0	0	5	5
081512	17:18:01	10007	Trial	CongruentRight	14	205	451	1	118	17:18:01	1478039	5	3	1	3	2	1	1	1	2	7	6	0	0	0	0	5	5
081512	17:18:01	10007	Trial	IncongruentRight	14	205	430	1	118	17:18:01	1479025	5	3	1	3	2	1	1	1	2	7	6	0	0	0	0	5	5
081512	17:18:01	10007	Trial	IncongruentLeft	14	203	503	1	118	17:18:01	1480091	5	3	1	3	2	1	1	1	2	7	6	0	0	0	0	5	5
081512	17:18:01	10007	Trial	IncongruentLeft	14	203	511	1	118	17:18:01	1481104	5	3	1	3	2	1	1	1	2	7	6	0	0	0	0	5	5
081512	17:18:01	10007	Trial	CongruentLeft	14	203	439	1	118	17:18:01	1482037	5	3	1	3	2	1	1	1	2	7	6	0	0	0	0	5	5
081512	17:18:01	10007	Trial	CongruentRight	14	205	400	1	118	17:18:01	1482997	5	3	1	3	2	1	1	1	2	7	6	0	0	0	0	5	5
081512	17:18:01	10007	Trial	IncongruentLeft	14	203	520	1	118	17:18:01	1484116	5	3	1	3	2	1	1	1	2	7	6	0	0	0	0	5	5
081512	17:18:01	10007	Trial	IncongruentRight	14	205	433	1	118	17:18:01	1485023	5	3	1	3	2	1	1	1	2	7	6	0	0	0	0	5	5
081512	17:18:01	10007	Trial	CongruentRight	14	205	409	1	118	17:18:01	1485995	5	3	1	3	2	1	1	1	2	7	6	0	0	0	0	5	5
081512	17:18:01	10007	Trial	CongruentLeft	14	203	545	1	118	17:18:01	1487142	5	3	1	3	2	1	1	1	2	7	6	0	0	0	0	5	5
081512	17:18:01	10007	Trial	IncongruentRight	14	205	458	1	118	17:18:01	1488048	5	3	1	3	2	1	1	1	2	7	6	0	0	0	0	5	5
081512	17:18:01	10007	Trial	IncongruentLeft	14	203	514	1	118	17:18:01	1489101	5	3	1	3	2	1	1	1	2	7	6	0	0	0	0	5	5
081512	17:18:01	10007	Trial	IncongruentRight	14	205	490	1	118	17:18:01	1490074	5	3	1	3	2	1	1	1	2	7	6	0	0	0	0	5	5
081512	17:18:01	10007	Trial	CongruentRight	14	205	467	1	118	17:18:01	1491060	5	3	1	3	2	1	1	1	2	7	6	0	0	0	0	5	5
081512	17:18:01	10007	Trial	IncongruentLeft	14	203	507	1	118	17:18:01	1492100	5	3	1	3	2	1	1	1	2	7	6	0	0	0	0	5	5
081512	17:18:01	10007	Trial	CongruentLeft	14	203	452	1	118	17:18:01	1493046	5	3	1	3	2	1	1	1	2	7	6	0	0	0	0	5	5
081512	17:18:01	10007	Trial	CongruentRight	14	205	508	1	118	17:18:01	1494099	5	3	1	3	2	1	1	1	2	7	6	0	0	0	0	5	5
081512	17:18:01	10007	Trial	IncongruentLeft	14	203	516	1	118	17:18:01	1495098	5	3	1	3	2	1	1	1	2	7	6	0	0	0	0	5	5
081512	17:18:01	10007	Trial	IncongruentRight	14	205	621	1	118	17:18:01	1496205	5	3	1	3	2	1	1	1	2	7	6	0	0	0	0	5	5
081512	17:18:01	10007	Trial	IncongruentRight	14	203	453	0	118	17:18:01	1497045	5	3	1	3	2	1	1	1	2	7	6	0	0	0	0	5	5
081512	17:18:01	10007	Trial	CongruentLeft	14	203	525	1	118	17:18:01	1498111	5	3	1	3	2	1	1	1	2	7	6	0	0	0	0	5	5
081512	17:18:01	10007	Trial	IncongruentLeft	14	203	486	1	118	17:18:01	1499070	5	3	1	3	2	1	1	1	2	7	6	0	0	0	0	5	5
081512	17:18:01	10007	Trial	CongruentRight	14	205	462	1	118	17:18:01	1500043	5	3	1	3	2	1	1	1	2	7	6	0	0	0	0	5	5
081512	17:18:01	10007	Trial	CongruentLeft	14	203	455	1	118	17:18:01	1501043	5	3	1	3	2	1	1	1	2	7	6	0	0	0	0	5	5
081512	17:18:01	10007	Trial	IncongruentRight	14	205	497	1	118	17:18:01	1502082	5	3	1	3	2	1	1	1	2	7	6	0	0	0	0	5	5
081512	17:18:01	10007	Trial	CongruentRight	14	205	472	1	118	17:18:01	1503055	5	3	1	3	2	1	1	1	2	7	6	0	0	0	0	5	5
081512	17:18:01	10007	Trial	IncongruentLeft	14	203	512	1	118	17:18:01	1504095	5	3	1	3	2	1	1	1	2	7	6	0	0	0	0	5	5
081512	17:18:01	10007	Trial	CongruentLeft	14	203	472	1	118	17:18:01	1505055	5	3	1	3	2	1	1	1	2	7	6	0	0	0	0	5	5
081512	17:18:01	10007	Trial	IncongruentLeft	14	203	417	1	118	17:18:01	1506001	5	3	1	3	2	1	1	1	2	7	6	0	0	0	0	5	5
081512	17:18:01	10007	Trial	IncongruentRight	14	205	553	1	118	17:18:01	1507134	5	3	1	3	2	1	1	1	2	7	6	0	0	0	0	5	5
081512	17:18:01	10007	Trial	CongruentRight	14	205	449	1	118	17:18:01	1508027	5	3	1	3	2	1	1	1	2	7	6	0	0	0	0	5	5
081512	17:18:01	10007	Trial	CongruentLeft	14	203	490	1	118	17:18:01	1509066	5	3	1	3	2	1	1	1	2	7	6	0	0	0	0	5	5
081512	17:18:01	10007	Trial	CongruentLeft	14	203	450	1	118	17:18:01	1510026	5	3	1	3	2	1	1	1	2	7	6	0	0	0	0	5	5
081512	17:18:01	10007	Trial	IncongruentRight	14	205	475	1	118	17:18:01	1511052	5	3	1	3	2	1	1	1	2	7	6	0	0	0	0	5	5
081512	17:18:01	10007	Trial	IncongruentLeft	14	203	486	1	118	17:18:01	1512079	5	3	1	3	2	1	1	1	2	7	6	0	0	0	0	5	5
081512	17:18:01	10007	Trial	IncongruentRight	14	205	478	1	118	17:18:01	1513078	5	3	1	3	2	1	1	1	2	7	6	0	0	0	0	5	5
081512	17:18:01	10007	Trial	CongruentRight	14	205	438	1	118	17:18:01	1514038	5	3	1	3	2	1	1	1	2	7	6	0	0	0	0	5	5
081512	17:18:01	10007	Trial	CongruentRight	14	205	383	1	118	17:18:01	1514971	5	3	1	3	2	1	1	1	2	7	6	0	0	0	0	5	5
081512	17:18:01	10007	Trial	IncongruentLeft	14	205	375	0	118	17:18:01	1515970	5	3	1	3	2	1	1	1	2	7	6	0	0	0	0	5	5
081512	17:18:01	10007	Trial	CongruentLeft	14	203	447	1	118	17:18:01	1517036	5	3	1	3	2	1	1	1	2	7	6	0	0	0	0	5	5
081512	17:18:01	10007	Trial	CongruentRight	14	205	487	1	118	17:18:01	1518076	5	3	1	3	2	1	1	1	2	7	6	0	0	0	0	5	5
081512	17:18:01	10007	Trial	CongruentLeft	14	203	432	1	118	17:18:01	1519023	5	3	1	3	2	1	1	1	2	7	6	0	0	0	0	5	5
081512	17:18:01	10007	Trial	IncongruentRight	14	205	568	1	118	17:18:01	1520155	5	3	1	3	2	1	1	1	2	7	6	0	0	0	0	5	5
081512	17:18:01	10007	Trial	CongruentRight	14	205	433	1	118	17:18:01	1521022	5	3	1	3	2	1	1	1	2	7	6	0	0	0	0	5	5
081512	17:18:01	10007	Trial	CongruentLeft	14	205	394	0	118	17:18:01	1521981	5	3	1	3	2	1	1	1	2	7	6	0	0	0	0	5	5
081512	17:18:01	10007	Trial	IncongruentLeft	14	203	466	1	118	17:18:01	1523061	5	3	1	3	2	1	1	1	2	7	6	0	0	0	0	5	5
081512	17:18:01	10007	Trial	IncongruentLeft	14	203	442	1	118	17:18:01	1524034	5	3	1	3	2	1	1	1	2	7	6	0	0	0	0	5	5
081512	17:18:01	10007	Trial	CongruentRight	14	205	467	1	118	17:18:01	1525060	5	3	1	3	2	1	1	1	2	7	6	0	0	0	0	5	5
081512	17:18:01	10007	Trial	IncongruentRight	14	205	459	1	118	17:18:01	1526047	5	3	1	3	2	1	1	1	2	7	6	0	0	0	0	5	5
081512	17:18:01	10007	Trial	CongruentLeft	14	203	467	1	118	17:18:01	1527059	5	3	1	3	2	1	1	1	2	7	6	0	0	0	0	5	5
081512	17:18:01	10007	Trial	IncongruentRight	14	205	556	1	118	17:18:01	1528139	5	3	1	3	2	1	1	1	2	7	6	0	0	0	0	5	5
081512	17:18:01	10007	Trial	CongruentRight	14	205	452	1	118	17:18:01	1529045	5	3	1	3	2	1	1	1	2	7	6	0	0	0	0	5	5
081512	17:18:01	10007	Trial	IncongruentLeft	14	203	508	1	118	17:18:01	1530098	5	3	1	3	2	1	1	1	2	7	6	0	0	0	0	5	5
081512	17:18:01	10007	Trial	CongruentLeft	14	203	485	1	118	17:18:01	1531071	5	3	1	3	2	1	1	1	2	7	6	0	0	0	0	5	5
081512	17:18:01	10007	Trial	CongruentRight	14	205	525	1	118	17:18:01	1532111	5	3	1	3	2	1	1	1	2	7	6	0	0	0	0	5	5
081512	17:18:01	10007	Trial	IncongruentLeft	14	203	485	1	118	17:18:01	1533070	5	3	1	3	2	1	1	1	2	7	6	0	0	0	0	5	5
081512	17:18:01	10007	Trial	CongruentRight	14	205	686	1	118	17:18:01	1534270	5	3	1	3	2	1	1	1	2	7	6	0	0	0	0	5	5
081512	17:18:01	10007	Trial	CongruentRight	14	205	486	1	118	17:18:01	1535069	5	3	1	3	2	1	1	1	2	7	6	0	0	0	0	5	5
081512	17:18:01	10007	Trial	IncongruentRight	14	205	431	1	118	17:18:01	1536016	5	3	1	3	2	1	1	1	2	7	6	0	0	0	0	5	5
081512	17:18:01	10007	Trial	CongruentLeft	14	203	471	1	118	17:18:01	1537055	5	3	1	3	2	1	1	1	2	7	6	0	0	0	0	5	5
081512	17:18:01	10007	Trial	IncongruentLeft	14	203	511	1	118	17:18:01	1538095	5	3	1	3	2	1	1	1	2	7	6	0	0	0	0	5	5
081512	17:18:01	10007	Trial	CongruentLeft	14	203	424	1	118	17:18:01	1539001	5	3	1	3	2	1	1	1	2	7	6	0	0	0	0	5	5
081512	17:18:01	10007	Trial	IncongruentRight	14	205	480	1	118	17:18:01	1540068	5	3	1	3	2	1	1	1	2	7	6	0	0	0	0	5	5
081512	17:18:01	10007	Trial	IncongruentLeft	14	203	520	1	118	17:18:01	1541107	5	3	1	3	2	1	1	1	2	7	6	0	0	0	0	5	5
081512	17:18:01	10007	Trial	CongruentRight	14	205	433	1	118	17:18:01	1542013	5	3	1	3	2	1	1	1	2	7	6	0	0	0	0	5	5
081512	17:18:01	10007	Trial	CongruentLeft	14	203	489	1	118	17:18:01	1543066	5	3	1	3	2	1	1	1	2	7	6	0	0	0	0	5	5
081512	17:18:01	10007	Trial	IncongruentLeft	14	203	420	1	118	17:18:01	1544013	5	3	1	3	2	1	1	1	2	7	6	0	0	0	0	5	5
081512	17:18:01	10007	Trial	CongruentLeft	14	203	381	1	118	17:18:01	1544972	5	3	1	3	2	1	1	1	2	7	6	0	0	0	0	5	5
081512	17:18:01	10007	Trial	IncongruentRight	14	205	437	1	118	17:18:01	1546025	5	3	1	3	2	1	1	1	2	7	6	0	0	0	0	5	5
081512	17:18:01	10007	Trial	CongruentRight	14	205	366	1	118	17:18:01	1546958	5	3	1	3	2	1	1	1	2	7	6	0	0	0	0	5	5
081512	17:18:01	10007	Trial	IncongruentLeft	14	203	486	1	118	17:18:01	1548078	5	3	1	3	2	1	1	1	2	7	6	0	0	0	0	5	5
081512	17:18:01	10007	Trial	CongruentLeft	14	203	414	1	118	17:18:01	1549011	5	3	1	3	2	1	1	1	2	7	6	0	0	0	0	5	5
081512	17:18:01	10007	Trial	IncongruentRight	14	205	487	1	118	17:18:01	1550077	5	3	1	3	2	1	1	1	2	7	6	0	0	0	0	5	5
081512	17:18:01	10007	Trial	IncongruentLeft	14	203	447	1	118	17:18:01	1551036	5	3	1	3	2	1	1	1	2	7	6	0	0	0	0	5	5
081512	17:18:01	10007	Trial	CongruentLeft	14	203	424	1	118	17:18:01	1552010	5	3	1	3	2	1	1	1	2	7	6	0	0	0	0	5	5
081512	17:18:01	10007	Trial	IncongruentLeft	14	203	432	1	118	17:18:01	1553023	5	3	1	3	2	1	1	1	2	7	6	0	0	0	0	5	5
081512	17:18:01	10007	Trial	CongruentRight	14	205	504	1	118	17:18:01	1554089	5	3	1	3	2	1	1	1	2	7	6	0	0	0	0	5	5
081512	17:18:01	10007	Trial	CongruentLeft	14	203	480	1	118	17:18:01	1555075	5	3	1	3	2	1	1	1	2	7	6	0	0	0	0	5	5
081512	17:18:01	10007	Trial	IncongruentRight	14	205	473	1	118	17:18:01	1556061	5	3	1	3	2	1	1	1	2	7	6	0	0	0	0	5	5
081512	17:18:01	10007	Trial	CongruentLeft	14	203	401	1	118	17:18:01	1556994	5	3	1	3	2	1	1	1	2	7	6	0	0	0	0	5	5
081512	17:18:01	10007	Trial	CongruentRight	14	203	426	0	118	17:18:01	1558021	5	3	1	3	2	1	1	1	2	7	6	0	0	0	0	5	5
081512	17:18:01	10007	Trial	IncongruentLeft	14	203	578	1	118	17:18:01	1559167	5	3	1	3	2	1	1	1	2	7	6	0	0	0	0	5	5
081512	17:18:01	10007	Trial750Fr	IncongruentRight750	15	0	487	0	118	17:18:01	1565471	5	3	1	3	2	1	1	1	2	7	6	0	0	0	0	5	5
081512	17:18:01	10007	Trial750Fr	IncongruentLeft750	15	203	444	1	118	17:18:01	1566191	5	3	1	3	2	1	1	1	2	7	6	0	0	0	0	5	5
081512	17:18:01	10007	Trial750Fr	CongruentRight750	15	205	437	1	118	17:18:01	1566937	5	3	1	3	2	1	1	1	2	7	6	0	0	0	0	5	5
081512	17:18:01	10007	Trial750Fr	IncongruentRight750	15	205	459	1	118	17:18:01	1567710	5	3	1	3	2	1	1	1	2	7	6	0	0	0	0	5	5
081512	17:18:01	10007	Trial750Fr	CongruentLeft750	15	203	400	1	118	17:18:01	1568403	5	3	1	3	2	1	1	1	2	7	6	0	0	0	0	5	5
081512	17:18:01	10007	Trial750Fr	CongruentRight750	15	205	312	1	118	17:18:01	1569069	5	3	1	3	2	1	1	1	2	7	6	0	0	0	0	5	5
081512	17:18:01	10007	Trial750Fr	IncongruentRight750	15	205	398	1	118	17:18:01	1569909	5	3	1	3	2	1	1	1	2	7	6	0	0	0	0	5	5
081512	17:18:01	10007	Trial750Fr	CongruentLeft750	15	203	372	1	118	17:18:01	1570629	5	3	1	3	2	1	1	1	2	7	6	0	0	0	0	5	5
081512	17:18:01	10007	Trial750Fr	IncongruentLeft750	15	203	393	1	118	17:18:01	1571389	5	3	1	3	2	1	1	1	2	7	6	0	0	0	0	5	5
081512	17:18:01	10007	Trial750Fr	IncongruentLeft750	15	203	402	1	118	17:18:01	1572162	5	3	1	3	2	1	1	1	2	7	6	0	0	0	0	5	5
081512	17:18:01	10007	Trial750Fr	CongruentRight750	15	203	391	0	118	17:18:01	1572895	5	3	1	3	2	1	1	1	2	7	6	0	0	0	0	5	5
081512	17:18:01	10007	Trial750Fr	IncongruentRight750	15	0	487	0	118	17:18:01	1573734	5	3	1	3	2	1	1	1	2	7	6	0	0	0	0	5	5
081512	17:18:01	10007	Trial750Fr	CongruentLeft750	15	203	421	1	118	17:18:01	1574427	5	3	1	3	2	1	1	1	2	7	6	0	0	0	0	5	5
081512	17:18:01	10007	Trial750Fr	CongruentRight750	15	205	334	1	118	17:18:01	1575107	5	3	1	3	2	1	1	1	2	7	6	0	0	0	0	5	5
081512	17:18:01	10007	Trial750Fr	IncongruentLeft750	15	205	467	0	118	17:18:01	1575987	5	3	1	3	2	1	1	1	2	7	6	0	0	0	0	5	5
081512	17:18:01	10007	Trial750Fr	IncongruentRight750	15	0	487	0	118	17:18:01	1576746	5	3	1	3	2	1	1	1	2	7	6	0	0	0	0	5	5
081512	17:18:01	10007	Trial750Fr	CongruentRight750	15	0	487	0	118	17:18:01	1577506	5	3	1	3	2	1	1	1	2	7	6	0	0	0	0	5	5
081512	17:18:01	10007	Trial750Fr	CongruentLeft750	15	0	487	0	118	17:18:01	1578266	5	3	1	3	2	1	1	1	2	7	6	0	0	0	0	5	5
081512	17:18:01	10007	Trial750Fr	CongruentRight750	15	0	487	0	118	17:18:01	1579026	5	3	1	3	2	1	1	1	2	7	6	0	0	0	0	5	5
081512	17:18:01	10007	Trial750Fr	IncongruentRight750	15	0	487	0	118	17:18:01	1579785	5	3	1	3	2	1	1	1	2	7	6	0	0	0	0	5	5
081512	17:18:01	10007	Trial750Fr	IncongruentLeft750	15	0	487	0	118	17:18:01	1580545	5	3	1	3	2	1	1	1	2	7	6	0	0	0	0	5	5
081512	17:18:01	10007	Trial750Fr	IncongruentLeft750	15	0	487	0	118	17:18:01	1581305	5	3	1	3	2	1	1	1	2	7	6	0	0	0	0	5	5
081512	17:18:01	10007	Trial750Fr	CongruentLeft750	15	0	487	0	118	17:18:01	1582064	5	3	1	3	2	1	1	1	2	7	6	0	0	0	0	5	5
081512	17:18:01	10007	Trial750Fr	CongruentRight750	15	0	487	0	118	17:18:01	1582824	5	3	1	3	2	1	1	1	2	7	6	0	0	0	0	5	5
081512	17:18:01	10007	Trial750Fr	IncongruentLeft750	15	0	487	0	118	17:18:01	1583584	5	3	1	3	2	1	1	1	2	7	6	0	0	0	0	5	5
081512	17:18:01	10007	Trial750Fr	IncongruentRight750	15	205	412	1	118	17:18:01	1584277	5	3	1	3	2	1	1	1	2	7	6	0	0	0	0	5	5
081512	17:18:01	10007	Trial750Fr	CongruentRight750	15	205	420	1	118	17:18:01	1585036	5	3	1	3	2	1	1	1	2	7	6	0	0	0	0	5	5
081512	17:18:01	10007	Trial750Fr	CongruentLeft750	15	0	487	0	118	17:18:01	1585850	5	3	1	3	2	1	1	1	2	7	6	0	0	0	0	5	5
081512	17:18:01	10007	Trial750Fr	IncongruentRight750	15	205	434	1	118	17:18:01	1586556	5	3	1	3	2	1	1	1	2	7	6	0	0	0	0	5	5
081512	17:18:01	10007	Trial750Fr	IncongruentLeft750	15	203	442	1	118	17:18:01	1587329	5	3	1	3	2	1	1	1	2	7	6	0	0	0	0	5	5
081512	17:18:01	10007	Trial750Fr	IncongruentRight750	15	205	464	1	118	17:18:01	1588089	5	3	1	3	2	1	1	1	2	7	6	0	0	0	0	5	5
081512	17:18:01	10007	Trial750Fr	CongruentRight750	15	0	487	0	118	17:18:01	1588862	5	3	1	3	2	1	1	1	2	7	6	0	0	0	0	5	5
081512	17:18:01	10007	Trial750Fr	IncongruentLeft750	15	205	478	0	118	17:18:01	1589622	5	3	1	3	2	1	1	1	2	7	6	0	0	0	0	5	5
081512	17:18:01	10007	Trial750Fr	CongruentLeft750	15	0	487	0	118	17:18:01	1590381	5	3	1	3	2	1	1	1	2	7	6	0	0	0	0	5	5
081512	17:18:01	10007	Trial750Fr	CongruentRight750	15	0	487	0	118	17:18:01	1591141	5	3	1	3	2	1	1	1	2	7	6	0	0	0	0	5	5
081512	17:18:01	10007	Trial750Fr	IncongruentLeft750	15	205	119	0	118	17:18:01	1591541	5	3	1	3	2	1	1	1	2	7	6	0	0	0	0	5	5
081512	17:18:01	10007	Trial750Fr	IncongruentRight750	15	0	487	0	118	17:18:01	1592647	5	3	1	3	2	1	1	1	2	7	6	0	0	0	0	5	5
081512	17:18:01	10007	Trial750Fr	IncongruentRight750	15	0	487	0	118	17:18:01	1593407	5	3	1	3	2	1	1	1	2	7	6	0	0	0	0	5	5
081512	17:18:01	10007	Trial750Fr	CongruentLeft750	15	203	365	1	118	17:18:01	1594046	5	3	1	3	2	1	1	1	2	7	6	0	0	0	0	5	5
081512	17:18:01	10007	Trial750Fr	IncongruentLeft750	15	205	325	0	118	17:18:01	1594766	5	3	1	3	2	1	1	1	2	7	6	0	0	0	0	5	5
081512	17:18:01	10007	Trial750Fr	CongruentRight750	15	0	487	0	118	17:18:01	1595672	5	3	1	3	2	1	1	1	2	7	6	0	0	0	0	5	5
081512	17:18:01	10007	Trial750Fr	CongruentLeft750	15	0	487	0	118	17:18:01	1596432	5	3	1	3	2	1	1	1	2	7	6	0	0	0	0	5	5
081512	17:18:01	10007	Trial750Fr	IncongruentRight750	15	203	347	0	118	17:18:01	1597059	5	3	1	3	2	1	1	1	2	7	6	0	0	0	0	5	5
081512	17:18:01	10007	Trial750Fr	CongruentRight750	15	0	487	0	118	17:18:01	1597938	5	3	1	3	2	1	1	1	2	7	6	0	0	0	0	5	5
081512	17:18:01	10007	Trial750Fr	IncongruentLeft750	15	203	201	1	118	17:18:01	1598418	5	3	1	3	2	1	1	1	2	7	6	0	0	0	0	5	5
081512	17:18:01	10007	Trial750Fr	CongruentLeft750	15	205	98	0	118	17:18:01	1599071	5	3	1	3	2	1	1	1	2	7	6	0	0	0	0	5	5
081512	17:18:01	10007	Trial750Fr	IncongruentLeft750	15	205	279	0	118	17:18:01	1600004	5	3	1	3	2	1	1	1	2	7	6	0	0	0	0	5	5
081512	17:18:01	10007	Trial750Fr	IncongruentRight750	15	205	477	1	118	17:18:01	1600937	5	3	1	3	2	1	1	1	2	7	6	0	0	0	0	5	5
081512	17:18:01	10007	Trial750Fr	CongruentRight750	15	205	402	1	118	17:18:01	1601617	5	3	1	3	2	1	1	1	2	7	6	0	0	0	0	5	5
081512	17:18:01	10007	Trial750Fr	CongruentLeft750	15	205	362	0	118	17:18:01	1602337	5	3	1	3	2	1	1	1	2	7	6	0	0	0	0	5	5
081512	17:18:01	10007	Trial750Fr	CongruentLeft750	15	205	368	0	118	17:18:01	1603083	5	3	1	3	2	1	1	1	2	7	6	0	0	0	0	5	5
081512	17:18:01	10007	Trial750Fr	IncongruentRight750	15	205	405	1	118	17:18:01	1603869	5	3	1	3	2	1	1	1	2	7	6	0	0	0	0	5	5
081512	17:18:01	10007	Trial750Fr	IncongruentLeft750	15	203	414	1	118	17:18:01	1604642	5	3	1	3	2	1	1	1	2	7	6	0	0	0	0	5	5
081512	17:18:01	10007	Trial750Fr	IncongruentRight750	15	205	307	1	118	17:18:01	1605282	5	3	1	3	2	1	1	1	2	7	6	0	0	0	0	5	5
081512	17:18:01	10007	Trial750Fr	CongruentRight750	15	203	265	0	118	17:18:01	1605988	5	3	1	3	2	1	1	1	2	7	6	0	0	0	0	5	5
081512	17:18:01	10007	Trial750Fr	CongruentRight750	15	205	319	1	118	17:18:01	1606788	5	3	1	3	2	1	1	1	2	7	6	0	0	0	0	5	5
081512	17:18:01	10007	Trial750Fr	IncongruentLeft750	15	203	407	1	118	17:18:01	1607628	5	3	1	3	2	1	1	1	2	7	6	0	0	0	0	5	5
081512	17:18:01	10007	Trial750Fr	CongruentLeft750	15	203	477	1	118	17:18:01	1608441	5	3	1	3	2	1	1	1	2	7	6	0	0	0	0	5	5
081512	17:18:01	10007	Trial750Fr	CongruentRight750	15	0	487	0	118	17:18:01	1609200	5	3	1	3	2	1	1	1	2	7	6	0	0	0	0	5	5
081512	17:18:01	10007	Trial750Fr	CongruentLeft750	15	203	363	1	118	17:18:01	1609840	5	3	1	3	2	1	1	1	2	7	6	0	0	0	0	5	5
081512	17:18:01	10007	Trial750Fr	IncongruentRight750	15	0	487	0	118	17:18:01	1610707	5	3	1	3	2	1	1	1	2	7	6	0	0	0	0	5	5
081512	17:18:01	10007	Trial750Fr	CongruentRight750	15	0	487	0	118	17:18:01	1611466	5	3	1	3	2	1	1	1	2	7	6	0	0	0	0	5	5
081512	17:18:01	10007	Trial750Fr	CongruentLeft750	15	0	487	0	118	17:18:01	1612226	5	3	1	3	2	1	1	1	2	7	6	0	0	0	0	5	5
081512	17:18:01	10007	Trial750Fr	IncongruentLeft750	15	0	487	0	118	17:18:01	1612986	5	3	1	3	2	1	1	1	2	7	6	0	0	0	0	5	5
081512	17:18:01	10007	Trial750Fr	IncongruentLeft750	15	0	487	0	118	17:18:01	1613745	5	3	1	3	2	1	1	1	2	7	6	0	0	0	0	5	5
081512	17:18:01	10007	Trial750Fr	CongruentRight750	15	0	487	0	118	17:18:01	1614505	5	3	1	3	2	1	1	1	2	7	6	0	0	0	0	5	5
081512	17:18:01	10007	Trial750Fr	IncongruentRight750	15	205	450	1	118	17:18:01	1615225	5	3	1	3	2	1	1	1	2	7	6	0	0	0	0	5	5
081512	17:18:01	10007	Trial750Fr	CongruentLeft750	15	0	487	0	118	17:18:01	1616011	5	3	1	3	2	1	1	1	2	7	6	0	0	0	0	5	5
081512	17:18:01	10007	Trial750Fr	IncongruentRight750	15	205	480	1	118	17:18:01	1616771	5	3	1	3	2	1	1	1	2	7	6	0	0	0	0	5	5
081512	17:18:01	10007	Trial750Fr	CongruentRight750	15	0	487	0	118	17:18:01	1617531	5	3	1	3	2	1	1	1	2	7	6	0	0	0	0	5	5
081512	17:18:01	10007	Trial750Fr	IncongruentLeft750	15	0	487	0	118	17:18:01	1618290	5	3	1	3	2	1	1	1	2	7	6	0	0	0	0	5	5
081512	17:18:01	10007	Trial750Fr	CongruentLeft750	15	203	313	1	118	17:18:01	1618876	5	3	1	3	2	1	1	1	2	7	6	0	0	0	0	5	5
081512	17:18:01	10007	Trial750Fr	CongruentRight750	15	205	465	1	118	17:18:01	1619796	5	3	1	3	2	1	1	1	2	7	6	0	0	0	0	5	5
081512	17:18:01	10007	Trial750Fr	IncongruentLeft750	15	203	407	1	118	17:18:01	1620476	5	3	1	3	2	1	1	1	2	7	6	0	0	0	0	5	5
081512	17:18:01	10007	Trial750Fr	CongruentRight750	15	0	487	0	118	17:18:01	1621302	5	3	1	3	2	1	1	1	2	7	6	0	0	0	0	5	5
081512	17:18:01	10007	Trial750Fr	CongruentRight750	15	0	487	0	118	17:18:01	1622062	5	3	1	3	2	1	1	1	2	7	6	0	0	0	0	5	5
081512	17:18:01	10007	Trial750Fr	IncongruentRight750	15	0	487	0	118	17:18:01	1622822	5	3	1	3	2	1	1	1	2	7	6	0	0	0	0	5	5
081512	17:18:01	10007	Trial750Fr	CongruentLeft750	15	0	487	0	118	17:18:01	1623581	5	3	1	3	2	1	1	1	2	7	6	0	0	0	0	5	5
081512	17:18:01	10007	Trial750Fr	IncongruentLeft750	15	0	487	0	118	17:18:01	1624341	5	3	1	3	2	1	1	1	2	7	6	0	0	0	0	5	5
081512	17:18:01	10007	Trial750Fr	CongruentLeft750	15	0	487	0	118	17:18:01	1625101	5	3	1	3	2	1	1	1	2	7	6	0	0	0	0	5	5
081512	17:18:01	10007	Trial750Fr	IncongruentRight750	15	203	366	0	118	17:18:01	1625741	5	3	1	3	2	1	1	1	2	7	6	0	0	0	0	5	5
081512	17:18:01	10007	Trial750Fr	IncongruentLeft750	15	0	487	0	118	17:18:01	1626607	5	3	1	3	2	1	1	1	2	7	6	0	0	0	0	5	5
081512	17:18:01	10007	Trial750Fr	CongruentRight750	15	0	487	0	118	17:18:01	1627367	5	3	1	3	2	1	1	1	2	7	6	0	0	0	0	5	5
081512	17:18:01	10007	Trial750Fr	CongruentLeft750	15	203	484	1	118	17:18:01	1628126	5	3	1	3	2	1	1	1	2	7	6	0	0	0	0	5	5
081512	17:18:01	10007	Trial750Fr	IncongruentLeft750	15	203	380	1	118	17:18:01	1628779	5	3	1	3	2	1	1	1	2	7	6	0	0	0	0	5	5
081512	17:18:01	10007	Trial750Fr	CongruentLeft750	15	203	437	1	118	17:18:01	1629592	5	3	1	3	2	1	1	1	2	7	6	0	0	0	0	5	5
081512	17:18:01	10007	Trial750Fr	IncongruentRight750	15	203	394	0	118	17:18:01	1630299	5	3	1	3	2	1	1	1	2	7	6	0	0	0	0	5	5
081512	17:18:01	10007	Trial750Fr	CongruentRight750	15	205	368	1	118	17:18:01	1631019	5	3	1	3	2	1	1	1	2	7	6	0	0	0	0	5	5
081512	17:18:01	10007	Trial750Fr	IncongruentLeft750	15	205	293	0	118	17:18:01	1631698	5	3	1	3	2	1	1	1	2	7	6	0	0	0	0	5	5
081512	17:18:01	10007	Trial750Fr	CongruentLeft750	15	203	398	1	118	17:18:01	1632565	5	3	1	3	2	1	1	1	2	7	6	0	0	0	0	5	5
081512	17:18:01	10007	Trial750Fr	IncongruentRight750	15	203	340	0	118	17:18:01	1633244	5	3	1	3	2	1	1	1	2	7	6	0	0	0	0	5	5
081512	17:18:01	10007	Trial750Fr	IncongruentLeft750	15	205	313	0	118	17:18:01	1633964	5	3	1	3	2	1	1	1	2	7	6	0	0	0	0	5	5
081512	17:18:01	10007	Trial750Fr	CongruentLeft750	15	0	487	0	118	17:18:01	1634884	5	3	1	3	2	1	1	1	2	7	6	0	0	0	0	5	5
081512	17:18:01	10007	Trial750Fr	IncongruentLeft750	15	0	487	0	118	17:18:01	1635643	5	3	1	3	2	1	1	1	2	7	6	0	0	0	0	5	5
081512	17:18:01	10007	Trial750Fr	CongruentRight750	15	205	399	1	118	17:18:01	1636323	5	3	1	3	2	1	1	1	2	7	6	0	0	0	0	5	5
081512	17:18:01	10007	Trial750Fr	CongruentLeft750	15	0	487	0	118	17:18:01	1637149	5	3	1	3	2	1	1	1	2	7	6	0	0	0	0	5	5
081512	17:18:01	10007	Trial750Fr	IncongruentRight750	15	205	397	1	118	17:18:01	1637816	5	3	1	3	2	1	1	1	2	7	6	0	0	0	0	5	5
081512	17:18:01	10007	Trial750Fr	CongruentLeft750	15	203	374	1	118	17:18:01	1638562	5	3	1	3	2	1	1	1	2	7	6	0	0	0	0	5	5
081512	17:18:01	10007	Trial750Fr	CongruentRight750	15	0	487	0	118	17:18:01	1639415	5	3	1	3	2	1	1	1	2	7	6	0	0	0	0	5	5
081512	17:18:01	10007	Trial750Fr	IncongruentLeft750	15	203	388	1	118	17:18:01	1640082	5	3	1	3	2	1	1	1	2	7	6	0	0	0	0	5	5
081512	17:18:01	10007	WordsAbsFr3mo	PAbsFr3mo1	16	Abs1	3045	0	118	17:18:01	1649038	5	3	1	3	2	1	1	1	2	7	6	0	0	0	0	5	5
081512	17:18:01	10007	WordsAbsFr3mo	AbsFr3mo1	16	Abs1	2086	0	118	17:18:01	1651157	5	3	1	3	2	1	1	1	2	7	6	1	0	0	0	5	5
081512	17:18:01	10007	WordsAbsFr3mo	AbsFr3mo2	16	Abs1	4015	0	118	17:18:01	1655209	5	3	1	3	2	1	1	1	2	7	6	2	0	0	0	5	5
081512	17:18:01	10007	WordsAbsFr3mo	AbsFr3mo3	16	Abs1	3011	0	118	17:18:01	1658261	5	3	1	3	2	1	1	1	2	7	6	3	0	0	0	5	5
081512	17:18:01	10007	Trial2BackFrS	NS	17	0	1000	1	118	17:18:01	1707295	5	3	1	3	2	1	1	1	2	7	6	3	0	0	0	5	5
081512	17:18:01	10007	Trial2BackFrS	NS	17	0	1000	1	118	17:18:01	1708815	5	3	1	3	2	1	1	1	2	7	6	3	0	0	0	5	5
081512	17:18:01	10007	Trial2BackFrS	NS	17	0	1000	1	118	17:18:01	1710334	5	3	1	3	2	1	1	1	2	7	6	3	0	0	0	5	5
081512	17:18:01	10007	Trial2BackFrS	YS	17	57	640	1	118	17:18:01	1711507	5	3	1	3	2	1	1	1	2	7	6	3	0	0	0	5	5
081512	17:18:01	10007	Trial2BackFrS	NS	17	0	1000	1	118	17:18:01	1713359	5	3	1	3	2	1	1	1	2	7	6	3	0	0	0	5	5
081512	17:18:01	10007	Trial2BackFrS	NS	17	0	1000	1	118	17:18:01	1714879	5	3	1	3	2	1	1	1	2	7	6	3	0	0	0	5	5
081512	17:18:01	10007	Trial2BackFrS	NS	17	57	655	0	118	17:18:01	1716065	5	3	1	3	2	1	1	1	2	7	6	3	0	0	0	5	5
081512	17:18:01	10007	Trial2BackFrS	NS	17	0	1000	1	118	17:18:01	1717904	5	3	1	3	2	1	1	1	2	7	6	3	0	0	0	5	5
081512	17:18:01	10007	Trial2BackFrS	YS	17	57	765	1	118	17:18:01	1719197	5	3	1	3	2	1	1	1	2	7	6	3	0	0	0	5	5
081512	17:18:01	10007	Trial2BackFrS	NS	17	0	1000	1	118	17:18:01	1720930	5	3	1	3	2	1	1	1	2	7	6	3	0	0	0	5	5
081512	17:18:01	10007	Trial2BackFrS	NS	17	0	1000	1	118	17:18:01	1722449	5	3	1	3	2	1	1	1	2	7	6	3	0	0	0	5	5
081512	17:18:01	10007	Trial2BackFrS	YS	17	0	1000	0	118	17:18:01	1723969	5	3	1	3	2	1	1	1	2	7	6	3	0	0	0	5	5
081512	17:18:01	10007	Trial2BackFrS	NS	17	0	1000	1	118	17:18:01	1725488	5	3	1	3	2	1	1	1	2	7	6	3	0	0	0	5	5
081512	17:18:01	10007	Trial2BackFrS	NS	17	0	1000	1	118	17:18:01	1727007	5	3	1	3	2	1	1	1	2	7	6	3	0	0	0	5	5
081512	17:18:01	10007	Trial2BackFrS	NS	17	0	1000	1	118	17:18:01	1728527	5	3	1	3	2	1	1	1	2	7	6	3	0	0	0	5	5
081512	17:18:01	10007	Trial2BackFrS	YS	17	57	319	1	118	17:18:01	1729366	5	3	1	3	2	1	1	1	2	7	6	3	0	0	0	5	5
081512	17:18:01	10007	Trial2BackFrS	NS	17	0	1000	1	118	17:18:01	1731552	5	3	1	3	2	1	1	1	2	7	6	3	0	0	0	5	5
081512	17:18:01	10007	Trial2BackFrS	NS	17	0	1000	1	118	17:18:01	1733072	5	3	1	3	2	1	1	1	2	7	6	3	0	0	0	5	5
081512	17:18:01	10007	Trial2BackFrS	NS	17	0	1000	1	118	17:18:01	1734591	5	3	1	3	2	1	1	1	2	7	6	3	0	0	0	5	5
081512	17:18:01	10007	Trial2BackFrS	NS	17	0	1000	1	118	17:18:01	1736110	5	3	1	3	2	1	1	1	2	7	6	3	0	0	0	5	5
081512	17:18:01	10007	Trial2BackFrS	YS	17	57	527	1	118	17:18:01	1737163	5	3	1	3	2	1	1	1	2	7	6	3	0	0	0	5	5
081512	17:18:01	10007	Trial2BackFrS	NS	17	0	1000	1	118	17:18:01	1739136	5	3	1	3	2	1	1	1	2	7	6	3	0	0	0	5	5
081512	17:18:01	10007	Trial2BackFrS	NS	17	0	1000	1	118	17:18:01	1740655	5	3	1	3	2	1	1	1	2	7	6	3	0	0	0	5	5
081512	17:18:01	10007	Trial2BackFrS	NS	17	57	318	0	118	17:18:01	1741495	5	3	1	3	2	1	1	1	2	7	6	3	0	0	0	5	5
081512	17:18:01	10007	Trial2BackFrS	NS	17	0	1000	1	118	17:18:01	1743681	5	3	1	3	2	1	1	1	2	7	6	3	0	0	0	5	5
081512	17:18:01	10007	Trial2BackFrS	NS	17	0	1000	1	118	17:18:01	1745200	5	3	1	3	2	1	1	1	2	7	6	3	0	0	0	5	5
081512	17:18:01	10007	Trial2BackFrS	NS	17	57	925	0	118	17:18:01	1746653	5	3	1	3	2	1	1	1	2	7	6	3	0	0	0	5	5
081512	17:18:01	10007	Trial2BackFrS	NS	17	0	1000	1	118	17:18:01	1748226	5	3	1	3	2	1	1	1	2	7	6	3	0	0	0	5	5
081512	17:18:01	10007	Trial2BackFrS	NS	17	0	1000	1	118	17:18:01	1749745	5	3	1	3	2	1	1	1	2	7	6	3	0	0	0	5	5
081512	17:18:01	10007	Trial2BackFrS	NS	17	0	1000	1	118	17:18:01	1751264	5	3	1	3	2	1	1	1	2	7	6	3	0	0	0	5	5
081512	17:18:01	10007	Trial2BackFrS	NS	17	57	285	0	118	17:18:01	1752077	5	3	1	3	2	1	1	1	2	7	6	3	0	0	0	5	5
081512	17:18:01	10007	Trial2BackFrS	YS	17	0	1000	0	118	17:18:01	1754290	5	3	1	3	2	1	1	1	2	7	6	3	0	0	0	5	5
081512	17:18:01	10007	Trial2BackFrS	NS	17	0	1000	1	118	17:18:01	1755809	5	3	1	3	2	1	1	1	2	7	6	3	0	0	0	5	5
081512	17:18:01	10007	Trial2BackFrS	NS	17	0	1000	1	118	17:18:01	1757329	5	3	1	3	2	1	1	1	2	7	6	3	0	0	0	5	5
081512	17:18:01	10007	Trial2BackFrS	NS	17	0	1000	1	118	17:18:01	1758848	5	3	1	3	2	1	1	1	2	7	6	3	0	0	0	5	5
081512	17:18:01	10007	Trial2BackFrS	YS	17	0	1000	0	118	17:18:01	1760368	5	3	1	3	2	1	1	1	2	7	6	3	0	0	0	5	5
081512	17:18:01	10007	Trial2BackFrS	NS	17	0	1000	1	118	17:18:01	1761887	5	3	1	3	2	1	1	1	2	7	6	3	0	0	0	5	5
081512	17:18:01	10007	Trial2BackFrS	NS	17	0	1000	1	118	17:18:01	1763406	5	3	1	3	2	1	1	1	2	7	6	3	0	0	0	5	5
081512	17:18:01	10007	Trial2BackFrS	NS	17	0	1000	1	118	17:18:01	1764926	5	3	1	3	2	1	1	1	2	7	6	3	0	0	0	5	5
081512	17:18:01	10007	Trial2BackFrS	NS	17	0	1000	1	118	17:18:01	1766445	5	3	1	3	2	1	1	1	2	7	6	3	0	0	0	5	5
081512	17:18:01	10007	Trial2BackFrS	NS	17	0	1000	1	118	17:18:01	1767965	5	3	1	3	2	1	1	1	2	7	6	3	0	0	0	5	5
081512	17:18:01	10007	Trial2BackFrS	NS	17	0	1000	1	118	17:18:01	1769484	5	3	1	3	2	1	1	1	2	7	6	3	0	0	0	5	5
081512	17:18:01	10007	Trial2BackFrS	NS	17	0	1000	1	118	17:18:01	1771003	5	3	1	3	2	1	1	1	2	7	6	3	0	0	0	5	5
081512	17:18:01	10007	Trial2BackFrS	YS	17	57	386	1	118	17:18:01	1771923	5	3	1	3	2	1	1	1	2	7	6	3	0	0	0	5	5
081512	17:18:01	10007	Trial2BackFrS	NS	17	0	1000	1	118	17:18:01	1774029	5	3	1	3	2	1	1	1	2	7	6	3	0	0	0	5	5
081512	17:18:01	10007	Trial2BackFrS	NS	17	0	1000	1	118	17:18:01	1775548	5	3	1	3	2	1	1	1	2	7	6	3	0	0	0	5	5
081512	17:18:01	10007	Trial2BackFrS	NS	17	0	1000	1	118	17:18:01	1777068	5	3	1	3	2	1	1	1	2	7	6	3	0	0	0	5	5
081512	17:18:01	10007	Trial2BackFrS	NS	17	0	1000	1	118	17:18:01	1778587	5	3	1	3	2	1	1	1	2	7	6	3	0	0	0	5	5
081512	17:18:01	10007	Trial2BackFrS	YS	17	57	530	1	118	17:18:01	1779640	5	3	1	3	2	1	1	1	2	7	6	3	0	0	0	5	5
081512	17:18:01	10007	Trial2BackFrS	NS	17	0	1000	1	118	17:18:01	1781613	5	3	1	3	2	1	1	1	2	7	6	3	0	0	0	5	5
081512	17:18:01	10007	Trial2BackFrS	NS	17	0	1000	1	118	17:18:01	1783132	5	3	1	3	2	1	1	1	2	7	6	3	0	0	0	5	5
081512	17:18:01	10007	Trial2BackFrS	NS	17	0	1000	1	118	17:18:01	1784651	5	3	1	3	2	1	1	1	2	7	6	3	0	0	0	5	5
081512	17:18:01	10007	Trial2BackFrS	NS	17	0	1000	1	118	17:18:01	1786171	5	3	1	3	2	1	1	1	2	7	6	3	0	0	0	5	5
081512	17:18:01	10007	Trial2BackFrS	NS	17	0	1000	1	118	17:18:01	1787690	5	3	1	3	2	1	1	1	2	7	6	3	0	0	0	5	5
081512	17:18:01	10007	Trial2BackFrS	NS	17	0	1000	1	118	17:18:01	1789210	5	3	1	3	2	1	1	1	2	7	6	3	0	0	0	5	5
081512	17:18:01	10007	Trial2BackFrS	YS	17	57	419	1	118	17:18:01	1790156	5	3	1	3	2	1	1	1	2	7	6	3	0	0	0	5	5
081512	17:18:01	10007	Trial2BackFrS	NS	17	0	1000	1	118	17:18:01	1792235	5	3	1	3	2	1	1	1	2	7	6	3	0	0	0	5	5
081512	17:18:01	10007	Trial2BackFrS	NS	17	0	1000	1	118	17:18:01	1793754	5	3	1	3	2	1	1	1	2	7	6	3	0	0	0	5	5
081512	17:18:01	10007	Trial2BackFrS	NS	17	0	1000	1	118	17:18:01	1795274	5	3	1	3	2	1	1	1	2	7	6	3	0	0	0	5	5
081512	17:18:01	10007	Trial2BackFrS	NS	17	57	419	0	118	17:18:01	1796220	5	3	1	3	2	1	1	1	2	7	6	3	0	0	0	5	5
081512	17:18:01	10007	Trial2BackFrS	NS	17	0	1000	1	118	17:18:01	1798299	5	3	1	3	2	1	1	1	2	7	6	3	0	0	0	5	5
081512	17:18:01	10007	Trial2BackFrS	NS	17	0	1000	1	118	17:18:01	1799819	5	3	1	3	2	1	1	1	2	7	6	3	0	0	0	5	5
081512	17:18:01	10007	Trial2BackFrS	NS	17	0	1000	1	118	17:18:01	1801338	5	3	1	3	2	1	1	1	2	7	6	3	0	0	0	5	5
081512	17:18:01	10007	Trial2BackFrS	YS	17	57	402	1	118	17:18:01	1802271	5	3	1	3	2	1	1	1	2	7	6	3	0	0	0	5	5
081512	17:18:01	10007	Trial2BackFrS	NS	17	0	1000	1	118	17:18:01	1804364	5	3	1	3	2	1	1	1	2	7	6	3	0	0	0	5	5
081512	17:18:01	10007	Trial2BackFrS	NS	17	0	1000	1	118	17:18:01	1805883	5	3	1	3	2	1	1	1	2	7	6	3	0	0	0	5	5
081512	17:18:01	10007	Trial2BackFrS	NS	17	0	1000	1	118	17:18:01	1807402	5	3	1	3	2	1	1	1	2	7	6	3	0	0	0	5	5
081512	17:18:01	10007	Trial2BackFrS	NS	17	57	434	0	118	17:18:01	1808362	5	3	1	3	2	1	1	1	2	7	6	3	0	0	0	5	5
081512	17:18:01	10007	Trial2BackFrS	YS	17	0	1000	0	118	17:18:01	1810428	5	3	1	3	2	1	1	1	2	7	6	3	0	0	0	5	5
081512	17:18:01	10007	Trial2BackFrS	NS	17	0	1000	1	118	17:18:01	1811947	5	3	1	3	2	1	1	1	2	7	6	3	0	0	0	5	5
081512	17:18:01	10007	Trial2BackFrS	NS	17	0	1000	1	118	17:18:01	1813467	5	3	1	3	2	1	1	1	2	7	6	3	0	0	0	5	5
081512	17:18:01	10007	Trial2BackFrS	YS	17	57	482	1	118	17:18:01	1814480	5	3	1	3	2	1	1	1	2	7	6	3	0	0	0	5	5
081512	17:18:01	10007	Trial2BackFrS	NS	17	0	1000	1	118	17:18:01	1816492	5	3	1	3	2	1	1	1	2	7	6	3	0	0	0	5	5
081512	17:18:01	10007	Trial2BackFrS	NS	17	0	1000	1	118	17:18:01	1818012	5	3	1	3	2	1	1	1	2	7	6	3	0	0	0	5	5
081512	17:18:01	10007	Trial2BackFrS	NS	17	0	1000	1	118	17:18:01	1819531	5	3	1	3	2	1	1	1	2	7	6	3	0	0	0	5	5
081512	17:18:01	10007	Trial2BackFrS	NS	17	0	1000	1	118	17:18:01	1821050	5	3	1	3	2	1	1	1	2	7	6	3	0	0	0	5	5
081512	17:18:01	10007	Trial2BackFrS	NS	17	0	1000	1	118	17:18:01	1822570	5	3	1	3	2	1	1	1	2	7	6	3	0	0	0	5	5
081512	17:18:01	10007	Trial2BackFrS	NS	17	0	1000	1	118	17:18:01	1824089	5	3	1	3	2	1	1	1	2	7	6	3	0	0	0	5	5
081512	17:18:01	10007	Trial2BackFrS	YS	17	57	563	1	118	17:18:01	1825182	5	3	1	3	2	1	1	1	2	7	6	3	0	0	0	5	5
081512	17:18:01	10007	Trial2BackFrS	NS	17	0	1000	1	118	17:18:01	1827115	5	3	1	3	2	1	1	1	2	7	6	3	0	0	0	5	5
081512	17:18:01	10007	Trial2BackFrS	NS	17	0	1000	1	118	17:18:01	1828634	5	3	1	3	2	1	1	1	2	7	6	3	0	0	0	5	5
081512	17:18:01	10007	Trial2BackFrS	NS	17	0	1000	1	118	17:18:01	1830154	5	3	1	3	2	1	1	1	2	7	6	3	0	0	0	5	5
081512	17:18:01	10007	Trial2BackFrS	NS	17	0	1000	1	118	17:18:01	1831673	5	3	1	3	2	1	1	1	2	7	6	3	0	0	0	5	5
081512	17:18:01	10007	Trial2BackFrS	YS	17	0	1000	0	118	17:18:01	1833192	5	3	1	3	2	1	1	1	2	7	6	3	0	0	0	5	5
081512	17:18:01	10007	Trial2BackFrS	NS	17	0	1000	1	118	17:18:01	1834712	5	3	1	3	2	1	1	1	2	7	6	3	0	0	0	5	5
081512	17:18:01	10007	Trial2BackFrS	NS	17	57	340	0	118	17:18:01	1835578	5	3	1	3	2	1	1	1	2	7	6	3	0	0	0	5	5
081512	17:18:01	10007	Trial2BackFrS	NS	17	0	1000	1	118	17:18:01	1837737	5	3	1	3	2	1	1	1	2	7	6	3	0	0	0	5	5
081512	17:18:01	10007	Trial2BackFrS	NS	17	57	771	0	118	17:18:01	1839030	5	3	1	3	2	1	1	1	2	7	6	3	0	0	0	5	5
081512	17:18:01	10007	Trial2BackFrS	YS	17	0	1000	0	118	17:18:01	1840763	5	3	1	3	2	1	1	1	2	7	6	3	0	0	0	5	5
081512	17:18:01	10007	Trial2BackFrS	NS	17	0	1000	1	118	17:18:01	1842282	5	3	1	3	2	1	1	1	2	7	6	3	0	0	0	5	5
081512	17:18:01	10007	Trial2BackFrS	NS	17	0	1000	1	118	17:18:01	1843801	5	3	1	3	2	1	1	1	2	7	6	3	0	0	0	5	5
081512	17:18:01	10007	Trial2BackFrS	YS	17	57	323	1	118	17:18:01	1844654	5	3	1	3	2	1	1	1	2	7	6	3	0	0	0	5	5
081512	17:18:01	10007	Trial2BackFrS	NS	17	0	1000	1	118	17:18:01	1846827	5	3	1	3	2	1	1	1	2	7	6	3	0	0	0	5	5
081512	17:18:01	10007	Trial2BackFrS	NS	17	0	1000	1	118	17:18:01	1848346	5	3	1	3	2	1	1	1	2	7	6	3	0	0	0	5	5
081512	17:18:01	10007	Trial2BackFrS	NS	17	0	1000	1	118	17:18:01	1849866	5	3	1	3	2	1	1	1	2	7	6	3	0	0	0	5	5
081512	17:18:01	10007	Trial2BackFrS	NS	17	0	1000	1	118	17:18:01	1851385	5	3	1	3	2	1	1	1	2	7	6	3	0	0	0	5	5
081512	17:18:01	10007	Trial2BackFrS	NS	17	0	1000	1	118	17:18:01	1852904	5	3	1	3	2	1	1	1	2	7	6	3	0	0	0	5	5
081512	17:18:01	10007	Trial2BackFrS	NS	17	0	1000	1	118	17:18:01	1854424	5	3	1	3	2	1	1	1	2	7	6	3	0	0	0	5	5
081512	17:18:01	10007	Trial2BackFrS	NS	17	0	1000	1	118	17:18:01	1855943	5	3	1	3	2	1	1	1	2	7	6	3	0	0	0	5	5
081512	17:18:01	10007	Trial2BackFrS	NS	17	0	1000	1	118	17:18:01	1857463	5	3	1	3	2	1	1	1	2	7	6	3	0	0	0	5	5
081512	17:18:01	10007	Trial2BackFrS	YS	17	0	1000	0	118	17:18:01	1858996	5	3	1	3	2	1	1	1	2	7	6	3	0	0	0	5	5
081512	17:18:01	10007	Trial2BackFrS	NS	17	0	1000	1	118	17:18:01	1860515	5	3	1	3	2	1	1	1	2	7	6	3	0	0	0	5	5
081512	17:18:01	10007	Trial2BackFrS	NS	17	57	473	0	118	17:18:01	1861514	5	3	1	3	2	1	1	1	2	7	6	3	0	0	0	5	5
081512	17:18:01	10007	Trial2BackFrS	NS	17	0	1000	1	118	17:18:01	1863540	5	3	1	3	2	1	1	1	2	7	6	3	0	0	0	5	5
081512	17:18:01	10007	Trial2BackFrS	NS	17	0	1000	1	118	17:18:01	1865060	5	3	1	3	2	1	1	1	2	7	6	3	0	0	0	5	5
081512	17:18:01	10007	Trial2BackFrS	NS	17	0	1000	1	118	17:18:01	1866579	5	3	1	3	2	1	1	1	2	7	6	3	0	0	0	5	5
081512	17:18:01	10007	Trial2BackFrS	NS	17	0	1000	1	118	17:18:01	1868098	5	3	1	3	2	1	1	1	2	7	6	3	0	0	0	5	5
081512	17:18:01	10007	Trial2BackFrS	NS	17	0	1000	1	118	17:18:01	1869633	5	3	1	3	2	1	1	1	2	7	6	3	0	0	0	5	5
081512	17:18:01	10007	Trial2BackFrS	YS	17	57	476	1	118	17:18:01	1870631	5	3	1	3	2	1	1	1	2	7	6	3	0	0	0	5	5
081512	17:18:01	10007	Trial2BackFrS	NS	17	0	1000	1	118	17:18:01	1872657	5	3	1	3	2	1	1	1	2	7	6	3	0	0	0	5	5
081512	17:18:01	10007	Trial2BackFrS	NS	17	0	1000	1	118	17:18:01	1874176	5	3	1	3	2	1	1	1	2	7	6	3	0	0	0	5	5
081512	17:18:01	10007	Trial2BackFrS	NS	17	0	1000	1	118	17:18:01	1875695	5	3	1	3	2	1	1	1	2	7	6	3	0	0	0	5	5
081512	17:18:01	10007	Trial2BackFrS	NS	17	0	1000	1	118	17:18:01	1877215	5	3	1	3	2	1	1	1	2	7	6	3	0	0	0	5	5
081512	17:18:01	10007	Trial2BackFrS	NS	17	57	333	0	118	17:18:01	1878081	5	3	1	3	2	1	1	1	2	7	6	3	0	0	0	5	5
081512	17:18:01	10007	Trial2BackFrS	NS	17	0	1000	1	118	17:18:01	1880240	5	3	1	3	2	1	1	1	2	7	6	3	0	0	0	5	5
081512	17:18:01	10007	Trial2BackFrS	NS	17	0	1000	1	118	17:18:01	1881760	5	3	1	3	2	1	1	1	2	7	6	3	0	0	0	5	5
081512	17:18:01	10007	Trial2BackFrS	NS	17	57	444	0	118	17:18:01	1882733	5	3	1	3	2	1	1	1	2	7	6	3	0	0	0	5	5
081512	17:18:01	10007	Trial2BackFrS	NS	17	0	1000	1	118	17:18:01	1884785	5	3	1	3	2	1	1	1	2	7	6	3	0	0	0	5	5
081512	17:18:01	10007	Trial2BackFrS	YS	17	0	1000	0	118	17:18:01	1886305	5	3	1	3	2	1	1	1	2	7	6	3	0	0	0	5	5
081512	17:18:01	10007	Trial2BackFrS	NS	17	0	1000	1	118	17:18:01	1887824	5	3	1	3	2	1	1	1	2	7	6	3	0	0	0	5	5
081512	17:18:01	10007	ClockFr3mo	ClockFr3mo	19	Clock111	25117	0	118	17:18:01	1913054	5	3	1	3	2	1	1	1	2	7	6	3	0	0	1	5	5
081512	17:18:01	10007	ClockFr3mo	ClockFr3mo	19	Clock11	1258	0	118	17:18:01	1914347	5	3	1	3	2	1	1	1	2	7	6	3	0	1	1	5	5
081512	17:18:01	10007	ClockFr3mo	ClockFr3mo	19	Clock1	4437	0	118	17:18:01	1918826	5	3	1	3	2	1	1	1	2	7	6	3	1	1	1	5	5
081512	17:18:01	10007	ClockFr3mo	ClockFr3mo	19	Clockdone	671	0	118	17:18:01	1919532	5	3	1	3	2	1	1	1	2	7	6	3	1	1	1	5	5
081512	17:18:01	10007	FASFrVF3mo	StopFrVF3mo	20	10	184561	0	118	17:18:01	2195751	5	3	1	3	2	1	1	1	2	7	6	3	1	1	1	5	5
