date	time	subject	blockcode	trialcode	values.TaskNumber	response	latency	correct	values.Score	script.starttime	script.elapsedtime	values.ScoreS7	values.Word1	values.Word2	values.Word3	values.Word4	values.Word5	values.Word6	values.Word7	values.Word8	values.DigitSpanFwrd	values.DigitSpanBack	values.ScoreAbs	values.Contour	values.Numbers	values.Hands	values.corsiblockspanFwrd	values.corsiblockspanRev
082812	18:10:29	10036	Language	Language	0	French	7961	0	0	18:10:29	8106	0	0	0	0	0	0	0	0	0	0	0	0	0	0	0	0	0
082812	18:10:29	10036	Session	Session	0	Baseline	792	0	0	18:10:29	8972	0	0	0	0	0	0	0	0	0	0	0	0	0	0	0	0	0
082812	18:10:29	10036	HandFr	HandFr	0	RightFr	1377204	0	0	18:10:29	1386254	0	0	0	0	0	0	0	0	0	0	0	0	0	0	0	0	0
082812	18:10:29	10036	AudioCheckFr	WordsFr	0	0	0	0	0	18:10:29	1415707	0	0	0	0	0	0	0	0	0	0	0	0	0	0	0	0	0
082812	18:10:29	10036	CubeFr	CubeFr	1	1Cube	94719	0	0	18:10:29	1513335	0	0	0	0	0	0	0	0	0	0	0	0	0	0	0	0	0
082812	18:10:29	10036	pm.simpleFrRight	blank.simpleFr	2	0	1887	1	0	18:10:29	1604845	0	0	0	0	0	0	0	0	0	0	0	0	0	0	0	0	0
082812	18:10:29	10036	pm.simpleFrRight	pm.simpleFr	2	57	2080	0	0	18:10:29	1606964	0	0	0	0	0	0	0	0	0	0	0	0	0	0	0	0	0
082812	18:10:29	10036	pm.simpleFrRight	blank.simpleFr	2	0	2087	1	0	18:10:29	1609069	0	0	0	0	0	0	0	0	0	0	0	0	0	0	0	0	0
082812	18:10:29	10036	pm.simpleFrRight	pm.simpleFr	2	57	2527	0	0	18:10:29	1611628	0	0	0	0	0	0	0	0	0	0	0	0	0	0	0	0	0
082812	18:10:29	10036	pm.simpleFrRight	blank.simpleFr	2	0	1487	1	0	18:10:29	1613134	0	0	0	0	0	0	0	0	0	0	0	0	0	0	0	0	0
082812	18:10:29	10036	pm.simpleFrRight	pm.simpleFr	2	57	1678	0	0	18:10:29	1614854	0	0	0	0	0	0	0	0	0	0	0	0	0	0	0	0	0
082812	18:10:29	10036	pm.simpleFrRight	blank.simpleFr	2	0	2487	1	0	18:10:29	1617373	0	0	0	0	0	0	0	0	0	0	0	0	0	0	0	0	0
082812	18:10:29	10036	pm.simpleFrRight	pm.simpleFr	2	57	959	0	0	18:10:29	1618372	0	0	0	0	0	0	0	0	0	0	0	0	0	0	0	0	0
082812	18:10:29	10036	pm.simpleFrRight	blank.simpleFr	2	0	1987	1	0	18:10:29	1620385	0	0	0	0	0	0	0	0	0	0	0	0	0	0	0	0	0
082812	18:10:29	10036	pm.simpleFrRight	pm.simpleFr	2	57	763	0	0	18:10:29	1621184	0	0	0	0	0	0	0	0	0	0	0	0	0	0	0	0	0
082812	18:10:29	10036	pm.simpleFrRight	blank.simpleFr	2	0	1787	1	0	18:10:29	1622997	0	0	0	0	0	0	0	0	0	0	0	0	0	0	0	0	0
082812	18:10:29	10036	pm.simpleFrRight	pm.simpleFr	2	57	839	0	0	18:10:29	1623877	0	0	0	0	0	0	0	0	0	0	0	0	0	0	0	0	0
082812	18:10:29	10036	pm.simpleFrRight	blank.simpleFr	2	0	2187	1	0	18:10:29	1626089	0	0	0	0	0	0	0	0	0	0	0	0	0	0	0	0	0
082812	18:10:29	10036	pm.simpleFrRight	pm.simpleFr	2	57	1107	0	0	18:10:29	1627235	0	0	0	0	0	0	0	0	0	0	0	0	0	0	0	0	0
082812	18:10:29	10036	pm.simpleFrRight	blank.simpleFr	2	0	2287	1	0	18:10:29	1629554	0	0	0	0	0	0	0	0	0	0	0	0	0	0	0	0	0
082812	18:10:29	10036	pm.simpleFrRight	pm.simpleFr	2	57	969	0	0	18:10:29	1630554	0	0	0	0	0	0	0	0	0	0	0	0	0	0	0	0	0
082812	18:10:29	10036	pm.simpleFrRight	blank.simpleFr	2	0	1687	1	0	18:10:29	1632260	0	0	0	0	0	0	0	0	0	0	0	0	0	0	0	0	0
082812	18:10:29	10036	pm.simpleFrRight	pm.simpleFr	2	57	824	0	0	18:10:29	1633126	0	0	0	0	0	0	0	0	0	0	0	0	0	0	0	0	0
082812	18:10:29	10036	pm.simpleFrRight	blank.simpleFr	2	0	1587	1	0	18:10:29	1634739	0	0	0	0	0	0	0	0	0	0	0	0	0	0	0	0	0
082812	18:10:29	10036	pm.simpleFrRight	pm.simpleFr	2	57	1049	0	0	18:10:29	1635819	0	0	0	0	0	0	0	0	0	0	0	0	0	0	0	0	0
082812	18:10:29	10036	pm.simpleFrRight	blank.simpleFr	2	0	2387	1	0	18:10:29	1638231	0	0	0	0	0	0	0	0	0	0	0	0	0	0	0	0	0
082812	18:10:29	10036	pm.simpleFrRight	pm.simpleFr	2	57	1029	0	0	18:10:29	1639297	0	0	0	0	0	0	0	0	0	0	0	0	0	0	0	0	0
082812	18:10:29	10036	pm.simpleFrRight	blank.simpleFr	2	0	1487	1	0	18:10:29	1640817	0	0	0	0	0	0	0	0	0	0	0	0	0	0	0	0	0
082812	18:10:29	10036	pm.simpleFrRight	pm.simpleFr	2	57	1019	0	0	18:10:29	1641869	0	0	0	0	0	0	0	0	0	0	0	0	0	0	0	0	0
082812	18:10:29	10036	pm.simpleFrRight	blank.simpleFr	2	0	1887	1	0	18:10:29	1643789	0	0	0	0	0	0	0	0	0	0	0	0	0	0	0	0	0
082812	18:10:29	10036	pm.simpleFrRight	pm.simpleFr	2	57	591	0	0	18:10:29	1644415	0	0	0	0	0	0	0	0	0	0	0	0	0	0	0	0	0
082812	18:10:29	10036	pm.simpleFrRight	blank.simpleFr	2	0	2487	1	0	18:10:29	1646934	0	0	0	0	0	0	0	0	0	0	0	0	0	0	0	0	0
082812	18:10:29	10036	pm.simpleFrRight	pm.simpleFr	2	57	805	0	0	18:10:29	1647774	0	0	0	0	0	0	0	0	0	0	0	0	0	0	0	0	0
082812	18:10:29	10036	pm.simpleFrRight	blank.simpleFr	2	0	2387	1	0	18:10:29	1650186	0	0	0	0	0	0	0	0	0	0	0	0	0	0	0	0	0
082812	18:10:29	10036	pm.simpleFrRight	pm.simpleFr	2	57	673	0	0	18:10:29	1650893	0	0	0	0	0	0	0	0	0	0	0	0	0	0	0	0	0
082812	18:10:29	10036	pm.simpleFrRight	blank.simpleFr	2	0	1587	1	0	18:10:29	1652505	0	0	0	0	0	0	0	0	0	0	0	0	0	0	0	0	0
082812	18:10:29	10036	pm.simpleFrRight	pm.simpleFr	2	57	706	0	0	18:10:29	1653252	0	0	0	0	0	0	0	0	0	0	0	0	0	0	0	0	0
082812	18:10:29	10036	pm.simpleFrRight	blank.simpleFr	2	0	2287	1	0	18:10:29	1655571	0	0	0	0	0	0	0	0	0	0	0	0	0	0	0	0	0
082812	18:10:29	10036	pm.simpleFrRight	pm.simpleFr	2	57	985	0	0	18:10:29	1656597	0	0	0	0	0	0	0	0	0	0	0	0	0	0	0	0	0
082812	18:10:29	10036	pm.simpleFrRight	blank.simpleFr	2	0	1787	1	0	18:10:29	1658409	0	0	0	0	0	0	0	0	0	0	0	0	0	0	0	0	0
082812	18:10:29	10036	pm.simpleFrRight	pm.simpleFr	2	57	706	0	0	18:10:29	1659156	0	0	0	0	0	0	0	0	0	0	0	0	0	0	0	0	0
082812	18:10:29	10036	pm.simpleFrRight	blank.simpleFr	2	0	2087	1	0	18:10:29	1661275	0	0	0	0	0	0	0	0	0	0	0	0	0	0	0	0	0
082812	18:10:29	10036	pm.simpleFrRight	pm.simpleFr	2	57	800	0	0	18:10:29	1662115	0	0	0	0	0	0	0	0	0	0	0	0	0	0	0	0	0
082812	18:10:29	10036	pm.simpleFrRight	blank.simpleFr	2	0	1987	1	0	18:10:29	1664127	0	0	0	0	0	0	0	0	0	0	0	0	0	0	0	0	0
082812	18:10:29	10036	pm.simpleFrRight	pm.simpleFr	2	57	444	0	0	18:10:29	1664607	0	0	0	0	0	0	0	0	0	0	0	0	0	0	0	0	0
082812	18:10:29	10036	pm.simpleFrRight	blank.simpleFr	2	0	2187	1	0	18:10:29	1666819	0	0	0	0	0	0	0	0	0	0	0	0	0	0	0	0	0
082812	18:10:29	10036	pm.simpleFrRight	pm.simpleFr	2	57	472	0	0	18:10:29	1667326	0	0	0	0	0	0	0	0	0	0	0	0	0	0	0	0	0
082812	18:10:29	10036	pm.simpleFrRight	blank.simpleFr	2	0	1687	1	0	18:10:29	1669045	0	0	0	0	0	0	0	0	0	0	0	0	0	0	0	0	0
082812	18:10:29	10036	pm.simpleFrRight	pm.simpleFr	2	57	694	0	0	18:10:29	1669778	0	0	0	0	0	0	0	0	0	0	0	0	0	0	0	0	0
082812	18:10:29	10036	pm.simpleFrRight	blank.simpleFr	2	0	2487	1	0	18:10:29	1672297	0	0	0	0	0	0	0	0	0	0	0	0	0	0	0	0	0
082812	18:10:29	10036	pm.simpleFrRight	pm.simpleFr	2	57	594	0	0	18:10:29	1672924	0	0	0	0	0	0	0	0	0	0	0	0	0	0	0	0	0
082812	18:10:29	10036	pm.simpleFrRight	blank.simpleFr	2	0	2187	1	0	18:10:29	1675136	0	0	0	0	0	0	0	0	0	0	0	0	0	0	0	0	0
082812	18:10:29	10036	pm.simpleFrRight	pm.simpleFr	2	57	475	0	0	18:10:29	1675642	0	0	0	0	0	0	0	0	0	0	0	0	0	0	0	0	0
082812	18:10:29	10036	pm.simpleFrRight	blank.simpleFr	2	0	2087	1	0	18:10:29	1677762	0	0	0	0	0	0	0	0	0	0	0	0	0	0	0	0	0
082812	18:10:29	10036	pm.simpleFrRight	pm.simpleFr	2	57	425	0	0	18:10:29	1678228	0	0	0	0	0	0	0	0	0	0	0	0	0	0	0	0	0
082812	18:10:29	10036	pm.simpleFrRight	blank.simpleFr	2	0	1887	1	0	18:10:29	1680134	0	0	0	0	0	0	0	0	0	0	0	0	0	0	0	0	0
082812	18:10:29	10036	pm.simpleFrRight	pm.simpleFr	2	57	821	0	0	18:10:29	1680987	0	0	0	0	0	0	0	0	0	0	0	0	0	0	0	0	0
082812	18:10:29	10036	pm.simpleFrRight	blank.simpleFr	2	0	2387	1	0	18:10:29	1683399	0	0	0	0	0	0	0	0	0	0	0	0	0	0	0	0	0
082812	18:10:29	10036	pm.simpleFrRight	pm.simpleFr	2	57	819	0	0	18:10:29	1684252	0	0	0	0	0	0	0	0	0	0	0	0	0	0	0	0	0
082812	18:10:29	10036	pm.simpleFrRight	blank.simpleFr	2	0	1687	1	0	18:10:29	1685958	0	0	0	0	0	0	0	0	0	0	0	0	0	0	0	0	0
082812	18:10:29	10036	pm.simpleFrRight	pm.simpleFr	2	57	805	0	0	18:10:29	1686798	0	0	0	0	0	0	0	0	0	0	0	0	0	0	0	0	0
082812	18:10:29	10036	pm.simpleFrRight	blank.simpleFr	2	0	1587	1	0	18:10:29	1688411	0	0	0	0	0	0	0	0	0	0	0	0	0	0	0	0	0
082812	18:10:29	10036	pm.simpleFrRight	pm.simpleFr	2	57	1152	0	0	18:10:29	1689597	0	0	0	0	0	0	0	0	0	0	0	0	0	0	0	0	0
082812	18:10:29	10036	pm.simpleFrRight	blank.simpleFr	2	0	2287	1	0	18:10:29	1691916	0	0	0	0	0	0	0	0	0	0	0	0	0	0	0	0	0
082812	18:10:29	10036	pm.simpleFrRight	pm.simpleFr	2	57	815	0	0	18:10:29	1692769	0	0	0	0	0	0	0	0	0	0	0	0	0	0	0	0	0
082812	18:10:29	10036	pm.simpleFrRight	blank.simpleFr	2	0	1487	1	0	18:10:29	1694275	0	0	0	0	0	0	0	0	0	0	0	0	0	0	0	0	0
082812	18:10:29	10036	pm.simpleFrRight	pm.simpleFr	2	57	663	0	0	18:10:29	1694968	0	0	0	0	0	0	0	0	0	0	0	0	0	0	0	0	0
082812	18:10:29	10036	pm.simpleFrRight	blank.simpleFr	2	0	1787	1	0	18:10:29	1696794	0	0	0	0	0	0	0	0	0	0	0	0	0	0	0	0	0
082812	18:10:29	10036	pm.simpleFrRight	pm.simpleFr	2	57	528	0	0	18:10:29	1697354	0	0	0	0	0	0	0	0	0	0	0	0	0	0	0	0	0
082812	18:10:29	10036	pm.simpleFrRight	blank.simpleFr	2	0	1987	1	0	18:10:29	1699366	0	0	0	0	0	0	0	0	0	0	0	0	0	0	0	0	0
082812	18:10:29	10036	pm.simpleFrRight	pm.simpleFr	2	57	660	0	0	18:10:29	1700059	0	0	0	0	0	0	0	0	0	0	0	0	0	0	0	0	0
082812	18:10:29	10036	pm.simpleFrRight	blank.simpleFr	2	0	1787	1	0	18:10:29	1701872	0	0	0	0	0	0	0	0	0	0	0	0	0	0	0	0	0
082812	18:10:29	10036	pm.simpleFrRight	pm.simpleFr	2	57	682	0	0	18:10:29	1702592	0	0	0	0	0	0	0	0	0	0	0	0	0	0	0	0	0
082812	18:10:29	10036	pm.simpleFrRight	blank.simpleFr	2	0	2287	1	0	18:10:29	1704911	0	0	0	0	0	0	0	0	0	0	0	0	0	0	0	0	0
082812	18:10:29	10036	pm.simpleFrRight	pm.simpleFr	2	57	667	0	0	18:10:29	1705617	0	0	0	0	0	0	0	0	0	0	0	0	0	0	0	0	0
082812	18:10:29	10036	pm.simpleFrRight	blank.simpleFr	2	0	1987	1	0	18:10:29	1707630	0	0	0	0	0	0	0	0	0	0	0	0	0	0	0	0	0
082812	18:10:29	10036	pm.simpleFrRight	pm.simpleFr	2	57	636	0	0	18:10:29	1708296	0	0	0	0	0	0	0	0	0	0	0	0	0	0	0	0	0
082812	18:10:29	10036	pm.simpleFrRight	blank.simpleFr	2	0	1687	1	0	18:10:29	1710002	0	0	0	0	0	0	0	0	0	0	0	0	0	0	0	0	0
082812	18:10:29	10036	pm.simpleFrRight	pm.simpleFr	2	57	648	0	0	18:10:29	1710682	0	0	0	0	0	0	0	0	0	0	0	0	0	0	0	0	0
082812	18:10:29	10036	pm.simpleFrRight	blank.simpleFr	2	0	1887	1	0	18:10:29	1712601	0	0	0	0	0	0	0	0	0	0	0	0	0	0	0	0	0
082812	18:10:29	10036	pm.simpleFrRight	pm.simpleFr	2	57	561	0	0	18:10:29	1713201	0	0	0	0	0	0	0	0	0	0	0	0	0	0	0	0	0
082812	18:10:29	10036	pm.simpleFrRight	blank.simpleFr	2	0	2387	1	0	18:10:29	1715613	0	0	0	0	0	0	0	0	0	0	0	0	0	0	0	0	0
082812	18:10:29	10036	pm.simpleFrRight	pm.simpleFr	2	57	508	0	0	18:10:29	1716159	0	0	0	0	0	0	0	0	0	0	0	0	0	0	0	0	0
082812	18:10:29	10036	pm.simpleFrRight	blank.simpleFr	2	0	2487	1	0	18:10:29	1718678	0	0	0	0	0	0	0	0	0	0	0	0	0	0	0	0	0
082812	18:10:29	10036	pm.simpleFrRight	pm.simpleFr	2	57	851	0	0	18:10:29	1719571	0	0	0	0	0	0	0	0	0	0	0	0	0	0	0	0	0
082812	18:10:29	10036	Trial2BackFr	N	3	0	1000	1	1	18:10:29	2009361	0	0	0	0	0	0	0	0	0	0	0	0	0	0	0	0	0
082812	18:10:29	10036	Trial2BackFr	N	3	0	1000	1	2	18:10:29	2010880	0	0	0	0	0	0	0	0	0	0	0	0	0	0	0	0	0
082812	18:10:29	10036	Trial2BackFr	N	3	0	1000	1	3	18:10:29	2012399	0	0	0	0	0	0	0	0	0	0	0	0	0	0	0	0	0
082812	18:10:29	10036	Trial2BackFr	N	3	0	1000	1	4	18:10:29	2013919	0	0	0	0	0	0	0	0	0	0	0	0	0	0	0	0	0
082812	18:10:29	10036	Trial2BackFr	N	3	0	1000	1	5	18:10:29	2015438	0	0	0	0	0	0	0	0	0	0	0	0	0	0	0	0	0
082812	18:10:29	10036	Trial2BackFr	N	3	0	1000	1	6	18:10:29	2016958	0	0	0	0	0	0	0	0	0	0	0	0	0	0	0	0	0
082812	18:10:29	10036	Trial2BackFr	N	3	0	1000	1	7	18:10:29	2018477	0	0	0	0	0	0	0	0	0	0	0	0	0	0	0	0	0
082812	18:10:29	10036	Trial2BackFr	N	3	0	1000	1	8	18:10:29	2019996	0	0	0	0	0	0	0	0	0	0	0	0	0	0	0	0	0
082812	18:10:29	10036	Trial2BackFr	Y	3	0	1000	0	8	18:10:29	2021516	0	0	0	0	0	0	0	0	0	0	0	0	0	0	0	0	0
082812	18:10:29	10036	Trial2BackFr	N	3	0	1000	1	9	18:10:29	2023035	0	0	0	0	0	0	0	0	0	0	0	0	0	0	0	0	0
082812	18:10:29	10036	Trial2BackFr	N	3	0	1000	1	10	18:10:29	2024555	0	0	0	0	0	0	0	0	0	0	0	0	0	0	0	0	0
082812	18:10:29	10036	Trial2BackFr	N	3	0	1000	1	11	18:10:29	2026074	0	0	0	0	0	0	0	0	0	0	0	0	0	0	0	0	0
082812	18:10:29	10036	Trial2BackFr	Y	3	0	1000	0	11	18:10:29	2027593	0	0	0	0	0	0	0	0	0	0	0	0	0	0	0	0	0
082812	18:10:29	10036	Trial2BackFr	N	3	0	1000	1	12	18:10:29	2029113	0	0	0	0	0	0	0	0	0	0	0	0	0	0	0	0	0
082812	18:10:29	10036	Trial2BackFr	N	3	0	1000	1	13	18:10:29	2030632	0	0	0	0	0	0	0	0	0	0	0	0	0	0	0	0	0
082812	18:10:29	10036	Trial2BackFr	N	3	0	1000	1	14	18:10:29	2032151	0	0	0	0	0	0	0	0	0	0	0	0	0	0	0	0	0
082812	18:10:29	10036	Trial2BackFr	N	3	0	1000	1	15	18:10:29	2033671	0	0	0	0	0	0	0	0	0	0	0	0	0	0	0	0	0
082812	18:10:29	10036	Trial2BackFr	N	3	0	1000	1	16	18:10:29	2035190	0	0	0	0	0	0	0	0	0	0	0	0	0	0	0	0	0
082812	18:10:29	10036	Trial2BackFr	Y	3	0	1000	0	16	18:10:29	2036710	0	0	0	0	0	0	0	0	0	0	0	0	0	0	0	0	0
082812	18:10:29	10036	Trial2BackFr	N	3	0	1000	1	17	18:10:29	2038229	0	0	0	0	0	0	0	0	0	0	0	0	0	0	0	0	0
082812	18:10:29	10036	Trial2BackFr	N	3	0	1000	1	18	18:10:29	2039748	0	0	0	0	0	0	0	0	0	0	0	0	0	0	0	0	0
082812	18:10:29	10036	Trial2BackFr	N	3	0	1000	1	19	18:10:29	2041268	0	0	0	0	0	0	0	0	0	0	0	0	0	0	0	0	0
082812	18:10:29	10036	Trial2BackFr	N	3	0	1000	1	20	18:10:29	2042787	0	0	0	0	0	0	0	0	0	0	0	0	0	0	0	0	0
082812	18:10:29	10036	Trial2BackFr	Y	3	0	1000	0	20	18:10:29	2044307	0	0	0	0	0	0	0	0	0	0	0	0	0	0	0	0	0
082812	18:10:29	10036	Trial2BackFr	N	3	0	1000	1	21	18:10:29	2045826	0	0	0	0	0	0	0	0	0	0	0	0	0	0	0	0	0
082812	18:10:29	10036	Trial2BackFr	N	3	0	1000	1	22	18:10:29	2047345	0	0	0	0	0	0	0	0	0	0	0	0	0	0	0	0	0
082812	18:10:29	10036	Trial2BackFr	N	3	0	1000	1	23	18:10:29	2048865	0	0	0	0	0	0	0	0	0	0	0	0	0	0	0	0	0
082812	18:10:29	10036	Trial2BackFr	N	3	0	1000	1	24	18:10:29	2050384	0	0	0	0	0	0	0	0	0	0	0	0	0	0	0	0	0
082812	18:10:29	10036	Trial2BackFr	N	3	0	1000	1	25	18:10:29	2051903	0	0	0	0	0	0	0	0	0	0	0	0	0	0	0	0	0
082812	18:10:29	10036	Trial2BackFr	N	3	57	23	0	25	18:10:29	2052450	0	0	0	0	0	0	0	0	0	0	0	0	0	0	0	0	0
082812	18:10:29	10036	Trial2BackFr	Y	3	0	1000	0	25	18:10:29	2054929	0	0	0	0	0	0	0	0	0	0	0	0	0	0	0	0	0
082812	18:10:29	10036	Trial2BackFr	N	3	57	198	0	25	18:10:29	2055648	0	0	0	0	0	0	0	0	0	0	0	0	0	0	0	0	0
082812	18:10:29	10036	Trial2BackFr	N	3	0	1000	1	26	18:10:29	2057954	0	0	0	0	0	0	0	0	0	0	0	0	0	0	0	0	0
082812	18:10:29	10036	Trial2BackFr	N	3	0	1000	1	27	18:10:29	2059474	0	0	0	0	0	0	0	0	0	0	0	0	0	0	0	0	0
082812	18:10:29	10036	Trial2BackFr	Y	3	0	1000	0	27	18:10:29	2060993	0	0	0	0	0	0	0	0	0	0	0	0	0	0	0	0	0
082812	18:10:29	10036	Trial2BackFr	N	3	0	1000	1	28	18:10:29	2062513	0	0	0	0	0	0	0	0	0	0	0	0	0	0	0	0	0
082812	18:10:29	10036	Trial2BackFr	N	3	0	1000	1	29	18:10:29	2064032	0	0	0	0	0	0	0	0	0	0	0	0	0	0	0	0	0
082812	18:10:29	10036	Trial2BackFr	N	3	0	1000	1	30	18:10:29	2065551	0	0	0	0	0	0	0	0	0	0	0	0	0	0	0	0	0
082812	18:10:29	10036	Trial2BackFr	N	3	0	1000	1	31	18:10:29	2067071	0	0	0	0	0	0	0	0	0	0	0	0	0	0	0	0	0
082812	18:10:29	10036	Trial2BackFr	N	3	0	1000	1	32	18:10:29	2068590	0	0	0	0	0	0	0	0	0	0	0	0	0	0	0	0	0
082812	18:10:29	10036	Trial2BackFr	N	3	57	968	0	32	18:10:29	2070083	0	0	0	0	0	0	0	0	0	0	0	0	0	0	0	0	0
082812	18:10:29	10036	Trial2BackFr	Y	3	0	1000	0	32	18:10:29	2071616	0	0	0	0	0	0	0	0	0	0	0	0	0	0	0	0	0
082812	18:10:29	10036	Trial2BackFr	N	3	0	1000	1	33	18:10:29	2073135	0	0	0	0	0	0	0	0	0	0	0	0	0	0	0	0	0
082812	18:10:29	10036	Trial2BackFr	N	3	0	1000	1	34	18:10:29	2074654	0	0	0	0	0	0	0	0	0	0	0	0	0	0	0	0	0
082812	18:10:29	10036	Trial2BackFr	N	3	0	1000	1	35	18:10:29	2076174	0	0	0	0	0	0	0	0	0	0	0	0	0	0	0	0	0
082812	18:10:29	10036	Trial2BackFr	N	3	0	1000	1	36	18:10:29	2077693	0	0	0	0	0	0	0	0	0	0	0	0	0	0	0	0	0
082812	18:10:29	10036	Trial2BackFr	Y	3	57	777	1	37	18:10:29	2078999	0	0	0	0	0	0	0	0	0	0	0	0	0	0	0	0	0
082812	18:10:29	10036	Trial2BackFr	N	3	0	1000	1	38	18:10:29	2080718	0	0	0	0	0	0	0	0	0	0	0	0	0	0	0	0	0
082812	18:10:29	10036	Trial2BackFr	N	3	0	1000	1	39	18:10:29	2082238	0	0	0	0	0	0	0	0	0	0	0	0	0	0	0	0	0
082812	18:10:29	10036	Trial2BackFr	N	3	0	1000	1	40	18:10:29	2083757	0	0	0	0	0	0	0	0	0	0	0	0	0	0	0	0	0
082812	18:10:29	10036	Trial2BackFr	N	3	0	1000	1	41	18:10:29	2085277	0	0	0	0	0	0	0	0	0	0	0	0	0	0	0	0	0
082812	18:10:29	10036	Trial2BackFr	N	3	0	1000	1	42	18:10:29	2086796	0	0	0	0	0	0	0	0	0	0	0	0	0	0	0	0	0
082812	18:10:29	10036	Trial2BackFr	Y	3	0	1000	0	42	18:10:29	2088315	0	0	0	0	0	0	0	0	0	0	0	0	0	0	0	0	0
082812	18:10:29	10036	Trial2BackFr	N	3	0	1000	1	43	18:10:29	2089835	0	0	0	0	0	0	0	0	0	0	0	0	0	0	0	0	0
082812	18:10:29	10036	Trial2BackFr	N	3	0	1000	1	44	18:10:29	2091354	0	0	0	0	0	0	0	0	0	0	0	0	0	0	0	0	0
082812	18:10:29	10036	Trial2BackFr	N	3	0	1000	1	45	18:10:29	2092874	0	0	0	0	0	0	0	0	0	0	0	0	0	0	0	0	0
082812	18:10:29	10036	Trial2BackFr	N	3	0	1000	1	46	18:10:29	2094393	0	0	0	0	0	0	0	0	0	0	0	0	0	0	0	0	0
082812	18:10:29	10036	Trial2BackFr	N	3	57	717	0	46	18:10:29	2095632	0	0	0	0	0	0	0	0	0	0	0	0	0	0	0	0	0
082812	18:10:29	10036	Trial2BackFr	N	3	0	1000	1	47	18:10:29	2097418	0	0	0	0	0	0	0	0	0	0	0	0	0	0	0	0	0
082812	18:10:29	10036	Trial2BackFr	Y	3	0	1000	0	47	18:10:29	2098938	0	0	0	0	0	0	0	0	0	0	0	0	0	0	0	0	0
082812	18:10:29	10036	Trial2BackFr	N	3	0	1000	1	48	18:10:29	2100457	0	0	0	0	0	0	0	0	0	0	0	0	0	0	0	0	0
082812	18:10:29	10036	Trial2BackFr	N	3	0	1000	1	49	18:10:29	2101977	0	0	0	0	0	0	0	0	0	0	0	0	0	0	0	0	0
082812	18:10:29	10036	Trial2BackFr	Y	3	57	861	1	50	18:10:29	2103363	0	0	0	0	0	0	0	0	0	0	0	0	0	0	0	0	0
082812	18:10:29	10036	Trial2BackFr	N	3	0	1000	1	51	18:10:29	2105002	0	0	0	0	0	0	0	0	0	0	0	0	0	0	0	0	0
082812	18:10:29	10036	Trial2BackFr	N	3	0	1000	1	52	18:10:29	2106521	0	0	0	0	0	0	0	0	0	0	0	0	0	0	0	0	0
082812	18:10:29	10036	Trial2BackFr	N	3	0	1000	1	53	18:10:29	2108041	0	0	0	0	0	0	0	0	0	0	0	0	0	0	0	0	0
082812	18:10:29	10036	Trial2BackFr	N	3	0	1000	1	54	18:10:29	2109560	0	0	0	0	0	0	0	0	0	0	0	0	0	0	0	0	0
082812	18:10:29	10036	Trial2BackFr	N	3	0	1000	1	55	18:10:29	2111080	0	0	0	0	0	0	0	0	0	0	0	0	0	0	0	0	0
082812	18:10:29	10036	Trial2BackFr	N	3	0	1000	1	56	18:10:29	2112599	0	0	0	0	0	0	0	0	0	0	0	0	0	0	0	0	0
082812	18:10:29	10036	Trial2BackFr	N	3	0	1000	1	57	18:10:29	2114118	0	0	0	0	0	0	0	0	0	0	0	0	0	0	0	0	0
082812	18:10:29	10036	Trial2BackFr	N	3	0	1000	1	58	18:10:29	2115638	0	0	0	0	0	0	0	0	0	0	0	0	0	0	0	0	0
082812	18:10:29	10036	Trial2BackFr	N	3	0	1000	1	59	18:10:29	2117157	0	0	0	0	0	0	0	0	0	0	0	0	0	0	0	0	0
082812	18:10:29	10036	Trial2BackFr	N	3	0	1000	1	60	18:10:29	2118676	0	0	0	0	0	0	0	0	0	0	0	0	0	0	0	0	0
082812	18:10:29	10036	Trial2BackFr	Y	3	0	1000	0	60	18:10:29	2120196	0	0	0	0	0	0	0	0	0	0	0	0	0	0	0	0	0
082812	18:10:29	10036	Trial2BackFr	N	3	0	1000	1	61	18:10:29	2121715	0	0	0	0	0	0	0	0	0	0	0	0	0	0	0	0	0
082812	18:10:29	10036	Trial2BackFr	N	3	0	1000	1	62	18:10:29	2123235	0	0	0	0	0	0	0	0	0	0	0	0	0	0	0	0	0
082812	18:10:29	10036	Trial2BackFr	N	3	0	1000	1	63	18:10:29	2124754	0	0	0	0	0	0	0	0	0	0	0	0	0	0	0	0	0
082812	18:10:29	10036	Trial2BackFr	Y	3	57	963	1	64	18:10:29	2126247	0	0	0	0	0	0	0	0	0	0	0	0	0	0	0	0	0
082812	18:10:29	10036	Trial2BackFr	N	3	0	1000	1	65	18:10:29	2127780	0	0	0	0	0	0	0	0	0	0	0	0	0	0	0	0	0
082812	18:10:29	10036	Trial2BackFr	N	3	0	1000	1	66	18:10:29	2129299	0	0	0	0	0	0	0	0	0	0	0	0	0	0	0	0	0
082812	18:10:29	10036	Trial2BackFr	N	3	0	1000	1	67	18:10:29	2130818	0	0	0	0	0	0	0	0	0	0	0	0	0	0	0	0	0
082812	18:10:29	10036	Trial2BackFr	N	3	0	1000	1	68	18:10:29	2132338	0	0	0	0	0	0	0	0	0	0	0	0	0	0	0	0	0
082812	18:10:29	10036	Trial2BackFr	N	3	0	1000	1	69	18:10:29	2133857	0	0	0	0	0	0	0	0	0	0	0	0	0	0	0	0	0
082812	18:10:29	10036	Trial2BackFr	Y	3	57	691	1	70	18:10:29	2135083	0	0	0	0	0	0	0	0	0	0	0	0	0	0	0	0	0
082812	18:10:29	10036	Trial2BackFr	N	3	0	1000	1	71	18:10:29	2136883	0	0	0	0	0	0	0	0	0	0	0	0	0	0	0	0	0
082812	18:10:29	10036	Trial2BackFr	N	3	0	1000	1	72	18:10:29	2138402	0	0	0	0	0	0	0	0	0	0	0	0	0	0	0	0	0
082812	18:10:29	10036	Trial2BackFr	N	3	0	1000	1	73	18:10:29	2139921	0	0	0	0	0	0	0	0	0	0	0	0	0	0	0	0	0
082812	18:10:29	10036	Trial2BackFr	N	3	0	1000	1	74	18:10:29	2141441	0	0	0	0	0	0	0	0	0	0	0	0	0	0	0	0	0
082812	18:10:29	10036	Trial2BackFr	N	3	0	1000	1	75	18:10:29	2142960	0	0	0	0	0	0	0	0	0	0	0	0	0	0	0	0	0
082812	18:10:29	10036	Trial2BackFr	N	3	0	1000	1	76	18:10:29	2144479	0	0	0	0	0	0	0	0	0	0	0	0	0	0	0	0	0
082812	18:10:29	10036	Trial2BackFr	N	3	0	1000	1	77	18:10:29	2145999	0	0	0	0	0	0	0	0	0	0	0	0	0	0	0	0	0
082812	18:10:29	10036	Trial2BackFr	N	3	0	1000	1	78	18:10:29	2147518	0	0	0	0	0	0	0	0	0	0	0	0	0	0	0	0	0
082812	18:10:29	10036	Trial2BackFr	N	3	0	1000	1	79	18:10:29	2149038	0	0	0	0	0	0	0	0	0	0	0	0	0	0	0	0	0
082812	18:10:29	10036	Trial2BackFr	Y	3	0	1000	0	79	18:10:29	2150557	0	0	0	0	0	0	0	0	0	0	0	0	0	0	0	0	0
082812	18:10:29	10036	Trial2BackFr	N	3	0	1000	1	80	18:10:29	2152076	0	0	0	0	0	0	0	0	0	0	0	0	0	0	0	0	0
082812	18:10:29	10036	Trial2BackFr	N	3	0	1000	1	81	18:10:29	2153596	0	0	0	0	0	0	0	0	0	0	0	0	0	0	0	0	0
082812	18:10:29	10036	Trial2BackFr	N	3	0	1000	1	82	18:10:29	2155115	0	0	0	0	0	0	0	0	0	0	0	0	0	0	0	0	0
082812	18:10:29	10036	Trial2BackFr	N	3	0	1000	1	83	18:10:29	2156634	0	0	0	0	0	0	0	0	0	0	0	0	0	0	0	0	0
082812	18:10:29	10036	Trial2BackFr	N	3	0	1000	1	84	18:10:29	2158154	0	0	0	0	0	0	0	0	0	0	0	0	0	0	0	0	0
082812	18:10:29	10036	Trial2BackFr	N	3	0	1000	1	85	18:10:29	2159673	0	0	0	0	0	0	0	0	0	0	0	0	0	0	0	0	0
082812	18:10:29	10036	Trial2BackFr	N	3	0	1000	1	86	18:10:29	2161193	0	0	0	0	0	0	0	0	0	0	0	0	0	0	0	0	0
082812	18:10:29	10036	Trial2BackFr	N	3	0	1000	1	87	18:10:29	2162712	0	0	0	0	0	0	0	0	0	0	0	0	0	0	0	0	0
082812	18:10:29	10036	Trial2BackFr	Y	3	0	1000	0	87	18:10:29	2164231	0	0	0	0	0	0	0	0	0	0	0	0	0	0	0	0	0
082812	18:10:29	10036	Trial2BackFr	N	3	0	1000	1	88	18:10:29	2165751	0	0	0	0	0	0	0	0	0	0	0	0	0	0	0	0	0
082812	18:10:29	10036	Trial2BackFr	N	3	0	1000	1	89	18:10:29	2167270	0	0	0	0	0	0	0	0	0	0	0	0	0	0	0	0	0
082812	18:10:29	10036	Trial2BackFr	N	3	0	1000	1	90	18:10:29	2168790	0	0	0	0	0	0	0	0	0	0	0	0	0	0	0	0	0
082812	18:10:29	10036	Trial2BackFr	N	3	0	1000	1	91	18:10:29	2170309	0	0	0	0	0	0	0	0	0	0	0	0	0	0	0	0	0
082812	18:10:29	10036	Trial2BackFr	Y	3	57	783	1	92	18:10:29	2171615	0	0	0	0	0	0	0	0	0	0	0	0	0	0	0	0	0
082812	18:10:29	10036	Trial2BackFr	N	3	0	1000	1	93	18:10:29	2173334	0	0	0	0	0	0	0	0	0	0	0	0	0	0	0	0	0
082812	18:10:29	10036	Trial2BackFr	N	3	0	1000	1	94	18:10:29	2174854	0	0	0	0	0	0	0	0	0	0	0	0	0	0	0	0	0
082812	18:10:29	10036	Trial2BackFr	N	3	0	1000	1	95	18:10:29	2176373	0	0	0	0	0	0	0	0	0	0	0	0	0	0	0	0	0
082812	18:10:29	10036	Trial2BackFr	Y	3	0	1000	0	95	18:10:29	2177893	0	0	0	0	0	0	0	0	0	0	0	0	0	0	0	0	0
082812	18:10:29	10036	Trial2BackFr	N	3	0	1000	1	96	18:10:29	2179412	0	0	0	0	0	0	0	0	0	0	0	0	0	0	0	0	0
082812	18:10:29	10036	Trial2BackFr	N	3	0	1000	1	97	18:10:29	2180931	0	0	0	0	0	0	0	0	0	0	0	0	0	0	0	0	0
082812	18:10:29	10036	Trial2BackFr	N	3	0	1000	1	98	18:10:29	2182451	0	0	0	0	0	0	0	0	0	0	0	0	0	0	0	0	0
082812	18:10:29	10036	Trial2BackFr	N	3	0	1000	1	99	18:10:29	2183970	0	0	0	0	0	0	0	0	0	0	0	0	0	0	0	0	0
082812	18:10:29	10036	Trial2BackFr	N	3	0	1000	1	100	18:10:29	2185490	0	0	0	0	0	0	0	0	0	0	0	0	0	0	0	0	0
082812	18:10:29	10036	Trial2BackFr	Y	3	0	1000	0	100	18:10:29	2187009	0	0	0	0	0	0	0	0	0	0	0	0	0	0	0	0	0
082812	18:10:29	10036	Trial2BackFr	N	3	0	1000	1	101	18:10:29	2188528	0	0	0	0	0	0	0	0	0	0	0	0	0	0	0	0	0
082812	18:10:29	10036	Trial2BackFr	N	3	0	1000	1	102	18:10:29	2190048	0	0	0	0	0	0	0	0	0	0	0	0	0	0	0	0	0
082812	18:10:29	10036	Trial2BackFr	N	3	0	1000	1	103	18:10:29	2191567	0	0	0	0	0	0	0	0	0	0	0	0	0	0	0	0	0
082812	18:10:29	10036	Trial2BackFr	Y	3	0	1000	0	103	18:10:29	2193086	0	0	0	0	0	0	0	0	0	0	0	0	0	0	0	0	0
082812	18:10:29	10036	Memory1RBaselineFr	ScoreFr	5	M8	20948	0	103	18:10:29	2273814	0	0	0	0	0	0	0	0	0	0	0	0	0	0	0	0	0
082812	18:10:29	10036	Memory1RBaselineFr	ScoreFr	5	Done	557	0	103	18:10:29	2274414	0	0	0	0	0	0	0	0	0	0	0	0	0	0	0	0	0
082812	18:10:29	10036	Memory2RBaselineFr	ScoreFr2	5	33	24586	0	103	18:10:29	2329925	0	0	0	0	0	0	0	0	0	0	0	0	0	0	0	0	0
082812	18:10:29	10036	Memory2RBaselineFr	ScoreFr2	5	55	1765	0	103	18:10:29	2331724	0	0	0	0	0	0	0	0	0	0	0	0	0	0	0	0	0
082812	18:10:29	10036	Memory2RBaselineFr	ScoreFr2	5	66	1134	0	103	18:10:29	2332897	0	0	0	0	0	0	0	0	0	0	0	0	0	0	0	0	0
082812	18:10:29	10036	Memory2RBaselineFr	ScoreFr2	5	77	209	0	103	18:10:29	2333150	0	0	0	0	0	0	0	0	0	0	0	0	0	0	0	0	0
082812	18:10:29	10036	Memory2RBaselineFr	ScoreFr2	5	88	507	0	103	18:10:29	2333696	0	0	0	0	0	0	0	0	0	0	0	0	0	0	0	0	0
082812	18:10:29	10036	Memory2RBaselineFr	ScoreFr2	5	Done	1033	0	103	18:10:29	2334776	0	0	0	0	0	0	0	0	0	0	0	0	0	0	0	0	0
082812	18:10:29	10036	Memory3RBaselineFr	ScoreFr3	5	111	45479	0	103	18:10:29	2401202	0	0	0	0	0	0	0	0	0	0	0	0	0	0	0	0	0
082812	18:10:29	10036	Memory3RBaselineFr	ScoreFr3	5	222	253	0	103	18:10:29	2401496	0	0	0	0	0	0	0	0	0	0	0	0	0	0	0	0	0
082812	18:10:29	10036	Memory3RBaselineFr	ScoreFr3	5	333	352	0	103	18:10:29	2401882	0	0	0	0	0	0	0	0	0	0	0	0	0	0	0	0	0
082812	18:10:29	10036	Memory3RBaselineFr	ScoreFr3	5	555	1957	0	103	18:10:29	2403881	0	0	0	0	0	0	0	0	0	0	0	0	0	0	0	0	0
082812	18:10:29	10036	Memory3RBaselineFr	ScoreFr3	5	666	207	0	103	18:10:29	2404134	0	0	0	0	0	0	0	0	0	0	0	0	0	0	0	0	0
082812	18:10:29	10036	Memory3RBaselineFr	ScoreFr3	5	888	793	0	103	18:10:29	2404974	0	0	0	0	0	0	0	0	0	0	0	0	0	0	0	0	0
082812	18:10:29	10036	Memory3RBaselineFr	ScoreFr3	5	777	19769	0	103	18:10:29	2424779	0	0	0	0	0	0	0	0	0	0	0	0	0	0	0	0	0
082812	18:10:29	10036	Memory3RBaselineFr	ScoreFr3	5	Done	18779	0	103	18:10:29	2443598	0	0	0	0	0	0	0	0	0	0	0	0	0	0	0	0	0
082812	18:10:29	10036	LoriaFrLH3	Stop	6	5	4029	0	103	18:10:29	2531671	0	0	0	0	0	0	0	0	0	0	0	0	0	0	0	0	0
082812	18:10:29	10036	FrTrail	Trails	7	1Trails	809	0	103	18:10:29	2635574	0	0	0	0	0	0	0	0	0	0	0	0	0	0	0	0	0
082812	18:10:29	10036	Serial7FrBaseline	Serial7FrBaseline	8	83	2713	0	103	18:10:29	2706133	1	0	0	0	0	0	0	0	0	0	0	0	0	0	0	0	0
082812	18:10:29	10036	Serial7FrBaseline	Serial7FrBaseline	8	77	2039	0	103	18:10:29	2708199	1	0	0	0	0	0	0	0	0	0	0	0	0	0	0	0	0
082812	18:10:29	10036	Serial7FrBaseline	Serial7FrBaseline	8	70	1686	0	103	18:10:29	2709905	2	0	0	0	0	0	0	0	0	0	0	0	0	0	0	0	0
082812	18:10:29	10036	Serial7FrBaseline	Serial7FrBaseline	8	63	3356	0	103	18:10:29	2713277	3	0	0	0	0	0	0	0	0	0	0	0	0	0	0	0	0
082812	18:10:29	10036	Serial7FrBaseline	Serial7FrBaseline	8	56	2576	0	103	18:10:29	2715877	4	0	0	0	0	0	0	0	0	0	0	0	0	0	0	0	0
082812	18:10:29	10036	corsiblockFrFwrd	recallseqFrFwrd	9	6	11371	0	103	18:10:29	2772493	4	0	0	0	0	0	0	0	0	0	0	0	0	0	0	0	0
082812	18:10:29	10036	corsiblockFrFwrd	recallseqFrFwrd	9	5	6482	0	103	18:10:29	2779011	4	0	0	0	0	0	0	0	0	0	0	0	0	0	0	0	0
082812	18:10:29	10036	corsiblockFrFwrd	recallseqFrFwrd	9	doneCorsiFr	7661	0	103	18:10:29	2786714	4	0	0	0	0	0	0	0	0	0	0	0	0	0	0	2	0
082812	18:10:29	10036	corsiblockFrFwrd	recallseqFrFwrd	9	4	2977	0	103	18:10:29	2795777	4	0	0	0	0	0	0	0	0	0	0	0	0	0	0	2	0
082812	18:10:29	10036	corsiblockFrFwrd	recallseqFrFwrd	9	7	1887	0	103	18:10:29	2797696	4	0	0	0	0	0	0	0	0	0	0	0	0	0	0	2	0
082812	18:10:29	10036	corsiblockFrFwrd	recallseqFrFwrd	9	9	1278	0	103	18:10:29	2799016	4	0	0	0	0	0	0	0	0	0	0	0	0	0	0	2	0
082812	18:10:29	10036	corsiblockFrFwrd	recallseqFrFwrd	9	doneCorsiFr	2351	0	103	18:10:29	2801402	4	0	0	0	0	0	0	0	0	0	0	0	0	0	0	3	0
082812	18:10:29	10036	corsiblockFrFwrd	recallseqFrFwrd	9	3	1258	0	103	18:10:29	2809745	4	0	0	0	0	0	0	0	0	0	0	0	0	0	0	3	0
082812	18:10:29	10036	corsiblockFrFwrd	recallseqFrFwrd	9	2	1653	0	103	18:10:29	2811438	4	0	0	0	0	0	0	0	0	0	0	0	0	0	0	3	0
082812	18:10:29	10036	corsiblockFrFwrd	recallseqFrFwrd	9	8	1609	0	103	18:10:29	2813090	4	0	0	0	0	0	0	0	0	0	0	0	0	0	0	3	0
082812	18:10:29	10036	corsiblockFrFwrd	recallseqFrFwrd	9	doneCorsiFr	1556	0	103	18:10:29	2814690	4	0	0	0	0	0	0	0	0	0	0	0	0	0	0	3	0
082812	18:10:29	10036	corsiblockFrFwrd	recallseqFrFwrd	9	9	1483	0	103	18:10:29	2823219	4	0	0	0	0	0	0	0	0	0	0	0	0	0	0	3	0
082812	18:10:29	10036	corsiblockFrFwrd	recallseqFrFwrd	9	2	1387	0	103	18:10:29	2824646	4	0	0	0	0	0	0	0	0	0	0	0	0	0	0	3	0
082812	18:10:29	10036	corsiblockFrFwrd	recallseqFrFwrd	9	3	1393	0	103	18:10:29	2826072	4	0	0	0	0	0	0	0	0	0	0	0	0	0	0	3	0
082812	18:10:29	10036	corsiblockFrFwrd	recallseqFrFwrd	9	8	1663	0	103	18:10:29	2827778	4	0	0	0	0	0	0	0	0	0	0	0	0	0	0	3	0
082812	18:10:29	10036	corsiblockFrFwrd	recallseqFrFwrd	9	doneCorsiFr	1595	0	103	18:10:29	2829417	4	0	0	0	0	0	0	0	0	0	0	0	0	0	0	3	0
082812	18:10:29	10036	corsiblockFrRev	recallseqFrRev	10	5	15296	0	103	18:10:29	2875105	4	0	0	0	0	0	0	0	0	0	0	0	0	0	0	3	0
082812	18:10:29	10036	corsiblockFrRev	recallseqFrRev	10	2	1956	0	103	18:10:29	2877104	4	0	0	0	0	0	0	0	0	0	0	0	0	0	0	3	0
082812	18:10:29	10036	corsiblockFrRev	recallseqFrRev	10	doneCorsiFr	2653	0	103	18:10:29	2879796	4	0	0	0	0	0	0	0	0	0	0	0	0	0	0	3	2
082812	18:10:29	10036	corsiblockFrRev	recallseqFrRev	10	7	1677	0	103	18:10:29	2887567	4	0	0	0	0	0	0	0	0	0	0	0	0	0	0	3	2
082812	18:10:29	10036	corsiblockFrRev	recallseqFrRev	10	4	2366	0	103	18:10:29	2889979	4	0	0	0	0	0	0	0	0	0	0	0	0	0	0	3	2
082812	18:10:29	10036	corsiblockFrRev	recallseqFrRev	10	1	1378	0	103	18:10:29	2891392	4	0	0	0	0	0	0	0	0	0	0	0	0	0	0	3	2
082812	18:10:29	10036	corsiblockFrRev	recallseqFrRev	10	doneCorsiFr	3525	0	103	18:10:29	2894950	4	0	0	0	0	0	0	0	0	0	0	0	0	0	0	3	2
082812	18:10:29	10036	corsiblockFrRev	recallseqFrRev	10	8	987	0	103	18:10:29	2901988	4	0	0	0	0	0	0	0	0	0	0	0	0	0	0	3	2
082812	18:10:29	10036	corsiblockFrRev	recallseqFrRev	10	9	1017	0	103	18:10:29	2903040	4	0	0	0	0	0	0	0	0	0	0	0	0	0	0	3	2
082812	18:10:29	10036	corsiblockFrRev	recallseqFrRev	10	6	1260	0	103	18:10:29	2904360	4	0	0	0	0	0	0	0	0	0	0	0	0	0	0	3	2
082812	18:10:29	10036	corsiblockFrRev	recallseqFrRev	10	doneCorsiFr	3277	0	103	18:10:29	2907679	4	0	0	0	0	0	0	0	0	0	0	0	0	0	0	3	2
082812	18:10:29	10036	testFrBaseline	WordsFrBaseline	11	1FrBaseline	1049	0	103	18:10:29	2948263	4	1	0	0	0	0	0	0	0	0	0	0	0	0	0	3	2
082812	18:10:29	10036	testFrBaseline	WordsFrBaseline	11	2FrBaseline	222	0	103	18:10:29	2948529	4	1	1	0	0	0	0	0	0	0	0	0	0	0	0	3	2
082812	18:10:29	10036	testFrBaseline	WordsFrBaseline	11	3FrBaseline	315	0	103	18:10:29	2948889	4	1	1	1	0	0	0	0	0	0	0	0	0	0	0	3	2
082812	18:10:29	10036	testFrBaseline	WordsFrBaseline	11	4FrBaseline	323	0	103	18:10:29	2949249	4	1	1	1	1	0	0	0	0	0	0	0	0	0	0	3	2
082812	18:10:29	10036	testFrBaseline	WordsFrBaseline	11	5FrBaseline	1011	0	103	18:10:29	2950302	4	1	1	1	1	1	0	0	0	0	0	0	0	0	0	3	2
082812	18:10:29	10036	testFrBaseline	WordsFrBaseline	11	6FrBaseline	262	0	103	18:10:29	2950608	4	1	1	1	1	1	1	0	0	0	0	0	0	0	0	3	2
082812	18:10:29	10036	testFrBaseline	WordsFrBaseline	11	7FrBaseline	356	0	103	18:10:29	2951008	4	1	1	1	1	1	1	1	0	0	0	0	0	0	0	3	2
082812	18:10:29	10036	testFrBaseline	WordsFrBaseline	11	8FrBaseline	356	0	103	18:10:29	2951408	4	1	1	1	1	1	1	1	1	0	0	0	0	0	0	3	2
082812	18:10:29	10036	testFrBaseline	WordsFrBaseline	11	DoneFrBaseline	2964	0	103	18:10:29	2954406	4	1	1	1	1	1	1	1	1	0	0	0	0	0	0	3	2
082812	18:10:29	10036	DigitSpanFwrdFrBaseline	Score1FwrdFrBaseline	12	DS1	5922	0	103	18:10:29	2993670	4	1	1	1	1	1	1	1	1	0	0	0	0	0	0	3	2
082812	18:10:29	10036	DigitSpanFwrdFrBaseline	Gate1FwrdFrBaseline	12	0	1	0	103	18:10:29	2993686	4	1	1	1	1	1	1	1	1	3	0	0	0	0	0	3	2
082812	18:10:29	10036	DigitSpanFwrdFrBaseline	Score2FwrdFrBaseline	12	DS1	4991	0	103	18:10:29	3004852	4	1	1	1	1	1	1	1	1	3	0	0	0	0	0	3	2
082812	18:10:29	10036	DigitSpanFwrdFrBaseline	Gate3FwrdFrBaseline	12	0	1	0	103	18:10:29	3004868	4	1	1	1	1	1	1	1	1	4	0	0	0	0	0	3	2
082812	18:10:29	10036	DigitSpanFwrdFrBaseline	Score3FwrdFrBaseline	12	DS2	8068	0	103	18:10:29	3019886	4	1	1	1	1	1	1	1	1	4	0	0	0	0	0	3	2
082812	18:10:29	10036	DigitSpanFwrdFrBaseline	Gate5FwrdFrBaseline	12	0	1	0	103	18:10:29	3019902	4	1	1	1	1	1	1	1	1	4	0	0	0	0	0	3	2
082812	18:10:29	10036	DigitSpanFwrdFrBaseline	Score33FwrdFrBaseline	12	DS2	13282	0	103	18:10:29	3041611	4	1	1	1	1	1	1	1	1	4	0	0	0	0	0	3	2
082812	18:10:29	10036	DigitSpanFrBaseline	Score1FrBaseline	13	DS1	7937	0	103	18:10:29	3074411	4	1	1	1	1	1	1	1	1	4	0	0	0	0	0	3	2
082812	18:10:29	10036	DigitSpanFrBaseline	Gate1FrBaseline	13	0	1	0	103	18:10:29	3074426	4	1	1	1	1	1	1	1	1	4	2	0	0	0	0	3	2
082812	18:10:29	10036	DigitSpanFrBaseline	Score2FrBaseline	13	DS2	9720	0	103	18:10:29	3088645	4	1	1	1	1	1	1	1	1	4	2	0	0	0	0	3	2
082812	18:10:29	10036	DigitSpanFrBaseline	Gate3FrBaseline	13	0	1	0	103	18:10:29	3088661	4	1	1	1	1	1	1	1	1	4	2	0	0	0	0	3	2
082812	18:10:29	10036	DigitSpanFrBaseline	Score22FrBaseline	13	DS1	4779	0	103	18:10:29	3098081	4	1	1	1	1	1	1	1	1	4	2	0	0	0	0	3	2
082812	18:10:29	10036	DigitSpanFrBaseline	Gate4FrBaseline	13	0	1	0	103	18:10:29	3098098	4	1	1	1	1	1	1	1	1	4	3	0	0	0	0	3	2
082812	18:10:29	10036	DigitSpanFrBaseline	Score3FrBaseline	13	DS1	10916	0	103	18:10:29	3114728	4	1	1	1	1	1	1	1	1	4	3	0	0	0	0	3	2
082812	18:10:29	10036	DigitSpanFrBaseline	Gate5FrBaseline	13	0	1	0	103	18:10:29	3114743	4	1	1	1	1	1	1	1	1	4	4	0	0	0	0	3	2
082812	18:10:29	10036	DigitSpanFrBaseline	Score4FrBaseline	13	DS2	21454	0	103	18:10:29	3143463	4	1	1	1	1	1	1	1	1	4	4	0	0	0	0	3	2
082812	18:10:29	10036	DigitSpanFrBaseline	Gate7FrBaseline	13	0	1	0	103	18:10:29	3143479	4	1	1	1	1	1	1	1	1	4	4	0	0	0	0	3	2
082812	18:10:29	10036	DigitSpanFrBaseline	Score44FrBaseline	13	DS1	12089	0	103	18:10:29	3162815	4	1	1	1	1	1	1	1	1	4	4	0	0	0	0	3	2
082812	18:10:29	10036	DigitSpanFrBaseline	Gate8FrBaseline	13	0	1	0	103	18:10:29	3162830	4	1	1	1	1	1	1	1	1	4	5	0	0	0	0	3	2
082812	18:10:29	10036	DigitSpanFrBaseline	Score5FrBaseline	13	DS2	15083	0	103	18:10:29	3186725	4	1	1	1	1	1	1	1	1	4	5	0	0	0	0	3	2
082812	18:10:29	10036	DigitSpanFrBaseline	Gate9FrBaseline	13	0	1	0	103	18:10:29	3186741	4	1	1	1	1	1	1	1	1	4	5	0	0	0	0	3	2
082812	18:10:29	10036	DigitSpanFrBaseline	Score55FrBaseline	13	DS2	11695	0	103	18:10:29	3207264	4	1	1	1	1	1	1	1	1	4	5	0	0	0	0	3	2
082812	18:10:29	10036	Trial	IncongruentRight	14	0	737	0	103	18:10:29	3309609	4	1	1	1	1	1	1	1	1	4	5	0	0	0	0	3	2
082812	18:10:29	10036	Trial	IncongruentLeft	14	0	737	0	103	18:10:29	3310622	4	1	1	1	1	1	1	1	1	4	5	0	0	0	0	3	2
082812	18:10:29	10036	Trial	CongruentRight	14	0	737	0	103	18:10:29	3311635	4	1	1	1	1	1	1	1	1	4	5	0	0	0	0	3	2
082812	18:10:29	10036	Trial	IncongruentRight	14	0	737	0	103	18:10:29	3312647	4	1	1	1	1	1	1	1	1	4	5	0	0	0	0	3	2
082812	18:10:29	10036	Trial	CongruentLeft	14	0	737	0	103	18:10:29	3313660	4	1	1	1	1	1	1	1	1	4	5	0	0	0	0	3	2
082812	18:10:29	10036	Trial	CongruentRight	14	0	737	0	103	18:10:29	3314673	4	1	1	1	1	1	1	1	1	4	5	0	0	0	0	3	2
082812	18:10:29	10036	Trial	IncongruentRight	14	0	737	0	103	18:10:29	3315686	4	1	1	1	1	1	1	1	1	4	5	0	0	0	0	3	2
082812	18:10:29	10036	Trial	CongruentLeft	14	0	737	0	103	18:10:29	3316699	4	1	1	1	1	1	1	1	1	4	5	0	0	0	0	3	2
082812	18:10:29	10036	Trial	IncongruentLeft	14	0	737	0	103	18:10:29	3317712	4	1	1	1	1	1	1	1	1	4	5	0	0	0	0	3	2
082812	18:10:29	10036	Trial	IncongruentLeft	14	0	737	0	103	18:10:29	3318725	4	1	1	1	1	1	1	1	1	4	5	0	0	0	0	3	2
082812	18:10:29	10036	Trial	CongruentRight	14	203	145	0	103	18:10:29	3319152	4	1	1	1	1	1	1	1	1	4	5	0	0	0	0	3	2
082812	18:10:29	10036	Trial	IncongruentRight	14	205	649	1	103	18:10:29	3320644	4	1	1	1	1	1	1	1	1	4	5	0	0	0	0	3	2
082812	18:10:29	10036	Trial	CongruentLeft	14	0	737	0	103	18:10:29	3321737	4	1	1	1	1	1	1	1	1	4	5	0	0	0	0	3	2
082812	18:10:29	10036	Trial	CongruentRight	14	205	685	1	103	18:10:29	3322697	4	1	1	1	1	1	1	1	1	4	5	0	0	0	0	3	2
082812	18:10:29	10036	Trial	IncongruentLeft	14	203	597	1	103	18:10:29	3323603	4	1	1	1	1	1	1	1	1	4	5	0	0	0	0	3	2
082812	18:10:29	10036	Trial	IncongruentRight	14	205	365	1	103	18:10:29	3324376	4	1	1	1	1	1	1	1	1	4	5	0	0	0	0	3	2
082812	18:10:29	10036	Trial	CongruentRight	14	205	712	1	103	18:10:29	3325736	4	1	1	1	1	1	1	1	1	4	5	0	0	0	0	3	2
082812	18:10:29	10036	Trial	CongruentLeft	14	203	544	1	103	18:10:29	3326575	4	1	1	1	1	1	1	1	1	4	5	0	0	0	0	3	2
082812	18:10:29	10036	Trial	CongruentRight	14	0	737	0	103	18:10:29	3327748	4	1	1	1	1	1	1	1	1	4	5	0	0	0	0	3	2
082812	18:10:29	10036	Trial	IncongruentRight	14	0	737	0	103	18:10:29	3328761	4	1	1	1	1	1	1	1	1	4	5	0	0	0	0	3	2
082812	18:10:29	10036	Trial	IncongruentLeft	14	203	589	1	103	18:10:29	3329627	4	1	1	1	1	1	1	1	1	4	5	0	0	0	0	3	2
082812	18:10:29	10036	Trial	IncongruentLeft	14	203	613	1	103	18:10:29	3330654	4	1	1	1	1	1	1	1	1	4	5	0	0	0	0	3	2
082812	18:10:29	10036	Trial	CongruentLeft	14	0	737	0	103	18:10:29	3331773	4	1	1	1	1	1	1	1	1	4	5	0	0	0	0	3	2
082812	18:10:29	10036	Trial	CongruentRight	14	205	584	1	103	18:10:29	3332639	4	1	1	1	1	1	1	1	1	4	5	0	0	0	0	3	2
082812	18:10:29	10036	Trial	IncongruentLeft	14	0	737	0	103	18:10:29	3333786	4	1	1	1	1	1	1	1	1	4	5	0	0	0	0	3	2
082812	18:10:29	10036	Trial	IncongruentRight	14	0	737	0	103	18:10:29	3334799	4	1	1	1	1	1	1	1	1	4	5	0	0	0	0	3	2
082812	18:10:29	10036	Trial	CongruentRight	14	205	583	1	103	18:10:29	3335652	4	1	1	1	1	1	1	1	1	4	5	0	0	0	0	3	2
082812	18:10:29	10036	Trial	CongruentLeft	14	203	511	1	103	18:10:29	3336584	4	1	1	1	1	1	1	1	1	4	5	0	0	0	0	3	2
082812	18:10:29	10036	Trial	IncongruentRight	14	205	567	1	103	18:10:29	3337637	4	1	1	1	1	1	1	1	1	4	5	0	0	0	0	3	2
082812	18:10:29	10036	Trial	IncongruentLeft	14	203	563	1	103	18:10:29	3338650	4	1	1	1	1	1	1	1	1	4	5	0	0	0	0	3	2
082812	18:10:29	10036	Trial	IncongruentRight	14	205	507	1	103	18:10:29	3339597	4	1	1	1	1	1	1	1	1	4	5	0	0	0	0	3	2
082812	18:10:29	10036	Trial	CongruentRight	14	205	659	1	103	18:10:29	3340743	4	1	1	1	1	1	1	1	1	4	5	0	0	0	0	3	2
082812	18:10:29	10036	Trial	IncongruentLeft	14	203	556	1	103	18:10:29	3341636	4	1	1	1	1	1	1	1	1	4	5	0	0	0	0	3	2
082812	18:10:29	10036	Trial	CongruentLeft	14	203	548	1	103	18:10:29	3342635	4	1	1	1	1	1	1	1	1	4	5	0	0	0	0	3	2
082812	18:10:29	10036	Trial	CongruentRight	14	205	525	1	103	18:10:29	3343608	4	1	1	1	1	1	1	1	1	4	5	0	0	0	0	3	2
082812	18:10:29	10036	Trial	IncongruentLeft	14	203	629	1	103	18:10:29	3344715	4	1	1	1	1	1	1	1	1	4	5	0	0	0	0	3	2
082812	18:10:29	10036	Trial	IncongruentRight	14	0	737	0	103	18:10:29	3345808	4	1	1	1	1	1	1	1	1	4	5	0	0	0	0	3	2
082812	18:10:29	10036	Trial	IncongruentRight	14	205	629	1	103	18:10:29	3346714	4	1	1	1	1	1	1	1	1	4	5	0	0	0	0	3	2
082812	18:10:29	10036	Trial	CongruentLeft	14	203	574	1	103	18:10:29	3347660	4	1	1	1	1	1	1	1	1	4	5	0	0	0	0	3	2
082812	18:10:29	10036	Trial	IncongruentLeft	14	203	598	1	103	18:10:29	3348686	4	1	1	1	1	1	1	1	1	4	5	0	0	0	0	3	2
082812	18:10:29	10036	Trial	CongruentRight	14	205	641	1	103	18:10:29	3349739	4	1	1	1	1	1	1	1	1	4	5	0	0	0	0	3	2
082812	18:10:29	10036	Trial	CongruentLeft	14	0	737	0	103	18:10:29	3350819	4	1	1	1	1	1	1	1	1	4	5	0	0	0	0	3	2
082812	18:10:29	10036	Trial	IncongruentRight	14	0	737	0	103	18:10:29	3351832	4	1	1	1	1	1	1	1	1	4	5	0	0	0	0	3	2
082812	18:10:29	10036	Trial	CongruentRight	14	205	605	1	103	18:10:29	3352711	4	1	1	1	1	1	1	1	1	4	5	0	0	0	0	3	2
082812	18:10:29	10036	Trial	IncongruentLeft	14	203	582	1	103	18:10:29	3353684	4	1	1	1	1	1	1	1	1	4	5	0	0	0	0	3	2
082812	18:10:29	10036	Trial	CongruentLeft	14	203	414	1	103	18:10:29	3354524	4	1	1	1	1	1	1	1	1	4	5	0	0	0	0	3	2
082812	18:10:29	10036	Trial	IncongruentLeft	14	203	505	1	103	18:10:29	3355630	4	1	1	1	1	1	1	1	1	4	5	0	0	0	0	3	2
082812	18:10:29	10036	Trial	IncongruentRight	14	205	514	1	103	18:10:29	3356630	4	1	1	1	1	1	1	1	1	4	5	0	0	0	0	3	2
082812	18:10:29	10036	Trial	CongruentRight	14	205	506	1	103	18:10:29	3357629	4	1	1	1	1	1	1	1	1	4	5	0	0	0	0	3	2
082812	18:10:29	10036	Trial	CongruentLeft	14	203	626	1	103	18:10:29	3358749	4	1	1	1	1	1	1	1	1	4	5	0	0	0	0	3	2
082812	18:10:29	10036	Trial	CongruentLeft	14	0	737	0	103	18:10:29	3359842	4	1	1	1	1	1	1	1	1	4	5	0	0	0	0	3	2
082812	18:10:29	10036	Trial	IncongruentRight	14	205	659	1	103	18:10:29	3360775	4	1	1	1	1	1	1	1	1	4	5	0	0	0	0	3	2
082812	18:10:29	10036	Trial	IncongruentLeft	14	0	737	0	103	18:10:29	3361854	4	1	1	1	1	1	1	1	1	4	5	0	0	0	0	3	2
082812	18:10:29	10036	Trial	IncongruentRight	14	0	737	0	103	18:10:29	3362867	4	1	1	1	1	1	1	1	1	4	5	0	0	0	0	3	2
082812	18:10:29	10036	Trial	CongruentRight	14	205	673	1	103	18:10:29	3363814	4	1	1	1	1	1	1	1	1	4	5	0	0	0	0	3	2
082812	18:10:29	10036	Trial	CongruentRight	14	205	570	1	103	18:10:29	3364707	4	1	1	1	1	1	1	1	1	4	5	0	0	0	0	3	2
082812	18:10:29	10036	Trial	IncongruentLeft	14	203	661	1	103	18:10:29	3365813	4	1	1	1	1	1	1	1	1	4	5	0	0	0	0	3	2
082812	18:10:29	10036	Trial	CongruentLeft	14	0	737	0	103	18:10:29	3366879	4	1	1	1	1	1	1	1	1	4	5	0	0	0	0	3	2
082812	18:10:29	10036	Trial	CongruentRight	14	205	629	1	103	18:10:29	3367785	4	1	1	1	1	1	1	1	1	4	5	0	0	0	0	3	2
082812	18:10:29	10036	Trial	CongruentLeft	14	203	510	1	103	18:10:29	3368665	4	1	1	1	1	1	1	1	1	4	5	0	0	0	0	3	2
082812	18:10:29	10036	Trial	IncongruentRight	14	205	582	1	103	18:10:29	3369731	4	1	1	1	1	1	1	1	1	4	5	0	0	0	0	3	2
082812	18:10:29	10036	Trial	CongruentRight	14	205	545	1	103	18:10:29	3370717	4	1	1	1	1	1	1	1	1	4	5	0	0	0	0	3	2
082812	18:10:29	10036	Trial	CongruentLeft	14	203	601	1	103	18:10:29	3371770	4	1	1	1	1	1	1	1	1	4	5	0	0	0	0	3	2
082812	18:10:29	10036	Trial	IncongruentLeft	14	203	722	1	103	18:10:29	3372890	4	1	1	1	1	1	1	1	1	4	5	0	0	0	0	3	2
082812	18:10:29	10036	Trial	IncongruentLeft	14	203	698	1	103	18:10:29	3373863	4	1	1	1	1	1	1	1	1	4	5	0	0	0	0	3	2
082812	18:10:29	10036	Trial	CongruentRight	14	205	611	1	103	18:10:29	3374783	4	1	1	1	1	1	1	1	1	4	5	0	0	0	0	3	2
082812	18:10:29	10036	Trial	IncongruentRight	14	205	651	1	103	18:10:29	3375822	4	1	1	1	1	1	1	1	1	4	5	0	0	0	0	3	2
082812	18:10:29	10036	Trial	CongruentLeft	14	0	737	0	103	18:10:29	3376902	4	1	1	1	1	1	1	1	1	4	5	0	0	0	0	3	2
082812	18:10:29	10036	Trial	IncongruentRight	14	0	737	0	103	18:10:29	3377915	4	1	1	1	1	1	1	1	1	4	5	0	0	0	0	3	2
082812	18:10:29	10036	Trial	CongruentRight	14	0	737	0	103	18:10:29	3378927	4	1	1	1	1	1	1	1	1	4	5	0	0	0	0	3	2
082812	18:10:29	10036	Trial	IncongruentLeft	14	203	533	1	103	18:10:29	3379741	4	1	1	1	1	1	1	1	1	4	5	0	0	0	0	3	2
082812	18:10:29	10036	Trial	CongruentLeft	14	203	477	1	103	18:10:29	3380673	4	1	1	1	1	1	1	1	1	4	5	0	0	0	0	3	2
082812	18:10:29	10036	Trial	CongruentRight	14	205	470	1	103	18:10:29	3381673	4	1	1	1	1	1	1	1	1	4	5	0	0	0	0	3	2
082812	18:10:29	10036	Trial	IncongruentLeft	14	203	638	1	103	18:10:29	3382846	4	1	1	1	1	1	1	1	1	4	5	0	0	0	0	3	2
082812	18:10:29	10036	Trial	CongruentRight	14	205	585	1	103	18:10:29	3383806	4	1	1	1	1	1	1	1	1	4	5	0	0	0	0	3	2
082812	18:10:29	10036	Trial	CongruentRight	14	205	689	1	103	18:10:29	3384899	4	1	1	1	1	1	1	1	1	4	5	0	0	0	0	3	2
082812	18:10:29	10036	Trial	IncongruentRight	14	205	618	1	103	18:10:29	3385831	4	1	1	1	1	1	1	1	1	4	5	0	0	0	0	3	2
082812	18:10:29	10036	Trial	CongruentLeft	14	203	578	1	103	18:10:29	3386791	4	1	1	1	1	1	1	1	1	4	5	0	0	0	0	3	2
082812	18:10:29	10036	Trial	IncongruentLeft	14	203	523	1	103	18:10:29	3387737	4	1	1	1	1	1	1	1	1	4	5	0	0	0	0	3	2
082812	18:10:29	10036	Trial	CongruentLeft	14	203	499	1	103	18:10:29	3388710	4	1	1	1	1	1	1	1	1	4	5	0	0	0	0	3	2
082812	18:10:29	10036	Trial	IncongruentRight	14	205	492	1	103	18:10:29	3389710	4	1	1	1	1	1	1	1	1	4	5	0	0	0	0	3	2
082812	18:10:29	10036	Trial	IncongruentLeft	14	203	612	1	103	18:10:29	3390829	4	1	1	1	1	1	1	1	1	4	5	0	0	0	0	3	2
082812	18:10:29	10036	Trial	CongruentRight	14	205	636	1	103	18:10:29	3391843	4	1	1	1	1	1	1	1	1	4	5	0	0	0	0	3	2
082812	18:10:29	10036	Trial	CongruentLeft	14	0	737	0	103	18:10:29	3392935	4	1	1	1	1	1	1	1	1	4	5	0	0	0	0	3	2
082812	18:10:29	10036	Trial	IncongruentLeft	14	0	737	0	103	18:10:29	3393948	4	1	1	1	1	1	1	1	1	4	5	0	0	0	0	3	2
082812	18:10:29	10036	Trial	CongruentLeft	14	203	616	1	103	18:10:29	3394841	4	1	1	1	1	1	1	1	1	4	5	0	0	0	0	3	2
082812	18:10:29	10036	Trial	IncongruentRight	14	205	416	1	103	18:10:29	3395641	4	1	1	1	1	1	1	1	1	4	5	0	0	0	0	3	2
082812	18:10:29	10036	Trial	CongruentRight	14	205	425	1	103	18:10:29	3396654	4	1	1	1	1	1	1	1	1	4	5	0	0	0	0	3	2
082812	18:10:29	10036	Trial	IncongruentLeft	14	203	436	1	103	18:10:29	3397667	4	1	1	1	1	1	1	1	1	4	5	0	0	0	0	3	2
082812	18:10:29	10036	Trial	CongruentLeft	14	203	556	1	103	18:10:29	3398786	4	1	1	1	1	1	1	1	1	4	5	0	0	0	0	3	2
082812	18:10:29	10036	Trial	IncongruentRight	14	205	612	1	103	18:10:29	3399852	4	1	1	1	1	1	1	1	1	4	5	0	0	0	0	3	2
082812	18:10:29	10036	Trial	IncongruentLeft	14	0	737	0	103	18:10:29	3400959	4	1	1	1	1	1	1	1	1	4	5	0	0	0	0	3	2
082812	18:10:29	10036	Trial	CongruentLeft	14	203	581	1	103	18:10:29	3401812	4	1	1	1	1	1	1	1	1	4	5	0	0	0	0	3	2
082812	18:10:29	10036	Trial	IncongruentLeft	14	203	686	1	103	18:10:29	3402918	4	1	1	1	1	1	1	1	1	4	5	0	0	0	0	3	2
082812	18:10:29	10036	Trial	CongruentRight	14	205	601	1	103	18:10:29	3403851	4	1	1	1	1	1	1	1	1	4	5	0	0	0	0	3	2
082812	18:10:29	10036	Trial	CongruentLeft	14	203	673	1	103	18:10:29	3404917	4	1	1	1	1	1	1	1	1	4	5	0	0	0	0	3	2
082812	18:10:29	10036	Trial	IncongruentRight	14	205	537	1	103	18:10:29	3405783	4	1	1	1	1	1	1	1	1	4	5	0	0	0	0	3	2
082812	18:10:29	10036	Trial	CongruentLeft	14	203	594	1	103	18:10:29	3406836	4	1	1	1	1	1	1	1	1	4	5	0	0	0	0	3	2
082812	18:10:29	10036	Trial	CongruentRight	14	205	506	1	103	18:10:29	3407756	4	1	1	1	1	1	1	1	1	4	5	0	0	0	0	3	2
082812	18:10:29	10036	Trial	IncongruentLeft	14	203	450	1	103	18:10:29	3408689	4	1	1	1	1	1	1	1	1	4	5	0	0	0	0	3	2
082812	18:10:29	10036	WordsAbsFrBaseline	PAbsFrBaseline1	16	Abs1	12199	0	103	18:10:29	3429187	4	1	1	1	1	1	1	1	1	4	5	0	0	0	0	3	2
082812	18:10:29	10036	WordsAbsFrBaseline	AbsFrBaseline1	16	Abs1	4965	0	103	18:10:29	3434185	4	1	1	1	1	1	1	1	1	4	5	1	0	0	0	3	2
082812	18:10:29	10036	WordsAbsFrBaseline	AbsFrBaseline2	16	Abs2	29454	0	103	18:10:29	3463680	4	1	1	1	1	1	1	1	1	4	5	1	0	0	0	3	2
082812	18:10:29	10036	WordsAbsFrBaseline	AbsFrBaseline3	16	Abs1	10063	0	103	18:10:29	3473783	4	1	1	1	1	1	1	1	1	4	5	2	0	0	0	3	2
082812	18:10:29	10036	Trial2BackFrS	NS	17	0	1000	1	103	18:10:29	3528187	4	1	1	1	1	1	1	1	1	4	5	2	0	0	0	3	2
082812	18:10:29	10036	Trial2BackFrS	NS	17	0	1000	1	103	18:10:29	3529706	4	1	1	1	1	1	1	1	1	4	5	2	0	0	0	3	2
082812	18:10:29	10036	Trial2BackFrS	NS	17	0	1000	1	103	18:10:29	3531226	4	1	1	1	1	1	1	1	1	4	5	2	0	0	0	3	2
082812	18:10:29	10036	Trial2BackFrS	YS	17	0	1000	0	103	18:10:29	3532745	4	1	1	1	1	1	1	1	1	4	5	2	0	0	0	3	2
082812	18:10:29	10036	Trial2BackFrS	NS	17	0	1000	1	103	18:10:29	3534265	4	1	1	1	1	1	1	1	1	4	5	2	0	0	0	3	2
082812	18:10:29	10036	Trial2BackFrS	NS	17	0	1000	1	103	18:10:29	3535784	4	1	1	1	1	1	1	1	1	4	5	2	0	0	0	3	2
082812	18:10:29	10036	Trial2BackFrS	NS	17	0	1000	1	103	18:10:29	3537303	4	1	1	1	1	1	1	1	1	4	5	2	0	0	0	3	2
082812	18:10:29	10036	Trial2BackFrS	NS	17	0	1000	1	103	18:10:29	3538823	4	1	1	1	1	1	1	1	1	4	5	2	0	0	0	3	2
082812	18:10:29	10036	Trial2BackFrS	YS	17	57	734	1	103	18:10:29	3540089	4	1	1	1	1	1	1	1	1	4	5	2	0	0	0	3	2
082812	18:10:29	10036	Trial2BackFrS	NS	17	57	812	0	103	18:10:29	3541662	4	1	1	1	1	1	1	1	1	4	5	2	0	0	0	3	2
082812	18:10:29	10036	Trial2BackFrS	NS	17	0	1000	1	103	18:10:29	3543341	4	1	1	1	1	1	1	1	1	4	5	2	0	0	0	3	2
082812	18:10:29	10036	Trial2BackFrS	YS	17	0	1000	0	103	18:10:29	3544860	4	1	1	1	1	1	1	1	1	4	5	2	0	0	0	3	2
082812	18:10:29	10036	Trial2BackFrS	NS	17	0	1000	1	103	18:10:29	3546380	4	1	1	1	1	1	1	1	1	4	5	2	0	0	0	3	2
082812	18:10:29	10036	Trial2BackFrS	NS	17	0	1000	1	103	18:10:29	3547899	4	1	1	1	1	1	1	1	1	4	5	2	0	0	0	3	2
082812	18:10:29	10036	Trial2BackFrS	NS	17	0	1000	1	103	18:10:29	3549419	4	1	1	1	1	1	1	1	1	4	5	2	0	0	0	3	2
082812	18:10:29	10036	Trial2BackFrS	YS	17	57	826	1	103	18:10:29	3550778	4	1	1	1	1	1	1	1	1	4	5	2	0	0	0	3	2
082812	18:10:29	10036	Trial2BackFrS	NS	17	0	1000	1	103	18:10:29	3552444	4	1	1	1	1	1	1	1	1	4	5	2	0	0	0	3	2
082812	18:10:29	10036	Trial2BackFrS	NS	17	0	1000	1	103	18:10:29	3553964	4	1	1	1	1	1	1	1	1	4	5	2	0	0	0	3	2
082812	18:10:29	10036	Trial2BackFrS	NS	17	0	1000	1	103	18:10:29	3555483	4	1	1	1	1	1	1	1	1	4	5	2	0	0	0	3	2
082812	18:10:29	10036	Trial2BackFrS	NS	17	0	1000	1	103	18:10:29	3557002	4	1	1	1	1	1	1	1	1	4	5	2	0	0	0	3	2
082812	18:10:29	10036	Trial2BackFrS	YS	17	0	1000	0	103	18:10:29	3558521	4	1	1	1	1	1	1	1	1	4	5	2	0	0	0	3	2
082812	18:10:29	10036	Trial2BackFrS	NS	17	0	1000	1	103	18:10:29	3560041	4	1	1	1	1	1	1	1	1	4	5	2	0	0	0	3	2
082812	18:10:29	10036	Trial2BackFrS	NS	17	0	1000	1	103	18:10:29	3561560	4	1	1	1	1	1	1	1	1	4	5	2	0	0	0	3	2
082812	18:10:29	10036	Trial2BackFrS	NS	17	0	1000	1	103	18:10:29	3563080	4	1	1	1	1	1	1	1	1	4	5	2	0	0	0	3	2
082812	18:10:29	10036	Trial2BackFrS	NS	17	0	1000	1	103	18:10:29	3564599	4	1	1	1	1	1	1	1	1	4	5	2	0	0	0	3	2
082812	18:10:29	10036	Trial2BackFrS	NS	17	0	1000	1	103	18:10:29	3566118	4	1	1	1	1	1	1	1	1	4	5	2	0	0	0	3	2
082812	18:10:29	10036	Trial2BackFrS	NS	17	0	1000	1	103	18:10:29	3567638	4	1	1	1	1	1	1	1	1	4	5	2	0	0	0	3	2
082812	18:10:29	10036	Trial2BackFrS	NS	17	0	1000	1	103	18:10:29	3569158	4	1	1	1	1	1	1	1	1	4	5	2	0	0	0	3	2
082812	18:10:29	10036	Trial2BackFrS	NS	17	0	1000	1	103	18:10:29	3570677	4	1	1	1	1	1	1	1	1	4	5	2	0	0	0	3	2
082812	18:10:29	10036	Trial2BackFrS	NS	17	0	1000	1	103	18:10:29	3572196	4	1	1	1	1	1	1	1	1	4	5	2	0	0	0	3	2
082812	18:10:29	10036	Trial2BackFrS	NS	17	0	1000	1	103	18:10:29	3573715	4	1	1	1	1	1	1	1	1	4	5	2	0	0	0	3	2
082812	18:10:29	10036	Trial2BackFrS	YS	17	57	720	1	103	18:10:29	3574968	4	1	1	1	1	1	1	1	1	4	5	2	0	0	0	3	2
082812	18:10:29	10036	Trial2BackFrS	NS	17	0	1000	1	103	18:10:29	3576741	4	1	1	1	1	1	1	1	1	4	5	2	0	0	0	3	2
082812	18:10:29	10036	Trial2BackFrS	NS	17	0	1000	1	103	18:10:29	3578260	4	1	1	1	1	1	1	1	1	4	5	2	0	0	0	3	2
082812	18:10:29	10036	Trial2BackFrS	NS	17	0	1000	1	103	18:10:29	3579780	4	1	1	1	1	1	1	1	1	4	5	2	0	0	0	3	2
082812	18:10:29	10036	Trial2BackFrS	YS	17	0	1000	0	103	18:10:29	3581299	4	1	1	1	1	1	1	1	1	4	5	2	0	0	0	3	2
082812	18:10:29	10036	Trial2BackFrS	NS	17	0	1000	1	103	18:10:29	3582818	4	1	1	1	1	1	1	1	1	4	5	2	0	0	0	3	2
082812	18:10:29	10036	Trial2BackFrS	NS	17	0	1000	1	103	18:10:29	3584338	4	1	1	1	1	1	1	1	1	4	5	2	0	0	0	3	2
082812	18:10:29	10036	Trial2BackFrS	NS	17	0	1000	1	103	18:10:29	3585857	4	1	1	1	1	1	1	1	1	4	5	2	0	0	0	3	2
082812	18:10:29	10036	Trial2BackFrS	NS	17	0	1000	1	103	18:10:29	3587376	4	1	1	1	1	1	1	1	1	4	5	2	0	0	0	3	2
082812	18:10:29	10036	Trial2BackFrS	NS	17	57	947	0	103	18:10:29	3588856	4	1	1	1	1	1	1	1	1	4	5	2	0	0	0	3	2
082812	18:10:29	10036	Trial2BackFrS	NS	17	0	1000	1	103	18:10:29	3590402	4	1	1	1	1	1	1	1	1	4	5	2	0	0	0	3	2
082812	18:10:29	10036	Trial2BackFrS	NS	17	57	721	0	103	18:10:29	3591655	4	1	1	1	1	1	1	1	1	4	5	2	0	0	0	3	2
082812	18:10:29	10036	Trial2BackFrS	YS	17	0	1000	0	103	18:10:29	3593427	4	1	1	1	1	1	1	1	1	4	5	2	0	0	0	3	2
082812	18:10:29	10036	Trial2BackFrS	NS	17	0	1000	1	103	18:10:29	3594947	4	1	1	1	1	1	1	1	1	4	5	2	0	0	0	3	2
082812	18:10:29	10036	Trial2BackFrS	NS	17	0	1000	1	103	18:10:29	3596466	4	1	1	1	1	1	1	1	1	4	5	2	0	0	0	3	2
082812	18:10:29	10036	Trial2BackFrS	NS	17	0	1000	1	103	18:10:29	3597986	4	1	1	1	1	1	1	1	1	4	5	2	0	0	0	3	2
082812	18:10:29	10036	Trial2BackFrS	NS	17	0	1000	1	103	18:10:29	3599505	4	1	1	1	1	1	1	1	1	4	5	2	0	0	0	3	2
082812	18:10:29	10036	Trial2BackFrS	YS	17	57	578	1	103	18:10:29	3600611	4	1	1	1	1	1	1	1	1	4	5	2	0	0	0	3	2
082812	18:10:29	10036	Trial2BackFrS	NS	17	0	1000	1	103	18:10:29	3602530	4	1	1	1	1	1	1	1	1	4	5	2	0	0	0	3	2
082812	18:10:29	10036	Trial2BackFrS	NS	17	0	1000	1	103	18:10:29	3604050	4	1	1	1	1	1	1	1	1	4	5	2	0	0	0	3	2
082812	18:10:29	10036	Trial2BackFrS	NS	17	0	1000	1	103	18:10:29	3605569	4	1	1	1	1	1	1	1	1	4	5	2	0	0	0	3	2
082812	18:10:29	10036	Trial2BackFrS	NS	17	0	1000	1	103	18:10:29	3607088	4	1	1	1	1	1	1	1	1	4	5	2	0	0	0	3	2
082812	18:10:29	10036	Trial2BackFrS	NS	17	0	1000	1	103	18:10:29	3608608	4	1	1	1	1	1	1	1	1	4	5	2	0	0	0	3	2
082812	18:10:29	10036	Trial2BackFrS	NS	17	0	1000	1	103	18:10:29	3610127	4	1	1	1	1	1	1	1	1	4	5	2	0	0	0	3	2
082812	18:10:29	10036	Trial2BackFrS	YS	17	0	1000	0	103	18:10:29	3611647	4	1	1	1	1	1	1	1	1	4	5	2	0	0	0	3	2
082812	18:10:29	10036	Trial2BackFrS	NS	17	57	836	0	103	18:10:29	3613006	4	1	1	1	1	1	1	1	1	4	5	2	0	0	0	3	2
082812	18:10:29	10036	Trial2BackFrS	NS	17	0	1000	1	103	18:10:29	3614672	4	1	1	1	1	1	1	1	1	4	5	2	0	0	0	3	2
082812	18:10:29	10036	Trial2BackFrS	NS	17	0	1000	1	103	18:10:29	3616191	4	1	1	1	1	1	1	1	1	4	5	2	0	0	0	3	2
082812	18:10:29	10036	Trial2BackFrS	NS	17	0	1000	1	103	18:10:29	3617711	4	1	1	1	1	1	1	1	1	4	5	2	0	0	0	3	2
082812	18:10:29	10036	Trial2BackFrS	NS	17	0	1000	1	103	18:10:29	3619230	4	1	1	1	1	1	1	1	1	4	5	2	0	0	0	3	2
082812	18:10:29	10036	Trial2BackFrS	NS	17	0	1000	1	103	18:10:29	3620750	4	1	1	1	1	1	1	1	1	4	5	2	0	0	0	3	2
082812	18:10:29	10036	Trial2BackFrS	NS	17	0	1000	1	103	18:10:29	3622269	4	1	1	1	1	1	1	1	1	4	5	2	0	0	0	3	2
082812	18:10:29	10036	Trial2BackFrS	YS	17	0	1000	0	103	18:10:29	3623788	4	1	1	1	1	1	1	1	1	4	5	2	0	0	0	3	2
082812	18:10:29	10036	Trial2BackFrS	NS	17	0	1000	1	103	18:10:29	3625308	4	1	1	1	1	1	1	1	1	4	5	2	0	0	0	3	2
082812	18:10:29	10036	Trial2BackFrS	NS	17	0	1000	1	103	18:10:29	3626827	4	1	1	1	1	1	1	1	1	4	5	2	0	0	0	3	2
082812	18:10:29	10036	Trial2BackFrS	NS	17	0	1000	1	103	18:10:29	3628347	4	1	1	1	1	1	1	1	1	4	5	2	0	0	0	3	2
082812	18:10:29	10036	Trial2BackFrS	NS	17	57	8	0	103	18:10:29	3628880	4	1	1	1	1	1	1	1	1	4	5	2	0	0	0	3	2
082812	18:10:29	10036	Trial2BackFrS	YS	17	0	1000	0	103	18:10:29	3631372	4	1	1	1	1	1	1	1	1	4	5	2	0	0	0	3	2
082812	18:10:29	10036	Trial2BackFrS	NS	17	0	1000	1	103	18:10:29	3632891	4	1	1	1	1	1	1	1	1	4	5	2	0	0	0	3	2
082812	18:10:29	10036	Trial2BackFrS	NS	17	0	1000	1	103	18:10:29	3634411	4	1	1	1	1	1	1	1	1	4	5	2	0	0	0	3	2
082812	18:10:29	10036	Trial2BackFrS	YS	17	0	1000	0	103	18:10:29	3635930	4	1	1	1	1	1	1	1	1	4	5	2	0	0	0	3	2
082812	18:10:29	10036	Trial2BackFrS	NS	17	57	56	0	103	18:10:29	3636517	4	1	1	1	1	1	1	1	1	4	5	2	0	0	0	3	2
082812	18:10:29	10036	Trial2BackFrS	NS	17	0	1000	1	103	18:10:29	3638956	4	1	1	1	1	1	1	1	1	4	5	2	0	0	0	3	2
082812	18:10:29	10036	Trial2BackFrS	NS	17	0	1000	1	103	18:10:29	3640475	4	1	1	1	1	1	1	1	1	4	5	2	0	0	0	3	2
082812	18:10:29	10036	Trial2BackFrS	NS	17	0	1000	1	103	18:10:29	3641995	4	1	1	1	1	1	1	1	1	4	5	2	0	0	0	3	2
082812	18:10:29	10036	Trial2BackFrS	NS	17	0	1000	1	103	18:10:29	3643514	4	1	1	1	1	1	1	1	1	4	5	2	0	0	0	3	2
082812	18:10:29	10036	Trial2BackFrS	NS	17	0	1000	1	103	18:10:29	3645033	4	1	1	1	1	1	1	1	1	4	5	2	0	0	0	3	2
082812	18:10:29	10036	Trial2BackFrS	YS	17	0	1000	0	103	18:10:29	3646553	4	1	1	1	1	1	1	1	1	4	5	2	0	0	0	3	2
082812	18:10:29	10036	Trial2BackFrS	NS	17	0	1000	1	103	18:10:29	3648085	4	1	1	1	1	1	1	1	1	4	5	2	0	0	0	3	2
082812	18:10:29	10036	Trial2BackFrS	NS	17	0	1000	1	103	18:10:29	3649605	4	1	1	1	1	1	1	1	1	4	5	2	0	0	0	3	2
082812	18:10:29	10036	Trial2BackFrS	NS	17	0	1000	1	103	18:10:29	3651124	4	1	1	1	1	1	1	1	1	4	5	2	0	0	0	3	2
082812	18:10:29	10036	Trial2BackFrS	NS	17	0	1000	1	103	18:10:29	3652643	4	1	1	1	1	1	1	1	1	4	5	2	0	0	0	3	2
082812	18:10:29	10036	Trial2BackFrS	YS	17	0	1000	0	103	18:10:29	3654163	4	1	1	1	1	1	1	1	1	4	5	2	0	0	0	3	2
082812	18:10:29	10036	Trial2BackFrS	NS	17	57	607	0	103	18:10:29	3655296	4	1	1	1	1	1	1	1	1	4	5	2	0	0	0	3	2
082812	18:10:29	10036	Trial2BackFrS	NS	17	0	1000	1	103	18:10:29	3657188	4	1	1	1	1	1	1	1	1	4	5	2	0	0	0	3	2
082812	18:10:29	10036	Trial2BackFrS	NS	17	0	1000	1	103	18:10:29	3658708	4	1	1	1	1	1	1	1	1	4	5	2	0	0	0	3	2
082812	18:10:29	10036	Trial2BackFrS	NS	17	0	1000	1	103	18:10:29	3660227	4	1	1	1	1	1	1	1	1	4	5	2	0	0	0	3	2
082812	18:10:29	10036	Trial2BackFrS	YS	17	0	1000	0	103	18:10:29	3661746	4	1	1	1	1	1	1	1	1	4	5	2	0	0	0	3	2
082812	18:10:29	10036	Trial2BackFrS	NS	17	0	1000	1	103	18:10:29	3663266	4	1	1	1	1	1	1	1	1	4	5	2	0	0	0	3	2
082812	18:10:29	10036	Trial2BackFrS	NS	17	0	1000	1	103	18:10:29	3664785	4	1	1	1	1	1	1	1	1	4	5	2	0	0	0	3	2
082812	18:10:29	10036	Trial2BackFrS	YS	17	57	624	1	103	18:10:29	3665931	4	1	1	1	1	1	1	1	1	4	5	2	0	0	0	3	2
082812	18:10:29	10036	Trial2BackFrS	NS	17	0	1000	1	103	18:10:29	3667811	4	1	1	1	1	1	1	1	1	4	5	2	0	0	0	3	2
082812	18:10:29	10036	Trial2BackFrS	NS	17	0	1000	1	103	18:10:29	3669330	4	1	1	1	1	1	1	1	1	4	5	2	0	0	0	3	2
082812	18:10:29	10036	Trial2BackFrS	NS	17	57	735	0	103	18:10:29	3670596	4	1	1	1	1	1	1	1	1	4	5	2	0	0	0	3	2
082812	18:10:29	10036	Trial2BackFrS	NS	17	0	1000	1	103	18:10:29	3672355	4	1	1	1	1	1	1	1	1	4	5	2	0	0	0	3	2
082812	18:10:29	10036	Trial2BackFrS	NS	17	57	814	0	103	18:10:29	3673702	4	1	1	1	1	1	1	1	1	4	5	2	0	0	0	3	2
082812	18:10:29	10036	Trial2BackFrS	NS	17	0	1000	1	103	18:10:29	3675381	4	1	1	1	1	1	1	1	1	4	5	2	0	0	0	3	2
082812	18:10:29	10036	Trial2BackFrS	NS	17	57	924	0	103	18:10:29	3676834	4	1	1	1	1	1	1	1	1	4	5	2	0	0	0	3	2
082812	18:10:29	10036	Trial2BackFrS	NS	17	0	1000	1	103	18:10:29	3678406	4	1	1	1	1	1	1	1	1	4	5	2	0	0	0	3	2
082812	18:10:29	10036	Trial2BackFrS	YS	17	0	1000	0	103	18:10:29	3679926	4	1	1	1	1	1	1	1	1	4	5	2	0	0	0	3	2
082812	18:10:29	10036	Trial2BackFrS	NS	17	0	1000	1	103	18:10:29	3681445	4	1	1	1	1	1	1	1	1	4	5	2	0	0	0	3	2
082812	18:10:29	10036	Trial2BackFrS	NS	17	0	1000	1	103	18:10:29	3682965	4	1	1	1	1	1	1	1	1	4	5	2	0	0	0	3	2
082812	18:10:29	10036	Trial2BackFrS	NS	17	0	1000	1	103	18:10:29	3684484	4	1	1	1	1	1	1	1	1	4	5	2	0	0	0	3	2
082812	18:10:29	10036	Trial2BackFrS	NS	17	0	1000	1	103	18:10:29	3686017	4	1	1	1	1	1	1	1	1	4	5	2	0	0	0	3	2
082812	18:10:29	10036	Trial2BackFrS	NS	17	0	1000	1	103	18:10:29	3687536	4	1	1	1	1	1	1	1	1	4	5	2	0	0	0	3	2
082812	18:10:29	10036	Trial2BackFrS	NS	17	0	1000	1	103	18:10:29	3689055	4	1	1	1	1	1	1	1	1	4	5	2	0	0	0	3	2
082812	18:10:29	10036	Trial2BackFrS	NS	17	57	514	0	103	18:10:29	3690095	4	1	1	1	1	1	1	1	1	4	5	2	0	0	0	3	2
082812	18:10:29	10036	Trial2BackFrS	YS	17	0	1000	0	103	18:10:29	3692081	4	1	1	1	1	1	1	1	1	4	5	2	0	0	0	3	2
082812	18:10:29	10036	Trial2BackFrS	NS	17	0	1000	1	103	18:10:29	3693600	4	1	1	1	1	1	1	1	1	4	5	2	0	0	0	3	2
082812	18:10:29	10036	Trial2BackFrS	NS	17	0	1000	1	103	18:10:29	3695120	4	1	1	1	1	1	1	1	1	4	5	2	0	0	0	3	2
082812	18:10:29	10036	Trial2BackFrS	NS	17	0	1000	1	103	18:10:29	3696639	4	1	1	1	1	1	1	1	1	4	5	2	0	0	0	3	2
082812	18:10:29	10036	Trial2BackFrS	NS	17	0	1000	1	103	18:10:29	3698159	4	1	1	1	1	1	1	1	1	4	5	2	0	0	0	3	2
082812	18:10:29	10036	Trial2BackFrS	NS	17	0	1000	1	103	18:10:29	3699678	4	1	1	1	1	1	1	1	1	4	5	2	0	0	0	3	2
082812	18:10:29	10036	Trial2BackFrS	NS	17	0	1000	1	103	18:10:29	3701197	4	1	1	1	1	1	1	1	1	4	5	2	0	0	0	3	2
082812	18:10:29	10036	Trial2BackFrS	NS	17	0	1000	1	103	18:10:29	3702716	4	1	1	1	1	1	1	1	1	4	5	2	0	0	0	3	2
082812	18:10:29	10036	Trial2BackFrS	NS	17	0	1000	1	103	18:10:29	3704236	4	1	1	1	1	1	1	1	1	4	5	2	0	0	0	3	2
082812	18:10:29	10036	Trial2BackFrS	NS	17	0	1000	1	103	18:10:29	3705755	4	1	1	1	1	1	1	1	1	4	5	2	0	0	0	3	2
082812	18:10:29	10036	Trial2BackFrS	YS	17	0	1000	0	103	18:10:29	3707275	4	1	1	1	1	1	1	1	1	4	5	2	0	0	0	3	2
082812	18:10:29	10036	Trial2BackFrS	NS	17	57	262	0	103	18:10:29	3708061	4	1	1	1	1	1	1	1	1	4	5	2	0	0	0	3	2
082812	18:10:29	10036	ClockFrBaseline	ClockFrBaseline	19	Clock1	233288	0	103	18:10:29	3942166	4	1	1	1	1	1	1	1	1	4	5	2	1	0	0	3	2
082812	18:10:29	10036	ClockFrBaseline	ClockFrBaseline	19	Clock11	813	0	103	18:10:29	3943019	4	1	1	1	1	1	1	1	1	4	5	2	1	1	0	3	2
082812	18:10:29	10036	ClockFrBaseline	ClockFrBaseline	19	Clock111	616	0	103	18:10:29	3943672	4	1	1	1	1	1	1	1	1	4	5	2	1	1	1	3	2
082812	18:10:29	10036	ClockFrBaseline	ClockFrBaseline	19	Clockdone	851	0	103	18:10:29	3944565	4	1	1	1	1	1	1	1	1	4	5	2	1	1	1	3	2
082812	18:10:29	10036	FASFrVFBaseline	StopFrVFBaseline	20	11	8637	0	103	18:10:29	4085470	4	1	1	1	1	1	1	1	1	4	5	2	1	1	1	3	2
