date	time	subject	blockcode	trialcode	values.TaskNumber	response	latency	correct	values.Score	script.starttime	script.elapsedtime	values.ScoreS7	values.Word1	values.Word2	values.Word3	values.Word4	values.Word5	values.Word6	values.Word7	values.Word8	values.DigitSpanFwrd	values.DigitSpanBack	values.ScoreAbs	values.Contour	values.Numbers	values.Hands	values.corsiblockspanFwrd	values.corsiblockspanRev
062812	19:01:09	88888	Language	Language	0	French	1312	0	0	19:01:09	1420	0	0	0	0	0	0	0	0	0	0	0	0	0	0	0	0	0
062812	19:01:09	88888	Session	Session	0	Baseline	1071	0	0	19:01:09	2593	0	0	0	0	0	0	0	0	0	0	0	0	0	0	0	0	0
062812	19:01:09	88888	HandFr	HandFr	0	LeftFr	1130	0	0	19:01:09	3819	0	0	0	0	0	0	0	0	0	0	0	0	0	0	0	0	0
062812	19:01:09	88888	AudioCheckFr	WordsFr	0	0	0	0	0	19:01:09	23279	0	0	0	0	0	0	0	0	0	0	0	0	0	0	0	0	0
062812	19:01:09	88888	CubeFr	CubeFr	1	1Cube	1226	0	0	19:01:09	31102	0	0	0	0	0	0	0	0	0	0	0	0	0	0	0	0	0
062812	19:01:09	88888	pm.simpleFrLeft	blank.simpleFr	2	0	2187	1	0	19:01:09	54586	0	0	0	0	0	0	0	0	0	0	0	0	0	0	0	0	0
062812	19:01:09	88888	pm.simpleFrLeft	pm.simpleFr	2	57	425	0	0	19:01:09	55052	0	0	0	0	0	0	0	0	0	0	0	0	0	0	0	0	0
062812	19:01:09	88888	pm.simpleFrLeft	blank.simpleFr	2	57	1047	0	0	19:01:09	57131	0	0	0	0	0	0	0	0	0	0	0	0	0	0	0	0	0
062812	19:01:09	88888	pm.simpleFrLeft	blank.simpleFr	2	0	1987	1	0	19:01:09	59571	0	0	0	0	0	0	0	0	0	0	0	0	0	0	0	0	0
062812	19:01:09	88888	pm.simpleFrLeft	pm.simpleFr	2	57	449	0	0	19:01:09	60050	0	0	0	0	0	0	0	0	0	0	0	0	0	0	0	0	0
062812	19:01:09	88888	pm.simpleFrLeft	blank.simpleFr	2	0	1487	1	0	19:01:09	61556	0	0	0	0	0	0	0	0	0	0	0	0	0	0	0	0	0
062812	19:01:09	88888	pm.simpleFrLeft	pm.simpleFr	2	57	320	0	0	19:01:09	61916	0	0	0	0	0	0	0	0	0	0	0	0	0	0	0	0	0
062812	19:01:09	88888	pm.simpleFrLeft	blank.simpleFr	2	0	1687	1	0	19:01:09	63636	0	0	0	0	0	0	0	0	0	0	0	0	0	0	0	0	0
062812	19:01:09	88888	pm.simpleFrLeft	pm.simpleFr	2	57	240	0	0	19:01:09	63915	0	0	0	0	0	0	0	0	0	0	0	0	0	0	0	0	0
062812	19:01:09	88888	pm.simpleFrLeft	blank.simpleFr	2	0	1887	1	0	19:01:09	65835	0	0	0	0	0	0	0	0	0	0	0	0	0	0	0	0	0
062812	19:01:09	88888	pm.simpleFrLeft	pm.simpleFr	2	57	233	0	0	19:01:09	66101	0	0	0	0	0	0	0	0	0	0	0	0	0	0	0	0	0
062812	19:01:09	88888	pm.simpleFrLeft	blank.simpleFr	2	0	2087	1	0	19:01:09	68207	0	0	0	0	0	0	0	0	0	0	0	0	0	0	0	0	0
062812	19:01:09	88888	pm.simpleFrLeft	pm.simpleFr	2	57	261	0	0	19:01:09	68500	0	0	0	0	0	0	0	0	0	0	0	0	0	0	0	0	0
062812	19:01:09	88888	pm.simpleFrLeft	blank.simpleFr	2	0	1587	1	0	19:01:09	70113	0	0	0	0	0	0	0	0	0	0	0	0	0	0	0	0	0
062812	19:01:09	88888	pm.simpleFrLeft	pm.simpleFr	2	57	227	0	0	19:01:09	70380	0	0	0	0	0	0	0	0	0	0	0	0	0	0	0	0	0
062812	19:01:09	88888	pm.simpleFrLeft	blank.simpleFr	2	0	1787	1	0	19:01:09	72192	0	0	0	0	0	0	0	0	0	0	0	0	0	0	0	0	0
062812	19:01:09	88888	pm.simpleFrLeft	pm.simpleFr	2	57	260	0	0	19:01:09	72485	0	0	0	0	0	0	0	0	0	0	0	0	0	0	0	0	0
062812	19:01:09	88888	pm.simpleFrLeft	blank.simpleFr	2	0	2287	1	0	19:01:09	74804	0	0	0	0	0	0	0	0	0	0	0	0	0	0	0	0	0
062812	19:01:09	88888	pm.simpleFrLeft	pm.simpleFr	2	57	271	0	0	19:01:09	75111	0	0	0	0	0	0	0	0	0	0	0	0	0	0	0	0	0
062812	19:01:09	88888	pm.simpleFrLeft	blank.simpleFr	2	0	2387	1	0	19:01:09	77524	0	0	0	0	0	0	0	0	0	0	0	0	0	0	0	0	0
062812	19:01:09	88888	pm.simpleFrLeft	pm.simpleFr	2	57	240	0	0	19:01:09	77803	0	0	0	0	0	0	0	0	0	0	0	0	0	0	0	0	0
062812	19:01:09	88888	pm.simpleFrLeft	blank.simpleFr	2	0	1687	1	0	19:01:09	79523	0	0	0	0	0	0	0	0	0	0	0	0	0	0	0	0	0
062812	19:01:09	88888	pm.simpleFrLeft	pm.simpleFr	2	57	273	0	0	19:01:09	79829	0	0	0	0	0	0	0	0	0	0	0	0	0	0	0	0	0
062812	19:01:09	88888	pm.simpleFrLeft	blank.simpleFr	2	0	1787	1	0	19:01:09	81642	0	0	0	0	0	0	0	0	0	0	0	0	0	0	0	0	0
062812	19:01:09	88888	pm.simpleFrLeft	pm.simpleFr	2	57	241	0	0	19:01:09	81922	0	0	0	0	0	0	0	0	0	0	0	0	0	0	0	0	0
062812	19:01:09	88888	pm.simpleFrLeft	blank.simpleFr	2	0	1587	1	0	19:01:09	83534	0	0	0	0	0	0	0	0	0	0	0	0	0	0	0	0	0
062812	19:01:09	88888	pm.simpleFrLeft	pm.simpleFr	2	57	238	0	0	19:01:09	83814	0	0	0	0	0	0	0	0	0	0	0	0	0	0	0	0	0
062812	19:01:09	88888	pm.simpleFrLeft	blank.simpleFr	2	0	1487	1	0	19:01:09	85321	0	0	0	0	0	0	0	0	0	0	0	0	0	0	0	0	0
062812	19:01:09	88888	pm.simpleFrLeft	pm.simpleFr	2	57	222	0	0	19:01:09	85587	0	0	0	0	0	0	0	0	0	0	0	0	0	0	0	0	0
062812	19:01:09	88888	pm.simpleFrLeft	blank.simpleFr	2	0	2487	1	0	19:01:09	88106	0	0	0	0	0	0	0	0	0	0	0	0	0	0	0	0	0
062812	19:01:09	88888	pm.simpleFrLeft	pm.simpleFr	2	57	234	0	0	19:01:09	88373	0	0	0	0	0	0	0	0	0	0	0	0	0	0	0	0	0
062812	19:01:09	88888	pm.simpleFrLeft	blank.simpleFr	2	0	1987	1	0	19:01:09	90385	0	0	0	0	0	0	0	0	0	0	0	0	0	0	0	0	0
062812	19:01:09	88888	pm.simpleFrLeft	pm.simpleFr	2	57	370	0	0	19:01:09	90798	0	0	0	0	0	0	0	0	0	0	0	0	0	0	0	0	0
062812	19:01:09	88888	pm.simpleFrLeft	blank.simpleFr	2	0	2287	1	0	19:01:09	93117	0	0	0	0	0	0	0	0	0	0	0	0	0	0	0	0	0
062812	19:01:09	88888	pm.simpleFrLeft	pm.simpleFr	2	57	246	0	0	19:01:09	93397	0	0	0	0	0	0	0	0	0	0	0	0	0	0	0	0	0
062812	19:01:09	88888	pm.simpleFrLeft	blank.simpleFr	2	0	2187	1	0	19:01:09	95610	0	0	0	0	0	0	0	0	0	0	0	0	0	0	0	0	0
062812	19:01:09	88888	pm.simpleFrLeft	pm.simpleFr	2	57	234	0	0	19:01:09	95876	0	0	0	0	0	0	0	0	0	0	0	0	0	0	0	0	0
062812	19:01:09	88888	pm.simpleFrLeft	blank.simpleFr	2	0	1887	1	0	19:01:09	97782	0	0	0	0	0	0	0	0	0	0	0	0	0	0	0	0	0
062812	19:01:09	88888	pm.simpleFrLeft	pm.simpleFr	2	57	317	0	0	19:01:09	98142	0	0	0	0	0	0	0	0	0	0	0	0	0	0	0	0	0
062812	19:01:09	88888	pm.simpleFrLeft	blank.simpleFr	2	0	2387	1	0	19:01:09	100554	0	0	0	0	0	0	0	0	0	0	0	0	0	0	0	0	0
062812	19:01:09	88888	pm.simpleFrLeft	pm.simpleFr	2	57	271	0	0	19:01:09	100861	0	0	0	0	0	0	0	0	0	0	0	0	0	0	0	0	0
062812	19:01:09	88888	pm.simpleFrLeft	blank.simpleFr	2	0	2087	1	0	19:01:09	102966	0	0	0	0	0	0	0	0	0	0	0	0	0	0	0	0	0
062812	19:01:09	88888	pm.simpleFrLeft	pm.simpleFr	2	57	1245	0	0	19:01:09	104246	0	0	0	0	0	0	0	0	0	0	0	0	0	0	0	0	0
062812	19:01:09	88888	pm.simpleFrLeft	blank.simpleFr	2	0	2487	1	0	19:01:09	106765	0	0	0	0	0	0	0	0	0	0	0	0	0	0	0	0	0
062812	19:01:09	88888	pm.simpleFrLeft	pm.simpleFr	2	57	886	0	0	19:01:09	107685	0	0	0	0	0	0	0	0	0	0	0	0	0	0	0	0	0
062812	19:01:09	88888	pm.simpleFrLeft	blank.simpleFr	2	0	2087	1	0	19:01:09	109804	0	0	0	0	0	0	0	0	0	0	0	0	0	0	0	0	0
062812	19:01:09	88888	pm.simpleFrLeft	pm.simpleFr	2	57	375	0	0	19:01:09	110217	0	0	0	0	0	0	0	0	0	0	0	0	0	0	0	0	0
062812	19:01:09	88888	pm.simpleFrLeft	blank.simpleFr	2	0	2387	1	0	19:01:09	112630	0	0	0	0	0	0	0	0	0	0	0	0	0	0	0	0	0
062812	19:01:09	88888	pm.simpleFrLeft	pm.simpleFr	2	57	350	0	0	19:01:09	113016	0	0	0	0	0	0	0	0	0	0	0	0	0	0	0	0	0
062812	19:01:09	88888	pm.simpleFrLeft	blank.simpleFr	2	0	1887	1	0	19:01:09	114937	0	0	0	0	0	0	0	0	0	0	0	0	0	0	0	0	0
062812	19:01:09	88888	pm.simpleFrLeft	pm.simpleFr	2	57	476	0	0	19:01:09	115442	0	0	0	0	0	0	0	0	0	0	0	0	0	0	0	0	0
062812	19:01:09	88888	pm.simpleFrLeft	blank.simpleFr	2	0	2187	1	0	19:01:09	117654	0	0	0	0	0	0	0	0	0	0	0	0	0	0	0	0	0
062812	19:01:09	88888	pm.simpleFrLeft	pm.simpleFr	2	57	525	0	0	19:01:09	118214	0	0	0	0	0	0	0	0	0	0	0	0	0	0	0	0	0
062812	19:01:09	88888	pm.simpleFrLeft	blank.simpleFr	2	0	1587	1	0	19:01:09	119827	0	0	0	0	0	0	0	0	0	0	0	0	0	0	0	0	0
062812	19:01:09	88888	pm.simpleFrLeft	pm.simpleFr	2	57	496	0	0	19:01:09	120360	0	0	0	0	0	0	0	0	0	0	0	0	0	0	0	0	0
062812	19:01:09	88888	pm.simpleFrLeft	blank.simpleFr	2	0	2287	1	0	19:01:09	122679	0	0	0	0	0	0	0	0	0	0	0	0	0	0	0	0	0
062812	19:01:09	88888	pm.simpleFrLeft	pm.simpleFr	2	57	332	0	0	19:01:09	123052	0	0	0	0	0	0	0	0	0	0	0	0	0	0	0	0	0
062812	19:01:09	88888	pm.simpleFrLeft	blank.simpleFr	2	0	1987	1	0	19:01:09	125065	0	0	0	0	0	0	0	0	0	0	0	0	0	0	0	0	0
062812	19:01:09	88888	pm.simpleFrLeft	pm.simpleFr	2	57	298	0	0	19:01:09	125398	0	0	0	0	0	0	0	0	0	0	0	0	0	0	0	0	0
062812	19:01:09	88888	pm.simpleFrLeft	blank.simpleFr	2	0	1487	1	0	19:01:09	126904	0	0	0	0	0	0	0	0	0	0	0	0	0	0	0	0	0
062812	19:01:09	88888	pm.simpleFrLeft	pm.simpleFr	2	57	219	0	0	19:01:09	127157	0	0	0	0	0	0	0	0	0	0	0	0	0	0	0	0	0
062812	19:01:09	88888	pm.simpleFrLeft	blank.simpleFr	2	0	1787	1	0	19:01:09	128970	0	0	0	0	0	0	0	0	0	0	0	0	0	0	0	0	0
062812	19:01:09	88888	pm.simpleFrLeft	pm.simpleFr	2	57	313	0	0	19:01:09	129316	0	0	0	0	0	0	0	0	0	0	0	0	0	0	0	0	0
062812	19:01:09	88888	pm.simpleFrLeft	blank.simpleFr	2	0	1687	1	0	19:01:09	131036	0	0	0	0	0	0	0	0	0	0	0	0	0	0	0	0	0
062812	19:01:09	88888	pm.simpleFrLeft	pm.simpleFr	2	57	247	0	0	19:01:09	131315	0	0	0	0	0	0	0	0	0	0	0	0	0	0	0	0	0
062812	19:01:09	88888	pm.simpleFrLeft	blank.simpleFr	2	0	1987	1	0	19:01:09	133328	0	0	0	0	0	0	0	0	0	0	0	0	0	0	0	0	0
062812	19:01:09	88888	pm.simpleFrLeft	pm.simpleFr	2	57	243	0	0	19:01:09	133608	0	0	0	0	0	0	0	0	0	0	0	0	0	0	0	0	0
062812	19:01:09	88888	pm.simpleFrLeft	blank.simpleFr	2	0	2187	1	0	19:01:09	135821	0	0	0	0	0	0	0	0	0	0	0	0	0	0	0	0	0
062812	19:01:09	88888	pm.simpleFrLeft	pm.simpleFr	2	57	289	0	0	19:01:09	136140	0	0	0	0	0	0	0	0	0	0	0	0	0	0	0	0	0
062812	19:01:09	88888	pm.simpleFrLeft	blank.simpleFr	2	0	1687	1	0	19:01:09	137846	0	0	0	0	0	0	0	0	0	0	0	0	0	0	0	0	0
062812	19:01:09	88888	pm.simpleFrLeft	pm.simpleFr	2	57	237	0	0	19:01:09	138113	0	0	0	0	0	0	0	0	0	0	0	0	0	0	0	0	0
062812	19:01:09	88888	pm.simpleFrLeft	blank.simpleFr	2	0	2287	1	0	19:01:09	140419	0	0	0	0	0	0	0	0	0	0	0	0	0	0	0	0	0
062812	19:01:09	88888	pm.simpleFrLeft	pm.simpleFr	2	57	256	0	0	19:01:09	140712	0	0	0	0	0	0	0	0	0	0	0	0	0	0	0	0	0
062812	19:01:09	88888	pm.simpleFrLeft	blank.simpleFr	2	0	2487	1	0	19:01:09	143231	0	0	0	0	0	0	0	0	0	0	0	0	0	0	0	0	0
062812	19:01:09	88888	pm.simpleFrLeft	pm.simpleFr	2	57	228	0	0	19:01:09	143498	0	0	0	0	0	0	0	0	0	0	0	0	0	0	0	0	0
062812	19:01:09	88888	pm.simpleFrLeft	blank.simpleFr	2	0	2087	1	0	19:01:09	145617	0	0	0	0	0	0	0	0	0	0	0	0	0	0	0	0	0
062812	19:01:09	88888	pm.simpleFrLeft	pm.simpleFr	2	57	258	0	0	19:01:09	145910	0	0	0	0	0	0	0	0	0	0	0	0	0	0	0	0	0
062812	19:01:09	88888	pm.simpleFrLeft	blank.simpleFr	2	0	1787	1	0	19:01:09	147722	0	0	0	0	0	0	0	0	0	0	0	0	0	0	0	0	0
062812	19:01:09	88888	pm.simpleFrLeft	pm.simpleFr	2	57	331	0	0	19:01:09	148096	0	0	0	0	0	0	0	0	0	0	0	0	0	0	0	0	0
062812	19:01:09	88888	pm.simpleFrLeft	blank.simpleFr	2	0	1487	1	0	19:01:09	149615	0	0	0	0	0	0	0	0	0	0	0	0	0	0	0	0	0
062812	19:01:09	88888	pm.simpleFrLeft	pm.simpleFr	2	57	340	0	0	19:01:09	149988	0	0	0	0	0	0	0	0	0	0	0	0	0	0	0	0	0
062812	19:01:09	88888	Trial2BackFr	N	3	0	1000	1	1	19:01:09	199596	0	0	0	0	0	0	0	0	0	0	0	0	0	0	0	0	0
062812	19:01:09	88888	Trial2BackFr	N	3	0	1000	1	2	19:01:09	201116	0	0	0	0	0	0	0	0	0	0	0	0	0	0	0	0	0
062812	19:01:09	88888	Trial2BackFr	N	3	0	1000	1	3	19:01:09	202635	0	0	0	0	0	0	0	0	0	0	0	0	0	0	0	0	0
062812	19:01:09	88888	Trial2BackFr	N	3	0	1000	1	4	19:01:09	204155	0	0	0	0	0	0	0	0	0	0	0	0	0	0	0	0	0
062812	19:01:09	88888	Trial2BackFr	N	3	0	1000	1	5	19:01:09	205674	0	0	0	0	0	0	0	0	0	0	0	0	0	0	0	0	0
062812	19:01:09	88888	Trial2BackFr	N	3	0	1000	1	6	19:01:09	207193	0	0	0	0	0	0	0	0	0	0	0	0	0	0	0	0	0
062812	19:01:09	88888	Trial2BackFr	N	3	0	1000	1	7	19:01:09	208713	0	0	0	0	0	0	0	0	0	0	0	0	0	0	0	0	0
062812	19:01:09	88888	Trial2BackFr	N	3	0	1000	1	8	19:01:09	210232	0	0	0	0	0	0	0	0	0	0	0	0	0	0	0	0	0
062812	19:01:09	88888	Trial2BackFr	Y	3	57	479	1	9	19:01:09	211245	0	0	0	0	0	0	0	0	0	0	0	0	0	0	0	0	0
062812	19:01:09	88888	Trial2BackFr	N	3	0	1000	1	10	19:01:09	213258	0	0	0	0	0	0	0	0	0	0	0	0	0	0	0	0	0
062812	19:01:09	88888	Trial2BackFr	N	3	0	1000	1	11	19:01:09	214777	0	0	0	0	0	0	0	0	0	0	0	0	0	0	0	0	0
062812	19:01:09	88888	Trial2BackFr	N	3	0	1000	1	12	19:01:09	216296	0	0	0	0	0	0	0	0	0	0	0	0	0	0	0	0	0
062812	19:01:09	88888	Trial2BackFr	Y	3	57	414	1	13	19:01:09	217243	0	0	0	0	0	0	0	0	0	0	0	0	0	0	0	0	0
062812	19:01:09	88888	Trial2BackFr	N	3	0	1000	1	14	19:01:09	219322	0	0	0	0	0	0	0	0	0	0	0	0	0	0	0	0	0
062812	19:01:09	88888	Trial2BackFr	N	3	0	1000	1	15	19:01:09	220841	0	0	0	0	0	0	0	0	0	0	0	0	0	0	0	0	0
062812	19:01:09	88888	Trial2BackFr	N	3	0	1000	1	16	19:01:09	222361	0	0	0	0	0	0	0	0	0	0	0	0	0	0	0	0	0
062812	19:01:09	88888	Trial2BackFr	N	3	57	670	0	16	19:01:09	223560	0	0	0	0	0	0	0	0	0	0	0	0	0	0	0	0	0
062812	19:01:09	88888	Trial2BackFr	N	3	0	1000	1	17	19:01:09	225386	0	0	0	0	0	0	0	0	0	0	0	0	0	0	0	0	0
062812	19:01:09	88888	Trial2BackFr	Y	3	57	572	1	18	19:01:09	226492	0	0	0	0	0	0	0	0	0	0	0	0	0	0	0	0	0
062812	19:01:09	88888	Trial2BackFr	N	3	0	1000	1	19	19:01:09	228412	0	0	0	0	0	0	0	0	0	0	0	0	0	0	0	0	0
062812	19:01:09	88888	Trial2BackFr	N	3	0	1000	1	20	19:01:09	229931	0	0	0	0	0	0	0	0	0	0	0	0	0	0	0	0	0
062812	19:01:09	88888	Trial2BackFr	N	3	0	1000	1	21	19:01:09	231450	0	0	0	0	0	0	0	0	0	0	0	0	0	0	0	0	0
062812	19:01:09	88888	Trial2BackFr	N	3	0	1000	1	22	19:01:09	232970	0	0	0	0	0	0	0	0	0	0	0	0	0	0	0	0	0
062812	19:01:09	88888	Trial2BackFr	Y	3	57	397	1	23	19:01:09	233889	0	0	0	0	0	0	0	0	0	0	0	0	0	0	0	0	0
062812	19:01:09	88888	Trial2BackFr	N	3	0	1000	1	24	19:01:09	235995	0	0	0	0	0	0	0	0	0	0	0	0	0	0	0	0	0
062812	19:01:09	88888	Trial2BackFr	N	3	57	652	0	24	19:01:09	237181	0	0	0	0	0	0	0	0	0	0	0	0	0	0	0	0	0
062812	19:01:09	88888	Trial2BackFr	N	3	0	1000	1	25	19:01:09	239021	0	0	0	0	0	0	0	0	0	0	0	0	0	0	0	0	0
062812	19:01:09	88888	Trial2BackFr	N	3	0	1000	1	26	19:01:09	240540	0	0	0	0	0	0	0	0	0	0	0	0	0	0	0	0	0
062812	19:01:09	88888	Trial2BackFr	N	3	0	1000	1	27	19:01:09	242060	0	0	0	0	0	0	0	0	0	0	0	0	0	0	0	0	0
062812	19:01:09	88888	Trial2BackFr	N	3	0	1000	1	28	19:01:09	243579	0	0	0	0	0	0	0	0	0	0	0	0	0	0	0	0	0
062812	19:01:09	88888	Trial2BackFr	Y	3	57	540	1	29	19:01:09	244645	0	0	0	0	0	0	0	0	0	0	0	0	0	0	0	0	0
062812	19:01:09	88888	Trial2BackFr	N	3	0	1000	1	30	19:01:09	246604	0	0	0	0	0	0	0	0	0	0	0	0	0	0	0	0	0
062812	19:01:09	88888	Trial2BackFr	N	3	57	731	0	30	19:01:09	247871	0	0	0	0	0	0	0	0	0	0	0	0	0	0	0	0	0
062812	19:01:09	88888	Trial2BackFr	N	3	0	1000	1	31	19:01:09	249630	0	0	0	0	0	0	0	0	0	0	0	0	0	0	0	0	0
062812	19:01:09	88888	Trial2BackFr	Y	3	57	617	1	32	19:01:09	250776	0	0	0	0	0	0	0	0	0	0	0	0	0	0	0	0	0
062812	19:01:09	88888	Trial2BackFr	N	3	0	1000	1	33	19:01:09	252655	0	0	0	0	0	0	0	0	0	0	0	0	0	0	0	0	0
062812	19:01:09	88888	Trial2BackFr	N	3	0	1000	1	34	19:01:09	254175	0	0	0	0	0	0	0	0	0	0	0	0	0	0	0	0	0
062812	19:01:09	88888	Trial2BackFr	N	3	0	1000	1	35	19:01:09	255694	0	0	0	0	0	0	0	0	0	0	0	0	0	0	0	0	0
062812	19:01:09	88888	Trial2BackFr	N	3	0	1000	1	36	19:01:09	257214	0	0	0	0	0	0	0	0	0	0	0	0	0	0	0	0	0
062812	19:01:09	88888	Trial2BackFr	N	3	0	1000	1	37	19:01:09	258733	0	0	0	0	0	0	0	0	0	0	0	0	0	0	0	0	0
062812	19:01:09	88888	Trial2BackFr	N	3	0	1000	1	38	19:01:09	260253	0	0	0	0	0	0	0	0	0	0	0	0	0	0	0	0	0
062812	19:01:09	88888	Trial2BackFr	Y	3	57	570	1	39	19:01:09	261345	0	0	0	0	0	0	0	0	0	0	0	0	0	0	0	0	0
062812	19:01:09	88888	Trial2BackFr	N	3	0	1000	1	40	19:01:09	263278	0	0	0	0	0	0	0	0	0	0	0	0	0	0	0	0	0
062812	19:01:09	88888	Trial2BackFr	N	3	0	1000	1	41	19:01:09	264797	0	0	0	0	0	0	0	0	0	0	0	0	0	0	0	0	0
062812	19:01:09	88888	Trial2BackFr	N	3	0	1000	1	42	19:01:09	266317	0	0	0	0	0	0	0	0	0	0	0	0	0	0	0	0	0
062812	19:01:09	88888	Trial2BackFr	N	3	0	1000	1	43	19:01:09	267836	0	0	0	0	0	0	0	0	0	0	0	0	0	0	0	0	0
062812	19:01:09	88888	Trial2BackFr	Y	3	57	538	1	44	19:01:09	268902	0	0	0	0	0	0	0	0	0	0	0	0	0	0	0	0	0
062812	19:01:09	88888	Trial2BackFr	N	3	0	1000	1	45	19:01:09	270862	0	0	0	0	0	0	0	0	0	0	0	0	0	0	0	0	0
062812	19:01:09	88888	Trial2BackFr	N	3	0	1000	1	46	19:01:09	272381	0	0	0	0	0	0	0	0	0	0	0	0	0	0	0	0	0
062812	19:01:09	88888	Trial2BackFr	N	3	0	1000	1	47	19:01:09	273900	0	0	0	0	0	0	0	0	0	0	0	0	0	0	0	0	0
062812	19:01:09	88888	Trial2BackFr	N	3	0	1000	1	48	19:01:09	275420	0	0	0	0	0	0	0	0	0	0	0	0	0	0	0	0	0
062812	19:01:09	88888	Trial2BackFr	N	3	0	1000	1	49	19:01:09	276939	0	0	0	0	0	0	0	0	0	0	0	0	0	0	0	0	0
062812	19:01:09	88888	Trial2BackFr	Y	3	57	955	1	50	19:01:09	278418	0	0	0	0	0	0	0	0	0	0	0	0	0	0	0	0	0
062812	19:01:09	88888	Trial2BackFr	N	3	0	1000	1	51	19:01:09	279965	0	0	0	0	0	0	0	0	0	0	0	0	0	0	0	0	0
062812	19:01:09	88888	Trial2BackFr	N	3	0	1000	1	52	19:01:09	281484	0	0	0	0	0	0	0	0	0	0	0	0	0	0	0	0	0
062812	19:01:09	88888	Trial2BackFr	N	3	0	1000	1	53	19:01:09	283003	0	0	0	0	0	0	0	0	0	0	0	0	0	0	0	0	0
062812	19:01:09	88888	Trial2BackFr	N	3	0	1000	1	54	19:01:09	284523	0	0	0	0	0	0	0	0	0	0	0	0	0	0	0	0	0
062812	19:01:09	88888	Trial2BackFr	N	3	0	1000	1	55	19:01:09	286042	0	0	0	0	0	0	0	0	0	0	0	0	0	0	0	0	0
062812	19:01:09	88888	Trial2BackFr	N	3	0	1000	1	56	19:01:09	287562	0	0	0	0	0	0	0	0	0	0	0	0	0	0	0	0	0
062812	19:01:09	88888	Trial2BackFr	Y	3	57	397	1	57	19:01:09	288481	0	0	0	0	0	0	0	0	0	0	0	0	0	0	0	0	0
062812	19:01:09	88888	Trial2BackFr	N	3	57	778	0	57	19:01:09	290374	0	0	0	0	0	0	0	0	0	0	0	0	0	0	0	0	0
062812	19:01:09	88888	Trial2BackFr	N	3	0	1000	1	58	19:01:09	292080	0	0	0	0	0	0	0	0	0	0	0	0	0	0	0	0	0
062812	19:01:09	88888	Trial2BackFr	Y	3	57	934	1	59	19:01:09	293546	0	0	0	0	0	0	0	0	0	0	0	0	0	0	0	0	0
062812	19:01:09	88888	Trial2BackFr	N	3	0	1000	1	60	19:01:09	295105	0	0	0	0	0	0	0	0	0	0	0	0	0	0	0	0	0
062812	19:01:09	88888	Trial2BackFr	N	3	0	1000	1	61	19:01:09	296625	0	0	0	0	0	0	0	0	0	0	0	0	0	0	0	0	0
062812	19:01:09	88888	Trial2BackFr	N	3	0	1000	1	62	19:01:09	298144	0	0	0	0	0	0	0	0	0	0	0	0	0	0	0	0	0
062812	19:01:09	88888	Trial2BackFr	N	3	0	1000	1	63	19:01:09	299664	0	0	0	0	0	0	0	0	0	0	0	0	0	0	0	0	0
062812	19:01:09	88888	Trial2BackFr	N	3	0	1000	1	64	19:01:09	301196	0	0	0	0	0	0	0	0	0	0	0	0	0	0	0	0	0
062812	19:01:09	88888	Trial2BackFr	N	3	0	1000	1	65	19:01:09	302716	0	0	0	0	0	0	0	0	0	0	0	0	0	0	0	0	0
062812	19:01:09	88888	Trial2BackFr	N	3	57	587	0	65	19:01:09	303835	0	0	0	0	0	0	0	0	0	0	0	0	0	0	0	0	0
062812	19:01:09	88888	Trial2BackFr	N	3	0	1000	1	66	19:01:09	305741	0	0	0	0	0	0	0	0	0	0	0	0	0	0	0	0	0
062812	19:01:09	88888	Trial2BackFr	N	3	0	1000	1	67	19:01:09	307261	0	0	0	0	0	0	0	0	0	0	0	0	0	0	0	0	0
062812	19:01:09	88888	Trial2BackFr	N	3	0	1000	1	68	19:01:09	308780	0	0	0	0	0	0	0	0	0	0	0	0	0	0	0	0	0
062812	19:01:09	88888	Trial2BackFr	Y	3	57	458	1	69	19:01:09	309766	0	0	0	0	0	0	0	0	0	0	0	0	0	0	0	0	0
062812	19:01:09	88888	Trial2BackFr	N	3	0	1000	1	70	19:01:09	311805	0	0	0	0	0	0	0	0	0	0	0	0	0	0	0	0	0
062812	19:01:09	88888	Trial2BackFr	N	3	0	1000	1	71	19:01:09	313338	0	0	0	0	0	0	0	0	0	0	0	0	0	0	0	0	0
062812	19:01:09	88888	Trial2BackFr	N	3	0	1000	1	72	19:01:09	314858	0	0	0	0	0	0	0	0	0	0	0	0	0	0	0	0	0
062812	19:01:09	88888	Trial2BackFr	Y	3	57	396	1	73	19:01:09	315777	0	0	0	0	0	0	0	0	0	0	0	0	0	0	0	0	0
062812	19:01:09	88888	Trial2BackFr	N	3	0	1000	1	74	19:01:09	317883	0	0	0	0	0	0	0	0	0	0	0	0	0	0	0	0	0
062812	19:01:09	88888	Trial2BackFr	N	3	0	1000	1	75	19:01:09	319402	0	0	0	0	0	0	0	0	0	0	0	0	0	0	0	0	0
062812	19:01:09	88888	Trial2BackFr	N	3	0	1000	1	76	19:01:09	320922	0	0	0	0	0	0	0	0	0	0	0	0	0	0	0	0	0
062812	19:01:09	88888	Trial2BackFr	N	3	0	1000	1	77	19:01:09	322441	0	0	0	0	0	0	0	0	0	0	0	0	0	0	0	0	0
062812	19:01:09	88888	Trial2BackFr	N	3	0	1000	1	78	19:01:09	323961	0	0	0	0	0	0	0	0	0	0	0	0	0	0	0	0	0
062812	19:01:09	88888	Trial2BackFr	Y	3	57	653	1	79	19:01:09	325147	0	0	0	0	0	0	0	0	0	0	0	0	0	0	0	0	0
062812	19:01:09	88888	Trial2BackFr	N	3	0	1000	1	80	19:01:09	326986	0	0	0	0	0	0	0	0	0	0	0	0	0	0	0	0	0
062812	19:01:09	88888	Trial2BackFr	N	3	0	1000	1	81	19:01:09	328506	0	0	0	0	0	0	0	0	0	0	0	0	0	0	0	0	0
062812	19:01:09	88888	Trial2BackFr	N	3	0	1000	1	82	19:01:09	330025	0	0	0	0	0	0	0	0	0	0	0	0	0	0	0	0	0
062812	19:01:09	88888	Trial2BackFr	N	3	0	1000	1	83	19:01:09	331544	0	0	0	0	0	0	0	0	0	0	0	0	0	0	0	0	0
062812	19:01:09	88888	Trial2BackFr	N	3	0	1000	1	84	19:01:09	333071	0	0	0	0	0	0	0	0	0	0	0	0	0	0	0	0	0
062812	19:01:09	88888	Trial2BackFr	N	3	0	1000	1	85	19:01:09	334583	0	0	0	0	0	0	0	0	0	0	0	0	0	0	0	0	0
062812	19:01:09	88888	Trial2BackFr	N	3	0	1000	1	86	19:01:09	336102	0	0	0	0	0	0	0	0	0	0	0	0	0	0	0	0	0
062812	19:01:09	88888	Trial2BackFr	N	3	0	1000	1	87	19:01:09	337622	0	0	0	0	0	0	0	0	0	0	0	0	0	0	0	0	0
062812	19:01:09	88888	Trial2BackFr	N	3	0	1000	1	88	19:01:09	339155	0	0	0	0	0	0	0	0	0	0	0	0	0	0	0	0	0
062812	19:01:09	88888	Trial2BackFr	Y	3	57	660	1	89	19:01:09	340341	0	0	0	0	0	0	0	0	0	0	0	0	0	0	0	0	0
062812	19:01:09	88888	Trial2BackFr	N	3	0	1000	1	90	19:01:09	342180	0	0	0	0	0	0	0	0	0	0	0	0	0	0	0	0	0
062812	19:01:09	88888	Trial2BackFr	N	3	0	1000	1	91	19:01:09	343700	0	0	0	0	0	0	0	0	0	0	0	0	0	0	0	0	0
062812	19:01:09	88888	Trial2BackFr	N	3	0	1000	1	92	19:01:09	345219	0	0	0	0	0	0	0	0	0	0	0	0	0	0	0	0	0
062812	19:01:09	88888	Trial2BackFr	N	3	0	1000	1	93	19:01:09	346738	0	0	0	0	0	0	0	0	0	0	0	0	0	0	0	0	0
062812	19:01:09	88888	Trial2BackFr	N	3	0	1000	1	94	19:01:09	348258	0	0	0	0	0	0	0	0	0	0	0	0	0	0	0	0	0
062812	19:01:09	88888	Trial2BackFr	N	3	0	1000	1	95	19:01:09	349777	0	0	0	0	0	0	0	0	0	0	0	0	0	0	0	0	0
062812	19:01:09	88888	Trial2BackFr	N	3	0	1000	1	96	19:01:09	351296	0	0	0	0	0	0	0	0	0	0	0	0	0	0	0	0	0
062812	19:01:09	88888	Trial2BackFr	N	3	0	1000	1	97	19:01:09	352816	0	0	0	0	0	0	0	0	0	0	0	0	0	0	0	0	0
062812	19:01:09	88888	Trial2BackFr	Y	3	57	517	1	98	19:01:09	353855	0	0	0	0	0	0	0	0	0	0	0	0	0	0	0	0	0
062812	19:01:09	88888	Trial2BackFr	N	3	0	1000	1	99	19:01:09	355841	0	0	0	0	0	0	0	0	0	0	0	0	0	0	0	0	0
062812	19:01:09	88888	Trial2BackFr	N	3	0	1000	1	100	19:01:09	357361	0	0	0	0	0	0	0	0	0	0	0	0	0	0	0	0	0
062812	19:01:09	88888	Trial2BackFr	N	3	0	1000	1	101	19:01:09	358880	0	0	0	0	0	0	0	0	0	0	0	0	0	0	0	0	0
062812	19:01:09	88888	Trial2BackFr	N	3	0	1000	1	102	19:01:09	360400	0	0	0	0	0	0	0	0	0	0	0	0	0	0	0	0	0
062812	19:01:09	88888	Trial2BackFr	Y	3	0	1000	0	102	19:01:09	361919	0	0	0	0	0	0	0	0	0	0	0	0	0	0	0	0	0
062812	19:01:09	88888	Trial2BackFr	N	3	0	1000	1	103	19:01:09	363438	0	0	0	0	0	0	0	0	0	0	0	0	0	0	0	0	0
062812	19:01:09	88888	Trial2BackFr	N	3	0	1000	1	104	19:01:09	364958	0	0	0	0	0	0	0	0	0	0	0	0	0	0	0	0	0
062812	19:01:09	88888	Trial2BackFr	N	3	0	1000	1	105	19:01:09	366477	0	0	0	0	0	0	0	0	0	0	0	0	0	0	0	0	0
062812	19:01:09	88888	Trial2BackFr	Y	3	0	1000	0	105	19:01:09	367996	0	0	0	0	0	0	0	0	0	0	0	0	0	0	0	0	0
062812	19:01:09	88888	Trial2BackFr	N	3	0	1000	1	106	19:01:09	369516	0	0	0	0	0	0	0	0	0	0	0	0	0	0	0	0	0
062812	19:01:09	88888	Trial2BackFr	N	3	0	1000	1	107	19:01:09	371035	0	0	0	0	0	0	0	0	0	0	0	0	0	0	0	0	0
062812	19:01:09	88888	Trial2BackFr	N	3	0	1000	1	108	19:01:09	372555	0	0	0	0	0	0	0	0	0	0	0	0	0	0	0	0	0
062812	19:01:09	88888	Trial2BackFr	N	3	0	1000	1	109	19:01:09	374074	0	0	0	0	0	0	0	0	0	0	0	0	0	0	0	0	0
062812	19:01:09	88888	Trial2BackFr	N	3	57	921	0	109	19:01:09	375527	0	0	0	0	0	0	0	0	0	0	0	0	0	0	0	0	0
062812	19:01:09	88888	Trial2BackFr	Y	3	0	1000	0	109	19:01:09	377100	0	0	0	0	0	0	0	0	0	0	0	0	0	0	0	0	0
062812	19:01:09	88888	Trial2BackFr	N	3	0	1000	1	110	19:01:09	378619	0	0	0	0	0	0	0	0	0	0	0	0	0	0	0	0	0
062812	19:01:09	88888	Trial2BackFr	N	3	0	1000	1	111	19:01:09	380138	0	0	0	0	0	0	0	0	0	0	0	0	0	0	0	0	0
062812	19:01:09	88888	Trial2BackFr	N	3	0	1000	1	112	19:01:09	381658	0	0	0	0	0	0	0	0	0	0	0	0	0	0	0	0	0
062812	19:01:09	88888	Trial2BackFr	Y	3	57	651	1	113	19:01:09	382844	0	0	0	0	0	0	0	0	0	0	0	0	0	0	0	0	0
062812	19:01:09	88888	Trial3BackFr	NN	4	0	1000	1	113	19:01:09	395959	0	0	0	0	0	0	0	0	0	0	0	0	0	0	0	0	0
062812	19:01:09	88888	Trial3BackFr	NN	4	57	19	0	113	19:01:09	396532	0	0	0	0	0	0	0	0	0	0	0	0	0	0	0	0	0
062812	19:01:09	88888	Trial3BackFr	NN	4	57	742	0	113	19:01:09	398731	0	0	0	0	0	0	0	0	0	0	0	0	0	0	0	0	0
062812	19:01:09	88888	Trial3BackFr	YY	4	57	471	1	113	19:01:09	399957	0	0	0	0	0	0	0	0	0	0	0	0	0	0	0	0	0
062812	19:01:09	88888	Trial3BackFr	NN	4	57	405	0	113	19:01:09	401397	0	0	0	0	0	0	0	0	0	0	0	0	0	0	0	0	0
062812	19:01:09	88888	Trial3BackFr	NN	4	57	240	0	113	19:01:09	402730	0	0	0	0	0	0	0	0	0	0	0	0	0	0	0	0	0
062812	19:01:09	88888	Trial3BackFr	NN	4	0	1000	1	113	19:01:09	404982	0	0	0	0	0	0	0	0	0	0	0	0	0	0	0	0	0
062812	19:01:09	88888	Trial3BackFr	NN	4	57	47	0	113	19:01:09	405555	0	0	0	0	0	0	0	0	0	0	0	0	0	0	0	0	0
062812	19:01:09	88888	Trial3BackFr	YY	4	0	1000	0	113	19:01:09	408007	0	0	0	0	0	0	0	0	0	0	0	0	0	0	0	0	0
062812	19:01:09	88888	Trial3BackFr	NN	4	57	205	0	113	19:01:09	408740	0	0	0	0	0	0	0	0	0	0	0	0	0	0	0	0	0
062812	19:01:09	88888	Trial3BackFr	NN	4	0	1000	1	113	19:01:09	411033	0	0	0	0	0	0	0	0	0	0	0	0	0	0	0	0	0
062812	19:01:09	88888	Trial3BackFr	NN	4	0	1000	1	113	19:01:09	412552	0	0	0	0	0	0	0	0	0	0	0	0	0	0	0	0	0
062812	19:01:09	88888	Trial3BackFr	NN	4	0	1000	1	113	19:01:09	414072	0	0	0	0	0	0	0	0	0	0	0	0	0	0	0	0	0
062812	19:01:09	88888	Trial3BackFr	NN	4	0	1000	1	113	19:01:09	415591	0	0	0	0	0	0	0	0	0	0	0	0	0	0	0	0	0
062812	19:01:09	88888	Trial3BackFr	NN	4	0	1000	1	113	19:01:09	417111	0	0	0	0	0	0	0	0	0	0	0	0	0	0	0	0	0
062812	19:01:09	88888	Trial3BackFr	NN	4	0	1000	1	113	19:01:09	418630	0	0	0	0	0	0	0	0	0	0	0	0	0	0	0	0	0
062812	19:01:09	88888	Trial3BackFr	YY	4	0	1000	0	113	19:01:09	420149	0	0	0	0	0	0	0	0	0	0	0	0	0	0	0	0	0
062812	19:01:09	88888	Trial3BackFr	NN	4	0	1000	1	113	19:01:09	421669	0	0	0	0	0	0	0	0	0	0	0	0	0	0	0	0	0
062812	19:01:09	88888	Trial3BackFr	NN	4	0	1000	1	113	19:01:09	423188	0	0	0	0	0	0	0	0	0	0	0	0	0	0	0	0	0
062812	19:01:09	88888	Trial3BackFr	NN	4	0	1000	1	113	19:01:09	424708	0	0	0	0	0	0	0	0	0	0	0	0	0	0	0	0	0
062812	19:01:09	88888	Trial3BackFr	NN	4	0	1000	1	113	19:01:09	426227	0	0	0	0	0	0	0	0	0	0	0	0	0	0	0	0	0
062812	19:01:09	88888	Trial3BackFr	NN	4	0	1000	1	113	19:01:09	427746	0	0	0	0	0	0	0	0	0	0	0	0	0	0	0	0	0
062812	19:01:09	88888	Trial3BackFr	YY	4	0	1000	0	113	19:01:09	429266	0	0	0	0	0	0	0	0	0	0	0	0	0	0	0	0	0
062812	19:01:09	88888	Trial3BackFr	NN	4	0	1000	1	113	19:01:09	430785	0	0	0	0	0	0	0	0	0	0	0	0	0	0	0	0	0
062812	19:01:09	88888	Trial3BackFr	NN	4	0	1000	1	113	19:01:09	432305	0	0	0	0	0	0	0	0	0	0	0	0	0	0	0	0	0
062812	19:01:09	88888	Trial3BackFr	NN	4	57	51	0	113	19:01:09	432891	0	0	0	0	0	0	0	0	0	0	0	0	0	0	0	0	0
062812	19:01:09	88888	Trial3BackFr	YY	4	0	1000	0	113	19:01:09	435330	0	0	0	0	0	0	0	0	0	0	0	0	0	0	0	0	0
062812	19:01:09	88888	Trial3BackFr	NN	4	0	1000	1	113	19:01:09	436849	0	0	0	0	0	0	0	0	0	0	0	0	0	0	0	0	0
062812	19:01:09	88888	Trial3BackFr	NN	4	0	1000	1	113	19:01:09	438369	0	0	0	0	0	0	0	0	0	0	0	0	0	0	0	0	0
062812	19:01:09	88888	Trial3BackFr	NN	4	0	1000	1	113	19:01:09	439888	0	0	0	0	0	0	0	0	0	0	0	0	0	0	0	0	0
062812	19:01:09	88888	Trial3BackFr	YY	4	57	852	1	113	19:01:09	441274	0	0	0	0	0	0	0	0	0	0	0	0	0	0	0	0	0
062812	19:01:09	88888	Trial3BackFr	NN	4	0	1000	1	113	19:01:09	442914	0	0	0	0	0	0	0	0	0	0	0	0	0	0	0	0	0
062812	19:01:09	88888	Trial3BackFr	NN	4	0	1000	1	113	19:01:09	444433	0	0	0	0	0	0	0	0	0	0	0	0	0	0	0	0	0
062812	19:01:09	88888	Trial3BackFr	NN	4	0	1000	1	113	19:01:09	445952	0	0	0	0	0	0	0	0	0	0	0	0	0	0	0	0	0
062812	19:01:09	88888	Trial3BackFr	NN	4	57	388	0	113	19:01:09	446872	0	0	0	0	0	0	0	0	0	0	0	0	0	0	0	0	0
062812	19:01:09	88888	Trial3BackFr	NN	4	0	1000	1	113	19:01:09	448978	0	0	0	0	0	0	0	0	0	0	0	0	0	0	0	0	0
062812	19:01:09	88888	Trial3BackFr	NN	4	0	1000	1	113	19:01:09	450497	0	0	0	0	0	0	0	0	0	0	0	0	0	0	0	0	0
062812	19:01:09	88888	Trial3BackFr	NN	4	0	1000	1	113	19:01:09	452019	0	0	0	0	0	0	0	0	0	0	0	0	0	0	0	0	0
062812	19:01:09	88888	Trial3BackFr	NN	4	0	1000	1	113	19:01:09	453536	0	0	0	0	0	0	0	0	0	0	0	0	0	0	0	0	0
062812	19:01:09	88888	Trial3BackFr	NN	4	0	1000	1	113	19:01:09	455056	0	0	0	0	0	0	0	0	0	0	0	0	0	0	0	0	0
062812	19:01:09	88888	Trial3BackFr	NN	4	0	1000	1	113	19:01:09	456575	0	0	0	0	0	0	0	0	0	0	0	0	0	0	0	0	0
062812	19:01:09	88888	Trial3BackFr	YY	4	57	398	1	113	19:01:09	457508	0	0	0	0	0	0	0	0	0	0	0	0	0	0	0	0	0
062812	19:01:09	88888	Trial3BackFr	NN	4	0	1000	1	113	19:01:09	459600	0	0	0	0	0	0	0	0	0	0	0	0	0	0	0	0	0
062812	19:01:09	88888	Trial3BackFr	NN	4	0	1000	1	113	19:01:09	461120	0	0	0	0	0	0	0	0	0	0	0	0	0	0	0	0	0
062812	19:01:09	88888	Trial3BackFr	NN	4	0	1000	1	113	19:01:09	462639	0	0	0	0	0	0	0	0	0	0	0	0	0	0	0	0	0
062812	19:01:09	88888	Trial3BackFr	NN	4	0	1000	1	113	19:01:09	464159	0	0	0	0	0	0	0	0	0	0	0	0	0	0	0	0	0
062812	19:01:09	88888	Trial3BackFr	YY	4	57	581	1	113	19:01:09	465265	0	0	0	0	0	0	0	0	0	0	0	0	0	0	0	0	0
062812	19:01:09	88888	Trial3BackFr	NN	4	0	1000	1	113	19:01:09	467184	0	0	0	0	0	0	0	0	0	0	0	0	0	0	0	0	0
062812	19:01:09	88888	Trial3BackFr	NN	4	0	1000	1	113	19:01:09	468704	0	0	0	0	0	0	0	0	0	0	0	0	0	0	0	0	0
062812	19:01:09	88888	Trial3BackFr	NN	4	0	1000	1	113	19:01:09	470223	0	0	0	0	0	0	0	0	0	0	0	0	0	0	0	0	0
062812	19:01:09	88888	Trial3BackFr	NN	4	0	1000	1	113	19:01:09	471742	0	0	0	0	0	0	0	0	0	0	0	0	0	0	0	0	0
062812	19:01:09	88888	Trial3BackFr	NN	4	0	1000	1	113	19:01:09	473262	0	0	0	0	0	0	0	0	0	0	0	0	0	0	0	0	0
062812	19:01:09	88888	Trial3BackFr	YY	4	57	422	1	113	19:01:09	474208	0	0	0	0	0	0	0	0	0	0	0	0	0	0	0	0	0
062812	19:01:09	88888	Trial3BackFr	NN	4	0	1000	1	113	19:01:09	476287	0	0	0	0	0	0	0	0	0	0	0	0	0	0	0	0	0
062812	19:01:09	88888	Trial3BackFr	NN	4	0	1000	1	113	19:01:09	477807	0	0	0	0	0	0	0	0	0	0	0	0	0	0	0	0	0
062812	19:01:09	88888	Trial3BackFr	NN	4	0	1000	1	113	19:01:09	479326	0	0	0	0	0	0	0	0	0	0	0	0	0	0	0	0	0
062812	19:01:09	88888	Trial3BackFr	NN	4	0	1000	1	113	19:01:09	480845	0	0	0	0	0	0	0	0	0	0	0	0	0	0	0	0	0
062812	19:01:09	88888	Trial3BackFr	NN	4	0	1000	1	113	19:01:09	482365	0	0	0	0	0	0	0	0	0	0	0	0	0	0	0	0	0
062812	19:01:09	88888	Trial3BackFr	NN	4	0	1000	1	113	19:01:09	483884	0	0	0	0	0	0	0	0	0	0	0	0	0	0	0	0	0
062812	19:01:09	88888	Trial3BackFr	YY	4	57	408	1	113	19:01:09	484817	0	0	0	0	0	0	0	0	0	0	0	0	0	0	0	0	0
062812	19:01:09	88888	Trial3BackFr	NN	4	0	1000	1	113	19:01:09	486910	0	0	0	0	0	0	0	0	0	0	0	0	0	0	0	0	0
062812	19:01:09	88888	Trial3BackFr	NN	4	0	1000	1	113	19:01:09	488429	0	0	0	0	0	0	0	0	0	0	0	0	0	0	0	0	0
062812	19:01:09	88888	Trial3BackFr	NN	4	0	1000	1	113	19:01:09	489948	0	0	0	0	0	0	0	0	0	0	0	0	0	0	0	0	0
062812	19:01:09	88888	Trial3BackFr	YY	4	57	407	1	113	19:01:09	490882	0	0	0	0	0	0	0	0	0	0	0	0	0	0	0	0	0
062812	19:01:09	88888	Trial3BackFr	NN	4	0	1000	1	113	19:01:09	492974	0	0	0	0	0	0	0	0	0	0	0	0	0	0	0	0	0
062812	19:01:09	88888	Trial3BackFr	NN	4	0	1000	1	113	19:01:09	494494	0	0	0	0	0	0	0	0	0	0	0	0	0	0	0	0	0
062812	19:01:09	88888	Trial3BackFr	NN	4	0	1000	1	113	19:01:09	496013	0	0	0	0	0	0	0	0	0	0	0	0	0	0	0	0	0
062812	19:01:09	88888	Trial3BackFr	NN	4	0	1000	1	113	19:01:09	497532	0	0	0	0	0	0	0	0	0	0	0	0	0	0	0	0	0
062812	19:01:09	88888	Trial3BackFr	NN	4	0	1000	1	113	19:01:09	499052	0	0	0	0	0	0	0	0	0	0	0	0	0	0	0	0	0
062812	19:01:09	88888	Trial3BackFr	NN	4	0	1000	1	113	19:01:09	500571	0	0	0	0	0	0	0	0	0	0	0	0	0	0	0	0	0
062812	19:01:09	88888	Trial3BackFr	NN	4	0	1000	1	113	19:01:09	502090	0	0	0	0	0	0	0	0	0	0	0	0	0	0	0	0	0
062812	19:01:09	88888	Trial3BackFr	NN	4	0	1000	1	113	19:01:09	503610	0	0	0	0	0	0	0	0	0	0	0	0	0	0	0	0	0
062812	19:01:09	88888	Trial3BackFr	NN	4	0	1000	1	113	19:01:09	505129	0	0	0	0	0	0	0	0	0	0	0	0	0	0	0	0	0
062812	19:01:09	88888	Trial3BackFr	YY	4	0	1000	0	113	19:01:09	506649	0	0	0	0	0	0	0	0	0	0	0	0	0	0	0	0	0
062812	19:01:09	88888	Trial3BackFr	NN	4	0	1000	1	113	19:01:09	508168	0	0	0	0	0	0	0	0	0	0	0	0	0	0	0	0	0
062812	19:01:09	88888	Trial3BackFr	NN	4	0	1000	1	113	19:01:09	509687	0	0	0	0	0	0	0	0	0	0	0	0	0	0	0	0	0
062812	19:01:09	88888	Trial3BackFr	NN	4	0	1000	1	113	19:01:09	511207	0	0	0	0	0	0	0	0	0	0	0	0	0	0	0	0	0
062812	19:01:09	88888	Trial3BackFr	YY	4	0	1000	0	113	19:01:09	512726	0	0	0	0	0	0	0	0	0	0	0	0	0	0	0	0	0
062812	19:01:09	88888	Trial3BackFr	NN	4	0	1000	1	113	19:01:09	514246	0	0	0	0	0	0	0	0	0	0	0	0	0	0	0	0	0
062812	19:01:09	88888	Trial3BackFr	NN	4	0	1000	1	113	19:01:09	515765	0	0	0	0	0	0	0	0	0	0	0	0	0	0	0	0	0
062812	19:01:09	88888	Trial3BackFr	NN	4	0	1000	1	113	19:01:09	517284	0	0	0	0	0	0	0	0	0	0	0	0	0	0	0	0	0
062812	19:01:09	88888	Trial3BackFr	NN	4	0	1000	1	113	19:01:09	518804	0	0	0	0	0	0	0	0	0	0	0	0	0	0	0	0	0
062812	19:01:09	88888	Trial3BackFr	NN	4	0	1000	1	113	19:01:09	520323	0	0	0	0	0	0	0	0	0	0	0	0	0	0	0	0	0
062812	19:01:09	88888	Trial3BackFr	YY	4	0	1000	0	113	19:01:09	521842	0	0	0	0	0	0	0	0	0	0	0	0	0	0	0	0	0
062812	19:01:09	88888	Trial3BackFr	NN	4	0	1000	1	113	19:01:09	523362	0	0	0	0	0	0	0	0	0	0	0	0	0	0	0	0	0
062812	19:01:09	88888	Trial3BackFr	NN	4	0	1000	1	113	19:01:09	524881	0	0	0	0	0	0	0	0	0	0	0	0	0	0	0	0	0
062812	19:01:09	88888	Trial3BackFr	NN	4	0	1000	1	113	19:01:09	526401	0	0	0	0	0	0	0	0	0	0	0	0	0	0	0	0	0
062812	19:01:09	88888	Trial3BackFr	NN	4	0	1000	1	113	19:01:09	527920	0	0	0	0	0	0	0	0	0	0	0	0	0	0	0	0	0
062812	19:01:09	88888	Trial3BackFr	NN	4	0	1000	1	113	19:01:09	529439	0	0	0	0	0	0	0	0	0	0	0	0	0	0	0	0	0
062812	19:01:09	88888	Trial3BackFr	NN	4	0	1000	1	113	19:01:09	530959	0	0	0	0	0	0	0	0	0	0	0	0	0	0	0	0	0
062812	19:01:09	88888	Trial3BackFr	NN	4	0	1000	1	113	19:01:09	532478	0	0	0	0	0	0	0	0	0	0	0	0	0	0	0	0	0
062812	19:01:09	88888	Trial3BackFr	NN	4	0	1000	1	113	19:01:09	533998	0	0	0	0	0	0	0	0	0	0	0	0	0	0	0	0	0
062812	19:01:09	88888	Trial3BackFr	NN	4	0	1000	1	113	19:01:09	535517	0	0	0	0	0	0	0	0	0	0	0	0	0	0	0	0	0
062812	19:01:09	88888	Trial3BackFr	YY	4	0	1000	0	113	19:01:09	537037	0	0	0	0	0	0	0	0	0	0	0	0	0	0	0	0	0
062812	19:01:09	88888	Trial3BackFr	NN	4	0	1000	1	113	19:01:09	538556	0	0	0	0	0	0	0	0	0	0	0	0	0	0	0	0	0
062812	19:01:09	88888	Trial3BackFr	NN	4	0	1000	1	113	19:01:09	540089	0	0	0	0	0	0	0	0	0	0	0	0	0	0	0	0	0
062812	19:01:09	88888	Trial3BackFr	NN	4	0	1000	1	113	19:01:09	541608	0	0	0	0	0	0	0	0	0	0	0	0	0	0	0	0	0
062812	19:01:09	88888	Trial3BackFr	NN	4	0	1000	1	113	19:01:09	543127	0	0	0	0	0	0	0	0	0	0	0	0	0	0	0	0	0
062812	19:01:09	88888	Trial3BackFr	NN	4	0	1000	1	113	19:01:09	544647	0	0	0	0	0	0	0	0	0	0	0	0	0	0	0	0	0
062812	19:01:09	88888	Trial3BackFr	NN	4	0	1000	1	113	19:01:09	546166	0	0	0	0	0	0	0	0	0	0	0	0	0	0	0	0	0
062812	19:01:09	88888	Trial3BackFr	NN	4	0	1000	1	113	19:01:09	547686	0	0	0	0	0	0	0	0	0	0	0	0	0	0	0	0	0
062812	19:01:09	88888	Trial3BackFr	NN	4	0	1000	1	113	19:01:09	549205	0	0	0	0	0	0	0	0	0	0	0	0	0	0	0	0	0
062812	19:01:09	88888	Trial3BackFr	YY	4	0	1000	0	113	19:01:09	550725	0	0	0	0	0	0	0	0	0	0	0	0	0	0	0	0	0
062812	19:01:09	88888	Trial3BackFr	NN	4	0	1000	1	113	19:01:09	552244	0	0	0	0	0	0	0	0	0	0	0	0	0	0	0	0	0
062812	19:01:09	88888	Trial3BackFr	NN	4	0	1000	1	113	19:01:09	553763	0	0	0	0	0	0	0	0	0	0	0	0	0	0	0	0	0
062812	19:01:09	88888	Trial3BackFr	NN	4	0	1000	1	113	19:01:09	555283	0	0	0	0	0	0	0	0	0	0	0	0	0	0	0	0	0
062812	19:01:09	88888	Trial3BackFr	NN	4	0	1000	1	113	19:01:09	556802	0	0	0	0	0	0	0	0	0	0	0	0	0	0	0	0	0
062812	19:01:09	88888	Trial3BackFr	YY	4	0	1000	0	113	19:01:09	558322	0	0	0	0	0	0	0	0	0	0	0	0	0	0	0	0	0
062812	19:01:09	88888	Trial3BackFr	NN	4	0	1000	1	113	19:01:09	559841	0	0	0	0	0	0	0	0	0	0	0	0	0	0	0	0	0
062812	19:01:09	88888	Trial3BackFr	NN	4	0	1000	1	113	19:01:09	561360	0	0	0	0	0	0	0	0	0	0	0	0	0	0	0	0	0
062812	19:01:09	88888	Trial3BackFr	NN	4	0	1000	1	113	19:01:09	562880	0	0	0	0	0	0	0	0	0	0	0	0	0	0	0	0	0
062812	19:01:09	88888	Trial3BackFr	YY	4	0	1000	0	113	19:01:09	564399	0	0	0	0	0	0	0	0	0	0	0	0	0	0	0	0	0
062812	19:01:09	88888	Trial3BackFr	NN	4	0	1000	1	113	19:01:09	565919	0	0	0	0	0	0	0	0	0	0	0	0	0	0	0	0	0
062812	19:01:09	88888	Trial3BackFr	NN	4	0	1000	1	113	19:01:09	567438	0	0	0	0	0	0	0	0	0	0	0	0	0	0	0	0	0
062812	19:01:09	88888	Trial3BackFr	NN	4	0	1000	1	113	19:01:09	568957	0	0	0	0	0	0	0	0	0	0	0	0	0	0	0	0	0
062812	19:01:09	88888	Trial3BackFr	NN	4	0	1000	1	113	19:01:09	570477	0	0	0	0	0	0	0	0	0	0	0	0	0	0	0	0	0
062812	19:01:09	88888	Trial3BackFr	NN	4	0	1000	1	113	19:01:09	572010	0	0	0	0	0	0	0	0	0	0	0	0	0	0	0	0	0
062812	19:01:09	88888	Trial3BackFr	YY	4	0	1000	0	113	19:01:09	573529	0	0	0	0	0	0	0	0	0	0	0	0	0	0	0	0	0
062812	19:01:09	88888	Trial3BackFr	NN	4	0	1000	1	113	19:01:09	575048	0	0	0	0	0	0	0	0	0	0	0	0	0	0	0	0	0
062812	19:01:09	88888	Trial3BackFr	NN	4	0	1000	1	113	19:01:09	576568	0	0	0	0	0	0	0	0	0	0	0	0	0	0	0	0	0
062812	19:01:09	88888	Trial3BackFr	NN	4	0	1000	1	113	19:01:09	578087	0	0	0	0	0	0	0	0	0	0	0	0	0	0	0	0	0
062812	19:01:09	88888	Trial3BackFr	YY	4	0	1000	0	113	19:01:09	579606	0	0	0	0	0	0	0	0	0	0	0	0	0	0	0	0	0
062812	19:01:09	88888	Memory1RBaselineFr	ScoreFr	5	M6	2274	0	113	19:01:09	602704	0	0	0	0	0	0	0	0	0	0	0	0	0	0	0	0	0
062812	19:01:09	88888	Memory1RBaselineFr	ScoreFr	5	M5	344	0	113	19:01:09	603091	0	0	0	0	0	0	0	0	0	0	0	0	0	0	0	0	0
062812	19:01:09	88888	Memory1RBaselineFr	ScoreFr	5	M4	292	0	113	19:01:09	603424	0	0	0	0	0	0	0	0	0	0	0	0	0	0	0	0	0
062812	19:01:09	88888	Memory1RBaselineFr	ScoreFr	5	Done	1100	0	113	19:01:09	604571	0	0	0	0	0	0	0	0	0	0	0	0	0	0	0	0	0
062812	19:01:09	88888	Memory2RBaselineFr	ScoreFr2	5	11	3286	0	113	19:01:09	626548	0	0	0	0	0	0	0	0	0	0	0	0	0	0	0	0	0
062812	19:01:09	88888	Memory2RBaselineFr	ScoreFr2	5	22	274	0	113	19:01:09	626868	0	0	0	0	0	0	0	0	0	0	0	0	0	0	0	0	0
062812	19:01:09	88888	Memory2RBaselineFr	ScoreFr2	5	33	683	0	113	19:01:09	627588	0	0	0	0	0	0	0	0	0	0	0	0	0	0	0	0	0
062812	19:01:09	88888	Memory2RBaselineFr	ScoreFr2	5	44	410	0	113	19:01:09	628041	0	0	0	0	0	0	0	0	0	0	0	0	0	0	0	0	0
062812	19:01:09	88888	Memory2RBaselineFr	ScoreFr2	5	55	629	0	113	19:01:09	628707	0	0	0	0	0	0	0	0	0	0	0	0	0	0	0	0	0
062812	19:01:09	88888	Memory2RBaselineFr	ScoreFr2	5	Done	1035	0	113	19:01:09	629787	0	0	0	0	0	0	0	0	0	0	0	0	0	0	0	0	0
062812	19:01:09	88888	Memory3RBaselineFr	ScoreFr3	5	888	975	0	113	19:01:09	649259	0	0	0	0	0	0	0	0	0	0	0	0	0	0	0	0	0
062812	19:01:09	88888	Memory3RBaselineFr	ScoreFr3	5	777	307	0	113	19:01:09	649606	0	0	0	0	0	0	0	0	0	0	0	0	0	0	0	0	0
062812	19:01:09	88888	Memory3RBaselineFr	ScoreFr3	5	666	360	0	113	19:01:09	650005	0	0	0	0	0	0	0	0	0	0	0	0	0	0	0	0	0
062812	19:01:09	88888	Memory3RBaselineFr	ScoreFr3	5	555	888	0	113	19:01:09	650938	0	0	0	0	0	0	0	0	0	0	0	0	0	0	0	0	0
062812	19:01:09	88888	Memory3RBaselineFr	ScoreFr3	5	444	420	0	113	19:01:09	651405	0	0	0	0	0	0	0	0	0	0	0	0	0	0	0	0	0
062812	19:01:09	88888	Memory3RBaselineFr	ScoreFr3	5	333	649	0	113	19:01:09	652098	0	0	0	0	0	0	0	0	0	0	0	0	0	0	0	0	0
062812	19:01:09	88888	Memory3RBaselineFr	ScoreFr3	5	222	396	0	113	19:01:09	652538	0	0	0	0	0	0	0	0	0	0	0	0	0	0	0	0	0
062812	19:01:09	88888	Memory3RBaselineFr	ScoreFr3	5	111	612	0	113	19:01:09	653191	0	0	0	0	0	0	0	0	0	0	0	0	0	0	0	0	0
062812	19:01:09	88888	Memory3RBaselineFr	ScoreFr3	5	Done	4359	0	113	19:01:09	657589	0	0	0	0	0	0	0	0	0	0	0	0	0	0	0	0	0
062812	19:01:09	88888	LoriaFrRH3	Stop	6	6	4472	0	113	19:01:09	721966	0	0	0	0	0	0	0	0	0	0	0	0	0	0	0	0	0
062812	19:01:09	88888	FrTrail	Trails	7	1Trails	1367	0	113	19:01:09	729575	0	0	0	0	0	0	0	0	0	0	0	0	0	0	0	0	0
062812	19:01:09	88888	Serial7FrBaseline	Serial7FrBaseline	8	83	2277	0	113	19:01:09	735493	1	0	0	0	0	0	0	0	0	0	0	0	0	0	0	0	0
062812	19:01:09	88888	Serial7FrBaseline	Serial7FrBaseline	8	76	1621	0	113	19:01:09	737132	2	0	0	0	0	0	0	0	0	0	0	0	0	0	0	0	0
062812	19:01:09	88888	Serial7FrBaseline	Serial7FrBaseline	8	72	1325	0	113	19:01:09	738478	2	0	0	0	0	0	0	0	0	0	0	0	0	0	0	0	0
062812	19:01:09	88888	Serial7FrBaseline	Serial7FrBaseline	8	65	2235	0	113	19:01:09	740730	3	0	0	0	0	0	0	0	0	0	0	0	0	0	0	0	0
062812	19:01:09	88888	Serial7FrBaseline	Serial7FrBaseline	8	55	2650	0	113	19:01:09	743397	3	0	0	0	0	0	0	0	0	0	0	0	0	0	0	0	0
062812	19:01:09	88888	corsiblockFrFwrd	recallseqFrFwrd	9	7	842	0	113	19:01:09	753686	3	0	0	0	0	0	0	0	0	0	0	0	0	0	0	0	0
062812	19:01:09	88888	corsiblockFrFwrd	recallseqFrFwrd	9	1	831	0	113	19:01:09	754552	3	0	0	0	0	0	0	0	0	0	0	0	0	0	0	0	0
062812	19:01:09	88888	corsiblockFrFwrd	recallseqFrFwrd	9	doneCorsiFr	790	0	113	19:01:09	755378	3	0	0	0	0	0	0	0	0	0	0	0	0	0	0	2	0
062812	19:01:09	88888	corsiblockFrFwrd	recallseqFrFwrd	9	4	751	0	113	19:01:09	762242	3	0	0	0	0	0	0	0	0	0	0	0	0	0	0	2	0
062812	19:01:09	88888	corsiblockFrFwrd	recallseqFrFwrd	9	5	721	0	113	19:01:09	763003	3	0	0	0	0	0	0	0	0	0	0	0	0	0	0	2	0
062812	19:01:09	88888	corsiblockFrFwrd	recallseqFrFwrd	9	7	476	0	113	19:01:09	763522	3	0	0	0	0	0	0	0	0	0	0	0	0	0	0	2	0
062812	19:01:09	88888	corsiblockFrFwrd	recallseqFrFwrd	9	doneCorsiFr	987	0	113	19:01:09	764548	3	0	0	0	0	0	0	0	0	0	0	0	0	0	0	2	0
062812	19:01:09	88888	corsiblockFrFwrd	recallseqFrFwrd	9	2	911	0	113	19:01:09	771505	3	0	0	0	0	0	0	0	0	0	0	0	0	0	0	2	0
062812	19:01:09	88888	corsiblockFrFwrd	recallseqFrFwrd	9	5	891	0	113	19:01:09	772438	3	0	0	0	0	0	0	0	0	0	0	0	0	0	0	2	0
062812	19:01:09	88888	corsiblockFrFwrd	recallseqFrFwrd	9	8	871	0	113	19:01:09	773345	3	0	0	0	0	0	0	0	0	0	0	0	0	0	0	2	0
062812	19:01:09	88888	corsiblockFrFwrd	recallseqFrFwrd	9	doneCorsiFr	629	0	113	19:01:09	774011	3	0	0	0	0	0	0	0	0	0	0	0	0	0	0	2	0
062812	19:01:09	88888	corsiblockFrRev	recallseqFrRev	10	8	686	0	113	19:01:09	781515	3	0	0	0	0	0	0	0	0	0	0	0	0	0	0	2	0
062812	19:01:09	88888	corsiblockFrRev	recallseqFrRev	10	6	961	0	113	19:01:09	782514	3	0	0	0	0	0	0	0	0	0	0	0	0	0	0	2	0
062812	19:01:09	88888	corsiblockFrRev	recallseqFrRev	10	doneCorsiFr	843	0	113	19:01:09	783394	3	0	0	0	0	0	0	0	0	0	0	0	0	0	0	2	2
062812	19:01:09	88888	corsiblockFrRev	recallseqFrRev	10	4	607	0	113	19:01:09	790098	3	0	0	0	0	0	0	0	0	0	0	0	0	0	0	2	2
062812	19:01:09	88888	corsiblockFrRev	recallseqFrRev	10	9	627	0	113	19:01:09	790764	3	0	0	0	0	0	0	0	0	0	0	0	0	0	0	2	2
062812	19:01:09	88888	corsiblockFrRev	recallseqFrRev	10	2	617	0	113	19:01:09	791417	3	0	0	0	0	0	0	0	0	0	0	0	0	0	0	2	2
062812	19:01:09	88888	corsiblockFrRev	recallseqFrRev	10	doneCorsiFr	748	0	113	19:01:09	792204	3	0	0	0	0	0	0	0	0	0	0	0	0	0	0	2	3
062812	19:01:09	88888	corsiblockFrRev	recallseqFrRev	10	7	2326	0	113	19:01:09	801627	3	0	0	0	0	0	0	0	0	0	0	0	0	0	0	2	3
062812	19:01:09	88888	corsiblockFrRev	recallseqFrRev	10	3	690	0	113	19:01:09	802360	3	0	0	0	0	0	0	0	0	0	0	0	0	0	0	2	3
062812	19:01:09	88888	corsiblockFrRev	recallseqFrRev	10	5	468	0	113	19:01:09	802866	3	0	0	0	0	0	0	0	0	0	0	0	0	0	0	2	3
062812	19:01:09	88888	corsiblockFrRev	recallseqFrRev	10	1	699	0	113	19:01:09	803599	3	0	0	0	0	0	0	0	0	0	0	0	0	0	0	2	3
062812	19:01:09	88888	corsiblockFrRev	recallseqFrRev	10	doneCorsiFr	935	0	113	19:01:09	804572	3	0	0	0	0	0	0	0	0	0	0	0	0	0	0	2	4
062812	19:01:09	88888	corsiblockFrRev	recallseqFrRev	10	4	1357	0	113	19:01:09	814022	3	0	0	0	0	0	0	0	0	0	0	0	0	0	0	2	4
062812	19:01:09	88888	corsiblockFrRev	recallseqFrRev	10	7	639	0	113	19:01:09	814701	3	0	0	0	0	0	0	0	0	0	0	0	0	0	0	2	4
062812	19:01:09	88888	corsiblockFrRev	recallseqFrRev	10	2	702	0	113	19:01:09	815448	3	0	0	0	0	0	0	0	0	0	0	0	0	0	0	2	4
062812	19:01:09	88888	corsiblockFrRev	recallseqFrRev	10	6	773	0	113	19:01:09	816261	3	0	0	0	0	0	0	0	0	0	0	0	0	0	0	2	4
062812	19:01:09	88888	corsiblockFrRev	recallseqFrRev	10	1	880	0	113	19:01:09	817181	3	0	0	0	0	0	0	0	0	0	0	0	0	0	0	2	4
062812	19:01:09	88888	corsiblockFrRev	recallseqFrRev	10	doneCorsiFr	1154	0	113	19:01:09	818380	3	0	0	0	0	0	0	0	0	0	0	0	0	0	0	2	4
062812	19:01:09	88888	corsiblockFrRev	recallseqFrRev	10	7	4485	0	113	19:01:09	830923	3	0	0	0	0	0	0	0	0	0	0	0	0	0	0	2	4
062812	19:01:09	88888	corsiblockFrRev	recallseqFrRev	10	8	6761	0	113	19:01:09	837719	3	0	0	0	0	0	0	0	0	0	0	0	0	0	0	2	4
062812	19:01:09	88888	corsiblockFrRev	recallseqFrRev	10	9	2117	0	113	19:01:09	839879	3	0	0	0	0	0	0	0	0	0	0	0	0	0	0	2	4
062812	19:01:09	88888	corsiblockFrRev	recallseqFrRev	10	4	1055	0	113	19:01:09	840972	3	0	0	0	0	0	0	0	0	0	0	0	0	0	0	2	4
062812	19:01:09	88888	corsiblockFrRev	recallseqFrRev	10	1	929	0	113	19:01:09	841944	3	0	0	0	0	0	0	0	0	0	0	0	0	0	0	2	4
062812	19:01:09	88888	corsiblockFrRev	recallseqFrRev	10	doneCorsiFr	733	0	113	19:01:09	842717	3	0	0	0	0	0	0	0	0	0	0	0	0	0	0	2	4
062812	19:01:09	88888	testFrBaseline	WordsFrBaseline	11	8FrBaseline	1309	0	113	19:01:09	847849	3	0	0	0	0	0	0	0	1	0	0	0	0	0	0	2	4
062812	19:01:09	88888	testFrBaseline	WordsFrBaseline	11	7FrBaseline	573	0	113	19:01:09	848462	3	0	0	0	0	0	0	1	1	0	0	0	0	0	0	2	4
062812	19:01:09	88888	testFrBaseline	WordsFrBaseline	11	6FrBaseline	603	0	113	19:01:09	849102	3	0	0	0	0	0	1	1	1	0	0	0	0	0	0	2	4
062812	19:01:09	88888	testFrBaseline	WordsFrBaseline	11	5FrBaseline	343	0	113	19:01:09	849489	3	0	0	0	0	1	1	1	1	0	0	0	0	0	0	2	4
062812	19:01:09	88888	testFrBaseline	WordsFrBaseline	11	4FrBaseline	443	0	113	19:01:09	849981	3	0	0	0	1	1	1	1	1	0	0	0	0	0	0	2	4
062812	19:01:09	88888	testFrBaseline	WordsFrBaseline	11	3FrBaseline	527	0	113	19:01:09	850554	3	0	0	1	1	1	1	1	1	0	0	0	0	0	0	2	4
062812	19:01:09	88888	testFrBaseline	WordsFrBaseline	11	2FrBaseline	506	0	113	19:01:09	851101	3	0	1	1	1	1	1	1	1	0	0	0	0	0	0	2	4
062812	19:01:09	88888	testFrBaseline	WordsFrBaseline	11	1FrBaseline	528	0	113	19:01:09	851674	3	1	1	1	1	1	1	1	1	0	0	0	0	0	0	2	4
062812	19:01:09	88888	testFrBaseline	WordsFrBaseline	11	DoneFrBaseline	810	0	113	19:01:09	852527	3	1	1	1	1	1	1	1	1	0	0	0	0	0	0	2	4
062812	19:01:09	88888	DigitSpanFwrdFrBaseline	Score1FwrdFrBaseline	12	DS1	3028	0	113	19:01:09	863642	3	1	1	1	1	1	1	1	1	0	0	0	0	0	0	2	4
062812	19:01:09	88888	DigitSpanFwrdFrBaseline	Gate1FwrdFrBaseline	12	0	1	0	113	19:01:09	863657	3	1	1	1	1	1	1	1	1	3	0	0	0	0	0	2	4
062812	19:01:09	88888	DigitSpanFwrdFrBaseline	Score2FwrdFrBaseline	12	DS2	1041	0	113	19:01:09	870866	3	1	1	1	1	1	1	1	1	3	0	0	0	0	0	2	4
062812	19:01:09	88888	DigitSpanFwrdFrBaseline	Gate3FwrdFrBaseline	12	0	1	0	113	19:01:09	870881	3	1	1	1	1	1	1	1	1	3	0	0	0	0	0	2	4
062812	19:01:09	88888	DigitSpanFwrdFrBaseline	Score22FwrdFrBaseline	12	DS2	676	0	113	19:01:09	877343	3	1	1	1	1	1	1	1	1	3	0	0	0	0	0	2	4
062812	19:01:09	88888	DigitSpanFrBaseline	Score1FrBaseline	13	DS2	2682	0	113	19:01:09	885354	3	1	1	1	1	1	1	1	1	3	0	0	0	0	0	2	4
062812	19:01:09	88888	DigitSpanFrBaseline	Gate1FrBaseline	13	0	1	0	113	19:01:09	885369	3	1	1	1	1	1	1	1	1	3	0	0	0	0	0	2	4
062812	19:01:09	88888	DigitSpanFrBaseline	Score11FrBaseline	13	DS2	531	0	113	19:01:09	889045	3	1	1	1	1	1	1	1	1	3	0	0	0	0	0	2	4
062812	19:01:09	88888	Trial	IncongruentRight	14	205	689	1	113	19:01:09	910490	3	1	1	1	1	1	1	1	1	3	0	0	0	0	0	2	4
062812	19:01:09	88888	Trial	IncongruentLeft	14	203	473	1	113	19:01:09	911276	3	1	1	1	1	1	1	1	1	3	0	0	0	0	0	2	4
062812	19:01:09	88888	Trial	CongruentRight	14	205	434	1	113	19:01:09	912236	3	1	1	1	1	1	1	1	1	3	0	0	0	0	0	2	4
062812	19:01:09	88888	Trial	IncongruentRight	14	203	412	0	113	19:01:09	913236	3	1	1	1	1	1	1	1	1	3	0	0	0	0	0	2	4
062812	19:01:09	88888	Trial	CongruentLeft	14	203	470	1	113	19:01:09	914315	3	1	1	1	1	1	1	1	1	3	0	0	0	0	0	2	4
062812	19:01:09	88888	Trial	CongruentRight	14	205	334	1	113	19:01:09	915155	3	1	1	1	1	1	1	1	1	3	0	0	0	0	0	2	4
062812	19:01:09	88888	Trial	IncongruentRight	14	205	406	1	113	19:01:09	916221	3	1	1	1	1	1	1	1	1	3	0	0	0	0	0	2	4
062812	19:01:09	88888	Trial	CongruentLeft	14	203	375	1	113	19:01:09	917208	3	1	1	1	1	1	1	1	1	3	0	0	0	0	0	2	4
062812	19:01:09	88888	Trial	IncongruentLeft	14	203	428	1	113	19:01:09	918247	3	1	1	1	1	1	1	1	1	3	0	0	0	0	0	2	4
062812	19:01:09	88888	Trial	IncongruentLeft	14	203	447	1	113	19:01:09	919260	3	1	1	1	1	1	1	1	1	3	0	0	0	0	0	2	4
062812	19:01:09	88888	Trial	CongruentRight	14	205	394	1	113	19:01:09	920220	3	1	1	1	1	1	1	1	1	3	0	0	0	0	0	2	4
062812	19:01:09	88888	Trial	IncongruentRight	14	205	368	1	113	19:01:09	921193	3	1	1	1	1	1	1	1	1	3	0	0	0	0	0	2	4
062812	19:01:09	88888	Trial	CongruentLeft	14	203	344	1	113	19:01:09	922152	3	1	1	1	1	1	1	1	1	3	0	0	0	0	0	2	4
062812	19:01:09	88888	Trial	CongruentRight	14	205	369	1	113	19:01:09	923178	3	1	1	1	1	1	1	1	1	3	0	0	0	0	0	2	4
062812	19:01:09	88888	Trial	IncongruentLeft	14	203	380	1	113	19:01:09	924192	3	1	1	1	1	1	1	1	1	3	0	0	0	0	0	2	4
062812	19:01:09	88888	Trial	IncongruentRight	14	203	430	0	113	19:01:09	925271	3	1	1	1	1	1	1	1	1	3	0	0	0	0	0	2	4
062812	19:01:09	88888	Trial	CongruentRight	14	205	380	1	113	19:01:09	926204	3	1	1	1	1	1	1	1	1	3	0	0	0	0	0	2	4
062812	19:01:09	88888	Trial	CongruentLeft	14	203	357	1	113	19:01:09	927177	3	1	1	1	1	1	1	1	1	3	0	0	0	0	0	2	4
062812	19:01:09	88888	Trial	CongruentRight	14	205	375	1	113	19:01:09	928217	3	1	1	1	1	1	1	1	1	3	0	0	0	0	0	2	4
062812	19:01:09	88888	Trial	IncongruentRight	14	205	437	1	113	19:01:09	929336	3	1	1	1	1	1	1	1	1	3	0	0	0	0	0	2	4
062812	19:01:09	88888	Trial	IncongruentLeft	14	203	438	1	113	19:01:09	930309	3	1	1	1	1	1	1	1	1	3	0	0	0	0	0	2	4
062812	19:01:09	88888	Trial	IncongruentLeft	14	203	494	1	113	19:01:09	931362	3	1	1	1	1	1	1	1	1	3	0	0	0	0	0	2	4
062812	19:01:09	88888	Trial	CongruentLeft	14	203	377	1	113	19:01:09	932255	3	1	1	1	1	1	1	1	1	3	0	0	0	0	0	2	4
062812	19:01:09	88888	Trial	CongruentRight	14	205	393	1	113	19:01:09	933268	3	1	1	1	1	1	1	1	1	3	0	0	0	0	0	2	4
062812	19:01:09	88888	Trial	IncongruentLeft	14	203	410	1	113	19:01:09	934280	3	1	1	1	1	1	1	1	1	3	0	0	0	0	0	2	4
062812	19:01:09	88888	Trial	IncongruentRight	14	205	339	1	113	19:01:09	935267	3	1	1	1	1	1	1	1	1	3	0	0	0	0	0	2	4
062812	19:01:09	88888	Trial	CongruentRight	14	203	315	0	113	19:01:09	936187	3	1	1	1	1	1	1	1	1	3	0	0	0	0	0	2	4
062812	19:01:09	88888	Trial	CongruentLeft	14	203	451	1	113	19:01:09	937333	3	1	1	1	1	1	1	1	1	3	0	0	0	0	0	2	4
062812	19:01:09	88888	Trial	IncongruentRight	14	203	282	0	113	19:01:09	938186	3	1	1	1	1	1	1	1	1	3	0	0	0	0	0	2	4
062812	19:01:09	88888	Trial	IncongruentLeft	14	205	4	0	113	19:01:09	938880	3	1	1	1	1	1	1	1	1	3	0	0	0	0	0	2	4
062812	19:01:09	88888	Trial	IncongruentRight	14	0	737	0	113	19:01:09	940598	3	1	1	1	1	1	1	1	1	3	0	0	0	0	0	2	4
062812	19:01:09	88888	Trial	CongruentRight	14	0	737	0	113	19:01:09	941612	3	1	1	1	1	1	1	1	1	3	0	0	0	0	0	2	4
062812	19:01:09	88888	Trial	IncongruentLeft	14	205	105	0	113	19:01:09	941998	3	1	1	1	1	1	1	1	1	3	0	0	0	0	0	2	4
062812	19:01:09	88888	Trial	CongruentLeft	14	203	472	1	113	19:01:09	943357	3	1	1	1	1	1	1	1	1	3	0	0	0	0	0	2	4
062812	19:01:09	88888	Trial	CongruentRight	14	205	451	1	113	19:01:09	944357	3	1	1	1	1	1	1	1	1	3	0	0	0	0	0	2	4
062812	19:01:09	88888	Trial	IncongruentLeft	14	203	444	1	113	19:01:09	945370	3	1	1	1	1	1	1	1	1	3	0	0	0	0	0	2	4
062812	19:01:09	88888	Trial	IncongruentRight	14	205	525	1	113	19:01:09	946423	3	1	1	1	1	1	1	1	1	3	0	0	0	0	0	2	4
062812	19:01:09	88888	Trial	IncongruentRight	14	205	580	1	113	19:01:09	947476	3	1	1	1	1	1	1	1	1	3	0	0	0	0	0	2	4
062812	19:01:09	88888	Trial	CongruentLeft	14	203	425	1	113	19:01:09	948328	3	1	1	1	1	1	1	1	1	3	0	0	0	0	0	2	4
062812	19:01:09	88888	Trial	IncongruentLeft	14	203	605	1	113	19:01:09	949501	3	1	1	1	1	1	1	1	1	3	0	0	0	0	0	2	4
062812	19:01:09	88888	Trial	CongruentRight	14	205	652	1	113	19:01:09	950554	3	1	1	1	1	1	1	1	1	3	0	0	0	0	0	2	4
062812	19:01:09	88888	Trial	CongruentLeft	14	203	643	1	113	19:01:09	951567	3	1	1	1	1	1	1	1	1	3	0	0	0	0	0	2	4
062812	19:01:09	88888	Trial	IncongruentRight	14	205	486	1	113	19:01:09	952380	3	1	1	1	1	1	1	1	1	3	0	0	0	0	0	2	4
062812	19:01:09	88888	Trial	CongruentRight	14	205	654	1	113	19:01:09	953553	3	1	1	1	1	1	1	1	1	3	0	0	0	0	0	2	4
062812	19:01:09	88888	Trial	IncongruentLeft	14	203	494	1	113	19:01:09	954393	3	1	1	1	1	1	1	1	1	3	0	0	0	0	0	2	4
062812	19:01:09	88888	Trial	CongruentLeft	14	203	351	1	113	19:01:09	955246	3	1	1	1	1	1	1	1	1	3	0	0	0	0	0	2	4
062812	19:01:09	88888	Trial	IncongruentLeft	14	205	349	0	113	19:01:09	956246	3	1	1	1	1	1	1	1	1	3	0	0	0	0	0	2	4
062812	19:01:09	88888	Trial	IncongruentRight	14	203	380	0	113	19:01:09	957272	3	1	1	1	1	1	1	1	1	3	0	0	0	0	0	2	4
062812	19:01:09	88888	Trial	CongruentRight	14	205	221	1	113	19:01:09	958138	3	1	1	1	1	1	1	1	1	3	0	0	0	0	0	2	4
062812	19:01:09	88888	Trial	CongruentLeft	14	203	235	1	113	19:01:09	959138	3	1	1	1	1	1	1	1	1	3	0	0	0	0	0	2	4
062812	19:01:09	88888	Trial	CongruentLeft	14	205	46	0	113	19:01:09	959964	3	1	1	1	1	1	1	1	1	3	0	0	0	0	0	2	4
062812	19:01:09	88888	Trial	IncongruentRight	14	203	247	0	113	19:01:09	961164	3	1	1	1	1	1	1	1	1	3	0	0	0	0	0	2	4
062812	19:01:09	88888	Trial	IncongruentLeft	14	205	143	0	113	19:01:09	962056	3	1	1	1	1	1	1	1	1	3	0	0	0	0	0	2	4
062812	19:01:09	88888	Trial	IncongruentRight	14	203	50	0	113	19:01:09	962963	3	1	1	1	1	1	1	1	1	3	0	0	0	0	0	2	4
062812	19:01:09	88888	Trial	CongruentRight	14	205	291	1	113	19:01:09	964202	3	1	1	1	1	1	1	1	1	3	0	0	0	0	0	2	4
062812	19:01:09	88888	Trial	CongruentRight	14	203	310	0	113	19:01:09	965242	3	1	1	1	1	1	1	1	1	3	0	0	0	0	0	2	4
062812	19:01:09	88888	Trial	IncongruentLeft	14	205	286	0	113	19:01:09	966202	3	1	1	1	1	1	1	1	1	3	0	0	0	0	0	2	4
062812	19:01:09	88888	Trial	CongruentLeft	14	203	299	1	113	19:01:09	967214	3	1	1	1	1	1	1	1	1	3	0	0	0	0	0	2	4
062812	19:01:09	88888	Trial	CongruentRight	14	205	258	1	113	19:01:09	968174	3	1	1	1	1	1	1	1	1	3	0	0	0	0	0	2	4
062812	19:01:09	88888	Trial	CongruentLeft	14	203	268	1	113	19:01:09	969187	3	1	1	1	1	1	1	1	1	3	0	0	0	0	0	2	4
062812	19:01:09	88888	Trial	IncongruentRight	14	205	82	1	113	19:01:09	970000	3	1	1	1	1	1	1	1	1	3	0	0	0	0	0	2	4
062812	19:01:09	88888	Trial	CongruentRight	14	205	459	1	113	19:01:09	971373	3	1	1	1	1	1	1	1	1	3	0	0	0	0	0	2	4
062812	19:01:09	88888	Trial	CongruentLeft	14	203	358	1	113	19:01:09	972292	3	1	1	1	1	1	1	1	1	3	0	0	0	0	0	2	4
062812	19:01:09	88888	Trial	IncongruentLeft	14	203	348	1	113	19:01:09	973266	3	1	1	1	1	1	1	1	1	3	0	0	0	0	0	2	4
062812	19:01:09	88888	Trial	IncongruentLeft	14	203	619	1	113	19:01:09	974532	3	1	1	1	1	1	1	1	1	3	0	0	0	0	0	2	4
062812	19:01:09	88888	Trial	CongruentRight	14	205	438	1	113	19:01:09	975358	3	1	1	1	1	1	1	1	1	3	0	0	0	0	0	2	4
062812	19:01:09	88888	Trial	IncongruentRight	14	203	386	0	113	19:01:09	976318	3	1	1	1	1	1	1	1	1	3	0	0	0	0	0	2	4
062812	19:01:09	88888	Trial	CongruentLeft	14	205	264	0	113	19:01:09	977171	3	1	1	1	1	1	1	1	1	3	0	0	0	0	0	2	4
062812	19:01:09	88888	Trial	IncongruentRight	14	203	184	0	113	19:01:09	978103	3	1	1	1	1	1	1	1	1	3	0	0	0	0	0	2	4
062812	19:01:09	88888	Trial	CongruentRight	14	205	30	1	113	19:01:09	978943	3	1	1	1	1	1	1	1	1	3	0	0	0	0	0	2	4
062812	19:01:09	88888	Trial	IncongruentLeft	14	0	737	0	113	19:01:09	980636	3	1	1	1	1	1	1	1	1	3	0	0	0	0	0	2	4
062812	19:01:09	88888	Trial	CongruentLeft	14	205	592	0	113	19:01:09	981502	3	1	1	1	1	1	1	1	1	3	0	0	0	0	0	2	4
062812	19:01:09	88888	Trial	CongruentRight	14	203	503	0	113	19:01:09	982408	3	1	1	1	1	1	1	1	1	3	0	0	0	0	0	2	4
062812	19:01:09	88888	Trial	IncongruentLeft	14	203	624	1	113	19:01:09	983528	3	1	1	1	1	1	1	1	1	3	0	0	0	0	0	2	4
062812	19:01:09	88888	Trial	CongruentRight	14	205	463	1	113	19:01:09	984368	3	1	1	1	1	1	1	1	1	3	0	0	0	0	0	2	4
062812	19:01:09	88888	Trial	CongruentRight	14	205	522	1	113	19:01:09	985448	3	1	1	1	1	1	1	1	1	3	0	0	0	0	0	2	4
062812	19:01:09	88888	Trial	IncongruentRight	14	0	737	0	113	19:01:09	986647	3	1	1	1	1	1	1	1	1	3	0	0	0	0	0	2	4
062812	19:01:09	88888	Trial	CongruentLeft	14	0	737	0	113	19:01:09	987660	3	1	1	1	1	1	1	1	1	3	0	0	0	0	0	2	4
062812	19:01:09	88888	Trial	IncongruentLeft	14	203	209	1	113	19:01:09	988153	3	1	1	1	1	1	1	1	1	3	0	0	0	0	0	2	4
062812	19:01:09	88888	Trial	CongruentLeft	14	203	531	1	113	19:01:09	989473	3	1	1	1	1	1	1	1	1	3	0	0	0	0	0	2	4
062812	19:01:09	88888	Trial	IncongruentRight	14	205	578	1	113	19:01:09	990525	3	1	1	1	1	1	1	1	1	3	0	0	0	0	0	2	4
062812	19:01:09	88888	Trial	IncongruentLeft	14	203	714	1	113	19:01:09	991658	3	1	1	1	1	1	1	1	1	3	0	0	0	0	0	2	4
062812	19:01:09	88888	Trial	CongruentRight	14	205	689	1	113	19:01:09	992631	3	1	1	1	1	1	1	1	1	3	0	0	0	0	0	2	4
062812	19:01:09	88888	Trial	CongruentLeft	14	203	451	1	113	19:01:09	993444	3	1	1	1	1	1	1	1	1	3	0	0	0	0	0	2	4
062812	19:01:09	88888	Trial	IncongruentLeft	14	203	450	1	113	19:01:09	994404	3	1	1	1	1	1	1	1	1	3	0	0	0	0	0	2	4
062812	19:01:09	88888	Trial	CongruentLeft	14	203	462	1	113	19:01:09	995417	3	1	1	1	1	1	1	1	1	3	0	0	0	0	0	2	4
062812	19:01:09	88888	Trial	IncongruentRight	14	205	487	1	113	19:01:09	996443	3	1	1	1	1	1	1	1	1	3	0	0	0	0	0	2	4
062812	19:01:09	88888	Trial	CongruentRight	14	205	557	1	113	19:01:09	997509	3	1	1	1	1	1	1	1	1	3	0	0	0	0	0	2	4
062812	19:01:09	88888	Trial	IncongruentLeft	14	203	472	1	113	19:01:09	998429	3	1	1	1	1	1	1	1	1	3	0	0	0	0	0	2	4
062812	19:01:09	88888	Trial	CongruentLeft	14	203	483	1	113	19:01:09	999455	3	1	1	1	1	1	1	1	1	3	0	0	0	0	0	2	4
062812	19:01:09	88888	Trial	IncongruentRight	14	205	443	1	113	19:01:09	1000469	3	1	1	1	1	1	1	1	1	3	0	0	0	0	0	2	4
062812	19:01:09	88888	Trial	IncongruentLeft	14	203	334	1	113	19:01:09	1001361	3	1	1	1	1	1	1	1	1	3	0	0	0	0	0	2	4
062812	19:01:09	88888	Trial	CongruentLeft	14	203	332	1	113	19:01:09	1002361	3	1	1	1	1	1	1	1	1	3	0	0	0	0	0	2	4
062812	19:01:09	88888	Trial	IncongruentLeft	14	203	328	1	113	19:01:09	1003347	3	1	1	1	1	1	1	1	1	3	0	0	0	0	0	2	4
062812	19:01:09	88888	Trial	CongruentRight	14	203	359	0	113	19:01:09	1004386	3	1	1	1	1	1	1	1	1	3	0	0	0	0	0	2	4
062812	19:01:09	88888	Trial	CongruentLeft	14	203	440	1	113	19:01:09	1005466	3	1	1	1	1	1	1	1	1	3	0	0	0	0	0	2	4
062812	19:01:09	88888	Trial	IncongruentRight	14	205	485	1	113	19:01:09	1006506	3	1	1	1	1	1	1	1	1	3	0	0	0	0	0	2	4
062812	19:01:09	88888	Trial	CongruentLeft	14	203	337	1	113	19:01:09	1007359	3	1	1	1	1	1	1	1	1	3	0	0	0	0	0	2	4
062812	19:01:09	88888	Trial	CongruentRight	14	205	393	1	113	19:01:09	1008411	3	1	1	1	1	1	1	1	1	3	0	0	0	0	0	2	4
062812	19:01:09	88888	Trial	IncongruentLeft	14	203	369	1	113	19:01:09	1009398	3	1	1	1	1	1	1	1	1	3	0	0	0	0	0	2	4
062812	19:01:09	88888	WordsAbsFrBaseline	PAbsFrBaseline1	16	Abs1	1224	0	113	19:01:09	1014878	3	1	1	1	1	1	1	1	1	3	0	0	0	0	0	2	4
062812	19:01:09	88888	WordsAbsFrBaseline	AbsFrBaseline1	16	Abs1	1926	0	113	19:01:09	1016955	3	1	1	1	1	1	1	1	1	3	0	1	0	0	0	2	4
062812	19:01:09	88888	WordsAbsFrBaseline	AbsFrBaseline2	16	Abs1	1589	0	113	19:01:09	1018581	3	1	1	1	1	1	1	1	1	3	0	2	0	0	0	2	4
062812	19:01:09	88888	WordsAbsFrBaseline	AbsFrBaseline3	16	Abs1	838	0	113	19:01:09	1019461	3	1	1	1	1	1	1	1	1	3	0	3	0	0	0	2	4
062812	19:01:09	88888	Trial2BackFrS	NS	17	0	1000	1	113	19:01:09	1114910	3	1	1	1	1	1	1	1	1	3	0	3	0	0	0	2	4
062812	19:01:09	88888	Trial2BackFrS	NS	17	0	1000	1	113	19:01:09	1116423	3	1	1	1	1	1	1	1	1	3	0	3	0	0	0	2	4
062812	19:01:09	88888	Trial2BackFrS	NS	17	0	1000	1	113	19:01:09	1117955	3	1	1	1	1	1	1	1	1	3	0	3	0	0	0	2	4
062812	19:01:09	88888	Trial2BackFrS	YS	17	57	537	1	113	19:01:09	1119022	3	1	1	1	1	1	1	1	1	3	0	3	0	0	0	2	4
062812	19:01:09	88888	Trial2BackFrS	NS	17	0	1000	1	113	19:01:09	1120980	3	1	1	1	1	1	1	1	1	3	0	3	0	0	0	2	4
062812	19:01:09	88888	Trial2BackFrS	NS	17	0	1000	1	113	19:01:09	1122500	3	1	1	1	1	1	1	1	1	3	0	3	0	0	0	2	4
062812	19:01:09	88888	Trial2BackFrS	NS	17	0	1000	1	113	19:01:09	1124020	3	1	1	1	1	1	1	1	1	3	0	3	0	0	0	2	4
062812	19:01:09	88888	Trial2BackFrS	NS	17	0	1000	1	113	19:01:09	1125539	3	1	1	1	1	1	1	1	1	3	0	3	0	0	0	2	4
062812	19:01:09	88888	Trial2BackFrS	YS	17	0	1000	0	113	19:01:09	1127059	3	1	1	1	1	1	1	1	1	3	0	3	0	0	0	2	4
062812	19:01:09	88888	Trial2BackFrS	NS	17	0	1000	1	113	19:01:09	1128578	3	1	1	1	1	1	1	1	1	3	0	3	0	0	0	2	4
062812	19:01:09	88888	Trial2BackFrS	NS	17	0	1000	1	113	19:01:09	1130097	3	1	1	1	1	1	1	1	1	3	0	3	0	0	0	2	4
062812	19:01:09	88888	Trial2BackFrS	YS	17	0	1000	0	113	19:01:09	1131616	3	1	1	1	1	1	1	1	1	3	0	3	0	0	0	2	4
062812	19:01:09	88888	Trial2BackFrS	NS	17	0	1000	1	113	19:01:09	1133136	3	1	1	1	1	1	1	1	1	3	0	3	0	0	0	2	4
062812	19:01:09	88888	Trial2BackFrS	NS	17	0	1000	1	113	19:01:09	1134655	3	1	1	1	1	1	1	1	1	3	0	3	0	0	0	2	4
062812	19:01:09	88888	Trial2BackFrS	NS	17	0	1000	1	113	19:01:09	1136175	3	1	1	1	1	1	1	1	1	3	0	3	0	0	0	2	4
062812	19:01:09	88888	Trial2BackFrS	YS	17	0	1000	0	113	19:01:09	1137694	3	1	1	1	1	1	1	1	1	3	0	3	0	0	0	2	4
062812	19:01:09	88888	Trial2BackFrS	NS	17	0	1000	1	113	19:01:09	1139213	3	1	1	1	1	1	1	1	1	3	0	3	0	0	0	2	4
062812	19:01:09	88888	Trial2BackFrS	NS	17	0	1000	1	113	19:01:09	1140733	3	1	1	1	1	1	1	1	1	3	0	3	0	0	0	2	4
062812	19:01:09	88888	Trial2BackFrS	NS	17	0	1000	1	113	19:01:09	1142252	3	1	1	1	1	1	1	1	1	3	0	3	0	0	0	2	4
062812	19:01:09	88888	Trial2BackFrS	NS	17	57	479	0	113	19:01:09	1143265	3	1	1	1	1	1	1	1	1	3	0	3	0	0	0	2	4
062812	19:01:09	88888	Trial2BackFrS	YS	17	0	1000	0	113	19:01:09	1145278	3	1	1	1	1	1	1	1	1	3	0	3	0	0	0	2	4
062812	19:01:09	88888	Trial2BackFrS	NS	17	57	478	0	113	19:01:09	1146277	3	1	1	1	1	1	1	1	1	3	0	3	0	0	0	2	4
062812	19:01:09	88888	Trial2BackFrS	NS	17	0	1000	1	113	19:01:09	1148303	3	1	1	1	1	1	1	1	1	3	0	3	0	0	0	2	4
062812	19:01:09	88888	Trial2BackFrS	NS	17	57	412	0	113	19:01:09	1149249	3	1	1	1	1	1	1	1	1	3	0	3	0	0	0	2	4
062812	19:01:09	88888	Trial2BackFrS	NS	17	57	507	0	113	19:01:09	1150849	3	1	1	1	1	1	1	1	1	3	0	3	0	0	0	2	4
062812	19:01:09	88888	Trial2BackFrS	NS	17	0	1000	1	113	19:01:09	1152821	3	1	1	1	1	1	1	1	1	3	0	3	0	0	0	2	4
062812	19:01:09	88888	Trial2BackFrS	NS	17	57	423	0	113	19:01:09	1153768	3	1	1	1	1	1	1	1	1	3	0	3	0	0	0	2	4
062812	19:01:09	88888	Trial2BackFrS	NS	17	0	1000	1	113	19:01:09	1155847	3	1	1	1	1	1	1	1	1	3	0	3	0	0	0	2	4
062812	19:01:09	88888	Trial2BackFrS	NS	17	0	1000	1	113	19:01:09	1157366	3	1	1	1	1	1	1	1	1	3	0	3	0	0	0	2	4
062812	19:01:09	88888	Trial2BackFrS	NS	17	0	1000	1	113	19:01:09	1158886	3	1	1	1	1	1	1	1	1	3	0	3	0	0	0	2	4
062812	19:01:09	88888	Trial2BackFrS	NS	17	0	1000	1	113	19:01:09	1160405	3	1	1	1	1	1	1	1	1	3	0	3	0	0	0	2	4
062812	19:01:09	88888	Trial2BackFrS	YS	17	0	1000	0	113	19:01:09	1161924	3	1	1	1	1	1	1	1	1	3	0	3	0	0	0	2	4
062812	19:01:09	88888	Trial2BackFrS	NS	17	0	1000	1	113	19:01:09	1163444	3	1	1	1	1	1	1	1	1	3	0	3	0	0	0	2	4
062812	19:01:09	88888	Trial2BackFrS	NS	17	0	1000	1	113	19:01:09	1164963	3	1	1	1	1	1	1	1	1	3	0	3	0	0	0	2	4
062812	19:01:09	88888	Trial2BackFrS	NS	17	0	1000	1	113	19:01:09	1166483	3	1	1	1	1	1	1	1	1	3	0	3	0	0	0	2	4
062812	19:01:09	88888	Trial2BackFrS	YS	17	0	1000	0	113	19:01:09	1168002	3	1	1	1	1	1	1	1	1	3	0	3	0	0	0	2	4
062812	19:01:09	88888	Trial2BackFrS	NS	17	0	1000	1	113	19:01:09	1169522	3	1	1	1	1	1	1	1	1	3	0	3	0	0	0	2	4
062812	19:01:09	88888	Trial2BackFrS	NS	17	0	1000	1	113	19:01:09	1171081	3	1	1	1	1	1	1	1	1	3	0	3	0	0	0	2	4
062812	19:01:09	88888	Trial2BackFrS	NS	17	0	1000	1	113	19:01:09	1172601	3	1	1	1	1	1	1	1	1	3	0	3	0	0	0	2	4
062812	19:01:09	88888	Trial2BackFrS	NS	17	0	1000	1	113	19:01:09	1174120	3	1	1	1	1	1	1	1	1	3	0	3	0	0	0	2	4
062812	19:01:09	88888	Trial2BackFrS	NS	17	57	292	0	113	19:01:09	1174946	3	1	1	1	1	1	1	1	1	3	0	3	0	0	0	2	4
062812	19:01:09	88888	Trial2BackFrS	NS	17	0	1000	1	113	19:01:09	1177145	3	1	1	1	1	1	1	1	1	3	0	3	0	0	0	2	4
062812	19:01:09	88888	Trial2BackFrS	NS	17	0	1000	1	113	19:01:09	1178665	3	1	1	1	1	1	1	1	1	3	0	3	0	0	0	2	4
062812	19:01:09	88888	Trial2BackFrS	YS	17	57	707	1	113	19:01:09	1179904	3	1	1	1	1	1	1	1	1	3	0	3	0	0	0	2	4
062812	19:01:09	88888	Trial2BackFrS	NS	17	0	1000	1	113	19:01:09	1181690	3	1	1	1	1	1	1	1	1	3	0	3	0	0	0	2	4
062812	19:01:09	88888	Trial2BackFrS	NS	17	57	737	0	113	19:01:09	1182957	3	1	1	1	1	1	1	1	1	3	0	3	0	0	0	2	4
062812	19:01:09	88888	Trial2BackFrS	NS	17	0	1000	1	113	19:01:09	1184716	3	1	1	1	1	1	1	1	1	3	0	3	0	0	0	2	4
062812	19:01:09	88888	Trial2BackFrS	NS	17	0	1000	1	113	19:01:09	1186235	3	1	1	1	1	1	1	1	1	3	0	3	0	0	0	2	4
062812	19:01:09	88888	Trial2BackFrS	YS	17	0	1000	0	113	19:01:09	1187754	3	1	1	1	1	1	1	1	1	3	0	3	0	0	0	2	4
062812	19:01:09	88888	Trial2BackFrS	NS	17	0	1000	1	113	19:01:09	1189274	3	1	1	1	1	1	1	1	1	3	0	3	0	0	0	2	4
062812	19:01:09	88888	Trial2BackFrS	NS	17	0	1000	1	113	19:01:09	1190793	3	1	1	1	1	1	1	1	1	3	0	3	0	0	0	2	4
062812	19:01:09	88888	Trial2BackFrS	NS	17	0	1000	1	113	19:01:09	1192313	3	1	1	1	1	1	1	1	1	3	0	3	0	0	0	2	4
062812	19:01:09	88888	Trial2BackFrS	NS	17	0	1000	1	113	19:01:09	1193832	3	1	1	1	1	1	1	1	1	3	0	3	0	0	0	2	4
062812	19:01:09	88888	Trial2BackFrS	NS	17	0	1000	1	113	19:01:09	1195351	3	1	1	1	1	1	1	1	1	3	0	3	0	0	0	2	4
062812	19:01:09	88888	Trial2BackFrS	NS	17	0	1000	1	113	19:01:09	1196871	3	1	1	1	1	1	1	1	1	3	0	3	0	0	0	2	4
062812	19:01:09	88888	Trial2BackFrS	YS	17	0	1000	0	113	19:01:09	1198390	3	1	1	1	1	1	1	1	1	3	0	3	0	0	0	2	4
062812	19:01:09	88888	Trial2BackFrS	NS	17	0	1000	1	113	19:01:09	1199910	3	1	1	1	1	1	1	1	1	3	0	3	0	0	0	2	4
062812	19:01:09	88888	Trial2BackFrS	NS	17	0	1000	1	113	19:01:09	1201429	3	1	1	1	1	1	1	1	1	3	0	3	0	0	0	2	4
062812	19:01:09	88888	Trial2BackFrS	NS	17	0	1000	1	113	19:01:09	1202948	3	1	1	1	1	1	1	1	1	3	0	3	0	0	0	2	4
062812	19:01:09	88888	Trial2BackFrS	NS	17	0	1000	1	113	19:01:09	1204500	3	1	1	1	1	1	1	1	1	3	0	3	0	0	0	2	4
062812	19:01:09	88888	Trial2BackFrS	NS	17	0	1000	1	113	19:01:09	1206014	3	1	1	1	1	1	1	1	1	3	0	3	0	0	0	2	4
062812	19:01:09	88888	Trial2BackFrS	NS	17	0	1000	1	113	19:01:09	1207533	3	1	1	1	1	1	1	1	1	3	0	3	0	0	0	2	4
062812	19:01:09	88888	Trial2BackFrS	NS	17	0	1000	1	113	19:01:09	1209053	3	1	1	1	1	1	1	1	1	3	0	3	0	0	0	2	4
062812	19:01:09	88888	Trial2BackFrS	YS	17	0	1000	0	113	19:01:09	1210572	3	1	1	1	1	1	1	1	1	3	0	3	0	0	0	2	4
062812	19:01:09	88888	Trial2BackFrS	NS	17	0	1000	1	113	19:01:09	1212092	3	1	1	1	1	1	1	1	1	3	0	3	0	0	0	2	4
062812	19:01:09	88888	Trial2BackFrS	NS	17	0	1000	1	113	19:01:09	1213611	3	1	1	1	1	1	1	1	1	3	0	3	0	0	0	2	4
062812	19:01:09	88888	Trial2BackFrS	NS	17	0	1000	1	113	19:01:09	1215130	3	1	1	1	1	1	1	1	1	3	0	3	0	0	0	2	4
062812	19:01:09	88888	Trial2BackFrS	NS	17	0	1000	1	113	19:01:09	1216677	3	1	1	1	1	1	1	1	1	3	0	3	0	0	0	2	4
062812	19:01:09	88888	Trial2BackFrS	YS	17	0	1000	0	113	19:01:09	1218196	3	1	1	1	1	1	1	1	1	3	0	3	0	0	0	2	4
062812	19:01:09	88888	Trial2BackFrS	NS	17	0	1000	1	113	19:01:09	1219728	3	1	1	1	1	1	1	1	1	3	0	3	0	0	0	2	4
062812	19:01:09	88888	Trial2BackFrS	NS	17	0	1000	1	113	19:01:09	1221248	3	1	1	1	1	1	1	1	1	3	0	3	0	0	0	2	4
062812	19:01:09	88888	Trial2BackFrS	YS	17	0	1000	0	113	19:01:09	1222767	3	1	1	1	1	1	1	1	1	3	0	3	0	0	0	2	4
062812	19:01:09	88888	Trial2BackFrS	NS	17	0	1000	1	113	19:01:09	1224287	3	1	1	1	1	1	1	1	1	3	0	3	0	0	0	2	4
062812	19:01:09	88888	Trial2BackFrS	NS	17	0	1000	1	113	19:01:09	1225806	3	1	1	1	1	1	1	1	1	3	0	3	0	0	0	2	4
062812	19:01:09	88888	Trial2BackFrS	NS	17	0	1000	1	113	19:01:09	1227325	3	1	1	1	1	1	1	1	1	3	0	3	0	0	0	2	4
062812	19:01:09	88888	Trial2BackFrS	NS	17	0	1000	1	113	19:01:09	1228845	3	1	1	1	1	1	1	1	1	3	0	3	0	0	0	2	4
062812	19:01:09	88888	Trial2BackFrS	NS	17	0	1000	1	113	19:01:09	1230364	3	1	1	1	1	1	1	1	1	3	0	3	0	0	0	2	4
062812	19:01:09	88888	Trial2BackFrS	NS	17	0	1000	1	113	19:01:09	1231884	3	1	1	1	1	1	1	1	1	3	0	3	0	0	0	2	4
062812	19:01:09	88888	Trial2BackFrS	YS	17	0	1000	0	113	19:01:09	1233403	3	1	1	1	1	1	1	1	1	3	0	3	0	0	0	2	4
062812	19:01:09	88888	Trial2BackFrS	NS	17	0	1000	1	113	19:01:09	1234922	3	1	1	1	1	1	1	1	1	3	0	3	0	0	0	2	4
062812	19:01:09	88888	Trial2BackFrS	NS	17	0	1000	1	113	19:01:09	1236442	3	1	1	1	1	1	1	1	1	3	0	3	0	0	0	2	4
062812	19:01:09	88888	Trial2BackFrS	NS	17	0	1000	1	113	19:01:09	1237961	3	1	1	1	1	1	1	1	1	3	0	3	0	0	0	2	4
062812	19:01:09	88888	Trial2BackFrS	NS	17	0	1000	1	113	19:01:09	1239481	3	1	1	1	1	1	1	1	1	3	0	3	0	0	0	2	4
062812	19:01:09	88888	Trial2BackFrS	YS	17	0	1000	0	113	19:01:09	1241000	3	1	1	1	1	1	1	1	1	3	0	3	0	0	0	2	4
062812	19:01:09	88888	Trial2BackFrS	NS	17	0	1000	1	113	19:01:09	1242519	3	1	1	1	1	1	1	1	1	3	0	3	0	0	0	2	4
062812	19:01:09	88888	Trial2BackFrS	NS	17	0	1000	1	113	19:01:09	1244039	3	1	1	1	1	1	1	1	1	3	0	3	0	0	0	2	4
062812	19:01:09	88888	Trial2BackFrS	NS	17	0	1000	1	113	19:01:09	1245558	3	1	1	1	1	1	1	1	1	3	0	3	0	0	0	2	4
062812	19:01:09	88888	Trial2BackFrS	NS	17	0	1000	1	113	19:01:09	1247078	3	1	1	1	1	1	1	1	1	3	0	3	0	0	0	2	4
062812	19:01:09	88888	Trial2BackFrS	YS	17	0	1000	0	113	19:01:09	1248598	3	1	1	1	1	1	1	1	1	3	0	3	0	0	0	2	4
062812	19:01:09	88888	Trial2BackFrS	NS	17	0	1000	1	113	19:01:09	1250116	3	1	1	1	1	1	1	1	1	3	0	3	0	0	0	2	4
062812	19:01:09	88888	Trial2BackFrS	NS	17	0	1000	1	113	19:01:09	1251636	3	1	1	1	1	1	1	1	1	3	0	3	0	0	0	2	4
062812	19:01:09	88888	Trial2BackFrS	YS	17	0	1000	0	113	19:01:09	1253168	3	1	1	1	1	1	1	1	1	3	0	3	0	0	0	2	4
062812	19:01:09	88888	Trial2BackFrS	NS	17	0	1000	1	113	19:01:09	1254688	3	1	1	1	1	1	1	1	1	3	0	3	0	0	0	2	4
062812	19:01:09	88888	Trial2BackFrS	NS	17	0	1000	1	113	19:01:09	1256207	3	1	1	1	1	1	1	1	1	3	0	3	0	0	0	2	4
062812	19:01:09	88888	Trial2BackFrS	NS	17	0	1000	1	113	19:01:09	1257727	3	1	1	1	1	1	1	1	1	3	0	3	0	0	0	2	4
062812	19:01:09	88888	Trial2BackFrS	NS	17	0	1000	1	113	19:01:09	1259247	3	1	1	1	1	1	1	1	1	3	0	3	0	0	0	2	4
062812	19:01:09	88888	Trial2BackFrS	NS	17	0	1000	1	113	19:01:09	1260766	3	1	1	1	1	1	1	1	1	3	0	3	0	0	0	2	4
062812	19:01:09	88888	Trial2BackFrS	NS	17	0	1000	1	113	19:01:09	1262285	3	1	1	1	1	1	1	1	1	3	0	3	0	0	0	2	4
062812	19:01:09	88888	Trial2BackFrS	NS	17	0	1000	1	113	19:01:09	1263804	3	1	1	1	1	1	1	1	1	3	0	3	0	0	0	2	4
062812	19:01:09	88888	Trial2BackFrS	NS	17	0	1000	1	113	19:01:09	1265324	3	1	1	1	1	1	1	1	1	3	0	3	0	0	0	2	4
062812	19:01:09	88888	Trial2BackFrS	YS	17	0	1000	0	113	19:01:09	1266843	3	1	1	1	1	1	1	1	1	3	0	3	0	0	0	2	4
062812	19:01:09	88888	Trial2BackFrS	NS	17	57	463	0	113	19:01:09	1267829	3	1	1	1	1	1	1	1	1	3	0	3	0	0	0	2	4
062812	19:01:09	88888	Trial2BackFrS	NS	17	0	1000	1	113	19:01:09	1269869	3	1	1	1	1	1	1	1	1	3	0	3	0	0	0	2	4
062812	19:01:09	88888	Trial2BackFrS	NS	17	0	1000	1	113	19:01:09	1271388	3	1	1	1	1	1	1	1	1	3	0	3	0	0	0	2	4
062812	19:01:09	88888	Trial2BackFrS	NS	17	0	1000	1	113	19:01:09	1272908	3	1	1	1	1	1	1	1	1	3	0	3	0	0	0	2	4
062812	19:01:09	88888	Trial2BackFrS	NS	17	0	1000	1	113	19:01:09	1274427	3	1	1	1	1	1	1	1	1	3	0	3	0	0	0	2	4
062812	19:01:09	88888	Trial2BackFrS	NS	17	0	1000	1	113	19:01:09	1275946	3	1	1	1	1	1	1	1	1	3	0	3	0	0	0	2	4
062812	19:01:09	88888	Trial2BackFrS	NS	17	0	1000	1	113	19:01:09	1277479	3	1	1	1	1	1	1	1	1	3	0	3	0	0	0	2	4
062812	19:01:09	88888	Trial2BackFrS	YS	17	0	1000	0	113	19:01:09	1278999	3	1	1	1	1	1	1	1	1	3	0	3	0	0	0	2	4
062812	19:01:09	88888	Trial2BackFrS	NS	17	0	1000	1	113	19:01:09	1280544	3	1	1	1	1	1	1	1	1	3	0	3	0	0	0	2	4
062812	19:01:09	88888	Trial2BackFrS	NS	17	57	826	0	113	19:01:09	1281904	3	1	1	1	1	1	1	1	1	3	0	3	0	0	0	2	4
062812	19:01:09	88888	Trial2BackFrS	NS	17	0	1000	1	113	19:01:09	1283570	3	1	1	1	1	1	1	1	1	3	0	3	0	0	0	2	4
062812	19:01:09	88888	Trial2BackFrS	NS	17	0	1000	1	113	19:01:09	1285089	3	1	1	1	1	1	1	1	1	3	0	3	0	0	0	2	4
062812	19:01:09	88888	Trial2BackFrS	NS	17	0	1000	1	113	19:01:09	1286609	3	1	1	1	1	1	1	1	1	3	0	3	0	0	0	2	4
062812	19:01:09	88888	Trial2BackFrS	NS	17	57	346	0	113	19:01:09	1287488	3	1	1	1	1	1	1	1	1	3	0	3	0	0	0	2	4
062812	19:01:09	88888	Trial2BackFrS	NS	17	0	1000	1	113	19:01:09	1289634	3	1	1	1	1	1	1	1	1	3	0	3	0	0	0	2	4
062812	19:01:09	88888	Trial2BackFrS	NS	17	0	1000	1	113	19:01:09	1291154	3	1	1	1	1	1	1	1	1	3	0	3	0	0	0	2	4
062812	19:01:09	88888	Trial2BackFrS	NS	17	0	1000	1	113	19:01:09	1292673	3	1	1	1	1	1	1	1	1	3	0	3	0	0	0	2	4
062812	19:01:09	88888	Trial2BackFrS	YS	17	0	1000	0	113	19:01:09	1294192	3	1	1	1	1	1	1	1	1	3	0	3	0	0	0	2	4
062812	19:01:09	88888	Trial2BackFrS	NS	17	0	1000	1	113	19:01:09	1295712	3	1	1	1	1	1	1	1	1	3	0	3	0	0	0	2	4
062812	19:01:09	88888	ClockFrBaseline	ClockFrBaseline	19	Clock1	4529	0	113	19:01:09	1300620	3	1	1	1	1	1	1	1	1	3	0	3	1	0	0	2	4
062812	19:01:09	88888	ClockFrBaseline	ClockFrBaseline	19	Clock11	742	0	113	19:01:09	1301403	3	1	1	1	1	1	1	1	1	3	0	3	1	1	0	2	4
062812	19:01:09	88888	ClockFrBaseline	ClockFrBaseline	19	Clock111	803	0	113	19:01:09	1302243	3	1	1	1	1	1	1	1	1	3	0	3	1	1	1	2	4
062812	19:01:09	88888	ClockFrBaseline	ClockFrBaseline	19	Clockdone	404	0	113	19:01:09	1302683	3	1	1	1	1	1	1	1	1	3	0	3	1	1	1	2	4
062812	19:01:09	88888	FASFrVFBaseline	StopFrVFBaseline	20	25	3380	0	113	19:01:09	1382625	3	1	1	1	1	1	1	1	1	3	0	3	1	1	1	2	4
