date	time	subject	blockcode	trialcode	values.TaskNumber	response	latency	correct	values.Score	script.starttime	script.elapsedtime	values.ScoreS7	values.Word1	values.Word2	values.Word3	values.Word4	values.Word5	values.Word6	values.Word7	values.Word8	values.DigitSpanFwrd	values.DigitSpanBack	values.ScoreAbs	values.Contour	values.Numbers	values.Hands	values.corsiblockspanFwrd	values.corsiblockspanRev
091012	18:00:08	10015	Language	Language	0	French	2214	0	0	18:00:08	2297	0	0	0	0	0	0	0	0	0	0	0	0	0	0	0	0	0
091012	18:00:08	10015	Session	Session	0	3mo	774	0	0	18:00:08	3150	0	0	0	0	0	0	0	0	0	0	0	0	0	0	0	0	0
091012	18:00:08	10015	HandFr	HandFr	0	RightFr	128123	0	0	18:00:08	131351	0	0	0	0	0	0	0	0	0	0	0	0	0	0	0	0	0
091012	18:00:08	10015	AudioCheckFr	WordsFr	0	0	0	0	0	18:00:08	150060	0	0	0	0	0	0	0	0	0	0	0	0	0	0	0	0	0
091012	18:00:08	10015	CubeFr	CubeFr	1	1Cube	32696	0	0	18:00:08	183862	0	0	0	0	0	0	0	0	0	0	0	0	0	0	0	0	0
091012	18:00:08	10015	pm.simpleFrRight	blank.simpleFr	2	0	2187	1	0	18:00:08	198176	0	0	0	0	0	0	0	0	0	0	0	0	0	0	0	0	0
091012	18:00:08	10015	pm.simpleFrRight	pm.simpleFr	2	57	511	0	0	18:00:08	198723	0	0	0	0	0	0	0	0	0	0	0	0	0	0	0	0	0
091012	18:00:08	10015	pm.simpleFrRight	blank.simpleFr	2	0	1987	1	0	18:00:08	200734	0	0	0	0	0	0	0	0	0	0	0	0	0	0	0	0	0
091012	18:00:08	10015	pm.simpleFrRight	pm.simpleFr	2	57	415	0	0	18:00:08	201188	0	0	0	0	0	0	0	0	0	0	0	0	0	0	0	0	0
091012	18:00:08	10015	pm.simpleFrRight	blank.simpleFr	2	0	1787	1	0	18:00:08	203000	0	0	0	0	0	0	0	0	0	0	0	0	0	0	0	0	0
091012	18:00:08	10015	pm.simpleFrRight	pm.simpleFr	2	57	358	0	0	18:00:08	203400	0	0	0	0	0	0	0	0	0	0	0	0	0	0	0	0	0
091012	18:00:08	10015	pm.simpleFrRight	blank.simpleFr	2	0	1487	1	0	18:00:08	204906	0	0	0	0	0	0	0	0	0	0	0	0	0	0	0	0	0
091012	18:00:08	10015	pm.simpleFrRight	pm.simpleFr	2	57	372	0	0	18:00:08	205319	0	0	0	0	0	0	0	0	0	0	0	0	0	0	0	0	0
091012	18:00:08	10015	pm.simpleFrRight	blank.simpleFr	2	0	1687	1	0	18:00:08	207025	0	0	0	0	0	0	0	0	0	0	0	0	0	0	0	0	0
091012	18:00:08	10015	pm.simpleFrRight	pm.simpleFr	2	57	317	0	0	18:00:08	207372	0	0	0	0	0	0	0	0	0	0	0	0	0	0	0	0	0
091012	18:00:08	10015	pm.simpleFrRight	blank.simpleFr	2	0	2487	1	0	18:00:08	209891	0	0	0	0	0	0	0	0	0	0	0	0	0	0	0	0	0
091012	18:00:08	10015	pm.simpleFrRight	pm.simpleFr	2	57	315	0	0	18:00:08	210237	0	0	0	0	0	0	0	0	0	0	0	0	0	0	0	0	0
091012	18:00:08	10015	pm.simpleFrRight	blank.simpleFr	2	0	2387	1	0	18:00:08	212650	0	0	0	0	0	0	0	0	0	0	0	0	0	0	0	0	0
091012	18:00:08	10015	pm.simpleFrRight	pm.simpleFr	2	57	276	0	0	18:00:08	212956	0	0	0	0	0	0	0	0	0	0	0	0	0	0	0	0	0
091012	18:00:08	10015	pm.simpleFrRight	blank.simpleFr	2	0	2087	1	0	18:00:08	215075	0	0	0	0	0	0	0	0	0	0	0	0	0	0	0	0	0
091012	18:00:08	10015	pm.simpleFrRight	pm.simpleFr	2	57	314	0	0	18:00:08	215422	0	0	0	0	0	0	0	0	0	0	0	0	0	0	0	0	0
091012	18:00:08	10015	pm.simpleFrRight	blank.simpleFr	2	0	1587	1	0	18:00:08	217034	0	0	0	0	0	0	0	0	0	0	0	0	0	0	0	0	0
091012	18:00:08	10015	pm.simpleFrRight	pm.simpleFr	2	57	387	0	0	18:00:08	217461	0	0	0	0	0	0	0	0	0	0	0	0	0	0	0	0	0
091012	18:00:08	10015	pm.simpleFrRight	blank.simpleFr	2	0	1887	1	0	18:00:08	219367	0	0	0	0	0	0	0	0	0	0	0	0	0	0	0	0	0
091012	18:00:08	10015	pm.simpleFrRight	pm.simpleFr	2	57	343	0	0	18:00:08	219740	0	0	0	0	0	0	0	0	0	0	0	0	0	0	0	0	0
091012	18:00:08	10015	pm.simpleFrRight	blank.simpleFr	2	0	2287	1	0	18:00:08	222059	0	0	0	0	0	0	0	0	0	0	0	0	0	0	0	0	0
091012	18:00:08	10015	pm.simpleFrRight	pm.simpleFr	2	57	466	0	0	18:00:08	222566	0	0	0	0	0	0	0	0	0	0	0	0	0	0	0	0	0
091012	18:00:08	10015	pm.simpleFrRight	blank.simpleFr	2	0	2487	1	0	18:00:08	225071	0	0	0	0	0	0	0	0	0	0	0	0	0	0	0	0	0
091012	18:00:08	10015	pm.simpleFrRight	pm.simpleFr	2	57	334	0	0	18:00:08	225444	0	0	0	0	0	0	0	0	0	0	0	0	0	0	0	0	0
091012	18:00:08	10015	pm.simpleFrRight	blank.simpleFr	2	0	2387	1	0	18:00:08	227857	0	0	0	0	0	0	0	0	0	0	0	0	0	0	0	0	0
091012	18:00:08	10015	pm.simpleFrRight	pm.simpleFr	2	57	285	0	0	18:00:08	228177	0	0	0	0	0	0	0	0	0	0	0	0	0	0	0	0	0
091012	18:00:08	10015	pm.simpleFrRight	blank.simpleFr	2	0	2287	1	0	18:00:08	230482	0	0	0	0	0	0	0	0	0	0	0	0	0	0	0	0	0
091012	18:00:08	10015	pm.simpleFrRight	pm.simpleFr	2	57	251	0	0	18:00:08	230776	0	0	0	0	0	0	0	0	0	0	0	0	0	0	0	0	0
091012	18:00:08	10015	pm.simpleFrRight	blank.simpleFr	2	0	1487	1	0	18:00:08	232281	0	0	0	0	0	0	0	0	0	0	0	0	0	0	0	0	0
091012	18:00:08	10015	pm.simpleFrRight	pm.simpleFr	2	57	388	0	0	18:00:08	232708	0	0	0	0	0	0	0	0	0	0	0	0	0	0	0	0	0
091012	18:00:08	10015	pm.simpleFrRight	blank.simpleFr	2	0	1687	1	0	18:00:08	234414	0	0	0	0	0	0	0	0	0	0	0	0	0	0	0	0	0
091012	18:00:08	10015	pm.simpleFrRight	pm.simpleFr	2	57	335	0	0	18:00:08	234787	0	0	0	0	0	0	0	0	0	0	0	0	0	0	0	0	0
091012	18:00:08	10015	pm.simpleFrRight	blank.simpleFr	2	0	1887	1	0	18:00:08	236693	0	0	0	0	0	0	0	0	0	0	0	0	0	0	0	0	0
091012	18:00:08	10015	pm.simpleFrRight	pm.simpleFr	2	57	344	0	0	18:00:08	237080	0	0	0	0	0	0	0	0	0	0	0	0	0	0	0	0	0
091012	18:00:08	10015	pm.simpleFrRight	blank.simpleFr	2	0	1987	1	0	18:00:08	239092	0	0	0	0	0	0	0	0	0	0	0	0	0	0	0	0	0
091012	18:00:08	10015	pm.simpleFrRight	pm.simpleFr	2	57	313	0	0	18:00:08	239439	0	0	0	0	0	0	0	0	0	0	0	0	0	0	0	0	0
091012	18:00:08	10015	pm.simpleFrRight	blank.simpleFr	2	0	2187	1	0	18:00:08	241651	0	0	0	0	0	0	0	0	0	0	0	0	0	0	0	0	0
091012	18:00:08	10015	pm.simpleFrRight	pm.simpleFr	2	57	298	0	0	18:00:08	241984	0	0	0	0	0	0	0	0	0	0	0	0	0	0	0	0	0
091012	18:00:08	10015	pm.simpleFrRight	blank.simpleFr	2	0	2087	1	0	18:00:08	244103	0	0	0	0	0	0	0	0	0	0	0	0	0	0	0	0	0
091012	18:00:08	10015	pm.simpleFrRight	pm.simpleFr	2	57	309	0	0	18:00:08	244450	0	0	0	0	0	0	0	0	0	0	0	0	0	0	0	0	0
091012	18:00:08	10015	pm.simpleFrRight	blank.simpleFr	2	0	1587	1	0	18:00:08	246062	0	0	0	0	0	0	0	0	0	0	0	0	0	0	0	0	0
091012	18:00:08	10015	pm.simpleFrRight	pm.simpleFr	2	57	446	0	0	18:00:08	246542	0	0	0	0	0	0	0	0	0	0	0	0	0	0	0	0	0
091012	18:00:08	10015	pm.simpleFrRight	blank.simpleFr	2	0	1787	1	0	18:00:08	248355	0	0	0	0	0	0	0	0	0	0	0	0	0	0	0	0	0
091012	18:00:08	10015	pm.simpleFrRight	pm.simpleFr	2	57	298	0	0	18:00:08	248688	0	0	0	0	0	0	0	0	0	0	0	0	0	0	0	0	0
091012	18:00:08	10015	pm.simpleFrRight	blank.simpleFr	2	0	1487	1	0	18:00:08	250194	0	0	0	0	0	0	0	0	0	0	0	0	0	0	0	0	0
091012	18:00:08	10015	pm.simpleFrRight	pm.simpleFr	2	57	410	0	0	18:00:08	250647	0	0	0	0	0	0	0	0	0	0	0	0	0	0	0	0	0
091012	18:00:08	10015	pm.simpleFrRight	blank.simpleFr	2	0	1687	1	0	18:00:08	252353	0	0	0	0	0	0	0	0	0	0	0	0	0	0	0	0	0
091012	18:00:08	10015	pm.simpleFrRight	pm.simpleFr	2	57	284	0	0	18:00:08	252673	0	0	0	0	0	0	0	0	0	0	0	0	0	0	0	0	0
091012	18:00:08	10015	pm.simpleFrRight	blank.simpleFr	2	0	1787	1	0	18:00:08	254485	0	0	0	0	0	0	0	0	0	0	0	0	0	0	0	0	0
091012	18:00:08	10015	pm.simpleFrRight	pm.simpleFr	2	57	295	0	0	18:00:08	254819	0	0	0	0	0	0	0	0	0	0	0	0	0	0	0	0	0
091012	18:00:08	10015	pm.simpleFrRight	blank.simpleFr	2	0	2487	1	0	18:00:08	257324	0	0	0	0	0	0	0	0	0	0	0	0	0	0	0	0	0
091012	18:00:08	10015	pm.simpleFrRight	pm.simpleFr	2	57	288	0	0	18:00:08	257644	0	0	0	0	0	0	0	0	0	0	0	0	0	0	0	0	0
091012	18:00:08	10015	pm.simpleFrRight	blank.simpleFr	2	0	2187	1	0	18:00:08	259857	0	0	0	0	0	0	0	0	0	0	0	0	0	0	0	0	0
091012	18:00:08	10015	pm.simpleFrRight	pm.simpleFr	2	57	268	0	0	18:00:08	260163	0	0	0	0	0	0	0	0	0	0	0	0	0	0	0	0	0
091012	18:00:08	10015	pm.simpleFrRight	blank.simpleFr	2	0	1987	1	0	18:00:08	262176	0	0	0	0	0	0	0	0	0	0	0	0	0	0	0	0	0
091012	18:00:08	10015	pm.simpleFrRight	pm.simpleFr	2	57	364	0	0	18:00:08	262575	0	0	0	0	0	0	0	0	0	0	0	0	0	0	0	0	0
091012	18:00:08	10015	pm.simpleFrRight	blank.simpleFr	2	0	1887	1	0	18:00:08	264482	0	0	0	0	0	0	0	0	0	0	0	0	0	0	0	0	0
091012	18:00:08	10015	pm.simpleFrRight	pm.simpleFr	2	57	283	0	0	18:00:08	264801	0	0	0	0	0	0	0	0	0	0	0	0	0	0	0	0	0
091012	18:00:08	10015	pm.simpleFrRight	blank.simpleFr	2	0	2087	1	0	18:00:08	266907	0	0	0	0	0	0	0	0	0	0	0	0	0	0	0	0	0
091012	18:00:08	10015	pm.simpleFrRight	pm.simpleFr	2	57	289	0	0	18:00:08	267227	0	0	0	0	0	0	0	0	0	0	0	0	0	0	0	0	0
091012	18:00:08	10015	pm.simpleFrRight	blank.simpleFr	2	0	2387	1	0	18:00:08	269639	0	0	0	0	0	0	0	0	0	0	0	0	0	0	0	0	0
091012	18:00:08	10015	pm.simpleFrRight	pm.simpleFr	2	57	276	0	0	18:00:08	269946	0	0	0	0	0	0	0	0	0	0	0	0	0	0	0	0	0
091012	18:00:08	10015	pm.simpleFrRight	blank.simpleFr	2	0	2287	1	0	18:00:08	272252	0	0	0	0	0	0	0	0	0	0	0	0	0	0	0	0	0
091012	18:00:08	10015	pm.simpleFrRight	pm.simpleFr	2	57	272	0	0	18:00:08	272558	0	0	0	0	0	0	0	0	0	0	0	0	0	0	0	0	0
091012	18:00:08	10015	pm.simpleFrRight	blank.simpleFr	2	0	1587	1	0	18:00:08	274171	0	0	0	0	0	0	0	0	0	0	0	0	0	0	0	0	0
091012	18:00:08	10015	pm.simpleFrRight	pm.simpleFr	2	57	369	0	0	18:00:08	274570	0	0	0	0	0	0	0	0	0	0	0	0	0	0	0	0	0
091012	18:00:08	10015	pm.simpleFrRight	blank.simpleFr	2	0	2387	1	0	18:00:08	276983	0	0	0	0	0	0	0	0	0	0	0	0	0	0	0	0	0
091012	18:00:08	10015	pm.simpleFrRight	pm.simpleFr	2	57	436	0	0	18:00:08	277450	0	0	0	0	0	0	0	0	0	0	0	0	0	0	0	0	0
091012	18:00:08	10015	pm.simpleFrRight	blank.simpleFr	2	0	2487	1	0	18:00:08	279969	0	0	0	0	0	0	0	0	0	0	0	0	0	0	0	0	0
091012	18:00:08	10015	pm.simpleFrRight	pm.simpleFr	2	57	251	0	0	18:00:08	280262	0	0	0	0	0	0	0	0	0	0	0	0	0	0	0	0	0
091012	18:00:08	10015	pm.simpleFrRight	blank.simpleFr	2	0	1487	1	0	18:00:08	281768	0	0	0	0	0	0	0	0	0	0	0	0	0	0	0	0	0
091012	18:00:08	10015	pm.simpleFrRight	pm.simpleFr	2	57	372	0	0	18:00:08	282181	0	0	0	0	0	0	0	0	0	0	0	0	0	0	0	0	0
091012	18:00:08	10015	pm.simpleFrRight	blank.simpleFr	2	0	2287	1	0	18:00:08	284500	0	0	0	0	0	0	0	0	0	0	0	0	0	0	0	0	0
091012	18:00:08	10015	pm.simpleFrRight	pm.simpleFr	2	57	280	0	0	18:00:08	284820	0	0	0	0	0	0	0	0	0	0	0	0	0	0	0	0	0
091012	18:00:08	10015	pm.simpleFrRight	blank.simpleFr	2	0	1687	1	0	18:00:08	286539	0	0	0	0	0	0	0	0	0	0	0	0	0	0	0	0	0
091012	18:00:08	10015	pm.simpleFrRight	pm.simpleFr	2	57	320	0	0	18:00:08	286899	0	0	0	0	0	0	0	0	0	0	0	0	0	0	0	0	0
091012	18:00:08	10015	pm.simpleFrRight	blank.simpleFr	2	0	1587	1	0	18:00:08	288512	0	0	0	0	0	0	0	0	0	0	0	0	0	0	0	0	0
091012	18:00:08	10015	pm.simpleFrRight	pm.simpleFr	2	57	300	0	0	18:00:08	288845	0	0	0	0	0	0	0	0	0	0	0	0	0	0	0	0	0
091012	18:00:08	10015	pm.simpleFrRight	blank.simpleFr	2	0	2187	1	0	18:00:08	291057	0	0	0	0	0	0	0	0	0	0	0	0	0	0	0	0	0
091012	18:00:08	10015	pm.simpleFrRight	pm.simpleFr	2	57	250	0	0	18:00:08	291337	0	0	0	0	0	0	0	0	0	0	0	0	0	0	0	0	0
091012	18:00:08	10015	Trial2BackFr	N	3	0	1000	1	1	18:00:08	333493	0	0	0	0	0	0	0	0	0	0	0	0	0	0	0	0	0
091012	18:00:08	10015	Trial2BackFr	N	3	0	1000	1	2	18:00:08	335012	0	0	0	0	0	0	0	0	0	0	0	0	0	0	0	0	0
091012	18:00:08	10015	Trial2BackFr	N	3	0	1000	1	3	18:00:08	336532	0	0	0	0	0	0	0	0	0	0	0	0	0	0	0	0	0
091012	18:00:08	10015	Trial2BackFr	N	3	0	1000	1	4	18:00:08	338051	0	0	0	0	0	0	0	0	0	0	0	0	0	0	0	0	0
091012	18:00:08	10015	Trial2BackFr	N	3	0	1000	1	5	18:00:08	339570	0	0	0	0	0	0	0	0	0	0	0	0	0	0	0	0	0
091012	18:00:08	10015	Trial2BackFr	N	3	0	1000	1	6	18:00:08	341090	0	0	0	0	0	0	0	0	0	0	0	0	0	0	0	0	0
091012	18:00:08	10015	Trial2BackFr	N	3	0	1000	1	7	18:00:08	342609	0	0	0	0	0	0	0	0	0	0	0	0	0	0	0	0	0
091012	18:00:08	10015	Trial2BackFr	N	3	0	1000	1	8	18:00:08	344129	0	0	0	0	0	0	0	0	0	0	0	0	0	0	0	0	0
091012	18:00:08	10015	Trial2BackFr	Y	3	57	654	1	9	18:00:08	345315	0	0	0	0	0	0	0	0	0	0	0	0	0	0	0	0	0
091012	18:00:08	10015	Trial2BackFr	N	3	0	1000	1	10	18:00:08	347154	0	0	0	0	0	0	0	0	0	0	0	0	0	0	0	0	0
091012	18:00:08	10015	Trial2BackFr	N	3	0	1000	1	11	18:00:08	348673	0	0	0	0	0	0	0	0	0	0	0	0	0	0	0	0	0
091012	18:00:08	10015	Trial2BackFr	N	3	0	1000	1	12	18:00:08	350193	0	0	0	0	0	0	0	0	0	0	0	0	0	0	0	0	0
091012	18:00:08	10015	Trial2BackFr	Y	3	57	525	1	13	18:00:08	351246	0	0	0	0	0	0	0	0	0	0	0	0	0	0	0	0	0
091012	18:00:08	10015	Trial2BackFr	N	3	0	1000	1	14	18:00:08	353218	0	0	0	0	0	0	0	0	0	0	0	0	0	0	0	0	0
091012	18:00:08	10015	Trial2BackFr	N	3	0	1000	1	15	18:00:08	354737	0	0	0	0	0	0	0	0	0	0	0	0	0	0	0	0	0
091012	18:00:08	10015	Trial2BackFr	N	3	0	1000	1	16	18:00:08	356257	0	0	0	0	0	0	0	0	0	0	0	0	0	0	0	0	0
091012	18:00:08	10015	Trial2BackFr	N	3	0	1000	1	17	18:00:08	357776	0	0	0	0	0	0	0	0	0	0	0	0	0	0	0	0	0
091012	18:00:08	10015	Trial2BackFr	N	3	0	1000	1	18	18:00:08	359296	0	0	0	0	0	0	0	0	0	0	0	0	0	0	0	0	0
091012	18:00:08	10015	Trial2BackFr	Y	3	57	574	1	19	18:00:08	360402	0	0	0	0	0	0	0	0	0	0	0	0	0	0	0	0	0
091012	18:00:08	10015	Trial2BackFr	N	3	0	1000	1	20	18:00:08	362321	0	0	0	0	0	0	0	0	0	0	0	0	0	0	0	0	0
091012	18:00:08	10015	Trial2BackFr	N	3	0	1000	1	21	18:00:08	363840	0	0	0	0	0	0	0	0	0	0	0	0	0	0	0	0	0
091012	18:00:08	10015	Trial2BackFr	N	3	0	1000	1	22	18:00:08	365360	0	0	0	0	0	0	0	0	0	0	0	0	0	0	0	0	0
091012	18:00:08	10015	Trial2BackFr	N	3	0	1000	1	23	18:00:08	366879	0	0	0	0	0	0	0	0	0	0	0	0	0	0	0	0	0
091012	18:00:08	10015	Trial2BackFr	Y	3	57	718	1	24	18:00:08	368132	0	0	0	0	0	0	0	0	0	0	0	0	0	0	0	0	0
091012	18:00:08	10015	Trial2BackFr	N	3	0	1000	1	25	18:00:08	369905	0	0	0	0	0	0	0	0	0	0	0	0	0	0	0	0	0
091012	18:00:08	10015	Trial2BackFr	N	3	0	1000	1	26	18:00:08	371424	0	0	0	0	0	0	0	0	0	0	0	0	0	0	0	0	0
091012	18:00:08	10015	Trial2BackFr	N	3	0	1000	1	27	18:00:08	372943	0	0	0	0	0	0	0	0	0	0	0	0	0	0	0	0	0
091012	18:00:08	10015	Trial2BackFr	N	3	0	1000	1	28	18:00:08	374463	0	0	0	0	0	0	0	0	0	0	0	0	0	0	0	0	0
091012	18:00:08	10015	Trial2BackFr	N	3	0	1000	1	29	18:00:08	375982	0	0	0	0	0	0	0	0	0	0	0	0	0	0	0	0	0
091012	18:00:08	10015	Trial2BackFr	N	3	0	1000	1	30	18:00:08	377501	0	0	0	0	0	0	0	0	0	0	0	0	0	0	0	0	0
091012	18:00:08	10015	Trial2BackFr	Y	3	57	496	1	31	18:00:08	378527	0	0	0	0	0	0	0	0	0	0	0	0	0	0	0	0	0
091012	18:00:08	10015	Trial2BackFr	N	3	0	1000	1	32	18:00:08	380527	0	0	0	0	0	0	0	0	0	0	0	0	0	0	0	0	0
091012	18:00:08	10015	Trial2BackFr	N	3	0	1000	1	33	18:00:08	382047	0	0	0	0	0	0	0	0	0	0	0	0	0	0	0	0	0
091012	18:00:08	10015	Trial2BackFr	N	3	0	1000	1	34	18:00:08	383566	0	0	0	0	0	0	0	0	0	0	0	0	0	0	0	0	0
091012	18:00:08	10015	Trial2BackFr	Y	3	57	799	1	35	18:00:08	384898	0	0	0	0	0	0	0	0	0	0	0	0	0	0	0	0	0
091012	18:00:08	10015	Trial2BackFr	N	3	0	1000	1	36	18:00:08	386591	0	0	0	0	0	0	0	0	0	0	0	0	0	0	0	0	0
091012	18:00:08	10015	Trial2BackFr	N	3	0	1000	1	37	18:00:08	388110	0	0	0	0	0	0	0	0	0	0	0	0	0	0	0	0	0
091012	18:00:08	10015	Trial2BackFr	N	3	0	1000	1	38	18:00:08	389630	0	0	0	0	0	0	0	0	0	0	0	0	0	0	0	0	0
091012	18:00:08	10015	Trial2BackFr	N	3	0	1000	1	39	18:00:08	391149	0	0	0	0	0	0	0	0	0	0	0	0	0	0	0	0	0
091012	18:00:08	10015	Trial2BackFr	N	3	0	1000	1	40	18:00:08	392668	0	0	0	0	0	0	0	0	0	0	0	0	0	0	0	0	0
091012	18:00:08	10015	Trial2BackFr	N	3	0	1000	1	41	18:00:08	394188	0	0	0	0	0	0	0	0	0	0	0	0	0	0	0	0	0
091012	18:00:08	10015	Trial2BackFr	Y	3	57	481	1	42	18:00:08	395201	0	0	0	0	0	0	0	0	0	0	0	0	0	0	0	0	0
091012	18:00:08	10015	Trial2BackFr	N	3	0	1000	1	43	18:00:08	397213	0	0	0	0	0	0	0	0	0	0	0	0	0	0	0	0	0
091012	18:00:08	10015	Trial2BackFr	N	3	0	1000	1	44	18:00:08	398733	0	0	0	0	0	0	0	0	0	0	0	0	0	0	0	0	0
091012	18:00:08	10015	Trial2BackFr	N	3	0	1000	1	45	18:00:08	400252	0	0	0	0	0	0	0	0	0	0	0	0	0	0	0	0	0
091012	18:00:08	10015	Trial2BackFr	N	3	0	1000	1	46	18:00:08	401771	0	0	0	0	0	0	0	0	0	0	0	0	0	0	0	0	0
091012	18:00:08	10015	Trial2BackFr	Y	3	57	449	1	47	18:00:08	402744	0	0	0	0	0	0	0	0	0	0	0	0	0	0	0	0	0
091012	18:00:08	10015	Trial2BackFr	N	3	0	1000	1	48	18:00:08	404797	0	0	0	0	0	0	0	0	0	0	0	0	0	0	0	0	0
091012	18:00:08	10015	Trial2BackFr	N	3	0	1000	1	49	18:00:08	406316	0	0	0	0	0	0	0	0	0	0	0	0	0	0	0	0	0
091012	18:00:08	10015	Trial2BackFr	N	3	0	1000	1	50	18:00:08	407835	0	0	0	0	0	0	0	0	0	0	0	0	0	0	0	0	0
091012	18:00:08	10015	Trial2BackFr	N	3	0	1000	1	51	18:00:08	409355	0	0	0	0	0	0	0	0	0	0	0	0	0	0	0	0	0
091012	18:00:08	10015	Trial2BackFr	N	3	0	1000	1	52	18:00:08	410874	0	0	0	0	0	0	0	0	0	0	0	0	0	0	0	0	0
091012	18:00:08	10015	Trial2BackFr	Y	3	57	354	1	53	18:00:08	411754	0	0	0	0	0	0	0	0	0	0	0	0	0	0	0	0	0
091012	18:00:08	10015	Trial2BackFr	N	3	0	1000	1	54	18:00:08	413900	0	0	0	0	0	0	0	0	0	0	0	0	0	0	0	0	0
091012	18:00:08	10015	Trial2BackFr	N	3	0	1000	1	55	18:00:08	415419	0	0	0	0	0	0	0	0	0	0	0	0	0	0	0	0	0
091012	18:00:08	10015	Trial2BackFr	N	3	0	1000	1	56	18:00:08	416938	0	0	0	0	0	0	0	0	0	0	0	0	0	0	0	0	0
091012	18:00:08	10015	Trial2BackFr	N	3	0	1000	1	57	18:00:08	418458	0	0	0	0	0	0	0	0	0	0	0	0	0	0	0	0	0
091012	18:00:08	10015	Trial2BackFr	N	3	0	1000	1	58	18:00:08	419977	0	0	0	0	0	0	0	0	0	0	0	0	0	0	0	0	0
091012	18:00:08	10015	Trial2BackFr	N	3	0	1000	1	59	18:00:08	421497	0	0	0	0	0	0	0	0	0	0	0	0	0	0	0	0	0
091012	18:00:08	10015	Trial2BackFr	Y	3	57	371	1	60	18:00:08	422389	0	0	0	0	0	0	0	0	0	0	0	0	0	0	0	0	0
091012	18:00:08	10015	Trial2BackFr	N	3	0	1000	1	61	18:00:08	424522	0	0	0	0	0	0	0	0	0	0	0	0	0	0	0	0	0
091012	18:00:08	10015	Trial2BackFr	N	3	0	1000	1	62	18:00:08	426041	0	0	0	0	0	0	0	0	0	0	0	0	0	0	0	0	0
091012	18:00:08	10015	Trial2BackFr	Y	3	57	530	1	63	18:00:08	427094	0	0	0	0	0	0	0	0	0	0	0	0	0	0	0	0	0
091012	18:00:08	10015	Trial2BackFr	N	3	0	1000	1	64	18:00:08	429067	0	0	0	0	0	0	0	0	0	0	0	0	0	0	0	0	0
091012	18:00:08	10015	Trial2BackFr	N	3	0	1000	1	65	18:00:08	430586	0	0	0	0	0	0	0	0	0	0	0	0	0	0	0	0	0
091012	18:00:08	10015	Trial2BackFr	N	3	0	1000	1	66	18:00:08	432105	0	0	0	0	0	0	0	0	0	0	0	0	0	0	0	0	0
091012	18:00:08	10015	Trial2BackFr	N	3	0	1000	1	67	18:00:08	433625	0	0	0	0	0	0	0	0	0	0	0	0	0	0	0	0	0
091012	18:00:08	10015	Trial2BackFr	N	3	0	1000	1	68	18:00:08	435144	0	0	0	0	0	0	0	0	0	0	0	0	0	0	0	0	0
091012	18:00:08	10015	Trial2BackFr	N	3	0	1000	1	69	18:00:08	436664	0	0	0	0	0	0	0	0	0	0	0	0	0	0	0	0	0
091012	18:00:08	10015	Trial2BackFr	N	3	0	1000	1	70	18:00:08	438183	0	0	0	0	0	0	0	0	0	0	0	0	0	0	0	0	0
091012	18:00:08	10015	Trial2BackFr	N	3	0	1000	1	71	18:00:08	439702	0	0	0	0	0	0	0	0	0	0	0	0	0	0	0	0	0
091012	18:00:08	10015	Trial2BackFr	N	3	0	1000	1	72	18:00:08	441222	0	0	0	0	0	0	0	0	0	0	0	0	0	0	0	0	0
091012	18:00:08	10015	Trial2BackFr	N	3	0	1000	1	73	18:00:08	442741	0	0	0	0	0	0	0	0	0	0	0	0	0	0	0	0	0
091012	18:00:08	10015	Trial2BackFr	Y	3	57	486	1	74	18:00:08	443754	0	0	0	0	0	0	0	0	0	0	0	0	0	0	0	0	0
091012	18:00:08	10015	Trial2BackFr	N	3	0	1000	1	75	18:00:08	445766	0	0	0	0	0	0	0	0	0	0	0	0	0	0	0	0	0
091012	18:00:08	10015	Trial2BackFr	N	3	0	1000	1	76	18:00:08	447286	0	0	0	0	0	0	0	0	0	0	0	0	0	0	0	0	0
091012	18:00:08	10015	Trial2BackFr	N	3	0	1000	1	77	18:00:08	448805	0	0	0	0	0	0	0	0	0	0	0	0	0	0	0	0	0
091012	18:00:08	10015	Trial2BackFr	Y	3	57	406	1	78	18:00:08	449738	0	0	0	0	0	0	0	0	0	0	0	0	0	0	0	0	0
091012	18:00:08	10015	Trial2BackFr	N	3	0	1000	1	79	18:00:08	451831	0	0	0	0	0	0	0	0	0	0	0	0	0	0	0	0	0
091012	18:00:08	10015	Trial2BackFr	N	3	0	1000	1	80	18:00:08	453350	0	0	0	0	0	0	0	0	0	0	0	0	0	0	0	0	0
091012	18:00:08	10015	Trial2BackFr	N	3	0	1000	1	81	18:00:08	454869	0	0	0	0	0	0	0	0	0	0	0	0	0	0	0	0	0
091012	18:00:08	10015	Trial2BackFr	N	3	0	1000	1	82	18:00:08	456389	0	0	0	0	0	0	0	0	0	0	0	0	0	0	0	0	0
091012	18:00:08	10015	Trial2BackFr	N	3	0	1000	1	83	18:00:08	457908	0	0	0	0	0	0	0	0	0	0	0	0	0	0	0	0	0
091012	18:00:08	10015	Trial2BackFr	Y	3	57	502	1	84	18:00:08	458934	0	0	0	0	0	0	0	0	0	0	0	0	0	0	0	0	0
091012	18:00:08	10015	Trial2BackFr	N	3	0	1000	1	85	18:00:08	460933	0	0	0	0	0	0	0	0	0	0	0	0	0	0	0	0	0
091012	18:00:08	10015	Trial2BackFr	N	3	0	1000	1	86	18:00:08	462453	0	0	0	0	0	0	0	0	0	0	0	0	0	0	0	0	0
091012	18:00:08	10015	Trial2BackFr	N	3	0	1000	1	87	18:00:08	463972	0	0	0	0	0	0	0	0	0	0	0	0	0	0	0	0	0
091012	18:00:08	10015	Trial2BackFr	N	3	0	1000	1	88	18:00:08	465492	0	0	0	0	0	0	0	0	0	0	0	0	0	0	0	0	0
091012	18:00:08	10015	Trial2BackFr	N	3	0	1000	1	89	18:00:08	467011	0	0	0	0	0	0	0	0	0	0	0	0	0	0	0	0	0
091012	18:00:08	10015	Trial2BackFr	N	3	0	1000	1	90	18:00:08	468530	0	0	0	0	0	0	0	0	0	0	0	0	0	0	0	0	0
091012	18:00:08	10015	Trial2BackFr	N	3	0	1000	1	91	18:00:08	470050	0	0	0	0	0	0	0	0	0	0	0	0	0	0	0	0	0
091012	18:00:08	10015	Trial2BackFr	N	3	0	1000	1	92	18:00:08	471569	0	0	0	0	0	0	0	0	0	0	0	0	0	0	0	0	0
091012	18:00:08	10015	Trial2BackFr	N	3	0	1000	1	93	18:00:08	473088	0	0	0	0	0	0	0	0	0	0	0	0	0	0	0	0	0
091012	18:00:08	10015	Trial2BackFr	Y	3	57	601	1	94	18:00:08	474221	0	0	0	0	0	0	0	0	0	0	0	0	0	0	0	0	0
091012	18:00:08	10015	Trial2BackFr	N	3	0	1000	1	95	18:00:08	476114	0	0	0	0	0	0	0	0	0	0	0	0	0	0	0	0	0
091012	18:00:08	10015	Trial2BackFr	N	3	0	1000	1	96	18:00:08	477633	0	0	0	0	0	0	0	0	0	0	0	0	0	0	0	0	0
091012	18:00:08	10015	Trial2BackFr	N	3	0	1000	1	97	18:00:08	479153	0	0	0	0	0	0	0	0	0	0	0	0	0	0	0	0	0
091012	18:00:08	10015	Trial2BackFr	N	3	0	1000	1	98	18:00:08	480672	0	0	0	0	0	0	0	0	0	0	0	0	0	0	0	0	0
091012	18:00:08	10015	Trial2BackFr	N	3	0	1000	1	99	18:00:08	482191	0	0	0	0	0	0	0	0	0	0	0	0	0	0	0	0	0
091012	18:00:08	10015	Trial2BackFr	N	3	0	1000	1	100	18:00:08	483711	0	0	0	0	0	0	0	0	0	0	0	0	0	0	0	0	0
091012	18:00:08	10015	Trial2BackFr	N	3	0	1000	1	101	18:00:08	485244	0	0	0	0	0	0	0	0	0	0	0	0	0	0	0	0	0
091012	18:00:08	10015	Trial2BackFr	N	3	0	1000	1	102	18:00:08	486763	0	0	0	0	0	0	0	0	0	0	0	0	0	0	0	0	0
091012	18:00:08	10015	Trial2BackFr	Y	3	57	415	1	103	18:00:08	487709	0	0	0	0	0	0	0	0	0	0	0	0	0	0	0	0	0
091012	18:00:08	10015	Trial2BackFr	N	3	0	1000	1	104	18:00:08	489788	0	0	0	0	0	0	0	0	0	0	0	0	0	0	0	0	0
091012	18:00:08	10015	Trial2BackFr	N	3	0	1000	1	105	18:00:08	491308	0	0	0	0	0	0	0	0	0	0	0	0	0	0	0	0	0
091012	18:00:08	10015	Trial2BackFr	N	3	0	1000	1	106	18:00:08	492827	0	0	0	0	0	0	0	0	0	0	0	0	0	0	0	0	0
091012	18:00:08	10015	Trial2BackFr	N	3	0	1000	1	107	18:00:08	494346	0	0	0	0	0	0	0	0	0	0	0	0	0	0	0	0	0
091012	18:00:08	10015	Trial2BackFr	Y	3	57	879	1	108	18:00:08	495759	0	0	0	0	0	0	0	0	0	0	0	0	0	0	0	0	0
091012	18:00:08	10015	Trial2BackFr	N	3	0	1000	1	109	18:00:08	497372	0	0	0	0	0	0	0	0	0	0	0	0	0	0	0	0	0
091012	18:00:08	10015	Trial2BackFr	N	3	0	1000	1	110	18:00:08	498891	0	0	0	0	0	0	0	0	0	0	0	0	0	0	0	0	0
091012	18:00:08	10015	Trial2BackFr	N	3	0	1000	1	111	18:00:08	500410	0	0	0	0	0	0	0	0	0	0	0	0	0	0	0	0	0
091012	18:00:08	10015	Trial2BackFr	Y	3	57	574	1	112	18:00:08	501517	0	0	0	0	0	0	0	0	0	0	0	0	0	0	0	0	0
091012	18:00:08	10015	Trial2BackFr	N	3	0	1000	1	113	18:00:08	503436	0	0	0	0	0	0	0	0	0	0	0	0	0	0	0	0	0
091012	18:00:08	10015	Trial2BackFr	N	3	0	1000	1	114	18:00:08	504955	0	0	0	0	0	0	0	0	0	0	0	0	0	0	0	0	0
091012	18:00:08	10015	Trial2BackFr	N	3	0	1000	1	115	18:00:08	506475	0	0	0	0	0	0	0	0	0	0	0	0	0	0	0	0	0
091012	18:00:08	10015	Trial2BackFr	N	3	0	1000	1	116	18:00:08	507994	0	0	0	0	0	0	0	0	0	0	0	0	0	0	0	0	0
091012	18:00:08	10015	Trial2BackFr	N	3	0	1000	1	117	18:00:08	509513	0	0	0	0	0	0	0	0	0	0	0	0	0	0	0	0	0
091012	18:00:08	10015	Trial2BackFr	Y	3	57	527	1	118	18:00:08	510566	0	0	0	0	0	0	0	0	0	0	0	0	0	0	0	0	0
091012	18:00:08	10015	Trial2BackFr	N	3	0	1000	1	119	18:00:08	512539	0	0	0	0	0	0	0	0	0	0	0	0	0	0	0	0	0
091012	18:00:08	10015	Trial2BackFr	N	3	0	1000	1	120	18:00:08	514058	0	0	0	0	0	0	0	0	0	0	0	0	0	0	0	0	0
091012	18:00:08	10015	Trial2BackFr	N	3	0	1000	1	121	18:00:08	515578	0	0	0	0	0	0	0	0	0	0	0	0	0	0	0	0	0
091012	18:00:08	10015	Trial2BackFr	Y	3	57	543	1	122	18:00:08	516644	0	0	0	0	0	0	0	0	0	0	0	0	0	0	0	0	0
091012	18:00:08	10015	Trial3BackFr	NN	4	0	1000	1	122	18:00:08	532171	0	0	0	0	0	0	0	0	0	0	0	0	0	0	0	0	0
091012	18:00:08	10015	Trial3BackFr	NN	4	0	1000	1	122	18:00:08	533690	0	0	0	0	0	0	0	0	0	0	0	0	0	0	0	0	0
091012	18:00:08	10015	Trial3BackFr	NN	4	0	1000	1	122	18:00:08	535209	0	0	0	0	0	0	0	0	0	0	0	0	0	0	0	0	0
091012	18:00:08	10015	Trial3BackFr	YY	4	57	447	1	122	18:00:08	536182	0	0	0	0	0	0	0	0	0	0	0	0	0	0	0	0	0
091012	18:00:08	10015	Trial3BackFr	NN	4	0	1000	1	122	18:00:08	538235	0	0	0	0	0	0	0	0	0	0	0	0	0	0	0	0	0
091012	18:00:08	10015	Trial3BackFr	NN	4	0	1000	1	122	18:00:08	539754	0	0	0	0	0	0	0	0	0	0	0	0	0	0	0	0	0
091012	18:00:08	10015	Trial3BackFr	NN	4	0	1000	1	122	18:00:08	541273	0	0	0	0	0	0	0	0	0	0	0	0	0	0	0	0	0
091012	18:00:08	10015	Trial3BackFr	NN	4	0	1000	1	122	18:00:08	542793	0	0	0	0	0	0	0	0	0	0	0	0	0	0	0	0	0
091012	18:00:08	10015	Trial3BackFr	YY	4	57	415	1	122	18:00:08	543739	0	0	0	0	0	0	0	0	0	0	0	0	0	0	0	0	0
091012	18:00:08	10015	Trial3BackFr	NN	4	0	1000	1	122	18:00:08	545818	0	0	0	0	0	0	0	0	0	0	0	0	0	0	0	0	0
091012	18:00:08	10015	Trial3BackFr	NN	4	0	1000	1	122	18:00:08	547338	0	0	0	0	0	0	0	0	0	0	0	0	0	0	0	0	0
091012	18:00:08	10015	Trial3BackFr	NN	4	0	1000	1	122	18:00:08	548857	0	0	0	0	0	0	0	0	0	0	0	0	0	0	0	0	0
091012	18:00:08	10015	Trial3BackFr	NN	4	0	1000	1	122	18:00:08	550376	0	0	0	0	0	0	0	0	0	0	0	0	0	0	0	0	0
091012	18:00:08	10015	Trial3BackFr	NN	4	0	1000	1	122	18:00:08	551896	0	0	0	0	0	0	0	0	0	0	0	0	0	0	0	0	0
091012	18:00:08	10015	Trial3BackFr	NN	4	0	1000	1	122	18:00:08	553415	0	0	0	0	0	0	0	0	0	0	0	0	0	0	0	0	0
091012	18:00:08	10015	Trial3BackFr	NN	4	0	1000	1	122	18:00:08	554935	0	0	0	0	0	0	0	0	0	0	0	0	0	0	0	0	0
091012	18:00:08	10015	Trial3BackFr	YY	4	57	689	1	122	18:00:08	556147	0	0	0	0	0	0	0	0	0	0	0	0	0	0	0	0	0
091012	18:00:08	10015	Trial3BackFr	NN	4	0	1000	1	122	18:00:08	557960	0	0	0	0	0	0	0	0	0	0	0	0	0	0	0	0	0
091012	18:00:08	10015	Trial3BackFr	NN	4	0	1000	1	122	18:00:08	559479	0	0	0	0	0	0	0	0	0	0	0	0	0	0	0	0	0
091012	18:00:08	10015	Trial3BackFr	NN	4	0	1000	1	122	18:00:08	560999	0	0	0	0	0	0	0	0	0	0	0	0	0	0	0	0	0
091012	18:00:08	10015	Trial3BackFr	NN	4	0	1000	1	122	18:00:08	562518	0	0	0	0	0	0	0	0	0	0	0	0	0	0	0	0	0
091012	18:00:08	10015	Trial3BackFr	NN	4	0	1000	1	122	18:00:08	564037	0	0	0	0	0	0	0	0	0	0	0	0	0	0	0	0	0
091012	18:00:08	10015	Trial3BackFr	YY	4	57	529	1	122	18:00:08	565090	0	0	0	0	0	0	0	0	0	0	0	0	0	0	0	0	0
091012	18:00:08	10015	Trial3BackFr	NN	4	0	1000	1	122	18:00:08	567063	0	0	0	0	0	0	0	0	0	0	0	0	0	0	0	0	0
091012	18:00:08	10015	Trial3BackFr	NN	4	0	1000	1	122	18:00:08	568582	0	0	0	0	0	0	0	0	0	0	0	0	0	0	0	0	0
091012	18:00:08	10015	Trial3BackFr	NN	4	0	1000	1	122	18:00:08	570101	0	0	0	0	0	0	0	0	0	0	0	0	0	0	0	0	0
091012	18:00:08	10015	Trial3BackFr	YY	4	57	481	1	122	18:00:08	571114	0	0	0	0	0	0	0	0	0	0	0	0	0	0	0	0	0
091012	18:00:08	10015	Trial3BackFr	NN	4	0	1000	1	122	18:00:08	573127	0	0	0	0	0	0	0	0	0	0	0	0	0	0	0	0	0
091012	18:00:08	10015	Trial3BackFr	NN	4	0	1000	1	122	18:00:08	574646	0	0	0	0	0	0	0	0	0	0	0	0	0	0	0	0	0
091012	18:00:08	10015	Trial3BackFr	NN	4	0	1000	1	122	18:00:08	576165	0	0	0	0	0	0	0	0	0	0	0	0	0	0	0	0	0
091012	18:00:08	10015	Trial3BackFr	YY	4	57	449	1	122	18:00:08	577138	0	0	0	0	0	0	0	0	0	0	0	0	0	0	0	0	0
091012	18:00:08	10015	Trial3BackFr	NN	4	0	1000	1	122	18:00:08	579191	0	0	0	0	0	0	0	0	0	0	0	0	0	0	0	0	0
091012	18:00:08	10015	Trial3BackFr	NN	4	0	1000	1	122	18:00:08	580710	0	0	0	0	0	0	0	0	0	0	0	0	0	0	0	0	0
091012	18:00:08	10015	Trial3BackFr	NN	4	0	1000	1	122	18:00:08	582230	0	0	0	0	0	0	0	0	0	0	0	0	0	0	0	0	0
091012	18:00:08	10015	Trial3BackFr	NN	4	0	1000	1	122	18:00:08	583749	0	0	0	0	0	0	0	0	0	0	0	0	0	0	0	0	0
091012	18:00:08	10015	Trial3BackFr	NN	4	0	1000	1	122	18:00:08	585268	0	0	0	0	0	0	0	0	0	0	0	0	0	0	0	0	0
091012	18:00:08	10015	Trial3BackFr	NN	4	0	1000	1	122	18:00:08	586788	0	0	0	0	0	0	0	0	0	0	0	0	0	0	0	0	0
091012	18:00:08	10015	Trial3BackFr	NN	4	0	1000	1	122	18:00:08	588307	0	0	0	0	0	0	0	0	0	0	0	0	0	0	0	0	0
091012	18:00:08	10015	Trial3BackFr	NN	4	0	1000	1	122	18:00:08	589827	0	0	0	0	0	0	0	0	0	0	0	0	0	0	0	0	0
091012	18:00:08	10015	Trial3BackFr	NN	4	0	1000	1	122	18:00:08	591346	0	0	0	0	0	0	0	0	0	0	0	0	0	0	0	0	0
091012	18:00:08	10015	Trial3BackFr	NN	4	0	1000	1	122	18:00:08	592865	0	0	0	0	0	0	0	0	0	0	0	0	0	0	0	0	0
091012	18:00:08	10015	Trial3BackFr	YY	4	0	1000	0	122	18:00:08	594385	0	0	0	0	0	0	0	0	0	0	0	0	0	0	0	0	0
091012	18:00:08	10015	Trial3BackFr	NN	4	0	1000	1	122	18:00:08	595904	0	0	0	0	0	0	0	0	0	0	0	0	0	0	0	0	0
091012	18:00:08	10015	Trial3BackFr	NN	4	0	1000	1	122	18:00:08	597424	0	0	0	0	0	0	0	0	0	0	0	0	0	0	0	0	0
091012	18:00:08	10015	Trial3BackFr	NN	4	0	1000	1	122	18:00:08	598943	0	0	0	0	0	0	0	0	0	0	0	0	0	0	0	0	0
091012	18:00:08	10015	Trial3BackFr	NN	4	0	1000	1	122	18:00:08	600462	0	0	0	0	0	0	0	0	0	0	0	0	0	0	0	0	0
091012	18:00:08	10015	Trial3BackFr	YY	4	57	631	1	122	18:00:08	601622	0	0	0	0	0	0	0	0	0	0	0	0	0	0	0	0	0
091012	18:00:08	10015	Trial3BackFr	NN	4	0	1000	1	122	18:00:08	603488	0	0	0	0	0	0	0	0	0	0	0	0	0	0	0	0	0
091012	18:00:08	10015	Trial3BackFr	NN	4	0	1000	1	122	18:00:08	605007	0	0	0	0	0	0	0	0	0	0	0	0	0	0	0	0	0
091012	18:00:08	10015	Trial3BackFr	NN	4	0	1000	1	122	18:00:08	606526	0	0	0	0	0	0	0	0	0	0	0	0	0	0	0	0	0
091012	18:00:08	10015	Trial3BackFr	NN	4	0	1000	1	122	18:00:08	608046	0	0	0	0	0	0	0	0	0	0	0	0	0	0	0	0	0
091012	18:00:08	10015	Trial3BackFr	NN	4	0	1000	1	122	18:00:08	609565	0	0	0	0	0	0	0	0	0	0	0	0	0	0	0	0	0
091012	18:00:08	10015	Trial3BackFr	YY	4	57	552	1	122	18:00:08	610645	0	0	0	0	0	0	0	0	0	0	0	0	0	0	0	0	0
091012	18:00:08	10015	Trial3BackFr	NN	4	0	1000	1	122	18:00:08	612591	0	0	0	0	0	0	0	0	0	0	0	0	0	0	0	0	0
091012	18:00:08	10015	Trial3BackFr	NN	4	0	1000	1	122	18:00:08	614110	0	0	0	0	0	0	0	0	0	0	0	0	0	0	0	0	0
091012	18:00:08	10015	Trial3BackFr	NN	4	0	1000	1	122	18:00:08	615629	0	0	0	0	0	0	0	0	0	0	0	0	0	0	0	0	0
091012	18:00:08	10015	Trial3BackFr	NN	4	0	1000	1	122	18:00:08	617149	0	0	0	0	0	0	0	0	0	0	0	0	0	0	0	0	0
091012	18:00:08	10015	Trial3BackFr	NN	4	0	1000	1	122	18:00:08	618668	0	0	0	0	0	0	0	0	0	0	0	0	0	0	0	0	0
091012	18:00:08	10015	Trial3BackFr	NN	4	0	1000	1	122	18:00:08	620187	0	0	0	0	0	0	0	0	0	0	0	0	0	0	0	0	0
091012	18:00:08	10015	Trial3BackFr	YY	4	0	1000	0	122	18:00:08	621707	0	0	0	0	0	0	0	0	0	0	0	0	0	0	0	0	0
091012	18:00:08	10015	Trial3BackFr	NN	4	0	1000	1	122	18:00:08	623226	0	0	0	0	0	0	0	0	0	0	0	0	0	0	0	0	0
091012	18:00:08	10015	Trial3BackFr	NN	4	0	1000	1	122	18:00:08	624746	0	0	0	0	0	0	0	0	0	0	0	0	0	0	0	0	0
091012	18:00:08	10015	Trial3BackFr	NN	4	0	1000	1	122	18:00:08	626265	0	0	0	0	0	0	0	0	0	0	0	0	0	0	0	0	0
091012	18:00:08	10015	Trial3BackFr	YY	4	57	492	1	122	18:00:08	627291	0	0	0	0	0	0	0	0	0	0	0	0	0	0	0	0	0
091012	18:00:08	10015	Trial3BackFr	NN	4	0	1000	1	122	18:00:08	629290	0	0	0	0	0	0	0	0	0	0	0	0	0	0	0	0	0
091012	18:00:08	10015	Trial3BackFr	NN	4	0	1000	1	122	18:00:08	630823	0	0	0	0	0	0	0	0	0	0	0	0	0	0	0	0	0
091012	18:00:08	10015	Trial3BackFr	NN	4	0	1000	1	122	18:00:08	632342	0	0	0	0	0	0	0	0	0	0	0	0	0	0	0	0	0
091012	18:00:08	10015	Trial3BackFr	NN	4	0	1000	1	122	18:00:08	633862	0	0	0	0	0	0	0	0	0	0	0	0	0	0	0	0	0
091012	18:00:08	10015	Trial3BackFr	NN	4	0	1000	1	122	18:00:08	635381	0	0	0	0	0	0	0	0	0	0	0	0	0	0	0	0	0
091012	18:00:08	10015	Trial3BackFr	NN	4	0	1000	1	122	18:00:08	636901	0	0	0	0	0	0	0	0	0	0	0	0	0	0	0	0	0
091012	18:00:08	10015	Trial3BackFr	NN	4	0	1000	1	122	18:00:08	638420	0	0	0	0	0	0	0	0	0	0	0	0	0	0	0	0	0
091012	18:00:08	10015	Trial3BackFr	NN	4	0	1000	1	122	18:00:08	639939	0	0	0	0	0	0	0	0	0	0	0	0	0	0	0	0	0
091012	18:00:08	10015	Trial3BackFr	NN	4	0	1000	1	122	18:00:08	641458	0	0	0	0	0	0	0	0	0	0	0	0	0	0	0	0	0
091012	18:00:08	10015	Trial3BackFr	YY	4	0	1000	0	122	18:00:08	642978	0	0	0	0	0	0	0	0	0	0	0	0	0	0	0	0	0
091012	18:00:08	10015	Trial3BackFr	NN	4	0	1000	1	122	18:00:08	644497	0	0	0	0	0	0	0	0	0	0	0	0	0	0	0	0	0
091012	18:00:08	10015	Trial3BackFr	NN	4	0	1000	1	122	18:00:08	646017	0	0	0	0	0	0	0	0	0	0	0	0	0	0	0	0	0
091012	18:00:08	10015	Trial3BackFr	NN	4	0	1000	1	122	18:00:08	647536	0	0	0	0	0	0	0	0	0	0	0	0	0	0	0	0	0
091012	18:00:08	10015	Trial3BackFr	YY	4	0	1000	0	122	18:00:08	649055	0	0	0	0	0	0	0	0	0	0	0	0	0	0	0	0	0
091012	18:00:08	10015	Trial3BackFr	NN	4	0	1000	1	122	18:00:08	650575	0	0	0	0	0	0	0	0	0	0	0	0	0	0	0	0	0
091012	18:00:08	10015	Trial3BackFr	NN	4	0	1000	1	122	18:00:08	652094	0	0	0	0	0	0	0	0	0	0	0	0	0	0	0	0	0
091012	18:00:08	10015	Trial3BackFr	NN	4	0	1000	1	122	18:00:08	653614	0	0	0	0	0	0	0	0	0	0	0	0	0	0	0	0	0
091012	18:00:08	10015	Trial3BackFr	NN	4	0	1000	1	122	18:00:08	655133	0	0	0	0	0	0	0	0	0	0	0	0	0	0	0	0	0
091012	18:00:08	10015	Trial3BackFr	NN	4	0	1000	1	122	18:00:08	656652	0	0	0	0	0	0	0	0	0	0	0	0	0	0	0	0	0
091012	18:00:08	10015	Trial3BackFr	YY	4	57	599	1	122	18:00:08	657785	0	0	0	0	0	0	0	0	0	0	0	0	0	0	0	0	0
091012	18:00:08	10015	Trial3BackFr	NN	4	0	1000	1	122	18:00:08	659678	0	0	0	0	0	0	0	0	0	0	0	0	0	0	0	0	0
091012	18:00:08	10015	Trial3BackFr	NN	4	0	1000	1	122	18:00:08	661197	0	0	0	0	0	0	0	0	0	0	0	0	0	0	0	0	0
091012	18:00:08	10015	Trial3BackFr	NN	4	0	1000	1	122	18:00:08	662716	0	0	0	0	0	0	0	0	0	0	0	0	0	0	0	0	0
091012	18:00:08	10015	Trial3BackFr	NN	4	0	1000	1	122	18:00:08	664236	0	0	0	0	0	0	0	0	0	0	0	0	0	0	0	0	0
091012	18:00:08	10015	Trial3BackFr	NN	4	0	1000	1	122	18:00:08	665755	0	0	0	0	0	0	0	0	0	0	0	0	0	0	0	0	0
091012	18:00:08	10015	Trial3BackFr	NN	4	0	1000	1	122	18:00:08	667275	0	0	0	0	0	0	0	0	0	0	0	0	0	0	0	0	0
091012	18:00:08	10015	Trial3BackFr	NN	4	0	1000	1	122	18:00:08	668794	0	0	0	0	0	0	0	0	0	0	0	0	0	0	0	0	0
091012	18:00:08	10015	Trial3BackFr	NN	4	0	1000	1	122	18:00:08	670313	0	0	0	0	0	0	0	0	0	0	0	0	0	0	0	0	0
091012	18:00:08	10015	Trial3BackFr	NN	4	0	1000	1	122	18:00:08	671833	0	0	0	0	0	0	0	0	0	0	0	0	0	0	0	0	0
091012	18:00:08	10015	Trial3BackFr	YY	4	0	1000	0	122	18:00:08	673352	0	0	0	0	0	0	0	0	0	0	0	0	0	0	0	0	0
091012	18:00:08	10015	Trial3BackFr	NN	4	0	1000	1	122	18:00:08	674872	0	0	0	0	0	0	0	0	0	0	0	0	0	0	0	0	0
091012	18:00:08	10015	Trial3BackFr	NN	4	0	1000	1	122	18:00:08	676391	0	0	0	0	0	0	0	0	0	0	0	0	0	0	0	0	0
091012	18:00:08	10015	Trial3BackFr	NN	4	0	1000	1	122	18:00:08	677910	0	0	0	0	0	0	0	0	0	0	0	0	0	0	0	0	0
091012	18:00:08	10015	Trial3BackFr	NN	4	0	1000	1	122	18:00:08	679430	0	0	0	0	0	0	0	0	0	0	0	0	0	0	0	0	0
091012	18:00:08	10015	Trial3BackFr	NN	4	0	1000	1	122	18:00:08	680949	0	0	0	0	0	0	0	0	0	0	0	0	0	0	0	0	0
091012	18:00:08	10015	Trial3BackFr	NN	4	0	1000	1	122	18:00:08	682468	0	0	0	0	0	0	0	0	0	0	0	0	0	0	0	0	0
091012	18:00:08	10015	Trial3BackFr	NN	4	0	1000	1	122	18:00:08	683988	0	0	0	0	0	0	0	0	0	0	0	0	0	0	0	0	0
091012	18:00:08	10015	Trial3BackFr	NN	4	0	1000	1	122	18:00:08	685507	0	0	0	0	0	0	0	0	0	0	0	0	0	0	0	0	0
091012	18:00:08	10015	Trial3BackFr	YY	4	57	864	1	122	18:00:08	686893	0	0	0	0	0	0	0	0	0	0	0	0	0	0	0	0	0
091012	18:00:08	10015	Trial3BackFr	NN	4	0	1000	1	122	18:00:08	688532	0	0	0	0	0	0	0	0	0	0	0	0	0	0	0	0	0
091012	18:00:08	10015	Trial3BackFr	NN	4	0	1000	1	122	18:00:08	690052	0	0	0	0	0	0	0	0	0	0	0	0	0	0	0	0	0
091012	18:00:08	10015	Trial3BackFr	NN	4	0	1000	1	122	18:00:08	691571	0	0	0	0	0	0	0	0	0	0	0	0	0	0	0	0	0
091012	18:00:08	10015	Trial3BackFr	NN	4	0	1000	1	122	18:00:08	693091	0	0	0	0	0	0	0	0	0	0	0	0	0	0	0	0	0
091012	18:00:08	10015	Trial3BackFr	YY	4	57	512	1	122	18:00:08	694130	0	0	0	0	0	0	0	0	0	0	0	0	0	0	0	0	0
091012	18:00:08	10015	Trial3BackFr	NN	4	0	1000	1	122	18:00:08	696116	0	0	0	0	0	0	0	0	0	0	0	0	0	0	0	0	0
091012	18:00:08	10015	Trial3BackFr	NN	4	0	1000	1	122	18:00:08	697635	0	0	0	0	0	0	0	0	0	0	0	0	0	0	0	0	0
091012	18:00:08	10015	Trial3BackFr	NN	4	0	1000	1	122	18:00:08	699155	0	0	0	0	0	0	0	0	0	0	0	0	0	0	0	0	0
091012	18:00:08	10015	Trial3BackFr	YY	4	57	639	1	122	18:00:08	700328	0	0	0	0	0	0	0	0	0	0	0	0	0	0	0	0	0
091012	18:00:08	10015	Trial3BackFr	NN	4	0	1000	1	122	18:00:08	702180	0	0	0	0	0	0	0	0	0	0	0	0	0	0	0	0	0
091012	18:00:08	10015	Trial3BackFr	NN	4	0	1000	1	122	18:00:08	703699	0	0	0	0	0	0	0	0	0	0	0	0	0	0	0	0	0
091012	18:00:08	10015	Trial3BackFr	NN	4	0	1000	1	122	18:00:08	705219	0	0	0	0	0	0	0	0	0	0	0	0	0	0	0	0	0
091012	18:00:08	10015	Trial3BackFr	NN	4	0	1000	1	122	18:00:08	706738	0	0	0	0	0	0	0	0	0	0	0	0	0	0	0	0	0
091012	18:00:08	10015	Trial3BackFr	NN	4	0	1000	1	122	18:00:08	708258	0	0	0	0	0	0	0	0	0	0	0	0	0	0	0	0	0
091012	18:00:08	10015	Trial3BackFr	YY	4	57	512	1	122	18:00:08	709297	0	0	0	0	0	0	0	0	0	0	0	0	0	0	0	0	0
091012	18:00:08	10015	Trial3BackFr	NN	4	0	1000	1	122	18:00:08	711283	0	0	0	0	0	0	0	0	0	0	0	0	0	0	0	0	0
091012	18:00:08	10015	Trial3BackFr	NN	4	0	1000	1	122	18:00:08	712802	0	0	0	0	0	0	0	0	0	0	0	0	0	0	0	0	0
091012	18:00:08	10015	Trial3BackFr	NN	4	0	1000	1	122	18:00:08	714322	0	0	0	0	0	0	0	0	0	0	0	0	0	0	0	0	0
091012	18:00:08	10015	Trial3BackFr	YY	4	57	464	1	122	18:00:08	715308	0	0	0	0	0	0	0	0	0	0	0	0	0	0	0	0	0
091012	18:00:08	10015	Memory1R3moFr	ScoreFr	5	M2	15414	0	122	18:00:08	762636	0	0	0	0	0	0	0	0	0	0	0	0	0	0	0	0	0
091012	18:00:08	10015	Memory1R3moFr	ScoreFr	5	M3	802	0	122	18:00:08	763475	0	0	0	0	0	0	0	0	0	0	0	0	0	0	0	0	0
091012	18:00:08	10015	Memory1R3moFr	ScoreFr	5	M5	2082	0	122	18:00:08	765594	0	0	0	0	0	0	0	0	0	0	0	0	0	0	0	0	0
091012	18:00:08	10015	Memory1R3moFr	ScoreFr	5	M6	227	0	122	18:00:08	765861	0	0	0	0	0	0	0	0	0	0	0	0	0	0	0	0	0
091012	18:00:08	10015	Memory1R3moFr	ScoreFr	5	M8	577	0	122	18:00:08	766487	0	0	0	0	0	0	0	0	0	0	0	0	0	0	0	0	0
091012	18:00:08	10015	Memory1R3moFr	ScoreFr	5	M7	1254	0	122	18:00:08	767780	0	0	0	0	0	0	0	0	0	0	0	0	0	0	0	0	0
091012	18:00:08	10015	Memory1R3moFr	ScoreFr	5	Done	1865	0	122	18:00:08	769686	0	0	0	0	0	0	0	0	0	0	0	0	0	0	0	0	0
091012	18:00:08	10015	Memory2R3moFr	ScoreFr2	5	11	15312	0	122	18:00:08	801806	0	0	0	0	0	0	0	0	0	0	0	0	0	0	0	0	0
091012	18:00:08	10015	Memory2R3moFr	ScoreFr2	5	22	278	0	122	18:00:08	802125	0	0	0	0	0	0	0	0	0	0	0	0	0	0	0	0	0
091012	18:00:08	10015	Memory2R3moFr	ScoreFr2	5	44	1446	0	122	18:00:08	803618	0	0	0	0	0	0	0	0	0	0	0	0	0	0	0	0	0
091012	18:00:08	10015	Memory2R3moFr	ScoreFr2	5	55	258	0	122	18:00:08	803912	0	0	0	0	0	0	0	0	0	0	0	0	0	0	0	0	0
091012	18:00:08	10015	Memory2R3moFr	ScoreFr2	5	66	220	0	122	18:00:08	804178	0	0	0	0	0	0	0	0	0	0	0	0	0	0	0	0	0
091012	18:00:08	10015	Memory2R3moFr	ScoreFr2	5	77	282	0	122	18:00:08	804498	0	0	0	0	0	0	0	0	0	0	0	0	0	0	0	0	0
091012	18:00:08	10015	Memory2R3moFr	ScoreFr2	5	88	284	0	122	18:00:08	804818	0	0	0	0	0	0	0	0	0	0	0	0	0	0	0	0	0
091012	18:00:08	10015	Memory2R3moFr	ScoreFr2	5	33	3330	0	122	18:00:08	808190	0	0	0	0	0	0	0	0	0	0	0	0	0	0	0	0	0
091012	18:00:08	10015	Memory2R3moFr	ScoreFr2	5	Done	758	0	122	18:00:08	808989	0	0	0	0	0	0	0	0	0	0	0	0	0	0	0	0	0
091012	18:00:08	10015	Memory3R3moFr	ScoreFr3	5	111	15799	0	122	18:00:08	843482	0	0	0	0	0	0	0	0	0	0	0	0	0	0	0	0	0
091012	18:00:08	10015	Memory3R3moFr	ScoreFr3	5	222	529	0	122	18:00:08	844055	0	0	0	0	0	0	0	0	0	0	0	0	0	0	0	0	0
091012	18:00:08	10015	Memory3R3moFr	ScoreFr3	5	333	220	0	122	18:00:08	844321	0	0	0	0	0	0	0	0	0	0	0	0	0	0	0	0	0
091012	18:00:08	10015	Memory3R3moFr	ScoreFr3	5	444	345	0	122	18:00:08	844708	0	0	0	0	0	0	0	0	0	0	0	0	0	0	0	0	0
091012	18:00:08	10015	Memory3R3moFr	ScoreFr3	5	555	647	0	122	18:00:08	845401	0	0	0	0	0	0	0	0	0	0	0	0	0	0	0	0	0
091012	18:00:08	10015	Memory3R3moFr	ScoreFr3	5	666	288	0	122	18:00:08	845734	0	0	0	0	0	0	0	0	0	0	0	0	0	0	0	0	0
091012	18:00:08	10015	Memory3R3moFr	ScoreFr3	5	777	292	0	122	18:00:08	846067	0	0	0	0	0	0	0	0	0	0	0	0	0	0	0	0	0
091012	18:00:08	10015	Memory3R3moFr	ScoreFr3	5	888	288	0	122	18:00:08	846401	0	0	0	0	0	0	0	0	0	0	0	0	0	0	0	0	0
091012	18:00:08	10015	Memory3R3moFr	ScoreFr3	5	Done	394	0	122	18:00:08	846840	0	0	0	0	0	0	0	0	0	0	0	0	0	0	0	0	0
091012	18:00:08	10015	LoriaFrLH3	Stop	6	6	4905	0	122	18:00:08	931754	0	0	0	0	0	0	0	0	0	0	0	0	0	0	0	0	0
091012	18:00:08	10015	FrTrail	Trails	7	1Trails	762	0	122	18:00:08	957142	0	0	0	0	0	0	0	0	0	0	0	0	0	0	0	0	0
091012	18:00:08	10015	Serial7Fr3mo	Serial7Fr3mo	8	83	15580	0	122	18:00:08	997807	1	0	0	0	0	0	0	0	0	0	0	0	0	0	0	0	0
091012	18:00:08	10015	Serial7Fr3mo	Serial7Fr3mo	8	76	3629	0	122	18:00:08	1001460	2	0	0	0	0	0	0	0	0	0	0	0	0	0	0	0	0
091012	18:00:08	10015	Serial7Fr3mo	Serial7Fr3mo	8	69	2975	0	122	18:00:08	1004458	3	0	0	0	0	0	0	0	0	0	0	0	0	0	0	0	0
091012	18:00:08	10015	Serial7Fr3mo	Serial7Fr3mo	8	62	2610	0	122	18:00:08	1007084	4	0	0	0	0	0	0	0	0	0	0	0	0	0	0	0	0
091012	18:00:08	10015	Serial7Fr3mo	Serial7Fr3mo	8	55	2272	0	122	18:00:08	1009376	5	0	0	0	0	0	0	0	0	0	0	0	0	0	0	0	0
091012	18:00:08	10015	corsiblockFrFwrd	recallseqFrFwrd	9	6	2115	0	122	18:00:08	1035379	5	0	0	0	0	0	0	0	0	0	0	0	0	0	0	0	0
091012	18:00:08	10015	corsiblockFrFwrd	recallseqFrFwrd	9	1	1108	0	122	18:00:08	1036525	5	0	0	0	0	0	0	0	0	0	0	0	0	0	0	0	0
091012	18:00:08	10015	corsiblockFrFwrd	recallseqFrFwrd	9	doneCorsiFr	1946	0	122	18:00:08	1038511	5	0	0	0	0	0	0	0	0	0	0	0	0	0	0	2	0
091012	18:00:08	10015	corsiblockFrFwrd	recallseqFrFwrd	9	9	869	0	122	18:00:08	1045468	5	0	0	0	0	0	0	0	0	0	0	0	0	0	0	2	0
091012	18:00:08	10015	corsiblockFrFwrd	recallseqFrFwrd	9	5	1035	0	122	18:00:08	1046548	5	0	0	0	0	0	0	0	0	0	0	0	0	0	0	2	0
091012	18:00:08	10015	corsiblockFrFwrd	recallseqFrFwrd	9	3	795	0	122	18:00:08	1047387	5	0	0	0	0	0	0	0	0	0	0	0	0	0	0	2	0
091012	18:00:08	10015	corsiblockFrFwrd	recallseqFrFwrd	9	doneCorsiFr	1491	0	122	18:00:08	1048920	5	0	0	0	0	0	0	0	0	0	0	0	0	0	0	3	0
091012	18:00:08	10015	corsiblockFrFwrd	recallseqFrFwrd	9	4	1396	0	122	18:00:08	1057410	5	0	0	0	0	0	0	0	0	0	0	0	0	0	0	3	0
091012	18:00:08	10015	corsiblockFrFwrd	recallseqFrFwrd	9	8	901	0	122	18:00:08	1058356	5	0	0	0	0	0	0	0	0	0	0	0	0	0	0	3	0
091012	18:00:08	10015	corsiblockFrFwrd	recallseqFrFwrd	9	7	729	0	122	18:00:08	1059129	5	0	0	0	0	0	0	0	0	0	0	0	0	0	0	3	0
091012	18:00:08	10015	corsiblockFrFwrd	recallseqFrFwrd	9	2	765	0	122	18:00:08	1059929	5	0	0	0	0	0	0	0	0	0	0	0	0	0	0	3	0
091012	18:00:08	10015	corsiblockFrFwrd	recallseqFrFwrd	9	doneCorsiFr	1917	0	122	18:00:08	1061888	5	0	0	0	0	0	0	0	0	0	0	0	0	0	0	4	0
091012	18:00:08	10015	corsiblockFrFwrd	recallseqFrFwrd	9	3	980	0	122	18:00:08	1070951	5	0	0	0	0	0	0	0	0	0	0	0	0	0	0	4	0
091012	18:00:08	10015	corsiblockFrFwrd	recallseqFrFwrd	9	2	759	0	122	18:00:08	1071751	5	0	0	0	0	0	0	0	0	0	0	0	0	0	0	4	0
091012	18:00:08	10015	corsiblockFrFwrd	recallseqFrFwrd	9	4	871	0	122	18:00:08	1072657	5	0	0	0	0	0	0	0	0	0	0	0	0	0	0	4	0
091012	18:00:08	10015	corsiblockFrFwrd	recallseqFrFwrd	9	6	709	0	122	18:00:08	1073403	5	0	0	0	0	0	0	0	0	0	0	0	0	0	0	4	0
091012	18:00:08	10015	corsiblockFrFwrd	recallseqFrFwrd	9	1	1050	0	122	18:00:08	1074496	5	0	0	0	0	0	0	0	0	0	0	0	0	0	0	4	0
091012	18:00:08	10015	corsiblockFrFwrd	recallseqFrFwrd	9	doneCorsiFr	1270	0	122	18:00:08	1075802	5	0	0	0	0	0	0	0	0	0	0	0	0	0	0	5	0
091012	18:00:08	10015	corsiblockFrFwrd	recallseqFrFwrd	9	9	780	0	122	18:00:08	1085691	5	0	0	0	0	0	0	0	0	0	0	0	0	0	0	5	0
091012	18:00:08	10015	corsiblockFrFwrd	recallseqFrFwrd	9	7	530	0	122	18:00:08	1086265	5	0	0	0	0	0	0	0	0	0	0	0	0	0	0	5	0
091012	18:00:08	10015	corsiblockFrFwrd	recallseqFrFwrd	9	8	661	0	122	18:00:08	1086971	5	0	0	0	0	0	0	0	0	0	0	0	0	0	0	5	0
091012	18:00:08	10015	corsiblockFrFwrd	recallseqFrFwrd	9	5	731	0	122	18:00:08	1087744	5	0	0	0	0	0	0	0	0	0	0	0	0	0	0	5	0
091012	18:00:08	10015	corsiblockFrFwrd	recallseqFrFwrd	9	1	773	0	122	18:00:08	1088557	5	0	0	0	0	0	0	0	0	0	0	0	0	0	0	5	0
091012	18:00:08	10015	corsiblockFrFwrd	recallseqFrFwrd	9	9	817	0	122	18:00:08	1089410	5	0	0	0	0	0	0	0	0	0	0	0	0	0	0	5	0
091012	18:00:08	10015	corsiblockFrFwrd	recallseqFrFwrd	9	doneCorsiFr	1099	0	122	18:00:08	1090543	5	0	0	0	0	0	0	0	0	0	0	0	0	0	0	6	0
091012	18:00:08	10015	corsiblockFrFwrd	recallseqFrFwrd	9	2	629	0	122	18:00:08	1101258	5	0	0	0	0	0	0	0	0	0	0	0	0	0	0	6	0
091012	18:00:08	10015	corsiblockFrFwrd	recallseqFrFwrd	9	3	674	0	122	18:00:08	1101978	5	0	0	0	0	0	0	0	0	0	0	0	0	0	0	6	0
091012	18:00:08	10015	corsiblockFrFwrd	recallseqFrFwrd	9	6	779	0	122	18:00:08	1102791	5	0	0	0	0	0	0	0	0	0	0	0	0	0	0	6	0
091012	18:00:08	10015	corsiblockFrFwrd	recallseqFrFwrd	9	4	334	0	122	18:00:08	1103164	5	0	0	0	0	0	0	0	0	0	0	0	0	0	0	6	0
091012	18:00:08	10015	corsiblockFrFwrd	recallseqFrFwrd	9	5	544	0	122	18:00:08	1103750	5	0	0	0	0	0	0	0	0	0	0	0	0	0	0	6	0
091012	18:00:08	10015	corsiblockFrFwrd	recallseqFrFwrd	9	8	486	0	122	18:00:08	1104270	5	0	0	0	0	0	0	0	0	0	0	0	0	0	0	6	0
091012	18:00:08	10015	corsiblockFrFwrd	recallseqFrFwrd	9	7	470	0	122	18:00:08	1104777	5	0	0	0	0	0	0	0	0	0	0	0	0	0	0	6	0
091012	18:00:08	10015	corsiblockFrFwrd	recallseqFrFwrd	9	doneCorsiFr	988	0	122	18:00:08	1105803	5	0	0	0	0	0	0	0	0	0	0	0	0	0	0	7	0
091012	18:00:08	10015	corsiblockFrFwrd	recallseqFrFwrd	9	1	3849	0	122	18:00:08	1120744	5	0	0	0	0	0	0	0	0	0	0	0	0	0	0	7	0
091012	18:00:08	10015	corsiblockFrFwrd	recallseqFrFwrd	9	4	861	0	122	18:00:08	1121650	5	0	0	0	0	0	0	0	0	0	0	0	0	0	0	7	0
091012	18:00:08	10015	corsiblockFrFwrd	recallseqFrFwrd	9	5	706	0	122	18:00:08	1122396	5	0	0	0	0	0	0	0	0	0	0	0	0	0	0	7	0
091012	18:00:08	10015	corsiblockFrFwrd	recallseqFrFwrd	9	6	656	0	122	18:00:08	1123089	5	0	0	0	0	0	0	0	0	0	0	0	0	0	0	7	0
091012	18:00:08	10015	corsiblockFrFwrd	recallseqFrFwrd	9	3	1114	0	122	18:00:08	1124249	5	0	0	0	0	0	0	0	0	0	0	0	0	0	0	7	0
091012	18:00:08	10015	corsiblockFrFwrd	recallseqFrFwrd	9	2	539	0	122	18:00:08	1124822	5	0	0	0	0	0	0	0	0	0	0	0	0	0	0	7	0
091012	18:00:08	10015	corsiblockFrFwrd	recallseqFrFwrd	9	8	558	0	122	18:00:08	1125422	5	0	0	0	0	0	0	0	0	0	0	0	0	0	0	7	0
091012	18:00:08	10015	corsiblockFrFwrd	recallseqFrFwrd	9	7	438	0	122	18:00:08	1125901	5	0	0	0	0	0	0	0	0	0	0	0	0	0	0	7	0
091012	18:00:08	10015	corsiblockFrFwrd	recallseqFrFwrd	9	doneCorsiFr	814	0	122	18:00:08	1126754	5	0	0	0	0	0	0	0	0	0	0	0	0	0	0	7	0
091012	18:00:08	10015	corsiblockFrFwrd	recallseqFrFwrd	9	9	712	0	122	18:00:08	1138510	5	0	0	0	0	0	0	0	0	0	0	0	0	0	0	7	0
091012	18:00:08	10015	corsiblockFrFwrd	recallseqFrFwrd	9	3	838	0	122	18:00:08	1139389	5	0	0	0	0	0	0	0	0	0	0	0	0	0	0	7	0
091012	18:00:08	10015	corsiblockFrFwrd	recallseqFrFwrd	9	4	1534	0	122	18:00:08	1140962	5	0	0	0	0	0	0	0	0	0	0	0	0	0	0	7	0
091012	18:00:08	10015	corsiblockFrFwrd	recallseqFrFwrd	9	5	586	0	122	18:00:08	1141588	5	0	0	0	0	0	0	0	0	0	0	0	0	0	0	7	0
091012	18:00:08	10015	corsiblockFrFwrd	recallseqFrFwrd	9	1	1071	0	122	18:00:08	1142695	5	0	0	0	0	0	0	0	0	0	0	0	0	0	0	7	0
091012	18:00:08	10015	corsiblockFrFwrd	recallseqFrFwrd	9	2	2701	0	122	18:00:08	1145440	5	0	0	0	0	0	0	0	0	0	0	0	0	0	0	7	0
091012	18:00:08	10015	corsiblockFrFwrd	recallseqFrFwrd	9	9	2197	0	122	18:00:08	1147679	5	0	0	0	0	0	0	0	0	0	0	0	0	0	0	7	0
091012	18:00:08	10015	corsiblockFrFwrd	recallseqFrFwrd	9	8	668	0	122	18:00:08	1148386	5	0	0	0	0	0	0	0	0	0	0	0	0	0	0	7	0
091012	18:00:08	10015	corsiblockFrFwrd	recallseqFrFwrd	9	doneCorsiFr	786	0	122	18:00:08	1149212	5	0	0	0	0	0	0	0	0	0	0	0	0	0	0	7	0
091012	18:00:08	10015	corsiblockFrRev	recallseqFrRev	10	7	691	0	122	18:00:08	1159381	5	0	0	0	0	0	0	0	0	0	0	0	0	0	0	7	0
091012	18:00:08	10015	corsiblockFrRev	recallseqFrRev	10	2	990	0	122	18:00:08	1160407	5	0	0	0	0	0	0	0	0	0	0	0	0	0	0	7	0
091012	18:00:08	10015	corsiblockFrRev	recallseqFrRev	10	doneCorsiFr	924	0	122	18:00:08	1161367	5	0	0	0	0	0	0	0	0	0	0	0	0	0	0	7	2
091012	18:00:08	10015	corsiblockFrRev	recallseqFrRev	10	5	513	0	122	18:00:08	1167964	5	0	0	0	0	0	0	0	0	0	0	0	0	0	0	7	2
091012	18:00:08	10015	corsiblockFrRev	recallseqFrRev	10	1	1023	0	122	18:00:08	1169031	5	0	0	0	0	0	0	0	0	0	0	0	0	0	0	7	2
091012	18:00:08	10015	corsiblockFrRev	recallseqFrRev	10	3	612	0	122	18:00:08	1169683	5	0	0	0	0	0	0	0	0	0	0	0	0	0	0	7	2
091012	18:00:08	10015	corsiblockFrRev	recallseqFrRev	10	doneCorsiFr	855	0	122	18:00:08	1170576	5	0	0	0	0	0	0	0	0	0	0	0	0	0	0	7	3
091012	18:00:08	10015	corsiblockFrRev	recallseqFrRev	10	6	535	0	122	18:00:08	1178200	5	0	0	0	0	0	0	0	0	0	0	0	0	0	0	7	3
091012	18:00:08	10015	corsiblockFrRev	recallseqFrRev	10	4	426	0	122	18:00:08	1178666	5	0	0	0	0	0	0	0	0	0	0	0	0	0	0	7	3
091012	18:00:08	10015	corsiblockFrRev	recallseqFrRev	10	9	1064	0	122	18:00:08	1179773	5	0	0	0	0	0	0	0	0	0	0	0	0	0	0	7	3
091012	18:00:08	10015	corsiblockFrRev	recallseqFrRev	10	8	878	0	122	18:00:08	1180692	5	0	0	0	0	0	0	0	0	0	0	0	0	0	0	7	3
091012	18:00:08	10015	corsiblockFrRev	recallseqFrRev	10	doneCorsiFr	766	0	122	18:00:08	1181492	5	0	0	0	0	0	0	0	0	0	0	0	0	0	0	7	4
091012	18:00:08	10015	corsiblockFrRev	recallseqFrRev	10	9	508	0	122	18:00:08	1190088	5	0	0	0	0	0	0	0	0	0	0	0	0	0	0	7	4
091012	18:00:08	10015	corsiblockFrRev	recallseqFrRev	10	1	658	0	122	18:00:08	1190781	5	0	0	0	0	0	0	0	0	0	0	0	0	0	0	7	4
091012	18:00:08	10015	corsiblockFrRev	recallseqFrRev	10	5	1805	0	122	18:00:08	1192621	5	0	0	0	0	0	0	0	0	0	0	0	0	0	0	7	4
091012	18:00:08	10015	corsiblockFrRev	recallseqFrRev	10	7	613	0	122	18:00:08	1193274	5	0	0	0	0	0	0	0	0	0	0	0	0	0	0	7	4
091012	18:00:08	10015	corsiblockFrRev	recallseqFrRev	10	2	432	0	122	18:00:08	1193740	5	0	0	0	0	0	0	0	0	0	0	0	0	0	0	7	4
091012	18:00:08	10015	corsiblockFrRev	recallseqFrRev	10	doneCorsiFr	1062	0	122	18:00:08	1194846	5	0	0	0	0	0	0	0	0	0	0	0	0	0	0	7	4
091012	18:00:08	10015	corsiblockFrRev	recallseqFrRev	10	9	553	0	122	18:00:08	1203443	5	0	0	0	0	0	0	0	0	0	0	0	0	0	0	7	4
091012	18:00:08	10015	corsiblockFrRev	recallseqFrRev	10	6	759	0	122	18:00:08	1204243	5	0	0	0	0	0	0	0	0	0	0	0	0	0	0	7	4
091012	18:00:08	10015	corsiblockFrRev	recallseqFrRev	10	8	991	0	122	18:00:08	1205269	5	0	0	0	0	0	0	0	0	0	0	0	0	0	0	7	4
091012	18:00:08	10015	corsiblockFrRev	recallseqFrRev	10	3	661	0	122	18:00:08	1205975	5	0	0	0	0	0	0	0	0	0	0	0	0	0	0	7	4
091012	18:00:08	10015	corsiblockFrRev	recallseqFrRev	10	4	931	0	122	18:00:08	1206948	5	0	0	0	0	0	0	0	0	0	0	0	0	0	0	7	4
091012	18:00:08	10015	corsiblockFrRev	recallseqFrRev	10	doneCorsiFr	734	0	122	18:00:08	1207721	5	0	0	0	0	0	0	0	0	0	0	0	0	0	0	7	5
091012	18:00:08	10015	corsiblockFrRev	recallseqFrRev	10	3	1037	0	122	18:00:08	1216851	5	0	0	0	0	0	0	0	0	0	0	0	0	0	0	7	5
091012	18:00:08	10015	corsiblockFrRev	recallseqFrRev	10	8	671	0	122	18:00:08	1217557	5	0	0	0	0	0	0	0	0	0	0	0	0	0	0	7	5
091012	18:00:08	10015	corsiblockFrRev	recallseqFrRev	10	4	468	0	122	18:00:08	1218064	5	0	0	0	0	0	0	0	0	0	0	0	0	0	0	7	5
091012	18:00:08	10015	corsiblockFrRev	recallseqFrRev	10	6	498	0	122	18:00:08	1218597	5	0	0	0	0	0	0	0	0	0	0	0	0	0	0	7	5
091012	18:00:08	10015	corsiblockFrRev	recallseqFrRev	10	5	412	0	122	18:00:08	1219050	5	0	0	0	0	0	0	0	0	0	0	0	0	0	0	7	5
091012	18:00:08	10015	corsiblockFrRev	recallseqFrRev	10	7	632	0	122	18:00:08	1219716	5	0	0	0	0	0	0	0	0	0	0	0	0	0	0	7	5
091012	18:00:08	10015	corsiblockFrRev	recallseqFrRev	10	doneCorsiFr	884	0	122	18:00:08	1220636	5	0	0	0	0	0	0	0	0	0	0	0	0	0	0	7	6
091012	18:00:08	10015	corsiblockFrRev	recallseqFrRev	10	9	828	0	122	18:00:08	1231551	5	0	0	0	0	0	0	0	0	0	0	0	0	0	0	7	6
091012	18:00:08	10015	corsiblockFrRev	recallseqFrRev	10	3	634	0	122	18:00:08	1232218	5	0	0	0	0	0	0	0	0	0	0	0	0	0	0	7	6
091012	18:00:08	10015	corsiblockFrRev	recallseqFrRev	10	1	615	0	122	18:00:08	1232871	5	0	0	0	0	0	0	0	0	0	0	0	0	0	0	7	6
091012	18:00:08	10015	corsiblockFrRev	recallseqFrRev	10	5	1418	0	122	18:00:08	1234323	5	0	0	0	0	0	0	0	0	0	0	0	0	0	0	7	6
091012	18:00:08	10015	corsiblockFrRev	recallseqFrRev	10	8	493	0	122	18:00:08	1234856	5	0	0	0	0	0	0	0	0	0	0	0	0	0	0	7	6
091012	18:00:08	10015	corsiblockFrRev	recallseqFrRev	10	2	648	0	122	18:00:08	1235550	5	0	0	0	0	0	0	0	0	0	0	0	0	0	0	7	6
091012	18:00:08	10015	corsiblockFrRev	recallseqFrRev	10	1	475	0	122	18:00:08	1236069	5	0	0	0	0	0	0	0	0	0	0	0	0	0	0	7	6
091012	18:00:08	10015	corsiblockFrRev	recallseqFrRev	10	doneCorsiFr	1019	0	122	18:00:08	1237122	5	0	0	0	0	0	0	0	0	0	0	0	0	0	0	7	6
091012	18:00:08	10015	corsiblockFrRev	recallseqFrRev	10	5	437	0	122	18:00:08	1247611	5	0	0	0	0	0	0	0	0	0	0	0	0	0	0	7	6
091012	18:00:08	10015	corsiblockFrRev	recallseqFrRev	10	8	1221	0	122	18:00:08	1248877	5	0	0	0	0	0	0	0	0	0	0	0	0	0	0	7	6
091012	18:00:08	10015	corsiblockFrRev	recallseqFrRev	10	7	491	0	122	18:00:08	1249410	5	0	0	0	0	0	0	0	0	0	0	0	0	0	0	7	6
091012	18:00:08	10015	corsiblockFrRev	recallseqFrRev	10	2	653	0	122	18:00:08	1250104	5	0	0	0	0	0	0	0	0	0	0	0	0	0	0	7	6
091012	18:00:08	10015	corsiblockFrRev	recallseqFrRev	10	7	2440	0	122	18:00:08	1252582	5	0	0	0	0	0	0	0	0	0	0	0	0	0	0	7	6
091012	18:00:08	10015	corsiblockFrRev	recallseqFrRev	10	4	1506	0	122	18:00:08	1254128	5	0	0	0	0	0	0	0	0	0	0	0	0	0	0	7	6
091012	18:00:08	10015	corsiblockFrRev	recallseqFrRev	10	6	1735	0	122	18:00:08	1255901	5	0	0	0	0	0	0	0	0	0	0	0	0	0	0	7	6
091012	18:00:08	10015	corsiblockFrRev	recallseqFrRev	10	doneCorsiFr	971	0	122	18:00:08	1256914	5	0	0	0	0	0	0	0	0	0	0	0	0	0	0	7	7
091012	18:00:08	10015	corsiblockFrRev	recallseqFrRev	10	2	508	0	122	18:00:08	1267510	5	0	0	0	0	0	0	0	0	0	0	0	0	0	0	7	7
091012	18:00:08	10015	corsiblockFrRev	recallseqFrRev	10	5	595	0	122	18:00:08	1268149	5	0	0	0	0	0	0	0	0	0	0	0	0	0	0	7	7
091012	18:00:08	10015	corsiblockFrRev	recallseqFrRev	10	6	577	0	122	18:00:08	1268802	5	0	0	0	0	0	0	0	0	0	0	0	0	0	0	7	7
091012	18:00:08	10015	corsiblockFrRev	recallseqFrRev	10	4	517	0	122	18:00:08	1269362	5	0	0	0	0	0	0	0	0	0	0	0	0	0	0	7	7
091012	18:00:08	10015	corsiblockFrRev	recallseqFrRev	10	2	2773	0	122	18:00:08	1272174	5	0	0	0	0	0	0	0	0	0	0	0	0	0	0	7	7
091012	18:00:08	10015	corsiblockFrRev	recallseqFrRev	10	3	513	0	122	18:00:08	1272721	5	0	0	0	0	0	0	0	0	0	0	0	0	0	0	7	7
091012	18:00:08	10015	corsiblockFrRev	recallseqFrRev	10	1	1111	0	122	18:00:08	1273867	5	0	0	0	0	0	0	0	0	0	0	0	0	0	0	7	7
091012	18:00:08	10015	corsiblockFrRev	recallseqFrRev	10	9	1060	0	122	18:00:08	1274973	5	0	0	0	0	0	0	0	0	0	0	0	0	0	0	7	7
091012	18:00:08	10015	corsiblockFrRev	recallseqFrRev	10	doneCorsiFr	1282	0	122	18:00:08	1276293	5	0	0	0	0	0	0	0	0	0	0	0	0	0	0	7	7
091012	18:00:08	10015	corsiblockFrRev	recallseqFrRev	10	2	601	0	122	18:00:08	1287941	5	0	0	0	0	0	0	0	0	0	0	0	0	0	0	7	7
091012	18:00:08	10015	corsiblockFrRev	recallseqFrRev	10	8	658	0	122	18:00:08	1288634	5	0	0	0	0	0	0	0	0	0	0	0	0	0	0	7	7
091012	18:00:08	10015	corsiblockFrRev	recallseqFrRev	10	6	2525	0	122	18:00:08	1291193	5	0	0	0	0	0	0	0	0	0	0	0	0	0	0	7	7
091012	18:00:08	10015	corsiblockFrRev	recallseqFrRev	10	4	390	0	122	18:00:08	1291620	5	0	0	0	0	0	0	0	0	0	0	0	0	0	0	7	7
091012	18:00:08	10015	corsiblockFrRev	recallseqFrRev	10	3	2707	0	122	18:00:08	1294365	5	0	0	0	0	0	0	0	0	0	0	0	0	0	0	7	7
091012	18:00:08	10015	corsiblockFrRev	recallseqFrRev	10	7	1465	0	122	18:00:08	1295871	5	0	0	0	0	0	0	0	0	0	0	0	0	0	0	7	7
091012	18:00:08	10015	corsiblockFrRev	recallseqFrRev	10	9	1704	0	122	18:00:08	1297617	5	0	0	0	0	0	0	0	0	0	0	0	0	0	0	7	7
091012	18:00:08	10015	corsiblockFrRev	recallseqFrRev	10	1	605	0	122	18:00:08	1298257	5	0	0	0	0	0	0	0	0	0	0	0	0	0	0	7	7
091012	18:00:08	10015	corsiblockFrRev	recallseqFrRev	10	doneCorsiFr	1038	0	122	18:00:08	1299336	5	0	0	0	0	0	0	0	0	0	0	0	0	0	0	7	7
091012	18:00:08	10015	testFr3mo	WordsFr3mo	11	7Fr3mo	2681	0	122	18:00:08	1325459	5	0	0	0	0	0	0	1	0	0	0	0	0	0	0	7	7
091012	18:00:08	10015	testFr3mo	WordsFr3mo	11	8Fr3mo	251	0	122	18:00:08	1325752	5	0	0	0	0	0	0	1	1	0	0	0	0	0	0	7	7
091012	18:00:08	10015	testFr3mo	WordsFr3mo	11	5Fr3mo	846	0	122	18:00:08	1326632	5	0	0	0	0	1	0	1	1	0	0	0	0	0	0	7	7
091012	18:00:08	10015	testFr3mo	WordsFr3mo	11	4Fr3mo	326	0	122	18:00:08	1326992	5	0	0	0	1	1	0	1	1	0	0	0	0	0	0	7	7
091012	18:00:08	10015	testFr3mo	WordsFr3mo	11	3Fr3mo	414	0	122	18:00:08	1327445	5	0	0	1	1	1	0	1	1	0	0	0	0	0	0	7	7
091012	18:00:08	10015	testFr3mo	WordsFr3mo	11	2Fr3mo	353	0	122	18:00:08	1327845	5	0	1	1	1	1	0	1	1	0	0	0	0	0	0	7	7
091012	18:00:08	10015	testFr3mo	WordsFr3mo	11	1Fr3mo	633	0	122	18:00:08	1328525	5	1	1	1	1	1	0	1	1	0	0	0	0	0	0	7	7
091012	18:00:08	10015	testFr3mo	WordsFr3mo	11	DoneFr3mo	17529	0	122	18:00:08	1346091	5	1	1	1	1	1	0	1	1	0	0	0	0	0	0	7	7
091012	18:00:08	10015	testFr3mo	Cat6Fr3mo	11	R6Fr3mo	7562	0	122	18:00:08	1353687	5	1	1	1	1	1	2	1	1	0	0	0	0	0	0	7	7
091012	18:00:08	10015	DigitSpanFwrdFr3mo	Score1FwrdFr3mo	12	DS1	4593	0	122	18:00:08	1372453	5	1	1	1	1	1	2	1	1	0	0	0	0	0	0	7	7
091012	18:00:08	10015	DigitSpanFwrdFr3mo	Gate1FwrdFr3mo	12	0	1	0	122	18:00:08	1372468	5	1	1	1	1	1	2	1	1	3	0	0	0	0	0	7	7
091012	18:00:08	10015	DigitSpanFwrdFr3mo	Score2FwrdFr3mo	12	DS1	5138	0	122	18:00:08	1383301	5	1	1	1	1	1	2	1	1	3	0	0	0	0	0	7	7
091012	18:00:08	10015	DigitSpanFwrdFr3mo	Gate3FwrdFr3mo	12	0	1	0	122	18:00:08	1383317	5	1	1	1	1	1	2	1	1	4	0	0	0	0	0	7	7
091012	18:00:08	10015	DigitSpanFwrdFr3mo	Score3FwrdFr3mo	12	DS2	8753	0	122	18:00:08	1399335	5	1	1	1	1	1	2	1	1	4	0	0	0	0	0	7	7
091012	18:00:08	10015	DigitSpanFwrdFr3mo	Gate5FwrdFr3mo	12	0	1	0	122	18:00:08	1399350	5	1	1	1	1	1	2	1	1	4	0	0	0	0	0	7	7
091012	18:00:08	10015	DigitSpanFwrdFr3mo	Score33FwrdFr3mo	12	DS1	5381	0	122	18:00:08	1411943	5	1	1	1	1	1	2	1	1	4	0	0	0	0	0	7	7
091012	18:00:08	10015	DigitSpanFwrdFr3mo	Gate6FwrdFr3mo	12	0	1	0	122	18:00:08	1411958	5	1	1	1	1	1	2	1	1	5	0	0	0	0	0	7	7
091012	18:00:08	10015	DigitSpanFwrdFr3mo	Score4FwrdFr3mo	12	DS1	4536	0	122	18:00:08	1425031	5	1	1	1	1	1	2	1	1	5	0	0	0	0	0	7	7
091012	18:00:08	10015	DigitSpanFwrdFr3mo	Gate7FwrdFr3mo	12	0	1	0	122	18:00:08	1425046	5	1	1	1	1	1	2	1	1	6	0	0	0	0	0	7	7
091012	18:00:08	10015	DigitSpanFwrdFr3mo	Score5FwrdFr3mo	12	DS1	5750	0	122	18:00:08	1442877	5	1	1	1	1	1	2	1	1	6	0	0	0	0	0	7	7
091012	18:00:08	10015	DigitSpanFwrdFr3mo	Gate9FwrdFr3mo	12	0	1	0	122	18:00:08	1442892	5	1	1	1	1	1	2	1	1	7	0	0	0	0	0	7	7
091012	18:00:08	10015	DigitSpanFwrdFr3mo	Score6FwrdFr3mo	12	DS2	11064	0	122	18:00:08	1465840	5	1	1	1	1	1	2	1	1	7	0	0	0	0	0	7	7
091012	18:00:08	10015	DigitSpanFwrdFr3mo	Gate11FwrdFr3mo	12	0	1	0	122	18:00:08	1465856	5	1	1	1	1	1	2	1	1	7	0	0	0	0	0	7	7
091012	18:00:08	10015	DigitSpanFwrdFr3mo	Score66FwrdFr3mo	12	DS2	13245	0	122	18:00:08	1490843	5	1	1	1	1	1	2	1	1	7	0	0	0	0	0	7	7
091012	18:00:08	10015	DigitSpanFr3mo	Score1Fr3mo	13	DS1	3725	0	122	18:00:08	1516233	5	1	1	1	1	1	2	1	1	7	0	0	0	0	0	7	7
091012	18:00:08	10015	DigitSpanFr3mo	Gate1Fr3mo	13	0	1	0	122	18:00:08	1516248	5	1	1	1	1	1	2	1	1	7	2	0	0	0	0	7	7
091012	18:00:08	10015	DigitSpanFr3mo	Score2Fr3mo	13	DS1	4880	0	122	18:00:08	1525709	5	1	1	1	1	1	2	1	1	7	2	0	0	0	0	7	7
091012	18:00:08	10015	DigitSpanFr3mo	Gate3Fr3mo	13	0	1	0	122	18:00:08	1525724	5	1	1	1	1	1	2	1	1	7	3	0	0	0	0	7	7
091012	18:00:08	10015	DigitSpanFr3mo	Score3Fr3mo	13	DS1	3356	0	122	18:00:08	1534785	5	1	1	1	1	1	2	1	1	7	3	0	0	0	0	7	7
091012	18:00:08	10015	DigitSpanFr3mo	Gate5Fr3mo	13	0	1	0	122	18:00:08	1534800	5	1	1	1	1	1	2	1	1	7	4	0	0	0	0	7	7
091012	18:00:08	10015	DigitSpanFr3mo	Score4Fr3mo	13	DS1	7038	0	122	18:00:08	1549086	5	1	1	1	1	1	2	1	1	7	4	0	0	0	0	7	7
091012	18:00:08	10015	DigitSpanFr3mo	Gate7Fr3mo	13	0	1	0	122	18:00:08	1549101	5	1	1	1	1	1	2	1	1	7	5	0	0	0	0	7	7
091012	18:00:08	10015	DigitSpanFr3mo	Score5Fr3mo	13	DS1	7865	0	122	18:00:08	1565492	5	1	1	1	1	1	2	1	1	7	5	0	0	0	0	7	7
091012	18:00:08	10015	DigitSpanFr3mo	Gate9Fr3mo	13	0	1	0	122	18:00:08	1565508	5	1	1	1	1	1	2	1	1	7	6	0	0	0	0	7	7
091012	18:00:08	10015	DigitSpanFr3mo	Score6Fr3mo	13	DS2	11152	0	122	18:00:08	1586457	5	1	1	1	1	1	2	1	1	7	6	0	0	0	0	7	7
091012	18:00:08	10015	DigitSpanFr3mo	Gate11Fr3mo	13	0	1	0	122	18:00:08	1586472	5	1	1	1	1	1	2	1	1	7	6	0	0	0	0	7	7
091012	18:00:08	10015	DigitSpanFr3mo	Score66Fr3mo	13	DS2	12434	0	122	18:00:08	1608501	5	1	1	1	1	1	2	1	1	7	6	0	0	0	0	7	7
091012	18:00:08	10015	Trial	IncongruentRight	14	205	516	1	122	18:00:08	1647391	5	1	1	1	1	1	2	1	1	7	6	0	0	0	0	7	7
091012	18:00:08	10015	Trial	IncongruentLeft	14	203	525	1	122	18:00:08	1648405	5	1	1	1	1	1	2	1	1	7	6	0	0	0	0	7	7
091012	18:00:08	10015	Trial	CongruentRight	14	205	438	1	122	18:00:08	1649311	5	1	1	1	1	1	2	1	1	7	6	0	0	0	0	7	7
091012	18:00:08	10015	Trial	IncongruentRight	14	205	481	1	122	18:00:08	1650377	5	1	1	1	1	1	2	1	1	7	6	0	0	0	0	7	7
091012	18:00:08	10015	Trial	CongruentLeft	14	203	441	1	122	18:00:08	1651337	5	1	1	1	1	1	2	1	1	7	6	0	0	0	0	7	7
091012	18:00:08	10015	Trial	CongruentRight	14	205	450	1	122	18:00:08	1652336	5	1	1	1	1	1	2	1	1	7	6	0	0	0	0	7	7
091012	18:00:08	10015	Trial	IncongruentRight	14	205	490	1	122	18:00:08	1653376	5	1	1	1	1	1	2	1	1	7	6	0	0	0	0	7	7
091012	18:00:08	10015	Trial	CongruentLeft	14	203	482	1	122	18:00:08	1654375	5	1	1	1	1	1	2	1	1	7	6	0	0	0	0	7	7
091012	18:00:08	10015	Trial	IncongruentLeft	14	203	411	1	122	18:00:08	1655295	5	1	1	1	1	1	2	1	1	7	6	0	0	0	0	7	7
091012	18:00:08	10015	Trial	IncongruentLeft	14	203	419	1	122	18:00:08	1656308	5	1	1	1	1	1	2	1	1	7	6	0	0	0	0	7	7
091012	18:00:08	10015	Trial	CongruentRight	14	205	445	1	122	18:00:08	1657334	5	1	1	1	1	1	2	1	1	7	6	0	0	0	0	7	7
091012	18:00:08	10015	Trial	IncongruentRight	14	205	452	1	122	18:00:08	1658347	5	1	1	1	1	1	2	1	1	7	6	0	0	0	0	7	7
091012	18:00:08	10015	Trial	CongruentLeft	14	203	444	1	122	18:00:08	1659333	5	1	1	1	1	1	2	1	1	7	6	0	0	0	0	7	7
091012	18:00:08	10015	Trial	CongruentRight	14	205	453	1	122	18:00:08	1660346	5	1	1	1	1	1	2	1	1	7	6	0	0	0	0	7	7
091012	18:00:08	10015	Trial	IncongruentLeft	14	203	461	1	122	18:00:08	1661346	5	1	1	1	1	1	2	1	1	7	6	0	0	0	0	7	7
091012	18:00:08	10015	Trial	IncongruentRight	14	205	469	1	122	18:00:08	1662359	5	1	1	1	1	1	2	1	1	7	6	0	0	0	0	7	7
091012	18:00:08	10015	Trial	CongruentRight	14	205	446	1	122	18:00:08	1663332	5	1	1	1	1	1	2	1	1	7	6	0	0	0	0	7	7
091012	18:00:08	10015	Trial	CongruentLeft	14	203	438	1	122	18:00:08	1664331	5	1	1	1	1	1	2	1	1	7	6	0	0	0	0	7	7
091012	18:00:08	10015	Trial	CongruentRight	14	205	366	1	122	18:00:08	1665251	5	1	1	1	1	1	2	1	1	7	6	0	0	0	0	7	7
091012	18:00:08	10015	Trial	IncongruentRight	14	205	519	1	122	18:00:08	1666410	5	1	1	1	1	1	2	1	1	7	6	0	0	0	0	7	7
091012	18:00:08	10015	Trial	IncongruentLeft	14	203	479	1	122	18:00:08	1667370	5	1	1	1	1	1	2	1	1	7	6	0	0	0	0	7	7
091012	18:00:08	10015	Trial	IncongruentLeft	14	203	504	1	122	18:00:08	1668383	5	1	1	1	1	1	2	1	1	7	6	0	0	0	0	7	7
091012	18:00:08	10015	Trial	CongruentLeft	14	203	416	1	122	18:00:08	1669302	5	1	1	1	1	1	2	1	1	7	6	0	0	0	0	7	7
091012	18:00:08	10015	Trial	CongruentRight	14	205	424	1	122	18:00:08	1670315	5	1	1	1	1	1	2	1	1	7	6	0	0	0	0	7	7
091012	18:00:08	10015	Trial	IncongruentLeft	14	203	465	1	122	18:00:08	1671355	5	1	1	1	1	1	2	1	1	7	6	0	0	0	0	7	7
091012	18:00:08	10015	Trial	IncongruentRight	14	205	441	1	122	18:00:08	1672328	5	1	1	1	1	1	2	1	1	7	6	0	0	0	0	7	7
091012	18:00:08	10015	Trial	CongruentRight	14	205	452	1	122	18:00:08	1673354	5	1	1	1	1	1	2	1	1	7	6	0	0	0	0	7	7
091012	18:00:08	10015	Trial	CongruentLeft	14	203	445	1	122	18:00:08	1674340	5	1	1	1	1	1	2	1	1	7	6	0	0	0	0	7	7
091012	18:00:08	10015	Trial	IncongruentRight	14	205	469	1	122	18:00:08	1675367	5	1	1	1	1	1	2	1	1	7	6	0	0	0	0	7	7
091012	18:00:08	10015	Trial	IncongruentLeft	14	203	445	1	122	18:00:08	1676340	5	1	1	1	1	1	2	1	1	7	6	0	0	0	0	7	7
091012	18:00:08	10015	Trial	IncongruentRight	14	205	421	1	122	18:00:08	1677312	5	1	1	1	1	1	2	1	1	7	6	0	0	0	0	7	7
091012	18:00:08	10015	Trial	CongruentRight	14	205	446	1	122	18:00:08	1678339	5	1	1	1	1	1	2	1	1	7	6	0	0	0	0	7	7
091012	18:00:08	10015	Trial	IncongruentLeft	14	203	422	1	122	18:00:08	1679312	5	1	1	1	1	1	2	1	1	7	6	0	0	0	0	7	7
091012	18:00:08	10015	Trial	CongruentLeft	14	203	447	1	122	18:00:08	1680338	5	1	1	1	1	1	2	1	1	7	6	0	0	0	0	7	7
091012	18:00:08	10015	Trial	CongruentRight	14	205	423	1	122	18:00:08	1681311	5	1	1	1	1	1	2	1	1	7	6	0	0	0	0	7	7
091012	18:00:08	10015	Trial	IncongruentLeft	14	203	464	1	122	18:00:08	1682351	5	1	1	1	1	1	2	1	1	7	6	0	0	0	0	7	7
091012	18:00:08	10015	Trial	IncongruentRight	14	205	424	1	122	18:00:08	1683310	5	1	1	1	1	1	2	1	1	7	6	0	0	0	0	7	7
091012	18:00:08	10015	Trial	IncongruentRight	14	205	480	1	122	18:00:08	1684376	5	1	1	1	1	1	2	1	1	7	6	0	0	0	0	7	7
091012	18:00:08	10015	Trial	CongruentLeft	14	203	425	1	122	18:00:08	1685323	5	1	1	1	1	1	2	1	1	7	6	0	0	0	0	7	7
091012	18:00:08	10015	Trial	IncongruentLeft	14	203	529	1	122	18:00:08	1686416	5	1	1	1	1	1	2	1	1	7	6	0	0	0	0	7	7
091012	18:00:08	10015	Trial	CongruentRight	14	205	361	1	122	18:00:08	1687255	5	1	1	1	1	1	2	1	1	7	6	0	0	0	0	7	7
091012	18:00:08	10015	Trial	CongruentLeft	14	203	386	1	122	18:00:08	1688281	5	1	1	1	1	1	2	1	1	7	6	0	0	0	0	7	7
091012	18:00:08	10015	Trial	IncongruentRight	14	205	427	1	122	18:00:08	1689321	5	1	1	1	1	1	2	1	1	7	6	0	0	0	0	7	7
091012	18:00:08	10015	Trial	CongruentRight	14	205	419	1	122	18:00:08	1690307	5	1	1	1	1	1	2	1	1	7	6	0	0	0	0	7	7
091012	18:00:08	10015	Trial	IncongruentLeft	14	203	395	1	122	18:00:08	1691280	5	1	1	1	1	1	2	1	1	7	6	0	0	0	0	7	7
091012	18:00:08	10015	Trial	CongruentLeft	14	203	371	1	122	18:00:08	1692266	5	1	1	1	1	1	2	1	1	7	6	0	0	0	0	7	7
091012	18:00:08	10015	Trial	IncongruentLeft	14	203	508	1	122	18:00:08	1693399	5	1	1	1	1	1	2	1	1	7	6	0	0	0	0	7	7
091012	18:00:08	10015	Trial	IncongruentRight	14	205	436	1	122	18:00:08	1694319	5	1	1	1	1	1	2	1	1	7	6	0	0	0	0	7	7
091012	18:00:08	10015	Trial	CongruentRight	14	205	429	1	122	18:00:08	1695318	5	1	1	1	1	1	2	1	1	7	6	0	0	0	0	7	7
091012	18:00:08	10015	Trial	CongruentLeft	14	203	421	1	122	18:00:08	1696305	5	1	1	1	1	1	2	1	1	7	6	0	0	0	0	7	7
091012	18:00:08	10015	Trial	CongruentLeft	14	203	397	1	122	18:00:08	1697277	5	1	1	1	1	1	2	1	1	7	6	0	0	0	0	7	7
091012	18:00:08	10015	Trial	IncongruentRight	14	205	454	1	122	18:00:08	1698344	5	1	1	1	1	1	2	1	1	7	6	0	0	0	0	7	7
091012	18:00:08	10015	Trial	IncongruentLeft	14	203	430	1	122	18:00:08	1699317	5	1	1	1	1	1	2	1	1	7	6	0	0	0	0	7	7
091012	18:00:08	10015	Trial	IncongruentRight	14	205	439	1	122	18:00:08	1700330	5	1	1	1	1	1	2	1	1	7	6	0	0	0	0	7	7
091012	18:00:08	10015	Trial	CongruentRight	14	205	431	1	122	18:00:08	1701316	5	1	1	1	1	1	2	1	1	7	6	0	0	0	0	7	7
091012	18:00:08	10015	Trial	CongruentRight	14	205	423	1	122	18:00:08	1702302	5	1	1	1	1	1	2	1	1	7	6	0	0	0	0	7	7
091012	18:00:08	10015	Trial	IncongruentLeft	14	203	373	1	122	18:00:08	1703288	5	1	1	1	1	1	2	1	1	7	6	0	0	0	0	7	7
091012	18:00:08	10015	Trial	CongruentLeft	14	203	507	1	122	18:00:08	1704408	5	1	1	1	1	1	2	1	1	7	6	0	0	0	0	7	7
091012	18:00:08	10015	Trial	CongruentRight	14	205	403	1	122	18:00:08	1705301	5	1	1	1	1	1	2	1	1	7	6	0	0	0	0	7	7
091012	18:00:08	10015	Trial	CongruentLeft	14	203	395	1	122	18:00:08	1706287	5	1	1	1	1	1	2	1	1	7	6	0	0	0	0	7	7
091012	18:00:08	10015	Trial	IncongruentRight	14	205	452	1	122	18:00:08	1707353	5	1	1	1	1	1	2	1	1	7	6	0	0	0	0	7	7
091012	18:00:08	10015	Trial	CongruentRight	14	205	444	1	122	18:00:08	1708340	5	1	1	1	1	1	2	1	1	7	6	0	0	0	0	7	7
091012	18:00:08	10015	Trial	CongruentLeft	14	203	437	1	122	18:00:08	1709326	5	1	1	1	1	1	2	1	1	7	6	0	0	0	0	7	7
091012	18:00:08	10015	Trial	IncongruentLeft	14	203	493	1	122	18:00:08	1710392	5	1	1	1	1	1	2	1	1	7	6	0	0	0	0	7	7
091012	18:00:08	10015	Trial	IncongruentLeft	14	203	437	1	122	18:00:08	1711325	5	1	1	1	1	1	2	1	1	7	6	0	0	0	0	7	7
091012	18:00:08	10015	Trial	CongruentRight	14	205	414	1	122	18:00:08	1712311	5	1	1	1	1	1	2	1	1	7	6	0	0	0	0	7	7
091012	18:00:08	10015	Trial	IncongruentRight	14	205	518	1	122	18:00:08	1713418	5	1	1	1	1	1	2	1	1	7	6	0	0	0	0	7	7
091012	18:00:08	10015	Trial	CongruentLeft	14	203	430	1	122	18:00:08	1714324	5	1	1	1	1	1	2	1	1	7	6	0	0	0	0	7	7
091012	18:00:08	10015	Trial	IncongruentRight	14	205	407	1	122	18:00:08	1715297	5	1	1	1	1	1	2	1	1	7	6	0	0	0	0	7	7
091012	18:00:08	10015	Trial	CongruentRight	14	205	431	1	122	18:00:08	1716323	5	1	1	1	1	1	2	1	1	7	6	0	0	0	0	7	7
091012	18:00:08	10015	Trial	IncongruentLeft	14	203	440	1	122	18:00:08	1717336	5	1	1	1	1	1	2	1	1	7	6	0	0	0	0	7	7
091012	18:00:08	10015	Trial	CongruentLeft	14	203	368	1	122	18:00:08	1718256	5	1	1	1	1	1	2	1	1	7	6	0	0	0	0	7	7
091012	18:00:08	10015	Trial	CongruentRight	14	205	473	1	122	18:00:08	1719362	5	1	1	1	1	1	2	1	1	7	6	0	0	0	0	7	7
091012	18:00:08	10015	Trial	IncongruentLeft	14	203	417	1	122	18:00:08	1720308	5	1	1	1	1	1	2	1	1	7	6	0	0	0	0	7	7
091012	18:00:08	10015	Trial	CongruentRight	14	205	409	1	122	18:00:08	1721294	5	1	1	1	1	1	2	1	1	7	6	0	0	0	0	7	7
091012	18:00:08	10015	Trial	CongruentRight	14	205	402	1	122	18:00:08	1722294	5	1	1	1	1	1	2	1	1	7	6	0	0	0	0	7	7
091012	18:00:08	10015	Trial	IncongruentRight	14	203	458	0	122	18:00:08	1723347	5	1	1	1	1	1	2	1	1	7	6	0	0	0	0	7	7
091012	18:00:08	10015	Trial	CongruentLeft	14	203	450	1	122	18:00:08	1724333	5	1	1	1	1	1	2	1	1	7	6	0	0	0	0	7	7
091012	18:00:08	10015	Trial	IncongruentLeft	14	203	459	1	122	18:00:08	1725346	5	1	1	1	1	1	2	1	1	7	6	0	0	0	0	7	7
091012	18:00:08	10015	Trial	CongruentLeft	14	203	515	1	122	18:00:08	1726399	5	1	1	1	1	1	2	1	1	7	6	0	0	0	0	7	7
091012	18:00:08	10015	Trial	IncongruentRight	14	205	395	1	122	18:00:08	1727278	5	1	1	1	1	1	2	1	1	7	6	0	0	0	0	7	7
091012	18:00:08	10015	Trial	IncongruentLeft	14	203	485	1	122	18:00:08	1728371	5	1	1	1	1	1	2	1	1	7	6	0	0	0	0	7	7
091012	18:00:08	10015	Trial	CongruentRight	14	205	429	1	122	18:00:08	1729318	5	1	1	1	1	1	2	1	1	7	6	0	0	0	0	7	7
091012	18:00:08	10015	Trial	CongruentLeft	14	203	469	1	122	18:00:08	1730357	5	1	1	1	1	1	2	1	1	7	6	0	0	0	0	7	7
091012	18:00:08	10015	Trial	IncongruentLeft	14	203	525	1	122	18:00:08	1731410	5	1	1	1	1	1	2	1	1	7	6	0	0	0	0	7	7
091012	18:00:08	10015	Trial	CongruentLeft	14	203	437	1	122	18:00:08	1732317	5	1	1	1	1	1	2	1	1	7	6	0	0	0	0	7	7
091012	18:00:08	10015	Trial	IncongruentRight	14	205	414	1	122	18:00:08	1733303	5	1	1	1	1	1	2	1	1	7	6	0	0	0	0	7	7
091012	18:00:08	10015	Trial	CongruentRight	14	205	390	1	122	18:00:08	1734275	5	1	1	1	1	1	2	1	1	7	6	0	0	0	0	7	7
091012	18:00:08	10015	Trial	IncongruentLeft	14	203	481	1	122	18:00:08	1735382	5	1	1	1	1	1	2	1	1	7	6	0	0	0	0	7	7
091012	18:00:08	10015	Trial	CongruentLeft	14	203	490	1	122	18:00:08	1736381	5	1	1	1	1	1	2	1	1	7	6	0	0	0	0	7	7
091012	18:00:08	10015	Trial	IncongruentRight	14	205	466	1	122	18:00:08	1737368	5	1	1	1	1	1	2	1	1	7	6	0	0	0	0	7	7
091012	18:00:08	10015	Trial	IncongruentLeft	14	203	458	1	122	18:00:08	1738354	5	1	1	1	1	1	2	1	1	7	6	0	0	0	0	7	7
091012	18:00:08	10015	Trial	CongruentLeft	14	203	451	1	122	18:00:08	1739340	5	1	1	1	1	1	2	1	1	7	6	0	0	0	0	7	7
091012	18:00:08	10015	Trial	IncongruentLeft	14	203	427	1	122	18:00:08	1740327	5	1	1	1	1	1	2	1	1	7	6	0	0	0	0	7	7
091012	18:00:08	10015	Trial	CongruentRight	14	205	435	1	122	18:00:08	1741326	5	1	1	1	1	1	2	1	1	7	6	0	0	0	0	7	7
091012	18:00:08	10015	Trial	CongruentLeft	14	203	444	1	122	18:00:08	1742339	5	1	1	1	1	1	2	1	1	7	6	0	0	0	0	7	7
091012	18:00:08	10015	Trial	IncongruentRight	14	205	452	1	122	18:00:08	1743352	5	1	1	1	1	1	2	1	1	7	6	0	0	0	0	7	7
091012	18:00:08	10015	Trial	CongruentLeft	14	203	445	1	122	18:00:08	1744338	5	1	1	1	1	1	2	1	1	7	6	0	0	0	0	7	7
091012	18:00:08	10015	Trial	CongruentRight	14	205	405	1	122	18:00:08	1745298	5	1	1	1	1	1	2	1	1	7	6	0	0	0	0	7	7
091012	18:00:08	10015	Trial	IncongruentLeft	14	203	477	1	122	18:00:08	1746364	5	1	1	1	1	1	2	1	1	7	6	0	0	0	0	7	7
091012	18:00:08	10015	Trial750Fr	IncongruentRight750	15	205	423	1	122	18:00:08	1758652	5	1	1	1	1	1	2	1	1	7	6	0	0	0	0	7	7
091012	18:00:08	10015	Trial750Fr	IncongruentLeft750	15	203	416	1	122	18:00:08	1759412	5	1	1	1	1	1	2	1	1	7	6	0	0	0	0	7	7
091012	18:00:08	10015	Trial750Fr	CongruentRight750	15	205	387	1	122	18:00:08	1760132	5	1	1	1	1	1	2	1	1	7	6	0	0	0	0	7	7
091012	18:00:08	10015	Trial750Fr	IncongruentRight750	15	205	411	1	122	18:00:08	1760905	5	1	1	1	1	1	2	1	1	7	6	0	0	0	0	7	7
091012	18:00:08	10015	Trial750Fr	CongruentLeft750	15	203	384	1	122	18:00:08	1761624	5	1	1	1	1	1	2	1	1	7	6	0	0	0	0	7	7
091012	18:00:08	10015	Trial750Fr	CongruentRight750	15	205	441	1	122	18:00:08	1762437	5	1	1	1	1	1	2	1	1	7	6	0	0	0	0	7	7
091012	18:00:08	10015	Trial750Fr	IncongruentRight750	15	205	462	1	122	18:00:08	1763197	5	1	1	1	1	1	2	1	1	7	6	0	0	0	0	7	7
091012	18:00:08	10015	Trial750Fr	CongruentLeft750	15	203	388	1	122	18:00:08	1763877	5	1	1	1	1	1	2	1	1	7	6	0	0	0	0	7	7
091012	18:00:08	10015	Trial750Fr	IncongruentLeft750	15	203	460	1	122	18:00:08	1764703	5	1	1	1	1	1	2	1	1	7	6	0	0	0	0	7	7
091012	18:00:08	10015	Trial750Fr	IncongruentLeft750	15	203	354	1	122	18:00:08	1765343	5	1	1	1	1	1	2	1	1	7	6	0	0	0	0	7	7
091012	18:00:08	10015	Trial750Fr	CongruentRight750	15	205	392	1	122	18:00:08	1766129	5	1	1	1	1	1	2	1	1	7	6	0	0	0	0	7	7
091012	18:00:08	10015	Trial750Fr	IncongruentRight750	15	205	477	1	122	18:00:08	1766955	5	1	1	1	1	1	2	1	1	7	6	0	0	0	0	7	7
091012	18:00:08	10015	Trial750Fr	CongruentLeft750	15	203	453	1	122	18:00:08	1767702	5	1	1	1	1	1	2	1	1	7	6	0	0	0	0	7	7
091012	18:00:08	10015	Trial750Fr	CongruentRight750	15	205	427	1	122	18:00:08	1768422	5	1	1	1	1	1	2	1	1	7	6	0	0	0	0	7	7
091012	18:00:08	10015	Trial750Fr	IncongruentLeft750	15	203	465	1	122	18:00:08	1769208	5	1	1	1	1	1	2	1	1	7	6	0	0	0	0	7	7
091012	18:00:08	10015	Trial750Fr	IncongruentRight750	15	205	470	1	122	18:00:08	1769954	5	1	1	1	1	1	2	1	1	7	6	0	0	0	0	7	7
091012	18:00:08	10015	Trial750Fr	CongruentRight750	15	205	398	1	122	18:00:08	1770647	5	1	1	1	1	1	2	1	1	7	6	0	0	0	0	7	7
091012	18:00:08	10015	Trial750Fr	CongruentLeft750	15	203	404	1	122	18:00:08	1771393	5	1	1	1	1	1	2	1	1	7	6	0	0	0	0	7	7
091012	18:00:08	10015	Trial750Fr	CongruentRight750	15	205	410	1	122	18:00:08	1772140	5	1	1	1	1	1	2	1	1	7	6	0	0	0	0	7	7
091012	18:00:08	10015	Trial750Fr	IncongruentRight750	15	205	402	1	122	18:00:08	1772900	5	1	1	1	1	1	2	1	1	7	6	0	0	0	0	7	7
091012	18:00:08	10015	Trial750Fr	IncongruentLeft750	15	203	392	1	122	18:00:08	1773633	5	1	1	1	1	1	2	1	1	7	6	0	0	0	0	7	7
091012	18:00:08	10015	Trial750Fr	IncongruentLeft750	15	203	397	1	122	18:00:08	1774379	5	1	1	1	1	1	2	1	1	7	6	0	0	0	0	7	7
091012	18:00:08	10015	Trial750Fr	CongruentLeft750	15	203	339	1	122	18:00:08	1775072	5	1	1	1	1	1	2	1	1	7	6	0	0	0	0	7	7
091012	18:00:08	10015	Trial750Fr	CongruentRight750	15	205	331	1	122	18:00:08	1775832	5	1	1	1	1	1	2	1	1	7	6	0	0	0	0	7	7
091012	18:00:08	10015	Trial750Fr	IncongruentLeft750	15	203	417	1	122	18:00:08	1776658	5	1	1	1	1	1	2	1	1	7	6	0	0	0	0	7	7
091012	18:00:08	10015	Trial750Fr	IncongruentRight750	15	205	390	1	122	18:00:08	1777378	5	1	1	1	1	1	2	1	1	7	6	0	0	0	0	7	7
091012	18:00:08	10015	Trial750Fr	CongruentRight750	15	205	399	1	122	18:00:08	1778151	5	1	1	1	1	1	2	1	1	7	6	0	0	0	0	7	7
091012	18:00:08	10015	Trial750Fr	CongruentLeft750	15	203	420	1	122	18:00:08	1778910	5	1	1	1	1	1	2	1	1	7	6	0	0	0	0	7	7
091012	18:00:08	10015	Trial750Fr	IncongruentRight750	15	0	487	0	122	18:00:08	1779724	5	1	1	1	1	1	2	1	1	7	6	0	0	0	0	7	7
091012	18:00:08	10015	Trial750Fr	IncongruentLeft750	15	203	466	1	122	18:00:08	1780470	5	1	1	1	1	1	2	1	1	7	6	0	0	0	0	7	7
091012	18:00:08	10015	Trial750Fr	IncongruentRight750	15	205	427	1	122	18:00:08	1781190	5	1	1	1	1	1	2	1	1	7	6	0	0	0	0	7	7
091012	18:00:08	10015	Trial750Fr	CongruentRight750	15	205	352	1	122	18:00:08	1781856	5	1	1	1	1	1	2	1	1	7	6	0	0	0	0	7	7
091012	18:00:08	10015	Trial750Fr	IncongruentLeft750	15	203	390	1	122	18:00:08	1782642	5	1	1	1	1	1	2	1	1	7	6	0	0	0	0	7	7
091012	18:00:08	10015	Trial750Fr	CongruentLeft750	15	203	334	1	122	18:00:08	1783349	5	1	1	1	1	1	2	1	1	7	6	0	0	0	0	7	7
091012	18:00:08	10015	Trial750Fr	CongruentRight750	15	205	388	1	122	18:00:08	1784148	5	1	1	1	1	1	2	1	1	7	6	0	0	0	0	7	7
091012	18:00:08	10015	Trial750Fr	IncongruentLeft750	15	203	425	1	122	18:00:08	1784935	5	1	1	1	1	1	2	1	1	7	6	0	0	0	0	7	7
091012	18:00:08	10015	Trial750Fr	IncongruentRight750	15	205	430	1	122	18:00:08	1785681	5	1	1	1	1	1	2	1	1	7	6	0	0	0	0	7	7
091012	18:00:08	10015	Trial750Fr	IncongruentRight750	15	205	423	1	122	18:00:08	1786427	5	1	1	1	1	1	2	1	1	7	6	0	0	0	0	7	7
091012	18:00:08	10015	Trial750Fr	CongruentLeft750	15	203	445	1	122	18:00:08	1787200	5	1	1	1	1	1	2	1	1	7	6	0	0	0	0	7	7
091012	18:00:08	10015	Trial750Fr	IncongruentLeft750	15	203	418	1	122	18:00:08	1787920	5	1	1	1	1	1	2	1	1	7	6	0	0	0	0	7	7
091012	18:00:08	10015	Trial750Fr	CongruentRight750	15	205	408	1	122	18:00:08	1788653	5	1	1	1	1	1	2	1	1	7	6	0	0	0	0	7	7
091012	18:00:08	10015	Trial750Fr	CongruentLeft750	15	203	432	1	122	18:00:08	1789440	5	1	1	1	1	1	2	1	1	7	6	0	0	0	0	7	7
091012	18:00:08	10015	Trial750Fr	IncongruentRight750	15	205	438	1	122	18:00:08	1790199	5	1	1	1	1	1	2	1	1	7	6	0	0	0	0	7	7
091012	18:00:08	10015	Trial750Fr	CongruentRight750	15	203	475	0	122	18:00:08	1790972	5	1	1	1	1	1	2	1	1	7	6	0	0	0	0	7	7
091012	18:00:08	10015	Trial750Fr	IncongruentLeft750	15	0	487	0	122	18:00:08	1791732	5	1	1	1	1	1	2	1	1	7	6	0	0	0	0	7	7
091012	18:00:08	10015	Trial750Fr	CongruentLeft750	15	0	487	0	122	18:00:08	1792492	5	1	1	1	1	1	2	1	1	7	6	0	0	0	0	7	7
091012	18:00:08	10015	Trial750Fr	IncongruentLeft750	15	203	370	1	122	18:00:08	1793131	5	1	1	1	1	1	2	1	1	7	6	0	0	0	0	7	7
091012	18:00:08	10015	Trial750Fr	IncongruentRight750	15	205	426	1	122	18:00:08	1793958	5	1	1	1	1	1	2	1	1	7	6	0	0	0	0	7	7
091012	18:00:08	10015	Trial750Fr	CongruentRight750	15	205	464	1	122	18:00:08	1794731	5	1	1	1	1	1	2	1	1	7	6	0	0	0	0	7	7
091012	18:00:08	10015	Trial750Fr	CongruentLeft750	15	203	453	1	122	18:00:08	1795477	5	1	1	1	1	1	2	1	1	7	6	0	0	0	0	7	7
091012	18:00:08	10015	Trial750Fr	CongruentLeft750	15	203	462	1	122	18:00:08	1796237	5	1	1	1	1	1	2	1	1	7	6	0	0	0	0	7	7
091012	18:00:08	10015	Trial750Fr	IncongruentRight750	15	205	451	1	122	18:00:08	1796983	5	1	1	1	1	1	2	1	1	7	6	0	0	0	0	7	7
091012	18:00:08	10015	Trial750Fr	IncongruentLeft750	15	0	487	0	122	18:00:08	1797756	5	1	1	1	1	1	2	1	1	7	6	0	0	0	0	7	7
091012	18:00:08	10015	Trial750Fr	IncongruentRight750	15	0	487	0	122	18:00:08	1798516	5	1	1	1	1	1	2	1	1	7	6	0	0	0	0	7	7
091012	18:00:08	10015	Trial750Fr	CongruentRight750	15	205	298	1	122	18:00:08	1799089	5	1	1	1	1	1	2	1	1	7	6	0	0	0	0	7	7
091012	18:00:08	10015	Trial750Fr	CongruentRight750	15	205	290	1	122	18:00:08	1799835	5	1	1	1	1	1	2	1	1	7	6	0	0	0	0	7	7
091012	18:00:08	10015	Trial750Fr	IncongruentLeft750	15	203	455	1	122	18:00:08	1800755	5	1	1	1	1	1	2	1	1	7	6	0	0	0	0	7	7
091012	18:00:08	10015	Trial750Fr	CongruentLeft750	15	205	253	0	122	18:00:08	1801301	5	1	1	1	1	1	2	1	1	7	6	0	0	0	0	7	7
091012	18:00:08	10015	Trial750Fr	CongruentRight750	15	205	454	1	122	18:00:08	1802261	5	1	1	1	1	1	2	1	1	7	6	0	0	0	0	7	7
091012	18:00:08	10015	Trial750Fr	CongruentLeft750	15	203	443	1	122	18:00:08	1802994	5	1	1	1	1	1	2	1	1	7	6	0	0	0	0	7	7
091012	18:00:08	10015	Trial750Fr	IncongruentRight750	15	205	432	1	122	18:00:08	1803727	5	1	1	1	1	1	2	1	1	7	6	0	0	0	0	7	7
091012	18:00:08	10015	Trial750Fr	CongruentRight750	15	205	422	1	122	18:00:08	1804460	5	1	1	1	1	1	2	1	1	7	6	0	0	0	0	7	7
091012	18:00:08	10015	Trial750Fr	CongruentLeft750	15	203	446	1	122	18:00:08	1805246	5	1	1	1	1	1	2	1	1	7	6	0	0	0	0	7	7
091012	18:00:08	10015	Trial750Fr	IncongruentLeft750	15	203	436	1	122	18:00:08	1805979	5	1	1	1	1	1	2	1	1	7	6	0	0	0	0	7	7
091012	18:00:08	10015	Trial750Fr	IncongruentLeft750	15	203	442	1	122	18:00:08	1806739	5	1	1	1	1	1	2	1	1	7	6	0	0	0	0	7	7
091012	18:00:08	10015	Trial750Fr	CongruentRight750	15	205	431	1	122	18:00:08	1807472	5	1	1	1	1	1	2	1	1	7	6	0	0	0	0	7	7
091012	18:00:08	10015	Trial750Fr	IncongruentRight750	15	205	455	1	122	18:00:08	1808258	5	1	1	1	1	1	2	1	1	7	6	0	0	0	0	7	7
091012	18:00:08	10015	Trial750Fr	CongruentLeft750	15	203	397	1	122	18:00:08	1808938	5	1	1	1	1	1	2	1	1	7	6	0	0	0	0	7	7
091012	18:00:08	10015	Trial750Fr	IncongruentRight750	15	0	487	0	122	18:00:08	1809778	5	1	1	1	1	1	2	1	1	7	6	0	0	0	0	7	7
091012	18:00:08	10015	Trial750Fr	CongruentRight750	15	205	443	1	122	18:00:08	1810498	5	1	1	1	1	1	2	1	1	7	6	0	0	0	0	7	7
091012	18:00:08	10015	Trial750Fr	IncongruentLeft750	15	203	419	1	122	18:00:08	1811231	5	1	1	1	1	1	2	1	1	7	6	0	0	0	0	7	7
091012	18:00:08	10015	Trial750Fr	CongruentLeft750	15	205	409	0	122	18:00:08	1811963	5	1	1	1	1	1	2	1	1	7	6	0	0	0	0	7	7
091012	18:00:08	10015	Trial750Fr	CongruentRight750	15	205	431	1	122	18:00:08	1812737	5	1	1	1	1	1	2	1	1	7	6	0	0	0	0	7	7
091012	18:00:08	10015	Trial750Fr	IncongruentLeft750	15	203	327	1	122	18:00:08	1813389	5	1	1	1	1	1	2	1	1	7	6	0	0	0	0	7	7
091012	18:00:08	10015	Trial750Fr	CongruentRight750	15	205	268	1	122	18:00:08	1814083	5	1	1	1	1	1	2	1	1	7	6	0	0	0	0	7	7
091012	18:00:08	10015	Trial750Fr	CongruentRight750	15	0	487	0	122	18:00:08	1815042	5	1	1	1	1	1	2	1	1	7	6	0	0	0	0	7	7
091012	18:00:08	10015	Trial750Fr	IncongruentRight750	15	205	442	1	122	18:00:08	1815762	5	1	1	1	1	1	2	1	1	7	6	0	0	0	0	7	7
091012	18:00:08	10015	Trial750Fr	CongruentLeft750	15	203	451	1	122	18:00:08	1816521	5	1	1	1	1	1	2	1	1	7	6	0	0	0	0	7	7
091012	18:00:08	10015	Trial750Fr	IncongruentLeft750	15	205	328	0	122	18:00:08	1817148	5	1	1	1	1	1	2	1	1	7	6	0	0	0	0	7	7
091012	18:00:08	10015	Trial750Fr	CongruentLeft750	15	0	487	0	122	18:00:08	1818054	5	1	1	1	1	1	2	1	1	7	6	0	0	0	0	7	7
091012	18:00:08	10015	Trial750Fr	IncongruentRight750	15	205	278	1	122	18:00:08	1818614	5	1	1	1	1	1	2	1	1	7	6	0	0	0	0	7	7
091012	18:00:08	10015	Trial750Fr	IncongruentLeft750	15	205	286	0	122	18:00:08	1819374	5	1	1	1	1	1	2	1	1	7	6	0	0	0	0	7	7
091012	18:00:08	10015	Trial750Fr	CongruentRight750	15	205	468	1	122	18:00:08	1820307	5	1	1	1	1	1	2	1	1	7	6	0	0	0	0	7	7
091012	18:00:08	10015	Trial750Fr	CongruentLeft750	15	203	362	1	122	18:00:08	1820947	5	1	1	1	1	1	2	1	1	7	6	0	0	0	0	7	7
091012	18:00:08	10015	Trial750Fr	IncongruentLeft750	15	205	290	0	122	18:00:08	1821626	5	1	1	1	1	1	2	1	1	7	6	0	0	0	0	7	7
091012	18:00:08	10015	Trial750Fr	CongruentLeft750	15	0	487	0	122	18:00:08	1822573	5	1	1	1	1	1	2	1	1	7	6	0	0	0	0	7	7
091012	18:00:08	10015	Trial750Fr	IncongruentRight750	15	205	431	1	122	18:00:08	1823279	5	1	1	1	1	1	2	1	1	7	6	0	0	0	0	7	7
091012	18:00:08	10015	Trial750Fr	CongruentRight750	15	0	487	0	122	18:00:08	1824079	5	1	1	1	1	1	2	1	1	7	6	0	0	0	0	7	7
091012	18:00:08	10015	Trial750Fr	IncongruentLeft750	15	203	430	1	122	18:00:08	1824785	5	1	1	1	1	1	2	1	1	7	6	0	0	0	0	7	7
091012	18:00:08	10015	Trial750Fr	CongruentLeft750	15	0	487	0	122	18:00:08	1825585	5	1	1	1	1	1	2	1	1	7	6	0	0	0	0	7	7
091012	18:00:08	10015	Trial750Fr	IncongruentRight750	15	205	443	1	122	18:00:08	1826304	5	1	1	1	1	1	2	1	1	7	6	0	0	0	0	7	7
091012	18:00:08	10015	Trial750Fr	IncongruentLeft750	15	0	487	0	122	18:00:08	1827091	5	1	1	1	1	1	2	1	1	7	6	0	0	0	0	7	7
091012	18:00:08	10015	Trial750Fr	CongruentLeft750	15	0	487	0	122	18:00:08	1827850	5	1	1	1	1	1	2	1	1	7	6	0	0	0	0	7	7
091012	18:00:08	10015	Trial750Fr	IncongruentLeft750	15	0	487	0	122	18:00:08	1828610	5	1	1	1	1	1	2	1	1	7	6	0	0	0	0	7	7
091012	18:00:08	10015	Trial750Fr	CongruentRight750	15	205	458	1	122	18:00:08	1829343	5	1	1	1	1	1	2	1	1	7	6	0	0	0	0	7	7
091012	18:00:08	10015	Trial750Fr	CongruentLeft750	15	203	418	1	122	18:00:08	1830063	5	1	1	1	1	1	2	1	1	7	6	0	0	0	0	7	7
091012	18:00:08	10015	Trial750Fr	IncongruentRight750	15	205	440	1	122	18:00:08	1830836	5	1	1	1	1	1	2	1	1	7	6	0	0	0	0	7	7
091012	18:00:08	10015	Trial750Fr	CongruentLeft750	15	203	430	1	122	18:00:08	1831569	5	1	1	1	1	1	2	1	1	7	6	0	0	0	0	7	7
091012	18:00:08	10015	Trial750Fr	CongruentRight750	15	205	403	1	122	18:00:08	1832289	5	1	1	1	1	1	2	1	1	7	6	0	0	0	0	7	7
091012	18:00:08	10015	Trial750Fr	IncongruentLeft750	15	203	443	1	122	18:00:08	1833088	5	1	1	1	1	1	2	1	1	7	6	0	0	0	0	7	7
091012	18:00:08	10015	WordsAbsFr3mo	PAbsFr3mo1	16	Abs1	3598	0	122	18:00:08	1857172	5	1	1	1	1	1	2	1	1	7	6	0	0	0	0	7	7
091012	18:00:08	10015	WordsAbsFr3mo	AbsFr3mo1	16	Abs1	2273	0	122	18:00:08	1859477	5	1	1	1	1	1	2	1	1	7	6	1	0	0	0	7	7
091012	18:00:08	10015	WordsAbsFr3mo	AbsFr3mo2	16	Abs1	8047	0	122	18:00:08	1867567	5	1	1	1	1	1	2	1	1	7	6	2	0	0	0	7	7
091012	18:00:08	10015	WordsAbsFr3mo	AbsFr3mo3	16	Abs1	9940	0	122	18:00:08	1877550	5	1	1	1	1	1	2	1	1	7	6	3	0	0	0	7	7
091012	18:00:08	10015	Trial2BackFrS	NS	17	0	1000	1	122	18:00:08	1918639	5	1	1	1	1	1	2	1	1	7	6	3	0	0	0	7	7
091012	18:00:08	10015	Trial2BackFrS	NS	17	0	1000	1	122	18:00:08	1920159	5	1	1	1	1	1	2	1	1	7	6	3	0	0	0	7	7
091012	18:00:08	10015	Trial2BackFrS	NS	17	0	1000	1	122	18:00:08	1921678	5	1	1	1	1	1	2	1	1	7	6	3	0	0	0	7	7
091012	18:00:08	10015	Trial2BackFrS	YS	17	57	607	1	122	18:00:08	1922811	5	1	1	1	1	1	2	1	1	7	6	3	0	0	0	7	7
091012	18:00:08	10015	Trial2BackFrS	NS	17	0	1000	1	122	18:00:08	1924703	5	1	1	1	1	1	2	1	1	7	6	3	0	0	0	7	7
091012	18:00:08	10015	Trial2BackFrS	NS	17	0	1000	1	122	18:00:08	1926223	5	1	1	1	1	1	2	1	1	7	6	3	0	0	0	7	7
091012	18:00:08	10015	Trial2BackFrS	NS	17	0	1000	1	122	18:00:08	1927742	5	1	1	1	1	1	2	1	1	7	6	3	0	0	0	7	7
091012	18:00:08	10015	Trial2BackFrS	NS	17	0	1000	1	122	18:00:08	1929262	5	1	1	1	1	1	2	1	1	7	6	3	0	0	0	7	7
091012	18:00:08	10015	Trial2BackFrS	YS	17	57	351	1	122	18:00:08	1930141	5	1	1	1	1	1	2	1	1	7	6	3	0	0	0	7	7
091012	18:00:08	10015	Trial2BackFrS	NS	17	0	1000	1	122	18:00:08	1932287	5	1	1	1	1	1	2	1	1	7	6	3	0	0	0	7	7
091012	18:00:08	10015	Trial2BackFrS	NS	17	0	1000	1	122	18:00:08	1933806	5	1	1	1	1	1	2	1	1	7	6	3	0	0	0	7	7
091012	18:00:08	10015	Trial2BackFrS	YS	17	0	1000	0	122	18:00:08	1935326	5	1	1	1	1	1	2	1	1	7	6	3	0	0	0	7	7
091012	18:00:08	10015	Trial2BackFrS	NS	17	0	1000	1	122	18:00:08	1936845	5	1	1	1	1	1	2	1	1	7	6	3	0	0	0	7	7
091012	18:00:08	10015	Trial2BackFrS	NS	17	0	1000	1	122	18:00:08	1938364	5	1	1	1	1	1	2	1	1	7	6	3	0	0	0	7	7
091012	18:00:08	10015	Trial2BackFrS	NS	17	0	1000	1	122	18:00:08	1939884	5	1	1	1	1	1	2	1	1	7	6	3	0	0	0	7	7
091012	18:00:08	10015	Trial2BackFrS	YS	17	0	1000	0	122	18:00:08	1941403	5	1	1	1	1	1	2	1	1	7	6	3	0	0	0	7	7
091012	18:00:08	10015	Trial2BackFrS	NS	17	0	1000	1	122	18:00:08	1942923	5	1	1	1	1	1	2	1	1	7	6	3	0	0	0	7	7
091012	18:00:08	10015	Trial2BackFrS	NS	17	0	1000	1	122	18:00:08	1944442	5	1	1	1	1	1	2	1	1	7	6	3	0	0	0	7	7
091012	18:00:08	10015	Trial2BackFrS	NS	17	0	1000	1	122	18:00:08	1945961	5	1	1	1	1	1	2	1	1	7	6	3	0	0	0	7	7
091012	18:00:08	10015	Trial2BackFrS	NS	17	0	1000	1	122	18:00:08	1947481	5	1	1	1	1	1	2	1	1	7	6	3	0	0	0	7	7
091012	18:00:08	10015	Trial2BackFrS	YS	17	57	486	1	122	18:00:08	1948507	5	1	1	1	1	1	2	1	1	7	6	3	0	0	0	7	7
091012	18:00:08	10015	Trial2BackFrS	NS	17	0	1000	1	122	18:00:08	1950506	5	1	1	1	1	1	2	1	1	7	6	3	0	0	0	7	7
091012	18:00:08	10015	Trial2BackFrS	NS	17	0	1000	1	122	18:00:08	1952025	5	1	1	1	1	1	2	1	1	7	6	3	0	0	0	7	7
091012	18:00:08	10015	Trial2BackFrS	NS	17	0	1000	1	122	18:00:08	1953545	5	1	1	1	1	1	2	1	1	7	6	3	0	0	0	7	7
091012	18:00:08	10015	Trial2BackFrS	NS	17	57	563	0	122	18:00:08	1954638	5	1	1	1	1	1	2	1	1	7	6	3	0	0	0	7	7
091012	18:00:08	10015	Trial2BackFrS	NS	17	0	1000	1	122	18:00:08	1956570	5	1	1	1	1	1	2	1	1	7	6	3	0	0	0	7	7
091012	18:00:08	10015	Trial2BackFrS	NS	17	0	1000	1	122	18:00:08	1958090	5	1	1	1	1	1	2	1	1	7	6	3	0	0	0	7	7
091012	18:00:08	10015	Trial2BackFrS	NS	17	0	1000	1	122	18:00:08	1959609	5	1	1	1	1	1	2	1	1	7	6	3	0	0	0	7	7
091012	18:00:08	10015	Trial2BackFrS	NS	17	0	1000	1	122	18:00:08	1961128	5	1	1	1	1	1	2	1	1	7	6	3	0	0	0	7	7
091012	18:00:08	10015	Trial2BackFrS	NS	17	0	1000	1	122	18:00:08	1962648	5	1	1	1	1	1	2	1	1	7	6	3	0	0	0	7	7
091012	18:00:08	10015	Trial2BackFrS	NS	17	0	1000	1	122	18:00:08	1964167	5	1	1	1	1	1	2	1	1	7	6	3	0	0	0	7	7
091012	18:00:08	10015	Trial2BackFrS	YS	17	57	837	1	122	18:00:08	1965527	5	1	1	1	1	1	2	1	1	7	6	3	0	0	0	7	7
091012	18:00:08	10015	Trial2BackFrS	NS	17	0	1000	1	122	18:00:08	1967193	5	1	1	1	1	1	2	1	1	7	6	3	0	0	0	7	7
091012	18:00:08	10015	Trial2BackFrS	NS	17	0	1000	1	122	18:00:08	1968712	5	1	1	1	1	1	2	1	1	7	6	3	0	0	0	7	7
091012	18:00:08	10015	Trial2BackFrS	NS	17	0	1000	1	122	18:00:08	1970231	5	1	1	1	1	1	2	1	1	7	6	3	0	0	0	7	7
091012	18:00:08	10015	Trial2BackFrS	YS	17	57	516	1	122	18:00:08	1971271	5	1	1	1	1	1	2	1	1	7	6	3	0	0	0	7	7
091012	18:00:08	10015	Trial2BackFrS	NS	17	0	1000	1	122	18:00:08	1973257	5	1	1	1	1	1	2	1	1	7	6	3	0	0	0	7	7
091012	18:00:08	10015	Trial2BackFrS	NS	17	0	1000	1	122	18:00:08	1974776	5	1	1	1	1	1	2	1	1	7	6	3	0	0	0	7	7
091012	18:00:08	10015	Trial2BackFrS	NS	17	0	1000	1	122	18:00:08	1976295	5	1	1	1	1	1	2	1	1	7	6	3	0	0	0	7	7
091012	18:00:08	10015	Trial2BackFrS	NS	17	0	1000	1	122	18:00:08	1977815	5	1	1	1	1	1	2	1	1	7	6	3	0	0	0	7	7
091012	18:00:08	10015	Trial2BackFrS	NS	17	0	1000	1	122	18:00:08	1979334	5	1	1	1	1	1	2	1	1	7	6	3	0	0	0	7	7
091012	18:00:08	10015	Trial2BackFrS	NS	17	0	1000	1	122	18:00:08	1980854	5	1	1	1	1	1	2	1	1	7	6	3	0	0	0	7	7
091012	18:00:08	10015	Trial2BackFrS	NS	17	0	1000	1	122	18:00:08	1982373	5	1	1	1	1	1	2	1	1	7	6	3	0	0	0	7	7
091012	18:00:08	10015	Trial2BackFrS	YS	17	57	582	1	122	18:00:08	1983479	5	1	1	1	1	1	2	1	1	7	6	3	0	0	0	7	7
091012	18:00:08	10015	Trial2BackFrS	NS	17	0	1000	1	122	18:00:08	1985398	5	1	1	1	1	1	2	1	1	7	6	3	0	0	0	7	7
091012	18:00:08	10015	Trial2BackFrS	NS	17	0	1000	1	122	18:00:08	1986918	5	1	1	1	1	1	2	1	1	7	6	3	0	0	0	7	7
091012	18:00:08	10015	Trial2BackFrS	NS	17	0	1000	1	122	18:00:08	1988437	5	1	1	1	1	1	2	1	1	7	6	3	0	0	0	7	7
091012	18:00:08	10015	Trial2BackFrS	NS	17	0	1000	1	122	18:00:08	1989956	5	1	1	1	1	1	2	1	1	7	6	3	0	0	0	7	7
091012	18:00:08	10015	Trial2BackFrS	YS	17	57	358	1	122	18:00:08	1990836	5	1	1	1	1	1	2	1	1	7	6	3	0	0	0	7	7
091012	18:00:08	10015	Trial2BackFrS	NS	17	0	1000	1	122	18:00:08	1992982	5	1	1	1	1	1	2	1	1	7	6	3	0	0	0	7	7
091012	18:00:08	10015	Trial2BackFrS	NS	17	0	1000	1	122	18:00:08	1994501	5	1	1	1	1	1	2	1	1	7	6	3	0	0	0	7	7
091012	18:00:08	10015	Trial2BackFrS	NS	17	0	1000	1	122	18:00:08	1996021	5	1	1	1	1	1	2	1	1	7	6	3	0	0	0	7	7
091012	18:00:08	10015	Trial2BackFrS	NS	17	0	1000	1	122	18:00:08	1997540	5	1	1	1	1	1	2	1	1	7	6	3	0	0	0	7	7
091012	18:00:08	10015	Trial2BackFrS	NS	17	0	1000	1	122	18:00:08	1999059	5	1	1	1	1	1	2	1	1	7	6	3	0	0	0	7	7
091012	18:00:08	10015	Trial2BackFrS	NS	17	0	1000	1	122	18:00:08	2000579	5	1	1	1	1	1	2	1	1	7	6	3	0	0	0	7	7
091012	18:00:08	10015	Trial2BackFrS	YS	17	0	1000	0	122	18:00:08	2002098	5	1	1	1	1	1	2	1	1	7	6	3	0	0	0	7	7
091012	18:00:08	10015	Trial2BackFrS	NS	17	0	1000	1	122	18:00:08	2003617	5	1	1	1	1	1	2	1	1	7	6	3	0	0	0	7	7
091012	18:00:08	10015	Trial2BackFrS	NS	17	0	1000	1	122	18:00:08	2005137	5	1	1	1	1	1	2	1	1	7	6	3	0	0	0	7	7
091012	18:00:08	10015	Trial2BackFrS	NS	17	0	1000	1	122	18:00:08	2006656	5	1	1	1	1	1	2	1	1	7	6	3	0	0	0	7	7
091012	18:00:08	10015	Trial2BackFrS	NS	17	0	1000	1	122	18:00:08	2008176	5	1	1	1	1	1	2	1	1	7	6	3	0	0	0	7	7
091012	18:00:08	10015	Trial2BackFrS	NS	17	0	1000	1	122	18:00:08	2009695	5	1	1	1	1	1	2	1	1	7	6	3	0	0	0	7	7
091012	18:00:08	10015	Trial2BackFrS	NS	17	0	1000	1	122	18:00:08	2011215	5	1	1	1	1	1	2	1	1	7	6	3	0	0	0	7	7
091012	18:00:08	10015	Trial2BackFrS	NS	17	0	1000	1	122	18:00:08	2012734	5	1	1	1	1	1	2	1	1	7	6	3	0	0	0	7	7
091012	18:00:08	10015	Trial2BackFrS	YS	17	57	940	1	122	18:00:08	2014200	5	1	1	1	1	1	2	1	1	7	6	3	0	0	0	7	7
091012	18:00:08	10015	Trial2BackFrS	NS	17	0	1000	1	122	18:00:08	2015759	5	1	1	1	1	1	2	1	1	7	6	3	0	0	0	7	7
091012	18:00:08	10015	Trial2BackFrS	NS	17	0	1000	1	122	18:00:08	2017278	5	1	1	1	1	1	2	1	1	7	6	3	0	0	0	7	7
091012	18:00:08	10015	Trial2BackFrS	NS	17	0	1000	1	122	18:00:08	2018798	5	1	1	1	1	1	2	1	1	7	6	3	0	0	0	7	7
091012	18:00:08	10015	Trial2BackFrS	NS	17	0	1000	1	122	18:00:08	2020317	5	1	1	1	1	1	2	1	1	7	6	3	0	0	0	7	7
091012	18:00:08	10015	Trial2BackFrS	YS	17	57	461	1	122	18:00:08	2021303	5	1	1	1	1	1	2	1	1	7	6	3	0	0	0	7	7
091012	18:00:08	10015	Trial2BackFrS	NS	17	0	1000	1	122	18:00:08	2023343	5	1	1	1	1	1	2	1	1	7	6	3	0	0	0	7	7
091012	18:00:08	10015	Trial2BackFrS	NS	17	0	1000	1	122	18:00:08	2024862	5	1	1	1	1	1	2	1	1	7	6	3	0	0	0	7	7
091012	18:00:08	10015	Trial2BackFrS	YS	17	57	524	1	122	18:00:08	2025915	5	1	1	1	1	1	2	1	1	7	6	3	0	0	0	7	7
091012	18:00:08	10015	Trial2BackFrS	NS	17	0	1000	1	122	18:00:08	2027887	5	1	1	1	1	1	2	1	1	7	6	3	0	0	0	7	7
091012	18:00:08	10015	Trial2BackFrS	NS	17	0	1000	1	122	18:00:08	2029407	5	1	1	1	1	1	2	1	1	7	6	3	0	0	0	7	7
091012	18:00:08	10015	Trial2BackFrS	NS	17	0	1000	1	122	18:00:08	2030926	5	1	1	1	1	1	2	1	1	7	6	3	0	0	0	7	7
091012	18:00:08	10015	Trial2BackFrS	NS	17	0	1000	1	122	18:00:08	2032445	5	1	1	1	1	1	2	1	1	7	6	3	0	0	0	7	7
091012	18:00:08	10015	Trial2BackFrS	NS	17	0	1000	1	122	18:00:08	2033965	5	1	1	1	1	1	2	1	1	7	6	3	0	0	0	7	7
091012	18:00:08	10015	Trial2BackFrS	NS	17	0	1000	1	122	18:00:08	2035484	5	1	1	1	1	1	2	1	1	7	6	3	0	0	0	7	7
091012	18:00:08	10015	Trial2BackFrS	YS	17	57	909	1	122	18:00:08	2036924	5	1	1	1	1	1	2	1	1	7	6	3	0	0	0	7	7
091012	18:00:08	10015	Trial2BackFrS	NS	17	0	1000	1	122	18:00:08	2038510	5	1	1	1	1	1	2	1	1	7	6	3	0	0	0	7	7
091012	18:00:08	10015	Trial2BackFrS	NS	17	0	1000	1	122	18:00:08	2040029	5	1	1	1	1	1	2	1	1	7	6	3	0	0	0	7	7
091012	18:00:08	10015	Trial2BackFrS	NS	17	0	1000	1	122	18:00:08	2041549	5	1	1	1	1	1	2	1	1	7	6	3	0	0	0	7	7
091012	18:00:08	10015	Trial2BackFrS	NS	17	0	1000	1	122	18:00:08	2043068	5	1	1	1	1	1	2	1	1	7	6	3	0	0	0	7	7
091012	18:00:08	10015	Trial2BackFrS	YS	17	57	429	1	122	18:00:08	2044027	5	1	1	1	1	1	2	1	1	7	6	3	0	0	0	7	7
091012	18:00:08	10015	Trial2BackFrS	NS	17	0	1000	1	122	18:00:08	2046093	5	1	1	1	1	1	2	1	1	7	6	3	0	0	0	7	7
091012	18:00:08	10015	Trial2BackFrS	NS	17	0	1000	1	122	18:00:08	2047613	5	1	1	1	1	1	2	1	1	7	6	3	0	0	0	7	7
091012	18:00:08	10015	Trial2BackFrS	NS	17	0	1000	1	122	18:00:08	2049132	5	1	1	1	1	1	2	1	1	7	6	3	0	0	0	7	7
091012	18:00:08	10015	Trial2BackFrS	NS	17	57	525	0	122	18:00:08	2050185	5	1	1	1	1	1	2	1	1	7	6	3	0	0	0	7	7
091012	18:00:08	10015	Trial2BackFrS	YS	17	0	1000	0	122	18:00:08	2052157	5	1	1	1	1	1	2	1	1	7	6	3	0	0	0	7	7
091012	18:00:08	10015	Trial2BackFrS	NS	17	0	1000	1	122	18:00:08	2053677	5	1	1	1	1	1	2	1	1	7	6	3	0	0	0	7	7
091012	18:00:08	10015	Trial2BackFrS	NS	17	0	1000	1	122	18:00:08	2055196	5	1	1	1	1	1	2	1	1	7	6	3	0	0	0	7	7
091012	18:00:08	10015	Trial2BackFrS	YS	17	57	301	1	122	18:00:08	2056022	5	1	1	1	1	1	2	1	1	7	6	3	0	0	0	7	7
091012	18:00:08	10015	Trial2BackFrS	NS	17	0	1000	1	122	18:00:08	2058222	5	1	1	1	1	1	2	1	1	7	6	3	0	0	0	7	7
091012	18:00:08	10015	Trial2BackFrS	NS	17	0	1000	1	122	18:00:08	2059741	5	1	1	1	1	1	2	1	1	7	6	3	0	0	0	7	7
091012	18:00:08	10015	Trial2BackFrS	NS	17	0	1000	1	122	18:00:08	2061273	5	1	1	1	1	1	2	1	1	7	6	3	0	0	0	7	7
091012	18:00:08	10015	Trial2BackFrS	NS	17	0	1000	1	122	18:00:08	2062793	5	1	1	1	1	1	2	1	1	7	6	3	0	0	0	7	7
091012	18:00:08	10015	Trial2BackFrS	NS	17	0	1000	1	122	18:00:08	2064312	5	1	1	1	1	1	2	1	1	7	6	3	0	0	0	7	7
091012	18:00:08	10015	Trial2BackFrS	NS	17	0	1000	1	122	18:00:08	2065832	5	1	1	1	1	1	2	1	1	7	6	3	0	0	0	7	7
091012	18:00:08	10015	Trial2BackFrS	NS	17	0	1000	1	122	18:00:08	2067351	5	1	1	1	1	1	2	1	1	7	6	3	0	0	0	7	7
091012	18:00:08	10015	Trial2BackFrS	NS	17	0	1000	1	122	18:00:08	2068870	5	1	1	1	1	1	2	1	1	7	6	3	0	0	0	7	7
091012	18:00:08	10015	Trial2BackFrS	YS	17	57	482	1	122	18:00:08	2069883	5	1	1	1	1	1	2	1	1	7	6	3	0	0	0	7	7
091012	18:00:08	10015	Trial2BackFrS	NS	17	0	1000	1	122	18:00:08	2071896	5	1	1	1	1	1	2	1	1	7	6	3	0	0	0	7	7
091012	18:00:08	10015	Trial2BackFrS	NS	17	0	1000	1	122	18:00:08	2073415	5	1	1	1	1	1	2	1	1	7	6	3	0	0	0	7	7
091012	18:00:08	10015	Trial2BackFrS	NS	17	0	1000	1	122	18:00:08	2074935	5	1	1	1	1	1	2	1	1	7	6	3	0	0	0	7	7
091012	18:00:08	10015	Trial2BackFrS	NS	17	0	1000	1	122	18:00:08	2076454	5	1	1	1	1	1	2	1	1	7	6	3	0	0	0	7	7
091012	18:00:08	10015	Trial2BackFrS	NS	17	0	1000	1	122	18:00:08	2077973	5	1	1	1	1	1	2	1	1	7	6	3	0	0	0	7	7
091012	18:00:08	10015	Trial2BackFrS	NS	17	0	1000	1	122	18:00:08	2079493	5	1	1	1	1	1	2	1	1	7	6	3	0	0	0	7	7
091012	18:00:08	10015	Trial2BackFrS	NS	17	0	1000	1	122	18:00:08	2081012	5	1	1	1	1	1	2	1	1	7	6	3	0	0	0	7	7
091012	18:00:08	10015	Trial2BackFrS	YS	17	0	1000	0	122	18:00:08	2082532	5	1	1	1	1	1	2	1	1	7	6	3	0	0	0	7	7
091012	18:00:08	10015	Trial2BackFrS	NS	17	0	1000	1	122	18:00:08	2084051	5	1	1	1	1	1	2	1	1	7	6	3	0	0	0	7	7
091012	18:00:08	10015	Trial2BackFrS	NS	17	57	677	0	122	18:00:08	2085250	5	1	1	1	1	1	2	1	1	7	6	3	0	0	0	7	7
091012	18:00:08	10015	Trial2BackFrS	NS	17	0	1000	1	122	18:00:08	2087076	5	1	1	1	1	1	2	1	1	7	6	3	0	0	0	7	7
091012	18:00:08	10015	Trial2BackFrS	NS	17	0	1000	1	122	18:00:08	2088596	5	1	1	1	1	1	2	1	1	7	6	3	0	0	0	7	7
091012	18:00:08	10015	Trial2BackFrS	NS	17	0	1000	1	122	18:00:08	2090115	5	1	1	1	1	1	2	1	1	7	6	3	0	0	0	7	7
091012	18:00:08	10015	Trial2BackFrS	NS	17	0	1000	1	122	18:00:08	2091634	5	1	1	1	1	1	2	1	1	7	6	3	0	0	0	7	7
091012	18:00:08	10015	Trial2BackFrS	NS	17	0	1000	1	122	18:00:08	2093154	5	1	1	1	1	1	2	1	1	7	6	3	0	0	0	7	7
091012	18:00:08	10015	Trial2BackFrS	NS	17	0	1000	1	122	18:00:08	2094673	5	1	1	1	1	1	2	1	1	7	6	3	0	0	0	7	7
091012	18:00:08	10015	Trial2BackFrS	NS	17	0	1000	1	122	18:00:08	2096192	5	1	1	1	1	1	2	1	1	7	6	3	0	0	0	7	7
091012	18:00:08	10015	Trial2BackFrS	YS	17	0	1000	0	122	18:00:08	2097712	5	1	1	1	1	1	2	1	1	7	6	3	0	0	0	7	7
091012	18:00:08	10015	Trial2BackFrS	NS	17	0	1000	1	122	18:00:08	2099231	5	1	1	1	1	1	2	1	1	7	6	3	0	0	0	7	7
091012	18:00:08	10015	ClockFr3mo	ClockFr3mo	19	Clock1	37640	0	122	18:00:08	2136976	5	1	1	1	1	1	2	1	1	7	6	3	1	0	0	7	7
091012	18:00:08	10015	ClockFr3mo	ClockFr3mo	19	Clock11	475	0	122	18:00:08	2137495	5	1	1	1	1	1	2	1	1	7	6	3	1	1	0	7	7
091012	18:00:08	10015	ClockFr3mo	ClockFr3mo	19	Clock111	531	0	122	18:00:08	2138069	5	1	1	1	1	1	2	1	1	7	6	3	1	1	1	7	7
091012	18:00:08	10015	ClockFr3mo	ClockFr3mo	19	Clockdone	542	0	122	18:00:08	2138655	5	1	1	1	1	1	2	1	1	7	6	3	1	1	1	7	7
091012	18:00:08	10015	FASFrVF3mo	StopFrVF3mo	20	17	6587	0	122	18:00:08	2257714	5	1	1	1	1	1	2	1	1	7	6	3	1	1	1	7	7
