date	time	subject	blockcode	trialcode	values.TaskNumber	response	latency	correct	values.Score	script.starttime	script.elapsedtime	values.ScoreS7	values.Word1	values.Word2	values.Word3	values.Word4	values.Word5	values.Word6	values.Word7	values.Word8	values.DigitSpanFwrd	values.DigitSpanBack	values.ScoreAbs	values.Contour	values.Numbers	values.Hands	values.corsiblockspanFwrd	values.corsiblockspanRev
072612	12:10:39	10028	Language	Language	0	French	2490	0	0	12:10:39	2803	0	0	0	0	0	0	0	0	0	0	0	0	0	0	0	0	0
072612	12:10:39	10028	Session	Session	0	Baseline	1317	0	0	12:10:39	4202	0	0	0	0	0	0	0	0	0	0	0	0	0	0	0	0	0
072612	12:10:39	10028	HandFr	HandFr	0	RightFr	1366938	0	0	12:10:39	1371221	0	0	0	0	0	0	0	0	0	0	0	0	0	0	0	0	0
072612	12:10:39	10028	AudioCheckFr	WordsFr	0	0	0	0	0	12:10:39	1496454	0	0	0	0	0	0	0	0	0	0	0	0	0	0	0	0	0
072612	12:10:39	10028	CubeFr	CubeFr	1	1Cube	38231	0	0	12:10:39	1537476	0	0	0	0	0	0	0	0	0	0	0	0	0	0	0	0	0
072612	12:10:39	10028	pm.simpleFrRight	blank.simpleFr	2	0	1787	1	0	12:10:39	1574541	0	0	0	0	0	0	0	0	0	0	0	0	0	0	0	0	0
072612	12:10:39	10028	pm.simpleFrRight	pm.simpleFr	2	57	419	0	0	12:10:39	1574994	0	0	0	0	0	0	0	0	0	0	0	0	0	0	0	0	0
072612	12:10:39	10028	pm.simpleFrRight	blank.simpleFr	2	0	2387	1	0	12:10:39	1577407	0	0	0	0	0	0	0	0	0	0	0	0	0	0	0	0	0
072612	12:10:39	10028	pm.simpleFrRight	pm.simpleFr	2	57	321	0	0	12:10:39	1577766	0	0	0	0	0	0	0	0	0	0	0	0	0	0	0	0	0
072612	12:10:39	10028	pm.simpleFrRight	blank.simpleFr	2	0	1887	1	0	12:10:39	1579686	0	0	0	0	0	0	0	0	0	0	0	0	0	0	0	0	0
072612	12:10:39	10028	pm.simpleFrRight	pm.simpleFr	2	57	299	0	0	12:10:39	1580019	0	0	0	0	0	0	0	0	0	0	0	0	0	0	0	0	0
072612	12:10:39	10028	pm.simpleFrRight	blank.simpleFr	2	0	1487	1	0	12:10:39	1581538	0	0	0	0	0	0	0	0	0	0	0	0	0	0	0	0	0
072612	12:10:39	10028	pm.simpleFrRight	pm.simpleFr	2	57	286	0	0	12:10:39	1581858	0	0	0	0	0	0	0	0	0	0	0	0	0	0	0	0	0
072612	12:10:39	10028	pm.simpleFrRight	blank.simpleFr	2	0	2287	1	0	12:10:39	1584177	0	0	0	0	0	0	0	0	0	0	0	0	0	0	0	0	0
072612	12:10:39	10028	pm.simpleFrRight	pm.simpleFr	2	57	255	0	0	12:10:39	1584470	0	0	0	0	0	0	0	0	0	0	0	0	0	0	0	0	0
072612	12:10:39	10028	pm.simpleFrRight	blank.simpleFr	2	0	2087	1	0	12:10:39	1586590	0	0	0	0	0	0	0	0	0	0	0	0	0	0	0	0	0
072612	12:10:39	10028	pm.simpleFrRight	pm.simpleFr	2	57	322	0	0	12:10:39	1586949	0	0	0	0	0	0	0	0	0	0	0	0	0	0	0	0	0
072612	12:10:39	10028	pm.simpleFrRight	blank.simpleFr	2	0	2487	1	0	12:10:39	1589468	0	0	0	0	0	0	0	0	0	0	0	0	0	0	0	0	0
072612	12:10:39	10028	pm.simpleFrRight	pm.simpleFr	2	57	260	0	0	12:10:39	1589762	0	0	0	0	0	0	0	0	0	0	0	0	0	0	0	0	0
072612	12:10:39	10028	pm.simpleFrRight	blank.simpleFr	2	0	2187	1	0	12:10:39	1591974	0	0	0	0	0	0	0	0	0	0	0	0	0	0	0	0	0
072612	12:10:39	10028	pm.simpleFrRight	pm.simpleFr	2	57	298	0	0	12:10:39	1592307	0	0	0	0	0	0	0	0	0	0	0	0	0	0	0	0	0
072612	12:10:39	10028	pm.simpleFrRight	blank.simpleFr	2	0	1687	1	0	12:10:39	1594027	0	0	0	0	0	0	0	0	0	0	0	0	0	0	0	0	0
072612	12:10:39	10028	pm.simpleFrRight	pm.simpleFr	2	57	277	0	0	12:10:39	1594347	0	0	0	0	0	0	0	0	0	0	0	0	0	0	0	0	0
072612	12:10:39	10028	pm.simpleFrRight	blank.simpleFr	2	0	1587	1	0	12:10:39	1595959	0	0	0	0	0	0	0	0	0	0	0	0	0	0	0	0	0
072612	12:10:39	10028	pm.simpleFrRight	pm.simpleFr	2	57	265	0	0	12:10:39	1596266	0	0	0	0	0	0	0	0	0	0	0	0	0	0	0	0	0
072612	12:10:39	10028	pm.simpleFrRight	blank.simpleFr	2	0	1987	1	0	12:10:39	1598278	0	0	0	0	0	0	0	0	0	0	0	0	0	0	0	0	0
072612	12:10:39	10028	pm.simpleFrRight	pm.simpleFr	2	57	266	0	0	12:10:39	1598585	0	0	0	0	0	0	0	0	0	0	0	0	0	0	0	0	0
072612	12:10:39	10028	pm.simpleFrRight	blank.simpleFr	2	0	1787	1	0	12:10:39	1600397	0	0	0	0	0	0	0	0	0	0	0	0	0	0	0	0	0
072612	12:10:39	10028	pm.simpleFrRight	pm.simpleFr	2	57	258	0	0	12:10:39	1600691	0	0	0	0	0	0	0	0	0	0	0	0	0	0	0	0	0
072612	12:10:39	10028	pm.simpleFrRight	blank.simpleFr	2	0	1587	1	0	12:10:39	1602303	0	0	0	0	0	0	0	0	0	0	0	0	0	0	0	0	0
072612	12:10:39	10028	pm.simpleFrRight	pm.simpleFr	2	57	288	0	0	12:10:39	1602623	0	0	0	0	0	0	0	0	0	0	0	0	0	0	0	0	0
072612	12:10:39	10028	pm.simpleFrRight	blank.simpleFr	2	0	1687	1	0	12:10:39	1604329	0	0	0	0	0	0	0	0	0	0	0	0	0	0	0	0	0
072612	12:10:39	10028	pm.simpleFrRight	pm.simpleFr	2	57	262	0	0	12:10:39	1604622	0	0	0	0	0	0	0	0	0	0	0	0	0	0	0	0	0
072612	12:10:39	10028	pm.simpleFrRight	blank.simpleFr	2	0	2087	1	0	12:10:39	1606728	0	0	0	0	0	0	0	0	0	0	0	0	0	0	0	0	0
072612	12:10:39	10028	pm.simpleFrRight	pm.simpleFr	2	57	263	0	0	12:10:39	1607021	0	0	0	0	0	0	0	0	0	0	0	0	0	0	0	0	0
072612	12:10:39	10028	pm.simpleFrRight	blank.simpleFr	2	0	1487	1	0	12:10:39	1608541	0	0	0	0	0	0	0	0	0	0	0	0	0	0	0	0	0
072612	12:10:39	10028	pm.simpleFrRight	pm.simpleFr	2	57	291	0	0	12:10:39	1608874	0	0	0	0	0	0	0	0	0	0	0	0	0	0	0	0	0
072612	12:10:39	10028	pm.simpleFrRight	blank.simpleFr	2	0	2287	1	0	12:10:39	1611193	0	0	0	0	0	0	0	0	0	0	0	0	0	0	0	0	0
072612	12:10:39	10028	pm.simpleFrRight	pm.simpleFr	2	57	262	0	0	12:10:39	1611486	0	0	0	0	0	0	0	0	0	0	0	0	0	0	0	0	0
072612	12:10:39	10028	pm.simpleFrRight	blank.simpleFr	2	0	2187	1	0	12:10:39	1613699	0	0	0	0	0	0	0	0	0	0	0	0	0	0	0	0	0
072612	12:10:39	10028	pm.simpleFrRight	pm.simpleFr	2	57	301	0	0	12:10:39	1614032	0	0	0	0	0	0	0	0	0	0	0	0	0	0	0	0	0
072612	12:10:39	10028	pm.simpleFrRight	blank.simpleFr	2	0	2387	1	0	12:10:39	1616445	0	0	0	0	0	0	0	0	0	0	0	0	0	0	0	0	0
072612	12:10:39	10028	pm.simpleFrRight	pm.simpleFr	2	57	227	0	0	12:10:39	1616711	0	0	0	0	0	0	0	0	0	0	0	0	0	0	0	0	0
072612	12:10:39	10028	pm.simpleFrRight	blank.simpleFr	2	0	2487	1	0	12:10:39	1619230	0	0	0	0	0	0	0	0	0	0	0	0	0	0	0	0	0
072612	12:10:39	10028	pm.simpleFrRight	pm.simpleFr	2	57	257	0	0	12:10:39	1619523	0	0	0	0	0	0	0	0	0	0	0	0	0	0	0	0	0
072612	12:10:39	10028	pm.simpleFrRight	blank.simpleFr	2	0	1887	1	0	12:10:39	1621443	0	0	0	0	0	0	0	0	0	0	0	0	0	0	0	0	0
072612	12:10:39	10028	pm.simpleFrRight	pm.simpleFr	2	57	301	0	0	12:10:39	1621776	0	0	0	0	0	0	0	0	0	0	0	0	0	0	0	0	0
072612	12:10:39	10028	pm.simpleFrRight	blank.simpleFr	2	0	1987	1	0	12:10:39	1623788	0	0	0	0	0	0	0	0	0	0	0	0	0	0	0	0	0
072612	12:10:39	10028	pm.simpleFrRight	pm.simpleFr	2	57	243	0	0	12:10:39	1624068	0	0	0	0	0	0	0	0	0	0	0	0	0	0	0	0	0
072612	12:10:39	10028	pm.simpleFrRight	blank.simpleFr	2	0	1987	1	0	12:10:39	1626081	0	0	0	0	0	0	0	0	0	0	0	0	0	0	0	0	0
072612	12:10:39	10028	pm.simpleFrRight	pm.simpleFr	2	57	254	0	0	12:10:39	1626374	0	0	0	0	0	0	0	0	0	0	0	0	0	0	0	0	0
072612	12:10:39	10028	pm.simpleFrRight	blank.simpleFr	2	0	1587	1	0	12:10:39	1627987	0	0	0	0	0	0	0	0	0	0	0	0	0	0	0	0	0
072612	12:10:39	10028	pm.simpleFrRight	pm.simpleFr	2	57	270	0	0	12:10:39	1628293	0	0	0	0	0	0	0	0	0	0	0	0	0	0	0	0	0
072612	12:10:39	10028	pm.simpleFrRight	blank.simpleFr	2	0	2487	1	0	12:10:39	1630812	0	0	0	0	0	0	0	0	0	0	0	0	0	0	0	0	0
072612	12:10:39	10028	pm.simpleFrRight	pm.simpleFr	2	57	243	0	0	12:10:39	1631092	0	0	0	0	0	0	0	0	0	0	0	0	0	0	0	0	0
072612	12:10:39	10028	pm.simpleFrRight	blank.simpleFr	2	0	2287	1	0	12:10:39	1633398	0	0	0	0	0	0	0	0	0	0	0	0	0	0	0	0	0
072612	12:10:39	10028	pm.simpleFrRight	pm.simpleFr	2	57	249	0	0	12:10:39	1633678	0	0	0	0	0	0	0	0	0	0	0	0	0	0	0	0	0
072612	12:10:39	10028	pm.simpleFrRight	blank.simpleFr	2	0	1787	1	0	12:10:39	1635491	0	0	0	0	0	0	0	0	0	0	0	0	0	0	0	0	0
072612	12:10:39	10028	pm.simpleFrRight	pm.simpleFr	2	57	269	0	0	12:10:39	1635797	0	0	0	0	0	0	0	0	0	0	0	0	0	0	0	0	0
072612	12:10:39	10028	pm.simpleFrRight	blank.simpleFr	2	0	1887	1	0	12:10:39	1637716	0	0	0	0	0	0	0	0	0	0	0	0	0	0	0	0	0
072612	12:10:39	10028	pm.simpleFrRight	pm.simpleFr	2	57	283	0	0	12:10:39	1638036	0	0	0	0	0	0	0	0	0	0	0	0	0	0	0	0	0
072612	12:10:39	10028	pm.simpleFrRight	blank.simpleFr	2	0	2087	1	0	12:10:39	1640155	0	0	0	0	0	0	0	0	0	0	0	0	0	0	0	0	0
072612	12:10:39	10028	pm.simpleFrRight	pm.simpleFr	2	57	276	0	0	12:10:39	1640462	0	0	0	0	0	0	0	0	0	0	0	0	0	0	0	0	0
072612	12:10:39	10028	pm.simpleFrRight	blank.simpleFr	2	0	2187	1	0	12:10:39	1642674	0	0	0	0	0	0	0	0	0	0	0	0	0	0	0	0	0
072612	12:10:39	10028	pm.simpleFrRight	pm.simpleFr	2	57	301	0	0	12:10:39	1643007	0	0	0	0	0	0	0	0	0	0	0	0	0	0	0	0	0
072612	12:10:39	10028	pm.simpleFrRight	blank.simpleFr	2	0	2387	1	0	12:10:39	1645420	0	0	0	0	0	0	0	0	0	0	0	0	0	0	0	0	0
072612	12:10:39	10028	pm.simpleFrRight	pm.simpleFr	2	57	259	0	0	12:10:39	1645713	0	0	0	0	0	0	0	0	0	0	0	0	0	0	0	0	0
072612	12:10:39	10028	pm.simpleFrRight	blank.simpleFr	2	0	1487	1	0	12:10:39	1647219	0	0	0	0	0	0	0	0	0	0	0	0	0	0	0	0	0
072612	12:10:39	10028	pm.simpleFrRight	pm.simpleFr	2	57	300	0	0	12:10:39	1647552	0	0	0	0	0	0	0	0	0	0	0	0	0	0	0	0	0
072612	12:10:39	10028	pm.simpleFrRight	blank.simpleFr	2	0	1687	1	0	12:10:39	1649272	0	0	0	0	0	0	0	0	0	0	0	0	0	0	0	0	0
072612	12:10:39	10028	pm.simpleFrRight	pm.simpleFr	2	57	264	0	0	12:10:39	1649565	0	0	0	0	0	0	0	0	0	0	0	0	0	0	0	0	0
072612	12:10:39	10028	pm.simpleFrRight	blank.simpleFr	2	0	2087	1	0	12:10:39	1651684	0	0	0	0	0	0	0	0	0	0	0	0	0	0	0	0	0
072612	12:10:39	10028	pm.simpleFrRight	pm.simpleFr	2	57	251	0	0	12:10:39	1651977	0	0	0	0	0	0	0	0	0	0	0	0	0	0	0	0	0
072612	12:10:39	10028	pm.simpleFrRight	blank.simpleFr	2	0	1987	1	0	12:10:39	1653990	0	0	0	0	0	0	0	0	0	0	0	0	0	0	0	0	0
072612	12:10:39	10028	pm.simpleFrRight	pm.simpleFr	2	57	297	0	0	12:10:39	1654323	0	0	0	0	0	0	0	0	0	0	0	0	0	0	0	0	0
072612	12:10:39	10028	pm.simpleFrRight	blank.simpleFr	2	0	1587	1	0	12:10:39	1655936	0	0	0	0	0	0	0	0	0	0	0	0	0	0	0	0	0
072612	12:10:39	10028	pm.simpleFrRight	pm.simpleFr	2	57	319	0	0	12:10:39	1656296	0	0	0	0	0	0	0	0	0	0	0	0	0	0	0	0	0
072612	12:10:39	10028	pm.simpleFrRight	blank.simpleFr	2	0	2387	1	0	12:10:39	1658708	0	0	0	0	0	0	0	0	0	0	0	0	0	0	0	0	0
072612	12:10:39	10028	pm.simpleFrRight	pm.simpleFr	2	57	267	0	0	12:10:39	1659014	0	0	0	0	0	0	0	0	0	0	0	0	0	0	0	0	0
072612	12:10:39	10028	pm.simpleFrRight	blank.simpleFr	2	0	2487	1	0	12:10:39	1661520	0	0	0	0	0	0	0	0	0	0	0	0	0	0	0	0	0
072612	12:10:39	10028	pm.simpleFrRight	pm.simpleFr	2	57	255	0	0	12:10:39	1661813	0	0	0	0	0	0	0	0	0	0	0	0	0	0	0	0	0
072612	12:10:39	10028	pm.simpleFrRight	blank.simpleFr	2	0	2187	1	0	12:10:39	1664026	0	0	0	0	0	0	0	0	0	0	0	0	0	0	0	0	0
072612	12:10:39	10028	pm.simpleFrRight	pm.simpleFr	2	57	293	0	0	12:10:39	1664359	0	0	0	0	0	0	0	0	0	0	0	0	0	0	0	0	0
072612	12:10:39	10028	pm.simpleFrRight	blank.simpleFr	2	0	1887	1	0	12:10:39	1666278	0	0	0	0	0	0	0	0	0	0	0	0	0	0	0	0	0
072612	12:10:39	10028	pm.simpleFrRight	pm.simpleFr	2	57	344	0	0	12:10:39	1666665	0	0	0	0	0	0	0	0	0	0	0	0	0	0	0	0	0
072612	12:10:39	10028	Trial2BackFr	N	3	0	1000	1	1	12:10:39	1733665	0	0	0	0	0	0	0	0	0	0	0	0	0	0	0	0	0
072612	12:10:39	10028	Trial2BackFr	N	3	0	1000	1	2	12:10:39	1735185	0	0	0	0	0	0	0	0	0	0	0	0	0	0	0	0	0
072612	12:10:39	10028	Trial2BackFr	N	3	0	1000	1	3	12:10:39	1736704	0	0	0	0	0	0	0	0	0	0	0	0	0	0	0	0	0
072612	12:10:39	10028	Trial2BackFr	N	3	57	643	0	3	12:10:39	1737877	0	0	0	0	0	0	0	0	0	0	0	0	0	0	0	0	0
072612	12:10:39	10028	Trial2BackFr	N	3	0	1000	1	4	12:10:39	1739730	0	0	0	0	0	0	0	0	0	0	0	0	0	0	0	0	0
072612	12:10:39	10028	Trial2BackFr	N	3	0	1000	1	5	12:10:39	1741249	0	0	0	0	0	0	0	0	0	0	0	0	0	0	0	0	0
072612	12:10:39	10028	Trial2BackFr	N	3	0	1000	1	6	12:10:39	1742768	0	0	0	0	0	0	0	0	0	0	0	0	0	0	0	0	0
072612	12:10:39	10028	Trial2BackFr	N	3	0	1000	1	7	12:10:39	1744288	0	0	0	0	0	0	0	0	0	0	0	0	0	0	0	0	0
072612	12:10:39	10028	Trial2BackFr	Y	3	0	1000	0	7	12:10:39	1745807	0	0	0	0	0	0	0	0	0	0	0	0	0	0	0	0	0
072612	12:10:39	10028	Trial2BackFr	N	3	0	1000	1	8	12:10:39	1747326	0	0	0	0	0	0	0	0	0	0	0	0	0	0	0	0	0
072612	12:10:39	10028	Trial2BackFr	N	3	0	1000	1	9	12:10:39	1748846	0	0	0	0	0	0	0	0	0	0	0	0	0	0	0	0	0
072612	12:10:39	10028	Trial2BackFr	N	3	0	1000	1	10	12:10:39	1750365	0	0	0	0	0	0	0	0	0	0	0	0	0	0	0	0	0
072612	12:10:39	10028	Trial2BackFr	Y	3	57	677	1	11	12:10:39	1751564	0	0	0	0	0	0	0	0	0	0	0	0	0	0	0	0	0
072612	12:10:39	10028	Trial2BackFr	N	3	0	1000	1	12	12:10:39	1753391	0	0	0	0	0	0	0	0	0	0	0	0	0	0	0	0	0
072612	12:10:39	10028	Trial2BackFr	N	3	0	1000	1	13	12:10:39	1754910	0	0	0	0	0	0	0	0	0	0	0	0	0	0	0	0	0
072612	12:10:39	10028	Trial2BackFr	N	3	0	1000	1	14	12:10:39	1756429	0	0	0	0	0	0	0	0	0	0	0	0	0	0	0	0	0
072612	12:10:39	10028	Trial2BackFr	N	3	0	1000	1	15	12:10:39	1757949	0	0	0	0	0	0	0	0	0	0	0	0	0	0	0	0	0
072612	12:10:39	10028	Trial2BackFr	N	3	0	1000	1	16	12:10:39	1759468	0	0	0	0	0	0	0	0	0	0	0	0	0	0	0	0	0
072612	12:10:39	10028	Trial2BackFr	Y	3	0	1000	0	16	12:10:39	1760988	0	0	0	0	0	0	0	0	0	0	0	0	0	0	0	0	0
072612	12:10:39	10028	Trial2BackFr	N	3	0	1000	1	17	12:10:39	1762507	0	0	0	0	0	0	0	0	0	0	0	0	0	0	0	0	0
072612	12:10:39	10028	Trial2BackFr	N	3	57	807	0	17	12:10:39	1763840	0	0	0	0	0	0	0	0	0	0	0	0	0	0	0	0	0
072612	12:10:39	10028	Trial2BackFr	N	3	0	1000	1	18	12:10:39	1765533	0	0	0	0	0	0	0	0	0	0	0	0	0	0	0	0	0
072612	12:10:39	10028	Trial2BackFr	N	3	0	1000	1	19	12:10:39	1767052	0	0	0	0	0	0	0	0	0	0	0	0	0	0	0	0	0
072612	12:10:39	10028	Trial2BackFr	Y	3	0	1000	0	19	12:10:39	1768571	0	0	0	0	0	0	0	0	0	0	0	0	0	0	0	0	0
072612	12:10:39	10028	Trial2BackFr	N	3	0	1000	1	20	12:10:39	1770091	0	0	0	0	0	0	0	0	0	0	0	0	0	0	0	0	0
072612	12:10:39	10028	Trial2BackFr	N	3	0	1000	1	21	12:10:39	1771610	0	0	0	0	0	0	0	0	0	0	0	0	0	0	0	0	0
072612	12:10:39	10028	Trial2BackFr	N	3	0	1000	1	22	12:10:39	1773130	0	0	0	0	0	0	0	0	0	0	0	0	0	0	0	0	0
072612	12:10:39	10028	Trial2BackFr	N	3	0	1000	1	23	12:10:39	1774649	0	0	0	0	0	0	0	0	0	0	0	0	0	0	0	0	0
072612	12:10:39	10028	Trial2BackFr	N	3	0	1000	1	24	12:10:39	1776168	0	0	0	0	0	0	0	0	0	0	0	0	0	0	0	0	0
072612	12:10:39	10028	Trial2BackFr	N	3	0	1000	1	25	12:10:39	1777688	0	0	0	0	0	0	0	0	0	0	0	0	0	0	0	0	0
072612	12:10:39	10028	Trial2BackFr	Y	3	57	570	1	26	12:10:39	1778780	0	0	0	0	0	0	0	0	0	0	0	0	0	0	0	0	0
072612	12:10:39	10028	Trial2BackFr	N	3	57	760	0	26	12:10:39	1780487	0	0	0	0	0	0	0	0	0	0	0	0	0	0	0	0	0
072612	12:10:39	10028	Trial2BackFr	N	3	57	579	0	26	12:10:39	1781793	0	0	0	0	0	0	0	0	0	0	0	0	0	0	0	0	0
072612	12:10:39	10028	Trial2BackFr	N	3	57	594	0	26	12:10:39	1783312	0	0	0	0	0	0	0	0	0	0	0	0	0	0	0	0	0
072612	12:10:39	10028	Trial2BackFr	Y	3	57	605	1	27	12:10:39	1784818	0	0	0	0	0	0	0	0	0	0	0	0	0	0	0	0	0
072612	12:10:39	10028	Trial2BackFr	N	3	0	1000	1	28	12:10:39	1786711	0	0	0	0	0	0	0	0	0	0	0	0	0	0	0	0	0
072612	12:10:39	10028	Trial2BackFr	N	3	0	1000	1	29	12:10:39	1788230	0	0	0	0	0	0	0	0	0	0	0	0	0	0	0	0	0
072612	12:10:39	10028	Trial2BackFr	N	3	57	636	0	29	12:10:39	1789390	0	0	0	0	0	0	0	0	0	0	0	0	0	0	0	0	0
072612	12:10:39	10028	Trial2BackFr	N	3	0	1000	1	30	12:10:39	1791256	0	0	0	0	0	0	0	0	0	0	0	0	0	0	0	0	0
072612	12:10:39	10028	Trial2BackFr	N	3	57	586	0	30	12:10:39	1792375	0	0	0	0	0	0	0	0	0	0	0	0	0	0	0	0	0
072612	12:10:39	10028	Trial2BackFr	N	3	57	728	0	30	12:10:39	1794014	0	0	0	0	0	0	0	0	0	0	0	0	0	0	0	0	0
072612	12:10:39	10028	Trial2BackFr	Y	3	57	723	1	31	12:10:39	1795507	0	0	0	0	0	0	0	0	0	0	0	0	0	0	0	0	0
072612	12:10:39	10028	Trial2BackFr	N	3	0	1000	1	32	12:10:39	1797280	0	0	0	0	0	0	0	0	0	0	0	0	0	0	0	0	0
072612	12:10:39	10028	Trial2BackFr	N	3	0	1000	1	33	12:10:39	1798799	0	0	0	0	0	0	0	0	0	0	0	0	0	0	0	0	0
072612	12:10:39	10028	Trial2BackFr	N	3	0	1000	1	34	12:10:39	1800319	0	0	0	0	0	0	0	0	0	0	0	0	0	0	0	0	0
072612	12:10:39	10028	Trial2BackFr	N	3	0	1000	1	35	12:10:39	1801838	0	0	0	0	0	0	0	0	0	0	0	0	0	0	0	0	0
072612	12:10:39	10028	Trial2BackFr	Y	3	57	676	1	36	12:10:39	1803038	0	0	0	0	0	0	0	0	0	0	0	0	0	0	0	0	0
072612	12:10:39	10028	Trial2BackFr	N	3	0	1000	1	37	12:10:39	1804864	0	0	0	0	0	0	0	0	0	0	0	0	0	0	0	0	0
072612	12:10:39	10028	Trial2BackFr	N	3	0	1000	1	38	12:10:39	1806383	0	0	0	0	0	0	0	0	0	0	0	0	0	0	0	0	0
072612	12:10:39	10028	Trial2BackFr	N	3	57	707	0	38	12:10:39	1807623	0	0	0	0	0	0	0	0	0	0	0	0	0	0	0	0	0
072612	12:10:39	10028	Trial2BackFr	N	3	0	1000	1	39	12:10:39	1809409	0	0	0	0	0	0	0	0	0	0	0	0	0	0	0	0	0
072612	12:10:39	10028	Trial2BackFr	N	3	0	1000	1	40	12:10:39	1810928	0	0	0	0	0	0	0	0	0	0	0	0	0	0	0	0	0
072612	12:10:39	10028	Trial2BackFr	Y	3	0	1000	0	40	12:10:39	1812447	0	0	0	0	0	0	0	0	0	0	0	0	0	0	0	0	0
072612	12:10:39	10028	Trial2BackFr	N	3	0	1000	1	41	12:10:39	1813967	0	0	0	0	0	0	0	0	0	0	0	0	0	0	0	0	0
072612	12:10:39	10028	Trial2BackFr	N	3	0	1000	1	42	12:10:39	1815486	0	0	0	0	0	0	0	0	0	0	0	0	0	0	0	0	0
072612	12:10:39	10028	Trial2BackFr	N	3	0	1000	1	43	12:10:39	1817006	0	0	0	0	0	0	0	0	0	0	0	0	0	0	0	0	0
072612	12:10:39	10028	Trial2BackFr	N	3	0	1000	1	44	12:10:39	1818525	0	0	0	0	0	0	0	0	0	0	0	0	0	0	0	0	0
072612	12:10:39	10028	Trial2BackFr	N	3	0	1000	1	45	12:10:39	1820044	0	0	0	0	0	0	0	0	0	0	0	0	0	0	0	0	0
072612	12:10:39	10028	Trial2BackFr	N	3	0	1000	1	46	12:10:39	1821564	0	0	0	0	0	0	0	0	0	0	0	0	0	0	0	0	0
072612	12:10:39	10028	Trial2BackFr	Y	3	57	454	1	47	12:10:39	1822550	0	0	0	0	0	0	0	0	0	0	0	0	0	0	0	0	0
072612	12:10:39	10028	Trial2BackFr	N	3	0	1000	1	48	12:10:39	1824589	0	0	0	0	0	0	0	0	0	0	0	0	0	0	0	0	0
072612	12:10:39	10028	Trial2BackFr	N	3	0	1000	1	49	12:10:39	1826109	0	0	0	0	0	0	0	0	0	0	0	0	0	0	0	0	0
072612	12:10:39	10028	Trial2BackFr	Y	3	57	565	1	50	12:10:39	1827202	0	0	0	0	0	0	0	0	0	0	0	0	0	0	0	0	0
072612	12:10:39	10028	Trial2BackFr	N	3	0	1000	1	51	12:10:39	1829134	0	0	0	0	0	0	0	0	0	0	0	0	0	0	0	0	0
072612	12:10:39	10028	Trial2BackFr	N	3	0	1000	1	52	12:10:39	1830654	0	0	0	0	0	0	0	0	0	0	0	0	0	0	0	0	0
072612	12:10:39	10028	Trial2BackFr	N	3	0	1000	1	53	12:10:39	1832173	0	0	0	0	0	0	0	0	0	0	0	0	0	0	0	0	0
072612	12:10:39	10028	Trial2BackFr	N	3	0	1000	1	54	12:10:39	1833692	0	0	0	0	0	0	0	0	0	0	0	0	0	0	0	0	0
072612	12:10:39	10028	Trial2BackFr	N	3	0	1000	1	55	12:10:39	1835212	0	0	0	0	0	0	0	0	0	0	0	0	0	0	0	0	0
072612	12:10:39	10028	Trial2BackFr	N	3	0	1000	1	56	12:10:39	1836731	0	0	0	0	0	0	0	0	0	0	0	0	0	0	0	0	0
072612	12:10:39	10028	Trial2BackFr	N	3	0	1000	1	57	12:10:39	1838251	0	0	0	0	0	0	0	0	0	0	0	0	0	0	0	0	0
072612	12:10:39	10028	Trial2BackFr	N	3	0	1000	1	58	12:10:39	1839770	0	0	0	0	0	0	0	0	0	0	0	0	0	0	0	0	0
072612	12:10:39	10028	Trial2BackFr	N	3	0	1000	1	59	12:10:39	1841289	0	0	0	0	0	0	0	0	0	0	0	0	0	0	0	0	0
072612	12:10:39	10028	Trial2BackFr	N	3	0	1000	1	60	12:10:39	1842809	0	0	0	0	0	0	0	0	0	0	0	0	0	0	0	0	0
072612	12:10:39	10028	Trial2BackFr	Y	3	57	457	1	61	12:10:39	1843795	0	0	0	0	0	0	0	0	0	0	0	0	0	0	0	0	0
072612	12:10:39	10028	Trial2BackFr	N	3	0	1000	1	62	12:10:39	1845834	0	0	0	0	0	0	0	0	0	0	0	0	0	0	0	0	0
072612	12:10:39	10028	Trial2BackFr	N	3	0	1000	1	63	12:10:39	1847354	0	0	0	0	0	0	0	0	0	0	0	0	0	0	0	0	0
072612	12:10:39	10028	Trial2BackFr	N	3	0	1000	1	64	12:10:39	1848873	0	0	0	0	0	0	0	0	0	0	0	0	0	0	0	0	0
072612	12:10:39	10028	Trial2BackFr	Y	3	57	552	1	65	12:10:39	1849952	0	0	0	0	0	0	0	0	0	0	0	0	0	0	0	0	0
072612	12:10:39	10028	Trial2BackFr	N	3	0	1000	1	66	12:10:39	1851899	0	0	0	0	0	0	0	0	0	0	0	0	0	0	0	0	0
072612	12:10:39	10028	Trial2BackFr	N	3	0	1000	1	67	12:10:39	1853418	0	0	0	0	0	0	0	0	0	0	0	0	0	0	0	0	0
072612	12:10:39	10028	Trial2BackFr	N	3	0	1000	1	68	12:10:39	1854937	0	0	0	0	0	0	0	0	0	0	0	0	0	0	0	0	0
072612	12:10:39	10028	Trial2BackFr	N	3	0	1000	1	69	12:10:39	1856457	0	0	0	0	0	0	0	0	0	0	0	0	0	0	0	0	0
072612	12:10:39	10028	Trial2BackFr	N	3	0	1000	1	70	12:10:39	1858003	0	0	0	0	0	0	0	0	0	0	0	0	0	0	0	0	0
072612	12:10:39	10028	Trial2BackFr	Y	3	57	446	1	71	12:10:39	1858976	0	0	0	0	0	0	0	0	0	0	0	0	0	0	0	0	0
072612	12:10:39	10028	Trial2BackFr	N	3	0	1000	1	72	12:10:39	1861028	0	0	0	0	0	0	0	0	0	0	0	0	0	0	0	0	0
072612	12:10:39	10028	Trial2BackFr	N	3	0	1000	1	73	12:10:39	1862548	0	0	0	0	0	0	0	0	0	0	0	0	0	0	0	0	0
072612	12:10:39	10028	Trial2BackFr	N	3	0	1000	1	74	12:10:39	1864067	0	0	0	0	0	0	0	0	0	0	0	0	0	0	0	0	0
072612	12:10:39	10028	Trial2BackFr	N	3	0	1000	1	75	12:10:39	1865586	0	0	0	0	0	0	0	0	0	0	0	0	0	0	0	0	0
072612	12:10:39	10028	Trial2BackFr	N	3	0	1000	1	76	12:10:39	1867106	0	0	0	0	0	0	0	0	0	0	0	0	0	0	0	0	0
072612	12:10:39	10028	Trial2BackFr	N	3	0	1000	1	77	12:10:39	1868625	0	0	0	0	0	0	0	0	0	0	0	0	0	0	0	0	0
072612	12:10:39	10028	Trial2BackFr	N	3	0	1000	1	78	12:10:39	1870145	0	0	0	0	0	0	0	0	0	0	0	0	0	0	0	0	0
072612	12:10:39	10028	Trial2BackFr	N	3	0	1000	1	79	12:10:39	1871664	0	0	0	0	0	0	0	0	0	0	0	0	0	0	0	0	0
072612	12:10:39	10028	Trial2BackFr	N	3	0	1000	1	80	12:10:39	1873183	0	0	0	0	0	0	0	0	0	0	0	0	0	0	0	0	0
072612	12:10:39	10028	Trial2BackFr	Y	3	57	881	1	81	12:10:39	1874596	0	0	0	0	0	0	0	0	0	0	0	0	0	0	0	0	0
072612	12:10:39	10028	Trial2BackFr	N	3	0	1000	1	82	12:10:39	1876209	0	0	0	0	0	0	0	0	0	0	0	0	0	0	0	0	0
072612	12:10:39	10028	Trial2BackFr	N	3	0	1000	1	83	12:10:39	1877728	0	0	0	0	0	0	0	0	0	0	0	0	0	0	0	0	0
072612	12:10:39	10028	Trial2BackFr	N	3	0	1000	1	84	12:10:39	1879248	0	0	0	0	0	0	0	0	0	0	0	0	0	0	0	0	0
072612	12:10:39	10028	Trial2BackFr	N	3	0	1000	1	85	12:10:39	1880767	0	0	0	0	0	0	0	0	0	0	0	0	0	0	0	0	0
072612	12:10:39	10028	Trial2BackFr	N	3	0	1000	1	86	12:10:39	1882287	0	0	0	0	0	0	0	0	0	0	0	0	0	0	0	0	0
072612	12:10:39	10028	Trial2BackFr	N	3	0	1000	1	87	12:10:39	1883806	0	0	0	0	0	0	0	0	0	0	0	0	0	0	0	0	0
072612	12:10:39	10028	Trial2BackFr	N	3	0	1000	1	88	12:10:39	1885326	0	0	0	0	0	0	0	0	0	0	0	0	0	0	0	0	0
072612	12:10:39	10028	Trial2BackFr	N	3	0	1000	1	89	12:10:39	1886845	0	0	0	0	0	0	0	0	0	0	0	0	0	0	0	0	0
072612	12:10:39	10028	Trial2BackFr	Y	3	57	708	1	90	12:10:39	1888084	0	0	0	0	0	0	0	0	0	0	0	0	0	0	0	0	0
072612	12:10:39	10028	Trial2BackFr	N	3	0	1000	1	91	12:10:39	1889870	0	0	0	0	0	0	0	0	0	0	0	0	0	0	0	0	0
072612	12:10:39	10028	Trial2BackFr	N	3	0	1000	1	92	12:10:39	1891390	0	0	0	0	0	0	0	0	0	0	0	0	0	0	0	0	0
072612	12:10:39	10028	Trial2BackFr	N	3	0	1000	1	93	12:10:39	1892909	0	0	0	0	0	0	0	0	0	0	0	0	0	0	0	0	0
072612	12:10:39	10028	Trial2BackFr	N	3	0	1000	1	94	12:10:39	1894428	0	0	0	0	0	0	0	0	0	0	0	0	0	0	0	0	0
072612	12:10:39	10028	Trial2BackFr	Y	3	57	580	1	95	12:10:39	1895534	0	0	0	0	0	0	0	0	0	0	0	0	0	0	0	0	0
072612	12:10:39	10028	Trial2BackFr	N	3	0	1000	1	96	12:10:39	1897454	0	0	0	0	0	0	0	0	0	0	0	0	0	0	0	0	0
072612	12:10:39	10028	Trial2BackFr	N	3	0	1000	1	97	12:10:39	1898974	0	0	0	0	0	0	0	0	0	0	0	0	0	0	0	0	0
072612	12:10:39	10028	Trial2BackFr	N	3	0	1000	1	98	12:10:39	1900493	0	0	0	0	0	0	0	0	0	0	0	0	0	0	0	0	0
072612	12:10:39	10028	Trial2BackFr	Y	3	57	420	1	99	12:10:39	1901439	0	0	0	0	0	0	0	0	0	0	0	0	0	0	0	0	0
072612	12:10:39	10028	Trial2BackFr	N	3	0	1000	1	100	12:10:39	1903518	0	0	0	0	0	0	0	0	0	0	0	0	0	0	0	0	0
072612	12:10:39	10028	Trial2BackFr	N	3	0	1000	1	101	12:10:39	1905037	0	0	0	0	0	0	0	0	0	0	0	0	0	0	0	0	0
072612	12:10:39	10028	Trial2BackFr	N	3	0	1000	1	102	12:10:39	1906557	0	0	0	0	0	0	0	0	0	0	0	0	0	0	0	0	0
072612	12:10:39	10028	Trial2BackFr	N	3	0	1000	1	103	12:10:39	1908076	0	0	0	0	0	0	0	0	0	0	0	0	0	0	0	0	0
072612	12:10:39	10028	Trial2BackFr	N	3	0	1000	1	104	12:10:39	1909596	0	0	0	0	0	0	0	0	0	0	0	0	0	0	0	0	0
072612	12:10:39	10028	Trial2BackFr	Y	3	57	708	1	105	12:10:39	1910835	0	0	0	0	0	0	0	0	0	0	0	0	0	0	0	0	0
072612	12:10:39	10028	Trial2BackFr	N	3	0	1000	1	106	12:10:39	1912621	0	0	0	0	0	0	0	0	0	0	0	0	0	0	0	0	0
072612	12:10:39	10028	Trial2BackFr	N	3	0	1000	1	107	12:10:39	1914141	0	0	0	0	0	0	0	0	0	0	0	0	0	0	0	0	0
072612	12:10:39	10028	Trial2BackFr	N	3	0	1000	1	108	12:10:39	1915660	0	0	0	0	0	0	0	0	0	0	0	0	0	0	0	0	0
072612	12:10:39	10028	Trial2BackFr	Y	3	57	564	1	109	12:10:39	1916753	0	0	0	0	0	0	0	0	0	0	0	0	0	0	0	0	0
072612	12:10:39	10028	Trial3BackFr	NN	4	0	1000	1	109	12:10:39	1962135	0	0	0	0	0	0	0	0	0	0	0	0	0	0	0	0	0
072612	12:10:39	10028	Trial3BackFr	NN	4	0	1000	1	109	12:10:39	1963654	0	0	0	0	0	0	0	0	0	0	0	0	0	0	0	0	0
072612	12:10:39	10028	Trial3BackFr	NN	4	0	1000	1	109	12:10:39	1965174	0	0	0	0	0	0	0	0	0	0	0	0	0	0	0	0	0
072612	12:10:39	10028	Trial3BackFr	YY	4	57	554	1	109	12:10:39	1966253	0	0	0	0	0	0	0	0	0	0	0	0	0	0	0	0	0
072612	12:10:39	10028	Trial3BackFr	NN	4	0	1000	1	109	12:10:39	1968199	0	0	0	0	0	0	0	0	0	0	0	0	0	0	0	0	0
072612	12:10:39	10028	Trial3BackFr	NN	4	0	1000	1	109	12:10:39	1969719	0	0	0	0	0	0	0	0	0	0	0	0	0	0	0	0	0
072612	12:10:39	10028	Trial3BackFr	NN	4	0	1000	1	109	12:10:39	1971238	0	0	0	0	0	0	0	0	0	0	0	0	0	0	0	0	0
072612	12:10:39	10028	Trial3BackFr	NN	4	0	1000	1	109	12:10:39	1972757	0	0	0	0	0	0	0	0	0	0	0	0	0	0	0	0	0
072612	12:10:39	10028	Trial3BackFr	YY	4	0	1000	0	109	12:10:39	1974277	0	0	0	0	0	0	0	0	0	0	0	0	0	0	0	0	0
072612	12:10:39	10028	Trial3BackFr	NN	4	0	1000	1	109	12:10:39	1975796	0	0	0	0	0	0	0	0	0	0	0	0	0	0	0	0	0
072612	12:10:39	10028	Trial3BackFr	NN	4	0	1000	1	109	12:10:39	1977316	0	0	0	0	0	0	0	0	0	0	0	0	0	0	0	0	0
072612	12:10:39	10028	Trial3BackFr	NN	4	0	1000	1	109	12:10:39	1978835	0	0	0	0	0	0	0	0	0	0	0	0	0	0	0	0	0
072612	12:10:39	10028	Trial3BackFr	NN	4	0	1000	1	109	12:10:39	1980355	0	0	0	0	0	0	0	0	0	0	0	0	0	0	0	0	0
072612	12:10:39	10028	Trial3BackFr	NN	4	0	1000	1	109	12:10:39	1981874	0	0	0	0	0	0	0	0	0	0	0	0	0	0	0	0	0
072612	12:10:39	10028	Trial3BackFr	NN	4	0	1000	1	109	12:10:39	1983393	0	0	0	0	0	0	0	0	0	0	0	0	0	0	0	0	0
072612	12:10:39	10028	Trial3BackFr	NN	4	57	798	0	109	12:10:39	1984726	0	0	0	0	0	0	0	0	0	0	0	0	0	0	0	0	0
072612	12:10:39	10028	Trial3BackFr	YY	4	0	1000	0	109	12:10:39	1986419	0	0	0	0	0	0	0	0	0	0	0	0	0	0	0	0	0
072612	12:10:39	10028	Trial3BackFr	NN	4	0	1000	1	109	12:10:39	1987938	0	0	0	0	0	0	0	0	0	0	0	0	0	0	0	0	0
072612	12:10:39	10028	Trial3BackFr	NN	4	0	1000	1	109	12:10:39	1989458	0	0	0	0	0	0	0	0	0	0	0	0	0	0	0	0	0
072612	12:10:39	10028	Trial3BackFr	NN	4	0	1000	1	109	12:10:39	1990977	0	0	0	0	0	0	0	0	0	0	0	0	0	0	0	0	0
072612	12:10:39	10028	Trial3BackFr	NN	4	0	1000	1	109	12:10:39	1992496	0	0	0	0	0	0	0	0	0	0	0	0	0	0	0	0	0
072612	12:10:39	10028	Trial3BackFr	NN	4	0	1000	1	109	12:10:39	1994016	0	0	0	0	0	0	0	0	0	0	0	0	0	0	0	0	0
072612	12:10:39	10028	Trial3BackFr	YY	4	57	639	1	109	12:10:39	1995189	0	0	0	0	0	0	0	0	0	0	0	0	0	0	0	0	0
072612	12:10:39	10028	Trial3BackFr	NN	4	0	1000	1	109	12:10:39	1997041	0	0	0	0	0	0	0	0	0	0	0	0	0	0	0	0	0
072612	12:10:39	10028	Trial3BackFr	NN	4	0	1000	1	109	12:10:39	1998561	0	0	0	0	0	0	0	0	0	0	0	0	0	0	0	0	0
072612	12:10:39	10028	Trial3BackFr	NN	4	0	1000	1	109	12:10:39	2000080	0	0	0	0	0	0	0	0	0	0	0	0	0	0	0	0	0
072612	12:10:39	10028	Trial3BackFr	YY	4	0	1000	0	109	12:10:39	2001600	0	0	0	0	0	0	0	0	0	0	0	0	0	0	0	0	0
072612	12:10:39	10028	Trial3BackFr	NN	4	0	1000	1	109	12:10:39	2003119	0	0	0	0	0	0	0	0	0	0	0	0	0	0	0	0	0
072612	12:10:39	10028	Trial3BackFr	NN	4	0	1000	1	109	12:10:39	2004638	0	0	0	0	0	0	0	0	0	0	0	0	0	0	0	0	0
072612	12:10:39	10028	Trial3BackFr	NN	4	0	1000	1	109	12:10:39	2006158	0	0	0	0	0	0	0	0	0	0	0	0	0	0	0	0	0
072612	12:10:39	10028	Trial3BackFr	YY	4	57	625	1	109	12:10:39	2007317	0	0	0	0	0	0	0	0	0	0	0	0	0	0	0	0	0
072612	12:10:39	10028	Trial3BackFr	NN	4	0	1000	1	109	12:10:39	2009183	0	0	0	0	0	0	0	0	0	0	0	0	0	0	0	0	0
072612	12:10:39	10028	Trial3BackFr	NN	4	0	1000	1	109	12:10:39	2010702	0	0	0	0	0	0	0	0	0	0	0	0	0	0	0	0	0
072612	12:10:39	10028	Trial3BackFr	NN	4	0	1000	1	109	12:10:39	2012222	0	0	0	0	0	0	0	0	0	0	0	0	0	0	0	0	0
072612	12:10:39	10028	Trial3BackFr	NN	4	0	1000	1	109	12:10:39	2013741	0	0	0	0	0	0	0	0	0	0	0	0	0	0	0	0	0
072612	12:10:39	10028	Trial3BackFr	NN	4	0	1000	1	109	12:10:39	2015261	0	0	0	0	0	0	0	0	0	0	0	0	0	0	0	0	0
072612	12:10:39	10028	Trial3BackFr	NN	4	0	1000	1	109	12:10:39	2016780	0	0	0	0	0	0	0	0	0	0	0	0	0	0	0	0	0
072612	12:10:39	10028	Trial3BackFr	NN	4	0	1000	1	109	12:10:39	2018300	0	0	0	0	0	0	0	0	0	0	0	0	0	0	0	0	0
072612	12:10:39	10028	Trial3BackFr	NN	4	57	867	0	109	12:10:39	2019699	0	0	0	0	0	0	0	0	0	0	0	0	0	0	0	0	0
072612	12:10:39	10028	Trial3BackFr	NN	4	0	1000	1	109	12:10:39	2021325	0	0	0	0	0	0	0	0	0	0	0	0	0	0	0	0	0
072612	12:10:39	10028	Trial3BackFr	NN	4	0	1000	1	109	12:10:39	2022844	0	0	0	0	0	0	0	0	0	0	0	0	0	0	0	0	0
072612	12:10:39	10028	Trial3BackFr	YY	4	57	738	1	109	12:10:39	2024110	0	0	0	0	0	0	0	0	0	0	0	0	0	0	0	0	0
072612	12:10:39	10028	Trial3BackFr	NN	4	0	1000	1	109	12:10:39	2025870	0	0	0	0	0	0	0	0	0	0	0	0	0	0	0	0	0
072612	12:10:39	10028	Trial3BackFr	NN	4	0	1000	1	109	12:10:39	2027389	0	0	0	0	0	0	0	0	0	0	0	0	0	0	0	0	0
072612	12:10:39	10028	Trial3BackFr	NN	4	0	1000	1	109	12:10:39	2028909	0	0	0	0	0	0	0	0	0	0	0	0	0	0	0	0	0
072612	12:10:39	10028	Trial3BackFr	NN	4	0	1000	1	109	12:10:39	2030428	0	0	0	0	0	0	0	0	0	0	0	0	0	0	0	0	0
072612	12:10:39	10028	Trial3BackFr	YY	4	57	611	1	109	12:10:39	2031561	0	0	0	0	0	0	0	0	0	0	0	0	0	0	0	0	0
072612	12:10:39	10028	Trial3BackFr	NN	4	0	1000	1	109	12:10:39	2033454	0	0	0	0	0	0	0	0	0	0	0	0	0	0	0	0	0
072612	12:10:39	10028	Trial3BackFr	NN	4	0	1000	1	109	12:10:39	2034973	0	0	0	0	0	0	0	0	0	0	0	0	0	0	0	0	0
072612	12:10:39	10028	Trial3BackFr	NN	4	0	1000	1	109	12:10:39	2036492	0	0	0	0	0	0	0	0	0	0	0	0	0	0	0	0	0
072612	12:10:39	10028	Trial3BackFr	NN	4	0	1000	1	109	12:10:39	2038012	0	0	0	0	0	0	0	0	0	0	0	0	0	0	0	0	0
072612	12:10:39	10028	Trial3BackFr	NN	4	0	1000	1	109	12:10:39	2039531	0	0	0	0	0	0	0	0	0	0	0	0	0	0	0	0	0
072612	12:10:39	10028	Trial3BackFr	YY	4	57	531	1	109	12:10:39	2040597	0	0	0	0	0	0	0	0	0	0	0	0	0	0	0	0	0
072612	12:10:39	10028	Trial3BackFr	NN	4	0	1000	1	109	12:10:39	2042557	0	0	0	0	0	0	0	0	0	0	0	0	0	0	0	0	0
072612	12:10:39	10028	Trial3BackFr	NN	4	0	1000	1	109	12:10:39	2044076	0	0	0	0	0	0	0	0	0	0	0	0	0	0	0	0	0
072612	12:10:39	10028	Trial3BackFr	NN	4	0	1000	1	109	12:10:39	2045595	0	0	0	0	0	0	0	0	0	0	0	0	0	0	0	0	0
072612	12:10:39	10028	Trial3BackFr	NN	4	0	1000	1	109	12:10:39	2047115	0	0	0	0	0	0	0	0	0	0	0	0	0	0	0	0	0
072612	12:10:39	10028	Trial3BackFr	NN	4	0	1000	1	109	12:10:39	2048634	0	0	0	0	0	0	0	0	0	0	0	0	0	0	0	0	0
072612	12:10:39	10028	Trial3BackFr	NN	4	0	1000	1	109	12:10:39	2050154	0	0	0	0	0	0	0	0	0	0	0	0	0	0	0	0	0
072612	12:10:39	10028	Trial3BackFr	YY	4	0	1000	0	109	12:10:39	2051673	0	0	0	0	0	0	0	0	0	0	0	0	0	0	0	0	0
072612	12:10:39	10028	Trial3BackFr	NN	4	0	1000	1	109	12:10:39	2053192	0	0	0	0	0	0	0	0	0	0	0	0	0	0	0	0	0
072612	12:10:39	10028	Trial3BackFr	NN	4	0	1000	1	109	12:10:39	2054712	0	0	0	0	0	0	0	0	0	0	0	0	0	0	0	0	0
072612	12:10:39	10028	Trial3BackFr	NN	4	0	1000	1	109	12:10:39	2056231	0	0	0	0	0	0	0	0	0	0	0	0	0	0	0	0	0
072612	12:10:39	10028	Trial3BackFr	YY	4	57	743	1	109	12:10:39	2057497	0	0	0	0	0	0	0	0	0	0	0	0	0	0	0	0	0
072612	12:10:39	10028	Trial3BackFr	NN	4	0	1000	1	109	12:10:39	2059257	0	0	0	0	0	0	0	0	0	0	0	0	0	0	0	0	0
072612	12:10:39	10028	Trial3BackFr	NN	4	0	1000	1	109	12:10:39	2060776	0	0	0	0	0	0	0	0	0	0	0	0	0	0	0	0	0
072612	12:10:39	10028	Trial3BackFr	NN	4	0	1000	1	109	12:10:39	2062296	0	0	0	0	0	0	0	0	0	0	0	0	0	0	0	0	0
072612	12:10:39	10028	Trial3BackFr	NN	4	0	1000	1	109	12:10:39	2063815	0	0	0	0	0	0	0	0	0	0	0	0	0	0	0	0	0
072612	12:10:39	10028	Trial3BackFr	NN	4	0	1000	1	109	12:10:39	2065334	0	0	0	0	0	0	0	0	0	0	0	0	0	0	0	0	0
072612	12:10:39	10028	Trial3BackFr	NN	4	0	1000	1	109	12:10:39	2066854	0	0	0	0	0	0	0	0	0	0	0	0	0	0	0	0	0
072612	12:10:39	10028	Trial3BackFr	NN	4	0	1000	1	109	12:10:39	2068373	0	0	0	0	0	0	0	0	0	0	0	0	0	0	0	0	0
072612	12:10:39	10028	Trial3BackFr	NN	4	0	1000	1	109	12:10:39	2069892	0	0	0	0	0	0	0	0	0	0	0	0	0	0	0	0	0
072612	12:10:39	10028	Trial3BackFr	NN	4	0	1000	1	109	12:10:39	2071412	0	0	0	0	0	0	0	0	0	0	0	0	0	0	0	0	0
072612	12:10:39	10028	Trial3BackFr	YY	4	57	762	1	109	12:10:39	2072705	0	0	0	0	0	0	0	0	0	0	0	0	0	0	0	0	0
072612	12:10:39	10028	Trial3BackFr	NN	4	0	1000	1	109	12:10:39	2074437	0	0	0	0	0	0	0	0	0	0	0	0	0	0	0	0	0
072612	12:10:39	10028	Trial3BackFr	NN	4	0	1000	1	109	12:10:39	2075957	0	0	0	0	0	0	0	0	0	0	0	0	0	0	0	0	0
072612	12:10:39	10028	Trial3BackFr	NN	4	0	1000	1	109	12:10:39	2077476	0	0	0	0	0	0	0	0	0	0	0	0	0	0	0	0	0
072612	12:10:39	10028	Trial3BackFr	YY	4	57	874	1	109	12:10:39	2078876	0	0	0	0	0	0	0	0	0	0	0	0	0	0	0	0	0
072612	12:10:39	10028	Trial3BackFr	NN	4	0	1000	1	109	12:10:39	2080502	0	0	0	0	0	0	0	0	0	0	0	0	0	0	0	0	0
072612	12:10:39	10028	Trial3BackFr	NN	4	0	1000	1	109	12:10:39	2082021	0	0	0	0	0	0	0	0	0	0	0	0	0	0	0	0	0
072612	12:10:39	10028	Trial3BackFr	NN	4	0	1000	1	109	12:10:39	2083541	0	0	0	0	0	0	0	0	0	0	0	0	0	0	0	0	0
072612	12:10:39	10028	Trial3BackFr	NN	4	0	1000	1	109	12:10:39	2085060	0	0	0	0	0	0	0	0	0	0	0	0	0	0	0	0	0
072612	12:10:39	10028	Trial3BackFr	NN	4	0	1000	1	109	12:10:39	2086579	0	0	0	0	0	0	0	0	0	0	0	0	0	0	0	0	0
072612	12:10:39	10028	Trial3BackFr	YY	4	0	1000	0	109	12:10:39	2088099	0	0	0	0	0	0	0	0	0	0	0	0	0	0	0	0	0
072612	12:10:39	10028	Trial3BackFr	NN	4	57	667	0	109	12:10:39	2089298	0	0	0	0	0	0	0	0	0	0	0	0	0	0	0	0	0
072612	12:10:39	10028	Trial3BackFr	NN	4	0	1000	1	109	12:10:39	2091124	0	0	0	0	0	0	0	0	0	0	0	0	0	0	0	0	0
072612	12:10:39	10028	Trial3BackFr	NN	4	0	1000	1	109	12:10:39	2092644	0	0	0	0	0	0	0	0	0	0	0	0	0	0	0	0	0
072612	12:10:39	10028	Trial3BackFr	NN	4	0	1000	1	109	12:10:39	2094163	0	0	0	0	0	0	0	0	0	0	0	0	0	0	0	0	0
072612	12:10:39	10028	Trial3BackFr	NN	4	0	1000	1	109	12:10:39	2095682	0	0	0	0	0	0	0	0	0	0	0	0	0	0	0	0	0
072612	12:10:39	10028	Trial3BackFr	NN	4	0	1000	1	109	12:10:39	2097202	0	0	0	0	0	0	0	0	0	0	0	0	0	0	0	0	0
072612	12:10:39	10028	Trial3BackFr	NN	4	57	716	0	109	12:10:39	2098441	0	0	0	0	0	0	0	0	0	0	0	0	0	0	0	0	0
072612	12:10:39	10028	Trial3BackFr	NN	4	0	1000	1	109	12:10:39	2100227	0	0	0	0	0	0	0	0	0	0	0	0	0	0	0	0	0
072612	12:10:39	10028	Trial3BackFr	NN	4	0	1000	1	109	12:10:39	2101747	0	0	0	0	0	0	0	0	0	0	0	0	0	0	0	0	0
072612	12:10:39	10028	Trial3BackFr	YY	4	57	891	1	109	12:10:39	2103173	0	0	0	0	0	0	0	0	0	0	0	0	0	0	0	0	0
072612	12:10:39	10028	Trial3BackFr	NN	4	0	1000	1	109	12:10:39	2104772	0	0	0	0	0	0	0	0	0	0	0	0	0	0	0	0	0
072612	12:10:39	10028	Trial3BackFr	NN	4	0	1000	1	109	12:10:39	2106292	0	0	0	0	0	0	0	0	0	0	0	0	0	0	0	0	0
072612	12:10:39	10028	Trial3BackFr	NN	4	0	1000	1	109	12:10:39	2107811	0	0	0	0	0	0	0	0	0	0	0	0	0	0	0	0	0
072612	12:10:39	10028	Trial3BackFr	NN	4	0	1000	1	109	12:10:39	2109330	0	0	0	0	0	0	0	0	0	0	0	0	0	0	0	0	0
072612	12:10:39	10028	Trial3BackFr	NN	4	0	1000	1	109	12:10:39	2110850	0	0	0	0	0	0	0	0	0	0	0	0	0	0	0	0	0
072612	12:10:39	10028	Trial3BackFr	NN	4	0	1000	1	109	12:10:39	2112369	0	0	0	0	0	0	0	0	0	0	0	0	0	0	0	0	0
072612	12:10:39	10028	Trial3BackFr	NN	4	57	604	0	109	12:10:39	2113502	0	0	0	0	0	0	0	0	0	0	0	0	0	0	0	0	0
072612	12:10:39	10028	Trial3BackFr	NN	4	0	1000	1	109	12:10:39	2115395	0	0	0	0	0	0	0	0	0	0	0	0	0	0	0	0	0
072612	12:10:39	10028	Trial3BackFr	YY	4	0	1000	0	109	12:10:39	2116914	0	0	0	0	0	0	0	0	0	0	0	0	0	0	0	0	0
072612	12:10:39	10028	Trial3BackFr	NN	4	0	1000	1	109	12:10:39	2118433	0	0	0	0	0	0	0	0	0	0	0	0	0	0	0	0	0
072612	12:10:39	10028	Trial3BackFr	NN	4	0	1000	1	109	12:10:39	2119953	0	0	0	0	0	0	0	0	0	0	0	0	0	0	0	0	0
072612	12:10:39	10028	Trial3BackFr	NN	4	57	733	0	109	12:10:39	2121219	0	0	0	0	0	0	0	0	0	0	0	0	0	0	0	0	0
072612	12:10:39	10028	Trial3BackFr	NN	4	0	1000	1	109	12:10:39	2122978	0	0	0	0	0	0	0	0	0	0	0	0	0	0	0	0	0
072612	12:10:39	10028	Trial3BackFr	YY	4	0	1000	0	109	12:10:39	2124498	0	0	0	0	0	0	0	0	0	0	0	0	0	0	0	0	0
072612	12:10:39	10028	Trial3BackFr	NN	4	0	1000	1	109	12:10:39	2126017	0	0	0	0	0	0	0	0	0	0	0	0	0	0	0	0	0
072612	12:10:39	10028	Trial3BackFr	NN	4	0	1000	1	109	12:10:39	2127537	0	0	0	0	0	0	0	0	0	0	0	0	0	0	0	0	0
072612	12:10:39	10028	Trial3BackFr	NN	4	0	1000	1	109	12:10:39	2129056	0	0	0	0	0	0	0	0	0	0	0	0	0	0	0	0	0
072612	12:10:39	10028	Trial3BackFr	YY	4	57	621	1	109	12:10:39	2130202	0	0	0	0	0	0	0	0	0	0	0	0	0	0	0	0	0
072612	12:10:39	10028	Trial3BackFr	NN	4	0	1000	1	109	12:10:39	2132081	0	0	0	0	0	0	0	0	0	0	0	0	0	0	0	0	0
072612	12:10:39	10028	Trial3BackFr	NN	4	57	780	0	109	12:10:39	2133387	0	0	0	0	0	0	0	0	0	0	0	0	0	0	0	0	0
072612	12:10:39	10028	Trial3BackFr	NN	4	0	1000	1	109	12:10:39	2135107	0	0	0	0	0	0	0	0	0	0	0	0	0	0	0	0	0
072612	12:10:39	10028	Trial3BackFr	NN	4	0	1000	1	109	12:10:39	2136626	0	0	0	0	0	0	0	0	0	0	0	0	0	0	0	0	0
072612	12:10:39	10028	Trial3BackFr	NN	4	0	1000	1	109	12:10:39	2138146	0	0	0	0	0	0	0	0	0	0	0	0	0	0	0	0	0
072612	12:10:39	10028	Trial3BackFr	YY	4	0	1000	0	109	12:10:39	2139665	0	0	0	0	0	0	0	0	0	0	0	0	0	0	0	0	0
072612	12:10:39	10028	Trial3BackFr	NN	4	0	1000	1	109	12:10:39	2141184	0	0	0	0	0	0	0	0	0	0	0	0	0	0	0	0	0
072612	12:10:39	10028	Trial3BackFr	NN	4	0	1000	1	109	12:10:39	2142704	0	0	0	0	0	0	0	0	0	0	0	0	0	0	0	0	0
072612	12:10:39	10028	Trial3BackFr	NN	4	0	1000	1	109	12:10:39	2144223	0	0	0	0	0	0	0	0	0	0	0	0	0	0	0	0	0
072612	12:10:39	10028	Trial3BackFr	YY	4	57	622	1	109	12:10:39	2145369	0	0	0	0	0	0	0	0	0	0	0	0	0	0	0	0	0
072612	12:10:39	10028	Memory1RBaselineFr	ScoreFr	5	M1	17687	0	109	12:10:39	2224992	0	0	0	0	0	0	0	0	0	0	0	0	0	0	0	0	0
072612	12:10:39	10028	Memory1RBaselineFr	ScoreFr	5	M2	218	0	109	12:10:39	2225245	0	0	0	0	0	0	0	0	0	0	0	0	0	0	0	0	0
072612	12:10:39	10028	Memory1RBaselineFr	ScoreFr	5	M3	980	0	109	12:10:39	2226271	0	0	0	0	0	0	0	0	0	0	0	0	0	0	0	0	0
072612	12:10:39	10028	Memory1RBaselineFr	ScoreFr	5	M5	722	0	109	12:10:39	2227031	0	0	0	0	0	0	0	0	0	0	0	0	0	0	0	0	0
072612	12:10:39	10028	Memory1RBaselineFr	ScoreFr	5	M6	362	0	109	12:10:39	2227431	0	0	0	0	0	0	0	0	0	0	0	0	0	0	0	0	0
072612	12:10:39	10028	Memory1RBaselineFr	ScoreFr	5	M6	2242	0	109	12:10:39	2229710	0	0	0	0	0	0	0	0	0	0	0	0	0	0	0	0	0
072612	12:10:39	10028	Memory1RBaselineFr	ScoreFr	5	M7	2027	0	109	12:10:39	2231776	0	0	0	0	0	0	0	0	0	0	0	0	0	0	0	0	0
072612	12:10:39	10028	Memory1RBaselineFr	ScoreFr	5	M8	1945	0	109	12:10:39	2233761	0	0	0	0	0	0	0	0	0	0	0	0	0	0	0	0	0
072612	12:10:39	10028	Memory1RBaselineFr	ScoreFr	5	Done	13111	0	109	12:10:39	2246916	0	0	0	0	0	0	0	0	0	0	0	0	0	0	0	0	0
072612	12:10:39	10028	Memory2RBaselineFr	ScoreFr2	5	11	30515	0	109	12:10:39	2296070	0	0	0	0	0	0	0	0	0	0	0	0	0	0	0	0	0
072612	12:10:39	10028	Memory2RBaselineFr	ScoreFr2	5	33	538	0	109	12:10:39	2296643	0	0	0	0	0	0	0	0	0	0	0	0	0	0	0	0	0
072612	12:10:39	10028	Memory2RBaselineFr	ScoreFr2	5	44	1477	0	109	12:10:39	2298163	0	0	0	0	0	0	0	0	0	0	0	0	0	0	0	0	0
072612	12:10:39	10028	Memory2RBaselineFr	ScoreFr2	5	55	384	0	109	12:10:39	2298589	0	0	0	0	0	0	0	0	0	0	0	0	0	0	0	0	0
072612	12:10:39	10028	Memory2RBaselineFr	ScoreFr2	5	66	946	0	109	12:10:39	2299576	0	0	0	0	0	0	0	0	0	0	0	0	0	0	0	0	0
072612	12:10:39	10028	Memory2RBaselineFr	ScoreFr2	5	88	681	0	109	12:10:39	2300295	0	0	0	0	0	0	0	0	0	0	0	0	0	0	0	0	0
072612	12:10:39	10028	Memory2RBaselineFr	ScoreFr2	5	22	4313	0	109	12:10:39	2304654	0	0	0	0	0	0	0	0	0	0	0	0	0	0	0	0	0
072612	12:10:39	10028	Memory2RBaselineFr	ScoreFr2	5	Done	24570	0	109	12:10:39	2329257	0	0	0	0	0	0	0	0	0	0	0	0	0	0	0	0	0
072612	12:10:39	10028	Memory3RBaselineFr	ScoreFr3	5	111	41127	0	109	12:10:39	2387914	0	0	0	0	0	0	0	0	0	0	0	0	0	0	0	0	0
072612	12:10:39	10028	Memory3RBaselineFr	ScoreFr3	5	222	1245	0	109	12:10:39	2389193	0	0	0	0	0	0	0	0	0	0	0	0	0	0	0	0	0
072612	12:10:39	10028	Memory3RBaselineFr	ScoreFr3	5	333	549	0	109	12:10:39	2389780	0	0	0	0	0	0	0	0	0	0	0	0	0	0	0	0	0
072612	12:10:39	10028	Memory3RBaselineFr	ScoreFr3	5	444	491	0	109	12:10:39	2390313	0	0	0	0	0	0	0	0	0	0	0	0	0	0	0	0	0
072612	12:10:39	10028	Memory3RBaselineFr	ScoreFr3	5	555	1030	0	109	12:10:39	2391379	0	0	0	0	0	0	0	0	0	0	0	0	0	0	0	0	0
072612	12:10:39	10028	Memory3RBaselineFr	ScoreFr3	5	666	548	0	109	12:10:39	2391966	0	0	0	0	0	0	0	0	0	0	0	0	0	0	0	0	0
072612	12:10:39	10028	Memory3RBaselineFr	ScoreFr3	5	777	553	0	109	12:10:39	2392565	0	0	0	0	0	0	0	0	0	0	0	0	0	0	0	0	0
072612	12:10:39	10028	Memory3RBaselineFr	ScoreFr3	5	888	425	0	109	12:10:39	2393032	0	0	0	0	0	0	0	0	0	0	0	0	0	0	0	0	0
072612	12:10:39	10028	Memory3RBaselineFr	ScoreFr3	5	Done	647	0	109	12:10:39	2393725	0	0	0	0	0	0	0	0	0	0	0	0	0	0	0	0	0
072612	12:10:39	10028	LoriaFrLH3	Stop	6	9	5480	0	109	12:10:39	2540095	0	0	0	0	0	0	0	0	0	0	0	0	0	0	0	0	0
072612	12:10:39	10028	FrTrail	Trails	7	1Trails	1170	0	109	12:10:39	2573574	0	0	0	0	0	0	0	0	0	0	0	0	0	0	0	0	0
072612	12:10:39	10028	Serial7FrBaseline	Serial7FrBaseline	8	83	3559	0	109	12:10:39	2614225	1	0	0	0	0	0	0	0	0	0	0	0	0	0	0	0	0
072612	12:10:39	10028	Serial7FrBaseline	Serial7FrBaseline	8	76	2439	0	109	12:10:39	2616691	2	0	0	0	0	0	0	0	0	0	0	0	0	0	0	0	0
072612	12:10:39	10028	Serial7FrBaseline	Serial7FrBaseline	8	69	2237	0	109	12:10:39	2618944	3	0	0	0	0	0	0	0	0	0	0	0	0	0	0	0	0
072612	12:10:39	10028	Serial7FrBaseline	Serial7FrBaseline	8	62	1674	0	109	12:10:39	2620637	4	0	0	0	0	0	0	0	0	0	0	0	0	0	0	0	0
072612	12:10:39	10028	Serial7FrBaseline	Serial7FrBaseline	8	55	2292	0	109	12:10:39	2622956	5	0	0	0	0	0	0	0	0	0	0	0	0	0	0	0	0
072612	12:10:39	10028	corsiblockFrFwrd	recallseqFrFwrd	9	2	891	0	109	12:10:39	2659861	5	0	0	0	0	0	0	0	0	0	0	0	0	0	0	0	0
072612	12:10:39	10028	corsiblockFrFwrd	recallseqFrFwrd	9	4	695	0	109	12:10:39	2660594	5	0	0	0	0	0	0	0	0	0	0	0	0	0	0	0	0
072612	12:10:39	10028	corsiblockFrFwrd	recallseqFrFwrd	9	doneCorsiFr	2946	0	109	12:10:39	2663580	5	0	0	0	0	0	0	0	0	0	0	0	0	0	0	2	0
072612	12:10:39	10028	corsiblockFrFwrd	recallseqFrFwrd	9	3	845	0	109	12:10:39	2670511	5	0	0	0	0	0	0	0	0	0	0	0	0	0	0	2	0
072612	12:10:39	10028	corsiblockFrFwrd	recallseqFrFwrd	9	1	638	0	109	12:10:39	2671190	5	0	0	0	0	0	0	0	0	0	0	0	0	0	0	2	0
072612	12:10:39	10028	corsiblockFrFwrd	recallseqFrFwrd	9	5	1829	0	109	12:10:39	2673056	5	0	0	0	0	0	0	0	0	0	0	0	0	0	0	2	0
072612	12:10:39	10028	corsiblockFrFwrd	recallseqFrFwrd	9	doneCorsiFr	1236	0	109	12:10:39	2674336	5	0	0	0	0	0	0	0	0	0	0	0	0	0	0	3	0
072612	12:10:39	10028	corsiblockFrFwrd	recallseqFrFwrd	9	9	609	0	109	12:10:39	2682039	5	0	0	0	0	0	0	0	0	0	0	0	0	0	0	3	0
072612	12:10:39	10028	corsiblockFrFwrd	recallseqFrFwrd	9	6	868	0	109	12:10:39	2682946	5	0	0	0	0	0	0	0	0	0	0	0	0	0	0	3	0
072612	12:10:39	10028	corsiblockFrFwrd	recallseqFrFwrd	9	7	962	0	109	12:10:39	2683945	5	0	0	0	0	0	0	0	0	0	0	0	0	0	0	3	0
072612	12:10:39	10028	corsiblockFrFwrd	recallseqFrFwrd	9	8	611	0	109	12:10:39	2684598	5	0	0	0	0	0	0	0	0	0	0	0	0	0	0	3	0
072612	12:10:39	10028	corsiblockFrFwrd	recallseqFrFwrd	9	doneCorsiFr	702	0	109	12:10:39	2685345	5	0	0	0	0	0	0	0	0	0	0	0	0	0	0	4	0
072612	12:10:39	10028	corsiblockFrFwrd	recallseqFrFwrd	9	4	969	0	109	12:10:39	2694408	5	0	0	0	0	0	0	0	0	0	0	0	0	0	0	4	0
072612	12:10:39	10028	corsiblockFrFwrd	recallseqFrFwrd	9	9	796	0	109	12:10:39	2695247	5	0	0	0	0	0	0	0	0	0	0	0	0	0	0	4	0
072612	12:10:39	10028	corsiblockFrFwrd	recallseqFrFwrd	9	1	780	0	109	12:10:39	2696074	5	0	0	0	0	0	0	0	0	0	0	0	0	0	0	4	0
072612	12:10:39	10028	corsiblockFrFwrd	recallseqFrFwrd	9	8	722	0	109	12:10:39	2696834	5	0	0	0	0	0	0	0	0	0	0	0	0	0	0	4	0
072612	12:10:39	10028	corsiblockFrFwrd	recallseqFrFwrd	9	5	626	0	109	12:10:39	2697500	5	0	0	0	0	0	0	0	0	0	0	0	0	0	0	4	0
072612	12:10:39	10028	corsiblockFrFwrd	recallseqFrFwrd	9	doneCorsiFr	864	0	109	12:10:39	2698406	5	0	0	0	0	0	0	0	0	0	0	0	0	0	0	5	0
072612	12:10:39	10028	corsiblockFrFwrd	recallseqFrFwrd	9	6	1388	0	109	12:10:39	2708882	5	0	0	0	0	0	0	0	0	0	0	0	0	0	0	5	0
072612	12:10:39	10028	corsiblockFrFwrd	recallseqFrFwrd	9	2	729	0	109	12:10:39	2709655	5	0	0	0	0	0	0	0	0	0	0	0	0	0	0	5	0
072612	12:10:39	10028	corsiblockFrFwrd	recallseqFrFwrd	9	7	765	0	109	12:10:39	2710455	5	0	0	0	0	0	0	0	0	0	0	0	0	0	0	5	0
072612	12:10:39	10028	corsiblockFrFwrd	recallseqFrFwrd	9	3	853	0	109	12:10:39	2711348	5	0	0	0	0	0	0	0	0	0	0	0	0	0	0	5	0
072612	12:10:39	10028	corsiblockFrFwrd	recallseqFrFwrd	9	1	616	0	109	12:10:39	2712001	5	0	0	0	0	0	0	0	0	0	0	0	0	0	0	5	0
072612	12:10:39	10028	corsiblockFrFwrd	recallseqFrFwrd	9	2	514	0	109	12:10:39	2712561	5	0	0	0	0	0	0	0	0	0	0	0	0	0	0	5	0
072612	12:10:39	10028	corsiblockFrFwrd	recallseqFrFwrd	9	doneCorsiFr	851	0	109	12:10:39	2713454	5	0	0	0	0	0	0	0	0	0	0	0	0	0	0	6	0
072612	12:10:39	10028	corsiblockFrFwrd	recallseqFrFwrd	9	5	821	0	109	12:10:39	2724369	5	0	0	0	0	0	0	0	0	0	0	0	0	0	0	6	0
072612	12:10:39	10028	corsiblockFrFwrd	recallseqFrFwrd	9	4	594	0	109	12:10:39	2725009	5	0	0	0	0	0	0	0	0	0	0	0	0	0	0	6	0
072612	12:10:39	10028	corsiblockFrFwrd	recallseqFrFwrd	9	6	506	0	109	12:10:39	2725556	5	0	0	0	0	0	0	0	0	0	0	0	0	0	0	6	0
072612	12:10:39	10028	corsiblockFrFwrd	recallseqFrFwrd	9	8	776	0	109	12:10:39	2726369	5	0	0	0	0	0	0	0	0	0	0	0	0	0	0	6	0
072612	12:10:39	10028	corsiblockFrFwrd	recallseqFrFwrd	9	7	683	0	109	12:10:39	2727088	5	0	0	0	0	0	0	0	0	0	0	0	0	0	0	6	0
072612	12:10:39	10028	corsiblockFrFwrd	recallseqFrFwrd	9	3	1243	0	109	12:10:39	2728368	5	0	0	0	0	0	0	0	0	0	0	0	0	0	0	6	0
072612	12:10:39	10028	corsiblockFrFwrd	recallseqFrFwrd	9	9	900	0	109	12:10:39	2729301	5	0	0	0	0	0	0	0	0	0	0	0	0	0	0	6	0
072612	12:10:39	10028	corsiblockFrFwrd	recallseqFrFwrd	9	doneCorsiFr	871	0	109	12:10:39	2730207	5	0	0	0	0	0	0	0	0	0	0	0	0	0	0	7	0
072612	12:10:39	10028	corsiblockFrFwrd	recallseqFrFwrd	9	4	819	0	109	12:10:39	2742109	5	0	0	0	0	0	0	0	0	0	0	0	0	0	0	7	0
072612	12:10:39	10028	corsiblockFrFwrd	recallseqFrFwrd	9	3	622	0	109	12:10:39	2742776	5	0	0	0	0	0	0	0	0	0	0	0	0	0	0	7	0
072612	12:10:39	10028	corsiblockFrFwrd	recallseqFrFwrd	9	8	924	0	109	12:10:39	2743735	5	0	0	0	0	0	0	0	0	0	0	0	0	0	0	7	0
072612	12:10:39	10028	corsiblockFrFwrd	recallseqFrFwrd	9	9	612	0	109	12:10:39	2744388	5	0	0	0	0	0	0	0	0	0	0	0	0	0	0	7	0
072612	12:10:39	10028	corsiblockFrFwrd	recallseqFrFwrd	9	7	783	0	109	12:10:39	2745215	5	0	0	0	0	0	0	0	0	0	0	0	0	0	0	7	0
072612	12:10:39	10028	corsiblockFrFwrd	recallseqFrFwrd	9	2	1069	0	109	12:10:39	2746321	5	0	0	0	0	0	0	0	0	0	0	0	0	0	0	7	0
072612	12:10:39	10028	corsiblockFrFwrd	recallseqFrFwrd	9	5	1114	0	109	12:10:39	2747480	5	0	0	0	0	0	0	0	0	0	0	0	0	0	0	7	0
072612	12:10:39	10028	corsiblockFrFwrd	recallseqFrFwrd	9	doneCorsiFr	1401	0	109	12:10:39	2748920	5	0	0	0	0	0	0	0	0	0	0	0	0	0	0	7	0
072612	12:10:39	10028	corsiblockFrFwrd	recallseqFrFwrd	9	resetCorsiFr	5338	0	109	12:10:39	2765300	5	0	0	0	0	0	0	0	0	0	0	0	0	0	0	7	0
072612	12:10:39	10028	corsiblockFrFwrd	recallseqFrFwrd	9	1	1671	0	109	12:10:39	2767006	5	0	0	0	0	0	0	0	0	0	0	0	0	0	0	7	0
072612	12:10:39	10028	corsiblockFrFwrd	recallseqFrFwrd	9	7	749	0	109	12:10:39	2767792	5	0	0	0	0	0	0	0	0	0	0	0	0	0	0	7	0
072612	12:10:39	10028	corsiblockFrFwrd	recallseqFrFwrd	9	8	739	0	109	12:10:39	2768565	5	0	0	0	0	0	0	0	0	0	0	0	0	0	0	7	0
072612	12:10:39	10028	corsiblockFrFwrd	recallseqFrFwrd	9	4	2941	0	109	12:10:39	2771551	5	0	0	0	0	0	0	0	0	0	0	0	0	0	0	7	0
072612	12:10:39	10028	corsiblockFrFwrd	recallseqFrFwrd	9	2	517	0	109	12:10:39	2772111	5	0	0	0	0	0	0	0	0	0	0	0	0	0	0	7	0
072612	12:10:39	10028	corsiblockFrFwrd	recallseqFrFwrd	9	9	796	0	109	12:10:39	2772950	5	0	0	0	0	0	0	0	0	0	0	0	0	0	0	7	0
072612	12:10:39	10028	corsiblockFrFwrd	recallseqFrFwrd	9	5	781	0	109	12:10:39	2773777	5	0	0	0	0	0	0	0	0	0	0	0	0	0	0	7	0
072612	12:10:39	10028	corsiblockFrFwrd	recallseqFrFwrd	9	doneCorsiFr	1850	0	109	12:10:39	2775669	5	0	0	0	0	0	0	0	0	0	0	0	0	0	0	7	0
072612	12:10:39	10028	corsiblockFrRev	recallseqFrRev	10	8	5579	0	109	12:10:39	2803072	5	0	0	0	0	0	0	0	0	0	0	0	0	0	0	7	0
072612	12:10:39	10028	corsiblockFrRev	recallseqFrRev	10	5	787	0	109	12:10:39	2803898	5	0	0	0	0	0	0	0	0	0	0	0	0	0	0	7	0
072612	12:10:39	10028	corsiblockFrRev	recallseqFrRev	10	doneCorsiFr	824	0	109	12:10:39	2804764	5	0	0	0	0	0	0	0	0	0	0	0	0	0	0	7	2
072612	12:10:39	10028	corsiblockFrRev	recallseqFrRev	10	7	851	0	109	12:10:39	2811708	5	0	0	0	0	0	0	0	0	0	0	0	0	0	0	7	2
072612	12:10:39	10028	corsiblockFrRev	recallseqFrRev	10	4	702	0	109	12:10:39	2812455	5	0	0	0	0	0	0	0	0	0	0	0	0	0	0	7	2
072612	12:10:39	10028	corsiblockFrRev	recallseqFrRev	10	6	492	0	109	12:10:39	2812988	5	0	0	0	0	0	0	0	0	0	0	0	0	0	0	7	2
072612	12:10:39	10028	corsiblockFrRev	recallseqFrRev	10	doneCorsiFr	895	0	109	12:10:39	2813921	5	0	0	0	0	0	0	0	0	0	0	0	0	0	0	7	3
072612	12:10:39	10028	corsiblockFrRev	recallseqFrRev	10	9	613	0	109	12:10:39	2821624	5	0	0	0	0	0	0	0	0	0	0	0	0	0	0	7	3
072612	12:10:39	10028	corsiblockFrRev	recallseqFrRev	10	2	714	0	109	12:10:39	2822384	5	0	0	0	0	0	0	0	0	0	0	0	0	0	0	7	3
072612	12:10:39	10028	corsiblockFrRev	recallseqFrRev	10	1	658	0	109	12:10:39	2823077	5	0	0	0	0	0	0	0	0	0	0	0	0	0	0	7	3
072612	12:10:39	10028	corsiblockFrRev	recallseqFrRev	10	3	533	0	109	12:10:39	2823650	5	0	0	0	0	0	0	0	0	0	0	0	0	0	0	7	3
072612	12:10:39	10028	corsiblockFrRev	recallseqFrRev	10	doneCorsiFr	743	0	109	12:10:39	2824437	5	0	0	0	0	0	0	0	0	0	0	0	0	0	0	7	4
072612	12:10:39	10028	corsiblockFrRev	recallseqFrRev	10	7	1651	0	109	12:10:39	2834180	5	0	0	0	0	0	0	0	0	0	0	0	0	0	0	7	4
072612	12:10:39	10028	corsiblockFrRev	recallseqFrRev	10	2	703	0	109	12:10:39	2834926	5	0	0	0	0	0	0	0	0	0	0	0	0	0	0	7	4
072612	12:10:39	10028	corsiblockFrRev	recallseqFrRev	10	1	756	0	109	12:10:39	2835726	5	0	0	0	0	0	0	0	0	0	0	0	0	0	0	7	4
072612	12:10:39	10028	corsiblockFrRev	recallseqFrRev	10	9	636	0	109	12:10:39	2836405	5	0	0	0	0	0	0	0	0	0	0	0	0	0	0	7	4
072612	12:10:39	10028	corsiblockFrRev	recallseqFrRev	10	3	853	0	109	12:10:39	2837298	5	0	0	0	0	0	0	0	0	0	0	0	0	0	0	7	4
072612	12:10:39	10028	corsiblockFrRev	recallseqFrRev	10	doneCorsiFr	864	0	109	12:10:39	2838205	5	0	0	0	0	0	0	0	0	0	0	0	0	0	0	7	5
072612	12:10:39	10028	corsiblockFrRev	recallseqFrRev	10	2	1188	0	109	12:10:39	2848481	5	0	0	0	0	0	0	0	0	0	0	0	0	0	0	7	5
072612	12:10:39	10028	corsiblockFrRev	recallseqFrRev	10	7	849	0	109	12:10:39	2849374	5	0	0	0	0	0	0	0	0	0	0	0	0	0	0	7	5
072612	12:10:39	10028	corsiblockFrRev	recallseqFrRev	10	6	1036	0	109	12:10:39	2850453	5	0	0	0	0	0	0	0	0	0	0	0	0	0	0	7	5
072612	12:10:39	10028	corsiblockFrRev	recallseqFrRev	10	4	461	0	109	12:10:39	2850960	5	0	0	0	0	0	0	0	0	0	0	0	0	0	0	7	5
072612	12:10:39	10028	corsiblockFrRev	recallseqFrRev	10	5	482	0	109	12:10:39	2851479	5	0	0	0	0	0	0	0	0	0	0	0	0	0	0	7	5
072612	12:10:39	10028	corsiblockFrRev	recallseqFrRev	10	8	603	0	109	12:10:39	2852119	5	0	0	0	0	0	0	0	0	0	0	0	0	0	0	7	5
072612	12:10:39	10028	corsiblockFrRev	recallseqFrRev	10	doneCorsiFr	1051	0	109	12:10:39	2853212	5	0	0	0	0	0	0	0	0	0	0	0	0	0	0	7	6
072612	12:10:39	10028	corsiblockFrRev	recallseqFrRev	10	8	988	0	109	12:10:39	2864288	5	0	0	0	0	0	0	0	0	0	0	0	0	0	0	7	6
072612	12:10:39	10028	corsiblockFrRev	recallseqFrRev	10	4	538	0	109	12:10:39	2864861	5	0	0	0	0	0	0	0	0	0	0	0	0	0	0	7	6
072612	12:10:39	10028	corsiblockFrRev	recallseqFrRev	10	5	499	0	109	12:10:39	2865407	5	0	0	0	0	0	0	0	0	0	0	0	0	0	0	7	6
072612	12:10:39	10028	corsiblockFrRev	recallseqFrRev	10	9	755	0	109	12:10:39	2866207	5	0	0	0	0	0	0	0	0	0	0	0	0	0	0	7	6
072612	12:10:39	10028	corsiblockFrRev	recallseqFrRev	10	1	1035	0	109	12:10:39	2867286	5	0	0	0	0	0	0	0	0	0	0	0	0	0	0	7	6
072612	12:10:39	10028	corsiblockFrRev	recallseqFrRev	10	3	460	0	109	12:10:39	2867780	5	0	0	0	0	0	0	0	0	0	0	0	0	0	0	7	6
072612	12:10:39	10028	corsiblockFrRev	recallseqFrRev	10	6	462	0	109	12:10:39	2868286	5	0	0	0	0	0	0	0	0	0	0	0	0	0	0	7	6
072612	12:10:39	10028	corsiblockFrRev	recallseqFrRev	10	doneCorsiFr	555	0	109	12:10:39	2868886	5	0	0	0	0	0	0	0	0	0	0	0	0	0	0	7	6
072612	12:10:39	10028	corsiblockFrRev	recallseqFrRev	10	5	1034	0	109	12:10:39	2879975	5	0	0	0	0	0	0	0	0	0	0	0	0	0	0	7	6
072612	12:10:39	10028	corsiblockFrRev	recallseqFrRev	10	4	587	0	109	12:10:39	2880601	5	0	0	0	0	0	0	0	0	0	0	0	0	0	0	7	6
072612	12:10:39	10028	corsiblockFrRev	recallseqFrRev	10	2	553	0	109	12:10:39	2881188	5	0	0	0	0	0	0	0	0	0	0	0	0	0	0	7	6
072612	12:10:39	10028	corsiblockFrRev	recallseqFrRev	10	8	677	0	109	12:10:39	2881907	5	0	0	0	0	0	0	0	0	0	0	0	0	0	0	7	6
072612	12:10:39	10028	corsiblockFrRev	recallseqFrRev	10	6	790	0	109	12:10:39	2882734	5	0	0	0	0	0	0	0	0	0	0	0	0	0	0	7	6
072612	12:10:39	10028	corsiblockFrRev	recallseqFrRev	10	9	731	0	109	12:10:39	2883507	5	0	0	0	0	0	0	0	0	0	0	0	0	0	0	7	6
072612	12:10:39	10028	corsiblockFrRev	recallseqFrRev	10	1	759	0	109	12:10:39	2884307	5	0	0	0	0	0	0	0	0	0	0	0	0	0	0	7	6
072612	12:10:39	10028	corsiblockFrRev	recallseqFrRev	10	doneCorsiFr	1079	0	109	12:10:39	2885426	5	0	0	0	0	0	0	0	0	0	0	0	0	0	0	7	7
072612	12:10:39	10028	corsiblockFrRev	recallseqFrRev	10	3	629	0	109	12:10:39	2896142	5	0	0	0	0	0	0	0	0	0	0	0	0	0	0	7	7
072612	12:10:39	10028	corsiblockFrRev	recallseqFrRev	10	2	556	0	109	12:10:39	2896742	5	0	0	0	0	0	0	0	0	0	0	0	0	0	0	7	7
072612	12:10:39	10028	corsiblockFrRev	recallseqFrRev	10	1	819	0	109	12:10:39	2897595	5	0	0	0	0	0	0	0	0	0	0	0	0	0	0	7	7
072612	12:10:39	10028	corsiblockFrRev	recallseqFrRev	10	7	895	0	109	12:10:39	2898528	5	0	0	0	0	0	0	0	0	0	0	0	0	0	0	7	7
072612	12:10:39	10028	corsiblockFrRev	recallseqFrRev	10	4	705	0	109	12:10:39	2899274	5	0	0	0	0	0	0	0	0	0	0	0	0	0	0	7	7
072612	12:10:39	10028	corsiblockFrRev	recallseqFrRev	10	7	719	0	109	12:10:39	2900034	5	0	0	0	0	0	0	0	0	0	0	0	0	0	0	7	7
072612	12:10:39	10028	corsiblockFrRev	recallseqFrRev	10	8	504	0	109	12:10:39	2900580	5	0	0	0	0	0	0	0	0	0	0	0	0	0	0	7	7
072612	12:10:39	10028	corsiblockFrRev	recallseqFrRev	10	doneCorsiFr	1029	0	109	12:10:39	2901660	5	0	0	0	0	0	0	0	0	0	0	0	0	0	0	7	7
072612	12:10:39	10028	corsiblockFrRev	recallseqFrRev	10	9	741	0	109	12:10:39	2913455	5	0	0	0	0	0	0	0	0	0	0	0	0	0	0	7	7
072612	12:10:39	10028	corsiblockFrRev	recallseqFrRev	10	4	769	0	109	12:10:39	2914268	5	0	0	0	0	0	0	0	0	0	0	0	0	0	0	7	7
072612	12:10:39	10028	corsiblockFrRev	recallseqFrRev	10	8	813	0	109	12:10:39	2915121	5	0	0	0	0	0	0	0	0	0	0	0	0	0	0	7	7
072612	12:10:39	10028	corsiblockFrRev	recallseqFrRev	10	5	1240	0	109	12:10:39	2916401	5	0	0	0	0	0	0	0	0	0	0	0	0	0	0	7	7
072612	12:10:39	10028	corsiblockFrRev	recallseqFrRev	10	6	520	0	109	12:10:39	2916961	5	0	0	0	0	0	0	0	0	0	0	0	0	0	0	7	7
072612	12:10:39	10028	corsiblockFrRev	recallseqFrRev	10	2	682	0	109	12:10:39	2917680	5	0	0	0	0	0	0	0	0	0	0	0	0	0	0	7	7
072612	12:10:39	10028	corsiblockFrRev	recallseqFrRev	10	9	738	0	109	12:10:39	2918453	5	0	0	0	0	0	0	0	0	0	0	0	0	0	0	7	7
072612	12:10:39	10028	corsiblockFrRev	recallseqFrRev	10	doneCorsiFr	1204	0	109	12:10:39	2919693	5	0	0	0	0	0	0	0	0	0	0	0	0	0	0	7	7
072612	12:10:39	10028	testFrBaseline	WordsFrBaseline	11	1FrBaseline	688	0	109	12:10:39	3003860	5	1	0	0	0	0	0	0	0	0	0	0	0	0	0	7	7
072612	12:10:39	10028	testFrBaseline	WordsFrBaseline	11	2FrBaseline	540	0	109	12:10:39	3004446	5	1	1	0	0	0	0	0	0	0	0	0	0	0	0	7	7
072612	12:10:39	10028	testFrBaseline	WordsFrBaseline	11	3FrBaseline	266	0	109	12:10:39	3004753	5	1	1	1	0	0	0	0	0	0	0	0	0	0	0	7	7
072612	12:10:39	10028	testFrBaseline	WordsFrBaseline	11	4FrBaseline	616	0	109	12:10:39	3005406	5	1	1	1	1	0	0	0	0	0	0	0	0	0	0	7	7
072612	12:10:39	10028	testFrBaseline	WordsFrBaseline	11	6FrBaseline	259	0	109	12:10:39	3005699	5	1	1	1	1	0	1	0	0	0	0	0	0	0	0	7	7
072612	12:10:39	10028	testFrBaseline	WordsFrBaseline	11	5FrBaseline	414	0	109	12:10:39	3006152	5	1	1	1	1	1	1	0	0	0	0	0	0	0	0	7	7
072612	12:10:39	10028	testFrBaseline	WordsFrBaseline	11	DoneFrBaseline	688	0	109	12:10:39	3006885	5	1	1	1	1	1	1	0	0	0	0	0	0	0	0	7	7
072612	12:10:39	10028	testFrBaseline	Cat7FrBaseline	11	W7FrBaseline	30203	0	109	12:10:39	3037126	5	1	1	1	1	1	1	0	0	0	0	0	0	0	0	7	7
072612	12:10:39	10028	testFrBaseline	Ch7FrBaseline	11	RR7FrBaseline	20546	0	109	12:10:39	3057705	5	1	1	1	1	1	1	3	0	0	0	0	0	0	0	7	7
072612	12:10:39	10028	testFrBaseline	Cat8FrBaseline	11	R8FrBaseline	5255	0	109	12:10:39	3062996	5	1	1	1	1	1	1	3	2	0	0	0	0	0	0	7	7
072612	12:10:39	10028	DigitSpanFwrdFrBaseline	Score1FwrdFrBaseline	12	DS1	4825	0	109	12:10:39	3097595	5	1	1	1	1	1	1	3	2	0	0	0	0	0	0	7	7
072612	12:10:39	10028	DigitSpanFwrdFrBaseline	Gate1FwrdFrBaseline	12	0	1	0	109	12:10:39	3097611	5	1	1	1	1	1	1	3	2	3	0	0	0	0	0	7	7
072612	12:10:39	10028	DigitSpanFwrdFrBaseline	Score2FwrdFrBaseline	12	DS1	3449	0	109	12:10:39	3107258	5	1	1	1	1	1	1	3	2	3	0	0	0	0	0	7	7
072612	12:10:39	10028	DigitSpanFwrdFrBaseline	Gate3FwrdFrBaseline	12	0	1	0	109	12:10:39	3107273	5	1	1	1	1	1	1	3	2	4	0	0	0	0	0	7	7
072612	12:10:39	10028	DigitSpanFwrdFrBaseline	Score3FwrdFrBaseline	12	DS1	3221	0	109	12:10:39	3117454	5	1	1	1	1	1	1	3	2	4	0	0	0	0	0	7	7
072612	12:10:39	10028	DigitSpanFwrdFrBaseline	Gate5FwrdFrBaseline	12	0	1	0	109	12:10:39	3117470	5	1	1	1	1	1	1	3	2	5	0	0	0	0	0	7	7
072612	12:10:39	10028	DigitSpanFwrdFrBaseline	Score4FwrdFrBaseline	12	DS1	3956	0	109	12:10:39	3129969	5	1	1	1	1	1	1	3	2	5	0	0	0	0	0	7	7
072612	12:10:39	10028	DigitSpanFwrdFrBaseline	Gate7FwrdFrBaseline	12	0	1	0	109	12:10:39	3129985	5	1	1	1	1	1	1	3	2	6	0	0	0	0	0	7	7
072612	12:10:39	10028	DigitSpanFwrdFrBaseline	Score5FwrdFrBaseline	12	DS2	7304	0	109	12:10:39	3149375	5	1	1	1	1	1	1	3	2	6	0	0	0	0	0	7	7
072612	12:10:39	10028	DigitSpanFwrdFrBaseline	Gate9FwrdFrBaseline	12	0	1	0	109	12:10:39	3149390	5	1	1	1	1	1	1	3	2	6	0	0	0	0	0	7	7
072612	12:10:39	10028	DigitSpanFwrdFrBaseline	Score55FwrdFrBaseline	12	DS1	6570	0	109	12:10:39	3168807	5	1	1	1	1	1	1	3	2	6	0	0	0	0	0	7	7
072612	12:10:39	10028	DigitSpanFwrdFrBaseline	Gate10FwrdFrBaseline	12	0	1	0	109	12:10:39	3168822	5	1	1	1	1	1	1	3	2	7	0	0	0	0	0	7	7
072612	12:10:39	10028	DigitSpanFwrdFrBaseline	Score6FwrdFrBaseline	12	DS1	4501	0	109	12:10:39	3186520	5	1	1	1	1	1	1	3	2	8	0	0	0	0	0	7	7
072612	12:10:39	10028	DigitSpanFrBaseline	Score1FrBaseline	13	DS1	4242	0	109	12:10:39	3208618	5	1	1	1	1	1	1	3	2	8	0	0	0	0	0	7	7
072612	12:10:39	10028	DigitSpanFrBaseline	Gate1FrBaseline	13	0	1	0	109	12:10:39	3208634	5	1	1	1	1	1	1	3	2	8	2	0	0	0	0	7	7
072612	12:10:39	10028	DigitSpanFrBaseline	Score2FrBaseline	13	DS1	4555	0	109	12:10:39	3217681	5	1	1	1	1	1	1	3	2	8	2	0	0	0	0	7	7
072612	12:10:39	10028	DigitSpanFrBaseline	Gate3FrBaseline	13	0	1	0	109	12:10:39	3217697	5	1	1	1	1	1	1	3	2	8	3	0	0	0	0	7	7
072612	12:10:39	10028	DigitSpanFrBaseline	Score3FrBaseline	13	DS1	7767	0	109	12:10:39	3231169	5	1	1	1	1	1	1	3	2	8	3	0	0	0	0	7	7
072612	12:10:39	10028	DigitSpanFrBaseline	Gate5FrBaseline	13	0	1	0	109	12:10:39	3231184	5	1	1	1	1	1	1	3	2	8	4	0	0	0	0	7	7
072612	12:10:39	10028	DigitSpanFrBaseline	Score4FrBaseline	13	DS1	5567	0	109	12:10:39	3244004	5	1	1	1	1	1	1	3	2	8	4	0	0	0	0	7	7
072612	12:10:39	10028	DigitSpanFrBaseline	Gate7FrBaseline	13	0	1	0	109	12:10:39	3244019	5	1	1	1	1	1	1	3	2	8	5	0	0	0	0	7	7
072612	12:10:39	10028	DigitSpanFrBaseline	Score5FrBaseline	13	DS1	10710	0	109	12:10:39	3263517	5	1	1	1	1	1	1	3	2	8	5	0	0	0	0	7	7
072612	12:10:39	10028	DigitSpanFrBaseline	Gate9FrBaseline	13	0	1	0	109	12:10:39	3263532	5	1	1	1	1	1	1	3	2	8	6	0	0	0	0	7	7
072612	12:10:39	10028	DigitSpanFrBaseline	Score6FrBaseline	13	DS2	17901	0	109	12:10:39	3291212	5	1	1	1	1	1	1	3	2	8	6	0	0	0	0	7	7
072612	12:10:39	10028	DigitSpanFrBaseline	Gate11FrBaseline	13	0	1	0	109	12:10:39	3291228	5	1	1	1	1	1	1	3	2	8	6	0	0	0	0	7	7
072612	12:10:39	10028	DigitSpanFrBaseline	Score66FrBaseline	13	DS2	18191	0	109	12:10:39	3319015	5	1	1	1	1	1	1	3	2	8	6	0	0	0	0	7	7
072612	12:10:39	10028	Trial	IncongruentRight	14	205	504	1	109	12:10:39	3419655	5	1	1	1	1	1	1	3	2	8	6	0	0	0	0	7	7
072612	12:10:39	10028	Trial	IncongruentLeft	14	203	512	1	109	12:10:39	3420674	5	1	1	1	1	1	1	3	2	8	6	0	0	0	0	7	7
072612	12:10:39	10028	Trial	CongruentRight	14	205	489	1	109	12:10:39	3421641	5	1	1	1	1	1	1	3	2	8	6	0	0	0	0	7	7
072612	12:10:39	10028	Trial	IncongruentRight	14	205	401	1	109	12:10:39	3422560	5	1	1	1	1	1	1	3	2	8	6	0	0	0	0	7	7
072612	12:10:39	10028	Trial	CongruentLeft	14	203	412	1	109	12:10:39	3423587	5	1	1	1	1	1	1	3	2	8	6	0	0	0	0	7	7
072612	12:10:39	10028	Trial	CongruentRight	14	205	357	1	109	12:10:39	3424519	5	1	1	1	1	1	1	3	2	8	6	0	0	0	0	7	7
072612	12:10:39	10028	Trial	IncongruentRight	14	205	557	1	109	12:10:39	3425719	5	1	1	1	1	1	1	3	2	8	6	0	0	0	0	7	7
072612	12:10:39	10028	Trial	CongruentLeft	14	203	437	1	109	12:10:39	3426599	5	1	1	1	1	1	1	3	2	8	6	0	0	0	0	7	7
072612	12:10:39	10028	Trial	IncongruentLeft	14	205	430	0	109	12:10:39	3427598	5	1	1	1	1	1	1	3	2	8	6	0	0	0	0	7	7
072612	12:10:39	10028	Trial	IncongruentLeft	14	203	502	1	109	12:10:39	3428665	5	1	1	1	1	1	1	3	2	8	6	0	0	0	0	7	7
072612	12:10:39	10028	Trial	CongruentRight	14	205	511	1	109	12:10:39	3429678	5	1	1	1	1	1	1	3	2	8	6	0	0	0	0	7	7
072612	12:10:39	10028	Trial	IncongruentRight	14	205	501	1	109	12:10:39	3430664	5	1	1	1	1	1	1	3	2	8	6	0	0	0	0	7	7
072612	12:10:39	10028	Trial	CongruentLeft	14	203	415	1	109	12:10:39	3431583	5	1	1	1	1	1	1	3	2	8	6	0	0	0	0	7	7
072612	12:10:39	10028	Trial	CongruentRight	14	205	424	1	109	12:10:39	3432583	5	1	1	1	1	1	1	3	2	8	6	0	0	0	0	7	7
072612	12:10:39	10028	Trial	IncongruentLeft	14	203	448	1	109	12:10:39	3433609	5	1	1	1	1	1	1	3	2	8	6	0	0	0	0	7	7
072612	12:10:39	10028	Trial	IncongruentRight	14	205	408	1	109	12:10:39	3434569	5	1	1	1	1	1	1	3	2	8	6	0	0	0	0	7	7
072612	12:10:39	10028	Trial	CongruentRight	14	205	449	1	109	12:10:39	3435608	5	1	1	1	1	1	1	3	2	8	6	0	0	0	0	7	7
072612	12:10:39	10028	Trial	CongruentLeft	14	203	441	1	109	12:10:39	3436608	5	1	1	1	1	1	1	3	2	8	6	0	0	0	0	7	7
072612	12:10:39	10028	Trial	CongruentRight	14	205	434	1	109	12:10:39	3437594	5	1	1	1	1	1	1	3	2	8	6	0	0	0	0	7	7
072612	12:10:39	10028	Trial	IncongruentRight	14	205	474	1	109	12:10:39	3438634	5	1	1	1	1	1	1	3	2	8	6	0	0	0	0	7	7
072612	12:10:39	10028	Trial	IncongruentLeft	14	203	498	1	109	12:10:39	3439660	5	1	1	1	1	1	1	3	2	8	6	0	0	0	0	7	7
072612	12:10:39	10028	Trial	IncongruentLeft	14	205	331	0	109	12:10:39	3440487	5	1	1	1	1	1	1	3	2	8	6	0	0	0	0	7	7
072612	12:10:39	10028	Trial	CongruentLeft	14	203	462	1	109	12:10:39	3441620	5	1	1	1	1	1	1	3	2	8	6	0	0	0	0	7	7
072612	12:10:39	10028	Trial	CongruentRight	14	205	443	1	109	12:10:39	3442606	5	1	1	1	1	1	1	3	2	8	6	0	0	0	0	7	7
072612	12:10:39	10028	Trial	IncongruentLeft	14	203	500	1	109	12:10:39	3443659	5	1	1	1	1	1	1	3	2	8	6	0	0	0	0	7	7
072612	12:10:39	10028	Trial	IncongruentRight	14	205	444	1	109	12:10:39	3444605	5	1	1	1	1	1	1	3	2	8	6	0	0	0	0	7	7
072612	12:10:39	10028	Trial	CongruentRight	14	205	437	1	109	12:10:39	3445591	5	1	1	1	1	1	1	3	2	8	6	0	0	0	0	7	7
072612	12:10:39	10028	Trial	CongruentLeft	14	203	461	1	109	12:10:39	3446618	5	1	1	1	1	1	1	3	2	8	6	0	0	0	0	7	7
072612	12:10:39	10028	Trial	IncongruentRight	14	205	469	1	109	12:10:39	3447630	5	1	1	1	1	1	1	3	2	8	6	0	0	0	0	7	7
072612	12:10:39	10028	Trial	IncongruentLeft	14	203	510	1	109	12:10:39	3448670	5	1	1	1	1	1	1	3	2	8	6	0	0	0	0	7	7
072612	12:10:39	10028	Trial	IncongruentRight	14	205	502	1	109	12:10:39	3449656	5	1	1	1	1	1	1	3	2	8	6	0	0	0	0	7	7
072612	12:10:39	10028	Trial	CongruentRight	14	205	463	1	109	12:10:39	3450616	5	1	1	1	1	1	1	3	2	8	6	0	0	0	0	7	7
072612	12:10:39	10028	Trial	IncongruentLeft	14	203	487	1	109	12:10:39	3451642	5	1	1	1	1	1	1	3	2	8	6	0	0	0	0	7	7
072612	12:10:39	10028	Trial	CongruentLeft	14	203	495	1	109	12:10:39	3452655	5	1	1	1	1	1	1	3	2	8	6	0	0	0	0	7	7
072612	12:10:39	10028	Trial	CongruentRight	14	205	456	1	109	12:10:39	3453615	5	1	1	1	1	1	1	3	2	8	6	0	0	0	0	7	7
072612	12:10:39	10028	Trial	IncongruentLeft	14	203	416	1	109	12:10:39	3454574	5	1	1	1	1	1	1	3	2	8	6	0	0	0	0	7	7
072612	12:10:39	10028	Trial	IncongruentRight	14	205	457	1	109	12:10:39	3455614	5	1	1	1	1	1	1	3	2	8	6	0	0	0	0	7	7
072612	12:10:39	10028	Trial	IncongruentRight	14	205	435	1	109	12:10:39	3456600	5	1	1	1	1	1	1	3	2	8	6	0	0	0	0	7	7
072612	12:10:39	10028	Trial	CongruentLeft	14	203	460	1	109	12:10:39	3457626	5	1	1	1	1	1	1	3	2	8	6	0	0	0	0	7	7
072612	12:10:39	10028	Trial	IncongruentLeft	14	203	484	1	109	12:10:39	3458653	5	1	1	1	1	1	1	3	2	8	6	0	0	0	0	7	7
072612	12:10:39	10028	Trial	CongruentRight	14	205	397	1	109	12:10:39	3459559	5	1	1	1	1	1	1	3	2	8	6	0	0	0	0	7	7
072612	12:10:39	10028	Trial	CongruentLeft	14	203	309	1	109	12:10:39	3460479	5	1	1	1	1	1	1	3	2	8	6	0	0	0	0	7	7
072612	12:10:39	10028	Trial	IncongruentRight	14	205	381	1	109	12:10:39	3461545	5	1	1	1	1	1	1	3	2	8	6	0	0	0	0	7	7
072612	12:10:39	10028	Trial	CongruentRight	14	205	406	1	109	12:10:39	3462571	5	1	1	1	1	1	1	3	2	8	6	0	0	0	0	7	7
072612	12:10:39	10028	Trial	IncongruentLeft	14	203	462	1	109	12:10:39	3463624	5	1	1	1	1	1	1	3	2	8	6	0	0	0	0	7	7
072612	12:10:39	10028	Trial	CongruentLeft	14	203	407	1	109	12:10:39	3464571	5	1	1	1	1	1	1	3	2	8	6	0	0	0	0	7	7
072612	12:10:39	10028	Trial	IncongruentLeft	14	205	319	0	109	12:10:39	3465490	5	1	1	1	1	1	1	3	2	8	6	0	0	0	0	7	7
072612	12:10:39	10028	Trial	IncongruentRight	14	205	439	1	109	12:10:39	3466610	5	1	1	1	1	1	1	3	2	8	6	0	0	0	0	7	7
072612	12:10:39	10028	Trial	CongruentRight	14	205	352	1	109	12:10:39	3467516	5	1	1	1	1	1	1	3	2	8	6	0	0	0	0	7	7
072612	12:10:39	10028	Trial	CongruentLeft	14	203	392	1	109	12:10:39	3468556	5	1	1	1	1	1	1	3	2	8	6	0	0	0	0	7	7
072612	12:10:39	10028	Trial	CongruentLeft	14	203	320	1	109	12:10:39	3469489	5	1	1	1	1	1	1	3	2	8	6	0	0	0	0	7	7
072612	12:10:39	10028	Trial	IncongruentRight	14	205	489	1	109	12:10:39	3470648	5	1	1	1	1	1	1	3	2	8	6	0	0	0	0	7	7
072612	12:10:39	10028	Trial	IncongruentLeft	14	203	529	1	109	12:10:39	3471688	5	1	1	1	1	1	1	3	2	8	6	0	0	0	0	7	7
072612	12:10:39	10028	Trial	IncongruentRight	14	205	490	1	109	12:10:39	3472647	5	1	1	1	1	1	1	3	2	8	6	0	0	0	0	7	7
072612	12:10:39	10028	Trial	CongruentRight	14	205	434	1	109	12:10:39	3473594	5	1	1	1	1	1	1	3	2	8	6	0	0	0	0	7	7
072612	12:10:39	10028	Trial	CongruentRight	14	0	737	0	109	12:10:39	3474886	5	1	1	1	1	1	1	3	2	8	6	0	0	0	0	7	7
072612	12:10:39	10028	Trial	IncongruentLeft	14	203	546	1	109	12:10:39	3475713	5	1	1	1	1	1	1	3	2	8	6	0	0	0	0	7	7
072612	12:10:39	10028	Trial	CongruentLeft	14	203	395	1	109	12:10:39	3476552	5	1	1	1	1	1	1	3	2	8	6	0	0	0	0	7	7
072612	12:10:39	10028	Trial	CongruentRight	14	205	595	1	109	12:10:39	3477752	5	1	1	1	1	1	1	3	2	8	6	0	0	0	0	7	7
072612	12:10:39	10028	Trial	CongruentLeft	14	203	543	1	109	12:10:39	3478712	5	1	1	1	1	1	1	3	2	8	6	0	0	0	0	7	7
072612	12:10:39	10028	Trial	IncongruentRight	14	205	631	1	109	12:10:39	3479805	5	1	1	1	1	1	1	3	2	8	6	0	0	0	0	7	7
072612	12:10:39	10028	Trial	CongruentRight	14	205	516	1	109	12:10:39	3480711	5	1	1	1	1	1	1	3	2	8	6	0	0	0	0	7	7
072612	12:10:39	10028	Trial	CongruentLeft	14	203	392	1	109	12:10:39	3481564	5	1	1	1	1	1	1	3	2	8	6	0	0	0	0	7	7
072612	12:10:39	10028	Trial	IncongruentLeft	14	203	400	1	109	12:10:39	3482577	5	1	1	1	1	1	1	3	2	8	6	0	0	0	0	7	7
072612	12:10:39	10028	Trial	IncongruentLeft	14	203	488	1	109	12:10:39	3483656	5	1	1	1	1	1	1	3	2	8	6	0	0	0	0	7	7
072612	12:10:39	10028	Trial	CongruentRight	14	205	417	1	109	12:10:39	3484589	5	1	1	1	1	1	1	3	2	8	6	0	0	0	0	7	7
072612	12:10:39	10028	Trial	IncongruentRight	14	205	441	1	109	12:10:39	3485616	5	1	1	1	1	1	1	3	2	8	6	0	0	0	0	7	7
072612	12:10:39	10028	Trial	CongruentLeft	14	203	434	1	109	12:10:39	3486602	5	1	1	1	1	1	1	3	2	8	6	0	0	0	0	7	7
072612	12:10:39	10028	Trial	IncongruentRight	14	205	586	1	109	12:10:39	3487761	5	1	1	1	1	1	1	3	2	8	6	0	0	0	0	7	7
072612	12:10:39	10028	Trial	CongruentRight	14	205	610	1	109	12:10:39	3488774	5	1	1	1	1	1	1	3	2	8	6	0	0	0	0	7	7
072612	12:10:39	10028	Trial	IncongruentLeft	14	203	443	1	109	12:10:39	3489614	5	1	1	1	1	1	1	3	2	8	6	0	0	0	0	7	7
072612	12:10:39	10028	Trial	CongruentLeft	14	203	451	1	109	12:10:39	3490627	5	1	1	1	1	1	1	3	2	8	6	0	0	0	0	7	7
072612	12:10:39	10028	Trial	CongruentRight	14	205	412	1	109	12:10:39	3491587	5	1	1	1	1	1	1	3	2	8	6	0	0	0	0	7	7
072612	12:10:39	10028	Trial	IncongruentLeft	14	203	468	1	109	12:10:39	3492639	5	1	1	1	1	1	1	3	2	8	6	0	0	0	0	7	7
072612	12:10:39	10028	Trial	CongruentRight	14	205	444	1	109	12:10:39	3493613	5	1	1	1	1	1	1	3	2	8	6	0	0	0	0	7	7
072612	12:10:39	10028	Trial	CongruentRight	14	205	437	1	109	12:10:39	3494599	5	1	1	1	1	1	1	3	2	8	6	0	0	0	0	7	7
072612	12:10:39	10028	Trial	IncongruentRight	14	205	573	1	109	12:10:39	3495745	5	1	1	1	1	1	1	3	2	8	6	0	0	0	0	7	7
072612	12:10:39	10028	Trial	CongruentLeft	14	203	453	1	109	12:10:39	3496625	5	1	1	1	1	1	1	3	2	8	6	0	0	0	0	7	7
072612	12:10:39	10028	Trial	IncongruentLeft	14	203	526	1	109	12:10:39	3497691	5	1	1	1	1	1	1	3	2	8	6	0	0	0	0	7	7
072612	12:10:39	10028	Trial	CongruentLeft	14	203	422	1	109	12:10:39	3498584	5	1	1	1	1	1	1	3	2	8	6	0	0	0	0	7	7
072612	12:10:39	10028	Trial	IncongruentRight	14	205	399	1	109	12:10:39	3499570	5	1	1	1	1	1	1	3	2	8	6	0	0	0	0	7	7
072612	12:10:39	10028	Trial	IncongruentLeft	14	203	471	1	109	12:10:39	3500636	5	1	1	1	1	1	1	3	2	8	6	0	0	0	0	7	7
072612	12:10:39	10028	Trial	CongruentRight	14	205	496	1	109	12:10:39	3501662	5	1	1	1	1	1	1	3	2	8	6	0	0	0	0	7	7
072612	12:10:39	10028	Trial	CongruentLeft	14	203	440	1	109	12:10:39	3502609	5	1	1	1	1	1	1	3	2	8	6	0	0	0	0	7	7
072612	12:10:39	10028	Trial	IncongruentLeft	14	203	544	1	109	12:10:39	3503702	5	1	1	1	1	1	1	3	2	8	6	0	0	0	0	7	7
072612	12:10:39	10028	Trial	CongruentLeft	14	203	440	1	109	12:10:39	3504608	5	1	1	1	1	1	1	3	2	8	6	0	0	0	0	7	7
072612	12:10:39	10028	Trial	IncongruentRight	14	205	433	1	109	12:10:39	3505594	5	1	1	1	1	1	1	3	2	8	6	0	0	0	0	7	7
072612	12:10:39	10028	Trial	CongruentRight	14	205	601	1	109	12:10:39	3506767	5	1	1	1	1	1	1	3	2	8	6	0	0	0	0	7	7
072612	12:10:39	10028	Trial	IncongruentLeft	14	203	545	1	109	12:10:39	3507714	5	1	1	1	1	1	1	3	2	8	6	0	0	0	0	7	7
072612	12:10:39	10028	Trial	CongruentLeft	14	203	506	1	109	12:10:39	3508673	5	1	1	1	1	1	1	3	2	8	6	0	0	0	0	7	7
072612	12:10:39	10028	Trial	IncongruentRight	14	205	434	1	109	12:10:39	3509593	5	1	1	1	1	1	1	3	2	8	6	0	0	0	0	7	7
072612	12:10:39	10028	Trial	IncongruentLeft	14	203	491	1	109	12:10:39	3510646	5	1	1	1	1	1	1	3	2	8	6	0	0	0	0	7	7
072612	12:10:39	10028	Trial	CongruentLeft	14	203	390	1	109	12:10:39	3511565	5	1	1	1	1	1	1	3	2	8	6	0	0	0	0	7	7
072612	12:10:39	10028	Trial	IncongruentLeft	14	203	430	1	109	12:10:39	3512605	5	1	1	1	1	1	1	3	2	8	6	0	0	0	0	7	7
072612	12:10:39	10028	Trial	CongruentRight	14	205	393	1	109	12:10:39	3513565	5	1	1	1	1	1	1	3	2	8	6	0	0	0	0	7	7
072612	12:10:39	10028	Trial	CongruentLeft	14	203	416	1	109	12:10:39	3514593	5	1	1	1	1	1	1	3	2	8	6	0	0	0	0	7	7
072612	12:10:39	10028	Trial	IncongruentRight	14	205	503	1	109	12:10:39	3515670	5	1	1	1	1	1	1	3	2	8	6	0	0	0	0	7	7
072612	12:10:39	10028	Trial	CongruentLeft	14	203	400	1	109	12:10:39	3516577	5	1	1	1	1	1	1	3	2	8	6	0	0	0	0	7	7
072612	12:10:39	10028	Trial	CongruentRight	14	205	376	1	109	12:10:39	3517550	5	1	1	1	1	1	1	3	2	8	6	0	0	0	0	7	7
072612	12:10:39	10028	Trial	IncongruentLeft	14	203	320	1	109	12:10:39	3518496	5	1	1	1	1	1	1	3	2	8	6	0	0	0	0	7	7
072612	12:10:39	10028	Trial750Fr	IncongruentRight750	15	0	487	0	109	12:10:39	3528559	5	1	1	1	1	1	1	3	2	8	6	0	0	0	0	7	7
072612	12:10:39	10028	Trial750Fr	IncongruentLeft750	15	203	394	1	109	12:10:39	3529225	5	1	1	1	1	1	1	3	2	8	6	0	0	0	0	7	7
072612	12:10:39	10028	Trial750Fr	CongruentRight750	15	205	290	1	109	12:10:39	3529878	5	1	1	1	1	1	1	3	2	8	6	0	0	0	0	7	7
072612	12:10:39	10028	Trial750Fr	IncongruentRight750	15	205	408	1	109	12:10:39	3530744	5	1	1	1	1	1	1	3	2	8	6	0	0	0	0	7	7
072612	12:10:39	10028	Trial750Fr	CongruentLeft750	15	203	333	1	109	12:10:39	3531424	5	1	1	1	1	1	1	3	2	8	6	0	0	0	0	7	7
072612	12:10:39	10028	Trial750Fr	CongruentRight750	15	205	294	1	109	12:10:39	3532144	5	1	1	1	1	1	1	3	2	8	6	0	0	0	0	7	7
072612	12:10:39	10028	Trial750Fr	IncongruentRight750	15	205	475	1	109	12:10:39	3533064	5	1	1	1	1	1	1	3	2	8	6	0	0	0	0	7	7
072612	12:10:39	10028	Trial750Fr	CongruentLeft750	15	203	321	1	109	12:10:39	3533663	5	1	1	1	1	1	1	3	2	8	6	0	0	0	0	7	7
072612	12:10:39	10028	Trial750Fr	IncongruentLeft750	15	203	377	1	109	12:10:39	3534476	5	1	1	1	1	1	1	3	2	8	6	0	0	0	0	7	7
072612	12:10:39	10028	Trial750Fr	IncongruentLeft750	15	205	336	0	109	12:10:39	3535183	5	1	1	1	1	1	1	3	2	8	6	0	0	0	0	7	7
072612	12:10:39	10028	Trial750Fr	CongruentRight750	15	205	372	1	109	12:10:39	3535969	5	1	1	1	1	1	1	3	2	8	6	0	0	0	0	7	7
072612	12:10:39	10028	Trial750Fr	IncongruentRight750	15	203	333	0	109	12:10:39	3536689	5	1	1	1	1	1	1	3	2	8	6	0	0	0	0	7	7
072612	12:10:39	10028	Trial750Fr	CongruentLeft750	15	203	450	1	109	12:10:39	3537542	5	1	1	1	1	1	1	3	2	8	6	0	0	0	0	7	7
072612	12:10:39	10028	Trial750Fr	CongruentRight750	15	205	360	1	109	12:10:39	3538208	5	1	1	1	1	1	1	3	2	8	6	0	0	0	0	7	7
072612	12:10:39	10028	Trial750Fr	IncongruentLeft750	15	203	366	1	109	12:10:39	3538955	5	1	1	1	1	1	1	3	2	8	6	0	0	0	0	7	7
072612	12:10:39	10028	Trial750Fr	IncongruentRight750	15	205	326	1	109	12:10:39	3539674	5	1	1	1	1	1	1	3	2	8	6	0	0	0	0	7	7
072612	12:10:39	10028	Trial750Fr	CongruentRight750	15	205	427	1	109	12:10:39	3540527	5	1	1	1	1	1	1	3	2	8	6	0	0	0	0	7	7
072612	12:10:39	10028	Trial750Fr	CongruentLeft750	15	203	353	1	109	12:10:39	3541194	5	1	1	1	1	1	1	3	2	8	6	0	0	0	0	7	7
072612	12:10:39	10028	Trial750Fr	CongruentRight750	15	205	327	1	109	12:10:39	3541914	5	1	1	1	1	1	1	3	2	8	6	0	0	0	0	7	7
072612	12:10:39	10028	Trial750Fr	IncongruentRight750	15	0	487	0	109	12:10:39	3542820	5	1	1	1	1	1	1	3	2	8	6	0	0	0	0	7	7
072612	12:10:39	10028	Trial750Fr	IncongruentLeft750	15	203	324	1	109	12:10:39	3543419	5	1	1	1	1	1	1	3	2	8	6	0	0	0	0	7	7
072612	12:10:39	10028	Trial750Fr	IncongruentLeft750	15	0	487	0	109	12:10:39	3544326	5	1	1	1	1	1	1	3	2	8	6	0	0	0	0	7	7
072612	12:10:39	10028	Trial750Fr	CongruentLeft750	15	203	386	1	109	12:10:39	3544992	5	1	1	1	1	1	1	3	2	8	6	0	0	0	0	7	7
072612	12:10:39	10028	Trial750Fr	CongruentRight750	15	205	379	1	109	12:10:39	3545738	5	1	1	1	1	1	1	3	2	8	6	0	0	0	0	7	7
072612	12:10:39	10028	Trial750Fr	IncongruentLeft750	15	203	336	1	109	12:10:39	3546445	5	1	1	1	1	1	1	3	2	8	6	0	0	0	0	7	7
072612	12:10:39	10028	Trial750Fr	IncongruentRight750	15	205	374	1	109	12:10:39	3547231	5	1	1	1	1	1	1	3	2	8	6	0	0	0	0	7	7
072612	12:10:39	10028	Trial750Fr	CongruentRight750	15	205	444	1	109	12:10:39	3548044	5	1	1	1	1	1	1	3	2	8	6	0	0	0	0	7	7
072612	12:10:39	10028	Trial750Fr	CongruentLeft750	15	203	372	1	109	12:10:39	3548737	5	1	1	1	1	1	1	3	2	8	6	0	0	0	0	7	7
072612	12:10:39	10028	Trial750Fr	IncongruentRight750	15	205	410	1	109	12:10:39	3549510	5	1	1	1	1	1	1	3	2	8	6	0	0	0	0	7	7
072612	12:10:39	10028	Trial750Fr	IncongruentLeft750	15	203	399	1	109	12:10:39	3550257	5	1	1	1	1	1	1	3	2	8	6	0	0	0	0	7	7
072612	12:10:39	10028	Trial750Fr	IncongruentRight750	15	205	471	1	109	12:10:39	3551083	5	1	1	1	1	1	1	3	2	8	6	0	0	0	0	7	7
072612	12:10:39	10028	Trial750Fr	CongruentRight750	15	205	477	1	109	12:10:39	3551830	5	1	1	1	1	1	1	3	2	8	6	0	0	0	0	7	7
072612	12:10:39	10028	Trial750Fr	IncongruentLeft750	15	203	357	1	109	12:10:39	3552469	5	1	1	1	1	1	1	3	2	8	6	0	0	0	0	7	7
072612	12:10:39	10028	Trial750Fr	CongruentLeft750	15	203	427	1	109	12:10:39	3553296	5	1	1	1	1	1	1	3	2	8	6	0	0	0	0	7	7
072612	12:10:39	10028	Trial750Fr	CongruentRight750	15	205	353	1	109	12:10:39	3553962	5	1	1	1	1	1	1	3	2	8	6	0	0	0	0	7	7
072612	12:10:39	10028	Trial750Fr	IncongruentLeft750	15	203	313	1	109	12:10:39	3554682	5	1	1	1	1	1	1	3	2	8	6	0	0	0	0	7	7
072612	12:10:39	10028	Trial750Fr	IncongruentRight750	15	205	430	1	109	12:10:39	3555548	5	1	1	1	1	1	1	3	2	8	6	0	0	0	0	7	7
072612	12:10:39	10028	Trial750Fr	IncongruentRight750	15	205	436	1	109	12:10:39	3556294	5	1	1	1	1	1	1	3	2	8	6	0	0	0	0	7	7
072612	12:10:39	10028	Trial750Fr	CongruentLeft750	15	203	394	1	109	12:10:39	3557001	5	1	1	1	1	1	1	3	2	8	6	0	0	0	0	7	7
072612	12:10:39	10028	Trial750Fr	IncongruentLeft750	15	203	418	1	109	12:10:39	3557787	5	1	1	1	1	1	1	3	2	8	6	0	0	0	0	7	7
072612	12:10:39	10028	Trial750Fr	CongruentRight750	15	205	312	1	109	12:10:39	3558427	5	1	1	1	1	1	1	3	2	8	6	0	0	0	0	7	7
072612	12:10:39	10028	Trial750Fr	CongruentLeft750	15	203	429	1	109	12:10:39	3559293	5	1	1	1	1	1	1	3	2	8	6	0	0	0	0	7	7
072612	12:10:39	10028	Trial750Fr	IncongruentRight750	15	205	322	1	109	12:10:39	3559933	5	1	1	1	1	1	1	3	2	8	6	0	0	0	0	7	7
072612	12:10:39	10028	Trial750Fr	CongruentRight750	15	0	487	0	109	12:10:39	3560839	5	1	1	1	1	1	1	3	2	8	6	0	0	0	0	7	7
072612	12:10:39	10028	Trial750Fr	IncongruentLeft750	15	203	288	1	109	12:10:39	3561399	5	1	1	1	1	1	1	3	2	8	6	0	0	0	0	7	7
072612	12:10:39	10028	Trial750Fr	CongruentLeft750	15	203	409	1	109	12:10:39	3562279	5	1	1	1	1	1	1	3	2	8	6	0	0	0	0	7	7
072612	12:10:39	10028	Trial750Fr	IncongruentLeft750	15	205	287	0	109	12:10:39	3562905	5	1	1	1	1	1	1	3	2	8	6	0	0	0	0	7	7
072612	12:10:39	10028	Trial750Fr	IncongruentRight750	15	205	372	1	109	12:10:39	3563745	5	1	1	1	1	1	1	3	2	8	6	0	0	0	0	7	7
072612	12:10:39	10028	Trial750Fr	CongruentRight750	15	205	333	1	109	12:10:39	3564465	5	1	1	1	1	1	1	3	2	8	6	0	0	0	0	7	7
072612	12:10:39	10028	Trial750Fr	CongruentLeft750	15	205	338	0	109	12:10:39	3565211	5	1	1	1	1	1	1	3	2	8	6	0	0	0	0	7	7
072612	12:10:39	10028	Trial750Fr	CongruentLeft750	15	203	360	1	109	12:10:39	3565984	5	1	1	1	1	1	1	3	2	8	6	0	0	0	0	7	7
072612	12:10:39	10028	Trial750Fr	IncongruentRight750	15	205	413	1	109	12:10:39	3566784	5	1	1	1	1	1	1	3	2	8	6	0	0	0	0	7	7
072612	12:10:39	10028	Trial750Fr	IncongruentLeft750	15	203	341	1	109	12:10:39	3567463	5	1	1	1	1	1	1	3	2	8	6	0	0	0	0	7	7
072612	12:10:39	10028	Trial750Fr	IncongruentRight750	15	205	411	1	109	12:10:39	3568290	5	1	1	1	1	1	1	3	2	8	6	0	0	0	0	7	7
072612	12:10:39	10028	Trial750Fr	CongruentRight750	15	0	487	0	109	12:10:39	3569103	5	1	1	1	1	1	1	3	2	8	6	0	0	0	0	7	7
072612	12:10:39	10028	Trial750Fr	CongruentRight750	15	0	487	0	109	12:10:39	3569863	5	1	1	1	1	1	1	3	2	8	6	0	0	0	0	7	7
072612	12:10:39	10028	Trial750Fr	IncongruentLeft750	15	203	385	1	109	12:10:39	3570529	5	1	1	1	1	1	1	3	2	8	6	0	0	0	0	7	7
072612	12:10:39	10028	Trial750Fr	CongruentLeft750	15	203	362	1	109	12:10:39	3571262	5	1	1	1	1	1	1	3	2	8	6	0	0	0	0	7	7
072612	12:10:39	10028	Trial750Fr	CongruentRight750	15	205	399	1	109	12:10:39	3572048	5	1	1	1	1	1	1	3	2	8	6	0	0	0	0	7	7
072612	12:10:39	10028	Trial750Fr	CongruentLeft750	15	203	341	1	109	12:10:39	3572728	5	1	1	1	1	1	1	3	2	8	6	0	0	0	0	7	7
072612	12:10:39	10028	Trial750Fr	IncongruentRight750	15	0	487	0	109	12:10:39	3573621	5	1	1	1	1	1	1	3	2	8	6	0	0	0	0	7	7
072612	12:10:39	10028	Trial750Fr	CongruentRight750	15	205	35	1	109	12:10:39	3573928	5	1	1	1	1	1	1	3	2	8	6	0	0	0	0	7	7
072612	12:10:39	10028	Trial750Fr	CongruentLeft750	15	203	379	1	109	12:10:39	3575034	5	1	1	1	1	1	1	3	2	8	6	0	0	0	0	7	7
072612	12:10:39	10028	Trial750Fr	IncongruentLeft750	15	203	433	1	109	12:10:39	3575834	5	1	1	1	1	1	1	3	2	8	6	0	0	0	0	7	7
072612	12:10:39	10028	Trial750Fr	IncongruentLeft750	15	0	487	0	109	12:10:39	3576633	5	1	1	1	1	1	1	3	2	8	6	0	0	0	0	7	7
072612	12:10:39	10028	Trial750Fr	CongruentRight750	15	205	383	1	109	12:10:39	3577286	5	1	1	1	1	1	1	3	2	8	6	0	0	0	0	7	7
072612	12:10:39	10028	Trial750Fr	IncongruentRight750	15	205	439	1	109	12:10:39	3578113	5	1	1	1	1	1	1	3	2	8	6	0	0	0	0	7	7
072612	12:10:39	10028	Trial750Fr	CongruentLeft750	15	203	428	1	109	12:10:39	3578846	5	1	1	1	1	1	1	3	2	8	6	0	0	0	0	7	7
072612	12:10:39	10028	Trial750Fr	IncongruentRight750	15	205	338	1	109	12:10:39	3579499	5	1	1	1	1	1	1	3	2	8	6	0	0	0	0	7	7
072612	12:10:39	10028	Trial750Fr	CongruentRight750	15	205	427	1	109	12:10:39	3580352	5	1	1	1	1	1	1	3	2	8	6	0	0	0	0	7	7
072612	12:10:39	10028	Trial750Fr	IncongruentLeft750	15	203	400	1	109	12:10:39	3581071	5	1	1	1	1	1	1	3	2	8	6	0	0	0	0	7	7
072612	12:10:39	10028	Trial750Fr	CongruentLeft750	15	203	422	1	109	12:10:39	3581831	5	1	1	1	1	1	1	3	2	8	6	0	0	0	0	7	7
072612	12:10:39	10028	Trial750Fr	CongruentRight750	15	205	283	1	109	12:10:39	3582444	5	1	1	1	1	1	1	3	2	8	6	0	0	0	0	7	7
072612	12:10:39	10028	Trial750Fr	IncongruentLeft750	15	203	420	1	109	12:10:39	3583337	5	1	1	1	1	1	1	3	2	8	6	0	0	0	0	7	7
072612	12:10:39	10028	Trial750Fr	CongruentRight750	15	205	409	1	109	12:10:39	3584070	5	1	1	1	1	1	1	3	2	8	6	0	0	0	0	7	7
072612	12:10:39	10028	Trial750Fr	CongruentRight750	15	205	431	1	109	12:10:39	3584843	5	1	1	1	1	1	1	3	2	8	6	0	0	0	0	7	7
072612	12:10:39	10028	Trial750Fr	IncongruentRight750	15	0	487	0	109	12:10:39	3585643	5	1	1	1	1	1	1	3	2	8	6	0	0	0	0	7	7
072612	12:10:39	10028	Trial750Fr	CongruentLeft750	15	203	413	1	109	12:10:39	3586336	5	1	1	1	1	1	1	3	2	8	6	0	0	0	0	7	7
072612	12:10:39	10028	Trial750Fr	IncongruentLeft750	15	0	487	0	109	12:10:39	3587149	5	1	1	1	1	1	1	3	2	8	6	0	0	0	0	7	7
072612	12:10:39	10028	Trial750Fr	CongruentLeft750	15	203	378	1	109	12:10:39	3587802	5	1	1	1	1	1	1	3	2	8	6	0	0	0	0	7	7
072612	12:10:39	10028	Trial750Fr	IncongruentRight750	15	205	355	1	109	12:10:39	3588535	5	1	1	1	1	1	1	3	2	8	6	0	0	0	0	7	7
072612	12:10:39	10028	Trial750Fr	IncongruentLeft750	15	203	377	1	109	12:10:39	3589308	5	1	1	1	1	1	1	3	2	8	6	0	0	0	0	7	7
072612	12:10:39	10028	Trial750Fr	CongruentRight750	15	205	382	1	109	12:10:39	3590054	5	1	1	1	1	1	1	3	2	8	6	0	0	0	0	7	7
072612	12:10:39	10028	Trial750Fr	CongruentLeft750	15	203	279	1	109	12:10:39	3590721	5	1	1	1	1	1	1	3	2	8	6	0	0	0	0	7	7
072612	12:10:39	10028	Trial750Fr	IncongruentLeft750	15	203	428	1	109	12:10:39	3591614	5	1	1	1	1	1	1	3	2	8	6	0	0	0	0	7	7
072612	12:10:39	10028	Trial750Fr	CongruentLeft750	15	203	370	1	109	12:10:39	3592293	5	1	1	1	1	1	1	3	2	8	6	0	0	0	0	7	7
072612	12:10:39	10028	Trial750Fr	IncongruentRight750	15	205	439	1	109	12:10:39	3593120	5	1	1	1	1	1	1	3	2	8	6	0	0	0	0	7	7
072612	12:10:39	10028	Trial750Fr	CongruentRight750	15	205	416	1	109	12:10:39	3593853	5	1	1	1	1	1	1	3	2	8	6	0	0	0	0	7	7
072612	12:10:39	10028	Trial750Fr	IncongruentLeft750	15	203	421	1	109	12:10:39	3594599	5	1	1	1	1	1	1	3	2	8	6	0	0	0	0	7	7
072612	12:10:39	10028	Trial750Fr	CongruentLeft750	15	203	379	1	109	12:10:39	3595306	5	1	1	1	1	1	1	3	2	8	6	0	0	0	0	7	7
072612	12:10:39	10028	Trial750Fr	IncongruentRight750	15	205	305	1	109	12:10:39	3595985	5	1	1	1	1	1	1	3	2	8	6	0	0	0	0	7	7
072612	12:10:39	10028	Trial750Fr	IncongruentLeft750	15	203	377	1	109	12:10:39	3596812	5	1	1	1	1	1	1	3	2	8	6	0	0	0	0	7	7
072612	12:10:39	10028	Trial750Fr	CongruentLeft750	15	203	398	1	109	12:10:39	3597585	5	1	1	1	1	1	1	3	2	8	6	0	0	0	0	7	7
072612	12:10:39	10028	Trial750Fr	IncongruentLeft750	15	203	420	1	109	12:10:39	3598345	5	1	1	1	1	1	1	3	2	8	6	0	0	0	0	7	7
072612	12:10:39	10028	Trial750Fr	CongruentRight750	15	205	332	1	109	12:10:39	3599024	5	1	1	1	1	1	1	3	2	8	6	0	0	0	0	7	7
072612	12:10:39	10028	Trial750Fr	CongruentLeft750	15	203	402	1	109	12:10:39	3599837	5	1	1	1	1	1	1	3	2	8	6	0	0	0	0	7	7
072612	12:10:39	10028	Trial750Fr	IncongruentRight750	15	205	328	1	109	12:10:39	3600504	5	1	1	1	1	1	1	3	2	8	6	0	0	0	0	7	7
072612	12:10:39	10028	Trial750Fr	CongruentLeft750	15	203	317	1	109	12:10:39	3601237	5	1	1	1	1	1	1	3	2	8	6	0	0	0	0	7	7
072612	12:10:39	10028	Trial750Fr	CongruentRight750	15	205	326	1	109	12:10:39	3602010	5	1	1	1	1	1	1	3	2	8	6	0	0	0	0	7	7
072612	12:10:39	10028	Trial750Fr	IncongruentLeft750	15	203	283	1	109	12:10:39	3602716	5	1	1	1	1	1	1	3	2	8	6	0	0	0	0	7	7
072612	12:10:39	10028	WordsAbsFrBaseline	PAbsFrBaseline1	16	Abs1	27846	0	109	12:10:39	3639395	5	1	1	1	1	1	1	3	2	8	6	0	0	0	0	7	7
072612	12:10:39	10028	WordsAbsFrBaseline	AbsFrBaseline1	16	Abs1	5620	0	109	12:10:39	3645060	5	1	1	1	1	1	1	3	2	8	6	1	0	0	0	7	7
072612	12:10:39	10028	WordsAbsFrBaseline	AbsFrBaseline2	16	Abs2	48251	0	109	12:10:39	3693347	5	1	1	1	1	1	1	3	2	8	6	1	0	0	0	7	7
072612	12:10:39	10028	WordsAbsFrBaseline	AbsFrBaseline3	16	Abs1	11284	0	109	12:10:39	3704676	5	1	1	1	1	1	1	3	2	8	6	2	0	0	0	7	7
072612	12:10:39	10028	Trial2BackFrS	NS	17	0	1000	1	109	12:10:39	3892055	5	1	1	1	1	1	1	3	2	8	6	2	0	0	0	7	7
072612	12:10:39	10028	Trial2BackFrS	NS	17	0	1000	1	109	12:10:39	3893575	5	1	1	1	1	1	1	3	2	8	6	2	0	0	0	7	7
072612	12:10:39	10028	Trial2BackFrS	NS	17	0	1000	1	109	12:10:39	3895094	5	1	1	1	1	1	1	3	2	8	6	2	0	0	0	7	7
072612	12:10:39	10028	Trial2BackFrS	YS	17	0	1000	0	109	12:10:39	3896613	5	1	1	1	1	1	1	3	2	8	6	2	0	0	0	7	7
072612	12:10:39	10028	Trial2BackFrS	NS	17	0	1000	1	109	12:10:39	3898133	5	1	1	1	1	1	1	3	2	8	6	2	0	0	0	7	7
072612	12:10:39	10028	Trial2BackFrS	NS	17	0	1000	1	109	12:10:39	3899652	5	1	1	1	1	1	1	3	2	8	6	2	0	0	0	7	7
072612	12:10:39	10028	Trial2BackFrS	NS	17	0	1000	1	109	12:10:39	3901172	5	1	1	1	1	1	1	3	2	8	6	2	0	0	0	7	7
072612	12:10:39	10028	Trial2BackFrS	NS	17	0	1000	1	109	12:10:39	3902691	5	1	1	1	1	1	1	3	2	8	6	2	0	0	0	7	7
072612	12:10:39	10028	Trial2BackFrS	YS	17	57	532	1	109	12:10:39	3903757	5	1	1	1	1	1	1	3	2	8	6	2	0	0	0	7	7
072612	12:10:39	10028	Trial2BackFrS	NS	17	0	1000	1	109	12:10:39	3905717	5	1	1	1	1	1	1	3	2	8	6	2	0	0	0	7	7
072612	12:10:39	10028	Trial2BackFrS	NS	17	0	1000	1	109	12:10:39	3907236	5	1	1	1	1	1	1	3	2	8	6	2	0	0	0	7	7
072612	12:10:39	10028	Trial2BackFrS	YS	17	0	1000	0	109	12:10:39	3908755	5	1	1	1	1	1	1	3	2	8	6	2	0	0	0	7	7
072612	12:10:39	10028	Trial2BackFrS	NS	17	0	1000	1	109	12:10:39	3910275	5	1	1	1	1	1	1	3	2	8	6	2	0	0	0	7	7
072612	12:10:39	10028	Trial2BackFrS	NS	17	0	1000	1	109	12:10:39	3911794	5	1	1	1	1	1	1	3	2	8	6	2	0	0	0	7	7
072612	12:10:39	10028	Trial2BackFrS	NS	17	0	1000	1	109	12:10:39	3913313	5	1	1	1	1	1	1	3	2	8	6	2	0	0	0	7	7
072612	12:10:39	10028	Trial2BackFrS	YS	17	57	613	1	109	12:10:39	3914460	5	1	1	1	1	1	1	3	2	8	6	2	0	0	0	7	7
072612	12:10:39	10028	Trial2BackFrS	NS	17	0	1000	1	109	12:10:39	3916339	5	1	1	1	1	1	1	3	2	8	6	2	0	0	0	7	7
072612	12:10:39	10028	Trial2BackFrS	NS	17	0	1000	1	109	12:10:39	3917858	5	1	1	1	1	1	1	3	2	8	6	2	0	0	0	7	7
072612	12:10:39	10028	Trial2BackFrS	NS	17	0	1000	1	109	12:10:39	3919378	5	1	1	1	1	1	1	3	2	8	6	2	0	0	0	7	7
072612	12:10:39	10028	Trial2BackFrS	NS	17	0	1000	1	109	12:10:39	3920897	5	1	1	1	1	1	1	3	2	8	6	2	0	0	0	7	7
072612	12:10:39	10028	Trial2BackFrS	YS	17	57	374	1	109	12:10:39	3921803	5	1	1	1	1	1	1	3	2	8	6	2	0	0	0	7	7
072612	12:10:39	10028	Trial2BackFrS	NS	17	0	1000	1	109	12:10:39	3923923	5	1	1	1	1	1	1	3	2	8	6	2	0	0	0	7	7
072612	12:10:39	10028	Trial2BackFrS	NS	17	0	1000	1	109	12:10:39	3925442	5	1	1	1	1	1	1	3	2	8	6	2	0	0	0	7	7
072612	12:10:39	10028	Trial2BackFrS	NS	17	0	1000	1	109	12:10:39	3926961	5	1	1	1	1	1	1	3	2	8	6	2	0	0	0	7	7
072612	12:10:39	10028	Trial2BackFrS	NS	17	57	536	0	109	12:10:39	3928041	5	1	1	1	1	1	1	3	2	8	6	2	0	0	0	7	7
072612	12:10:39	10028	Trial2BackFrS	NS	17	0	1000	1	109	12:10:39	3929987	5	1	1	1	1	1	1	3	2	8	6	2	0	0	0	7	7
072612	12:10:39	10028	Trial2BackFrS	NS	17	0	1000	1	109	12:10:39	3931506	5	1	1	1	1	1	1	3	2	8	6	2	0	0	0	7	7
072612	12:10:39	10028	Trial2BackFrS	NS	17	0	1000	1	109	12:10:39	3933026	5	1	1	1	1	1	1	3	2	8	6	2	0	0	0	7	7
072612	12:10:39	10028	Trial2BackFrS	NS	17	0	1000	1	109	12:10:39	3934545	5	1	1	1	1	1	1	3	2	8	6	2	0	0	0	7	7
072612	12:10:39	10028	Trial2BackFrS	NS	17	0	1000	1	109	12:10:39	3936065	5	1	1	1	1	1	1	3	2	8	6	2	0	0	0	7	7
072612	12:10:39	10028	Trial2BackFrS	NS	17	0	1000	1	109	12:10:39	3937584	5	1	1	1	1	1	1	3	2	8	6	2	0	0	0	7	7
072612	12:10:39	10028	Trial2BackFrS	YS	17	57	631	1	109	12:10:39	3938743	5	1	1	1	1	1	1	3	2	8	6	2	0	0	0	7	7
072612	12:10:39	10028	Trial2BackFrS	NS	17	0	1000	1	109	12:10:39	3940610	5	1	1	1	1	1	1	3	2	8	6	2	0	0	0	7	7
072612	12:10:39	10028	Trial2BackFrS	NS	17	0	1000	1	109	12:10:39	3942129	5	1	1	1	1	1	1	3	2	8	6	2	0	0	0	7	7
072612	12:10:39	10028	Trial2BackFrS	NS	17	0	1000	1	109	12:10:39	3943648	5	1	1	1	1	1	1	3	2	8	6	2	0	0	0	7	7
072612	12:10:39	10028	Trial2BackFrS	YS	17	57	471	1	109	12:10:39	3944648	5	1	1	1	1	1	1	3	2	8	6	2	0	0	0	7	7
072612	12:10:39	10028	Trial2BackFrS	NS	17	0	1000	1	109	12:10:39	3946674	5	1	1	1	1	1	1	3	2	8	6	2	0	0	0	7	7
072612	12:10:39	10028	Trial2BackFrS	NS	17	0	1000	1	109	12:10:39	3948193	5	1	1	1	1	1	1	3	2	8	6	2	0	0	0	7	7
072612	12:10:39	10028	Trial2BackFrS	NS	17	0	1000	1	109	12:10:39	3949712	5	1	1	1	1	1	1	3	2	8	6	2	0	0	0	7	7
072612	12:10:39	10028	Trial2BackFrS	NS	17	0	1000	1	109	12:10:39	3951232	5	1	1	1	1	1	1	3	2	8	6	2	0	0	0	7	7
072612	12:10:39	10028	Trial2BackFrS	NS	17	0	1000	1	109	12:10:39	3952751	5	1	1	1	1	1	1	3	2	8	6	2	0	0	0	7	7
072612	12:10:39	10028	Trial2BackFrS	NS	17	0	1000	1	109	12:10:39	3954271	5	1	1	1	1	1	1	3	2	8	6	2	0	0	0	7	7
072612	12:10:39	10028	Trial2BackFrS	NS	17	0	1000	1	109	12:10:39	3955790	5	1	1	1	1	1	1	3	2	8	6	2	0	0	0	7	7
072612	12:10:39	10028	Trial2BackFrS	YS	17	57	649	1	109	12:10:39	3956963	5	1	1	1	1	1	1	3	2	8	6	2	0	0	0	7	7
072612	12:10:39	10028	Trial2BackFrS	NS	17	0	1000	1	109	12:10:39	3958816	5	1	1	1	1	1	1	3	2	8	6	2	0	0	0	7	7
072612	12:10:39	10028	Trial2BackFrS	NS	17	0	1000	1	109	12:10:39	3960335	5	1	1	1	1	1	1	3	2	8	6	2	0	0	0	7	7
072612	12:10:39	10028	Trial2BackFrS	NS	17	0	1000	1	109	12:10:39	3961854	5	1	1	1	1	1	1	3	2	8	6	2	0	0	0	7	7
072612	12:10:39	10028	Trial2BackFrS	NS	17	0	1000	1	109	12:10:39	3963374	5	1	1	1	1	1	1	3	2	8	6	2	0	0	0	7	7
072612	12:10:39	10028	Trial2BackFrS	YS	17	57	393	1	109	12:10:39	3964293	5	1	1	1	1	1	1	3	2	8	6	2	0	0	0	7	7
072612	12:10:39	10028	Trial2BackFrS	NS	17	0	1000	1	109	12:10:39	3966399	5	1	1	1	1	1	1	3	2	8	6	2	0	0	0	7	7
072612	12:10:39	10028	Trial2BackFrS	NS	17	0	1000	1	109	12:10:39	3967919	5	1	1	1	1	1	1	3	2	8	6	2	0	0	0	7	7
072612	12:10:39	10028	Trial2BackFrS	NS	17	0	1000	1	109	12:10:39	3969438	5	1	1	1	1	1	1	3	2	8	6	2	0	0	0	7	7
072612	12:10:39	10028	Trial2BackFrS	NS	17	0	1000	1	109	12:10:39	3970957	5	1	1	1	1	1	1	3	2	8	6	2	0	0	0	7	7
072612	12:10:39	10028	Trial2BackFrS	NS	17	0	1000	1	109	12:10:39	3972477	5	1	1	1	1	1	1	3	2	8	6	2	0	0	0	7	7
072612	12:10:39	10028	Trial2BackFrS	NS	17	0	1000	1	109	12:10:39	3973996	5	1	1	1	1	1	1	3	2	8	6	2	0	0	0	7	7
072612	12:10:39	10028	Trial2BackFrS	YS	17	57	426	1	109	12:10:39	3974956	5	1	1	1	1	1	1	3	2	8	6	2	0	0	0	7	7
072612	12:10:39	10028	Trial2BackFrS	NS	17	0	1000	1	109	12:10:39	3977022	5	1	1	1	1	1	1	3	2	8	6	2	0	0	0	7	7
072612	12:10:39	10028	Trial2BackFrS	NS	17	0	1000	1	109	12:10:39	3978541	5	1	1	1	1	1	1	3	2	8	6	2	0	0	0	7	7
072612	12:10:39	10028	Trial2BackFrS	NS	17	0	1000	1	109	12:10:39	3980061	5	1	1	1	1	1	1	3	2	8	6	2	0	0	0	7	7
072612	12:10:39	10028	Trial2BackFrS	NS	17	0	1000	1	109	12:10:39	3981580	5	1	1	1	1	1	1	3	2	8	6	2	0	0	0	7	7
072612	12:10:39	10028	Trial2BackFrS	NS	17	0	1000	1	109	12:10:39	3983100	5	1	1	1	1	1	1	3	2	8	6	2	0	0	0	7	7
072612	12:10:39	10028	Trial2BackFrS	NS	17	0	1000	1	109	12:10:39	3984619	5	1	1	1	1	1	1	3	2	8	6	2	0	0	0	7	7
072612	12:10:39	10028	Trial2BackFrS	NS	17	0	1000	1	109	12:10:39	3986138	5	1	1	1	1	1	1	3	2	8	6	2	0	0	0	7	7
072612	12:10:39	10028	Trial2BackFrS	YS	17	57	460	1	109	12:10:39	3987124	5	1	1	1	1	1	1	3	2	8	6	2	0	0	0	7	7
072612	12:10:39	10028	Trial2BackFrS	NS	17	0	1000	1	109	12:10:39	3989164	5	1	1	1	1	1	1	3	2	8	6	2	0	0	0	7	7
072612	12:10:39	10028	Trial2BackFrS	NS	17	0	1000	1	109	12:10:39	3990683	5	1	1	1	1	1	1	3	2	8	6	2	0	0	0	7	7
072612	12:10:39	10028	Trial2BackFrS	NS	17	0	1000	1	109	12:10:39	3992202	5	1	1	1	1	1	1	3	2	8	6	2	0	0	0	7	7
072612	12:10:39	10028	Trial2BackFrS	NS	17	0	1000	1	109	12:10:39	3993722	5	1	1	1	1	1	1	3	2	8	6	2	0	0	0	7	7
072612	12:10:39	10028	Trial2BackFrS	YS	17	0	1000	0	109	12:10:39	3995241	5	1	1	1	1	1	1	3	2	8	6	2	0	0	0	7	7
072612	12:10:39	10028	Trial2BackFrS	NS	17	0	1000	1	109	12:10:39	3996761	5	1	1	1	1	1	1	3	2	8	6	2	0	0	0	7	7
072612	12:10:39	10028	Trial2BackFrS	NS	17	0	1000	1	109	12:10:39	3998280	5	1	1	1	1	1	1	3	2	8	6	2	0	0	0	7	7
072612	12:10:39	10028	Trial2BackFrS	YS	17	57	462	1	109	12:10:39	3999266	5	1	1	1	1	1	1	3	2	8	6	2	0	0	0	7	7
072612	12:10:39	10028	Trial2BackFrS	NS	17	0	1000	1	109	12:10:39	4001305	5	1	1	1	1	1	1	3	2	8	6	2	0	0	0	7	7
072612	12:10:39	10028	Trial2BackFrS	NS	17	0	1000	1	109	12:10:39	4002825	5	1	1	1	1	1	1	3	2	8	6	2	0	0	0	7	7
072612	12:10:39	10028	Trial2BackFrS	NS	17	0	1000	1	109	12:10:39	4004344	5	1	1	1	1	1	1	3	2	8	6	2	0	0	0	7	7
072612	12:10:39	10028	Trial2BackFrS	NS	17	0	1000	1	109	12:10:39	4005864	5	1	1	1	1	1	1	3	2	8	6	2	0	0	0	7	7
072612	12:10:39	10028	Trial2BackFrS	NS	17	0	1000	1	109	12:10:39	4007383	5	1	1	1	1	1	1	3	2	8	6	2	0	0	0	7	7
072612	12:10:39	10028	Trial2BackFrS	NS	17	0	1000	1	109	12:10:39	4008902	5	1	1	1	1	1	1	3	2	8	6	2	0	0	0	7	7
072612	12:10:39	10028	Trial2BackFrS	YS	17	57	399	1	109	12:10:39	4009835	5	1	1	1	1	1	1	3	2	8	6	2	0	0	0	7	7
072612	12:10:39	10028	Trial2BackFrS	NS	17	0	1000	1	109	12:10:39	4011928	5	1	1	1	1	1	1	3	2	8	6	2	0	0	0	7	7
072612	12:10:39	10028	Trial2BackFrS	NS	17	0	1000	1	109	12:10:39	4013447	5	1	1	1	1	1	1	3	2	8	6	2	0	0	0	7	7
072612	12:10:39	10028	Trial2BackFrS	NS	17	0	1000	1	109	12:10:39	4014967	5	1	1	1	1	1	1	3	2	8	6	2	0	0	0	7	7
072612	12:10:39	10028	Trial2BackFrS	NS	17	0	1000	1	109	12:10:39	4016486	5	1	1	1	1	1	1	3	2	8	6	2	0	0	0	7	7
072612	12:10:39	10028	Trial2BackFrS	YS	17	57	720	1	109	12:10:39	4017739	5	1	1	1	1	1	1	3	2	8	6	2	0	0	0	7	7
072612	12:10:39	10028	Trial2BackFrS	NS	17	0	1000	1	109	12:10:39	4019512	5	1	1	1	1	1	1	3	2	8	6	2	0	0	0	7	7
072612	12:10:39	10028	Trial2BackFrS	NS	17	57	702	0	109	12:10:39	4020738	5	1	1	1	1	1	1	3	2	8	6	2	0	0	0	7	7
072612	12:10:39	10028	Trial2BackFrS	NS	17	0	1000	1	109	12:10:39	4022537	5	1	1	1	1	1	1	3	2	8	6	2	0	0	0	7	7
072612	12:10:39	10028	Trial2BackFrS	NS	17	0	1000	1	109	12:10:39	4024057	5	1	1	1	1	1	1	3	2	8	6	2	0	0	0	7	7
072612	12:10:39	10028	Trial2BackFrS	YS	17	0	1000	0	109	12:10:39	4025576	5	1	1	1	1	1	1	3	2	8	6	2	0	0	0	7	7
072612	12:10:39	10028	Trial2BackFrS	NS	17	0	1000	1	109	12:10:39	4027096	5	1	1	1	1	1	1	3	2	8	6	2	0	0	0	7	7
072612	12:10:39	10028	Trial2BackFrS	NS	17	0	1000	1	109	12:10:39	4028615	5	1	1	1	1	1	1	3	2	8	6	2	0	0	0	7	7
072612	12:10:39	10028	Trial2BackFrS	YS	17	57	527	1	109	12:10:39	4029668	5	1	1	1	1	1	1	3	2	8	6	2	0	0	0	7	7
072612	12:10:39	10028	Trial2BackFrS	NS	17	0	1000	1	109	12:10:39	4031640	5	1	1	1	1	1	1	3	2	8	6	2	0	0	0	7	7
072612	12:10:39	10028	Trial2BackFrS	NS	17	0	1000	1	109	12:10:39	4033160	5	1	1	1	1	1	1	3	2	8	6	2	0	0	0	7	7
072612	12:10:39	10028	Trial2BackFrS	NS	17	0	1000	1	109	12:10:39	4034679	5	1	1	1	1	1	1	3	2	8	6	2	0	0	0	7	7
072612	12:10:39	10028	Trial2BackFrS	NS	17	0	1000	1	109	12:10:39	4036199	5	1	1	1	1	1	1	3	2	8	6	2	0	0	0	7	7
072612	12:10:39	10028	Trial2BackFrS	NS	17	0	1000	1	109	12:10:39	4037718	5	1	1	1	1	1	1	3	2	8	6	2	0	0	0	7	7
072612	12:10:39	10028	Trial2BackFrS	NS	17	0	1000	1	109	12:10:39	4039237	5	1	1	1	1	1	1	3	2	8	6	2	0	0	0	7	7
072612	12:10:39	10028	Trial2BackFrS	NS	17	0	1000	1	109	12:10:39	4040757	5	1	1	1	1	1	1	3	2	8	6	2	0	0	0	7	7
072612	12:10:39	10028	Trial2BackFrS	NS	17	0	1000	1	109	12:10:39	4042276	5	1	1	1	1	1	1	3	2	8	6	2	0	0	0	7	7
072612	12:10:39	10028	Trial2BackFrS	YS	17	57	562	1	109	12:10:39	4043369	5	1	1	1	1	1	1	3	2	8	6	2	0	0	0	7	7
072612	12:10:39	10028	Trial2BackFrS	NS	17	0	1000	1	109	12:10:39	4045302	5	1	1	1	1	1	1	3	2	8	6	2	0	0	0	7	7
072612	12:10:39	10028	Trial2BackFrS	NS	17	0	1000	1	109	12:10:39	4046821	5	1	1	1	1	1	1	3	2	8	6	2	0	0	0	7	7
072612	12:10:39	10028	Trial2BackFrS	NS	17	0	1000	1	109	12:10:39	4048340	5	1	1	1	1	1	1	3	2	8	6	2	0	0	0	7	7
072612	12:10:39	10028	Trial2BackFrS	NS	17	0	1000	1	109	12:10:39	4049860	5	1	1	1	1	1	1	3	2	8	6	2	0	0	0	7	7
072612	12:10:39	10028	Trial2BackFrS	NS	17	0	1000	1	109	12:10:39	4051379	5	1	1	1	1	1	1	3	2	8	6	2	0	0	0	7	7
072612	12:10:39	10028	Trial2BackFrS	NS	17	0	1000	1	109	12:10:39	4052898	5	1	1	1	1	1	1	3	2	8	6	2	0	0	0	7	7
072612	12:10:39	10028	Trial2BackFrS	NS	17	0	1000	1	109	12:10:39	4054418	5	1	1	1	1	1	1	3	2	8	6	2	0	0	0	7	7
072612	12:10:39	10028	Trial2BackFrS	YS	17	57	787	1	109	12:10:39	4055737	5	1	1	1	1	1	1	3	2	8	6	2	0	0	0	7	7
072612	12:10:39	10028	Trial2BackFrS	NS	17	0	1000	1	109	12:10:39	4057444	5	1	1	1	1	1	1	3	2	8	6	2	0	0	0	7	7
072612	12:10:39	10028	Trial2BackFrS	NS	17	0	1000	1	109	12:10:39	4058963	5	1	1	1	1	1	1	3	2	8	6	2	0	0	0	7	7
072612	12:10:39	10028	Trial2BackFrS	NS	17	0	1000	1	109	12:10:39	4060482	5	1	1	1	1	1	1	3	2	8	6	2	0	0	0	7	7
072612	12:10:39	10028	Trial2BackFrS	NS	17	0	1000	1	109	12:10:39	4062002	5	1	1	1	1	1	1	3	2	8	6	2	0	0	0	7	7
072612	12:10:39	10028	Trial2BackFrS	NS	17	0	1000	1	109	12:10:39	4063521	5	1	1	1	1	1	1	3	2	8	6	2	0	0	0	7	7
072612	12:10:39	10028	Trial2BackFrS	NS	17	0	1000	1	109	12:10:39	4065040	5	1	1	1	1	1	1	3	2	8	6	2	0	0	0	7	7
072612	12:10:39	10028	Trial2BackFrS	NS	17	0	1000	1	109	12:10:39	4066560	5	1	1	1	1	1	1	3	2	8	6	2	0	0	0	7	7
072612	12:10:39	10028	Trial2BackFrS	NS	17	0	1000	1	109	12:10:39	4068079	5	1	1	1	1	1	1	3	2	8	6	2	0	0	0	7	7
072612	12:10:39	10028	Trial2BackFrS	NS	17	0	1000	1	109	12:10:39	4069599	5	1	1	1	1	1	1	3	2	8	6	2	0	0	0	7	7
072612	12:10:39	10028	Trial2BackFrS	YS	17	57	678	1	109	12:10:39	4070798	5	1	1	1	1	1	1	3	2	8	6	2	0	0	0	7	7
072612	12:10:39	10028	Trial2BackFrS	NS	17	0	1000	1	109	12:10:39	4072624	5	1	1	1	1	1	1	3	2	8	6	2	0	0	0	7	7
072612	12:10:39	10028	Trial3BackFrS	NNS	18	0	1000	1	109	12:10:39	4123777	5	1	1	1	1	1	1	3	2	8	6	2	0	0	0	7	7
072612	12:10:39	10028	Trial3BackFrS	NNS	18	0	1000	1	109	12:10:39	4125296	5	1	1	1	1	1	1	3	2	8	6	2	0	0	0	7	7
072612	12:10:39	10028	Trial3BackFrS	NNS	18	0	1000	1	109	12:10:39	4126816	5	1	1	1	1	1	1	3	2	8	6	2	0	0	0	7	7
072612	12:10:39	10028	Trial3BackFrS	YYS	18	57	388	1	109	12:10:39	4127736	5	1	1	1	1	1	1	3	2	8	6	2	0	0	0	7	7
072612	12:10:39	10028	Trial3BackFrS	NNS	18	0	1000	1	109	12:10:39	4129841	5	1	1	1	1	1	1	3	2	8	6	2	0	0	0	7	7
072612	12:10:39	10028	Trial3BackFrS	NNS	18	0	1000	1	109	12:10:39	4131361	5	1	1	1	1	1	1	3	2	8	6	2	0	0	0	7	7
072612	12:10:39	10028	Trial3BackFrS	NNS	18	0	1000	1	109	12:10:39	4132880	5	1	1	1	1	1	1	3	2	8	6	2	0	0	0	7	7
072612	12:10:39	10028	Trial3BackFrS	NNS	18	0	1000	1	109	12:10:39	4134400	5	1	1	1	1	1	1	3	2	8	6	2	0	0	0	7	7
072612	12:10:39	10028	Trial3BackFrS	YYS	18	0	1000	0	109	12:10:39	4135919	5	1	1	1	1	1	1	3	2	8	6	2	0	0	0	7	7
072612	12:10:39	10028	Trial3BackFrS	NNS	18	0	1000	1	109	12:10:39	4137438	5	1	1	1	1	1	1	3	2	8	6	2	0	0	0	7	7
072612	12:10:39	10028	Trial3BackFrS	NNS	18	0	1000	1	109	12:10:39	4138958	5	1	1	1	1	1	1	3	2	8	6	2	0	0	0	7	7
072612	12:10:39	10028	Trial3BackFrS	NNS	18	0	1000	1	109	12:10:39	4140477	5	1	1	1	1	1	1	3	2	8	6	2	0	0	0	7	7
072612	12:10:39	10028	Trial3BackFrS	NNS	18	0	1000	1	109	12:10:39	4141997	5	1	1	1	1	1	1	3	2	8	6	2	0	0	0	7	7
072612	12:10:39	10028	Trial3BackFrS	NNS	18	57	647	0	109	12:10:39	4143169	5	1	1	1	1	1	1	3	2	8	6	2	0	0	0	7	7
072612	12:10:39	10028	Trial3BackFrS	NNS	18	0	1000	1	109	12:10:39	4145022	5	1	1	1	1	1	1	3	2	8	6	2	0	0	0	7	7
072612	12:10:39	10028	Trial3BackFrS	NNS	18	0	1000	1	109	12:10:39	4146542	5	1	1	1	1	1	1	3	2	8	6	2	0	0	0	7	7
072612	12:10:39	10028	Trial3BackFrS	YYS	18	0	1000	0	109	12:10:39	4148061	5	1	1	1	1	1	1	3	2	8	6	2	0	0	0	7	7
072612	12:10:39	10028	Trial3BackFrS	NNS	18	57	871	0	109	12:10:39	4149460	5	1	1	1	1	1	1	3	2	8	6	2	0	0	0	7	7
072612	12:10:39	10028	Trial3BackFrS	NNS	18	0	1000	1	109	12:10:39	4151086	5	1	1	1	1	1	1	3	2	8	6	2	0	0	0	7	7
072612	12:10:39	10028	Trial3BackFrS	NNS	18	0	1000	1	109	12:10:39	4152606	5	1	1	1	1	1	1	3	2	8	6	2	0	0	0	7	7
072612	12:10:39	10028	Trial3BackFrS	NNS	18	0	1000	1	109	12:10:39	4154125	5	1	1	1	1	1	1	3	2	8	6	2	0	0	0	7	7
072612	12:10:39	10028	Trial3BackFrS	NNS	18	0	1000	1	109	12:10:39	4155645	5	1	1	1	1	1	1	3	2	8	6	2	0	0	0	7	7
072612	12:10:39	10028	Trial3BackFrS	YYS	18	0	1000	0	109	12:10:39	4157164	5	1	1	1	1	1	1	3	2	8	6	2	0	0	0	7	7
072612	12:10:39	10028	Trial3BackFrS	NNS	18	0	1000	1	109	12:10:39	4158683	5	1	1	1	1	1	1	3	2	8	6	2	0	0	0	7	7
072612	12:10:39	10028	Trial3BackFrS	NNS	18	0	1000	1	109	12:10:39	4160203	5	1	1	1	1	1	1	3	2	8	6	2	0	0	0	7	7
072612	12:10:39	10028	Trial3BackFrS	NNS	18	0	1000	1	109	12:10:39	4161722	5	1	1	1	1	1	1	3	2	8	6	2	0	0	0	7	7
072612	12:10:39	10028	Trial3BackFrS	YYS	18	57	633	1	109	12:10:39	4162882	5	1	1	1	1	1	1	3	2	8	6	2	0	0	0	7	7
072612	12:10:39	10028	Trial3BackFrS	NNS	18	0	1000	1	109	12:10:39	4164748	5	1	1	1	1	1	1	3	2	8	6	2	0	0	0	7	7
072612	12:10:39	10028	Trial3BackFrS	NNS	18	0	1000	1	109	12:10:39	4166267	5	1	1	1	1	1	1	3	2	8	6	2	0	0	0	7	7
072612	12:10:39	10028	Trial3BackFrS	NNS	18	0	1000	1	109	12:10:39	4167786	5	1	1	1	1	1	1	3	2	8	6	2	0	0	0	7	7
072612	12:10:39	10028	Trial3BackFrS	YYS	18	57	569	1	109	12:10:39	4168879	5	1	1	1	1	1	1	3	2	8	6	2	0	0	0	7	7
072612	12:10:39	10028	Trial3BackFrS	NNS	18	0	1000	1	109	12:10:39	4170812	5	1	1	1	1	1	1	3	2	8	6	2	0	0	0	7	7
072612	12:10:39	10028	Trial3BackFrS	NNS	18	0	1000	1	109	12:10:39	4172331	5	1	1	1	1	1	1	3	2	8	6	2	0	0	0	7	7
072612	12:10:39	10028	Trial3BackFrS	NNS	18	0	1000	1	109	12:10:39	4173851	5	1	1	1	1	1	1	3	2	8	6	2	0	0	0	7	7
072612	12:10:39	10028	Trial3BackFrS	NNS	18	0	1000	1	109	12:10:39	4175370	5	1	1	1	1	1	1	3	2	8	6	2	0	0	0	7	7
072612	12:10:39	10028	Trial3BackFrS	NNS	18	0	1000	1	109	12:10:39	4176890	5	1	1	1	1	1	1	3	2	8	6	2	0	0	0	7	7
072612	12:10:39	10028	Trial3BackFrS	NNS	18	0	1000	1	109	12:10:39	4178409	5	1	1	1	1	1	1	3	2	8	6	2	0	0	0	7	7
072612	12:10:39	10028	Trial3BackFrS	NNS	18	0	1000	1	109	12:10:39	4179928	5	1	1	1	1	1	1	3	2	8	6	2	0	0	0	7	7
072612	12:10:39	10028	Trial3BackFrS	NNS	18	0	1000	1	109	12:10:39	4181448	5	1	1	1	1	1	1	3	2	8	6	2	0	0	0	7	7
072612	12:10:39	10028	Trial3BackFrS	NNS	18	0	1000	1	109	12:10:39	4182967	5	1	1	1	1	1	1	3	2	8	6	2	0	0	0	7	7
072612	12:10:39	10028	Trial3BackFrS	NNS	18	0	1000	1	109	12:10:39	4184487	5	1	1	1	1	1	1	3	2	8	6	2	0	0	0	7	7
072612	12:10:39	10028	Trial3BackFrS	YYS	18	57	717	1	109	12:10:39	4185726	5	1	1	1	1	1	1	3	2	8	6	2	0	0	0	7	7
072612	12:10:39	10028	Trial3BackFrS	NNS	18	0	1000	1	109	12:10:39	4187512	5	1	1	1	1	1	1	3	2	8	6	2	0	0	0	7	7
072612	12:10:39	10028	Trial3BackFrS	NNS	18	0	1000	1	109	12:10:39	4189031	5	1	1	1	1	1	1	3	2	8	6	2	0	0	0	7	7
072612	12:10:39	10028	Trial3BackFrS	NNS	18	0	1000	1	109	12:10:39	4190551	5	1	1	1	1	1	1	3	2	8	6	2	0	0	0	7	7
072612	12:10:39	10028	Trial3BackFrS	NNS	18	0	1000	1	109	12:10:39	4192070	5	1	1	1	1	1	1	3	2	8	6	2	0	0	0	7	7
072612	12:10:39	10028	Trial3BackFrS	YYS	18	0	1000	0	109	12:10:39	4193590	5	1	1	1	1	1	1	3	2	8	6	2	0	0	0	7	7
072612	12:10:39	10028	Trial3BackFrS	NNS	18	57	590	0	109	12:10:39	4194709	5	1	1	1	1	1	1	3	2	8	6	2	0	0	0	7	7
072612	12:10:39	10028	Trial3BackFrS	NNS	18	0	1000	1	109	12:10:39	4196615	5	1	1	1	1	1	1	3	2	8	6	2	0	0	0	7	7
072612	12:10:39	10028	Trial3BackFrS	NNS	18	0	1000	1	109	12:10:39	4198135	5	1	1	1	1	1	1	3	2	8	6	2	0	0	0	7	7
072612	12:10:39	10028	Trial3BackFrS	NNS	18	0	1000	1	109	12:10:39	4199654	5	1	1	1	1	1	1	3	2	8	6	2	0	0	0	7	7
072612	12:10:39	10028	Trial3BackFrS	NNS	18	0	1000	1	109	12:10:39	4201173	5	1	1	1	1	1	1	3	2	8	6	2	0	0	0	7	7
072612	12:10:39	10028	Trial3BackFrS	YYS	18	57	606	1	109	12:10:39	4202306	5	1	1	1	1	1	1	3	2	8	6	2	0	0	0	7	7
072612	12:10:39	10028	Trial3BackFrS	NNS	18	0	1000	1	109	12:10:39	4204199	5	1	1	1	1	1	1	3	2	8	6	2	0	0	0	7	7
072612	12:10:39	10028	Trial3BackFrS	NNS	18	0	1000	1	109	12:10:39	4205718	5	1	1	1	1	1	1	3	2	8	6	2	0	0	0	7	7
072612	12:10:39	10028	Trial3BackFrS	NNS	18	0	1000	1	109	12:10:39	4207238	5	1	1	1	1	1	1	3	2	8	6	2	0	0	0	7	7
072612	12:10:39	10028	Trial3BackFrS	NNS	18	0	1000	1	109	12:10:39	4208757	5	1	1	1	1	1	1	3	2	8	6	2	0	0	0	7	7
072612	12:10:39	10028	Trial3BackFrS	NNS	18	0	1000	1	109	12:10:39	4210276	5	1	1	1	1	1	1	3	2	8	6	2	0	0	0	7	7
072612	12:10:39	10028	Trial3BackFrS	NNS	18	0	1000	1	109	12:10:39	4211809	5	1	1	1	1	1	1	3	2	8	6	2	0	0	0	7	7
072612	12:10:39	10028	Trial3BackFrS	YYS	18	0	1000	0	109	12:10:39	4213329	5	1	1	1	1	1	1	3	2	8	6	2	0	0	0	7	7
072612	12:10:39	10028	Trial3BackFrS	NNS	18	0	1000	1	109	12:10:39	4214848	5	1	1	1	1	1	1	3	2	8	6	2	0	0	0	7	7
072612	12:10:39	10028	Trial3BackFrS	NNS	18	0	1000	1	109	12:10:39	4216367	5	1	1	1	1	1	1	3	2	8	6	2	0	0	0	7	7
072612	12:10:39	10028	Trial3BackFrS	NNS	18	0	1000	1	109	12:10:39	4217887	5	1	1	1	1	1	1	3	2	8	6	2	0	0	0	7	7
