date	time	subject	blockcode	trialcode	values.TaskNumber	response	latency	correct	values.Score	script.starttime	script.elapsedtime	values.ScoreS7	values.Word1	values.Word2	values.Word3	values.Word4	values.Word5	values.Word6	values.Word7	values.Word8	values.DigitSpanFwrd	values.DigitSpanBack	values.ScoreAbs	values.Contour	values.Numbers	values.Hands	values.corsiblockspanFwrd	values.corsiblockspanRev
083012	12:48:38	10038	Language	Language	0	English	12054	0	0	12:48:38	12170	0	0	0	0	0	0	0	0	0	0	0	0	0	0	0	0	0
083012	12:48:38	10038	Session	Session	0	Baseline	708	0	0	12:48:38	12956	0	0	0	0	0	0	0	0	0	0	0	0	0	0	0	0	0
083012	12:48:38	10038	HandEng	HandEng	0	Right	732519	0	0	12:48:38	745561	0	0	0	0	0	0	0	0	0	0	0	0	0	0	0	0	0
083012	12:48:38	10038	CubeEng	CubeEng	1	1Cube	33414	0	0	12:48:38	802338	0	0	0	0	0	0	0	0	0	0	0	0	0	0	0	0	0
083012	12:48:38	10038	pm.simpleEngRight	blank.simpleEng	2	0	1887	1	0	12:48:38	847386	0	0	0	0	0	0	0	0	0	0	0	0	0	0	0	0	0
083012	12:48:38	10038	pm.simpleEngRight	pm.simpleEng	2	57	3004	0	0	12:48:38	850425	0	0	0	0	0	0	0	0	0	0	0	0	0	0	0	0	0
083012	12:48:38	10038	pm.simpleEngRight	blank.simpleEng	2	0	2287	1	0	12:48:38	852731	0	0	0	0	0	0	0	0	0	0	0	0	0	0	0	0	0
083012	12:48:38	10038	pm.simpleEngRight	pm.simpleEng	2	57	1132	0	0	12:48:38	853904	0	0	0	0	0	0	0	0	0	0	0	0	0	0	0	0	0
083012	12:48:38	10038	pm.simpleEngRight	blank.simpleEng	2	0	2087	1	0	12:48:38	856009	0	0	0	0	0	0	0	0	0	0	0	0	0	0	0	0	0
083012	12:48:38	10038	pm.simpleEngRight	pm.simpleEng	2	57	397	0	0	12:48:38	856449	0	0	0	0	0	0	0	0	0	0	0	0	0	0	0	0	0
083012	12:48:38	10038	pm.simpleEngRight	blank.simpleEng	2	0	2487	1	0	12:48:38	858955	0	0	0	0	0	0	0	0	0	0	0	0	0	0	0	0	0
083012	12:48:38	10038	pm.simpleEngRight	pm.simpleEng	2	57	267	0	0	12:48:38	859262	0	0	0	0	0	0	0	0	0	0	0	0	0	0	0	0	0
083012	12:48:38	10038	pm.simpleEngRight	blank.simpleEng	2	0	2187	1	0	12:48:38	861474	0	0	0	0	0	0	0	0	0	0	0	0	0	0	0	0	0
083012	12:48:38	10038	pm.simpleEngRight	pm.simpleEng	2	57	372	0	0	12:48:38	861887	0	0	0	0	0	0	0	0	0	0	0	0	0	0	0	0	0
083012	12:48:38	10038	pm.simpleEngRight	blank.simpleEng	2	0	1687	1	0	12:48:38	863607	0	0	0	0	0	0	0	0	0	0	0	0	0	0	0	0	0
083012	12:48:38	10038	pm.simpleEngRight	pm.simpleEng	2	57	480	0	0	12:48:38	864126	0	0	0	0	0	0	0	0	0	0	0	0	0	0	0	0	0
083012	12:48:38	10038	pm.simpleEngRight	blank.simpleEng	2	0	1987	1	0	12:48:38	866139	0	0	0	0	0	0	0	0	0	0	0	0	0	0	0	0	0
083012	12:48:38	10038	pm.simpleEngRight	pm.simpleEng	2	57	251	0	0	12:48:38	866432	0	0	0	0	0	0	0	0	0	0	0	0	0	0	0	0	0
083012	12:48:38	10038	pm.simpleEngRight	blank.simpleEng	2	0	1587	1	0	12:48:38	868045	0	0	0	0	0	0	0	0	0	0	0	0	0	0	0	0	0
083012	12:48:38	10038	pm.simpleEngRight	pm.simpleEng	2	57	153	0	0	12:48:38	868232	0	0	0	0	0	0	0	0	0	0	0	0	0	0	0	0	0
083012	12:48:38	10038	pm.simpleEngRight	blank.simpleEng	2	57	1759	0	0	12:48:38	871030	0	0	0	0	0	0	0	0	0	0	0	0	0	0	0	0	0
083012	12:48:38	10038	pm.simpleEngRight	blank.simpleEng	2	0	1487	1	0	12:48:38	872536	0	0	0	0	0	0	0	0	0	0	0	0	0	0	0	0	0
083012	12:48:38	10038	pm.simpleEngRight	pm.simpleEng	2	57	254	0	0	12:48:38	872830	0	0	0	0	0	0	0	0	0	0	0	0	0	0	0	0	0
083012	12:48:38	10038	pm.simpleEngRight	blank.simpleEng	2	0	2387	1	0	12:48:38	875242	0	0	0	0	0	0	0	0	0	0	0	0	0	0	0	0	0
083012	12:48:38	10038	pm.simpleEngRight	pm.simpleEng	2	57	348	0	0	12:48:38	875629	0	0	0	0	0	0	0	0	0	0	0	0	0	0	0	0	0
083012	12:48:38	10038	pm.simpleEngRight	blank.simpleEng	2	0	2487	1	0	12:48:38	878148	0	0	0	0	0	0	0	0	0	0	0	0	0	0	0	0	0
083012	12:48:38	10038	pm.simpleEngRight	pm.simpleEng	2	57	243	0	0	12:48:38	878427	0	0	0	0	0	0	0	0	0	0	0	0	0	0	0	0	0
083012	12:48:38	10038	pm.simpleEngRight	blank.simpleEng	2	0	2287	1	0	12:48:38	880747	0	0	0	0	0	0	0	0	0	0	0	0	0	0	0	0	0
083012	12:48:38	10038	pm.simpleEngRight	pm.simpleEng	2	57	220	0	0	12:48:38	881000	0	0	0	0	0	0	0	0	0	0	0	0	0	0	0	0	0
083012	12:48:38	10038	pm.simpleEngRight	blank.simpleEng	2	0	2187	1	0	12:48:38	883212	0	0	0	0	0	0	0	0	0	0	0	0	0	0	0	0	0
083012	12:48:38	10038	pm.simpleEngRight	pm.simpleEng	2	57	234	0	0	12:48:38	883479	0	0	0	0	0	0	0	0	0	0	0	0	0	0	0	0	0
083012	12:48:38	10038	pm.simpleEngRight	blank.simpleEng	2	0	1687	1	0	12:48:38	885198	0	0	0	0	0	0	0	0	0	0	0	0	0	0	0	0	0
083012	12:48:38	10038	pm.simpleEngRight	pm.simpleEng	2	57	376	0	0	12:48:38	885611	0	0	0	0	0	0	0	0	0	0	0	0	0	0	0	0	0
083012	12:48:38	10038	pm.simpleEngRight	blank.simpleEng	2	0	1787	1	0	12:48:38	887424	0	0	0	0	0	0	0	0	0	0	0	0	0	0	0	0	0
083012	12:48:38	10038	pm.simpleEngRight	pm.simpleEng	2	57	230	0	0	12:48:38	887691	0	0	0	0	0	0	0	0	0	0	0	0	0	0	0	0	0
083012	12:48:38	10038	pm.simpleEngRight	blank.simpleEng	2	0	1887	1	0	12:48:38	889610	0	0	0	0	0	0	0	0	0	0	0	0	0	0	0	0	0
083012	12:48:38	10038	pm.simpleEngRight	pm.simpleEng	2	57	236	0	0	12:48:38	889876	0	0	0	0	0	0	0	0	0	0	0	0	0	0	0	0	0
083012	12:48:38	10038	pm.simpleEngRight	blank.simpleEng	2	0	2087	1	0	12:48:38	891995	0	0	0	0	0	0	0	0	0	0	0	0	0	0	0	0	0
083012	12:48:38	10038	pm.simpleEngRight	pm.simpleEng	2	57	234	0	0	12:48:38	892262	0	0	0	0	0	0	0	0	0	0	0	0	0	0	0	0	0
083012	12:48:38	10038	pm.simpleEngRight	blank.simpleEng	2	0	1987	1	0	12:48:38	894275	0	0	0	0	0	0	0	0	0	0	0	0	0	0	0	0	0
083012	12:48:38	10038	pm.simpleEngRight	pm.simpleEng	2	57	83	0	0	12:48:38	894394	0	0	0	0	0	0	0	0	0	0	0	0	0	0	0	0	0
083012	12:48:38	10038	pm.simpleEngRight	blank.simpleEng	2	0	1487	1	0	12:48:38	895900	0	0	0	0	0	0	0	0	0	0	0	0	0	0	0	0	0
083012	12:48:38	10038	pm.simpleEngRight	pm.simpleEng	2	57	249	0	0	12:48:38	896180	0	0	0	0	0	0	0	0	0	0	0	0	0	0	0	0	0
083012	12:48:38	10038	pm.simpleEngRight	blank.simpleEng	2	0	1587	1	0	12:48:38	897793	0	0	0	0	0	0	0	0	0	0	0	0	0	0	0	0	0
083012	12:48:38	10038	pm.simpleEngRight	pm.simpleEng	2	57	213	0	0	12:48:38	898046	0	0	0	0	0	0	0	0	0	0	0	0	0	0	0	0	0
083012	12:48:38	10038	pm.simpleEngRight	blank.simpleEng	2	0	2387	1	0	12:48:38	900459	0	0	0	0	0	0	0	0	0	0	0	0	0	0	0	0	0
083012	12:48:38	10038	pm.simpleEngRight	pm.simpleEng	2	57	155	0	0	12:48:38	900645	0	0	0	0	0	0	0	0	0	0	0	0	0	0	0	0	0
083012	12:48:38	10038	pm.simpleEngRight	blank.simpleEng	2	0	1587	1	0	12:48:38	902258	0	0	0	0	0	0	0	0	0	0	0	0	0	0	0	0	0
083012	12:48:38	10038	pm.simpleEngRight	pm.simpleEng	2	57	244	0	0	12:48:38	902538	0	0	0	0	0	0	0	0	0	0	0	0	0	0	0	0	0
083012	12:48:38	10038	pm.simpleEngRight	blank.simpleEng	2	0	1787	1	0	12:48:38	904351	0	0	0	0	0	0	0	0	0	0	0	0	0	0	0	0	0
083012	12:48:38	10038	pm.simpleEngRight	pm.simpleEng	2	57	279	0	0	12:48:38	904670	0	0	0	0	0	0	0	0	0	0	0	0	0	0	0	0	0
083012	12:48:38	10038	pm.simpleEngRight	blank.simpleEng	2	0	1987	1	0	12:48:38	906683	0	0	0	0	0	0	0	0	0	0	0	0	0	0	0	0	0
083012	12:48:38	10038	pm.simpleEngRight	pm.simpleEng	2	57	251	0	0	12:48:38	906976	0	0	0	0	0	0	0	0	0	0	0	0	0	0	0	0	0
083012	12:48:38	10038	pm.simpleEngRight	blank.simpleEng	2	0	1487	1	0	12:48:38	908482	0	0	0	0	0	0	0	0	0	0	0	0	0	0	0	0	0
083012	12:48:38	10038	pm.simpleEngRight	pm.simpleEng	2	57	180	0	0	12:48:38	908695	0	0	0	0	0	0	0	0	0	0	0	0	0	0	0	0	0
083012	12:48:38	10038	pm.simpleEngRight	blank.simpleEng	2	57	1679	0	0	12:48:38	911414	0	0	0	0	0	0	0	0	0	0	0	0	0	0	0	0	0
083012	12:48:38	10038	pm.simpleEngRight	blank.simpleEng	2	0	2187	1	0	12:48:38	913627	0	0	0	0	0	0	0	0	0	0	0	0	0	0	0	0	0
083012	12:48:38	10038	pm.simpleEngRight	pm.simpleEng	2	57	251	0	0	12:48:38	913920	0	0	0	0	0	0	0	0	0	0	0	0	0	0	0	0	0
083012	12:48:38	10038	pm.simpleEngRight	blank.simpleEng	2	0	2287	1	0	12:48:38	916239	0	0	0	0	0	0	0	0	0	0	0	0	0	0	0	0	0
083012	12:48:38	10038	pm.simpleEngRight	pm.simpleEng	2	57	503	0	0	12:48:38	916772	0	0	0	0	0	0	0	0	0	0	0	0	0	0	0	0	0
083012	12:48:38	10038	pm.simpleEngRight	blank.simpleEng	2	0	1887	1	0	12:48:38	918678	0	0	0	0	0	0	0	0	0	0	0	0	0	0	0	0	0
083012	12:48:38	10038	pm.simpleEngRight	pm.simpleEng	2	57	271	0	0	12:48:38	918985	0	0	0	0	0	0	0	0	0	0	0	0	0	0	0	0	0
083012	12:48:38	10038	pm.simpleEngRight	blank.simpleEng	2	0	2487	1	0	12:48:38	921491	0	0	0	0	0	0	0	0	0	0	0	0	0	0	0	0	0
083012	12:48:38	10038	pm.simpleEngRight	pm.simpleEng	2	57	227	0	0	12:48:38	921757	0	0	0	0	0	0	0	0	0	0	0	0	0	0	0	0	0
083012	12:48:38	10038	pm.simpleEngRight	blank.simpleEng	2	0	1687	1	0	12:48:38	923463	0	0	0	0	0	0	0	0	0	0	0	0	0	0	0	0	0
083012	12:48:38	10038	pm.simpleEngRight	pm.simpleEng	2	57	191	0	0	12:48:38	923690	0	0	0	0	0	0	0	0	0	0	0	0	0	0	0	0	0
083012	12:48:38	10038	pm.simpleEngRight	blank.simpleEng	2	57	2156	0	0	12:48:38	926888	0	0	0	0	0	0	0	0	0	0	0	0	0	0	0	0	0
083012	12:48:38	10038	pm.simpleEngRight	blank.simpleEng	2	0	2187	1	0	12:48:38	929101	0	0	0	0	0	0	0	0	0	0	0	0	0	0	0	0	0
083012	12:48:38	10038	pm.simpleEngRight	pm.simpleEng	2	57	361	0	0	12:48:38	929501	0	0	0	0	0	0	0	0	0	0	0	0	0	0	0	0	0
083012	12:48:38	10038	pm.simpleEngRight	blank.simpleEng	2	0	2287	1	0	12:48:38	931806	0	0	0	0	0	0	0	0	0	0	0	0	0	0	0	0	0
083012	12:48:38	10038	pm.simpleEngRight	pm.simpleEng	2	57	407	0	0	12:48:38	932246	0	0	0	0	0	0	0	0	0	0	0	0	0	0	0	0	0
083012	12:48:38	10038	pm.simpleEngRight	blank.simpleEng	2	0	1787	1	0	12:48:38	934059	0	0	0	0	0	0	0	0	0	0	0	0	0	0	0	0	0
083012	12:48:38	10038	pm.simpleEngRight	pm.simpleEng	2	57	347	0	0	12:48:38	934446	0	0	0	0	0	0	0	0	0	0	0	0	0	0	0	0	0
083012	12:48:38	10038	pm.simpleEngRight	blank.simpleEng	2	0	1587	1	0	12:48:38	936058	0	0	0	0	0	0	0	0	0	0	0	0	0	0	0	0	0
083012	12:48:38	10038	pm.simpleEngRight	pm.simpleEng	2	57	331	0	0	12:48:38	936431	0	0	0	0	0	0	0	0	0	0	0	0	0	0	0	0	0
083012	12:48:38	10038	pm.simpleEngRight	blank.simpleEng	2	0	2487	1	0	12:48:38	938937	0	0	0	0	0	0	0	0	0	0	0	0	0	0	0	0	0
083012	12:48:38	10038	pm.simpleEngRight	pm.simpleEng	2	57	573	0	0	12:48:38	939550	0	0	0	0	0	0	0	0	0	0	0	0	0	0	0	0	0
083012	12:48:38	10038	pm.simpleEngRight	blank.simpleEng	2	0	1487	1	0	12:48:38	941056	0	0	0	0	0	0	0	0	0	0	0	0	0	0	0	0	0
083012	12:48:38	10038	pm.simpleEngRight	pm.simpleEng	2	57	453	0	0	12:48:38	941549	0	0	0	0	0	0	0	0	0	0	0	0	0	0	0	0	0
083012	12:48:38	10038	pm.simpleEngRight	blank.simpleEng	2	0	2387	1	0	12:48:38	943962	0	0	0	0	0	0	0	0	0	0	0	0	0	0	0	0	0
083012	12:48:38	10038	pm.simpleEngRight	pm.simpleEng	2	57	348	0	0	12:48:38	944348	0	0	0	0	0	0	0	0	0	0	0	0	0	0	0	0	0
083012	12:48:38	10038	pm.simpleEngRight	blank.simpleEng	2	0	1687	1	0	12:48:38	946054	0	0	0	0	0	0	0	0	0	0	0	0	0	0	0	0	0
083012	12:48:38	10038	pm.simpleEngRight	pm.simpleEng	2	57	303	0	0	12:48:38	946387	0	0	0	0	0	0	0	0	0	0	0	0	0	0	0	0	0
083012	12:48:38	10038	pm.simpleEngRight	blank.simpleEng	2	0	1887	1	0	12:48:38	948293	0	0	0	0	0	0	0	0	0	0	0	0	0	0	0	0	0
083012	12:48:38	10038	pm.simpleEngRight	pm.simpleEng	2	57	368	0	0	12:48:38	948693	0	0	0	0	0	0	0	0	0	0	0	0	0	0	0	0	0
083012	12:48:38	10038	pm.simpleEngRight	blank.simpleEng	2	0	2087	1	0	12:48:38	950812	0	0	0	0	0	0	0	0	0	0	0	0	0	0	0	0	0
083012	12:48:38	10038	pm.simpleEngRight	pm.simpleEng	2	57	281	0	0	12:48:38	951132	0	0	0	0	0	0	0	0	0	0	0	0	0	0	0	0	0
083012	12:48:38	10038	Trial2BackEng	N	3	0	1000	1	1	12:48:38	1106058	0	0	0	0	0	0	0	0	0	0	0	0	0	0	0	0	0
083012	12:48:38	10038	Trial2BackEng	N	3	0	1000	1	2	12:48:38	1107577	0	0	0	0	0	0	0	0	0	0	0	0	0	0	0	0	0
083012	12:48:38	10038	Trial2BackEng	N	3	0	1000	1	3	12:48:38	1109097	0	0	0	0	0	0	0	0	0	0	0	0	0	0	0	0	0
083012	12:48:38	10038	Trial2BackEng	N	3	0	1000	1	4	12:48:38	1110616	0	0	0	0	0	0	0	0	0	0	0	0	0	0	0	0	0
083012	12:48:38	10038	Trial2BackEng	N	3	0	1000	1	5	12:48:38	1112135	0	0	0	0	0	0	0	0	0	0	0	0	0	0	0	0	0
083012	12:48:38	10038	Trial2BackEng	N	3	0	1000	1	6	12:48:38	1113655	0	0	0	0	0	0	0	0	0	0	0	0	0	0	0	0	0
083012	12:48:38	10038	Trial2BackEng	N	3	0	1000	1	7	12:48:38	1115174	0	0	0	0	0	0	0	0	0	0	0	0	0	0	0	0	0
083012	12:48:38	10038	Trial2BackEng	N	3	0	1000	1	8	12:48:38	1116694	0	0	0	0	0	0	0	0	0	0	0	0	0	0	0	0	0
083012	12:48:38	10038	Trial2BackEng	Y	3	57	850	1	9	12:48:38	1118066	0	0	0	0	0	0	0	0	0	0	0	0	0	0	0	0	0
083012	12:48:38	10038	Trial2BackEng	N	3	0	1000	1	10	12:48:38	1119719	0	0	0	0	0	0	0	0	0	0	0	0	0	0	0	0	0
083012	12:48:38	10038	Trial2BackEng	N	3	0	1000	1	11	12:48:38	1121238	0	0	0	0	0	0	0	0	0	0	0	0	0	0	0	0	0
083012	12:48:38	10038	Trial2BackEng	N	3	0	1000	1	12	12:48:38	1122758	0	0	0	0	0	0	0	0	0	0	0	0	0	0	0	0	0
083012	12:48:38	10038	Trial2BackEng	Y	3	0	1000	0	12	12:48:38	1124277	0	0	0	0	0	0	0	0	0	0	0	0	0	0	0	0	0
083012	12:48:38	10038	Trial2BackEng	N	3	0	1000	1	13	12:48:38	1125797	0	0	0	0	0	0	0	0	0	0	0	0	0	0	0	0	0
083012	12:48:38	10038	Trial2BackEng	N	3	0	1000	1	14	12:48:38	1127316	0	0	0	0	0	0	0	0	0	0	0	0	0	0	0	0	0
083012	12:48:38	10038	Trial2BackEng	N	3	0	1000	1	15	12:48:38	1128836	0	0	0	0	0	0	0	0	0	0	0	0	0	0	0	0	0
083012	12:48:38	10038	Trial2BackEng	N	3	0	1000	1	16	12:48:38	1130355	0	0	0	0	0	0	0	0	0	0	0	0	0	0	0	0	0
083012	12:48:38	10038	Trial2BackEng	N	3	0	1000	1	17	12:48:38	1131874	0	0	0	0	0	0	0	0	0	0	0	0	0	0	0	0	0
083012	12:48:38	10038	Trial2BackEng	Y	3	0	1000	0	17	12:48:38	1133394	0	0	0	0	0	0	0	0	0	0	0	0	0	0	0	0	0
083012	12:48:38	10038	Trial2BackEng	N	3	0	1000	1	18	12:48:38	1134913	0	0	0	0	0	0	0	0	0	0	0	0	0	0	0	0	0
083012	12:48:38	10038	Trial2BackEng	N	3	0	1000	1	19	12:48:38	1136433	0	0	0	0	0	0	0	0	0	0	0	0	0	0	0	0	0
083012	12:48:38	10038	Trial2BackEng	N	3	0	1000	1	20	12:48:38	1137952	0	0	0	0	0	0	0	0	0	0	0	0	0	0	0	0	0
083012	12:48:38	10038	Trial2BackEng	N	3	0	1000	1	21	12:48:38	1139471	0	0	0	0	0	0	0	0	0	0	0	0	0	0	0	0	0
083012	12:48:38	10038	Trial2BackEng	Y	3	57	696	1	22	12:48:38	1140697	0	0	0	0	0	0	0	0	0	0	0	0	0	0	0	0	0
083012	12:48:38	10038	Trial2BackEng	N	3	0	1000	1	23	12:48:38	1142497	0	0	0	0	0	0	0	0	0	0	0	0	0	0	0	0	0
083012	12:48:38	10038	Trial2BackEng	N	3	0	1000	1	24	12:48:38	1144016	0	0	0	0	0	0	0	0	0	0	0	0	0	0	0	0	0
083012	12:48:38	10038	Trial2BackEng	N	3	0	1000	1	25	12:48:38	1145536	0	0	0	0	0	0	0	0	0	0	0	0	0	0	0	0	0
083012	12:48:38	10038	Trial2BackEng	N	3	0	1000	1	26	12:48:38	1147055	0	0	0	0	0	0	0	0	0	0	0	0	0	0	0	0	0
083012	12:48:38	10038	Trial2BackEng	N	3	0	1000	1	27	12:48:38	1148574	0	0	0	0	0	0	0	0	0	0	0	0	0	0	0	0	0
083012	12:48:38	10038	Trial2BackEng	N	3	0	1000	1	28	12:48:38	1150094	0	0	0	0	0	0	0	0	0	0	0	0	0	0	0	0	0
083012	12:48:38	10038	Trial2BackEng	Y	3	57	666	1	29	12:48:38	1151293	0	0	0	0	0	0	0	0	0	0	0	0	0	0	0	0	0
083012	12:48:38	10038	Trial2BackEng	N	3	0	1000	1	30	12:48:38	1153119	0	0	0	0	0	0	0	0	0	0	0	0	0	0	0	0	0
083012	12:48:38	10038	Trial2BackEng	N	3	0	1000	1	31	12:48:38	1154639	0	0	0	0	0	0	0	0	0	0	0	0	0	0	0	0	0
083012	12:48:38	10038	Trial2BackEng	N	3	0	1000	1	32	12:48:38	1156158	0	0	0	0	0	0	0	0	0	0	0	0	0	0	0	0	0
083012	12:48:38	10038	Trial2BackEng	Y	3	57	489	1	33	12:48:38	1157171	0	0	0	0	0	0	0	0	0	0	0	0	0	0	0	0	0
083012	12:48:38	10038	Trial2BackEng	N	3	0	1000	1	34	12:48:38	1159183	0	0	0	0	0	0	0	0	0	0	0	0	0	0	0	0	0
083012	12:48:38	10038	Trial2BackEng	N	3	0	1000	1	35	12:48:38	1160703	0	0	0	0	0	0	0	0	0	0	0	0	0	0	0	0	0
083012	12:48:38	10038	Trial2BackEng	N	3	0	1000	1	36	12:48:38	1162222	0	0	0	0	0	0	0	0	0	0	0	0	0	0	0	0	0
083012	12:48:38	10038	Trial2BackEng	N	3	0	1000	1	37	12:48:38	1163742	0	0	0	0	0	0	0	0	0	0	0	0	0	0	0	0	0
083012	12:48:38	10038	Trial2BackEng	N	3	0	1000	1	38	12:48:38	1165261	0	0	0	0	0	0	0	0	0	0	0	0	0	0	0	0	0
083012	12:48:38	10038	Trial2BackEng	N	3	57	618	0	38	12:48:38	1166407	0	0	0	0	0	0	0	0	0	0	0	0	0	0	0	0	0
083012	12:48:38	10038	Trial2BackEng	Y	3	0	1000	0	38	12:48:38	1168287	0	0	0	0	0	0	0	0	0	0	0	0	0	0	0	0	0
083012	12:48:38	10038	Trial2BackEng	N	3	0	1000	1	39	12:48:38	1169806	0	0	0	0	0	0	0	0	0	0	0	0	0	0	0	0	0
083012	12:48:38	10038	Trial2BackEng	N	3	0	1000	1	40	12:48:38	1171325	0	0	0	0	0	0	0	0	0	0	0	0	0	0	0	0	0
083012	12:48:38	10038	Trial2BackEng	N	3	0	1000	1	41	12:48:38	1172845	0	0	0	0	0	0	0	0	0	0	0	0	0	0	0	0	0
083012	12:48:38	10038	Trial2BackEng	N	3	0	1000	1	42	12:48:38	1174364	0	0	0	0	0	0	0	0	0	0	0	0	0	0	0	0	0
083012	12:48:38	10038	Trial2BackEng	Y	3	57	571	1	43	12:48:38	1175457	0	0	0	0	0	0	0	0	0	0	0	0	0	0	0	0	0
083012	12:48:38	10038	Trial2BackEng	N	3	0	1000	1	44	12:48:38	1177390	0	0	0	0	0	0	0	0	0	0	0	0	0	0	0	0	0
083012	12:48:38	10038	Trial2BackEng	N	3	0	1000	1	45	12:48:38	1178909	0	0	0	0	0	0	0	0	0	0	0	0	0	0	0	0	0
083012	12:48:38	10038	Trial2BackEng	N	3	0	1000	1	46	12:48:38	1180429	0	0	0	0	0	0	0	0	0	0	0	0	0	0	0	0	0
083012	12:48:38	10038	Trial2BackEng	N	3	0	1000	1	47	12:48:38	1181948	0	0	0	0	0	0	0	0	0	0	0	0	0	0	0	0	0
083012	12:48:38	10038	Trial2BackEng	N	3	0	1000	1	48	12:48:38	1183467	0	0	0	0	0	0	0	0	0	0	0	0	0	0	0	0	0
083012	12:48:38	10038	Trial2BackEng	Y	3	57	604	1	49	12:48:38	1184600	0	0	0	0	0	0	0	0	0	0	0	0	0	0	0	0	0
083012	12:48:38	10038	Trial2BackEng	N	3	0	1000	1	50	12:48:38	1186493	0	0	0	0	0	0	0	0	0	0	0	0	0	0	0	0	0
083012	12:48:38	10038	Trial2BackEng	N	3	0	1000	1	51	12:48:38	1188012	0	0	0	0	0	0	0	0	0	0	0	0	0	0	0	0	0
083012	12:48:38	10038	Trial2BackEng	N	3	0	1000	1	52	12:48:38	1189532	0	0	0	0	0	0	0	0	0	0	0	0	0	0	0	0	0
083012	12:48:38	10038	Trial2BackEng	N	3	57	604	0	52	12:48:38	1190664	0	0	0	0	0	0	0	0	0	0	0	0	0	0	0	0	0
083012	12:48:38	10038	Trial2BackEng	N	3	0	1000	1	53	12:48:38	1192557	0	0	0	0	0	0	0	0	0	0	0	0	0	0	0	0	0
083012	12:48:38	10038	Trial2BackEng	N	3	0	1000	1	54	12:48:38	1194076	0	0	0	0	0	0	0	0	0	0	0	0	0	0	0	0	0
083012	12:48:38	10038	Trial2BackEng	Y	3	57	506	1	55	12:48:38	1195116	0	0	0	0	0	0	0	0	0	0	0	0	0	0	0	0	0
083012	12:48:38	10038	Trial2BackEng	N	3	0	1000	1	56	12:48:38	1197102	0	0	0	0	0	0	0	0	0	0	0	0	0	0	0	0	0
083012	12:48:38	10038	Trial2BackEng	N	3	0	1000	1	57	12:48:38	1198621	0	0	0	0	0	0	0	0	0	0	0	0	0	0	0	0	0
083012	12:48:38	10038	Trial2BackEng	Y	3	57	489	1	58	12:48:38	1199634	0	0	0	0	0	0	0	0	0	0	0	0	0	0	0	0	0
083012	12:48:38	10038	Trial2BackEng	N	3	0	1000	1	59	12:48:38	1201647	0	0	0	0	0	0	0	0	0	0	0	0	0	0	0	0	0
083012	12:48:38	10038	Trial2BackEng	N	3	0	1000	1	60	12:48:38	1203166	0	0	0	0	0	0	0	0	0	0	0	0	0	0	0	0	0
083012	12:48:38	10038	Trial2BackEng	N	3	0	1000	1	61	12:48:38	1204686	0	0	0	0	0	0	0	0	0	0	0	0	0	0	0	0	0
083012	12:48:38	10038	Trial2BackEng	N	3	0	1000	1	62	12:48:38	1206205	0	0	0	0	0	0	0	0	0	0	0	0	0	0	0	0	0
083012	12:48:38	10038	Trial2BackEng	N	3	0	1000	1	63	12:48:38	1207724	0	0	0	0	0	0	0	0	0	0	0	0	0	0	0	0	0
083012	12:48:38	10038	Trial2BackEng	N	3	0	1000	1	64	12:48:38	1209244	0	0	0	0	0	0	0	0	0	0	0	0	0	0	0	0	0
083012	12:48:38	10038	Trial2BackEng	N	3	0	1000	1	65	12:48:38	1210763	0	0	0	0	0	0	0	0	0	0	0	0	0	0	0	0	0
083012	12:48:38	10038	Trial2BackEng	N	3	0	1000	1	66	12:48:38	1212283	0	0	0	0	0	0	0	0	0	0	0	0	0	0	0	0	0
083012	12:48:38	10038	Trial2BackEng	N	3	0	1000	1	67	12:48:38	1213802	0	0	0	0	0	0	0	0	0	0	0	0	0	0	0	0	0
083012	12:48:38	10038	Trial2BackEng	N	3	0	1000	1	68	12:48:38	1215321	0	0	0	0	0	0	0	0	0	0	0	0	0	0	0	0	0
083012	12:48:38	10038	Trial2BackEng	Y	3	57	573	1	69	12:48:38	1216428	0	0	0	0	0	0	0	0	0	0	0	0	0	0	0	0	0
083012	12:48:38	10038	Trial2BackEng	N	3	0	1000	1	70	12:48:38	1218347	0	0	0	0	0	0	0	0	0	0	0	0	0	0	0	0	0
083012	12:48:38	10038	Trial2BackEng	N	3	0	1000	1	71	12:48:38	1219866	0	0	0	0	0	0	0	0	0	0	0	0	0	0	0	0	0
083012	12:48:38	10038	Trial2BackEng	N	3	0	1000	1	72	12:48:38	1221386	0	0	0	0	0	0	0	0	0	0	0	0	0	0	0	0	0
083012	12:48:38	10038	Trial2BackEng	Y	3	57	445	1	73	12:48:38	1222359	0	0	0	0	0	0	0	0	0	0	0	0	0	0	0	0	0
083012	12:48:38	10038	Trial2BackEng	N	3	0	1000	1	74	12:48:38	1224411	0	0	0	0	0	0	0	0	0	0	0	0	0	0	0	0	0
083012	12:48:38	10038	Trial2BackEng	N	3	0	1000	1	75	12:48:38	1225931	0	0	0	0	0	0	0	0	0	0	0	0	0	0	0	0	0
083012	12:48:38	10038	Trial2BackEng	N	3	0	1000	1	76	12:48:38	1227450	0	0	0	0	0	0	0	0	0	0	0	0	0	0	0	0	0
083012	12:48:38	10038	Trial2BackEng	N	3	0	1000	1	77	12:48:38	1228969	0	0	0	0	0	0	0	0	0	0	0	0	0	0	0	0	0
083012	12:48:38	10038	Trial2BackEng	N	3	0	1000	1	78	12:48:38	1230489	0	0	0	0	0	0	0	0	0	0	0	0	0	0	0	0	0
083012	12:48:38	10038	Trial2BackEng	Y	3	57	574	1	79	12:48:38	1231595	0	0	0	0	0	0	0	0	0	0	0	0	0	0	0	0	0
083012	12:48:38	10038	Trial2BackEng	N	3	0	1000	1	80	12:48:38	1233514	0	0	0	0	0	0	0	0	0	0	0	0	0	0	0	0	0
083012	12:48:38	10038	Trial2BackEng	N	3	0	1000	1	81	12:48:38	1235034	0	0	0	0	0	0	0	0	0	0	0	0	0	0	0	0	0
083012	12:48:38	10038	Trial2BackEng	N	3	0	1000	1	82	12:48:38	1236553	0	0	0	0	0	0	0	0	0	0	0	0	0	0	0	0	0
083012	12:48:38	10038	Trial2BackEng	N	3	0	1000	1	83	12:48:38	1238072	0	0	0	0	0	0	0	0	0	0	0	0	0	0	0	0	0
083012	12:48:38	10038	Trial2BackEng	N	3	0	1000	1	84	12:48:38	1239592	0	0	0	0	0	0	0	0	0	0	0	0	0	0	0	0	0
083012	12:48:38	10038	Trial2BackEng	N	3	0	1000	1	85	12:48:38	1241111	0	0	0	0	0	0	0	0	0	0	0	0	0	0	0	0	0
083012	12:48:38	10038	Trial2BackEng	N	3	57	607	0	85	12:48:38	1242244	0	0	0	0	0	0	0	0	0	0	0	0	0	0	0	0	0
083012	12:48:38	10038	Trial2BackEng	N	3	0	1000	1	86	12:48:38	1244137	0	0	0	0	0	0	0	0	0	0	0	0	0	0	0	0	0
083012	12:48:38	10038	Trial2BackEng	N	3	0	1000	1	87	12:48:38	1245656	0	0	0	0	0	0	0	0	0	0	0	0	0	0	0	0	0
083012	12:48:38	10038	Trial2BackEng	Y	3	57	622	1	88	12:48:38	1246802	0	0	0	0	0	0	0	0	0	0	0	0	0	0	0	0	0
083012	12:48:38	10038	Trial2BackEng	N	3	0	1000	1	89	12:48:38	1248682	0	0	0	0	0	0	0	0	0	0	0	0	0	0	0	0	0
083012	12:48:38	10038	Trial2BackEng	N	3	0	1000	1	90	12:48:38	1250201	0	0	0	0	0	0	0	0	0	0	0	0	0	0	0	0	0
083012	12:48:38	10038	Trial2BackEng	N	3	0	1000	1	91	12:48:38	1251721	0	0	0	0	0	0	0	0	0	0	0	0	0	0	0	0	0
083012	12:48:38	10038	Trial2BackEng	N	3	0	1000	1	92	12:48:38	1253240	0	0	0	0	0	0	0	0	0	0	0	0	0	0	0	0	0
083012	12:48:38	10038	Trial2BackEng	N	3	0	1000	1	93	12:48:38	1254759	0	0	0	0	0	0	0	0	0	0	0	0	0	0	0	0	0
083012	12:48:38	10038	Trial2BackEng	N	3	0	1000	1	94	12:48:38	1256279	0	0	0	0	0	0	0	0	0	0	0	0	0	0	0	0	0
083012	12:48:38	10038	Trial2BackEng	N	3	57	527	0	94	12:48:38	1257331	0	0	0	0	0	0	0	0	0	0	0	0	0	0	0	0	0
083012	12:48:38	10038	Trial2BackEng	N	3	0	1000	1	95	12:48:38	1259304	0	0	0	0	0	0	0	0	0	0	0	0	0	0	0	0	0
083012	12:48:38	10038	Trial2BackEng	Y	3	0	1000	0	95	12:48:38	1260824	0	0	0	0	0	0	0	0	0	0	0	0	0	0	0	0	0
083012	12:48:38	10038	Trial2BackEng	N	3	57	15	0	95	12:48:38	1261370	0	0	0	0	0	0	0	0	0	0	0	0	0	0	0	0	0
083012	12:48:38	10038	Trial2BackEng	N	3	0	1000	1	96	12:48:38	1263849	0	0	0	0	0	0	0	0	0	0	0	0	0	0	0	0	0
083012	12:48:38	10038	Trial2BackEng	N	3	0	1000	1	97	12:48:38	1265368	0	0	0	0	0	0	0	0	0	0	0	0	0	0	0	0	0
083012	12:48:38	10038	Trial2BackEng	N	3	0	1000	1	98	12:48:38	1266888	0	0	0	0	0	0	0	0	0	0	0	0	0	0	0	0	0
083012	12:48:38	10038	Trial2BackEng	Y	3	0	1000	0	98	12:48:38	1268407	0	0	0	0	0	0	0	0	0	0	0	0	0	0	0	0	0
083012	12:48:38	10038	Trial2BackEng	N	3	57	559	0	98	12:48:38	1269500	0	0	0	0	0	0	0	0	0	0	0	0	0	0	0	0	0
083012	12:48:38	10038	Trial2BackEng	N	3	0	1000	1	99	12:48:38	1271433	0	0	0	0	0	0	0	0	0	0	0	0	0	0	0	0	0
083012	12:48:38	10038	Trial2BackEng	N	3	0	1000	1	100	12:48:38	1272952	0	0	0	0	0	0	0	0	0	0	0	0	0	0	0	0	0
083012	12:48:38	10038	Trial2BackEng	Y	3	57	622	1	101	12:48:38	1274098	0	0	0	0	0	0	0	0	0	0	0	0	0	0	0	0	0
083012	12:48:38	10038	Trial2BackEng	N	3	0	1000	1	102	12:48:38	1275978	0	0	0	0	0	0	0	0	0	0	0	0	0	0	0	0	0
083012	12:48:38	10038	Trial2BackEng	N	3	0	1000	1	103	12:48:38	1277497	0	0	0	0	0	0	0	0	0	0	0	0	0	0	0	0	0
083012	12:48:38	10038	Trial2BackEng	N	3	0	1000	1	104	12:48:38	1279016	0	0	0	0	0	0	0	0	0	0	0	0	0	0	0	0	0
083012	12:48:38	10038	Trial2BackEng	N	3	0	1000	1	105	12:48:38	1280536	0	0	0	0	0	0	0	0	0	0	0	0	0	0	0	0	0
083012	12:48:38	10038	Trial2BackEng	N	3	0	1000	1	106	12:48:38	1282055	0	0	0	0	0	0	0	0	0	0	0	0	0	0	0	0	0
083012	12:48:38	10038	Trial2BackEng	Y	3	57	575	1	107	12:48:38	1283161	0	0	0	0	0	0	0	0	0	0	0	0	0	0	0	0	0
083012	12:48:38	10038	Trial2BackEng	N	3	0	1000	1	108	12:48:38	1285081	0	0	0	0	0	0	0	0	0	0	0	0	0	0	0	0	0
083012	12:48:38	10038	Trial2BackEng	N	3	0	1000	1	109	12:48:38	1286600	0	0	0	0	0	0	0	0	0	0	0	0	0	0	0	0	0
083012	12:48:38	10038	Trial2BackEng	N	3	0	1000	1	110	12:48:38	1288119	0	0	0	0	0	0	0	0	0	0	0	0	0	0	0	0	0
083012	12:48:38	10038	Trial2BackEng	Y	3	57	558	1	111	12:48:38	1289212	0	0	0	0	0	0	0	0	0	0	0	0	0	0	0	0	0
083012	12:48:38	10038	Memory1RBaseline	Score	5	M8	30843	0	111	12:48:38	1374192	0	0	0	0	0	0	0	0	0	0	0	0	0	0	0	0	0
083012	12:48:38	10038	Memory1RBaseline	Score	5	M1	843	0	111	12:48:38	1375072	0	0	0	0	0	0	0	0	0	0	0	0	0	0	0	0	0
083012	12:48:38	10038	Memory1RBaseline	Score	5	M2	387	0	111	12:48:38	1375498	0	0	0	0	0	0	0	0	0	0	0	0	0	0	0	0	0
083012	12:48:38	10038	Memory1RBaseline	Score	5	M3	497	0	111	12:48:38	1376032	0	0	0	0	0	0	0	0	0	0	0	0	0	0	0	0	0
083012	12:48:38	10038	Memory1RBaseline	Score	5	Done	1460	0	111	12:48:38	1377538	0	0	0	0	0	0	0	0	0	0	0	0	0	0	0	0	0
083012	12:48:38	10038	Memory2RBaseline	Score2	5	11	18270	0	111	12:48:38	1422813	0	0	0	0	0	0	0	0	0	0	0	0	0	0	0	0	0
083012	12:48:38	10038	Memory2RBaseline	Score2	5	22	238	0	111	12:48:38	1423093	0	0	0	0	0	0	0	0	0	0	0	0	0	0	0	0	0
083012	12:48:38	10038	Memory2RBaseline	Score2	5	33	262	0	111	12:48:38	1423400	0	0	0	0	0	0	0	0	0	0	0	0	0	0	0	0	0
083012	12:48:38	10038	Memory2RBaseline	Score2	5	44	331	0	111	12:48:38	1423773	0	0	0	0	0	0	0	0	0	0	0	0	0	0	0	0	0
083012	12:48:38	10038	Memory2RBaseline	Score2	5	55	342	0	111	12:48:38	1424159	0	0	0	0	0	0	0	0	0	0	0	0	0	0	0	0	0
083012	12:48:38	10038	Memory2RBaseline	Score2	5	66	324	0	111	12:48:38	1424519	0	0	0	0	0	0	0	0	0	0	0	0	0	0	0	0	0
083012	12:48:38	10038	Memory2RBaseline	Score2	5	77	292	0	111	12:48:38	1424852	0	0	0	0	0	0	0	0	0	0	0	0	0	0	0	0	0
083012	12:48:38	10038	Memory2RBaseline	Score2	5	88	6438	0	111	12:48:38	1431330	0	0	0	0	0	0	0	0	0	0	0	0	0	0	0	0	0
083012	12:48:38	10038	Memory2RBaseline	Score2	5	Done	345	0	111	12:48:38	1431716	0	0	0	0	0	0	0	0	0	0	0	0	0	0	0	0	0
083012	12:48:38	10038	Memory3RBaseline	Score3	5	111	13826	0	111	12:48:38	1470581	0	0	0	0	0	0	0	0	0	0	0	0	0	0	0	0	0
083012	12:48:38	10038	Memory3RBaseline	Score3	5	222	645	0	111	12:48:38	1471261	0	0	0	0	0	0	0	0	0	0	0	0	0	0	0	0	0
083012	12:48:38	10038	Memory3RBaseline	Score3	5	444	253	0	111	12:48:38	1471554	0	0	0	0	0	0	0	0	0	0	0	0	0	0	0	0	0
083012	12:48:38	10038	Memory3RBaseline	Score3	5	333	512	0	111	12:48:38	1472100	0	0	0	0	0	0	0	0	0	0	0	0	0	0	0	0	0
083012	12:48:38	10038	Memory3RBaseline	Score3	5	555	422	0	111	12:48:38	1472567	0	0	0	0	0	0	0	0	0	0	0	0	0	0	0	0	0
083012	12:48:38	10038	Memory3RBaseline	Score3	5	666	259	0	111	12:48:38	1472860	0	0	0	0	0	0	0	0	0	0	0	0	0	0	0	0	0
083012	12:48:38	10038	Memory3RBaseline	Score3	5	777	446	0	111	12:48:38	1473340	0	0	0	0	0	0	0	0	0	0	0	0	0	0	0	0	0
083012	12:48:38	10038	Memory3RBaseline	Score3	5	888	239	0	111	12:48:38	1473620	0	0	0	0	0	0	0	0	0	0	0	0	0	0	0	0	0
083012	12:48:38	10038	Memory3RBaseline	Score3	5	Done	567	0	111	12:48:38	1474233	0	0	0	0	0	0	0	0	0	0	0	0	0	0	0	0	0
083012	12:48:38	10038	LoriaEngLH3	Stop	6	6	6889	0	111	12:48:38	1557869	0	0	0	0	0	0	0	0	0	0	0	0	0	0	0	0	0
083012	12:48:38	10038	EngTrail	Trails	7	1Trails	1300	0	111	12:48:38	1635530	0	0	0	0	0	0	0	0	0	0	0	0	0	0	0	0	0
083012	12:48:38	10038	Serial7EngBaseline	Serial7EngBaseline	8	83	116792	0	111	12:48:38	1803730	1	0	0	0	0	0	0	0	0	0	0	0	0	0	0	0	0
083012	12:48:38	10038	Serial7EngBaseline	Serial7EngBaseline	8	77	2661	0	111	12:48:38	1806410	1	0	0	0	0	0	0	0	0	0	0	0	0	0	0	0	0
083012	12:48:38	10038	Serial7EngBaseline	Serial7EngBaseline	8	70	2653	0	111	12:48:38	1809089	2	0	0	0	0	0	0	0	0	0	0	0	0	0	0	0	0
083012	12:48:38	10038	Serial7EngBaseline	Serial7EngBaseline	8	63	4399	0	111	12:48:38	1813514	3	0	0	0	0	0	0	0	0	0	0	0	0	0	0	0	0
083012	12:48:38	10038	Serial7EngBaseline	Serial7EngBaseline	8	56	3230	0	111	12:48:38	1816767	4	0	0	0	0	0	0	0	0	0	0	0	0	0	0	0	0
083012	12:48:38	10038	corsiblockEngFwrd	recallseqEngFwrd	9	4	3652	0	111	12:48:38	1891564	4	0	0	0	0	0	0	0	0	0	0	0	0	0	0	0	0
083012	12:48:38	10038	corsiblockEngFwrd	recallseqEngFwrd	9	6	544	0	111	12:48:38	1892150	4	0	0	0	0	0	0	0	0	0	0	0	0	0	0	0	0
083012	12:48:38	10038	corsiblockEngFwrd	recallseqEngFwrd	9	doneCorsiEng	3165	0	111	12:48:38	1895349	4	0	0	0	0	0	0	0	0	0	0	0	0	0	0	2	0
083012	12:48:38	10038	corsiblockEngFwrd	recallseqEngFwrd	9	1	928	0	111	12:48:38	1902372	4	0	0	0	0	0	0	0	0	0	0	0	0	0	0	2	0
083012	12:48:38	10038	corsiblockEngFwrd	recallseqEngFwrd	9	9	1047	0	111	12:48:38	1903452	4	0	0	0	0	0	0	0	0	0	0	0	0	0	0	2	0
083012	12:48:38	10038	corsiblockEngFwrd	recallseqEngFwrd	9	7	671	0	111	12:48:38	1904159	4	0	0	0	0	0	0	0	0	0	0	0	0	0	0	2	0
083012	12:48:38	10038	corsiblockEngFwrd	recallseqEngFwrd	9	doneCorsiEng	1149	0	111	12:48:38	1905345	4	0	0	0	0	0	0	0	0	0	0	0	0	0	0	3	0
083012	12:48:38	10038	corsiblockEngFwrd	recallseqEngFwrd	9	3	2264	0	111	12:48:38	1914701	4	0	0	0	0	0	0	0	0	0	0	0	0	0	0	3	0
083012	12:48:38	10038	corsiblockEngFwrd	recallseqEngFwrd	9	5	822	0	111	12:48:38	1915567	4	0	0	0	0	0	0	0	0	0	0	0	0	0	0	3	0
083012	12:48:38	10038	corsiblockEngFwrd	recallseqEngFwrd	9	8	772	0	111	12:48:38	1916380	4	0	0	0	0	0	0	0	0	0	0	0	0	0	0	3	0
083012	12:48:38	10038	corsiblockEngFwrd	recallseqEngFwrd	9	doneCorsiEng	1775	0	111	12:48:38	1918193	4	0	0	0	0	0	0	0	0	0	0	0	0	0	0	3	0
083012	12:48:38	10038	corsiblockEngFwrd	recallseqEngFwrd	9	2	1543	0	111	12:48:38	1926790	4	0	0	0	0	0	0	0	0	0	0	0	0	0	0	3	0
083012	12:48:38	10038	corsiblockEngFwrd	recallseqEngFwrd	9	9	917	0	111	12:48:38	1927749	4	0	0	0	0	0	0	0	0	0	0	0	0	0	0	3	0
083012	12:48:38	10038	corsiblockEngFwrd	recallseqEngFwrd	9	4	1053	0	111	12:48:38	1928842	4	0	0	0	0	0	0	0	0	0	0	0	0	0	0	3	0
083012	12:48:38	10038	corsiblockEngFwrd	recallseqEngFwrd	9	8	737	0	111	12:48:38	1929615	4	0	0	0	0	0	0	0	0	0	0	0	0	0	0	3	0
083012	12:48:38	10038	corsiblockEngFwrd	recallseqEngFwrd	9	doneCorsiEng	908	0	111	12:48:38	1930562	4	0	0	0	0	0	0	0	0	0	0	0	0	0	0	4	0
083012	12:48:38	10038	corsiblockEngFwrd	recallseqEngFwrd	9	3	990	0	111	12:48:38	1938638	4	0	0	0	0	0	0	0	0	0	0	0	0	0	0	4	0
083012	12:48:38	10038	corsiblockEngFwrd	recallseqEngFwrd	9	1	743	0	111	12:48:38	1939425	4	0	0	0	0	0	0	0	0	0	0	0	0	0	0	4	0
083012	12:48:38	10038	corsiblockEngFwrd	recallseqEngFwrd	9	6	746	0	111	12:48:38	1940211	4	0	0	0	0	0	0	0	0	0	0	0	0	0	0	4	0
083012	12:48:38	10038	corsiblockEngFwrd	recallseqEngFwrd	9	4	600	0	111	12:48:38	1940851	4	0	0	0	0	0	0	0	0	0	0	0	0	0	0	4	0
083012	12:48:38	10038	corsiblockEngFwrd	recallseqEngFwrd	9	7	672	0	111	12:48:38	1941557	4	0	0	0	0	0	0	0	0	0	0	0	0	0	0	4	0
083012	12:48:38	10038	corsiblockEngFwrd	recallseqEngFwrd	9	doneCorsiEng	1205	0	111	12:48:38	1942797	4	0	0	0	0	0	0	0	0	0	0	0	0	0	0	4	0
083012	12:48:38	10038	corsiblockEngFwrd	recallseqEngFwrd	9	8	1019	0	111	12:48:38	1951860	4	0	0	0	0	0	0	0	0	0	0	0	0	0	0	4	0
083012	12:48:38	10038	corsiblockEngFwrd	recallseqEngFwrd	9	5	639	0	111	12:48:38	1952540	4	0	0	0	0	0	0	0	0	0	0	0	0	0	0	4	0
083012	12:48:38	10038	corsiblockEngFwrd	recallseqEngFwrd	9	1	1063	0	111	12:48:38	1953646	4	0	0	0	0	0	0	0	0	0	0	0	0	0	0	4	0
083012	12:48:38	10038	corsiblockEngFwrd	recallseqEngFwrd	9	4	749	0	111	12:48:38	1954432	4	0	0	0	0	0	0	0	0	0	0	0	0	0	0	4	0
083012	12:48:38	10038	corsiblockEngFwrd	recallseqEngFwrd	9	7	1250	0	111	12:48:38	1955725	4	0	0	0	0	0	0	0	0	0	0	0	0	0	0	4	0
083012	12:48:38	10038	corsiblockEngFwrd	recallseqEngFwrd	9	doneCorsiEng	902	0	111	12:48:38	1956672	4	0	0	0	0	0	0	0	0	0	0	0	0	0	0	4	0
083012	12:48:38	10038	corsiblockEngRev	recallseqEngRev	10	4	1932	0	111	12:48:38	1974211	4	0	0	0	0	0	0	0	0	0	0	0	0	0	0	4	0
083012	12:48:38	10038	corsiblockEngRev	recallseqEngRev	10	6	535	0	111	12:48:38	1974784	4	0	0	0	0	0	0	0	0	0	0	0	0	0	0	4	0
083012	12:48:38	10038	corsiblockEngRev	recallseqEngRev	10	doneCorsiEng	1474	0	111	12:48:38	1976304	4	0	0	0	0	0	0	0	0	0	0	0	0	0	0	4	2
083012	12:48:38	10038	corsiblockEngRev	recallseqEngRev	10	8	1235	0	111	12:48:38	1983647	4	0	0	0	0	0	0	0	0	0	0	0	0	0	0	4	2
083012	12:48:38	10038	corsiblockEngRev	recallseqEngRev	10	1	899	0	111	12:48:38	1984580	4	0	0	0	0	0	0	0	0	0	0	0	0	0	0	4	2
083012	12:48:38	10038	corsiblockEngRev	recallseqEngRev	10	9	966	0	111	12:48:38	1985580	4	0	0	0	0	0	0	0	0	0	0	0	0	0	0	4	2
083012	12:48:38	10038	corsiblockEngRev	recallseqEngRev	10	doneCorsiEng	975	0	111	12:48:38	1986593	4	0	0	0	0	0	0	0	0	0	0	0	0	0	0	4	3
083012	12:48:38	10038	corsiblockEngRev	recallseqEngRev	10	5	703	0	111	12:48:38	1994390	4	0	0	0	0	0	0	0	0	0	0	0	0	0	0	4	3
083012	12:48:38	10038	corsiblockEngRev	recallseqEngRev	10	7	733	0	111	12:48:38	1995163	4	0	0	0	0	0	0	0	0	0	0	0	0	0	0	4	3
083012	12:48:38	10038	corsiblockEngRev	recallseqEngRev	10	2	631	0	111	12:48:38	1995829	4	0	0	0	0	0	0	0	0	0	0	0	0	0	0	4	3
083012	12:48:38	10038	corsiblockEngRev	recallseqEngRev	10	3	877	0	111	12:48:38	1996749	4	0	0	0	0	0	0	0	0	0	0	0	0	0	0	4	3
083012	12:48:38	10038	corsiblockEngRev	recallseqEngRev	10	doneCorsiEng	1277	0	111	12:48:38	1998068	4	0	0	0	0	0	0	0	0	0	0	0	0	0	0	4	3
083012	12:48:38	10038	corsiblockEngRev	recallseqEngRev	10	5	787	0	111	12:48:38	2005905	4	0	0	0	0	0	0	0	0	0	0	0	0	0	0	4	3
083012	12:48:38	10038	corsiblockEngRev	recallseqEngRev	10	7	753	0	111	12:48:38	2006692	4	0	0	0	0	0	0	0	0	0	0	0	0	0	0	4	3
083012	12:48:38	10038	corsiblockEngRev	recallseqEngRev	10	2	983	0	111	12:48:38	2007718	4	0	0	0	0	0	0	0	0	0	0	0	0	0	0	4	3
083012	12:48:38	10038	corsiblockEngRev	recallseqEngRev	10	3	900	0	111	12:48:38	2008651	4	0	0	0	0	0	0	0	0	0	0	0	0	0	0	4	3
083012	12:48:38	10038	corsiblockEngRev	recallseqEngRev	10	doneCorsiEng	1063	0	111	12:48:38	2009757	4	0	0	0	0	0	0	0	0	0	0	0	0	0	0	4	3
083012	12:48:38	10038	testEngBaseline	WordsEngBaseline	11	1EngBaseline	1681	0	111	12:48:38	2050688	4	1	0	0	0	0	0	0	0	0	0	0	0	0	0	4	3
083012	12:48:38	10038	testEngBaseline	WordsEngBaseline	11	3EngBaseline	546	0	111	12:48:38	2051274	4	1	0	1	0	0	0	0	0	0	0	0	0	0	0	4	3
083012	12:48:38	10038	testEngBaseline	WordsEngBaseline	11	4EngBaseline	296	0	111	12:48:38	2051608	4	1	0	1	1	0	0	0	0	0	0	0	0	0	0	4	3
083012	12:48:38	10038	testEngBaseline	WordsEngBaseline	11	5EngBaseline	283	0	111	12:48:38	2051927	4	1	0	1	1	1	0	0	0	0	0	0	0	0	0	4	3
083012	12:48:38	10038	testEngBaseline	WordsEngBaseline	11	6EngBaseline	323	0	111	12:48:38	2052287	4	1	0	1	1	1	1	0	0	0	0	0	0	0	0	4	3
083012	12:48:38	10038	testEngBaseline	WordsEngBaseline	11	8EngBaseline	1603	0	111	12:48:38	2053927	4	1	0	1	1	1	1	0	1	0	0	0	0	0	0	4	3
083012	12:48:38	10038	testEngBaseline	WordsEngBaseline	11	DoneEngBaseline	1563	0	111	12:48:38	2055526	4	1	0	1	1	1	1	0	1	0	0	0	0	0	0	4	3
083012	12:48:38	10038	testEngBaseline	Cat2EngBaseline	11	0	1	0	111	12:48:38	2055543	4	1	0	1	1	1	1	0	1	0	0	0	0	0	0	4	3
083012	12:48:38	10038	testEngBaseline	Ch2EngBaseline	11	RR2EngBaseline	5575	0	111	12:48:38	2061150	4	1	3	1	1	1	1	0	1	0	0	0	0	0	0	4	3
083012	12:48:38	10038	testEngBaseline	Cat7EngBaseline	11	W7EngBaseline	17452	0	111	12:48:38	2078636	4	1	3	1	1	1	1	0	1	0	0	0	0	0	0	4	3
083012	12:48:38	10038	testEngBaseline	Ch7EngBaseline	11	WW7EngBaseline	5861	0	111	12:48:38	2084541	4	1	3	1	1	1	1	0	1	0	0	0	0	0	0	4	3
083012	12:48:38	10038	DigitSpanFwrdEngBaseline	Score1FwrdEngBaseline	12	DS1	9422	0	111	12:48:38	2132642	4	1	3	1	1	1	1	0	1	0	0	0	0	0	0	4	3
083012	12:48:38	10038	DigitSpanFwrdEngBaseline	Gate1FwrdEngBaseline	12	0	1	0	111	12:48:38	2132657	4	1	3	1	1	1	1	0	1	3	0	0	0	0	0	4	3
083012	12:48:38	10038	DigitSpanFwrdEngBaseline	Score2FwrdEngBaseline	12	DS1	4951	0	111	12:48:38	2143371	4	1	3	1	1	1	1	0	1	3	0	0	0	0	0	4	3
083012	12:48:38	10038	DigitSpanFwrdEngBaseline	Gate3FwrdEngBaseline	12	0	1	0	111	12:48:38	2143386	4	1	3	1	1	1	1	0	1	4	0	0	0	0	0	4	3
083012	12:48:38	10038	DigitSpanFwrdEngBaseline	Score3FwrdEngBaseline	12	DS1	3948	0	111	12:48:38	2155126	4	1	3	1	1	1	1	0	1	4	0	0	0	0	0	4	3
083012	12:48:38	10038	DigitSpanFwrdEngBaseline	Gate5FwrdEngBaseline	12	0	1	0	111	12:48:38	2155141	4	1	3	1	1	1	1	0	1	5	0	0	0	0	0	4	3
083012	12:48:38	10038	DigitSpanFwrdEngBaseline	Score4FwrdEngBaseline	12	DS2	5402	0	111	12:48:38	2170094	4	1	3	1	1	1	1	0	1	5	0	0	0	0	0	4	3
083012	12:48:38	10038	DigitSpanFwrdEngBaseline	Gate7FwrdEngBaseline	12	0	1	0	111	12:48:38	2170109	4	1	3	1	1	1	1	0	1	5	0	0	0	0	0	4	3
083012	12:48:38	10038	DigitSpanFwrdEngBaseline	Score44FwrdEngBaseline	12	DS2	3953	0	111	12:48:38	2183688	4	1	3	1	1	1	1	0	1	5	0	0	0	0	0	4	3
083012	12:48:38	10038	DigitSpanEngBaseline	Score1EngBaseline	13	DS1	4026	0	111	12:48:38	2205720	4	1	3	1	1	1	1	0	1	5	0	0	0	0	0	4	3
083012	12:48:38	10038	DigitSpanEngBaseline	Gate1EngBaseline	13	0	1	0	111	12:48:38	2205736	4	1	3	1	1	1	1	0	1	5	2	0	0	0	0	4	3
083012	12:48:38	10038	DigitSpanEngBaseline	Score2EngBaseline	13	DS1	5509	0	111	12:48:38	2215955	4	1	3	1	1	1	1	0	1	5	2	0	0	0	0	4	3
083012	12:48:38	10038	DigitSpanEngBaseline	Gate3EngBaseline	13	0	1	0	111	12:48:38	2215971	4	1	3	1	1	1	1	0	1	5	3	0	0	0	0	4	3
083012	12:48:38	10038	DigitSpanEngBaseline	Score3EngBaseline	13	DS2	7943	0	111	12:48:38	2230497	4	1	3	1	1	1	1	0	1	5	3	0	0	0	0	4	3
083012	12:48:38	10038	DigitSpanEngBaseline	Gate5EngBaseline	13	0	1	0	111	12:48:38	2230512	4	1	3	1	1	1	1	0	1	5	3	0	0	0	0	4	3
083012	12:48:38	10038	DigitSpanEngBaseline	Score33EngBaseline	13	DS1	4063	0	111	12:48:38	2240906	4	1	3	1	1	1	1	0	1	5	3	0	0	0	0	4	3
083012	12:48:38	10038	DigitSpanEngBaseline	Gate6EngBaseline	13	0	1	0	111	12:48:38	2240921	4	1	3	1	1	1	1	0	1	5	4	0	0	0	0	4	3
083012	12:48:38	10038	DigitSpanEngBaseline	Score4EngBaseline	13	DS2	8647	0	111	12:48:38	2257619	4	1	3	1	1	1	1	0	1	5	4	0	0	0	0	4	3
083012	12:48:38	10038	DigitSpanEngBaseline	Gate7EngBaseline	13	0	1	0	111	12:48:38	2257635	4	1	3	1	1	1	1	0	1	5	4	0	0	0	0	4	3
083012	12:48:38	10038	DigitSpanEngBaseline	Score44EngBaseline	13	DS2	5432	0	111	12:48:38	2271321	4	1	3	1	1	1	1	0	1	5	4	0	0	0	0	4	3
083012	12:48:38	10038	Trial	IncongruentRight	14	205	560	1	111	12:48:38	2346571	4	1	3	1	1	1	1	0	1	5	4	0	0	0	0	4	3
083012	12:48:38	10038	Trial	IncongruentLeft	14	203	521	1	111	12:48:38	2347530	4	1	3	1	1	1	1	0	1	5	4	0	0	0	0	4	3
083012	12:48:38	10038	Trial	CongruentRight	14	205	385	1	111	12:48:38	2348396	4	1	3	1	1	1	1	0	1	5	4	0	0	0	0	4	3
083012	12:48:38	10038	Trial	IncongruentRight	14	205	410	1	111	12:48:38	2349409	4	1	3	1	1	1	1	0	1	5	4	0	0	0	0	4	3
083012	12:48:38	10038	Trial	CongruentLeft	14	203	373	1	111	12:48:38	2350396	4	1	3	1	1	1	1	0	1	5	4	0	0	0	0	4	3
083012	12:48:38	10038	Trial	CongruentRight	14	205	477	1	111	12:48:38	2351489	4	1	3	1	1	1	1	0	1	5	4	0	0	0	0	4	3
083012	12:48:38	10038	Trial	IncongruentRight	14	205	485	1	111	12:48:38	2352502	4	1	3	1	1	1	1	0	1	5	4	0	0	0	0	4	3
083012	12:48:38	10038	Trial	CongruentLeft	14	203	334	1	111	12:48:38	2353355	4	1	3	1	1	1	1	0	1	5	4	0	0	0	0	4	3
083012	12:48:38	10038	Trial	IncongruentLeft	14	205	406	0	111	12:48:38	2354421	4	1	3	1	1	1	1	0	1	5	4	0	0	0	0	4	3
083012	12:48:38	10038	Trial	IncongruentLeft	14	203	494	1	111	12:48:38	2355514	4	1	3	1	1	1	1	0	1	5	4	0	0	0	0	4	3
083012	12:48:38	10038	Trial	CongruentRight	14	205	391	1	111	12:48:38	2356407	4	1	3	1	1	1	1	0	1	5	4	0	0	0	0	4	3
083012	12:48:38	10038	Trial	IncongruentRight	14	205	399	1	111	12:48:38	2357420	4	1	3	1	1	1	1	0	1	5	4	0	0	0	0	4	3
083012	12:48:38	10038	Trial	CongruentLeft	14	203	648	1	111	12:48:38	2358659	4	1	3	1	1	1	1	0	1	5	4	0	0	0	0	4	3
083012	12:48:38	10038	Trial	CongruentRight	14	205	543	1	111	12:48:38	2359552	4	1	3	1	1	1	1	0	1	5	4	0	0	0	0	4	3
083012	12:48:38	10038	Trial	IncongruentLeft	14	203	456	1	111	12:48:38	2360472	4	1	3	1	1	1	1	0	1	5	4	0	0	0	0	4	3
083012	12:48:38	10038	Trial	IncongruentRight	14	205	337	1	111	12:48:38	2361351	4	1	3	1	1	1	1	0	1	5	4	0	0	0	0	4	3
083012	12:48:38	10038	Trial	CongruentRight	14	205	505	1	111	12:48:38	2362524	4	1	3	1	1	1	1	0	1	5	4	0	0	0	0	4	3
083012	12:48:38	10038	Trial	CongruentLeft	14	203	369	1	111	12:48:38	2363377	4	1	3	1	1	1	1	0	1	5	4	0	0	0	0	4	3
083012	12:48:38	10038	Trial	CongruentRight	14	205	377	1	111	12:48:38	2364390	4	1	3	1	1	1	1	0	1	5	4	0	0	0	0	4	3
083012	12:48:38	10038	Trial	IncongruentRight	14	203	338	0	111	12:48:38	2365350	4	1	3	1	1	1	1	0	1	5	4	0	0	0	0	4	3
083012	12:48:38	10038	Trial	IncongruentLeft	14	0	737	0	111	12:48:38	2366736	4	1	3	1	1	1	1	0	1	5	4	0	0	0	0	4	3
083012	12:48:38	10038	Trial	IncongruentLeft	14	0	737	0	111	12:48:38	2367749	4	1	3	1	1	1	1	0	1	5	4	0	0	0	0	4	3
083012	12:48:38	10038	Trial	CongruentLeft	14	203	382	1	111	12:48:38	2368402	4	1	3	1	1	1	1	0	1	5	4	0	0	0	0	4	3
083012	12:48:38	10038	Trial	CongruentRight	14	205	566	1	111	12:48:38	2369588	4	1	3	1	1	1	1	0	1	5	4	0	0	0	0	4	3
083012	12:48:38	10038	Trial	IncongruentLeft	14	203	559	1	111	12:48:38	2370588	4	1	3	1	1	1	1	0	1	5	4	0	0	0	0	4	3
083012	12:48:38	10038	Trial	IncongruentRight	14	205	471	1	111	12:48:38	2371494	4	1	3	1	1	1	1	0	1	5	4	0	0	0	0	4	3
083012	12:48:38	10038	Trial	CongruentRight	14	205	546	1	111	12:48:38	2372587	4	1	3	1	1	1	1	0	1	5	4	0	0	0	0	4	3
083012	12:48:38	10038	Trial	CongruentLeft	14	203	411	1	111	12:48:38	2373440	4	1	3	1	1	1	1	0	1	5	4	0	0	0	0	4	3
083012	12:48:38	10038	Trial	IncongruentRight	14	205	515	1	111	12:48:38	2374546	4	1	3	1	1	1	1	0	1	5	4	0	0	0	0	4	3
083012	12:48:38	10038	Trial	IncongruentLeft	14	203	475	1	111	12:48:38	2375506	4	1	3	1	1	1	1	0	1	5	4	0	0	0	0	4	3
083012	12:48:38	10038	Trial	IncongruentRight	14	205	388	1	111	12:48:38	2376425	4	1	3	1	1	1	1	0	1	5	4	0	0	0	0	4	3
083012	12:48:38	10038	Trial	CongruentRight	14	205	492	1	111	12:48:38	2377532	4	1	3	1	1	1	1	0	1	5	4	0	0	0	0	4	3
083012	12:48:38	10038	Trial	IncongruentLeft	14	203	356	1	111	12:48:38	2378385	4	1	3	1	1	1	1	0	1	5	4	0	0	0	0	4	3
083012	12:48:38	10038	Trial	CongruentLeft	14	203	365	1	111	12:48:38	2379398	4	1	3	1	1	1	1	0	1	5	4	0	0	0	0	4	3
083012	12:48:38	10038	Trial	CongruentRight	14	205	357	1	111	12:48:38	2380384	4	1	3	1	1	1	1	0	1	5	4	0	0	0	0	4	3
083012	12:48:38	10038	Trial	IncongruentLeft	14	203	510	1	111	12:48:38	2381543	4	1	3	1	1	1	1	0	1	5	4	0	0	0	0	4	3
083012	12:48:38	10038	Trial	IncongruentRight	14	205	534	1	111	12:48:38	2382570	4	1	3	1	1	1	1	0	1	5	4	0	0	0	0	4	3
083012	12:48:38	10038	Trial	IncongruentRight	14	203	430	0	111	12:48:38	2383463	4	1	3	1	1	1	1	0	1	5	4	0	0	0	0	4	3
083012	12:48:38	10038	Trial	CongruentLeft	14	203	726	1	111	12:48:38	2384755	4	1	3	1	1	1	1	0	1	5	4	0	0	0	0	4	3
083012	12:48:38	10038	Trial	IncongruentLeft	14	203	671	1	111	12:48:38	2385702	4	1	3	1	1	1	1	0	1	5	4	0	0	0	0	4	3
083012	12:48:38	10038	Trial	CongruentRight	14	205	423	1	111	12:48:38	2386448	4	1	3	1	1	1	1	0	1	5	4	0	0	0	0	4	3
083012	12:48:38	10038	Trial	CongruentLeft	14	0	737	0	111	12:48:38	2387768	4	1	3	1	1	1	1	0	1	5	4	0	0	0	0	4	3
083012	12:48:38	10038	Trial	IncongruentRight	14	205	603	1	111	12:48:38	2388647	4	1	3	1	1	1	1	0	1	5	4	0	0	0	0	4	3
083012	12:48:38	10038	Trial	CongruentRight	14	205	515	1	111	12:48:38	2389554	4	1	3	1	1	1	1	0	1	5	4	0	0	0	0	4	3
083012	12:48:38	10038	Trial	IncongruentLeft	14	203	348	1	111	12:48:38	2390394	4	1	3	1	1	1	1	0	1	5	4	0	0	0	0	4	3
083012	12:48:38	10038	Trial	CongruentLeft	14	203	455	1	111	12:48:38	2391513	4	1	3	1	1	1	1	0	1	5	4	0	0	0	0	4	3
083012	12:48:38	10038	Trial	IncongruentLeft	14	203	431	1	111	12:48:38	2392486	4	1	3	1	1	1	1	0	1	5	4	0	0	0	0	4	3
083012	12:48:38	10038	Trial	IncongruentRight	14	205	407	1	111	12:48:38	2393459	4	1	3	1	1	1	1	0	1	5	4	0	0	0	0	4	3
083012	12:48:38	10038	Trial	CongruentRight	14	205	384	1	111	12:48:38	2394432	4	1	3	1	1	1	1	0	1	5	4	0	0	0	0	4	3
083012	12:48:38	10038	Trial	CongruentLeft	14	203	376	1	111	12:48:38	2395431	4	1	3	1	1	1	1	0	1	5	4	0	0	0	0	4	3
083012	12:48:38	10038	Trial	CongruentLeft	14	203	369	1	111	12:48:38	2396418	4	1	3	1	1	1	1	0	1	5	4	0	0	0	0	4	3
083012	12:48:38	10038	Trial	IncongruentRight	14	205	585	1	111	12:48:38	2397644	4	1	3	1	1	1	1	0	1	5	4	0	0	0	0	4	3
083012	12:48:38	10038	Trial	IncongruentLeft	14	203	545	1	111	12:48:38	2398603	4	1	3	1	1	1	1	0	1	5	4	0	0	0	0	4	3
083012	12:48:38	10038	Trial	IncongruentRight	14	205	554	1	111	12:48:38	2399603	4	1	3	1	1	1	1	0	1	5	4	0	0	0	0	4	3
083012	12:48:38	10038	Trial	CongruentRight	14	205	546	1	111	12:48:38	2400603	4	1	3	1	1	1	1	0	1	5	4	0	0	0	0	4	3
083012	12:48:38	10038	Trial	CongruentRight	14	205	443	1	111	12:48:38	2401496	4	1	3	1	1	1	1	0	1	5	4	0	0	0	0	4	3
083012	12:48:38	10038	Trial	IncongruentLeft	14	203	579	1	111	12:48:38	2402628	4	1	3	1	1	1	1	0	1	5	4	0	0	0	0	4	3
083012	12:48:38	10038	Trial	CongruentLeft	14	203	427	1	111	12:48:38	2403481	4	1	3	1	1	1	1	0	1	5	4	0	0	0	0	4	3
083012	12:48:38	10038	Trial	CongruentRight	14	205	515	1	111	12:48:38	2404561	4	1	3	1	1	1	1	0	1	5	4	0	0	0	0	4	3
083012	12:48:38	10038	Trial	CongruentLeft	14	203	508	1	111	12:48:38	2405560	4	1	3	1	1	1	1	0	1	5	4	0	0	0	0	4	3
083012	12:48:38	10038	Trial	IncongruentRight	14	205	356	1	111	12:48:38	2406400	4	1	3	1	1	1	1	0	1	5	4	0	0	0	0	4	3
083012	12:48:38	10038	Trial	CongruentRight	14	205	461	1	111	12:48:38	2407507	4	1	3	1	1	1	1	0	1	5	4	0	0	0	0	4	3
083012	12:48:38	10038	Trial	CongruentLeft	14	203	421	1	111	12:48:38	2408466	4	1	3	1	1	1	1	0	1	5	4	0	0	0	0	4	3
083012	12:48:38	10038	Trial	IncongruentLeft	14	203	494	1	111	12:48:38	2409546	4	1	3	1	1	1	1	0	1	5	4	0	0	0	0	4	3
083012	12:48:38	10038	Trial	IncongruentLeft	14	203	470	1	111	12:48:38	2410519	4	1	3	1	1	1	1	0	1	5	4	0	0	0	0	4	3
083012	12:48:38	10038	Trial	CongruentRight	14	205	330	1	111	12:48:38	2411372	4	1	3	1	1	1	1	0	1	5	4	0	0	0	0	4	3
083012	12:48:38	10038	Trial	IncongruentRight	14	205	310	1	111	12:48:38	2412358	4	1	3	1	1	1	1	0	1	5	4	0	0	0	0	4	3
083012	12:48:38	10038	Trial	CongruentLeft	14	205	319	0	111	12:48:38	2413371	4	1	3	1	1	1	1	0	1	5	4	0	0	0	0	4	3
083012	12:48:38	10038	Trial	IncongruentRight	14	203	552	0	111	12:48:38	2414597	4	1	3	1	1	1	1	0	1	5	4	0	0	0	0	4	3
083012	12:48:38	10038	Trial	CongruentRight	14	205	528	1	111	12:48:38	2415570	4	1	3	1	1	1	1	0	1	5	4	0	0	0	0	4	3
083012	12:48:38	10038	Trial	IncongruentLeft	14	203	520	1	111	12:48:38	2416570	4	1	3	1	1	1	1	0	1	5	4	0	0	0	0	4	3
083012	12:48:38	10038	Trial	CongruentLeft	14	203	401	1	111	12:48:38	2417449	4	1	3	1	1	1	1	0	1	5	4	0	0	0	0	4	3
083012	12:48:38	10038	Trial	CongruentRight	14	205	537	1	111	12:48:38	2418582	4	1	3	1	1	1	1	0	1	5	4	0	0	0	0	4	3
083012	12:48:38	10038	Trial	IncongruentLeft	14	203	513	1	111	12:48:38	2419555	4	1	3	1	1	1	1	0	1	5	4	0	0	0	0	4	3
083012	12:48:38	10038	Trial	CongruentRight	14	205	506	1	111	12:48:38	2420555	4	1	3	1	1	1	1	0	1	5	4	0	0	0	0	4	3
083012	12:48:38	10038	Trial	CongruentRight	14	205	466	1	111	12:48:38	2421514	4	1	3	1	1	1	1	0	1	5	4	0	0	0	0	4	3
083012	12:48:38	10038	Trial	IncongruentRight	14	205	395	1	111	12:48:38	2422434	4	1	3	1	1	1	1	0	1	5	4	0	0	0	0	4	3
083012	12:48:38	10038	Trial	CongruentLeft	14	203	406	1	111	12:48:38	2423460	4	1	3	1	1	1	1	0	1	5	4	0	0	0	0	4	3
083012	12:48:38	10038	Trial	IncongruentLeft	14	203	414	1	111	12:48:38	2424473	4	1	3	1	1	1	1	0	1	5	4	0	0	0	0	4	3
083012	12:48:38	10038	Trial	CongruentLeft	14	203	390	1	111	12:48:38	2425446	4	1	3	1	1	1	1	0	1	5	4	0	0	0	0	4	3
083012	12:48:38	10038	Trial	IncongruentRight	14	205	384	1	111	12:48:38	2426433	4	1	3	1	1	1	1	0	1	5	4	0	0	0	0	4	3
083012	12:48:38	10038	Trial	IncongruentLeft	14	203	487	1	111	12:48:38	2427539	4	1	3	1	1	1	1	0	1	5	4	0	0	0	0	4	3
083012	12:48:38	10038	Trial	CongruentRight	14	205	528	1	111	12:48:38	2428578	4	1	3	1	1	1	1	0	1	5	4	0	0	0	0	4	3
083012	12:48:38	10038	Trial	CongruentLeft	14	203	552	1	111	12:48:38	2429605	4	1	3	1	1	1	1	0	1	5	4	0	0	0	0	4	3
083012	12:48:38	10038	Trial	IncongruentLeft	14	203	448	1	111	12:48:38	2430497	4	1	3	1	1	1	1	0	1	5	4	0	0	0	0	4	3
083012	12:48:38	10038	Trial	CongruentLeft	14	203	361	1	111	12:48:38	2431417	4	1	3	1	1	1	1	0	1	5	4	0	0	0	0	4	3
083012	12:48:38	10038	Trial	IncongruentRight	14	205	465	1	111	12:48:38	2432524	4	1	3	1	1	1	1	0	1	5	4	0	0	0	0	4	3
083012	12:48:38	10038	Trial	CongruentRight	14	205	393	1	111	12:48:38	2433444	4	1	3	1	1	1	1	0	1	5	4	0	0	0	0	4	3
083012	12:48:38	10038	Trial	IncongruentLeft	14	203	482	1	111	12:48:38	2434536	4	1	3	1	1	1	1	0	1	5	4	0	0	0	0	4	3
083012	12:48:38	10038	Trial	CongruentLeft	14	203	362	1	111	12:48:38	2435416	4	1	3	1	1	1	1	0	1	5	4	0	0	0	0	4	3
083012	12:48:38	10038	Trial	IncongruentRight	14	205	371	1	111	12:48:38	2436415	4	1	3	1	1	1	1	0	1	5	4	0	0	0	0	4	3
083012	12:48:38	10038	Trial	IncongruentLeft	14	203	571	1	111	12:48:38	2437628	4	1	3	1	1	1	1	0	1	5	4	0	0	0	0	4	3
083012	12:48:38	10038	Trial	CongruentLeft	14	203	355	1	111	12:48:38	2438401	4	1	3	1	1	1	1	0	1	5	4	0	0	0	0	4	3
083012	12:48:38	10038	Trial	IncongruentLeft	14	203	428	1	111	12:48:38	2439481	4	1	3	1	1	1	1	0	1	5	4	0	0	0	0	4	3
083012	12:48:38	10038	Trial	CongruentRight	14	205	468	1	111	12:48:38	2440520	4	1	3	1	1	1	1	0	1	5	4	0	0	0	0	4	3
083012	12:48:38	10038	Trial	CongruentLeft	14	205	349	0	111	12:48:38	2441400	4	1	3	1	1	1	1	0	1	5	4	0	0	0	0	4	3
083012	12:48:38	10038	Trial	IncongruentRight	14	205	709	1	111	12:48:38	2442759	4	1	3	1	1	1	1	0	1	5	4	0	0	0	0	4	3
083012	12:48:38	10038	Trial	CongruentLeft	14	203	685	1	111	12:48:38	2443732	4	1	3	1	1	1	1	0	1	5	4	0	0	0	0	4	3
083012	12:48:38	10038	Trial	CongruentRight	14	205	613	1	111	12:48:38	2444665	4	1	3	1	1	1	1	0	1	5	4	0	0	0	0	4	3
083012	12:48:38	10038	Trial	IncongruentLeft	14	203	590	1	111	12:48:38	2445638	4	1	3	1	1	1	1	0	1	5	4	0	0	0	0	4	3
083012	12:48:38	10038	Trial750Eng	IncongruentRight750	15	0	487	0	111	12:48:38	2456740	4	1	3	1	1	1	1	0	1	5	4	0	0	0	0	4	3
083012	12:48:38	10038	Trial750Eng	IncongruentLeft750	15	205	317	0	111	12:48:38	2457327	4	1	3	1	1	1	1	0	1	5	4	0	0	0	0	4	3
083012	12:48:38	10038	Trial750Eng	CongruentRight750	15	205	421	1	111	12:48:38	2458193	4	1	3	1	1	1	1	0	1	5	4	0	0	0	0	4	3
083012	12:48:38	10038	Trial750Eng	IncongruentRight750	15	0	487	0	111	12:48:38	2459006	4	1	3	1	1	1	1	0	1	5	4	0	0	0	0	4	3
083012	12:48:38	10038	Trial750Eng	CongruentLeft750	15	0	487	0	111	12:48:38	2459766	4	1	3	1	1	1	1	0	1	5	4	0	0	0	0	4	3
083012	12:48:38	10038	Trial750Eng	CongruentRight750	15	0	487	0	111	12:48:38	2460526	4	1	3	1	1	1	1	0	1	5	4	0	0	0	0	4	3
083012	12:48:38	10038	Trial750Eng	IncongruentRight750	15	0	487	0	111	12:48:38	2461286	4	1	3	1	1	1	1	0	1	5	4	0	0	0	0	4	3
083012	12:48:38	10038	Trial750Eng	CongruentLeft750	15	0	487	0	111	12:48:38	2462045	4	1	3	1	1	1	1	0	1	5	4	0	0	0	0	4	3
083012	12:48:38	10038	Trial750Eng	IncongruentLeft750	15	203	468	1	111	12:48:38	2462791	4	1	3	1	1	1	1	0	1	5	4	0	0	0	0	4	3
083012	12:48:38	10038	Trial750Eng	IncongruentLeft750	15	0	487	0	111	12:48:38	2463551	4	1	3	1	1	1	1	0	1	5	4	0	0	0	0	4	3
083012	12:48:38	10038	Trial750Eng	CongruentRight750	15	205	466	1	111	12:48:38	2464298	4	1	3	1	1	1	1	0	1	5	4	0	0	0	0	4	3
083012	12:48:38	10038	Trial750Eng	IncongruentRight750	15	205	331	1	111	12:48:38	2464911	4	1	3	1	1	1	1	0	1	5	4	0	0	0	0	4	3
083012	12:48:38	10038	Trial750Eng	CongruentLeft750	15	0	487	0	111	12:48:38	2465817	4	1	3	1	1	1	1	0	1	5	4	0	0	0	0	4	3
083012	12:48:38	10038	Trial750Eng	CongruentRight750	15	0	487	0	111	12:48:38	2466577	4	1	3	1	1	1	1	0	1	5	4	0	0	0	0	4	3
083012	12:48:38	10038	Trial750Eng	IncongruentLeft750	15	203	387	1	111	12:48:38	2467256	4	1	3	1	1	1	1	0	1	5	4	0	0	0	0	4	3
083012	12:48:38	10038	Trial750Eng	IncongruentRight750	15	205	345	1	111	12:48:38	2467963	4	1	3	1	1	1	1	0	1	5	4	0	0	0	0	4	3
083012	12:48:38	10038	Trial750Eng	CongruentRight750	15	203	335	0	111	12:48:38	2468696	4	1	3	1	1	1	1	0	1	5	4	0	0	0	0	4	3
083012	12:48:38	10038	Trial750Eng	CongruentLeft750	15	203	468	1	111	12:48:38	2469575	4	1	3	1	1	1	1	0	1	5	4	0	0	0	0	4	3
083012	12:48:38	10038	Trial750Eng	CongruentRight750	15	205	461	1	111	12:48:38	2470322	4	1	3	1	1	1	1	0	1	5	4	0	0	0	0	4	3
083012	12:48:38	10038	Trial750Eng	IncongruentRight750	15	205	419	1	111	12:48:38	2471028	4	1	3	1	1	1	1	0	1	5	4	0	0	0	0	4	3
083012	12:48:38	10038	Trial750Eng	IncongruentLeft750	15	203	377	1	111	12:48:38	2471737	4	1	3	1	1	1	1	0	1	5	4	0	0	0	0	4	3
083012	12:48:38	10038	Trial750Eng	IncongruentLeft750	15	203	381	1	111	12:48:38	2472481	4	1	3	1	1	1	1	0	1	5	4	0	0	0	0	4	3
083012	12:48:38	10038	Trial750Eng	CongruentLeft750	15	203	390	1	111	12:48:38	2473254	4	1	3	1	1	1	1	0	1	5	4	0	0	0	0	4	3
083012	12:48:38	10038	Trial750Eng	CongruentRight750	15	205	331	1	111	12:48:38	2473947	4	1	3	1	1	1	1	0	1	5	4	0	0	0	0	4	3
083012	12:48:38	10038	Trial750Eng	IncongruentLeft750	15	203	449	1	111	12:48:38	2474800	4	1	3	1	1	1	1	0	1	5	4	0	0	0	0	4	3
083012	12:48:38	10038	Trial750Eng	IncongruentRight750	15	205	361	1	111	12:48:38	2475480	4	1	3	1	1	1	1	0	1	5	4	0	0	0	0	4	3
083012	12:48:38	10038	Trial750Eng	CongruentRight750	15	0	487	0	111	12:48:38	2476346	4	1	3	1	1	1	1	0	1	5	4	0	0	0	0	4	3
083012	12:48:38	10038	Trial750Eng	CongruentLeft750	15	203	455	1	111	12:48:38	2477079	4	1	3	1	1	1	1	0	1	5	4	0	0	0	0	4	3
083012	12:48:38	10038	Trial750Eng	IncongruentRight750	15	0	487	0	111	12:48:38	2477852	4	1	3	1	1	1	1	0	1	5	4	0	0	0	0	4	3
083012	12:48:38	10038	Trial750Eng	IncongruentLeft750	15	203	389	1	111	12:48:38	2478519	4	1	3	1	1	1	1	0	1	5	4	0	0	0	0	4	3
083012	12:48:38	10038	Trial750Eng	IncongruentRight750	15	205	285	1	111	12:48:38	2479172	4	1	3	1	1	1	1	0	1	5	4	0	0	0	0	4	3
083012	12:48:38	10038	Trial750Eng	CongruentRight750	15	203	275	0	111	12:48:38	2479904	4	1	3	1	1	1	1	0	1	5	4	0	0	0	0	4	3
083012	12:48:38	10038	Trial750Eng	IncongruentLeft750	15	0	487	0	111	12:48:38	2480864	4	1	3	1	1	1	1	0	1	5	4	0	0	0	0	4	3
083012	12:48:38	10038	Trial750Eng	CongruentLeft750	15	203	481	1	111	12:48:38	2481624	4	1	3	1	1	1	1	0	1	5	4	0	0	0	0	4	3
083012	12:48:38	10038	Trial750Eng	CongruentRight750	15	0	487	0	111	12:48:38	2482384	4	1	3	1	1	1	1	0	1	5	4	0	0	0	0	4	3
083012	12:48:38	10038	Trial750Eng	IncongruentLeft750	15	203	465	1	111	12:48:38	2483130	4	1	3	1	1	1	1	0	1	5	4	0	0	0	0	4	3
083012	12:48:38	10038	Trial750Eng	IncongruentRight750	15	0	487	0	111	12:48:38	2483890	4	1	3	1	1	1	1	0	1	5	4	0	0	0	0	4	3
083012	12:48:38	10038	Trial750Eng	IncongruentRight750	15	205	431	1	111	12:48:38	2484596	4	1	3	1	1	1	1	0	1	5	4	0	0	0	0	4	3
083012	12:48:38	10038	Trial750Eng	CongruentLeft750	15	0	487	0	111	12:48:38	2485396	4	1	3	1	1	1	1	0	1	5	4	0	0	0	0	4	3
083012	12:48:38	10038	Trial750Eng	IncongruentLeft750	15	0	487	0	111	12:48:38	2486156	4	1	3	1	1	1	1	0	1	5	4	0	0	0	0	4	3
083012	12:48:38	10038	Trial750Eng	CongruentRight750	15	205	469	1	111	12:48:38	2486902	4	1	3	1	1	1	1	0	1	5	4	0	0	0	0	4	3
083012	12:48:38	10038	Trial750Eng	CongruentLeft750	15	0	487	0	111	12:48:38	2487662	4	1	3	1	1	1	1	0	1	5	4	0	0	0	0	4	3
083012	12:48:38	10038	Trial750Eng	IncongruentRight750	15	205	483	1	111	12:48:38	2488421	4	1	3	1	1	1	1	0	1	5	4	0	0	0	0	4	3
083012	12:48:38	10038	Trial750Eng	CongruentRight750	15	0	487	0	111	12:48:38	2489181	4	1	3	1	1	1	1	0	1	5	4	0	0	0	0	4	3
083012	12:48:38	10038	Trial750Eng	IncongruentLeft750	15	0	487	0	111	12:48:38	2489941	4	1	3	1	1	1	1	0	1	5	4	0	0	0	0	4	3
083012	12:48:38	10038	Trial750Eng	CongruentLeft750	15	203	29	1	111	12:48:38	2490248	4	1	3	1	1	1	1	0	1	5	4	0	0	0	0	4	3
083012	12:48:38	10038	Trial750Eng	IncongruentLeft750	15	0	487	0	111	12:48:38	2491447	4	1	3	1	1	1	1	0	1	5	4	0	0	0	0	4	3
083012	12:48:38	10038	Trial750Eng	IncongruentRight750	15	203	313	0	111	12:48:38	2492034	4	1	3	1	1	1	1	0	1	5	4	0	0	0	0	4	3
083012	12:48:38	10038	Trial750Eng	CongruentRight750	15	205	467	1	111	12:48:38	2492953	4	1	3	1	1	1	1	0	1	5	4	0	0	0	0	4	3
083012	12:48:38	10038	Trial750Eng	CongruentLeft750	15	203	456	1	111	12:48:38	2493686	4	1	3	1	1	1	1	0	1	5	4	0	0	0	0	4	3
083012	12:48:38	10038	Trial750Eng	CongruentLeft750	15	203	353	1	111	12:48:38	2494339	4	1	3	1	1	1	1	0	1	5	4	0	0	0	0	4	3
083012	12:48:38	10038	Trial750Eng	IncongruentRight750	15	0	487	0	111	12:48:38	2495219	4	1	3	1	1	1	1	0	1	5	4	0	0	0	0	4	3
083012	12:48:38	10038	Trial750Eng	IncongruentLeft750	15	0	487	0	111	12:48:38	2495978	4	1	3	1	1	1	1	0	1	5	4	0	0	0	0	4	3
083012	12:48:38	10038	Trial750Eng	IncongruentRight750	15	0	487	0	111	12:48:38	2496738	4	1	3	1	1	1	1	0	1	5	4	0	0	0	0	4	3
083012	12:48:38	10038	Trial750Eng	CongruentRight750	15	0	487	0	111	12:48:38	2497498	4	1	3	1	1	1	1	0	1	5	4	0	0	0	0	4	3
083012	12:48:38	10038	Trial750Eng	CongruentRight750	15	205	423	1	111	12:48:38	2498191	4	1	3	1	1	1	1	0	1	5	4	0	0	0	0	4	3
083012	12:48:38	10038	Trial750Eng	IncongruentLeft750	15	203	416	1	111	12:48:38	2498951	4	1	3	1	1	1	1	0	1	5	4	0	0	0	0	4	3
083012	12:48:38	10038	Trial750Eng	CongruentLeft750	15	203	357	1	111	12:48:38	2499630	4	1	3	1	1	1	1	0	1	5	4	0	0	0	0	4	3
083012	12:48:38	10038	Trial750Eng	CongruentRight750	15	205	346	1	111	12:48:38	2500377	4	1	3	1	1	1	1	0	1	5	4	0	0	0	0	4	3
083012	12:48:38	10038	Trial750Eng	CongruentLeft750	15	203	323	1	111	12:48:38	2501110	4	1	3	1	1	1	1	0	1	5	4	0	0	0	0	4	3
083012	12:48:38	10038	Trial750Eng	IncongruentRight750	15	205	360	1	111	12:48:38	2501896	4	1	3	1	1	1	1	0	1	5	4	0	0	0	0	4	3
083012	12:48:38	10038	Trial750Eng	CongruentRight750	15	203	335	0	111	12:48:38	2502616	4	1	3	1	1	1	1	0	1	5	4	0	0	0	0	4	3
083012	12:48:38	10038	Trial750Eng	CongruentLeft750	15	0	487	0	111	12:48:38	2503509	4	1	3	1	1	1	1	0	1	5	4	0	0	0	0	4	3
083012	12:48:38	10038	Trial750Eng	IncongruentLeft750	15	0	487	0	111	12:48:38	2504269	4	1	3	1	1	1	1	0	1	5	4	0	0	0	0	4	3
083012	12:48:38	10038	Trial750Eng	IncongruentLeft750	15	0	487	0	111	12:48:38	2505029	4	1	3	1	1	1	1	0	1	5	4	0	0	0	0	4	3
083012	12:48:38	10038	Trial750Eng	CongruentRight750	15	0	487	0	111	12:48:38	2505788	4	1	3	1	1	1	1	0	1	5	4	0	0	0	0	4	3
083012	12:48:38	10038	Trial750Eng	IncongruentRight750	15	0	487	0	111	12:48:38	2506548	4	1	3	1	1	1	1	0	1	5	4	0	0	0	0	4	3
083012	12:48:38	10038	Trial750Eng	CongruentLeft750	15	203	381	1	111	12:48:38	2507201	4	1	3	1	1	1	1	0	1	5	4	0	0	0	0	4	3
083012	12:48:38	10038	Trial750Eng	IncongruentRight750	15	205	357	1	111	12:48:38	2507934	4	1	3	1	1	1	1	0	1	5	4	0	0	0	0	4	3
083012	12:48:38	10038	Trial750Eng	CongruentRight750	15	205	479	1	111	12:48:38	2508813	4	1	3	1	1	1	1	0	1	5	4	0	0	0	0	4	3
083012	12:48:38	10038	Trial750Eng	IncongruentLeft750	15	205	371	0	111	12:48:38	2509467	4	1	3	1	1	1	1	0	1	5	4	0	0	0	0	4	3
083012	12:48:38	10038	Trial750Eng	CongruentLeft750	15	203	363	1	111	12:48:38	2510213	4	1	3	1	1	1	1	0	1	5	4	0	0	0	0	4	3
083012	12:48:38	10038	Trial750Eng	CongruentRight750	15	0	487	0	111	12:48:38	2511079	4	1	3	1	1	1	1	0	1	5	4	0	0	0	0	4	3
083012	12:48:38	10038	Trial750Eng	IncongruentLeft750	15	0	487	0	111	12:48:38	2511839	4	1	3	1	1	1	1	0	1	5	4	0	0	0	0	4	3
083012	12:48:38	10038	Trial750Eng	CongruentRight750	15	0	487	0	111	12:48:38	2512599	4	1	3	1	1	1	1	0	1	5	4	0	0	0	0	4	3
083012	12:48:38	10038	Trial750Eng	CongruentRight750	15	0	487	0	111	12:48:38	2513359	4	1	3	1	1	1	1	0	1	5	4	0	0	0	0	4	3
083012	12:48:38	10038	Trial750Eng	IncongruentRight750	15	0	487	0	111	12:48:38	2514118	4	1	3	1	1	1	1	0	1	5	4	0	0	0	0	4	3
083012	12:48:38	10038	Trial750Eng	CongruentLeft750	15	0	487	0	111	12:48:38	2514878	4	1	3	1	1	1	1	0	1	5	4	0	0	0	0	4	3
083012	12:48:38	10038	Trial750Eng	IncongruentLeft750	15	203	419	1	111	12:48:38	2515571	4	1	3	1	1	1	1	0	1	5	4	0	0	0	0	4	3
083012	12:48:38	10038	Trial750Eng	CongruentLeft750	15	0	487	0	111	12:48:38	2516384	4	1	3	1	1	1	1	0	1	5	4	0	0	0	0	4	3
083012	12:48:38	10038	Trial750Eng	IncongruentRight750	15	205	401	1	111	12:48:38	2517064	4	1	3	1	1	1	1	0	1	5	4	0	0	0	0	4	3
083012	12:48:38	10038	Trial750Eng	IncongruentLeft750	15	0	487	0	111	12:48:38	2517890	4	1	3	1	1	1	1	0	1	5	4	0	0	0	0	4	3
083012	12:48:38	10038	Trial750Eng	CongruentRight750	15	205	479	1	111	12:48:38	2518650	4	1	3	1	1	1	1	0	1	5	4	0	0	0	0	4	3
083012	12:48:38	10038	Trial750Eng	CongruentLeft750	15	203	423	1	111	12:48:38	2519343	4	1	3	1	1	1	1	0	1	5	4	0	0	0	0	4	3
083012	12:48:38	10038	Trial750Eng	IncongruentLeft750	15	0	487	0	111	12:48:38	2520156	4	1	3	1	1	1	1	0	1	5	4	0	0	0	0	4	3
083012	12:48:38	10038	Trial750Eng	CongruentLeft750	15	0	487	0	111	12:48:38	2520915	4	1	3	1	1	1	1	0	1	5	4	0	0	0	0	4	3
083012	12:48:38	10038	Trial750Eng	IncongruentRight750	15	0	487	0	111	12:48:38	2521675	4	1	3	1	1	1	1	0	1	5	4	0	0	0	0	4	3
083012	12:48:38	10038	Trial750Eng	CongruentRight750	15	205	374	1	111	12:48:38	2522328	4	1	3	1	1	1	1	0	1	5	4	0	0	0	0	4	3
083012	12:48:38	10038	Trial750Eng	IncongruentLeft750	15	0	487	0	111	12:48:38	2523181	4	1	3	1	1	1	1	0	1	5	4	0	0	0	0	4	3
083012	12:48:38	10038	Trial750Eng	CongruentLeft750	15	203	468	1	111	12:48:38	2523928	4	1	3	1	1	1	1	0	1	5	4	0	0	0	0	4	3
083012	12:48:38	10038	Trial750Eng	IncongruentRight750	15	0	487	0	111	12:48:38	2524687	4	1	3	1	1	1	1	0	1	5	4	0	0	0	0	4	3
083012	12:48:38	10038	Trial750Eng	IncongruentLeft750	15	0	487	0	111	12:48:38	2525447	4	1	3	1	1	1	1	0	1	5	4	0	0	0	0	4	3
083012	12:48:38	10038	Trial750Eng	CongruentLeft750	15	0	487	0	111	12:48:38	2526207	4	1	3	1	1	1	1	0	1	5	4	0	0	0	0	4	3
083012	12:48:38	10038	Trial750Eng	IncongruentLeft750	15	0	487	0	111	12:48:38	2526966	4	1	3	1	1	1	1	0	1	5	4	0	0	0	0	4	3
083012	12:48:38	10038	Trial750Eng	CongruentRight750	15	203	75	0	111	12:48:38	2527313	4	1	3	1	1	1	1	0	1	5	4	0	0	0	0	4	3
083012	12:48:38	10038	Trial750Eng	CongruentLeft750	15	0	487	0	111	12:48:38	2528473	4	1	3	1	1	1	1	0	1	5	4	0	0	0	0	4	3
083012	12:48:38	10038	Trial750Eng	IncongruentRight750	15	0	487	0	111	12:48:38	2529232	4	1	3	1	1	1	1	0	1	5	4	0	0	0	0	4	3
083012	12:48:38	10038	Trial750Eng	CongruentLeft750	15	0	487	0	111	12:48:38	2529992	4	1	3	1	1	1	1	0	1	5	4	0	0	0	0	4	3
083012	12:48:38	10038	Trial750Eng	CongruentRight750	15	205	425	1	111	12:48:38	2530698	4	1	3	1	1	1	1	0	1	5	4	0	0	0	0	4	3
083012	12:48:38	10038	Trial750Eng	IncongruentLeft750	15	203	376	1	111	12:48:38	2531406	4	1	3	1	1	1	1	0	1	5	4	0	0	0	0	4	3
083012	12:48:38	10038	WordsAbsEngBaseline	PAbsEngBaseline1	16	Abs1	30762	0	111	12:48:38	2573002	4	1	3	1	1	1	1	0	1	5	4	0	0	0	0	4	3
083012	12:48:38	10038	WordsAbsEngBaseline	AbsEngBaseline1	16	Abs1	3400	0	111	12:48:38	2576441	4	1	3	1	1	1	1	0	1	5	4	1	0	0	0	4	3
083012	12:48:38	10038	WordsAbsEngBaseline	AbsEngBaseline2	16	Abs2	36234	0	111	12:48:38	2612719	4	1	3	1	1	1	1	0	1	5	4	1	0	0	0	4	3
083012	12:48:38	10038	WordsAbsEngBaseline	AbsEngBaseline3	16	Abs1	62786	0	111	12:48:38	2675548	4	1	3	1	1	1	1	0	1	5	4	2	0	0	0	4	3
083012	12:48:38	10038	Trial2BackEngS	NS	17	0	1000	1	111	12:48:38	2727301	4	1	3	1	1	1	1	0	1	5	4	2	0	0	0	4	3
083012	12:48:38	10038	Trial2BackEngS	NS	17	0	1000	1	111	12:48:38	2728820	4	1	3	1	1	1	1	0	1	5	4	2	0	0	0	4	3
083012	12:48:38	10038	Trial2BackEngS	NS	17	0	1000	1	111	12:48:38	2730339	4	1	3	1	1	1	1	0	1	5	4	2	0	0	0	4	3
083012	12:48:38	10038	Trial2BackEngS	YS	17	57	767	1	111	12:48:38	2731632	4	1	3	1	1	1	1	0	1	5	4	2	0	0	0	4	3
083012	12:48:38	10038	Trial2BackEngS	NS	17	0	1000	1	111	12:48:38	2733365	4	1	3	1	1	1	1	0	1	5	4	2	0	0	0	4	3
083012	12:48:38	10038	Trial2BackEngS	NS	17	0	1000	1	111	12:48:38	2734884	4	1	3	1	1	1	1	0	1	5	4	2	0	0	0	4	3
083012	12:48:38	10038	Trial2BackEngS	NS	17	0	1000	1	111	12:48:38	2736404	4	1	3	1	1	1	1	0	1	5	4	2	0	0	0	4	3
083012	12:48:38	10038	Trial2BackEngS	NS	17	0	1000	1	111	12:48:38	2737923	4	1	3	1	1	1	1	0	1	5	4	2	0	0	0	4	3
083012	12:48:38	10038	Trial2BackEngS	YS	17	57	559	1	111	12:48:38	2739016	4	1	3	1	1	1	1	0	1	5	4	2	0	0	0	4	3
083012	12:48:38	10038	Trial2BackEngS	NS	17	0	1000	1	111	12:48:38	2740948	4	1	3	1	1	1	1	0	1	5	4	2	0	0	0	4	3
083012	12:48:38	10038	Trial2BackEngS	NS	17	0	1000	1	111	12:48:38	2742468	4	1	3	1	1	1	1	0	1	5	4	2	0	0	0	4	3
083012	12:48:38	10038	Trial2BackEngS	YS	17	0	1000	0	111	12:48:38	2743987	4	1	3	1	1	1	1	0	1	5	4	2	0	0	0	4	3
083012	12:48:38	10038	Trial2BackEngS	NS	17	0	1000	1	111	12:48:38	2745507	4	1	3	1	1	1	1	0	1	5	4	2	0	0	0	4	3
083012	12:48:38	10038	Trial2BackEngS	NS	17	57	655	0	111	12:48:38	2746693	4	1	3	1	1	1	1	0	1	5	4	2	0	0	0	4	3
083012	12:48:38	10038	Trial2BackEngS	NS	17	0	1000	1	111	12:48:38	2748532	4	1	3	1	1	1	1	0	1	5	4	2	0	0	0	4	3
083012	12:48:38	10038	Trial2BackEngS	YS	17	0	1000	0	111	12:48:38	2750051	4	1	3	1	1	1	1	0	1	5	4	2	0	0	0	4	3
083012	12:48:38	10038	Trial2BackEngS	NS	17	0	1000	1	111	12:48:38	2751571	4	1	3	1	1	1	1	0	1	5	4	2	0	0	0	4	3
083012	12:48:38	10038	Trial2BackEngS	NS	17	0	1000	1	111	12:48:38	2753091	4	1	3	1	1	1	1	0	1	5	4	2	0	0	0	4	3
083012	12:48:38	10038	Trial2BackEngS	NS	17	57	687	0	111	12:48:38	2754303	4	1	3	1	1	1	1	0	1	5	4	2	0	0	0	4	3
083012	12:48:38	10038	Trial2BackEngS	NS	17	0	1000	1	111	12:48:38	2756116	4	1	3	1	1	1	1	0	1	5	4	2	0	0	0	4	3
083012	12:48:38	10038	Trial2BackEngS	YS	17	57	894	1	111	12:48:38	2757542	4	1	3	1	1	1	1	0	1	5	4	2	0	0	0	4	3
083012	12:48:38	10038	Trial2BackEngS	NS	17	0	1000	1	111	12:48:38	2759141	4	1	3	1	1	1	1	0	1	5	4	2	0	0	0	4	3
083012	12:48:38	10038	Trial2BackEngS	NS	17	0	1000	1	111	12:48:38	2760661	4	1	3	1	1	1	1	0	1	5	4	2	0	0	0	4	3
083012	12:48:38	10038	Trial2BackEngS	NS	17	0	1000	1	111	12:48:38	2762180	4	1	3	1	1	1	1	0	1	5	4	2	0	0	0	4	3
083012	12:48:38	10038	Trial2BackEngS	NS	17	0	1000	1	111	12:48:38	2763699	4	1	3	1	1	1	1	0	1	5	4	2	0	0	0	4	3
083012	12:48:38	10038	Trial2BackEngS	NS	17	57	622	0	111	12:48:38	2764845	4	1	3	1	1	1	1	0	1	5	4	2	0	0	0	4	3
083012	12:48:38	10038	Trial2BackEngS	NS	17	0	1000	1	111	12:48:38	2766725	4	1	3	1	1	1	1	0	1	5	4	2	0	0	0	4	3
083012	12:48:38	10038	Trial2BackEngS	NS	17	0	1000	1	111	12:48:38	2768244	4	1	3	1	1	1	1	0	1	5	4	2	0	0	0	4	3
083012	12:48:38	10038	Trial2BackEngS	NS	17	0	1000	1	111	12:48:38	2769764	4	1	3	1	1	1	1	0	1	5	4	2	0	0	0	4	3
083012	12:48:38	10038	Trial2BackEngS	NS	17	0	1000	1	111	12:48:38	2771283	4	1	3	1	1	1	1	0	1	5	4	2	0	0	0	4	3
083012	12:48:38	10038	Trial2BackEngS	NS	17	0	1000	1	111	12:48:38	2772803	4	1	3	1	1	1	1	0	1	5	4	2	0	0	0	4	3
083012	12:48:38	10038	Trial2BackEngS	YS	17	57	639	1	111	12:48:38	2773975	4	1	3	1	1	1	1	0	1	5	4	2	0	0	0	4	3
083012	12:48:38	10038	Trial2BackEngS	NS	17	0	1000	1	111	12:48:38	2775828	4	1	3	1	1	1	1	0	1	5	4	2	0	0	0	4	3
083012	12:48:38	10038	Trial2BackEngS	NS	17	0	1000	1	111	12:48:38	2777347	4	1	3	1	1	1	1	0	1	5	4	2	0	0	0	4	3
083012	12:48:38	10038	Trial2BackEngS	NS	17	0	1000	1	111	12:48:38	2778867	4	1	3	1	1	1	1	0	1	5	4	2	0	0	0	4	3
083012	12:48:38	10038	Trial2BackEngS	YS	17	57	511	1	111	12:48:38	2779906	4	1	3	1	1	1	1	0	1	5	4	2	0	0	0	4	3
083012	12:48:38	10038	Trial2BackEngS	NS	17	0	1000	1	111	12:48:38	2781892	4	1	3	1	1	1	1	0	1	5	4	2	0	0	0	4	3
083012	12:48:38	10038	Trial2BackEngS	NS	17	0	1000	1	111	12:48:38	2783412	4	1	3	1	1	1	1	0	1	5	4	2	0	0	0	4	3
083012	12:48:38	10038	Trial2BackEngS	NS	17	0	1000	1	111	12:48:38	2784932	4	1	3	1	1	1	1	0	1	5	4	2	0	0	0	4	3
083012	12:48:38	10038	Trial2BackEngS	NS	17	0	1000	1	111	12:48:38	2786451	4	1	3	1	1	1	1	0	1	5	4	2	0	0	0	4	3
083012	12:48:38	10038	Trial2BackEngS	NS	17	0	1000	1	111	12:48:38	2787970	4	1	3	1	1	1	1	0	1	5	4	2	0	0	0	4	3
083012	12:48:38	10038	Trial2BackEngS	NS	17	0	1000	1	111	12:48:38	2789489	4	1	3	1	1	1	1	0	1	5	4	2	0	0	0	4	3
083012	12:48:38	10038	Trial2BackEngS	NS	17	0	1000	1	111	12:48:38	2791009	4	1	3	1	1	1	1	0	1	5	4	2	0	0	0	4	3
083012	12:48:38	10038	Trial2BackEngS	YS	17	57	433	1	111	12:48:38	2791968	4	1	3	1	1	1	1	0	1	5	4	2	0	0	0	4	3
083012	12:48:38	10038	Trial2BackEngS	NS	17	0	1000	1	111	12:48:38	2794034	4	1	3	1	1	1	1	0	1	5	4	2	0	0	0	4	3
083012	12:48:38	10038	Trial2BackEngS	NS	17	57	958	0	111	12:48:38	2795527	4	1	3	1	1	1	1	0	1	5	4	2	0	0	0	4	3
083012	12:48:38	10038	Trial2BackEngS	NS	17	0	1000	1	111	12:48:38	2797060	4	1	3	1	1	1	1	0	1	5	4	2	0	0	0	4	3
083012	12:48:38	10038	Trial2BackEngS	NS	17	0	1000	1	111	12:48:38	2798579	4	1	3	1	1	1	1	0	1	5	4	2	0	0	0	4	3
083012	12:48:38	10038	Trial2BackEngS	YS	17	57	718	1	111	12:48:38	2799818	4	1	3	1	1	1	1	0	1	5	4	2	0	0	0	4	3
083012	12:48:38	10038	Trial2BackEngS	NS	17	0	1000	1	111	12:48:38	2801605	4	1	3	1	1	1	1	0	1	5	4	2	0	0	0	4	3
083012	12:48:38	10038	Trial2BackEngS	NS	17	0	1000	1	111	12:48:38	2803124	4	1	3	1	1	1	1	0	1	5	4	2	0	0	0	4	3
083012	12:48:38	10038	Trial2BackEngS	NS	17	0	1000	1	111	12:48:38	2804644	4	1	3	1	1	1	1	0	1	5	4	2	0	0	0	4	3
083012	12:48:38	10038	Trial2BackEngS	NS	17	57	830	0	111	12:48:38	2806003	4	1	3	1	1	1	1	0	1	5	4	2	0	0	0	4	3
083012	12:48:38	10038	Trial2BackEngS	NS	17	0	1000	1	111	12:48:38	2807669	4	1	3	1	1	1	1	0	1	5	4	2	0	0	0	4	3
083012	12:48:38	10038	Trial2BackEngS	NS	17	0	1000	1	111	12:48:38	2809188	4	1	3	1	1	1	1	0	1	5	4	2	0	0	0	4	3
083012	12:48:38	10038	Trial2BackEngS	YS	17	57	636	1	111	12:48:38	2810348	4	1	3	1	1	1	1	0	1	5	4	2	0	0	0	4	3
083012	12:48:38	10038	Trial2BackEngS	NS	17	0	1000	1	111	12:48:38	2812214	4	1	3	1	1	1	1	0	1	5	4	2	0	0	0	4	3
083012	12:48:38	10038	Trial2BackEngS	NS	17	0	1000	1	111	12:48:38	2813733	4	1	3	1	1	1	1	0	1	5	4	2	0	0	0	4	3
083012	12:48:38	10038	Trial2BackEngS	NS	17	0	1000	1	111	12:48:38	2815253	4	1	3	1	1	1	1	0	1	5	4	2	0	0	0	4	3
083012	12:48:38	10038	Trial2BackEngS	NS	17	0	1000	1	111	12:48:38	2816772	4	1	3	1	1	1	1	0	1	5	4	2	0	0	0	4	3
083012	12:48:38	10038	Trial2BackEngS	NS	17	0	1000	1	111	12:48:38	2818291	4	1	3	1	1	1	1	0	1	5	4	2	0	0	0	4	3
083012	12:48:38	10038	Trial2BackEngS	NS	17	57	637	0	111	12:48:38	2819451	4	1	3	1	1	1	1	0	1	5	4	2	0	0	0	4	3
083012	12:48:38	10038	Trial2BackEngS	NS	17	0	1000	1	111	12:48:38	2821317	4	1	3	1	1	1	1	0	1	5	4	2	0	0	0	4	3
083012	12:48:38	10038	Trial2BackEngS	YS	17	0	1000	0	111	12:48:38	2822836	4	1	3	1	1	1	1	0	1	5	4	2	0	0	0	4	3
083012	12:48:38	10038	Trial2BackEngS	NS	17	0	1000	1	111	12:48:38	2824356	4	1	3	1	1	1	1	0	1	5	4	2	0	0	0	4	3
083012	12:48:38	10038	Trial2BackEngS	NS	17	0	1000	1	111	12:48:38	2825875	4	1	3	1	1	1	1	0	1	5	4	2	0	0	0	4	3
083012	12:48:38	10038	Trial2BackEngS	NS	17	57	573	0	111	12:48:38	2826981	4	1	3	1	1	1	1	0	1	5	4	2	0	0	0	4	3
083012	12:48:38	10038	Trial2BackEngS	NS	17	0	1000	1	111	12:48:38	2828901	4	1	3	1	1	1	1	0	1	5	4	2	0	0	0	4	3
083012	12:48:38	10038	Trial2BackEngS	YS	17	57	796	1	111	12:48:38	2830220	4	1	3	1	1	1	1	0	1	5	4	2	0	0	0	4	3
083012	12:48:38	10038	Trial2BackEngS	NS	17	0	1000	1	111	12:48:38	2831926	4	1	3	1	1	1	1	0	1	5	4	2	0	0	0	4	3
083012	12:48:38	10038	Trial2BackEngS	NS	17	0	1000	1	111	12:48:38	2833445	4	1	3	1	1	1	1	0	1	5	4	2	0	0	0	4	3
083012	12:48:38	10038	Trial2BackEngS	YS	17	57	491	1	111	12:48:38	2834458	4	1	3	1	1	1	1	0	1	5	4	2	0	0	0	4	3
083012	12:48:38	10038	Trial2BackEngS	NS	17	0	1000	1	111	12:48:38	2836471	4	1	3	1	1	1	1	0	1	5	4	2	0	0	0	4	3
083012	12:48:38	10038	Trial2BackEngS	NS	17	0	1000	1	111	12:48:38	2837990	4	1	3	1	1	1	1	0	1	5	4	2	0	0	0	4	3
083012	12:48:38	10038	Trial2BackEngS	NS	17	57	522	0	111	12:48:38	2839043	4	1	3	1	1	1	1	0	1	5	4	2	0	0	0	4	3
083012	12:48:38	10038	Trial2BackEngS	NS	17	0	1000	1	111	12:48:38	2841016	4	1	3	1	1	1	1	0	1	5	4	2	0	0	0	4	3
083012	12:48:38	10038	Trial2BackEngS	NS	17	0	1000	1	111	12:48:38	2842535	4	1	3	1	1	1	1	0	1	5	4	2	0	0	0	4	3
083012	12:48:38	10038	Trial2BackEngS	NS	17	57	922	0	111	12:48:38	2843988	4	1	3	1	1	1	1	0	1	5	4	2	0	0	0	4	3
083012	12:48:38	10038	Trial2BackEngS	YS	17	0	1000	0	111	12:48:38	2845561	4	1	3	1	1	1	1	0	1	5	4	2	0	0	0	4	3
083012	12:48:38	10038	Trial2BackEngS	NS	17	0	1000	1	111	12:48:38	2847080	4	1	3	1	1	1	1	0	1	5	4	2	0	0	0	4	3
083012	12:48:38	10038	Trial2BackEngS	NS	17	0	1000	1	111	12:48:38	2848599	4	1	3	1	1	1	1	0	1	5	4	2	0	0	0	4	3
083012	12:48:38	10038	Trial2BackEngS	NS	17	57	505	0	111	12:48:38	2849625	4	1	3	1	1	1	1	0	1	5	4	2	0	0	0	4	3
083012	12:48:38	10038	Trial2BackEngS	NS	17	0	1000	1	111	12:48:38	2851625	4	1	3	1	1	1	1	0	1	5	4	2	0	0	0	4	3
083012	12:48:38	10038	Trial2BackEngS	YS	17	57	968	1	111	12:48:38	2853117	4	1	3	1	1	1	1	0	1	5	4	2	0	0	0	4	3
083012	12:48:38	10038	Trial2BackEngS	NS	17	0	1000	1	111	12:48:38	2854650	4	1	3	1	1	1	1	0	1	5	4	2	0	0	0	4	3
083012	12:48:38	10038	Trial2BackEngS	NS	17	0	1000	1	111	12:48:38	2856170	4	1	3	1	1	1	1	0	1	5	4	2	0	0	0	4	3
083012	12:48:38	10038	Trial2BackEngS	NS	17	0	1000	1	111	12:48:38	2857689	4	1	3	1	1	1	1	0	1	5	4	2	0	0	0	4	3
083012	12:48:38	10038	Trial2BackEngS	NS	17	57	503	0	111	12:48:38	2858715	4	1	3	1	1	1	1	0	1	5	4	2	0	0	0	4	3
083012	12:48:38	10038	Trial2BackEngS	YS	17	0	1000	0	111	12:48:38	2860715	4	1	3	1	1	1	1	0	1	5	4	2	0	0	0	4	3
083012	12:48:38	10038	Trial2BackEngS	NS	17	0	1000	1	111	12:48:38	2862234	4	1	3	1	1	1	1	0	1	5	4	2	0	0	0	4	3
083012	12:48:38	10038	Trial2BackEngS	NS	17	0	1000	1	111	12:48:38	2863753	4	1	3	1	1	1	1	0	1	5	4	2	0	0	0	4	3
083012	12:48:38	10038	Trial2BackEngS	YS	17	57	535	1	111	12:48:38	2864820	4	1	3	1	1	1	1	0	1	5	4	2	0	0	0	4	3
083012	12:48:38	10038	Trial2BackEngS	NS	17	0	1000	1	111	12:48:38	2866779	4	1	3	1	1	1	1	0	1	5	4	2	0	0	0	4	3
083012	12:48:38	10038	Trial2BackEngS	NS	17	0	1000	1	111	12:48:38	2868298	4	1	3	1	1	1	1	0	1	5	4	2	0	0	0	4	3
083012	12:48:38	10038	Trial2BackEngS	NS	17	57	566	0	111	12:48:38	2869391	4	1	3	1	1	1	1	0	1	5	4	2	0	0	0	4	3
083012	12:48:38	10038	Trial2BackEngS	NS	17	0	1000	1	111	12:48:38	2871324	4	1	3	1	1	1	1	0	1	5	4	2	0	0	0	4	3
083012	12:48:38	10038	Trial2BackEngS	NS	17	57	420	0	111	12:48:38	2872270	4	1	3	1	1	1	1	0	1	5	4	2	0	0	0	4	3
083012	12:48:38	10038	Trial2BackEngS	NS	17	0	1000	1	111	12:48:38	2874349	4	1	3	1	1	1	1	0	1	5	4	2	0	0	0	4	3
083012	12:48:38	10038	Trial2BackEngS	NS	17	0	1000	1	111	12:48:38	2875869	4	1	3	1	1	1	1	0	1	5	4	2	0	0	0	4	3
083012	12:48:38	10038	Trial2BackEngS	NS	17	57	596	0	111	12:48:38	2876988	4	1	3	1	1	1	1	0	1	5	4	2	0	0	0	4	3
083012	12:48:38	10038	Trial2BackEngS	YS	17	0	1000	0	111	12:48:38	2878894	4	1	3	1	1	1	1	0	1	5	4	2	0	0	0	4	3
083012	12:48:38	10038	Trial2BackEngS	NS	17	0	1000	1	111	12:48:38	2880413	4	1	3	1	1	1	1	0	1	5	4	2	0	0	0	4	3
083012	12:48:38	10038	Trial2BackEngS	NS	17	0	1000	1	111	12:48:38	2881933	4	1	3	1	1	1	1	0	1	5	4	2	0	0	0	4	3
083012	12:48:38	10038	Trial2BackEngS	NS	17	57	595	0	111	12:48:38	2883052	4	1	3	1	1	1	1	0	1	5	4	2	0	0	0	4	3
083012	12:48:38	10038	Trial2BackEngS	NS	17	0	1000	1	111	12:48:38	2884959	4	1	3	1	1	1	1	0	1	5	4	2	0	0	0	4	3
083012	12:48:38	10038	Trial2BackEngS	NS	17	0	1000	1	111	12:48:38	2886478	4	1	3	1	1	1	1	0	1	5	4	2	0	0	0	4	3
083012	12:48:38	10038	Trial2BackEngS	NS	17	57	562	0	111	12:48:38	2887571	4	1	3	1	1	1	1	0	1	5	4	2	0	0	0	4	3
083012	12:48:38	10038	Trial2BackEngS	NS	17	0	1000	1	111	12:48:38	2889503	4	1	3	1	1	1	1	0	1	5	4	2	0	0	0	4	3
083012	12:48:38	10038	Trial2BackEngS	YS	17	0	1000	0	111	12:48:38	2891023	4	1	3	1	1	1	1	0	1	5	4	2	0	0	0	4	3
083012	12:48:38	10038	Trial2BackEngS	NS	17	0	1000	1	111	12:48:38	2892542	4	1	3	1	1	1	1	0	1	5	4	2	0	0	0	4	3
083012	12:48:38	10038	Trial2BackEngS	NS	17	57	562	0	111	12:48:38	2893635	4	1	3	1	1	1	1	0	1	5	4	2	0	0	0	4	3
083012	12:48:38	10038	Trial2BackEngS	NS	17	0	1000	1	111	12:48:38	2895568	4	1	3	1	1	1	1	0	1	5	4	2	0	0	0	4	3
083012	12:48:38	10038	Trial2BackEngS	NS	17	0	1000	1	111	12:48:38	2897087	4	1	3	1	1	1	1	0	1	5	4	2	0	0	0	4	3
083012	12:48:38	10038	Trial2BackEngS	NS	17	0	1000	1	111	12:48:38	2898606	4	1	3	1	1	1	1	0	1	5	4	2	0	0	0	4	3
083012	12:48:38	10038	Trial2BackEngS	NS	17	0	1000	1	111	12:48:38	2900126	4	1	3	1	1	1	1	0	1	5	4	2	0	0	0	4	3
083012	12:48:38	10038	Trial2BackEngS	NS	17	57	610	0	111	12:48:38	2901258	4	1	3	1	1	1	1	0	1	5	4	2	0	0	0	4	3
083012	12:48:38	10038	Trial2BackEngS	NS	17	0	1000	1	111	12:48:38	2903151	4	1	3	1	1	1	1	0	1	5	4	2	0	0	0	4	3
083012	12:48:38	10038	Trial2BackEngS	NS	17	0	1000	1	111	12:48:38	2904671	4	1	3	1	1	1	1	0	1	5	4	2	0	0	0	4	3
083012	12:48:38	10038	Trial2BackEngS	YS	17	0	1000	0	111	12:48:38	2906190	4	1	3	1	1	1	1	0	1	5	4	2	0	0	0	4	3
083012	12:48:38	10038	Trial2BackEngS	NS	17	0	1000	1	111	12:48:38	2907709	4	1	3	1	1	1	1	0	1	5	4	2	0	0	0	4	3
083012	12:48:38	10038	ClockEngBaseline	ClockEngBaseline	19	Clock2	95612	0	111	12:48:38	3003432	4	1	3	1	1	1	1	0	1	5	4	2	0	0	0	4	3
083012	12:48:38	10038	ClockEngBaseline	ClockEngBaseline	19	Clock22	869	0	111	12:48:38	3004338	4	1	3	1	1	1	1	0	1	5	4	2	0	0	0	4	3
083012	12:48:38	10038	ClockEngBaseline	ClockEngBaseline	19	Clock111	643	0	111	12:48:38	3005018	4	1	3	1	1	1	1	0	1	5	4	2	0	0	1	4	3
083012	12:48:38	10038	ClockEngBaseline	ClockEngBaseline	19	Clockdone	8162	0	111	12:48:38	3013215	4	1	3	1	1	1	1	0	1	5	4	2	0	0	1	4	3
083012	12:48:38	10038	FASEngVFBaseline	StopEngVFBaseline	20	14	5950	0	111	12:48:38	3148070	4	1	3	1	1	1	1	0	1	5	4	2	0	0	1	4	3
