date	time	subject	blockcode	trialcode	values.TaskNumber	response	latency	correct	values.Score	script.starttime	script.elapsedtime	values.ScoreS7	values.Word1	values.Word2	values.Word3	values.Word4	values.Word5	values.Word6	values.Word7	values.Word8	values.DigitSpanFwrd	values.DigitSpanBack	values.ScoreAbs	values.Contour	values.Numbers	values.Hands	values.corsiblockspanFwrd	values.corsiblockspanRev
082912	15:00:49	10037	Language	Language	0	French	9314	0	0	15:00:49	9447	0	0	0	0	0	0	0	0	0	0	0	0	0	0	0	0	0
082912	15:00:49	10037	Session	Session	0	Baseline	610	0	0	15:00:49	10140	0	0	0	0	0	0	0	0	0	0	0	0	0	0	0	0	0
082912	15:00:49	10037	HandFr	HandFr	0	RightFr	3212	0	0	15:00:49	13432	0	0	0	0	0	0	0	0	0	0	0	0	0	0	0	0	0
082912	15:00:49	10037	AudioCheckFr	WordsFr	0	0	0	0	0	15:00:49	46236	0	0	0	0	0	0	0	0	0	0	0	0	0	0	0	0	0
082912	15:00:49	10037	CubeFr	CubeFr	1	1Cube	82756	0	0	15:00:49	131292	0	0	0	0	0	0	0	0	0	0	0	0	0	0	0	0	0
082912	15:00:49	10037	pm.simpleFrRight	blank.simpleFr	2	57	2089	0	0	15:00:49	182326	0	0	0	0	0	0	0	0	0	0	0	0	0	0	0	0	0
082912	15:00:49	10037	pm.simpleFrRight	blank.simpleFr	2	0	2087	1	0	15:00:49	184432	0	0	0	0	0	0	0	0	0	0	0	0	0	0	0	0	0
082912	15:00:49	10037	pm.simpleFrRight	pm.simpleFr	2	57	2227	0	0	15:00:49	186697	0	0	0	0	0	0	0	0	0	0	0	0	0	0	0	0	0
082912	15:00:49	10037	pm.simpleFrRight	blank.simpleFr	2	0	2487	1	0	15:00:49	189216	0	0	0	0	0	0	0	0	0	0	0	0	0	0	0	0	0
082912	15:00:49	10037	pm.simpleFrRight	pm.simpleFr	2	57	1314	0	0	15:00:49	190562	0	0	0	0	0	0	0	0	0	0	0	0	0	0	0	0	0
082912	15:00:49	10037	pm.simpleFrRight	blank.simpleFr	2	0	1787	1	0	15:00:49	192375	0	0	0	0	0	0	0	0	0	0	0	0	0	0	0	0	0
082912	15:00:49	10037	pm.simpleFrRight	pm.simpleFr	2	57	1723	0	0	15:00:49	194134	0	0	0	0	0	0	0	0	0	0	0	0	0	0	0	0	0
082912	15:00:49	10037	pm.simpleFrRight	blank.simpleFr	2	0	1687	1	0	15:00:49	195840	0	0	0	0	0	0	0	0	0	0	0	0	0	0	0	0	0
082912	15:00:49	10037	pm.simpleFrRight	pm.simpleFr	2	57	1202	0	0	15:00:49	197080	0	0	0	0	0	0	0	0	0	0	0	0	0	0	0	0	0
082912	15:00:49	10037	pm.simpleFrRight	blank.simpleFr	2	0	1887	1	0	15:00:49	198986	0	0	0	0	0	0	0	0	0	0	0	0	0	0	0	0	0
082912	15:00:49	10037	pm.simpleFrRight	pm.simpleFr	2	57	729	0	0	15:00:49	199745	0	0	0	0	0	0	0	0	0	0	0	0	0	0	0	0	0
082912	15:00:49	10037	pm.simpleFrRight	blank.simpleFr	2	0	1487	1	0	15:00:49	201251	0	0	0	0	0	0	0	0	0	0	0	0	0	0	0	0	0
082912	15:00:49	10037	pm.simpleFrRight	pm.simpleFr	2	57	847	0	0	15:00:49	202131	0	0	0	0	0	0	0	0	0	0	0	0	0	0	0	0	0
082912	15:00:49	10037	pm.simpleFrRight	blank.simpleFr	2	0	1587	1	0	15:00:49	203744	0	0	0	0	0	0	0	0	0	0	0	0	0	0	0	0	0
082912	15:00:49	10037	pm.simpleFrRight	pm.simpleFr	2	57	1011	0	0	15:00:49	204797	0	0	0	0	0	0	0	0	0	0	0	0	0	0	0	0	0
082912	15:00:49	10037	pm.simpleFrRight	blank.simpleFr	2	0	1987	1	0	15:00:49	206809	0	0	0	0	0	0	0	0	0	0	0	0	0	0	0	0	0
082912	15:00:49	10037	pm.simpleFrRight	pm.simpleFr	2	57	3304	0	0	15:00:49	210155	0	0	0	0	0	0	0	0	0	0	0	0	0	0	0	0	0
082912	15:00:49	10037	pm.simpleFrRight	blank.simpleFr	2	0	2187	1	0	15:00:49	212367	0	0	0	0	0	0	0	0	0	0	0	0	0	0	0	0	0
082912	15:00:49	10037	pm.simpleFrRight	pm.simpleFr	2	57	963	0	0	15:00:49	213366	0	0	0	0	0	0	0	0	0	0	0	0	0	0	0	0	0
082912	15:00:49	10037	pm.simpleFrRight	blank.simpleFr	2	0	2287	1	0	15:00:49	215672	0	0	0	0	0	0	0	0	0	0	0	0	0	0	0	0	0
082912	15:00:49	10037	pm.simpleFrRight	pm.simpleFr	2	57	1577	0	0	15:00:49	217285	0	0	0	0	0	0	0	0	0	0	0	0	0	0	0	0	0
082912	15:00:49	10037	pm.simpleFrRight	blank.simpleFr	2	0	2287	1	0	15:00:49	219591	0	0	0	0	0	0	0	0	0	0	0	0	0	0	0	0	0
082912	15:00:49	10037	pm.simpleFrRight	pm.simpleFr	2	57	17195	0	0	15:00:49	236824	0	0	0	0	0	0	0	0	0	0	0	0	0	0	0	0	0
082912	15:00:49	10037	pm.simpleFrRight	blank.simpleFr	2	0	1787	1	0	15:00:49	238637	0	0	0	0	0	0	0	0	0	0	0	0	0	0	0	0	0
082912	15:00:49	10037	pm.simpleFrRight	pm.simpleFr	2	57	1525	0	0	15:00:49	240196	0	0	0	0	0	0	0	0	0	0	0	0	0	0	0	0	0
082912	15:00:49	10037	pm.simpleFrRight	blank.simpleFr	2	0	1687	1	0	15:00:49	241902	0	0	0	0	0	0	0	0	0	0	0	0	0	0	0	0	0
082912	15:00:49	10037	pm.simpleFrRight	pm.simpleFr	2	57	532	0	0	15:00:49	242475	0	0	0	0	0	0	0	0	0	0	0	0	0	0	0	0	0
082912	15:00:49	10037	pm.simpleFrRight	blank.simpleFr	2	0	1887	1	0	15:00:49	244381	0	0	0	0	0	0	0	0	0	0	0	0	0	0	0	0	0
082912	15:00:49	10037	pm.simpleFrRight	pm.simpleFr	2	57	357	0	0	15:00:49	244767	0	0	0	0	0	0	0	0	0	0	0	0	0	0	0	0	0
082912	15:00:49	10037	pm.simpleFrRight	blank.simpleFr	2	0	1487	1	0	15:00:49	246274	0	0	0	0	0	0	0	0	0	0	0	0	0	0	0	0	0
082912	15:00:49	10037	pm.simpleFrRight	pm.simpleFr	2	57	384	0	0	15:00:49	246700	0	0	0	0	0	0	0	0	0	0	0	0	0	0	0	0	0
082912	15:00:49	10037	pm.simpleFrRight	blank.simpleFr	2	0	1987	1	0	15:00:49	248713	0	0	0	0	0	0	0	0	0	0	0	0	0	0	0	0	0
082912	15:00:49	10037	pm.simpleFrRight	pm.simpleFr	2	57	473	0	0	15:00:49	249219	0	0	0	0	0	0	0	0	0	0	0	0	0	0	0	0	0
082912	15:00:49	10037	pm.simpleFrRight	blank.simpleFr	2	0	2187	1	0	15:00:49	251432	0	0	0	0	0	0	0	0	0	0	0	0	0	0	0	0	0
082912	15:00:49	10037	pm.simpleFrRight	pm.simpleFr	2	57	26	0	0	15:00:49	251498	0	0	0	0	0	0	0	0	0	0	0	0	0	0	0	0	0
082912	15:00:49	10037	pm.simpleFrRight	blank.simpleFr	2	0	2087	1	0	15:00:49	253617	0	0	0	0	0	0	0	0	0	0	0	0	0	0	0	0	0
082912	15:00:49	10037	pm.simpleFrRight	pm.simpleFr	2	57	544	0	0	15:00:49	254204	0	0	0	0	0	0	0	0	0	0	0	0	0	0	0	0	0
082912	15:00:49	10037	pm.simpleFrRight	blank.simpleFr	2	0	2387	1	0	15:00:49	256616	0	0	0	0	0	0	0	0	0	0	0	0	0	0	0	0	0
082912	15:00:49	10037	pm.simpleFrRight	pm.simpleFr	2	57	393	0	0	15:00:49	257043	0	0	0	0	0	0	0	0	0	0	0	0	0	0	0	0	0
082912	15:00:49	10037	pm.simpleFrRight	blank.simpleFr	2	0	2487	1	0	15:00:49	259548	0	0	0	0	0	0	0	0	0	0	0	0	0	0	0	0	0
082912	15:00:49	10037	pm.simpleFrRight	pm.simpleFr	2	57	485	0	0	15:00:49	260068	0	0	0	0	0	0	0	0	0	0	0	0	0	0	0	0	0
082912	15:00:49	10037	pm.simpleFrRight	blank.simpleFr	2	0	1587	1	0	15:00:49	261681	0	0	0	0	0	0	0	0	0	0	0	0	0	0	0	0	0
082912	15:00:49	10037	pm.simpleFrRight	pm.simpleFr	2	57	561	0	0	15:00:49	262281	0	0	0	0	0	0	0	0	0	0	0	0	0	0	0	0	0
082912	15:00:49	10037	pm.simpleFrRight	blank.simpleFr	2	0	1687	1	0	15:00:49	263987	0	0	0	0	0	0	0	0	0	0	0	0	0	0	0	0	0
082912	15:00:49	10037	pm.simpleFrRight	pm.simpleFr	2	57	606	0	0	15:00:49	264626	0	0	0	0	0	0	0	0	0	0	0	0	0	0	0	0	0
082912	15:00:49	10037	pm.simpleFrRight	blank.simpleFr	2	0	1787	1	0	15:00:49	266439	0	0	0	0	0	0	0	0	0	0	0	0	0	0	0	0	0
082912	15:00:49	10037	pm.simpleFrRight	pm.simpleFr	2	57	746	0	0	15:00:49	267225	0	0	0	0	0	0	0	0	0	0	0	0	0	0	0	0	0
082912	15:00:49	10037	pm.simpleFrRight	blank.simpleFr	2	0	1487	1	0	15:00:49	268732	0	0	0	0	0	0	0	0	0	0	0	0	0	0	0	0	0
082912	15:00:49	10037	pm.simpleFrRight	pm.simpleFr	2	57	1110	0	0	15:00:49	269878	0	0	0	0	0	0	0	0	0	0	0	0	0	0	0	0	0
082912	15:00:49	10037	pm.simpleFrRight	blank.simpleFr	2	0	2287	1	0	15:00:49	272183	0	0	0	0	0	0	0	0	0	0	0	0	0	0	0	0	0
082912	15:00:49	10037	pm.simpleFrRight	pm.simpleFr	2	57	426	0	0	15:00:49	272650	0	0	0	0	0	0	0	0	0	0	0	0	0	0	0	0	0
082912	15:00:49	10037	pm.simpleFrRight	blank.simpleFr	2	0	2487	1	0	15:00:49	275169	0	0	0	0	0	0	0	0	0	0	0	0	0	0	0	0	0
082912	15:00:49	10037	pm.simpleFrRight	pm.simpleFr	2	57	384	0	0	15:00:49	275595	0	0	0	0	0	0	0	0	0	0	0	0	0	0	0	0	0
082912	15:00:49	10037	pm.simpleFrRight	blank.simpleFr	2	0	2187	1	0	15:00:49	277808	0	0	0	0	0	0	0	0	0	0	0	0	0	0	0	0	0
082912	15:00:49	10037	pm.simpleFrRight	pm.simpleFr	2	57	417	0	0	15:00:49	278261	0	0	0	0	0	0	0	0	0	0	0	0	0	0	0	0	0
082912	15:00:49	10037	pm.simpleFrRight	blank.simpleFr	2	0	1887	1	0	15:00:49	280180	0	0	0	0	0	0	0	0	0	0	0	0	0	0	0	0	0
082912	15:00:49	10037	pm.simpleFrRight	pm.simpleFr	2	57	397	0	0	15:00:49	280607	0	0	0	0	0	0	0	0	0	0	0	0	0	0	0	0	0
082912	15:00:49	10037	pm.simpleFrRight	blank.simpleFr	2	0	2087	1	0	15:00:49	282726	0	0	0	0	0	0	0	0	0	0	0	0	0	0	0	0	0
082912	15:00:49	10037	pm.simpleFrRight	pm.simpleFr	2	57	427	0	0	15:00:49	283192	0	0	0	0	0	0	0	0	0	0	0	0	0	0	0	0	0
082912	15:00:49	10037	pm.simpleFrRight	blank.simpleFr	2	0	1987	1	0	15:00:49	285205	0	0	0	0	0	0	0	0	0	0	0	0	0	0	0	0	0
082912	15:00:49	10037	pm.simpleFrRight	pm.simpleFr	2	57	460	0	0	15:00:49	285698	0	0	0	0	0	0	0	0	0	0	0	0	0	0	0	0	0
082912	15:00:49	10037	pm.simpleFrRight	blank.simpleFr	2	0	2387	1	0	15:00:49	288111	0	0	0	0	0	0	0	0	0	0	0	0	0	0	0	0	0
082912	15:00:49	10037	pm.simpleFrRight	pm.simpleFr	2	57	515	0	0	15:00:49	288657	0	0	0	0	0	0	0	0	0	0	0	0	0	0	0	0	0
082912	15:00:49	10037	pm.simpleFrRight	blank.simpleFr	2	0	1587	1	0	15:00:49	290270	0	0	0	0	0	0	0	0	0	0	0	0	0	0	0	0	0
082912	15:00:49	10037	pm.simpleFrRight	pm.simpleFr	2	57	611	0	0	15:00:49	290923	0	0	0	0	0	0	0	0	0	0	0	0	0	0	0	0	0
082912	15:00:49	10037	pm.simpleFrRight	blank.simpleFr	2	0	1487	1	0	15:00:49	292429	0	0	0	0	0	0	0	0	0	0	0	0	0	0	0	0	0
082912	15:00:49	10037	pm.simpleFrRight	pm.simpleFr	2	57	628	0	0	15:00:49	293095	0	0	0	0	0	0	0	0	0	0	0	0	0	0	0	0	0
082912	15:00:49	10037	pm.simpleFrRight	blank.simpleFr	2	0	1687	1	0	15:00:49	294801	0	0	0	0	0	0	0	0	0	0	0	0	0	0	0	0	0
082912	15:00:49	10037	pm.simpleFrRight	pm.simpleFr	2	57	512	0	0	15:00:49	295348	0	0	0	0	0	0	0	0	0	0	0	0	0	0	0	0	0
082912	15:00:49	10037	pm.simpleFrRight	blank.simpleFr	2	0	1787	1	0	15:00:49	297160	0	0	0	0	0	0	0	0	0	0	0	0	0	0	0	0	0
082912	15:00:49	10037	pm.simpleFrRight	pm.simpleFr	2	57	425	0	0	15:00:49	297627	0	0	0	0	0	0	0	0	0	0	0	0	0	0	0	0	0
082912	15:00:49	10037	pm.simpleFrRight	blank.simpleFr	2	0	2387	1	0	15:00:49	300039	0	0	0	0	0	0	0	0	0	0	0	0	0	0	0	0	0
082912	15:00:49	10037	pm.simpleFrRight	pm.simpleFr	2	57	474	0	0	15:00:49	300546	0	0	0	0	0	0	0	0	0	0	0	0	0	0	0	0	0
082912	15:00:49	10037	pm.simpleFrRight	blank.simpleFr	2	0	1887	1	0	15:00:49	302465	0	0	0	0	0	0	0	0	0	0	0	0	0	0	0	0	0
082912	15:00:49	10037	pm.simpleFrRight	pm.simpleFr	2	57	512	0	0	15:00:49	303012	0	0	0	0	0	0	0	0	0	0	0	0	0	0	0	0	0
082912	15:00:49	10037	pm.simpleFrRight	blank.simpleFr	2	0	1987	1	0	15:00:49	305024	0	0	0	0	0	0	0	0	0	0	0	0	0	0	0	0	0
082912	15:00:49	10037	pm.simpleFrRight	pm.simpleFr	2	57	433	0	0	15:00:49	305490	0	0	0	0	0	0	0	0	0	0	0	0	0	0	0	0	0
082912	15:00:49	10037	pm.simpleFrRight	blank.simpleFr	2	0	2187	1	0	15:00:49	307703	0	0	0	0	0	0	0	0	0	0	0	0	0	0	0	0	0
082912	15:00:49	10037	pm.simpleFrRight	pm.simpleFr	2	57	425	0	0	15:00:49	308169	0	0	0	0	0	0	0	0	0	0	0	0	0	0	0	0	0
082912	15:00:49	10037	pm.simpleFrRight	blank.simpleFr	2	0	2287	1	0	15:00:49	310475	0	0	0	0	0	0	0	0	0	0	0	0	0	0	0	0	0
082912	15:00:49	10037	pm.simpleFrRight	pm.simpleFr	2	57	486	0	0	15:00:49	310995	0	0	0	0	0	0	0	0	0	0	0	0	0	0	0	0	0
082912	15:00:49	10037	Trial2BackFr	N	3	0	1000	1	1	15:00:49	468080	0	0	0	0	0	0	0	0	0	0	0	0	0	0	0	0	0
082912	15:00:49	10037	Trial2BackFr	N	3	0	1000	1	2	15:00:49	469599	0	0	0	0	0	0	0	0	0	0	0	0	0	0	0	0	0
082912	15:00:49	10037	Trial2BackFr	N	3	0	1000	1	3	15:00:49	471118	0	0	0	0	0	0	0	0	0	0	0	0	0	0	0	0	0
082912	15:00:49	10037	Trial2BackFr	N	3	0	1000	1	4	15:00:49	472638	0	0	0	0	0	0	0	0	0	0	0	0	0	0	0	0	0
082912	15:00:49	10037	Trial2BackFr	N	3	0	1000	1	5	15:00:49	474157	0	0	0	0	0	0	0	0	0	0	0	0	0	0	0	0	0
082912	15:00:49	10037	Trial2BackFr	N	3	0	1000	1	6	15:00:49	475676	0	0	0	0	0	0	0	0	0	0	0	0	0	0	0	0	0
082912	15:00:49	10037	Trial2BackFr	N	3	0	1000	1	7	15:00:49	477196	0	0	0	0	0	0	0	0	0	0	0	0	0	0	0	0	0
082912	15:00:49	10037	Trial2BackFr	N	3	0	1000	1	8	15:00:49	478715	0	0	0	0	0	0	0	0	0	0	0	0	0	0	0	0	0
082912	15:00:49	10037	Trial2BackFr	Y	3	0	1000	0	8	15:00:49	480235	0	0	0	0	0	0	0	0	0	0	0	0	0	0	0	0	0
082912	15:00:49	10037	Trial2BackFr	N	3	0	1000	1	9	15:00:49	481754	0	0	0	0	0	0	0	0	0	0	0	0	0	0	0	0	0
082912	15:00:49	10037	Trial2BackFr	N	3	0	1000	1	10	15:00:49	483274	0	0	0	0	0	0	0	0	0	0	0	0	0	0	0	0	0
082912	15:00:49	10037	Trial2BackFr	N	3	0	1000	1	11	15:00:49	484793	0	0	0	0	0	0	0	0	0	0	0	0	0	0	0	0	0
082912	15:00:49	10037	Trial2BackFr	Y	3	0	1000	0	11	15:00:49	486312	0	0	0	0	0	0	0	0	0	0	0	0	0	0	0	0	0
082912	15:00:49	10037	Trial2BackFr	N	3	0	1000	1	12	15:00:49	487832	0	0	0	0	0	0	0	0	0	0	0	0	0	0	0	0	0
082912	15:00:49	10037	Trial2BackFr	N	3	0	1000	1	13	15:00:49	489351	0	0	0	0	0	0	0	0	0	0	0	0	0	0	0	0	0
082912	15:00:49	10037	Trial2BackFr	N	3	0	1000	1	14	15:00:49	490871	0	0	0	0	0	0	0	0	0	0	0	0	0	0	0	0	0
082912	15:00:49	10037	Trial2BackFr	N	3	0	1000	1	15	15:00:49	492390	0	0	0	0	0	0	0	0	0	0	0	0	0	0	0	0	0
082912	15:00:49	10037	Trial2BackFr	N	3	0	1000	1	16	15:00:49	493909	0	0	0	0	0	0	0	0	0	0	0	0	0	0	0	0	0
082912	15:00:49	10037	Trial2BackFr	Y	3	0	1000	0	16	15:00:49	495429	0	0	0	0	0	0	0	0	0	0	0	0	0	0	0	0	0
082912	15:00:49	10037	Trial2BackFr	N	3	0	1000	1	17	15:00:49	496948	0	0	0	0	0	0	0	0	0	0	0	0	0	0	0	0	0
082912	15:00:49	10037	Trial2BackFr	N	3	0	1000	1	18	15:00:49	498468	0	0	0	0	0	0	0	0	0	0	0	0	0	0	0	0	0
082912	15:00:49	10037	Trial2BackFr	N	3	0	1000	1	19	15:00:49	499987	0	0	0	0	0	0	0	0	0	0	0	0	0	0	0	0	0
082912	15:00:49	10037	Trial2BackFr	N	3	0	1000	1	20	15:00:49	501506	0	0	0	0	0	0	0	0	0	0	0	0	0	0	0	0	0
082912	15:00:49	10037	Trial2BackFr	Y	3	0	1000	0	20	15:00:49	503026	0	0	0	0	0	0	0	0	0	0	0	0	0	0	0	0	0
082912	15:00:49	10037	Trial2BackFr	N	3	0	1000	1	21	15:00:49	504545	0	0	0	0	0	0	0	0	0	0	0	0	0	0	0	0	0
082912	15:00:49	10037	Trial2BackFr	N	3	0	1000	1	22	15:00:49	506065	0	0	0	0	0	0	0	0	0	0	0	0	0	0	0	0	0
082912	15:00:49	10037	Trial2BackFr	N	3	0	1000	1	23	15:00:49	507584	0	0	0	0	0	0	0	0	0	0	0	0	0	0	0	0	0
082912	15:00:49	10037	Trial2BackFr	N	3	57	611	0	23	15:00:49	508717	0	0	0	0	0	0	0	0	0	0	0	0	0	0	0	0	0
082912	15:00:49	10037	Trial2BackFr	N	3	0	1000	1	24	15:00:49	510609	0	0	0	0	0	0	0	0	0	0	0	0	0	0	0	0	0
082912	15:00:49	10037	Trial2BackFr	N	3	0	1000	1	25	15:00:49	512129	0	0	0	0	0	0	0	0	0	0	0	0	0	0	0	0	0
082912	15:00:49	10037	Trial2BackFr	Y	3	0	1000	0	25	15:00:49	513648	0	0	0	0	0	0	0	0	0	0	0	0	0	0	0	0	0
082912	15:00:49	10037	Trial2BackFr	N	3	0	1000	1	26	15:00:49	515168	0	0	0	0	0	0	0	0	0	0	0	0	0	0	0	0	0
082912	15:00:49	10037	Trial2BackFr	N	3	0	1000	1	27	15:00:49	516687	0	0	0	0	0	0	0	0	0	0	0	0	0	0	0	0	0
082912	15:00:49	10037	Trial2BackFr	N	3	0	1000	1	28	15:00:49	518207	0	0	0	0	0	0	0	0	0	0	0	0	0	0	0	0	0
082912	15:00:49	10037	Trial2BackFr	Y	3	0	1000	0	28	15:00:49	519726	0	0	0	0	0	0	0	0	0	0	0	0	0	0	0	0	0
082912	15:00:49	10037	Trial2BackFr	N	3	0	1000	1	29	15:00:49	521245	0	0	0	0	0	0	0	0	0	0	0	0	0	0	0	0	0
082912	15:00:49	10037	Trial2BackFr	N	3	0	1000	1	30	15:00:49	522765	0	0	0	0	0	0	0	0	0	0	0	0	0	0	0	0	0
082912	15:00:49	10037	Trial2BackFr	N	3	57	566	0	30	15:00:49	523857	0	0	0	0	0	0	0	0	0	0	0	0	0	0	0	0	0
082912	15:00:49	10037	Trial2BackFr	N	3	0	1000	1	31	15:00:49	525790	0	0	0	0	0	0	0	0	0	0	0	0	0	0	0	0	0
082912	15:00:49	10037	Trial2BackFr	N	3	0	1000	1	32	15:00:49	527310	0	0	0	0	0	0	0	0	0	0	0	0	0	0	0	0	0
082912	15:00:49	10037	Trial2BackFr	N	3	0	1000	1	33	15:00:49	528829	0	0	0	0	0	0	0	0	0	0	0	0	0	0	0	0	0
082912	15:00:49	10037	Trial2BackFr	Y	3	0	1000	0	33	15:00:49	530348	0	0	0	0	0	0	0	0	0	0	0	0	0	0	0	0	0
082912	15:00:49	10037	Trial2BackFr	N	3	0	1000	1	34	15:00:49	531868	0	0	0	0	0	0	0	0	0	0	0	0	0	0	0	0	0
082912	15:00:49	10037	Trial2BackFr	N	3	0	1000	1	35	15:00:49	533387	0	0	0	0	0	0	0	0	0	0	0	0	0	0	0	0	0
082912	15:00:49	10037	Trial2BackFr	N	3	0	1000	1	36	15:00:49	534907	0	0	0	0	0	0	0	0	0	0	0	0	0	0	0	0	0
082912	15:00:49	10037	Trial2BackFr	N	3	0	1000	1	37	15:00:49	536426	0	0	0	0	0	0	0	0	0	0	0	0	0	0	0	0	0
082912	15:00:49	10037	Trial2BackFr	Y	3	57	920	1	38	15:00:49	537879	0	0	0	0	0	0	0	0	0	0	0	0	0	0	0	0	0
082912	15:00:49	10037	Trial2BackFr	N	3	0	1000	1	39	15:00:49	539452	0	0	0	0	0	0	0	0	0	0	0	0	0	0	0	0	0
082912	15:00:49	10037	Trial2BackFr	N	3	0	1000	1	40	15:00:49	540971	0	0	0	0	0	0	0	0	0	0	0	0	0	0	0	0	0
082912	15:00:49	10037	Trial2BackFr	N	3	0	1000	1	41	15:00:49	542490	0	0	0	0	0	0	0	0	0	0	0	0	0	0	0	0	0
082912	15:00:49	10037	Trial2BackFr	N	3	0	1000	1	42	15:00:49	544010	0	0	0	0	0	0	0	0	0	0	0	0	0	0	0	0	0
082912	15:00:49	10037	Trial2BackFr	N	3	0	1000	1	43	15:00:49	545529	0	0	0	0	0	0	0	0	0	0	0	0	0	0	0	0	0
082912	15:00:49	10037	Trial2BackFr	Y	3	0	1000	0	43	15:00:49	547048	0	0	0	0	0	0	0	0	0	0	0	0	0	0	0	0	0
082912	15:00:49	10037	Trial2BackFr	N	3	0	1000	1	44	15:00:49	548568	0	0	0	0	0	0	0	0	0	0	0	0	0	0	0	0	0
082912	15:00:49	10037	Trial2BackFr	N	3	0	1000	1	45	15:00:49	550087	0	0	0	0	0	0	0	0	0	0	0	0	0	0	0	0	0
082912	15:00:49	10037	Trial2BackFr	N	3	0	1000	1	46	15:00:49	551607	0	0	0	0	0	0	0	0	0	0	0	0	0	0	0	0	0
082912	15:00:49	10037	Trial2BackFr	N	3	0	1000	1	47	15:00:49	553126	0	0	0	0	0	0	0	0	0	0	0	0	0	0	0	0	0
082912	15:00:49	10037	Trial2BackFr	N	3	57	588	0	47	15:00:49	554246	0	0	0	0	0	0	0	0	0	0	0	0	0	0	0	0	0
082912	15:00:49	10037	Trial2BackFr	N	3	0	1000	1	48	15:00:49	556152	0	0	0	0	0	0	0	0	0	0	0	0	0	0	0	0	0
082912	15:00:49	10037	Trial2BackFr	Y	3	0	1000	0	48	15:00:49	557671	0	0	0	0	0	0	0	0	0	0	0	0	0	0	0	0	0
082912	15:00:49	10037	Trial2BackFr	N	3	0	1000	1	49	15:00:49	559190	0	0	0	0	0	0	0	0	0	0	0	0	0	0	0	0	0
082912	15:00:49	10037	Trial2BackFr	N	3	0	1000	1	50	15:00:49	560710	0	0	0	0	0	0	0	0	0	0	0	0	0	0	0	0	0
082912	15:00:49	10037	Trial2BackFr	Y	3	0	1000	0	50	15:00:49	562229	0	0	0	0	0	0	0	0	0	0	0	0	0	0	0	0	0
082912	15:00:49	10037	Trial2BackFr	N	3	0	1000	1	51	15:00:49	563749	0	0	0	0	0	0	0	0	0	0	0	0	0	0	0	0	0
082912	15:00:49	10037	Trial2BackFr	N	3	0	1000	1	52	15:00:49	565268	0	0	0	0	0	0	0	0	0	0	0	0	0	0	0	0	0
082912	15:00:49	10037	Trial2BackFr	N	3	0	1000	1	53	15:00:49	566787	0	0	0	0	0	0	0	0	0	0	0	0	0	0	0	0	0
082912	15:00:49	10037	Trial2BackFr	N	3	57	751	0	53	15:00:49	568067	0	0	0	0	0	0	0	0	0	0	0	0	0	0	0	0	0
082912	15:00:49	10037	Trial2BackFr	N	3	0	1000	1	54	15:00:49	569813	0	0	0	0	0	0	0	0	0	0	0	0	0	0	0	0	0
082912	15:00:49	10037	Trial2BackFr	N	3	0	1000	1	55	15:00:49	571332	0	0	0	0	0	0	0	0	0	0	0	0	0	0	0	0	0
082912	15:00:49	10037	Trial2BackFr	N	3	0	1000	1	56	15:00:49	572852	0	0	0	0	0	0	0	0	0	0	0	0	0	0	0	0	0
082912	15:00:49	10037	Trial2BackFr	N	3	0	1000	1	57	15:00:49	574371	0	0	0	0	0	0	0	0	0	0	0	0	0	0	0	0	0
082912	15:00:49	10037	Trial2BackFr	N	3	0	1000	1	58	15:00:49	575890	0	0	0	0	0	0	0	0	0	0	0	0	0	0	0	0	0
082912	15:00:49	10037	Trial2BackFr	N	3	57	400	0	58	15:00:49	576823	0	0	0	0	0	0	0	0	0	0	0	0	0	0	0	0	0
082912	15:00:49	10037	Trial2BackFr	Y	3	0	1000	0	58	15:00:49	578916	0	0	0	0	0	0	0	0	0	0	0	0	0	0	0	0	0
082912	15:00:49	10037	Trial2BackFr	N	3	0	1000	1	59	15:00:49	580435	0	0	0	0	0	0	0	0	0	0	0	0	0	0	0	0	0
082912	15:00:49	10037	Trial2BackFr	N	3	0	1000	1	60	15:00:49	581955	0	0	0	0	0	0	0	0	0	0	0	0	0	0	0	0	0
082912	15:00:49	10037	Trial2BackFr	N	3	0	1000	1	61	15:00:49	583474	0	0	0	0	0	0	0	0	0	0	0	0	0	0	0	0	0
082912	15:00:49	10037	Trial2BackFr	Y	3	0	1000	0	61	15:00:49	584994	0	0	0	0	0	0	0	0	0	0	0	0	0	0	0	0	0
082912	15:00:49	10037	Trial2BackFr	N	3	57	736	0	61	15:00:49	586260	0	0	0	0	0	0	0	0	0	0	0	0	0	0	0	0	0
082912	15:00:49	10037	Trial2BackFr	N	3	0	1000	1	62	15:00:49	588019	0	0	0	0	0	0	0	0	0	0	0	0	0	0	0	0	0
082912	15:00:49	10037	Trial2BackFr	N	3	0	1000	1	63	15:00:49	589538	0	0	0	0	0	0	0	0	0	0	0	0	0	0	0	0	0
082912	15:00:49	10037	Trial2BackFr	N	3	0	1000	1	64	15:00:49	591058	0	0	0	0	0	0	0	0	0	0	0	0	0	0	0	0	0
082912	15:00:49	10037	Trial2BackFr	N	3	0	1000	1	65	15:00:49	592577	0	0	0	0	0	0	0	0	0	0	0	0	0	0	0	0	0
082912	15:00:49	10037	Trial2BackFr	Y	3	0	1000	0	65	15:00:49	594097	0	0	0	0	0	0	0	0	0	0	0	0	0	0	0	0	0
082912	15:00:49	10037	Trial2BackFr	N	3	0	1000	1	66	15:00:49	595616	0	0	0	0	0	0	0	0	0	0	0	0	0	0	0	0	0
082912	15:00:49	10037	Trial2BackFr	N	3	0	1000	1	67	15:00:49	597135	0	0	0	0	0	0	0	0	0	0	0	0	0	0	0	0	0
082912	15:00:49	10037	Trial2BackFr	N	3	0	1000	1	68	15:00:49	598655	0	0	0	0	0	0	0	0	0	0	0	0	0	0	0	0	0
082912	15:00:49	10037	Trial2BackFr	N	3	0	1000	1	69	15:00:49	600174	0	0	0	0	0	0	0	0	0	0	0	0	0	0	0	0	0
082912	15:00:49	10037	Trial2BackFr	N	3	0	1000	1	70	15:00:49	601694	0	0	0	0	0	0	0	0	0	0	0	0	0	0	0	0	0
082912	15:00:49	10037	Trial2BackFr	N	3	0	1000	1	71	15:00:49	603213	0	0	0	0	0	0	0	0	0	0	0	0	0	0	0	0	0
082912	15:00:49	10037	Trial2BackFr	N	3	0	1000	1	72	15:00:49	604732	0	0	0	0	0	0	0	0	0	0	0	0	0	0	0	0	0
082912	15:00:49	10037	Trial2BackFr	N	3	0	1000	1	73	15:00:49	606252	0	0	0	0	0	0	0	0	0	0	0	0	0	0	0	0	0
082912	15:00:49	10037	Trial2BackFr	N	3	57	486	0	73	15:00:49	607265	0	0	0	0	0	0	0	0	0	0	0	0	0	0	0	0	0
082912	15:00:49	10037	Trial2BackFr	Y	3	0	1000	0	73	15:00:49	609277	0	0	0	0	0	0	0	0	0	0	0	0	0	0	0	0	0
082912	15:00:49	10037	Trial2BackFr	N	3	0	1000	1	74	15:00:49	610797	0	0	0	0	0	0	0	0	0	0	0	0	0	0	0	0	0
082912	15:00:49	10037	Trial2BackFr	N	3	0	1000	1	75	15:00:49	612316	0	0	0	0	0	0	0	0	0	0	0	0	0	0	0	0	0
082912	15:00:49	10037	Trial2BackFr	N	3	0	1000	1	76	15:00:49	613836	0	0	0	0	0	0	0	0	0	0	0	0	0	0	0	0	0
082912	15:00:49	10037	Trial2BackFr	N	3	0	1000	1	77	15:00:49	615355	0	0	0	0	0	0	0	0	0	0	0	0	0	0	0	0	0
082912	15:00:49	10037	Trial2BackFr	N	3	57	534	0	77	15:00:49	616421	0	0	0	0	0	0	0	0	0	0	0	0	0	0	0	0	0
082912	15:00:49	10037	Trial2BackFr	N	3	0	1000	1	78	15:00:49	618381	0	0	0	0	0	0	0	0	0	0	0	0	0	0	0	0	0
082912	15:00:49	10037	Trial2BackFr	N	3	0	1000	1	79	15:00:49	619900	0	0	0	0	0	0	0	0	0	0	0	0	0	0	0	0	0
082912	15:00:49	10037	Trial2BackFr	N	3	57	741	0	79	15:00:49	621166	0	0	0	0	0	0	0	0	0	0	0	0	0	0	0	0	0
082912	15:00:49	10037	Trial2BackFr	Y	3	0	1000	0	79	15:00:49	622925	0	0	0	0	0	0	0	0	0	0	0	0	0	0	0	0	0
082912	15:00:49	10037	Trial2BackFr	N	3	0	1000	1	80	15:00:49	624445	0	0	0	0	0	0	0	0	0	0	0	0	0	0	0	0	0
082912	15:00:49	10037	Trial2BackFr	N	3	0	1000	1	81	15:00:49	625964	0	0	0	0	0	0	0	0	0	0	0	0	0	0	0	0	0
082912	15:00:49	10037	Trial2BackFr	N	3	0	1000	1	82	15:00:49	627483	0	0	0	0	0	0	0	0	0	0	0	0	0	0	0	0	0
082912	15:00:49	10037	Trial2BackFr	N	3	0	1000	1	83	15:00:49	629003	0	0	0	0	0	0	0	0	0	0	0	0	0	0	0	0	0
082912	15:00:49	10037	Trial2BackFr	Y	3	0	1000	0	83	15:00:49	630522	0	0	0	0	0	0	0	0	0	0	0	0	0	0	0	0	0
082912	15:00:49	10037	Trial2BackFr	N	3	0	1000	1	84	15:00:49	632042	0	0	0	0	0	0	0	0	0	0	0	0	0	0	0	0	0
082912	15:00:49	10037	Trial2BackFr	N	3	0	1000	1	85	15:00:49	633561	0	0	0	0	0	0	0	0	0	0	0	0	0	0	0	0	0
082912	15:00:49	10037	Trial2BackFr	N	3	0	1000	1	86	15:00:49	635080	0	0	0	0	0	0	0	0	0	0	0	0	0	0	0	0	0
082912	15:00:49	10037	Trial2BackFr	Y	3	0	1000	0	86	15:00:49	636600	0	0	0	0	0	0	0	0	0	0	0	0	0	0	0	0	0
082912	15:00:49	10037	Trial2BackFr	N	3	0	1000	1	87	15:00:49	638119	0	0	0	0	0	0	0	0	0	0	0	0	0	0	0	0	0
082912	15:00:49	10037	Trial2BackFr	N	3	0	1000	1	88	15:00:49	639639	0	0	0	0	0	0	0	0	0	0	0	0	0	0	0	0	0
082912	15:00:49	10037	Trial2BackFr	N	3	0	1000	1	89	15:00:49	641158	0	0	0	0	0	0	0	0	0	0	0	0	0	0	0	0	0
082912	15:00:49	10037	Trial2BackFr	N	3	0	1000	1	90	15:00:49	642677	0	0	0	0	0	0	0	0	0	0	0	0	0	0	0	0	0
082912	15:00:49	10037	Trial2BackFr	N	3	0	1000	1	91	15:00:49	644197	0	0	0	0	0	0	0	0	0	0	0	0	0	0	0	0	0
082912	15:00:49	10037	Trial2BackFr	Y	3	0	1000	0	91	15:00:49	645716	0	0	0	0	0	0	0	0	0	0	0	0	0	0	0	0	0
082912	15:00:49	10037	Trial2BackFr	N	3	0	1000	1	92	15:00:49	647236	0	0	0	0	0	0	0	0	0	0	0	0	0	0	0	0	0
082912	15:00:49	10037	Trial2BackFr	N	3	0	1000	1	93	15:00:49	648755	0	0	0	0	0	0	0	0	0	0	0	0	0	0	0	0	0
082912	15:00:49	10037	Trial2BackFr	N	3	0	1000	1	94	15:00:49	650274	0	0	0	0	0	0	0	0	0	0	0	0	0	0	0	0	0
082912	15:00:49	10037	Trial2BackFr	Y	3	0	1000	0	94	15:00:49	651794	0	0	0	0	0	0	0	0	0	0	0	0	0	0	0	0	0
082912	15:00:49	10037	Memory1RBaselineFr	ScoreFr	5	M1	25246	0	94	15:00:49	852875	0	0	0	0	0	0	0	0	0	0	0	0	0	0	0	0	0
082912	15:00:49	10037	Memory1RBaselineFr	ScoreFr	5	M2	699	0	94	15:00:49	853608	0	0	0	0	0	0	0	0	0	0	0	0	0	0	0	0	0
082912	15:00:49	10037	Memory1RBaselineFr	ScoreFr	5	M3	309	0	94	15:00:49	853954	0	0	0	0	0	0	0	0	0	0	0	0	0	0	0	0	0
082912	15:00:49	10037	Memory1RBaselineFr	ScoreFr	5	M8	2275	0	94	15:00:49	856273	0	0	0	0	0	0	0	0	0	0	0	0	0	0	0	0	0
082912	15:00:49	10037	Memory1RBaselineFr	ScoreFr	5	Done	356	0	94	15:00:49	856673	0	0	0	0	0	0	0	0	0	0	0	0	0	0	0	0	0
082912	15:00:49	10037	Memory2RBaselineFr	ScoreFr2	5	11	35567	0	94	15:00:49	922874	0	0	0	0	0	0	0	0	0	0	0	0	0	0	0	0	0
082912	15:00:49	10037	Memory2RBaselineFr	ScoreFr2	5	22	451	0	94	15:00:49	923367	0	0	0	0	0	0	0	0	0	0	0	0	0	0	0	0	0
082912	15:00:49	10037	Memory2RBaselineFr	ScoreFr2	5	33	414	0	94	15:00:49	923820	0	0	0	0	0	0	0	0	0	0	0	0	0	0	0	0	0
082912	15:00:49	10037	Memory2RBaselineFr	ScoreFr2	5	66	3961	0	94	15:00:49	927818	0	0	0	0	0	0	0	0	0	0	0	0	0	0	0	0	0
082912	15:00:49	10037	Memory2RBaselineFr	ScoreFr2	5	77	282	0	94	15:00:49	928138	0	0	0	0	0	0	0	0	0	0	0	0	0	0	0	0	0
082912	15:00:49	10037	Memory2RBaselineFr	ScoreFr2	5	88	650	0	94	15:00:49	928831	0	0	0	0	0	0	0	0	0	0	0	0	0	0	0	0	0
082912	15:00:49	10037	Memory2RBaselineFr	ScoreFr2	5	Done	525	0	94	15:00:49	929391	0	0	0	0	0	0	0	0	0	0	0	0	0	0	0	0	0
082912	15:00:49	10037	Memory3RBaselineFr	ScoreFr3	5	111	32354	0	94	15:00:49	982890	0	0	0	0	0	0	0	0	0	0	0	0	0	0	0	0	0
082912	15:00:49	10037	Memory3RBaselineFr	ScoreFr3	5	222	346	0	94	15:00:49	983277	0	0	0	0	0	0	0	0	0	0	0	0	0	0	0	0	0
082912	15:00:49	10037	Memory3RBaselineFr	ScoreFr3	5	333	295	0	94	15:00:49	983610	0	0	0	0	0	0	0	0	0	0	0	0	0	0	0	0	0
082912	15:00:49	10037	Memory3RBaselineFr	ScoreFr3	5	444	442	0	94	15:00:49	984090	0	0	0	0	0	0	0	0	0	0	0	0	0	0	0	0	0
082912	15:00:49	10037	Memory3RBaselineFr	ScoreFr3	5	555	442	0	94	15:00:49	984569	0	0	0	0	0	0	0	0	0	0	0	0	0	0	0	0	0
082912	15:00:49	10037	Memory3RBaselineFr	ScoreFr3	5	666	890	0	94	15:00:49	985502	0	0	0	0	0	0	0	0	0	0	0	0	0	0	0	0	0
082912	15:00:49	10037	Memory3RBaselineFr	ScoreFr3	5	777	326	0	94	15:00:49	985862	0	0	0	0	0	0	0	0	0	0	0	0	0	0	0	0	0
082912	15:00:49	10037	Memory3RBaselineFr	ScoreFr3	5	888	334	0	94	15:00:49	986235	0	0	0	0	0	0	0	0	0	0	0	0	0	0	0	0	0
082912	15:00:49	10037	Memory3RBaselineFr	ScoreFr3	5	Done	20352	0	94	15:00:49	1006627	0	0	0	0	0	0	0	0	0	0	0	0	0	0	0	0	0
082912	15:00:49	10037	LoriaFrLH3	Stop	6	4	10035	0	94	15:00:49	1152625	0	0	0	0	0	0	0	0	0	0	0	0	0	0	0	0	0
082912	15:00:49	10037	FrTrail	Trails	7	1Trails	50797	0	94	15:00:49	1309268	0	0	0	0	0	0	0	0	0	0	0	0	0	0	0	0	0
082912	15:00:49	10037	Serial7FrBaseline	Serial7FrBaseline	8	83	2935	0	94	15:00:49	1434127	1	0	0	0	0	0	0	0	0	0	0	0	0	0	0	0	0
082912	15:00:49	10037	Serial7FrBaseline	Serial7FrBaseline	8	66	2811	0	94	15:00:49	1436966	1	0	0	0	0	0	0	0	0	0	0	0	0	0	0	0	0
082912	15:00:49	10037	Serial7FrBaseline	Serial7FrBaseline	8	51	2364	0	94	15:00:49	1439352	1	0	0	0	0	0	0	0	0	0	0	0	0	0	0	0	0
082912	15:00:49	10037	Serial7FrBaseline	Serial7FrBaseline	8	44	2452	0	94	15:00:49	1441831	2	0	0	0	0	0	0	0	0	0	0	0	0	0	0	0	0
082912	15:00:49	10037	Serial7FrBaseline	Serial7FrBaseline	8	37	2619	0	94	15:00:49	1444470	3	0	0	0	0	0	0	0	0	0	0	0	0	0	0	0	0
082912	15:00:49	10037	corsiblockFrFwrd	recallseqFrFwrd	9	1	4148	0	94	15:00:49	1498795	3	0	0	0	0	0	0	0	0	0	0	0	0	0	0	0	0
082912	15:00:49	10037	corsiblockFrFwrd	recallseqFrFwrd	9	7	1347	0	94	15:00:49	1500181	3	0	0	0	0	0	0	0	0	0	0	0	0	0	0	0	0
082912	15:00:49	10037	corsiblockFrFwrd	recallseqFrFwrd	9	doneCorsiFr	4721	0	94	15:00:49	1504939	3	0	0	0	0	0	0	0	0	0	0	0	0	0	0	2	0
082912	15:00:49	10037	corsiblockFrFwrd	recallseqFrFwrd	9	2	1263	0	94	15:00:49	1512296	3	0	0	0	0	0	0	0	0	0	0	0	0	0	0	2	0
082912	15:00:49	10037	corsiblockFrFwrd	recallseqFrFwrd	9	6	1134	0	94	15:00:49	1513470	3	0	0	0	0	0	0	0	0	0	0	0	0	0	0	2	0
082912	15:00:49	10037	corsiblockFrFwrd	recallseqFrFwrd	9	8	1153	0	94	15:00:49	1514655	3	0	0	0	0	0	0	0	0	0	0	0	0	0	0	2	0
082912	15:00:49	10037	corsiblockFrFwrd	recallseqFrFwrd	9	doneCorsiFr	1847	0	94	15:00:49	1516535	3	0	0	0	0	0	0	0	0	0	0	0	0	0	0	3	0
082912	15:00:49	10037	corsiblockFrFwrd	recallseqFrFwrd	9	5	1260	0	94	15:00:49	1524892	3	0	0	0	0	0	0	0	0	0	0	0	0	0	0	3	0
082912	15:00:49	10037	corsiblockFrFwrd	recallseqFrFwrd	9	9	1243	0	94	15:00:49	1526171	3	0	0	0	0	0	0	0	0	0	0	0	0	0	0	3	0
082912	15:00:49	10037	corsiblockFrFwrd	recallseqFrFwrd	9	3	1107	0	94	15:00:49	1527317	3	0	0	0	0	0	0	0	0	0	0	0	0	0	0	3	0
082912	15:00:49	10037	corsiblockFrFwrd	recallseqFrFwrd	9	4	769	0	94	15:00:49	1528130	3	0	0	0	0	0	0	0	0	0	0	0	0	0	0	3	0
082912	15:00:49	10037	corsiblockFrFwrd	recallseqFrFwrd	9	doneCorsiFr	2092	0	94	15:00:49	1530263	3	0	0	0	0	0	0	0	0	0	0	0	0	0	0	3	0
082912	15:00:49	10037	corsiblockFrFwrd	recallseqFrFwrd	9	9	1260	0	94	15:00:49	1538579	3	0	0	0	0	0	0	0	0	0	0	0	0	0	0	3	0
082912	15:00:49	10037	corsiblockFrFwrd	recallseqFrFwrd	9	3	1122	0	94	15:00:49	1539739	3	0	0	0	0	0	0	0	0	0	0	0	0	0	0	3	0
082912	15:00:49	10037	corsiblockFrFwrd	recallseqFrFwrd	9	6	715	0	94	15:00:49	1540499	3	0	0	0	0	0	0	0	0	0	0	0	0	0	0	3	0
082912	15:00:49	10037	corsiblockFrFwrd	recallseqFrFwrd	9	4	2307	0	94	15:00:49	1542844	3	0	0	0	0	0	0	0	0	0	0	0	0	0	0	3	0
082912	15:00:49	10037	corsiblockFrFwrd	recallseqFrFwrd	9	doneCorsiFr	1130	0	94	15:00:49	1544017	3	0	0	0	0	0	0	0	0	0	0	0	0	0	0	3	0
082912	15:00:49	10037	corsiblockFrRev	recallseqFrRev	10	6	3596	0	94	15:00:49	1568768	3	0	0	0	0	0	0	0	0	0	0	0	0	0	0	3	0
082912	15:00:49	10037	corsiblockFrRev	recallseqFrRev	10	3	678	0	94	15:00:49	1569487	3	0	0	0	0	0	0	0	0	0	0	0	0	0	0	3	0
082912	15:00:49	10037	corsiblockFrRev	recallseqFrRev	10	doneCorsiFr	1470	0	94	15:00:49	1570993	3	0	0	0	0	0	0	0	0	0	0	0	0	0	0	3	2
082912	15:00:49	10037	corsiblockFrRev	recallseqFrRev	10	7	833	0	94	15:00:49	1577911	3	0	0	0	0	0	0	0	0	0	0	0	0	0	0	3	2
082912	15:00:49	10037	corsiblockFrRev	recallseqFrRev	10	4	791	0	94	15:00:49	1578737	3	0	0	0	0	0	0	0	0	0	0	0	0	0	0	3	2
082912	15:00:49	10037	corsiblockFrRev	recallseqFrRev	10	2	685	0	94	15:00:49	1579457	3	0	0	0	0	0	0	0	0	0	0	0	0	0	0	3	2
082912	15:00:49	10037	corsiblockFrRev	recallseqFrRev	10	doneCorsiFr	1533	0	94	15:00:49	1581029	3	0	0	0	0	0	0	0	0	0	0	0	0	0	0	3	3
082912	15:00:49	10037	corsiblockFrRev	recallseqFrRev	10	9	1013	0	94	15:00:49	1589133	3	0	0	0	0	0	0	0	0	0	0	0	0	0	0	3	3
082912	15:00:49	10037	corsiblockFrRev	recallseqFrRev	10	8	784	0	94	15:00:49	1589959	3	0	0	0	0	0	0	0	0	0	0	0	0	0	0	3	3
082912	15:00:49	10037	corsiblockFrRev	recallseqFrRev	10	5	1918	0	94	15:00:49	1591918	3	0	0	0	0	0	0	0	0	0	0	0	0	0	0	3	3
082912	15:00:49	10037	corsiblockFrRev	recallseqFrRev	10	1	1102	0	94	15:00:49	1593065	3	0	0	0	0	0	0	0	0	0	0	0	0	0	0	3	3
082912	15:00:49	10037	corsiblockFrRev	recallseqFrRev	10	doneCorsiFr	1628	0	94	15:00:49	1594731	3	0	0	0	0	0	0	0	0	0	0	0	0	0	0	3	3
082912	15:00:49	10037	corsiblockFrRev	recallseqFrRev	10	5	1376	0	94	15:00:49	1603154	3	0	0	0	0	0	0	0	0	0	0	0	0	0	0	3	3
082912	15:00:49	10037	corsiblockFrRev	recallseqFrRev	10	4	731	0	94	15:00:49	1603927	3	0	0	0	0	0	0	0	0	0	0	0	0	0	0	3	3
082912	15:00:49	10037	corsiblockFrRev	recallseqFrRev	10	6	614	0	94	15:00:49	1604580	3	0	0	0	0	0	0	0	0	0	0	0	0	0	0	3	3
082912	15:00:49	10037	corsiblockFrRev	recallseqFrRev	10	1	977	0	94	15:00:49	1605593	3	0	0	0	0	0	0	0	0	0	0	0	0	0	0	3	3
082912	15:00:49	10037	corsiblockFrRev	recallseqFrRev	10	doneCorsiFr	1476	0	94	15:00:49	1607112	3	0	0	0	0	0	0	0	0	0	0	0	0	0	0	3	4
082912	15:00:49	10037	corsiblockFrRev	recallseqFrRev	10	3	1338	0	94	15:00:49	1615536	3	0	0	0	0	0	0	0	0	0	0	0	0	0	0	3	4
082912	15:00:49	10037	corsiblockFrRev	recallseqFrRev	10	8	836	0	94	15:00:49	1616415	3	0	0	0	0	0	0	0	0	0	0	0	0	0	0	3	4
082912	15:00:49	10037	corsiblockFrRev	recallseqFrRev	10	7	1550	0	94	15:00:49	1618001	3	0	0	0	0	0	0	0	0	0	0	0	0	0	0	3	4
082912	15:00:49	10037	corsiblockFrRev	recallseqFrRev	10	2	739	0	94	15:00:49	1618775	3	0	0	0	0	0	0	0	0	0	0	0	0	0	0	3	4
082912	15:00:49	10037	corsiblockFrRev	recallseqFrRev	10	9	782	0	94	15:00:49	1619601	3	0	0	0	0	0	0	0	0	0	0	0	0	0	0	3	4
082912	15:00:49	10037	corsiblockFrRev	recallseqFrRev	10	doneCorsiFr	1796	0	94	15:00:49	1621440	3	0	0	0	0	0	0	0	0	0	0	0	0	0	0	3	4
082912	15:00:49	10037	corsiblockFrRev	recallseqFrRev	10	2	1378	0	94	15:00:49	1630863	3	0	0	0	0	0	0	0	0	0	0	0	0	0	0	3	4
082912	15:00:49	10037	corsiblockFrRev	recallseqFrRev	10	8	734	0	94	15:00:49	1631636	3	0	0	0	0	0	0	0	0	0	0	0	0	0	0	3	4
082912	15:00:49	10037	corsiblockFrRev	recallseqFrRev	10	6	841	0	94	15:00:49	1632516	3	0	0	0	0	0	0	0	0	0	0	0	0	0	0	3	4
082912	15:00:49	10037	corsiblockFrRev	recallseqFrRev	10	5	1697	0	94	15:00:49	1634248	3	0	0	0	0	0	0	0	0	0	0	0	0	0	0	3	4
082912	15:00:49	10037	corsiblockFrRev	recallseqFrRev	10	7	1100	0	94	15:00:49	1635395	3	0	0	0	0	0	0	0	0	0	0	0	0	0	0	3	4
082912	15:00:49	10037	corsiblockFrRev	recallseqFrRev	10	doneCorsiFr	1506	0	94	15:00:49	1636941	3	0	0	0	0	0	0	0	0	0	0	0	0	0	0	3	4
082912	15:00:49	10037	testFrBaseline	WordsFrBaseline	11	7FrBaseline	37378	0	94	15:00:49	1681603	3	0	0	0	0	0	0	1	0	0	0	0	0	0	0	3	4
082912	15:00:49	10037	testFrBaseline	WordsFrBaseline	11	5FrBaseline	689	0	94	15:00:49	1682336	3	0	0	0	0	1	0	1	0	0	0	0	0	0	0	3	4
082912	15:00:49	10037	testFrBaseline	WordsFrBaseline	11	4FrBaseline	388	0	94	15:00:49	1682763	3	0	0	0	1	1	0	1	0	0	0	0	0	0	0	3	4
082912	15:00:49	10037	testFrBaseline	WordsFrBaseline	11	3FrBaseline	786	0	94	15:00:49	1683589	3	0	0	1	1	1	0	1	0	0	0	0	0	0	0	3	4
082912	15:00:49	10037	testFrBaseline	WordsFrBaseline	11	2FrBaseline	495	0	94	15:00:49	1684122	3	0	1	1	1	1	0	1	0	0	0	0	0	0	0	3	4
082912	15:00:49	10037	testFrBaseline	WordsFrBaseline	11	1FrBaseline	426	0	94	15:00:49	1684589	3	1	1	1	1	1	0	1	0	0	0	0	0	0	0	3	4
082912	15:00:49	10037	testFrBaseline	WordsFrBaseline	11	DoneFrBaseline	976	0	94	15:00:49	1685602	3	1	1	1	1	1	0	1	0	0	0	0	0	0	0	3	4
082912	15:00:49	10037	testFrBaseline	Cat6FrBaseline	11	R6FrBaseline	9491	0	94	15:00:49	1695131	3	1	1	1	1	1	2	1	0	0	0	0	0	0	0	3	4
082912	15:00:49	10037	testFrBaseline	Cat8FrBaseline	11	W8FrBaseline	8769	0	94	15:00:49	1703941	3	1	1	1	1	1	2	1	0	0	0	0	0	0	0	3	4
082912	15:00:49	10037	testFrBaseline	Ch8FrBaseline	11	RR8FrBaseline	4055	0	94	15:00:49	1708032	3	1	1	1	1	1	2	1	3	0	0	0	0	0	0	3	4
082912	15:00:49	10037	DigitSpanFwrdFrBaseline	Score1FwrdFrBaseline	12	DS1	6493	0	94	15:00:49	1753561	3	1	1	1	1	1	2	1	3	0	0	0	0	0	0	3	4
082912	15:00:49	10037	DigitSpanFwrdFrBaseline	Gate1FwrdFrBaseline	12	0	1	0	94	15:00:49	1753576	3	1	1	1	1	1	2	1	3	3	0	0	0	0	0	3	4
082912	15:00:49	10037	DigitSpanFwrdFrBaseline	Score2FwrdFrBaseline	12	DS1	8624	0	94	15:00:49	1768395	3	1	1	1	1	1	2	1	3	3	0	0	0	0	0	3	4
082912	15:00:49	10037	DigitSpanFwrdFrBaseline	Gate3FwrdFrBaseline	12	0	1	0	94	15:00:49	1768411	3	1	1	1	1	1	2	1	3	4	0	0	0	0	0	3	4
082912	15:00:49	10037	DigitSpanFwrdFrBaseline	Score3FwrdFrBaseline	12	DS1	10856	0	94	15:00:49	1786228	3	1	1	1	1	1	2	1	3	4	0	0	0	0	0	3	4
082912	15:00:49	10037	DigitSpanFwrdFrBaseline	Gate5FwrdFrBaseline	12	0	1	0	94	15:00:49	1786244	3	1	1	1	1	1	2	1	3	5	0	0	0	0	0	3	4
082912	15:00:49	10037	DigitSpanFwrdFrBaseline	Score4FwrdFrBaseline	12	DS2	10589	0	94	15:00:49	1805381	3	1	1	1	1	1	2	1	3	5	0	0	0	0	0	3	4
082912	15:00:49	10037	DigitSpanFwrdFrBaseline	Gate7FwrdFrBaseline	12	0	1	0	94	15:00:49	1805396	3	1	1	1	1	1	2	1	3	5	0	0	0	0	0	3	4
082912	15:00:49	10037	DigitSpanFwrdFrBaseline	Score44FwrdFrBaseline	12	DS2	16479	0	94	15:00:49	1830197	3	1	1	1	1	1	2	1	3	5	0	0	0	0	0	3	4
082912	15:00:49	10037	DigitSpanFrBaseline	Score1FrBaseline	13	DS1	6198	0	94	15:00:49	1888001	3	1	1	1	1	1	2	1	3	5	0	0	0	0	0	3	4
082912	15:00:49	10037	DigitSpanFrBaseline	Gate1FrBaseline	13	0	1	0	94	15:00:49	1888017	3	1	1	1	1	1	2	1	3	5	2	0	0	0	0	3	4
082912	15:00:49	10037	DigitSpanFrBaseline	Score2FrBaseline	13	DS1	5223	0	94	15:00:49	1897731	3	1	1	1	1	1	2	1	3	5	2	0	0	0	0	3	4
082912	15:00:49	10037	DigitSpanFrBaseline	Gate3FrBaseline	13	0	1	0	94	15:00:49	1897746	3	1	1	1	1	1	2	1	3	5	3	0	0	0	0	3	4
082912	15:00:49	10037	DigitSpanFrBaseline	Score3FrBaseline	13	DS2	9222	0	94	15:00:49	1912698	3	1	1	1	1	1	2	1	3	5	3	0	0	0	0	3	4
082912	15:00:49	10037	DigitSpanFrBaseline	Gate5FrBaseline	13	0	1	0	94	15:00:49	1912713	3	1	1	1	1	1	2	1	3	5	3	0	0	0	0	3	4
082912	15:00:49	10037	DigitSpanFrBaseline	Score33FrBaseline	13	DS2	9228	0	94	15:00:49	1928012	3	1	1	1	1	1	2	1	3	5	3	0	0	0	0	3	4
082912	15:00:49	10037	Trial	IncongruentRight	14	0	737	0	94	15:00:49	2011433	3	1	1	1	1	1	2	1	3	5	3	0	0	0	0	3	4
082912	15:00:49	10037	Trial	IncongruentLeft	14	0	737	0	94	15:00:49	2012459	3	1	1	1	1	1	2	1	3	5	3	0	0	0	0	3	4
082912	15:00:49	10037	Trial	CongruentRight	14	205	690	1	94	15:00:49	2013418	3	1	1	1	1	1	2	1	3	5	3	0	0	0	0	3	4
082912	15:00:49	10037	Trial	IncongruentRight	14	203	602	0	94	15:00:49	2014338	3	1	1	1	1	1	2	1	3	5	3	0	0	0	0	3	4
082912	15:00:49	10037	Trial	CongruentLeft	14	0	737	0	94	15:00:49	2015471	3	1	1	1	1	1	2	1	3	5	3	0	0	0	0	3	4
082912	15:00:49	10037	Trial	CongruentRight	14	205	717	1	94	15:00:49	2016471	3	1	1	1	1	1	2	1	3	5	3	0	0	0	0	3	4
082912	15:00:49	10037	Trial	IncongruentRight	14	203	550	0	94	15:00:49	2017297	3	1	1	1	1	1	2	1	3	5	3	0	0	0	0	3	4
082912	15:00:49	10037	Trial	CongruentLeft	14	203	670	1	94	15:00:49	2018416	3	1	1	1	1	1	2	1	3	5	3	0	0	0	0	3	4
082912	15:00:49	10037	Trial	IncongruentLeft	14	205	489	0	94	15:00:49	2019243	3	1	1	1	1	1	2	1	3	5	3	0	0	0	0	3	4
082912	15:00:49	10037	Trial	IncongruentLeft	14	203	452	1	94	15:00:49	2020216	3	1	1	1	1	1	2	1	3	5	3	0	0	0	0	3	4
082912	15:00:49	10037	Trial	CongruentRight	14	205	554	1	94	15:00:49	2021308	3	1	1	1	1	1	2	1	3	5	3	0	0	0	0	3	4
082912	15:00:49	10037	Trial	IncongruentRight	14	0	737	0	94	15:00:49	2022482	3	1	1	1	1	1	2	1	3	5	3	0	0	0	0	3	4
082912	15:00:49	10037	Trial	CongruentLeft	14	203	571	1	94	15:00:49	2023334	3	1	1	1	1	1	2	1	3	5	3	0	0	0	0	3	4
082912	15:00:49	10037	Trial	CongruentRight	14	205	564	1	94	15:00:49	2024321	3	1	1	1	1	1	2	1	3	5	3	0	0	0	0	3	4
082912	15:00:49	10037	Trial	IncongruentLeft	14	203	380	1	94	15:00:49	2025134	3	1	1	1	1	1	2	1	3	5	3	0	0	0	0	3	4
082912	15:00:49	10037	Trial	IncongruentRight	14	205	327	1	94	15:00:49	2026093	3	1	1	1	1	1	2	1	3	5	3	0	0	0	0	3	4
082912	15:00:49	10037	Trial	CongruentRight	14	203	431	0	94	15:00:49	2027199	3	1	1	1	1	1	2	1	3	5	3	0	0	0	0	3	4
082912	15:00:49	10037	Trial	CongruentLeft	14	205	424	0	94	15:00:49	2028186	3	1	1	1	1	1	2	1	3	5	3	0	0	0	0	3	4
082912	15:00:49	10037	Trial	CongruentRight	14	0	737	0	94	15:00:49	2029492	3	1	1	1	1	1	2	1	3	5	3	0	0	0	0	3	4
082912	15:00:49	10037	Trial	IncongruentRight	14	0	737	0	94	15:00:49	2030505	3	1	1	1	1	1	2	1	3	5	3	0	0	0	0	3	4
082912	15:00:49	10037	Trial	IncongruentLeft	14	203	611	1	94	15:00:49	2031398	3	1	1	1	1	1	2	1	3	5	3	0	0	0	0	3	4
082912	15:00:49	10037	Trial	IncongruentLeft	14	203	684	1	94	15:00:49	2032464	3	1	1	1	1	1	2	1	3	5	3	0	0	0	0	3	4
082912	15:00:49	10037	Trial	CongruentLeft	14	205	548	0	94	15:00:49	2033331	3	1	1	1	1	1	2	1	3	5	3	0	0	0	0	3	4
082912	15:00:49	10037	Trial	CongruentRight	14	205	639	1	94	15:00:49	2034437	3	1	1	1	1	1	2	1	3	5	3	0	0	0	0	3	4
082912	15:00:49	10037	Trial	IncongruentLeft	14	0	737	0	94	15:00:49	2035516	3	1	1	1	1	1	2	1	3	5	3	0	0	0	0	3	4
082912	15:00:49	10037	Trial	IncongruentRight	14	205	688	1	94	15:00:49	2036476	3	1	1	1	1	1	2	1	3	5	3	0	0	0	0	3	4
082912	15:00:49	10037	Trial	CongruentRight	14	0	737	0	94	15:00:49	2037529	3	1	1	1	1	1	2	1	3	5	3	0	0	0	0	3	4
082912	15:00:49	10037	Trial	CongruentLeft	14	203	724	1	94	15:00:49	2038529	3	1	1	1	1	1	2	1	3	5	3	0	0	0	0	3	4
082912	15:00:49	10037	Trial	IncongruentRight	14	205	700	1	94	15:00:49	2039501	3	1	1	1	1	1	2	1	3	5	3	0	0	0	0	3	4
082912	15:00:49	10037	Trial	IncongruentLeft	14	203	612	1	94	15:00:49	2040421	3	1	1	1	1	1	2	1	3	5	3	0	0	0	0	3	4
082912	15:00:49	10037	Trial	IncongruentRight	14	205	431	1	94	15:00:49	2041247	3	1	1	1	1	1	2	1	3	5	3	0	0	0	0	3	4
082912	15:00:49	10037	Trial	CongruentRight	14	0	737	0	94	15:00:49	2042540	3	1	1	1	1	1	2	1	3	5	3	0	0	0	0	3	4
082912	15:00:49	10037	Trial	IncongruentLeft	14	203	656	1	94	15:00:49	2043473	3	1	1	1	1	1	2	1	3	5	3	0	0	0	0	3	4
082912	15:00:49	10037	Trial	CongruentLeft	14	0	737	0	94	15:00:49	2044553	3	1	1	1	1	1	2	1	3	5	3	0	0	0	0	3	4
082912	15:00:49	10037	Trial	CongruentRight	14	205	483	1	94	15:00:49	2045313	3	1	1	1	1	1	2	1	3	5	3	0	0	0	0	3	4
082912	15:00:49	10037	Trial	IncongruentLeft	14	203	444	1	94	15:00:49	2046272	3	1	1	1	1	1	2	1	3	5	3	0	0	0	0	3	4
082912	15:00:49	10037	Trial	IncongruentRight	14	205	308	1	94	15:00:49	2047138	3	1	1	1	1	1	2	1	3	5	3	0	0	0	0	3	4
082912	15:00:49	10037	Trial	IncongruentRight	14	203	559	0	94	15:00:49	2048405	3	1	1	1	1	1	2	1	3	5	3	0	0	0	0	3	4
082912	15:00:49	10037	Trial	CongruentLeft	14	203	695	1	94	15:00:49	2049538	3	1	1	1	1	1	2	1	3	5	3	0	0	0	0	3	4
082912	15:00:49	10037	Trial	IncongruentLeft	14	203	528	1	94	15:00:49	2050364	3	1	1	1	1	1	2	1	3	5	3	0	0	0	0	3	4
082912	15:00:49	10037	Trial	CongruentRight	14	205	456	1	94	15:00:49	2051297	3	1	1	1	1	1	2	1	3	5	3	0	0	0	0	3	4
082912	15:00:49	10037	Trial	CongruentLeft	14	203	337	1	94	15:00:49	2052176	3	1	1	1	1	1	2	1	3	5	3	0	0	0	0	3	4
082912	15:00:49	10037	Trial	IncongruentRight	14	205	377	1	94	15:00:49	2053216	3	1	1	1	1	1	2	1	3	5	3	0	0	0	0	3	4
082912	15:00:49	10037	Trial	CongruentRight	14	203	385	0	94	15:00:49	2054229	3	1	1	1	1	1	2	1	3	5	3	0	0	0	0	3	4
082912	15:00:49	10037	Trial	IncongruentLeft	14	205	570	0	94	15:00:49	2055402	3	1	1	1	1	1	2	1	3	5	3	0	0	0	0	3	4
082912	15:00:49	10037	Trial	CongruentLeft	14	203	178	1	94	15:00:49	2056015	3	1	1	1	1	1	2	1	3	5	3	0	0	0	0	3	4
082912	15:00:49	10037	Trial	IncongruentLeft	14	205	427	0	94	15:00:49	2057268	3	1	1	1	1	1	2	1	3	5	3	0	0	0	0	3	4
082912	15:00:49	10037	Trial	IncongruentRight	14	0	737	0	94	15:00:49	2058561	3	1	1	1	1	1	2	1	3	5	3	0	0	0	0	3	4
082912	15:00:49	10037	Trial	CongruentRight	14	205	635	1	94	15:00:49	2059467	3	1	1	1	1	1	2	1	3	5	3	0	0	0	0	3	4
082912	15:00:49	10037	Trial	CongruentLeft	14	203	452	1	94	15:00:49	2060293	3	1	1	1	1	1	2	1	3	5	3	0	0	0	0	3	4
082912	15:00:49	10037	Trial	CongruentLeft	14	203	381	1	94	15:00:49	2061213	3	1	1	1	1	1	2	1	3	5	3	0	0	0	0	3	4
082912	15:00:49	10037	Trial	IncongruentRight	14	205	503	1	94	15:00:49	2062346	3	1	1	1	1	1	2	1	3	5	3	0	0	0	0	3	4
082912	15:00:49	10037	Trial	IncongruentLeft	14	203	384	1	94	15:00:49	2063225	3	1	1	1	1	1	2	1	3	5	3	0	0	0	0	3	4
082912	15:00:49	10037	Trial	IncongruentRight	14	205	360	1	94	15:00:49	2064212	3	1	1	1	1	1	2	1	3	5	3	0	0	0	0	3	4
082912	15:00:49	10037	Trial	CongruentRight	14	203	353	0	94	15:00:49	2065198	3	1	1	1	1	1	2	1	3	5	3	0	0	0	0	3	4
082912	15:00:49	10037	Trial	CongruentRight	14	205	633	1	94	15:00:49	2066478	3	1	1	1	1	1	2	1	3	5	3	0	0	0	0	3	4
082912	15:00:49	10037	Trial	IncongruentLeft	14	203	497	1	94	15:00:49	2067344	3	1	1	1	1	1	2	1	3	5	3	0	0	0	0	3	4
082912	15:00:49	10037	Trial	CongruentLeft	14	205	554	0	94	15:00:49	2068397	3	1	1	1	1	1	2	1	3	5	3	0	0	0	0	3	4
082912	15:00:49	10037	Trial	CongruentRight	14	0	737	0	94	15:00:49	2069570	3	1	1	1	1	1	2	1	3	5	3	0	0	0	0	3	4
082912	15:00:49	10037	Trial	CongruentLeft	14	203	602	1	94	15:00:49	2070450	3	1	1	1	1	1	2	1	3	5	3	0	0	0	0	3	4
082912	15:00:49	10037	Trial	IncongruentRight	14	205	450	1	94	15:00:49	2071289	3	1	1	1	1	1	2	1	3	5	3	0	0	0	0	3	4
082912	15:00:49	10037	Trial	CongruentRight	14	203	587	0	94	15:00:49	2072435	3	1	1	1	1	1	2	1	3	5	3	0	0	0	0	3	4
082912	15:00:49	10037	Trial	CongruentLeft	14	203	3	1	94	15:00:49	2072849	3	1	1	1	1	1	2	1	3	5	3	0	0	0	0	3	4
082912	15:00:49	10037	Trial	IncongruentLeft	14	205	510	0	94	15:00:49	2074368	3	1	1	1	1	1	2	1	3	5	3	0	0	0	0	3	4
082912	15:00:49	10037	Trial	IncongruentLeft	14	203	615	1	94	15:00:49	2075474	3	1	1	1	1	1	2	1	3	5	3	0	0	0	0	3	4
082912	15:00:49	10037	Trial	CongruentRight	14	203	431	0	94	15:00:49	2076287	3	1	1	1	1	1	2	1	3	5	3	0	0	0	0	3	4
082912	15:00:49	10037	Trial	IncongruentRight	14	205	504	1	94	15:00:49	2077353	3	1	1	1	1	1	2	1	3	5	3	0	0	0	0	3	4
082912	15:00:49	10037	Trial	CongruentLeft	14	0	737	0	94	15:00:49	2078579	3	1	1	1	1	1	2	1	3	5	3	0	0	0	0	3	4
082912	15:00:49	10037	Trial	IncongruentRight	14	0	737	0	94	15:00:49	2079593	3	1	1	1	1	1	2	1	3	5	3	0	0	0	0	3	4
082912	15:00:49	10037	Trial	CongruentRight	14	205	355	1	94	15:00:49	2080219	3	1	1	1	1	1	2	1	3	5	3	0	0	0	0	3	4
082912	15:00:49	10037	Trial	IncongruentLeft	14	205	508	0	94	15:00:49	2081378	3	1	1	1	1	1	2	1	3	5	3	0	0	0	0	3	4
082912	15:00:49	10037	Trial	CongruentLeft	14	203	388	1	94	15:00:49	2082258	3	1	1	1	1	1	2	1	3	5	3	0	0	0	0	3	4
082912	15:00:49	10037	Trial	CongruentRight	14	205	575	1	94	15:00:49	2083458	3	1	1	1	1	1	2	1	3	5	3	0	0	0	0	3	4
082912	15:00:49	10037	Trial	IncongruentLeft	14	203	375	1	94	15:00:49	2084257	3	1	1	1	1	1	2	1	3	5	3	0	0	0	0	3	4
082912	15:00:49	10037	Trial	CongruentRight	14	205	320	1	94	15:00:49	2085203	3	1	1	1	1	1	2	1	3	5	3	0	0	0	0	3	4
082912	15:00:49	10037	Trial	CongruentRight	14	205	536	1	94	15:00:49	2086416	3	1	1	1	1	1	2	1	3	5	3	0	0	0	0	3	4
082912	15:00:49	10037	Trial	IncongruentRight	14	203	465	0	94	15:00:49	2087349	3	1	1	1	1	1	2	1	3	5	3	0	0	0	0	3	4
082912	15:00:49	10037	Trial	CongruentLeft	14	0	737	0	94	15:00:49	2088602	3	1	1	1	1	1	2	1	3	5	3	0	0	0	0	3	4
082912	15:00:49	10037	Trial	IncongruentLeft	14	0	737	0	94	15:00:49	2089615	3	1	1	1	1	1	2	1	3	5	3	0	0	0	0	3	4
082912	15:00:49	10037	Trial	CongruentLeft	14	203	605	1	94	15:00:49	2090495	3	1	1	1	1	1	2	1	3	5	3	0	0	0	0	3	4
082912	15:00:49	10037	Trial	IncongruentRight	14	205	645	1	94	15:00:49	2091534	3	1	1	1	1	1	2	1	3	5	3	0	0	0	0	3	4
082912	15:00:49	10037	Trial	IncongruentLeft	14	203	509	1	94	15:00:49	2092401	3	1	1	1	1	1	2	1	3	5	3	0	0	0	0	3	4
082912	15:00:49	10037	Trial	CongruentRight	14	205	440	1	94	15:00:49	2093347	3	1	1	1	1	1	2	1	3	5	3	0	0	0	0	3	4
082912	15:00:49	10037	Trial	CongruentLeft	14	203	577	1	94	15:00:49	2094480	3	1	1	1	1	1	2	1	3	5	3	0	0	0	0	3	4
082912	15:00:49	10037	Trial	IncongruentLeft	14	0	737	0	94	15:00:49	2095626	3	1	1	1	1	1	2	1	3	5	3	0	0	0	0	3	4
082912	15:00:49	10037	Trial	CongruentLeft	14	203	353	1	94	15:00:49	2096253	3	1	1	1	1	1	2	1	3	5	3	0	0	0	0	3	4
082912	15:00:49	10037	Trial	IncongruentRight	14	205	522	1	94	15:00:49	2097426	3	1	1	1	1	1	2	1	3	5	3	0	0	0	0	3	4
082912	15:00:49	10037	Trial	CongruentRight	14	203	338	0	94	15:00:49	2098238	3	1	1	1	1	1	2	1	3	5	3	0	0	0	0	3	4
082912	15:00:49	10037	Trial	IncongruentLeft	14	0	737	0	94	15:00:49	2099638	3	1	1	1	1	1	2	1	3	5	3	0	0	0	0	3	4
082912	15:00:49	10037	Trial	CongruentLeft	14	203	630	1	94	15:00:49	2100544	3	1	1	1	1	1	2	1	3	5	3	0	0	0	0	3	4
082912	15:00:49	10037	Trial	IncongruentRight	14	205	574	1	94	15:00:49	2101490	3	1	1	1	1	1	2	1	3	5	3	0	0	0	0	3	4
082912	15:00:49	10037	Trial	IncongruentLeft	14	203	678	1	94	15:00:49	2102597	3	1	1	1	1	1	2	1	3	5	3	0	0	0	0	3	4
082912	15:00:49	10037	Trial	CongruentLeft	14	203	513	1	94	15:00:49	2103436	3	1	1	1	1	1	2	1	3	5	3	0	0	0	0	3	4
082912	15:00:49	10037	Trial	IncongruentLeft	14	203	490	1	94	15:00:49	2104409	3	1	1	1	1	1	2	1	3	5	3	0	0	0	0	3	4
082912	15:00:49	10037	Trial	CongruentRight	14	205	498	1	94	15:00:49	2105422	3	1	1	1	1	1	2	1	3	5	3	0	0	0	0	3	4
082912	15:00:49	10037	Trial	CongruentLeft	14	0	737	0	94	15:00:49	2106648	3	1	1	1	1	1	2	1	3	5	3	0	0	0	0	3	4
082912	15:00:49	10037	Trial	IncongruentRight	14	205	675	1	94	15:00:49	2107595	3	1	1	1	1	1	2	1	3	5	3	0	0	0	0	3	4
082912	15:00:49	10037	Trial	CongruentLeft	14	203	667	1	94	15:00:49	2108594	3	1	1	1	1	1	2	1	3	5	3	0	0	0	0	3	4
082912	15:00:49	10037	Trial	CongruentRight	14	205	580	1	94	15:00:49	2109500	3	1	1	1	1	1	2	1	3	5	3	0	0	0	0	3	4
082912	15:00:49	10037	Trial	IncongruentLeft	14	203	479	1	94	15:00:49	2110420	3	1	1	1	1	1	2	1	3	5	3	0	0	0	0	3	4
082912	15:00:49	10037	WordsAbsFrBaseline	PAbsFrBaseline1	16	Abs2	31066	0	94	15:00:49	2151071	3	1	1	1	1	1	2	1	3	5	3	0	0	0	0	3	4
082912	15:00:49	10037	WordsAbsFrBaseline	PAbsFrBaseline2	16	Abs2	3943	0	94	15:00:49	2155056	3	1	1	1	1	1	2	1	3	5	3	0	0	0	0	3	4
082912	15:00:49	10037	WordsAbsFrBaseline	PAbsFrBaseline3	16	AbsContinue	1717	0	94	15:00:49	2156815	3	1	1	1	1	1	2	1	3	5	3	0	0	0	0	3	4
082912	15:00:49	10037	WordsAbsFrBaseline	AbsFrBaseline1	16	Abs1	9150	0	94	15:00:49	2165998	3	1	1	1	1	1	2	1	3	5	3	1	0	0	0	3	4
082912	15:00:49	10037	WordsAbsFrBaseline	AbsFrBaseline2	16	Abs2	14887	0	94	15:00:49	2180926	3	1	1	1	1	1	2	1	3	5	3	1	0	0	0	3	4
082912	15:00:49	10037	WordsAbsFrBaseline	AbsFrBaseline3	16	Abs1	25423	0	94	15:00:49	2206382	3	1	1	1	1	1	2	1	3	5	3	2	0	0	0	3	4
082912	15:00:49	10037	Trial2BackFrS	NS	17	0	1000	1	94	15:00:49	2296960	3	1	1	1	1	1	2	1	3	5	3	2	0	0	0	3	4
082912	15:00:49	10037	Trial2BackFrS	NS	17	0	1000	1	94	15:00:49	2298479	3	1	1	1	1	1	2	1	3	5	3	2	0	0	0	3	4
082912	15:00:49	10037	Trial2BackFrS	NS	17	0	1000	1	94	15:00:49	2299999	3	1	1	1	1	1	2	1	3	5	3	2	0	0	0	3	4
082912	15:00:49	10037	Trial2BackFrS	YS	17	57	798	1	94	15:00:49	2301318	3	1	1	1	1	1	2	1	3	5	3	2	0	0	0	3	4
082912	15:00:49	10037	Trial2BackFrS	NS	17	0	1000	1	94	15:00:49	2303024	3	1	1	1	1	1	2	1	3	5	3	2	0	0	0	3	4
082912	15:00:49	10037	Trial2BackFrS	NS	17	57	700	0	94	15:00:49	2304250	3	1	1	1	1	1	2	1	3	5	3	2	0	0	0	3	4
082912	15:00:49	10037	Trial2BackFrS	NS	17	0	1000	1	94	15:00:49	2306050	3	1	1	1	1	1	2	1	3	5	3	2	0	0	0	3	4
082912	15:00:49	10037	Trial2BackFrS	NS	17	0	1000	1	94	15:00:49	2307569	3	1	1	1	1	1	2	1	3	5	3	2	0	0	0	3	4
082912	15:00:49	10037	Trial2BackFrS	YS	17	57	507	1	94	15:00:49	2308609	3	1	1	1	1	1	2	1	3	5	3	2	0	0	0	3	4
082912	15:00:49	10037	Trial2BackFrS	NS	17	0	1000	1	94	15:00:49	2310595	3	1	1	1	1	1	2	1	3	5	3	2	0	0	0	3	4
082912	15:00:49	10037	Trial2BackFrS	NS	17	0	1000	1	94	15:00:49	2312114	3	1	1	1	1	1	2	1	3	5	3	2	0	0	0	3	4
082912	15:00:49	10037	Trial2BackFrS	YS	17	0	1000	0	94	15:00:49	2313633	3	1	1	1	1	1	2	1	3	5	3	2	0	0	0	3	4
082912	15:00:49	10037	Trial2BackFrS	NS	17	57	635	0	94	15:00:49	2314793	3	1	1	1	1	1	2	1	3	5	3	2	0	0	0	3	4
082912	15:00:49	10037	Trial2BackFrS	NS	17	0	1000	1	94	15:00:49	2316659	3	1	1	1	1	1	2	1	3	5	3	2	0	0	0	3	4
082912	15:00:49	10037	Trial2BackFrS	NS	17	0	1000	1	94	15:00:49	2318178	3	1	1	1	1	1	2	1	3	5	3	2	0	0	0	3	4
082912	15:00:49	10037	Trial2BackFrS	YS	17	57	570	1	94	15:00:49	2319271	3	1	1	1	1	1	2	1	3	5	3	2	0	0	0	3	4
082912	15:00:49	10037	Trial2BackFrS	NS	17	0	1000	1	94	15:00:49	2321204	3	1	1	1	1	1	2	1	3	5	3	2	0	0	0	3	4
082912	15:00:49	10037	Trial2BackFrS	NS	17	0	1000	1	94	15:00:49	2322723	3	1	1	1	1	1	2	1	3	5	3	2	0	0	0	3	4
082912	15:00:49	10037	Trial2BackFrS	NS	17	57	585	0	94	15:00:49	2323843	3	1	1	1	1	1	2	1	3	5	3	2	0	0	0	3	4
082912	15:00:49	10037	Trial2BackFrS	NS	17	0	1000	1	94	15:00:49	2325749	3	1	1	1	1	1	2	1	3	5	3	2	0	0	0	3	4
082912	15:00:49	10037	Trial2BackFrS	YS	17	0	1000	0	94	15:00:49	2327268	3	1	1	1	1	1	2	1	3	5	3	2	0	0	0	3	4
082912	15:00:49	10037	Trial2BackFrS	NS	17	0	1000	1	94	15:00:49	2328787	3	1	1	1	1	1	2	1	3	5	3	2	0	0	0	3	4
082912	15:00:49	10037	Trial2BackFrS	NS	17	0	1000	1	94	15:00:49	2330307	3	1	1	1	1	1	2	1	3	5	3	2	0	0	0	3	4
082912	15:00:49	10037	Trial2BackFrS	NS	17	57	793	0	94	15:00:49	2331626	3	1	1	1	1	1	2	1	3	5	3	2	0	0	0	3	4
082912	15:00:49	10037	Trial2BackFrS	NS	17	57	855	0	94	15:00:49	2333199	3	1	1	1	1	1	2	1	3	5	3	2	0	0	0	3	4
082912	15:00:49	10037	Trial2BackFrS	NS	17	0	1000	1	94	15:00:49	2334825	3	1	1	1	1	1	2	1	3	5	3	2	0	0	0	3	4
082912	15:00:49	10037	Trial2BackFrS	NS	17	57	835	0	94	15:00:49	2336184	3	1	1	1	1	1	2	1	3	5	3	2	0	0	0	3	4
082912	15:00:49	10037	Trial2BackFrS	NS	17	0	1000	1	94	15:00:49	2337850	3	1	1	1	1	1	2	1	3	5	3	2	0	0	0	3	4
082912	15:00:49	10037	Trial2BackFrS	NS	17	57	753	0	94	15:00:49	2339130	3	1	1	1	1	1	2	1	3	5	3	2	0	0	0	3	4
082912	15:00:49	10037	Trial2BackFrS	NS	17	0	1000	1	94	15:00:49	2340876	3	1	1	1	1	1	2	1	3	5	3	2	0	0	0	3	4
082912	15:00:49	10037	Trial2BackFrS	NS	17	0	1000	1	94	15:00:49	2342395	3	1	1	1	1	1	2	1	3	5	3	2	0	0	0	3	4
082912	15:00:49	10037	Trial2BackFrS	YS	17	0	1000	0	94	15:00:49	2343915	3	1	1	1	1	1	2	1	3	5	3	2	0	0	0	3	4
082912	15:00:49	10037	Trial2BackFrS	NS	17	0	1000	1	94	15:00:49	2345434	3	1	1	1	1	1	2	1	3	5	3	2	0	0	0	3	4
082912	15:00:49	10037	Trial2BackFrS	NS	17	57	962	0	94	15:00:49	2346927	3	1	1	1	1	1	2	1	3	5	3	2	0	0	0	3	4
082912	15:00:49	10037	Trial2BackFrS	NS	17	57	959	0	94	15:00:49	2348433	3	1	1	1	1	1	2	1	3	5	3	2	0	0	0	3	4
082912	15:00:49	10037	Trial2BackFrS	YS	17	0	1000	0	94	15:00:49	2349952	3	1	1	1	1	1	2	1	3	5	3	2	0	0	0	3	4
082912	15:00:49	10037	Trial2BackFrS	NS	17	57	731	0	94	15:00:49	2351205	3	1	1	1	1	1	2	1	3	5	3	2	0	0	0	3	4
082912	15:00:49	10037	Trial2BackFrS	NS	17	0	1000	1	94	15:00:49	2352978	3	1	1	1	1	1	2	1	3	5	3	2	0	0	0	3	4
082912	15:00:49	10037	Trial2BackFrS	NS	17	57	634	0	94	15:00:49	2354137	3	1	1	1	1	1	2	1	3	5	3	2	0	0	0	3	4
082912	15:00:49	10037	Trial2BackFrS	NS	17	0	1000	1	94	15:00:49	2356003	3	1	1	1	1	1	2	1	3	5	3	2	0	0	0	3	4
082912	15:00:49	10037	Trial2BackFrS	NS	17	57	632	0	94	15:00:49	2357163	3	1	1	1	1	1	2	1	3	5	3	2	0	0	0	3	4
082912	15:00:49	10037	Trial2BackFrS	NS	17	0	1000	1	94	15:00:49	2359029	3	1	1	1	1	1	2	1	3	5	3	2	0	0	0	3	4
082912	15:00:49	10037	Trial2BackFrS	NS	17	57	455	0	94	15:00:49	2360015	3	1	1	1	1	1	2	1	3	5	3	2	0	0	0	3	4
082912	15:00:49	10037	Trial2BackFrS	YS	17	0	1000	0	94	15:00:49	2362054	3	1	1	1	1	1	2	1	3	5	3	2	0	0	0	3	4
082912	15:00:49	10037	Trial2BackFrS	NS	17	57	614	0	94	15:00:49	2363201	3	1	1	1	1	1	2	1	3	5	3	2	0	0	0	3	4
082912	15:00:49	10037	Trial2BackFrS	NS	17	0	1000	1	94	15:00:49	2365080	3	1	1	1	1	1	2	1	3	5	3	2	0	0	0	3	4
082912	15:00:49	10037	Trial2BackFrS	NS	17	57	548	0	94	15:00:49	2366159	3	1	1	1	1	1	2	1	3	5	3	2	0	0	0	3	4
082912	15:00:49	10037	Trial2BackFrS	NS	17	0	1000	1	94	15:00:49	2368105	3	1	1	1	1	1	2	1	3	5	3	2	0	0	0	3	4
082912	15:00:49	10037	Trial2BackFrS	YS	17	57	563	1	94	15:00:49	2369198	3	1	1	1	1	1	2	1	3	5	3	2	0	0	0	3	4
082912	15:00:49	10037	Trial2BackFrS	NS	17	0	1000	1	94	15:00:49	2371131	3	1	1	1	1	1	2	1	3	5	3	2	0	0	0	3	4
082912	15:00:49	10037	Trial2BackFrS	NS	17	57	545	0	94	15:00:49	2372197	3	1	1	1	1	1	2	1	3	5	3	2	0	0	0	3	4
082912	15:00:49	10037	Trial2BackFrS	NS	17	0	1000	1	94	15:00:49	2374156	3	1	1	1	1	1	2	1	3	5	3	2	0	0	0	3	4
082912	15:00:49	10037	Trial2BackFrS	NS	17	57	591	0	94	15:00:49	2375276	3	1	1	1	1	1	2	1	3	5	3	2	0	0	0	3	4
082912	15:00:49	10037	Trial2BackFrS	NS	17	0	1000	1	94	15:00:49	2377182	3	1	1	1	1	1	2	1	3	5	3	2	0	0	0	3	4
082912	15:00:49	10037	Trial2BackFrS	NS	17	57	574	0	94	15:00:49	2378288	3	1	1	1	1	1	2	1	3	5	3	2	0	0	0	3	4
082912	15:00:49	10037	Trial2BackFrS	YS	17	0	1000	0	94	15:00:49	2380207	3	1	1	1	1	1	2	1	3	5	3	2	0	0	0	3	4
082912	15:00:49	10037	Trial2BackFrS	NS	17	57	476	0	94	15:00:49	2381207	3	1	1	1	1	1	2	1	3	5	3	2	0	0	0	3	4
082912	15:00:49	10037	Trial2BackFrS	NS	17	0	1000	1	94	15:00:49	2383233	3	1	1	1	1	1	2	1	3	5	3	2	0	0	0	3	4
082912	15:00:49	10037	Trial2BackFrS	NS	17	57	491	0	94	15:00:49	2384246	3	1	1	1	1	1	2	1	3	5	3	2	0	0	0	3	4
082912	15:00:49	10037	Trial2BackFrS	NS	17	0	1000	1	94	15:00:49	2386258	3	1	1	1	1	1	2	1	3	5	3	2	0	0	0	3	4
082912	15:00:49	10037	Trial2BackFrS	NS	17	57	745	0	94	15:00:49	2387538	3	1	1	1	1	1	2	1	3	5	3	2	0	0	0	3	4
082912	15:00:49	10037	Trial2BackFrS	NS	17	0	1000	1	94	15:00:49	2389284	3	1	1	1	1	1	2	1	3	5	3	2	0	0	0	3	4
082912	15:00:49	10037	Trial2BackFrS	NS	17	57	600	0	94	15:00:49	2390416	3	1	1	1	1	1	2	1	3	5	3	2	0	0	0	3	4
082912	15:00:49	10037	Trial2BackFrS	YS	17	0	1000	0	94	15:00:49	2392309	3	1	1	1	1	1	2	1	3	5	3	2	0	0	0	3	4
082912	15:00:49	10037	Trial2BackFrS	NS	17	57	662	0	94	15:00:49	2393495	3	1	1	1	1	1	2	1	3	5	3	2	0	0	0	3	4
082912	15:00:49	10037	Trial2BackFrS	NS	17	0	1000	1	94	15:00:49	2395334	3	1	1	1	1	1	2	1	3	5	3	2	0	0	0	3	4
082912	15:00:49	10037	Trial2BackFrS	NS	17	57	165	0	94	15:00:49	2396028	3	1	1	1	1	1	2	1	3	5	3	2	0	0	0	3	4
082912	15:00:49	10037	Trial2BackFrS	NS	17	0	1000	1	94	15:00:49	2398360	3	1	1	1	1	1	2	1	3	5	3	2	0	0	0	3	4
082912	15:00:49	10037	Trial2BackFrS	YS	17	57	931	1	94	15:00:49	2399813	3	1	1	1	1	1	2	1	3	5	3	2	0	0	0	3	4
082912	15:00:49	10037	Trial2BackFrS	NS	17	57	865	0	94	15:00:49	2401266	3	1	1	1	1	1	2	1	3	5	3	2	0	0	0	3	4
082912	15:00:49	10037	Trial2BackFrS	NS	17	0	1000	1	94	15:00:49	2402878	3	1	1	1	1	1	2	1	3	5	3	2	0	0	0	3	4
082912	15:00:49	10037	Trial2BackFrS	YS	17	57	589	1	94	15:00:49	2403998	3	1	1	1	1	1	2	1	3	5	3	2	0	0	0	3	4
082912	15:00:49	10037	Trial2BackFrS	NS	17	0	1000	1	94	15:00:49	2405904	3	1	1	1	1	1	2	1	3	5	3	2	0	0	0	3	4
082912	15:00:49	10037	Trial2BackFrS	NS	17	57	555	0	94	15:00:49	2406983	3	1	1	1	1	1	2	1	3	5	3	2	0	0	0	3	4
082912	15:00:49	10037	Trial2BackFrS	NS	17	0	1000	1	94	15:00:49	2408929	3	1	1	1	1	1	2	1	3	5	3	2	0	0	0	3	4
082912	15:00:49	10037	Trial2BackFrS	NS	17	0	1000	1	94	15:00:49	2410449	3	1	1	1	1	1	2	1	3	5	3	2	0	0	0	3	4
082912	15:00:49	10037	Trial2BackFrS	NS	17	57	778	0	94	15:00:49	2411754	3	1	1	1	1	1	2	1	3	5	3	2	0	0	0	3	4
082912	15:00:49	10037	Trial2BackFrS	NS	17	0	1000	1	94	15:00:49	2413474	3	1	1	1	1	1	2	1	3	5	3	2	0	0	0	3	4
082912	15:00:49	10037	Trial2BackFrS	YS	17	57	505	1	94	15:00:49	2414500	3	1	1	1	1	1	2	1	3	5	3	2	0	0	0	3	4
082912	15:00:49	10037	Trial2BackFrS	NS	17	0	1000	1	94	15:00:49	2416499	3	1	1	1	1	1	2	1	3	5	3	2	0	0	0	3	4
082912	15:00:49	10037	Trial2BackFrS	NS	17	57	488	0	94	15:00:49	2417512	3	1	1	1	1	1	2	1	3	5	3	2	0	0	0	3	4
082912	15:00:49	10037	Trial2BackFrS	NS	17	0	1000	1	94	15:00:49	2419525	3	1	1	1	1	1	2	1	3	5	3	2	0	0	0	3	4
082912	15:00:49	10037	Trial2BackFrS	NS	17	57	406	0	94	15:00:49	2420458	3	1	1	1	1	1	2	1	3	5	3	2	0	0	0	3	4
082912	15:00:49	10037	Trial2BackFrS	YS	17	0	1000	0	94	15:00:49	2422550	3	1	1	1	1	1	2	1	3	5	3	2	0	0	0	3	4
082912	15:00:49	10037	Trial2BackFrS	NS	17	57	357	0	94	15:00:49	2423430	3	1	1	1	1	1	2	1	3	5	3	2	0	0	0	3	4
082912	15:00:49	10037	Trial2BackFrS	NS	17	0	1000	1	94	15:00:49	2425576	3	1	1	1	1	1	2	1	3	5	3	2	0	0	0	3	4
082912	15:00:49	10037	Trial2BackFrS	NS	17	57	339	0	94	15:00:49	2426442	3	1	1	1	1	1	2	1	3	5	3	2	0	0	0	3	4
082912	15:00:49	10037	Trial2BackFrS	NS	17	0	1000	1	94	15:00:49	2428601	3	1	1	1	1	1	2	1	3	5	3	2	0	0	0	3	4
082912	15:00:49	10037	Trial2BackFrS	YS	17	57	657	1	94	15:00:49	2429787	3	1	1	1	1	1	2	1	3	5	3	2	0	0	0	3	4
082912	15:00:49	10037	Trial2BackFrS	NS	17	0	1000	1	94	15:00:49	2431627	3	1	1	1	1	1	2	1	3	5	3	2	0	0	0	3	4
082912	15:00:49	10037	Trial2BackFrS	NS	17	57	224	0	94	15:00:49	2432373	3	1	1	1	1	1	2	1	3	5	3	2	0	0	0	3	4
082912	15:00:49	10037	Trial2BackFrS	YS	17	0	1000	0	94	15:00:49	2434652	3	1	1	1	1	1	2	1	3	5	3	2	0	0	0	3	4
082912	15:00:49	10037	Trial2BackFrS	NS	17	0	1000	1	94	15:00:49	2436172	3	1	1	1	1	1	2	1	3	5	3	2	0	0	0	3	4
082912	15:00:49	10037	Trial2BackFrS	NS	17	0	1000	1	94	15:00:49	2437691	3	1	1	1	1	1	2	1	3	5	3	2	0	0	0	3	4
082912	15:00:49	10037	Trial2BackFrS	NS	17	57	592	0	94	15:00:49	2438811	3	1	1	1	1	1	2	1	3	5	3	2	0	0	0	3	4
082912	15:00:49	10037	Trial2BackFrS	NS	17	0	1000	1	94	15:00:49	2440717	3	1	1	1	1	1	2	1	3	5	3	2	0	0	0	3	4
082912	15:00:49	10037	Trial2BackFrS	NS	17	57	526	0	94	15:00:49	2441770	3	1	1	1	1	1	2	1	3	5	3	2	0	0	0	3	4
082912	15:00:49	10037	Trial2BackFrS	NS	17	57	844	0	94	15:00:49	2443595	3	1	1	1	1	1	2	1	3	5	3	2	0	0	0	3	4
082912	15:00:49	10037	Trial2BackFrS	NS	17	0	1000	1	94	15:00:49	2445235	3	1	1	1	1	1	2	1	3	5	3	2	0	0	0	3	4
082912	15:00:49	10037	Trial2BackFrS	NS	17	0	1000	1	94	15:00:49	2446754	3	1	1	1	1	1	2	1	3	5	3	2	0	0	0	3	4
082912	15:00:49	10037	Trial2BackFrS	YS	17	0	1000	0	94	15:00:49	2448274	3	1	1	1	1	1	2	1	3	5	3	2	0	0	0	3	4
082912	15:00:49	10037	Trial2BackFrS	NS	17	0	1000	1	94	15:00:49	2449793	3	1	1	1	1	1	2	1	3	5	3	2	0	0	0	3	4
082912	15:00:49	10037	Trial2BackFrS	NS	17	0	1000	1	94	15:00:49	2451312	3	1	1	1	1	1	2	1	3	5	3	2	0	0	0	3	4
082912	15:00:49	10037	Trial2BackFrS	NS	17	0	1000	1	94	15:00:49	2452832	3	1	1	1	1	1	2	1	3	5	3	2	0	0	0	3	4
082912	15:00:49	10037	Trial2BackFrS	NS	17	0	1000	1	94	15:00:49	2454351	3	1	1	1	1	1	2	1	3	5	3	2	0	0	0	3	4
082912	15:00:49	10037	Trial2BackFrS	NS	17	0	1000	1	94	15:00:49	2455870	3	1	1	1	1	1	2	1	3	5	3	2	0	0	0	3	4
082912	15:00:49	10037	Trial2BackFrS	NS	17	0	1000	1	94	15:00:49	2457390	3	1	1	1	1	1	2	1	3	5	3	2	0	0	0	3	4
082912	15:00:49	10037	Trial2BackFrS	NS	17	0	1000	1	94	15:00:49	2458910	3	1	1	1	1	1	2	1	3	5	3	2	0	0	0	3	4
082912	15:00:49	10037	Trial2BackFrS	YS	17	0	1000	0	94	15:00:49	2460429	3	1	1	1	1	1	2	1	3	5	3	2	0	0	0	3	4
082912	15:00:49	10037	Trial2BackFrS	NS	17	0	1000	1	94	15:00:49	2461948	3	1	1	1	1	1	2	1	3	5	3	2	0	0	0	3	4
082912	15:00:49	10037	Trial2BackFrS	NS	17	0	1000	1	94	15:00:49	2463468	3	1	1	1	1	1	2	1	3	5	3	2	0	0	0	3	4
082912	15:00:49	10037	Trial2BackFrS	NS	17	0	1000	1	94	15:00:49	2464987	3	1	1	1	1	1	2	1	3	5	3	2	0	0	0	3	4
082912	15:00:49	10037	Trial2BackFrS	NS	17	0	1000	1	94	15:00:49	2466506	3	1	1	1	1	1	2	1	3	5	3	2	0	0	0	3	4
082912	15:00:49	10037	Trial2BackFrS	NS	17	0	1000	1	94	15:00:49	2468026	3	1	1	1	1	1	2	1	3	5	3	2	0	0	0	3	4
082912	15:00:49	10037	Trial2BackFrS	NS	17	0	1000	1	94	15:00:49	2469545	3	1	1	1	1	1	2	1	3	5	3	2	0	0	0	3	4
082912	15:00:49	10037	Trial2BackFrS	NS	17	0	1000	1	94	15:00:49	2471065	3	1	1	1	1	1	2	1	3	5	3	2	0	0	0	3	4
082912	15:00:49	10037	Trial2BackFrS	NS	17	0	1000	1	94	15:00:49	2472584	3	1	1	1	1	1	2	1	3	5	3	2	0	0	0	3	4
082912	15:00:49	10037	Trial2BackFrS	NS	17	0	1000	1	94	15:00:49	2474103	3	1	1	1	1	1	2	1	3	5	3	2	0	0	0	3	4
082912	15:00:49	10037	Trial2BackFrS	YS	17	0	1000	0	94	15:00:49	2475623	3	1	1	1	1	1	2	1	3	5	3	2	0	0	0	3	4
082912	15:00:49	10037	Trial2BackFrS	NS	17	0	1000	1	94	15:00:49	2477142	3	1	1	1	1	1	2	1	3	5	3	2	0	0	0	3	4
082912	15:00:49	10037	ClockFrBaseline	ClockFrBaseline	19	Clock1	81046	0	94	15:00:49	2558297	3	1	1	1	1	1	2	1	3	5	3	2	1	0	0	3	4
082912	15:00:49	10037	ClockFrBaseline	ClockFrBaseline	19	Clock11	703	0	94	15:00:49	2559043	3	1	1	1	1	1	2	1	3	5	3	2	1	1	0	3	4
082912	15:00:49	10037	ClockFrBaseline	ClockFrBaseline	19	Clock111	693	0	94	15:00:49	2559776	3	1	1	1	1	1	2	1	3	5	3	2	1	1	1	3	4
082912	15:00:49	10037	ClockFrBaseline	ClockFrBaseline	19	Clockdone	712	0	94	15:00:49	2560523	3	1	1	1	1	1	2	1	3	5	3	2	1	1	1	3	4
082912	15:00:49	10037	FASFrVFBaseline	StopFrVFBaseline	20	12	79730	0	94	15:00:49	2771195	3	1	1	1	1	1	2	1	3	5	3	2	1	1	1	3	4
