date	time	subject	blockcode	trialcode	values.TaskNumber	response	latency	correct	values.Score	script.starttime	script.elapsedtime	values.ScoreS7	values.Word1	values.Word2	values.Word3	values.Word4	values.Word5	values.Word6	values.Word7	values.Word8	values.DigitSpanFwrd	values.DigitSpanBack	values.ScoreAbs	values.Contour	values.Numbers	values.Hands	values.corsiblockspanFwrd	values.corsiblockspanRev
091412	17:33:02	10010	Language	Language	0	English	1670	0	0	17:33:02	2041	0	0	0	0	0	0	0	0	0	0	0	0	0	0	0	0	0
091412	17:33:02	10010	Session	Session	0	3mo	635	0	0	17:33:02	2750	0	0	0	0	0	0	0	0	0	0	0	0	0	0	0	0	0
091412	17:33:02	10010	HandEng	HandEng	0	Right	573266	0	0	17:33:02	576092	0	0	0	0	0	0	0	0	0	0	0	0	0	0	0	0	0
091412	17:33:02	10010	CubeEng	CubeEng	1	1Cube	50059	0	0	17:33:02	649408	0	0	0	0	0	0	0	0	0	0	0	0	0	0	0	0	0
091412	17:33:02	10010	pm.simpleEngRight	blank.simpleEng	2	0	1987	1	0	17:33:02	678197	0	0	0	0	0	0	0	0	0	0	0	0	0	0	0	0	0
091412	17:33:02	10010	pm.simpleEngRight	pm.simpleEng	2	57	442	0	0	17:33:02	678677	0	0	0	0	0	0	0	0	0	0	0	0	0	0	0	0	0
091412	17:33:02	10010	pm.simpleEngRight	blank.simpleEng	2	0	2387	1	0	17:33:02	681089	0	0	0	0	0	0	0	0	0	0	0	0	0	0	0	0	0
091412	17:33:02	10010	pm.simpleEngRight	pm.simpleEng	2	57	253	0	0	17:33:02	681382	0	0	0	0	0	0	0	0	0	0	0	0	0	0	0	0	0
091412	17:33:02	10010	pm.simpleEngRight	blank.simpleEng	2	0	2187	1	0	17:33:02	683594	0	0	0	0	0	0	0	0	0	0	0	0	0	0	0	0	0
091412	17:33:02	10010	pm.simpleEngRight	pm.simpleEng	2	57	244	0	0	17:33:02	683874	0	0	0	0	0	0	0	0	0	0	0	0	0	0	0	0	0
091412	17:33:02	10010	pm.simpleEngRight	blank.simpleEng	2	0	2087	1	0	17:33:02	685980	0	0	0	0	0	0	0	0	0	0	0	0	0	0	0	0	0
091412	17:33:02	10010	pm.simpleEngRight	pm.simpleEng	2	57	243	0	0	17:33:02	686260	0	0	0	0	0	0	0	0	0	0	0	0	0	0	0	0	0
091412	17:33:02	10010	pm.simpleEngRight	blank.simpleEng	2	0	2287	1	0	17:33:02	688579	0	0	0	0	0	0	0	0	0	0	0	0	0	0	0	0	0
091412	17:33:02	10010	pm.simpleEngRight	pm.simpleEng	2	57	331	0	0	17:33:02	688952	0	0	0	0	0	0	0	0	0	0	0	0	0	0	0	0	0
091412	17:33:02	10010	pm.simpleEngRight	blank.simpleEng	2	0	1687	1	0	17:33:02	690658	0	0	0	0	0	0	0	0	0	0	0	0	0	0	0	0	0
091412	17:33:02	10010	pm.simpleEngRight	pm.simpleEng	2	57	268	0	0	17:33:02	690965	0	0	0	0	0	0	0	0	0	0	0	0	0	0	0	0	0
091412	17:33:02	10010	pm.simpleEngRight	blank.simpleEng	2	0	2487	1	0	17:33:02	693484	0	0	0	0	0	0	0	0	0	0	0	0	0	0	0	0	0
091412	17:33:02	10010	pm.simpleEngRight	pm.simpleEng	2	57	258	0	0	17:33:02	693777	0	0	0	0	0	0	0	0	0	0	0	0	0	0	0	0	0
091412	17:33:02	10010	pm.simpleEngRight	blank.simpleEng	2	0	1487	1	0	17:33:02	695283	0	0	0	0	0	0	0	0	0	0	0	0	0	0	0	0	0
091412	17:33:02	10010	pm.simpleEngRight	pm.simpleEng	2	57	315	0	0	17:33:02	695630	0	0	0	0	0	0	0	0	0	0	0	0	0	0	0	0	0
091412	17:33:02	10010	pm.simpleEngRight	blank.simpleEng	2	0	1787	1	0	17:33:02	697442	0	0	0	0	0	0	0	0	0	0	0	0	0	0	0	0	0
091412	17:33:02	10010	pm.simpleEngRight	pm.simpleEng	2	57	236	0	0	17:33:02	697709	0	0	0	0	0	0	0	0	0	0	0	0	0	0	0	0	0
091412	17:33:02	10010	pm.simpleEngRight	blank.simpleEng	2	0	1587	1	0	17:33:02	699321	0	0	0	0	0	0	0	0	0	0	0	0	0	0	0	0	0
091412	17:33:02	10010	pm.simpleEngRight	pm.simpleEng	2	57	308	0	0	17:33:02	699668	0	0	0	0	0	0	0	0	0	0	0	0	0	0	0	0	0
091412	17:33:02	10010	pm.simpleEngRight	blank.simpleEng	2	0	1887	1	0	17:33:02	701574	0	0	0	0	0	0	0	0	0	0	0	0	0	0	0	0	0
091412	17:33:02	10010	pm.simpleEngRight	pm.simpleEng	2	57	248	0	0	17:33:02	701854	0	0	0	0	0	0	0	0	0	0	0	0	0	0	0	0	0
091412	17:33:02	10010	pm.simpleEngRight	blank.simpleEng	2	0	2087	1	0	17:33:02	704000	0	0	0	0	0	0	0	0	0	0	0	0	0	0	0	0	0
091412	17:33:02	10010	pm.simpleEngRight	pm.simpleEng	2	57	254	0	0	17:33:02	704293	0	0	0	0	0	0	0	0	0	0	0	0	0	0	0	0	0
091412	17:33:02	10010	pm.simpleEngRight	blank.simpleEng	2	0	2487	1	0	17:33:02	706812	0	0	0	0	0	0	0	0	0	0	0	0	0	0	0	0	0
091412	17:33:02	10010	pm.simpleEngRight	pm.simpleEng	2	57	258	0	0	17:33:02	707105	0	0	0	0	0	0	0	0	0	0	0	0	0	0	0	0	0
091412	17:33:02	10010	pm.simpleEngRight	blank.simpleEng	2	0	1587	1	0	17:33:02	708718	0	0	0	0	0	0	0	0	0	0	0	0	0	0	0	0	0
091412	17:33:02	10010	pm.simpleEngRight	pm.simpleEng	2	57	272	0	0	17:33:02	709024	0	0	0	0	0	0	0	0	0	0	0	0	0	0	0	0	0
091412	17:33:02	10010	pm.simpleEngRight	blank.simpleEng	2	0	2187	1	0	17:33:02	711237	0	0	0	0	0	0	0	0	0	0	0	0	0	0	0	0	0
091412	17:33:02	10010	pm.simpleEngRight	pm.simpleEng	2	57	265	0	0	17:33:02	711543	0	0	0	0	0	0	0	0	0	0	0	0	0	0	0	0	0
091412	17:33:02	10010	pm.simpleEngRight	blank.simpleEng	2	0	1987	1	0	17:33:02	713556	0	0	0	0	0	0	0	0	0	0	0	0	0	0	0	0	0
091412	17:33:02	10010	pm.simpleEngRight	pm.simpleEng	2	57	266	0	0	17:33:02	713862	0	0	0	0	0	0	0	0	0	0	0	0	0	0	0	0	0
091412	17:33:02	10010	pm.simpleEngRight	blank.simpleEng	2	0	1487	1	0	17:33:02	715368	0	0	0	0	0	0	0	0	0	0	0	0	0	0	0	0	0
091412	17:33:02	10010	pm.simpleEngRight	pm.simpleEng	2	57	277	0	0	17:33:02	715688	0	0	0	0	0	0	0	0	0	0	0	0	0	0	0	0	0
091412	17:33:02	10010	pm.simpleEngRight	blank.simpleEng	2	0	2387	1	0	17:33:02	718101	0	0	0	0	0	0	0	0	0	0	0	0	0	0	0	0	0
091412	17:33:02	10010	pm.simpleEngRight	pm.simpleEng	2	57	249	0	0	17:33:02	718380	0	0	0	0	0	0	0	0	0	0	0	0	0	0	0	0	0
091412	17:33:02	10010	pm.simpleEngRight	blank.simpleEng	2	0	1787	1	0	17:33:02	720193	0	0	0	0	0	0	0	0	0	0	0	0	0	0	0	0	0
091412	17:33:02	10010	pm.simpleEngRight	pm.simpleEng	2	57	253	0	0	17:33:02	720486	0	0	0	0	0	0	0	0	0	0	0	0	0	0	0	0	0
091412	17:33:02	10010	pm.simpleEngRight	blank.simpleEng	2	0	1687	1	0	17:33:02	722192	0	0	0	0	0	0	0	0	0	0	0	0	0	0	0	0	0
091412	17:33:02	10010	pm.simpleEngRight	pm.simpleEng	2	57	221	0	0	17:33:02	722445	0	0	0	0	0	0	0	0	0	0	0	0	0	0	0	0	0
091412	17:33:02	10010	pm.simpleEngRight	blank.simpleEng	2	0	1887	1	0	17:33:02	724365	0	0	0	0	0	0	0	0	0	0	0	0	0	0	0	0	0
091412	17:33:02	10010	pm.simpleEngRight	pm.simpleEng	2	57	241	0	0	17:33:02	724644	0	0	0	0	0	0	0	0	0	0	0	0	0	0	0	0	0
091412	17:33:02	10010	pm.simpleEngRight	blank.simpleEng	2	0	2287	1	0	17:33:02	726964	0	0	0	0	0	0	0	0	0	0	0	0	0	0	0	0	0
091412	17:33:02	10010	pm.simpleEngRight	pm.simpleEng	2	57	234	0	0	17:33:02	727230	0	0	0	0	0	0	0	0	0	0	0	0	0	0	0	0	0
091412	17:33:02	10010	pm.simpleEngRight	blank.simpleEng	2	0	1887	1	0	17:33:02	729136	0	0	0	0	0	0	0	0	0	0	0	0	0	0	0	0	0
091412	17:33:02	10010	pm.simpleEngRight	pm.simpleEng	2	57	269	0	0	17:33:02	729443	0	0	0	0	0	0	0	0	0	0	0	0	0	0	0	0	0
091412	17:33:02	10010	pm.simpleEngRight	blank.simpleEng	2	0	2387	1	0	17:33:02	731855	0	0	0	0	0	0	0	0	0	0	0	0	0	0	0	0	0
091412	17:33:02	10010	pm.simpleEngRight	pm.simpleEng	2	57	238	0	0	17:33:02	732135	0	0	0	0	0	0	0	0	0	0	0	0	0	0	0	0	0
091412	17:33:02	10010	pm.simpleEngRight	blank.simpleEng	2	0	2487	1	0	17:33:02	734654	0	0	0	0	0	0	0	0	0	0	0	0	0	0	0	0	0
091412	17:33:02	10010	pm.simpleEngRight	pm.simpleEng	2	57	239	0	0	17:33:02	734934	0	0	0	0	0	0	0	0	0	0	0	0	0	0	0	0	0
091412	17:33:02	10010	pm.simpleEngRight	blank.simpleEng	2	0	2287	1	0	17:33:02	737239	0	0	0	0	0	0	0	0	0	0	0	0	0	0	0	0	0
091412	17:33:02	10010	pm.simpleEngRight	pm.simpleEng	2	57	230	0	0	17:33:02	737506	0	0	0	0	0	0	0	0	0	0	0	0	0	0	0	0	0
091412	17:33:02	10010	pm.simpleEngRight	blank.simpleEng	2	0	2187	1	0	17:33:02	739718	0	0	0	0	0	0	0	0	0	0	0	0	0	0	0	0	0
091412	17:33:02	10010	pm.simpleEngRight	pm.simpleEng	2	57	214	0	0	17:33:02	739971	0	0	0	0	0	0	0	0	0	0	0	0	0	0	0	0	0
091412	17:33:02	10010	pm.simpleEngRight	blank.simpleEng	2	0	1587	1	0	17:33:02	741584	0	0	0	0	0	0	0	0	0	0	0	0	0	0	0	0	0
091412	17:33:02	10010	pm.simpleEngRight	pm.simpleEng	2	57	269	0	0	17:33:02	741891	0	0	0	0	0	0	0	0	0	0	0	0	0	0	0	0	0
091412	17:33:02	10010	pm.simpleEngRight	blank.simpleEng	2	0	1487	1	0	17:33:02	743397	0	0	0	0	0	0	0	0	0	0	0	0	0	0	0	0	0
091412	17:33:02	10010	pm.simpleEngRight	pm.simpleEng	2	57	232	0	0	17:33:02	743664	0	0	0	0	0	0	0	0	0	0	0	0	0	0	0	0	0
091412	17:33:02	10010	pm.simpleEngRight	blank.simpleEng	2	0	1987	1	0	17:33:02	745676	0	0	0	0	0	0	0	0	0	0	0	0	0	0	0	0	0
091412	17:33:02	10010	pm.simpleEngRight	pm.simpleEng	2	57	241	0	0	17:33:02	745956	0	0	0	0	0	0	0	0	0	0	0	0	0	0	0	0	0
091412	17:33:02	10010	pm.simpleEngRight	blank.simpleEng	2	0	2087	1	0	17:33:02	748062	0	0	0	0	0	0	0	0	0	0	0	0	0	0	0	0	0
091412	17:33:02	10010	pm.simpleEngRight	pm.simpleEng	2	57	255	0	0	17:33:02	748355	0	0	0	0	0	0	0	0	0	0	0	0	0	0	0	0	0
091412	17:33:02	10010	pm.simpleEngRight	blank.simpleEng	2	0	1787	1	0	17:33:02	750167	0	0	0	0	0	0	0	0	0	0	0	0	0	0	0	0	0
091412	17:33:02	10010	pm.simpleEngRight	pm.simpleEng	2	57	245	0	0	17:33:02	750448	0	0	0	0	0	0	0	0	0	0	0	0	0	0	0	0	0
091412	17:33:02	10010	pm.simpleEngRight	blank.simpleEng	2	0	1687	1	0	17:33:02	752153	0	0	0	0	0	0	0	0	0	0	0	0	0	0	0	0	0
091412	17:33:02	10010	pm.simpleEngRight	pm.simpleEng	2	57	307	0	0	17:33:02	752500	0	0	0	0	0	0	0	0	0	0	0	0	0	0	0	0	0
091412	17:33:02	10010	pm.simpleEngRight	blank.simpleEng	2	0	1587	1	0	17:33:02	754113	0	0	0	0	0	0	0	0	0	0	0	0	0	0	0	0	0
091412	17:33:02	10010	pm.simpleEngRight	pm.simpleEng	2	57	268	0	0	17:33:02	754419	0	0	0	0	0	0	0	0	0	0	0	0	0	0	0	0	0
091412	17:33:02	10010	pm.simpleEngRight	blank.simpleEng	2	0	1987	1	0	17:33:02	756432	0	0	0	0	0	0	0	0	0	0	0	0	0	0	0	0	0
091412	17:33:02	10010	pm.simpleEngRight	pm.simpleEng	2	57	252	0	0	17:33:02	756725	0	0	0	0	0	0	0	0	0	0	0	0	0	0	0	0	0
091412	17:33:02	10010	pm.simpleEngRight	blank.simpleEng	2	0	2187	1	0	17:33:02	758937	0	0	0	0	0	0	0	0	0	0	0	0	0	0	0	0	0
091412	17:33:02	10010	pm.simpleEngRight	pm.simpleEng	2	57	227	0	0	17:33:02	759204	0	0	0	0	0	0	0	0	0	0	0	0	0	0	0	0	0
091412	17:33:02	10010	pm.simpleEngRight	blank.simpleEng	2	0	1787	1	0	17:33:02	761017	0	0	0	0	0	0	0	0	0	0	0	0	0	0	0	0	0
091412	17:33:02	10010	pm.simpleEngRight	pm.simpleEng	2	57	373	0	0	17:33:02	761430	0	0	0	0	0	0	0	0	0	0	0	0	0	0	0	0	0
091412	17:33:02	10010	pm.simpleEngRight	blank.simpleEng	2	0	2487	1	0	17:33:02	763949	0	0	0	0	0	0	0	0	0	0	0	0	0	0	0	0	0
091412	17:33:02	10010	pm.simpleEngRight	pm.simpleEng	2	57	240	0	0	17:33:02	764229	0	0	0	0	0	0	0	0	0	0	0	0	0	0	0	0	0
091412	17:33:02	10010	pm.simpleEngRight	blank.simpleEng	2	0	2287	1	0	17:33:02	766534	0	0	0	0	0	0	0	0	0	0	0	0	0	0	0	0	0
091412	17:33:02	10010	pm.simpleEngRight	pm.simpleEng	2	57	278	0	0	17:33:02	766854	0	0	0	0	0	0	0	0	0	0	0	0	0	0	0	0	0
091412	17:33:02	10010	pm.simpleEngRight	blank.simpleEng	2	0	1887	1	0	17:33:02	768760	0	0	0	0	0	0	0	0	0	0	0	0	0	0	0	0	0
091412	17:33:02	10010	pm.simpleEngRight	pm.simpleEng	2	57	260	0	0	17:33:02	769053	0	0	0	0	0	0	0	0	0	0	0	0	0	0	0	0	0
091412	17:33:02	10010	Trial2BackEng	N	3	0	1000	1	1	17:33:02	877010	0	0	0	0	0	0	0	0	0	0	0	0	0	0	0	0	0
091412	17:33:02	10010	Trial2BackEng	N	3	0	1000	1	2	17:33:02	878529	0	0	0	0	0	0	0	0	0	0	0	0	0	0	0	0	0
091412	17:33:02	10010	Trial2BackEng	N	3	0	1000	1	3	17:33:02	880048	0	0	0	0	0	0	0	0	0	0	0	0	0	0	0	0	0
091412	17:33:02	10010	Trial2BackEng	N	3	0	1000	1	4	17:33:02	881568	0	0	0	0	0	0	0	0	0	0	0	0	0	0	0	0	0
091412	17:33:02	10010	Trial2BackEng	N	3	0	1000	1	5	17:33:02	883087	0	0	0	0	0	0	0	0	0	0	0	0	0	0	0	0	0
091412	17:33:02	10010	Trial2BackEng	N	3	0	1000	1	6	17:33:02	884607	0	0	0	0	0	0	0	0	0	0	0	0	0	0	0	0	0
091412	17:33:02	10010	Trial2BackEng	N	3	0	1000	1	7	17:33:02	886126	0	0	0	0	0	0	0	0	0	0	0	0	0	0	0	0	0
091412	17:33:02	10010	Trial2BackEng	N	3	0	1000	1	8	17:33:02	887645	0	0	0	0	0	0	0	0	0	0	0	0	0	0	0	0	0
091412	17:33:02	10010	Trial2BackEng	Y	3	57	497	1	9	17:33:02	888671	0	0	0	0	0	0	0	0	0	0	0	0	0	0	0	0	0
091412	17:33:02	10010	Trial2BackEng	N	3	0	1000	1	10	17:33:02	890671	0	0	0	0	0	0	0	0	0	0	0	0	0	0	0	0	0
091412	17:33:02	10010	Trial2BackEng	N	3	0	1000	1	11	17:33:02	892190	0	0	0	0	0	0	0	0	0	0	0	0	0	0	0	0	0
091412	17:33:02	10010	Trial2BackEng	N	3	0	1000	1	12	17:33:02	893710	0	0	0	0	0	0	0	0	0	0	0	0	0	0	0	0	0
091412	17:33:02	10010	Trial2BackEng	Y	3	57	625	1	13	17:33:02	894869	0	0	0	0	0	0	0	0	0	0	0	0	0	0	0	0	0
091412	17:33:02	10010	Trial2BackEng	N	3	0	1000	1	14	17:33:02	896735	0	0	0	0	0	0	0	0	0	0	0	0	0	0	0	0	0
091412	17:33:02	10010	Trial2BackEng	N	3	0	1000	1	15	17:33:02	898254	0	0	0	0	0	0	0	0	0	0	0	0	0	0	0	0	0
091412	17:33:02	10010	Trial2BackEng	N	3	0	1000	1	16	17:33:02	899774	0	0	0	0	0	0	0	0	0	0	0	0	0	0	0	0	0
091412	17:33:02	10010	Trial2BackEng	N	3	0	1000	1	17	17:33:02	901293	0	0	0	0	0	0	0	0	0	0	0	0	0	0	0	0	0
091412	17:33:02	10010	Trial2BackEng	N	3	0	1000	1	18	17:33:02	902813	0	0	0	0	0	0	0	0	0	0	0	0	0	0	0	0	0
091412	17:33:02	10010	Trial2BackEng	Y	3	57	514	1	19	17:33:02	903852	0	0	0	0	0	0	0	0	0	0	0	0	0	0	0	0	0
091412	17:33:02	10010	Trial2BackEng	N	3	0	1000	1	20	17:33:02	905838	0	0	0	0	0	0	0	0	0	0	0	0	0	0	0	0	0
091412	17:33:02	10010	Trial2BackEng	N	3	0	1000	1	21	17:33:02	907357	0	0	0	0	0	0	0	0	0	0	0	0	0	0	0	0	0
091412	17:33:02	10010	Trial2BackEng	N	3	0	1000	1	22	17:33:02	908877	0	0	0	0	0	0	0	0	0	0	0	0	0	0	0	0	0
091412	17:33:02	10010	Trial2BackEng	N	3	0	1000	1	23	17:33:02	910396	0	0	0	0	0	0	0	0	0	0	0	0	0	0	0	0	0
091412	17:33:02	10010	Trial2BackEng	Y	3	57	545	1	24	17:33:02	911476	0	0	0	0	0	0	0	0	0	0	0	0	0	0	0	0	0
091412	17:33:02	10010	Trial2BackEng	N	3	0	1000	1	25	17:33:02	913422	0	0	0	0	0	0	0	0	0	0	0	0	0	0	0	0	0
091412	17:33:02	10010	Trial2BackEng	N	3	0	1000	1	26	17:33:02	914941	0	0	0	0	0	0	0	0	0	0	0	0	0	0	0	0	0
091412	17:33:02	10010	Trial2BackEng	N	3	0	1000	1	27	17:33:02	916460	0	0	0	0	0	0	0	0	0	0	0	0	0	0	0	0	0
091412	17:33:02	10010	Trial2BackEng	N	3	0	1000	1	28	17:33:02	917980	0	0	0	0	0	0	0	0	0	0	0	0	0	0	0	0	0
091412	17:33:02	10010	Trial2BackEng	N	3	0	1000	1	29	17:33:02	919499	0	0	0	0	0	0	0	0	0	0	0	0	0	0	0	0	0
091412	17:33:02	10010	Trial2BackEng	N	3	0	1000	1	30	17:33:02	921018	0	0	0	0	0	0	0	0	0	0	0	0	0	0	0	0	0
091412	17:33:02	10010	Trial2BackEng	Y	3	57	515	1	31	17:33:02	922058	0	0	0	0	0	0	0	0	0	0	0	0	0	0	0	0	0
091412	17:33:02	10010	Trial2BackEng	N	3	0	1000	1	32	17:33:02	924044	0	0	0	0	0	0	0	0	0	0	0	0	0	0	0	0	0
091412	17:33:02	10010	Trial2BackEng	N	3	0	1000	1	33	17:33:02	925563	0	0	0	0	0	0	0	0	0	0	0	0	0	0	0	0	0
091412	17:33:02	10010	Trial2BackEng	N	3	0	1000	1	34	17:33:02	927083	0	0	0	0	0	0	0	0	0	0	0	0	0	0	0	0	0
091412	17:33:02	10010	Trial2BackEng	Y	3	0	1000	0	34	17:33:02	928602	0	0	0	0	0	0	0	0	0	0	0	0	0	0	0	0	0
091412	17:33:02	10010	Trial2BackEng	N	3	0	1000	1	35	17:33:02	930121	0	0	0	0	0	0	0	0	0	0	0	0	0	0	0	0	0
091412	17:33:02	10010	Trial2BackEng	N	3	0	1000	1	36	17:33:02	931641	0	0	0	0	0	0	0	0	0	0	0	0	0	0	0	0	0
091412	17:33:02	10010	Trial2BackEng	N	3	0	1000	1	37	17:33:02	933160	0	0	0	0	0	0	0	0	0	0	0	0	0	0	0	0	0
091412	17:33:02	10010	Trial2BackEng	N	3	0	1000	1	38	17:33:02	934679	0	0	0	0	0	0	0	0	0	0	0	0	0	0	0	0	0
091412	17:33:02	10010	Trial2BackEng	N	3	0	1000	1	39	17:33:02	936199	0	0	0	0	0	0	0	0	0	0	0	0	0	0	0	0	0
091412	17:33:02	10010	Trial2BackEng	N	3	0	1000	1	40	17:33:02	937718	0	0	0	0	0	0	0	0	0	0	0	0	0	0	0	0	0
091412	17:33:02	10010	Trial2BackEng	Y	3	57	470	1	41	17:33:02	938718	0	0	0	0	0	0	0	0	0	0	0	0	0	0	0	0	0
091412	17:33:02	10010	Trial2BackEng	N	3	0	1000	1	42	17:33:02	940744	0	0	0	0	0	0	0	0	0	0	0	0	0	0	0	0	0
091412	17:33:02	10010	Trial2BackEng	N	3	0	1000	1	43	17:33:02	942263	0	0	0	0	0	0	0	0	0	0	0	0	0	0	0	0	0
091412	17:33:02	10010	Trial2BackEng	N	3	0	1000	1	44	17:33:02	943783	0	0	0	0	0	0	0	0	0	0	0	0	0	0	0	0	0
091412	17:33:02	10010	Trial2BackEng	N	3	0	1000	1	45	17:33:02	945302	0	0	0	0	0	0	0	0	0	0	0	0	0	0	0	0	0
091412	17:33:02	10010	Trial2BackEng	Y	3	57	743	1	46	17:33:02	946568	0	0	0	0	0	0	0	0	0	0	0	0	0	0	0	0	0
091412	17:33:02	10010	Trial2BackEng	N	3	0	1000	1	47	17:33:02	948327	0	0	0	0	0	0	0	0	0	0	0	0	0	0	0	0	0
091412	17:33:02	10010	Trial2BackEng	N	3	0	1000	1	48	17:33:02	949847	0	0	0	0	0	0	0	0	0	0	0	0	0	0	0	0	0
091412	17:33:02	10010	Trial2BackEng	N	3	0	1000	1	49	17:33:02	951366	0	0	0	0	0	0	0	0	0	0	0	0	0	0	0	0	0
091412	17:33:02	10010	Trial2BackEng	N	3	0	1000	1	50	17:33:02	952886	0	0	0	0	0	0	0	0	0	0	0	0	0	0	0	0	0
091412	17:33:02	10010	Trial2BackEng	N	3	0	1000	1	51	17:33:02	954405	0	0	0	0	0	0	0	0	0	0	0	0	0	0	0	0	0
091412	17:33:02	10010	Trial2BackEng	Y	3	57	344	1	52	17:33:02	955271	0	0	0	0	0	0	0	0	0	0	0	0	0	0	0	0	0
091412	17:33:02	10010	Trial2BackEng	N	3	0	1000	1	53	17:33:02	957430	0	0	0	0	0	0	0	0	0	0	0	0	0	0	0	0	0
091412	17:33:02	10010	Trial2BackEng	N	3	0	1000	1	54	17:33:02	958950	0	0	0	0	0	0	0	0	0	0	0	0	0	0	0	0	0
091412	17:33:02	10010	Trial2BackEng	N	3	0	1000	1	55	17:33:02	960469	0	0	0	0	0	0	0	0	0	0	0	0	0	0	0	0	0
091412	17:33:02	10010	Trial2BackEng	N	3	0	1000	1	56	17:33:02	961989	0	0	0	0	0	0	0	0	0	0	0	0	0	0	0	0	0
091412	17:33:02	10010	Trial2BackEng	N	3	0	1000	1	57	17:33:02	963508	0	0	0	0	0	0	0	0	0	0	0	0	0	0	0	0	0
091412	17:33:02	10010	Trial2BackEng	N	3	0	1000	1	58	17:33:02	965027	0	0	0	0	0	0	0	0	0	0	0	0	0	0	0	0	0
091412	17:33:02	10010	Trial2BackEng	Y	3	57	697	1	59	17:33:02	966253	0	0	0	0	0	0	0	0	0	0	0	0	0	0	0	0	0
091412	17:33:02	10010	Trial2BackEng	N	3	0	1000	1	60	17:33:02	968053	0	0	0	0	0	0	0	0	0	0	0	0	0	0	0	0	0
091412	17:33:02	10010	Trial2BackEng	N	3	0	1000	1	61	17:33:02	969572	0	0	0	0	0	0	0	0	0	0	0	0	0	0	0	0	0
091412	17:33:02	10010	Trial2BackEng	Y	3	0	1000	0	61	17:33:02	971092	0	0	0	0	0	0	0	0	0	0	0	0	0	0	0	0	0
091412	17:33:02	10010	Trial2BackEng	N	3	0	1000	1	62	17:33:02	972611	0	0	0	0	0	0	0	0	0	0	0	0	0	0	0	0	0
091412	17:33:02	10010	Trial2BackEng	N	3	0	1000	1	63	17:33:02	974130	0	0	0	0	0	0	0	0	0	0	0	0	0	0	0	0	0
091412	17:33:02	10010	Trial2BackEng	N	3	0	1000	1	64	17:33:02	975650	0	0	0	0	0	0	0	0	0	0	0	0	0	0	0	0	0
091412	17:33:02	10010	Trial2BackEng	N	3	0	1000	1	65	17:33:02	977169	0	0	0	0	0	0	0	0	0	0	0	0	0	0	0	0	0
091412	17:33:02	10010	Trial2BackEng	N	3	57	587	0	65	17:33:02	978289	0	0	0	0	0	0	0	0	0	0	0	0	0	0	0	0	0
091412	17:33:02	10010	Trial2BackEng	N	3	0	1000	1	66	17:33:02	980195	0	0	0	0	0	0	0	0	0	0	0	0	0	0	0	0	0
091412	17:33:02	10010	Trial2BackEng	N	3	0	1000	1	67	17:33:02	981714	0	0	0	0	0	0	0	0	0	0	0	0	0	0	0	0	0
091412	17:33:02	10010	Trial2BackEng	N	3	0	1000	1	68	17:33:02	983233	0	0	0	0	0	0	0	0	0	0	0	0	0	0	0	0	0
091412	17:33:02	10010	Trial2BackEng	N	3	0	1000	1	69	17:33:02	984753	0	0	0	0	0	0	0	0	0	0	0	0	0	0	0	0	0
091412	17:33:02	10010	Trial2BackEng	N	3	0	1000	1	70	17:33:02	986272	0	0	0	0	0	0	0	0	0	0	0	0	0	0	0	0	0
091412	17:33:02	10010	Trial2BackEng	Y	3	57	684	1	71	17:33:02	987485	0	0	0	0	0	0	0	0	0	0	0	0	0	0	0	0	0
091412	17:33:02	10010	Trial2BackEng	N	3	0	1000	1	72	17:33:02	989298	0	0	0	0	0	0	0	0	0	0	0	0	0	0	0	0	0
091412	17:33:02	10010	Trial2BackEng	N	3	0	1000	1	73	17:33:02	990817	0	0	0	0	0	0	0	0	0	0	0	0	0	0	0	0	0
091412	17:33:02	10010	Trial2BackEng	N	3	0	1000	1	74	17:33:02	992336	0	0	0	0	0	0	0	0	0	0	0	0	0	0	0	0	0
091412	17:33:02	10010	Trial2BackEng	Y	3	0	1000	0	74	17:33:02	993856	0	0	0	0	0	0	0	0	0	0	0	0	0	0	0	0	0
091412	17:33:02	10010	Trial2BackEng	N	3	0	1000	1	75	17:33:02	995375	0	0	0	0	0	0	0	0	0	0	0	0	0	0	0	0	0
091412	17:33:02	10010	Trial2BackEng	N	3	0	1000	1	76	17:33:02	996894	0	0	0	0	0	0	0	0	0	0	0	0	0	0	0	0	0
091412	17:33:02	10010	Trial2BackEng	N	3	0	1000	1	77	17:33:02	998414	0	0	0	0	0	0	0	0	0	0	0	0	0	0	0	0	0
091412	17:33:02	10010	Trial2BackEng	N	3	0	1000	1	78	17:33:02	999933	0	0	0	0	0	0	0	0	0	0	0	0	0	0	0	0	0
091412	17:33:02	10010	Trial2BackEng	N	3	57	718	0	78	17:33:02	1001186	0	0	0	0	0	0	0	0	0	0	0	0	0	0	0	0	0
091412	17:33:02	10010	Trial2BackEng	Y	3	0	1000	0	78	17:33:02	1002959	0	0	0	0	0	0	0	0	0	0	0	0	0	0	0	0	0
091412	17:33:02	10010	Trial2BackEng	N	3	0	1000	1	79	17:33:02	1004478	0	0	0	0	0	0	0	0	0	0	0	0	0	0	0	0	0
091412	17:33:02	10010	Trial2BackEng	N	3	0	1000	1	80	17:33:02	1005997	0	0	0	0	0	0	0	0	0	0	0	0	0	0	0	0	0
091412	17:33:02	10010	Trial2BackEng	N	3	0	1000	1	81	17:33:02	1007517	0	0	0	0	0	0	0	0	0	0	0	0	0	0	0	0	0
091412	17:33:02	10010	Trial2BackEng	N	3	0	1000	1	82	17:33:02	1009036	0	0	0	0	0	0	0	0	0	0	0	0	0	0	0	0	0
091412	17:33:02	10010	Trial2BackEng	N	3	57	591	0	82	17:33:02	1010156	0	0	0	0	0	0	0	0	0	0	0	0	0	0	0	0	0
091412	17:33:02	10010	Trial2BackEng	N	3	0	1000	1	83	17:33:02	1012062	0	0	0	0	0	0	0	0	0	0	0	0	0	0	0	0	0
091412	17:33:02	10010	Trial2BackEng	N	3	0	1000	1	84	17:33:02	1013581	0	0	0	0	0	0	0	0	0	0	0	0	0	0	0	0	0
091412	17:33:02	10010	Trial2BackEng	N	3	0	1000	1	85	17:33:02	1015101	0	0	0	0	0	0	0	0	0	0	0	0	0	0	0	0	0
091412	17:33:02	10010	Trial2BackEng	N	3	0	1000	1	86	17:33:02	1016620	0	0	0	0	0	0	0	0	0	0	0	0	0	0	0	0	0
091412	17:33:02	10010	Trial2BackEng	Y	3	57	879	1	87	17:33:02	1018033	0	0	0	0	0	0	0	0	0	0	0	0	0	0	0	0	0
091412	17:33:02	10010	Trial2BackEng	N	3	0	1000	1	88	17:33:02	1019645	0	0	0	0	0	0	0	0	0	0	0	0	0	0	0	0	0
091412	17:33:02	10010	Trial2BackEng	N	3	0	1000	1	89	17:33:02	1021165	0	0	0	0	0	0	0	0	0	0	0	0	0	0	0	0	0
091412	17:33:02	10010	Trial2BackEng	N	3	0	1000	1	90	17:33:02	1022684	0	0	0	0	0	0	0	0	0	0	0	0	0	0	0	0	0
091412	17:33:02	10010	Trial2BackEng	N	3	0	1000	1	91	17:33:02	1024203	0	0	0	0	0	0	0	0	0	0	0	0	0	0	0	0	0
091412	17:33:02	10010	Trial2BackEng	N	3	0	1000	1	92	17:33:02	1025723	0	0	0	0	0	0	0	0	0	0	0	0	0	0	0	0	0
091412	17:33:02	10010	Trial2BackEng	N	3	0	1000	1	93	17:33:02	1027242	0	0	0	0	0	0	0	0	0	0	0	0	0	0	0	0	0
091412	17:33:02	10010	Trial2BackEng	N	3	57	432	0	93	17:33:02	1028202	0	0	0	0	0	0	0	0	0	0	0	0	0	0	0	0	0
091412	17:33:02	10010	Trial2BackEng	N	3	0	1000	1	94	17:33:02	1030268	0	0	0	0	0	0	0	0	0	0	0	0	0	0	0	0	0
091412	17:33:02	10010	Trial2BackEng	Y	3	0	1000	0	94	17:33:02	1031787	0	0	0	0	0	0	0	0	0	0	0	0	0	0	0	0	0
091412	17:33:02	10010	Trial2BackEng	N	3	0	1000	1	95	17:33:02	1033306	0	0	0	0	0	0	0	0	0	0	0	0	0	0	0	0	0
091412	17:33:02	10010	Trial2BackEng	N	3	0	1000	1	96	17:33:02	1034826	0	0	0	0	0	0	0	0	0	0	0	0	0	0	0	0	0
091412	17:33:02	10010	Trial2BackEng	N	3	0	1000	1	97	17:33:02	1036345	0	0	0	0	0	0	0	0	0	0	0	0	0	0	0	0	0
091412	17:33:02	10010	Trial2BackEng	N	3	0	1000	1	98	17:33:02	1037865	0	0	0	0	0	0	0	0	0	0	0	0	0	0	0	0	0
091412	17:33:02	10010	Trial2BackEng	Y	3	57	706	1	99	17:33:02	1039104	0	0	0	0	0	0	0	0	0	0	0	0	0	0	0	0	0
091412	17:33:02	10010	Trial2BackEng	N	3	0	1000	1	100	17:33:02	1040890	0	0	0	0	0	0	0	0	0	0	0	0	0	0	0	0	0
091412	17:33:02	10010	Trial2BackEng	N	3	0	1000	1	101	17:33:02	1042409	0	0	0	0	0	0	0	0	0	0	0	0	0	0	0	0	0
091412	17:33:02	10010	Trial2BackEng	N	3	0	1000	1	102	17:33:02	1043929	0	0	0	0	0	0	0	0	0	0	0	0	0	0	0	0	0
091412	17:33:02	10010	Trial2BackEng	Y	3	0	1000	0	102	17:33:02	1045448	0	0	0	0	0	0	0	0	0	0	0	0	0	0	0	0	0
091412	17:33:02	10010	Trial2BackEng	N	3	0	1000	1	103	17:33:02	1046968	0	0	0	0	0	0	0	0	0	0	0	0	0	0	0	0	0
091412	17:33:02	10010	Trial2BackEng	N	3	0	1000	1	104	17:33:02	1048487	0	0	0	0	0	0	0	0	0	0	0	0	0	0	0	0	0
091412	17:33:02	10010	Trial2BackEng	N	3	0	1000	1	105	17:33:02	1050006	0	0	0	0	0	0	0	0	0	0	0	0	0	0	0	0	0
091412	17:33:02	10010	Trial2BackEng	N	3	0	1000	1	106	17:33:02	1051526	0	0	0	0	0	0	0	0	0	0	0	0	0	0	0	0	0
091412	17:33:02	10010	Trial2BackEng	N	3	0	1000	1	107	17:33:02	1053045	0	0	0	0	0	0	0	0	0	0	0	0	0	0	0	0	0
091412	17:33:02	10010	Trial2BackEng	Y	3	57	485	1	108	17:33:02	1054058	0	0	0	0	0	0	0	0	0	0	0	0	0	0	0	0	0
091412	17:33:02	10010	Trial2BackEng	N	3	0	1000	1	109	17:33:02	1056071	0	0	0	0	0	0	0	0	0	0	0	0	0	0	0	0	0
091412	17:33:02	10010	Trial2BackEng	N	3	0	1000	1	110	17:33:02	1057590	0	0	0	0	0	0	0	0	0	0	0	0	0	0	0	0	0
091412	17:33:02	10010	Trial2BackEng	N	3	0	1000	1	111	17:33:02	1059109	0	0	0	0	0	0	0	0	0	0	0	0	0	0	0	0	0
091412	17:33:02	10010	Trial2BackEng	Y	3	57	741	1	112	17:33:02	1060375	0	0	0	0	0	0	0	0	0	0	0	0	0	0	0	0	0
091412	17:33:02	10010	Memory1R3mo	Score	5	M2	22760	0	112	17:33:02	1119392	0	0	0	0	0	0	0	0	0	0	0	0	0	0	0	0	0
091412	17:33:02	10010	Memory1R3mo	Score	5	M3	229	0	112	17:33:02	1119658	0	0	0	0	0	0	0	0	0	0	0	0	0	0	0	0	0
091412	17:33:02	10010	Memory1R3mo	Score	5	M5	1940	0	112	17:33:02	1121644	0	0	0	0	0	0	0	0	0	0	0	0	0	0	0	0	0
091412	17:33:02	10010	Memory1R3mo	Score	5	M6	441	0	112	17:33:02	1122124	0	0	0	0	0	0	0	0	0	0	0	0	0	0	0	0	0
091412	17:33:02	10010	Memory1R3mo	Score	5	M7	328	0	112	17:33:02	1122497	0	0	0	0	0	0	0	0	0	0	0	0	0	0	0	0	0
091412	17:33:02	10010	Memory1R3mo	Score	5	M8	299	0	112	17:33:02	1122830	0	0	0	0	0	0	0	0	0	0	0	0	0	0	0	0	0
091412	17:33:02	10010	Memory1R3mo	Score	5	Done	1094	0	112	17:33:02	1123963	0	0	0	0	0	0	0	0	0	0	0	0	0	0	0	0	0
091412	17:33:02	10010	Memory2R3mo	Score2	5	11	23373	0	112	17:33:02	1169478	0	0	0	0	0	0	0	0	0	0	0	0	0	0	0	0	0
091412	17:33:02	10010	Memory2R3mo	Score2	5	22	197	0	112	17:33:02	1169719	0	0	0	0	0	0	0	0	0	0	0	0	0	0	0	0	0
091412	17:33:02	10010	Memory2R3mo	Score2	5	44	717	0	112	17:33:02	1170478	0	0	0	0	0	0	0	0	0	0	0	0	0	0	0	0	0
091412	17:33:02	10010	Memory2R3mo	Score2	5	33	478	0	112	17:33:02	1170998	0	0	0	0	0	0	0	0	0	0	0	0	0	0	0	0	0
091412	17:33:02	10010	Memory2R3mo	Score2	5	55	606	0	112	17:33:02	1171637	0	0	0	0	0	0	0	0	0	0	0	0	0	0	0	0	0
091412	17:33:02	10010	Memory2R3mo	Score2	5	66	334	0	112	17:33:02	1172011	0	0	0	0	0	0	0	0	0	0	0	0	0	0	0	0	0
091412	17:33:02	10010	Memory2R3mo	Score2	5	77	305	0	112	17:33:02	1172357	0	0	0	0	0	0	0	0	0	0	0	0	0	0	0	0	0
091412	17:33:02	10010	Memory2R3mo	Score2	5	88	286	0	112	17:33:02	1172677	0	0	0	0	0	0	0	0	0	0	0	0	0	0	0	0	0
091412	17:33:02	10010	Memory2R3mo	Score2	5	Done	670	0	112	17:33:02	1173383	0	0	0	0	0	0	0	0	0	0	0	0	0	0	0	0	0
091412	17:33:02	10010	Memory3R3mo	Score3	5	111	12492	0	112	17:33:02	1207023	0	0	0	0	0	0	0	0	0	0	0	0	0	0	0	0	0
091412	17:33:02	10010	Memory3R3mo	Score3	5	222	604	0	112	17:33:02	1207663	0	0	0	0	0	0	0	0	0	0	0	0	0	0	0	0	0
091412	17:33:02	10010	Memory3R3mo	Score3	5	333	356	0	112	17:33:02	1208063	0	0	0	0	0	0	0	0	0	0	0	0	0	0	0	0	0
091412	17:33:02	10010	Memory3R3mo	Score3	5	444	292	0	112	17:33:02	1208396	0	0	0	0	0	0	0	0	0	0	0	0	0	0	0	0	0
091412	17:33:02	10010	Memory3R3mo	Score3	5	666	295	0	112	17:33:02	1208729	0	0	0	0	0	0	0	0	0	0	0	0	0	0	0	0	0
091412	17:33:02	10010	Memory3R3mo	Score3	5	555	450	0	112	17:33:02	1209222	0	0	0	0	0	0	0	0	0	0	0	0	0	0	0	0	0
091412	17:33:02	10010	Memory3R3mo	Score3	5	777	532	0	112	17:33:02	1209796	0	0	0	0	0	0	0	0	0	0	0	0	0	0	0	0	0
091412	17:33:02	10010	Memory3R3mo	Score3	5	888	199	0	112	17:33:02	1210035	0	0	0	0	0	0	0	0	0	0	0	0	0	0	0	0	0
091412	17:33:02	10010	Memory3R3mo	Score3	5	Done	295	0	112	17:33:02	1210368	0	0	0	0	0	0	0	0	0	0	0	0	0	0	0	0	0
091412	17:33:02	10010	LoriaEngLH3	Stop	6	7	6099	0	112	17:33:02	1287099	0	0	0	0	0	0	0	0	0	0	0	0	0	0	0	0	0
091412	17:33:02	10010	EngTrail	Trails	7	1Trails	881	0	112	17:33:02	1313487	0	0	0	0	0	0	0	0	0	0	0	0	0	0	0	0	0
091412	17:33:02	10010	Serial7Eng3mo	Serial7Eng3mo	8	81	3880	0	112	17:33:02	1388444	0	0	0	0	0	0	0	0	0	0	0	0	0	0	0	0	0
091412	17:33:02	10010	Serial7Eng3mo	Serial7Eng3mo	8	74	2087	0	112	17:33:02	1390550	1	0	0	0	0	0	0	0	0	0	0	0	0	0	0	0	0
091412	17:33:02	10010	Serial7Eng3mo	Serial7Eng3mo	8	67	2989	0	112	17:33:02	1393563	2	0	0	0	0	0	0	0	0	0	0	0	0	0	0	0	0
091412	17:33:02	10010	Serial7Eng3mo	Serial7Eng3mo	8	60	1741	0	112	17:33:02	1395335	3	0	0	0	0	0	0	0	0	0	0	0	0	0	0	0	0
091412	17:33:02	10010	Serial7Eng3mo	Serial7Eng3mo	8	53	1844	0	112	17:33:02	1397201	4	0	0	0	0	0	0	0	0	0	0	0	0	0	0	0	0
091412	17:33:02	10010	corsiblockEngFwrd	recallseqEngFwrd	9	5	1619	0	112	17:33:02	1440224	4	0	0	0	0	0	0	0	0	0	0	0	0	0	0	0	0
091412	17:33:02	10010	corsiblockEngFwrd	recallseqEngFwrd	9	4	647	0	112	17:33:02	1440903	4	0	0	0	0	0	0	0	0	0	0	0	0	0	0	0	0
091412	17:33:02	10010	corsiblockEngFwrd	recallseqEngFwrd	9	doneCorsiEng	1213	0	112	17:33:02	1442156	4	0	0	0	0	0	0	0	0	0	0	0	0	0	0	2	0
091412	17:33:02	10010	corsiblockEngFwrd	recallseqEngFwrd	9	8	741	0	112	17:33:02	1448994	4	0	0	0	0	0	0	0	0	0	0	0	0	0	0	2	0
091412	17:33:02	10010	corsiblockEngFwrd	recallseqEngFwrd	9	3	733	0	112	17:33:02	1449766	4	0	0	0	0	0	0	0	0	0	0	0	0	0	0	2	0
091412	17:33:02	10010	corsiblockEngFwrd	recallseqEngFwrd	9	1	663	0	112	17:33:02	1450473	4	0	0	0	0	0	0	0	0	0	0	0	0	0	0	2	0
091412	17:33:02	10010	corsiblockEngFwrd	recallseqEngFwrd	9	doneCorsiEng	1037	0	112	17:33:02	1451553	4	0	0	0	0	0	0	0	0	0	0	0	0	0	0	3	0
091412	17:33:02	10010	corsiblockEngFwrd	recallseqEngFwrd	9	2	1003	0	112	17:33:02	1459642	4	0	0	0	0	0	0	0	0	0	0	0	0	0	0	3	0
091412	17:33:02	10010	corsiblockEngFwrd	recallseqEngFwrd	9	7	635	0	112	17:33:02	1460322	4	0	0	0	0	0	0	0	0	0	0	0	0	0	0	3	0
091412	17:33:02	10010	corsiblockEngFwrd	recallseqEngFwrd	9	6	820	0	112	17:33:02	1461175	4	0	0	0	0	0	0	0	0	0	0	0	0	0	0	3	0
091412	17:33:02	10010	corsiblockEngFwrd	recallseqEngFwrd	9	9	694	0	112	17:33:02	1461908	4	0	0	0	0	0	0	0	0	0	0	0	0	0	0	3	0
091412	17:33:02	10010	corsiblockEngFwrd	recallseqEngFwrd	9	doneCorsiEng	1073	0	112	17:33:02	1463015	4	0	0	0	0	0	0	0	0	0	0	0	0	0	0	4	0
091412	17:33:02	10010	corsiblockEngFwrd	recallseqEngFwrd	9	5	1132	0	112	17:33:02	1472237	4	0	0	0	0	0	0	0	0	0	0	0	0	0	0	4	0
091412	17:33:02	10010	corsiblockEngFwrd	recallseqEngFwrd	9	3	712	0	112	17:33:02	1472984	4	0	0	0	0	0	0	0	0	0	0	0	0	0	0	4	0
091412	17:33:02	10010	corsiblockEngFwrd	recallseqEngFwrd	9	4	606	0	112	17:33:02	1473624	4	0	0	0	0	0	0	0	0	0	0	0	0	0	0	4	0
091412	17:33:02	10010	corsiblockEngFwrd	recallseqEngFwrd	9	9	622	0	112	17:33:02	1474290	4	0	0	0	0	0	0	0	0	0	0	0	0	0	0	4	0
091412	17:33:02	10010	corsiblockEngFwrd	recallseqEngFwrd	9	2	675	0	112	17:33:02	1475010	4	0	0	0	0	0	0	0	0	0	0	0	0	0	0	4	0
091412	17:33:02	10010	corsiblockEngFwrd	recallseqEngFwrd	9	doneCorsiEng	748	0	112	17:33:02	1475796	4	0	0	0	0	0	0	0	0	0	0	0	0	0	0	5	0
091412	17:33:02	10010	corsiblockEngFwrd	recallseqEngFwrd	9	1	1303	0	112	17:33:02	1486192	4	0	0	0	0	0	0	0	0	0	0	0	0	0	0	5	0
091412	17:33:02	10010	corsiblockEngFwrd	recallseqEngFwrd	9	6	1221	0	112	17:33:02	1487458	4	0	0	0	0	0	0	0	0	0	0	0	0	0	0	5	0
091412	17:33:02	10010	corsiblockEngFwrd	recallseqEngFwrd	9	7	1171	0	112	17:33:02	1488671	4	0	0	0	0	0	0	0	0	0	0	0	0	0	0	5	0
091412	17:33:02	10010	corsiblockEngFwrd	recallseqEngFwrd	9	8	846	0	112	17:33:02	1489551	4	0	0	0	0	0	0	0	0	0	0	0	0	0	0	5	0
091412	17:33:02	10010	corsiblockEngFwrd	recallseqEngFwrd	9	9	727	0	112	17:33:02	1490310	4	0	0	0	0	0	0	0	0	0	0	0	0	0	0	5	0
091412	17:33:02	10010	corsiblockEngFwrd	recallseqEngFwrd	9	4	759	0	112	17:33:02	1491110	4	0	0	0	0	0	0	0	0	0	0	0	0	0	0	5	0
091412	17:33:02	10010	corsiblockEngFwrd	recallseqEngFwrd	9	doneCorsiEng	623	0	112	17:33:02	1491776	4	0	0	0	0	0	0	0	0	0	0	0	0	0	0	5	0
091412	17:33:02	10010	corsiblockEngFwrd	recallseqEngFwrd	9	7	555	0	112	17:33:02	1501386	4	0	0	0	0	0	0	0	0	0	0	0	0	0	0	5	0
091412	17:33:02	10010	corsiblockEngFwrd	recallseqEngFwrd	9	8	499	0	112	17:33:02	1501919	4	0	0	0	0	0	0	0	0	0	0	0	0	0	0	5	0
091412	17:33:02	10010	corsiblockEngFwrd	recallseqEngFwrd	9	9	454	0	112	17:33:02	1502412	4	0	0	0	0	0	0	0	0	0	0	0	0	0	0	5	0
091412	17:33:02	10010	corsiblockEngFwrd	recallseqEngFwrd	9	2	577	0	112	17:33:02	1503025	4	0	0	0	0	0	0	0	0	0	0	0	0	0	0	5	0
091412	17:33:02	10010	corsiblockEngFwrd	recallseqEngFwrd	9	3	1107	0	112	17:33:02	1504171	4	0	0	0	0	0	0	0	0	0	0	0	0	0	0	5	0
091412	17:33:02	10010	corsiblockEngFwrd	recallseqEngFwrd	9	1	648	0	112	17:33:02	1504864	4	0	0	0	0	0	0	0	0	0	0	0	0	0	0	5	0
091412	17:33:02	10010	corsiblockEngFwrd	recallseqEngFwrd	9	doneCorsiEng	741	0	112	17:33:02	1505651	4	0	0	0	0	0	0	0	0	0	0	0	0	0	0	5	0
091412	17:33:02	10010	corsiblockEngRev	recallseqEngRev	10	9	1101	0	112	17:33:02	1520938	4	0	0	0	0	0	0	0	0	0	0	0	0	0	0	5	0
091412	17:33:02	10010	corsiblockEngRev	recallseqEngRev	10	5	794	0	112	17:33:02	1521778	4	0	0	0	0	0	0	0	0	0	0	0	0	0	0	5	0
091412	17:33:02	10010	corsiblockEngRev	recallseqEngRev	10	doneCorsiEng	883	0	112	17:33:02	1522697	4	0	0	0	0	0	0	0	0	0	0	0	0	0	0	5	2
091412	17:33:02	10010	corsiblockEngRev	recallseqEngRev	10	3	527	0	112	17:33:02	1529321	4	0	0	0	0	0	0	0	0	0	0	0	0	0	0	5	2
091412	17:33:02	10010	corsiblockEngRev	recallseqEngRev	10	1	355	0	112	17:33:02	1529721	4	0	0	0	0	0	0	0	0	0	0	0	0	0	0	5	2
091412	17:33:02	10010	corsiblockEngRev	recallseqEngRev	10	2	659	0	112	17:33:02	1530414	4	0	0	0	0	0	0	0	0	0	0	0	0	0	0	5	2
091412	17:33:02	10010	corsiblockEngRev	recallseqEngRev	10	doneCorsiEng	814	0	112	17:33:02	1531267	4	0	0	0	0	0	0	0	0	0	0	0	0	0	0	5	3
091412	17:33:02	10010	corsiblockEngRev	recallseqEngRev	10	8	639	0	112	17:33:02	1538997	4	0	0	0	0	0	0	0	0	0	0	0	0	0	0	5	3
091412	17:33:02	10010	corsiblockEngRev	recallseqEngRev	10	7	495	0	112	17:33:02	1539530	4	0	0	0	0	0	0	0	0	0	0	0	0	0	0	5	3
091412	17:33:02	10010	corsiblockEngRev	recallseqEngRev	10	6	674	0	112	17:33:02	1540237	4	0	0	0	0	0	0	0	0	0	0	0	0	0	0	5	3
091412	17:33:02	10010	corsiblockEngRev	recallseqEngRev	10	4	399	0	112	17:33:02	1540677	4	0	0	0	0	0	0	0	0	0	0	0	0	0	0	5	3
091412	17:33:02	10010	corsiblockEngRev	recallseqEngRev	10	doneCorsiEng	847	0	112	17:33:02	1541570	4	0	0	0	0	0	0	0	0	0	0	0	0	0	0	5	4
091412	17:33:02	10010	corsiblockEngRev	recallseqEngRev	10	3	439	0	112	17:33:02	1550099	4	0	0	0	0	0	0	0	0	0	0	0	0	0	0	5	4
091412	17:33:02	10010	corsiblockEngRev	recallseqEngRev	10	7	1456	0	112	17:33:02	1551592	4	0	0	0	0	0	0	0	0	0	0	0	0	0	0	5	4
091412	17:33:02	10010	corsiblockEngRev	recallseqEngRev	10	5	684	0	112	17:33:02	1552312	4	0	0	0	0	0	0	0	0	0	0	0	0	0	0	5	4
091412	17:33:02	10010	corsiblockEngRev	recallseqEngRev	10	4	556	0	112	17:33:02	1552912	4	0	0	0	0	0	0	0	0	0	0	0	0	0	0	5	4
091412	17:33:02	10010	corsiblockEngRev	recallseqEngRev	10	doneCorsiEng	892	0	112	17:33:02	1553844	4	0	0	0	0	0	0	0	0	0	0	0	0	0	0	5	4
091412	17:33:02	10010	corsiblockEngRev	recallseqEngRev	10	1	453	0	112	17:33:02	1562348	4	0	0	0	0	0	0	0	0	0	0	0	0	0	0	5	4
091412	17:33:02	10010	corsiblockEngRev	recallseqEngRev	10	9	792	0	112	17:33:02	1563174	4	0	0	0	0	0	0	0	0	0	0	0	0	0	0	5	4
091412	17:33:02	10010	corsiblockEngRev	recallseqEngRev	10	8	797	0	112	17:33:02	1564014	4	0	0	0	0	0	0	0	0	0	0	0	0	0	0	5	4
091412	17:33:02	10010	corsiblockEngRev	recallseqEngRev	10	2	918	0	112	17:33:02	1564973	4	0	0	0	0	0	0	0	0	0	0	0	0	0	0	5	4
091412	17:33:02	10010	corsiblockEngRev	recallseqEngRev	10	4	574	0	112	17:33:02	1565587	4	0	0	0	0	0	0	0	0	0	0	0	0	0	0	5	4
091412	17:33:02	10010	corsiblockEngRev	recallseqEngRev	10	doneCorsiEng	937	0	112	17:33:02	1566559	4	0	0	0	0	0	0	0	0	0	0	0	0	0	0	5	4
091412	17:33:02	10010	testEng3mo	WordsEng3mo	11	1Eng3mo	1039	0	112	17:33:02	1605331	4	1	0	0	0	0	0	0	0	0	0	0	0	0	0	5	4
091412	17:33:02	10010	testEng3mo	WordsEng3mo	11	2Eng3mo	201	0	112	17:33:02	1605571	4	1	1	0	0	0	0	0	0	0	0	0	0	0	0	5	4
091412	17:33:02	10010	testEng3mo	WordsEng3mo	11	3Eng3mo	281	0	112	17:33:02	1605891	4	1	1	1	0	0	0	0	0	0	0	0	0	0	0	5	4
091412	17:33:02	10010	testEng3mo	WordsEng3mo	11	4Eng3mo	745	0	112	17:33:02	1606677	4	1	1	1	1	0	0	0	0	0	0	0	0	0	0	5	4
091412	17:33:02	10010	testEng3mo	WordsEng3mo	11	5Eng3mo	237	0	112	17:33:02	1606957	4	1	1	1	1	1	0	0	0	0	0	0	0	0	0	5	4
091412	17:33:02	10010	testEng3mo	WordsEng3mo	11	6Eng3mo	838	0	112	17:33:02	1607836	4	1	1	1	1	1	1	0	0	0	0	0	0	0	0	5	4
091412	17:33:02	10010	testEng3mo	WordsEng3mo	11	7Eng3mo	359	0	112	17:33:02	1608236	4	1	1	1	1	1	1	1	0	0	0	0	0	0	0	5	4
091412	17:33:02	10010	testEng3mo	WordsEng3mo	11	8Eng3mo	431	0	112	17:33:02	1608703	4	1	1	1	1	1	1	1	1	0	0	0	0	0	0	5	4
091412	17:33:02	10010	testEng3mo	WordsEng3mo	11	DoneEng3mo	892	0	112	17:33:02	1609636	4	1	1	1	1	1	1	1	1	0	0	0	0	0	0	5	4
091412	17:33:02	10010	DigitSpanFwrdEng3mo	Score1FwrdEng3mo	12	DS1	3999	0	112	17:33:02	1630067	4	1	1	1	1	1	1	1	1	0	0	0	0	0	0	5	4
091412	17:33:02	10010	DigitSpanFwrdEng3mo	Gate1FwrdEng3mo	12	0	1	0	112	17:33:02	1630083	4	1	1	1	1	1	1	1	1	3	0	0	0	0	0	5	4
091412	17:33:02	10010	DigitSpanFwrdEng3mo	Score2FwrdEng3mo	12	DS1	2440	0	112	17:33:02	1639090	4	1	1	1	1	1	1	1	1	3	0	0	0	0	0	5	4
091412	17:33:02	10010	DigitSpanFwrdEng3mo	Gate3FwrdEng3mo	12	0	1	0	112	17:33:02	1639105	4	1	1	1	1	1	1	1	1	4	0	0	0	0	0	5	4
091412	17:33:02	10010	DigitSpanFwrdEng3mo	Score3FwrdEng3mo	12	DS1	3854	0	112	17:33:02	1650992	4	1	1	1	1	1	1	1	1	4	0	0	0	0	0	5	4
091412	17:33:02	10010	DigitSpanFwrdEng3mo	Gate5FwrdEng3mo	12	0	1	0	112	17:33:02	1651007	4	1	1	1	1	1	1	1	1	5	0	0	0	0	0	5	4
091412	17:33:02	10010	DigitSpanFwrdEng3mo	Score4FwrdEng3mo	12	DS1	5910	0	112	17:33:02	1666452	4	1	1	1	1	1	1	1	1	5	0	0	0	0	0	5	4
091412	17:33:02	10010	DigitSpanFwrdEng3mo	Gate7FwrdEng3mo	12	0	1	0	112	17:33:02	1666467	4	1	1	1	1	1	1	1	1	6	0	0	0	0	0	5	4
091412	17:33:02	10010	DigitSpanFwrdEng3mo	Score5FwrdEng3mo	12	DS2	12002	0	112	17:33:02	1689523	4	1	1	1	1	1	1	1	1	6	0	0	0	0	0	5	4
091412	17:33:02	10010	DigitSpanFwrdEng3mo	Gate9FwrdEng3mo	12	0	1	0	112	17:33:02	1689538	4	1	1	1	1	1	1	1	1	6	0	0	0	0	0	5	4
091412	17:33:02	10010	DigitSpanFwrdEng3mo	Score55FwrdEng3mo	12	DS2	12355	0	112	17:33:02	1713313	4	1	1	1	1	1	1	1	1	6	0	0	0	0	0	5	4
091412	17:33:02	10010	DigitSpanEng3mo	Score1Eng3mo	13	DS1	2224	0	112	17:33:02	1726321	4	1	1	1	1	1	1	1	1	6	0	0	0	0	0	5	4
091412	17:33:02	10010	DigitSpanEng3mo	Gate1Eng3mo	13	0	1	0	112	17:33:02	1726336	4	1	1	1	1	1	1	1	1	6	2	0	0	0	0	5	4
091412	17:33:02	10010	DigitSpanEng3mo	Score2Eng3mo	13	DS1	2485	0	112	17:33:02	1733785	4	1	1	1	1	1	1	1	1	6	2	0	0	0	0	5	4
091412	17:33:02	10010	DigitSpanEng3mo	Gate3Eng3mo	13	0	1	0	112	17:33:02	1733800	4	1	1	1	1	1	1	1	1	6	3	0	0	0	0	5	4
091412	17:33:02	10010	DigitSpanEng3mo	Score3Eng3mo	13	DS1	2698	0	112	17:33:02	1743074	4	1	1	1	1	1	1	1	1	6	3	0	0	0	0	5	4
091412	17:33:02	10010	DigitSpanEng3mo	Gate5Eng3mo	13	0	1	0	112	17:33:02	1743090	4	1	1	1	1	1	1	1	1	6	4	0	0	0	0	5	4
091412	17:33:02	10010	DigitSpanEng3mo	Score4Eng3mo	13	DS1	13334	0	112	17:33:02	1764466	4	1	1	1	1	1	1	1	1	6	4	0	0	0	0	5	4
091412	17:33:02	10010	DigitSpanEng3mo	Gate7Eng3mo	13	0	1	0	112	17:33:02	1764481	4	1	1	1	1	1	1	1	1	6	5	0	0	0	0	5	4
091412	17:33:02	10010	DigitSpanEng3mo	Score5Eng3mo	13	DS2	7292	0	112	17:33:02	1781326	4	1	1	1	1	1	1	1	1	6	5	0	0	0	0	5	4
091412	17:33:02	10010	DigitSpanEng3mo	Gate9Eng3mo	13	0	1	0	112	17:33:02	1781341	4	1	1	1	1	1	1	1	1	6	5	0	0	0	0	5	4
091412	17:33:02	10010	DigitSpanEng3mo	Score55Eng3mo	13	DS1	6880	0	112	17:33:02	1797852	4	1	1	1	1	1	1	1	1	6	5	0	0	0	0	5	4
091412	17:33:02	10010	DigitSpanEng3mo	Gate10Eng3mo	13	0	1	0	112	17:33:02	1797868	4	1	1	1	1	1	1	1	1	6	6	0	0	0	0	5	4
091412	17:33:02	10010	DigitSpanEng3mo	Score6Eng3mo	13	DS2	8818	0	112	17:33:02	1818630	4	1	1	1	1	1	1	1	1	6	6	0	0	0	0	5	4
091412	17:33:02	10010	DigitSpanEng3mo	Gate11Eng3mo	13	0	1	0	112	17:33:02	1818646	4	1	1	1	1	1	1	1	1	6	6	0	0	0	0	5	4
091412	17:33:02	10010	DigitSpanEng3mo	Score66Eng3mo	13	DS2	12894	0	112	17:33:02	1842327	4	1	1	1	1	1	1	1	1	6	6	0	0	0	0	5	4
091412	17:33:02	10010	Trial	IncongruentRight	14	0	737	0	112	17:33:02	1889615	4	1	1	1	1	1	1	1	1	6	6	0	0	0	0	5	4
091412	17:33:02	10010	Trial	IncongruentLeft	14	203	533	1	112	17:33:02	1890428	4	1	1	1	1	1	1	1	1	6	6	0	0	0	0	5	4
091412	17:33:02	10010	Trial	CongruentRight	14	205	430	1	112	17:33:02	1891321	4	1	1	1	1	1	1	1	1	6	6	0	0	0	0	5	4
091412	17:33:02	10010	Trial	IncongruentRight	14	205	598	1	112	17:33:02	1892494	4	1	1	1	1	1	1	1	1	6	6	0	0	0	0	5	4
091412	17:33:02	10010	Trial	CongruentLeft	14	203	639	1	112	17:33:02	1893533	4	1	1	1	1	1	1	1	1	6	6	0	0	0	0	5	4
091412	17:33:02	10010	Trial	CongruentRight	14	205	570	1	112	17:33:02	1894466	4	1	1	1	1	1	1	1	1	6	6	0	0	0	0	5	4
091412	17:33:02	10010	Trial	IncongruentRight	14	205	562	1	112	17:33:02	1895466	4	1	1	1	1	1	1	1	1	6	6	0	0	0	0	5	4
091412	17:33:02	10010	Trial	CongruentLeft	14	203	586	1	112	17:33:02	1896492	4	1	1	1	1	1	1	1	1	6	6	0	0	0	0	5	4
091412	17:33:02	10010	Trial	IncongruentLeft	14	203	531	1	112	17:33:02	1897438	4	1	1	1	1	1	1	1	1	6	6	0	0	0	0	5	4
091412	17:33:02	10010	Trial	IncongruentLeft	14	203	555	1	112	17:33:02	1898451	4	1	1	1	1	1	1	1	1	6	6	0	0	0	0	5	4
091412	17:33:02	10010	Trial	CongruentRight	14	205	452	1	112	17:33:02	1899358	4	1	1	1	1	1	1	1	1	6	6	0	0	0	0	5	4
091412	17:33:02	10010	Trial	IncongruentRight	14	205	444	1	112	17:33:02	1900344	4	1	1	1	1	1	1	1	1	6	6	0	0	0	0	5	4
091412	17:33:02	10010	Trial	CongruentLeft	14	203	516	1	112	17:33:02	1901410	4	1	1	1	1	1	1	1	1	6	6	0	0	0	0	5	4
091412	17:33:02	10010	Trial	CongruentRight	14	205	413	1	112	17:33:02	1902317	4	1	1	1	1	1	1	1	1	6	6	0	0	0	0	5	4
091412	17:33:02	10010	Trial	IncongruentLeft	14	203	501	1	112	17:33:02	1903396	4	1	1	1	1	1	1	1	1	6	6	0	0	0	0	5	4
091412	17:33:02	10010	Trial	IncongruentRight	14	205	384	1	112	17:33:02	1904289	4	1	1	1	1	1	1	1	1	6	6	0	0	0	0	5	4
091412	17:33:02	10010	Trial	CongruentRight	14	205	470	1	112	17:33:02	1905369	4	1	1	1	1	1	1	1	1	6	6	0	0	0	0	5	4
091412	17:33:02	10010	Trial	CongruentLeft	14	0	737	0	112	17:33:02	1906622	4	1	1	1	1	1	1	1	1	6	6	0	0	0	0	5	4
091412	17:33:02	10010	Trial	CongruentRight	14	205	377	1	112	17:33:02	1907288	4	1	1	1	1	1	1	1	1	6	6	0	0	0	0	5	4
091412	17:33:02	10010	Trial	IncongruentRight	14	205	482	1	112	17:33:02	1908394	4	1	1	1	1	1	1	1	1	6	6	0	0	0	0	5	4
091412	17:33:02	10010	Trial	IncongruentLeft	14	203	506	1	112	17:33:02	1909420	4	1	1	1	1	1	1	1	1	6	6	0	0	0	0	5	4
091412	17:33:02	10010	Trial	IncongruentLeft	14	203	499	1	112	17:33:02	1910407	4	1	1	1	1	1	1	1	1	6	6	0	0	0	0	5	4
091412	17:33:02	10010	Trial	CongruentLeft	14	203	590	1	112	17:33:02	1911513	4	1	1	1	1	1	1	1	1	6	6	0	0	0	0	5	4
091412	17:33:02	10010	Trial	CongruentRight	14	205	518	1	112	17:33:02	1912446	4	1	1	1	1	1	1	1	1	6	6	0	0	0	0	5	4
091412	17:33:02	10010	Trial	IncongruentLeft	14	203	510	1	112	17:33:02	1913432	4	1	1	1	1	1	1	1	1	6	6	0	0	0	0	5	4
091412	17:33:02	10010	Trial	IncongruentRight	14	205	471	1	112	17:33:02	1914391	4	1	1	1	1	1	1	1	1	6	6	0	0	0	0	5	4
091412	17:33:02	10010	Trial	CongruentRight	14	205	495	1	112	17:33:02	1915418	4	1	1	1	1	1	1	1	1	6	6	0	0	0	0	5	4
091412	17:33:02	10010	Trial	CongruentLeft	14	203	600	1	112	17:33:02	1916524	4	1	1	1	1	1	1	1	1	6	6	0	0	0	0	5	4
091412	17:33:02	10010	Trial	IncongruentRight	14	205	416	1	112	17:33:02	1917337	4	1	1	1	1	1	1	1	1	6	6	0	0	0	0	5	4
091412	17:33:02	10010	Trial	IncongruentLeft	14	203	473	1	112	17:33:02	1918390	4	1	1	1	1	1	1	1	1	6	6	0	0	0	0	5	4
091412	17:33:02	10010	Trial	IncongruentRight	14	205	417	1	112	17:33:02	1919336	4	1	1	1	1	1	1	1	1	6	6	0	0	0	0	5	4
091412	17:33:02	10010	Trial	CongruentRight	14	205	457	1	112	17:33:02	1920376	4	1	1	1	1	1	1	1	1	6	6	0	0	0	0	5	4
091412	17:33:02	10010	Trial	IncongruentLeft	14	203	481	1	112	17:33:02	1921402	4	1	1	1	1	1	1	1	1	6	6	0	0	0	0	5	4
091412	17:33:02	10010	Trial	CongruentLeft	14	203	538	1	112	17:33:02	1922455	4	1	1	1	1	1	1	1	1	6	6	0	0	0	0	5	4
091412	17:33:02	10010	Trial	CongruentRight	14	205	386	1	112	17:33:02	1923308	4	1	1	1	1	1	1	1	1	6	6	0	0	0	0	5	4
091412	17:33:02	10010	Trial	IncongruentLeft	14	203	491	1	112	17:33:02	1924401	4	1	1	1	1	1	1	1	1	6	6	0	0	0	0	5	4
091412	17:33:02	10010	Trial	IncongruentRight	14	205	435	1	112	17:33:02	1925347	4	1	1	1	1	1	1	1	1	6	6	0	0	0	0	5	4
091412	17:33:02	10010	Trial	IncongruentRight	14	205	475	1	112	17:33:02	1926387	4	1	1	1	1	1	1	1	1	6	6	0	0	0	0	5	4
091412	17:33:02	10010	Trial	CongruentLeft	14	203	484	1	112	17:33:02	1927400	4	1	1	1	1	1	1	1	1	6	6	0	0	0	0	5	4
091412	17:33:02	10010	Trial	IncongruentLeft	14	203	572	1	112	17:33:02	1928493	4	1	1	1	1	1	1	1	1	6	6	0	0	0	0	5	4
091412	17:33:02	10010	Trial	CongruentRight	14	205	389	1	112	17:33:02	1929306	4	1	1	1	1	1	1	1	1	6	6	0	0	0	0	5	4
091412	17:33:02	10010	Trial	CongruentLeft	14	203	461	1	112	17:33:02	1930372	4	1	1	1	1	1	1	1	1	6	6	0	0	0	0	5	4
091412	17:33:02	10010	Trial	IncongruentRight	14	205	405	1	112	17:33:02	1931318	4	1	1	1	1	1	1	1	1	6	6	0	0	0	0	5	4
091412	17:33:02	10010	Trial	CongruentRight	14	205	430	1	112	17:33:02	1932344	4	1	1	1	1	1	1	1	1	6	6	0	0	0	0	5	4
091412	17:33:02	10010	Trial	IncongruentLeft	14	203	470	1	112	17:33:02	1933384	4	1	1	1	1	1	1	1	1	6	6	0	0	0	0	5	4
091412	17:33:02	10010	Trial	CongruentLeft	14	203	446	1	112	17:33:02	1934357	4	1	1	1	1	1	1	1	1	6	6	0	0	0	0	5	4
091412	17:33:02	10010	Trial	IncongruentLeft	14	203	535	1	112	17:33:02	1935450	4	1	1	1	1	1	1	1	1	6	6	0	0	0	0	5	4
091412	17:33:02	10010	Trial	IncongruentRight	14	205	495	1	112	17:33:02	1936409	4	1	1	1	1	1	1	1	1	6	6	0	0	0	0	5	4
091412	17:33:02	10010	Trial	CongruentRight	14	205	424	1	112	17:33:02	1937329	4	1	1	1	1	1	1	1	1	6	6	0	0	0	0	5	4
091412	17:33:02	10010	Trial	CongruentLeft	14	203	480	1	112	17:33:02	1938395	4	1	1	1	1	1	1	1	1	6	6	0	0	0	0	5	4
091412	17:33:02	10010	Trial	CongruentLeft	14	203	488	1	112	17:33:02	1939395	4	1	1	1	1	1	1	1	1	6	6	0	0	0	0	5	4
091412	17:33:02	10010	Trial	IncongruentRight	14	205	449	1	112	17:33:02	1940355	4	1	1	1	1	1	1	1	1	6	6	0	0	0	0	5	4
091412	17:33:02	10010	Trial	IncongruentLeft	14	203	460	1	112	17:33:02	1941367	4	1	1	1	1	1	1	1	1	6	6	0	0	0	0	5	4
091412	17:33:02	10010	Trial	IncongruentRight	14	205	369	1	112	17:33:02	1942274	4	1	1	1	1	1	1	1	1	6	6	0	0	0	0	5	4
091412	17:33:02	10010	Trial	CongruentRight	14	205	426	1	112	17:33:02	1943340	4	1	1	1	1	1	1	1	1	6	6	0	0	0	0	5	4
091412	17:33:02	10010	Trial	CongruentRight	14	205	549	1	112	17:33:02	1944473	4	1	1	1	1	1	1	1	1	6	6	0	0	0	0	5	4
091412	17:33:02	10010	Trial	IncongruentLeft	14	203	525	1	112	17:33:02	1945446	4	1	1	1	1	1	1	1	1	6	6	0	0	0	0	5	4
091412	17:33:02	10010	Trial	CongruentLeft	14	203	438	1	112	17:33:02	1946366	4	1	1	1	1	1	1	1	1	6	6	0	0	0	0	5	4
091412	17:33:02	10010	Trial	CongruentRight	14	205	462	1	112	17:33:02	1947378	4	1	1	1	1	1	1	1	1	6	6	0	0	0	0	5	4
091412	17:33:02	10010	Trial	CongruentLeft	14	203	551	1	112	17:33:02	1948471	4	1	1	1	1	1	1	1	1	6	6	0	0	0	0	5	4
091412	17:33:02	10010	Trial	IncongruentRight	14	205	479	1	112	17:33:02	1949404	4	1	1	1	1	1	1	1	1	6	6	0	0	0	0	5	4
091412	17:33:02	10010	Trial	CongruentRight	14	205	471	1	112	17:33:02	1950390	4	1	1	1	1	1	1	1	1	6	6	0	0	0	0	5	4
091412	17:33:02	10010	Trial	CongruentLeft	14	203	528	1	112	17:33:02	1951443	4	1	1	1	1	1	1	1	1	6	6	0	0	0	0	5	4
091412	17:33:02	10010	Trial	IncongruentLeft	14	203	680	1	112	17:33:02	1952603	4	1	1	1	1	1	1	1	1	6	6	0	0	0	0	5	4
091412	17:33:02	10010	Trial	IncongruentLeft	14	203	608	1	112	17:33:02	1953523	4	1	1	1	1	1	1	1	1	6	6	0	0	0	0	5	4
091412	17:33:02	10010	Trial	CongruentRight	14	205	505	1	112	17:33:02	1954429	4	1	1	1	1	1	1	1	1	6	6	0	0	0	0	5	4
091412	17:33:02	10010	Trial	IncongruentRight	14	205	481	1	112	17:33:02	1955402	4	1	1	1	1	1	1	1	1	6	6	0	0	0	0	5	4
091412	17:33:02	10010	Trial	CongruentLeft	14	203	506	1	112	17:33:02	1956428	4	1	1	1	1	1	1	1	1	6	6	0	0	0	0	5	4
091412	17:33:02	10010	Trial	IncongruentRight	14	0	737	0	112	17:33:02	1957641	4	1	1	1	1	1	1	1	1	6	6	0	0	0	0	5	4
091412	17:33:02	10010	Trial	CongruentRight	14	205	554	1	112	17:33:02	1958467	4	1	1	1	1	1	1	1	1	6	6	0	0	0	0	5	4
091412	17:33:02	10010	Trial	IncongruentLeft	14	203	595	1	112	17:33:02	1959507	4	1	1	1	1	1	1	1	1	6	6	0	0	0	0	5	4
091412	17:33:02	10010	Trial	CongruentLeft	14	203	587	1	112	17:33:02	1960506	4	1	1	1	1	1	1	1	1	6	6	0	0	0	0	5	4
091412	17:33:02	10010	Trial	CongruentRight	14	205	502	1	112	17:33:02	1961426	4	1	1	1	1	1	1	1	1	6	6	0	0	0	0	5	4
091412	17:33:02	10010	Trial	IncongruentLeft	14	203	527	1	112	17:33:02	1962452	4	1	1	1	1	1	1	1	1	6	6	0	0	0	0	5	4
091412	17:33:02	10010	Trial	CongruentRight	14	205	535	1	112	17:33:02	1963465	4	1	1	1	1	1	1	1	1	6	6	0	0	0	0	5	4
091412	17:33:02	10010	Trial	CongruentRight	14	205	495	1	112	17:33:02	1964425	4	1	1	1	1	1	1	1	1	6	6	0	0	0	0	5	4
091412	17:33:02	10010	Trial	IncongruentRight	14	205	439	1	112	17:33:02	1965371	4	1	1	1	1	1	1	1	1	6	6	0	0	0	0	5	4
091412	17:33:02	10010	Trial	CongruentLeft	14	203	496	1	112	17:33:02	1966424	4	1	1	1	1	1	1	1	1	6	6	0	0	0	0	5	4
091412	17:33:02	10010	Trial	IncongruentLeft	14	203	424	1	112	17:33:02	1967357	4	1	1	1	1	1	1	1	1	6	6	0	0	0	0	5	4
091412	17:33:02	10010	Trial	CongruentLeft	14	203	481	1	112	17:33:02	1968410	4	1	1	1	1	1	1	1	1	6	6	0	0	0	0	5	4
091412	17:33:02	10010	Trial	IncongruentRight	14	205	457	1	112	17:33:02	1969383	4	1	1	1	1	1	1	1	1	6	6	0	0	0	0	5	4
091412	17:33:02	10010	Trial	IncongruentLeft	14	203	610	1	112	17:33:02	1970529	4	1	1	1	1	1	1	1	1	6	6	0	0	0	0	5	4
091412	17:33:02	10010	Trial	CongruentRight	14	205	410	1	112	17:33:02	1971329	4	1	1	1	1	1	1	1	1	6	6	0	0	0	0	5	4
091412	17:33:02	10010	Trial	CongruentLeft	14	203	498	1	112	17:33:02	1972422	4	1	1	1	1	1	1	1	1	6	6	0	0	0	0	5	4
091412	17:33:02	10010	Trial	IncongruentLeft	14	203	491	1	112	17:33:02	1973408	4	1	1	1	1	1	1	1	1	6	6	0	0	0	0	5	4
091412	17:33:02	10010	Trial	CongruentLeft	14	203	483	1	112	17:33:02	1974407	4	1	1	1	1	1	1	1	1	6	6	0	0	0	0	5	4
091412	17:33:02	10010	Trial	IncongruentRight	14	205	540	1	112	17:33:02	1975460	4	1	1	1	1	1	1	1	1	6	6	0	0	0	0	5	4
091412	17:33:02	10010	Trial	CongruentRight	14	205	532	1	112	17:33:02	1976460	4	1	1	1	1	1	1	1	1	6	6	0	0	0	0	5	4
091412	17:33:02	10010	Trial	IncongruentLeft	14	203	524	1	112	17:33:02	1977446	4	1	1	1	1	1	1	1	1	6	6	0	0	0	0	5	4
091412	17:33:02	10010	Trial	CongruentLeft	14	203	501	1	112	17:33:02	1978419	4	1	1	1	1	1	1	1	1	6	6	0	0	0	0	5	4
091412	17:33:02	10010	Trial	IncongruentRight	14	205	637	1	112	17:33:02	1979552	4	1	1	1	1	1	1	1	1	6	6	0	0	0	0	5	4
091412	17:33:02	10010	Trial	IncongruentLeft	14	203	566	1	112	17:33:02	1980485	4	1	1	1	1	1	1	1	1	6	6	0	0	0	0	5	4
091412	17:33:02	10010	Trial	CongruentLeft	14	203	509	1	112	17:33:02	1981431	4	1	1	1	1	1	1	1	1	6	6	0	0	0	0	5	4
091412	17:33:02	10010	Trial	IncongruentLeft	14	203	470	1	112	17:33:02	1982391	4	1	1	1	1	1	1	1	1	6	6	0	0	0	0	5	4
091412	17:33:02	10010	Trial	CongruentRight	14	205	575	1	112	17:33:02	1983497	4	1	1	1	1	1	1	1	1	6	6	0	0	0	0	5	4
091412	17:33:02	10010	Trial	CongruentLeft	14	203	455	1	112	17:33:02	1984377	4	1	1	1	1	1	1	1	1	6	6	0	0	0	0	5	4
091412	17:33:02	10010	Trial	IncongruentRight	14	205	495	1	112	17:33:02	1985416	4	1	1	1	1	1	1	1	1	6	6	0	0	0	0	5	4
091412	17:33:02	10010	Trial	CongruentLeft	14	203	490	1	112	17:33:02	1986416	4	1	1	1	1	1	1	1	1	6	6	0	0	0	0	5	4
091412	17:33:02	10010	Trial	CongruentRight	14	205	432	1	112	17:33:02	1987349	4	1	1	1	1	1	1	1	1	6	6	0	0	0	0	5	4
091412	17:33:02	10010	Trial	IncongruentLeft	14	203	408	1	112	17:33:02	1988322	4	1	1	1	1	1	1	1	1	6	6	0	0	0	0	5	4
091412	17:33:02	10010	Trial750Eng	IncongruentRight750	15	0	487	0	112	17:33:02	1996745	4	1	1	1	1	1	1	1	1	6	6	0	0	0	0	5	4
091412	17:33:02	10010	Trial750Eng	IncongruentLeft750	15	0	487	0	112	17:33:02	1997505	4	1	1	1	1	1	1	1	1	6	6	0	0	0	0	5	4
091412	17:33:02	10010	Trial750Eng	CongruentRight750	15	205	449	1	112	17:33:02	1998225	4	1	1	1	1	1	1	1	1	6	6	0	0	0	0	5	4
091412	17:33:02	10010	Trial750Eng	IncongruentRight750	15	0	487	0	112	17:33:02	1999011	4	1	1	1	1	1	1	1	1	6	6	0	0	0	0	5	4
091412	17:33:02	10010	Trial750Eng	CongruentLeft750	15	203	431	1	112	17:33:02	1999717	4	1	1	1	1	1	1	1	1	6	6	0	0	0	0	5	4
091412	17:33:02	10010	Trial750Eng	CongruentRight750	15	205	359	1	112	17:33:02	2000410	4	1	1	1	1	1	1	1	1	6	6	0	0	0	0	5	4
091412	17:33:02	10010	Trial750Eng	IncongruentRight750	15	203	349	0	112	17:33:02	2001143	4	1	1	1	1	1	1	1	1	6	6	0	0	0	0	5	4
091412	17:33:02	10010	Trial750Eng	CongruentLeft750	15	203	467	1	112	17:33:02	2002010	4	1	1	1	1	1	1	1	1	6	6	0	0	0	0	5	4
091412	17:33:02	10010	Trial750Eng	IncongruentLeft750	15	0	487	0	112	17:33:02	2002769	4	1	1	1	1	1	1	1	1	6	6	0	0	0	0	5	4
091412	17:33:02	10010	Trial750Eng	IncongruentLeft750	15	0	487	0	112	17:33:02	2003529	4	1	1	1	1	1	1	1	1	6	6	0	0	0	0	5	4
091412	17:33:02	10010	Trial750Eng	CongruentRight750	15	205	441	1	112	17:33:02	2004249	4	1	1	1	1	1	1	1	1	6	6	0	0	0	0	5	4
091412	17:33:02	10010	Trial750Eng	IncongruentRight750	15	0	487	0	112	17:33:02	2005035	4	1	1	1	1	1	1	1	1	6	6	0	0	0	0	5	4
091412	17:33:02	10010	Trial750Eng	CongruentLeft750	15	0	487	0	112	17:33:02	2005795	4	1	1	1	1	1	1	1	1	6	6	0	0	0	0	5	4
091412	17:33:02	10010	Trial750Eng	CongruentRight750	15	205	383	1	112	17:33:02	2006448	4	1	1	1	1	1	1	1	1	6	6	0	0	0	0	5	4
091412	17:33:02	10010	Trial750Eng	IncongruentLeft750	15	0	487	0	112	17:33:02	2007301	4	1	1	1	1	1	1	1	1	6	6	0	0	0	0	5	4
091412	17:33:02	10010	Trial750Eng	IncongruentRight750	15	205	461	1	112	17:33:02	2008034	4	1	1	1	1	1	1	1	1	6	6	0	0	0	0	5	4
091412	17:33:02	10010	Trial750Eng	CongruentRight750	15	205	453	1	112	17:33:02	2008794	4	1	1	1	1	1	1	1	1	6	6	0	0	0	0	5	4
091412	17:33:02	10010	Trial750Eng	CongruentLeft750	15	0	487	0	112	17:33:02	2009566	4	1	1	1	1	1	1	1	1	6	6	0	0	0	0	5	4
091412	17:33:02	10010	Trial750Eng	CongruentRight750	15	205	483	1	112	17:33:02	2010326	4	1	1	1	1	1	1	1	1	6	6	0	0	0	0	5	4
091412	17:33:02	10010	Trial750Eng	IncongruentRight750	15	205	460	1	112	17:33:02	2011059	4	1	1	1	1	1	1	1	1	6	6	0	0	0	0	5	4
091412	17:33:02	10010	Trial750Eng	IncongruentLeft750	15	0	487	0	112	17:33:02	2011833	4	1	1	1	1	1	1	1	1	6	6	0	0	0	0	5	4
091412	17:33:02	10010	Trial750Eng	IncongruentLeft750	15	0	487	0	112	17:33:02	2012592	4	1	1	1	1	1	1	1	1	6	6	0	0	0	0	5	4
091412	17:33:02	10010	Trial750Eng	CongruentLeft750	15	203	466	1	112	17:33:02	2013338	4	1	1	1	1	1	1	1	1	6	6	0	0	0	0	5	4
091412	17:33:02	10010	Trial750Eng	CongruentRight750	15	205	378	1	112	17:33:02	2014005	4	1	1	1	1	1	1	1	1	6	6	0	0	0	0	5	4
091412	17:33:02	10010	Trial750Eng	IncongruentLeft750	15	203	416	1	112	17:33:02	2014791	4	1	1	1	1	1	1	1	1	6	6	0	0	0	0	5	4
091412	17:33:02	10010	Trial750Eng	IncongruentRight750	15	205	453	1	112	17:33:02	2015577	4	1	1	1	1	1	1	1	1	6	6	0	0	0	0	5	4
091412	17:33:02	10010	Trial750Eng	CongruentRight750	15	205	429	1	112	17:33:02	2016311	4	1	1	1	1	1	1	1	1	6	6	0	0	0	0	5	4
091412	17:33:02	10010	Trial750Eng	CongruentLeft750	15	203	467	1	112	17:33:02	2017097	4	1	1	1	1	1	1	1	1	6	6	0	0	0	0	5	4
091412	17:33:02	10010	Trial750Eng	IncongruentRight750	15	205	473	1	112	17:33:02	2017843	4	1	1	1	1	1	1	1	1	6	6	0	0	0	0	5	4
091412	17:33:02	10010	Trial750Eng	IncongruentLeft750	15	203	452	1	112	17:33:02	2018589	4	1	1	1	1	1	1	1	1	6	6	0	0	0	0	5	4
091412	17:33:02	10010	Trial750Eng	IncongruentRight750	15	205	407	1	112	17:33:02	2019283	4	1	1	1	1	1	1	1	1	6	6	0	0	0	0	5	4
091412	17:33:02	10010	Trial750Eng	CongruentRight750	15	205	429	1	112	17:33:02	2020056	4	1	1	1	1	1	1	1	1	6	6	0	0	0	0	5	4
091412	17:33:02	10010	Trial750Eng	IncongruentLeft750	15	203	389	1	112	17:33:02	2020776	4	1	1	1	1	1	1	1	1	6	6	0	0	0	0	5	4
091412	17:33:02	10010	Trial750Eng	CongruentLeft750	15	203	378	1	112	17:33:02	2021508	4	1	1	1	1	1	1	1	1	6	6	0	0	0	0	5	4
091412	17:33:02	10010	Trial750Eng	CongruentRight750	15	205	352	1	112	17:33:02	2022228	4	1	1	1	1	1	1	1	1	6	6	0	0	0	0	5	4
091412	17:33:02	10010	Trial750Eng	IncongruentLeft750	15	203	357	1	112	17:33:02	2022974	4	1	1	1	1	1	1	1	1	6	6	0	0	0	0	5	4
091412	17:33:02	10010	Trial750Eng	IncongruentRight750	15	205	382	1	112	17:33:02	2023761	4	1	1	1	1	1	1	1	1	6	6	0	0	0	0	5	4
091412	17:33:02	10010	Trial750Eng	IncongruentRight750	15	205	387	1	112	17:33:02	2024521	4	1	1	1	1	1	1	1	1	6	6	0	0	0	0	5	4
091412	17:33:02	10010	Trial750Eng	CongruentLeft750	15	203	361	1	112	17:33:02	2025240	4	1	1	1	1	1	1	1	1	6	6	0	0	0	0	5	4
091412	17:33:02	10010	Trial750Eng	IncongruentLeft750	15	203	351	1	112	17:33:02	2025973	4	1	1	1	1	1	1	1	1	6	6	0	0	0	0	5	4
091412	17:33:02	10010	Trial750Eng	CongruentRight750	15	205	359	1	112	17:33:02	2026747	4	1	1	1	1	1	1	1	1	6	6	0	0	0	0	5	4
091412	17:33:02	10010	Trial750Eng	CongruentLeft750	15	203	461	1	112	17:33:02	2027586	4	1	1	1	1	1	1	1	1	6	6	0	0	0	0	5	4
091412	17:33:02	10010	Trial750Eng	IncongruentRight750	15	205	370	1	112	17:33:02	2028239	4	1	1	1	1	1	1	1	1	6	6	0	0	0	0	5	4
091412	17:33:02	10010	Trial750Eng	CongruentRight750	15	205	410	1	112	17:33:02	2029039	4	1	1	1	1	1	1	1	1	6	6	0	0	0	0	5	4
091412	17:33:02	10010	Trial750Eng	IncongruentLeft750	15	203	432	1	112	17:33:02	2029812	4	1	1	1	1	1	1	1	1	6	6	0	0	0	0	5	4
091412	17:33:02	10010	Trial750Eng	CongruentLeft750	15	203	438	1	112	17:33:02	2030571	4	1	1	1	1	1	1	1	1	6	6	0	0	0	0	5	4
091412	17:33:02	10010	Trial750Eng	IncongruentLeft750	15	205	427	0	112	17:33:02	2031304	4	1	1	1	1	1	1	1	1	6	6	0	0	0	0	5	4
091412	17:33:02	10010	Trial750Eng	IncongruentRight750	15	205	467	1	112	17:33:02	2032104	4	1	1	1	1	1	1	1	1	6	6	0	0	0	0	5	4
091412	17:33:02	10010	Trial750Eng	CongruentRight750	15	0	487	0	112	17:33:02	2032864	4	1	1	1	1	1	1	1	1	6	6	0	0	0	0	5	4
091412	17:33:02	10010	Trial750Eng	CongruentLeft750	15	203	433	1	112	17:33:02	2033570	4	1	1	1	1	1	1	1	1	6	6	0	0	0	0	5	4
091412	17:33:02	10010	Trial750Eng	CongruentLeft750	15	203	426	1	112	17:33:02	2034330	4	1	1	1	1	1	1	1	1	6	6	0	0	0	0	5	4
091412	17:33:02	10010	Trial750Eng	IncongruentRight750	15	205	415	1	112	17:33:02	2035063	4	1	1	1	1	1	1	1	1	6	6	0	0	0	0	5	4
091412	17:33:02	10010	Trial750Eng	IncongruentLeft750	15	203	453	1	112	17:33:02	2035849	4	1	1	1	1	1	1	1	1	6	6	0	0	0	0	5	4
091412	17:33:02	10010	Trial750Eng	IncongruentRight750	15	205	429	1	112	17:33:02	2036582	4	1	1	1	1	1	1	1	1	6	6	0	0	0	0	5	4
091412	17:33:02	10010	Trial750Eng	CongruentRight750	15	205	451	1	112	17:33:02	2037355	4	1	1	1	1	1	1	1	1	6	6	0	0	0	0	5	4
091412	17:33:02	10010	Trial750Eng	CongruentRight750	15	205	424	1	112	17:33:02	2038075	4	1	1	1	1	1	1	1	1	6	6	0	0	0	0	5	4
091412	17:33:02	10010	Trial750Eng	IncongruentLeft750	15	203	478	1	112	17:33:02	2038875	4	1	1	1	1	1	1	1	1	6	6	0	0	0	0	5	4
091412	17:33:02	10010	Trial750Eng	CongruentLeft750	15	203	438	1	112	17:33:02	2039594	4	1	1	1	1	1	1	1	1	6	6	0	0	0	0	5	4
091412	17:33:02	10010	Trial750Eng	CongruentRight750	15	205	399	1	112	17:33:02	2040314	4	1	1	1	1	1	1	1	1	6	6	0	0	0	0	5	4
091412	17:33:02	10010	Trial750Eng	CongruentLeft750	15	203	452	1	112	17:33:02	2041114	4	1	1	1	1	1	1	1	1	6	6	0	0	0	0	5	4
091412	17:33:02	10010	Trial750Eng	IncongruentRight750	15	205	458	1	112	17:33:02	2041860	4	1	1	1	1	1	1	1	1	6	6	0	0	0	0	5	4
091412	17:33:02	10010	Trial750Eng	CongruentRight750	15	0	487	0	112	17:33:02	2042633	4	1	1	1	1	1	1	1	1	6	6	0	0	0	0	5	4
091412	17:33:02	10010	Trial750Eng	CongruentLeft750	15	203	424	1	112	17:33:02	2043326	4	1	1	1	1	1	1	1	1	6	6	0	0	0	0	5	4
091412	17:33:02	10010	Trial750Eng	IncongruentLeft750	15	0	487	0	112	17:33:02	2044139	4	1	1	1	1	1	1	1	1	6	6	0	0	0	0	5	4
091412	17:33:02	10010	Trial750Eng	IncongruentLeft750	15	0	487	0	112	17:33:02	2044899	4	1	1	1	1	1	1	1	1	6	6	0	0	0	0	5	4
091412	17:33:02	10010	Trial750Eng	CongruentRight750	15	205	430	1	112	17:33:02	2045605	4	1	1	1	1	1	1	1	1	6	6	0	0	0	0	5	4
091412	17:33:02	10010	Trial750Eng	IncongruentRight750	15	205	422	1	112	17:33:02	2046352	4	1	1	1	1	1	1	1	1	6	6	0	0	0	0	5	4
091412	17:33:02	10010	Trial750Eng	CongruentLeft750	15	203	396	1	112	17:33:02	2047071	4	1	1	1	1	1	1	1	1	6	6	0	0	0	0	5	4
091412	17:33:02	10010	Trial750Eng	IncongruentRight750	15	205	370	1	112	17:33:02	2047791	4	1	1	1	1	1	1	1	1	6	6	0	0	0	0	5	4
091412	17:33:02	10010	Trial750Eng	CongruentRight750	15	205	394	1	112	17:33:02	2048578	4	1	1	1	1	1	1	1	1	6	6	0	0	0	0	5	4
091412	17:33:02	10010	Trial750Eng	IncongruentLeft750	15	203	383	1	112	17:33:02	2049311	4	1	1	1	1	1	1	1	1	6	6	0	0	0	0	5	4
091412	17:33:02	10010	Trial750Eng	CongruentLeft750	15	203	405	1	112	17:33:02	2050084	4	1	1	1	1	1	1	1	1	6	6	0	0	0	0	5	4
091412	17:33:02	10010	Trial750Eng	CongruentRight750	15	205	395	1	112	17:33:02	2050817	4	1	1	1	1	1	1	1	1	6	6	0	0	0	0	5	4
091412	17:33:02	10010	Trial750Eng	IncongruentLeft750	15	0	487	0	112	17:33:02	2051656	4	1	1	1	1	1	1	1	1	6	6	0	0	0	0	5	4
091412	17:33:02	10010	Trial750Eng	CongruentRight750	15	205	392	1	112	17:33:02	2052323	4	1	1	1	1	1	1	1	1	6	6	0	0	0	0	5	4
091412	17:33:02	10010	Trial750Eng	CongruentRight750	15	205	401	1	112	17:33:02	2053096	4	1	1	1	1	1	1	1	1	6	6	0	0	0	0	5	4
091412	17:33:02	10010	Trial750Eng	IncongruentRight750	15	205	406	1	112	17:33:02	2053842	4	1	1	1	1	1	1	1	1	6	6	0	0	0	0	5	4
091412	17:33:02	10010	Trial750Eng	CongruentLeft750	15	0	487	0	112	17:33:02	2054668	4	1	1	1	1	1	1	1	1	6	6	0	0	0	0	5	4
091412	17:33:02	10010	Trial750Eng	IncongruentLeft750	15	203	484	1	112	17:33:02	2055428	4	1	1	1	1	1	1	1	1	6	6	0	0	0	0	5	4
091412	17:33:02	10010	Trial750Eng	CongruentLeft750	15	203	429	1	112	17:33:02	2056134	4	1	1	1	1	1	1	1	1	6	6	0	0	0	0	5	4
091412	17:33:02	10010	Trial750Eng	IncongruentRight750	15	0	487	0	112	17:33:02	2056934	4	1	1	1	1	1	1	1	1	6	6	0	0	0	0	5	4
091412	17:33:02	10010	Trial750Eng	IncongruentLeft750	15	0	487	0	112	17:33:02	2057694	4	1	1	1	1	1	1	1	1	6	6	0	0	0	0	5	4
091412	17:33:02	10010	Trial750Eng	CongruentRight750	15	205	435	1	112	17:33:02	2058400	4	1	1	1	1	1	1	1	1	6	6	0	0	0	0	5	4
091412	17:33:02	10010	Trial750Eng	CongruentLeft750	15	203	427	1	112	17:33:02	2059160	4	1	1	1	1	1	1	1	1	6	6	0	0	0	0	5	4
091412	17:33:02	10010	Trial750Eng	IncongruentLeft750	15	203	401	1	112	17:33:02	2059879	4	1	1	1	1	1	1	1	1	6	6	0	0	0	0	5	4
091412	17:33:02	10010	Trial750Eng	CongruentLeft750	15	203	374	1	112	17:33:02	2060599	4	1	1	1	1	1	1	1	1	6	6	0	0	0	0	5	4
091412	17:33:02	10010	Trial750Eng	IncongruentRight750	15	0	487	0	112	17:33:02	2061452	4	1	1	1	1	1	1	1	1	6	6	0	0	0	0	5	4
091412	17:33:02	10010	Trial750Eng	CongruentRight750	15	205	468	1	112	17:33:02	2062199	4	1	1	1	1	1	1	1	1	6	6	0	0	0	0	5	4
091412	17:33:02	10010	Trial750Eng	IncongruentLeft750	15	0	487	0	112	17:33:02	2062958	4	1	1	1	1	1	1	1	1	6	6	0	0	0	0	5	4
091412	17:33:02	10010	Trial750Eng	CongruentLeft750	15	203	419	1	112	17:33:02	2063651	4	1	1	1	1	1	1	1	1	6	6	0	0	0	0	5	4
091412	17:33:02	10010	Trial750Eng	IncongruentRight750	15	205	474	1	112	17:33:02	2064465	4	1	1	1	1	1	1	1	1	6	6	0	0	0	0	5	4
091412	17:33:02	10010	Trial750Eng	IncongruentLeft750	15	205	448	0	112	17:33:02	2065184	4	1	1	1	1	1	1	1	1	6	6	0	0	0	0	5	4
091412	17:33:02	10010	Trial750Eng	CongruentLeft750	15	0	487	0	112	17:33:02	2065971	4	1	1	1	1	1	1	1	1	6	6	0	0	0	0	5	4
091412	17:33:02	10010	Trial750Eng	IncongruentLeft750	15	0	487	0	112	17:33:02	2066730	4	1	1	1	1	1	1	1	1	6	6	0	0	0	0	5	4
091412	17:33:02	10010	Trial750Eng	CongruentRight750	15	205	454	1	112	17:33:02	2067463	4	1	1	1	1	1	1	1	1	6	6	0	0	0	0	5	4
091412	17:33:02	10010	Trial750Eng	CongruentLeft750	15	203	383	1	112	17:33:02	2068143	4	1	1	1	1	1	1	1	1	6	6	0	0	0	0	5	4
091412	17:33:02	10010	Trial750Eng	IncongruentRight750	15	205	356	1	112	17:33:02	2068863	4	1	1	1	1	1	1	1	1	6	6	0	0	0	0	5	4
091412	17:33:02	10010	Trial750Eng	CongruentLeft750	15	203	394	1	112	17:33:02	2069649	4	1	1	1	1	1	1	1	1	6	6	0	0	0	0	5	4
091412	17:33:02	10010	Trial750Eng	CongruentRight750	15	205	434	1	112	17:33:02	2070449	4	1	1	1	1	1	1	1	1	6	6	0	0	0	0	5	4
091412	17:33:02	10010	Trial750Eng	IncongruentLeft750	15	0	487	0	112	17:33:02	2071235	4	1	1	1	1	1	1	1	1	6	6	0	0	0	0	5	4
091412	17:33:02	10010	WordsAbsEng3mo	PAbsEng3mo1	16	Abs1	3302	0	112	17:33:02	2080698	4	1	1	1	1	1	1	1	1	6	6	0	0	0	0	5	4
091412	17:33:02	10010	WordsAbsEng3mo	AbsEng3mo1	16	Abs1	2798	0	112	17:33:02	2083537	4	1	1	1	1	1	1	1	1	6	6	1	0	0	0	5	4
091412	17:33:02	10010	WordsAbsEng3mo	AbsEng3mo2	16	Abs1	28038	0	112	17:33:02	2111619	4	1	1	1	1	1	1	1	1	6	6	2	0	0	0	5	4
091412	17:33:02	10010	WordsAbsEng3mo	AbsEng3mo3	16	Abs1	6244	0	112	17:33:02	2117896	4	1	1	1	1	1	1	1	1	6	6	3	0	0	0	5	4
091412	17:33:02	10010	Trial2BackEngS	NS	17	0	1000	1	112	17:33:02	2164357	4	1	1	1	1	1	1	1	1	6	6	3	0	0	0	5	4
091412	17:33:02	10010	Trial2BackEngS	NS	17	0	1000	1	112	17:33:02	2165877	4	1	1	1	1	1	1	1	1	6	6	3	0	0	0	5	4
091412	17:33:02	10010	Trial2BackEngS	NS	17	0	1000	1	112	17:33:02	2167396	4	1	1	1	1	1	1	1	1	6	6	3	0	0	0	5	4
091412	17:33:02	10010	Trial2BackEngS	YS	17	0	1000	0	112	17:33:02	2168915	4	1	1	1	1	1	1	1	1	6	6	3	0	0	0	5	4
091412	17:33:02	10010	Trial2BackEngS	NS	17	0	1000	1	112	17:33:02	2170435	4	1	1	1	1	1	1	1	1	6	6	3	0	0	0	5	4
091412	17:33:02	10010	Trial2BackEngS	NS	17	57	831	0	112	17:33:02	2171794	4	1	1	1	1	1	1	1	1	6	6	3	0	0	0	5	4
091412	17:33:02	10010	Trial2BackEngS	NS	17	0	1000	1	112	17:33:02	2173460	4	1	1	1	1	1	1	1	1	6	6	3	0	0	0	5	4
091412	17:33:02	10010	Trial2BackEngS	NS	17	0	1000	1	112	17:33:02	2174980	4	1	1	1	1	1	1	1	1	6	6	3	0	0	0	5	4
091412	17:33:02	10010	Trial2BackEngS	YS	17	57	622	1	112	17:33:02	2176126	4	1	1	1	1	1	1	1	1	6	6	3	0	0	0	5	4
091412	17:33:02	10010	Trial2BackEngS	NS	17	0	1000	1	112	17:33:02	2178005	4	1	1	1	1	1	1	1	1	6	6	3	0	0	0	5	4
091412	17:33:02	10010	Trial2BackEngS	NS	17	0	1000	1	112	17:33:02	2179525	4	1	1	1	1	1	1	1	1	6	6	3	0	0	0	5	4
091412	17:33:02	10010	Trial2BackEngS	YS	17	0	1000	0	112	17:33:02	2181044	4	1	1	1	1	1	1	1	1	6	6	3	0	0	0	5	4
091412	17:33:02	10010	Trial2BackEngS	NS	17	0	1000	1	112	17:33:02	2182563	4	1	1	1	1	1	1	1	1	6	6	3	0	0	0	5	4
091412	17:33:02	10010	Trial2BackEngS	NS	17	0	1000	1	112	17:33:02	2184083	4	1	1	1	1	1	1	1	1	6	6	3	0	0	0	5	4
091412	17:33:02	10010	Trial2BackEngS	NS	17	0	1000	1	112	17:33:02	2185602	4	1	1	1	1	1	1	1	1	6	6	3	0	0	0	5	4
091412	17:33:02	10010	Trial2BackEngS	YS	17	57	927	1	112	17:33:02	2187055	4	1	1	1	1	1	1	1	1	6	6	3	0	0	0	5	4
091412	17:33:02	10010	Trial2BackEngS	NS	17	0	1000	1	112	17:33:02	2188628	4	1	1	1	1	1	1	1	1	6	6	3	0	0	0	5	4
091412	17:33:02	10010	Trial2BackEngS	NS	17	0	1000	1	112	17:33:02	2190147	4	1	1	1	1	1	1	1	1	6	6	3	0	0	0	5	4
091412	17:33:02	10010	Trial2BackEngS	NS	17	0	1000	1	112	17:33:02	2191666	4	1	1	1	1	1	1	1	1	6	6	3	0	0	0	5	4
091412	17:33:02	10010	Trial2BackEngS	NS	17	0	1000	1	112	17:33:02	2193186	4	1	1	1	1	1	1	1	1	6	6	3	0	0	0	5	4
091412	17:33:02	10010	Trial2BackEngS	YS	17	57	672	1	112	17:33:02	2194385	4	1	1	1	1	1	1	1	1	6	6	3	0	0	0	5	4
091412	17:33:02	10010	Trial2BackEngS	NS	17	0	1000	1	112	17:33:02	2196211	4	1	1	1	1	1	1	1	1	6	6	3	0	0	0	5	4
091412	17:33:02	10010	Trial2BackEngS	NS	17	0	1000	1	112	17:33:02	2197731	4	1	1	1	1	1	1	1	1	6	6	3	0	0	0	5	4
091412	17:33:02	10010	Trial2BackEngS	NS	17	0	1000	1	112	17:33:02	2199250	4	1	1	1	1	1	1	1	1	6	6	3	0	0	0	5	4
091412	17:33:02	10010	Trial2BackEngS	NS	17	0	1000	1	112	17:33:02	2200769	4	1	1	1	1	1	1	1	1	6	6	3	0	0	0	5	4
091412	17:33:02	10010	Trial2BackEngS	NS	17	57	592	0	112	17:33:02	2201889	4	1	1	1	1	1	1	1	1	6	6	3	0	0	0	5	4
091412	17:33:02	10010	Trial2BackEngS	NS	17	0	1000	1	112	17:33:02	2203795	4	1	1	1	1	1	1	1	1	6	6	3	0	0	0	5	4
091412	17:33:02	10010	Trial2BackEngS	NS	17	0	1000	1	112	17:33:02	2205314	4	1	1	1	1	1	1	1	1	6	6	3	0	0	0	5	4
091412	17:33:02	10010	Trial2BackEngS	NS	17	0	1000	1	112	17:33:02	2206833	4	1	1	1	1	1	1	1	1	6	6	3	0	0	0	5	4
091412	17:33:02	10010	Trial2BackEngS	NS	17	0	1000	1	112	17:33:02	2208353	4	1	1	1	1	1	1	1	1	6	6	3	0	0	0	5	4
091412	17:33:02	10010	Trial2BackEngS	NS	17	0	1000	1	112	17:33:02	2209872	4	1	1	1	1	1	1	1	1	6	6	3	0	0	0	5	4
091412	17:33:02	10010	Trial2BackEngS	YS	17	57	945	1	112	17:33:02	2211338	4	1	1	1	1	1	1	1	1	6	6	3	0	0	0	5	4
091412	17:33:02	10010	Trial2BackEngS	NS	17	0	1000	1	112	17:33:02	2212898	4	1	1	1	1	1	1	1	1	6	6	3	0	0	0	5	4
091412	17:33:02	10010	Trial2BackEngS	NS	17	0	1000	1	112	17:33:02	2214417	4	1	1	1	1	1	1	1	1	6	6	3	0	0	0	5	4
091412	17:33:02	10010	Trial2BackEngS	NS	17	0	1000	1	112	17:33:02	2215936	4	1	1	1	1	1	1	1	1	6	6	3	0	0	0	5	4
091412	17:33:02	10010	Trial2BackEngS	YS	17	0	1000	0	112	17:33:02	2217456	4	1	1	1	1	1	1	1	1	6	6	3	0	0	0	5	4
091412	17:33:02	10010	Trial2BackEngS	NS	17	0	1000	1	112	17:33:02	2218975	4	1	1	1	1	1	1	1	1	6	6	3	0	0	0	5	4
091412	17:33:02	10010	Trial2BackEngS	NS	17	0	1000	1	112	17:33:02	2220495	4	1	1	1	1	1	1	1	1	6	6	3	0	0	0	5	4
091412	17:33:02	10010	Trial2BackEngS	NS	17	0	1000	1	112	17:33:02	2222014	4	1	1	1	1	1	1	1	1	6	6	3	0	0	0	5	4
091412	17:33:02	10010	Trial2BackEngS	NS	17	0	1000	1	112	17:33:02	2223533	4	1	1	1	1	1	1	1	1	6	6	3	0	0	0	5	4
091412	17:33:02	10010	Trial2BackEngS	NS	17	57	531	0	112	17:33:02	2224586	4	1	1	1	1	1	1	1	1	6	6	3	0	0	0	5	4
091412	17:33:02	10010	Trial2BackEngS	NS	17	0	1000	1	112	17:33:02	2226559	4	1	1	1	1	1	1	1	1	6	6	3	0	0	0	5	4
091412	17:33:02	10010	Trial2BackEngS	NS	17	0	1000	1	112	17:33:02	2228078	4	1	1	1	1	1	1	1	1	6	6	3	0	0	0	5	4
091412	17:33:02	10010	Trial2BackEngS	YS	17	0	1000	0	112	17:33:02	2229598	4	1	1	1	1	1	1	1	1	6	6	3	0	0	0	5	4
091412	17:33:02	10010	Trial2BackEngS	NS	17	0	1000	1	112	17:33:02	2231117	4	1	1	1	1	1	1	1	1	6	6	3	0	0	0	5	4
091412	17:33:02	10010	Trial2BackEngS	NS	17	57	484	0	112	17:33:02	2232130	4	1	1	1	1	1	1	1	1	6	6	3	0	0	0	5	4
091412	17:33:02	10010	Trial2BackEngS	NS	17	0	1000	1	112	17:33:02	2234142	4	1	1	1	1	1	1	1	1	6	6	3	0	0	0	5	4
091412	17:33:02	10010	Trial2BackEngS	NS	17	0	1000	1	112	17:33:02	2235662	4	1	1	1	1	1	1	1	1	6	6	3	0	0	0	5	4
091412	17:33:02	10010	Trial2BackEngS	YS	17	0	1000	0	112	17:33:02	2237181	4	1	1	1	1	1	1	1	1	6	6	3	0	0	0	5	4
091412	17:33:02	10010	Trial2BackEngS	NS	17	0	1000	1	112	17:33:02	2238701	4	1	1	1	1	1	1	1	1	6	6	3	0	0	0	5	4
091412	17:33:02	10010	Trial2BackEngS	NS	17	0	1000	1	112	17:33:02	2240220	4	1	1	1	1	1	1	1	1	6	6	3	0	0	0	5	4
091412	17:33:02	10010	Trial2BackEngS	NS	17	0	1000	1	112	17:33:02	2241739	4	1	1	1	1	1	1	1	1	6	6	3	0	0	0	5	4
091412	17:33:02	10010	Trial2BackEngS	NS	17	0	1000	1	112	17:33:02	2243259	4	1	1	1	1	1	1	1	1	6	6	3	0	0	0	5	4
091412	17:33:02	10010	Trial2BackEngS	NS	17	0	1000	1	112	17:33:02	2244778	4	1	1	1	1	1	1	1	1	6	6	3	0	0	0	5	4
091412	17:33:02	10010	Trial2BackEngS	NS	17	0	1000	1	112	17:33:02	2246298	4	1	1	1	1	1	1	1	1	6	6	3	0	0	0	5	4
091412	17:33:02	10010	Trial2BackEngS	YS	17	0	1000	0	112	17:33:02	2247817	4	1	1	1	1	1	1	1	1	6	6	3	0	0	0	5	4
091412	17:33:02	10010	Trial2BackEngS	NS	17	0	1000	1	112	17:33:02	2249336	4	1	1	1	1	1	1	1	1	6	6	3	0	0	0	5	4
091412	17:33:02	10010	Trial2BackEngS	NS	17	0	1000	1	112	17:33:02	2250856	4	1	1	1	1	1	1	1	1	6	6	3	0	0	0	5	4
091412	17:33:02	10010	Trial2BackEngS	NS	17	0	1000	1	112	17:33:02	2252375	4	1	1	1	1	1	1	1	1	6	6	3	0	0	0	5	4
091412	17:33:02	10010	Trial2BackEngS	NS	17	0	1000	1	112	17:33:02	2253894	4	1	1	1	1	1	1	1	1	6	6	3	0	0	0	5	4
091412	17:33:02	10010	Trial2BackEngS	NS	17	0	1000	1	112	17:33:02	2255414	4	1	1	1	1	1	1	1	1	6	6	3	0	0	0	5	4
091412	17:33:02	10010	Trial2BackEngS	NS	17	0	1000	1	112	17:33:02	2256933	4	1	1	1	1	1	1	1	1	6	6	3	0	0	0	5	4
091412	17:33:02	10010	Trial2BackEngS	NS	17	0	1000	1	112	17:33:02	2258453	4	1	1	1	1	1	1	1	1	6	6	3	0	0	0	5	4
091412	17:33:02	10010	Trial2BackEngS	YS	17	0	1000	0	112	17:33:02	2259972	4	1	1	1	1	1	1	1	1	6	6	3	0	0	0	5	4
091412	17:33:02	10010	Trial2BackEngS	NS	17	0	1000	1	112	17:33:02	2261491	4	1	1	1	1	1	1	1	1	6	6	3	0	0	0	5	4
091412	17:33:02	10010	Trial2BackEngS	NS	17	0	1000	1	112	17:33:02	2263011	4	1	1	1	1	1	1	1	1	6	6	3	0	0	0	5	4
091412	17:33:02	10010	Trial2BackEngS	NS	17	0	1000	1	112	17:33:02	2264530	4	1	1	1	1	1	1	1	1	6	6	3	0	0	0	5	4
091412	17:33:02	10010	Trial2BackEngS	NS	17	0	1000	1	112	17:33:02	2266050	4	1	1	1	1	1	1	1	1	6	6	3	0	0	0	5	4
091412	17:33:02	10010	Trial2BackEngS	YS	17	0	1000	0	112	17:33:02	2267569	4	1	1	1	1	1	1	1	1	6	6	3	0	0	0	5	4
091412	17:33:02	10010	Trial2BackEngS	NS	17	0	1000	1	112	17:33:02	2269088	4	1	1	1	1	1	1	1	1	6	6	3	0	0	0	5	4
091412	17:33:02	10010	Trial2BackEngS	NS	17	0	1000	1	112	17:33:02	2270608	4	1	1	1	1	1	1	1	1	6	6	3	0	0	0	5	4
091412	17:33:02	10010	Trial2BackEngS	YS	17	0	1000	0	112	17:33:02	2272127	4	1	1	1	1	1	1	1	1	6	6	3	0	0	0	5	4
091412	17:33:02	10010	Trial2BackEngS	NS	17	0	1000	1	112	17:33:02	2273647	4	1	1	1	1	1	1	1	1	6	6	3	0	0	0	5	4
091412	17:33:02	10010	Trial2BackEngS	NS	17	0	1000	1	112	17:33:02	2275166	4	1	1	1	1	1	1	1	1	6	6	3	0	0	0	5	4
091412	17:33:02	10010	Trial2BackEngS	NS	17	0	1000	1	112	17:33:02	2276685	4	1	1	1	1	1	1	1	1	6	6	3	0	0	0	5	4
091412	17:33:02	10010	Trial2BackEngS	NS	17	0	1000	1	112	17:33:02	2278205	4	1	1	1	1	1	1	1	1	6	6	3	0	0	0	5	4
091412	17:33:02	10010	Trial2BackEngS	NS	17	0	1000	1	112	17:33:02	2279724	4	1	1	1	1	1	1	1	1	6	6	3	0	0	0	5	4
091412	17:33:02	10010	Trial2BackEngS	NS	17	57	675	0	112	17:33:02	2280924	4	1	1	1	1	1	1	1	1	6	6	3	0	0	0	5	4
091412	17:33:02	10010	Trial2BackEngS	YS	17	0	1000	0	112	17:33:02	2282749	4	1	1	1	1	1	1	1	1	6	6	3	0	0	0	5	4
091412	17:33:02	10010	Trial2BackEngS	NS	17	0	1000	1	112	17:33:02	2284269	4	1	1	1	1	1	1	1	1	6	6	3	0	0	0	5	4
091412	17:33:02	10010	Trial2BackEngS	NS	17	0	1000	1	112	17:33:02	2285788	4	1	1	1	1	1	1	1	1	6	6	3	0	0	0	5	4
091412	17:33:02	10010	Trial2BackEngS	NS	17	0	1000	1	112	17:33:02	2287308	4	1	1	1	1	1	1	1	1	6	6	3	0	0	0	5	4
091412	17:33:02	10010	Trial2BackEngS	NS	17	0	1000	1	112	17:33:02	2288827	4	1	1	1	1	1	1	1	1	6	6	3	0	0	0	5	4
091412	17:33:02	10010	Trial2BackEngS	YS	17	0	1000	0	112	17:33:02	2290346	4	1	1	1	1	1	1	1	1	6	6	3	0	0	0	5	4
091412	17:33:02	10010	Trial2BackEngS	NS	17	57	485	0	112	17:33:02	2291359	4	1	1	1	1	1	1	1	1	6	6	3	0	0	0	5	4
091412	17:33:02	10010	Trial2BackEngS	NS	17	0	1000	1	112	17:33:02	2293372	4	1	1	1	1	1	1	1	1	6	6	3	0	0	0	5	4
091412	17:33:02	10010	Trial2BackEngS	NS	17	0	1000	1	112	17:33:02	2294891	4	1	1	1	1	1	1	1	1	6	6	3	0	0	0	5	4
091412	17:33:02	10010	Trial2BackEngS	NS	17	0	1000	1	112	17:33:02	2296411	4	1	1	1	1	1	1	1	1	6	6	3	0	0	0	5	4
091412	17:33:02	10010	Trial2BackEngS	YS	17	0	1000	0	112	17:33:02	2297930	4	1	1	1	1	1	1	1	1	6	6	3	0	0	0	5	4
091412	17:33:02	10010	Trial2BackEngS	NS	17	0	1000	1	112	17:33:02	2299449	4	1	1	1	1	1	1	1	1	6	6	3	0	0	0	5	4
091412	17:33:02	10010	Trial2BackEngS	NS	17	0	1000	1	112	17:33:02	2300969	4	1	1	1	1	1	1	1	1	6	6	3	0	0	0	5	4
091412	17:33:02	10010	Trial2BackEngS	YS	17	0	1000	0	112	17:33:02	2302488	4	1	1	1	1	1	1	1	1	6	6	3	0	0	0	5	4
091412	17:33:02	10010	Trial2BackEngS	NS	17	0	1000	1	112	17:33:02	2304008	4	1	1	1	1	1	1	1	1	6	6	3	0	0	0	5	4
091412	17:33:02	10010	Trial2BackEngS	NS	17	0	1000	1	112	17:33:02	2305527	4	1	1	1	1	1	1	1	1	6	6	3	0	0	0	5	4
091412	17:33:02	10010	Trial2BackEngS	NS	17	0	1000	1	112	17:33:02	2307046	4	1	1	1	1	1	1	1	1	6	6	3	0	0	0	5	4
091412	17:33:02	10010	Trial2BackEngS	NS	17	0	1000	1	112	17:33:02	2308566	4	1	1	1	1	1	1	1	1	6	6	3	0	0	0	5	4
091412	17:33:02	10010	Trial2BackEngS	NS	17	0	1000	1	112	17:33:02	2310085	4	1	1	1	1	1	1	1	1	6	6	3	0	0	0	5	4
091412	17:33:02	10010	Trial2BackEngS	NS	17	57	794	0	112	17:33:02	2311405	4	1	1	1	1	1	1	1	1	6	6	3	0	0	0	5	4
091412	17:33:02	10010	Trial2BackEngS	NS	17	0	1000	1	112	17:33:02	2313111	4	1	1	1	1	1	1	1	1	6	6	3	0	0	0	5	4
091412	17:33:02	10010	Trial2BackEngS	NS	17	0	1000	1	112	17:33:02	2314630	4	1	1	1	1	1	1	1	1	6	6	3	0	0	0	5	4
091412	17:33:02	10010	Trial2BackEngS	YS	17	0	1000	0	112	17:33:02	2316149	4	1	1	1	1	1	1	1	1	6	6	3	0	0	0	5	4
091412	17:33:02	10010	Trial2BackEngS	NS	17	0	1000	1	112	17:33:02	2317669	4	1	1	1	1	1	1	1	1	6	6	3	0	0	0	5	4
091412	17:33:02	10010	Trial2BackEngS	NS	17	0	1000	1	112	17:33:02	2319188	4	1	1	1	1	1	1	1	1	6	6	3	0	0	0	5	4
091412	17:33:02	10010	Trial2BackEngS	NS	17	57	730	0	112	17:33:02	2320441	4	1	1	1	1	1	1	1	1	6	6	3	0	0	0	5	4
091412	17:33:02	10010	Trial2BackEngS	NS	17	0	1000	1	112	17:33:02	2322214	4	1	1	1	1	1	1	1	1	6	6	3	0	0	0	5	4
091412	17:33:02	10010	Trial2BackEngS	NS	17	0	1000	1	112	17:33:02	2323733	4	1	1	1	1	1	1	1	1	6	6	3	0	0	0	5	4
091412	17:33:02	10010	Trial2BackEngS	NS	17	0	1000	1	112	17:33:02	2325252	4	1	1	1	1	1	1	1	1	6	6	3	0	0	0	5	4
091412	17:33:02	10010	Trial2BackEngS	NS	17	0	1000	1	112	17:33:02	2326772	4	1	1	1	1	1	1	1	1	6	6	3	0	0	0	5	4
091412	17:33:02	10010	Trial2BackEngS	YS	17	57	843	1	112	17:33:02	2328144	4	1	1	1	1	1	1	1	1	6	6	3	0	0	0	5	4
091412	17:33:02	10010	Trial2BackEngS	NS	17	0	1000	1	112	17:33:02	2329797	4	1	1	1	1	1	1	1	1	6	6	3	0	0	0	5	4
091412	17:33:02	10010	Trial2BackEngS	NS	17	0	1000	1	112	17:33:02	2331316	4	1	1	1	1	1	1	1	1	6	6	3	0	0	0	5	4
091412	17:33:02	10010	Trial2BackEngS	NS	17	0	1000	1	112	17:33:02	2332836	4	1	1	1	1	1	1	1	1	6	6	3	0	0	0	5	4
091412	17:33:02	10010	Trial2BackEngS	NS	17	0	1000	1	112	17:33:02	2334355	4	1	1	1	1	1	1	1	1	6	6	3	0	0	0	5	4
091412	17:33:02	10010	Trial2BackEngS	NS	17	0	1000	1	112	17:33:02	2335875	4	1	1	1	1	1	1	1	1	6	6	3	0	0	0	5	4
091412	17:33:02	10010	Trial2BackEngS	NS	17	0	1000	1	112	17:33:02	2337394	4	1	1	1	1	1	1	1	1	6	6	3	0	0	0	5	4
091412	17:33:02	10010	Trial2BackEngS	NS	17	0	1000	1	112	17:33:02	2338913	4	1	1	1	1	1	1	1	1	6	6	3	0	0	0	5	4
091412	17:33:02	10010	Trial2BackEngS	NS	17	57	605	0	112	17:33:02	2340046	4	1	1	1	1	1	1	1	1	6	6	3	0	0	0	5	4
091412	17:33:02	10010	Trial2BackEngS	NS	17	0	1000	1	112	17:33:02	2341939	4	1	1	1	1	1	1	1	1	6	6	3	0	0	0	5	4
091412	17:33:02	10010	Trial2BackEngS	YS	17	0	1000	0	112	17:33:02	2343458	4	1	1	1	1	1	1	1	1	6	6	3	0	0	0	5	4
091412	17:33:02	10010	Trial2BackEngS	NS	17	0	1000	1	112	17:33:02	2344978	4	1	1	1	1	1	1	1	1	6	6	3	0	0	0	5	4
091412	17:33:02	10010	ClockEng3mo	ClockEng3mo	19	Clock1	50483	0	112	17:33:02	2395571	4	1	1	1	1	1	1	1	1	6	6	3	1	0	0	5	4
091412	17:33:02	10010	ClockEng3mo	ClockEng3mo	19	Clock11	661	0	112	17:33:02	2396277	4	1	1	1	1	1	1	1	1	6	6	3	1	1	0	5	4
091412	17:33:02	10010	ClockEng3mo	ClockEng3mo	19	Clock111	603	0	112	17:33:02	2396917	4	1	1	1	1	1	1	1	1	6	6	3	1	1	1	5	4
091412	17:33:02	10010	ClockEng3mo	ClockEng3mo	19	Clockdone	539	0	112	17:33:02	2397490	4	1	1	1	1	1	1	1	1	6	6	3	1	1	1	5	4
091412	17:33:02	10010	FASEngVF3mo	StopEngVF3mo	20	6	267184	0	112	17:33:02	2761758	4	1	1	1	1	1	1	1	1	6	6	3	1	1	1	5	4
