date	time	subject	blockcode	trialcode	values.TaskNumber	response	latency	correct	values.Score	script.starttime	script.elapsedtime	values.ScoreS7	values.Word1	values.Word2	values.Word3	values.Word4	values.Word5	values.Word6	values.Word7	values.Word8	values.DigitSpanFwrd	values.DigitSpanBack	values.ScoreAbs	values.Contour	values.Numbers	values.Hands	values.corsiblockspanFwrd	values.corsiblockspanRev
070412	12:11:26	10021	Language	Language	0	French	2015949	0	0	12:11:26	2016288	0	0	0	0	0	0	0	0	0	0	0	0	0	0	0	0	0
070412	12:11:26	10021	Session	Session	0	Baseline	907	0	0	12:11:26	2017273	0	0	0	0	0	0	0	0	0	0	0	0	0	0	0	0	0
070412	12:11:26	10021	HandFr	HandFr	0	RightFr	6560	0	0	12:11:26	2023910	0	0	0	0	0	0	0	0	0	0	0	0	0	0	0	0	0
070412	12:11:26	10021	AudioCheckFr	WordsFr	0	0	0	0	0	12:11:26	2084903	0	0	0	0	0	0	0	0	0	0	0	0	0	0	0	0	0
070412	12:11:26	10021	CubeFr	CubeFr	1	1Cube	80988	0	0	12:11:26	2168400	0	0	0	0	0	0	0	0	0	0	0	0	0	0	0	0	0
070412	12:11:26	10021	pm.simpleFrRight	blank.simpleFr	2	0	1587	1	0	12:11:26	2222619	0	0	0	0	0	0	0	0	0	0	0	0	0	0	0	0	0
070412	12:11:26	10021	pm.simpleFrRight	pm.simpleFr	2	57	1422	0	0	12:11:26	2224071	0	0	0	0	0	0	0	0	0	0	0	0	0	0	0	0	0
070412	12:11:26	10021	pm.simpleFrRight	blank.simpleFr	2	0	2087	1	0	12:11:26	2226190	0	0	0	0	0	0	0	0	0	0	0	0	0	0	0	0	0
070412	12:11:26	10021	pm.simpleFrRight	pm.simpleFr	2	57	1066	0	0	12:11:26	2227297	0	0	0	0	0	0	0	0	0	0	0	0	0	0	0	0	0
070412	12:11:26	10021	pm.simpleFrRight	blank.simpleFr	2	0	1487	1	0	12:11:26	2228816	0	0	0	0	0	0	0	0	0	0	0	0	0	0	0	0	0
070412	12:11:26	10021	pm.simpleFrRight	pm.simpleFr	2	57	632	0	0	12:11:26	2229482	0	0	0	0	0	0	0	0	0	0	0	0	0	0	0	0	0
070412	12:11:26	10021	pm.simpleFrRight	blank.simpleFr	2	0	1987	1	0	12:11:26	2231495	0	0	0	0	0	0	0	0	0	0	0	0	0	0	0	0	0
070412	12:11:26	10021	pm.simpleFrRight	pm.simpleFr	2	57	642	0	0	12:11:26	2232175	0	0	0	0	0	0	0	0	0	0	0	0	0	0	0	0	0
070412	12:11:26	10021	pm.simpleFrRight	blank.simpleFr	2	0	1787	1	0	12:11:26	2233987	0	0	0	0	0	0	0	0	0	0	0	0	0	0	0	0	0
070412	12:11:26	10021	pm.simpleFrRight	pm.simpleFr	2	57	597	0	0	12:11:26	2234613	0	0	0	0	0	0	0	0	0	0	0	0	0	0	0	0	0
070412	12:11:26	10021	pm.simpleFrRight	blank.simpleFr	2	0	2387	1	0	12:11:26	2237026	0	0	0	0	0	0	0	0	0	0	0	0	0	0	0	0	0
070412	12:11:26	10021	pm.simpleFrRight	pm.simpleFr	2	57	486	0	0	12:11:26	2237546	0	0	0	0	0	0	0	0	0	0	0	0	0	0	0	0	0
070412	12:11:26	10021	pm.simpleFrRight	blank.simpleFr	2	0	1687	1	0	12:11:26	2239265	0	0	0	0	0	0	0	0	0	0	0	0	0	0	0	0	0
070412	12:11:26	10021	pm.simpleFrRight	pm.simpleFr	2	57	487	0	0	12:11:26	2239785	0	0	0	0	0	0	0	0	0	0	0	0	0	0	0	0	0
070412	12:11:26	10021	pm.simpleFrRight	blank.simpleFr	2	0	2187	1	0	12:11:26	2241998	0	0	0	0	0	0	0	0	0	0	0	0	0	0	0	0	0
070412	12:11:26	10021	pm.simpleFrRight	pm.simpleFr	2	57	475	0	0	12:11:26	2242504	0	0	0	0	0	0	0	0	0	0	0	0	0	0	0	0	0
070412	12:11:26	10021	pm.simpleFrRight	blank.simpleFr	2	0	2287	1	0	12:11:26	2244823	0	0	0	0	0	0	0	0	0	0	0	0	0	0	0	0	0
070412	12:11:26	10021	pm.simpleFrRight	pm.simpleFr	2	57	481	0	0	12:11:26	2245343	0	0	0	0	0	0	0	0	0	0	0	0	0	0	0	0	0
070412	12:11:26	10021	pm.simpleFrRight	blank.simpleFr	2	0	2487	1	0	12:11:26	2247862	0	0	0	0	0	0	0	0	0	0	0	0	0	0	0	0	0
070412	12:11:26	10021	pm.simpleFrRight	pm.simpleFr	2	57	546	0	0	12:11:26	2248448	0	0	0	0	0	0	0	0	0	0	0	0	0	0	0	0	0
070412	12:11:26	10021	pm.simpleFrRight	blank.simpleFr	2	0	1887	1	0	12:11:26	2250367	0	0	0	0	0	0	0	0	0	0	0	0	0	0	0	0	0
070412	12:11:26	10021	pm.simpleFrRight	pm.simpleFr	2	57	569	0	0	12:11:26	2250967	0	0	0	0	0	0	0	0	0	0	0	0	0	0	0	0	0
070412	12:11:26	10021	pm.simpleFrRight	blank.simpleFr	2	0	2487	1	0	12:11:26	2253486	0	0	0	0	0	0	0	0	0	0	0	0	0	0	0	0	0
070412	12:11:26	10021	pm.simpleFrRight	pm.simpleFr	2	57	522	0	0	12:11:26	2254046	0	0	0	0	0	0	0	0	0	0	0	0	0	0	0	0	0
070412	12:11:26	10021	pm.simpleFrRight	blank.simpleFr	2	0	1487	1	0	12:11:26	2255552	0	0	0	0	0	0	0	0	0	0	0	0	0	0	0	0	0
070412	12:11:26	10021	pm.simpleFrRight	pm.simpleFr	2	57	616	0	0	12:11:26	2256205	0	0	0	0	0	0	0	0	0	0	0	0	0	0	0	0	0
070412	12:11:26	10021	pm.simpleFrRight	blank.simpleFr	2	0	1887	1	0	12:11:26	2258111	0	0	0	0	0	0	0	0	0	0	0	0	0	0	0	0	0
070412	12:11:26	10021	pm.simpleFrRight	pm.simpleFr	2	57	441	0	0	12:11:26	2258591	0	0	0	0	0	0	0	0	0	0	0	0	0	0	0	0	0
070412	12:11:26	10021	pm.simpleFrRight	blank.simpleFr	2	0	2087	1	0	12:11:26	2260697	0	0	0	0	0	0	0	0	0	0	0	0	0	0	0	0	0
070412	12:11:26	10021	pm.simpleFrRight	pm.simpleFr	2	57	479	0	0	12:11:26	2261216	0	0	0	0	0	0	0	0	0	0	0	0	0	0	0	0	0
070412	12:11:26	10021	pm.simpleFrRight	blank.simpleFr	2	0	2287	1	0	12:11:26	2263536	0	0	0	0	0	0	0	0	0	0	0	0	0	0	0	0	0
070412	12:11:26	10021	pm.simpleFrRight	pm.simpleFr	2	57	536	0	0	12:11:26	2264109	0	0	0	0	0	0	0	0	0	0	0	0	0	0	0	0	0
070412	12:11:26	10021	pm.simpleFrRight	blank.simpleFr	2	0	2187	1	0	12:11:26	2266321	0	0	0	0	0	0	0	0	0	0	0	0	0	0	0	0	0
070412	12:11:26	10021	pm.simpleFrRight	pm.simpleFr	2	57	535	0	0	12:11:26	2266894	0	0	0	0	0	0	0	0	0	0	0	0	0	0	0	0	0
070412	12:11:26	10021	pm.simpleFrRight	blank.simpleFr	2	0	1987	1	0	12:11:26	2268907	0	0	0	0	0	0	0	0	0	0	0	0	0	0	0	0	0
070412	12:11:26	10021	pm.simpleFrRight	pm.simpleFr	2	57	541	0	0	12:11:26	2269480	0	0	0	0	0	0	0	0	0	0	0	0	0	0	0	0	0
070412	12:11:26	10021	pm.simpleFrRight	blank.simpleFr	2	0	1687	1	0	12:11:26	2271186	0	0	0	0	0	0	0	0	0	0	0	0	0	0	0	0	0
070412	12:11:26	10021	pm.simpleFrRight	pm.simpleFr	2	57	566	0	0	12:11:26	2271786	0	0	0	0	0	0	0	0	0	0	0	0	0	0	0	0	0
070412	12:11:26	10021	pm.simpleFrRight	blank.simpleFr	2	0	1787	1	0	12:11:26	2273598	0	0	0	0	0	0	0	0	0	0	0	0	0	0	0	0	0
070412	12:11:26	10021	pm.simpleFrRight	pm.simpleFr	2	57	569	0	0	12:11:26	2274198	0	0	0	0	0	0	0	0	0	0	0	0	0	0	0	0	0
070412	12:11:26	10021	pm.simpleFrRight	blank.simpleFr	2	0	1587	1	0	12:11:26	2275811	0	0	0	0	0	0	0	0	0	0	0	0	0	0	0	0	0
070412	12:11:26	10021	pm.simpleFrRight	pm.simpleFr	2	57	804	0	0	12:11:26	2276650	0	0	0	0	0	0	0	0	0	0	0	0	0	0	0	0	0
070412	12:11:26	10021	pm.simpleFrRight	blank.simpleFr	2	0	2387	1	0	12:11:26	2279063	0	0	0	0	0	0	0	0	0	0	0	0	0	0	0	0	0
070412	12:11:26	10021	pm.simpleFrRight	pm.simpleFr	2	57	481	0	0	12:11:26	2279583	0	0	0	0	0	0	0	0	0	0	0	0	0	0	0	0	0
070412	12:11:26	10021	pm.simpleFrRight	blank.simpleFr	2	0	1887	1	0	12:11:26	2281502	0	0	0	0	0	0	0	0	0	0	0	0	0	0	0	0	0
070412	12:11:26	10021	pm.simpleFrRight	pm.simpleFr	2	57	634	0	0	12:11:26	2282168	0	0	0	0	0	0	0	0	0	0	0	0	0	0	0	0	0
070412	12:11:26	10021	pm.simpleFrRight	blank.simpleFr	2	0	1687	1	0	12:11:26	2283887	0	0	0	0	0	0	0	0	0	0	0	0	0	0	0	0	0
070412	12:11:26	10021	pm.simpleFrRight	pm.simpleFr	2	57	552	0	0	12:11:26	2284474	0	0	0	0	0	0	0	0	0	0	0	0	0	0	0	0	0
070412	12:11:26	10021	pm.simpleFrRight	blank.simpleFr	2	0	2287	1	0	12:11:26	2286793	0	0	0	0	0	0	0	0	0	0	0	0	0	0	0	0	0
070412	12:11:26	10021	pm.simpleFrRight	pm.simpleFr	2	57	862	0	0	12:11:26	2287686	0	0	0	0	0	0	0	0	0	0	0	0	0	0	0	0	0
070412	12:11:26	10021	pm.simpleFrRight	blank.simpleFr	2	0	2187	1	0	12:11:26	2289899	0	0	0	0	0	0	0	0	0	0	0	0	0	0	0	0	0
070412	12:11:26	10021	pm.simpleFrRight	pm.simpleFr	2	57	797	0	0	12:11:26	2290738	0	0	0	0	0	0	0	0	0	0	0	0	0	0	0	0	0
070412	12:11:26	10021	pm.simpleFrRight	blank.simpleFr	2	0	2487	1	0	12:11:26	2293257	0	0	0	0	0	0	0	0	0	0	0	0	0	0	0	0	0
070412	12:11:26	10021	pm.simpleFrRight	pm.simpleFr	2	57	670	0	0	12:11:26	2293964	0	0	0	0	0	0	0	0	0	0	0	0	0	0	0	0	0
070412	12:11:26	10021	pm.simpleFrRight	blank.simpleFr	2	0	1987	1	0	12:11:26	2295976	0	0	0	0	0	0	0	0	0	0	0	0	0	0	0	0	0
070412	12:11:26	10021	pm.simpleFrRight	pm.simpleFr	2	57	895	0	0	12:11:26	2296909	0	0	0	0	0	0	0	0	0	0	0	0	0	0	0	0	0
070412	12:11:26	10021	pm.simpleFrRight	blank.simpleFr	2	0	2087	1	0	12:11:26	2299028	0	0	0	0	0	0	0	0	0	0	0	0	0	0	0	0	0
070412	12:11:26	10021	pm.simpleFrRight	pm.simpleFr	2	57	723	0	0	12:11:26	2299788	0	0	0	0	0	0	0	0	0	0	0	0	0	0	0	0	0
070412	12:11:26	10021	pm.simpleFrRight	blank.simpleFr	2	0	1787	1	0	12:11:26	2301601	0	0	0	0	0	0	0	0	0	0	0	0	0	0	0	0	0
070412	12:11:26	10021	pm.simpleFrRight	pm.simpleFr	2	57	2503	0	0	12:11:26	2304133	0	0	0	0	0	0	0	0	0	0	0	0	0	0	0	0	0
070412	12:11:26	10021	pm.simpleFrRight	blank.simpleFr	2	0	2387	1	0	12:11:26	2306545	0	0	0	0	0	0	0	0	0	0	0	0	0	0	0	0	0
070412	12:11:26	10021	pm.simpleFrRight	pm.simpleFr	2	57	1734	0	0	12:11:26	2308318	0	0	0	0	0	0	0	0	0	0	0	0	0	0	0	0	0
070412	12:11:26	10021	pm.simpleFrRight	blank.simpleFr	2	0	1587	1	0	12:11:26	2309931	0	0	0	0	0	0	0	0	0	0	0	0	0	0	0	0	0
070412	12:11:26	10021	pm.simpleFrRight	pm.simpleFr	2	57	2125	0	0	12:11:26	2312090	0	0	0	0	0	0	0	0	0	0	0	0	0	0	0	0	0
070412	12:11:26	10021	pm.simpleFrRight	blank.simpleFr	2	0	1487	1	0	12:11:26	2313609	0	0	0	0	0	0	0	0	0	0	0	0	0	0	0	0	0
070412	12:11:26	10021	pm.simpleFrRight	pm.simpleFr	2	57	1822	0	0	12:11:26	2315462	0	0	0	0	0	0	0	0	0	0	0	0	0	0	0	0	0
070412	12:11:26	10021	pm.simpleFrRight	blank.simpleFr	2	0	2487	1	0	12:11:26	2317981	0	0	0	0	0	0	0	0	0	0	0	0	0	0	0	0	0
070412	12:11:26	10021	pm.simpleFrRight	pm.simpleFr	2	57	602	0	0	12:11:26	2318621	0	0	0	0	0	0	0	0	0	0	0	0	0	0	0	0	0
070412	12:11:26	10021	pm.simpleFrRight	blank.simpleFr	2	0	1887	1	0	12:11:26	2320540	0	0	0	0	0	0	0	0	0	0	0	0	0	0	0	0	0
070412	12:11:26	10021	pm.simpleFrRight	pm.simpleFr	2	57	987	0	0	12:11:26	2321566	0	0	0	0	0	0	0	0	0	0	0	0	0	0	0	0	0
070412	12:11:26	10021	pm.simpleFrRight	blank.simpleFr	2	0	1487	1	0	12:11:26	2323086	0	0	0	0	0	0	0	0	0	0	0	0	0	0	0	0	0
070412	12:11:26	10021	pm.simpleFrRight	pm.simpleFr	2	57	698	0	0	12:11:26	2323818	0	0	0	0	0	0	0	0	0	0	0	0	0	0	0	0	0
070412	12:11:26	10021	pm.simpleFrRight	blank.simpleFr	2	0	2087	1	0	12:11:26	2325938	0	0	0	0	0	0	0	0	0	0	0	0	0	0	0	0	0
070412	12:11:26	10021	pm.simpleFrRight	pm.simpleFr	2	57	485	0	0	12:11:26	2326458	0	0	0	0	0	0	0	0	0	0	0	0	0	0	0	0	0
070412	12:11:26	10021	pm.simpleFrRight	blank.simpleFr	2	0	2287	1	0	12:11:26	2328777	0	0	0	0	0	0	0	0	0	0	0	0	0	0	0	0	0
070412	12:11:26	10021	pm.simpleFrRight	pm.simpleFr	2	57	558	0	0	12:11:26	2329378	0	0	0	0	0	0	0	0	0	0	0	0	0	0	0	0	0
070412	12:11:26	10021	pm.simpleFrRight	blank.simpleFr	2	0	1587	1	0	12:11:26	2330989	0	0	0	0	0	0	0	0	0	0	0	0	0	0	0	0	0
070412	12:11:26	10021	pm.simpleFrRight	pm.simpleFr	2	57	575	0	0	12:11:26	2331629	0	0	0	0	0	0	0	0	0	0	0	0	0	0	0	0	0
070412	12:11:26	10021	pm.simpleFrRight	blank.simpleFr	2	0	1687	1	0	12:11:26	2333335	0	0	0	0	0	0	0	0	0	0	0	0	0	0	0	0	0
070412	12:11:26	10021	pm.simpleFrRight	pm.simpleFr	2	57	656	0	0	12:11:26	2334028	0	0	0	0	0	0	0	0	0	0	0	0	0	0	0	0	0
070412	12:11:26	10021	Trial2BackFr	N	3	0	1000	1	1	12:11:26	2473293	0	0	0	0	0	0	0	0	0	0	0	0	0	0	0	0	0
070412	12:11:26	10021	Trial2BackFr	N	3	0	1000	1	2	12:11:26	2474812	0	0	0	0	0	0	0	0	0	0	0	0	0	0	0	0	0
070412	12:11:26	10021	Trial2BackFr	N	3	0	1000	1	3	12:11:26	2476332	0	0	0	0	0	0	0	0	0	0	0	0	0	0	0	0	0
070412	12:11:26	10021	Trial2BackFr	N	3	0	1000	1	4	12:11:26	2477851	0	0	0	0	0	0	0	0	0	0	0	0	0	0	0	0	0
070412	12:11:26	10021	Trial2BackFr	N	3	0	1000	1	5	12:11:26	2479371	0	0	0	0	0	0	0	0	0	0	0	0	0	0	0	0	0
070412	12:11:26	10021	Trial2BackFr	N	3	0	1000	1	6	12:11:26	2480890	0	0	0	0	0	0	0	0	0	0	0	0	0	0	0	0	0
070412	12:11:26	10021	Trial2BackFr	N	3	0	1000	1	7	12:11:26	2482409	0	0	0	0	0	0	0	0	0	0	0	0	0	0	0	0	0
070412	12:11:26	10021	Trial2BackFr	N	3	0	1000	1	8	12:11:26	2483929	0	0	0	0	0	0	0	0	0	0	0	0	0	0	0	0	0
070412	12:11:26	10021	Trial2BackFr	Y	3	0	1000	0	8	12:11:26	2485448	0	0	0	0	0	0	0	0	0	0	0	0	0	0	0	0	0
070412	12:11:26	10021	Trial2BackFr	N	3	0	1000	1	9	12:11:26	2486968	0	0	0	0	0	0	0	0	0	0	0	0	0	0	0	0	0
070412	12:11:26	10021	Trial2BackFr	N	3	0	1000	1	10	12:11:26	2488487	0	0	0	0	0	0	0	0	0	0	0	0	0	0	0	0	0
070412	12:11:26	10021	Trial2BackFr	N	3	0	1000	1	11	12:11:26	2490006	0	0	0	0	0	0	0	0	0	0	0	0	0	0	0	0	0
070412	12:11:26	10021	Trial2BackFr	Y	3	57	675	1	12	12:11:26	2491206	0	0	0	0	0	0	0	0	0	0	0	0	0	0	0	0	0
070412	12:11:26	10021	Trial2BackFr	N	3	0	1000	1	13	12:11:26	2493032	0	0	0	0	0	0	0	0	0	0	0	0	0	0	0	0	0
070412	12:11:26	10021	Trial2BackFr	N	3	0	1000	1	14	12:11:26	2494551	0	0	0	0	0	0	0	0	0	0	0	0	0	0	0	0	0
070412	12:11:26	10021	Trial2BackFr	N	3	0	1000	1	15	12:11:26	2496071	0	0	0	0	0	0	0	0	0	0	0	0	0	0	0	0	0
070412	12:11:26	10021	Trial2BackFr	N	3	0	1000	1	16	12:11:26	2497590	0	0	0	0	0	0	0	0	0	0	0	0	0	0	0	0	0
070412	12:11:26	10021	Trial2BackFr	N	3	0	1000	1	17	12:11:26	2499109	0	0	0	0	0	0	0	0	0	0	0	0	0	0	0	0	0
070412	12:11:26	10021	Trial2BackFr	Y	3	57	660	1	18	12:11:26	2500295	0	0	0	0	0	0	0	0	0	0	0	0	0	0	0	0	0
070412	12:11:26	10021	Trial2BackFr	N	3	0	1000	1	19	12:11:26	2502135	0	0	0	0	0	0	0	0	0	0	0	0	0	0	0	0	0
070412	12:11:26	10021	Trial2BackFr	N	3	0	1000	1	20	12:11:26	2503654	0	0	0	0	0	0	0	0	0	0	0	0	0	0	0	0	0
070412	12:11:26	10021	Trial2BackFr	N	3	0	1000	1	21	12:11:26	2505174	0	0	0	0	0	0	0	0	0	0	0	0	0	0	0	0	0
070412	12:11:26	10021	Trial2BackFr	N	3	0	1000	1	22	12:11:26	2506693	0	0	0	0	0	0	0	0	0	0	0	0	0	0	0	0	0
070412	12:11:26	10021	Trial2BackFr	Y	3	57	516	1	23	12:11:26	2507732	0	0	0	0	0	0	0	0	0	0	0	0	0	0	0	0	0
070412	12:11:26	10021	Trial2BackFr	N	3	0	1000	1	24	12:11:26	2509719	0	0	0	0	0	0	0	0	0	0	0	0	0	0	0	0	0
070412	12:11:26	10021	Trial2BackFr	N	3	0	1000	1	25	12:11:26	2511238	0	0	0	0	0	0	0	0	0	0	0	0	0	0	0	0	0
070412	12:11:26	10021	Trial2BackFr	N	3	0	1000	1	26	12:11:26	2512757	0	0	0	0	0	0	0	0	0	0	0	0	0	0	0	0	0
070412	12:11:26	10021	Trial2BackFr	N	3	0	1000	1	27	12:11:26	2514277	0	0	0	0	0	0	0	0	0	0	0	0	0	0	0	0	0
070412	12:11:26	10021	Trial2BackFr	N	3	0	1000	1	28	12:11:26	2515796	0	0	0	0	0	0	0	0	0	0	0	0	0	0	0	0	0
070412	12:11:26	10021	Trial2BackFr	N	3	57	533	0	28	12:11:26	2516862	0	0	0	0	0	0	0	0	0	0	0	0	0	0	0	0	0
070412	12:11:26	10021	Trial2BackFr	Y	3	0	1000	0	28	12:11:26	2518822	0	0	0	0	0	0	0	0	0	0	0	0	0	0	0	0	0
070412	12:11:26	10021	Trial2BackFr	N	3	0	1000	1	29	12:11:26	2520341	0	0	0	0	0	0	0	0	0	0	0	0	0	0	0	0	0
070412	12:11:26	10021	Trial2BackFr	N	3	0	1000	1	30	12:11:26	2521860	0	0	0	0	0	0	0	0	0	0	0	0	0	0	0	0	0
070412	12:11:26	10021	Trial2BackFr	N	3	0	1000	1	31	12:11:26	2523380	0	0	0	0	0	0	0	0	0	0	0	0	0	0	0	0	0
070412	12:11:26	10021	Trial2BackFr	Y	3	57	869	1	32	12:11:26	2524779	0	0	0	0	0	0	0	0	0	0	0	0	0	0	0	0	0
070412	12:11:26	10021	Trial2BackFr	N	3	0	1000	1	33	12:11:26	2526405	0	0	0	0	0	0	0	0	0	0	0	0	0	0	0	0	0
070412	12:11:26	10021	Trial2BackFr	N	3	0	1000	1	34	12:11:26	2527925	0	0	0	0	0	0	0	0	0	0	0	0	0	0	0	0	0
070412	12:11:26	10021	Trial2BackFr	N	3	0	1000	1	35	12:11:26	2529444	0	0	0	0	0	0	0	0	0	0	0	0	0	0	0	0	0
070412	12:11:26	10021	Trial2BackFr	N	3	0	1000	1	36	12:11:26	2530963	0	0	0	0	0	0	0	0	0	0	0	0	0	0	0	0	0
070412	12:11:26	10021	Trial2BackFr	N	3	0	1000	1	37	12:11:26	2532483	0	0	0	0	0	0	0	0	0	0	0	0	0	0	0	0	0
070412	12:11:26	10021	Trial2BackFr	N	3	0	1000	1	38	12:11:26	2534002	0	0	0	0	0	0	0	0	0	0	0	0	0	0	0	0	0
070412	12:11:26	10021	Trial2BackFr	Y	3	57	774	1	39	12:11:26	2535308	0	0	0	0	0	0	0	0	0	0	0	0	0	0	0	0	0
070412	12:11:26	10021	Trial2BackFr	N	3	0	1000	1	40	12:11:26	2537028	0	0	0	0	0	0	0	0	0	0	0	0	0	0	0	0	0
070412	12:11:26	10021	Trial2BackFr	N	3	0	1000	1	41	12:11:26	2538547	0	0	0	0	0	0	0	0	0	0	0	0	0	0	0	0	0
070412	12:11:26	10021	Trial2BackFr	N	3	0	1000	1	42	12:11:26	2540067	0	0	0	0	0	0	0	0	0	0	0	0	0	0	0	0	0
070412	12:11:26	10021	Trial2BackFr	N	3	0	1000	1	43	12:11:26	2541586	0	0	0	0	0	0	0	0	0	0	0	0	0	0	0	0	0
070412	12:11:26	10021	Trial2BackFr	Y	3	57	615	1	44	12:11:26	2542732	0	0	0	0	0	0	0	0	0	0	0	0	0	0	0	0	0
070412	12:11:26	10021	Trial2BackFr	N	3	0	1000	1	45	12:11:26	2544612	0	0	0	0	0	0	0	0	0	0	0	0	0	0	0	0	0
070412	12:11:26	10021	Trial2BackFr	N	3	0	1000	1	46	12:11:26	2546131	0	0	0	0	0	0	0	0	0	0	0	0	0	0	0	0	0
070412	12:11:26	10021	Trial2BackFr	N	3	0	1000	1	47	12:11:26	2547650	0	0	0	0	0	0	0	0	0	0	0	0	0	0	0	0	0
070412	12:11:26	10021	Trial2BackFr	N	3	0	1000	1	48	12:11:26	2549170	0	0	0	0	0	0	0	0	0	0	0	0	0	0	0	0	0
070412	12:11:26	10021	Trial2BackFr	N	3	0	1000	1	49	12:11:26	2550689	0	0	0	0	0	0	0	0	0	0	0	0	0	0	0	0	0
070412	12:11:26	10021	Trial2BackFr	Y	3	57	647	1	50	12:11:26	2551862	0	0	0	0	0	0	0	0	0	0	0	0	0	0	0	0	0
070412	12:11:26	10021	Trial2BackFr	N	3	0	1000	1	51	12:11:26	2553715	0	0	0	0	0	0	0	0	0	0	0	0	0	0	0	0	0
070412	12:11:26	10021	Trial2BackFr	N	3	0	1000	1	52	12:11:26	2555234	0	0	0	0	0	0	0	0	0	0	0	0	0	0	0	0	0
070412	12:11:26	10021	Trial2BackFr	N	3	0	1000	1	53	12:11:26	2556753	0	0	0	0	0	0	0	0	0	0	0	0	0	0	0	0	0
070412	12:11:26	10021	Trial2BackFr	N	3	0	1000	1	54	12:11:26	2558273	0	0	0	0	0	0	0	0	0	0	0	0	0	0	0	0	0
070412	12:11:26	10021	Trial2BackFr	N	3	0	1000	1	55	12:11:26	2559792	0	0	0	0	0	0	0	0	0	0	0	0	0	0	0	0	0
070412	12:11:26	10021	Trial2BackFr	N	3	0	1000	1	56	12:11:26	2561312	0	0	0	0	0	0	0	0	0	0	0	0	0	0	0	0	0
070412	12:11:26	10021	Trial2BackFr	Y	3	57	795	1	57	12:11:26	2562644	0	0	0	0	0	0	0	0	0	0	0	0	0	0	0	0	0
070412	12:11:26	10021	Trial2BackFr	N	3	0	1000	1	58	12:11:26	2564350	0	0	0	0	0	0	0	0	0	0	0	0	0	0	0	0	0
070412	12:11:26	10021	Trial2BackFr	N	3	0	1000	1	59	12:11:26	2565870	0	0	0	0	0	0	0	0	0	0	0	0	0	0	0	0	0
070412	12:11:26	10021	Trial2BackFr	Y	3	0	1000	0	59	12:11:26	2567389	0	0	0	0	0	0	0	0	0	0	0	0	0	0	0	0	0
070412	12:11:26	10021	Trial2BackFr	N	3	0	1000	1	60	12:11:26	2568909	0	0	0	0	0	0	0	0	0	0	0	0	0	0	0	0	0
070412	12:11:26	10021	Trial2BackFr	N	3	0	1000	1	61	12:11:26	2570428	0	0	0	0	0	0	0	0	0	0	0	0	0	0	0	0	0
070412	12:11:26	10021	Trial2BackFr	N	3	0	1000	1	62	12:11:26	2571947	0	0	0	0	0	0	0	0	0	0	0	0	0	0	0	0	0
070412	12:11:26	10021	Trial2BackFr	N	3	0	1000	1	63	12:11:26	2573467	0	0	0	0	0	0	0	0	0	0	0	0	0	0	0	0	0
070412	12:11:26	10021	Trial2BackFr	N	3	57	797	0	63	12:11:26	2574786	0	0	0	0	0	0	0	0	0	0	0	0	0	0	0	0	0
070412	12:11:26	10021	Trial2BackFr	N	3	0	1000	1	64	12:11:26	2576492	0	0	0	0	0	0	0	0	0	0	0	0	0	0	0	0	0
070412	12:11:26	10021	Trial2BackFr	N	3	0	1000	1	65	12:11:26	2578012	0	0	0	0	0	0	0	0	0	0	0	0	0	0	0	0	0
070412	12:11:26	10021	Trial2BackFr	N	3	0	1000	1	66	12:11:26	2579531	0	0	0	0	0	0	0	0	0	0	0	0	0	0	0	0	0
070412	12:11:26	10021	Trial2BackFr	N	3	0	1000	1	67	12:11:26	2581051	0	0	0	0	0	0	0	0	0	0	0	0	0	0	0	0	0
070412	12:11:26	10021	Trial2BackFr	N	3	0	1000	1	68	12:11:26	2582570	0	0	0	0	0	0	0	0	0	0	0	0	0	0	0	0	0
070412	12:11:26	10021	Trial2BackFr	Y	3	57	478	1	69	12:11:26	2583583	0	0	0	0	0	0	0	0	0	0	0	0	0	0	0	0	0
070412	12:11:26	10021	Trial2BackFr	N	3	0	1000	1	70	12:11:26	2585595	0	0	0	0	0	0	0	0	0	0	0	0	0	0	0	0	0
070412	12:11:26	10021	Trial2BackFr	N	3	0	1000	1	71	12:11:26	2587115	0	0	0	0	0	0	0	0	0	0	0	0	0	0	0	0	0
070412	12:11:26	10021	Trial2BackFr	N	3	0	1000	1	72	12:11:26	2588634	0	0	0	0	0	0	0	0	0	0	0	0	0	0	0	0	0
070412	12:11:26	10021	Trial2BackFr	Y	3	57	702	1	73	12:11:26	2589860	0	0	0	0	0	0	0	0	0	0	0	0	0	0	0	0	0
070412	12:11:26	10021	Trial2BackFr	N	3	0	1000	1	74	12:11:26	2591660	0	0	0	0	0	0	0	0	0	0	0	0	0	0	0	0	0
070412	12:11:26	10021	Trial2BackFr	N	3	0	1000	1	75	12:11:26	2593179	0	0	0	0	0	0	0	0	0	0	0	0	0	0	0	0	0
070412	12:11:26	10021	Trial2BackFr	N	3	0	1000	1	76	12:11:26	2594698	0	0	0	0	0	0	0	0	0	0	0	0	0	0	0	0	0
070412	12:11:26	10021	Trial2BackFr	N	3	0	1000	1	77	12:11:26	2596218	0	0	0	0	0	0	0	0	0	0	0	0	0	0	0	0	0
070412	12:11:26	10021	Trial2BackFr	N	3	57	894	0	77	12:11:26	2597644	0	0	0	0	0	0	0	0	0	0	0	0	0	0	0	0	0
070412	12:11:26	10021	Trial2BackFr	Y	3	0	1000	0	77	12:11:26	2599243	0	0	0	0	0	0	0	0	0	0	0	0	0	0	0	0	0
070412	12:11:26	10021	Trial2BackFr	N	3	0	1000	1	78	12:11:26	2600763	0	0	0	0	0	0	0	0	0	0	0	0	0	0	0	0	0
070412	12:11:26	10021	Trial2BackFr	N	3	0	1000	1	79	12:11:26	2602282	0	0	0	0	0	0	0	0	0	0	0	0	0	0	0	0	0
070412	12:11:26	10021	Trial2BackFr	N	3	0	1000	1	80	12:11:26	2603802	0	0	0	0	0	0	0	0	0	0	0	0	0	0	0	0	0
070412	12:11:26	10021	Trial2BackFr	N	3	0	1000	1	81	12:11:26	2605321	0	0	0	0	0	0	0	0	0	0	0	0	0	0	0	0	0
070412	12:11:26	10021	Trial2BackFr	N	3	0	1000	1	82	12:11:26	2606840	0	0	0	0	0	0	0	0	0	0	0	0	0	0	0	0	0
070412	12:11:26	10021	Trial2BackFr	N	3	57	719	0	82	12:11:26	2608093	0	0	0	0	0	0	0	0	0	0	0	0	0	0	0	0	0
070412	12:11:26	10021	Trial2BackFr	N	3	0	1000	1	83	12:11:26	2609866	0	0	0	0	0	0	0	0	0	0	0	0	0	0	0	0	0
070412	12:11:26	10021	Trial2BackFr	N	3	0	1000	1	84	12:11:26	2611385	0	0	0	0	0	0	0	0	0	0	0	0	0	0	0	0	0
070412	12:11:26	10021	Trial2BackFr	N	3	0	1000	1	85	12:11:26	2612904	0	0	0	0	0	0	0	0	0	0	0	0	0	0	0	0	0
070412	12:11:26	10021	Trial2BackFr	Y	3	0	1000	0	85	12:11:26	2614424	0	0	0	0	0	0	0	0	0	0	0	0	0	0	0	0	0
070412	12:11:26	10021	Trial2BackFr	N	3	0	1000	1	86	12:11:26	2615943	0	0	0	0	0	0	0	0	0	0	0	0	0	0	0	0	0
070412	12:11:26	10021	Trial2BackFr	N	3	0	1000	1	87	12:11:26	2617463	0	0	0	0	0	0	0	0	0	0	0	0	0	0	0	0	0
070412	12:11:26	10021	Trial2BackFr	N	3	0	1000	1	88	12:11:26	2618982	0	0	0	0	0	0	0	0	0	0	0	0	0	0	0	0	0
070412	12:11:26	10021	Trial2BackFr	N	3	0	1000	1	89	12:11:26	2620502	0	0	0	0	0	0	0	0	0	0	0	0	0	0	0	0	0
070412	12:11:26	10021	Trial2BackFr	N	3	0	1000	1	90	12:11:26	2622021	0	0	0	0	0	0	0	0	0	0	0	0	0	0	0	0	0
070412	12:11:26	10021	Trial2BackFr	N	3	0	1000	1	91	12:11:26	2623540	0	0	0	0	0	0	0	0	0	0	0	0	0	0	0	0	0
070412	12:11:26	10021	Trial2BackFr	N	3	0	1000	1	92	12:11:26	2625060	0	0	0	0	0	0	0	0	0	0	0	0	0	0	0	0	0
070412	12:11:26	10021	Trial2BackFr	N	3	57	692	0	92	12:11:26	2626286	0	0	0	0	0	0	0	0	0	0	0	0	0	0	0	0	0
070412	12:11:26	10021	Trial2BackFr	Y	3	57	738	1	93	12:11:26	2627832	0	0	0	0	0	0	0	0	0	0	0	0	0	0	0	0	0
070412	12:11:26	10021	Trial2BackFr	N	3	0	1000	1	94	12:11:26	2629578	0	0	0	0	0	0	0	0	0	0	0	0	0	0	0	0	0
070412	12:11:26	10021	Trial2BackFr	N	3	0	1000	1	95	12:11:26	2631097	0	0	0	0	0	0	0	0	0	0	0	0	0	0	0	0	0
070412	12:11:26	10021	Trial2BackFr	N	3	0	1000	1	96	12:11:26	2632617	0	0	0	0	0	0	0	0	0	0	0	0	0	0	0	0	0
070412	12:11:26	10021	Trial2BackFr	N	3	0	1000	1	97	12:11:26	2634136	0	0	0	0	0	0	0	0	0	0	0	0	0	0	0	0	0
070412	12:11:26	10021	Trial2BackFr	Y	3	57	847	1	98	12:11:26	2635510	0	0	0	0	0	0	0	0	0	0	0	0	0	0	0	0	0
070412	12:11:26	10021	Trial2BackFr	N	3	0	1000	1	99	12:11:26	2637162	0	0	0	0	0	0	0	0	0	0	0	0	0	0	0	0	0
070412	12:11:26	10021	Trial2BackFr	N	3	0	1000	1	100	12:11:26	2638681	0	0	0	0	0	0	0	0	0	0	0	0	0	0	0	0	0
070412	12:11:26	10021	Trial2BackFr	N	3	0	1000	1	101	12:11:26	2640200	0	0	0	0	0	0	0	0	0	0	0	0	0	0	0	0	0
070412	12:11:26	10021	Trial2BackFr	Y	3	57	719	1	102	12:11:26	2641453	0	0	0	0	0	0	0	0	0	0	0	0	0	0	0	0	0
070412	12:11:26	10021	Trial2BackFr	N	3	0	1000	1	103	12:11:26	2643226	0	0	0	0	0	0	0	0	0	0	0	0	0	0	0	0	0
070412	12:11:26	10021	Trial2BackFr	N	3	0	1000	1	104	12:11:26	2644745	0	0	0	0	0	0	0	0	0	0	0	0	0	0	0	0	0
070412	12:11:26	10021	Trial2BackFr	N	3	0	1000	1	105	12:11:26	2646265	0	0	0	0	0	0	0	0	0	0	0	0	0	0	0	0	0
070412	12:11:26	10021	Trial2BackFr	N	3	0	1000	1	106	12:11:26	2647784	0	0	0	0	0	0	0	0	0	0	0	0	0	0	0	0	0
070412	12:11:26	10021	Trial2BackFr	N	3	0	1000	1	107	12:11:26	2649303	0	0	0	0	0	0	0	0	0	0	0	0	0	0	0	0	0
070412	12:11:26	10021	Trial2BackFr	Y	3	0	1000	0	107	12:11:26	2650823	0	0	0	0	0	0	0	0	0	0	0	0	0	0	0	0	0
070412	12:11:26	10021	Trial2BackFr	N	3	0	1000	1	108	12:11:26	2652342	0	0	0	0	0	0	0	0	0	0	0	0	0	0	0	0	0
070412	12:11:26	10021	Trial2BackFr	N	3	0	1000	1	109	12:11:26	2653862	0	0	0	0	0	0	0	0	0	0	0	0	0	0	0	0	0
070412	12:11:26	10021	Trial2BackFr	N	3	0	1000	1	110	12:11:26	2655381	0	0	0	0	0	0	0	0	0	0	0	0	0	0	0	0	0
070412	12:11:26	10021	Trial2BackFr	Y	3	57	674	1	111	12:11:26	2656581	0	0	0	0	0	0	0	0	0	0	0	0	0	0	0	0	0
070412	12:11:26	10021	Memory1RBaselineFr	ScoreFr	5	M1	24842	0	111	12:11:26	2727353	0	0	0	0	0	0	0	0	0	0	0	0	0	0	0	0	0
070412	12:11:26	10021	Memory1RBaselineFr	ScoreFr	5	M3	1143	0	111	12:11:26	2728539	0	0	0	0	0	0	0	0	0	0	0	0	0	0	0	0	0
070412	12:11:26	10021	Memory1RBaselineFr	ScoreFr	5	Done	765	0	111	12:11:26	2729339	0	0	0	0	0	0	0	0	0	0	0	0	0	0	0	0	0
070412	12:11:26	10021	Memory2RBaselineFr	ScoreFr2	5	11	28324	0	111	12:11:26	2777013	0	0	0	0	0	0	0	0	0	0	0	0	0	0	0	0	0
070412	12:11:26	10021	Memory2RBaselineFr	ScoreFr2	5	33	1042	0	111	12:11:26	2778093	0	0	0	0	0	0	0	0	0	0	0	0	0	0	0	0	0
070412	12:11:26	10021	Memory2RBaselineFr	ScoreFr2	5	44	546	0	111	12:11:26	2778679	0	0	0	0	0	0	0	0	0	0	0	0	0	0	0	0	0
070412	12:11:26	10021	Memory2RBaselineFr	ScoreFr2	5	88	2856	0	111	12:11:26	2781572	0	0	0	0	0	0	0	0	0	0	0	0	0	0	0	0	0
070412	12:11:26	10021	Memory2RBaselineFr	ScoreFr2	5	Done	7779	0	111	12:11:26	2789395	0	0	0	0	0	0	0	0	0	0	0	0	0	0	0	0	0
070412	12:11:26	10021	Memory3RBaselineFr	ScoreFr3	5	111	26901	0	111	12:11:26	2833978	0	0	0	0	0	0	0	0	0	0	0	0	0	0	0	0	0
070412	12:11:26	10021	Memory3RBaselineFr	ScoreFr3	5	333	3253	0	111	12:11:26	2837270	0	0	0	0	0	0	0	0	0	0	0	0	0	0	0	0	0
070412	12:11:26	10021	Memory3RBaselineFr	ScoreFr3	5	444	217	0	111	12:11:26	2837523	0	0	0	0	0	0	0	0	0	0	0	0	0	0	0	0	0
070412	12:11:26	10021	Memory3RBaselineFr	ScoreFr3	5	666	2028	0	111	12:11:26	2839589	0	0	0	0	0	0	0	0	0	0	0	0	0	0	0	0	0
070412	12:11:26	10021	Memory3RBaselineFr	ScoreFr3	5	777	186	0	111	12:11:26	2839815	0	0	0	0	0	0	0	0	0	0	0	0	0	0	0	0	0
070412	12:11:26	10021	Memory3RBaselineFr	ScoreFr3	5	888	647	0	111	12:11:26	2840508	0	0	0	0	0	0	0	0	0	0	0	0	0	0	0	0	0
070412	12:11:26	10021	Memory3RBaselineFr	ScoreFr3	5	Done	2194	0	111	12:11:26	2842747	0	0	0	0	0	0	0	0	0	0	0	0	0	0	0	0	0
070412	12:11:26	10021	LoriaFrLH3	Stop	6	3	6063	0	111	12:11:26	2958744	0	0	0	0	0	0	0	0	0	0	0	0	0	0	0	0	0
070412	12:11:26	10021	FrTrail	Trails	7	1Trails	20197	0	111	12:11:26	3058902	0	0	0	0	0	0	0	0	0	0	0	0	0	0	0	0	0
070412	12:11:26	10021	Serial7FrBaseline	Serial7FrBaseline	8	83	3257	0	111	12:11:26	3207871	1	0	0	0	0	0	0	0	0	0	0	0	0	0	0	0	0
070412	12:11:26	10021	Serial7FrBaseline	Serial7FrBaseline	8	74	2610	0	111	12:11:26	3210497	1	0	0	0	0	0	0	0	0	0	0	0	0	0	0	0	0
070412	12:11:26	10021	Serial7FrBaseline	Serial7FrBaseline	8	63	2502	0	111	12:11:26	3213016	1	0	0	0	0	0	0	0	0	0	0	0	0	0	0	0	0
070412	12:11:26	10021	Serial7FrBaseline	Serial7FrBaseline	8	54	2414	0	111	12:11:26	3215455	1	0	0	0	0	0	0	0	0	0	0	0	0	0	0	0	0
070412	12:11:26	10021	Serial7FrBaseline	Serial7FrBaseline	8	0	1712	0	111	12:11:26	3217188	1	0	0	0	0	0	0	0	0	0	0	0	0	0	0	0	0
070412	12:11:26	10021	corsiblockFrFwrd	recallseqFrFwrd	9	8	7341	0	111	12:11:26	3291972	1	0	0	0	0	0	0	0	0	0	0	0	0	0	0	0	0
070412	12:11:26	10021	corsiblockFrFwrd	recallseqFrFwrd	9	7	7006	0	111	12:11:26	3299022	1	0	0	0	0	0	0	0	0	0	0	0	0	0	0	0	0
070412	12:11:26	10021	corsiblockFrFwrd	recallseqFrFwrd	9	doneCorsiFr	3355	0	111	12:11:26	3302421	1	0	0	0	0	0	0	0	0	0	0	0	0	0	0	0	0
070412	12:11:26	10021	corsiblockFrFwrd	recallseqFrFwrd	9	6	1625	0	111	12:11:26	3309098	1	0	0	0	0	0	0	0	0	0	0	0	0	0	0	0	0
070412	12:11:26	10021	corsiblockFrFwrd	recallseqFrFwrd	9	3	575	0	111	12:11:26	3309711	1	0	0	0	0	0	0	0	0	0	0	0	0	0	0	0	0
070412	12:11:26	10021	corsiblockFrFwrd	recallseqFrFwrd	9	doneCorsiFr	3842	0	111	12:11:26	3313590	1	0	0	0	0	0	0	0	0	0	0	0	0	0	0	2	0
070412	12:11:26	10021	corsiblockFrFwrd	recallseqFrFwrd	9	4	1167	0	111	12:11:26	3319854	1	0	0	0	0	0	0	0	0	0	0	0	0	0	0	2	0
070412	12:11:26	10021	corsiblockFrFwrd	recallseqFrFwrd	9	2	795	0	111	12:11:26	3320694	1	0	0	0	0	0	0	0	0	0	0	0	0	0	0	2	0
070412	12:11:26	10021	corsiblockFrFwrd	recallseqFrFwrd	9	1	939	0	111	12:11:26	3321667	1	0	0	0	0	0	0	0	0	0	0	0	0	0	0	2	0
070412	12:11:26	10021	corsiblockFrFwrd	recallseqFrFwrd	9	doneCorsiFr	2070	0	111	12:11:26	3323772	1	0	0	0	0	0	0	0	0	0	0	0	0	0	0	3	0
070412	12:11:26	10021	corsiblockFrFwrd	recallseqFrFwrd	9	7	1482	0	111	12:11:26	3332342	1	0	0	0	0	0	0	0	0	0	0	0	0	0	0	3	0
070412	12:11:26	10021	corsiblockFrFwrd	recallseqFrFwrd	9	5	1347	0	111	12:11:26	3333729	1	0	0	0	0	0	0	0	0	0	0	0	0	0	0	3	0
070412	12:11:26	10021	corsiblockFrFwrd	recallseqFrFwrd	9	3	809	0	111	12:11:26	3334581	1	0	0	0	0	0	0	0	0	0	0	0	0	0	0	3	0
070412	12:11:26	10021	corsiblockFrFwrd	recallseqFrFwrd	9	2	787	0	111	12:11:26	3335408	1	0	0	0	0	0	0	0	0	0	0	0	0	0	0	3	0
070412	12:11:26	10021	corsiblockFrFwrd	recallseqFrFwrd	9	doneCorsiFr	1153	0	111	12:11:26	3336594	1	0	0	0	0	0	0	0	0	0	0	0	0	0	0	4	0
070412	12:11:26	10021	corsiblockFrFwrd	recallseqFrFwrd	9	7	1052	0	111	12:11:26	3345737	1	0	0	0	0	0	0	0	0	0	0	0	0	0	0	4	0
070412	12:11:26	10021	corsiblockFrFwrd	recallseqFrFwrd	9	8	712	0	111	12:11:26	3346483	1	0	0	0	0	0	0	0	0	0	0	0	0	0	0	4	0
070412	12:11:26	10021	corsiblockFrFwrd	recallseqFrFwrd	9	6	781	0	111	12:11:26	3347310	1	0	0	0	0	0	0	0	0	0	0	0	0	0	0	4	0
070412	12:11:26	10021	corsiblockFrFwrd	recallseqFrFwrd	9	1	803	0	111	12:11:26	3348150	1	0	0	0	0	0	0	0	0	0	0	0	0	0	0	4	0
070412	12:11:26	10021	corsiblockFrFwrd	recallseqFrFwrd	9	9	667	0	111	12:11:26	3348856	1	0	0	0	0	0	0	0	0	0	0	0	0	0	0	4	0
070412	12:11:26	10021	corsiblockFrFwrd	recallseqFrFwrd	9	doneCorsiFr	3041	0	111	12:11:26	3351935	1	0	0	0	0	0	0	0	0	0	0	0	0	0	0	5	0
070412	12:11:26	10021	corsiblockFrFwrd	recallseqFrFwrd	9	5	1095	0	111	12:11:26	3362117	1	0	0	0	0	0	0	0	0	0	0	0	0	0	0	5	0
070412	12:11:26	10021	corsiblockFrFwrd	recallseqFrFwrd	9	4	531	0	111	12:11:26	3362690	1	0	0	0	0	0	0	0	0	0	0	0	0	0	0	5	0
070412	12:11:26	10021	corsiblockFrFwrd	recallseqFrFwrd	9	6	686	0	111	12:11:26	3363410	1	0	0	0	0	0	0	0	0	0	0	0	0	0	0	5	0
070412	12:11:26	10021	corsiblockFrFwrd	recallseqFrFwrd	9	3	974	0	111	12:11:26	3364423	1	0	0	0	0	0	0	0	0	0	0	0	0	0	0	5	0
070412	12:11:26	10021	corsiblockFrFwrd	recallseqFrFwrd	9	2	1489	0	111	12:11:26	3365956	1	0	0	0	0	0	0	0	0	0	0	0	0	0	0	5	0
070412	12:11:26	10021	corsiblockFrFwrd	recallseqFrFwrd	9	5	573	0	111	12:11:26	3366569	1	0	0	0	0	0	0	0	0	0	0	0	0	0	0	5	0
070412	12:11:26	10021	corsiblockFrFwrd	recallseqFrFwrd	9	doneCorsiFr	856	0	111	12:11:26	3367462	1	0	0	0	0	0	0	0	0	0	0	0	0	0	0	6	0
070412	12:11:26	10021	corsiblockFrFwrd	recallseqFrFwrd	9	1	1961	0	111	12:11:26	3379511	1	0	0	0	0	0	0	0	0	0	0	0	0	0	0	6	0
070412	12:11:26	10021	corsiblockFrFwrd	recallseqFrFwrd	9	4	1450	0	111	12:11:26	3381003	1	0	0	0	0	0	0	0	0	0	0	0	0	0	0	6	0
070412	12:11:26	10021	corsiblockFrFwrd	recallseqFrFwrd	9	8	1045	0	111	12:11:26	3382083	1	0	0	0	0	0	0	0	0	0	0	0	0	0	0	6	0
070412	12:11:26	10021	corsiblockFrFwrd	recallseqFrFwrd	9	6	717	0	111	12:11:26	3382842	1	0	0	0	0	0	0	0	0	0	0	0	0	0	0	6	0
070412	12:11:26	10021	corsiblockFrFwrd	recallseqFrFwrd	9	9	1094	0	111	12:11:26	3383975	1	0	0	0	0	0	0	0	0	0	0	0	0	0	0	6	0
070412	12:11:26	10021	corsiblockFrFwrd	recallseqFrFwrd	9	8	1048	0	111	12:11:26	3385068	1	0	0	0	0	0	0	0	0	0	0	0	0	0	0	6	0
070412	12:11:26	10021	corsiblockFrFwrd	recallseqFrFwrd	9	doneCorsiFr	1428	0	111	12:11:26	3386534	1	0	0	0	0	0	0	0	0	0	0	0	0	0	0	6	0
070412	12:11:26	10021	corsiblockFrFwrd	recallseqFrFwrd	9	4	2135	0	111	12:11:26	3398716	1	0	0	0	0	0	0	0	0	0	0	0	0	0	0	6	0
070412	12:11:26	10021	corsiblockFrFwrd	recallseqFrFwrd	9	7	748	0	111	12:11:26	3399503	1	0	0	0	0	0	0	0	0	0	0	0	0	0	0	6	0
070412	12:11:26	10021	corsiblockFrFwrd	recallseqFrFwrd	9	9	1033	0	111	12:11:26	3400582	1	0	0	0	0	0	0	0	0	0	0	0	0	0	0	6	0
070412	12:11:26	10021	corsiblockFrFwrd	recallseqFrFwrd	9	1	994	0	111	12:11:26	3401622	1	0	0	0	0	0	0	0	0	0	0	0	0	0	0	6	0
070412	12:11:26	10021	corsiblockFrFwrd	recallseqFrFwrd	9	3	937	0	111	12:11:26	3402595	1	0	0	0	0	0	0	0	0	0	0	0	0	0	0	6	0
070412	12:11:26	10021	corsiblockFrFwrd	recallseqFrFwrd	9	8	941	0	111	12:11:26	3403581	1	0	0	0	0	0	0	0	0	0	0	0	0	0	0	6	0
070412	12:11:26	10021	corsiblockFrFwrd	recallseqFrFwrd	9	5	1571	0	111	12:11:26	3405194	1	0	0	0	0	0	0	0	0	0	0	0	0	0	0	6	0
070412	12:11:26	10021	corsiblockFrFwrd	recallseqFrFwrd	9	doneCorsiFr	1086	0	111	12:11:26	3406313	1	0	0	0	0	0	0	0	0	0	0	0	0	0	0	6	0
070412	12:11:26	10021	corsiblockFrRev	recallseqFrRev	10	4	1274	0	111	12:11:26	3422014	1	0	0	0	0	0	0	0	0	0	0	0	0	0	0	6	0
070412	12:11:26	10021	corsiblockFrRev	recallseqFrRev	10	5	474	0	111	12:11:26	3422534	1	0	0	0	0	0	0	0	0	0	0	0	0	0	0	6	0
070412	12:11:26	10021	corsiblockFrRev	recallseqFrRev	10	doneCorsiFr	1106	0	111	12:11:26	3423680	1	0	0	0	0	0	0	0	0	0	0	0	0	0	0	6	0
070412	12:11:26	10021	corsiblockFrRev	recallseqFrRev	10	8	1028	0	111	12:11:26	3429757	1	0	0	0	0	0	0	0	0	0	0	0	0	0	0	6	0
070412	12:11:26	10021	corsiblockFrRev	recallseqFrRev	10	9	618	0	111	12:11:26	3430410	1	0	0	0	0	0	0	0	0	0	0	0	0	0	0	6	0
070412	12:11:26	10021	corsiblockFrRev	recallseqFrRev	10	doneCorsiFr	1309	0	111	12:11:26	3431757	1	0	0	0	0	0	0	0	0	0	0	0	0	0	0	6	0
070412	12:11:26	10021	testFrBaseline	WordsFrBaseline	11	DoneFrBaseline	7660	0	111	12:11:26	3442100	1	0	0	0	0	0	0	0	0	0	0	0	0	0	0	6	0
070412	12:11:26	10021	testFrBaseline	Cat1FrBaseline	11	W1FrBaseline	30990	0	111	12:11:26	3473140	1	0	0	0	0	0	0	0	0	0	0	0	0	0	0	6	0
070412	12:11:26	10021	testFrBaseline	Ch1FrBaseline	11	RR1FrBaseline	5670	0	111	12:11:26	3478858	1	3	0	0	0	0	0	0	0	0	0	0	0	0	0	6	0
070412	12:11:26	10021	testFrBaseline	Cat2FrBaseline	11	0	1	0	111	12:11:26	3478874	1	3	0	0	0	0	0	0	0	0	0	0	0	0	0	6	0
070412	12:11:26	10021	testFrBaseline	Ch2FrBaseline	11	RR2FrBaseline	7830	0	111	12:11:26	3486761	1	3	3	0	0	0	0	0	0	0	0	0	0	0	0	6	0
070412	12:11:26	10021	testFrBaseline	Cat3FrBaseline	11	W3FrBaseline	24180	0	111	12:11:26	3510978	1	3	3	0	0	0	0	0	0	0	0	0	0	0	0	6	0
070412	12:11:26	10021	testFrBaseline	Ch3FrBaseline	11	WW3FrBaseline	3555	0	111	12:11:26	3514577	1	3	3	0	0	0	0	0	0	0	0	0	0	0	0	6	0
070412	12:11:26	10021	testFrBaseline	Cat4FrBaseline	11	0	1	0	111	12:11:26	3514594	1	3	3	0	0	0	0	0	0	0	0	0	0	0	0	6	0
070412	12:11:26	10021	testFrBaseline	Ch4FrBaseline	11	RR4FrBaseline	15938	0	111	12:11:26	3530597	1	3	3	0	3	0	0	0	0	0	0	0	0	0	0	6	0
070412	12:11:26	10021	testFrBaseline	Cat5FrBaseline	11	R5FrBaseline	4353	0	111	12:11:26	3534996	1	3	3	0	3	2	0	0	0	0	0	0	0	0	0	6	0
070412	12:11:26	10021	testFrBaseline	Cat6FrBaseline	11	W6FrBaseline	12099	0	111	12:11:26	3547137	1	3	3	0	3	2	0	0	0	0	0	0	0	0	0	6	0
070412	12:11:26	10021	testFrBaseline	Ch6FrBaseline	11	RR6FrBaseline	3147	0	111	12:11:26	3550323	1	3	3	0	3	2	3	0	0	0	0	0	0	0	0	6	0
070412	12:11:26	10021	testFrBaseline	Cat7FrBaseline	11	W7FrBaseline	12154	0	111	12:11:26	3562518	1	3	3	0	3	2	3	0	0	0	0	0	0	0	0	6	0
070412	12:11:26	10021	testFrBaseline	Ch7FrBaseline	11	RR7FrBaseline	5024	0	111	12:11:26	3567583	1	3	3	0	3	2	3	3	0	0	0	0	0	0	0	6	0
070412	12:11:26	10021	testFrBaseline	Cat8FrBaseline	11	R8FrBaseline	8263	0	111	12:11:26	3575886	1	3	3	0	3	2	3	3	2	0	0	0	0	0	0	6	0
070412	12:11:26	10021	DigitSpanFwrdFrBaseline	Score1FwrdFrBaseline	12	DS2	10431	0	111	12:11:26	3655241	1	3	3	0	3	2	3	3	2	0	0	0	0	0	0	6	0
070412	12:11:26	10021	DigitSpanFwrdFrBaseline	Gate1FwrdFrBaseline	12	0	1	0	111	12:11:26	3655257	1	3	3	0	3	2	3	3	2	0	0	0	0	0	0	6	0
070412	12:11:26	10021	DigitSpanFwrdFrBaseline	Score11FwrdFrBaseline	12	DS1	3035	0	111	12:11:26	3663345	1	3	3	0	3	2	3	3	2	0	0	0	0	0	0	6	0
070412	12:11:26	10021	DigitSpanFwrdFrBaseline	Gate2FwrdFrBaseline	12	0	1	0	111	12:11:26	3663360	1	3	3	0	3	2	3	3	2	3	0	0	0	0	0	6	0
070412	12:11:26	10021	DigitSpanFwrdFrBaseline	Score2FwrdFrBaseline	12	DS1	3156	0	111	12:11:26	3672728	1	3	3	0	3	2	3	3	2	3	0	0	0	0	0	6	0
070412	12:11:26	10021	DigitSpanFwrdFrBaseline	Gate3FwrdFrBaseline	12	0	1	0	111	12:11:26	3672743	1	3	3	0	3	2	3	3	2	4	0	0	0	0	0	6	0
070412	12:11:26	10021	DigitSpanFwrdFrBaseline	Score3FwrdFrBaseline	12	DS1	4651	0	111	12:11:26	3684350	1	3	3	0	3	2	3	3	2	4	0	0	0	0	0	6	0
070412	12:11:26	10021	DigitSpanFwrdFrBaseline	Gate5FwrdFrBaseline	12	0	1	0	111	12:11:26	3684365	1	3	3	0	3	2	3	3	2	5	0	0	0	0	0	6	0
070412	12:11:26	10021	DigitSpanFwrdFrBaseline	Score4FwrdFrBaseline	12	DS2	14444	0	111	12:11:26	3707328	1	3	3	0	3	2	3	3	2	5	0	0	0	0	0	6	0
070412	12:11:26	10021	DigitSpanFwrdFrBaseline	Gate7FwrdFrBaseline	12	0	1	0	111	12:11:26	3707343	1	3	3	0	3	2	3	3	2	5	0	0	0	0	0	6	0
070412	12:11:26	10021	DigitSpanFwrdFrBaseline	Score44FwrdFrBaseline	12	DS2	6824	0	111	12:11:26	3722508	1	3	3	0	3	2	3	3	2	5	0	0	0	0	0	6	0
070412	12:11:26	10021	DigitSpanFrBaseline	Score1FrBaseline	13	DS1	2938	0	111	12:11:26	3744766	1	3	3	0	3	2	3	3	2	5	0	0	0	0	0	6	0
070412	12:11:26	10021	DigitSpanFrBaseline	Gate1FrBaseline	13	0	1	0	111	12:11:26	3744781	1	3	3	0	3	2	3	3	2	5	2	0	0	0	0	6	0
070412	12:11:26	10021	DigitSpanFrBaseline	Score2FrBaseline	13	DS1	5263	0	111	12:11:26	3754549	1	3	3	0	3	2	3	3	2	5	2	0	0	0	0	6	0
070412	12:11:26	10021	DigitSpanFrBaseline	Gate3FrBaseline	13	0	1	0	111	12:11:26	3754564	1	3	3	0	3	2	3	3	2	5	3	0	0	0	0	6	0
070412	12:11:26	10021	DigitSpanFrBaseline	Score3FrBaseline	13	DS2	6788	0	111	12:11:26	3767064	1	3	3	0	3	2	3	3	2	5	3	0	0	0	0	6	0
070412	12:11:26	10021	DigitSpanFrBaseline	Gate5FrBaseline	13	0	1	0	111	12:11:26	3767079	1	3	3	0	3	2	3	3	2	5	3	0	0	0	0	6	0
070412	12:11:26	10021	DigitSpanFrBaseline	Score33FrBaseline	13	DS2	9238	0	111	12:11:26	3782378	1	3	3	0	3	2	3	3	2	5	3	0	0	0	0	6	0
070412	12:11:26	10021	Trial	IncongruentRight	14	0	737	0	111	12:11:26	3848059	1	3	3	0	3	2	3	3	2	5	3	0	0	0	0	6	0
070412	12:11:26	10021	Trial	IncongruentLeft	14	203	266	1	111	12:11:26	3848605	1	3	3	0	3	2	3	3	2	5	3	0	0	0	0	6	0
070412	12:11:26	10021	Trial	CongruentRight	14	205	547	1	111	12:11:26	3849885	1	3	3	0	3	2	3	3	2	5	3	0	0	0	0	6	0
070412	12:11:26	10021	Trial	IncongruentRight	14	203	715	0	111	12:11:26	3851044	1	3	3	0	3	2	3	3	2	5	3	0	0	0	0	6	0
070412	12:11:26	10021	Trial	CongruentLeft	14	0	737	0	111	12:11:26	3852070	1	3	3	0	3	2	3	3	2	5	3	0	0	0	0	6	0
070412	12:11:26	10021	Trial	CongruentRight	14	203	126	0	111	12:11:26	3852470	1	3	3	0	3	2	3	3	2	5	3	0	0	0	0	6	0
070412	12:11:26	10021	Trial	IncongruentRight	14	203	679	0	111	12:11:26	3854030	1	3	3	0	3	2	3	3	2	5	3	0	0	0	0	6	0
070412	12:11:26	10021	Trial	CongruentLeft	14	0	737	0	111	12:11:26	3855082	1	3	3	0	3	2	3	3	2	5	3	0	0	0	0	6	0
070412	12:11:26	10021	Trial	IncongruentLeft	14	205	618	0	111	12:11:26	3855975	1	3	3	0	3	2	3	3	2	5	3	0	0	0	0	6	0
070412	12:11:26	10021	Trial	IncongruentLeft	14	0	737	0	111	12:11:26	3857095	1	3	3	0	3	2	3	3	2	5	3	0	0	0	0	6	0
070412	12:11:26	10021	Trial	CongruentRight	14	205	366	1	111	12:11:26	3857735	1	3	3	0	3	2	3	3	2	5	3	0	0	0	0	6	0
070412	12:11:26	10021	Trial	IncongruentRight	14	0	737	0	111	12:11:26	3859108	1	3	3	0	3	2	3	3	2	5	3	0	0	0	0	6	0
070412	12:11:26	10021	Trial	CongruentLeft	14	203	353	1	111	12:11:26	3859734	1	3	3	0	3	2	3	3	2	5	3	0	0	0	0	6	0
070412	12:11:26	10021	Trial	CongruentRight	14	205	681	1	111	12:11:26	3861067	1	3	3	0	3	2	3	3	2	5	3	0	0	0	0	6	0
070412	12:11:26	10021	Trial	IncongruentLeft	14	0	737	0	111	12:11:26	3862120	1	3	3	0	3	2	3	3	2	5	3	0	0	0	0	6	0
070412	12:11:26	10021	Trial	IncongruentRight	14	203	333	0	111	12:11:26	3862733	1	3	3	0	3	2	3	3	2	5	3	0	0	0	0	6	0
070412	12:11:26	10021	Trial	CongruentRight	14	205	725	1	111	12:11:26	3864119	1	3	3	0	3	2	3	3	2	5	3	0	0	0	0	6	0
070412	12:11:26	10021	Trial	CongruentLeft	14	0	737	0	111	12:11:26	3865132	1	3	3	0	3	2	3	3	2	5	3	0	0	0	0	6	0
070412	12:11:26	10021	Trial	CongruentRight	14	203	361	0	111	12:11:26	3865771	1	3	3	0	3	2	3	3	2	5	3	0	0	0	0	6	0
070412	12:11:26	10021	Trial	IncongruentRight	14	0	737	0	111	12:11:26	3867144	1	3	3	0	3	2	3	3	2	5	3	0	0	0	0	6	0
070412	12:11:26	10021	Trial	IncongruentLeft	14	205	13	0	111	12:11:26	3867438	1	3	3	0	3	2	3	3	2	5	3	0	0	0	0	6	0
070412	12:11:26	10021	Trial	IncongruentLeft	14	0	737	0	111	12:11:26	3869157	1	3	3	0	3	2	3	3	2	5	3	0	0	0	0	6	0
070412	12:11:26	10021	Trial	CongruentLeft	14	0	737	0	111	12:11:26	3870170	1	3	3	0	3	2	3	3	2	5	3	0	0	0	0	6	0
070412	12:11:26	10021	Trial	CongruentRight	14	203	491	0	111	12:11:26	3870930	1	3	3	0	3	2	3	3	2	5	3	0	0	0	0	6	0
070412	12:11:26	10021	Trial	IncongruentLeft	14	0	737	0	111	12:11:26	3872182	1	3	3	0	3	2	3	3	2	5	3	0	0	0	0	6	0
070412	12:11:26	10021	Trial	IncongruentRight	14	205	174	1	111	12:11:26	3872636	1	3	3	0	3	2	3	3	2	5	3	0	0	0	0	6	0
070412	12:11:26	10021	Trial	CongruentRight	14	0	737	0	111	12:11:26	3874195	1	3	3	0	3	2	3	3	2	5	3	0	0	0	0	6	0
070412	12:11:26	10021	Trial	CongruentLeft	14	0	737	0	111	12:11:26	3875208	1	3	3	0	3	2	3	3	2	5	3	0	0	0	0	6	0
070412	12:11:26	10021	Trial	IncongruentRight	14	0	737	0	111	12:11:26	3876221	1	3	3	0	3	2	3	3	2	5	3	0	0	0	0	6	0
070412	12:11:26	10021	Trial	IncongruentLeft	14	205	440	0	111	12:11:26	3876941	1	3	3	0	3	2	3	3	2	5	3	0	0	0	0	6	0
070412	12:11:26	10021	Trial	IncongruentRight	14	0	737	0	111	12:11:26	3878233	1	3	3	0	3	2	3	3	2	5	3	0	0	0	0	6	0
070412	12:11:26	10021	Trial	CongruentRight	14	203	411	0	111	12:11:26	3878926	1	3	3	0	3	2	3	3	2	5	3	0	0	0	0	6	0
070412	12:11:26	10021	Trial	IncongruentLeft	14	205	723	0	111	12:11:26	3880232	1	3	3	0	3	2	3	3	2	5	3	0	0	0	0	6	0
070412	12:11:26	10021	Trial	CongruentLeft	14	0	737	0	111	12:11:26	3881246	1	3	3	0	3	2	3	3	2	5	3	0	0	0	0	6	0
070412	12:11:26	10021	Trial	CongruentRight	14	0	737	0	111	12:11:26	3882258	1	3	3	0	3	2	3	3	2	5	3	0	0	0	0	6	0
070412	12:11:26	10021	Trial	IncongruentLeft	14	0	737	0	111	12:11:26	3883271	1	3	3	0	3	2	3	3	2	5	3	0	0	0	0	6	0
070412	12:11:26	10021	Trial	IncongruentRight	14	0	737	0	111	12:11:26	3884284	1	3	3	0	3	2	3	3	2	5	3	0	0	0	0	6	0
070412	12:11:26	10021	Trial	IncongruentRight	14	0	737	0	111	12:11:26	3885297	1	3	3	0	3	2	3	3	2	5	3	0	0	0	0	6	0
070412	12:11:26	10021	Trial	CongruentLeft	14	0	737	0	111	12:11:26	3886310	1	3	3	0	3	2	3	3	2	5	3	0	0	0	0	6	0
070412	12:11:26	10021	Trial	IncongruentLeft	14	0	737	0	111	12:11:26	3887323	1	3	3	0	3	2	3	3	2	5	3	0	0	0	0	6	0
070412	12:11:26	10021	Trial	CongruentRight	14	205	505	1	111	12:11:26	3888110	1	3	3	0	3	2	3	3	2	5	3	0	0	0	0	6	0
070412	12:11:26	10021	Trial	CongruentLeft	14	0	737	0	111	12:11:26	3889336	1	3	3	0	3	2	3	3	2	5	3	0	0	0	0	6	0
070412	12:11:26	10021	Trial	IncongruentRight	14	203	14	0	111	12:11:26	3889629	1	3	3	0	3	2	3	3	2	5	3	0	0	0	0	6	0
070412	12:11:26	10021	Trial	CongruentRight	14	0	737	0	111	12:11:26	3891348	1	3	3	0	3	2	3	3	2	5	3	0	0	0	0	6	0
070412	12:11:26	10021	Trial	IncongruentLeft	14	0	737	0	111	12:11:26	3892361	1	3	3	0	3	2	3	3	2	5	3	0	0	0	0	6	0
070412	12:11:26	10021	Trial	CongruentLeft	14	203	459	1	111	12:11:26	3893094	1	3	3	0	3	2	3	3	2	5	3	0	0	0	0	6	0
070412	12:11:26	10021	Trial	IncongruentLeft	14	0	737	0	111	12:11:26	3894374	1	3	3	0	3	2	3	3	2	5	3	0	0	0	0	6	0
070412	12:11:26	10021	Trial	IncongruentRight	14	0	737	0	111	12:11:26	3895387	1	3	3	0	3	2	3	3	2	5	3	0	0	0	0	6	0
070412	12:11:26	10021	Trial	CongruentRight	14	0	737	0	111	12:11:26	3896400	1	3	3	0	3	2	3	3	2	5	3	0	0	0	0	6	0
070412	12:11:26	10021	Trial	CongruentLeft	14	205	181	0	111	12:11:26	3896853	1	3	3	0	3	2	3	3	2	5	3	0	0	0	0	6	0
070412	12:11:26	10021	Trial	CongruentLeft	14	203	509	1	111	12:11:26	3898185	1	3	3	0	3	2	3	3	2	5	3	0	0	0	0	6	0
070412	12:11:26	10021	Trial	IncongruentRight	14	0	737	0	111	12:11:26	3899412	1	3	3	0	3	2	3	3	2	5	3	0	0	0	0	6	0
070412	12:11:26	10021	Trial	IncongruentLeft	14	0	737	0	111	12:11:26	3900425	1	3	3	0	3	2	3	3	2	5	3	0	0	0	0	6	0
070412	12:11:26	10021	Trial	IncongruentRight	14	0	737	0	111	12:11:26	3901438	1	3	3	0	3	2	3	3	2	5	3	0	0	0	0	6	0
070412	12:11:26	10021	Trial	CongruentRight	14	0	737	0	111	12:11:26	3902451	1	3	3	0	3	2	3	3	2	5	3	0	0	0	0	6	0
070412	12:11:26	10021	Trial	CongruentRight	14	205	258	1	111	12:11:26	3902984	1	3	3	0	3	2	3	3	2	5	3	0	0	0	0	6	0
070412	12:11:26	10021	Trial	IncongruentLeft	14	0	737	0	111	12:11:26	3904463	1	3	3	0	3	2	3	3	2	5	3	0	0	0	0	6	0
070412	12:11:26	10021	Trial	CongruentLeft	14	0	737	0	111	12:11:26	3905476	1	3	3	0	3	2	3	3	2	5	3	0	0	0	0	6	0
070412	12:11:26	10021	Trial	CongruentRight	14	0	737	0	111	12:11:26	3906489	1	3	3	0	3	2	3	3	2	5	3	0	0	0	0	6	0
070412	12:11:26	10021	Trial	CongruentLeft	14	205	491	0	111	12:11:26	3907262	1	3	3	0	3	2	3	3	2	5	3	0	0	0	0	6	0
070412	12:11:26	10021	Trial	IncongruentRight	14	0	737	0	111	12:11:26	3908501	1	3	3	0	3	2	3	3	2	5	3	0	0	0	0	6	0
070412	12:11:26	10021	Trial	CongruentRight	14	0	737	0	111	12:11:26	3909514	1	3	3	0	3	2	3	3	2	5	3	0	0	0	0	6	0
070412	12:11:26	10021	Trial	CongruentLeft	14	0	737	0	111	12:11:26	3910527	1	3	3	0	3	2	3	3	2	5	3	0	0	0	0	6	0
070412	12:11:26	10021	Trial	IncongruentLeft	14	0	737	0	111	12:11:26	3911540	1	3	3	0	3	2	3	3	2	5	3	0	0	0	0	6	0
070412	12:11:26	10021	Trial	IncongruentLeft	14	205	384	0	111	12:11:26	3912194	1	3	3	0	3	2	3	3	2	5	3	0	0	0	0	6	0
070412	12:11:26	10021	Trial	CongruentRight	14	0	737	0	111	12:11:26	3913553	1	3	3	0	3	2	3	3	2	5	3	0	0	0	0	6	0
070412	12:11:26	10021	Trial	IncongruentRight	14	205	256	1	111	12:11:26	3914086	1	3	3	0	3	2	3	3	2	5	3	0	0	0	0	6	0
070412	12:11:26	10021	Trial	CongruentLeft	14	203	620	1	111	12:11:26	3915445	1	3	3	0	3	2	3	3	2	5	3	0	0	0	0	6	0
070412	12:11:26	10021	Trial	IncongruentRight	14	0	737	0	111	12:11:26	3916565	1	3	3	0	3	2	3	3	2	5	3	0	0	0	0	6	0
070412	12:11:26	10021	Trial	CongruentRight	14	0	737	0	111	12:11:26	3917578	1	3	3	0	3	2	3	3	2	5	3	0	0	0	0	6	0
070412	12:11:26	10021	Trial	IncongruentLeft	14	0	737	0	111	12:11:26	3918591	1	3	3	0	3	2	3	3	2	5	3	0	0	0	0	6	0
070412	12:11:26	10021	Trial	CongruentLeft	14	203	309	1	111	12:11:26	3919177	1	3	3	0	3	2	3	3	2	5	3	0	0	0	0	6	0
070412	12:11:26	10021	Trial	CongruentRight	14	205	653	1	111	12:11:26	3920523	1	3	3	0	3	2	3	3	2	5	3	0	0	0	0	6	0
070412	12:11:26	10021	Trial	IncongruentLeft	14	0	737	0	111	12:11:26	3921603	1	3	3	0	3	2	3	3	2	5	3	0	0	0	0	6	0
070412	12:11:26	10021	Trial	CongruentRight	14	205	161	1	111	12:11:26	3922043	1	3	3	0	3	2	3	3	2	5	3	0	0	0	0	6	0
070412	12:11:26	10021	Trial	CongruentRight	14	0	737	0	111	12:11:26	3923616	1	3	3	0	3	2	3	3	2	5	3	0	0	0	0	6	0
070412	12:11:26	10021	Trial	IncongruentRight	14	0	737	0	111	12:11:26	3924629	1	3	3	0	3	2	3	3	2	5	3	0	0	0	0	6	0
070412	12:11:26	10021	Trial	CongruentLeft	14	0	737	0	111	12:11:26	3925641	1	3	3	0	3	2	3	3	2	5	3	0	0	0	0	6	0
070412	12:11:26	10021	Trial	IncongruentLeft	14	203	186	1	111	12:11:26	3926108	1	3	3	0	3	2	3	3	2	5	3	0	0	0	0	6	0
070412	12:11:26	10021	Trial	CongruentLeft	14	205	371	0	111	12:11:26	3927281	1	3	3	0	3	2	3	3	2	5	3	0	0	0	0	6	0
070412	12:11:26	10021	Trial	IncongruentRight	14	203	619	0	111	12:11:26	3928533	1	3	3	0	3	2	3	3	2	5	3	0	0	0	0	6	0
070412	12:11:26	10021	Trial	IncongruentLeft	14	0	737	0	111	12:11:26	3929653	1	3	3	0	3	2	3	3	2	5	3	0	0	0	0	6	0
070412	12:11:26	10021	Trial	CongruentRight	14	205	575	1	111	12:11:26	3930506	1	3	3	0	3	2	3	3	2	5	3	0	0	0	0	6	0
070412	12:11:26	10021	Trial	CongruentLeft	14	0	737	0	111	12:11:26	3931666	1	3	3	0	3	2	3	3	2	5	3	0	0	0	0	6	0
070412	12:11:26	10021	Trial	IncongruentLeft	14	0	737	0	111	12:11:26	3932679	1	3	3	0	3	2	3	3	2	5	3	0	0	0	0	6	0
070412	12:11:26	10021	Trial	CongruentLeft	14	203	605	1	111	12:11:26	3933558	1	3	3	0	3	2	3	3	2	5	3	0	0	0	0	6	0
070412	12:11:26	10021	Trial	IncongruentRight	14	0	737	0	111	12:11:26	3934691	1	3	3	0	3	2	3	3	2	5	3	0	0	0	0	6	0
070412	12:11:26	10021	Trial	CongruentRight	14	205	673	1	111	12:11:26	3935637	1	3	3	0	3	2	3	3	2	5	3	0	0	0	0	6	0
070412	12:11:26	10021	Trial	IncongruentLeft	14	0	737	0	111	12:11:26	3936704	1	3	3	0	3	2	3	3	2	5	3	0	0	0	0	6	0
070412	12:11:26	10021	Trial	CongruentLeft	14	203	612	1	111	12:11:26	3937597	1	3	3	0	3	2	3	3	2	5	3	0	0	0	0	6	0
070412	12:11:26	10021	Trial	IncongruentRight	14	0	737	0	111	12:11:26	3938716	1	3	3	0	3	2	3	3	2	5	3	0	0	0	0	6	0
070412	12:11:26	10021	Trial	IncongruentLeft	14	205	520	0	111	12:11:26	3939516	1	3	3	0	3	2	3	3	2	5	3	0	0	0	0	6	0
070412	12:11:26	10021	Trial	CongruentLeft	14	0	737	0	111	12:11:26	3940729	1	3	3	0	3	2	3	3	2	5	3	0	0	0	0	6	0
070412	12:11:26	10021	Trial	IncongruentLeft	14	203	331	1	111	12:11:26	3941328	1	3	3	0	3	2	3	3	2	5	3	0	0	0	0	6	0
070412	12:11:26	10021	Trial	CongruentRight	14	205	611	1	111	12:11:26	3942621	1	3	3	0	3	2	3	3	2	5	3	0	0	0	0	6	0
070412	12:11:26	10021	Trial	CongruentLeft	14	0	737	0	111	12:11:26	3943741	1	3	3	0	3	2	3	3	2	5	3	0	0	0	0	6	0
070412	12:11:26	10021	Trial	IncongruentRight	14	0	737	0	111	12:11:26	3944754	1	3	3	0	3	2	3	3	2	5	3	0	0	0	0	6	0
070412	12:11:26	10021	Trial	CongruentLeft	14	0	737	0	111	12:11:26	3945767	1	3	3	0	3	2	3	3	2	5	3	0	0	0	0	6	0
070412	12:11:26	10021	Trial	CongruentRight	14	0	737	0	111	12:11:26	3946780	1	3	3	0	3	2	3	3	2	5	3	0	0	0	0	6	0
070412	12:11:26	10021	Trial	IncongruentLeft	14	0	737	0	111	12:11:26	3947793	1	3	3	0	3	2	3	3	2	5	3	0	0	0	0	6	0
070412	12:11:26	10021	WordsAbsFrBaseline	PAbsFrBaseline1	16	Abs1	25918	0	111	12:11:26	3986018	1	3	3	0	3	2	3	3	2	5	3	0	0	0	0	6	0
070412	12:11:26	10021	WordsAbsFrBaseline	AbsFrBaseline1	16	Abs1	4164	0	111	12:11:26	3990229	1	3	3	0	3	2	3	3	2	5	3	1	0	0	0	6	0
070412	12:11:26	10021	WordsAbsFrBaseline	AbsFrBaseline2	16	Abs1	14554	0	111	12:11:26	4004824	1	3	3	0	3	2	3	3	2	5	3	2	0	0	0	6	0
070412	12:11:26	10021	WordsAbsFrBaseline	AbsFrBaseline3	16	Abs1	21095	0	111	12:11:26	4025962	1	3	3	0	3	2	3	3	2	5	3	3	0	0	0	6	0
070412	12:11:26	10021	Trial2BackFrS	NS	17	0	1000	1	111	12:11:26	4107303	1	3	3	0	3	2	3	3	2	5	3	3	0	0	0	6	0
070412	12:11:26	10021	Trial2BackFrS	NS	17	0	1000	1	111	12:11:26	4108823	1	3	3	0	3	2	3	3	2	5	3	3	0	0	0	6	0
070412	12:11:26	10021	Trial2BackFrS	NS	17	0	1000	1	111	12:11:26	4110342	1	3	3	0	3	2	3	3	2	5	3	3	0	0	0	6	0
070412	12:11:26	10021	Trial2BackFrS	YS	17	0	1000	0	111	12:11:26	4111861	1	3	3	0	3	2	3	3	2	5	3	3	0	0	0	6	0
070412	12:11:26	10021	Trial2BackFrS	NS	17	0	1000	1	111	12:11:26	4113381	1	3	3	0	3	2	3	3	2	5	3	3	0	0	0	6	0
070412	12:11:26	10021	Trial2BackFrS	NS	17	0	1000	1	111	12:11:26	4114900	1	3	3	0	3	2	3	3	2	5	3	3	0	0	0	6	0
070412	12:11:26	10021	Trial2BackFrS	NS	17	0	1000	1	111	12:11:26	4116419	1	3	3	0	3	2	3	3	2	5	3	3	0	0	0	6	0
070412	12:11:26	10021	Trial2BackFrS	NS	17	0	1000	1	111	12:11:26	4117939	1	3	3	0	3	2	3	3	2	5	3	3	0	0	0	6	0
070412	12:11:26	10021	Trial2BackFrS	YS	17	0	1000	0	111	12:11:26	4119458	1	3	3	0	3	2	3	3	2	5	3	3	0	0	0	6	0
070412	12:11:26	10021	Trial2BackFrS	NS	17	0	1000	1	111	12:11:26	4120977	1	3	3	0	3	2	3	3	2	5	3	3	0	0	0	6	0
070412	12:11:26	10021	Trial2BackFrS	NS	17	0	1000	1	111	12:11:26	4122497	1	3	3	0	3	2	3	3	2	5	3	3	0	0	0	6	0
070412	12:11:26	10021	Trial2BackFrS	YS	17	0	1000	0	111	12:11:26	4124016	1	3	3	0	3	2	3	3	2	5	3	3	0	0	0	6	0
070412	12:11:26	10021	Trial2BackFrS	NS	17	0	1000	1	111	12:11:26	4125536	1	3	3	0	3	2	3	3	2	5	3	3	0	0	0	6	0
070412	12:11:26	10021	Trial2BackFrS	NS	17	0	1000	1	111	12:11:26	4127055	1	3	3	0	3	2	3	3	2	5	3	3	0	0	0	6	0
070412	12:11:26	10021	Trial2BackFrS	NS	17	0	1000	1	111	12:11:26	4128575	1	3	3	0	3	2	3	3	2	5	3	3	0	0	0	6	0
070412	12:11:26	10021	Trial2BackFrS	YS	17	0	1000	0	111	12:11:26	4130094	1	3	3	0	3	2	3	3	2	5	3	3	0	0	0	6	0
070412	12:11:26	10021	Trial2BackFrS	NS	17	0	1000	1	111	12:11:26	4131613	1	3	3	0	3	2	3	3	2	5	3	3	0	0	0	6	0
070412	12:11:26	10021	Trial2BackFrS	NS	17	0	1000	1	111	12:11:26	4133133	1	3	3	0	3	2	3	3	2	5	3	3	0	0	0	6	0
070412	12:11:26	10021	Trial2BackFrS	NS	17	57	680	0	111	12:11:26	4134346	1	3	3	0	3	2	3	3	2	5	3	3	0	0	0	6	0
070412	12:11:26	10021	Trial2BackFrS	NS	17	0	1000	1	111	12:11:26	4136158	1	3	3	0	3	2	3	3	2	5	3	3	0	0	0	6	0
070412	12:11:26	10021	Trial2BackFrS	YS	17	57	758	1	111	12:11:26	4137438	1	3	3	0	3	2	3	3	2	5	3	3	0	0	0	6	0
070412	12:11:26	10021	Trial2BackFrS	NS	17	57	852	0	111	12:11:26	4139050	1	3	3	0	3	2	3	3	2	5	3	3	0	0	0	6	0
070412	12:11:26	10021	Trial2BackFrS	NS	17	57	928	0	111	12:11:26	4140610	1	3	3	0	3	2	3	3	2	5	3	3	0	0	0	6	0
070412	12:11:26	10021	Trial2BackFrS	NS	17	0	1000	1	111	12:11:26	4142183	1	3	3	0	3	2	3	3	2	5	3	3	0	0	0	6	0
070412	12:11:26	10021	Trial2BackFrS	NS	17	57	766	0	111	12:11:26	4143475	1	3	3	0	3	2	3	3	2	5	3	3	0	0	0	6	0
070412	12:11:26	10021	Trial2BackFrS	NS	17	57	876	0	111	12:11:26	4145088	1	3	3	0	3	2	3	3	2	5	3	3	0	0	0	6	0
070412	12:11:26	10021	Trial2BackFrS	NS	17	0	1000	1	111	12:11:26	4146701	1	3	3	0	3	2	3	3	2	5	3	3	0	0	0	6	0
070412	12:11:26	10021	Trial2BackFrS	NS	17	0	1000	1	111	12:11:26	4148220	1	3	3	0	3	2	3	3	2	5	3	3	0	0	0	6	0
070412	12:11:26	10021	Trial2BackFrS	NS	17	57	744	0	111	12:11:26	4149486	1	3	3	0	3	2	3	3	2	5	3	3	0	0	0	6	0
070412	12:11:26	10021	Trial2BackFrS	NS	17	0	1000	1	111	12:11:26	4151246	1	3	3	0	3	2	3	3	2	5	3	3	0	0	0	6	0
070412	12:11:26	10021	Trial2BackFrS	NS	17	57	935	0	111	12:11:26	4152712	1	3	3	0	3	2	3	3	2	5	3	3	0	0	0	6	0
070412	12:11:26	10021	Trial2BackFrS	YS	17	57	837	1	111	12:11:26	4154111	1	3	3	0	3	2	3	3	2	5	3	3	0	0	0	6	0
070412	12:11:26	10021	Trial2BackFrS	NS	17	0	1000	1	111	12:11:26	4155764	1	3	3	0	3	2	3	3	2	5	3	3	0	0	0	6	0
070412	12:11:26	10021	Trial2BackFrS	NS	17	0	1000	1	111	12:11:26	4157283	1	3	3	0	3	2	3	3	2	5	3	3	0	0	0	6	0
070412	12:11:26	10021	Trial2BackFrS	NS	17	0	1000	1	111	12:11:26	4158803	1	3	3	0	3	2	3	3	2	5	3	3	0	0	0	6	0
070412	12:11:26	10021	Trial2BackFrS	YS	17	57	770	1	111	12:11:26	4160096	1	3	3	0	3	2	3	3	2	5	3	3	0	0	0	6	0
070412	12:11:26	10021	Trial2BackFrS	NS	17	0	1000	1	111	12:11:26	4161828	1	3	3	0	3	2	3	3	2	5	3	3	0	0	0	6	0
070412	12:11:26	10021	Trial2BackFrS	NS	17	0	1000	1	111	12:11:26	4163348	1	3	3	0	3	2	3	3	2	5	3	3	0	0	0	6	0
070412	12:11:26	10021	Trial2BackFrS	NS	17	57	785	0	111	12:11:26	4164653	1	3	3	0	3	2	3	3	2	5	3	3	0	0	0	6	0
070412	12:11:26	10021	Trial2BackFrS	NS	17	0	1000	1	111	12:11:26	4166373	1	3	3	0	3	2	3	3	2	5	3	3	0	0	0	6	0
070412	12:11:26	10021	Trial2BackFrS	NS	17	0	1000	1	111	12:11:26	4167893	1	3	3	0	3	2	3	3	2	5	3	3	0	0	0	6	0
070412	12:11:26	10021	Trial2BackFrS	NS	17	0	1000	1	111	12:11:26	4169412	1	3	3	0	3	2	3	3	2	5	3	3	0	0	0	6	0
070412	12:11:26	10021	Trial2BackFrS	NS	17	0	1000	1	111	12:11:26	4170931	1	3	3	0	3	2	3	3	2	5	3	3	0	0	0	6	0
070412	12:11:26	10021	Trial2BackFrS	YS	17	57	769	1	111	12:11:26	4172224	1	3	3	0	3	2	3	3	2	5	3	3	0	0	0	6	0
070412	12:11:26	10021	Trial2BackFrS	NS	17	0	1000	1	111	12:11:26	4173957	1	3	3	0	3	2	3	3	2	5	3	3	0	0	0	6	0
070412	12:11:26	10021	Trial2BackFrS	NS	17	0	1000	1	111	12:11:26	4175476	1	3	3	0	3	2	3	3	2	5	3	3	0	0	0	6	0
070412	12:11:26	10021	Trial2BackFrS	NS	17	57	928	0	111	12:11:26	4176929	1	3	3	0	3	2	3	3	2	5	3	3	0	0	0	6	0
070412	12:11:26	10021	Trial2BackFrS	NS	17	0	1000	1	111	12:11:26	4178502	1	3	3	0	3	2	3	3	2	5	3	3	0	0	0	6	0
070412	12:11:26	10021	Trial2BackFrS	YS	17	0	1000	0	111	12:11:26	4180021	1	3	3	0	3	2	3	3	2	5	3	3	0	0	0	6	0
070412	12:11:26	10021	Trial2BackFrS	NS	17	0	1000	1	111	12:11:26	4181540	1	3	3	0	3	2	3	3	2	5	3	3	0	0	0	6	0
070412	12:11:26	10021	Trial2BackFrS	NS	17	0	1000	1	111	12:11:26	4183060	1	3	3	0	3	2	3	3	2	5	3	3	0	0	0	6	0
070412	12:11:26	10021	Trial2BackFrS	NS	17	0	1000	1	111	12:11:26	4184579	1	3	3	0	3	2	3	3	2	5	3	3	0	0	0	6	0
070412	12:11:26	10021	Trial2BackFrS	NS	17	0	1000	1	111	12:11:26	4186099	1	3	3	0	3	2	3	3	2	5	3	3	0	0	0	6	0
070412	12:11:26	10021	Trial2BackFrS	NS	17	0	1000	1	111	12:11:26	4187618	1	3	3	0	3	2	3	3	2	5	3	3	0	0	0	6	0
070412	12:11:26	10021	Trial2BackFrS	NS	17	0	1000	1	111	12:11:26	4189138	1	3	3	0	3	2	3	3	2	5	3	3	0	0	0	6	0
070412	12:11:26	10021	Trial2BackFrS	YS	17	0	1000	0	111	12:11:26	4190657	1	3	3	0	3	2	3	3	2	5	3	3	0	0	0	6	0
070412	12:11:26	10021	Trial2BackFrS	NS	17	0	1000	1	111	12:11:26	4192176	1	3	3	0	3	2	3	3	2	5	3	3	0	0	0	6	0
070412	12:11:26	10021	Trial2BackFrS	NS	17	0	1000	1	111	12:11:26	4193696	1	3	3	0	3	2	3	3	2	5	3	3	0	0	0	6	0
070412	12:11:26	10021	Trial2BackFrS	NS	17	0	1000	1	111	12:11:26	4195215	1	3	3	0	3	2	3	3	2	5	3	3	0	0	0	6	0
070412	12:11:26	10021	Trial2BackFrS	NS	17	0	1000	1	111	12:11:26	4196734	1	3	3	0	3	2	3	3	2	5	3	3	0	0	0	6	0
070412	12:11:26	10021	Trial2BackFrS	NS	17	57	741	0	111	12:11:26	4198001	1	3	3	0	3	2	3	3	2	5	3	3	0	0	0	6	0
070412	12:11:26	10021	Trial2BackFrS	NS	17	0	1000	1	111	12:11:26	4199760	1	3	3	0	3	2	3	3	2	5	3	3	0	0	0	6	0
070412	12:11:26	10021	Trial2BackFrS	NS	17	57	740	0	111	12:11:26	4201026	1	3	3	0	3	2	3	3	2	5	3	3	0	0	0	6	0
070412	12:11:26	10021	Trial2BackFrS	YS	17	0	1000	0	111	12:11:26	4202785	1	3	3	0	3	2	3	3	2	5	3	3	0	0	0	6	0
070412	12:11:26	10021	Trial2BackFrS	NS	17	57	578	0	111	12:11:26	4203892	1	3	3	0	3	2	3	3	2	5	3	3	0	0	0	6	0
070412	12:11:26	10021	Trial2BackFrS	NS	17	0	1000	1	111	12:11:26	4205811	1	3	3	0	3	2	3	3	2	5	3	3	0	0	0	6	0
070412	12:11:26	10021	Trial2BackFrS	NS	17	0	1000	1	111	12:11:26	4207330	1	3	3	0	3	2	3	3	2	5	3	3	0	0	0	6	0
070412	12:11:26	10021	Trial2BackFrS	NS	17	57	898	0	111	12:11:26	4208756	1	3	3	0	3	2	3	3	2	5	3	3	0	0	0	6	0
070412	12:11:26	10021	Trial2BackFrS	YS	17	0	1000	0	111	12:11:26	4210356	1	3	3	0	3	2	3	3	2	5	3	3	0	0	0	6	0
070412	12:11:26	10021	Trial2BackFrS	NS	17	0	1000	1	111	12:11:26	4211875	1	3	3	0	3	2	3	3	2	5	3	3	0	0	0	6	0
070412	12:11:26	10021	Trial2BackFrS	NS	17	0	1000	1	111	12:11:26	4213395	1	3	3	0	3	2	3	3	2	5	3	3	0	0	0	6	0
070412	12:11:26	10021	Trial2BackFrS	YS	17	57	657	1	111	12:11:26	4214581	1	3	3	0	3	2	3	3	2	5	3	3	0	0	0	6	0
070412	12:11:26	10021	Trial2BackFrS	NS	17	0	1000	1	111	12:11:26	4216420	1	3	3	0	3	2	3	3	2	5	3	3	0	0	0	6	0
070412	12:11:26	10021	Trial2BackFrS	NS	17	0	1000	1	111	12:11:26	4217939	1	3	3	0	3	2	3	3	2	5	3	3	0	0	0	6	0
070412	12:11:26	10021	Trial2BackFrS	NS	17	0	1000	1	111	12:11:26	4219459	1	3	3	0	3	2	3	3	2	5	3	3	0	0	0	6	0
070412	12:11:26	10021	Trial2BackFrS	NS	17	0	1000	1	111	12:11:26	4220978	1	3	3	0	3	2	3	3	2	5	3	3	0	0	0	6	0
070412	12:11:26	10021	Trial2BackFrS	NS	17	57	801	0	111	12:11:26	4222311	1	3	3	0	3	2	3	3	2	5	3	3	0	0	0	6	0
070412	12:11:26	10021	Trial2BackFrS	NS	17	0	1000	1	111	12:11:26	4224004	1	3	3	0	3	2	3	3	2	5	3	3	0	0	0	6	0
070412	12:11:26	10021	Trial2BackFrS	YS	17	57	752	1	111	12:11:26	4225283	1	3	3	0	3	2	3	3	2	5	3	3	0	0	0	6	0
070412	12:11:26	10021	Trial2BackFrS	NS	17	0	1000	1	111	12:11:26	4227029	1	3	3	0	3	2	3	3	2	5	3	3	0	0	0	6	0
070412	12:11:26	10021	Trial2BackFrS	NS	17	0	1000	1	111	12:11:26	4228549	1	3	3	0	3	2	3	3	2	5	3	3	0	0	0	6	0
070412	12:11:26	10021	Trial2BackFrS	NS	17	0	1000	1	111	12:11:26	4230068	1	3	3	0	3	2	3	3	2	5	3	3	0	0	0	6	0
070412	12:11:26	10021	Trial2BackFrS	NS	17	0	1000	1	111	12:11:26	4231587	1	3	3	0	3	2	3	3	2	5	3	3	0	0	0	6	0
070412	12:11:26	10021	Trial2BackFrS	YS	17	57	560	1	111	12:11:26	4232681	1	3	3	0	3	2	3	3	2	5	3	3	0	0	0	6	0
070412	12:11:26	10021	Trial2BackFrS	NS	17	0	1000	1	111	12:11:26	4234613	1	3	3	0	3	2	3	3	2	5	3	3	0	0	0	6	0
070412	12:11:26	10021	Trial2BackFrS	NS	17	0	1000	1	111	12:11:26	4236132	1	3	3	0	3	2	3	3	2	5	3	3	0	0	0	6	0
070412	12:11:26	10021	Trial2BackFrS	NS	17	0	1000	1	111	12:11:26	4237652	1	3	3	0	3	2	3	3	2	5	3	3	0	0	0	6	0
070412	12:11:26	10021	Trial2BackFrS	NS	17	0	1000	1	111	12:11:26	4239171	1	3	3	0	3	2	3	3	2	5	3	3	0	0	0	6	0
070412	12:11:26	10021	Trial2BackFrS	YS	17	57	464	1	111	12:11:26	4240157	1	3	3	0	3	2	3	3	2	5	3	3	0	0	0	6	0
070412	12:11:26	10021	Trial2BackFrS	NS	17	0	1000	1	111	12:11:26	4242196	1	3	3	0	3	2	3	3	2	5	3	3	0	0	0	6	0
070412	12:11:26	10021	Trial2BackFrS	NS	17	0	1000	1	111	12:11:26	4243716	1	3	3	0	3	2	3	3	2	5	3	3	0	0	0	6	0
070412	12:11:26	10021	Trial2BackFrS	YS	17	57	767	1	111	12:11:26	4245009	1	3	3	0	3	2	3	3	2	5	3	3	0	0	0	6	0
070412	12:11:26	10021	Trial2BackFrS	NS	17	0	1000	1	111	12:11:26	4246741	1	3	3	0	3	2	3	3	2	5	3	3	0	0	0	6	0
070412	12:11:26	10021	Trial2BackFrS	NS	17	0	1000	1	111	12:11:26	4248261	1	3	3	0	3	2	3	3	2	5	3	3	0	0	0	6	0
070412	12:11:26	10021	Trial2BackFrS	NS	17	0	1000	1	111	12:11:26	4249780	1	3	3	0	3	2	3	3	2	5	3	3	0	0	0	6	0
070412	12:11:26	10021	Trial2BackFrS	NS	17	0	1000	1	111	12:11:26	4251300	1	3	3	0	3	2	3	3	2	5	3	3	0	0	0	6	0
070412	12:11:26	10021	Trial2BackFrS	NS	17	0	1000	1	111	12:11:26	4252819	1	3	3	0	3	2	3	3	2	5	3	3	0	0	0	6	0
070412	12:11:26	10021	Trial2BackFrS	NS	17	57	608	0	111	12:11:26	4253952	1	3	3	0	3	2	3	3	2	5	3	3	0	0	0	6	0
070412	12:11:26	10021	Trial2BackFrS	NS	17	0	1000	1	111	12:11:26	4255844	1	3	3	0	3	2	3	3	2	5	3	3	0	0	0	6	0
070412	12:11:26	10021	Trial2BackFrS	NS	17	0	1000	1	111	12:11:26	4257364	1	3	3	0	3	2	3	3	2	5	3	3	0	0	0	6	0
070412	12:11:26	10021	Trial2BackFrS	YS	17	57	767	1	111	12:11:26	4258657	1	3	3	0	3	2	3	3	2	5	3	3	0	0	0	6	0
070412	12:11:26	10021	Trial2BackFrS	NS	17	0	1000	1	111	12:11:26	4260390	1	3	3	0	3	2	3	3	2	5	3	3	0	0	0	6	0
070412	12:11:26	10021	Trial2BackFrS	NS	17	0	1000	1	111	12:11:26	4261909	1	3	3	0	3	2	3	3	2	5	3	3	0	0	0	6	0
070412	12:11:26	10021	Trial2BackFrS	NS	17	57	590	0	111	12:11:26	4263028	1	3	3	0	3	2	3	3	2	5	3	3	0	0	0	6	0
070412	12:11:26	10021	Trial2BackFrS	NS	17	0	1000	1	111	12:11:26	4264934	1	3	3	0	3	2	3	3	2	5	3	3	0	0	0	6	0
070412	12:11:26	10021	Trial2BackFrS	NS	17	0	1000	1	111	12:11:26	4266454	1	3	3	0	3	2	3	3	2	5	3	3	0	0	0	6	0
070412	12:11:26	10021	Trial2BackFrS	NS	17	0	1000	1	111	12:11:26	4267973	1	3	3	0	3	2	3	3	2	5	3	3	0	0	0	6	0
070412	12:11:26	10021	Trial2BackFrS	NS	17	0	1000	1	111	12:11:26	4269492	1	3	3	0	3	2	3	3	2	5	3	3	0	0	0	6	0
070412	12:11:26	10021	Trial2BackFrS	YS	17	57	798	1	111	12:11:26	4270812	1	3	3	0	3	2	3	3	2	5	3	3	0	0	0	6	0
070412	12:11:26	10021	Trial2BackFrS	NS	17	0	1000	1	111	12:11:26	4272518	1	3	3	0	3	2	3	3	2	5	3	3	0	0	0	6	0
070412	12:11:26	10021	Trial2BackFrS	NS	17	0	1000	1	111	12:11:26	4274037	1	3	3	0	3	2	3	3	2	5	3	3	0	0	0	6	0
070412	12:11:26	10021	Trial2BackFrS	NS	17	57	718	0	111	12:11:26	4275277	1	3	3	0	3	2	3	3	2	5	3	3	0	0	0	6	0
070412	12:11:26	10021	Trial2BackFrS	NS	17	0	1000	1	111	12:11:26	4277063	1	3	3	0	3	2	3	3	2	5	3	3	0	0	0	6	0
070412	12:11:26	10021	Trial2BackFrS	NS	17	0	1000	1	111	12:11:26	4278582	1	3	3	0	3	2	3	3	2	5	3	3	0	0	0	6	0
070412	12:11:26	10021	Trial2BackFrS	NS	17	57	589	0	111	12:11:26	4279702	1	3	3	0	3	2	3	3	2	5	3	3	0	0	0	6	0
070412	12:11:26	10021	Trial2BackFrS	NS	17	0	1000	1	111	12:11:26	4281608	1	3	3	0	3	2	3	3	2	5	3	3	0	0	0	6	0
070412	12:11:26	10021	Trial2BackFrS	NS	17	0	1000	1	111	12:11:26	4283127	1	3	3	0	3	2	3	3	2	5	3	3	0	0	0	6	0
070412	12:11:26	10021	Trial2BackFrS	NS	17	57	540	0	111	12:11:26	4284193	1	3	3	0	3	2	3	3	2	5	3	3	0	0	0	6	0
070412	12:11:26	10021	Trial2BackFrS	YS	17	0	1000	0	111	12:11:26	4286153	1	3	3	0	3	2	3	3	2	5	3	3	0	0	0	6	0
070412	12:11:26	10021	Trial2BackFrS	NS	17	0	1000	1	111	12:11:26	4287672	1	3	3	0	3	2	3	3	2	5	3	3	0	0	0	6	0
070412	12:11:26	10021	ClockFrBaseline	ClockFrBaseline	19	Clock1	68494	0	111	12:11:26	4356298	1	3	3	0	3	2	3	3	2	5	3	3	1	0	0	6	0
070412	12:11:26	10021	ClockFrBaseline	ClockFrBaseline	19	Clock22	560	0	111	12:11:26	4356898	1	3	3	0	3	2	3	3	2	5	3	3	1	0	0	6	0
070412	12:11:26	10021	ClockFrBaseline	ClockFrBaseline	19	Clock111	529	0	111	12:11:26	4357471	1	3	3	0	3	2	3	3	2	5	3	3	1	0	1	6	0
070412	12:11:26	10021	ClockFrBaseline	ClockFrBaseline	19	Clockdone	420	0	111	12:11:26	4357938	1	3	3	0	3	2	3	3	2	5	3	3	1	0	1	6	0
070412	12:11:26	10021	FASFrVFBaseline	StopFrVFBaseline	20	13	8745	0	111	12:11:26	4518223	1	3	3	0	3	2	3	3	2	5	3	3	1	0	1	6	0
