date	time	subject	blockcode	trialcode	values.TaskNumber	response	latency	correct	values.Score	script.starttime	script.elapsedtime	values.ScoreS7	values.Word1	values.Word2	values.Word3	values.Word4	values.Word5	values.Word6	values.Word7	values.Word8	values.DigitSpanFwrd	values.DigitSpanBack	values.ScoreAbs	values.Contour	values.Numbers	values.Hands	values.corsiblockspanFwrd	values.corsiblockspanRev
080112	13:56:39	10033	Language	Language	0	French	24721	0	0	13:56:39	24816	0	0	0	0	0	0	0	0	0	0	0	0	0	0	0	0	0
080112	13:56:39	10033	Session	Session	0	Baseline	1018	0	0	13:56:39	25909	0	0	0	0	0	0	0	0	0	0	0	0	0	0	0	0	0
080112	13:56:39	10033	HandFr	HandFr	0	RightFr	930859	0	0	13:56:39	956849	0	0	0	0	0	0	0	0	0	0	0	0	0	0	0	0	0
080112	13:56:39	10033	AudioCheckFr	WordsFr	0	0	0	0	0	13:56:39	983981	0	0	0	0	0	0	0	0	0	0	0	0	0	0	0	0	0
080112	13:56:39	10033	CubeFr	CubeFr	1	1Cube	22318	0	0	13:56:39	1010133	0	0	0	0	0	0	0	0	0	0	0	0	0	0	0	0	0
080112	13:56:39	10033	pm.simpleFrRight	blank.simpleFr	2	0	2287	1	0	13:56:39	1045146	0	0	0	0	0	0	0	0	0	0	0	0	0	0	0	0	0
080112	13:56:39	10033	pm.simpleFrRight	pm.simpleFr	2	57	631	0	0	13:56:39	1045813	0	0	0	0	0	0	0	0	0	0	0	0	0	0	0	0	0
080112	13:56:39	10033	pm.simpleFrRight	blank.simpleFr	2	0	1887	1	0	13:56:39	1047718	0	0	0	0	0	0	0	0	0	0	0	0	0	0	0	0	0
080112	13:56:39	10033	pm.simpleFrRight	pm.simpleFr	2	57	378	0	0	13:56:39	1048132	0	0	0	0	0	0	0	0	0	0	0	0	0	0	0	0	0
080112	13:56:39	10033	pm.simpleFrRight	blank.simpleFr	2	0	2087	1	0	13:56:39	1050237	0	0	0	0	0	0	0	0	0	0	0	0	0	0	0	0	0
080112	13:56:39	10033	pm.simpleFrRight	pm.simpleFr	2	57	531	0	0	13:56:39	1050811	0	0	0	0	0	0	0	0	0	0	0	0	0	0	0	0	0
080112	13:56:39	10033	pm.simpleFrRight	blank.simpleFr	2	0	2387	1	0	13:56:39	1053223	0	0	0	0	0	0	0	0	0	0	0	0	0	0	0	0	0
080112	13:56:39	10033	pm.simpleFrRight	pm.simpleFr	2	57	314	0	0	13:56:39	1053570	0	0	0	0	0	0	0	0	0	0	0	0	0	0	0	0	0
080112	13:56:39	10033	pm.simpleFrRight	blank.simpleFr	2	0	1587	1	0	13:56:39	1055182	0	0	0	0	0	0	0	0	0	0	0	0	0	0	0	0	0
080112	13:56:39	10033	pm.simpleFrRight	pm.simpleFr	2	57	355	0	0	13:56:39	1055569	0	0	0	0	0	0	0	0	0	0	0	0	0	0	0	0	0
080112	13:56:39	10033	pm.simpleFrRight	blank.simpleFr	2	0	1987	1	0	13:56:39	1057581	0	0	0	0	0	0	0	0	0	0	0	0	0	0	0	0	0
080112	13:56:39	10033	pm.simpleFrRight	pm.simpleFr	2	57	291	0	0	13:56:39	1057914	0	0	0	0	0	0	0	0	0	0	0	0	0	0	0	0	0
080112	13:56:39	10033	pm.simpleFrRight	blank.simpleFr	2	0	2187	1	0	13:56:39	1060127	0	0	0	0	0	0	0	0	0	0	0	0	0	0	0	0	0
080112	13:56:39	10033	pm.simpleFrRight	pm.simpleFr	2	57	322	0	0	13:56:39	1060487	0	0	0	0	0	0	0	0	0	0	0	0	0	0	0	0	0
080112	13:56:39	10033	pm.simpleFrRight	blank.simpleFr	2	0	1487	1	0	13:56:39	1061993	0	0	0	0	0	0	0	0	0	0	0	0	0	0	0	0	0
080112	13:56:39	10033	pm.simpleFrRight	pm.simpleFr	2	57	360	0	0	13:56:39	1062393	0	0	0	0	0	0	0	0	0	0	0	0	0	0	0	0	0
080112	13:56:39	10033	pm.simpleFrRight	blank.simpleFr	2	0	1787	1	0	13:56:39	1064205	0	0	0	0	0	0	0	0	0	0	0	0	0	0	0	0	0
080112	13:56:39	10033	pm.simpleFrRight	pm.simpleFr	2	57	323	0	0	13:56:39	1064565	0	0	0	0	0	0	0	0	0	0	0	0	0	0	0	0	0
080112	13:56:39	10033	pm.simpleFrRight	blank.simpleFr	2	0	1687	1	0	13:56:39	1066271	0	0	0	0	0	0	0	0	0	0	0	0	0	0	0	0	0
080112	13:56:39	10033	pm.simpleFrRight	pm.simpleFr	2	57	289	0	0	13:56:39	1066591	0	0	0	0	0	0	0	0	0	0	0	0	0	0	0	0	0
080112	13:56:39	10033	pm.simpleFrRight	blank.simpleFr	2	0	2487	1	0	13:56:39	1069110	0	0	0	0	0	0	0	0	0	0	0	0	0	0	0	0	0
080112	13:56:39	10033	pm.simpleFrRight	pm.simpleFr	2	57	522	0	0	13:56:39	1069670	0	0	0	0	0	0	0	0	0	0	0	0	0	0	0	0	0
080112	13:56:39	10033	pm.simpleFrRight	blank.simpleFr	2	0	2087	1	0	13:56:39	1071789	0	0	0	0	0	0	0	0	0	0	0	0	0	0	0	0	0
080112	13:56:39	10033	pm.simpleFrRight	pm.simpleFr	2	57	404	0	0	13:56:39	1072229	0	0	0	0	0	0	0	0	0	0	0	0	0	0	0	0	0
080112	13:56:39	10033	pm.simpleFrRight	blank.simpleFr	2	0	1887	1	0	13:56:39	1074135	0	0	0	0	0	0	0	0	0	0	0	0	0	0	0	0	0
080112	13:56:39	10033	pm.simpleFrRight	pm.simpleFr	2	57	346	0	0	13:56:39	1074521	0	0	0	0	0	0	0	0	0	0	0	0	0	0	0	0	0
080112	13:56:39	10033	pm.simpleFrRight	blank.simpleFr	2	0	2387	1	0	13:56:39	1076934	0	0	0	0	0	0	0	0	0	0	0	0	0	0	0	0	0
080112	13:56:39	10033	pm.simpleFrRight	pm.simpleFr	2	57	363	0	0	13:56:39	1077334	0	0	0	0	0	0	0	0	0	0	0	0	0	0	0	0	0
080112	13:56:39	10033	pm.simpleFrRight	blank.simpleFr	2	0	1487	1	0	13:56:39	1078840	0	0	0	0	0	0	0	0	0	0	0	0	0	0	0	0	0
080112	13:56:39	10033	pm.simpleFrRight	pm.simpleFr	2	57	489	0	0	13:56:39	1079359	0	0	0	0	0	0	0	0	0	0	0	0	0	0	0	0	0
080112	13:56:39	10033	pm.simpleFrRight	blank.simpleFr	2	0	2187	1	0	13:56:39	1081572	0	0	0	0	0	0	0	0	0	0	0	0	0	0	0	0	0
080112	13:56:39	10033	pm.simpleFrRight	pm.simpleFr	2	57	284	0	0	13:56:39	1081892	0	0	0	0	0	0	0	0	0	0	0	0	0	0	0	0	0
080112	13:56:39	10033	pm.simpleFrRight	blank.simpleFr	2	0	1587	1	0	13:56:39	1083504	0	0	0	0	0	0	0	0	0	0	0	0	0	0	0	0	0
080112	13:56:39	10033	pm.simpleFrRight	pm.simpleFr	2	57	304	0	0	13:56:39	1083851	0	0	0	0	0	0	0	0	0	0	0	0	0	0	0	0	0
080112	13:56:39	10033	pm.simpleFrRight	blank.simpleFr	2	0	1987	1	0	13:56:39	1085864	0	0	0	0	0	0	0	0	0	0	0	0	0	0	0	0	0
080112	13:56:39	10033	pm.simpleFrRight	pm.simpleFr	2	57	265	0	0	13:56:39	1086170	0	0	0	0	0	0	0	0	0	0	0	0	0	0	0	0	0
080112	13:56:39	10033	pm.simpleFrRight	blank.simpleFr	2	0	2487	1	0	13:56:39	1088689	0	0	0	0	0	0	0	0	0	0	0	0	0	0	0	0	0
080112	13:56:39	10033	pm.simpleFrRight	pm.simpleFr	2	57	287	0	0	13:56:39	1089009	0	0	0	0	0	0	0	0	0	0	0	0	0	0	0	0	0
080112	13:56:39	10033	pm.simpleFrRight	blank.simpleFr	2	0	1787	1	0	13:56:39	1090822	0	0	0	0	0	0	0	0	0	0	0	0	0	0	0	0	0
080112	13:56:39	10033	pm.simpleFrRight	pm.simpleFr	2	57	283	0	0	13:56:39	1091141	0	0	0	0	0	0	0	0	0	0	0	0	0	0	0	0	0
080112	13:56:39	10033	pm.simpleFrRight	blank.simpleFr	2	0	1687	1	0	13:56:39	1092861	0	0	0	0	0	0	0	0	0	0	0	0	0	0	0	0	0
080112	13:56:39	10033	pm.simpleFrRight	pm.simpleFr	2	57	260	0	0	13:56:39	1093154	0	0	0	0	0	0	0	0	0	0	0	0	0	0	0	0	0
080112	13:56:39	10033	pm.simpleFrRight	blank.simpleFr	2	0	2287	1	0	13:56:39	1095460	0	0	0	0	0	0	0	0	0	0	0	0	0	0	0	0	0
080112	13:56:39	10033	pm.simpleFrRight	pm.simpleFr	2	57	301	0	0	13:56:39	1095793	0	0	0	0	0	0	0	0	0	0	0	0	0	0	0	0	0
080112	13:56:39	10033	pm.simpleFrRight	blank.simpleFr	2	0	1687	1	0	13:56:39	1097499	0	0	0	0	0	0	0	0	0	0	0	0	0	0	0	0	0
080112	13:56:39	10033	pm.simpleFrRight	pm.simpleFr	2	57	261	0	0	13:56:39	1097792	0	0	0	0	0	0	0	0	0	0	0	0	0	0	0	0	0
080112	13:56:39	10033	pm.simpleFrRight	blank.simpleFr	2	0	2187	1	0	13:56:39	1100005	0	0	0	0	0	0	0	0	0	0	0	0	0	0	0	0	0
080112	13:56:39	10033	pm.simpleFrRight	pm.simpleFr	2	57	268	0	0	13:56:39	1100311	0	0	0	0	0	0	0	0	0	0	0	0	0	0	0	0	0
080112	13:56:39	10033	pm.simpleFrRight	blank.simpleFr	2	0	2387	1	0	13:56:39	1102724	0	0	0	0	0	0	0	0	0	0	0	0	0	0	0	0	0
080112	13:56:39	10033	pm.simpleFrRight	pm.simpleFr	2	57	285	0	0	13:56:39	1103043	0	0	0	0	0	0	0	0	0	0	0	0	0	0	0	0	0
080112	13:56:39	10033	pm.simpleFrRight	blank.simpleFr	2	0	1987	1	0	13:56:39	1105056	0	0	0	0	0	0	0	0	0	0	0	0	0	0	0	0	0
080112	13:56:39	10033	pm.simpleFrRight	pm.simpleFr	2	57	256	0	0	13:56:39	1105349	0	0	0	0	0	0	0	0	0	0	0	0	0	0	0	0	0
080112	13:56:39	10033	pm.simpleFrRight	blank.simpleFr	2	0	1587	1	0	13:56:39	1106962	0	0	0	0	0	0	0	0	0	0	0	0	0	0	0	0	0
080112	13:56:39	10033	pm.simpleFrRight	pm.simpleFr	2	57	318	0	0	13:56:39	1107322	0	0	0	0	0	0	0	0	0	0	0	0	0	0	0	0	0
080112	13:56:39	10033	pm.simpleFrRight	blank.simpleFr	2	0	1787	1	0	13:56:39	1109134	0	0	0	0	0	0	0	0	0	0	0	0	0	0	0	0	0
080112	13:56:39	10033	pm.simpleFrRight	pm.simpleFr	2	57	290	0	0	13:56:39	1109454	0	0	0	0	0	0	0	0	0	0	0	0	0	0	0	0	0
080112	13:56:39	10033	pm.simpleFrRight	blank.simpleFr	2	0	1887	1	0	13:56:39	1111360	0	0	0	0	0	0	0	0	0	0	0	0	0	0	0	0	0
080112	13:56:39	10033	pm.simpleFrRight	pm.simpleFr	2	57	288	0	0	13:56:39	1111680	0	0	0	0	0	0	0	0	0	0	0	0	0	0	0	0	0
080112	13:56:39	10033	pm.simpleFrRight	blank.simpleFr	2	0	2487	1	0	13:56:39	1114199	0	0	0	0	0	0	0	0	0	0	0	0	0	0	0	0	0
080112	13:56:39	10033	pm.simpleFrRight	pm.simpleFr	2	57	265	0	0	13:56:39	1114506	0	0	0	0	0	0	0	0	0	0	0	0	0	0	0	0	0
080112	13:56:39	10033	pm.simpleFrRight	blank.simpleFr	2	0	2087	1	0	13:56:39	1116611	0	0	0	0	0	0	0	0	0	0	0	0	0	0	0	0	0
080112	13:56:39	10033	pm.simpleFrRight	pm.simpleFr	2	57	269	0	0	13:56:39	1116918	0	0	0	0	0	0	0	0	0	0	0	0	0	0	0	0	0
080112	13:56:39	10033	pm.simpleFrRight	blank.simpleFr	2	0	2287	1	0	13:56:39	1119223	0	0	0	0	0	0	0	0	0	0	0	0	0	0	0	0	0
080112	13:56:39	10033	pm.simpleFrRight	pm.simpleFr	2	57	264	0	0	13:56:39	1119530	0	0	0	0	0	0	0	0	0	0	0	0	0	0	0	0	0
080112	13:56:39	10033	pm.simpleFrRight	blank.simpleFr	2	0	1487	1	0	13:56:39	1121036	0	0	0	0	0	0	0	0	0	0	0	0	0	0	0	0	0
080112	13:56:39	10033	pm.simpleFrRight	pm.simpleFr	2	57	292	0	0	13:56:39	1121370	0	0	0	0	0	0	0	0	0	0	0	0	0	0	0	0	0
080112	13:56:39	10033	pm.simpleFrRight	blank.simpleFr	2	0	2487	1	0	13:56:39	1123889	0	0	0	0	0	0	0	0	0	0	0	0	0	0	0	0	0
080112	13:56:39	10033	pm.simpleFrRight	pm.simpleFr	2	57	287	0	0	13:56:39	1124208	0	0	0	0	0	0	0	0	0	0	0	0	0	0	0	0	0
080112	13:56:39	10033	pm.simpleFrRight	blank.simpleFr	2	0	2187	1	0	13:56:39	1126421	0	0	0	0	0	0	0	0	0	0	0	0	0	0	0	0	0
080112	13:56:39	10033	pm.simpleFrRight	pm.simpleFr	2	57	283	0	0	13:56:39	1126741	0	0	0	0	0	0	0	0	0	0	0	0	0	0	0	0	0
080112	13:56:39	10033	pm.simpleFrRight	blank.simpleFr	2	0	1787	1	0	13:56:39	1128607	0	0	0	0	0	0	0	0	0	0	0	0	0	0	0	0	0
080112	13:56:39	10033	pm.simpleFrRight	pm.simpleFr	2	57	257	0	0	13:56:39	1128900	0	0	0	0	0	0	0	0	0	0	0	0	0	0	0	0	0
080112	13:56:39	10033	pm.simpleFrRight	blank.simpleFr	2	0	1487	1	0	13:56:39	1130406	0	0	0	0	0	0	0	0	0	0	0	0	0	0	0	0	0
080112	13:56:39	10033	pm.simpleFrRight	pm.simpleFr	2	57	298	0	0	13:56:39	1130739	0	0	0	0	0	0	0	0	0	0	0	0	0	0	0	0	0
080112	13:56:39	10033	pm.simpleFrRight	blank.simpleFr	2	0	2387	1	0	13:56:39	1133152	0	0	0	0	0	0	0	0	0	0	0	0	0	0	0	0	0
080112	13:56:39	10033	pm.simpleFrRight	pm.simpleFr	2	57	320	0	0	13:56:39	1133511	0	0	0	0	0	0	0	0	0	0	0	0	0	0	0	0	0
080112	13:56:39	10033	pm.simpleFrRight	blank.simpleFr	2	0	1687	1	0	13:56:39	1135217	0	0	0	0	0	0	0	0	0	0	0	0	0	0	0	0	0
080112	13:56:39	10033	pm.simpleFrRight	pm.simpleFr	2	57	302	0	0	13:56:39	1135551	0	0	0	0	0	0	0	0	0	0	0	0	0	0	0	0	0
080112	13:56:39	10033	pm.simpleFrRight	blank.simpleFr	2	0	1887	1	0	13:56:39	1137470	0	0	0	0	0	0	0	0	0	0	0	0	0	0	0	0	0
080112	13:56:39	10033	pm.simpleFrRight	pm.simpleFr	2	57	274	0	0	13:56:39	1137776	0	0	0	0	0	0	0	0	0	0	0	0	0	0	0	0	0
080112	13:56:39	10033	Trial2BackFr	N	3	0	1000	1	1	13:56:39	1292889	0	0	0	0	0	0	0	0	0	0	0	0	0	0	0	0	0
080112	13:56:39	10033	Trial2BackFr	N	3	0	1000	1	2	13:56:39	1294408	0	0	0	0	0	0	0	0	0	0	0	0	0	0	0	0	0
080112	13:56:39	10033	Trial2BackFr	N	3	0	1000	1	3	13:56:39	1295927	0	0	0	0	0	0	0	0	0	0	0	0	0	0	0	0	0
080112	13:56:39	10033	Trial2BackFr	N	3	0	1000	1	4	13:56:39	1297447	0	0	0	0	0	0	0	0	0	0	0	0	0	0	0	0	0
080112	13:56:39	10033	Trial2BackFr	N	3	0	1000	1	5	13:56:39	1298966	0	0	0	0	0	0	0	0	0	0	0	0	0	0	0	0	0
080112	13:56:39	10033	Trial2BackFr	N	3	0	1000	1	6	13:56:39	1300485	0	0	0	0	0	0	0	0	0	0	0	0	0	0	0	0	0
080112	13:56:39	10033	Trial2BackFr	N	3	0	1000	1	7	13:56:39	1302005	0	0	0	0	0	0	0	0	0	0	0	0	0	0	0	0	0
080112	13:56:39	10033	Trial2BackFr	N	3	0	1000	1	8	13:56:39	1303524	0	0	0	0	0	0	0	0	0	0	0	0	0	0	0	0	0
080112	13:56:39	10033	Trial2BackFr	Y	3	57	14	1	9	13:56:39	1304071	0	0	0	0	0	0	0	0	0	0	0	0	0	0	0	0	0
080112	13:56:39	10033	Trial2BackFr	N	3	0	1000	1	10	13:56:39	1306550	0	0	0	0	0	0	0	0	0	0	0	0	0	0	0	0	0
080112	13:56:39	10033	Trial2BackFr	N	3	0	1000	1	11	13:56:39	1308069	0	0	0	0	0	0	0	0	0	0	0	0	0	0	0	0	0
080112	13:56:39	10033	Trial2BackFr	N	3	0	1000	1	12	13:56:39	1309589	0	0	0	0	0	0	0	0	0	0	0	0	0	0	0	0	0
080112	13:56:39	10033	Trial2BackFr	Y	3	57	909	1	13	13:56:39	1311028	0	0	0	0	0	0	0	0	0	0	0	0	0	0	0	0	0
080112	13:56:39	10033	Trial2BackFr	N	3	0	1000	1	14	13:56:39	1312614	0	0	0	0	0	0	0	0	0	0	0	0	0	0	0	0	0
080112	13:56:39	10033	Trial2BackFr	N	3	0	1000	1	15	13:56:39	1314133	0	0	0	0	0	0	0	0	0	0	0	0	0	0	0	0	0
080112	13:56:39	10033	Trial2BackFr	N	3	0	1000	1	16	13:56:39	1315653	0	0	0	0	0	0	0	0	0	0	0	0	0	0	0	0	0
080112	13:56:39	10033	Trial2BackFr	N	3	0	1000	1	17	13:56:39	1317172	0	0	0	0	0	0	0	0	0	0	0	0	0	0	0	0	0
080112	13:56:39	10033	Trial2BackFr	N	3	57	782	0	17	13:56:39	1318478	0	0	0	0	0	0	0	0	0	0	0	0	0	0	0	0	0
080112	13:56:39	10033	Trial2BackFr	Y	3	0	1000	0	17	13:56:39	1320198	0	0	0	0	0	0	0	0	0	0	0	0	0	0	0	0	0
080112	13:56:39	10033	Trial2BackFr	N	3	0	1000	1	18	13:56:39	1321717	0	0	0	0	0	0	0	0	0	0	0	0	0	0	0	0	0
080112	13:56:39	10033	Trial2BackFr	N	3	57	845	0	18	13:56:39	1323090	0	0	0	0	0	0	0	0	0	0	0	0	0	0	0	0	0
080112	13:56:39	10033	Trial2BackFr	N	3	0	1000	1	19	13:56:39	1324743	0	0	0	0	0	0	0	0	0	0	0	0	0	0	0	0	0
080112	13:56:39	10033	Trial2BackFr	N	3	0	1000	1	20	13:56:39	1326262	0	0	0	0	0	0	0	0	0	0	0	0	0	0	0	0	0
080112	13:56:39	10033	Trial2BackFr	Y	3	0	1000	0	20	13:56:39	1327781	0	0	0	0	0	0	0	0	0	0	0	0	0	0	0	0	0
080112	13:56:39	10033	Trial2BackFr	N	3	57	876	0	20	13:56:39	1329181	0	0	0	0	0	0	0	0	0	0	0	0	0	0	0	0	0
080112	13:56:39	10033	Trial2BackFr	N	3	57	666	0	20	13:56:39	1330487	0	0	0	0	0	0	0	0	0	0	0	0	0	0	0	0	0
080112	13:56:39	10033	Trial2BackFr	N	3	0	1000	1	21	13:56:39	1332299	0	0	0	0	0	0	0	0	0	0	0	0	0	0	0	0	0
080112	13:56:39	10033	Trial2BackFr	N	3	57	726	0	21	13:56:39	1333552	0	0	0	0	0	0	0	0	0	0	0	0	0	0	0	0	0
080112	13:56:39	10033	Trial2BackFr	N	3	57	724	0	21	13:56:39	1335058	0	0	0	0	0	0	0	0	0	0	0	0	0	0	0	0	0
080112	13:56:39	10033	Trial2BackFr	N	3	0	1000	1	22	13:56:39	1336818	0	0	0	0	0	0	0	0	0	0	0	0	0	0	0	0	0
080112	13:56:39	10033	Trial2BackFr	Y	3	57	704	1	23	13:56:39	1338044	0	0	0	0	0	0	0	0	0	0	0	0	0	0	0	0	0
080112	13:56:39	10033	Trial2BackFr	N	3	0	1000	1	24	13:56:39	1339843	0	0	0	0	0	0	0	0	0	0	0	0	0	0	0	0	0
080112	13:56:39	10033	Trial2BackFr	N	3	57	814	0	24	13:56:39	1341189	0	0	0	0	0	0	0	0	0	0	0	0	0	0	0	0	0
080112	13:56:39	10033	Trial2BackFr	N	3	0	1000	1	25	13:56:39	1342869	0	0	0	0	0	0	0	0	0	0	0	0	0	0	0	0	0
080112	13:56:39	10033	Trial2BackFr	Y	3	57	541	1	26	13:56:39	1343935	0	0	0	0	0	0	0	0	0	0	0	0	0	0	0	0	0
080112	13:56:39	10033	Trial2BackFr	N	3	0	1000	1	27	13:56:39	1345894	0	0	0	0	0	0	0	0	0	0	0	0	0	0	0	0	0
080112	13:56:39	10033	Trial2BackFr	N	3	0	1000	1	28	13:56:39	1347414	0	0	0	0	0	0	0	0	0	0	0	0	0	0	0	0	0
080112	13:56:39	10033	Trial2BackFr	N	3	0	1000	1	29	13:56:39	1348933	0	0	0	0	0	0	0	0	0	0	0	0	0	0	0	0	0
080112	13:56:39	10033	Trial2BackFr	N	3	0	1000	1	30	13:56:39	1350452	0	0	0	0	0	0	0	0	0	0	0	0	0	0	0	0	0
080112	13:56:39	10033	Trial2BackFr	N	3	57	797	0	30	13:56:39	1351772	0	0	0	0	0	0	0	0	0	0	0	0	0	0	0	0	0
080112	13:56:39	10033	Trial2BackFr	N	3	57	683	0	30	13:56:39	1353171	0	0	0	0	0	0	0	0	0	0	0	0	0	0	0	0	0
080112	13:56:39	10033	Trial2BackFr	Y	3	57	598	1	31	13:56:39	1354584	0	0	0	0	0	0	0	0	0	0	0	0	0	0	0	0	0
080112	13:56:39	10033	Trial2BackFr	N	3	0	1000	1	32	13:56:39	1356477	0	0	0	0	0	0	0	0	0	0	0	0	0	0	0	0	0
080112	13:56:39	10033	Trial2BackFr	N	3	57	501	0	32	13:56:39	1357503	0	0	0	0	0	0	0	0	0	0	0	0	0	0	0	0	0
080112	13:56:39	10033	Trial2BackFr	N	3	0	1000	1	33	13:56:39	1359502	0	0	0	0	0	0	0	0	0	0	0	0	0	0	0	0	0
080112	13:56:39	10033	Trial2BackFr	N	3	0	1000	1	34	13:56:39	1361022	0	0	0	0	0	0	0	0	0	0	0	0	0	0	0	0	0
080112	13:56:39	10033	Trial2BackFr	Y	3	57	612	1	35	13:56:39	1362168	0	0	0	0	0	0	0	0	0	0	0	0	0	0	0	0	0
080112	13:56:39	10033	Trial2BackFr	N	3	0	1000	1	36	13:56:39	1364047	0	0	0	0	0	0	0	0	0	0	0	0	0	0	0	0	0
080112	13:56:39	10033	Trial2BackFr	N	3	0	1000	1	37	13:56:39	1365567	0	0	0	0	0	0	0	0	0	0	0	0	0	0	0	0	0
080112	13:56:39	10033	Trial2BackFr	N	3	57	914	0	37	13:56:39	1367006	0	0	0	0	0	0	0	0	0	0	0	0	0	0	0	0	0
080112	13:56:39	10033	Trial2BackFr	N	3	0	1000	1	38	13:56:39	1368592	0	0	0	0	0	0	0	0	0	0	0	0	0	0	0	0	0
080112	13:56:39	10033	Trial2BackFr	N	3	0	1000	1	39	13:56:39	1370111	0	0	0	0	0	0	0	0	0	0	0	0	0	0	0	0	0
080112	13:56:39	10033	Trial2BackFr	Y	3	0	1000	0	39	13:56:39	1371631	0	0	0	0	0	0	0	0	0	0	0	0	0	0	0	0	0
080112	13:56:39	10033	Trial2BackFr	N	3	57	786	0	39	13:56:39	1372950	0	0	0	0	0	0	0	0	0	0	0	0	0	0	0	0	0
080112	13:56:39	10033	Trial2BackFr	N	3	57	800	0	39	13:56:39	1374470	0	0	0	0	0	0	0	0	0	0	0	0	0	0	0	0	0
080112	13:56:39	10033	Trial2BackFr	N	3	57	988	0	39	13:56:39	1376149	0	0	0	0	0	0	0	0	0	0	0	0	0	0	0	0	0
080112	13:56:39	10033	Trial2BackFr	N	3	0	1000	1	40	13:56:39	1377668	0	0	0	0	0	0	0	0	0	0	0	0	0	0	0	0	0
080112	13:56:39	10033	Trial2BackFr	N	3	0	1000	1	41	13:56:39	1379188	0	0	0	0	0	0	0	0	0	0	0	0	0	0	0	0	0
080112	13:56:39	10033	Trial2BackFr	N	3	57	589	0	41	13:56:39	1380307	0	0	0	0	0	0	0	0	0	0	0	0	0	0	0	0	0
080112	13:56:39	10033	Trial2BackFr	Y	3	57	491	1	42	13:56:39	1381720	0	0	0	0	0	0	0	0	0	0	0	0	0	0	0	0	0
080112	13:56:39	10033	Trial2BackFr	N	3	0	1000	1	43	13:56:39	1383706	0	0	0	0	0	0	0	0	0	0	0	0	0	0	0	0	0
080112	13:56:39	10033	Trial2BackFr	N	3	57	519	0	43	13:56:39	1384759	0	0	0	0	0	0	0	0	0	0	0	0	0	0	0	0	0
080112	13:56:39	10033	Trial2BackFr	Y	3	57	613	1	44	13:56:39	1386358	0	0	0	0	0	0	0	0	0	0	0	0	0	0	0	0	0
080112	13:56:39	10033	Trial2BackFr	N	3	57	720	0	44	13:56:39	1387958	0	0	0	0	0	0	0	0	0	0	0	0	0	0	0	0	0
080112	13:56:39	10033	Trial2BackFr	N	3	0	1000	1	45	13:56:39	1389730	0	0	0	0	0	0	0	0	0	0	0	0	0	0	0	0	0
080112	13:56:39	10033	Trial2BackFr	N	3	57	927	0	45	13:56:39	1391183	0	0	0	0	0	0	0	0	0	0	0	0	0	0	0	0	0
080112	13:56:39	10033	Trial2BackFr	N	3	57	941	0	45	13:56:39	1392703	0	0	0	0	0	0	0	0	0	0	0	0	0	0	0	0	0
080112	13:56:39	10033	Trial2BackFr	N	3	57	728	0	45	13:56:39	1393982	0	0	0	0	0	0	0	0	0	0	0	0	0	0	0	0	0
080112	13:56:39	10033	Trial2BackFr	N	3	0	1000	1	46	13:56:39	1395755	0	0	0	0	0	0	0	0	0	0	0	0	0	0	0	0	0
080112	13:56:39	10033	Trial2BackFr	N	3	0	1000	1	47	13:56:39	1397274	0	0	0	0	0	0	0	0	0	0	0	0	0	0	0	0	0
080112	13:56:39	10033	Trial2BackFr	N	3	0	1000	1	48	13:56:39	1398793	0	0	0	0	0	0	0	0	0	0	0	0	0	0	0	0	0
080112	13:56:39	10033	Trial2BackFr	N	3	57	664	0	48	13:56:39	1399979	0	0	0	0	0	0	0	0	0	0	0	0	0	0	0	0	0
080112	13:56:39	10033	Trial2BackFr	N	3	0	1000	1	49	13:56:39	1401819	0	0	0	0	0	0	0	0	0	0	0	0	0	0	0	0	0
080112	13:56:39	10033	Trial2BackFr	Y	3	0	1000	0	49	13:56:39	1403338	0	0	0	0	0	0	0	0	0	0	0	0	0	0	0	0	0
080112	13:56:39	10033	Trial2BackFr	N	3	0	1000	1	50	13:56:39	1404858	0	0	0	0	0	0	0	0	0	0	0	0	0	0	0	0	0
080112	13:56:39	10033	Trial2BackFr	N	3	0	1000	1	51	13:56:39	1406377	0	0	0	0	0	0	0	0	0	0	0	0	0	0	0	0	0
080112	13:56:39	10033	Trial2BackFr	N	3	0	1000	1	52	13:56:39	1407897	0	0	0	0	0	0	0	0	0	0	0	0	0	0	0	0	0
080112	13:56:39	10033	Trial2BackFr	Y	3	0	1000	0	52	13:56:39	1409416	0	0	0	0	0	0	0	0	0	0	0	0	0	0	0	0	0
080112	13:56:39	10033	Trial2BackFr	N	3	0	1000	1	53	13:56:39	1410935	0	0	0	0	0	0	0	0	0	0	0	0	0	0	0	0	0
080112	13:56:39	10033	Trial2BackFr	N	3	0	1000	1	54	13:56:39	1412455	0	0	0	0	0	0	0	0	0	0	0	0	0	0	0	0	0
080112	13:56:39	10033	Trial2BackFr	N	3	0	1000	1	55	13:56:39	1413974	0	0	0	0	0	0	0	0	0	0	0	0	0	0	0	0	0
080112	13:56:39	10033	Trial2BackFr	N	3	0	1000	1	56	13:56:39	1415494	0	0	0	0	0	0	0	0	0	0	0	0	0	0	0	0	0
080112	13:56:39	10033	Trial2BackFr	N	3	0	1000	1	57	13:56:39	1417013	0	0	0	0	0	0	0	0	0	0	0	0	0	0	0	0	0
080112	13:56:39	10033	Trial2BackFr	Y	3	57	716	1	58	13:56:39	1418252	0	0	0	0	0	0	0	0	0	0	0	0	0	0	0	0	0
080112	13:56:39	10033	Trial2BackFr	N	3	0	1000	1	59	13:56:39	1420038	0	0	0	0	0	0	0	0	0	0	0	0	0	0	0	0	0
080112	13:56:39	10033	Trial2BackFr	N	3	0	1000	1	60	13:56:39	1421558	0	0	0	0	0	0	0	0	0	0	0	0	0	0	0	0	0
080112	13:56:39	10033	Trial2BackFr	N	3	0	1000	1	61	13:56:39	1423077	0	0	0	0	0	0	0	0	0	0	0	0	0	0	0	0	0
080112	13:56:39	10033	Trial2BackFr	N	3	0	1000	1	62	13:56:39	1424597	0	0	0	0	0	0	0	0	0	0	0	0	0	0	0	0	0
080112	13:56:39	10033	Trial2BackFr	N	3	0	1000	1	63	13:56:39	1426116	0	0	0	0	0	0	0	0	0	0	0	0	0	0	0	0	0
080112	13:56:39	10033	Trial2BackFr	N	3	0	1000	1	64	13:56:39	1427635	0	0	0	0	0	0	0	0	0	0	0	0	0	0	0	0	0
080112	13:56:39	10033	Trial2BackFr	N	3	0	1000	1	65	13:56:39	1429155	0	0	0	0	0	0	0	0	0	0	0	0	0	0	0	0	0
080112	13:56:39	10033	Trial2BackFr	N	3	0	1000	1	66	13:56:39	1430674	0	0	0	0	0	0	0	0	0	0	0	0	0	0	0	0	0
080112	13:56:39	10033	Trial2BackFr	N	3	0	1000	1	67	13:56:39	1432194	0	0	0	0	0	0	0	0	0	0	0	0	0	0	0	0	0
080112	13:56:39	10033	Trial2BackFr	Y	3	57	495	1	68	13:56:39	1433220	0	0	0	0	0	0	0	0	0	0	0	0	0	0	0	0	0
080112	13:56:39	10033	Trial2BackFr	N	3	0	1000	1	69	13:56:39	1435219	0	0	0	0	0	0	0	0	0	0	0	0	0	0	0	0	0
080112	13:56:39	10033	Trial2BackFr	N	3	0	1000	1	70	13:56:39	1436738	0	0	0	0	0	0	0	0	0	0	0	0	0	0	0	0	0
080112	13:56:39	10033	Trial2BackFr	N	3	0	1000	1	71	13:56:39	1438258	0	0	0	0	0	0	0	0	0	0	0	0	0	0	0	0	0
080112	13:56:39	10033	Trial2BackFr	N	3	0	1000	1	72	13:56:39	1439777	0	0	0	0	0	0	0	0	0	0	0	0	0	0	0	0	0
080112	13:56:39	10033	Trial2BackFr	N	3	0	1000	1	73	13:56:39	1441297	0	0	0	0	0	0	0	0	0	0	0	0	0	0	0	0	0
080112	13:56:39	10033	Trial2BackFr	N	3	0	1000	1	74	13:56:39	1442816	0	0	0	0	0	0	0	0	0	0	0	0	0	0	0	0	0
080112	13:56:39	10033	Trial2BackFr	N	3	0	1000	1	75	13:56:39	1444336	0	0	0	0	0	0	0	0	0	0	0	0	0	0	0	0	0
080112	13:56:39	10033	Trial2BackFr	N	3	0	1000	1	76	13:56:39	1445855	0	0	0	0	0	0	0	0	0	0	0	0	0	0	0	0	0
080112	13:56:39	10033	Trial2BackFr	Y	3	0	1000	0	76	13:56:39	1447374	0	0	0	0	0	0	0	0	0	0	0	0	0	0	0	0	0
080112	13:56:39	10033	Trial2BackFr	N	3	0	1000	1	77	13:56:39	1448894	0	0	0	0	0	0	0	0	0	0	0	0	0	0	0	0	0
080112	13:56:39	10033	Trial2BackFr	N	3	0	1000	1	78	13:56:39	1450413	0	0	0	0	0	0	0	0	0	0	0	0	0	0	0	0	0
080112	13:56:39	10033	Trial2BackFr	N	3	57	659	0	78	13:56:39	1451599	0	0	0	0	0	0	0	0	0	0	0	0	0	0	0	0	0
080112	13:56:39	10033	Trial2BackFr	N	3	0	1000	1	79	13:56:39	1453438	0	0	0	0	0	0	0	0	0	0	0	0	0	0	0	0	0
080112	13:56:39	10033	Trial2BackFr	Y	3	57	770	1	80	13:56:39	1454733	0	0	0	0	0	0	0	0	0	0	0	0	0	0	0	0	0
080112	13:56:39	10033	Trial2BackFr	N	3	0	1000	1	81	13:56:39	1456464	0	0	0	0	0	0	0	0	0	0	0	0	0	0	0	0	0
080112	13:56:39	10033	Trial2BackFr	N	3	0	1000	1	82	13:56:39	1457983	0	0	0	0	0	0	0	0	0	0	0	0	0	0	0	0	0
080112	13:56:39	10033	Trial2BackFr	N	3	0	1000	1	83	13:56:39	1459503	0	0	0	0	0	0	0	0	0	0	0	0	0	0	0	0	0
080112	13:56:39	10033	Trial2BackFr	Y	3	57	449	1	84	13:56:39	1460476	0	0	0	0	0	0	0	0	0	0	0	0	0	0	0	0	0
080112	13:56:39	10033	Trial2BackFr	N	3	0	1000	1	85	13:56:39	1462528	0	0	0	0	0	0	0	0	0	0	0	0	0	0	0	0	0
080112	13:56:39	10033	Trial2BackFr	N	3	0	1000	1	86	13:56:39	1464048	0	0	0	0	0	0	0	0	0	0	0	0	0	0	0	0	0
080112	13:56:39	10033	Trial2BackFr	N	3	0	1000	1	87	13:56:39	1465567	0	0	0	0	0	0	0	0	0	0	0	0	0	0	0	0	0
080112	13:56:39	10033	Trial2BackFr	N	3	0	1000	1	88	13:56:39	1467087	0	0	0	0	0	0	0	0	0	0	0	0	0	0	0	0	0
080112	13:56:39	10033	Trial2BackFr	N	3	0	1000	1	89	13:56:39	1468606	0	0	0	0	0	0	0	0	0	0	0	0	0	0	0	0	0
080112	13:56:39	10033	Trial2BackFr	Y	3	0	1000	0	89	13:56:39	1470125	0	0	0	0	0	0	0	0	0	0	0	0	0	0	0	0	0
080112	13:56:39	10033	Trial2BackFr	N	3	0	1000	1	90	13:56:39	1471645	0	0	0	0	0	0	0	0	0	0	0	0	0	0	0	0	0
080112	13:56:39	10033	Trial2BackFr	N	3	0	1000	1	91	13:56:39	1473164	0	0	0	0	0	0	0	0	0	0	0	0	0	0	0	0	0
080112	13:56:39	10033	Trial2BackFr	N	3	0	1000	1	92	13:56:39	1474684	0	0	0	0	0	0	0	0	0	0	0	0	0	0	0	0	0
080112	13:56:39	10033	Trial2BackFr	Y	3	57	564	1	93	13:56:39	1475776	0	0	0	0	0	0	0	0	0	0	0	0	0	0	0	0	0
080112	13:56:39	10033	Memory1RBaselineFr	ScoreFr	5	M1	21474	0	93	13:56:39	1756559	0	0	0	0	0	0	0	0	0	0	0	0	0	0	0	0	0
080112	13:56:39	10033	Memory1RBaselineFr	ScoreFr	5	M2	2579	0	93	13:56:39	1759185	0	0	0	0	0	0	0	0	0	0	0	0	0	0	0	0	0
080112	13:56:39	10033	Memory1RBaselineFr	ScoreFr	5	M3	313	0	93	13:56:39	1759544	0	0	0	0	0	0	0	0	0	0	0	0	0	0	0	0	0
080112	13:56:39	10033	Memory1RBaselineFr	ScoreFr	5	M7	2346	0	93	13:56:39	1761930	0	0	0	0	0	0	0	0	0	0	0	0	0	0	0	0	0
080112	13:56:39	10033	Memory1RBaselineFr	ScoreFr	5	Done	576	0	93	13:56:39	1762544	0	0	0	0	0	0	0	0	0	0	0	0	0	0	0	0	0
080112	13:56:39	10033	Memory2RBaselineFr	ScoreFr2	5	11	18974	0	93	13:56:39	1804527	0	0	0	0	0	0	0	0	0	0	0	0	0	0	0	0	0
080112	13:56:39	10033	Memory2RBaselineFr	ScoreFr2	5	22	267	0	93	13:56:39	1804833	0	0	0	0	0	0	0	0	0	0	0	0	0	0	0	0	0
080112	13:56:39	10033	Memory2RBaselineFr	ScoreFr2	5	55	2344	0	93	13:56:39	1807219	0	0	0	0	0	0	0	0	0	0	0	0	0	0	0	0	0
080112	13:56:39	10033	Memory2RBaselineFr	ScoreFr2	5	44	375	0	93	13:56:39	1807632	0	0	0	0	0	0	0	0	0	0	0	0	0	0	0	0	0
080112	13:56:39	10033	Memory2RBaselineFr	ScoreFr2	5	66	993	0	93	13:56:39	1808672	0	0	0	0	0	0	0	0	0	0	0	0	0	0	0	0	0
080112	13:56:39	10033	Memory2RBaselineFr	ScoreFr2	5	77	1282	0	93	13:56:39	1809991	0	0	0	0	0	0	0	0	0	0	0	0	0	0	0	0	0
080112	13:56:39	10033	Memory2RBaselineFr	ScoreFr2	5	Done	642	0	93	13:56:39	1810671	0	0	0	0	0	0	0	0	0	0	0	0	0	0	0	0	0
080112	13:56:39	10033	Memory3RBaselineFr	ScoreFr3	5	111	16537	0	93	13:56:39	1845364	0	0	0	0	0	0	0	0	0	0	0	0	0	0	0	0	0
080112	13:56:39	10033	Memory3RBaselineFr	ScoreFr3	5	222	285	0	93	13:56:39	1845684	0	0	0	0	0	0	0	0	0	0	0	0	0	0	0	0	0
080112	13:56:39	10033	Memory3RBaselineFr	ScoreFr3	5	444	765	0	93	13:56:39	1846483	0	0	0	0	0	0	0	0	0	0	0	0	0	0	0	0	0
080112	13:56:39	10033	Memory3RBaselineFr	ScoreFr3	5	555	318	0	93	13:56:39	1846843	0	0	0	0	0	0	0	0	0	0	0	0	0	0	0	0	0
080112	13:56:39	10033	Memory3RBaselineFr	ScoreFr3	5	666	310	0	93	13:56:39	1847190	0	0	0	0	0	0	0	0	0	0	0	0	0	0	0	0	0
080112	13:56:39	10033	Memory3RBaselineFr	ScoreFr3	5	777	331	0	93	13:56:39	1847563	0	0	0	0	0	0	0	0	0	0	0	0	0	0	0	0	0
080112	13:56:39	10033	Memory3RBaselineFr	ScoreFr3	5	888	318	0	93	13:56:39	1847923	0	0	0	0	0	0	0	0	0	0	0	0	0	0	0	0	0
080112	13:56:39	10033	Memory3RBaselineFr	ScoreFr3	5	Done	20406	0	93	13:56:39	1868368	0	0	0	0	0	0	0	0	0	0	0	0	0	0	0	0	0
080112	13:56:39	10033	LoriaFrLH3	Stop	6	4	3314	0	93	13:56:39	1968037	0	0	0	0	0	0	0	0	0	0	0	0	0	0	0	0	0
080112	13:56:39	10033	FrTrail	Trails	7	1Trails	930	0	93	13:56:39	2006194	0	0	0	0	0	0	0	0	0	0	0	0	0	0	0	0	0
080112	13:56:39	10033	Serial7FrBaseline	Serial7FrBaseline	8	83	4865	0	93	13:56:39	2049005	1	0	0	0	0	0	0	0	0	0	0	0	0	0	0	0	0
080112	13:56:39	10033	Serial7FrBaseline	Serial7FrBaseline	8	76	3358	0	93	13:56:39	2052390	2	0	0	0	0	0	0	0	0	0	0	0	0	0	0	0	0
080112	13:56:39	10033	Serial7FrBaseline	Serial7FrBaseline	8	69	2589	0	93	13:56:39	2055002	3	0	0	0	0	0	0	0	0	0	0	0	0	0	0	0	0
080112	13:56:39	10033	Serial7FrBaseline	Serial7FrBaseline	8	62	3380	0	93	13:56:39	2058402	4	0	0	0	0	0	0	0	0	0	0	0	0	0	0	0	0
080112	13:56:39	10033	Serial7FrBaseline	Serial7FrBaseline	8	55	7970	0	93	13:56:39	2066400	5	0	0	0	0	0	0	0	0	0	0	0	0	0	0	0	0
080112	13:56:39	10033	corsiblockFrFwrd	recallseqFrFwrd	9	4	30521	0	93	13:56:39	2330348	5	0	0	0	0	0	0	0	0	0	0	0	0	0	0	0	0
080112	13:56:39	10033	corsiblockFrFwrd	recallseqFrFwrd	9	3	5176	0	93	13:56:39	2335559	5	0	0	0	0	0	0	0	0	0	0	0	0	0	0	0	0
080112	13:56:39	10033	corsiblockFrFwrd	recallseqFrFwrd	9	doneCorsiFr	4621	0	93	13:56:39	2340224	5	0	0	0	0	0	0	0	0	0	0	0	0	0	0	2	0
080112	13:56:39	10033	corsiblockFrFwrd	recallseqFrFwrd	9	6	2273	0	93	13:56:39	2348581	5	0	0	0	0	0	0	0	0	0	0	0	0	0	0	2	0
080112	13:56:39	10033	corsiblockFrFwrd	recallseqFrFwrd	9	7	1303	0	93	13:56:39	2349927	5	0	0	0	0	0	0	0	0	0	0	0	0	0	0	2	0
080112	13:56:39	10033	corsiblockFrFwrd	recallseqFrFwrd	9	2	885	0	93	13:56:39	2350847	5	0	0	0	0	0	0	0	0	0	0	0	0	0	0	2	0
080112	13:56:39	10033	corsiblockFrFwrd	recallseqFrFwrd	9	doneCorsiFr	2157	0	93	13:56:39	2353046	5	0	0	0	0	0	0	0	0	0	0	0	0	0	0	3	0
080112	13:56:39	10033	corsiblockFrFwrd	recallseqFrFwrd	9	8	763	0	93	13:56:39	2360896	5	0	0	0	0	0	0	0	0	0	0	0	0	0	0	3	0
080112	13:56:39	10033	corsiblockFrFwrd	recallseqFrFwrd	9	5	820	0	93	13:56:39	2361749	5	0	0	0	0	0	0	0	0	0	0	0	0	0	0	3	0
080112	13:56:39	10033	corsiblockFrFwrd	recallseqFrFwrd	9	1	815	0	93	13:56:39	2362602	5	0	0	0	0	0	0	0	0	0	0	0	0	0	0	3	0
080112	13:56:39	10033	corsiblockFrFwrd	recallseqFrFwrd	9	9	1458	0	93	13:56:39	2364095	5	0	0	0	0	0	0	0	0	0	0	0	0	0	0	3	0
080112	13:56:39	10033	corsiblockFrFwrd	recallseqFrFwrd	9	doneCorsiFr	2869	0	93	13:56:39	2367001	5	0	0	0	0	0	0	0	0	0	0	0	0	0	0	4	0
080112	13:56:39	10033	corsiblockFrFwrd	recallseqFrFwrd	9	5	633	0	93	13:56:39	2375717	5	0	0	0	0	0	0	0	0	0	0	0	0	0	0	4	0
080112	13:56:39	10033	corsiblockFrFwrd	recallseqFrFwrd	9	7	663	0	93	13:56:39	2376423	5	0	0	0	0	0	0	0	0	0	0	0	0	0	0	4	0
080112	13:56:39	10033	corsiblockFrFwrd	recallseqFrFwrd	9	8	509	0	93	13:56:39	2376970	5	0	0	0	0	0	0	0	0	0	0	0	0	0	0	4	0
080112	13:56:39	10033	corsiblockFrFwrd	recallseqFrFwrd	9	6	586	0	93	13:56:39	2377596	5	0	0	0	0	0	0	0	0	0	0	0	0	0	0	4	0
080112	13:56:39	10033	corsiblockFrFwrd	recallseqFrFwrd	9	2	640	0	93	13:56:39	2378276	5	0	0	0	0	0	0	0	0	0	0	0	0	0	0	4	0
080112	13:56:39	10033	corsiblockFrFwrd	recallseqFrFwrd	9	doneCorsiFr	728	0	93	13:56:39	2379049	5	0	0	0	0	0	0	0	0	0	0	0	0	0	0	5	0
080112	13:56:39	10033	corsiblockFrFwrd	recallseqFrFwrd	9	3	1121	0	93	13:56:39	2389258	5	0	0	0	0	0	0	0	0	0	0	0	0	0	0	5	0
080112	13:56:39	10033	corsiblockFrFwrd	recallseqFrFwrd	9	1	977	0	93	13:56:39	2390271	5	0	0	0	0	0	0	0	0	0	0	0	0	0	0	5	0
080112	13:56:39	10033	corsiblockFrFwrd	recallseqFrFwrd	9	9	852	0	93	13:56:39	2391164	5	0	0	0	0	0	0	0	0	0	0	0	0	0	0	5	0
080112	13:56:39	10033	corsiblockFrFwrd	recallseqFrFwrd	9	4	927	0	93	13:56:39	2392137	5	0	0	0	0	0	0	0	0	0	0	0	0	0	0	5	0
080112	13:56:39	10033	corsiblockFrFwrd	recallseqFrFwrd	9	5	2171	0	93	13:56:39	2394350	5	0	0	0	0	0	0	0	0	0	0	0	0	0	0	5	0
080112	13:56:39	10033	corsiblockFrFwrd	recallseqFrFwrd	9	doneCorsiFr	838	0	93	13:56:39	2395229	5	0	0	0	0	0	0	0	0	0	0	0	0	0	0	5	0
080112	13:56:39	10033	corsiblockFrFwrd	recallseqFrFwrd	9	8	1204	0	93	13:56:39	2405479	5	0	0	0	0	0	0	0	0	0	0	0	0	0	0	5	0
080112	13:56:39	10033	corsiblockFrFwrd	recallseqFrFwrd	9	4	716	0	93	13:56:39	2406238	5	0	0	0	0	0	0	0	0	0	0	0	0	0	0	5	0
080112	13:56:39	10033	corsiblockFrFwrd	recallseqFrFwrd	9	3	516	0	93	13:56:39	2406798	5	0	0	0	0	0	0	0	0	0	0	0	0	0	0	5	0
080112	13:56:39	10033	corsiblockFrFwrd	recallseqFrFwrd	9	1	765	0	93	13:56:39	2407598	5	0	0	0	0	0	0	0	0	0	0	0	0	0	0	5	0
080112	13:56:39	10033	corsiblockFrFwrd	recallseqFrFwrd	9	2	558	0	93	13:56:39	2408198	5	0	0	0	0	0	0	0	0	0	0	0	0	0	0	5	0
080112	13:56:39	10033	corsiblockFrFwrd	recallseqFrFwrd	9	9	662	0	93	13:56:39	2408904	5	0	0	0	0	0	0	0	0	0	0	0	0	0	0	5	0
080112	13:56:39	10033	corsiblockFrFwrd	recallseqFrFwrd	9	doneCorsiFr	1260	0	93	13:56:39	2410197	5	0	0	0	0	0	0	0	0	0	0	0	0	0	0	5	0
080112	13:56:39	10033	corsiblockFrRev	recallseqFrRev	10	7	1568	0	93	13:56:39	2423632	5	0	0	0	0	0	0	0	0	0	0	0	0	0	0	5	0
080112	13:56:39	10033	corsiblockFrRev	recallseqFrRev	10	6	820	0	93	13:56:39	2424484	5	0	0	0	0	0	0	0	0	0	0	0	0	0	0	5	0
080112	13:56:39	10033	corsiblockFrRev	recallseqFrRev	10	doneCorsiFr	671	0	93	13:56:39	2425191	5	0	0	0	0	0	0	0	0	0	0	0	0	0	0	5	0
080112	13:56:39	10033	corsiblockFrRev	recallseqFrRev	10	3	2057	0	93	13:56:39	2432295	5	0	0	0	0	0	0	0	0	0	0	0	0	0	0	5	0
080112	13:56:39	10033	corsiblockFrRev	recallseqFrRev	10	8	932	0	93	13:56:39	2433268	5	0	0	0	0	0	0	0	0	0	0	0	0	0	0	5	0
080112	13:56:39	10033	corsiblockFrRev	recallseqFrRev	10	resetCorsiFr	6647	0	93	13:56:39	2439958	5	0	0	0	0	0	0	0	0	0	0	0	0	0	0	5	0
080112	13:56:39	10033	corsiblockFrRev	recallseqFrRev	10	resetCorsiFr	1253	0	93	13:56:39	2441251	5	0	0	0	0	0	0	0	0	0	0	0	0	0	0	5	0
080112	13:56:39	10033	corsiblockFrRev	recallseqFrRev	10	8	11376	0	93	13:56:39	2452660	5	0	0	0	0	0	0	0	0	0	0	0	0	0	0	5	0
080112	13:56:39	10033	corsiblockFrRev	recallseqFrRev	10	3	1039	0	93	13:56:39	2453740	5	0	0	0	0	0	0	0	0	0	0	0	0	0	0	5	0
080112	13:56:39	10033	corsiblockFrRev	recallseqFrRev	10	doneCorsiFr	1623	0	93	13:56:39	2455406	5	0	0	0	0	0	0	0	0	0	0	0	0	0	0	5	2
080112	13:56:39	10033	corsiblockFrRev	recallseqFrRev	10	2	585	0	93	13:56:39	2461083	5	0	0	0	0	0	0	0	0	0	0	0	0	0	0	5	2
080112	13:56:39	10033	corsiblockFrRev	recallseqFrRev	10	4	487	0	93	13:56:39	2461616	5	0	0	0	0	0	0	0	0	0	0	0	0	0	0	5	2
080112	13:56:39	10033	corsiblockFrRev	recallseqFrRev	10	5	754	0	93	13:56:39	2462416	5	0	0	0	0	0	0	0	0	0	0	0	0	0	0	5	2
080112	13:56:39	10033	corsiblockFrRev	recallseqFrRev	10	doneCorsiFr	1123	0	93	13:56:39	2463576	5	0	0	0	0	0	0	0	0	0	0	0	0	0	0	5	3
080112	13:56:39	10033	corsiblockFrRev	recallseqFrRev	10	6	1735	0	93	13:56:39	2472399	5	0	0	0	0	0	0	0	0	0	0	0	0	0	0	5	3
080112	13:56:39	10033	corsiblockFrRev	recallseqFrRev	10	7	692	0	93	13:56:39	2473132	5	0	0	0	0	0	0	0	0	0	0	0	0	0	0	5	3
080112	13:56:39	10033	corsiblockFrRev	recallseqFrRev	10	9	791	0	93	13:56:39	2473958	5	0	0	0	0	0	0	0	0	0	0	0	0	0	0	5	3
080112	13:56:39	10033	corsiblockFrRev	recallseqFrRev	10	1	1053	0	93	13:56:39	2475051	5	0	0	0	0	0	0	0	0	0	0	0	0	0	0	5	3
080112	13:56:39	10033	corsiblockFrRev	recallseqFrRev	10	doneCorsiFr	975	0	93	13:56:39	2476064	5	0	0	0	0	0	0	0	0	0	0	0	0	0	0	5	4
080112	13:56:39	10033	corsiblockFrRev	recallseqFrRev	10	4	1088	0	93	13:56:39	2485247	5	0	0	0	0	0	0	0	0	0	0	0	0	0	0	5	4
080112	13:56:39	10033	corsiblockFrRev	recallseqFrRev	10	2	715	0	93	13:56:39	2486007	5	0	0	0	0	0	0	0	0	0	0	0	0	0	0	5	4
080112	13:56:39	10033	corsiblockFrRev	recallseqFrRev	10	8	675	0	93	13:56:39	2486727	5	0	0	0	0	0	0	0	0	0	0	0	0	0	0	5	4
080112	13:56:39	10033	corsiblockFrRev	recallseqFrRev	10	3	604	0	93	13:56:39	2487366	5	0	0	0	0	0	0	0	0	0	0	0	0	0	0	5	4
080112	13:56:39	10033	corsiblockFrRev	recallseqFrRev	10	1	1219	0	93	13:56:39	2488619	5	0	0	0	0	0	0	0	0	0	0	0	0	0	0	5	4
080112	13:56:39	10033	corsiblockFrRev	recallseqFrRev	10	doneCorsiFr	984	0	93	13:56:39	2489645	5	0	0	0	0	0	0	0	0	0	0	0	0	0	0	5	4
080112	13:56:39	10033	corsiblockFrRev	recallseqFrRev	10	4	1546	0	93	13:56:39	2499242	5	0	0	0	0	0	0	0	0	0	0	0	0	0	0	5	4
080112	13:56:39	10033	corsiblockFrRev	recallseqFrRev	10	8	2313	0	93	13:56:39	2501587	5	0	0	0	0	0	0	0	0	0	0	0	0	0	0	5	4
080112	13:56:39	10033	corsiblockFrRev	recallseqFrRev	10	9	3103	0	93	13:56:39	2504733	5	0	0	0	0	0	0	0	0	0	0	0	0	0	0	5	4
080112	13:56:39	10033	corsiblockFrRev	recallseqFrRev	10	5	1077	0	93	13:56:39	2505852	5	0	0	0	0	0	0	0	0	0	0	0	0	0	0	5	4
080112	13:56:39	10033	corsiblockFrRev	recallseqFrRev	10	doneCorsiFr	1022	0	93	13:56:39	2506919	5	0	0	0	0	0	0	0	0	0	0	0	0	0	0	5	4
080112	13:56:39	10033	testFrBaseline	WordsFrBaseline	11	3FrBaseline	14206	0	93	13:56:39	2538427	5	0	0	1	0	0	0	0	0	0	0	0	0	0	0	5	4
080112	13:56:39	10033	testFrBaseline	WordsFrBaseline	11	6FrBaseline	2032	0	93	13:56:39	2540492	5	0	0	1	0	0	1	0	0	0	0	0	0	0	0	5	4
080112	13:56:39	10033	testFrBaseline	WordsFrBaseline	11	8FrBaseline	374	0	93	13:56:39	2540906	5	0	0	1	0	0	1	0	1	0	0	0	0	0	0	5	4
080112	13:56:39	10033	testFrBaseline	WordsFrBaseline	11	DoneFrBaseline	50384	0	93	13:56:39	2591326	5	0	0	1	0	0	1	0	1	0	0	0	0	0	0	5	4
080112	13:56:39	10033	testFrBaseline	Cat1FrBaseline	11	W1FrBaseline	6948	0	93	13:56:39	2598309	5	0	0	1	0	0	1	0	1	0	0	0	0	0	0	5	4
080112	13:56:39	10033	testFrBaseline	Ch1FrBaseline	11	WW1FrBaseline	6404	0	93	13:56:39	2604747	5	0	0	1	0	0	1	0	1	0	0	0	0	0	0	5	4
080112	13:56:39	10033	testFrBaseline	Cat2FrBaseline	11	0	1	0	93	13:56:39	2604763	5	0	0	1	0	0	1	0	1	0	0	0	0	0	0	5	4
080112	13:56:39	10033	testFrBaseline	Ch2FrBaseline	11	WW2FrBaseline	6228	0	93	13:56:39	2611037	5	0	0	1	0	0	1	0	1	0	0	0	0	0	0	5	4
080112	13:56:39	10033	testFrBaseline	Cat4FrBaseline	11	0	1	0	93	13:56:39	2611055	5	0	0	1	0	0	1	0	1	0	0	0	0	0	0	5	4
080112	13:56:39	10033	testFrBaseline	Ch4FrBaseline	11	RR4FrBaseline	8819	0	93	13:56:39	2619901	5	0	0	1	3	0	1	0	1	0	0	0	0	0	0	5	4
080112	13:56:39	10033	testFrBaseline	Cat5FrBaseline	11	W5FrBaseline	13356	0	93	13:56:39	2633295	5	0	0	1	3	0	1	0	1	0	0	0	0	0	0	5	4
080112	13:56:39	10033	testFrBaseline	Ch5FrBaseline	11	RR5FrBaseline	17345	0	93	13:56:39	2650675	5	0	0	1	3	3	1	0	1	0	0	0	0	0	0	5	4
080112	13:56:39	10033	testFrBaseline	Cat7FrBaseline	11	W7FrBaseline	22845	0	93	13:56:39	2673559	5	0	0	1	3	3	1	0	1	0	0	0	0	0	0	5	4
080112	13:56:39	10033	testFrBaseline	Ch7FrBaseline	11	RR7FrBaseline	15936	0	93	13:56:39	2689540	5	0	0	1	3	3	1	3	1	0	0	0	0	0	0	5	4
080112	13:56:39	10033	DigitSpanFwrdFrBaseline	Score1FwrdFrBaseline	12	DS1	3938	0	93	13:56:39	2713890	5	0	0	1	3	3	1	3	1	0	0	0	0	0	0	5	4
080112	13:56:39	10033	DigitSpanFwrdFrBaseline	Gate1FwrdFrBaseline	12	0	1	0	93	13:56:39	2713905	5	0	0	1	3	3	1	3	1	3	0	0	0	0	0	5	4
080112	13:56:39	10033	DigitSpanFwrdFrBaseline	Score2FwrdFrBaseline	12	DS1	3264	0	93	13:56:39	2723353	5	0	0	1	3	3	1	3	1	3	0	0	0	0	0	5	4
080112	13:56:39	10033	DigitSpanFwrdFrBaseline	Gate3FwrdFrBaseline	12	0	1	0	93	13:56:39	2723368	5	0	0	1	3	3	1	3	1	4	0	0	0	0	0	5	4
080112	13:56:39	10033	DigitSpanFwrdFrBaseline	Score3FwrdFrBaseline	12	DS1	4031	0	93	13:56:39	2734362	5	0	0	1	3	3	1	3	1	4	0	0	0	0	0	5	4
080112	13:56:39	10033	DigitSpanFwrdFrBaseline	Gate5FwrdFrBaseline	12	0	1	0	93	13:56:39	2734377	5	0	0	1	3	3	1	3	1	5	0	0	0	0	0	5	4
080112	13:56:39	10033	DigitSpanFwrdFrBaseline	Score4FwrdFrBaseline	12	DS1	4033	0	93	13:56:39	2746944	5	0	0	1	3	3	1	3	1	5	0	0	0	0	0	5	4
080112	13:56:39	10033	DigitSpanFwrdFrBaseline	Gate7FwrdFrBaseline	12	0	1	0	93	13:56:39	2746959	5	0	0	1	3	3	1	3	1	6	0	0	0	0	0	5	4
080112	13:56:39	10033	DigitSpanFwrdFrBaseline	Score5FwrdFrBaseline	12	DS2	7956	0	93	13:56:39	2767016	5	0	0	1	3	3	1	3	1	6	0	0	0	0	0	5	4
080112	13:56:39	10033	DigitSpanFwrdFrBaseline	Gate9FwrdFrBaseline	12	0	1	0	93	13:56:39	2767031	5	0	0	1	3	3	1	3	1	6	0	0	0	0	0	5	4
080112	13:56:39	10033	DigitSpanFwrdFrBaseline	Score55FwrdFrBaseline	12	DS2	13823	0	93	13:56:39	2793725	5	0	0	1	3	3	1	3	1	6	0	0	0	0	0	5	4
080112	13:56:39	10033	DigitSpanFrBaseline	Score1FrBaseline	13	DS1	5482	0	93	13:56:39	2815250	5	0	0	1	3	3	1	3	1	6	0	0	0	0	0	5	4
080112	13:56:39	10033	DigitSpanFrBaseline	Gate1FrBaseline	13	0	1	0	93	13:56:39	2815266	5	0	0	1	3	3	1	3	1	6	2	0	0	0	0	5	4
080112	13:56:39	10033	DigitSpanFrBaseline	Score2FrBaseline	13	DS1	5796	0	93	13:56:39	2825553	5	0	0	1	3	3	1	3	1	6	2	0	0	0	0	5	4
080112	13:56:39	10033	DigitSpanFrBaseline	Gate3FrBaseline	13	0	1	0	93	13:56:39	2825568	5	0	0	1	3	3	1	3	1	6	3	0	0	0	0	5	4
080112	13:56:39	10033	DigitSpanFrBaseline	Score3FrBaseline	13	DS1	10723	0	93	13:56:39	2841999	5	0	0	1	3	3	1	3	1	6	3	0	0	0	0	5	4
080112	13:56:39	10033	DigitSpanFrBaseline	Gate5FrBaseline	13	0	1	0	93	13:56:39	2842015	5	0	0	1	3	3	1	3	1	6	4	0	0	0	0	5	4
080112	13:56:39	10033	DigitSpanFrBaseline	Score4FrBaseline	13	DS2	12911	0	93	13:56:39	2862205	5	0	0	1	3	3	1	3	1	6	4	0	0	0	0	5	4
080112	13:56:39	10033	DigitSpanFrBaseline	Gate7FrBaseline	13	0	1	0	93	13:56:39	2862220	5	0	0	1	3	3	1	3	1	6	4	0	0	0	0	5	4
080112	13:56:39	10033	DigitSpanFrBaseline	Score44FrBaseline	13	DS2	18156	0	93	13:56:39	2887595	5	0	0	1	3	3	1	3	1	6	4	0	0	0	0	5	4
080112	13:56:39	10033	Trial	IncongruentRight	14	0	737	0	93	13:56:39	2959673	5	0	0	1	3	3	1	3	1	6	4	0	0	0	0	5	4
080112	13:56:39	10033	Trial	IncongruentLeft	14	205	97	0	93	13:56:39	2960046	5	0	0	1	3	3	1	3	1	6	4	0	0	0	0	5	4
080112	13:56:39	10033	Trial	CongruentRight	14	0	737	0	93	13:56:39	2961685	5	0	0	1	3	3	1	3	1	6	4	0	0	0	0	5	4
080112	13:56:39	10033	Trial	IncongruentRight	14	205	724	1	93	13:56:39	2962685	5	0	0	1	3	3	1	3	1	6	4	0	0	0	0	5	4
080112	13:56:39	10033	Trial	CongruentLeft	14	203	733	1	93	13:56:39	2963698	5	0	0	1	3	3	1	3	1	6	4	0	0	0	0	5	4
080112	13:56:39	10033	Trial	CongruentRight	14	205	584	1	93	13:56:39	2964551	5	0	0	1	3	3	1	3	1	6	4	0	0	0	0	5	4
080112	13:56:39	10033	Trial	IncongruentRight	14	205	545	1	93	13:56:39	2965524	5	0	0	1	3	3	1	3	1	6	4	0	0	0	0	5	4
080112	13:56:39	10033	Trial	CongruentLeft	14	203	585	1	93	13:56:39	2966564	5	0	0	1	3	3	1	3	1	6	4	0	0	0	0	5	4
080112	13:56:39	10033	Trial	IncongruentLeft	14	203	465	1	93	13:56:39	2967443	5	0	0	1	3	3	1	3	1	6	4	0	0	0	0	5	4
080112	13:56:39	10033	Trial	IncongruentLeft	14	203	460	1	93	13:56:39	2968443	5	0	0	1	3	3	1	3	1	6	4	0	0	0	0	5	4
080112	13:56:39	10033	Trial	CongruentRight	14	205	613	1	93	13:56:39	2969602	5	0	0	1	3	3	1	3	1	6	4	0	0	0	0	5	4
080112	13:56:39	10033	Trial	IncongruentRight	14	205	461	1	93	13:56:39	2970442	5	0	0	1	3	3	1	3	1	6	4	0	0	0	0	5	4
080112	13:56:39	10033	Trial	CongruentLeft	14	203	565	1	93	13:56:39	2971548	5	0	0	1	3	3	1	3	1	6	4	0	0	0	0	5	4
080112	13:56:39	10033	Trial	CongruentRight	14	205	638	1	93	13:56:39	2972628	5	0	0	1	3	3	1	3	1	6	4	0	0	0	0	5	4
080112	13:56:39	10033	Trial	IncongruentLeft	14	203	502	1	93	13:56:39	2973481	5	0	0	1	3	3	1	3	1	6	4	0	0	0	0	5	4
080112	13:56:39	10033	Trial	IncongruentRight	14	205	415	1	93	13:56:39	2974401	5	0	0	1	3	3	1	3	1	6	4	0	0	0	0	5	4
080112	13:56:39	10033	Trial	CongruentRight	14	205	439	1	93	13:56:39	2975427	5	0	0	1	3	3	1	3	1	6	4	0	0	0	0	5	4
080112	13:56:39	10033	Trial	CongruentLeft	14	203	464	1	93	13:56:39	2976440	5	0	0	1	3	3	1	3	1	6	4	0	0	0	0	5	4
080112	13:56:39	10033	Trial	CongruentRight	14	205	504	1	93	13:56:39	2977479	5	0	0	1	3	3	1	3	1	6	4	0	0	0	0	5	4
080112	13:56:39	10033	Trial	IncongruentRight	14	205	576	1	93	13:56:39	2978559	5	0	0	1	3	3	1	3	1	6	4	0	0	0	0	5	4
080112	13:56:39	10033	Trial	IncongruentLeft	14	203	536	1	93	13:56:39	2979518	5	0	0	1	3	3	1	3	1	6	4	0	0	0	0	5	4
080112	13:56:39	10033	Trial	IncongruentLeft	14	203	481	1	93	13:56:39	2980465	5	0	0	1	3	3	1	3	1	6	4	0	0	0	0	5	4
080112	13:56:39	10033	Trial	CongruentLeft	14	203	553	1	93	13:56:39	2981531	5	0	0	1	3	3	1	3	1	6	4	0	0	0	0	5	4
080112	13:56:39	10033	Trial	CongruentRight	14	205	594	1	93	13:56:39	2982570	5	0	0	1	3	3	1	3	1	6	4	0	0	0	0	5	4
080112	13:56:39	10033	Trial	IncongruentLeft	14	203	666	1	93	13:56:39	2983650	5	0	0	1	3	3	1	3	1	6	4	0	0	0	0	5	4
080112	13:56:39	10033	Trial	IncongruentRight	14	205	530	1	93	13:56:39	2984503	5	0	0	1	3	3	1	3	1	6	4	0	0	0	0	5	4
080112	13:56:39	10033	Trial	CongruentRight	14	205	587	1	93	13:56:39	2985569	5	0	0	1	3	3	1	3	1	6	4	0	0	0	0	5	4
080112	13:56:39	10033	Trial	CongruentLeft	14	203	579	1	93	13:56:39	2986556	5	0	0	1	3	3	1	3	1	6	4	0	0	0	0	5	4
080112	13:56:39	10033	Trial	IncongruentRight	14	205	588	1	93	13:56:39	2987569	5	0	0	1	3	3	1	3	1	6	4	0	0	0	0	5	4
080112	13:56:39	10033	Trial	IncongruentLeft	14	203	516	1	93	13:56:39	2988488	5	0	0	1	3	3	1	3	1	6	4	0	0	0	0	5	4
080112	13:56:39	10033	Trial	IncongruentRight	14	205	460	1	93	13:56:39	2989435	5	0	0	1	3	3	1	3	1	6	4	0	0	0	0	5	4
080112	13:56:39	10033	Trial	CongruentRight	14	205	485	1	93	13:56:39	2990461	5	0	0	1	3	3	1	3	1	6	4	0	0	0	0	5	4
080112	13:56:39	10033	Trial	IncongruentLeft	14	203	637	1	93	13:56:39	2991607	5	0	0	1	3	3	1	3	1	6	4	0	0	0	0	5	4
080112	13:56:39	10033	Trial	CongruentLeft	14	203	581	1	93	13:56:39	2992553	5	0	0	1	3	3	1	3	1	6	4	0	0	0	0	5	4
080112	13:56:39	10033	Trial	CongruentRight	14	205	495	1	93	13:56:39	2993473	5	0	0	1	3	3	1	3	1	6	4	0	0	0	0	5	4
080112	13:56:39	10033	Trial	IncongruentLeft	14	203	470	1	93	13:56:39	2994446	5	0	0	1	3	3	1	3	1	6	4	0	0	0	0	5	4
080112	13:56:39	10033	Trial	IncongruentRight	14	205	559	1	93	13:56:39	2995539	5	0	0	1	3	3	1	3	1	6	4	0	0	0	0	5	4
080112	13:56:39	10033	Trial	IncongruentRight	14	205	519	1	93	13:56:39	2996498	5	0	0	1	3	3	1	3	1	6	4	0	0	0	0	5	4
080112	13:56:39	10033	Trial	CongruentLeft	14	203	511	1	93	13:56:39	2997485	5	0	0	1	3	3	1	3	1	6	4	0	0	0	0	5	4
080112	13:56:39	10033	Trial	IncongruentLeft	14	203	664	1	93	13:56:39	2998631	5	0	0	1	3	3	1	3	1	6	4	0	0	0	0	5	4
080112	13:56:39	10033	Trial	CongruentRight	14	205	496	1	93	13:56:39	2999471	5	0	0	1	3	3	1	3	1	6	4	0	0	0	0	5	4
080112	13:56:39	10033	Trial	CongruentLeft	14	203	569	1	93	13:56:39	3000537	5	0	0	1	3	3	1	3	1	6	4	0	0	0	0	5	4
080112	13:56:39	10033	Trial	IncongruentRight	14	205	468	1	93	13:56:39	3001457	5	0	0	1	3	3	1	3	1	6	4	0	0	0	0	5	4
080112	13:56:39	10033	Trial	CongruentRight	14	205	444	1	93	13:56:39	3002429	5	0	0	1	3	3	1	3	1	6	4	0	0	0	0	5	4
080112	13:56:39	10033	Trial	IncongruentLeft	14	203	484	1	93	13:56:39	3003469	5	0	0	1	3	3	1	3	1	6	4	0	0	0	0	5	4
080112	13:56:39	10033	Trial	CongruentLeft	14	203	477	1	93	13:56:39	3004455	5	0	0	1	3	3	1	3	1	6	4	0	0	0	0	5	4
080112	13:56:39	10033	Trial	IncongruentLeft	14	203	501	1	93	13:56:39	3005481	5	0	0	1	3	3	1	3	1	6	4	0	0	0	0	5	4
080112	13:56:39	10033	Trial	IncongruentRight	14	205	462	1	93	13:56:39	3006441	5	0	0	1	3	3	1	3	1	6	4	0	0	0	0	5	4
080112	13:56:39	10033	Trial	CongruentRight	14	205	438	1	93	13:56:39	3007428	5	0	0	1	3	3	1	3	1	6	4	0	0	0	0	5	4
080112	13:56:39	10033	Trial	CongruentLeft	14	203	478	1	93	13:56:39	3008467	5	0	0	1	3	3	1	3	1	6	4	0	0	0	0	5	4
080112	13:56:39	10033	Trial	CongruentLeft	14	203	471	1	93	13:56:39	3009453	5	0	0	1	3	3	1	3	1	6	4	0	0	0	0	5	4
080112	13:56:39	10033	Trial	IncongruentRight	14	205	448	1	93	13:56:39	3010426	5	0	0	1	3	3	1	3	1	6	4	0	0	0	0	5	4
080112	13:56:39	10033	Trial	IncongruentLeft	14	203	503	1	93	13:56:39	3011479	5	0	0	1	3	3	1	3	1	6	4	0	0	0	0	5	4
080112	13:56:39	10033	Trial	IncongruentRight	14	205	432	1	93	13:56:39	3012412	5	0	0	1	3	3	1	3	1	6	4	0	0	0	0	5	4
080112	13:56:39	10033	Trial	CongruentRight	14	205	408	1	93	13:56:39	3013385	5	0	0	1	3	3	1	3	1	6	4	0	0	0	0	5	4
080112	13:56:39	10033	Trial	CongruentRight	14	205	433	1	93	13:56:39	3014411	5	0	0	1	3	3	1	3	1	6	4	0	0	0	0	5	4
080112	13:56:39	10033	Trial	IncongruentLeft	14	205	409	0	93	13:56:39	3015384	5	0	0	1	3	3	1	3	1	6	4	0	0	0	0	5	4
080112	13:56:39	10033	Trial	CongruentLeft	14	203	497	1	93	13:56:39	3016477	5	0	0	1	3	3	1	3	1	6	4	0	0	0	0	5	4
080112	13:56:39	10033	Trial	CongruentRight	14	205	522	1	93	13:56:39	3017503	5	0	0	1	3	3	1	3	1	6	4	0	0	0	0	5	4
080112	13:56:39	10033	Trial	CongruentLeft	14	203	562	1	93	13:56:39	3018543	5	0	0	1	3	3	1	3	1	6	4	0	0	0	0	5	4
080112	13:56:39	10033	Trial	IncongruentRight	14	205	443	1	93	13:56:39	3019423	5	0	0	1	3	3	1	3	1	6	4	0	0	0	0	5	4
080112	13:56:39	10033	Trial	CongruentRight	14	205	435	1	93	13:56:39	3020409	5	0	0	1	3	3	1	3	1	6	4	0	0	0	0	5	4
080112	13:56:39	10033	Trial	CongruentLeft	14	203	491	1	93	13:56:39	3021475	5	0	0	1	3	3	1	3	1	6	4	0	0	0	0	5	4
080112	13:56:39	10033	Trial	IncongruentLeft	14	203	484	1	93	13:56:39	3022461	5	0	0	1	3	3	1	3	1	6	4	0	0	0	0	5	4
080112	13:56:39	10033	Trial	IncongruentLeft	14	203	476	1	93	13:56:39	3023448	5	0	0	1	3	3	1	3	1	6	4	0	0	0	0	5	4
080112	13:56:39	10033	Trial	CongruentRight	14	205	548	1	93	13:56:39	3024527	5	0	0	1	3	3	1	3	1	6	4	0	0	0	0	5	4
080112	13:56:39	10033	Trial	IncongruentRight	14	205	461	1	93	13:56:39	3025434	5	0	0	1	3	3	1	3	1	6	4	0	0	0	0	5	4
080112	13:56:39	10033	Trial	CongruentLeft	14	203	485	1	93	13:56:39	3026460	5	0	0	1	3	3	1	3	1	6	4	0	0	0	0	5	4
080112	13:56:39	10033	Trial	IncongruentRight	14	205	414	1	93	13:56:39	3027393	5	0	0	1	3	3	1	3	1	6	4	0	0	0	0	5	4
080112	13:56:39	10033	Trial	CongruentRight	14	205	486	1	93	13:56:39	3028459	5	0	0	1	3	3	1	3	1	6	4	0	0	0	0	5	4
080112	13:56:39	10033	Trial	IncongruentLeft	14	203	510	1	93	13:56:39	3029485	5	0	0	1	3	3	1	3	1	6	4	0	0	0	0	5	4
080112	13:56:39	10033	Trial	CongruentLeft	14	203	599	1	93	13:56:39	3030578	5	0	0	1	3	3	1	3	1	6	4	0	0	0	0	5	4
080112	13:56:39	10033	Trial	CongruentRight	14	205	495	1	93	13:56:39	3031471	5	0	0	1	3	3	1	3	1	6	4	0	0	0	0	5	4
080112	13:56:39	10033	Trial	IncongruentLeft	14	203	535	1	93	13:56:39	3032511	5	0	0	1	3	3	1	3	1	6	4	0	0	0	0	5	4
080112	13:56:39	10033	Trial	CongruentRight	14	205	448	1	93	13:56:39	3033417	5	0	0	1	3	3	1	3	1	6	4	0	0	0	0	5	4
080112	13:56:39	10033	Trial	CongruentRight	14	205	443	1	93	13:56:39	3034430	5	0	0	1	3	3	1	3	1	6	4	0	0	0	0	5	4
080112	13:56:39	10033	Trial	IncongruentRight	14	205	435	1	93	13:56:39	3035416	5	0	0	1	3	3	1	3	1	6	4	0	0	0	0	5	4
080112	13:56:39	10033	Trial	CongruentLeft	14	203	492	1	93	13:56:39	3036483	5	0	0	1	3	3	1	3	1	6	4	0	0	0	0	5	4
080112	13:56:39	10033	Trial	IncongruentLeft	14	203	596	1	93	13:56:39	3037576	5	0	0	1	3	3	1	3	1	6	4	0	0	0	0	5	4
080112	13:56:39	10033	Trial	CongruentLeft	14	203	476	1	93	13:56:39	3038455	5	0	0	1	3	3	1	3	1	6	4	0	0	0	0	5	4
080112	13:56:39	10033	Trial	IncongruentRight	14	205	517	1	93	13:56:39	3039495	5	0	0	1	3	3	1	3	1	6	4	0	0	0	0	5	4
080112	13:56:39	10033	Trial	IncongruentLeft	14	203	509	1	93	13:56:39	3040494	5	0	0	1	3	3	1	3	1	6	4	0	0	0	0	5	4
080112	13:56:39	10033	Trial	CongruentRight	14	205	422	1	93	13:56:39	3041401	5	0	0	1	3	3	1	3	1	6	4	0	0	0	0	5	4
080112	13:56:39	10033	Trial	CongruentLeft	14	203	414	1	93	13:56:39	3042400	5	0	0	1	3	3	1	3	1	6	4	0	0	0	0	5	4
080112	13:56:39	10033	Trial	IncongruentLeft	14	203	566	1	93	13:56:39	3043547	5	0	0	1	3	3	1	3	1	6	4	0	0	0	0	5	4
080112	13:56:39	10033	Trial	CongruentLeft	14	203	463	1	93	13:56:39	3044439	5	0	0	1	3	3	1	3	1	6	4	0	0	0	0	5	4
080112	13:56:39	10033	Trial	IncongruentRight	14	205	455	1	93	13:56:39	3045439	5	0	0	1	3	3	1	3	1	6	4	0	0	0	0	5	4
080112	13:56:39	10033	Trial	CongruentRight	14	205	432	1	93	13:56:39	3046412	5	0	0	1	3	3	1	3	1	6	4	0	0	0	0	5	4
080112	13:56:39	10033	Trial	IncongruentLeft	14	203	472	1	93	13:56:39	3047452	5	0	0	1	3	3	1	3	1	6	4	0	0	0	0	5	4
080112	13:56:39	10033	Trial	CongruentLeft	14	203	528	1	93	13:56:39	3048505	5	0	0	1	3	3	1	3	1	6	4	0	0	0	0	5	4
080112	13:56:39	10033	Trial	IncongruentRight	14	205	489	1	93	13:56:39	3049464	5	0	0	1	3	3	1	3	1	6	4	0	0	0	0	5	4
080112	13:56:39	10033	Trial	IncongruentLeft	14	203	513	1	93	13:56:39	3050490	5	0	0	1	3	3	1	3	1	6	4	0	0	0	0	5	4
080112	13:56:39	10033	Trial	CongruentLeft	14	203	521	1	93	13:56:39	3051503	5	0	0	1	3	3	1	3	1	6	4	0	0	0	0	5	4
080112	13:56:39	10033	Trial	IncongruentLeft	14	203	482	1	93	13:56:39	3052463	5	0	0	1	3	3	1	3	1	6	4	0	0	0	0	5	4
080112	13:56:39	10033	Trial	CongruentRight	14	205	442	1	93	13:56:39	3053423	5	0	0	1	3	3	1	3	1	6	4	0	0	0	0	5	4
080112	13:56:39	10033	Trial	CongruentLeft	14	203	450	1	93	13:56:39	3054422	5	0	0	1	3	3	1	3	1	6	4	0	0	0	0	5	4
080112	13:56:39	10033	Trial	IncongruentRight	14	205	475	1	93	13:56:39	3055448	5	0	0	1	3	3	1	3	1	6	4	0	0	0	0	5	4
080112	13:56:39	10033	Trial	CongruentLeft	14	203	467	1	93	13:56:39	3056448	5	0	0	1	3	3	1	3	1	6	4	0	0	0	0	5	4
080112	13:56:39	10033	Trial	CongruentRight	14	205	444	1	93	13:56:39	3057421	5	0	0	1	3	3	1	3	1	6	4	0	0	0	0	5	4
080112	13:56:39	10033	Trial	IncongruentLeft	14	203	452	1	93	13:56:39	3058434	5	0	0	1	3	3	1	3	1	6	4	0	0	0	0	5	4
080112	13:56:39	10033	Trial750Fr	IncongruentRight750	15	0	487	0	93	13:56:39	3068870	5	0	0	1	3	3	1	3	1	6	4	0	0	0	0	5	4
080112	13:56:39	10033	Trial750Fr	IncongruentLeft750	15	0	487	0	93	13:56:39	3069630	5	0	0	1	3	3	1	3	1	6	4	0	0	0	0	5	4
080112	13:56:39	10033	Trial750Fr	CongruentRight750	15	0	487	0	93	13:56:39	3070389	5	0	0	1	3	3	1	3	1	6	4	0	0	0	0	5	4
080112	13:56:39	10033	Trial750Fr	IncongruentRight750	15	0	487	0	93	13:56:39	3071149	5	0	0	1	3	3	1	3	1	6	4	0	0	0	0	5	4
080112	13:56:39	10033	Trial750Fr	CongruentLeft750	15	203	460	1	93	13:56:39	3071882	5	0	0	1	3	3	1	3	1	6	4	0	0	0	0	5	4
080112	13:56:39	10033	Trial750Fr	CongruentRight750	15	205	420	1	93	13:56:39	3072602	5	0	0	1	3	3	1	3	1	6	4	0	0	0	0	5	4
080112	13:56:39	10033	Trial750Fr	IncongruentRight750	15	205	474	1	93	13:56:39	3073401	5	0	0	1	3	3	1	3	1	6	4	0	0	0	0	5	4
080112	13:56:39	10033	Trial750Fr	CongruentLeft750	15	0	487	0	93	13:56:39	3074161	5	0	0	1	3	3	1	3	1	6	4	0	0	0	0	5	4
080112	13:56:39	10033	Trial750Fr	IncongruentLeft750	15	205	448	0	93	13:56:39	3074921	5	0	0	1	3	3	1	3	1	6	4	0	0	0	0	5	4
080112	13:56:39	10033	Trial750Fr	IncongruentLeft750	15	0	487	0	93	13:56:39	3075707	5	0	0	1	3	3	1	3	1	6	4	0	0	0	0	5	4
080112	13:56:39	10033	Trial750Fr	CongruentRight750	15	205	445	1	93	13:56:39	3076427	5	0	0	1	3	3	1	3	1	6	4	0	0	0	0	5	4
080112	13:56:39	10033	Trial750Fr	IncongruentRight750	15	0	487	0	93	13:56:39	3077213	5	0	0	1	3	3	1	3	1	6	4	0	0	0	0	5	4
080112	13:56:39	10033	Trial750Fr	CongruentLeft750	15	0	487	0	93	13:56:39	3077973	5	0	0	1	3	3	1	3	1	6	4	0	0	0	0	5	4
080112	13:56:39	10033	Trial750Fr	CongruentRight750	15	205	406	1	93	13:56:39	3078666	5	0	0	1	3	3	1	3	1	6	4	0	0	0	0	5	4
080112	13:56:39	10033	Trial750Fr	IncongruentLeft750	15	203	460	1	93	13:56:39	3079466	5	0	0	1	3	3	1	3	1	6	4	0	0	0	0	5	4
080112	13:56:39	10033	Trial750Fr	IncongruentRight750	15	205	385	1	93	13:56:39	3080146	5	0	0	1	3	3	1	3	1	6	4	0	0	0	0	5	4
080112	13:56:39	10033	Trial750Fr	CongruentRight750	15	205	471	1	93	13:56:39	3080972	5	0	0	1	3	3	1	3	1	6	4	0	0	0	0	5	4
080112	13:56:39	10033	Trial750Fr	CongruentLeft750	15	203	447	1	93	13:56:39	3081705	5	0	0	1	3	3	1	3	1	6	4	0	0	0	0	5	4
080112	13:56:39	10033	Trial750Fr	CongruentRight750	15	205	389	1	93	13:56:39	3082398	5	0	0	1	3	3	1	3	1	6	4	0	0	0	0	5	4
080112	13:56:39	10033	Trial750Fr	IncongruentRight750	15	205	427	1	93	13:56:39	3083184	5	0	0	1	3	3	1	3	1	6	4	0	0	0	0	5	4
080112	13:56:39	10033	Trial750Fr	IncongruentLeft750	15	203	432	1	93	13:56:39	3083931	5	0	0	1	3	3	1	3	1	6	4	0	0	0	0	5	4
080112	13:56:39	10033	Trial750Fr	IncongruentLeft750	15	0	487	0	93	13:56:39	3084730	5	0	0	1	3	3	1	3	1	6	4	0	0	0	0	5	4
080112	13:56:39	10033	Trial750Fr	CongruentLeft750	15	0	487	0	93	13:56:39	3085490	5	0	0	1	3	3	1	3	1	6	4	0	0	0	0	5	4
080112	13:56:39	10033	Trial750Fr	CongruentRight750	15	0	487	0	93	13:56:39	3086250	5	0	0	1	3	3	1	3	1	6	4	0	0	0	0	5	4
080112	13:56:39	10033	Trial750Fr	IncongruentLeft750	15	0	487	0	93	13:56:39	3087009	5	0	0	1	3	3	1	3	1	6	4	0	0	0	0	5	4
080112	13:56:39	10033	Trial750Fr	IncongruentRight750	15	205	439	1	93	13:56:39	3087729	5	0	0	1	3	3	1	3	1	6	4	0	0	0	0	5	4
080112	13:56:39	10033	Trial750Fr	CongruentRight750	15	0	487	0	93	13:56:39	3088516	5	0	0	1	3	3	1	3	1	6	4	0	0	0	0	5	4
080112	13:56:39	10033	Trial750Fr	CongruentLeft750	15	0	487	0	93	13:56:39	3089275	5	0	0	1	3	3	1	3	1	6	4	0	0	0	0	5	4
080112	13:56:39	10033	Trial750Fr	IncongruentRight750	15	205	461	1	93	13:56:39	3090008	5	0	0	1	3	3	1	3	1	6	4	0	0	0	0	5	4
080112	13:56:39	10033	Trial750Fr	IncongruentLeft750	15	0	487	0	93	13:56:39	3090781	5	0	0	1	3	3	1	3	1	6	4	0	0	0	0	5	4
080112	13:56:39	10033	Trial750Fr	IncongruentRight750	15	205	379	1	93	13:56:39	3091434	5	0	0	1	3	3	1	3	1	6	4	0	0	0	0	5	4
080112	13:56:39	10033	Trial750Fr	CongruentRight750	15	205	468	1	93	13:56:39	3092287	5	0	0	1	3	3	1	3	1	6	4	0	0	0	0	5	4
080112	13:56:39	10033	Trial750Fr	IncongruentLeft750	15	203	441	1	93	13:56:39	3093007	5	0	0	1	3	3	1	3	1	6	4	0	0	0	0	5	4
080112	13:56:39	10033	Trial750Fr	CongruentLeft750	15	0	487	0	93	13:56:39	3093794	5	0	0	1	3	3	1	3	1	6	4	0	0	0	0	5	4
080112	13:56:39	10033	Trial750Fr	CongruentRight750	15	205	423	1	93	13:56:39	3094487	5	0	0	1	3	3	1	3	1	6	4	0	0	0	0	5	4
080112	13:56:39	10033	Trial750Fr	IncongruentLeft750	15	0	487	0	93	13:56:39	3095300	5	0	0	1	3	3	1	3	1	6	4	0	0	0	0	5	4
080112	13:56:39	10033	Trial750Fr	IncongruentRight750	15	205	405	1	93	13:56:39	3095979	5	0	0	1	3	3	1	3	1	6	4	0	0	0	0	5	4
080112	13:56:39	10033	Trial750Fr	IncongruentRight750	15	0	487	0	93	13:56:39	3096806	5	0	0	1	3	3	1	3	1	6	4	0	0	0	0	5	4
080112	13:56:39	10033	Trial750Fr	CongruentLeft750	15	203	450	1	93	13:56:39	3097525	5	0	0	1	3	3	1	3	1	6	4	0	0	0	0	5	4
080112	13:56:39	10033	Trial750Fr	IncongruentLeft750	15	205	443	0	93	13:56:39	3098285	5	0	0	1	3	3	1	3	1	6	4	0	0	0	0	5	4
080112	13:56:39	10033	Trial750Fr	CongruentRight750	15	0	487	0	93	13:56:39	3099071	5	0	0	1	3	3	1	3	1	6	4	0	0	0	0	5	4
080112	13:56:39	10033	Trial750Fr	CongruentLeft750	15	0	487	0	93	13:56:39	3099831	5	0	0	1	3	3	1	3	1	6	4	0	0	0	0	5	4
080112	13:56:39	10033	Trial750Fr	IncongruentRight750	15	0	487	0	93	13:56:39	3100591	5	0	0	1	3	3	1	3	1	6	4	0	0	0	0	5	4
080112	13:56:39	10033	Trial750Fr	CongruentRight750	15	0	487	0	93	13:56:39	3101350	5	0	0	1	3	3	1	3	1	6	4	0	0	0	0	5	4
080112	13:56:39	10033	Trial750Fr	IncongruentLeft750	15	0	487	0	93	13:56:39	3102110	5	0	0	1	3	3	1	3	1	6	4	0	0	0	0	5	4
080112	13:56:39	10033	Trial750Fr	CongruentLeft750	15	0	487	0	93	13:56:39	3102870	5	0	0	1	3	3	1	3	1	6	4	0	0	0	0	5	4
080112	13:56:39	10033	Trial750Fr	IncongruentLeft750	15	0	487	0	93	13:56:39	3103630	5	0	0	1	3	3	1	3	1	6	4	0	0	0	0	5	4
080112	13:56:39	10033	Trial750Fr	IncongruentRight750	15	205	475	1	93	13:56:39	3104376	5	0	0	1	3	3	1	3	1	6	4	0	0	0	0	5	4
080112	13:56:39	10033	Trial750Fr	CongruentRight750	15	0	487	0	93	13:56:39	3105136	5	0	0	1	3	3	1	3	1	6	4	0	0	0	0	5	4
080112	13:56:39	10033	Trial750Fr	CongruentLeft750	15	0	487	0	93	13:56:39	3105895	5	0	0	1	3	3	1	3	1	6	4	0	0	0	0	5	4
080112	13:56:39	10033	Trial750Fr	CongruentLeft750	15	0	487	0	93	13:56:39	3106655	5	0	0	1	3	3	1	3	1	6	4	0	0	0	0	5	4
080112	13:56:39	10033	Trial750Fr	IncongruentRight750	15	205	457	1	93	13:56:39	3107388	5	0	0	1	3	3	1	3	1	6	4	0	0	0	0	5	4
080112	13:56:39	10033	Trial750Fr	IncongruentLeft750	15	0	487	0	93	13:56:39	3108161	5	0	0	1	3	3	1	3	1	6	4	0	0	0	0	5	4
080112	13:56:39	10033	Trial750Fr	IncongruentRight750	15	205	439	1	93	13:56:39	3108881	5	0	0	1	3	3	1	3	1	6	4	0	0	0	0	5	4
080112	13:56:39	10033	Trial750Fr	CongruentRight750	15	0	487	0	93	13:56:39	3109667	5	0	0	1	3	3	1	3	1	6	4	0	0	0	0	5	4
080112	13:56:39	10033	Trial750Fr	CongruentRight750	15	0	487	0	93	13:56:39	3110427	5	0	0	1	3	3	1	3	1	6	4	0	0	0	0	5	4
080112	13:56:39	10033	Trial750Fr	IncongruentLeft750	15	0	487	0	93	13:56:39	3111187	5	0	0	1	3	3	1	3	1	6	4	0	0	0	0	5	4
080112	13:56:39	10033	Trial750Fr	CongruentLeft750	15	0	487	0	93	13:56:39	3111946	5	0	0	1	3	3	1	3	1	6	4	0	0	0	0	5	4
080112	13:56:39	10033	Trial750Fr	CongruentRight750	15	0	487	0	93	13:56:39	3112706	5	0	0	1	3	3	1	3	1	6	4	0	0	0	0	5	4
080112	13:56:39	10033	Trial750Fr	CongruentLeft750	15	0	487	0	93	13:56:39	3113466	5	0	0	1	3	3	1	3	1	6	4	0	0	0	0	5	4
080112	13:56:39	10033	Trial750Fr	IncongruentRight750	15	0	487	0	93	13:56:39	3114225	5	0	0	1	3	3	1	3	1	6	4	0	0	0	0	5	4
080112	13:56:39	10033	Trial750Fr	CongruentRight750	15	0	487	0	93	13:56:39	3114985	5	0	0	1	3	3	1	3	1	6	4	0	0	0	0	5	4
080112	13:56:39	10033	Trial750Fr	CongruentLeft750	15	203	463	1	93	13:56:39	3115718	5	0	0	1	3	3	1	3	1	6	4	0	0	0	0	5	4
080112	13:56:39	10033	Trial750Fr	IncongruentLeft750	15	0	487	0	93	13:56:39	3116491	5	0	0	1	3	3	1	3	1	6	4	0	0	0	0	5	4
080112	13:56:39	10033	Trial750Fr	IncongruentLeft750	15	0	487	0	93	13:56:39	3117251	5	0	0	1	3	3	1	3	1	6	4	0	0	0	0	5	4
080112	13:56:39	10033	Trial750Fr	CongruentRight750	15	0	487	0	93	13:56:39	3118011	5	0	0	1	3	3	1	3	1	6	4	0	0	0	0	5	4
080112	13:56:39	10033	Trial750Fr	IncongruentRight750	15	0	487	0	93	13:56:39	3118770	5	0	0	1	3	3	1	3	1	6	4	0	0	0	0	5	4
080112	13:56:39	10033	Trial750Fr	CongruentLeft750	15	203	454	1	93	13:56:39	3119503	5	0	0	1	3	3	1	3	1	6	4	0	0	0	0	5	4
080112	13:56:39	10033	Trial750Fr	IncongruentRight750	15	0	487	0	93	13:56:39	3120276	5	0	0	1	3	3	1	3	1	6	4	0	0	0	0	5	4
080112	13:56:39	10033	Trial750Fr	CongruentRight750	15	0	487	0	93	13:56:39	3121036	5	0	0	1	3	3	1	3	1	6	4	0	0	0	0	5	4
080112	13:56:39	10033	Trial750Fr	IncongruentLeft750	15	0	487	0	93	13:56:39	3121796	5	0	0	1	3	3	1	3	1	6	4	0	0	0	0	5	4
080112	13:56:39	10033	Trial750Fr	CongruentLeft750	15	203	468	1	93	13:56:39	3122542	5	0	0	1	3	3	1	3	1	6	4	0	0	0	0	5	4
080112	13:56:39	10033	Trial750Fr	CongruentRight750	15	205	461	1	93	13:56:39	3123289	5	0	0	1	3	3	1	3	1	6	4	0	0	0	0	5	4
080112	13:56:39	10033	Trial750Fr	IncongruentLeft750	15	203	466	1	93	13:56:39	3124048	5	0	0	1	3	3	1	3	1	6	4	0	0	0	0	5	4
080112	13:56:39	10033	Trial750Fr	CongruentRight750	15	205	392	1	93	13:56:39	3124715	5	0	0	1	3	3	1	3	1	6	4	0	0	0	0	5	4
080112	13:56:39	10033	Trial750Fr	CongruentRight750	15	0	487	0	93	13:56:39	3125555	5	0	0	1	3	3	1	3	1	6	4	0	0	0	0	5	4
080112	13:56:39	10033	Trial750Fr	IncongruentRight750	15	0	487	0	93	13:56:39	3126314	5	0	0	1	3	3	1	3	1	6	4	0	0	0	0	5	4
080112	13:56:39	10033	Trial750Fr	CongruentLeft750	15	203	430	1	93	13:56:39	3127020	5	0	0	1	3	3	1	3	1	6	4	0	0	0	0	5	4
080112	13:56:39	10033	Trial750Fr	IncongruentLeft750	15	0	487	0	93	13:56:39	3127820	5	0	0	1	3	3	1	3	1	6	4	0	0	0	0	5	4
080112	13:56:39	10033	Trial750Fr	CongruentLeft750	15	0	487	0	93	13:56:39	3128580	5	0	0	1	3	3	1	3	1	6	4	0	0	0	0	5	4
080112	13:56:39	10033	Trial750Fr	IncongruentRight750	15	203	438	0	93	13:56:39	3129313	5	0	0	1	3	3	1	3	1	6	4	0	0	0	0	5	4
080112	13:56:39	10033	Trial750Fr	IncongruentLeft750	15	203	476	1	93	13:56:39	3130086	5	0	0	1	3	3	1	3	1	6	4	0	0	0	0	5	4
080112	13:56:39	10033	Trial750Fr	CongruentRight750	15	205	450	1	93	13:56:39	3130806	5	0	0	1	3	3	1	3	1	6	4	0	0	0	0	5	4
080112	13:56:39	10033	Trial750Fr	CongruentLeft750	15	0	487	0	93	13:56:39	3131592	5	0	0	1	3	3	1	3	1	6	4	0	0	0	0	5	4
080112	13:56:39	10033	Trial750Fr	IncongruentLeft750	15	205	416	0	93	13:56:39	3132285	5	0	0	1	3	3	1	3	1	6	4	0	0	0	0	5	4
080112	13:56:39	10033	Trial750Fr	CongruentLeft750	15	0	487	0	93	13:56:39	3133098	5	0	0	1	3	3	1	3	1	6	4	0	0	0	0	5	4
080112	13:56:39	10033	Trial750Fr	IncongruentRight750	15	205	430	1	93	13:56:39	3133805	5	0	0	1	3	3	1	3	1	6	4	0	0	0	0	5	4
080112	13:56:39	10033	Trial750Fr	CongruentRight750	15	205	406	1	93	13:56:39	3134537	5	0	0	1	3	3	1	3	1	6	4	0	0	0	0	5	4
080112	13:56:39	10033	Trial750Fr	IncongruentLeft750	15	203	460	1	93	13:56:39	3135337	5	0	0	1	3	3	1	3	1	6	4	0	0	0	0	5	4
080112	13:56:39	10033	Trial750Fr	CongruentLeft750	15	0	487	0	93	13:56:39	3136110	5	0	0	1	3	3	1	3	1	6	4	0	0	0	0	5	4
080112	13:56:39	10033	Trial750Fr	IncongruentRight750	15	0	487	0	93	13:56:39	3136870	5	0	0	1	3	3	1	3	1	6	4	0	0	0	0	5	4
080112	13:56:39	10033	Trial750Fr	IncongruentLeft750	15	203	466	1	93	13:56:39	3137616	5	0	0	1	3	3	1	3	1	6	4	0	0	0	0	5	4
080112	13:56:39	10033	Trial750Fr	CongruentLeft750	15	0	487	0	93	13:56:39	3138376	5	0	0	1	3	3	1	3	1	6	4	0	0	0	0	5	4
080112	13:56:39	10033	Trial750Fr	IncongruentLeft750	15	0	487	0	93	13:56:39	3139136	5	0	0	1	3	3	1	3	1	6	4	0	0	0	0	5	4
080112	13:56:39	10033	Trial750Fr	CongruentRight750	15	205	440	1	93	13:56:39	3139855	5	0	0	1	3	3	1	3	1	6	4	0	0	0	0	5	4
080112	13:56:39	10033	Trial750Fr	CongruentLeft750	15	0	487	0	93	13:56:39	3140642	5	0	0	1	3	3	1	3	1	6	4	0	0	0	0	5	4
080112	13:56:39	10033	Trial750Fr	IncongruentRight750	15	205	406	1	93	13:56:39	3141321	5	0	0	1	3	3	1	3	1	6	4	0	0	0	0	5	4
080112	13:56:39	10033	Trial750Fr	CongruentLeft750	15	203	462	1	93	13:56:39	3142135	5	0	0	1	3	3	1	3	1	6	4	0	0	0	0	5	4
080112	13:56:39	10033	Trial750Fr	CongruentRight750	15	205	388	1	93	13:56:39	3142814	5	0	0	1	3	3	1	3	1	6	4	0	0	0	0	5	4
080112	13:56:39	10033	Trial750Fr	IncongruentLeft750	15	203	442	1	93	13:56:39	3143614	5	0	0	1	3	3	1	3	1	6	4	0	0	0	0	5	4
080112	13:56:39	10033	WordsAbsFrBaseline	PAbsFrBaseline1	16	Abs1	7644	0	93	13:56:39	3166418	5	0	0	1	3	3	1	3	1	6	4	0	0	0	0	5	4
080112	13:56:39	10033	WordsAbsFrBaseline	AbsFrBaseline1	16	Abs1	7887	0	93	13:56:39	3174349	5	0	0	1	3	3	1	3	1	6	4	1	0	0	0	5	4
080112	13:56:39	10033	WordsAbsFrBaseline	AbsFrBaseline2	16	Abs2	37259	0	93	13:56:39	3211654	5	0	0	1	3	3	1	3	1	6	4	1	0	0	0	5	4
080112	13:56:39	10033	WordsAbsFrBaseline	AbsFrBaseline3	16	Abs1	14707	0	93	13:56:39	3226395	5	0	0	1	3	3	1	3	1	6	4	2	0	0	0	5	4
080112	13:56:39	10033	Trial2BackFrS	NS	17	0	1000	1	93	13:56:39	3364980	5	0	0	1	3	3	1	3	1	6	4	2	0	0	0	5	4
080112	13:56:39	10033	Trial2BackFrS	NS	17	0	1000	1	93	13:56:39	3366499	5	0	0	1	3	3	1	3	1	6	4	2	0	0	0	5	4
080112	13:56:39	10033	Trial2BackFrS	NS	17	0	1000	1	93	13:56:39	3368032	5	0	0	1	3	3	1	3	1	6	4	2	0	0	0	5	4
080112	13:56:39	10033	Trial2BackFrS	YS	17	0	1000	0	93	13:56:39	3369551	5	0	0	1	3	3	1	3	1	6	4	2	0	0	0	5	4
080112	13:56:39	10033	Trial2BackFrS	NS	17	0	1000	1	93	13:56:39	3371071	5	0	0	1	3	3	1	3	1	6	4	2	0	0	0	5	4
080112	13:56:39	10033	Trial2BackFrS	NS	17	0	1000	1	93	13:56:39	3372590	5	0	0	1	3	3	1	3	1	6	4	2	0	0	0	5	4
080112	13:56:39	10033	Trial2BackFrS	NS	17	0	1000	1	93	13:56:39	3374110	5	0	0	1	3	3	1	3	1	6	4	2	0	0	0	5	4
080112	13:56:39	10033	Trial2BackFrS	NS	17	0	1000	1	93	13:56:39	3375629	5	0	0	1	3	3	1	3	1	6	4	2	0	0	0	5	4
080112	13:56:39	10033	Trial2BackFrS	YS	17	57	652	1	93	13:56:39	3376802	5	0	0	1	3	3	1	3	1	6	4	2	0	0	0	5	4
080112	13:56:39	10033	Trial2BackFrS	NS	17	0	1000	1	93	13:56:39	3378654	5	0	0	1	3	3	1	3	1	6	4	2	0	0	0	5	4
080112	13:56:39	10033	Trial2BackFrS	NS	17	0	1000	1	93	13:56:39	3380174	5	0	0	1	3	3	1	3	1	6	4	2	0	0	0	5	4
080112	13:56:39	10033	Trial2BackFrS	YS	17	0	1000	0	93	13:56:39	3381693	5	0	0	1	3	3	1	3	1	6	4	2	0	0	0	5	4
080112	13:56:39	10033	Trial2BackFrS	NS	17	0	1000	1	93	13:56:39	3383213	5	0	0	1	3	3	1	3	1	6	4	2	0	0	0	5	4
080112	13:56:39	10033	Trial2BackFrS	NS	17	0	1000	1	93	13:56:39	3384732	5	0	0	1	3	3	1	3	1	6	4	2	0	0	0	5	4
080112	13:56:39	10033	Trial2BackFrS	NS	17	0	1000	1	93	13:56:39	3386252	5	0	0	1	3	3	1	3	1	6	4	2	0	0	0	5	4
080112	13:56:39	10033	Trial2BackFrS	YS	17	0	1000	0	93	13:56:39	3387771	5	0	0	1	3	3	1	3	1	6	4	2	0	0	0	5	4
080112	13:56:39	10033	Trial2BackFrS	NS	17	0	1000	1	93	13:56:39	3389290	5	0	0	1	3	3	1	3	1	6	4	2	0	0	0	5	4
080112	13:56:39	10033	Trial2BackFrS	NS	17	0	1000	1	93	13:56:39	3390810	5	0	0	1	3	3	1	3	1	6	4	2	0	0	0	5	4
080112	13:56:39	10033	Trial2BackFrS	NS	17	0	1000	1	93	13:56:39	3392329	5	0	0	1	3	3	1	3	1	6	4	2	0	0	0	5	4
080112	13:56:39	10033	Trial2BackFrS	NS	17	0	1000	1	93	13:56:39	3393849	5	0	0	1	3	3	1	3	1	6	4	2	0	0	0	5	4
080112	13:56:39	10033	Trial2BackFrS	YS	17	0	1000	0	93	13:56:39	3395368	5	0	0	1	3	3	1	3	1	6	4	2	0	0	0	5	4
080112	13:56:39	10033	Trial2BackFrS	NS	17	0	1000	1	93	13:56:39	3396887	5	0	0	1	3	3	1	3	1	6	4	2	0	0	0	5	4
080112	13:56:39	10033	Trial2BackFrS	NS	17	0	1000	1	93	13:56:39	3398407	5	0	0	1	3	3	1	3	1	6	4	2	0	0	0	5	4
080112	13:56:39	10033	Trial2BackFrS	NS	17	0	1000	1	93	13:56:39	3399926	5	0	0	1	3	3	1	3	1	6	4	2	0	0	0	5	4
080112	13:56:39	10033	Trial2BackFrS	NS	17	0	1000	1	93	13:56:39	3401445	5	0	0	1	3	3	1	3	1	6	4	2	0	0	0	5	4
080112	13:56:39	10033	Trial2BackFrS	NS	17	0	1000	1	93	13:56:39	3402965	5	0	0	1	3	3	1	3	1	6	4	2	0	0	0	5	4
080112	13:56:39	10033	Trial2BackFrS	NS	17	0	1000	1	93	13:56:39	3404484	5	0	0	1	3	3	1	3	1	6	4	2	0	0	0	5	4
080112	13:56:39	10033	Trial2BackFrS	NS	17	0	1000	1	93	13:56:39	3406004	5	0	0	1	3	3	1	3	1	6	4	2	0	0	0	5	4
080112	13:56:39	10033	Trial2BackFrS	NS	17	0	1000	1	93	13:56:39	3407523	5	0	0	1	3	3	1	3	1	6	4	2	0	0	0	5	4
080112	13:56:39	10033	Trial2BackFrS	NS	17	0	1000	1	93	13:56:39	3409043	5	0	0	1	3	3	1	3	1	6	4	2	0	0	0	5	4
080112	13:56:39	10033	Trial2BackFrS	NS	17	0	1000	1	93	13:56:39	3410562	5	0	0	1	3	3	1	3	1	6	4	2	0	0	0	5	4
080112	13:56:39	10033	Trial2BackFrS	YS	17	0	1000	0	93	13:56:39	3412081	5	0	0	1	3	3	1	3	1	6	4	2	0	0	0	5	4
080112	13:56:39	10033	Trial2BackFrS	NS	17	0	1000	1	93	13:56:39	3413601	5	0	0	1	3	3	1	3	1	6	4	2	0	0	0	5	4
080112	13:56:39	10033	Trial2BackFrS	NS	17	0	1000	1	93	13:56:39	3415120	5	0	0	1	3	3	1	3	1	6	4	2	0	0	0	5	4
080112	13:56:39	10033	Trial2BackFrS	NS	17	0	1000	1	93	13:56:39	3416639	5	0	0	1	3	3	1	3	1	6	4	2	0	0	0	5	4
080112	13:56:39	10033	Trial2BackFrS	YS	17	0	1000	0	93	13:56:39	3418159	5	0	0	1	3	3	1	3	1	6	4	2	0	0	0	5	4
080112	13:56:39	10033	Trial2BackFrS	NS	17	0	1000	1	93	13:56:39	3419678	5	0	0	1	3	3	1	3	1	6	4	2	0	0	0	5	4
080112	13:56:39	10033	Trial2BackFrS	NS	17	0	1000	1	93	13:56:39	3421198	5	0	0	1	3	3	1	3	1	6	4	2	0	0	0	5	4
080112	13:56:39	10033	Trial2BackFrS	NS	17	0	1000	1	93	13:56:39	3422717	5	0	0	1	3	3	1	3	1	6	4	2	0	0	0	5	4
080112	13:56:39	10033	Trial2BackFrS	NS	17	0	1000	1	93	13:56:39	3424237	5	0	0	1	3	3	1	3	1	6	4	2	0	0	0	5	4
080112	13:56:39	10033	Trial2BackFrS	NS	17	0	1000	1	93	13:56:39	3425756	5	0	0	1	3	3	1	3	1	6	4	2	0	0	0	5	4
080112	13:56:39	10033	Trial2BackFrS	NS	17	0	1000	1	93	13:56:39	3427275	5	0	0	1	3	3	1	3	1	6	4	2	0	0	0	5	4
080112	13:56:39	10033	Trial2BackFrS	NS	17	0	1000	1	93	13:56:39	3428795	5	0	0	1	3	3	1	3	1	6	4	2	0	0	0	5	4
080112	13:56:39	10033	Trial2BackFrS	YS	17	0	1000	0	93	13:56:39	3430314	5	0	0	1	3	3	1	3	1	6	4	2	0	0	0	5	4
080112	13:56:39	10033	Trial2BackFrS	NS	17	0	1000	1	93	13:56:39	3431834	5	0	0	1	3	3	1	3	1	6	4	2	0	0	0	5	4
080112	13:56:39	10033	Trial2BackFrS	NS	17	0	1000	1	93	13:56:39	3433353	5	0	0	1	3	3	1	3	1	6	4	2	0	0	0	5	4
080112	13:56:39	10033	Trial2BackFrS	NS	17	0	1000	1	93	13:56:39	3434872	5	0	0	1	3	3	1	3	1	6	4	2	0	0	0	5	4
080112	13:56:39	10033	Trial2BackFrS	NS	17	0	1000	1	93	13:56:39	3436392	5	0	0	1	3	3	1	3	1	6	4	2	0	0	0	5	4
080112	13:56:39	10033	Trial2BackFrS	YS	17	0	1000	0	93	13:56:39	3437951	5	0	0	1	3	3	1	3	1	6	4	2	0	0	0	5	4
080112	13:56:39	10033	Trial2BackFrS	NS	17	0	1000	1	93	13:56:39	3439470	5	0	0	1	3	3	1	3	1	6	4	2	0	0	0	5	4
080112	13:56:39	10033	Trial2BackFrS	NS	17	0	1000	1	93	13:56:39	3440990	5	0	0	1	3	3	1	3	1	6	4	2	0	0	0	5	4
080112	13:56:39	10033	Trial2BackFrS	NS	17	0	1000	1	93	13:56:39	3442509	5	0	0	1	3	3	1	3	1	6	4	2	0	0	0	5	4
080112	13:56:39	10033	Trial2BackFrS	NS	17	0	1000	1	93	13:56:39	3444029	5	0	0	1	3	3	1	3	1	6	4	2	0	0	0	5	4
080112	13:56:39	10033	Trial2BackFrS	NS	17	0	1000	1	93	13:56:39	3445548	5	0	0	1	3	3	1	3	1	6	4	2	0	0	0	5	4
080112	13:56:39	10033	Trial2BackFrS	NS	17	0	1000	1	93	13:56:39	3447068	5	0	0	1	3	3	1	3	1	6	4	2	0	0	0	5	4
080112	13:56:39	10033	Trial2BackFrS	YS	17	57	636	1	93	13:56:39	3448227	5	0	0	1	3	3	1	3	1	6	4	2	0	0	0	5	4
080112	13:56:39	10033	Trial2BackFrS	NS	17	0	1000	1	93	13:56:39	3450093	5	0	0	1	3	3	1	3	1	6	4	2	0	0	0	5	4
080112	13:56:39	10033	Trial2BackFrS	NS	17	0	1000	1	93	13:56:39	3451612	5	0	0	1	3	3	1	3	1	6	4	2	0	0	0	5	4
080112	13:56:39	10033	Trial2BackFrS	NS	17	0	1000	1	93	13:56:39	3453132	5	0	0	1	3	3	1	3	1	6	4	2	0	0	0	5	4
080112	13:56:39	10033	Trial2BackFrS	NS	17	0	1000	1	93	13:56:39	3454651	5	0	0	1	3	3	1	3	1	6	4	2	0	0	0	5	4
080112	13:56:39	10033	Trial2BackFrS	NS	17	0	1000	1	93	13:56:39	3456171	5	0	0	1	3	3	1	3	1	6	4	2	0	0	0	5	4
080112	13:56:39	10033	Trial2BackFrS	NS	17	0	1000	1	93	13:56:39	3457690	5	0	0	1	3	3	1	3	1	6	4	2	0	0	0	5	4
080112	13:56:39	10033	Trial2BackFrS	NS	17	0	1000	1	93	13:56:39	3459209	5	0	0	1	3	3	1	3	1	6	4	2	0	0	0	5	4
080112	13:56:39	10033	Trial2BackFrS	YS	17	0	1000	0	93	13:56:39	3460729	5	0	0	1	3	3	1	3	1	6	4	2	0	0	0	5	4
080112	13:56:39	10033	Trial2BackFrS	NS	17	0	1000	1	93	13:56:39	3462248	5	0	0	1	3	3	1	3	1	6	4	2	0	0	0	5	4
080112	13:56:39	10033	Trial2BackFrS	NS	17	0	1000	1	93	13:56:39	3463768	5	0	0	1	3	3	1	3	1	6	4	2	0	0	0	5	4
080112	13:56:39	10033	Trial2BackFrS	NS	17	0	1000	1	93	13:56:39	3465287	5	0	0	1	3	3	1	3	1	6	4	2	0	0	0	5	4
080112	13:56:39	10033	Trial2BackFrS	NS	17	0	1000	1	93	13:56:39	3466806	5	0	0	1	3	3	1	3	1	6	4	2	0	0	0	5	4
080112	13:56:39	10033	Trial2BackFrS	YS	17	0	1000	0	93	13:56:39	3468326	5	0	0	1	3	3	1	3	1	6	4	2	0	0	0	5	4
080112	13:56:39	10033	Trial2BackFrS	NS	17	0	1000	1	93	13:56:39	3469845	5	0	0	1	3	3	1	3	1	6	4	2	0	0	0	5	4
080112	13:56:39	10033	Trial2BackFrS	NS	17	57	882	0	93	13:56:39	3471258	5	0	0	1	3	3	1	3	1	6	4	2	0	0	0	5	4
080112	13:56:39	10033	Trial2BackFrS	YS	17	0	1000	0	93	13:56:39	3472871	5	0	0	1	3	3	1	3	1	6	4	2	0	0	0	5	4
080112	13:56:39	10033	Trial2BackFrS	NS	17	0	1000	1	93	13:56:39	3474390	5	0	0	1	3	3	1	3	1	6	4	2	0	0	0	5	4
080112	13:56:39	10033	Trial2BackFrS	NS	17	0	1000	1	93	13:56:39	3475909	5	0	0	1	3	3	1	3	1	6	4	2	0	0	0	5	4
080112	13:56:39	10033	Trial2BackFrS	NS	17	0	1000	1	93	13:56:39	3477429	5	0	0	1	3	3	1	3	1	6	4	2	0	0	0	5	4
080112	13:56:39	10033	Trial2BackFrS	NS	17	0	1000	1	93	13:56:39	3478948	5	0	0	1	3	3	1	3	1	6	4	2	0	0	0	5	4
080112	13:56:39	10033	Trial2BackFrS	NS	17	57	787	0	93	13:56:39	3480268	5	0	0	1	3	3	1	3	1	6	4	2	0	0	0	5	4
080112	13:56:39	10033	Trial2BackFrS	NS	17	0	1000	1	93	13:56:39	3481974	5	0	0	1	3	3	1	3	1	6	4	2	0	0	0	5	4
080112	13:56:39	10033	Trial2BackFrS	YS	17	0	1000	0	93	13:56:39	3483493	5	0	0	1	3	3	1	3	1	6	4	2	0	0	0	5	4
080112	13:56:39	10033	Trial2BackFrS	NS	17	0	1000	1	93	13:56:39	3485013	5	0	0	1	3	3	1	3	1	6	4	2	0	0	0	5	4
080112	13:56:39	10033	Trial2BackFrS	NS	17	0	1000	1	93	13:56:39	3486532	5	0	0	1	3	3	1	3	1	6	4	2	0	0	0	5	4
080112	13:56:39	10033	Trial2BackFrS	NS	17	0	1000	1	93	13:56:39	3488051	5	0	0	1	3	3	1	3	1	6	4	2	0	0	0	5	4
080112	13:56:39	10033	Trial2BackFrS	NS	17	0	1000	1	93	13:56:39	3489571	5	0	0	1	3	3	1	3	1	6	4	2	0	0	0	5	4
080112	13:56:39	10033	Trial2BackFrS	YS	17	0	1000	0	93	13:56:39	3491090	5	0	0	1	3	3	1	3	1	6	4	2	0	0	0	5	4
080112	13:56:39	10033	Trial2BackFrS	NS	17	57	709	0	93	13:56:39	3492330	5	0	0	1	3	3	1	3	1	6	4	2	0	0	0	5	4
080112	13:56:39	10033	Trial2BackFrS	NS	17	0	1000	1	93	13:56:39	3494116	5	0	0	1	3	3	1	3	1	6	4	2	0	0	0	5	4
080112	13:56:39	10033	Trial2BackFrS	NS	17	0	1000	1	93	13:56:39	3495635	5	0	0	1	3	3	1	3	1	6	4	2	0	0	0	5	4
080112	13:56:39	10033	Trial2BackFrS	NS	17	57	516	0	93	13:56:39	3496675	5	0	0	1	3	3	1	3	1	6	4	2	0	0	0	5	4
080112	13:56:39	10033	Trial2BackFrS	YS	17	0	1000	0	93	13:56:39	3498661	5	0	0	1	3	3	1	3	1	6	4	2	0	0	0	5	4
080112	13:56:39	10033	Trial2BackFrS	NS	17	0	1000	1	93	13:56:39	3500180	5	0	0	1	3	3	1	3	1	6	4	2	0	0	0	5	4
080112	13:56:39	10033	Trial2BackFrS	NS	17	0	1000	1	93	13:56:39	3501699	5	0	0	1	3	3	1	3	1	6	4	2	0	0	0	5	4
080112	13:56:39	10033	Trial2BackFrS	YS	17	0	1000	0	93	13:56:39	3503219	5	0	0	1	3	3	1	3	1	6	4	2	0	0	0	5	4
080112	13:56:39	10033	Trial2BackFrS	NS	17	0	1000	1	93	13:56:39	3504738	5	0	0	1	3	3	1	3	1	6	4	2	0	0	0	5	4
080112	13:56:39	10033	Trial2BackFrS	NS	17	0	1000	1	93	13:56:39	3506258	5	0	0	1	3	3	1	3	1	6	4	2	0	0	0	5	4
080112	13:56:39	10033	Trial2BackFrS	NS	17	0	1000	1	93	13:56:39	3507777	5	0	0	1	3	3	1	3	1	6	4	2	0	0	0	5	4
080112	13:56:39	10033	Trial2BackFrS	NS	17	0	1000	1	93	13:56:39	3509296	5	0	0	1	3	3	1	3	1	6	4	2	0	0	0	5	4
080112	13:56:39	10033	Trial2BackFrS	NS	17	0	1000	1	93	13:56:39	3510816	5	0	0	1	3	3	1	3	1	6	4	2	0	0	0	5	4
080112	13:56:39	10033	Trial2BackFrS	NS	17	0	1000	1	93	13:56:39	3512335	5	0	0	1	3	3	1	3	1	6	4	2	0	0	0	5	4
080112	13:56:39	10033	Trial2BackFrS	NS	17	0	1000	1	93	13:56:39	3513855	5	0	0	1	3	3	1	3	1	6	4	2	0	0	0	5	4
080112	13:56:39	10033	Trial2BackFrS	NS	17	0	1000	1	93	13:56:39	3515374	5	0	0	1	3	3	1	3	1	6	4	2	0	0	0	5	4
080112	13:56:39	10033	Trial2BackFrS	YS	17	0	1000	0	93	13:56:39	3516893	5	0	0	1	3	3	1	3	1	6	4	2	0	0	0	5	4
080112	13:56:39	10033	Trial2BackFrS	NS	17	0	1000	1	93	13:56:39	3518413	5	0	0	1	3	3	1	3	1	6	4	2	0	0	0	5	4
080112	13:56:39	10033	Trial2BackFrS	NS	17	0	1000	1	93	13:56:39	3519932	5	0	0	1	3	3	1	3	1	6	4	2	0	0	0	5	4
080112	13:56:39	10033	Trial2BackFrS	NS	17	0	1000	1	93	13:56:39	3521452	5	0	0	1	3	3	1	3	1	6	4	2	0	0	0	5	4
080112	13:56:39	10033	Trial2BackFrS	NS	17	0	1000	1	93	13:56:39	3522971	5	0	0	1	3	3	1	3	1	6	4	2	0	0	0	5	4
080112	13:56:39	10033	Trial2BackFrS	NS	17	0	1000	1	93	13:56:39	3524490	5	0	0	1	3	3	1	3	1	6	4	2	0	0	0	5	4
080112	13:56:39	10033	Trial2BackFrS	NS	17	0	1000	1	93	13:56:39	3526010	5	0	0	1	3	3	1	3	1	6	4	2	0	0	0	5	4
080112	13:56:39	10033	Trial2BackFrS	NS	17	0	1000	1	93	13:56:39	3527529	5	0	0	1	3	3	1	3	1	6	4	2	0	0	0	5	4
080112	13:56:39	10033	Trial2BackFrS	YS	17	0	1000	0	93	13:56:39	3529048	5	0	0	1	3	3	1	3	1	6	4	2	0	0	0	5	4
080112	13:56:39	10033	Trial2BackFrS	NS	17	0	1000	1	93	13:56:39	3530568	5	0	0	1	3	3	1	3	1	6	4	2	0	0	0	5	4
080112	13:56:39	10033	Trial2BackFrS	NS	17	0	1000	1	93	13:56:39	3532087	5	0	0	1	3	3	1	3	1	6	4	2	0	0	0	5	4
080112	13:56:39	10033	Trial2BackFrS	NS	17	0	1000	1	93	13:56:39	3533607	5	0	0	1	3	3	1	3	1	6	4	2	0	0	0	5	4
080112	13:56:39	10033	Trial2BackFrS	NS	17	0	1000	1	93	13:56:39	3535126	5	0	0	1	3	3	1	3	1	6	4	2	0	0	0	5	4
080112	13:56:39	10033	Trial2BackFrS	NS	17	0	1000	1	93	13:56:39	3536672	5	0	0	1	3	3	1	3	1	6	4	2	0	0	0	5	4
080112	13:56:39	10033	Trial2BackFrS	NS	17	0	1000	1	93	13:56:39	3538191	5	0	0	1	3	3	1	3	1	6	4	2	0	0	0	5	4
080112	13:56:39	10033	Trial2BackFrS	NS	17	0	1000	1	93	13:56:39	3539711	5	0	0	1	3	3	1	3	1	6	4	2	0	0	0	5	4
080112	13:56:39	10033	Trial2BackFrS	NS	17	0	1000	1	93	13:56:39	3541230	5	0	0	1	3	3	1	3	1	6	4	2	0	0	0	5	4
080112	13:56:39	10033	Trial2BackFrS	NS	17	0	1000	1	93	13:56:39	3542750	5	0	0	1	3	3	1	3	1	6	4	2	0	0	0	5	4
080112	13:56:39	10033	Trial2BackFrS	YS	17	0	1000	0	93	13:56:39	3544269	5	0	0	1	3	3	1	3	1	6	4	2	0	0	0	5	4
080112	13:56:39	10033	Trial2BackFrS	NS	17	0	1000	1	93	13:56:39	3545789	5	0	0	1	3	3	1	3	1	6	4	2	0	0	0	5	4
080112	13:56:39	10033	ClockFrBaseline	ClockFrBaseline	19	Clock1	59027	0	93	13:56:39	3604925	5	0	0	1	3	3	1	3	1	6	4	2	1	0	0	5	4
080112	13:56:39	10033	ClockFrBaseline	ClockFrBaseline	19	Clock11	598	0	93	13:56:39	3605565	5	0	0	1	3	3	1	3	1	6	4	2	1	1	0	5	4
080112	13:56:39	10033	ClockFrBaseline	ClockFrBaseline	19	Clock111	518	0	93	13:56:39	3606125	5	0	0	1	3	3	1	3	1	6	4	2	1	1	1	5	4
080112	13:56:39	10033	ClockFrBaseline	ClockFrBaseline	19	Clockdone	646	0	93	13:56:39	3606805	5	0	0	1	3	3	1	3	1	6	4	2	1	1	1	5	4
080112	13:56:39	10033	FASFrVFBaseline	StopFrVFBaseline	20	6	14034	0	93	13:56:39	3725094	5	0	0	1	3	3	1	3	1	6	4	2	1	1	1	5	4
