date	time	subject	blockcode	trialcode	values.TaskNumber	response	latency	correct	values.Score	script.starttime	script.elapsedtime	values.ScoreS7	values.Word1	values.Word2	values.Word3	values.Word4	values.Word5	values.Word6	values.Word7	values.Word8	values.DigitSpanFwrd	values.DigitSpanBack	values.ScoreAbs	values.Contour	values.Numbers	values.Hands	values.corsiblockspanFwrd	values.corsiblockspanRev
071212	14:15:28	10004	Language	Language	0	French	49993	0	0	14:15:28	50084	0	0	0	0	0	0	0	0	0	0	0	0	0	0	0	0	0
071212	14:15:28	10004	Session	Session	0	3mo	877	0	0	14:15:28	51043	0	0	0	0	0	0	0	0	0	0	0	0	0	0	0	0	0
071212	14:15:28	10004	HandFr	HandFr	0	RightFr	504707	0	0	14:15:28	555833	0	0	0	0	0	0	0	0	0	0	0	0	0	0	0	0	0
071212	14:15:28	10004	AudioCheckFr	WordsFr	0	0	0	0	0	14:15:28	574797	0	0	0	0	0	0	0	0	0	0	0	0	0	0	0	0	0
071212	14:15:28	10004	AudioCheckFr	WordsFr	0	0	0	0	0	14:15:28	580657	0	0	0	0	0	0	0	0	0	0	0	0	0	0	0	0	0
071212	14:15:28	10004	CubeFr	CubeFr	1	1Cube	26487	0	0	14:15:28	609304	0	0	0	0	0	0	0	0	0	0	0	0	0	0	0	0	0
071212	14:15:28	10004	pm.simpleFrRight	blank.simpleFr	2	0	1887	1	0	14:15:28	636919	0	0	0	0	0	0	0	0	0	0	0	0	0	0	0	0	0
071212	14:15:28	10004	pm.simpleFrRight	pm.simpleFr	2	57	516	0	0	14:15:28	637466	0	0	0	0	0	0	0	0	0	0	0	0	0	0	0	0	0
071212	14:15:28	10004	pm.simpleFrRight	blank.simpleFr	2	0	1587	1	0	14:15:28	639078	0	0	0	0	0	0	0	0	0	0	0	0	0	0	0	0	0
071212	14:15:28	10004	pm.simpleFrRight	pm.simpleFr	2	57	517	0	0	14:15:28	639625	0	0	0	0	0	0	0	0	0	0	0	0	0	0	0	0	0
071212	14:15:28	10004	pm.simpleFrRight	blank.simpleFr	2	0	2487	1	0	14:15:28	642144	0	0	0	0	0	0	0	0	0	0	0	0	0	0	0	0	0
071212	14:15:28	10004	pm.simpleFrRight	pm.simpleFr	2	57	475	0	0	14:15:28	642650	0	0	0	0	0	0	0	0	0	0	0	0	0	0	0	0	0
071212	14:15:28	10004	pm.simpleFrRight	blank.simpleFr	2	0	1987	1	0	14:15:28	644663	0	0	0	0	0	0	0	0	0	0	0	0	0	0	0	0	0
071212	14:15:28	10004	pm.simpleFrRight	pm.simpleFr	2	57	644	0	0	14:15:28	645342	0	0	0	0	0	0	0	0	0	0	0	0	0	0	0	0	0
071212	14:15:28	10004	pm.simpleFrRight	blank.simpleFr	2	0	2187	1	0	14:15:28	647555	0	0	0	0	0	0	0	0	0	0	0	0	0	0	0	0	0
071212	14:15:28	10004	pm.simpleFrRight	pm.simpleFr	2	57	696	0	0	14:15:28	648288	0	0	0	0	0	0	0	0	0	0	0	0	0	0	0	0	0
071212	14:15:28	10004	pm.simpleFrRight	blank.simpleFr	2	0	2087	1	0	14:15:28	650407	0	0	0	0	0	0	0	0	0	0	0	0	0	0	0	0	0
071212	14:15:28	10004	pm.simpleFrRight	pm.simpleFr	2	57	547	0	0	14:15:28	650993	0	0	0	0	0	0	0	0	0	0	0	0	0	0	0	0	0
071212	14:15:28	10004	pm.simpleFrRight	blank.simpleFr	2	0	2287	1	0	14:15:28	653313	0	0	0	0	0	0	0	0	0	0	0	0	0	0	0	0	0
071212	14:15:28	10004	pm.simpleFrRight	pm.simpleFr	2	57	378	0	0	14:15:28	653725	0	0	0	0	0	0	0	0	0	0	0	0	0	0	0	0	0
071212	14:15:28	10004	pm.simpleFrRight	blank.simpleFr	2	0	2387	1	0	14:15:28	656138	0	0	0	0	0	0	0	0	0	0	0	0	0	0	0	0	0
071212	14:15:28	10004	pm.simpleFrRight	pm.simpleFr	2	57	385	0	0	14:15:28	656564	0	0	0	0	0	0	0	0	0	0	0	0	0	0	0	0	0
071212	14:15:28	10004	pm.simpleFrRight	blank.simpleFr	2	0	1487	1	0	14:15:28	658070	0	0	0	0	0	0	0	0	0	0	0	0	0	0	0	0	0
071212	14:15:28	10004	pm.simpleFrRight	pm.simpleFr	2	57	468	0	0	14:15:28	658577	0	0	0	0	0	0	0	0	0	0	0	0	0	0	0	0	0
071212	14:15:28	10004	pm.simpleFrRight	blank.simpleFr	2	0	1687	1	0	14:15:28	660296	0	0	0	0	0	0	0	0	0	0	0	0	0	0	0	0	0
071212	14:15:28	10004	pm.simpleFrRight	pm.simpleFr	2	57	579	0	0	14:15:28	660909	0	0	0	0	0	0	0	0	0	0	0	0	0	0	0	0	0
071212	14:15:28	10004	pm.simpleFrRight	blank.simpleFr	2	0	1787	1	0	14:15:28	662722	0	0	0	0	0	0	0	0	0	0	0	0	0	0	0	0	0
071212	14:15:28	10004	pm.simpleFrRight	pm.simpleFr	2	57	473	0	0	14:15:28	663228	0	0	0	0	0	0	0	0	0	0	0	0	0	0	0	0	0
071212	14:15:28	10004	pm.simpleFrRight	blank.simpleFr	2	0	2387	1	0	14:15:28	665641	0	0	0	0	0	0	0	0	0	0	0	0	0	0	0	0	0
071212	14:15:28	10004	pm.simpleFrRight	pm.simpleFr	2	57	402	0	0	14:15:28	666080	0	0	0	0	0	0	0	0	0	0	0	0	0	0	0	0	0
071212	14:15:28	10004	pm.simpleFrRight	blank.simpleFr	2	0	2087	1	0	14:15:28	668200	0	0	0	0	0	0	0	0	0	0	0	0	0	0	0	0	0
071212	14:15:28	10004	pm.simpleFrRight	pm.simpleFr	2	57	626	0	0	14:15:28	668866	0	0	0	0	0	0	0	0	0	0	0	0	0	0	0	0	0
071212	14:15:28	10004	pm.simpleFrRight	blank.simpleFr	2	0	1487	1	0	14:15:28	670385	0	0	0	0	0	0	0	0	0	0	0	0	0	0	0	0	0
071212	14:15:28	10004	pm.simpleFrRight	pm.simpleFr	2	57	440	0	0	14:15:28	670865	0	0	0	0	0	0	0	0	0	0	0	0	0	0	0	0	0
071212	14:15:28	10004	pm.simpleFrRight	blank.simpleFr	2	0	1687	1	0	14:15:28	672584	0	0	0	0	0	0	0	0	0	0	0	0	0	0	0	0	0
071212	14:15:28	10004	pm.simpleFrRight	pm.simpleFr	2	57	386	0	0	14:15:28	673011	0	0	0	0	0	0	0	0	0	0	0	0	0	0	0	0	0
071212	14:15:28	10004	pm.simpleFrRight	blank.simpleFr	2	0	1587	1	0	14:15:28	674624	0	0	0	0	0	0	0	0	0	0	0	0	0	0	0	0	0
071212	14:15:28	10004	pm.simpleFrRight	pm.simpleFr	2	57	442	0	0	14:15:28	675103	0	0	0	0	0	0	0	0	0	0	0	0	0	0	0	0	0
071212	14:15:28	10004	pm.simpleFrRight	blank.simpleFr	2	0	2187	1	0	14:15:28	677316	0	0	0	0	0	0	0	0	0	0	0	0	0	0	0	0	0
071212	14:15:28	10004	pm.simpleFrRight	pm.simpleFr	2	57	406	0	0	14:15:28	677756	0	0	0	0	0	0	0	0	0	0	0	0	0	0	0	0	0
071212	14:15:28	10004	pm.simpleFrRight	blank.simpleFr	2	0	2487	1	0	14:15:28	680275	0	0	0	0	0	0	0	0	0	0	0	0	0	0	0	0	0
071212	14:15:28	10004	pm.simpleFrRight	pm.simpleFr	2	57	327	0	0	14:15:28	680634	0	0	0	0	0	0	0	0	0	0	0	0	0	0	0	0	0
071212	14:15:28	10004	pm.simpleFrRight	blank.simpleFr	2	0	2287	1	0	14:15:28	682953	0	0	0	0	0	0	0	0	0	0	0	0	0	0	0	0	0
071212	14:15:28	10004	pm.simpleFrRight	pm.simpleFr	2	57	400	0	0	14:15:28	683393	0	0	0	0	0	0	0	0	0	0	0	0	0	0	0	0	0
071212	14:15:28	10004	pm.simpleFrRight	blank.simpleFr	2	0	1787	1	0	14:15:28	685206	0	0	0	0	0	0	0	0	0	0	0	0	0	0	0	0	0
071212	14:15:28	10004	pm.simpleFrRight	pm.simpleFr	2	57	436	0	0	14:15:28	685672	0	0	0	0	0	0	0	0	0	0	0	0	0	0	0	0	0
071212	14:15:28	10004	pm.simpleFrRight	blank.simpleFr	2	0	1987	1	0	14:15:28	687685	0	0	0	0	0	0	0	0	0	0	0	0	0	0	0	0	0
071212	14:15:28	10004	pm.simpleFrRight	pm.simpleFr	2	57	453	0	0	14:15:28	688178	0	0	0	0	0	0	0	0	0	0	0	0	0	0	0	0	0
071212	14:15:28	10004	pm.simpleFrRight	blank.simpleFr	2	0	1887	1	0	14:15:28	690097	0	0	0	0	0	0	0	0	0	0	0	0	0	0	0	0	0
071212	14:15:28	10004	pm.simpleFrRight	pm.simpleFr	2	57	504	0	0	14:15:28	690644	0	0	0	0	0	0	0	0	0	0	0	0	0	0	0	0	0
071212	14:15:28	10004	pm.simpleFrRight	blank.simpleFr	2	0	1887	1	0	14:15:28	692563	0	0	0	0	0	0	0	0	0	0	0	0	0	0	0	0	0
071212	14:15:28	10004	pm.simpleFrRight	pm.simpleFr	2	57	342	0	0	14:15:28	692936	0	0	0	0	0	0	0	0	0	0	0	0	0	0	0	0	0
071212	14:15:28	10004	pm.simpleFrRight	blank.simpleFr	2	0	1687	1	0	14:15:28	694655	0	0	0	0	0	0	0	0	0	0	0	0	0	0	0	0	0
071212	14:15:28	10004	pm.simpleFrRight	pm.simpleFr	2	57	314	0	0	14:15:28	695002	0	0	0	0	0	0	0	0	0	0	0	0	0	0	0	0	0
071212	14:15:28	10004	pm.simpleFrRight	blank.simpleFr	2	0	1487	1	0	14:15:28	696521	0	0	0	0	0	0	0	0	0	0	0	0	0	0	0	0	0
071212	14:15:28	10004	pm.simpleFrRight	pm.simpleFr	2	57	432	0	0	14:15:28	696987	0	0	0	0	0	0	0	0	0	0	0	0	0	0	0	0	0
071212	14:15:28	10004	pm.simpleFrRight	blank.simpleFr	2	0	1587	1	0	14:15:28	698600	0	0	0	0	0	0	0	0	0	0	0	0	0	0	0	0	0
071212	14:15:28	10004	pm.simpleFrRight	pm.simpleFr	2	57	673	0	0	14:15:28	699307	0	0	0	0	0	0	0	0	0	0	0	0	0	0	0	0	0
071212	14:15:28	10004	pm.simpleFrRight	blank.simpleFr	2	0	1787	1	0	14:15:28	701120	0	0	0	0	0	0	0	0	0	0	0	0	0	0	0	0	0
071212	14:15:28	10004	pm.simpleFrRight	pm.simpleFr	2	57	394	0	0	14:15:28	701546	0	0	0	0	0	0	0	0	0	0	0	0	0	0	0	0	0
071212	14:15:28	10004	pm.simpleFrRight	blank.simpleFr	2	0	2187	1	0	14:15:28	703758	0	0	0	0	0	0	0	0	0	0	0	0	0	0	0	0	0
071212	14:15:28	10004	pm.simpleFrRight	pm.simpleFr	2	57	571	0	0	14:15:28	704371	0	0	0	0	0	0	0	0	0	0	0	0	0	0	0	0	0
071212	14:15:28	10004	pm.simpleFrRight	blank.simpleFr	2	0	2287	1	0	14:15:28	706690	0	0	0	0	0	0	0	0	0	0	0	0	0	0	0	0	0
071212	14:15:28	10004	pm.simpleFrRight	pm.simpleFr	2	57	535	0	0	14:15:28	707263	0	0	0	0	0	0	0	0	0	0	0	0	0	0	0	0	0
071212	14:15:28	10004	pm.simpleFrRight	blank.simpleFr	2	0	1987	1	0	14:15:28	709276	0	0	0	0	0	0	0	0	0	0	0	0	0	0	0	0	0
071212	14:15:28	10004	pm.simpleFrRight	pm.simpleFr	2	57	413	0	0	14:15:28	709729	0	0	0	0	0	0	0	0	0	0	0	0	0	0	0	0	0
071212	14:15:28	10004	pm.simpleFrRight	blank.simpleFr	2	0	2387	1	0	14:15:28	712142	0	0	0	0	0	0	0	0	0	0	0	0	0	0	0	0	0
071212	14:15:28	10004	pm.simpleFrRight	pm.simpleFr	2	57	443	0	0	14:15:28	712621	0	0	0	0	0	0	0	0	0	0	0	0	0	0	0	0	0
071212	14:15:28	10004	pm.simpleFrRight	blank.simpleFr	2	0	2487	1	0	14:15:28	715140	0	0	0	0	0	0	0	0	0	0	0	0	0	0	0	0	0
071212	14:15:28	10004	pm.simpleFrRight	pm.simpleFr	2	57	389	0	0	14:15:28	715566	0	0	0	0	0	0	0	0	0	0	0	0	0	0	0	0	0
071212	14:15:28	10004	pm.simpleFrRight	blank.simpleFr	2	0	2087	1	0	14:15:28	717686	0	0	0	0	0	0	0	0	0	0	0	0	0	0	0	0	0
071212	14:15:28	10004	pm.simpleFrRight	pm.simpleFr	2	57	354	0	0	14:15:28	718072	0	0	0	0	0	0	0	0	0	0	0	0	0	0	0	0	0
071212	14:15:28	10004	pm.simpleFrRight	blank.simpleFr	2	0	1887	1	0	14:15:28	719991	0	0	0	0	0	0	0	0	0	0	0	0	0	0	0	0	0
071212	14:15:28	10004	pm.simpleFrRight	pm.simpleFr	2	57	369	0	0	14:15:28	720391	0	0	0	0	0	0	0	0	0	0	0	0	0	0	0	0	0
071212	14:15:28	10004	pm.simpleFrRight	blank.simpleFr	2	0	1987	1	0	14:15:28	722404	0	0	0	0	0	0	0	0	0	0	0	0	0	0	0	0	0
071212	14:15:28	10004	pm.simpleFrRight	pm.simpleFr	2	57	405	0	0	14:15:28	722844	0	0	0	0	0	0	0	0	0	0	0	0	0	0	0	0	0
071212	14:15:28	10004	pm.simpleFrRight	blank.simpleFr	2	0	2387	1	0	14:15:28	725256	0	0	0	0	0	0	0	0	0	0	0	0	0	0	0	0	0
071212	14:15:28	10004	pm.simpleFrRight	pm.simpleFr	2	57	336	0	0	14:15:28	725629	0	0	0	0	0	0	0	0	0	0	0	0	0	0	0	0	0
071212	14:15:28	10004	pm.simpleFrRight	blank.simpleFr	2	0	2187	1	0	14:15:28	727842	0	0	0	0	0	0	0	0	0	0	0	0	0	0	0	0	0
071212	14:15:28	10004	pm.simpleFrRight	pm.simpleFr	2	57	375	0	0	14:15:28	728255	0	0	0	0	0	0	0	0	0	0	0	0	0	0	0	0	0
071212	14:15:28	10004	pm.simpleFrRight	blank.simpleFr	2	0	2487	1	0	14:15:28	730774	0	0	0	0	0	0	0	0	0	0	0	0	0	0	0	0	0
071212	14:15:28	10004	pm.simpleFrRight	pm.simpleFr	2	57	370	0	0	14:15:28	731187	0	0	0	0	0	0	0	0	0	0	0	0	0	0	0	0	0
071212	14:15:28	10004	pm.simpleFrRight	blank.simpleFr	2	0	1487	1	0	14:15:28	732706	0	0	0	0	0	0	0	0	0	0	0	0	0	0	0	0	0
071212	14:15:28	10004	pm.simpleFrRight	pm.simpleFr	2	57	534	0	0	14:15:28	733279	0	0	0	0	0	0	0	0	0	0	0	0	0	0	0	0	0
071212	14:15:28	10004	pm.simpleFrRight	blank.simpleFr	2	0	1787	1	0	14:15:28	735092	0	0	0	0	0	0	0	0	0	0	0	0	0	0	0	0	0
071212	14:15:28	10004	pm.simpleFrRight	pm.simpleFr	2	57	340	0	0	14:15:28	735465	0	0	0	0	0	0	0	0	0	0	0	0	0	0	0	0	0
071212	14:15:28	10004	Trial2BackFr	N	3	0	1000	1	1	14:15:28	799545	0	0	0	0	0	0	0	0	0	0	0	0	0	0	0	0	0
071212	14:15:28	10004	Trial2BackFr	N	3	0	1000	1	2	14:15:28	801064	0	0	0	0	0	0	0	0	0	0	0	0	0	0	0	0	0
071212	14:15:28	10004	Trial2BackFr	N	3	0	1000	1	3	14:15:28	802584	0	0	0	0	0	0	0	0	0	0	0	0	0	0	0	0	0
071212	14:15:28	10004	Trial2BackFr	N	3	0	1000	1	4	14:15:28	804103	0	0	0	0	0	0	0	0	0	0	0	0	0	0	0	0	0
071212	14:15:28	10004	Trial2BackFr	N	3	0	1000	1	5	14:15:28	805623	0	0	0	0	0	0	0	0	0	0	0	0	0	0	0	0	0
071212	14:15:28	10004	Trial2BackFr	N	3	0	1000	1	6	14:15:28	807142	0	0	0	0	0	0	0	0	0	0	0	0	0	0	0	0	0
071212	14:15:28	10004	Trial2BackFr	N	3	0	1000	1	7	14:15:28	808661	0	0	0	0	0	0	0	0	0	0	0	0	0	0	0	0	0
071212	14:15:28	10004	Trial2BackFr	N	3	0	1000	1	8	14:15:28	810181	0	0	0	0	0	0	0	0	0	0	0	0	0	0	0	0	0
071212	14:15:28	10004	Trial2BackFr	Y	3	57	469	1	9	14:15:28	811180	0	0	0	0	0	0	0	0	0	0	0	0	0	0	0	0	0
071212	14:15:28	10004	Trial2BackFr	N	3	0	1000	1	10	14:15:28	813206	0	0	0	0	0	0	0	0	0	0	0	0	0	0	0	0	0
071212	14:15:28	10004	Trial2BackFr	N	3	0	1000	1	11	14:15:28	814725	0	0	0	0	0	0	0	0	0	0	0	0	0	0	0	0	0
071212	14:15:28	10004	Trial2BackFr	N	3	0	1000	1	12	14:15:28	816245	0	0	0	0	0	0	0	0	0	0	0	0	0	0	0	0	0
071212	14:15:28	10004	Trial2BackFr	Y	3	57	725	1	13	14:15:28	817498	0	0	0	0	0	0	0	0	0	0	0	0	0	0	0	0	0
071212	14:15:28	10004	Trial2BackFr	N	3	0	1000	1	14	14:15:28	819270	0	0	0	0	0	0	0	0	0	0	0	0	0	0	0	0	0
071212	14:15:28	10004	Trial2BackFr	N	3	0	1000	1	15	14:15:28	820790	0	0	0	0	0	0	0	0	0	0	0	0	0	0	0	0	0
071212	14:15:28	10004	Trial2BackFr	N	3	0	1000	1	16	14:15:28	822309	0	0	0	0	0	0	0	0	0	0	0	0	0	0	0	0	0
071212	14:15:28	10004	Trial2BackFr	N	3	0	1000	1	17	14:15:28	823828	0	0	0	0	0	0	0	0	0	0	0	0	0	0	0	0	0
071212	14:15:28	10004	Trial2BackFr	N	3	0	1000	1	18	14:15:28	825348	0	0	0	0	0	0	0	0	0	0	0	0	0	0	0	0	0
071212	14:15:28	10004	Trial2BackFr	Y	3	57	870	1	19	14:15:28	826747	0	0	0	0	0	0	0	0	0	0	0	0	0	0	0	0	0
071212	14:15:28	10004	Trial2BackFr	N	3	0	1000	1	20	14:15:28	828373	0	0	0	0	0	0	0	0	0	0	0	0	0	0	0	0	0
071212	14:15:28	10004	Trial2BackFr	N	3	0	1000	1	21	14:15:28	829893	0	0	0	0	0	0	0	0	0	0	0	0	0	0	0	0	0
071212	14:15:28	10004	Trial2BackFr	N	3	0	1000	1	22	14:15:28	831412	0	0	0	0	0	0	0	0	0	0	0	0	0	0	0	0	0
071212	14:15:28	10004	Trial2BackFr	N	3	0	1000	1	23	14:15:28	832931	0	0	0	0	0	0	0	0	0	0	0	0	0	0	0	0	0
071212	14:15:28	10004	Trial2BackFr	Y	3	0	1000	0	23	14:15:28	834451	0	0	0	0	0	0	0	0	0	0	0	0	0	0	0	0	0
071212	14:15:28	10004	Trial2BackFr	N	3	0	1000	1	24	14:15:28	835970	0	0	0	0	0	0	0	0	0	0	0	0	0	0	0	0	0
071212	14:15:28	10004	Trial2BackFr	N	3	0	1000	1	25	14:15:28	837489	0	0	0	0	0	0	0	0	0	0	0	0	0	0	0	0	0
071212	14:15:28	10004	Trial2BackFr	N	3	0	1000	1	26	14:15:28	839009	0	0	0	0	0	0	0	0	0	0	0	0	0	0	0	0	0
071212	14:15:28	10004	Trial2BackFr	N	3	0	1000	1	27	14:15:28	840528	0	0	0	0	0	0	0	0	0	0	0	0	0	0	0	0	0
071212	14:15:28	10004	Trial2BackFr	N	3	0	1000	1	28	14:15:28	842047	0	0	0	0	0	0	0	0	0	0	0	0	0	0	0	0	0
071212	14:15:28	10004	Trial2BackFr	N	3	0	1000	1	29	14:15:28	843567	0	0	0	0	0	0	0	0	0	0	0	0	0	0	0	0	0
071212	14:15:28	10004	Trial2BackFr	Y	3	57	906	1	30	14:15:28	845006	0	0	0	0	0	0	0	0	0	0	0	0	0	0	0	0	0
071212	14:15:28	10004	Trial2BackFr	N	3	0	1000	1	31	14:15:28	846592	0	0	0	0	0	0	0	0	0	0	0	0	0	0	0	0	0
071212	14:15:28	10004	Trial2BackFr	N	3	0	1000	1	32	14:15:28	848112	0	0	0	0	0	0	0	0	0	0	0	0	0	0	0	0	0
071212	14:15:28	10004	Trial2BackFr	N	3	0	1000	1	33	14:15:28	849631	0	0	0	0	0	0	0	0	0	0	0	0	0	0	0	0	0
071212	14:15:28	10004	Trial2BackFr	Y	3	0	1000	0	33	14:15:28	851150	0	0	0	0	0	0	0	0	0	0	0	0	0	0	0	0	0
071212	14:15:28	10004	Trial2BackFr	N	3	0	1000	1	34	14:15:28	852670	0	0	0	0	0	0	0	0	0	0	0	0	0	0	0	0	0
071212	14:15:28	10004	Trial2BackFr	N	3	0	1000	1	35	14:15:28	854189	0	0	0	0	0	0	0	0	0	0	0	0	0	0	0	0	0
071212	14:15:28	10004	Trial2BackFr	N	3	57	75	0	35	14:15:28	854789	0	0	0	0	0	0	0	0	0	0	0	0	0	0	0	0	0
071212	14:15:28	10004	Trial2BackFr	N	3	0	1000	1	36	14:15:28	857215	0	0	0	0	0	0	0	0	0	0	0	0	0	0	0	0	0
071212	14:15:28	10004	Trial2BackFr	N	3	0	1000	1	37	14:15:28	858734	0	0	0	0	0	0	0	0	0	0	0	0	0	0	0	0	0
071212	14:15:28	10004	Trial2BackFr	N	3	0	1000	1	38	14:15:28	860253	0	0	0	0	0	0	0	0	0	0	0	0	0	0	0	0	0
071212	14:15:28	10004	Trial2BackFr	Y	3	0	1000	0	38	14:15:28	861773	0	0	0	0	0	0	0	0	0	0	0	0	0	0	0	0	0
071212	14:15:28	10004	Trial2BackFr	N	3	0	1000	1	39	14:15:28	863292	0	0	0	0	0	0	0	0	0	0	0	0	0	0	0	0	0
071212	14:15:28	10004	Trial2BackFr	N	3	0	1000	1	40	14:15:28	864811	0	0	0	0	0	0	0	0	0	0	0	0	0	0	0	0	0
071212	14:15:28	10004	Trial2BackFr	N	3	0	1000	1	41	14:15:28	866331	0	0	0	0	0	0	0	0	0	0	0	0	0	0	0	0	0
071212	14:15:28	10004	Trial2BackFr	N	3	0	1000	1	42	14:15:28	867850	0	0	0	0	0	0	0	0	0	0	0	0	0	0	0	0	0
071212	14:15:28	10004	Trial2BackFr	Y	3	57	590	1	43	14:15:28	868970	0	0	0	0	0	0	0	0	0	0	0	0	0	0	0	0	0
071212	14:15:28	10004	Trial2BackFr	N	3	0	1000	1	44	14:15:28	870876	0	0	0	0	0	0	0	0	0	0	0	0	0	0	0	0	0
071212	14:15:28	10004	Trial2BackFr	N	3	0	1000	1	45	14:15:28	872395	0	0	0	0	0	0	0	0	0	0	0	0	0	0	0	0	0
071212	14:15:28	10004	Trial2BackFr	N	3	0	1000	1	46	14:15:28	873914	0	0	0	0	0	0	0	0	0	0	0	0	0	0	0	0	0
071212	14:15:28	10004	Trial2BackFr	N	3	0	1000	1	47	14:15:28	875434	0	0	0	0	0	0	0	0	0	0	0	0	0	0	0	0	0
071212	14:15:28	10004	Trial2BackFr	N	3	0	1000	1	48	14:15:28	876953	0	0	0	0	0	0	0	0	0	0	0	0	0	0	0	0	0
071212	14:15:28	10004	Trial2BackFr	Y	3	57	542	1	49	14:15:28	878019	0	0	0	0	0	0	0	0	0	0	0	0	0	0	0	0	0
071212	14:15:28	10004	Trial2BackFr	N	3	0	1000	1	50	14:15:28	879978	0	0	0	0	0	0	0	0	0	0	0	0	0	0	0	0	0
071212	14:15:28	10004	Trial2BackFr	N	3	0	1000	1	51	14:15:28	881498	0	0	0	0	0	0	0	0	0	0	0	0	0	0	0	0	0
071212	14:15:28	10004	Trial2BackFr	N	3	0	1000	1	52	14:15:28	883017	0	0	0	0	0	0	0	0	0	0	0	0	0	0	0	0	0
071212	14:15:28	10004	Trial2BackFr	N	3	0	1000	1	53	14:15:28	884537	0	0	0	0	0	0	0	0	0	0	0	0	0	0	0	0	0
071212	14:15:28	10004	Trial2BackFr	N	3	57	655	0	53	14:15:28	885722	0	0	0	0	0	0	0	0	0	0	0	0	0	0	0	0	0
071212	14:15:28	10004	Trial2BackFr	N	3	0	1000	1	54	14:15:28	887562	0	0	0	0	0	0	0	0	0	0	0	0	0	0	0	0	0
071212	14:15:28	10004	Trial2BackFr	Y	3	0	1000	0	54	14:15:28	889081	0	0	0	0	0	0	0	0	0	0	0	0	0	0	0	0	0
071212	14:15:28	10004	Trial2BackFr	N	3	0	1000	1	55	14:15:28	890601	0	0	0	0	0	0	0	0	0	0	0	0	0	0	0	0	0
071212	14:15:28	10004	Trial2BackFr	N	3	0	1000	1	56	14:15:28	892120	0	0	0	0	0	0	0	0	0	0	0	0	0	0	0	0	0
071212	14:15:28	10004	Trial2BackFr	Y	3	57	783	1	57	14:15:28	893426	0	0	0	0	0	0	0	0	0	0	0	0	0	0	0	0	0
071212	14:15:28	10004	Trial2BackFr	N	3	0	1000	1	58	14:15:28	895145	0	0	0	0	0	0	0	0	0	0	0	0	0	0	0	0	0
071212	14:15:28	10004	Trial2BackFr	N	3	0	1000	1	59	14:15:28	896665	0	0	0	0	0	0	0	0	0	0	0	0	0	0	0	0	0
071212	14:15:28	10004	Trial2BackFr	N	3	0	1000	1	60	14:15:28	898184	0	0	0	0	0	0	0	0	0	0	0	0	0	0	0	0	0
071212	14:15:28	10004	Trial2BackFr	N	3	0	1000	1	61	14:15:28	899703	0	0	0	0	0	0	0	0	0	0	0	0	0	0	0	0	0
071212	14:15:28	10004	Trial2BackFr	N	3	0	1000	1	62	14:15:28	901223	0	0	0	0	0	0	0	0	0	0	0	0	0	0	0	0	0
071212	14:15:28	10004	Trial2BackFr	N	3	0	1000	1	63	14:15:28	902742	0	0	0	0	0	0	0	0	0	0	0	0	0	0	0	0	0
071212	14:15:28	10004	Trial2BackFr	N	3	0	1000	1	64	14:15:28	904262	0	0	0	0	0	0	0	0	0	0	0	0	0	0	0	0	0
071212	14:15:28	10004	Trial2BackFr	N	3	0	1000	1	65	14:15:28	905781	0	0	0	0	0	0	0	0	0	0	0	0	0	0	0	0	0
071212	14:15:28	10004	Trial2BackFr	N	3	57	658	0	65	14:15:28	906967	0	0	0	0	0	0	0	0	0	0	0	0	0	0	0	0	0
071212	14:15:28	10004	Trial2BackFr	N	3	0	1000	1	66	14:15:28	908807	0	0	0	0	0	0	0	0	0	0	0	0	0	0	0	0	0
071212	14:15:28	10004	Trial2BackFr	Y	3	0	1000	0	66	14:15:28	910326	0	0	0	0	0	0	0	0	0	0	0	0	0	0	0	0	0
071212	14:15:28	10004	Trial2BackFr	N	3	0	1000	1	67	14:15:28	911845	0	0	0	0	0	0	0	0	0	0	0	0	0	0	0	0	0
071212	14:15:28	10004	Trial2BackFr	N	3	0	1000	1	68	14:15:28	913365	0	0	0	0	0	0	0	0	0	0	0	0	0	0	0	0	0
071212	14:15:28	10004	Trial2BackFr	N	3	0	1000	1	69	14:15:28	914884	0	0	0	0	0	0	0	0	0	0	0	0	0	0	0	0	0
071212	14:15:28	10004	Trial2BackFr	Y	3	57	803	1	70	14:15:28	916217	0	0	0	0	0	0	0	0	0	0	0	0	0	0	0	0	0
071212	14:15:28	10004	Trial2BackFr	N	3	0	1000	1	71	14:15:28	917909	0	0	0	0	0	0	0	0	0	0	0	0	0	0	0	0	0
071212	14:15:28	10004	Trial2BackFr	N	3	0	1000	1	72	14:15:28	919429	0	0	0	0	0	0	0	0	0	0	0	0	0	0	0	0	0
071212	14:15:28	10004	Trial2BackFr	N	3	0	1000	1	73	14:15:28	920948	0	0	0	0	0	0	0	0	0	0	0	0	0	0	0	0	0
071212	14:15:28	10004	Trial2BackFr	N	3	0	1000	1	74	14:15:28	922467	0	0	0	0	0	0	0	0	0	0	0	0	0	0	0	0	0
071212	14:15:28	10004	Trial2BackFr	N	3	0	1000	1	75	14:15:28	923987	0	0	0	0	0	0	0	0	0	0	0	0	0	0	0	0	0
071212	14:15:28	10004	Trial2BackFr	Y	3	0	1000	0	75	14:15:28	925506	0	0	0	0	0	0	0	0	0	0	0	0	0	0	0	0	0
071212	14:15:28	10004	Trial2BackFr	N	3	0	1000	1	76	14:15:28	927026	0	0	0	0	0	0	0	0	0	0	0	0	0	0	0	0	0
071212	14:15:28	10004	Trial2BackFr	N	3	57	853	0	76	14:15:28	928412	0	0	0	0	0	0	0	0	0	0	0	0	0	0	0	0	0
071212	14:15:28	10004	Trial2BackFr	N	3	0	1000	1	77	14:15:28	930051	0	0	0	0	0	0	0	0	0	0	0	0	0	0	0	0	0
071212	14:15:28	10004	Trial2BackFr	N	3	0	1000	1	78	14:15:28	931570	0	0	0	0	0	0	0	0	0	0	0	0	0	0	0	0	0
071212	14:15:28	10004	Trial2BackFr	N	3	0	1000	1	79	14:15:28	933090	0	0	0	0	0	0	0	0	0	0	0	0	0	0	0	0	0
071212	14:15:28	10004	Trial2BackFr	N	3	0	1000	1	80	14:15:28	934609	0	0	0	0	0	0	0	0	0	0	0	0	0	0	0	0	0
071212	14:15:28	10004	Trial2BackFr	N	3	0	1000	1	81	14:15:28	936128	0	0	0	0	0	0	0	0	0	0	0	0	0	0	0	0	0
071212	14:15:28	10004	Trial2BackFr	N	3	0	1000	1	82	14:15:28	937648	0	0	0	0	0	0	0	0	0	0	0	0	0	0	0	0	0
071212	14:15:28	10004	Trial2BackFr	N	3	0	1000	1	83	14:15:28	939167	0	0	0	0	0	0	0	0	0	0	0	0	0	0	0	0	0
071212	14:15:28	10004	Trial2BackFr	Y	3	57	774	1	84	14:15:28	940473	0	0	0	0	0	0	0	0	0	0	0	0	0	0	0	0	0
071212	14:15:28	10004	Trial2BackFr	N	3	0	1000	1	85	14:15:28	942193	0	0	0	0	0	0	0	0	0	0	0	0	0	0	0	0	0
071212	14:15:28	10004	Trial2BackFr	N	3	0	1000	1	86	14:15:28	943712	0	0	0	0	0	0	0	0	0	0	0	0	0	0	0	0	0
071212	14:15:28	10004	Trial2BackFr	N	3	0	1000	1	87	14:15:28	945231	0	0	0	0	0	0	0	0	0	0	0	0	0	0	0	0	0
071212	14:15:28	10004	Trial2BackFr	N	3	0	1000	1	88	14:15:28	946751	0	0	0	0	0	0	0	0	0	0	0	0	0	0	0	0	0
071212	14:15:28	10004	Trial2BackFr	N	3	0	1000	1	89	14:15:28	948270	0	0	0	0	0	0	0	0	0	0	0	0	0	0	0	0	0
071212	14:15:28	10004	Trial2BackFr	N	3	0	1000	1	90	14:15:28	949789	0	0	0	0	0	0	0	0	0	0	0	0	0	0	0	0	0
071212	14:15:28	10004	Trial2BackFr	N	3	0	1000	1	91	14:15:28	951309	0	0	0	0	0	0	0	0	0	0	0	0	0	0	0	0	0
071212	14:15:28	10004	Trial2BackFr	N	3	0	1000	1	92	14:15:28	952828	0	0	0	0	0	0	0	0	0	0	0	0	0	0	0	0	0
071212	14:15:28	10004	Trial2BackFr	Y	3	57	617	1	93	14:15:28	953974	0	0	0	0	0	0	0	0	0	0	0	0	0	0	0	0	0
071212	14:15:28	10004	Trial2BackFr	N	3	0	1000	1	94	14:15:28	955854	0	0	0	0	0	0	0	0	0	0	0	0	0	0	0	0	0
071212	14:15:28	10004	Trial2BackFr	N	3	0	1000	1	95	14:15:28	957373	0	0	0	0	0	0	0	0	0	0	0	0	0	0	0	0	0
071212	14:15:28	10004	Trial2BackFr	N	3	0	1000	1	96	14:15:28	958892	0	0	0	0	0	0	0	0	0	0	0	0	0	0	0	0	0
071212	14:15:28	10004	Trial2BackFr	N	3	0	1000	1	97	14:15:28	960412	0	0	0	0	0	0	0	0	0	0	0	0	0	0	0	0	0
071212	14:15:28	10004	Trial2BackFr	Y	3	0	1000	0	97	14:15:28	961931	0	0	0	0	0	0	0	0	0	0	0	0	0	0	0	0	0
071212	14:15:28	10004	Trial2BackFr	N	3	0	1000	1	98	14:15:28	963450	0	0	0	0	0	0	0	0	0	0	0	0	0	0	0	0	0
071212	14:15:28	10004	Trial2BackFr	N	3	0	1000	1	99	14:15:28	964970	0	0	0	0	0	0	0	0	0	0	0	0	0	0	0	0	0
071212	14:15:28	10004	Trial2BackFr	N	3	0	1000	1	100	14:15:28	966489	0	0	0	0	0	0	0	0	0	0	0	0	0	0	0	0	0
071212	14:15:28	10004	Trial2BackFr	Y	3	57	603	1	101	14:15:28	967622	0	0	0	0	0	0	0	0	0	0	0	0	0	0	0	0	0
071212	14:15:28	10004	Trial2BackFr	N	3	0	1000	1	102	14:15:28	969515	0	0	0	0	0	0	0	0	0	0	0	0	0	0	0	0	0
071212	14:15:28	10004	Trial2BackFr	N	3	0	1000	1	103	14:15:28	971034	0	0	0	0	0	0	0	0	0	0	0	0	0	0	0	0	0
071212	14:15:28	10004	Trial2BackFr	N	3	0	1000	1	104	14:15:28	972553	0	0	0	0	0	0	0	0	0	0	0	0	0	0	0	0	0
071212	14:15:28	10004	Trial2BackFr	N	3	0	1000	1	105	14:15:28	974073	0	0	0	0	0	0	0	0	0	0	0	0	0	0	0	0	0
071212	14:15:28	10004	Trial2BackFr	N	3	0	1000	1	106	14:15:28	975592	0	0	0	0	0	0	0	0	0	0	0	0	0	0	0	0	0
071212	14:15:28	10004	Trial2BackFr	Y	3	57	537	1	107	14:15:28	976658	0	0	0	0	0	0	0	0	0	0	0	0	0	0	0	0	0
071212	14:15:28	10004	Trial2BackFr	N	3	0	1000	1	108	14:15:28	978618	0	0	0	0	0	0	0	0	0	0	0	0	0	0	0	0	0
071212	14:15:28	10004	Trial2BackFr	N	3	0	1000	1	109	14:15:28	980137	0	0	0	0	0	0	0	0	0	0	0	0	0	0	0	0	0
071212	14:15:28	10004	Trial2BackFr	N	3	0	1000	1	110	14:15:28	981656	0	0	0	0	0	0	0	0	0	0	0	0	0	0	0	0	0
071212	14:15:28	10004	Trial2BackFr	Y	3	0	1000	0	110	14:15:28	983175	0	0	0	0	0	0	0	0	0	0	0	0	0	0	0	0	0
071212	14:15:28	10004	Memory1R3moFr	ScoreFr	5	M1	25034	0	110	14:15:28	1057705	0	0	0	0	0	0	0	0	0	0	0	0	0	0	0	0	0
071212	14:15:28	10004	Memory1R3moFr	ScoreFr	5	M2	229	0	110	14:15:28	1057971	0	0	0	0	0	0	0	0	0	0	0	0	0	0	0	0	0
071212	14:15:28	10004	Memory1R3moFr	ScoreFr	5	M7	1802	0	110	14:15:28	1059811	0	0	0	0	0	0	0	0	0	0	0	0	0	0	0	0	0
071212	14:15:28	10004	Memory1R3moFr	ScoreFr	5	M8	211	0	110	14:15:28	1060064	0	0	0	0	0	0	0	0	0	0	0	0	0	0	0	0	0
071212	14:15:28	10004	Memory1R3moFr	ScoreFr	5	Done	846	0	110	14:15:28	1060944	0	0	0	0	0	0	0	0	0	0	0	0	0	0	0	0	0
071212	14:15:28	10004	Memory2R3moFr	ScoreFr2	5	22	15900	0	110	14:15:28	1093836	0	0	0	0	0	0	0	0	0	0	0	0	0	0	0	0	0
071212	14:15:28	10004	Memory2R3moFr	ScoreFr2	5	44	816	0	110	14:15:28	1094690	0	0	0	0	0	0	0	0	0	0	0	0	0	0	0	0	0
071212	14:15:28	10004	Memory2R3moFr	ScoreFr2	5	55	428	0	110	14:15:28	1095156	0	0	0	0	0	0	0	0	0	0	0	0	0	0	0	0	0
071212	14:15:28	10004	Memory2R3moFr	ScoreFr2	5	66	281	0	110	14:15:28	1095476	0	0	0	0	0	0	0	0	0	0	0	0	0	0	0	0	0
071212	14:15:28	10004	Memory2R3moFr	ScoreFr2	5	77	321	0	110	14:15:28	1095836	0	0	0	0	0	0	0	0	0	0	0	0	0	0	0	0	0
071212	14:15:28	10004	Memory2R3moFr	ScoreFr2	5	88	665	0	110	14:15:28	1096542	0	0	0	0	0	0	0	0	0	0	0	0	0	0	0	0	0
071212	14:15:28	10004	Memory2R3moFr	ScoreFr2	5	Done	1894	0	110	14:15:28	1098475	0	0	0	0	0	0	0	0	0	0	0	0	0	0	0	0	0
071212	14:15:28	10004	Memory3R3moFr	ScoreFr3	5	222	27583	0	110	14:15:28	1144136	0	0	0	0	0	0	0	0	0	0	0	0	0	0	0	0	0
071212	14:15:28	10004	Memory3R3moFr	ScoreFr3	5	333	515	0	110	14:15:28	1144696	0	0	0	0	0	0	0	0	0	0	0	0	0	0	0	0	0
071212	14:15:28	10004	Memory3R3moFr	ScoreFr3	5	333	828	0	110	14:15:28	1145562	0	0	0	0	0	0	0	0	0	0	0	0	0	0	0	0	0
071212	14:15:28	10004	Memory3R3moFr	ScoreFr3	5	111	345	0	110	14:15:28	1145948	0	0	0	0	0	0	0	0	0	0	0	0	0	0	0	0	0
071212	14:15:28	10004	Memory3R3moFr	ScoreFr3	5	555	679	0	110	14:15:28	1146668	0	0	0	0	0	0	0	0	0	0	0	0	0	0	0	0	0
071212	14:15:28	10004	Memory3R3moFr	ScoreFr3	5	666	191	0	110	14:15:28	1146895	0	0	0	0	0	0	0	0	0	0	0	0	0	0	0	0	0
071212	14:15:28	10004	Memory3R3moFr	ScoreFr3	5	777	420	0	110	14:15:28	1147361	0	0	0	0	0	0	0	0	0	0	0	0	0	0	0	0	0
071212	14:15:28	10004	Memory3R3moFr	ScoreFr3	5	888	594	0	110	14:15:28	1148001	0	0	0	0	0	0	0	0	0	0	0	0	0	0	0	0	0
071212	14:15:28	10004	Memory3R3moFr	ScoreFr3	5	Done	346	0	110	14:15:28	1148387	0	0	0	0	0	0	0	0	0	0	0	0	0	0	0	0	0
071212	14:15:28	10004	LoriaFrLH3	Stop	6	5	5375	0	110	14:15:28	1240937	0	0	0	0	0	0	0	0	0	0	0	0	0	0	0	0	0
071212	14:15:28	10004	FrTrail	Trails	7	1Trails	599	0	110	14:15:28	1259088	0	0	0	0	0	0	0	0	0	0	0	0	0	0	0	0	0
071212	14:15:28	10004	Serial7Fr3mo	Serial7Fr3mo	8	83	6331	0	110	14:15:28	1283212	1	0	0	0	0	0	0	0	0	0	0	0	0	0	0	0	0
071212	14:15:28	10004	Serial7Fr3mo	Serial7Fr3mo	8	76	3167	0	110	14:15:28	1286398	2	0	0	0	0	0	0	0	0	0	0	0	0	0	0	0	0
071212	14:15:28	10004	Serial7Fr3mo	Serial7Fr3mo	8	69	3349	0	110	14:15:28	1289770	3	0	0	0	0	0	0	0	0	0	0	0	0	0	0	0	0
071212	14:15:28	10004	Serial7Fr3mo	Serial7Fr3mo	8	62	3961	0	110	14:15:28	1293756	4	0	0	0	0	0	0	0	0	0	0	0	0	0	0	0	0
071212	14:15:28	10004	Serial7Fr3mo	Serial7Fr3mo	8	55	5871	0	110	14:15:28	1299647	5	0	0	0	0	0	0	0	0	0	0	0	0	0	0	0	0
071212	14:15:28	10004	corsiblockFrFwrd	recallseqFrFwrd	9	5	1902	0	110	14:15:28	1344575	5	0	0	0	0	0	0	0	0	0	0	0	0	0	0	0	0
071212	14:15:28	10004	corsiblockFrFwrd	recallseqFrFwrd	9	1	855	0	110	14:15:28	1345468	5	0	0	0	0	0	0	0	0	0	0	0	0	0	0	0	0
071212	14:15:28	10004	corsiblockFrFwrd	recallseqFrFwrd	9	doneCorsiFr	867	0	110	14:15:28	1346374	5	0	0	0	0	0	0	0	0	0	0	0	0	0	0	2	0
071212	14:15:28	10004	corsiblockFrFwrd	recallseqFrFwrd	9	3	1530	0	110	14:15:28	1353997	5	0	0	0	0	0	0	0	0	0	0	0	0	0	0	2	0
071212	14:15:28	10004	corsiblockFrFwrd	recallseqFrFwrd	9	4	480	0	110	14:15:28	1354517	5	0	0	0	0	0	0	0	0	0	0	0	0	0	0	2	0
071212	14:15:28	10004	corsiblockFrFwrd	recallseqFrFwrd	9	8	680	0	110	14:15:28	1355237	5	0	0	0	0	0	0	0	0	0	0	0	0	0	0	2	0
071212	14:15:28	10004	corsiblockFrFwrd	recallseqFrFwrd	9	doneCorsiFr	1209	0	110	14:15:28	1356490	5	0	0	0	0	0	0	0	0	0	0	0	0	0	0	3	0
071212	14:15:28	10004	corsiblockFrFwrd	recallseqFrFwrd	9	9	913	0	110	14:15:28	1364487	5	0	0	0	0	0	0	0	0	0	0	0	0	0	0	3	0
071212	14:15:28	10004	corsiblockFrFwrd	recallseqFrFwrd	9	6	839	0	110	14:15:28	1365366	5	0	0	0	0	0	0	0	0	0	0	0	0	0	0	3	0
071212	14:15:28	10004	corsiblockFrFwrd	recallseqFrFwrd	9	7	670	0	110	14:15:28	1366073	5	0	0	0	0	0	0	0	0	0	0	0	0	0	0	3	0
071212	14:15:28	10004	corsiblockFrFwrd	recallseqFrFwrd	9	2	709	0	110	14:15:28	1366819	5	0	0	0	0	0	0	0	0	0	0	0	0	0	0	3	0
071212	14:15:28	10004	corsiblockFrFwrd	recallseqFrFwrd	9	doneCorsiFr	1098	0	110	14:15:28	1367952	5	0	0	0	0	0	0	0	0	0	0	0	0	0	0	4	0
071212	14:15:28	10004	corsiblockFrFwrd	recallseqFrFwrd	9	5	867	0	110	14:15:28	1376908	5	0	0	0	0	0	0	0	0	0	0	0	0	0	0	4	0
071212	14:15:28	10004	corsiblockFrFwrd	recallseqFrFwrd	9	6	521	0	110	14:15:28	1377468	5	0	0	0	0	0	0	0	0	0	0	0	0	0	0	4	0
071212	14:15:28	10004	corsiblockFrFwrd	recallseqFrFwrd	9	8	649	0	110	14:15:28	1378161	5	0	0	0	0	0	0	0	0	0	0	0	0	0	0	4	0
071212	14:15:28	10004	corsiblockFrFwrd	recallseqFrFwrd	9	2	700	0	110	14:15:28	1378894	5	0	0	0	0	0	0	0	0	0	0	0	0	0	0	4	0
071212	14:15:28	10004	corsiblockFrFwrd	recallseqFrFwrd	9	1	575	0	110	14:15:28	1379507	5	0	0	0	0	0	0	0	0	0	0	0	0	0	0	4	0
071212	14:15:28	10004	corsiblockFrFwrd	recallseqFrFwrd	9	doneCorsiFr	1474	0	110	14:15:28	1381026	5	0	0	0	0	0	0	0	0	0	0	0	0	0	0	5	0
071212	14:15:28	10004	corsiblockFrFwrd	recallseqFrFwrd	9	7	785	0	110	14:15:28	1390902	5	0	0	0	0	0	0	0	0	0	0	0	0	0	0	5	0
071212	14:15:28	10004	corsiblockFrFwrd	recallseqFrFwrd	9	2	1990	0	110	14:15:28	1392928	5	0	0	0	0	0	0	0	0	0	0	0	0	0	0	5	0
071212	14:15:28	10004	corsiblockFrFwrd	recallseqFrFwrd	9	4	604	0	110	14:15:28	1393568	5	0	0	0	0	0	0	0	0	0	0	0	0	0	0	5	0
071212	14:15:28	10004	corsiblockFrFwrd	recallseqFrFwrd	9	3	533	0	110	14:15:28	1394141	5	0	0	0	0	0	0	0	0	0	0	0	0	0	0	5	0
071212	14:15:28	10004	corsiblockFrFwrd	recallseqFrFwrd	9	9	600	0	110	14:15:28	1394781	5	0	0	0	0	0	0	0	0	0	0	0	0	0	0	5	0
071212	14:15:28	10004	corsiblockFrFwrd	recallseqFrFwrd	9	7	616	0	110	14:15:28	1395434	5	0	0	0	0	0	0	0	0	0	0	0	0	0	0	5	0
071212	14:15:28	10004	corsiblockFrFwrd	recallseqFrFwrd	9	doneCorsiFr	1067	0	110	14:15:28	1396540	5	0	0	0	0	0	0	0	0	0	0	0	0	0	0	5	0
071212	14:15:28	10004	corsiblockFrFwrd	recallseqFrFwrd	9	1	622	0	110	14:15:28	1406216	5	0	0	0	0	0	0	0	0	0	0	0	0	0	0	5	0
071212	14:15:28	10004	corsiblockFrFwrd	recallseqFrFwrd	9	5	813	0	110	14:15:28	1407069	5	0	0	0	0	0	0	0	0	0	0	0	0	0	0	5	0
071212	14:15:28	10004	corsiblockFrFwrd	recallseqFrFwrd	9	8	703	0	110	14:15:28	1407815	5	0	0	0	0	0	0	0	0	0	0	0	0	0	0	5	0
071212	14:15:28	10004	corsiblockFrFwrd	recallseqFrFwrd	9	4	1245	0	110	14:15:28	1409095	5	0	0	0	0	0	0	0	0	0	0	0	0	0	0	5	0
071212	14:15:28	10004	corsiblockFrFwrd	recallseqFrFwrd	9	2	453	0	110	14:15:28	1409588	5	0	0	0	0	0	0	0	0	0	0	0	0	0	0	5	0
071212	14:15:28	10004	corsiblockFrFwrd	recallseqFrFwrd	9	6	713	0	110	14:15:28	1410334	5	0	0	0	0	0	0	0	0	0	0	0	0	0	0	5	0
071212	14:15:28	10004	corsiblockFrFwrd	recallseqFrFwrd	9	doneCorsiFr	1798	0	110	14:15:28	1412174	5	0	0	0	0	0	0	0	0	0	0	0	0	0	0	5	0
071212	14:15:28	10004	corsiblockFrRev	recallseqFrRev	10	1	876	0	110	14:15:28	1422943	5	0	0	0	0	0	0	0	0	0	0	0	0	0	0	5	0
071212	14:15:28	10004	corsiblockFrRev	recallseqFrRev	10	3	517	0	110	14:15:28	1423502	5	0	0	0	0	0	0	0	0	0	0	0	0	0	0	5	0
071212	14:15:28	10004	corsiblockFrRev	recallseqFrRev	10	doneCorsiFr	1045	0	110	14:15:28	1424582	5	0	0	0	0	0	0	0	0	0	0	0	0	0	0	5	2
071212	14:15:28	10004	corsiblockFrRev	recallseqFrRev	10	5	739	0	110	14:15:28	1431406	5	0	0	0	0	0	0	0	0	0	0	0	0	0	0	5	2
071212	14:15:28	10004	corsiblockFrRev	recallseqFrRev	10	2	574	0	110	14:15:28	1432019	5	0	0	0	0	0	0	0	0	0	0	0	0	0	0	5	2
071212	14:15:28	10004	corsiblockFrRev	recallseqFrRev	10	4	649	0	110	14:15:28	1432712	5	0	0	0	0	0	0	0	0	0	0	0	0	0	0	5	2
071212	14:15:28	10004	corsiblockFrRev	recallseqFrRev	10	doneCorsiFr	988	0	110	14:15:28	1433738	5	0	0	0	0	0	0	0	0	0	0	0	0	0	0	5	3
071212	14:15:28	10004	corsiblockFrRev	recallseqFrRev	10	9	670	0	110	14:15:28	1441495	5	0	0	0	0	0	0	0	0	0	0	0	0	0	0	5	3
071212	14:15:28	10004	corsiblockFrRev	recallseqFrRev	10	6	724	0	110	14:15:28	1442255	5	0	0	0	0	0	0	0	0	0	0	0	0	0	0	5	3
071212	14:15:28	10004	corsiblockFrRev	recallseqFrRev	10	8	581	0	110	14:15:28	1442881	5	0	0	0	0	0	0	0	0	0	0	0	0	0	0	5	3
071212	14:15:28	10004	corsiblockFrRev	recallseqFrRev	10	7	554	0	110	14:15:28	1443481	5	0	0	0	0	0	0	0	0	0	0	0	0	0	0	5	3
071212	14:15:28	10004	corsiblockFrRev	recallseqFrRev	10	doneCorsiFr	962	0	110	14:15:28	1444480	5	0	0	0	0	0	0	0	0	0	0	0	0	0	0	5	4
071212	14:15:28	10004	corsiblockFrRev	recallseqFrRev	10	9	632	0	110	14:15:28	1453197	5	0	0	0	0	0	0	0	0	0	0	0	0	0	0	5	4
071212	14:15:28	10004	corsiblockFrRev	recallseqFrRev	10	8	758	0	110	14:15:28	1453996	5	0	0	0	0	0	0	0	0	0	0	0	0	0	0	5	4
071212	14:15:28	10004	corsiblockFrRev	recallseqFrRev	10	7	503	0	110	14:15:28	1454543	5	0	0	0	0	0	0	0	0	0	0	0	0	0	0	5	4
071212	14:15:28	10004	corsiblockFrRev	recallseqFrRev	10	5	572	0	110	14:15:28	1455156	5	0	0	0	0	0	0	0	0	0	0	0	0	0	0	5	4
071212	14:15:28	10004	corsiblockFrRev	recallseqFrRev	10	4	687	0	110	14:15:28	1455875	5	0	0	0	0	0	0	0	0	0	0	0	0	0	0	5	4
071212	14:15:28	10004	corsiblockFrRev	recallseqFrRev	10	doneCorsiFr	999	0	110	14:15:28	1456915	5	0	0	0	0	0	0	0	0	0	0	0	0	0	0	5	4
071212	14:15:28	10004	corsiblockFrRev	recallseqFrRev	10	5	636	0	110	14:15:28	1465605	5	0	0	0	0	0	0	0	0	0	0	0	0	0	0	5	4
071212	14:15:28	10004	corsiblockFrRev	recallseqFrRev	10	6	589	0	110	14:15:28	1466231	5	0	0	0	0	0	0	0	0	0	0	0	0	0	0	5	4
071212	14:15:28	10004	corsiblockFrRev	recallseqFrRev	10	3	427	0	110	14:15:28	1466698	5	0	0	0	0	0	0	0	0	0	0	0	0	0	0	5	4
071212	14:15:28	10004	corsiblockFrRev	recallseqFrRev	10	1	440	0	110	14:15:28	1467178	5	0	0	0	0	0	0	0	0	0	0	0	0	0	0	5	4
071212	14:15:28	10004	corsiblockFrRev	recallseqFrRev	10	2	905	0	110	14:15:28	1468124	5	0	0	0	0	0	0	0	0	0	0	0	0	0	0	5	4
071212	14:15:28	10004	corsiblockFrRev	recallseqFrRev	10	doneCorsiFr	854	0	110	14:15:28	1469017	5	0	0	0	0	0	0	0	0	0	0	0	0	0	0	5	5
071212	14:15:28	10004	corsiblockFrRev	recallseqFrRev	10	6	647	0	110	14:15:28	1477760	5	0	0	0	0	0	0	0	0	0	0	0	0	0	0	5	5
071212	14:15:28	10004	corsiblockFrRev	recallseqFrRev	10	3	609	0	110	14:15:28	1478413	5	0	0	0	0	0	0	0	0	0	0	0	0	0	0	5	5
071212	14:15:28	10004	corsiblockFrRev	recallseqFrRev	10	8	765	0	110	14:15:28	1479213	5	0	0	0	0	0	0	0	0	0	0	0	0	0	0	5	5
071212	14:15:28	10004	corsiblockFrRev	recallseqFrRev	10	1	717	0	110	14:15:28	1479972	5	0	0	0	0	0	0	0	0	0	0	0	0	0	0	5	5
071212	14:15:28	10004	corsiblockFrRev	recallseqFrRev	10	6	822	0	110	14:15:28	1480838	5	0	0	0	0	0	0	0	0	0	0	0	0	0	0	5	5
071212	14:15:28	10004	corsiblockFrRev	recallseqFrRev	10	2	675	0	110	14:15:28	1481558	5	0	0	0	0	0	0	0	0	0	0	0	0	0	0	5	5
071212	14:15:28	10004	corsiblockFrRev	recallseqFrRev	10	doneCorsiFr	915	0	110	14:15:28	1482518	5	0	0	0	0	0	0	0	0	0	0	0	0	0	0	5	5
071212	14:15:28	10004	corsiblockFrRev	recallseqFrRev	10	9	2145	0	110	14:15:28	1493713	5	0	0	0	0	0	0	0	0	0	0	0	0	0	0	5	5
071212	14:15:28	10004	corsiblockFrRev	recallseqFrRev	10	6	592	0	110	14:15:28	1494340	5	0	0	0	0	0	0	0	0	0	0	0	0	0	0	5	5
071212	14:15:28	10004	corsiblockFrRev	recallseqFrRev	10	7	622	0	110	14:15:28	1495006	5	0	0	0	0	0	0	0	0	0	0	0	0	0	0	5	5
071212	14:15:28	10004	corsiblockFrRev	recallseqFrRev	10	1	691	0	110	14:15:28	1495739	5	0	0	0	0	0	0	0	0	0	0	0	0	0	0	5	5
071212	14:15:28	10004	corsiblockFrRev	recallseqFrRev	10	2	1062	0	110	14:15:28	1496845	5	0	0	0	0	0	0	0	0	0	0	0	0	0	0	5	5
071212	14:15:28	10004	corsiblockFrRev	recallseqFrRev	10	4	2988	0	110	14:15:28	1499870	5	0	0	0	0	0	0	0	0	0	0	0	0	0	0	5	5
071212	14:15:28	10004	corsiblockFrRev	recallseqFrRev	10	doneCorsiFr	850	0	110	14:15:28	1500764	5	0	0	0	0	0	0	0	0	0	0	0	0	0	0	5	5
071212	14:15:28	10004	testFr3mo	WordsFr3mo	11	1Fr3mo	1838	0	110	14:15:28	1541920	5	1	0	0	0	0	0	0	0	0	0	0	0	0	0	5	5
071212	14:15:28	10004	testFr3mo	WordsFr3mo	11	5Fr3mo	1520	0	110	14:15:28	1543479	5	1	0	0	0	1	0	0	0	0	0	0	0	0	0	5	5
071212	14:15:28	10004	testFr3mo	WordsFr3mo	11	6Fr3mo	201	0	110	14:15:28	1543719	5	1	0	0	0	1	1	0	0	0	0	0	0	0	0	5	5
071212	14:15:28	10004	testFr3mo	WordsFr3mo	11	7Fr3mo	241	0	110	14:15:28	1543999	5	1	0	0	0	1	1	1	0	0	0	0	0	0	0	5	5
071212	14:15:28	10004	testFr3mo	WordsFr3mo	11	8Fr3mo	296	0	110	14:15:28	1544333	5	1	0	0	0	1	1	1	1	0	0	0	0	0	0	5	5
071212	14:15:28	10004	testFr3mo	WordsFr3mo	11	DoneFr3mo	2452	0	110	14:15:28	1546825	5	1	0	0	0	1	1	1	1	0	0	0	0	0	0	5	5
071212	14:15:28	10004	testFr3mo	Cat2Fr3mo	11	W2Fr3mo	12086	0	110	14:15:28	1558952	5	1	0	0	0	1	1	1	1	0	0	0	0	0	0	5	5
071212	14:15:28	10004	testFr3mo	Ch2Fr3mo	11	WW2Fr3mo	5535	0	110	14:15:28	1564524	5	1	0	0	0	1	1	1	1	0	0	0	0	0	0	5	5
071212	14:15:28	10004	testFr3mo	Cat3Fr3mo	11	0	1	0	110	14:15:28	1564540	5	1	0	0	0	1	1	1	1	0	0	0	0	0	0	5	5
071212	14:15:28	10004	testFr3mo	Ch3Fr3mo	11	WW3Fr3mo	18134	0	110	14:15:28	1582716	5	1	0	0	0	1	1	1	1	0	0	0	0	0	0	5	5
071212	14:15:28	10004	testFr3mo	Cat4Fr3mo	11	R4Fr3mo	6979	0	110	14:15:28	1589740	5	1	0	0	2	1	1	1	1	0	0	0	0	0	0	5	5
071212	14:15:28	10004	DigitSpanFwrdFr3mo	Score1FwrdFr3mo	12	DS1	5215	0	110	14:15:28	1611731	5	1	0	0	2	1	1	1	1	0	0	0	0	0	0	5	5
071212	14:15:28	10004	DigitSpanFwrdFr3mo	Gate1FwrdFr3mo	12	0	1	0	110	14:15:28	1611746	5	1	0	0	2	1	1	1	1	3	0	0	0	0	0	5	5
071212	14:15:28	10004	DigitSpanFwrdFr3mo	Score2FwrdFr3mo	12	DS1	4296	0	110	14:15:28	1621753	5	1	0	0	2	1	1	1	1	3	0	0	0	0	0	5	5
071212	14:15:28	10004	DigitSpanFwrdFr3mo	Gate3FwrdFr3mo	12	0	1	0	110	14:15:28	1621768	5	1	0	0	2	1	1	1	1	4	0	0	0	0	0	5	5
071212	14:15:28	10004	DigitSpanFwrdFr3mo	Score3FwrdFr3mo	12	DS1	5541	0	110	14:15:28	1634561	5	1	0	0	2	1	1	1	1	4	0	0	0	0	0	5	5
071212	14:15:28	10004	DigitSpanFwrdFr3mo	Gate5FwrdFr3mo	12	0	1	0	110	14:15:28	1634576	5	1	0	0	2	1	1	1	1	5	0	0	0	0	0	5	5
071212	14:15:28	10004	DigitSpanFwrdFr3mo	Score4FwrdFr3mo	12	DS2	13305	0	110	14:15:28	1656432	5	1	0	0	2	1	1	1	1	5	0	0	0	0	0	5	5
071212	14:15:28	10004	DigitSpanFwrdFr3mo	Gate7FwrdFr3mo	12	0	1	0	110	14:15:28	1656447	5	1	0	0	2	1	1	1	1	5	0	0	0	0	0	5	5
071212	14:15:28	10004	DigitSpanFwrdFr3mo	Score44FwrdFr3mo	12	DS1	6599	0	110	14:15:28	1671386	5	1	0	0	2	1	1	1	1	5	0	0	0	0	0	5	5
071212	14:15:28	10004	DigitSpanFwrdFr3mo	Gate8FwrdFr3mo	12	0	1	0	110	14:15:28	1671401	5	1	0	0	2	1	1	1	1	6	0	0	0	0	0	5	5
071212	14:15:28	10004	DigitSpanFwrdFr3mo	Score5FwrdFr3mo	12	DS1	6327	0	110	14:15:28	1689818	5	1	0	0	2	1	1	1	1	6	0	0	0	0	0	5	5
071212	14:15:28	10004	DigitSpanFwrdFr3mo	Gate9FwrdFr3mo	12	0	1	0	110	14:15:28	1689834	5	1	0	0	2	1	1	1	1	7	0	0	0	0	0	5	5
071212	14:15:28	10004	DigitSpanFwrdFr3mo	Score6FwrdFr3mo	12	DS2	9840	0	110	14:15:28	1711542	5	1	0	0	2	1	1	1	1	7	0	0	0	0	0	5	5
071212	14:15:28	10004	DigitSpanFwrdFr3mo	Gate11FwrdFr3mo	12	0	1	0	110	14:15:28	1711558	5	1	0	0	2	1	1	1	1	7	0	0	0	0	0	5	5
071212	14:15:28	10004	DigitSpanFwrdFr3mo	Score66FwrdFr3mo	12	DS2	6275	0	110	14:15:28	1729588	5	1	0	0	2	1	1	1	1	7	0	0	0	0	0	5	5
071212	14:15:28	10004	DigitSpanFr3mo	Score1Fr3mo	13	DS1	2915	0	110	14:15:28	1741077	5	1	0	0	2	1	1	1	1	7	0	0	0	0	0	5	5
071212	14:15:28	10004	DigitSpanFr3mo	Gate1Fr3mo	13	0	1	0	110	14:15:28	1741093	5	1	0	0	2	1	1	1	1	7	2	0	0	0	0	5	5
071212	14:15:28	10004	DigitSpanFr3mo	Score2Fr3mo	13	DS1	4647	0	110	14:15:28	1750313	5	1	0	0	2	1	1	1	1	7	2	0	0	0	0	5	5
071212	14:15:28	10004	DigitSpanFr3mo	Gate3Fr3mo	13	0	1	0	110	14:15:28	1750328	5	1	0	0	2	1	1	1	1	7	3	0	0	0	0	5	5
071212	14:15:28	10004	DigitSpanFr3mo	Score3Fr3mo	13	DS1	7429	0	110	14:15:28	1763468	5	1	0	0	2	1	1	1	1	7	3	0	0	0	0	5	5
071212	14:15:28	10004	DigitSpanFr3mo	Gate5Fr3mo	13	0	1	0	110	14:15:28	1763483	5	1	0	0	2	1	1	1	1	7	4	0	0	0	0	5	5
071212	14:15:28	10004	DigitSpanFr3mo	Score4Fr3mo	13	DS2	7992	0	110	14:15:28	1778728	5	1	0	0	2	1	1	1	1	7	4	0	0	0	0	5	5
071212	14:15:28	10004	DigitSpanFr3mo	Gate7Fr3mo	13	0	1	0	110	14:15:28	1778743	5	1	0	0	2	1	1	1	1	7	4	0	0	0	0	5	5
071212	14:15:28	10004	DigitSpanFr3mo	Score44Fr3mo	13	DS2	11144	0	110	14:15:28	1797093	5	1	0	0	2	1	1	1	1	7	4	0	0	0	0	5	5
071212	14:15:28	10004	Trial	IncongruentRight	14	205	688	1	110	14:15:28	1827894	5	1	0	0	2	1	1	1	1	7	4	0	0	0	0	5	5
071212	14:15:28	10004	Trial	IncongruentLeft	14	203	536	1	110	14:15:28	1828747	5	1	0	0	2	1	1	1	1	7	4	0	0	0	0	5	5
071212	14:15:28	10004	Trial	CongruentRight	14	205	400	1	110	14:15:28	1829613	5	1	0	0	2	1	1	1	1	7	4	0	0	0	0	5	5
071212	14:15:28	10004	Trial	IncongruentRight	14	205	555	1	110	14:15:28	1830773	5	1	0	0	2	1	1	1	1	7	4	0	0	0	0	5	5
071212	14:15:28	10004	Trial	CongruentLeft	14	203	452	1	110	14:15:28	1831679	5	1	0	0	2	1	1	1	1	7	4	0	0	0	0	5	5
071212	14:15:28	10004	Trial	CongruentRight	14	205	364	1	110	14:15:28	1832586	5	1	0	0	2	1	1	1	1	7	4	0	0	0	0	5	5
071212	14:15:28	10004	Trial	IncongruentRight	14	205	469	1	110	14:15:28	1833692	5	1	0	0	2	1	1	1	1	7	4	0	0	0	0	5	5
071212	14:15:28	10004	Trial	CongruentLeft	14	203	445	1	110	14:15:28	1834664	5	1	0	0	2	1	1	1	1	7	4	0	0	0	0	5	5
071212	14:15:28	10004	Trial	IncongruentLeft	14	203	581	1	110	14:15:28	1835798	5	1	0	0	2	1	1	1	1	7	4	0	0	0	0	5	5
071212	14:15:28	10004	Trial	IncongruentLeft	14	203	526	1	110	14:15:28	1836744	5	1	0	0	2	1	1	1	1	7	4	0	0	0	0	5	5
071212	14:15:28	10004	Trial	CongruentRight	14	205	486	1	110	14:15:28	1837703	5	1	0	0	2	1	1	1	1	7	4	0	0	0	0	5	5
071212	14:15:28	10004	Trial	IncongruentRight	14	205	542	1	110	14:15:28	1838756	5	1	0	0	2	1	1	1	1	7	4	0	0	0	0	5	5
071212	14:15:28	10004	Trial	CongruentLeft	14	203	583	1	110	14:15:28	1839796	5	1	0	0	2	1	1	1	1	7	4	0	0	0	0	5	5
071212	14:15:28	10004	Trial	CongruentRight	14	205	543	1	110	14:15:28	1840755	5	1	0	0	2	1	1	1	1	7	4	0	0	0	0	5	5
071212	14:15:28	10004	Trial	IncongruentLeft	14	203	520	1	110	14:15:28	1841742	5	1	0	0	2	1	1	1	1	7	4	0	0	0	0	5	5
071212	14:15:28	10004	Trial	IncongruentRight	14	205	512	1	110	14:15:28	1842728	5	1	0	0	2	1	1	1	1	7	4	0	0	0	0	5	5
071212	14:15:28	10004	Trial	CongruentRight	14	205	472	1	110	14:15:28	1843688	5	1	0	0	2	1	1	1	1	7	4	0	0	0	0	5	5
071212	14:15:28	10004	Trial	CongruentLeft	14	203	465	1	110	14:15:28	1844687	5	1	0	0	2	1	1	1	1	7	4	0	0	0	0	5	5
071212	14:15:28	10004	Trial	CongruentRight	14	205	425	1	110	14:15:28	1845647	5	1	0	0	2	1	1	1	1	7	4	0	0	0	0	5	5
071212	14:15:28	10004	Trial	IncongruentRight	14	205	385	1	110	14:15:28	1846606	5	1	0	0	2	1	1	1	1	7	4	0	0	0	0	5	5
071212	14:15:28	10004	Trial	IncongruentLeft	14	203	490	1	110	14:15:28	1847699	5	1	0	0	2	1	1	1	1	7	4	0	0	0	0	5	5
071212	14:15:28	10004	Trial	IncongruentLeft	14	203	530	1	110	14:15:28	1848739	5	1	0	0	2	1	1	1	1	7	4	0	0	0	0	5	5
071212	14:15:28	10004	Trial	CongruentLeft	14	203	459	1	110	14:15:28	1849672	5	1	0	0	2	1	1	1	1	7	4	0	0	0	0	5	5
071212	14:15:28	10004	Trial	CongruentRight	14	205	451	1	110	14:15:28	1850671	5	1	0	0	2	1	1	1	1	7	4	0	0	0	0	5	5
071212	14:15:28	10004	Trial	IncongruentLeft	14	203	460	1	110	14:15:28	1851671	5	1	0	0	2	1	1	1	1	7	4	0	0	0	0	5	5
071212	14:15:28	10004	Trial	IncongruentRight	14	205	452	1	110	14:15:28	1852671	5	1	0	0	2	1	1	1	1	7	4	0	0	0	0	5	5
071212	14:15:28	10004	Trial	CongruentRight	14	205	492	1	110	14:15:28	1853710	5	1	0	0	2	1	1	1	1	7	4	0	0	0	0	5	5
071212	14:15:28	10004	Trial	CongruentLeft	14	203	469	1	110	14:15:28	1854683	5	1	0	0	2	1	1	1	1	7	4	0	0	0	0	5	5
071212	14:15:28	10004	Trial	IncongruentRight	14	205	397	1	110	14:15:28	1855603	5	1	0	0	2	1	1	1	1	7	4	0	0	0	0	5	5
071212	14:15:28	10004	Trial	IncongruentLeft	14	203	421	1	110	14:15:28	1856629	5	1	0	0	2	1	1	1	1	7	4	0	0	0	0	5	5
071212	14:15:28	10004	Trial	IncongruentRight	14	205	382	1	110	14:15:28	1857588	5	1	0	0	2	1	1	1	1	7	4	0	0	0	0	5	5
071212	14:15:28	10004	Trial	CongruentRight	14	205	438	1	110	14:15:28	1858655	5	1	0	0	2	1	1	1	1	7	4	0	0	0	0	5	5
071212	14:15:28	10004	Trial	IncongruentLeft	14	203	447	1	110	14:15:28	1859654	5	1	0	0	2	1	1	1	1	7	4	0	0	0	0	5	5
071212	14:15:28	10004	Trial	CongruentLeft	14	203	439	1	110	14:15:28	1860654	5	1	0	0	2	1	1	1	1	7	4	0	0	0	0	5	5
071212	14:15:28	10004	Trial	CongruentRight	14	205	418	1	110	14:15:28	1861640	5	1	0	0	2	1	1	1	1	7	4	0	0	0	0	5	5
071212	14:15:28	10004	Trial	IncongruentLeft	14	203	458	1	110	14:15:28	1862680	5	1	0	0	2	1	1	1	1	7	4	0	0	0	0	5	5
071212	14:15:28	10004	Trial	IncongruentRight	14	205	403	1	110	14:15:28	1863626	5	1	0	0	2	1	1	1	1	7	4	0	0	0	0	5	5
071212	14:15:28	10004	Trial	IncongruentRight	14	205	379	1	110	14:15:28	1864599	5	1	0	0	2	1	1	1	1	7	4	0	0	0	0	5	5
071212	14:15:28	10004	Trial	CongruentLeft	14	203	436	1	110	14:15:28	1865652	5	1	0	0	2	1	1	1	1	7	4	0	0	0	0	5	5
071212	14:15:28	10004	Trial	IncongruentLeft	14	203	540	1	110	14:15:28	1866758	5	1	0	0	2	1	1	1	1	7	4	0	0	0	0	5	5
071212	14:15:28	10004	Trial	CongruentRight	14	205	532	1	110	14:15:28	1867758	5	1	0	0	2	1	1	1	1	7	4	0	0	0	0	5	5
071212	14:15:28	10004	Trial	CongruentLeft	14	203	412	1	110	14:15:28	1868637	5	1	0	0	2	1	1	1	1	7	4	0	0	0	0	5	5
071212	14:15:28	10004	Trial	IncongruentRight	14	205	421	1	110	14:15:28	1869637	5	1	0	0	2	1	1	1	1	7	4	0	0	0	0	5	5
071212	14:15:28	10004	Trial	CongruentRight	14	205	397	1	110	14:15:28	1870610	5	1	0	0	2	1	1	1	1	7	4	0	0	0	0	5	5
071212	14:15:28	10004	Trial	IncongruentLeft	14	203	454	1	110	14:15:28	1871676	5	1	0	0	2	1	1	1	1	7	4	0	0	0	0	5	5
071212	14:15:28	10004	Trial	CongruentLeft	14	203	432	1	110	14:15:28	1872649	5	1	0	0	2	1	1	1	1	7	4	0	0	0	0	5	5
071212	14:15:28	10004	Trial	IncongruentLeft	14	203	551	1	110	14:15:28	1873768	5	1	0	0	2	1	1	1	1	7	4	0	0	0	0	5	5
071212	14:15:28	10004	Trial	IncongruentRight	14	205	496	1	110	14:15:28	1874715	5	1	0	0	2	1	1	1	1	7	4	0	0	0	0	5	5
071212	14:15:28	10004	Trial	CongruentRight	14	205	439	1	110	14:15:28	1875661	5	1	0	0	2	1	1	1	1	7	4	0	0	0	0	5	5
071212	14:15:28	10004	Trial	CongruentLeft	14	203	432	1	110	14:15:28	1876647	5	1	0	0	2	1	1	1	1	7	4	0	0	0	0	5	5
071212	14:15:28	10004	Trial	CongruentLeft	14	203	408	1	110	14:15:28	1877620	5	1	0	0	2	1	1	1	1	7	4	0	0	0	0	5	5
071212	14:15:28	10004	Trial	IncongruentRight	14	205	385	1	110	14:15:28	1878606	5	1	0	0	2	1	1	1	1	7	4	0	0	0	0	5	5
071212	14:15:28	10004	Trial	IncongruentLeft	14	203	441	1	110	14:15:28	1879659	5	1	0	0	2	1	1	1	1	7	4	0	0	0	0	5	5
071212	14:15:28	10004	Trial	IncongruentRight	14	205	353	1	110	14:15:28	1880566	5	1	0	0	2	1	1	1	1	7	4	0	0	0	0	5	5
071212	14:15:28	10004	Trial	CongruentRight	14	205	394	1	110	14:15:28	1881605	5	1	0	0	2	1	1	1	1	7	4	0	0	0	0	5	5
071212	14:15:28	10004	Trial	CongruentRight	14	205	402	1	110	14:15:28	1882618	5	1	0	0	2	1	1	1	1	7	4	0	0	0	0	5	5
071212	14:15:28	10004	Trial	IncongruentLeft	14	203	411	1	110	14:15:28	1883617	5	1	0	0	2	1	1	1	1	7	4	0	0	0	0	5	5
071212	14:15:28	10004	Trial	CongruentLeft	14	203	435	1	110	14:15:28	1884644	5	1	0	0	2	1	1	1	1	7	4	0	0	0	0	5	5
071212	14:15:28	10004	Trial	CongruentRight	14	205	459	1	110	14:15:28	1885670	5	1	0	0	2	1	1	1	1	7	4	0	0	0	0	5	5
071212	14:15:28	10004	Trial	CongruentLeft	14	203	451	1	110	14:15:28	1886670	5	1	0	0	2	1	1	1	1	7	4	0	0	0	0	5	5
071212	14:15:28	10004	Trial	IncongruentRight	14	205	428	1	110	14:15:28	1887643	5	1	0	0	2	1	1	1	1	7	4	0	0	0	0	5	5
071212	14:15:28	10004	Trial	CongruentRight	14	205	356	1	110	14:15:28	1888562	5	1	0	0	2	1	1	1	1	7	4	0	0	0	0	5	5
071212	14:15:28	10004	Trial	CongruentLeft	14	203	460	1	110	14:15:28	1889669	5	1	0	0	2	1	1	1	1	7	4	0	0	0	0	5	5
071212	14:15:28	10004	Trial	IncongruentLeft	14	203	453	1	110	14:15:28	1890668	5	1	0	0	2	1	1	1	1	7	4	0	0	0	0	5	5
071212	14:15:28	10004	Trial	IncongruentLeft	14	203	477	1	110	14:15:28	1891681	5	1	0	0	2	1	1	1	1	7	4	0	0	0	0	5	5
071212	14:15:28	10004	Trial	CongruentRight	14	205	425	1	110	14:15:28	1892654	5	1	0	0	2	1	1	1	1	7	4	0	0	0	0	5	5
071212	14:15:28	10004	Trial	IncongruentRight	14	205	593	1	110	14:15:28	1893813	5	1	0	0	2	1	1	1	1	7	4	0	0	0	0	5	5
071212	14:15:28	10004	Trial	CongruentLeft	14	203	505	1	110	14:15:28	1894733	5	1	0	0	2	1	1	1	1	7	4	0	0	0	0	5	5
071212	14:15:28	10004	Trial	IncongruentRight	14	205	465	1	110	14:15:28	1895693	5	1	0	0	2	1	1	1	1	7	4	0	0	0	0	5	5
071212	14:15:28	10004	Trial	CongruentRight	14	205	474	1	110	14:15:28	1896692	5	1	0	0	2	1	1	1	1	7	4	0	0	0	0	5	5
071212	14:15:28	10004	Trial	IncongruentLeft	14	203	418	1	110	14:15:28	1897638	5	1	0	0	2	1	1	1	1	7	4	0	0	0	0	5	5
071212	14:15:28	10004	Trial	CongruentLeft	14	0	737	0	110	14:15:28	1898945	5	1	0	0	2	1	1	1	1	7	4	0	0	0	0	5	5
071212	14:15:28	10004	Trial	CongruentRight	14	205	531	1	110	14:15:28	1899758	5	1	0	0	2	1	1	1	1	7	4	0	0	0	0	5	5
071212	14:15:28	10004	Trial	IncongruentLeft	14	203	444	1	110	14:15:28	1900664	5	1	0	0	2	1	1	1	1	7	4	0	0	0	0	5	5
071212	14:15:28	10004	Trial	CongruentRight	14	205	438	1	110	14:15:28	1901677	5	1	0	0	2	1	1	1	1	7	4	0	0	0	0	5	5
071212	14:15:28	10004	Trial	CongruentRight	14	205	431	1	110	14:15:28	1902663	5	1	0	0	2	1	1	1	1	7	4	0	0	0	0	5	5
071212	14:15:28	10004	Trial	IncongruentRight	14	205	615	1	110	14:15:28	1903849	5	1	0	0	2	1	1	1	1	7	4	0	0	0	0	5	5
071212	14:15:28	10004	Trial	CongruentLeft	14	203	624	1	110	14:15:28	1904849	5	1	0	0	2	1	1	1	1	7	4	0	0	0	0	5	5
071212	14:15:28	10004	Trial	IncongruentLeft	14	203	616	1	110	14:15:28	1905848	5	1	0	0	2	1	1	1	1	7	4	0	0	0	0	5	5
071212	14:15:28	10004	Trial	CongruentLeft	14	203	544	1	110	14:15:28	1906781	5	1	0	0	2	1	1	1	1	7	4	0	0	0	0	5	5
071212	14:15:28	10004	Trial	IncongruentRight	14	205	489	1	110	14:15:28	1907714	5	1	0	0	2	1	1	1	1	7	4	0	0	0	0	5	5
071212	14:15:28	10004	Trial	IncongruentLeft	14	203	481	1	110	14:15:28	1908714	5	1	0	0	2	1	1	1	1	7	4	0	0	0	0	5	5
071212	14:15:28	10004	Trial	CongruentRight	14	205	505	1	110	14:15:28	1909740	5	1	0	0	2	1	1	1	1	7	4	0	0	0	0	5	5
071212	14:15:28	10004	Trial	CongruentLeft	14	203	466	1	110	14:15:28	1910700	5	1	0	0	2	1	1	1	1	7	4	0	0	0	0	5	5
071212	14:15:28	10004	Trial	IncongruentLeft	14	203	544	1	110	14:15:28	1911779	5	1	0	0	2	1	1	1	1	7	4	0	0	0	0	5	5
071212	14:15:28	10004	Trial	CongruentLeft	14	203	515	1	110	14:15:28	1912739	5	1	0	0	2	1	1	1	1	7	4	0	0	0	0	5	5
071212	14:15:28	10004	Trial	IncongruentRight	14	205	459	1	110	14:15:28	1913685	5	1	0	0	2	1	1	1	1	7	4	0	0	0	0	5	5
071212	14:15:28	10004	Trial	CongruentRight	14	205	372	1	110	14:15:28	1914605	5	1	0	0	2	1	1	1	1	7	4	0	0	0	0	5	5
071212	14:15:28	10004	Trial	IncongruentLeft	14	203	460	1	110	14:15:28	1915685	5	1	0	0	2	1	1	1	1	7	4	0	0	0	0	5	5
071212	14:15:28	10004	Trial	CongruentLeft	14	203	420	1	110	14:15:28	1916644	5	1	0	0	2	1	1	1	1	7	4	0	0	0	0	5	5
071212	14:15:28	10004	Trial	IncongruentRight	14	205	412	1	110	14:15:28	1917644	5	1	0	0	2	1	1	1	1	7	4	0	0	0	0	5	5
071212	14:15:28	10004	Trial	IncongruentLeft	14	203	469	1	110	14:15:28	1918697	5	1	0	0	2	1	1	1	1	7	4	0	0	0	0	5	5
071212	14:15:28	10004	Trial	CongruentLeft	14	203	525	1	110	14:15:28	1919749	5	1	0	0	2	1	1	1	1	7	4	0	0	0	0	5	5
071212	14:15:28	10004	Trial	IncongruentLeft	14	203	518	1	110	14:15:28	1920749	5	1	0	0	2	1	1	1	1	7	4	0	0	0	0	5	5
071212	14:15:28	10004	Trial	CongruentRight	14	205	510	1	110	14:15:28	1921735	5	1	0	0	2	1	1	1	1	7	4	0	0	0	0	5	5
071212	14:15:28	10004	Trial	CongruentLeft	14	203	473	1	110	14:15:28	1922708	5	1	0	0	2	1	1	1	1	7	4	0	0	0	0	5	5
071212	14:15:28	10004	Trial	IncongruentRight	14	205	511	1	110	14:15:28	1923734	5	1	0	0	2	1	1	1	1	7	4	0	0	0	0	5	5
071212	14:15:28	10004	Trial	CongruentLeft	14	203	503	1	110	14:15:28	1924721	5	1	0	0	2	1	1	1	1	7	4	0	0	0	0	5	5
071212	14:15:28	10004	Trial	CongruentRight	14	205	448	1	110	14:15:28	1925667	5	1	0	0	2	1	1	1	1	7	4	0	0	0	0	5	5
071212	14:15:28	10004	Trial	IncongruentLeft	14	203	472	1	110	14:15:28	1926693	5	1	0	0	2	1	1	1	1	7	4	0	0	0	0	5	5
071212	14:15:28	10004	Trial750Fr	IncongruentRight750	15	0	487	0	110	14:15:28	1933797	5	1	0	0	2	1	1	1	1	7	4	0	0	0	0	5	5
071212	14:15:28	10004	Trial750Fr	IncongruentLeft750	15	0	487	0	110	14:15:28	1934557	5	1	0	0	2	1	1	1	1	7	4	0	0	0	0	5	5
071212	14:15:28	10004	Trial750Fr	CongruentRight750	15	205	406	1	110	14:15:28	1935236	5	1	0	0	2	1	1	1	1	7	4	0	0	0	0	5	5
071212	14:15:28	10004	Trial750Fr	IncongruentRight750	15	0	487	0	110	14:15:28	1936063	5	1	0	0	2	1	1	1	1	7	4	0	0	0	0	5	5
071212	14:15:28	10004	Trial750Fr	CongruentLeft750	15	203	420	1	110	14:15:28	1936756	5	1	0	0	2	1	1	1	1	7	4	0	0	0	0	5	5
071212	14:15:28	10004	Trial750Fr	CongruentRight750	15	205	364	1	110	14:15:28	1937462	5	1	0	0	2	1	1	1	1	7	4	0	0	0	0	5	5
071212	14:15:28	10004	Trial750Fr	IncongruentRight750	15	205	466	1	110	14:15:28	1938316	5	1	0	0	2	1	1	1	1	7	4	0	0	0	0	5	5
071212	14:15:28	10004	Trial750Fr	CongruentLeft750	15	0	487	0	110	14:15:28	1939075	5	1	0	0	2	1	1	1	1	7	4	0	0	0	0	5	5
071212	14:15:28	10004	Trial750Fr	IncongruentLeft750	15	0	487	0	110	14:15:28	1939835	5	1	0	0	2	1	1	1	1	7	4	0	0	0	0	5	5
071212	14:15:28	10004	Trial750Fr	IncongruentLeft750	15	203	472	1	110	14:15:28	1940581	5	1	0	0	2	1	1	1	1	7	4	0	0	0	0	5	5
071212	14:15:28	10004	Trial750Fr	CongruentRight750	15	205	464	1	110	14:15:28	1941327	5	1	0	0	2	1	1	1	1	7	4	0	0	0	0	5	5
071212	14:15:28	10004	Trial750Fr	IncongruentRight750	15	205	454	1	110	14:15:28	1942074	5	1	0	0	2	1	1	1	1	7	4	0	0	0	0	5	5
071212	14:15:28	10004	Trial750Fr	CongruentLeft750	15	203	459	1	110	14:15:28	1942820	5	1	0	0	2	1	1	1	1	7	4	0	0	0	0	5	5
071212	14:15:28	10004	Trial750Fr	CongruentRight750	15	205	452	1	110	14:15:28	1943580	5	1	0	0	2	1	1	1	1	7	4	0	0	0	0	5	5
071212	14:15:28	10004	Trial750Fr	IncongruentLeft750	15	203	441	1	110	14:15:28	1944312	5	1	0	0	2	1	1	1	1	7	4	0	0	0	0	5	5
071212	14:15:28	10004	Trial750Fr	IncongruentRight750	15	205	449	1	110	14:15:28	1945072	5	1	0	0	2	1	1	1	1	7	4	0	0	0	0	5	5
071212	14:15:28	10004	Trial750Fr	CongruentRight750	15	205	420	1	110	14:15:28	1945779	5	1	0	0	2	1	1	1	1	7	4	0	0	0	0	5	5
071212	14:15:28	10004	Trial750Fr	CongruentLeft750	15	203	461	1	110	14:15:28	1946578	5	1	0	0	2	1	1	1	1	7	4	0	0	0	0	5	5
071212	14:15:28	10004	Trial750Fr	CongruentRight750	15	205	386	1	110	14:15:28	1947258	5	1	0	0	2	1	1	1	1	7	4	0	0	0	0	5	5
071212	14:15:28	10004	Trial750Fr	IncongruentRight750	15	205	424	1	110	14:15:28	1948031	5	1	0	0	2	1	1	1	1	7	4	0	0	0	0	5	5
071212	14:15:28	10004	Trial750Fr	IncongruentLeft750	15	203	430	1	110	14:15:28	1948791	5	1	0	0	2	1	1	1	1	7	4	0	0	0	0	5	5
071212	14:15:28	10004	Trial750Fr	IncongruentLeft750	15	203	470	1	110	14:15:28	1949590	5	1	0	0	2	1	1	1	1	7	4	0	0	0	0	5	5
071212	14:15:28	10004	Trial750Fr	CongruentLeft750	15	0	487	0	110	14:15:28	1950350	5	1	0	0	2	1	1	1	1	7	4	0	0	0	0	5	5
071212	14:15:28	10004	Trial750Fr	CongruentRight750	15	205	452	1	110	14:15:28	1951083	5	1	0	0	2	1	1	1	1	7	4	0	0	0	0	5	5
071212	14:15:28	10004	Trial750Fr	IncongruentLeft750	15	0	487	0	110	14:15:28	1951856	5	1	0	0	2	1	1	1	1	7	4	0	0	0	0	5	5
071212	14:15:28	10004	Trial750Fr	IncongruentRight750	15	205	401	1	110	14:15:28	1952536	5	1	0	0	2	1	1	1	1	7	4	0	0	0	0	5	5
071212	14:15:28	10004	Trial750Fr	CongruentRight750	15	205	410	1	110	14:15:28	1953296	5	1	0	0	2	1	1	1	1	7	4	0	0	0	0	5	5
071212	14:15:28	10004	Trial750Fr	CongruentLeft750	15	203	400	1	110	14:15:28	1954042	5	1	0	0	2	1	1	1	1	7	4	0	0	0	0	5	5
071212	14:15:28	10004	Trial750Fr	IncongruentRight750	15	205	357	1	110	14:15:28	1954735	5	1	0	0	2	1	1	1	1	7	4	0	0	0	0	5	5
071212	14:15:28	10004	Trial750Fr	IncongruentLeft750	15	203	350	1	110	14:15:28	1955495	5	1	0	0	2	1	1	1	1	7	4	0	0	0	0	5	5
071212	14:15:28	10004	Trial750Fr	IncongruentRight750	15	205	275	1	110	14:15:28	1956161	5	1	0	0	2	1	1	1	1	7	4	0	0	0	0	5	5
071212	14:15:28	10004	Trial750Fr	CongruentRight750	15	205	425	1	110	14:15:28	1957067	5	1	0	0	2	1	1	1	1	7	4	0	0	0	0	5	5
071212	14:15:28	10004	Trial750Fr	IncongruentLeft750	15	203	414	1	110	14:15:28	1957800	5	1	0	0	2	1	1	1	1	7	4	0	0	0	0	5	5
071212	14:15:28	10004	Trial750Fr	CongruentLeft750	15	203	407	1	110	14:15:28	1958547	5	1	0	0	2	1	1	1	1	7	4	0	0	0	0	5	5
071212	14:15:28	10004	Trial750Fr	CongruentRight750	15	205	396	1	110	14:15:28	1959280	5	1	0	0	2	1	1	1	1	7	4	0	0	0	0	5	5
071212	14:15:28	10004	Trial750Fr	IncongruentLeft750	15	203	466	1	110	14:15:28	1960106	5	1	0	0	2	1	1	1	1	7	4	0	0	0	0	5	5
071212	14:15:28	10004	Trial750Fr	IncongruentRight750	15	205	424	1	110	14:15:28	1960799	5	1	0	0	2	1	1	1	1	7	4	0	0	0	0	5	5
071212	14:15:28	10004	Trial750Fr	IncongruentRight750	15	205	400	1	110	14:15:28	1961545	5	1	0	0	2	1	1	1	1	7	4	0	0	0	0	5	5
071212	14:15:28	10004	Trial750Fr	CongruentLeft750	15	203	437	1	110	14:15:28	1962332	5	1	0	0	2	1	1	1	1	7	4	0	0	0	0	5	5
071212	14:15:28	10004	Trial750Fr	IncongruentLeft750	15	0	487	0	110	14:15:28	1963118	5	1	0	0	2	1	1	1	1	7	4	0	0	0	0	5	5
071212	14:15:28	10004	Trial750Fr	CongruentRight750	15	205	403	1	110	14:15:28	1963798	5	1	0	0	2	1	1	1	1	7	4	0	0	0	0	5	5
071212	14:15:28	10004	Trial750Fr	CongruentLeft750	15	203	444	1	110	14:15:28	1964597	5	1	0	0	2	1	1	1	1	7	4	0	0	0	0	5	5
071212	14:15:28	10004	Trial750Fr	IncongruentRight750	15	205	419	1	110	14:15:28	1965317	5	1	0	0	2	1	1	1	1	7	4	0	0	0	0	5	5
071212	14:15:28	10004	Trial750Fr	CongruentRight750	15	205	375	1	110	14:15:28	1966023	5	1	0	0	2	1	1	1	1	7	4	0	0	0	0	5	5
071212	14:15:28	10004	Trial750Fr	IncongruentLeft750	15	203	463	1	110	14:15:28	1966863	5	1	0	0	2	1	1	1	1	7	4	0	0	0	0	5	5
071212	14:15:28	10004	Trial750Fr	CongruentLeft750	15	203	437	1	110	14:15:28	1967583	5	1	0	0	2	1	1	1	1	7	4	0	0	0	0	5	5
071212	14:15:28	10004	Trial750Fr	IncongruentLeft750	15	203	394	1	110	14:15:28	1968289	5	1	0	0	2	1	1	1	1	7	4	0	0	0	0	5	5
071212	14:15:28	10004	Trial750Fr	IncongruentRight750	15	205	480	1	110	14:15:28	1969129	5	1	0	0	2	1	1	1	1	7	4	0	0	0	0	5	5
071212	14:15:28	10004	Trial750Fr	CongruentRight750	15	205	456	1	110	14:15:28	1969862	5	1	0	0	2	1	1	1	1	7	4	0	0	0	0	5	5
071212	14:15:28	10004	Trial750Fr	CongruentLeft750	15	203	465	1	110	14:15:28	1970635	5	1	0	0	2	1	1	1	1	7	4	0	0	0	0	5	5
071212	14:15:28	10004	Trial750Fr	CongruentLeft750	15	203	470	1	110	14:15:28	1971381	5	1	0	0	2	1	1	1	1	7	4	0	0	0	0	5	5
071212	14:15:28	10004	Trial750Fr	IncongruentRight750	15	205	399	1	110	14:15:28	1972075	5	1	0	0	2	1	1	1	1	7	4	0	0	0	0	5	5
071212	14:15:28	10004	Trial750Fr	IncongruentLeft750	15	203	468	1	110	14:15:28	1972887	5	1	0	0	2	1	1	1	1	7	4	0	0	0	0	5	5
071212	14:15:28	10004	Trial750Fr	IncongruentRight750	15	0	487	0	110	14:15:28	1973647	5	1	0	0	2	1	1	1	1	7	4	0	0	0	0	5	5
071212	14:15:28	10004	Trial750Fr	CongruentRight750	15	205	418	1	110	14:15:28	1974340	5	1	0	0	2	1	1	1	1	7	4	0	0	0	0	5	5
071212	14:15:28	10004	Trial750Fr	CongruentRight750	15	205	394	1	110	14:15:28	1975073	5	1	0	0	2	1	1	1	1	7	4	0	0	0	0	5	5
071212	14:15:28	10004	Trial750Fr	IncongruentLeft750	15	203	464	1	110	14:15:28	1975886	5	1	0	0	2	1	1	1	1	7	4	0	0	0	0	5	5
071212	14:15:28	10004	Trial750Fr	CongruentLeft750	15	203	421	1	110	14:15:28	1976592	5	1	0	0	2	1	1	1	1	7	4	0	0	0	0	5	5
071212	14:15:28	10004	Trial750Fr	CongruentRight750	15	205	414	1	110	14:15:28	1977352	5	1	0	0	2	1	1	1	1	7	4	0	0	0	0	5	5
071212	14:15:28	10004	Trial750Fr	CongruentLeft750	15	0	487	0	110	14:15:28	1978152	5	1	0	0	2	1	1	1	1	7	4	0	0	0	0	5	5
071212	14:15:28	10004	Trial750Fr	IncongruentRight750	15	205	473	1	110	14:15:28	1978898	5	1	0	0	2	1	1	1	1	7	4	0	0	0	0	5	5
071212	14:15:28	10004	Trial750Fr	CongruentRight750	15	0	487	0	110	14:15:28	1979658	5	1	0	0	2	1	1	1	1	7	4	0	0	0	0	5	5
071212	14:15:28	10004	Trial750Fr	CongruentLeft750	15	0	487	0	110	14:15:28	1980418	5	1	0	0	2	1	1	1	1	7	4	0	0	0	0	5	5
071212	14:15:28	10004	Trial750Fr	IncongruentLeft750	15	0	487	0	110	14:15:28	1981177	5	1	0	0	2	1	1	1	1	7	4	0	0	0	0	5	5
071212	14:15:28	10004	Trial750Fr	IncongruentLeft750	15	0	487	0	110	14:15:28	1981937	5	1	0	0	2	1	1	1	1	7	4	0	0	0	0	5	5
071212	14:15:28	10004	Trial750Fr	CongruentRight750	15	205	464	1	110	14:15:28	1982670	5	1	0	0	2	1	1	1	1	7	4	0	0	0	0	5	5
071212	14:15:28	10004	Trial750Fr	IncongruentRight750	15	0	487	0	110	14:15:28	1983443	5	1	0	0	2	1	1	1	1	7	4	0	0	0	0	5	5
071212	14:15:28	10004	Trial750Fr	CongruentLeft750	15	203	430	1	110	14:15:28	1984149	5	1	0	0	2	1	1	1	1	7	4	0	0	0	0	5	5
071212	14:15:28	10004	Trial750Fr	IncongruentRight750	15	205	454	1	110	14:15:28	1984936	5	1	0	0	2	1	1	1	1	7	4	0	0	0	0	5	5
071212	14:15:28	10004	Trial750Fr	CongruentRight750	15	205	396	1	110	14:15:28	1985615	5	1	0	0	2	1	1	1	1	7	4	0	0	0	0	5	5
071212	14:15:28	10004	Trial750Fr	IncongruentLeft750	15	203	465	1	110	14:15:28	1986442	5	1	0	0	2	1	1	1	1	7	4	0	0	0	0	5	5
071212	14:15:28	10004	Trial750Fr	CongruentLeft750	15	203	410	1	110	14:15:28	1987135	5	1	0	0	2	1	1	1	1	7	4	0	0	0	0	5	5
071212	14:15:28	10004	Trial750Fr	CongruentRight750	15	205	399	1	110	14:15:28	1987881	5	1	0	0	2	1	1	1	1	7	4	0	0	0	0	5	5
071212	14:15:28	10004	Trial750Fr	IncongruentLeft750	15	203	421	1	110	14:15:28	1988641	5	1	0	0	2	1	1	1	1	7	4	0	0	0	0	5	5
071212	14:15:28	10004	Trial750Fr	CongruentRight750	15	205	442	1	110	14:15:28	1989414	5	1	0	0	2	1	1	1	1	7	4	0	0	0	0	5	5
071212	14:15:28	10004	Trial750Fr	CongruentRight750	15	205	403	1	110	14:15:28	1990134	5	1	0	0	2	1	1	1	1	7	4	0	0	0	0	5	5
071212	14:15:28	10004	Trial750Fr	IncongruentRight750	15	0	487	0	110	14:15:28	1990960	5	1	0	0	2	1	1	1	1	7	4	0	0	0	0	5	5
071212	14:15:28	10004	Trial750Fr	CongruentLeft750	15	203	417	1	110	14:15:28	1991653	5	1	0	0	2	1	1	1	1	7	4	0	0	0	0	5	5
071212	14:15:28	10004	Trial750Fr	IncongruentLeft750	15	203	409	1	110	14:15:28	1992399	5	1	0	0	2	1	1	1	1	7	4	0	0	0	0	5	5
071212	14:15:28	10004	Trial750Fr	CongruentLeft750	15	203	431	1	110	14:15:28	1993172	5	1	0	0	2	1	1	1	1	7	4	0	0	0	0	5	5
071212	14:15:28	10004	Trial750Fr	IncongruentRight750	15	205	436	1	110	14:15:28	1993919	5	1	0	0	2	1	1	1	1	7	4	0	0	0	0	5	5
071212	14:15:28	10004	Trial750Fr	IncongruentLeft750	15	0	487	0	110	14:15:28	1994718	5	1	0	0	2	1	1	1	1	7	4	0	0	0	0	5	5
071212	14:15:28	10004	Trial750Fr	CongruentRight750	15	205	434	1	110	14:15:28	1995425	5	1	0	0	2	1	1	1	1	7	4	0	0	0	0	5	5
071212	14:15:28	10004	Trial750Fr	CongruentLeft750	15	203	474	1	110	14:15:28	1996224	5	1	0	0	2	1	1	1	1	7	4	0	0	0	0	5	5
071212	14:15:28	10004	Trial750Fr	IncongruentLeft750	15	0	487	0	110	14:15:28	1996984	5	1	0	0	2	1	1	1	1	7	4	0	0	0	0	5	5
071212	14:15:28	10004	Trial750Fr	CongruentLeft750	15	0	487	0	110	14:15:28	1997744	5	1	0	0	2	1	1	1	1	7	4	0	0	0	0	5	5
071212	14:15:28	10004	Trial750Fr	IncongruentRight750	15	0	487	0	110	14:15:28	1998504	5	1	0	0	2	1	1	1	1	7	4	0	0	0	0	5	5
071212	14:15:28	10004	Trial750Fr	CongruentRight750	15	205	460	1	110	14:15:28	1999236	5	1	0	0	2	1	1	1	1	7	4	0	0	0	0	5	5
071212	14:15:28	10004	Trial750Fr	IncongruentLeft750	15	0	487	0	110	14:15:28	2000010	5	1	0	0	2	1	1	1	1	7	4	0	0	0	0	5	5
071212	14:15:28	10004	Trial750Fr	CongruentLeft750	15	203	471	1	110	14:15:28	2000756	5	1	0	0	2	1	1	1	1	7	4	0	0	0	0	5	5
071212	14:15:28	10004	Trial750Fr	IncongruentRight750	15	0	487	0	110	14:15:28	2001516	5	1	0	0	2	1	1	1	1	7	4	0	0	0	0	5	5
071212	14:15:28	10004	Trial750Fr	IncongruentLeft750	15	203	485	1	110	14:15:28	2002276	5	1	0	0	2	1	1	1	1	7	4	0	0	0	0	5	5
071212	14:15:28	10004	Trial750Fr	CongruentLeft750	15	203	445	1	110	14:15:28	2002995	5	1	0	0	2	1	1	1	1	7	4	0	0	0	0	5	5
071212	14:15:28	10004	Trial750Fr	IncongruentLeft750	15	203	469	1	110	14:15:28	2003781	5	1	0	0	2	1	1	1	1	7	4	0	0	0	0	5	5
071212	14:15:28	10004	Trial750Fr	CongruentRight750	15	205	459	1	110	14:15:28	2004514	5	1	0	0	2	1	1	1	1	7	4	0	0	0	0	5	5
071212	14:15:28	10004	Trial750Fr	CongruentLeft750	15	203	451	1	110	14:15:28	2005274	5	1	0	0	2	1	1	1	1	7	4	0	0	0	0	5	5
071212	14:15:28	10004	Trial750Fr	IncongruentRight750	15	205	441	1	110	14:15:28	2006007	5	1	0	0	2	1	1	1	1	7	4	0	0	0	0	5	5
071212	14:15:28	10004	Trial750Fr	CongruentLeft750	15	203	446	1	110	14:15:28	2006753	5	1	0	0	2	1	1	1	1	7	4	0	0	0	0	5	5
071212	14:15:28	10004	Trial750Fr	CongruentRight750	15	205	422	1	110	14:15:28	2007486	5	1	0	0	2	1	1	1	1	7	4	0	0	0	0	5	5
071212	14:15:28	10004	Trial750Fr	IncongruentLeft750	15	203	364	1	110	14:15:28	2008179	5	1	0	0	2	1	1	1	1	7	4	0	0	0	0	5	5
071212	14:15:28	10004	WordsAbsFr3mo	PAbsFr3mo1	16	Abs1	3629	0	110	14:15:28	2019908	5	1	0	0	2	1	1	1	1	7	4	0	0	0	0	5	5
071212	14:15:28	10004	WordsAbsFr3mo	AbsFr3mo1	16	Abs1	2924	0	110	14:15:28	2022867	5	1	0	0	2	1	1	1	1	7	4	1	0	0	0	5	5
071212	14:15:28	10004	WordsAbsFr3mo	AbsFr3mo2	16	Abs1	11100	0	110	14:15:28	2034009	5	1	0	0	2	1	1	1	1	7	4	2	0	0	0	5	5
071212	14:15:28	10004	WordsAbsFr3mo	AbsFr3mo3	16	Abs1	5006	0	110	14:15:28	2039060	5	1	0	0	2	1	1	1	1	7	4	3	0	0	0	5	5
071212	14:15:28	10004	Trial2BackFrS	NS	17	0	1000	1	110	14:15:28	2070620	5	1	0	0	2	1	1	1	1	7	4	3	0	0	0	5	5
071212	14:15:28	10004	Trial2BackFrS	NS	17	0	1000	1	110	14:15:28	2072140	5	1	0	0	2	1	1	1	1	7	4	3	0	0	0	5	5
071212	14:15:28	10004	Trial2BackFrS	NS	17	0	1000	1	110	14:15:28	2073659	5	1	0	0	2	1	1	1	1	7	4	3	0	0	0	5	5
071212	14:15:28	10004	Trial2BackFrS	YS	17	0	1000	0	110	14:15:28	2075178	5	1	0	0	2	1	1	1	1	7	4	3	0	0	0	5	5
071212	14:15:28	10004	Trial2BackFrS	NS	17	0	1000	1	110	14:15:28	2076698	5	1	0	0	2	1	1	1	1	7	4	3	0	0	0	5	5
071212	14:15:28	10004	Trial2BackFrS	NS	17	0	1000	1	110	14:15:28	2078218	5	1	0	0	2	1	1	1	1	7	4	3	0	0	0	5	5
071212	14:15:28	10004	Trial2BackFrS	NS	17	0	1000	1	110	14:15:28	2079737	5	1	0	0	2	1	1	1	1	7	4	3	0	0	0	5	5
071212	14:15:28	10004	Trial2BackFrS	NS	17	0	1000	1	110	14:15:28	2081256	5	1	0	0	2	1	1	1	1	7	4	3	0	0	0	5	5
071212	14:15:28	10004	Trial2BackFrS	YS	17	57	954	1	110	14:15:28	2082735	5	1	0	0	2	1	1	1	1	7	4	3	0	0	0	5	5
071212	14:15:28	10004	Trial2BackFrS	NS	17	0	1000	1	110	14:15:28	2084281	5	1	0	0	2	1	1	1	1	7	4	3	0	0	0	5	5
071212	14:15:28	10004	Trial2BackFrS	NS	17	0	1000	1	110	14:15:28	2085801	5	1	0	0	2	1	1	1	1	7	4	3	0	0	0	5	5
071212	14:15:28	10004	Trial2BackFrS	YS	17	0	1000	0	110	14:15:28	2087320	5	1	0	0	2	1	1	1	1	7	4	3	0	0	0	5	5
071212	14:15:28	10004	Trial2BackFrS	NS	17	0	1000	1	110	14:15:28	2088839	5	1	0	0	2	1	1	1	1	7	4	3	0	0	0	5	5
071212	14:15:28	10004	Trial2BackFrS	NS	17	0	1000	1	110	14:15:28	2090359	5	1	0	0	2	1	1	1	1	7	4	3	0	0	0	5	5
071212	14:15:28	10004	Trial2BackFrS	NS	17	0	1000	1	110	14:15:28	2091878	5	1	0	0	2	1	1	1	1	7	4	3	0	0	0	5	5
071212	14:15:28	10004	Trial2BackFrS	YS	17	57	603	1	110	14:15:28	2093011	5	1	0	0	2	1	1	1	1	7	4	3	0	0	0	5	5
071212	14:15:28	10004	Trial2BackFrS	NS	17	0	1000	1	110	14:15:28	2094904	5	1	0	0	2	1	1	1	1	7	4	3	0	0	0	5	5
071212	14:15:28	10004	Trial2BackFrS	NS	17	0	1000	1	110	14:15:28	2096423	5	1	0	0	2	1	1	1	1	7	4	3	0	0	0	5	5
071212	14:15:28	10004	Trial2BackFrS	NS	17	0	1000	1	110	14:15:28	2097942	5	1	0	0	2	1	1	1	1	7	4	3	0	0	0	5	5
071212	14:15:28	10004	Trial2BackFrS	NS	17	0	1000	1	110	14:15:28	2099462	5	1	0	0	2	1	1	1	1	7	4	3	0	0	0	5	5
071212	14:15:28	10004	Trial2BackFrS	YS	17	0	1000	0	110	14:15:28	2100981	5	1	0	0	2	1	1	1	1	7	4	3	0	0	0	5	5
071212	14:15:28	10004	Trial2BackFrS	NS	17	57	604	0	110	14:15:28	2102114	5	1	0	0	2	1	1	1	1	7	4	3	0	0	0	5	5
071212	14:15:28	10004	Trial2BackFrS	NS	17	0	1000	1	110	14:15:28	2104006	5	1	0	0	2	1	1	1	1	7	4	3	0	0	0	5	5
071212	14:15:28	10004	Trial2BackFrS	NS	17	0	1000	1	110	14:15:28	2105526	5	1	0	0	2	1	1	1	1	7	4	3	0	0	0	5	5
071212	14:15:28	10004	Trial2BackFrS	NS	17	0	1000	1	110	14:15:28	2107045	5	1	0	0	2	1	1	1	1	7	4	3	0	0	0	5	5
071212	14:15:28	10004	Trial2BackFrS	NS	17	0	1000	1	110	14:15:28	2108565	5	1	0	0	2	1	1	1	1	7	4	3	0	0	0	5	5
071212	14:15:28	10004	Trial2BackFrS	NS	17	0	1000	1	110	14:15:28	2110084	5	1	0	0	2	1	1	1	1	7	4	3	0	0	0	5	5
071212	14:15:28	10004	Trial2BackFrS	NS	17	57	685	0	110	14:15:28	2111297	5	1	0	0	2	1	1	1	1	7	4	3	0	0	0	5	5
071212	14:15:28	10004	Trial2BackFrS	NS	17	0	1000	1	110	14:15:28	2113109	5	1	0	0	2	1	1	1	1	7	4	3	0	0	0	5	5
071212	14:15:28	10004	Trial2BackFrS	NS	17	0	1000	1	110	14:15:28	2114629	5	1	0	0	2	1	1	1	1	7	4	3	0	0	0	5	5
071212	14:15:28	10004	Trial2BackFrS	NS	17	0	1000	1	110	14:15:28	2116148	5	1	0	0	2	1	1	1	1	7	4	3	0	0	0	5	5
071212	14:15:28	10004	Trial2BackFrS	YS	17	0	1000	0	110	14:15:28	2117668	5	1	0	0	2	1	1	1	1	7	4	3	0	0	0	5	5
071212	14:15:28	10004	Trial2BackFrS	NS	17	0	1000	1	110	14:15:28	2119187	5	1	0	0	2	1	1	1	1	7	4	3	0	0	0	5	5
071212	14:15:28	10004	Trial2BackFrS	NS	17	0	1000	1	110	14:15:28	2120706	5	1	0	0	2	1	1	1	1	7	4	3	0	0	0	5	5
071212	14:15:28	10004	Trial2BackFrS	NS	17	57	622	0	110	14:15:28	2121852	5	1	0	0	2	1	1	1	1	7	4	3	0	0	0	5	5
071212	14:15:28	10004	Trial2BackFrS	YS	17	0	1000	0	110	14:15:28	2123732	5	1	0	0	2	1	1	1	1	7	4	3	0	0	0	5	5
071212	14:15:28	10004	Trial2BackFrS	NS	17	0	1000	1	110	14:15:28	2125251	5	1	0	0	2	1	1	1	1	7	4	3	0	0	0	5	5
071212	14:15:28	10004	Trial2BackFrS	NS	17	0	1000	1	110	14:15:28	2126770	5	1	0	0	2	1	1	1	1	7	4	3	0	0	0	5	5
071212	14:15:28	10004	Trial2BackFrS	NS	17	0	1000	1	110	14:15:28	2128290	5	1	0	0	2	1	1	1	1	7	4	3	0	0	0	5	5
071212	14:15:28	10004	Trial2BackFrS	NS	17	0	1000	1	110	14:15:28	2129809	5	1	0	0	2	1	1	1	1	7	4	3	0	0	0	5	5
071212	14:15:28	10004	Trial2BackFrS	NS	17	0	1000	1	110	14:15:28	2131328	5	1	0	0	2	1	1	1	1	7	4	3	0	0	0	5	5
071212	14:15:28	10004	Trial2BackFrS	NS	17	57	719	0	110	14:15:28	2132581	5	1	0	0	2	1	1	1	1	7	4	3	0	0	0	5	5
071212	14:15:28	10004	Trial2BackFrS	NS	17	0	1000	1	110	14:15:28	2134354	5	1	0	0	2	1	1	1	1	7	4	3	0	0	0	5	5
071212	14:15:28	10004	Trial2BackFrS	YS	17	0	1000	0	110	14:15:28	2135873	5	1	0	0	2	1	1	1	1	7	4	3	0	0	0	5	5
071212	14:15:28	10004	Trial2BackFrS	NS	17	0	1000	1	110	14:15:28	2137393	5	1	0	0	2	1	1	1	1	7	4	3	0	0	0	5	5
071212	14:15:28	10004	Trial2BackFrS	NS	17	0	1000	1	110	14:15:28	2138912	5	1	0	0	2	1	1	1	1	7	4	3	0	0	0	5	5
071212	14:15:28	10004	Trial2BackFrS	NS	17	0	1000	1	110	14:15:28	2140431	5	1	0	0	2	1	1	1	1	7	4	3	0	0	0	5	5
071212	14:15:28	10004	Trial2BackFrS	NS	17	0	1000	1	110	14:15:28	2141951	5	1	0	0	2	1	1	1	1	7	4	3	0	0	0	5	5
071212	14:15:28	10004	Trial2BackFrS	YS	17	57	609	1	110	14:15:28	2143083	5	1	0	0	2	1	1	1	1	7	4	3	0	0	0	5	5
071212	14:15:28	10004	Trial2BackFrS	NS	17	0	1000	1	110	14:15:28	2144976	5	1	0	0	2	1	1	1	1	7	4	3	0	0	0	5	5
071212	14:15:28	10004	Trial2BackFrS	NS	17	0	1000	1	110	14:15:28	2146495	5	1	0	0	2	1	1	1	1	7	4	3	0	0	0	5	5
071212	14:15:28	10004	Trial2BackFrS	NS	17	0	1000	1	110	14:15:28	2148015	5	1	0	0	2	1	1	1	1	7	4	3	0	0	0	5	5
071212	14:15:28	10004	Trial2BackFrS	NS	17	0	1000	1	110	14:15:28	2149534	5	1	0	0	2	1	1	1	1	7	4	3	0	0	0	5	5
071212	14:15:28	10004	Trial2BackFrS	NS	17	0	1000	1	110	14:15:28	2151054	5	1	0	0	2	1	1	1	1	7	4	3	0	0	0	5	5
071212	14:15:28	10004	Trial2BackFrS	NS	17	57	722	0	110	14:15:28	2152306	5	1	0	0	2	1	1	1	1	7	4	3	0	0	0	5	5
071212	14:15:28	10004	Trial2BackFrS	YS	17	0	1000	0	110	14:15:28	2154079	5	1	0	0	2	1	1	1	1	7	4	3	0	0	0	5	5
071212	14:15:28	10004	Trial2BackFrS	NS	17	0	1000	1	110	14:15:28	2155598	5	1	0	0	2	1	1	1	1	7	4	3	0	0	0	5	5
071212	14:15:28	10004	Trial2BackFrS	NS	17	0	1000	1	110	14:15:28	2157118	5	1	0	0	2	1	1	1	1	7	4	3	0	0	0	5	5
071212	14:15:28	10004	Trial2BackFrS	NS	17	0	1000	1	110	14:15:28	2158637	5	1	0	0	2	1	1	1	1	7	4	3	0	0	0	5	5
071212	14:15:28	10004	Trial2BackFrS	NS	17	57	738	0	110	14:15:28	2159903	5	1	0	0	2	1	1	1	1	7	4	3	0	0	0	5	5
071212	14:15:28	10004	Trial2BackFrS	NS	17	0	1000	1	110	14:15:28	2161662	5	1	0	0	2	1	1	1	1	7	4	3	0	0	0	5	5
071212	14:15:28	10004	Trial2BackFrS	NS	17	0	1000	1	110	14:15:28	2163182	5	1	0	0	2	1	1	1	1	7	4	3	0	0	0	5	5
071212	14:15:28	10004	Trial2BackFrS	NS	17	0	1000	1	110	14:15:28	2164701	5	1	0	0	2	1	1	1	1	7	4	3	0	0	0	5	5
071212	14:15:28	10004	Trial2BackFrS	YS	17	0	1000	0	110	14:15:28	2166221	5	1	0	0	2	1	1	1	1	7	4	3	0	0	0	5	5
071212	14:15:28	10004	Trial2BackFrS	NS	17	57	530	0	110	14:15:28	2167274	5	1	0	0	2	1	1	1	1	7	4	3	0	0	0	5	5
071212	14:15:28	10004	Trial2BackFrS	NS	17	0	1000	1	110	14:15:28	2169246	5	1	0	0	2	1	1	1	1	7	4	3	0	0	0	5	5
071212	14:15:28	10004	Trial2BackFrS	NS	17	0	1000	1	110	14:15:28	2170765	5	1	0	0	2	1	1	1	1	7	4	3	0	0	0	5	5
071212	14:15:28	10004	Trial2BackFrS	NS	17	0	1000	1	110	14:15:28	2172285	5	1	0	0	2	1	1	1	1	7	4	3	0	0	0	5	5
071212	14:15:28	10004	Trial2BackFrS	YS	17	57	754	1	110	14:15:28	2173564	5	1	0	0	2	1	1	1	1	7	4	3	0	0	0	5	5
071212	14:15:28	10004	Trial2BackFrS	NS	17	0	1000	1	110	14:15:28	2175310	5	1	0	0	2	1	1	1	1	7	4	3	0	0	0	5	5
071212	14:15:28	10004	Trial2BackFrS	NS	17	0	1000	1	110	14:15:28	2176830	5	1	0	0	2	1	1	1	1	7	4	3	0	0	0	5	5
071212	14:15:28	10004	Trial2BackFrS	YS	17	0	1000	0	110	14:15:28	2178349	5	1	0	0	2	1	1	1	1	7	4	3	0	0	0	5	5
071212	14:15:28	10004	Trial2BackFrS	NS	17	0	1000	1	110	14:15:28	2179868	5	1	0	0	2	1	1	1	1	7	4	3	0	0	0	5	5
071212	14:15:28	10004	Trial2BackFrS	NS	17	0	1000	1	110	14:15:28	2181388	5	1	0	0	2	1	1	1	1	7	4	3	0	0	0	5	5
071212	14:15:28	10004	Trial2BackFrS	NS	17	0	1000	1	110	14:15:28	2182907	5	1	0	0	2	1	1	1	1	7	4	3	0	0	0	5	5
071212	14:15:28	10004	Trial2BackFrS	NS	17	0	1000	1	110	14:15:28	2184426	5	1	0	0	2	1	1	1	1	7	4	3	0	0	0	5	5
071212	14:15:28	10004	Trial2BackFrS	NS	17	57	564	0	110	14:15:28	2185519	5	1	0	0	2	1	1	1	1	7	4	3	0	0	0	5	5
071212	14:15:28	10004	Trial2BackFrS	NS	17	0	1000	1	110	14:15:28	2187452	5	1	0	0	2	1	1	1	1	7	4	3	0	0	0	5	5
071212	14:15:28	10004	Trial2BackFrS	YS	17	0	1000	0	110	14:15:28	2188971	5	1	0	0	2	1	1	1	1	7	4	3	0	0	0	5	5
071212	14:15:28	10004	Trial2BackFrS	NS	17	0	1000	1	110	14:15:28	2190491	5	1	0	0	2	1	1	1	1	7	4	3	0	0	0	5	5
071212	14:15:28	10004	Trial2BackFrS	NS	17	0	1000	1	110	14:15:28	2192010	5	1	0	0	2	1	1	1	1	7	4	3	0	0	0	5	5
071212	14:15:28	10004	Trial2BackFrS	NS	17	0	1000	1	110	14:15:28	2193529	5	1	0	0	2	1	1	1	1	7	4	3	0	0	0	5	5
071212	14:15:28	10004	Trial2BackFrS	NS	17	0	1000	1	110	14:15:28	2195049	5	1	0	0	2	1	1	1	1	7	4	3	0	0	0	5	5
071212	14:15:28	10004	Trial2BackFrS	YS	17	0	1000	0	110	14:15:28	2196568	5	1	0	0	2	1	1	1	1	7	4	3	0	0	0	5	5
071212	14:15:28	10004	Trial2BackFrS	NS	17	57	661	0	110	14:15:28	2197754	5	1	0	0	2	1	1	1	1	7	4	3	0	0	0	5	5
071212	14:15:28	10004	Trial2BackFrS	NS	17	0	1000	1	110	14:15:28	2199593	5	1	0	0	2	1	1	1	1	7	4	3	0	0	0	5	5
071212	14:15:28	10004	Trial2BackFrS	NS	17	0	1000	1	110	14:15:28	2201126	5	1	0	0	2	1	1	1	1	7	4	3	0	0	0	5	5
071212	14:15:28	10004	Trial2BackFrS	NS	17	0	1000	1	110	14:15:28	2202646	5	1	0	0	2	1	1	1	1	7	4	3	0	0	0	5	5
071212	14:15:28	10004	Trial2BackFrS	YS	17	0	1000	0	110	14:15:28	2204165	5	1	0	0	2	1	1	1	1	7	4	3	0	0	0	5	5
071212	14:15:28	10004	Trial2BackFrS	NS	17	0	1000	1	110	14:15:28	2205684	5	1	0	0	2	1	1	1	1	7	4	3	0	0	0	5	5
071212	14:15:28	10004	Trial2BackFrS	NS	17	0	1000	1	110	14:15:28	2207204	5	1	0	0	2	1	1	1	1	7	4	3	0	0	0	5	5
071212	14:15:28	10004	Trial2BackFrS	YS	17	0	1000	0	110	14:15:28	2208723	5	1	0	0	2	1	1	1	1	7	4	3	0	0	0	5	5
071212	14:15:28	10004	Trial2BackFrS	NS	17	0	1000	1	110	14:15:28	2210242	5	1	0	0	2	1	1	1	1	7	4	3	0	0	0	5	5
071212	14:15:28	10004	Trial2BackFrS	NS	17	0	1000	1	110	14:15:28	2211762	5	1	0	0	2	1	1	1	1	7	4	3	0	0	0	5	5
071212	14:15:28	10004	Trial2BackFrS	NS	17	0	1000	1	110	14:15:28	2213281	5	1	0	0	2	1	1	1	1	7	4	3	0	0	0	5	5
071212	14:15:28	10004	Trial2BackFrS	NS	17	0	1000	1	110	14:15:28	2214800	5	1	0	0	2	1	1	1	1	7	4	3	0	0	0	5	5
071212	14:15:28	10004	Trial2BackFrS	NS	17	0	1000	1	110	14:15:28	2216320	5	1	0	0	2	1	1	1	1	7	4	3	0	0	0	5	5
071212	14:15:28	10004	Trial2BackFrS	NS	17	57	861	0	110	14:15:28	2217706	5	1	0	0	2	1	1	1	1	7	4	3	0	0	0	5	5
071212	14:15:28	10004	Trial2BackFrS	NS	17	0	1000	1	110	14:15:28	2219345	5	1	0	0	2	1	1	1	1	7	4	3	0	0	0	5	5
071212	14:15:28	10004	Trial2BackFrS	NS	17	0	1000	1	110	14:15:28	2220865	5	1	0	0	2	1	1	1	1	7	4	3	0	0	0	5	5
071212	14:15:28	10004	Trial2BackFrS	YS	17	0	1000	0	110	14:15:28	2222384	5	1	0	0	2	1	1	1	1	7	4	3	0	0	0	5	5
071212	14:15:28	10004	Trial2BackFrS	NS	17	0	1000	1	110	14:15:28	2223903	5	1	0	0	2	1	1	1	1	7	4	3	0	0	0	5	5
071212	14:15:28	10004	Trial2BackFrS	NS	17	0	1000	1	110	14:15:28	2225423	5	1	0	0	2	1	1	1	1	7	4	3	0	0	0	5	5
071212	14:15:28	10004	Trial2BackFrS	NS	17	57	622	0	110	14:15:28	2226569	5	1	0	0	2	1	1	1	1	7	4	3	0	0	0	5	5
071212	14:15:28	10004	Trial2BackFrS	NS	17	0	1000	1	110	14:15:28	2228448	5	1	0	0	2	1	1	1	1	7	4	3	0	0	0	5	5
071212	14:15:28	10004	Trial2BackFrS	NS	17	0	1000	1	110	14:15:28	2229968	5	1	0	0	2	1	1	1	1	7	4	3	0	0	0	5	5
071212	14:15:28	10004	Trial2BackFrS	NS	17	0	1000	1	110	14:15:28	2231487	5	1	0	0	2	1	1	1	1	7	4	3	0	0	0	5	5
071212	14:15:28	10004	Trial2BackFrS	NS	17	0	1000	1	110	14:15:28	2233006	5	1	0	0	2	1	1	1	1	7	4	3	0	0	0	5	5
071212	14:15:28	10004	Trial2BackFrS	YS	17	57	750	1	110	14:15:28	2234286	5	1	0	0	2	1	1	1	1	7	4	3	0	0	0	5	5
071212	14:15:28	10004	Trial2BackFrS	NS	17	0	1000	1	110	14:15:28	2236032	5	1	0	0	2	1	1	1	1	7	4	3	0	0	0	5	5
071212	14:15:28	10004	Trial2BackFrS	NS	17	0	1000	1	110	14:15:28	2237551	5	1	0	0	2	1	1	1	1	7	4	3	0	0	0	5	5
071212	14:15:28	10004	Trial2BackFrS	NS	17	0	1000	1	110	14:15:28	2239070	5	1	0	0	2	1	1	1	1	7	4	3	0	0	0	5	5
071212	14:15:28	10004	Trial2BackFrS	NS	17	0	1000	1	110	14:15:28	2240590	5	1	0	0	2	1	1	1	1	7	4	3	0	0	0	5	5
071212	14:15:28	10004	Trial2BackFrS	NS	17	0	1000	1	110	14:15:28	2242109	5	1	0	0	2	1	1	1	1	7	4	3	0	0	0	5	5
071212	14:15:28	10004	Trial2BackFrS	NS	17	0	1000	1	110	14:15:28	2243629	5	1	0	0	2	1	1	1	1	7	4	3	0	0	0	5	5
071212	14:15:28	10004	Trial2BackFrS	NS	17	57	256	0	110	14:15:28	2244415	5	1	0	0	2	1	1	1	1	7	4	3	0	0	0	5	5
071212	14:15:28	10004	Trial2BackFrS	NS	17	0	1000	1	110	14:15:28	2246654	5	1	0	0	2	1	1	1	1	7	4	3	0	0	0	5	5
071212	14:15:28	10004	Trial2BackFrS	NS	17	0	1000	1	110	14:15:28	2248173	5	1	0	0	2	1	1	1	1	7	4	3	0	0	0	5	5
071212	14:15:28	10004	Trial2BackFrS	YS	17	0	1000	0	110	14:15:28	2249693	5	1	0	0	2	1	1	1	1	7	4	3	0	0	0	5	5
071212	14:15:28	10004	Trial2BackFrS	NS	17	0	1000	1	110	14:15:28	2251212	5	1	0	0	2	1	1	1	1	7	4	3	0	0	0	5	5
071212	14:15:28	10004	ClockFr3mo	ClockFr3mo	19	Clock1	34543	0	110	14:15:28	2285864	5	1	0	0	2	1	1	1	1	7	4	3	1	0	0	5	5
071212	14:15:28	10004	ClockFr3mo	ClockFr3mo	19	Clock11	414	0	110	14:15:28	2286318	5	1	0	0	2	1	1	1	1	7	4	3	1	1	0	5	5
071212	14:15:28	10004	ClockFr3mo	ClockFr3mo	19	Clock111	465	0	110	14:15:28	2286824	5	1	0	0	2	1	1	1	1	7	4	3	1	1	1	5	5
071212	14:15:28	10004	ClockFr3mo	ClockFr3mo	19	Clockdone	662	0	110	14:15:28	2287530	5	1	0	0	2	1	1	1	1	7	4	3	1	1	1	5	5
071212	14:15:28	10004	FASFrVF3mo	StopFrVF3mo	20	14	7583	0	110	14:15:28	2386558	5	1	0	0	2	1	1	1	1	7	4	3	1	1	1	5	5
