date	time	subject	blockcode	trialcode	values.TaskNumber	response	latency	correct	values.Score	script.starttime	script.elapsedtime	values.ScoreS7	values.Word1	values.Word2	values.Word3	values.Word4	values.Word5	values.Word6	values.Word7	values.Word8	values.DigitSpanFwrd	values.DigitSpanBack	values.ScoreAbs	values.Contour	values.Numbers	values.Hands	values.corsiblockspanFwrd	values.corsiblockspanRev
090412	13:37:24	10040	Language	Language	0	English	213479	0	0	13:37:24	213614	0	0	0	0	0	0	0	0	0	0	0	0	0	0	0	0	0
090412	13:37:24	10040	Session	Session	0	Baseline	996	0	0	13:37:24	214693	0	0	0	0	0	0	0	0	0	0	0	0	0	0	0	0	0
090412	13:37:24	10040	HandEng	HandEng	0	Right	987932	0	0	13:37:24	1202705	0	0	0	0	0	0	0	0	0	0	0	0	0	0	0	0	0
090412	13:37:24	10040	CubeEng	CubeEng	1	1Cube	27881	0	0	13:37:24	1275409	0	0	0	0	0	0	0	0	0	0	0	0	0	0	0	0	0
090412	13:37:24	10040	pm.simpleEngRight	blank.simpleEng	2	0	2187	1	0	13:37:24	1305397	0	0	0	0	0	0	0	0	0	0	0	0	0	0	0	0	0
090412	13:37:24	10040	pm.simpleEngRight	pm.simpleEng	2	57	594	0	0	13:37:24	1306023	0	0	0	0	0	0	0	0	0	0	0	0	0	0	0	0	0
090412	13:37:24	10040	pm.simpleEngRight	blank.simpleEng	2	0	1987	1	0	13:37:24	1308036	0	0	0	0	0	0	0	0	0	0	0	0	0	0	0	0	0
090412	13:37:24	10040	pm.simpleEngRight	pm.simpleEng	2	57	339	0	0	13:37:24	1308409	0	0	0	0	0	0	0	0	0	0	0	0	0	0	0	0	0
090412	13:37:24	10040	pm.simpleEngRight	blank.simpleEng	2	0	1787	1	0	13:37:24	1310221	0	0	0	0	0	0	0	0	0	0	0	0	0	0	0	0	0
090412	13:37:24	10040	pm.simpleEngRight	pm.simpleEng	2	57	314	0	0	13:37:24	1310568	0	0	0	0	0	0	0	0	0	0	0	0	0	0	0	0	0
090412	13:37:24	10040	pm.simpleEngRight	blank.simpleEng	2	0	2487	1	0	13:37:24	1313087	0	0	0	0	0	0	0	0	0	0	0	0	0	0	0	0	0
090412	13:37:24	10040	pm.simpleEngRight	pm.simpleEng	2	57	248	0	0	13:37:24	1313367	0	0	0	0	0	0	0	0	0	0	0	0	0	0	0	0	0
090412	13:37:24	10040	pm.simpleEngRight	blank.simpleEng	2	0	2087	1	0	13:37:24	1315473	0	0	0	0	0	0	0	0	0	0	0	0	0	0	0	0	0
090412	13:37:24	10040	pm.simpleEngRight	pm.simpleEng	2	57	262	0	0	13:37:24	1315766	0	0	0	0	0	0	0	0	0	0	0	0	0	0	0	0	0
090412	13:37:24	10040	pm.simpleEngRight	blank.simpleEng	2	0	1487	1	0	13:37:24	1317272	0	0	0	0	0	0	0	0	0	0	0	0	0	0	0	0	0
090412	13:37:24	10040	pm.simpleEngRight	pm.simpleEng	2	57	271	0	0	13:37:24	1317578	0	0	0	0	0	0	0	0	0	0	0	0	0	0	0	0	0
090412	13:37:24	10040	pm.simpleEngRight	blank.simpleEng	2	0	1587	1	0	13:37:24	1319191	0	0	0	0	0	0	0	0	0	0	0	0	0	0	0	0	0
090412	13:37:24	10040	pm.simpleEngRight	pm.simpleEng	2	57	400	0	0	13:37:24	1319631	0	0	0	0	0	0	0	0	0	0	0	0	0	0	0	0	0
090412	13:37:24	10040	pm.simpleEngRight	blank.simpleEng	2	0	2387	1	0	13:37:24	1322043	0	0	0	0	0	0	0	0	0	0	0	0	0	0	0	0	0
090412	13:37:24	10040	pm.simpleEngRight	pm.simpleEng	2	57	316	0	0	13:37:24	1322390	0	0	0	0	0	0	0	0	0	0	0	0	0	0	0	0	0
090412	13:37:24	10040	pm.simpleEngRight	blank.simpleEng	2	0	1887	1	0	13:37:24	1324309	0	0	0	0	0	0	0	0	0	0	0	0	0	0	0	0	0
090412	13:37:24	10040	pm.simpleEngRight	pm.simpleEng	2	57	322	0	0	13:37:24	1324669	0	0	0	0	0	0	0	0	0	0	0	0	0	0	0	0	0
090412	13:37:24	10040	pm.simpleEngRight	blank.simpleEng	2	0	1687	1	0	13:37:24	1326388	0	0	0	0	0	0	0	0	0	0	0	0	0	0	0	0	0
090412	13:37:24	10040	pm.simpleEngRight	pm.simpleEng	2	57	370	0	0	13:37:24	1326802	0	0	0	0	0	0	0	0	0	0	0	0	0	0	0	0	0
090412	13:37:24	10040	pm.simpleEngRight	blank.simpleEng	2	0	2287	1	0	13:37:24	1329121	0	0	0	0	0	0	0	0	0	0	0	0	0	0	0	0	0
090412	13:37:24	10040	pm.simpleEngRight	pm.simpleEng	2	57	326	0	0	13:37:24	1329480	0	0	0	0	0	0	0	0	0	0	0	0	0	0	0	0	0
090412	13:37:24	10040	pm.simpleEngRight	blank.simpleEng	2	0	2287	1	0	13:37:24	1331799	0	0	0	0	0	0	0	0	0	0	0	0	0	0	0	0	0
090412	13:37:24	10040	pm.simpleEngRight	pm.simpleEng	2	57	335	0	0	13:37:24	1332173	0	0	0	0	0	0	0	0	0	0	0	0	0	0	0	0	0
090412	13:37:24	10040	pm.simpleEngRight	blank.simpleEng	2	0	2487	1	0	13:37:24	1334692	0	0	0	0	0	0	0	0	0	0	0	0	0	0	0	0	0
090412	13:37:24	10040	pm.simpleEngRight	pm.simpleEng	2	57	579	0	0	13:37:24	1335318	0	0	0	0	0	0	0	0	0	0	0	0	0	0	0	0	0
090412	13:37:24	10040	pm.simpleEngRight	blank.simpleEng	2	0	1687	1	0	13:37:24	1337024	0	0	0	0	0	0	0	0	0	0	0	0	0	0	0	0	0
090412	13:37:24	10040	pm.simpleEngRight	pm.simpleEng	2	57	534	0	0	13:37:24	1337597	0	0	0	0	0	0	0	0	0	0	0	0	0	0	0	0	0
090412	13:37:24	10040	pm.simpleEngRight	blank.simpleEng	2	0	1987	1	0	13:37:24	1339610	0	0	0	0	0	0	0	0	0	0	0	0	0	0	0	0	0
090412	13:37:24	10040	pm.simpleEngRight	pm.simpleEng	2	57	301	0	0	13:37:24	1339943	0	0	0	0	0	0	0	0	0	0	0	0	0	0	0	0	0
090412	13:37:24	10040	pm.simpleEngRight	blank.simpleEng	2	0	1887	1	0	13:37:24	1341848	0	0	0	0	0	0	0	0	0	0	0	0	0	0	0	0	0
090412	13:37:24	10040	pm.simpleEngRight	pm.simpleEng	2	57	286	0	0	13:37:24	1342169	0	0	0	0	0	0	0	0	0	0	0	0	0	0	0	0	0
090412	13:37:24	10040	pm.simpleEngRight	blank.simpleEng	2	0	2087	1	0	13:37:24	1344274	0	0	0	0	0	0	0	0	0	0	0	0	0	0	0	0	0
090412	13:37:24	10040	pm.simpleEngRight	pm.simpleEng	2	57	388	0	0	13:37:24	1344701	0	0	0	0	0	0	0	0	0	0	0	0	0	0	0	0	0
090412	13:37:24	10040	pm.simpleEngRight	blank.simpleEng	2	0	2187	1	0	13:37:24	1346913	0	0	0	0	0	0	0	0	0	0	0	0	0	0	0	0	0
090412	13:37:24	10040	pm.simpleEngRight	pm.simpleEng	2	57	549	0	0	13:37:24	1347500	0	0	0	0	0	0	0	0	0	0	0	0	0	0	0	0	0
090412	13:37:24	10040	pm.simpleEngRight	blank.simpleEng	2	0	2387	1	0	13:37:24	1349912	0	0	0	0	0	0	0	0	0	0	0	0	0	0	0	0	0
090412	13:37:24	10040	pm.simpleEngRight	pm.simpleEng	2	57	446	0	0	13:37:24	1350392	0	0	0	0	0	0	0	0	0	0	0	0	0	0	0	0	0
090412	13:37:24	10040	pm.simpleEngRight	blank.simpleEng	2	0	1487	1	0	13:37:24	1351898	0	0	0	0	0	0	0	0	0	0	0	0	0	0	0	0	0
090412	13:37:24	10040	pm.simpleEngRight	pm.simpleEng	2	57	476	0	0	13:37:24	1352404	0	0	0	0	0	0	0	0	0	0	0	0	0	0	0	0	0
090412	13:37:24	10040	pm.simpleEngRight	blank.simpleEng	2	0	1787	1	0	13:37:24	1354217	0	0	0	0	0	0	0	0	0	0	0	0	0	0	0	0	0
090412	13:37:24	10040	pm.simpleEngRight	pm.simpleEng	2	57	349	0	0	13:37:24	1354604	0	0	0	0	0	0	0	0	0	0	0	0	0	0	0	0	0
090412	13:37:24	10040	pm.simpleEngRight	blank.simpleEng	2	0	1587	1	0	13:37:24	1356216	0	0	0	0	0	0	0	0	0	0	0	0	0	0	0	0	0
090412	13:37:24	10040	pm.simpleEngRight	pm.simpleEng	2	57	446	0	0	13:37:24	1356696	0	0	0	0	0	0	0	0	0	0	0	0	0	0	0	0	0
090412	13:37:24	10040	pm.simpleEngRight	blank.simpleEng	2	0	1987	1	0	13:37:24	1358709	0	0	0	0	0	0	0	0	0	0	0	0	0	0	0	0	0
090412	13:37:24	10040	pm.simpleEngRight	pm.simpleEng	2	57	306	0	0	13:37:24	1359055	0	0	0	0	0	0	0	0	0	0	0	0	0	0	0	0	0
090412	13:37:24	10040	pm.simpleEngRight	blank.simpleEng	2	0	1687	1	0	13:37:24	1360761	0	0	0	0	0	0	0	0	0	0	0	0	0	0	0	0	0
090412	13:37:24	10040	pm.simpleEngRight	pm.simpleEng	2	57	253	0	0	13:37:24	1361054	0	0	0	0	0	0	0	0	0	0	0	0	0	0	0	0	0
090412	13:37:24	10040	pm.simpleEngRight	blank.simpleEng	2	0	2187	1	0	13:37:24	1363267	0	0	0	0	0	0	0	0	0	0	0	0	0	0	0	0	0
090412	13:37:24	10040	pm.simpleEngRight	pm.simpleEng	2	57	307	0	0	13:37:24	1363613	0	0	0	0	0	0	0	0	0	0	0	0	0	0	0	0	0
090412	13:37:24	10040	pm.simpleEngRight	blank.simpleEng	2	0	2487	1	0	13:37:24	1366132	0	0	0	0	0	0	0	0	0	0	0	0	0	0	0	0	0
090412	13:37:24	10040	pm.simpleEngRight	pm.simpleEng	2	57	322	0	0	13:37:24	1366492	0	0	0	0	0	0	0	0	0	0	0	0	0	0	0	0	0
090412	13:37:24	10040	pm.simpleEngRight	blank.simpleEng	2	0	2087	1	0	13:37:24	1368611	0	0	0	0	0	0	0	0	0	0	0	0	0	0	0	0	0
090412	13:37:24	10040	pm.simpleEngRight	pm.simpleEng	2	57	354	0	0	13:37:24	1368998	0	0	0	0	0	0	0	0	0	0	0	0	0	0	0	0	0
090412	13:37:24	10040	pm.simpleEngRight	blank.simpleEng	2	0	2287	1	0	13:37:24	1371317	0	0	0	0	0	0	0	0	0	0	0	0	0	0	0	0	0
090412	13:37:24	10040	pm.simpleEngRight	pm.simpleEng	2	57	401	0	0	13:37:24	1371757	0	0	0	0	0	0	0	0	0	0	0	0	0	0	0	0	0
090412	13:37:24	10040	pm.simpleEngRight	blank.simpleEng	2	0	1887	1	0	13:37:24	1373676	0	0	0	0	0	0	0	0	0	0	0	0	0	0	0	0	0
090412	13:37:24	10040	pm.simpleEngRight	pm.simpleEng	2	57	442	0	0	13:37:24	1374156	0	0	0	0	0	0	0	0	0	0	0	0	0	0	0	0	0
090412	13:37:24	10040	pm.simpleEngRight	blank.simpleEng	2	0	1487	1	0	13:37:24	1375662	0	0	0	0	0	0	0	0	0	0	0	0	0	0	0	0	0
090412	13:37:24	10040	pm.simpleEngRight	pm.simpleEng	2	57	312	0	0	13:37:24	1376008	0	0	0	0	0	0	0	0	0	0	0	0	0	0	0	0	0
090412	13:37:24	10040	pm.simpleEngRight	blank.simpleEng	2	0	1587	1	0	13:37:24	1377621	0	0	0	0	0	0	0	0	0	0	0	0	0	0	0	0	0
090412	13:37:24	10040	pm.simpleEngRight	pm.simpleEng	2	57	289	0	0	13:37:24	1377941	0	0	0	0	0	0	0	0	0	0	0	0	0	0	0	0	0
090412	13:37:24	10040	pm.simpleEngRight	blank.simpleEng	2	0	2387	1	0	13:37:24	1380353	0	0	0	0	0	0	0	0	0	0	0	0	0	0	0	0	0
090412	13:37:24	10040	pm.simpleEngRight	pm.simpleEng	2	57	276	0	0	13:37:24	1380660	0	0	0	0	0	0	0	0	0	0	0	0	0	0	0	0	0
090412	13:37:24	10040	pm.simpleEngRight	blank.simpleEng	2	0	1787	1	0	13:37:24	1382472	0	0	0	0	0	0	0	0	0	0	0	0	0	0	0	0	0
090412	13:37:24	10040	pm.simpleEngRight	pm.simpleEng	2	57	349	0	0	13:37:24	1382859	0	0	0	0	0	0	0	0	0	0	0	0	0	0	0	0	0
090412	13:37:24	10040	pm.simpleEngRight	blank.simpleEng	2	0	1987	1	0	13:37:24	1384871	0	0	0	0	0	0	0	0	0	0	0	0	0	0	0	0	0
090412	13:37:24	10040	pm.simpleEngRight	pm.simpleEng	2	57	317	0	0	13:37:24	1385231	0	0	0	0	0	0	0	0	0	0	0	0	0	0	0	0	0
090412	13:37:24	10040	pm.simpleEngRight	blank.simpleEng	2	0	1787	1	0	13:37:24	1387044	0	0	0	0	0	0	0	0	0	0	0	0	0	0	0	0	0
090412	13:37:24	10040	pm.simpleEngRight	pm.simpleEng	2	57	353	0	0	13:37:24	1387430	0	0	0	0	0	0	0	0	0	0	0	0	0	0	0	0	0
090412	13:37:24	10040	pm.simpleEngRight	blank.simpleEng	2	0	2087	1	0	13:37:24	1389549	0	0	0	0	0	0	0	0	0	0	0	0	0	0	0	0	0
090412	13:37:24	10040	pm.simpleEngRight	pm.simpleEng	2	57	328	0	0	13:37:24	1389909	0	0	0	0	0	0	0	0	0	0	0	0	0	0	0	0	0
090412	13:37:24	10040	pm.simpleEngRight	blank.simpleEng	2	0	1687	1	0	13:37:24	1391615	0	0	0	0	0	0	0	0	0	0	0	0	0	0	0	0	0
090412	13:37:24	10040	pm.simpleEngRight	pm.simpleEng	2	57	310	0	0	13:37:24	1391962	0	0	0	0	0	0	0	0	0	0	0	0	0	0	0	0	0
090412	13:37:24	10040	pm.simpleEngRight	blank.simpleEng	2	0	2387	1	0	13:37:24	1394374	0	0	0	0	0	0	0	0	0	0	0	0	0	0	0	0	0
090412	13:37:24	10040	pm.simpleEngRight	pm.simpleEng	2	57	271	0	0	13:37:24	1394681	0	0	0	0	0	0	0	0	0	0	0	0	0	0	0	0	0
090412	13:37:24	10040	pm.simpleEngRight	blank.simpleEng	2	0	2187	1	0	13:37:24	1396893	0	0	0	0	0	0	0	0	0	0	0	0	0	0	0	0	0
090412	13:37:24	10040	pm.simpleEngRight	pm.simpleEng	2	57	392	0	0	13:37:24	1397320	0	0	0	0	0	0	0	0	0	0	0	0	0	0	0	0	0
090412	13:37:24	10040	pm.simpleEngRight	blank.simpleEng	2	0	1587	1	0	13:37:24	1398932	0	0	0	0	0	0	0	0	0	0	0	0	0	0	0	0	0
090412	13:37:24	10040	pm.simpleEngRight	pm.simpleEng	2	57	401	0	0	13:37:24	1399372	0	0	0	0	0	0	0	0	0	0	0	0	0	0	0	0	0
090412	13:37:24	10040	Trial2BackEng	N	3	0	1000	1	1	13:37:24	1484178	0	0	0	0	0	0	0	0	0	0	0	0	0	0	0	0	0
090412	13:37:24	10040	Trial2BackEng	N	3	0	1000	1	2	13:37:24	1485697	0	0	0	0	0	0	0	0	0	0	0	0	0	0	0	0	0
090412	13:37:24	10040	Trial2BackEng	N	3	0	1000	1	3	13:37:24	1487217	0	0	0	0	0	0	0	0	0	0	0	0	0	0	0	0	0
090412	13:37:24	10040	Trial2BackEng	N	3	0	1000	1	4	13:37:24	1488736	0	0	0	0	0	0	0	0	0	0	0	0	0	0	0	0	0
090412	13:37:24	10040	Trial2BackEng	N	3	0	1000	1	5	13:37:24	1490255	0	0	0	0	0	0	0	0	0	0	0	0	0	0	0	0	0
090412	13:37:24	10040	Trial2BackEng	N	3	0	1000	1	6	13:37:24	1491775	0	0	0	0	0	0	0	0	0	0	0	0	0	0	0	0	0
090412	13:37:24	10040	Trial2BackEng	N	3	0	1000	1	7	13:37:24	1493294	0	0	0	0	0	0	0	0	0	0	0	0	0	0	0	0	0
090412	13:37:24	10040	Trial2BackEng	N	3	0	1000	1	8	13:37:24	1494814	0	0	0	0	0	0	0	0	0	0	0	0	0	0	0	0	0
090412	13:37:24	10040	Trial2BackEng	Y	3	0	1000	0	8	13:37:24	1496333	0	0	0	0	0	0	0	0	0	0	0	0	0	0	0	0	0
090412	13:37:24	10040	Trial2BackEng	N	3	0	1000	1	9	13:37:24	1497852	0	0	0	0	0	0	0	0	0	0	0	0	0	0	0	0	0
090412	13:37:24	10040	Trial2BackEng	N	3	0	1000	1	10	13:37:24	1499372	0	0	0	0	0	0	0	0	0	0	0	0	0	0	0	0	0
090412	13:37:24	10040	Trial2BackEng	N	3	0	1000	1	11	13:37:24	1500891	0	0	0	0	0	0	0	0	0	0	0	0	0	0	0	0	0
090412	13:37:24	10040	Trial2BackEng	Y	3	57	780	1	12	13:37:24	1502197	0	0	0	0	0	0	0	0	0	0	0	0	0	0	0	0	0
090412	13:37:24	10040	Trial2BackEng	N	3	0	1000	1	13	13:37:24	1503917	0	0	0	0	0	0	0	0	0	0	0	0	0	0	0	0	0
090412	13:37:24	10040	Trial2BackEng	N	3	0	1000	1	14	13:37:24	1505436	0	0	0	0	0	0	0	0	0	0	0	0	0	0	0	0	0
090412	13:37:24	10040	Trial2BackEng	N	3	0	1000	1	15	13:37:24	1506955	0	0	0	0	0	0	0	0	0	0	0	0	0	0	0	0	0
090412	13:37:24	10040	Trial2BackEng	N	3	0	1000	1	16	13:37:24	1508475	0	0	0	0	0	0	0	0	0	0	0	0	0	0	0	0	0
090412	13:37:24	10040	Trial2BackEng	N	3	0	1000	1	17	13:37:24	1510008	0	0	0	0	0	0	0	0	0	0	0	0	0	0	0	0	0
090412	13:37:24	10040	Trial2BackEng	Y	3	57	592	1	18	13:37:24	1511127	0	0	0	0	0	0	0	0	0	0	0	0	0	0	0	0	0
090412	13:37:24	10040	Trial2BackEng	N	3	0	1000	1	19	13:37:24	1513033	0	0	0	0	0	0	0	0	0	0	0	0	0	0	0	0	0
090412	13:37:24	10040	Trial2BackEng	N	3	0	1000	1	20	13:37:24	1514552	0	0	0	0	0	0	0	0	0	0	0	0	0	0	0	0	0
090412	13:37:24	10040	Trial2BackEng	N	3	0	1000	1	21	13:37:24	1516071	0	0	0	0	0	0	0	0	0	0	0	0	0	0	0	0	0
090412	13:37:24	10040	Trial2BackEng	N	3	0	1000	1	22	13:37:24	1517591	0	0	0	0	0	0	0	0	0	0	0	0	0	0	0	0	0
090412	13:37:24	10040	Trial2BackEng	Y	3	57	736	1	23	13:37:24	1518857	0	0	0	0	0	0	0	0	0	0	0	0	0	0	0	0	0
090412	13:37:24	10040	Trial2BackEng	N	3	0	1000	1	24	13:37:24	1520617	0	0	0	0	0	0	0	0	0	0	0	0	0	0	0	0	0
090412	13:37:24	10040	Trial2BackEng	N	3	0	1000	1	25	13:37:24	1522136	0	0	0	0	0	0	0	0	0	0	0	0	0	0	0	0	0
090412	13:37:24	10040	Trial2BackEng	N	3	0	1000	1	26	13:37:24	1523655	0	0	0	0	0	0	0	0	0	0	0	0	0	0	0	0	0
090412	13:37:24	10040	Trial2BackEng	N	3	0	1000	1	27	13:37:24	1525175	0	0	0	0	0	0	0	0	0	0	0	0	0	0	0	0	0
090412	13:37:24	10040	Trial2BackEng	N	3	0	1000	1	28	13:37:24	1526694	0	0	0	0	0	0	0	0	0	0	0	0	0	0	0	0	0
090412	13:37:24	10040	Trial2BackEng	N	3	0	1000	1	29	13:37:24	1528213	0	0	0	0	0	0	0	0	0	0	0	0	0	0	0	0	0
090412	13:37:24	10040	Trial2BackEng	Y	3	57	657	1	30	13:37:24	1529400	0	0	0	0	0	0	0	0	0	0	0	0	0	0	0	0	0
090412	13:37:24	10040	Trial2BackEng	N	3	0	1000	1	31	13:37:24	1531239	0	0	0	0	0	0	0	0	0	0	0	0	0	0	0	0	0
090412	13:37:24	10040	Trial2BackEng	N	3	0	1000	1	32	13:37:24	1532758	0	0	0	0	0	0	0	0	0	0	0	0	0	0	0	0	0
090412	13:37:24	10040	Trial2BackEng	N	3	0	1000	1	33	13:37:24	1534278	0	0	0	0	0	0	0	0	0	0	0	0	0	0	0	0	0
090412	13:37:24	10040	Trial2BackEng	Y	3	57	593	1	34	13:37:24	1535397	0	0	0	0	0	0	0	0	0	0	0	0	0	0	0	0	0
090412	13:37:24	10040	Trial2BackEng	N	3	0	1000	1	35	13:37:24	1537303	0	0	0	0	0	0	0	0	0	0	0	0	0	0	0	0	0
090412	13:37:24	10040	Trial2BackEng	N	3	0	1000	1	36	13:37:24	1538822	0	0	0	0	0	0	0	0	0	0	0	0	0	0	0	0	0
090412	13:37:24	10040	Trial2BackEng	N	3	0	1000	1	37	13:37:24	1540342	0	0	0	0	0	0	0	0	0	0	0	0	0	0	0	0	0
090412	13:37:24	10040	Trial2BackEng	N	3	0	1000	1	38	13:37:24	1541861	0	0	0	0	0	0	0	0	0	0	0	0	0	0	0	0	0
090412	13:37:24	10040	Trial2BackEng	N	3	0	1000	1	39	13:37:24	1543380	0	0	0	0	0	0	0	0	0	0	0	0	0	0	0	0	0
090412	13:37:24	10040	Trial2BackEng	N	3	0	1000	1	40	13:37:24	1544900	0	0	0	0	0	0	0	0	0	0	0	0	0	0	0	0	0
090412	13:37:24	10040	Trial2BackEng	Y	3	57	642	1	41	13:37:24	1546073	0	0	0	0	0	0	0	0	0	0	0	0	0	0	0	0	0
090412	13:37:24	10040	Trial2BackEng	N	3	0	1000	1	42	13:37:24	1547925	0	0	0	0	0	0	0	0	0	0	0	0	0	0	0	0	0
090412	13:37:24	10040	Trial2BackEng	N	3	0	1000	1	43	13:37:24	1549445	0	0	0	0	0	0	0	0	0	0	0	0	0	0	0	0	0
090412	13:37:24	10040	Trial2BackEng	N	3	0	1000	1	44	13:37:24	1550965	0	0	0	0	0	0	0	0	0	0	0	0	0	0	0	0	0
090412	13:37:24	10040	Trial2BackEng	N	3	0	1000	1	45	13:37:24	1552484	0	0	0	0	0	0	0	0	0	0	0	0	0	0	0	0	0
090412	13:37:24	10040	Trial2BackEng	Y	3	57	467	1	46	13:37:24	1553483	0	0	0	0	0	0	0	0	0	0	0	0	0	0	0	0	0
090412	13:37:24	10040	Trial2BackEng	N	3	0	1000	1	47	13:37:24	1555509	0	0	0	0	0	0	0	0	0	0	0	0	0	0	0	0	0
090412	13:37:24	10040	Trial2BackEng	N	3	0	1000	1	48	13:37:24	1557029	0	0	0	0	0	0	0	0	0	0	0	0	0	0	0	0	0
090412	13:37:24	10040	Trial2BackEng	N	3	0	1000	1	49	13:37:24	1558548	0	0	0	0	0	0	0	0	0	0	0	0	0	0	0	0	0
090412	13:37:24	10040	Trial2BackEng	N	3	0	1000	1	50	13:37:24	1560067	0	0	0	0	0	0	0	0	0	0	0	0	0	0	0	0	0
090412	13:37:24	10040	Trial2BackEng	N	3	0	1000	1	51	13:37:24	1561586	0	0	0	0	0	0	0	0	0	0	0	0	0	0	0	0	0
090412	13:37:24	10040	Trial2BackEng	Y	3	57	675	1	52	13:37:24	1562786	0	0	0	0	0	0	0	0	0	0	0	0	0	0	0	0	0
090412	13:37:24	10040	Trial2BackEng	N	3	0	1000	1	53	13:37:24	1564612	0	0	0	0	0	0	0	0	0	0	0	0	0	0	0	0	0
090412	13:37:24	10040	Trial2BackEng	N	3	0	1000	1	54	13:37:24	1566131	0	0	0	0	0	0	0	0	0	0	0	0	0	0	0	0	0
090412	13:37:24	10040	Trial2BackEng	N	3	0	1000	1	55	13:37:24	1567651	0	0	0	0	0	0	0	0	0	0	0	0	0	0	0	0	0
090412	13:37:24	10040	Trial2BackEng	N	3	0	1000	1	56	13:37:24	1569170	0	0	0	0	0	0	0	0	0	0	0	0	0	0	0	0	0
090412	13:37:24	10040	Trial2BackEng	N	3	0	1000	1	57	13:37:24	1570690	0	0	0	0	0	0	0	0	0	0	0	0	0	0	0	0	0
090412	13:37:24	10040	Trial2BackEng	N	3	0	1000	1	58	13:37:24	1572209	0	0	0	0	0	0	0	0	0	0	0	0	0	0	0	0	0
090412	13:37:24	10040	Trial2BackEng	Y	3	57	581	1	59	13:37:24	1573315	0	0	0	0	0	0	0	0	0	0	0	0	0	0	0	0	0
090412	13:37:24	10040	Trial2BackEng	N	3	0	1000	1	60	13:37:24	1575234	0	0	0	0	0	0	0	0	0	0	0	0	0	0	0	0	0
090412	13:37:24	10040	Trial2BackEng	N	3	0	1000	1	61	13:37:24	1576754	0	0	0	0	0	0	0	0	0	0	0	0	0	0	0	0	0
090412	13:37:24	10040	Trial2BackEng	Y	3	57	564	1	62	13:37:24	1577847	0	0	0	0	0	0	0	0	0	0	0	0	0	0	0	0	0
090412	13:37:24	10040	Trial2BackEng	N	3	0	1000	1	63	13:37:24	1579779	0	0	0	0	0	0	0	0	0	0	0	0	0	0	0	0	0
090412	13:37:24	10040	Trial2BackEng	N	3	0	1000	1	64	13:37:24	1581299	0	0	0	0	0	0	0	0	0	0	0	0	0	0	0	0	0
090412	13:37:24	10040	Trial2BackEng	N	3	0	1000	1	65	13:37:24	1582818	0	0	0	0	0	0	0	0	0	0	0	0	0	0	0	0	0
090412	13:37:24	10040	Trial2BackEng	N	3	0	1000	1	66	13:37:24	1584337	0	0	0	0	0	0	0	0	0	0	0	0	0	0	0	0	0
090412	13:37:24	10040	Trial2BackEng	N	3	0	1000	1	67	13:37:24	1585857	0	0	0	0	0	0	0	0	0	0	0	0	0	0	0	0	0
090412	13:37:24	10040	Trial2BackEng	N	3	0	1000	1	68	13:37:24	1587376	0	0	0	0	0	0	0	0	0	0	0	0	0	0	0	0	0
090412	13:37:24	10040	Trial2BackEng	N	3	0	1000	1	69	13:37:24	1588895	0	0	0	0	0	0	0	0	0	0	0	0	0	0	0	0	0
090412	13:37:24	10040	Trial2BackEng	N	3	0	1000	1	70	13:37:24	1590415	0	0	0	0	0	0	0	0	0	0	0	0	0	0	0	0	0
090412	13:37:24	10040	Trial2BackEng	N	3	0	1000	1	71	13:37:24	1591934	0	0	0	0	0	0	0	0	0	0	0	0	0	0	0	0	0
090412	13:37:24	10040	Trial2BackEng	N	3	0	1000	1	72	13:37:24	1593454	0	0	0	0	0	0	0	0	0	0	0	0	0	0	0	0	0
090412	13:37:24	10040	Trial2BackEng	Y	3	57	855	1	73	13:37:24	1594840	0	0	0	0	0	0	0	0	0	0	0	0	0	0	0	0	0
090412	13:37:24	10040	Trial2BackEng	N	3	0	1000	1	74	13:37:24	1596479	0	0	0	0	0	0	0	0	0	0	0	0	0	0	0	0	0
090412	13:37:24	10040	Trial2BackEng	N	3	0	1000	1	75	13:37:24	1597998	0	0	0	0	0	0	0	0	0	0	0	0	0	0	0	0	0
090412	13:37:24	10040	Trial2BackEng	N	3	0	1000	1	76	13:37:24	1599518	0	0	0	0	0	0	0	0	0	0	0	0	0	0	0	0	0
090412	13:37:24	10040	Trial2BackEng	Y	3	0	1000	0	76	13:37:24	1601037	0	0	0	0	0	0	0	0	0	0	0	0	0	0	0	0	0
090412	13:37:24	10040	Trial2BackEng	N	3	0	1000	1	77	13:37:24	1602557	0	0	0	0	0	0	0	0	0	0	0	0	0	0	0	0	0
090412	13:37:24	10040	Trial2BackEng	N	3	0	1000	1	78	13:37:24	1604076	0	0	0	0	0	0	0	0	0	0	0	0	0	0	0	0	0
090412	13:37:24	10040	Trial2BackEng	N	3	0	1000	1	79	13:37:24	1605595	0	0	0	0	0	0	0	0	0	0	0	0	0	0	0	0	0
090412	13:37:24	10040	Trial2BackEng	N	3	0	1000	1	80	13:37:24	1607115	0	0	0	0	0	0	0	0	0	0	0	0	0	0	0	0	0
090412	13:37:24	10040	Trial2BackEng	N	3	0	1000	1	81	13:37:24	1608634	0	0	0	0	0	0	0	0	0	0	0	0	0	0	0	0	0
090412	13:37:24	10040	Trial2BackEng	Y	3	57	571	1	82	13:37:24	1609727	0	0	0	0	0	0	0	0	0	0	0	0	0	0	0	0	0
090412	13:37:24	10040	Trial2BackEng	N	3	0	1000	1	83	13:37:24	1611660	0	0	0	0	0	0	0	0	0	0	0	0	0	0	0	0	0
090412	13:37:24	10040	Trial2BackEng	N	3	0	1000	1	84	13:37:24	1613179	0	0	0	0	0	0	0	0	0	0	0	0	0	0	0	0	0
090412	13:37:24	10040	Trial2BackEng	N	3	0	1000	1	85	13:37:24	1614698	0	0	0	0	0	0	0	0	0	0	0	0	0	0	0	0	0
090412	13:37:24	10040	Trial2BackEng	N	3	0	1000	1	86	13:37:24	1616218	0	0	0	0	0	0	0	0	0	0	0	0	0	0	0	0	0
090412	13:37:24	10040	Trial2BackEng	N	3	0	1000	1	87	13:37:24	1617737	0	0	0	0	0	0	0	0	0	0	0	0	0	0	0	0	0
090412	13:37:24	10040	Trial2BackEng	N	3	0	1000	1	88	13:37:24	1619257	0	0	0	0	0	0	0	0	0	0	0	0	0	0	0	0	0
090412	13:37:24	10040	Trial2BackEng	N	3	0	1000	1	89	13:37:24	1620776	0	0	0	0	0	0	0	0	0	0	0	0	0	0	0	0	0
090412	13:37:24	10040	Trial2BackEng	N	3	0	1000	1	90	13:37:24	1622295	0	0	0	0	0	0	0	0	0	0	0	0	0	0	0	0	0
090412	13:37:24	10040	Trial2BackEng	N	3	0	1000	1	91	13:37:24	1623815	0	0	0	0	0	0	0	0	0	0	0	0	0	0	0	0	0
090412	13:37:24	10040	Trial2BackEng	Y	3	57	590	1	92	13:37:24	1624934	0	0	0	0	0	0	0	0	0	0	0	0	0	0	0	0	0
090412	13:37:24	10040	Trial2BackEng	N	3	0	1000	1	93	13:37:24	1626840	0	0	0	0	0	0	0	0	0	0	0	0	0	0	0	0	0
090412	13:37:24	10040	Trial2BackEng	N	3	0	1000	1	94	13:37:24	1628360	0	0	0	0	0	0	0	0	0	0	0	0	0	0	0	0	0
090412	13:37:24	10040	Trial2BackEng	N	3	0	1000	1	95	13:37:24	1629879	0	0	0	0	0	0	0	0	0	0	0	0	0	0	0	0	0
090412	13:37:24	10040	Trial2BackEng	N	3	0	1000	1	96	13:37:24	1631398	0	0	0	0	0	0	0	0	0	0	0	0	0	0	0	0	0
090412	13:37:24	10040	Trial2BackEng	N	3	0	1000	1	97	13:37:24	1632918	0	0	0	0	0	0	0	0	0	0	0	0	0	0	0	0	0
090412	13:37:24	10040	Trial2BackEng	N	3	0	1000	1	98	13:37:24	1634437	0	0	0	0	0	0	0	0	0	0	0	0	0	0	0	0	0
090412	13:37:24	10040	Trial2BackEng	N	3	0	1000	1	99	13:37:24	1635956	0	0	0	0	0	0	0	0	0	0	0	0	0	0	0	0	0
090412	13:37:24	10040	Trial2BackEng	N	3	0	1000	1	100	13:37:24	1637476	0	0	0	0	0	0	0	0	0	0	0	0	0	0	0	0	0
090412	13:37:24	10040	Trial2BackEng	Y	3	0	1000	0	100	13:37:24	1638995	0	0	0	0	0	0	0	0	0	0	0	0	0	0	0	0	0
090412	13:37:24	10040	Trial2BackEng	N	3	0	1000	1	101	13:37:24	1640515	0	0	0	0	0	0	0	0	0	0	0	0	0	0	0	0	0
090412	13:37:24	10040	Trial2BackEng	N	3	0	1000	1	102	13:37:24	1642034	0	0	0	0	0	0	0	0	0	0	0	0	0	0	0	0	0
090412	13:37:24	10040	Trial2BackEng	N	3	0	1000	1	103	13:37:24	1643553	0	0	0	0	0	0	0	0	0	0	0	0	0	0	0	0	0
090412	13:37:24	10040	Trial2BackEng	N	3	0	1000	1	104	13:37:24	1645073	0	0	0	0	0	0	0	0	0	0	0	0	0	0	0	0	0
090412	13:37:24	10040	Trial2BackEng	Y	3	57	659	1	105	13:37:24	1646259	0	0	0	0	0	0	0	0	0	0	0	0	0	0	0	0	0
090412	13:37:24	10040	Trial2BackEng	N	3	0	1000	1	106	13:37:24	1648098	0	0	0	0	0	0	0	0	0	0	0	0	0	0	0	0	0
090412	13:37:24	10040	Trial2BackEng	N	3	0	1000	1	107	13:37:24	1649617	0	0	0	0	0	0	0	0	0	0	0	0	0	0	0	0	0
090412	13:37:24	10040	Trial2BackEng	N	3	0	1000	1	108	13:37:24	1651137	0	0	0	0	0	0	0	0	0	0	0	0	0	0	0	0	0
090412	13:37:24	10040	Trial2BackEng	Y	3	57	563	1	109	13:37:24	1652230	0	0	0	0	0	0	0	0	0	0	0	0	0	0	0	0	0
090412	13:37:24	10040	Trial2BackEng	N	3	0	1000	1	110	13:37:24	1654162	0	0	0	0	0	0	0	0	0	0	0	0	0	0	0	0	0
090412	13:37:24	10040	Trial2BackEng	N	3	0	1000	1	111	13:37:24	1655682	0	0	0	0	0	0	0	0	0	0	0	0	0	0	0	0	0
090412	13:37:24	10040	Trial2BackEng	N	3	0	1000	1	112	13:37:24	1657201	0	0	0	0	0	0	0	0	0	0	0	0	0	0	0	0	0
090412	13:37:24	10040	Trial2BackEng	N	3	0	1000	1	113	13:37:24	1658721	0	0	0	0	0	0	0	0	0	0	0	0	0	0	0	0	0
090412	13:37:24	10040	Trial2BackEng	N	3	0	1000	1	114	13:37:24	1660240	0	0	0	0	0	0	0	0	0	0	0	0	0	0	0	0	0
090412	13:37:24	10040	Trial2BackEng	Y	3	57	868	1	115	13:37:24	1661639	0	0	0	0	0	0	0	0	0	0	0	0	0	0	0	0	0
090412	13:37:24	10040	Trial2BackEng	N	3	0	1000	1	116	13:37:24	1663265	0	0	0	0	0	0	0	0	0	0	0	0	0	0	0	0	0
090412	13:37:24	10040	Trial2BackEng	N	3	0	1000	1	117	13:37:24	1664785	0	0	0	0	0	0	0	0	0	0	0	0	0	0	0	0	0
090412	13:37:24	10040	Trial2BackEng	N	3	0	1000	1	118	13:37:24	1666304	0	0	0	0	0	0	0	0	0	0	0	0	0	0	0	0	0
090412	13:37:24	10040	Trial2BackEng	Y	3	0	1000	0	118	13:37:24	1667823	0	0	0	0	0	0	0	0	0	0	0	0	0	0	0	0	0
090412	13:37:24	10040	Trial3BackEng	NN	4	0	1000	1	118	13:37:24	1694106	0	0	0	0	0	0	0	0	0	0	0	0	0	0	0	0	0
090412	13:37:24	10040	Trial3BackEng	NN	4	0	1000	1	118	13:37:24	1695626	0	0	0	0	0	0	0	0	0	0	0	0	0	0	0	0	0
090412	13:37:24	10040	Trial3BackEng	NN	4	0	1000	1	118	13:37:24	1697145	0	0	0	0	0	0	0	0	0	0	0	0	0	0	0	0	0
090412	13:37:24	10040	Trial3BackEng	YY	4	57	442	1	118	13:37:24	1698118	0	0	0	0	0	0	0	0	0	0	0	0	0	0	0	0	0
090412	13:37:24	10040	Trial3BackEng	NN	4	0	1000	1	118	13:37:24	1700170	0	0	0	0	0	0	0	0	0	0	0	0	0	0	0	0	0
090412	13:37:24	10040	Trial3BackEng	NN	4	0	1000	1	118	13:37:24	1701690	0	0	0	0	0	0	0	0	0	0	0	0	0	0	0	0	0
090412	13:37:24	10040	Trial3BackEng	NN	4	0	1000	1	118	13:37:24	1703210	0	0	0	0	0	0	0	0	0	0	0	0	0	0	0	0	0
090412	13:37:24	10040	Trial3BackEng	NN	4	0	1000	1	118	13:37:24	1704728	0	0	0	0	0	0	0	0	0	0	0	0	0	0	0	0	0
090412	13:37:24	10040	Trial3BackEng	YY	4	0	1000	0	118	13:37:24	1706248	0	0	0	0	0	0	0	0	0	0	0	0	0	0	0	0	0
090412	13:37:24	10040	Trial3BackEng	NN	4	0	1000	1	118	13:37:24	1707767	0	0	0	0	0	0	0	0	0	0	0	0	0	0	0	0	0
090412	13:37:24	10040	Trial3BackEng	NN	4	0	1000	1	118	13:37:24	1709287	0	0	0	0	0	0	0	0	0	0	0	0	0	0	0	0	0
090412	13:37:24	10040	Trial3BackEng	NN	4	0	1000	1	118	13:37:24	1710806	0	0	0	0	0	0	0	0	0	0	0	0	0	0	0	0	0
090412	13:37:24	10040	Trial3BackEng	NN	4	0	1000	1	118	13:37:24	1712326	0	0	0	0	0	0	0	0	0	0	0	0	0	0	0	0	0
090412	13:37:24	10040	Trial3BackEng	NN	4	0	1000	1	118	13:37:24	1713845	0	0	0	0	0	0	0	0	0	0	0	0	0	0	0	0	0
090412	13:37:24	10040	Trial3BackEng	NN	4	0	1000	1	118	13:37:24	1715364	0	0	0	0	0	0	0	0	0	0	0	0	0	0	0	0	0
090412	13:37:24	10040	Trial3BackEng	NN	4	0	1000	1	118	13:37:24	1716884	0	0	0	0	0	0	0	0	0	0	0	0	0	0	0	0	0
090412	13:37:24	10040	Trial3BackEng	YY	4	0	1000	0	118	13:37:24	1718403	0	0	0	0	0	0	0	0	0	0	0	0	0	0	0	0	0
090412	13:37:24	10040	Trial3BackEng	NN	4	0	1000	1	118	13:37:24	1719922	0	0	0	0	0	0	0	0	0	0	0	0	0	0	0	0	0
090412	13:37:24	10040	Trial3BackEng	NN	4	0	1000	1	118	13:37:24	1721442	0	0	0	0	0	0	0	0	0	0	0	0	0	0	0	0	0
090412	13:37:24	10040	Trial3BackEng	NN	4	0	1000	1	118	13:37:24	1722961	0	0	0	0	0	0	0	0	0	0	0	0	0	0	0	0	0
090412	13:37:24	10040	Trial3BackEng	NN	4	57	977	0	118	13:37:24	1724467	0	0	0	0	0	0	0	0	0	0	0	0	0	0	0	0	0
090412	13:37:24	10040	Trial3BackEng	NN	4	0	1000	1	118	13:37:24	1725987	0	0	0	0	0	0	0	0	0	0	0	0	0	0	0	0	0
090412	13:37:24	10040	Trial3BackEng	YY	4	0	1000	0	118	13:37:24	1727506	0	0	0	0	0	0	0	0	0	0	0	0	0	0	0	0	0
090412	13:37:24	10040	Trial3BackEng	NN	4	0	1000	1	118	13:37:24	1729025	0	0	0	0	0	0	0	0	0	0	0	0	0	0	0	0	0
090412	13:37:24	10040	Trial3BackEng	NN	4	0	1000	1	118	13:37:24	1730545	0	0	0	0	0	0	0	0	0	0	0	0	0	0	0	0	0
090412	13:37:24	10040	Trial3BackEng	NN	4	0	1000	1	118	13:37:24	1732064	0	0	0	0	0	0	0	0	0	0	0	0	0	0	0	0	0
090412	13:37:24	10040	Trial3BackEng	YY	4	0	1000	0	118	13:37:24	1733584	0	0	0	0	0	0	0	0	0	0	0	0	0	0	0	0	0
090412	13:37:24	10040	Trial3BackEng	NN	4	0	1000	1	118	13:37:24	1735103	0	0	0	0	0	0	0	0	0	0	0	0	0	0	0	0	0
090412	13:37:24	10040	Trial3BackEng	NN	4	0	1000	1	118	13:37:24	1736622	0	0	0	0	0	0	0	0	0	0	0	0	0	0	0	0	0
090412	13:37:24	10040	Trial3BackEng	NN	4	0	1000	1	118	13:37:24	1738142	0	0	0	0	0	0	0	0	0	0	0	0	0	0	0	0	0
090412	13:37:24	10040	Trial3BackEng	YY	4	57	724	1	118	13:37:24	1739394	0	0	0	0	0	0	0	0	0	0	0	0	0	0	0	0	0
090412	13:37:24	10040	Trial3BackEng	NN	4	0	1000	1	118	13:37:24	1741167	0	0	0	0	0	0	0	0	0	0	0	0	0	0	0	0	0
090412	13:37:24	10040	Trial3BackEng	NN	4	0	1000	1	118	13:37:24	1742687	0	0	0	0	0	0	0	0	0	0	0	0	0	0	0	0	0
090412	13:37:24	10040	Trial3BackEng	NN	4	0	1000	1	118	13:37:24	1744206	0	0	0	0	0	0	0	0	0	0	0	0	0	0	0	0	0
090412	13:37:24	10040	Trial3BackEng	NN	4	0	1000	1	118	13:37:24	1745725	0	0	0	0	0	0	0	0	0	0	0	0	0	0	0	0	0
090412	13:37:24	10040	Trial3BackEng	NN	4	0	1000	1	118	13:37:24	1747245	0	0	0	0	0	0	0	0	0	0	0	0	0	0	0	0	0
090412	13:37:24	10040	Trial3BackEng	NN	4	0	1000	1	118	13:37:24	1748764	0	0	0	0	0	0	0	0	0	0	0	0	0	0	0	0	0
090412	13:37:24	10040	Trial3BackEng	NN	4	57	885	0	118	13:37:24	1750177	0	0	0	0	0	0	0	0	0	0	0	0	0	0	0	0	0
090412	13:37:24	10040	Trial3BackEng	NN	4	0	1000	1	118	13:37:24	1751790	0	0	0	0	0	0	0	0	0	0	0	0	0	0	0	0	0
090412	13:37:24	10040	Trial3BackEng	NN	4	0	1000	1	118	13:37:24	1753309	0	0	0	0	0	0	0	0	0	0	0	0	0	0	0	0	0
090412	13:37:24	10040	Trial3BackEng	NN	4	0	1000	1	118	13:37:24	1754828	0	0	0	0	0	0	0	0	0	0	0	0	0	0	0	0	0
090412	13:37:24	10040	Trial3BackEng	YY	4	0	1000	0	118	13:37:24	1756348	0	0	0	0	0	0	0	0	0	0	0	0	0	0	0	0	0
090412	13:37:24	10040	Trial3BackEng	NN	4	0	1000	1	118	13:37:24	1757867	0	0	0	0	0	0	0	0	0	0	0	0	0	0	0	0	0
090412	13:37:24	10040	Trial3BackEng	NN	4	0	1000	1	118	13:37:24	1759386	0	0	0	0	0	0	0	0	0	0	0	0	0	0	0	0	0
090412	13:37:24	10040	Trial3BackEng	NN	4	0	1000	1	118	13:37:24	1760906	0	0	0	0	0	0	0	0	0	0	0	0	0	0	0	0	0
090412	13:37:24	10040	Trial3BackEng	NN	4	0	1000	1	118	13:37:24	1762425	0	0	0	0	0	0	0	0	0	0	0	0	0	0	0	0	0
090412	13:37:24	10040	Trial3BackEng	YY	4	57	632	1	118	13:37:24	1763585	0	0	0	0	0	0	0	0	0	0	0	0	0	0	0	0	0
090412	13:37:24	10040	Trial3BackEng	NN	4	0	1000	1	118	13:37:24	1765451	0	0	0	0	0	0	0	0	0	0	0	0	0	0	0	0	0
090412	13:37:24	10040	Trial3BackEng	NN	4	0	1000	1	118	13:37:24	1766970	0	0	0	0	0	0	0	0	0	0	0	0	0	0	0	0	0
090412	13:37:24	10040	Trial3BackEng	NN	4	0	1000	1	118	13:37:24	1768489	0	0	0	0	0	0	0	0	0	0	0	0	0	0	0	0	0
090412	13:37:24	10040	Trial3BackEng	NN	4	0	1000	1	118	13:37:24	1770009	0	0	0	0	0	0	0	0	0	0	0	0	0	0	0	0	0
090412	13:37:24	10040	Trial3BackEng	NN	4	0	1000	1	118	13:37:24	1771528	0	0	0	0	0	0	0	0	0	0	0	0	0	0	0	0	0
090412	13:37:24	10040	Trial3BackEng	YY	4	57	553	1	118	13:37:24	1772608	0	0	0	0	0	0	0	0	0	0	0	0	0	0	0	0	0
090412	13:37:24	10040	Trial3BackEng	NN	4	0	1000	1	118	13:37:24	1774554	0	0	0	0	0	0	0	0	0	0	0	0	0	0	0	0	0
090412	13:37:24	10040	Trial3BackEng	NN	4	0	1000	1	118	13:37:24	1776073	0	0	0	0	0	0	0	0	0	0	0	0	0	0	0	0	0
090412	13:37:24	10040	Trial3BackEng	NN	4	0	1000	1	118	13:37:24	1777592	0	0	0	0	0	0	0	0	0	0	0	0	0	0	0	0	0
090412	13:37:24	10040	Trial3BackEng	NN	4	0	1000	1	118	13:37:24	1779112	0	0	0	0	0	0	0	0	0	0	0	0	0	0	0	0	0
090412	13:37:24	10040	Trial3BackEng	NN	4	0	1000	1	118	13:37:24	1780631	0	0	0	0	0	0	0	0	0	0	0	0	0	0	0	0	0
090412	13:37:24	10040	Trial3BackEng	NN	4	0	1000	1	118	13:37:24	1782150	0	0	0	0	0	0	0	0	0	0	0	0	0	0	0	0	0
090412	13:37:24	10040	Trial3BackEng	YY	4	0	1000	0	118	13:37:24	1783670	0	0	0	0	0	0	0	0	0	0	0	0	0	0	0	0	0
090412	13:37:24	10040	Trial3BackEng	NN	4	0	1000	1	118	13:37:24	1785189	0	0	0	0	0	0	0	0	0	0	0	0	0	0	0	0	0
090412	13:37:24	10040	Trial3BackEng	NN	4	0	1000	1	118	13:37:24	1786709	0	0	0	0	0	0	0	0	0	0	0	0	0	0	0	0	0
090412	13:37:24	10040	Trial3BackEng	NN	4	0	1000	1	118	13:37:24	1788228	0	0	0	0	0	0	0	0	0	0	0	0	0	0	0	0	0
090412	13:37:24	10040	Trial3BackEng	YY	4	0	1000	0	118	13:37:24	1789747	0	0	0	0	0	0	0	0	0	0	0	0	0	0	0	0	0
090412	13:37:24	10040	Trial3BackEng	NN	4	0	1000	1	118	13:37:24	1791267	0	0	0	0	0	0	0	0	0	0	0	0	0	0	0	0	0
090412	13:37:24	10040	Trial3BackEng	NN	4	0	1000	1	118	13:37:24	1792786	0	0	0	0	0	0	0	0	0	0	0	0	0	0	0	0	0
090412	13:37:24	10040	Trial3BackEng	NN	4	0	1000	1	118	13:37:24	1794306	0	0	0	0	0	0	0	0	0	0	0	0	0	0	0	0	0
090412	13:37:24	10040	Trial3BackEng	NN	4	0	1000	1	118	13:37:24	1795825	0	0	0	0	0	0	0	0	0	0	0	0	0	0	0	0	0
090412	13:37:24	10040	Trial3BackEng	NN	4	0	1000	1	118	13:37:24	1797345	0	0	0	0	0	0	0	0	0	0	0	0	0	0	0	0	0
090412	13:37:24	10040	Trial3BackEng	NN	4	0	1000	1	118	13:37:24	1798864	0	0	0	0	0	0	0	0	0	0	0	0	0	0	0	0	0
090412	13:37:24	10040	Trial3BackEng	NN	4	0	1000	1	118	13:37:24	1800383	0	0	0	0	0	0	0	0	0	0	0	0	0	0	0	0	0
090412	13:37:24	10040	Trial3BackEng	NN	4	0	1000	1	118	13:37:24	1801903	0	0	0	0	0	0	0	0	0	0	0	0	0	0	0	0	0
090412	13:37:24	10040	Trial3BackEng	NN	4	0	1000	1	118	13:37:24	1803422	0	0	0	0	0	0	0	0	0	0	0	0	0	0	0	0	0
090412	13:37:24	10040	Trial3BackEng	YY	4	0	1000	0	118	13:37:24	1804941	0	0	0	0	0	0	0	0	0	0	0	0	0	0	0	0	0
090412	13:37:24	10040	Trial3BackEng	NN	4	0	1000	1	118	13:37:24	1806461	0	0	0	0	0	0	0	0	0	0	0	0	0	0	0	0	0
090412	13:37:24	10040	Trial3BackEng	NN	4	0	1000	1	118	13:37:24	1807980	0	0	0	0	0	0	0	0	0	0	0	0	0	0	0	0	0
090412	13:37:24	10040	Trial3BackEng	NN	4	0	1000	1	118	13:37:24	1809500	0	0	0	0	0	0	0	0	0	0	0	0	0	0	0	0	0
090412	13:37:24	10040	Trial3BackEng	YY	4	57	885	1	118	13:37:24	1810912	0	0	0	0	0	0	0	0	0	0	0	0	0	0	0	0	0
090412	13:37:24	10040	Trial3BackEng	NN	4	0	1000	1	118	13:37:24	1812525	0	0	0	0	0	0	0	0	0	0	0	0	0	0	0	0	0
090412	13:37:24	10040	Trial3BackEng	NN	4	0	1000	1	118	13:37:24	1814044	0	0	0	0	0	0	0	0	0	0	0	0	0	0	0	0	0
090412	13:37:24	10040	Trial3BackEng	NN	4	0	1000	1	118	13:37:24	1815564	0	0	0	0	0	0	0	0	0	0	0	0	0	0	0	0	0
090412	13:37:24	10040	Trial3BackEng	NN	4	0	1000	1	118	13:37:24	1817083	0	0	0	0	0	0	0	0	0	0	0	0	0	0	0	0	0
090412	13:37:24	10040	Trial3BackEng	NN	4	0	1000	1	118	13:37:24	1818603	0	0	0	0	0	0	0	0	0	0	0	0	0	0	0	0	0
090412	13:37:24	10040	Trial3BackEng	YY	4	57	501	1	118	13:37:24	1819629	0	0	0	0	0	0	0	0	0	0	0	0	0	0	0	0	0
090412	13:37:24	10040	Trial3BackEng	NN	4	0	1000	1	118	13:37:24	1821628	0	0	0	0	0	0	0	0	0	0	0	0	0	0	0	0	0
090412	13:37:24	10040	Trial3BackEng	NN	4	0	1000	1	118	13:37:24	1823147	0	0	0	0	0	0	0	0	0	0	0	0	0	0	0	0	0
090412	13:37:24	10040	Trial3BackEng	NN	4	0	1000	1	118	13:37:24	1824667	0	0	0	0	0	0	0	0	0	0	0	0	0	0	0	0	0
090412	13:37:24	10040	Trial3BackEng	NN	4	0	1000	1	118	13:37:24	1826186	0	0	0	0	0	0	0	0	0	0	0	0	0	0	0	0	0
090412	13:37:24	10040	Trial3BackEng	NN	4	0	1000	1	118	13:37:24	1827706	0	0	0	0	0	0	0	0	0	0	0	0	0	0	0	0	0
090412	13:37:24	10040	Trial3BackEng	NN	4	0	1000	1	118	13:37:24	1829225	0	0	0	0	0	0	0	0	0	0	0	0	0	0	0	0	0
090412	13:37:24	10040	Trial3BackEng	NN	4	0	1000	1	118	13:37:24	1830744	0	0	0	0	0	0	0	0	0	0	0	0	0	0	0	0	0
090412	13:37:24	10040	Trial3BackEng	NN	4	0	1000	1	118	13:37:24	1832264	0	0	0	0	0	0	0	0	0	0	0	0	0	0	0	0	0
090412	13:37:24	10040	Trial3BackEng	NN	4	0	1000	1	118	13:37:24	1833783	0	0	0	0	0	0	0	0	0	0	0	0	0	0	0	0	0
090412	13:37:24	10040	Trial3BackEng	YY	4	57	472	1	118	13:37:24	1834782	0	0	0	0	0	0	0	0	0	0	0	0	0	0	0	0	0
090412	13:37:24	10040	Trial3BackEng	NN	4	0	1000	1	118	13:37:24	1836809	0	0	0	0	0	0	0	0	0	0	0	0	0	0	0	0	0
090412	13:37:24	10040	Trial3BackEng	NN	4	0	1000	1	118	13:37:24	1838328	0	0	0	0	0	0	0	0	0	0	0	0	0	0	0	0	0
090412	13:37:24	10040	Trial3BackEng	NN	4	0	1000	1	118	13:37:24	1839847	0	0	0	0	0	0	0	0	0	0	0	0	0	0	0	0	0
090412	13:37:24	10040	Trial3BackEng	NN	4	0	1000	1	118	13:37:24	1841367	0	0	0	0	0	0	0	0	0	0	0	0	0	0	0	0	0
090412	13:37:24	10040	Trial3BackEng	NN	4	0	1000	1	118	13:37:24	1842886	0	0	0	0	0	0	0	0	0	0	0	0	0	0	0	0	0
090412	13:37:24	10040	Trial3BackEng	NN	4	0	1000	1	118	13:37:24	1844405	0	0	0	0	0	0	0	0	0	0	0	0	0	0	0	0	0
090412	13:37:24	10040	Trial3BackEng	NN	4	0	1000	1	118	13:37:24	1845925	0	0	0	0	0	0	0	0	0	0	0	0	0	0	0	0	0
090412	13:37:24	10040	Trial3BackEng	NN	4	0	1000	1	118	13:37:24	1847444	0	0	0	0	0	0	0	0	0	0	0	0	0	0	0	0	0
090412	13:37:24	10040	Trial3BackEng	YY	4	0	1000	0	118	13:37:24	1848964	0	0	0	0	0	0	0	0	0	0	0	0	0	0	0	0	0
090412	13:37:24	10040	Trial3BackEng	NN	4	0	1000	1	118	13:37:24	1850483	0	0	0	0	0	0	0	0	0	0	0	0	0	0	0	0	0
090412	13:37:24	10040	Trial3BackEng	NN	4	0	1000	1	118	13:37:24	1852002	0	0	0	0	0	0	0	0	0	0	0	0	0	0	0	0	0
090412	13:37:24	10040	Trial3BackEng	NN	4	0	1000	1	118	13:37:24	1853522	0	0	0	0	0	0	0	0	0	0	0	0	0	0	0	0	0
090412	13:37:24	10040	Trial3BackEng	NN	4	0	1000	1	118	13:37:24	1855041	0	0	0	0	0	0	0	0	0	0	0	0	0	0	0	0	0
090412	13:37:24	10040	Trial3BackEng	YY	4	0	1000	0	118	13:37:24	1856561	0	0	0	0	0	0	0	0	0	0	0	0	0	0	0	0	0
090412	13:37:24	10040	Trial3BackEng	NN	4	57	846	0	118	13:37:24	1857933	0	0	0	0	0	0	0	0	0	0	0	0	0	0	0	0	0
090412	13:37:24	10040	Trial3BackEng	NN	4	0	1000	1	118	13:37:24	1859586	0	0	0	0	0	0	0	0	0	0	0	0	0	0	0	0	0
090412	13:37:24	10040	Trial3BackEng	NN	4	0	1000	1	118	13:37:24	1861105	0	0	0	0	0	0	0	0	0	0	0	0	0	0	0	0	0
090412	13:37:24	10040	Trial3BackEng	YY	4	0	1000	0	118	13:37:24	1862625	0	0	0	0	0	0	0	0	0	0	0	0	0	0	0	0	0
090412	13:37:24	10040	Trial3BackEng	NN	4	0	1000	1	118	13:37:24	1864144	0	0	0	0	0	0	0	0	0	0	0	0	0	0	0	0	0
090412	13:37:24	10040	Trial3BackEng	NN	4	0	1000	1	118	13:37:24	1865663	0	0	0	0	0	0	0	0	0	0	0	0	0	0	0	0	0
090412	13:37:24	10040	Trial3BackEng	NN	4	57	927	0	118	13:37:24	1867116	0	0	0	0	0	0	0	0	0	0	0	0	0	0	0	0	0
090412	13:37:24	10040	Trial3BackEng	NN	4	0	1000	1	118	13:37:24	1868689	0	0	0	0	0	0	0	0	0	0	0	0	0	0	0	0	0
090412	13:37:24	10040	Trial3BackEng	NN	4	0	1000	1	118	13:37:24	1870208	0	0	0	0	0	0	0	0	0	0	0	0	0	0	0	0	0
090412	13:37:24	10040	Trial3BackEng	YY	4	0	1000	0	118	13:37:24	1871728	0	0	0	0	0	0	0	0	0	0	0	0	0	0	0	0	0
090412	13:37:24	10040	Trial3BackEng	NN	4	0	1000	1	118	13:37:24	1873247	0	0	0	0	0	0	0	0	0	0	0	0	0	0	0	0	0
090412	13:37:24	10040	Trial3BackEng	NN	4	0	1000	1	118	13:37:24	1874767	0	0	0	0	0	0	0	0	0	0	0	0	0	0	0	0	0
090412	13:37:24	10040	Trial3BackEng	NN	4	0	1000	1	118	13:37:24	1876286	0	0	0	0	0	0	0	0	0	0	0	0	0	0	0	0	0
090412	13:37:24	10040	Trial3BackEng	YY	4	57	833	1	118	13:37:24	1877645	0	0	0	0	0	0	0	0	0	0	0	0	0	0	0	0	0
090412	13:37:24	10040	Memory1RBaseline	Score	5	M1	20091	0	118	13:37:24	1953336	0	0	0	0	0	0	0	0	0	0	0	0	0	0	0	0	0
090412	13:37:24	10040	Memory1RBaseline	Score	5	M2	274	0	118	13:37:24	1953655	0	0	0	0	0	0	0	0	0	0	0	0	0	0	0	0	0
090412	13:37:24	10040	Memory1RBaseline	Score	5	M3	289	0	118	13:37:24	1953988	0	0	0	0	0	0	0	0	0	0	0	0	0	0	0	0	0
090412	13:37:24	10040	Memory1RBaseline	Score	5	M5	316	0	118	13:37:24	1954348	0	0	0	0	0	0	0	0	0	0	0	0	0	0	0	0	0
090412	13:37:24	10040	Memory1RBaseline	Score	5	M4	388	0	118	13:37:24	1954774	0	0	0	0	0	0	0	0	0	0	0	0	0	0	0	0	0
090412	13:37:24	10040	Memory1RBaseline	Score	5	Done	15242	0	118	13:37:24	1970061	0	0	0	0	0	0	0	0	0	0	0	0	0	0	0	0	0
090412	13:37:24	10040	Memory2RBaseline	Score2	5	11	19961	0	118	13:37:24	2011738	0	0	0	0	0	0	0	0	0	0	0	0	0	0	0	0	0
090412	13:37:24	10040	Memory2RBaseline	Score2	5	22	213	0	118	13:37:24	2011991	0	0	0	0	0	0	0	0	0	0	0	0	0	0	0	0	0
090412	13:37:24	10040	Memory2RBaseline	Score2	5	44	1775	0	118	13:37:24	2013804	0	0	0	0	0	0	0	0	0	0	0	0	0	0	0	0	0
090412	13:37:24	10040	Memory2RBaseline	Score2	5	55	179	0	118	13:37:24	2014017	0	0	0	0	0	0	0	0	0	0	0	0	0	0	0	0	0
090412	13:37:24	10040	Memory2RBaseline	Score2	5	77	1582	0	118	13:37:24	2015643	0	0	0	0	0	0	0	0	0	0	0	0	0	0	0	0	0
090412	13:37:24	10040	Memory2RBaseline	Score2	5	Done	19523	0	118	13:37:24	2035208	0	0	0	0	0	0	0	0	0	0	0	0	0	0	0	0	0
090412	13:37:24	10040	Memory3RBaseline	Score3	5	111	20864	0	118	13:37:24	2078551	0	0	0	0	0	0	0	0	0	0	0	0	0	0	0	0	0
090412	13:37:24	10040	Memory3RBaseline	Score3	5	222	238	0	118	13:37:24	2078831	0	0	0	0	0	0	0	0	0	0	0	0	0	0	0	0	0
090412	13:37:24	10040	Memory3RBaseline	Score3	5	555	1318	0	118	13:37:24	2080190	0	0	0	0	0	0	0	0	0	0	0	0	0	0	0	0	0
090412	13:37:24	10040	Memory3RBaseline	Score3	5	444	1959	0	118	13:37:24	2082189	0	0	0	0	0	0	0	0	0	0	0	0	0	0	0	0	0
090412	13:37:24	10040	Memory3RBaseline	Score3	5	777	4096	0	118	13:37:24	2086321	0	0	0	0	0	0	0	0	0	0	0	0	0	0	0	0	0
090412	13:37:24	10040	Memory3RBaseline	Score3	5	888	1932	0	118	13:37:24	2088294	0	0	0	0	0	0	0	0	0	0	0	0	0	0	0	0	0
090412	13:37:24	10040	Memory3RBaseline	Score3	5	333	759	0	118	13:37:24	2089093	0	0	0	0	0	0	0	0	0	0	0	0	0	0	0	0	0
090412	13:37:24	10040	Memory3RBaseline	Score3	5	Done	13855	0	118	13:37:24	2102994	0	0	0	0	0	0	0	0	0	0	0	0	0	0	0	0	0
090412	13:37:24	10040	LoriaEngLH3	Stop	6	6	11004	0	118	13:37:24	2225920	0	0	0	0	0	0	0	0	0	0	0	0	0	0	0	0	0
090412	13:37:24	10040	EngTrail	Trails	7	1Trails	890	0	118	13:37:24	2271860	0	0	0	0	0	0	0	0	0	0	0	0	0	0	0	0	0
090412	13:37:24	10040	Serial7EngBaseline	Serial7EngBaseline	8	83	45266	0	118	13:37:24	2337491	1	0	0	0	0	0	0	0	0	0	0	0	0	0	0	0	0
090412	13:37:24	10040	Serial7EngBaseline	Serial7EngBaseline	8	76	2336	0	118	13:37:24	2339851	2	0	0	0	0	0	0	0	0	0	0	0	0	0	0	0	0
090412	13:37:24	10040	Serial7EngBaseline	Serial7EngBaseline	8	69	1837	0	118	13:37:24	2341717	3	0	0	0	0	0	0	0	0	0	0	0	0	0	0	0	0
090412	13:37:24	10040	Serial7EngBaseline	Serial7EngBaseline	8	62	1876	0	118	13:37:24	2343610	4	0	0	0	0	0	0	0	0	0	0	0	0	0	0	0	0
090412	13:37:24	10040	Serial7EngBaseline	Serial7EngBaseline	8	55	2000	0	118	13:37:24	2345637	5	0	0	0	0	0	0	0	0	0	0	0	0	0	0	0	0
090412	13:37:24	10040	corsiblockEngFwrd	recallseqEngFwrd	9	3	671	0	118	13:37:24	2385926	5	0	0	0	0	0	0	0	0	0	0	0	0	0	0	0	0
090412	13:37:24	10040	corsiblockEngFwrd	recallseqEngFwrd	9	6	837	0	118	13:37:24	2386806	5	0	0	0	0	0	0	0	0	0	0	0	0	0	0	0	0
090412	13:37:24	10040	corsiblockEngFwrd	recallseqEngFwrd	9	doneCorsiEng	2213	0	118	13:37:24	2389058	5	0	0	0	0	0	0	0	0	0	0	0	0	0	0	2	0
090412	13:37:24	10040	corsiblockEngFwrd	recallseqEngFwrd	9	9	1198	0	118	13:37:24	2396349	5	0	0	0	0	0	0	0	0	0	0	0	0	0	0	2	0
090412	13:37:24	10040	corsiblockEngFwrd	recallseqEngFwrd	9	2	1022	0	118	13:37:24	2397415	5	0	0	0	0	0	0	0	0	0	0	0	0	0	0	2	0
090412	13:37:24	10040	corsiblockEngFwrd	recallseqEngFwrd	9	8	717	0	118	13:37:24	2398175	5	0	0	0	0	0	0	0	0	0	0	0	0	0	0	2	0
090412	13:37:24	10040	corsiblockEngFwrd	recallseqEngFwrd	9	doneCorsiEng	1092	0	118	13:37:24	2399307	5	0	0	0	0	0	0	0	0	0	0	0	0	0	0	3	0
090412	13:37:24	10040	corsiblockEngFwrd	recallseqEngFwrd	9	1	902	0	118	13:37:24	2407304	5	0	0	0	0	0	0	0	0	0	0	0	0	0	0	3	0
090412	13:37:24	10040	corsiblockEngFwrd	recallseqEngFwrd	9	4	755	0	118	13:37:24	2408104	5	0	0	0	0	0	0	0	0	0	0	0	0	0	0	3	0
090412	13:37:24	10040	corsiblockEngFwrd	recallseqEngFwrd	9	7	756	0	118	13:37:24	2408904	5	0	0	0	0	0	0	0	0	0	0	0	0	0	0	3	0
090412	13:37:24	10040	corsiblockEngFwrd	recallseqEngFwrd	9	5	892	0	118	13:37:24	2409836	5	0	0	0	0	0	0	0	0	0	0	0	0	0	0	3	0
090412	13:37:24	10040	corsiblockEngFwrd	recallseqEngFwrd	9	doneCorsiEng	831	0	118	13:37:24	2410703	5	0	0	0	0	0	0	0	0	0	0	0	0	0	0	4	0
090412	13:37:24	10040	corsiblockEngFwrd	recallseqEngFwrd	9	2	938	0	118	13:37:24	2419726	5	0	0	0	0	0	0	0	0	0	0	0	0	0	0	4	0
090412	13:37:24	10040	corsiblockEngFwrd	recallseqEngFwrd	9	9	1013	0	118	13:37:24	2420779	5	0	0	0	0	0	0	0	0	0	0	0	0	0	0	4	0
090412	13:37:24	10040	corsiblockEngFwrd	recallseqEngFwrd	9	4	856	0	118	13:37:24	2421672	5	0	0	0	0	0	0	0	0	0	0	0	0	0	0	4	0
090412	13:37:24	10040	corsiblockEngFwrd	recallseqEngFwrd	9	5	2619	0	118	13:37:24	2424324	5	0	0	0	0	0	0	0	0	0	0	0	0	0	0	4	0
090412	13:37:24	10040	corsiblockEngFwrd	recallseqEngFwrd	9	1	984	0	118	13:37:24	2425350	5	0	0	0	0	0	0	0	0	0	0	0	0	0	0	4	0
090412	13:37:24	10040	corsiblockEngFwrd	recallseqEngFwrd	9	6	1053	0	118	13:37:24	2426443	5	0	0	0	0	0	0	0	0	0	0	0	0	0	0	4	0
090412	13:37:24	10040	corsiblockEngFwrd	recallseqEngFwrd	9	doneCorsiEng	872	0	118	13:37:24	2427350	5	0	0	0	0	0	0	0	0	0	0	0	0	0	0	4	0
090412	13:37:24	10040	corsiblockEngFwrd	recallseqEngFwrd	9	5	803	0	118	13:37:24	2436199	5	0	0	0	0	0	0	0	0	0	0	0	0	0	0	4	0
090412	13:37:24	10040	corsiblockEngFwrd	recallseqEngFwrd	9	8	988	0	118	13:37:24	2437226	5	0	0	0	0	0	0	0	0	0	0	0	0	0	0	4	0
090412	13:37:24	10040	corsiblockEngFwrd	recallseqEngFwrd	9	2	1937	0	118	13:37:24	2439198	5	0	0	0	0	0	0	0	0	0	0	0	0	0	0	4	0
090412	13:37:24	10040	corsiblockEngFwrd	recallseqEngFwrd	9	7	789	0	118	13:37:24	2440024	5	0	0	0	0	0	0	0	0	0	0	0	0	0	0	4	0
090412	13:37:24	10040	corsiblockEngFwrd	recallseqEngFwrd	9	3	978	0	118	13:37:24	2441037	5	0	0	0	0	0	0	0	0	0	0	0	0	0	0	4	0
090412	13:37:24	10040	corsiblockEngFwrd	recallseqEngFwrd	9	5	2325	0	118	13:37:24	2443396	5	0	0	0	0	0	0	0	0	0	0	0	0	0	0	4	0
090412	13:37:24	10040	corsiblockEngFwrd	recallseqEngFwrd	9	doneCorsiEng	1318	0	118	13:37:24	2444756	5	0	0	0	0	0	0	0	0	0	0	0	0	0	0	4	0
090412	13:37:24	10040	corsiblockEngRev	recallseqEngRev	10	3	1731	0	118	13:37:24	2460003	5	0	0	0	0	0	0	0	0	0	0	0	0	0	0	4	0
090412	13:37:24	10040	corsiblockEngRev	recallseqEngRev	10	8	895	0	118	13:37:24	2460936	5	0	0	0	0	0	0	0	0	0	0	0	0	0	0	4	0
090412	13:37:24	10040	corsiblockEngRev	recallseqEngRev	10	doneCorsiEng	1242	0	118	13:37:24	2462215	5	0	0	0	0	0	0	0	0	0	0	0	0	0	0	4	2
090412	13:37:24	10040	corsiblockEngRev	recallseqEngRev	10	5	640	0	118	13:37:24	2468946	5	0	0	0	0	0	0	0	0	0	0	0	0	0	0	4	2
090412	13:37:24	10040	corsiblockEngRev	recallseqEngRev	10	4	472	0	118	13:37:24	2469453	5	0	0	0	0	0	0	0	0	0	0	0	0	0	0	4	2
090412	13:37:24	10040	corsiblockEngRev	recallseqEngRev	10	6	1230	0	118	13:37:24	2470719	5	0	0	0	0	0	0	0	0	0	0	0	0	0	0	4	2
090412	13:37:24	10040	corsiblockEngRev	recallseqEngRev	10	doneCorsiEng	939	0	118	13:37:24	2471692	5	0	0	0	0	0	0	0	0	0	0	0	0	0	0	4	3
090412	13:37:24	10040	corsiblockEngRev	recallseqEngRev	10	1	908	0	118	13:37:24	2479688	5	0	0	0	0	0	0	0	0	0	0	0	0	0	0	4	3
090412	13:37:24	10040	corsiblockEngRev	recallseqEngRev	10	9	1033	0	118	13:37:24	2480755	5	0	0	0	0	0	0	0	0	0	0	0	0	0	0	4	3
090412	13:37:24	10040	corsiblockEngRev	recallseqEngRev	10	2	663	0	118	13:37:24	2481461	5	0	0	0	0	0	0	0	0	0	0	0	0	0	0	4	3
090412	13:37:24	10040	corsiblockEngRev	recallseqEngRev	10	7	869	0	118	13:37:24	2482367	5	0	0	0	0	0	0	0	0	0	0	0	0	0	0	4	3
090412	13:37:24	10040	corsiblockEngRev	recallseqEngRev	10	doneCorsiEng	1714	0	118	13:37:24	2484127	5	0	0	0	0	0	0	0	0	0	0	0	0	0	0	4	4
090412	13:37:24	10040	corsiblockEngRev	recallseqEngRev	10	9	969	0	118	13:37:24	2493190	5	0	0	0	0	0	0	0	0	0	0	0	0	0	0	4	4
090412	13:37:24	10040	corsiblockEngRev	recallseqEngRev	10	3	1052	0	118	13:37:24	2494282	5	0	0	0	0	0	0	0	0	0	0	0	0	0	0	4	4
090412	13:37:24	10040	corsiblockEngRev	recallseqEngRev	10	5	839	0	118	13:37:24	2495162	5	0	0	0	0	0	0	0	0	0	0	0	0	0	0	4	4
090412	13:37:24	10040	corsiblockEngRev	recallseqEngRev	10	2	743	0	118	13:37:24	2495948	5	0	0	0	0	0	0	0	0	0	0	0	0	0	0	4	4
090412	13:37:24	10040	corsiblockEngRev	recallseqEngRev	10	1	733	0	118	13:37:24	2496722	5	0	0	0	0	0	0	0	0	0	0	0	0	0	0	4	4
090412	13:37:24	10040	corsiblockEngRev	recallseqEngRev	10	doneCorsiEng	1256	0	118	13:37:24	2498014	5	0	0	0	0	0	0	0	0	0	0	0	0	0	0	4	4
090412	13:37:24	10040	corsiblockEngRev	recallseqEngRev	10	5	1705	0	118	13:37:24	2507770	5	0	0	0	0	0	0	0	0	0	0	0	0	0	0	4	4
090412	13:37:24	10040	corsiblockEngRev	recallseqEngRev	10	4	1367	0	118	13:37:24	2509183	5	0	0	0	0	0	0	0	0	0	0	0	0	0	0	4	4
090412	13:37:24	10040	corsiblockEngRev	recallseqEngRev	10	6	2682	0	118	13:37:24	2511902	5	0	0	0	0	0	0	0	0	0	0	0	0	0	0	4	4
090412	13:37:24	10040	corsiblockEngRev	recallseqEngRev	10	8	1091	0	118	13:37:24	2513035	5	0	0	0	0	0	0	0	0	0	0	0	0	0	0	4	4
090412	13:37:24	10040	corsiblockEngRev	recallseqEngRev	10	7	662	0	118	13:37:24	2513741	5	0	0	0	0	0	0	0	0	0	0	0	0	0	0	4	4
090412	13:37:24	10040	corsiblockEngRev	recallseqEngRev	10	doneCorsiEng	1860	0	118	13:37:24	2515634	5	0	0	0	0	0	0	0	0	0	0	0	0	0	0	4	4
090412	13:37:24	10040	testEngBaseline	WordsEngBaseline	11	1EngBaseline	15193	0	118	13:37:24	2537865	5	1	0	0	0	0	0	0	0	0	0	0	0	0	0	4	4
090412	13:37:24	10040	testEngBaseline	WordsEngBaseline	11	5EngBaseline	1808	0	118	13:37:24	2539718	5	1	0	0	0	1	0	0	0	0	0	0	0	0	0	4	4
090412	13:37:24	10040	testEngBaseline	WordsEngBaseline	11	4EngBaseline	323	0	118	13:37:24	2540078	5	1	0	0	1	1	0	0	0	0	0	0	0	0	0	4	4
090412	13:37:24	10040	testEngBaseline	WordsEngBaseline	11	7EngBaseline	1627	0	118	13:37:24	2541744	5	1	0	0	1	1	0	1	0	0	0	0	0	0	0	4	4
090412	13:37:24	10040	testEngBaseline	WordsEngBaseline	11	2EngBaseline	27377	0	118	13:37:24	2569159	5	1	1	0	1	1	0	1	0	0	0	0	0	0	0	4	4
090412	13:37:24	10040	testEngBaseline	WordsEngBaseline	11	3EngBaseline	9249	0	118	13:37:24	2578449	5	1	1	1	1	1	0	1	0	0	0	0	0	0	0	4	4
090412	13:37:24	10040	testEngBaseline	WordsEngBaseline	11	DoneEngBaseline	15199	0	118	13:37:24	2593682	5	1	1	1	1	1	0	1	0	0	0	0	0	0	0	4	4
090412	13:37:24	10040	testEngBaseline	Cat6EngBaseline	11	R6EngBaseline	5901	0	118	13:37:24	2599626	5	1	1	1	1	1	2	1	0	0	0	0	0	0	0	4	4
090412	13:37:24	10040	testEngBaseline	Cat8EngBaseline	11	R8EngBaseline	7430	0	118	13:37:24	2607090	5	1	1	1	1	1	2	1	2	0	0	0	0	0	0	4	4
090412	13:37:24	10040	DigitSpanFwrdEngBaseline	Score1FwrdEngBaseline	12	DS1	4315	0	118	13:37:24	2627828	5	1	1	1	1	1	2	1	2	0	0	0	0	0	0	4	4
090412	13:37:24	10040	DigitSpanFwrdEngBaseline	Gate1FwrdEngBaseline	12	0	1	0	118	13:37:24	2627844	5	1	1	1	1	1	2	1	2	3	0	0	0	0	0	4	4
090412	13:37:24	10040	DigitSpanFwrdEngBaseline	Score2FwrdEngBaseline	12	DS1	3602	0	118	13:37:24	2637211	5	1	1	1	1	1	2	1	2	3	0	0	0	0	0	4	4
090412	13:37:24	10040	DigitSpanFwrdEngBaseline	Gate3FwrdEngBaseline	12	0	1	0	118	13:37:24	2637226	5	1	1	1	1	1	2	1	2	4	0	0	0	0	0	4	4
090412	13:37:24	10040	DigitSpanFwrdEngBaseline	Score3FwrdEngBaseline	12	DS1	3422	0	118	13:37:24	2648433	5	1	1	1	1	1	2	1	2	4	0	0	0	0	0	4	4
090412	13:37:24	10040	DigitSpanFwrdEngBaseline	Gate5FwrdEngBaseline	12	0	1	0	118	13:37:24	2648449	5	1	1	1	1	1	2	1	2	5	0	0	0	0	0	4	4
090412	13:37:24	10040	DigitSpanFwrdEngBaseline	Score4FwrdEngBaseline	12	DS1	4324	0	118	13:37:24	2662321	5	1	1	1	1	1	2	1	2	5	0	0	0	0	0	4	4
090412	13:37:24	10040	DigitSpanFwrdEngBaseline	Gate7FwrdEngBaseline	12	0	1	0	118	13:37:24	2662336	5	1	1	1	1	1	2	1	2	6	0	0	0	0	0	4	4
090412	13:37:24	10040	DigitSpanFwrdEngBaseline	Score5FwrdEngBaseline	12	DS1	5423	0	118	13:37:24	2678808	5	1	1	1	1	1	2	1	2	6	0	0	0	0	0	4	4
090412	13:37:24	10040	DigitSpanFwrdEngBaseline	Gate9FwrdEngBaseline	12	0	1	0	118	13:37:24	2678823	5	1	1	1	1	1	2	1	2	7	0	0	0	0	0	4	4
090412	13:37:24	10040	DigitSpanFwrdEngBaseline	Score6FwrdEngBaseline	12	DS2	10486	0	118	13:37:24	2702625	5	1	1	1	1	1	2	1	2	7	0	0	0	0	0	4	4
090412	13:37:24	10040	DigitSpanFwrdEngBaseline	Gate11FwrdEngBaseline	12	0	1	0	118	13:37:24	2702640	5	1	1	1	1	1	2	1	2	7	0	0	0	0	0	4	4
090412	13:37:24	10040	DigitSpanFwrdEngBaseline	Score66FwrdEngBaseline	12	DS2	5889	0	118	13:37:24	2721711	5	1	1	1	1	1	2	1	2	7	0	0	0	0	0	4	4
090412	13:37:24	10040	DigitSpanEngBaseline	Score1EngBaseline	13	DS1	3029	0	118	13:37:24	2748753	5	1	1	1	1	1	2	1	2	7	0	0	0	0	0	4	4
090412	13:37:24	10040	DigitSpanEngBaseline	Gate1EngBaseline	13	0	1	0	118	13:37:24	2748768	5	1	1	1	1	1	2	1	2	7	2	0	0	0	0	4	4
090412	13:37:24	10040	DigitSpanEngBaseline	Score2EngBaseline	13	DS1	4155	0	118	13:37:24	2757656	5	1	1	1	1	1	2	1	2	7	2	0	0	0	0	4	4
090412	13:37:24	10040	DigitSpanEngBaseline	Gate3EngBaseline	13	0	1	0	118	13:37:24	2757671	5	1	1	1	1	1	2	1	2	7	3	0	0	0	0	4	4
090412	13:37:24	10040	DigitSpanEngBaseline	Score3EngBaseline	13	DS1	3692	0	118	13:37:24	2767931	5	1	1	1	1	1	2	1	2	7	3	0	0	0	0	4	4
090412	13:37:24	10040	DigitSpanEngBaseline	Gate5EngBaseline	13	0	1	0	118	13:37:24	2767947	5	1	1	1	1	1	2	1	2	7	4	0	0	0	0	4	4
090412	13:37:24	10040	DigitSpanEngBaseline	Score4EngBaseline	13	DS2	8472	0	118	13:37:24	2784471	5	1	1	1	1	1	2	1	2	7	4	0	0	0	0	4	4
090412	13:37:24	10040	DigitSpanEngBaseline	Gate7EngBaseline	13	0	1	0	118	13:37:24	2784487	5	1	1	1	1	1	2	1	2	7	4	0	0	0	0	4	4
090412	13:37:24	10040	DigitSpanEngBaseline	Score44EngBaseline	13	DS1	8854	0	118	13:37:24	2801598	5	1	1	1	1	1	2	1	2	7	4	0	0	0	0	4	4
090412	13:37:24	10040	DigitSpanEngBaseline	Gate8EngBaseline	13	0	1	0	118	13:37:24	2801613	5	1	1	1	1	1	2	1	2	7	5	0	0	0	0	4	4
090412	13:37:24	10040	DigitSpanEngBaseline	Score5EngBaseline	13	DS2	9587	0	118	13:37:24	2820870	5	1	1	1	1	1	2	1	2	7	5	0	0	0	0	4	4
090412	13:37:24	10040	DigitSpanEngBaseline	Gate9EngBaseline	13	0	1	0	118	13:37:24	2820886	5	1	1	1	1	1	2	1	2	7	5	0	0	0	0	4	4
090412	13:37:24	10040	DigitSpanEngBaseline	Score55EngBaseline	13	DS2	12155	0	118	13:37:24	2842794	5	1	1	1	1	1	2	1	2	7	5	0	0	0	0	4	4
090412	13:37:24	10040	Trial	IncongruentRight	14	205	590	1	118	13:37:24	2917484	5	1	1	1	1	1	2	1	2	7	5	0	0	0	0	4	4
090412	13:37:24	10040	Trial	IncongruentLeft	14	203	407	1	118	13:37:24	2918297	5	1	1	1	1	1	2	1	2	7	5	0	0	0	0	4	4
090412	13:37:24	10040	Trial	CongruentRight	14	205	496	1	118	13:37:24	2919390	5	1	1	1	1	1	2	1	2	7	5	0	0	0	0	4	4
090412	13:37:24	10040	Trial	IncongruentRight	14	205	648	1	118	13:37:24	2920536	5	1	1	1	1	1	2	1	2	7	5	0	0	0	0	4	4
090412	13:37:24	10040	Trial	CongruentLeft	14	203	467	1	118	13:37:24	2921376	5	1	1	1	1	1	2	1	2	7	5	0	0	0	0	4	4
090412	13:37:24	10040	Trial	CongruentRight	14	205	571	1	118	13:37:24	2922482	5	1	1	1	1	1	2	1	2	7	5	0	0	0	0	4	4
090412	13:37:24	10040	Trial	IncongruentRight	14	205	596	1	118	13:37:24	2923495	5	1	1	1	1	1	2	1	2	7	5	0	0	0	0	4	4
090412	13:37:24	10040	Trial	CongruentLeft	14	203	524	1	118	13:37:24	2924428	5	1	1	1	1	1	2	1	2	7	5	0	0	0	0	4	4
090412	13:37:24	10040	Trial	IncongruentLeft	14	203	692	1	118	13:37:24	2925601	5	1	1	1	1	1	2	1	2	7	5	0	0	0	0	4	4
090412	13:37:24	10040	Trial	IncongruentLeft	14	0	737	0	118	13:37:24	2926628	5	1	1	1	1	1	2	1	2	7	5	0	0	0	0	4	4
090412	13:37:24	10040	Trial	CongruentRight	14	205	488	1	118	13:37:24	2927400	5	1	1	1	1	1	2	1	2	7	5	0	0	0	0	4	4
090412	13:37:24	10040	Trial	IncongruentRight	14	205	686	1	118	13:37:24	2928586	5	1	1	1	1	1	2	1	2	7	5	0	0	0	0	4	4
090412	13:37:24	10040	Trial	CongruentLeft	14	203	536	1	118	13:37:24	2929453	5	1	1	1	1	1	2	1	2	7	5	0	0	0	0	4	4
090412	13:37:24	10040	Trial	CongruentRight	14	205	657	1	118	13:37:24	2930572	5	1	1	1	1	1	2	1	2	7	5	0	0	0	0	4	4
090412	13:37:24	10040	Trial	IncongruentLeft	14	0	737	0	118	13:37:24	2931638	5	1	1	1	1	1	2	1	2	7	5	0	0	0	0	4	4
090412	13:37:24	10040	Trial	IncongruentRight	14	205	674	1	118	13:37:24	2932585	5	1	1	1	1	1	2	1	2	7	5	0	0	0	0	4	4
090412	13:37:24	10040	Trial	CongruentRight	14	205	634	1	118	13:37:24	2933545	5	1	1	1	1	1	2	1	2	7	5	0	0	0	0	4	4
090412	13:37:24	10040	Trial	CongruentLeft	14	203	613	1	118	13:37:24	2934544	5	1	1	1	1	1	2	1	2	7	5	0	0	0	0	4	4
090412	13:37:24	10040	Trial	CongruentRight	14	0	737	0	118	13:37:24	2935650	5	1	1	1	1	1	2	1	2	7	5	0	0	0	0	4	4
090412	13:37:24	10040	Trial	IncongruentRight	14	205	710	1	118	13:37:24	2936637	5	1	1	1	1	1	2	1	2	7	5	0	0	0	0	4	4
090412	13:37:24	10040	Trial	IncongruentLeft	14	203	638	1	118	13:37:24	2937569	5	1	1	1	1	1	2	1	2	7	5	0	0	0	0	4	4
090412	13:37:24	10040	Trial	IncongruentLeft	14	203	566	1	118	13:37:24	2938489	5	1	1	1	1	1	2	1	2	7	5	0	0	0	0	4	4
090412	13:37:24	10040	Trial	CongruentLeft	14	203	514	1	118	13:37:24	2939449	5	1	1	1	1	1	2	1	2	7	5	0	0	0	0	4	4
090412	13:37:24	10040	Trial	CongruentRight	14	205	602	1	118	13:37:24	2940542	5	1	1	1	1	1	2	1	2	7	5	0	0	0	0	4	4
090412	13:37:24	10040	Trial	IncongruentLeft	14	203	722	1	118	13:37:24	2941661	5	1	1	1	1	1	2	1	2	7	5	0	0	0	0	4	4
090412	13:37:24	10040	Trial	IncongruentRight	14	205	635	1	118	13:37:24	2942567	5	1	1	1	1	1	2	1	2	7	5	0	0	0	0	4	4
090412	13:37:24	10040	Trial	CongruentRight	14	0	737	0	118	13:37:24	2943674	5	1	1	1	1	1	2	1	2	7	5	0	0	0	0	4	4
090412	13:37:24	10040	Trial	CongruentLeft	14	203	542	1	118	13:37:24	2944487	5	1	1	1	1	1	2	1	2	7	5	0	0	0	0	4	4
090412	13:37:24	10040	Trial	IncongruentRight	14	205	487	1	118	13:37:24	2945433	5	1	1	1	1	1	2	1	2	7	5	0	0	0	0	4	4
090412	13:37:24	10040	Trial	IncongruentLeft	14	203	463	1	118	13:37:24	2946406	5	1	1	1	1	1	2	1	2	7	5	0	0	0	0	4	4
090412	13:37:24	10040	Trial	IncongruentRight	14	205	522	1	118	13:37:24	2947485	5	1	1	1	1	1	2	1	2	7	5	0	0	0	0	4	4
090412	13:37:24	10040	Trial	CongruentRight	14	205	723	1	118	13:37:24	2948685	5	1	1	1	1	1	2	1	2	7	5	0	0	0	0	4	4
090412	13:37:24	10040	Trial	IncongruentLeft	14	203	523	1	118	13:37:24	2949485	5	1	1	1	1	1	2	1	2	7	5	0	0	0	0	4	4
090412	13:37:24	10040	Trial	CongruentLeft	14	203	531	1	118	13:37:24	2950497	5	1	1	1	1	1	2	1	2	7	5	0	0	0	0	4	4
090412	13:37:24	10040	Trial	CongruentRight	14	205	540	1	118	13:37:24	2951497	5	1	1	1	1	1	2	1	2	7	5	0	0	0	0	4	4
090412	13:37:24	10040	Trial	IncongruentLeft	14	203	583	1	118	13:37:24	2952550	5	1	1	1	1	1	2	1	2	7	5	0	0	0	0	4	4
090412	13:37:24	10040	Trial	IncongruentRight	14	205	527	1	118	13:37:24	2953496	5	1	1	1	1	1	2	1	2	7	5	0	0	0	0	4	4
090412	13:37:24	10040	Trial	IncongruentRight	14	0	737	0	118	13:37:24	2954696	5	1	1	1	1	1	2	1	2	7	5	0	0	0	0	4	4
090412	13:37:24	10040	Trial	CongruentLeft	14	203	495	1	118	13:37:24	2955469	5	1	1	1	1	1	2	1	2	7	5	0	0	0	0	4	4
090412	13:37:24	10040	Trial	IncongruentLeft	14	203	728	1	118	13:37:24	2956695	5	1	1	1	1	1	2	1	2	7	5	0	0	0	0	4	4
090412	13:37:24	10040	Trial	CongruentRight	14	205	609	1	118	13:37:24	2957575	5	1	1	1	1	1	2	1	2	7	5	0	0	0	0	4	4
090412	13:37:24	10040	Trial	CongruentLeft	14	203	699	1	118	13:37:24	2958681	5	1	1	1	1	1	2	1	2	7	5	0	0	0	0	4	4
090412	13:37:24	10040	Trial	IncongruentRight	14	205	724	1	118	13:37:24	2959707	5	1	1	1	1	1	2	1	2	7	5	0	0	0	0	4	4
090412	13:37:24	10040	Trial	CongruentRight	14	0	737	0	118	13:37:24	2960720	5	1	1	1	1	1	2	1	2	7	5	0	0	0	0	4	4
090412	13:37:24	10040	Trial	IncongruentLeft	14	203	647	1	118	13:37:24	2961640	5	1	1	1	1	1	2	1	2	7	5	0	0	0	0	4	4
090412	13:37:24	10040	Trial	CongruentLeft	14	203	704	1	118	13:37:24	2962692	5	1	1	1	1	1	2	1	2	7	5	0	0	0	0	4	4
090412	13:37:24	10040	Trial	IncongruentLeft	14	203	712	1	118	13:37:24	2963706	5	1	1	1	1	1	2	1	2	7	5	0	0	0	0	4	4
090412	13:37:24	10040	Trial	IncongruentRight	14	205	625	1	118	13:37:24	2964625	5	1	1	1	1	1	2	1	2	7	5	0	0	0	0	4	4
090412	13:37:24	10040	Trial	CongruentRight	14	205	540	1	118	13:37:24	2965545	5	1	1	1	1	1	2	1	2	7	5	0	0	0	0	4	4
090412	13:37:24	10040	Trial	CongruentLeft	14	203	644	1	118	13:37:24	2966651	5	1	1	1	1	1	2	1	2	7	5	0	0	0	0	4	4
090412	13:37:24	10040	Trial	CongruentLeft	14	203	652	1	118	13:37:24	2967664	5	1	1	1	1	1	2	1	2	7	5	0	0	0	0	4	4
090412	13:37:24	10040	Trial	IncongruentRight	14	205	565	1	118	13:37:24	2968570	5	1	1	1	1	1	2	1	2	7	5	0	0	0	0	4	4
090412	13:37:24	10040	Trial	IncongruentLeft	14	203	653	1	118	13:37:24	2969663	5	1	1	1	1	1	2	1	2	7	5	0	0	0	0	4	4
090412	13:37:24	10040	Trial	IncongruentRight	14	205	597	1	118	13:37:24	2970610	5	1	1	1	1	1	2	1	2	7	5	0	0	0	0	4	4
090412	13:37:24	10040	Trial	CongruentRight	14	205	686	1	118	13:37:24	2971689	5	1	1	1	1	1	2	1	2	7	5	0	0	0	0	4	4
090412	13:37:24	10040	Trial	CongruentRight	14	205	550	1	118	13:37:24	2972555	5	1	1	1	1	1	2	1	2	7	5	0	0	0	0	4	4
090412	13:37:24	10040	Trial	IncongruentLeft	14	203	558	1	118	13:37:24	2973568	5	1	1	1	1	1	2	1	2	7	5	0	0	0	0	4	4
090412	13:37:24	10040	Trial	CongruentLeft	14	203	599	1	118	13:37:24	2974608	5	1	1	1	1	1	2	1	2	7	5	0	0	0	0	4	4
090412	13:37:24	10040	Trial	CongruentRight	14	205	608	1	118	13:37:24	2975607	5	1	1	1	1	1	2	1	2	7	5	0	0	0	0	4	4
090412	13:37:24	10040	Trial	CongruentLeft	14	203	632	1	118	13:37:24	2976634	5	1	1	1	1	1	2	1	2	7	5	0	0	0	0	4	4
090412	13:37:24	10040	Trial	IncongruentRight	14	205	560	1	118	13:37:24	2977567	5	1	1	1	1	1	2	1	2	7	5	0	0	0	0	4	4
090412	13:37:24	10040	Trial	CongruentRight	14	205	633	1	118	13:37:24	2978633	5	1	1	1	1	1	2	1	2	7	5	0	0	0	0	4	4
090412	13:37:24	10040	Trial	CongruentLeft	14	203	481	1	118	13:37:24	2979486	5	1	1	1	1	1	2	1	2	7	5	0	0	0	0	4	4
090412	13:37:24	10040	Trial	IncongruentLeft	14	0	737	0	118	13:37:24	2980725	5	1	1	1	1	1	2	1	2	7	5	0	0	0	0	4	4
090412	13:37:24	10040	Trial	IncongruentLeft	14	0	737	0	118	13:37:24	2981738	5	1	1	1	1	1	2	1	2	7	5	0	0	0	0	4	4
090412	13:37:24	10040	Trial	CongruentRight	14	205	703	1	118	13:37:24	2982724	5	1	1	1	1	1	2	1	2	7	5	0	0	0	0	4	4
090412	13:37:24	10040	Trial	IncongruentRight	14	205	712	1	118	13:37:24	2983738	5	1	1	1	1	1	2	1	2	7	5	0	0	0	0	4	4
090412	13:37:24	10040	Trial	CongruentLeft	14	203	688	1	118	13:37:24	2984710	5	1	1	1	1	1	2	1	2	7	5	0	0	0	0	4	4
090412	13:37:24	10040	Trial	IncongruentRight	14	205	601	1	118	13:37:24	2985630	5	1	1	1	1	1	2	1	2	7	5	0	0	0	0	4	4
090412	13:37:24	10040	Trial	CongruentRight	14	205	660	1	118	13:37:24	2986696	5	1	1	1	1	1	2	1	2	7	5	0	0	0	0	4	4
090412	13:37:24	10040	Trial	IncongruentLeft	14	0	737	0	118	13:37:24	2987763	5	1	1	1	1	1	2	1	2	7	5	0	0	0	0	4	4
090412	13:37:24	10040	Trial	CongruentLeft	14	203	724	1	118	13:37:24	2988762	5	1	1	1	1	1	2	1	2	7	5	0	0	0	0	4	4
090412	13:37:24	10040	Trial	CongruentRight	14	205	733	1	118	13:37:24	2989775	5	1	1	1	1	1	2	1	2	7	5	0	0	0	0	4	4
090412	13:37:24	10040	Trial	IncongruentLeft	14	0	737	0	118	13:37:24	2990788	5	1	1	1	1	1	2	1	2	7	5	0	0	0	0	4	4
090412	13:37:24	10040	Trial	CongruentRight	14	0	737	0	118	13:37:24	2991801	5	1	1	1	1	1	2	1	2	7	5	0	0	0	0	4	4
090412	13:37:24	10040	Trial	CongruentRight	14	205	46	1	118	13:37:24	2992121	5	1	1	1	1	1	2	1	2	7	5	0	0	0	0	4	4
090412	13:37:24	10040	Trial	IncongruentRight	14	0	737	0	118	13:37:24	2993813	5	1	1	1	1	1	2	1	2	7	5	0	0	0	0	4	4
090412	13:37:24	10040	Trial	CongruentLeft	14	0	737	0	118	13:37:24	2994826	5	1	1	1	1	1	2	1	2	7	5	0	0	0	0	4	4
090412	13:37:24	10040	Trial	IncongruentLeft	14	203	541	1	118	13:37:24	2995639	5	1	1	1	1	1	2	1	2	7	5	0	0	0	0	4	4
090412	13:37:24	10040	Trial	CongruentLeft	14	203	437	1	118	13:37:24	2996532	5	1	1	1	1	1	2	1	2	7	5	0	0	0	0	4	4
090412	13:37:24	10040	Trial	IncongruentRight	14	205	573	1	118	13:37:24	2997679	5	1	1	1	1	1	2	1	2	7	5	0	0	0	0	4	4
090412	13:37:24	10040	Trial	IncongruentLeft	14	203	696	1	118	13:37:24	2998811	5	1	1	1	1	1	2	1	2	7	5	0	0	0	0	4	4
090412	13:37:24	10040	Trial	CongruentRight	14	0	737	0	118	13:37:24	2999838	5	1	1	1	1	1	2	1	2	7	5	0	0	0	0	4	4
090412	13:37:24	10040	Trial	CongruentLeft	14	203	553	1	118	13:37:24	3000664	5	1	1	1	1	1	2	1	2	7	5	0	0	0	0	4	4
090412	13:37:24	10040	Trial	IncongruentLeft	14	0	737	0	118	13:37:24	3001850	5	1	1	1	1	1	2	1	2	7	5	0	0	0	0	4	4
090412	13:37:24	10040	Trial	CongruentLeft	14	203	525	1	118	13:37:24	3002650	5	1	1	1	1	1	2	1	2	7	5	0	0	0	0	4	4
090412	13:37:24	10040	Trial	IncongruentRight	14	205	613	1	118	13:37:24	3003743	5	1	1	1	1	1	2	1	2	7	5	0	0	0	0	4	4
090412	13:37:24	10040	Trial	CongruentRight	14	205	528	1	118	13:37:24	3004662	5	1	1	1	1	1	2	1	2	7	5	0	0	0	0	4	4
090412	13:37:24	10040	Trial	IncongruentLeft	14	203	569	1	118	13:37:24	3005702	5	1	1	1	1	1	2	1	2	7	5	0	0	0	0	4	4
090412	13:37:24	10040	Trial	CongruentLeft	14	203	610	1	118	13:37:24	3006741	5	1	1	1	1	1	2	1	2	7	5	0	0	0	0	4	4
090412	13:37:24	10040	Trial	IncongruentRight	14	205	489	1	118	13:37:24	3007621	5	1	1	1	1	1	2	1	2	7	5	0	0	0	0	4	4
090412	13:37:24	10040	Trial	IncongruentLeft	14	203	577	1	118	13:37:24	3008714	5	1	1	1	1	1	2	1	2	7	5	0	0	0	0	4	4
090412	13:37:24	10040	Trial	CongruentLeft	14	0	737	0	118	13:37:24	3009860	5	1	1	1	1	1	2	1	2	7	5	0	0	0	0	4	4
090412	13:37:24	10040	Trial	IncongruentLeft	14	0	737	0	118	13:37:24	3010873	5	1	1	1	1	1	2	1	2	7	5	0	0	0	0	4	4
090412	13:37:24	10040	Trial	CongruentRight	14	205	637	1	118	13:37:24	3011779	5	1	1	1	1	1	2	1	2	7	5	0	0	0	0	4	4
090412	13:37:24	10040	Trial	CongruentLeft	14	203	678	1	118	13:37:24	3012832	5	1	1	1	1	1	2	1	2	7	5	0	0	0	0	4	4
090412	13:37:24	10040	Trial	IncongruentRight	14	205	638	1	118	13:37:24	3013792	5	1	1	1	1	1	2	1	2	7	5	0	0	0	0	4	4
090412	13:37:24	10040	Trial	CongruentLeft	14	203	457	1	118	13:37:24	3014618	5	1	1	1	1	1	2	1	2	7	5	0	0	0	0	4	4
090412	13:37:24	10040	Trial	CongruentRight	14	205	530	1	118	13:37:24	3015684	5	1	1	1	1	1	2	1	2	7	5	0	0	0	0	4	4
090412	13:37:24	10040	Trial	IncongruentLeft	14	203	634	1	118	13:37:24	3016791	5	1	1	1	1	1	2	1	2	7	5	0	0	0	0	4	4
090412	13:37:24	10040	Trial750Eng	IncongruentRight750	15	0	487	0	118	13:37:24	3024721	5	1	1	1	1	1	2	1	2	7	5	0	0	0	0	4	4
090412	13:37:24	10040	Trial750Eng	IncongruentLeft750	15	0	487	0	118	13:37:24	3025481	5	1	1	1	1	1	2	1	2	7	5	0	0	0	0	4	4
090412	13:37:24	10040	Trial750Eng	CongruentRight750	15	205	397	1	118	13:37:24	3026147	5	1	1	1	1	1	2	1	2	7	5	0	0	0	0	4	4
090412	13:37:24	10040	Trial750Eng	IncongruentRight750	15	203	342	0	118	13:37:24	3026853	5	1	1	1	1	1	2	1	2	7	5	0	0	0	0	4	4
090412	13:37:24	10040	Trial750Eng	CongruentLeft750	15	0	487	0	118	13:37:24	3027746	5	1	1	1	1	1	2	1	2	7	5	0	0	0	0	4	4
090412	13:37:24	10040	Trial750Eng	CongruentRight750	15	0	487	0	118	13:37:24	3028506	5	1	1	1	1	1	2	1	2	7	5	0	0	0	0	4	4
090412	13:37:24	10040	Trial750Eng	IncongruentRight750	15	0	487	0	118	13:37:24	3029266	5	1	1	1	1	1	2	1	2	7	5	0	0	0	0	4	4
090412	13:37:24	10040	Trial750Eng	CongruentLeft750	15	205	68	0	118	13:37:24	3029612	5	1	1	1	1	1	2	1	2	7	5	0	0	0	0	4	4
090412	13:37:24	10040	Trial750Eng	IncongruentLeft750	15	203	269	1	118	13:37:24	3030572	5	1	1	1	1	1	2	1	2	7	5	0	0	0	0	4	4
090412	13:37:24	10040	Trial750Eng	IncongruentLeft750	15	0	487	0	118	13:37:24	3031532	5	1	1	1	1	1	2	1	2	7	5	0	0	0	0	4	4
090412	13:37:24	10040	Trial750Eng	CongruentRight750	15	205	442	1	118	13:37:24	3032251	5	1	1	1	1	1	2	1	2	7	5	0	0	0	0	4	4
090412	13:37:24	10040	Trial750Eng	IncongruentRight750	15	205	419	1	118	13:37:24	3032984	5	1	1	1	1	1	2	1	2	7	5	0	0	0	0	4	4
090412	13:37:24	10040	Trial750Eng	CongruentLeft750	15	203	344	1	118	13:37:24	3033664	5	1	1	1	1	1	2	1	2	7	5	0	0	0	0	4	4
090412	13:37:24	10040	Trial750Eng	CongruentRight750	15	205	350	1	118	13:37:24	3034410	5	1	1	1	1	1	2	1	2	7	5	0	0	0	0	4	4
090412	13:37:24	10040	Trial750Eng	IncongruentLeft750	15	203	390	1	118	13:37:24	3035210	5	1	1	1	1	1	2	1	2	7	5	0	0	0	0	4	4
090412	13:37:24	10040	Trial750Eng	IncongruentRight750	15	205	396	1	118	13:37:24	3035956	5	1	1	1	1	1	2	1	2	7	5	0	0	0	0	4	4
090412	13:37:24	10040	Trial750Eng	CongruentRight750	15	0	487	0	118	13:37:24	3036796	5	1	1	1	1	1	2	1	2	7	5	0	0	0	0	4	4
090412	13:37:24	10040	Trial750Eng	CongruentLeft750	15	203	474	1	118	13:37:24	3037542	5	1	1	1	1	1	2	1	2	7	5	0	0	0	0	4	4
090412	13:37:24	10040	Trial750Eng	CongruentRight750	15	205	418	1	118	13:37:24	3038249	5	1	1	1	1	1	2	1	2	7	5	0	0	0	0	4	4
090412	13:37:24	10040	Trial750Eng	IncongruentRight750	15	0	487	0	118	13:37:24	3039062	5	1	1	1	1	1	2	1	2	7	5	0	0	0	0	4	4
090412	13:37:24	10040	Trial750Eng	IncongruentLeft750	15	0	487	0	118	13:37:24	3039821	5	1	1	1	1	1	2	1	2	7	5	0	0	0	0	4	4
090412	13:37:24	10040	Trial750Eng	IncongruentLeft750	15	0	487	0	118	13:37:24	3040581	5	1	1	1	1	1	2	1	2	7	5	0	0	0	0	4	4
090412	13:37:24	10040	Trial750Eng	CongruentLeft750	15	0	487	0	118	13:37:24	3041341	5	1	1	1	1	1	2	1	2	7	5	0	0	0	0	4	4
090412	13:37:24	10040	Trial750Eng	CongruentRight750	15	205	457	1	118	13:37:24	3042074	5	1	1	1	1	1	2	1	2	7	5	0	0	0	0	4	4
090412	13:37:24	10040	Trial750Eng	IncongruentLeft750	15	203	401	1	118	13:37:24	3042780	5	1	1	1	1	1	2	1	2	7	5	0	0	0	0	4	4
090412	13:37:24	10040	Trial750Eng	IncongruentRight750	15	205	375	1	118	13:37:24	3043500	5	1	1	1	1	1	2	1	2	7	5	0	0	0	0	4	4
090412	13:37:24	10040	Trial750Eng	CongruentRight750	15	0	487	0	118	13:37:24	3044353	5	1	1	1	1	1	2	1	2	7	5	0	0	0	0	4	4
090412	13:37:24	10040	Trial750Eng	CongruentLeft750	15	203	469	1	118	13:37:24	3045099	5	1	1	1	1	1	2	1	2	7	5	0	0	0	0	4	4
090412	13:37:24	10040	Trial750Eng	IncongruentRight750	15	0	487	0	118	13:37:24	3045859	5	1	1	1	1	1	2	1	2	7	5	0	0	0	0	4	4
090412	13:37:24	10040	Trial750Eng	IncongruentLeft750	15	205	195	0	118	13:37:24	3046325	5	1	1	1	1	1	2	1	2	7	5	0	0	0	0	4	4
090412	13:37:24	10040	Trial750Eng	IncongruentRight750	15	0	487	0	118	13:37:24	3047365	5	1	1	1	1	1	2	1	2	7	5	0	0	0	0	4	4
090412	13:37:24	10040	Trial750Eng	CongruentRight750	15	0	487	0	118	13:37:24	3048125	5	1	1	1	1	1	2	1	2	7	5	0	0	0	0	4	4
090412	13:37:24	10040	Trial750Eng	IncongruentLeft750	15	0	487	0	118	13:37:24	3048884	5	1	1	1	1	1	2	1	2	7	5	0	0	0	0	4	4
090412	13:37:24	10040	Trial750Eng	CongruentLeft750	15	0	487	0	118	13:37:24	3049644	5	1	1	1	1	1	2	1	2	7	5	0	0	0	0	4	4
090412	13:37:24	10040	Trial750Eng	CongruentRight750	15	0	487	0	118	13:37:24	3050404	5	1	1	1	1	1	2	1	2	7	5	0	0	0	0	4	4
090412	13:37:24	10040	Trial750Eng	IncongruentLeft750	15	0	487	0	118	13:37:24	3051164	5	1	1	1	1	1	2	1	2	7	5	0	0	0	0	4	4
090412	13:37:24	10040	Trial750Eng	IncongruentRight750	15	203	10	0	118	13:37:24	3051444	5	1	1	1	1	1	2	1	2	7	5	0	0	0	0	4	4
090412	13:37:24	10040	Trial750Eng	IncongruentRight750	15	0	487	0	118	13:37:24	3052670	5	1	1	1	1	1	2	1	2	7	5	0	0	0	0	4	4
090412	13:37:24	10040	Trial750Eng	CongruentLeft750	15	205	184	0	118	13:37:24	3053123	5	1	1	1	1	1	2	1	2	7	5	0	0	0	0	4	4
090412	13:37:24	10040	Trial750Eng	IncongruentLeft750	15	0	487	0	118	13:37:24	3054176	5	1	1	1	1	1	2	1	2	7	5	0	0	0	0	4	4
090412	13:37:24	10040	Trial750Eng	CongruentRight750	15	0	487	0	118	13:37:24	3054935	5	1	1	1	1	1	2	1	2	7	5	0	0	0	0	4	4
090412	13:37:24	10040	Trial750Eng	CongruentLeft750	15	0	487	0	118	13:37:24	3055695	5	1	1	1	1	1	2	1	2	7	5	0	0	0	0	4	4
090412	13:37:24	10040	Trial750Eng	IncongruentRight750	15	203	54	0	118	13:37:24	3056028	5	1	1	1	1	1	2	1	2	7	5	0	0	0	0	4	4
090412	13:37:24	10040	Trial750Eng	CongruentRight750	15	0	487	0	118	13:37:24	3057201	5	1	1	1	1	1	2	1	2	7	5	0	0	0	0	4	4
090412	13:37:24	10040	Trial750Eng	IncongruentLeft750	15	0	487	0	118	13:37:24	3057961	5	1	1	1	1	1	2	1	2	7	5	0	0	0	0	4	4
090412	13:37:24	10040	Trial750Eng	CongruentLeft750	15	0	487	0	118	13:37:24	3058721	5	1	1	1	1	1	2	1	2	7	5	0	0	0	0	4	4
090412	13:37:24	10040	Trial750Eng	IncongruentLeft750	15	0	487	0	118	13:37:24	3059480	5	1	1	1	1	1	2	1	2	7	5	0	0	0	0	4	4
090412	13:37:24	10040	Trial750Eng	IncongruentRight750	15	0	487	0	118	13:37:24	3060240	5	1	1	1	1	1	2	1	2	7	5	0	0	0	0	4	4
090412	13:37:24	10040	Trial750Eng	CongruentRight750	15	0	487	0	118	13:37:24	3061000	5	1	1	1	1	1	2	1	2	7	5	0	0	0	0	4	4
090412	13:37:24	10040	Trial750Eng	CongruentLeft750	15	203	430	1	118	13:37:24	3061706	5	1	1	1	1	1	2	1	2	7	5	0	0	0	0	4	4
090412	13:37:24	10040	Trial750Eng	CongruentLeft750	15	0	487	0	118	13:37:24	3062506	5	1	1	1	1	1	2	1	2	7	5	0	0	0	0	4	4
090412	13:37:24	10040	Trial750Eng	IncongruentRight750	15	0	487	0	118	13:37:24	3063265	5	1	1	1	1	1	2	1	2	7	5	0	0	0	0	4	4
090412	13:37:24	10040	Trial750Eng	IncongruentLeft750	15	0	487	0	118	13:37:24	3064025	5	1	1	1	1	1	2	1	2	7	5	0	0	0	0	4	4
090412	13:37:24	10040	Trial750Eng	IncongruentRight750	15	0	487	0	118	13:37:24	3064785	5	1	1	1	1	1	2	1	2	7	5	0	0	0	0	4	4
090412	13:37:24	10040	Trial750Eng	CongruentRight750	15	0	487	0	118	13:37:24	3065544	5	1	1	1	1	1	2	1	2	7	5	0	0	0	0	4	4
090412	13:37:24	10040	Trial750Eng	CongruentRight750	15	0	487	0	118	13:37:24	3066304	5	1	1	1	1	1	2	1	2	7	5	0	0	0	0	4	4
090412	13:37:24	10040	Trial750Eng	IncongruentLeft750	15	203	485	1	118	13:37:24	3067064	5	1	1	1	1	1	2	1	2	7	5	0	0	0	0	4	4
090412	13:37:24	10040	Trial750Eng	CongruentLeft750	15	0	487	0	118	13:37:24	3067824	5	1	1	1	1	1	2	1	2	7	5	0	0	0	0	4	4
090412	13:37:24	10040	Trial750Eng	CongruentRight750	15	0	487	0	118	13:37:24	3068583	5	1	1	1	1	1	2	1	2	7	5	0	0	0	0	4	4
090412	13:37:24	10040	Trial750Eng	CongruentLeft750	15	203	446	1	118	13:37:24	3069303	5	1	1	1	1	1	2	1	2	7	5	0	0	0	0	4	4
090412	13:37:24	10040	Trial750Eng	IncongruentRight750	15	205	454	1	118	13:37:24	3070076	5	1	1	1	1	1	2	1	2	7	5	0	0	0	0	4	4
090412	13:37:24	10040	Trial750Eng	CongruentRight750	15	0	487	0	118	13:37:24	3070849	5	1	1	1	1	1	2	1	2	7	5	0	0	0	0	4	4
090412	13:37:24	10040	Trial750Eng	CongruentLeft750	15	205	372	0	118	13:37:24	3071502	5	1	1	1	1	1	2	1	2	7	5	0	0	0	0	4	4
090412	13:37:24	10040	Trial750Eng	IncongruentLeft750	15	203	188	1	118	13:37:24	3072075	5	1	1	1	1	1	2	1	2	7	5	0	0	0	0	4	4
090412	13:37:24	10040	Trial750Eng	IncongruentLeft750	15	0	487	0	118	13:37:24	3073115	5	1	1	1	1	1	2	1	2	7	5	0	0	0	0	4	4
090412	13:37:24	10040	Trial750Eng	CongruentRight750	15	0	487	0	118	13:37:24	3073875	5	1	1	1	1	1	2	1	2	7	5	0	0	0	0	4	4
090412	13:37:24	10040	Trial750Eng	IncongruentRight750	15	0	487	0	118	13:37:24	3074634	5	1	1	1	1	1	2	1	2	7	5	0	0	0	0	4	4
090412	13:37:24	10040	Trial750Eng	CongruentLeft750	15	203	475	1	118	13:37:24	3075380	5	1	1	1	1	1	2	1	2	7	5	0	0	0	0	4	4
090412	13:37:24	10040	Trial750Eng	IncongruentRight750	15	0	487	0	118	13:37:24	3076140	5	1	1	1	1	1	2	1	2	7	5	0	0	0	0	4	4
090412	13:37:24	10040	Trial750Eng	CongruentRight750	15	0	487	0	118	13:37:24	3076900	5	1	1	1	1	1	2	1	2	7	5	0	0	0	0	4	4
090412	13:37:24	10040	Trial750Eng	IncongruentLeft750	15	203	481	1	118	13:37:24	3077660	5	1	1	1	1	1	2	1	2	7	5	0	0	0	0	4	4
090412	13:37:24	10040	Trial750Eng	CongruentLeft750	15	0	487	0	118	13:37:24	3078419	5	1	1	1	1	1	2	1	2	7	5	0	0	0	0	4	4
090412	13:37:24	10040	Trial750Eng	CongruentRight750	15	205	417	1	118	13:37:24	3079112	5	1	1	1	1	1	2	1	2	7	5	0	0	0	0	4	4
090412	13:37:24	10040	Trial750Eng	IncongruentLeft750	15	205	426	0	118	13:37:24	3079885	5	1	1	1	1	1	2	1	2	7	5	0	0	0	0	4	4
090412	13:37:24	10040	Trial750Eng	CongruentRight750	15	203	111	0	118	13:37:24	3080312	5	1	1	1	1	1	2	1	2	7	5	0	0	0	0	4	4
090412	13:37:24	10040	Trial750Eng	CongruentRight750	15	0	487	0	118	13:37:24	3081431	5	1	1	1	1	1	2	1	2	7	5	0	0	0	0	4	4
090412	13:37:24	10040	Trial750Eng	IncongruentRight750	15	0	487	0	118	13:37:24	3082191	5	1	1	1	1	1	2	1	2	7	5	0	0	0	0	4	4
090412	13:37:24	10040	Trial750Eng	CongruentLeft750	15	205	86	0	118	13:37:24	3082551	5	1	1	1	1	1	2	1	2	7	5	0	0	0	0	4	4
090412	13:37:24	10040	Trial750Eng	IncongruentLeft750	15	0	487	0	118	13:37:24	3083697	5	1	1	1	1	1	2	1	2	7	5	0	0	0	0	4	4
090412	13:37:24	10040	Trial750Eng	CongruentLeft750	15	0	487	0	118	13:37:24	3084457	5	1	1	1	1	1	2	1	2	7	5	0	0	0	0	4	4
090412	13:37:24	10040	Trial750Eng	IncongruentRight750	15	203	364	0	118	13:37:24	3085096	5	1	1	1	1	1	2	1	2	7	5	0	0	0	0	4	4
090412	13:37:24	10040	Trial750Eng	IncongruentLeft750	15	0	487	0	118	13:37:24	3085963	5	1	1	1	1	1	2	1	2	7	5	0	0	0	0	4	4
090412	13:37:24	10040	Trial750Eng	CongruentRight750	15	0	487	0	118	13:37:24	3086722	5	1	1	1	1	1	2	1	2	7	5	0	0	0	0	4	4
090412	13:37:24	10040	Trial750Eng	CongruentLeft750	15	0	487	0	118	13:37:24	3087482	5	1	1	1	1	1	2	1	2	7	5	0	0	0	0	4	4
090412	13:37:24	10040	Trial750Eng	IncongruentLeft750	15	0	487	0	118	13:37:24	3088242	5	1	1	1	1	1	2	1	2	7	5	0	0	0	0	4	4
090412	13:37:24	10040	Trial750Eng	CongruentLeft750	15	203	195	1	118	13:37:24	3088708	5	1	1	1	1	1	2	1	2	7	5	0	0	0	0	4	4
090412	13:37:24	10040	Trial750Eng	IncongruentRight750	15	205	235	1	118	13:37:24	3089508	5	1	1	1	1	1	2	1	2	7	5	0	0	0	0	4	4
090412	13:37:24	10040	Trial750Eng	CongruentRight750	15	203	305	0	118	13:37:24	3090334	5	1	1	1	1	1	2	1	2	7	5	0	0	0	0	4	4
090412	13:37:24	10040	Trial750Eng	IncongruentLeft750	15	205	38	0	118	13:37:24	3090814	5	1	1	1	1	1	2	1	2	7	5	0	0	0	0	4	4
090412	13:37:24	10040	Trial750Eng	CongruentLeft750	15	0	487	0	118	13:37:24	3092001	5	1	1	1	1	1	2	1	2	7	5	0	0	0	0	4	4
090412	13:37:24	10040	Trial750Eng	IncongruentRight750	15	0	487	0	118	13:37:24	3092760	5	1	1	1	1	1	2	1	2	7	5	0	0	0	0	4	4
090412	13:37:24	10040	Trial750Eng	IncongruentLeft750	15	0	487	0	118	13:37:24	3093520	5	1	1	1	1	1	2	1	2	7	5	0	0	0	0	4	4
090412	13:37:24	10040	Trial750Eng	CongruentLeft750	15	203	437	1	118	13:37:24	3094240	5	1	1	1	1	1	2	1	2	7	5	0	0	0	0	4	4
090412	13:37:24	10040	Trial750Eng	IncongruentLeft750	15	0	487	0	118	13:37:24	3095026	5	1	1	1	1	1	2	1	2	7	5	0	0	0	0	4	4
090412	13:37:24	10040	Trial750Eng	CongruentRight750	15	205	402	1	118	13:37:24	3095706	5	1	1	1	1	1	2	1	2	7	5	0	0	0	0	4	4
090412	13:37:24	10040	Trial750Eng	CongruentLeft750	15	205	411	0	118	13:37:24	3096479	5	1	1	1	1	1	2	1	2	7	5	0	0	0	0	4	4
090412	13:37:24	10040	Trial750Eng	IncongruentRight750	15	203	65	0	118	13:37:24	3096879	5	1	1	1	1	1	2	1	2	7	5	0	0	0	0	4	4
090412	13:37:24	10040	Trial750Eng	CongruentLeft750	15	0	487	0	118	13:37:24	3098038	5	1	1	1	1	1	2	1	2	7	5	0	0	0	0	4	4
090412	13:37:24	10040	Trial750Eng	CongruentRight750	15	0	487	0	118	13:37:24	3098798	5	1	1	1	1	1	2	1	2	7	5	0	0	0	0	4	4
090412	13:37:24	10040	Trial750Eng	IncongruentLeft750	15	0	487	0	118	13:37:24	3099557	5	1	1	1	1	1	2	1	2	7	5	0	0	0	0	4	4
090412	13:37:24	10040	WordsAbsEngBaseline	PAbsEngBaseline1	16	Abs1	5681	0	118	13:37:24	3114591	5	1	1	1	1	1	2	1	2	7	5	0	0	0	0	4	4
090412	13:37:24	10040	WordsAbsEngBaseline	AbsEngBaseline1	16	Abs1	3404	0	118	13:37:24	3118030	5	1	1	1	1	1	2	1	2	7	5	1	0	0	0	4	4
090412	13:37:24	10040	WordsAbsEngBaseline	AbsEngBaseline2	16	Abs2	16773	0	118	13:37:24	3134837	5	1	1	1	1	1	2	1	2	7	5	1	0	0	0	4	4
090412	13:37:24	10040	WordsAbsEngBaseline	AbsEngBaseline3	16	Abs1	16990	0	118	13:37:24	3151870	5	1	1	1	1	1	2	1	2	7	5	2	0	0	0	4	4
090412	13:37:24	10040	Trial2BackEngS	NS	17	0	1000	1	118	13:37:24	3202876	5	1	1	1	1	1	2	1	2	7	5	2	0	0	0	4	4
090412	13:37:24	10040	Trial2BackEngS	NS	17	0	1000	1	118	13:37:24	3204395	5	1	1	1	1	1	2	1	2	7	5	2	0	0	0	4	4
090412	13:37:24	10040	Trial2BackEngS	NS	17	0	1000	1	118	13:37:24	3205914	5	1	1	1	1	1	2	1	2	7	5	2	0	0	0	4	4
090412	13:37:24	10040	Trial2BackEngS	YS	17	0	1000	0	118	13:37:24	3207434	5	1	1	1	1	1	2	1	2	7	5	2	0	0	0	4	4
090412	13:37:24	10040	Trial2BackEngS	NS	17	0	1000	1	118	13:37:24	3208966	5	1	1	1	1	1	2	1	2	7	5	2	0	0	0	4	4
090412	13:37:24	10040	Trial2BackEngS	NS	17	0	1000	1	118	13:37:24	3210486	5	1	1	1	1	1	2	1	2	7	5	2	0	0	0	4	4
090412	13:37:24	10040	Trial2BackEngS	NS	17	0	1000	1	118	13:37:24	3212005	5	1	1	1	1	1	2	1	2	7	5	2	0	0	0	4	4
090412	13:37:24	10040	Trial2BackEngS	NS	17	0	1000	1	118	13:37:24	3213525	5	1	1	1	1	1	2	1	2	7	5	2	0	0	0	4	4
090412	13:37:24	10040	Trial2BackEngS	YS	17	57	545	1	118	13:37:24	3214591	5	1	1	1	1	1	2	1	2	7	5	2	0	0	0	4	4
090412	13:37:24	10040	Trial2BackEngS	NS	17	0	1000	1	118	13:37:24	3216550	5	1	1	1	1	1	2	1	2	7	5	2	0	0	0	4	4
090412	13:37:24	10040	Trial2BackEngS	NS	17	0	1000	1	118	13:37:24	3218069	5	1	1	1	1	1	2	1	2	7	5	2	0	0	0	4	4
090412	13:37:24	10040	Trial2BackEngS	YS	17	0	1000	0	118	13:37:24	3219589	5	1	1	1	1	1	2	1	2	7	5	2	0	0	0	4	4
090412	13:37:24	10040	Trial2BackEngS	NS	17	0	1000	1	118	13:37:24	3221108	5	1	1	1	1	1	2	1	2	7	5	2	0	0	0	4	4
090412	13:37:24	10040	Trial2BackEngS	NS	17	0	1000	1	118	13:37:24	3222628	5	1	1	1	1	1	2	1	2	7	5	2	0	0	0	4	4
090412	13:37:24	10040	Trial2BackEngS	NS	17	0	1000	1	118	13:37:24	3224174	5	1	1	1	1	1	2	1	2	7	5	2	0	0	0	4	4
090412	13:37:24	10040	Trial2BackEngS	YS	17	0	1000	0	118	13:37:24	3225693	5	1	1	1	1	1	2	1	2	7	5	2	0	0	0	4	4
090412	13:37:24	10040	Trial2BackEngS	NS	17	0	1000	1	118	13:37:24	3227212	5	1	1	1	1	1	2	1	2	7	5	2	0	0	0	4	4
090412	13:37:24	10040	Trial2BackEngS	NS	17	0	1000	1	118	13:37:24	3228732	5	1	1	1	1	1	2	1	2	7	5	2	0	0	0	4	4
090412	13:37:24	10040	Trial2BackEngS	NS	17	0	1000	1	118	13:37:24	3230251	5	1	1	1	1	1	2	1	2	7	5	2	0	0	0	4	4
090412	13:37:24	10040	Trial2BackEngS	NS	17	0	1000	1	118	13:37:24	3231771	5	1	1	1	1	1	2	1	2	7	5	2	0	0	0	4	4
090412	13:37:24	10040	Trial2BackEngS	YS	17	57	731	1	118	13:37:24	3233023	5	1	1	1	1	1	2	1	2	7	5	2	0	0	0	4	4
090412	13:37:24	10040	Trial2BackEngS	NS	17	0	1000	1	118	13:37:24	3234796	5	1	1	1	1	1	2	1	2	7	5	2	0	0	0	4	4
090412	13:37:24	10040	Trial2BackEngS	NS	17	0	1000	1	118	13:37:24	3236315	5	1	1	1	1	1	2	1	2	7	5	2	0	0	0	4	4
090412	13:37:24	10040	Trial2BackEngS	NS	17	0	1000	1	118	13:37:24	3237835	5	1	1	1	1	1	2	1	2	7	5	2	0	0	0	4	4
090412	13:37:24	10040	Trial2BackEngS	NS	17	57	842	0	118	13:37:24	3239208	5	1	1	1	1	1	2	1	2	7	5	2	0	0	0	4	4
090412	13:37:24	10040	Trial2BackEngS	NS	17	0	1000	1	118	13:37:24	3240860	5	1	1	1	1	1	2	1	2	7	5	2	0	0	0	4	4
090412	13:37:24	10040	Trial2BackEngS	NS	17	0	1000	1	118	13:37:24	3242380	5	1	1	1	1	1	2	1	2	7	5	2	0	0	0	4	4
090412	13:37:24	10040	Trial2BackEngS	NS	17	0	1000	1	118	13:37:24	3243899	5	1	1	1	1	1	2	1	2	7	5	2	0	0	0	4	4
090412	13:37:24	10040	Trial2BackEngS	NS	17	0	1000	1	118	13:37:24	3245418	5	1	1	1	1	1	2	1	2	7	5	2	0	0	0	4	4
090412	13:37:24	10040	Trial2BackEngS	NS	17	0	1000	1	118	13:37:24	3246938	5	1	1	1	1	1	2	1	2	7	5	2	0	0	0	4	4
090412	13:37:24	10040	Trial2BackEngS	NS	17	0	1000	1	118	13:37:24	3248457	5	1	1	1	1	1	2	1	2	7	5	2	0	0	0	4	4
090412	13:37:24	10040	Trial2BackEngS	YS	17	0	1000	0	118	13:37:24	3249977	5	1	1	1	1	1	2	1	2	7	5	2	0	0	0	4	4
090412	13:37:24	10040	Trial2BackEngS	NS	17	0	1000	1	118	13:37:24	3251496	5	1	1	1	1	1	2	1	2	7	5	2	0	0	0	4	4
090412	13:37:24	10040	Trial2BackEngS	NS	17	0	1000	1	118	13:37:24	3253015	5	1	1	1	1	1	2	1	2	7	5	2	0	0	0	4	4
090412	13:37:24	10040	Trial2BackEngS	NS	17	0	1000	1	118	13:37:24	3254535	5	1	1	1	1	1	2	1	2	7	5	2	0	0	0	4	4
090412	13:37:24	10040	Trial2BackEngS	YS	17	57	846	1	118	13:37:24	3255908	5	1	1	1	1	1	2	1	2	7	5	2	0	0	0	4	4
090412	13:37:24	10040	Trial2BackEngS	NS	17	0	1000	1	118	13:37:24	3257560	5	1	1	1	1	1	2	1	2	7	5	2	0	0	0	4	4
090412	13:37:24	10040	Trial2BackEngS	NS	17	0	1000	1	118	13:37:24	3259079	5	1	1	1	1	1	2	1	2	7	5	2	0	0	0	4	4
090412	13:37:24	10040	Trial2BackEngS	NS	17	0	1000	1	118	13:37:24	3260599	5	1	1	1	1	1	2	1	2	7	5	2	0	0	0	4	4
090412	13:37:24	10040	Trial2BackEngS	NS	17	0	1000	1	118	13:37:24	3262118	5	1	1	1	1	1	2	1	2	7	5	2	0	0	0	4	4
090412	13:37:24	10040	Trial2BackEngS	NS	17	0	1000	1	118	13:37:24	3263638	5	1	1	1	1	1	2	1	2	7	5	2	0	0	0	4	4
090412	13:37:24	10040	Trial2BackEngS	NS	17	0	1000	1	118	13:37:24	3265157	5	1	1	1	1	1	2	1	2	7	5	2	0	0	0	4	4
090412	13:37:24	10040	Trial2BackEngS	NS	17	0	1000	1	118	13:37:24	3266676	5	1	1	1	1	1	2	1	2	7	5	2	0	0	0	4	4
090412	13:37:24	10040	Trial2BackEngS	YS	17	57	752	1	118	13:37:24	3267956	5	1	1	1	1	1	2	1	2	7	5	2	0	0	0	4	4
090412	13:37:24	10040	Trial2BackEngS	NS	17	0	1000	1	118	13:37:24	3269702	5	1	1	1	1	1	2	1	2	7	5	2	0	0	0	4	4
090412	13:37:24	10040	Trial2BackEngS	NS	17	0	1000	1	118	13:37:24	3271221	5	1	1	1	1	1	2	1	2	7	5	2	0	0	0	4	4
090412	13:37:24	10040	Trial2BackEngS	NS	17	0	1000	1	118	13:37:24	3272741	5	1	1	1	1	1	2	1	2	7	5	2	0	0	0	4	4
090412	13:37:24	10040	Trial2BackEngS	NS	17	0	1000	1	118	13:37:24	3274260	5	1	1	1	1	1	2	1	2	7	5	2	0	0	0	4	4
090412	13:37:24	10040	Trial2BackEngS	YS	17	57	656	1	118	13:37:24	3275446	5	1	1	1	1	1	2	1	2	7	5	2	0	0	0	4	4
090412	13:37:24	10040	Trial2BackEngS	NS	17	0	1000	1	118	13:37:24	3277285	5	1	1	1	1	1	2	1	2	7	5	2	0	0	0	4	4
090412	13:37:24	10040	Trial2BackEngS	NS	17	0	1000	1	118	13:37:24	3278805	5	1	1	1	1	1	2	1	2	7	5	2	0	0	0	4	4
090412	13:37:24	10040	Trial2BackEngS	NS	17	0	1000	1	118	13:37:24	3280324	5	1	1	1	1	1	2	1	2	7	5	2	0	0	0	4	4
090412	13:37:24	10040	Trial2BackEngS	NS	17	0	1000	1	118	13:37:24	3281844	5	1	1	1	1	1	2	1	2	7	5	2	0	0	0	4	4
090412	13:37:24	10040	Trial2BackEngS	NS	17	0	1000	1	118	13:37:24	3283363	5	1	1	1	1	1	2	1	2	7	5	2	0	0	0	4	4
090412	13:37:24	10040	Trial2BackEngS	NS	17	0	1000	1	118	13:37:24	3284882	5	1	1	1	1	1	2	1	2	7	5	2	0	0	0	4	4
090412	13:37:24	10040	Trial2BackEngS	YS	17	0	1000	0	118	13:37:24	3286402	5	1	1	1	1	1	2	1	2	7	5	2	0	0	0	4	4
090412	13:37:24	10040	Trial2BackEngS	NS	17	0	1000	1	118	13:37:24	3287921	5	1	1	1	1	1	2	1	2	7	5	2	0	0	0	4	4
090412	13:37:24	10040	Trial2BackEngS	NS	17	0	1000	1	118	13:37:24	3289441	5	1	1	1	1	1	2	1	2	7	5	2	0	0	0	4	4
090412	13:37:24	10040	Trial2BackEngS	NS	17	0	1000	1	118	13:37:24	3290960	5	1	1	1	1	1	2	1	2	7	5	2	0	0	0	4	4
090412	13:37:24	10040	Trial2BackEngS	NS	17	0	1000	1	118	13:37:24	3292479	5	1	1	1	1	1	2	1	2	7	5	2	0	0	0	4	4
090412	13:37:24	10040	Trial2BackEngS	NS	17	0	1000	1	118	13:37:24	3293999	5	1	1	1	1	1	2	1	2	7	5	2	0	0	0	4	4
090412	13:37:24	10040	Trial2BackEngS	NS	17	0	1000	1	118	13:37:24	3295518	5	1	1	1	1	1	2	1	2	7	5	2	0	0	0	4	4
090412	13:37:24	10040	Trial2BackEngS	NS	17	0	1000	1	118	13:37:24	3297038	5	1	1	1	1	1	2	1	2	7	5	2	0	0	0	4	4
090412	13:37:24	10040	Trial2BackEngS	YS	17	57	568	1	118	13:37:24	3298130	5	1	1	1	1	1	2	1	2	7	5	2	0	0	0	4	4
090412	13:37:24	10040	Trial2BackEngS	NS	17	0	1000	1	118	13:37:24	3300063	5	1	1	1	1	1	2	1	2	7	5	2	0	0	0	4	4
090412	13:37:24	10040	Trial2BackEngS	NS	17	0	1000	1	118	13:37:24	3301582	5	1	1	1	1	1	2	1	2	7	5	2	0	0	0	4	4
090412	13:37:24	10040	Trial2BackEngS	NS	17	0	1000	1	118	13:37:24	3303102	5	1	1	1	1	1	2	1	2	7	5	2	0	0	0	4	4
090412	13:37:24	10040	Trial2BackEngS	NS	17	57	710	0	118	13:37:24	3304341	5	1	1	1	1	1	2	1	2	7	5	2	0	0	0	4	4
090412	13:37:24	10040	Trial2BackEngS	YS	17	0	1000	0	118	13:37:24	3306127	5	1	1	1	1	1	2	1	2	7	5	2	0	0	0	4	4
090412	13:37:24	10040	Trial2BackEngS	NS	17	0	1000	1	118	13:37:24	3307647	5	1	1	1	1	1	2	1	2	7	5	2	0	0	0	4	4
090412	13:37:24	10040	Trial2BackEngS	NS	17	0	1000	1	118	13:37:24	3309166	5	1	1	1	1	1	2	1	2	7	5	2	0	0	0	4	4
090412	13:37:24	10040	Trial2BackEngS	YS	17	57	613	1	118	13:37:24	3310312	5	1	1	1	1	1	2	1	2	7	5	2	0	0	0	4	4
090412	13:37:24	10040	Trial2BackEngS	NS	17	0	1000	1	118	13:37:24	3312191	5	1	1	1	1	1	2	1	2	7	5	2	0	0	0	4	4
090412	13:37:24	10040	Trial2BackEngS	NS	17	0	1000	1	118	13:37:24	3313711	5	1	1	1	1	1	2	1	2	7	5	2	0	0	0	4	4
090412	13:37:24	10040	Trial2BackEngS	NS	17	0	1000	1	118	13:37:24	3315230	5	1	1	1	1	1	2	1	2	7	5	2	0	0	0	4	4
090412	13:37:24	10040	Trial2BackEngS	NS	17	0	1000	1	118	13:37:24	3316750	5	1	1	1	1	1	2	1	2	7	5	2	0	0	0	4	4
090412	13:37:24	10040	Trial2BackEngS	NS	17	0	1000	1	118	13:37:24	3318269	5	1	1	1	1	1	2	1	2	7	5	2	0	0	0	4	4
090412	13:37:24	10040	Trial2BackEngS	NS	17	0	1000	1	118	13:37:24	3319788	5	1	1	1	1	1	2	1	2	7	5	2	0	0	0	4	4
090412	13:37:24	10040	Trial2BackEngS	YS	17	57	807	1	118	13:37:24	3321121	5	1	1	1	1	1	2	1	2	7	5	2	0	0	0	4	4
090412	13:37:24	10040	Trial2BackEngS	NS	17	0	1000	1	118	13:37:24	3322814	5	1	1	1	1	1	2	1	2	7	5	2	0	0	0	4	4
090412	13:37:24	10040	Trial2BackEngS	NS	17	0	1000	1	118	13:37:24	3324333	5	1	1	1	1	1	2	1	2	7	5	2	0	0	0	4	4
090412	13:37:24	10040	Trial2BackEngS	NS	17	0	1000	1	118	13:37:24	3325853	5	1	1	1	1	1	2	1	2	7	5	2	0	0	0	4	4
090412	13:37:24	10040	Trial2BackEngS	NS	17	0	1000	1	118	13:37:24	3327372	5	1	1	1	1	1	2	1	2	7	5	2	0	0	0	4	4
090412	13:37:24	10040	Trial2BackEngS	YS	17	57	407	1	118	13:37:24	3328305	5	1	1	1	1	1	2	1	2	7	5	2	0	0	0	4	4
090412	13:37:24	10040	Trial2BackEngS	NS	17	0	1000	1	118	13:37:24	3330397	5	1	1	1	1	1	2	1	2	7	5	2	0	0	0	4	4
090412	13:37:24	10040	Trial2BackEngS	NS	17	0	1000	1	118	13:37:24	3331917	5	1	1	1	1	1	2	1	2	7	5	2	0	0	0	4	4
090412	13:37:24	10040	Trial2BackEngS	NS	17	0	1000	1	118	13:37:24	3333436	5	1	1	1	1	1	2	1	2	7	5	2	0	0	0	4	4
090412	13:37:24	10040	Trial2BackEngS	NS	17	57	631	0	118	13:37:24	3334596	5	1	1	1	1	1	2	1	2	7	5	2	0	0	0	4	4
090412	13:37:24	10040	Trial2BackEngS	YS	17	0	1000	0	118	13:37:24	3336462	5	1	1	1	1	1	2	1	2	7	5	2	0	0	0	4	4
090412	13:37:24	10040	Trial2BackEngS	NS	17	0	1000	1	118	13:37:24	3337981	5	1	1	1	1	1	2	1	2	7	5	2	0	0	0	4	4
090412	13:37:24	10040	Trial2BackEngS	NS	17	0	1000	1	118	13:37:24	3339500	5	1	1	1	1	1	2	1	2	7	5	2	0	0	0	4	4
090412	13:37:24	10040	Trial2BackEngS	YS	17	0	1000	0	118	13:37:24	3341020	5	1	1	1	1	1	2	1	2	7	5	2	0	0	0	4	4
090412	13:37:24	10040	Trial2BackEngS	NS	17	0	1000	1	118	13:37:24	3342539	5	1	1	1	1	1	2	1	2	7	5	2	0	0	0	4	4
090412	13:37:24	10040	Trial2BackEngS	NS	17	0	1000	1	118	13:37:24	3344058	5	1	1	1	1	1	2	1	2	7	5	2	0	0	0	4	4
090412	13:37:24	10040	Trial2BackEngS	NS	17	0	1000	1	118	13:37:24	3345578	5	1	1	1	1	1	2	1	2	7	5	2	0	0	0	4	4
090412	13:37:24	10040	Trial2BackEngS	NS	17	0	1000	1	118	13:37:24	3347097	5	1	1	1	1	1	2	1	2	7	5	2	0	0	0	4	4
090412	13:37:24	10040	Trial2BackEngS	NS	17	0	1000	1	118	13:37:24	3348617	5	1	1	1	1	1	2	1	2	7	5	2	0	0	0	4	4
090412	13:37:24	10040	Trial2BackEngS	NS	17	0	1000	1	118	13:37:24	3350136	5	1	1	1	1	1	2	1	2	7	5	2	0	0	0	4	4
090412	13:37:24	10040	Trial2BackEngS	NS	17	0	1000	1	118	13:37:24	3351656	5	1	1	1	1	1	2	1	2	7	5	2	0	0	0	4	4
090412	13:37:24	10040	Trial2BackEngS	NS	17	0	1000	1	118	13:37:24	3353175	5	1	1	1	1	1	2	1	2	7	5	2	0	0	0	4	4
090412	13:37:24	10040	Trial2BackEngS	YS	17	0	1000	0	118	13:37:24	3354694	5	1	1	1	1	1	2	1	2	7	5	2	0	0	0	4	4
090412	13:37:24	10040	Trial2BackEngS	NS	17	0	1000	1	118	13:37:24	3356214	5	1	1	1	1	1	2	1	2	7	5	2	0	0	0	4	4
090412	13:37:24	10040	Trial2BackEngS	NS	17	0	1000	1	118	13:37:24	3357733	5	1	1	1	1	1	2	1	2	7	5	2	0	0	0	4	4
090412	13:37:24	10040	Trial2BackEngS	NS	17	0	1000	1	118	13:37:24	3359252	5	1	1	1	1	1	2	1	2	7	5	2	0	0	0	4	4
090412	13:37:24	10040	Trial2BackEngS	NS	17	0	1000	1	118	13:37:24	3360772	5	1	1	1	1	1	2	1	2	7	5	2	0	0	0	4	4
090412	13:37:24	10040	Trial2BackEngS	NS	17	0	1000	1	118	13:37:24	3362291	5	1	1	1	1	1	2	1	2	7	5	2	0	0	0	4	4
090412	13:37:24	10040	Trial2BackEngS	NS	17	0	1000	1	118	13:37:24	3363810	5	1	1	1	1	1	2	1	2	7	5	2	0	0	0	4	4
090412	13:37:24	10040	Trial2BackEngS	NS	17	0	1000	1	118	13:37:24	3365330	5	1	1	1	1	1	2	1	2	7	5	2	0	0	0	4	4
090412	13:37:24	10040	Trial2BackEngS	YS	17	0	1000	0	118	13:37:24	3366849	5	1	1	1	1	1	2	1	2	7	5	2	0	0	0	4	4
090412	13:37:24	10040	Trial2BackEngS	NS	17	0	1000	1	118	13:37:24	3368369	5	1	1	1	1	1	2	1	2	7	5	2	0	0	0	4	4
090412	13:37:24	10040	Trial2BackEngS	NS	17	0	1000	1	118	13:37:24	3369888	5	1	1	1	1	1	2	1	2	7	5	2	0	0	0	4	4
090412	13:37:24	10040	Trial2BackEngS	NS	17	0	1000	1	118	13:37:24	3371408	5	1	1	1	1	1	2	1	2	7	5	2	0	0	0	4	4
090412	13:37:24	10040	Trial2BackEngS	NS	17	0	1000	1	118	13:37:24	3372927	5	1	1	1	1	1	2	1	2	7	5	2	0	0	0	4	4
090412	13:37:24	10040	Trial2BackEngS	NS	17	0	1000	1	118	13:37:24	3374446	5	1	1	1	1	1	2	1	2	7	5	2	0	0	0	4	4
090412	13:37:24	10040	Trial2BackEngS	NS	17	0	1000	1	118	13:37:24	3375966	5	1	1	1	1	1	2	1	2	7	5	2	0	0	0	4	4
090412	13:37:24	10040	Trial2BackEngS	NS	17	0	1000	1	118	13:37:24	3377485	5	1	1	1	1	1	2	1	2	7	5	2	0	0	0	4	4
090412	13:37:24	10040	Trial2BackEngS	NS	17	0	1000	1	118	13:37:24	3379004	5	1	1	1	1	1	2	1	2	7	5	2	0	0	0	4	4
090412	13:37:24	10040	Trial2BackEngS	NS	17	0	1000	1	118	13:37:24	3380524	5	1	1	1	1	1	2	1	2	7	5	2	0	0	0	4	4
090412	13:37:24	10040	Trial2BackEngS	YS	17	57	598	1	118	13:37:24	3381643	5	1	1	1	1	1	2	1	2	7	5	2	0	0	0	4	4
090412	13:37:24	10040	Trial2BackEngS	NS	17	0	1000	1	118	13:37:24	3383549	5	1	1	1	1	1	2	1	2	7	5	2	0	0	0	4	4
090412	13:37:24	10040	ClockEngBaseline	ClockEngBaseline	19	Clock11	56811	0	118	13:37:24	3440473	5	1	1	1	1	1	2	1	2	7	5	2	0	1	0	4	4
090412	13:37:24	10040	ClockEngBaseline	ClockEngBaseline	19	Clock111	482	0	118	13:37:24	3440993	5	1	1	1	1	1	2	1	2	7	5	2	0	1	1	4	4
090412	13:37:24	10040	ClockEngBaseline	ClockEngBaseline	19	Clock2	610	0	118	13:37:24	3441646	5	1	1	1	1	1	2	1	2	7	5	2	0	1	1	4	4
090412	13:37:24	10040	ClockEngBaseline	ClockEngBaseline	19	Clockdone	533	0	118	13:37:24	3442219	5	1	1	1	1	1	2	1	2	7	5	2	0	1	1	4	4
090412	13:37:24	10040	FASEngVFBaseline	StopEngVFBaseline	20	19	8063	0	118	13:37:24	3560080	5	1	1	1	1	1	2	1	2	7	5	2	0	1	1	4	4
