date	time	subject	blockcode	trialcode	values.TaskNumber	response	latency	correct	values.Score	script.starttime	script.elapsedtime	values.ScoreS7	values.Word1	values.Word2	values.Word3	values.Word4	values.Word5	values.Word6	values.Word7	values.Word8	values.DigitSpanFwrd	values.DigitSpanBack	values.ScoreAbs	values.Contour	values.Numbers	values.Hands	values.corsiblockspanFwrd	values.corsiblockspanRev
073012	15:39:26	10031	Language	Language	0	English	311698	0	0	15:39:26	311787	0	0	0	0	0	0	0	0	0	0	0	0	0	0	0	0	0
073012	15:39:26	10031	Session	Session	0	Baseline	820	0	0	15:39:26	312680	0	0	0	0	0	0	0	0	0	0	0	0	0	0	0	0	0
073012	15:39:26	10031	HandEng	HandEng	0	Right	821291	0	0	15:39:26	1134045	0	0	0	0	0	0	0	0	0	0	0	0	0	0	0	0	0
073012	15:39:26	10031	CubeEng	CubeEng	1	1Cube	60958	0	0	15:39:26	1213812	0	0	0	0	0	0	0	0	0	0	0	0	0	0	0	0	0
073012	15:39:26	10031	pm.simpleEngRight	blank.simpleEng	2	0	2087	1	0	15:39:26	1247678	0	0	0	0	0	0	0	0	0	0	0	0	0	0	0	0	0
073012	15:39:26	10031	pm.simpleEngRight	pm.simpleEng	2	57	355	0	0	15:39:26	1248064	0	0	0	0	0	0	0	0	0	0	0	0	0	0	0	0	0
073012	15:39:26	10031	pm.simpleEngRight	blank.simpleEng	2	0	1887	1	0	15:39:26	1249983	0	0	0	0	0	0	0	0	0	0	0	0	0	0	0	0	0
073012	15:39:26	10031	pm.simpleEngRight	pm.simpleEng	2	57	243	0	0	15:39:26	1250263	0	0	0	0	0	0	0	0	0	0	0	0	0	0	0	0	0
073012	15:39:26	10031	pm.simpleEngRight	blank.simpleEng	2	0	2187	1	0	15:39:26	1252476	0	0	0	0	0	0	0	0	0	0	0	0	0	0	0	0	0
073012	15:39:26	10031	pm.simpleEngRight	pm.simpleEng	2	57	261	0	0	15:39:26	1252769	0	0	0	0	0	0	0	0	0	0	0	0	0	0	0	0	0
073012	15:39:26	10031	pm.simpleEngRight	blank.simpleEng	2	0	2487	1	0	15:39:26	1255315	0	0	0	0	0	0	0	0	0	0	0	0	0	0	0	0	0
073012	15:39:26	10031	pm.simpleEngRight	pm.simpleEng	2	57	270	0	0	15:39:26	1255621	0	0	0	0	0	0	0	0	0	0	0	0	0	0	0	0	0
073012	15:39:26	10031	pm.simpleEngRight	blank.simpleEng	2	0	1687	1	0	15:39:26	1257340	0	0	0	0	0	0	0	0	0	0	0	0	0	0	0	0	0
073012	15:39:26	10031	pm.simpleEngRight	pm.simpleEng	2	57	372	0	0	15:39:26	1257753	0	0	0	0	0	0	0	0	0	0	0	0	0	0	0	0	0
073012	15:39:26	10031	pm.simpleEngRight	blank.simpleEng	2	0	2287	1	0	15:39:26	1260073	0	0	0	0	0	0	0	0	0	0	0	0	0	0	0	0	0
073012	15:39:26	10031	pm.simpleEngRight	pm.simpleEng	2	57	328	0	0	15:39:26	1260432	0	0	0	0	0	0	0	0	0	0	0	0	0	0	0	0	0
073012	15:39:26	10031	pm.simpleEngRight	blank.simpleEng	2	0	1787	1	0	15:39:26	1262245	0	0	0	0	0	0	0	0	0	0	0	0	0	0	0	0	0
073012	15:39:26	10031	pm.simpleEngRight	pm.simpleEng	2	57	283	0	0	15:39:26	1262565	0	0	0	0	0	0	0	0	0	0	0	0	0	0	0	0	0
073012	15:39:26	10031	pm.simpleEngRight	blank.simpleEng	2	0	1487	1	0	15:39:26	1264084	0	0	0	0	0	0	0	0	0	0	0	0	0	0	0	0	0
073012	15:39:26	10031	pm.simpleEngRight	pm.simpleEng	2	57	316	0	0	15:39:26	1264431	0	0	0	0	0	0	0	0	0	0	0	0	0	0	0	0	0
073012	15:39:26	10031	pm.simpleEngRight	blank.simpleEng	2	0	1987	1	0	15:39:26	1266443	0	0	0	0	0	0	0	0	0	0	0	0	0	0	0	0	0
073012	15:39:26	10031	pm.simpleEngRight	pm.simpleEng	2	57	325	0	0	15:39:26	1266803	0	0	0	0	0	0	0	0	0	0	0	0	0	0	0	0	0
073012	15:39:26	10031	pm.simpleEngRight	blank.simpleEng	2	0	2387	1	0	15:39:26	1269215	0	0	0	0	0	0	0	0	0	0	0	0	0	0	0	0	0
073012	15:39:26	10031	pm.simpleEngRight	pm.simpleEng	2	57	288	0	0	15:39:26	1269535	0	0	0	0	0	0	0	0	0	0	0	0	0	0	0	0	0
073012	15:39:26	10031	pm.simpleEngRight	blank.simpleEng	2	0	1587	1	0	15:39:26	1271148	0	0	0	0	0	0	0	0	0	0	0	0	0	0	0	0	0
073012	15:39:26	10031	pm.simpleEngRight	pm.simpleEng	2	57	308	0	0	15:39:26	1271495	0	0	0	0	0	0	0	0	0	0	0	0	0	0	0	0	0
073012	15:39:26	10031	pm.simpleEngRight	blank.simpleEng	2	0	2187	1	0	15:39:26	1273707	0	0	0	0	0	0	0	0	0	0	0	0	0	0	0	0	0
073012	15:39:26	10031	pm.simpleEngRight	pm.simpleEng	2	57	325	0	0	15:39:26	1274067	0	0	0	0	0	0	0	0	0	0	0	0	0	0	0	0	0
073012	15:39:26	10031	pm.simpleEngRight	blank.simpleEng	2	0	1687	1	0	15:39:26	1275786	0	0	0	0	0	0	0	0	0	0	0	0	0	0	0	0	0
073012	15:39:26	10031	pm.simpleEngRight	pm.simpleEng	2	57	357	0	0	15:39:26	1276186	0	0	0	0	0	0	0	0	0	0	0	0	0	0	0	0	0
073012	15:39:26	10031	pm.simpleEngRight	blank.simpleEng	2	0	2487	1	0	15:39:26	1278705	0	0	0	0	0	0	0	0	0	0	0	0	0	0	0	0	0
073012	15:39:26	10031	pm.simpleEngRight	pm.simpleEng	2	57	206	0	0	15:39:26	1278945	0	0	0	0	0	0	0	0	0	0	0	0	0	0	0	0	0
073012	15:39:26	10031	pm.simpleEngRight	blank.simpleEng	2	0	1787	1	0	15:39:26	1280757	0	0	0	0	0	0	0	0	0	0	0	0	0	0	0	0	0
073012	15:39:26	10031	pm.simpleEngRight	pm.simpleEng	2	57	266	0	0	15:39:26	1281064	0	0	0	0	0	0	0	0	0	0	0	0	0	0	0	0	0
073012	15:39:26	10031	pm.simpleEngRight	blank.simpleEng	2	0	2287	1	0	15:39:26	1283383	0	0	0	0	0	0	0	0	0	0	0	0	0	0	0	0	0
073012	15:39:26	10031	pm.simpleEngRight	pm.simpleEng	2	57	201	0	0	15:39:26	1283623	0	0	0	0	0	0	0	0	0	0	0	0	0	0	0	0	0
073012	15:39:26	10031	pm.simpleEngRight	blank.simpleEng	2	0	1587	1	0	15:39:26	1285235	0	0	0	0	0	0	0	0	0	0	0	0	0	0	0	0	0
073012	15:39:26	10031	pm.simpleEngRight	pm.simpleEng	2	57	235	0	0	15:39:26	1285502	0	0	0	0	0	0	0	0	0	0	0	0	0	0	0	0	0
073012	15:39:26	10031	pm.simpleEngRight	blank.simpleEng	2	0	2387	1	0	15:39:26	1287914	0	0	0	0	0	0	0	0	0	0	0	0	0	0	0	0	0
073012	15:39:26	10031	pm.simpleEngRight	pm.simpleEng	2	57	196	0	0	15:39:26	1288141	0	0	0	0	0	0	0	0	0	0	0	0	0	0	0	0	0
073012	15:39:26	10031	pm.simpleEngRight	blank.simpleEng	2	0	1987	1	0	15:39:26	1290153	0	0	0	0	0	0	0	0	0	0	0	0	0	0	0	0	0
073012	15:39:26	10031	pm.simpleEngRight	pm.simpleEng	2	57	182	0	0	15:39:26	1290367	0	0	0	0	0	0	0	0	0	0	0	0	0	0	0	0	0
073012	15:39:26	10031	pm.simpleEngRight	blank.simpleEng	2	0	1487	1	0	15:39:26	1291872	0	0	0	0	0	0	0	0	0	0	0	0	0	0	0	0	0
073012	15:39:26	10031	pm.simpleEngRight	pm.simpleEng	2	57	206	0	0	15:39:26	1292113	0	0	0	0	0	0	0	0	0	0	0	0	0	0	0	0	0
073012	15:39:26	10031	pm.simpleEngRight	blank.simpleEng	2	0	2087	1	0	15:39:26	1294232	0	0	0	0	0	0	0	0	0	0	0	0	0	0	0	0	0
073012	15:39:26	10031	pm.simpleEngRight	pm.simpleEng	2	57	199	0	0	15:39:26	1294472	0	0	0	0	0	0	0	0	0	0	0	0	0	0	0	0	0
073012	15:39:26	10031	pm.simpleEngRight	blank.simpleEng	2	0	1887	1	0	15:39:26	1296391	0	0	0	0	0	0	0	0	0	0	0	0	0	0	0	0	0
073012	15:39:26	10031	pm.simpleEngRight	pm.simpleEng	2	57	200	0	0	15:39:26	1296631	0	0	0	0	0	0	0	0	0	0	0	0	0	0	0	0	0
073012	15:39:26	10031	pm.simpleEngRight	blank.simpleEng	2	0	2187	1	0	15:39:26	1298843	0	0	0	0	0	0	0	0	0	0	0	0	0	0	0	0	0
073012	15:39:26	10031	pm.simpleEngRight	pm.simpleEng	2	57	196	0	0	15:39:26	1299070	0	0	0	0	0	0	0	0	0	0	0	0	0	0	0	0	0
073012	15:39:26	10031	pm.simpleEngRight	blank.simpleEng	2	0	1787	1	0	15:39:26	1300882	0	0	0	0	0	0	0	0	0	0	0	0	0	0	0	0	0
073012	15:39:26	10031	pm.simpleEngRight	pm.simpleEng	2	57	237	0	0	15:39:26	1301149	0	0	0	0	0	0	0	0	0	0	0	0	0	0	0	0	0
073012	15:39:26	10031	pm.simpleEngRight	blank.simpleEng	2	0	2387	1	0	15:39:26	1303561	0	0	0	0	0	0	0	0	0	0	0	0	0	0	0	0	0
073012	15:39:26	10031	pm.simpleEngRight	pm.simpleEng	2	57	198	0	0	15:39:26	1303801	0	0	0	0	0	0	0	0	0	0	0	0	0	0	0	0	0
073012	15:39:26	10031	pm.simpleEngRight	blank.simpleEng	2	57	1877	0	0	15:39:26	1306720	0	0	0	0	0	0	0	0	0	0	0	0	0	0	0	0	0
073012	15:39:26	10031	pm.simpleEngRight	blank.simpleEng	2	0	1987	1	0	15:39:26	1308732	0	0	0	0	0	0	0	0	0	0	0	0	0	0	0	0	0
073012	15:39:26	10031	pm.simpleEngRight	pm.simpleEng	2	57	210	0	0	15:39:26	1308972	0	0	0	0	0	0	0	0	0	0	0	0	0	0	0	0	0
073012	15:39:26	10031	pm.simpleEngRight	blank.simpleEng	2	0	1887	1	0	15:39:26	1310892	0	0	0	0	0	0	0	0	0	0	0	0	0	0	0	0	0
073012	15:39:26	10031	pm.simpleEngRight	pm.simpleEng	2	57	227	0	0	15:39:26	1311158	0	0	0	0	0	0	0	0	0	0	0	0	0	0	0	0	0
073012	15:39:26	10031	pm.simpleEngRight	blank.simpleEng	2	0	1587	1	0	15:39:26	1312771	0	0	0	0	0	0	0	0	0	0	0	0	0	0	0	0	0
073012	15:39:26	10031	pm.simpleEngRight	pm.simpleEng	2	57	271	0	0	15:39:26	1313077	0	0	0	0	0	0	0	0	0	0	0	0	0	0	0	0	0
073012	15:39:26	10031	pm.simpleEngRight	blank.simpleEng	2	0	1687	1	0	15:39:26	1314783	0	0	0	0	0	0	0	0	0	0	0	0	0	0	0	0	0
073012	15:39:26	10031	pm.simpleEngRight	pm.simpleEng	2	57	223	0	0	15:39:26	1315036	0	0	0	0	0	0	0	0	0	0	0	0	0	0	0	0	0
073012	15:39:26	10031	pm.simpleEngRight	blank.simpleEng	2	0	2287	1	0	15:39:26	1317356	0	0	0	0	0	0	0	0	0	0	0	0	0	0	0	0	0
073012	15:39:26	10031	pm.simpleEngRight	pm.simpleEng	2	57	259	0	0	15:39:26	1317649	0	0	0	0	0	0	0	0	0	0	0	0	0	0	0	0	0
073012	15:39:26	10031	pm.simpleEngRight	blank.simpleEng	2	0	2087	1	0	15:39:26	1319768	0	0	0	0	0	0	0	0	0	0	0	0	0	0	0	0	0
073012	15:39:26	10031	pm.simpleEngRight	pm.simpleEng	2	57	198	0	0	15:39:26	1320008	0	0	0	0	0	0	0	0	0	0	0	0	0	0	0	0	0
073012	15:39:26	10031	pm.simpleEngRight	blank.simpleEng	2	0	1487	1	0	15:39:26	1321514	0	0	0	0	0	0	0	0	0	0	0	0	0	0	0	0	0
073012	15:39:26	10031	pm.simpleEngRight	pm.simpleEng	2	57	228	0	0	15:39:26	1321780	0	0	0	0	0	0	0	0	0	0	0	0	0	0	0	0	0
073012	15:39:26	10031	pm.simpleEngRight	blank.simpleEng	2	0	1987	1	0	15:39:26	1323793	0	0	0	0	0	0	0	0	0	0	0	0	0	0	0	0	0
073012	15:39:26	10031	pm.simpleEngRight	pm.simpleEng	2	57	205	0	0	15:39:26	1324033	0	0	0	0	0	0	0	0	0	0	0	0	0	0	0	0	0
073012	15:39:26	10031	pm.simpleEngRight	blank.simpleEng	2	0	2487	1	0	15:39:26	1326552	0	0	0	0	0	0	0	0	0	0	0	0	0	0	0	0	0
073012	15:39:26	10031	pm.simpleEngRight	pm.simpleEng	2	57	198	0	0	15:39:26	1326792	0	0	0	0	0	0	0	0	0	0	0	0	0	0	0	0	0
073012	15:39:26	10031	pm.simpleEngRight	blank.simpleEng	2	0	1787	1	0	15:39:26	1328604	0	0	0	0	0	0	0	0	0	0	0	0	0	0	0	0	0
073012	15:39:26	10031	pm.simpleEngRight	pm.simpleEng	2	57	258	0	0	15:39:26	1328898	0	0	0	0	0	0	0	0	0	0	0	0	0	0	0	0	0
073012	15:39:26	10031	pm.simpleEngRight	blank.simpleEng	2	0	1687	1	0	15:39:26	1330617	0	0	0	0	0	0	0	0	0	0	0	0	0	0	0	0	0
073012	15:39:26	10031	pm.simpleEngRight	pm.simpleEng	2	57	181	0	0	15:39:26	1330830	0	0	0	0	0	0	0	0	0	0	0	0	0	0	0	0	0
073012	15:39:26	10031	pm.simpleEngRight	blank.simpleEng	2	0	1487	1	0	15:39:26	1332349	0	0	0	0	0	0	0	0	0	0	0	0	0	0	0	0	0
073012	15:39:26	10031	pm.simpleEngRight	pm.simpleEng	2	57	193	0	0	15:39:26	1332576	0	0	0	0	0	0	0	0	0	0	0	0	0	0	0	0	0
073012	15:39:26	10031	pm.simpleEngRight	blank.simpleEng	2	0	2387	1	0	15:39:26	1334988	0	0	0	0	0	0	0	0	0	0	0	0	0	0	0	0	0
073012	15:39:26	10031	pm.simpleEngRight	pm.simpleEng	2	57	210	0	0	15:39:26	1335228	0	0	0	0	0	0	0	0	0	0	0	0	0	0	0	0	0
073012	15:39:26	10031	pm.simpleEngRight	blank.simpleEng	2	57	2081	0	0	15:39:26	1338347	0	0	0	0	0	0	0	0	0	0	0	0	0	0	0	0	0
073012	15:39:26	10031	pm.simpleEngRight	blank.simpleEng	2	0	2087	1	0	15:39:26	1340453	0	0	0	0	0	0	0	0	0	0	0	0	0	0	0	0	0
073012	15:39:26	10031	pm.simpleEngRight	pm.simpleEng	2	57	249	0	0	15:39:26	1340733	0	0	0	0	0	0	0	0	0	0	0	0	0	0	0	0	0
073012	15:39:26	10031	pm.simpleEngRight	blank.simpleEng	2	0	1887	1	0	15:39:26	1342652	0	0	0	0	0	0	0	0	0	0	0	0	0	0	0	0	0
073012	15:39:26	10031	pm.simpleEngRight	pm.simpleEng	2	57	210	0	0	15:39:26	1342892	0	0	0	0	0	0	0	0	0	0	0	0	0	0	0	0	0
073012	15:39:26	10031	Trial2BackEng	N	3	0	1000	1	1	15:39:26	1393950	0	0	0	0	0	0	0	0	0	0	0	0	0	0	0	0	0
073012	15:39:26	10031	Trial2BackEng	N	3	0	1000	1	2	15:39:26	1395470	0	0	0	0	0	0	0	0	0	0	0	0	0	0	0	0	0
073012	15:39:26	10031	Trial2BackEng	N	3	0	1000	1	3	15:39:26	1396989	0	0	0	0	0	0	0	0	0	0	0	0	0	0	0	0	0
073012	15:39:26	10031	Trial2BackEng	N	3	0	1000	1	4	15:39:26	1398509	0	0	0	0	0	0	0	0	0	0	0	0	0	0	0	0	0
073012	15:39:26	10031	Trial2BackEng	N	3	0	1000	1	5	15:39:26	1400028	0	0	0	0	0	0	0	0	0	0	0	0	0	0	0	0	0
073012	15:39:26	10031	Trial2BackEng	N	3	0	1000	1	6	15:39:26	1401547	0	0	0	0	0	0	0	0	0	0	0	0	0	0	0	0	0
073012	15:39:26	10031	Trial2BackEng	N	3	0	1000	1	7	15:39:26	1403067	0	0	0	0	0	0	0	0	0	0	0	0	0	0	0	0	0
073012	15:39:26	10031	Trial2BackEng	N	3	0	1000	1	8	15:39:26	1404586	0	0	0	0	0	0	0	0	0	0	0	0	0	0	0	0	0
073012	15:39:26	10031	Trial2BackEng	Y	3	57	742	1	9	15:39:26	1405852	0	0	0	0	0	0	0	0	0	0	0	0	0	0	0	0	0
073012	15:39:26	10031	Trial2BackEng	N	3	0	1000	1	10	15:39:26	1407611	0	0	0	0	0	0	0	0	0	0	0	0	0	0	0	0	0
073012	15:39:26	10031	Trial2BackEng	N	3	0	1000	1	11	15:39:26	1409131	0	0	0	0	0	0	0	0	0	0	0	0	0	0	0	0	0
073012	15:39:26	10031	Trial2BackEng	N	3	0	1000	1	12	15:39:26	1410650	0	0	0	0	0	0	0	0	0	0	0	0	0	0	0	0	0
073012	15:39:26	10031	Trial2BackEng	Y	3	57	645	1	13	15:39:26	1411823	0	0	0	0	0	0	0	0	0	0	0	0	0	0	0	0	0
073012	15:39:26	10031	Trial2BackEng	N	3	0	1000	1	14	15:39:26	1413676	0	0	0	0	0	0	0	0	0	0	0	0	0	0	0	0	0
073012	15:39:26	10031	Trial2BackEng	N	3	0	1000	1	15	15:39:26	1415195	0	0	0	0	0	0	0	0	0	0	0	0	0	0	0	0	0
073012	15:39:26	10031	Trial2BackEng	N	3	0	1000	1	16	15:39:26	1416714	0	0	0	0	0	0	0	0	0	0	0	0	0	0	0	0	0
073012	15:39:26	10031	Trial2BackEng	N	3	0	1000	1	17	15:39:26	1418234	0	0	0	0	0	0	0	0	0	0	0	0	0	0	0	0	0
073012	15:39:26	10031	Trial2BackEng	N	3	57	646	0	17	15:39:26	1419406	0	0	0	0	0	0	0	0	0	0	0	0	0	0	0	0	0
073012	15:39:26	10031	Trial2BackEng	Y	3	0	1000	0	17	15:39:26	1421259	0	0	0	0	0	0	0	0	0	0	0	0	0	0	0	0	0
073012	15:39:26	10031	Trial2BackEng	N	3	0	1000	1	18	15:39:26	1422778	0	0	0	0	0	0	0	0	0	0	0	0	0	0	0	0	0
073012	15:39:26	10031	Trial2BackEng	N	3	0	1000	1	19	15:39:26	1424298	0	0	0	0	0	0	0	0	0	0	0	0	0	0	0	0	0
073012	15:39:26	10031	Trial2BackEng	N	3	0	1000	1	20	15:39:26	1425817	0	0	0	0	0	0	0	0	0	0	0	0	0	0	0	0	0
073012	15:39:26	10031	Trial2BackEng	N	3	0	1000	1	21	15:39:26	1427337	0	0	0	0	0	0	0	0	0	0	0	0	0	0	0	0	0
073012	15:39:26	10031	Trial2BackEng	Y	3	57	631	1	22	15:39:26	1428496	0	0	0	0	0	0	0	0	0	0	0	0	0	0	0	0	0
073012	15:39:26	10031	Trial2BackEng	N	3	0	1000	1	23	15:39:26	1430362	0	0	0	0	0	0	0	0	0	0	0	0	0	0	0	0	0
073012	15:39:26	10031	Trial2BackEng	N	3	0	1000	1	24	15:39:26	1431881	0	0	0	0	0	0	0	0	0	0	0	0	0	0	0	0	0
073012	15:39:26	10031	Trial2BackEng	N	3	0	1000	1	25	15:39:26	1433401	0	0	0	0	0	0	0	0	0	0	0	0	0	0	0	0	0
073012	15:39:26	10031	Trial2BackEng	N	3	0	1000	1	26	15:39:26	1434920	0	0	0	0	0	0	0	0	0	0	0	0	0	0	0	0	0
073012	15:39:26	10031	Trial2BackEng	N	3	0	1000	1	27	15:39:26	1436439	0	0	0	0	0	0	0	0	0	0	0	0	0	0	0	0	0
073012	15:39:26	10031	Trial2BackEng	N	3	0	1000	1	28	15:39:26	1437959	0	0	0	0	0	0	0	0	0	0	0	0	0	0	0	0	0
073012	15:39:26	10031	Trial2BackEng	Y	3	57	680	1	29	15:39:26	1439172	0	0	0	0	0	0	0	0	0	0	0	0	0	0	0	0	0
073012	15:39:26	10031	Trial2BackEng	N	3	0	1000	1	30	15:39:26	1440984	0	0	0	0	0	0	0	0	0	0	0	0	0	0	0	0	0
073012	15:39:26	10031	Trial2BackEng	N	3	0	1000	1	31	15:39:26	1442504	0	0	0	0	0	0	0	0	0	0	0	0	0	0	0	0	0
073012	15:39:26	10031	Trial2BackEng	N	3	0	1000	1	32	15:39:26	1444023	0	0	0	0	0	0	0	0	0	0	0	0	0	0	0	0	0
073012	15:39:26	10031	Trial2BackEng	Y	3	57	551	1	33	15:39:26	1445102	0	0	0	0	0	0	0	0	0	0	0	0	0	0	0	0	0
073012	15:39:26	10031	Trial2BackEng	N	3	0	1000	1	34	15:39:26	1447048	0	0	0	0	0	0	0	0	0	0	0	0	0	0	0	0	0
073012	15:39:26	10031	Trial2BackEng	N	3	0	1000	1	35	15:39:26	1448568	0	0	0	0	0	0	0	0	0	0	0	0	0	0	0	0	0
073012	15:39:26	10031	Trial2BackEng	N	3	0	1000	1	36	15:39:26	1450087	0	0	0	0	0	0	0	0	0	0	0	0	0	0	0	0	0
073012	15:39:26	10031	Trial2BackEng	N	3	0	1000	1	37	15:39:26	1451607	0	0	0	0	0	0	0	0	0	0	0	0	0	0	0	0	0
073012	15:39:26	10031	Trial2BackEng	N	3	0	1000	1	38	15:39:26	1453126	0	0	0	0	0	0	0	0	0	0	0	0	0	0	0	0	0
073012	15:39:26	10031	Trial2BackEng	N	3	0	1000	1	39	15:39:26	1454645	0	0	0	0	0	0	0	0	0	0	0	0	0	0	0	0	0
073012	15:39:26	10031	Trial2BackEng	Y	3	57	713	1	40	15:39:26	1455885	0	0	0	0	0	0	0	0	0	0	0	0	0	0	0	0	0
073012	15:39:26	10031	Trial2BackEng	N	3	0	1000	1	41	15:39:26	1457671	0	0	0	0	0	0	0	0	0	0	0	0	0	0	0	0	0
073012	15:39:26	10031	Trial2BackEng	N	3	0	1000	1	42	15:39:26	1459190	0	0	0	0	0	0	0	0	0	0	0	0	0	0	0	0	0
073012	15:39:26	10031	Trial2BackEng	N	3	0	1000	1	43	15:39:26	1460709	0	0	0	0	0	0	0	0	0	0	0	0	0	0	0	0	0
073012	15:39:26	10031	Trial2BackEng	N	3	0	1000	1	44	15:39:26	1462229	0	0	0	0	0	0	0	0	0	0	0	0	0	0	0	0	0
073012	15:39:26	10031	Trial2BackEng	Y	3	57	537	1	45	15:39:26	1463295	0	0	0	0	0	0	0	0	0	0	0	0	0	0	0	0	0
073012	15:39:26	10031	Trial2BackEng	N	3	0	1000	1	46	15:39:26	1465254	0	0	0	0	0	0	0	0	0	0	0	0	0	0	0	0	0
073012	15:39:26	10031	Trial2BackEng	N	3	0	1000	1	47	15:39:26	1466774	0	0	0	0	0	0	0	0	0	0	0	0	0	0	0	0	0
073012	15:39:26	10031	Trial2BackEng	N	3	0	1000	1	48	15:39:26	1468293	0	0	0	0	0	0	0	0	0	0	0	0	0	0	0	0	0
073012	15:39:26	10031	Trial2BackEng	N	3	0	1000	1	49	15:39:26	1469812	0	0	0	0	0	0	0	0	0	0	0	0	0	0	0	0	0
073012	15:39:26	10031	Trial2BackEng	N	3	0	1000	1	50	15:39:26	1471332	0	0	0	0	0	0	0	0	0	0	0	0	0	0	0	0	0
073012	15:39:26	10031	Trial2BackEng	Y	3	57	778	1	51	15:39:26	1472638	0	0	0	0	0	0	0	0	0	0	0	0	0	0	0	0	0
073012	15:39:26	10031	Trial2BackEng	N	3	0	1000	1	52	15:39:26	1474357	0	0	0	0	0	0	0	0	0	0	0	0	0	0	0	0	0
073012	15:39:26	10031	Trial2BackEng	N	3	0	1000	1	53	15:39:26	1475876	0	0	0	0	0	0	0	0	0	0	0	0	0	0	0	0	0
073012	15:39:26	10031	Trial2BackEng	N	3	0	1000	1	54	15:39:26	1477396	0	0	0	0	0	0	0	0	0	0	0	0	0	0	0	0	0
073012	15:39:26	10031	Trial2BackEng	N	3	0	1000	1	55	15:39:26	1478915	0	0	0	0	0	0	0	0	0	0	0	0	0	0	0	0	0
073012	15:39:26	10031	Trial2BackEng	N	3	0	1000	1	56	15:39:26	1480435	0	0	0	0	0	0	0	0	0	0	0	0	0	0	0	0	0
073012	15:39:26	10031	Trial2BackEng	N	3	0	1000	1	57	15:39:26	1481954	0	0	0	0	0	0	0	0	0	0	0	0	0	0	0	0	0
073012	15:39:26	10031	Trial2BackEng	Y	3	57	651	1	58	15:39:26	1483141	0	0	0	0	0	0	0	0	0	0	0	0	0	0	0	0	0
073012	15:39:26	10031	Trial2BackEng	N	3	0	1000	1	59	15:39:26	1484979	0	0	0	0	0	0	0	0	0	0	0	0	0	0	0	0	0
073012	15:39:26	10031	Trial2BackEng	N	3	0	1000	1	60	15:39:26	1486499	0	0	0	0	0	0	0	0	0	0	0	0	0	0	0	0	0
073012	15:39:26	10031	Trial2BackEng	Y	3	57	890	1	61	15:39:26	1487911	0	0	0	0	0	0	0	0	0	0	0	0	0	0	0	0	0
073012	15:39:26	10031	Trial2BackEng	N	3	0	1000	1	62	15:39:26	1489524	0	0	0	0	0	0	0	0	0	0	0	0	0	0	0	0	0
073012	15:39:26	10031	Trial2BackEng	N	3	0	1000	1	63	15:39:26	1491044	0	0	0	0	0	0	0	0	0	0	0	0	0	0	0	0	0
073012	15:39:26	10031	Trial2BackEng	N	3	0	1000	1	64	15:39:26	1492563	0	0	0	0	0	0	0	0	0	0	0	0	0	0	0	0	0
073012	15:39:26	10031	Trial2BackEng	N	3	0	1000	1	65	15:39:26	1494082	0	0	0	0	0	0	0	0	0	0	0	0	0	0	0	0	0
073012	15:39:26	10031	Trial2BackEng	N	3	0	1000	1	66	15:39:26	1495602	0	0	0	0	0	0	0	0	0	0	0	0	0	0	0	0	0
073012	15:39:26	10031	Trial2BackEng	N	3	0	1000	1	67	15:39:26	1497121	0	0	0	0	0	0	0	0	0	0	0	0	0	0	0	0	0
073012	15:39:26	10031	Trial2BackEng	N	3	0	1000	1	68	15:39:26	1498640	0	0	0	0	0	0	0	0	0	0	0	0	0	0	0	0	0
073012	15:39:26	10031	Trial2BackEng	N	3	0	1000	1	69	15:39:26	1500160	0	0	0	0	0	0	0	0	0	0	0	0	0	0	0	0	0
073012	15:39:26	10031	Trial2BackEng	N	3	57	749	0	69	15:39:26	1501439	0	0	0	0	0	0	0	0	0	0	0	0	0	0	0	0	0
073012	15:39:26	10031	Trial2BackEng	N	3	0	1000	1	70	15:39:26	1503185	0	0	0	0	0	0	0	0	0	0	0	0	0	0	0	0	0
073012	15:39:26	10031	Trial2BackEng	Y	3	57	699	1	71	15:39:26	1504411	0	0	0	0	0	0	0	0	0	0	0	0	0	0	0	0	0
073012	15:39:26	10031	Trial2BackEng	N	3	0	1000	1	72	15:39:26	1506211	0	0	0	0	0	0	0	0	0	0	0	0	0	0	0	0	0
073012	15:39:26	10031	Trial2BackEng	N	3	0	1000	1	73	15:39:26	1507730	0	0	0	0	0	0	0	0	0	0	0	0	0	0	0	0	0
073012	15:39:26	10031	Trial2BackEng	N	3	0	1000	1	74	15:39:26	1509249	0	0	0	0	0	0	0	0	0	0	0	0	0	0	0	0	0
073012	15:39:26	10031	Trial2BackEng	Y	3	57	747	1	75	15:39:26	1510529	0	0	0	0	0	0	0	0	0	0	0	0	0	0	0	0	0
073012	15:39:26	10031	Trial2BackEng	N	3	0	1000	1	76	15:39:26	1512275	0	0	0	0	0	0	0	0	0	0	0	0	0	0	0	0	0
073012	15:39:26	10031	Trial2BackEng	N	3	0	1000	1	77	15:39:26	1513794	0	0	0	0	0	0	0	0	0	0	0	0	0	0	0	0	0
073012	15:39:26	10031	Trial2BackEng	N	3	0	1000	1	78	15:39:26	1515313	0	0	0	0	0	0	0	0	0	0	0	0	0	0	0	0	0
073012	15:39:26	10031	Trial2BackEng	N	3	0	1000	1	79	15:39:26	1516833	0	0	0	0	0	0	0	0	0	0	0	0	0	0	0	0	0
073012	15:39:26	10031	Trial2BackEng	N	3	0	1000	1	80	15:39:26	1518352	0	0	0	0	0	0	0	0	0	0	0	0	0	0	0	0	0
073012	15:39:26	10031	Trial2BackEng	Y	3	57	780	1	81	15:39:26	1519658	0	0	0	0	0	0	0	0	0	0	0	0	0	0	0	0	0
073012	15:39:26	10031	Trial2BackEng	N	3	0	1000	1	82	15:39:26	1521378	0	0	0	0	0	0	0	0	0	0	0	0	0	0	0	0	0
073012	15:39:26	10031	Trial2BackEng	N	3	0	1000	1	83	15:39:26	1522897	0	0	0	0	0	0	0	0	0	0	0	0	0	0	0	0	0
073012	15:39:26	10031	Trial2BackEng	N	3	0	1000	1	84	15:39:26	1524416	0	0	0	0	0	0	0	0	0	0	0	0	0	0	0	0	0
073012	15:39:26	10031	Trial2BackEng	N	3	0	1000	1	85	15:39:26	1525936	0	0	0	0	0	0	0	0	0	0	0	0	0	0	0	0	0
073012	15:39:26	10031	Trial2BackEng	N	3	0	1000	1	86	15:39:26	1527455	0	0	0	0	0	0	0	0	0	0	0	0	0	0	0	0	0
073012	15:39:26	10031	Trial2BackEng	N	3	0	1000	1	87	15:39:26	1528975	0	0	0	0	0	0	0	0	0	0	0	0	0	0	0	0	0
073012	15:39:26	10031	Trial2BackEng	N	3	0	1000	1	88	15:39:26	1530494	0	0	0	0	0	0	0	0	0	0	0	0	0	0	0	0	0
073012	15:39:26	10031	Trial2BackEng	N	3	0	1000	1	89	15:39:26	1532013	0	0	0	0	0	0	0	0	0	0	0	0	0	0	0	0	0
073012	15:39:26	10031	Trial2BackEng	N	3	0	1000	1	90	15:39:26	1533533	0	0	0	0	0	0	0	0	0	0	0	0	0	0	0	0	0
073012	15:39:26	10031	Trial2BackEng	Y	3	57	735	1	91	15:39:26	1534799	0	0	0	0	0	0	0	0	0	0	0	0	0	0	0	0	0
073012	15:39:26	10031	Trial2BackEng	N	3	0	1000	1	92	15:39:26	1536558	0	0	0	0	0	0	0	0	0	0	0	0	0	0	0	0	0
073012	15:39:26	10031	Trial2BackEng	N	3	0	1000	1	93	15:39:26	1538077	0	0	0	0	0	0	0	0	0	0	0	0	0	0	0	0	0
073012	15:39:26	10031	Trial2BackEng	N	3	0	1000	1	94	15:39:26	1539597	0	0	0	0	0	0	0	0	0	0	0	0	0	0	0	0	0
073012	15:39:26	10031	Trial2BackEng	N	3	0	1000	1	95	15:39:26	1541116	0	0	0	0	0	0	0	0	0	0	0	0	0	0	0	0	0
073012	15:39:26	10031	Trial2BackEng	N	3	0	1000	1	96	15:39:26	1542635	0	0	0	0	0	0	0	0	0	0	0	0	0	0	0	0	0
073012	15:39:26	10031	Trial2BackEng	N	3	0	1000	1	97	15:39:26	1544155	0	0	0	0	0	0	0	0	0	0	0	0	0	0	0	0	0
073012	15:39:26	10031	Trial2BackEng	N	3	0	1000	1	98	15:39:26	1545674	0	0	0	0	0	0	0	0	0	0	0	0	0	0	0	0	0
073012	15:39:26	10031	Trial2BackEng	N	3	0	1000	1	99	15:39:26	1547194	0	0	0	0	0	0	0	0	0	0	0	0	0	0	0	0	0
073012	15:39:26	10031	Trial2BackEng	Y	3	57	466	1	100	15:39:26	1548193	0	0	0	0	0	0	0	0	0	0	0	0	0	0	0	0	0
073012	15:39:26	10031	Trial2BackEng	N	3	0	1000	1	101	15:39:26	1550219	0	0	0	0	0	0	0	0	0	0	0	0	0	0	0	0	0
073012	15:39:26	10031	Trial2BackEng	N	3	0	1000	1	102	15:39:26	1551738	0	0	0	0	0	0	0	0	0	0	0	0	0	0	0	0	0
073012	15:39:26	10031	Trial2BackEng	N	3	0	1000	1	103	15:39:26	1553258	0	0	0	0	0	0	0	0	0	0	0	0	0	0	0	0	0
073012	15:39:26	10031	Trial2BackEng	N	3	0	1000	1	104	15:39:26	1554777	0	0	0	0	0	0	0	0	0	0	0	0	0	0	0	0	0
073012	15:39:26	10031	Trial2BackEng	Y	3	57	706	1	105	15:39:26	1556017	0	0	0	0	0	0	0	0	0	0	0	0	0	0	0	0	0
073012	15:39:26	10031	Trial2BackEng	N	3	0	1000	1	106	15:39:26	1557803	0	0	0	0	0	0	0	0	0	0	0	0	0	0	0	0	0
073012	15:39:26	10031	Trial2BackEng	N	3	0	1000	1	107	15:39:26	1559322	0	0	0	0	0	0	0	0	0	0	0	0	0	0	0	0	0
073012	15:39:26	10031	Trial2BackEng	N	3	0	1000	1	108	15:39:26	1560841	0	0	0	0	0	0	0	0	0	0	0	0	0	0	0	0	0
073012	15:39:26	10031	Trial2BackEng	Y	3	57	641	1	109	15:39:26	1562014	0	0	0	0	0	0	0	0	0	0	0	0	0	0	0	0	0
073012	15:39:26	10031	Trial2BackEng	N	3	0	1000	1	110	15:39:26	1563867	0	0	0	0	0	0	0	0	0	0	0	0	0	0	0	0	0
073012	15:39:26	10031	Trial2BackEng	N	3	0	1000	1	111	15:39:26	1565386	0	0	0	0	0	0	0	0	0	0	0	0	0	0	0	0	0
073012	15:39:26	10031	Trial2BackEng	N	3	0	1000	1	112	15:39:26	1566905	0	0	0	0	0	0	0	0	0	0	0	0	0	0	0	0	0
073012	15:39:26	10031	Trial2BackEng	N	3	0	1000	1	113	15:39:26	1568425	0	0	0	0	0	0	0	0	0	0	0	0	0	0	0	0	0
073012	15:39:26	10031	Trial2BackEng	N	3	0	1000	1	114	15:39:26	1569944	0	0	0	0	0	0	0	0	0	0	0	0	0	0	0	0	0
073012	15:39:26	10031	Trial2BackEng	Y	3	57	594	1	115	15:39:26	1571063	0	0	0	0	0	0	0	0	0	0	0	0	0	0	0	0	0
073012	15:39:26	10031	Trial2BackEng	N	3	0	1000	1	116	15:39:26	1572970	0	0	0	0	0	0	0	0	0	0	0	0	0	0	0	0	0
073012	15:39:26	10031	Trial2BackEng	N	3	0	1000	1	117	15:39:26	1574489	0	0	0	0	0	0	0	0	0	0	0	0	0	0	0	0	0
073012	15:39:26	10031	Trial2BackEng	N	3	0	1000	1	118	15:39:26	1576008	0	0	0	0	0	0	0	0	0	0	0	0	0	0	0	0	0
073012	15:39:26	10031	Trial2BackEng	Y	3	57	738	1	119	15:39:26	1577274	0	0	0	0	0	0	0	0	0	0	0	0	0	0	0	0	0
073012	15:39:26	10031	Trial3BackEng	NN	4	0	1000	1	119	15:39:26	1589043	0	0	0	0	0	0	0	0	0	0	0	0	0	0	0	0	0
073012	15:39:26	10031	Trial3BackEng	NN	4	0	1000	1	119	15:39:26	1590562	0	0	0	0	0	0	0	0	0	0	0	0	0	0	0	0	0
073012	15:39:26	10031	Trial3BackEng	NN	4	0	1000	1	119	15:39:26	1592082	0	0	0	0	0	0	0	0	0	0	0	0	0	0	0	0	0
073012	15:39:26	10031	Trial3BackEng	YY	4	57	616	1	119	15:39:26	1593228	0	0	0	0	0	0	0	0	0	0	0	0	0	0	0	0	0
073012	15:39:26	10031	Trial3BackEng	NN	4	0	1000	1	119	15:39:26	1595107	0	0	0	0	0	0	0	0	0	0	0	0	0	0	0	0	0
073012	15:39:26	10031	Trial3BackEng	NN	4	0	1000	1	119	15:39:26	1596626	0	0	0	0	0	0	0	0	0	0	0	0	0	0	0	0	0
073012	15:39:26	10031	Trial3BackEng	NN	4	0	1000	1	119	15:39:26	1598146	0	0	0	0	0	0	0	0	0	0	0	0	0	0	0	0	0
073012	15:39:26	10031	Trial3BackEng	NN	4	57	904	0	119	15:39:26	1599572	0	0	0	0	0	0	0	0	0	0	0	0	0	0	0	0	0
073012	15:39:26	10031	Trial3BackEng	YY	4	0	1000	0	119	15:39:26	1601171	0	0	0	0	0	0	0	0	0	0	0	0	0	0	0	0	0
073012	15:39:26	10031	Trial3BackEng	NN	4	0	1000	1	119	15:39:26	1602691	0	0	0	0	0	0	0	0	0	0	0	0	0	0	0	0	0
073012	15:39:26	10031	Trial3BackEng	NN	4	0	1000	1	119	15:39:26	1604210	0	0	0	0	0	0	0	0	0	0	0	0	0	0	0	0	0
073012	15:39:26	10031	Trial3BackEng	NN	4	0	1000	1	119	15:39:26	1605729	0	0	0	0	0	0	0	0	0	0	0	0	0	0	0	0	0
073012	15:39:26	10031	Trial3BackEng	NN	4	0	1000	1	119	15:39:26	1607249	0	0	0	0	0	0	0	0	0	0	0	0	0	0	0	0	0
073012	15:39:26	10031	Trial3BackEng	NN	4	0	1000	1	119	15:39:26	1608768	0	0	0	0	0	0	0	0	0	0	0	0	0	0	0	0	0
073012	15:39:26	10031	Trial3BackEng	NN	4	0	1000	1	119	15:39:26	1610287	0	0	0	0	0	0	0	0	0	0	0	0	0	0	0	0	0
073012	15:39:26	10031	Trial3BackEng	NN	4	0	1000	1	119	15:39:26	1611807	0	0	0	0	0	0	0	0	0	0	0	0	0	0	0	0	0
073012	15:39:26	10031	Trial3BackEng	YY	4	0	1000	0	119	15:39:26	1613326	0	0	0	0	0	0	0	0	0	0	0	0	0	0	0	0	0
073012	15:39:26	10031	Trial3BackEng	NN	4	0	1000	1	119	15:39:26	1614846	0	0	0	0	0	0	0	0	0	0	0	0	0	0	0	0	0
073012	15:39:26	10031	Trial3BackEng	NN	4	0	1000	1	119	15:39:26	1616365	0	0	0	0	0	0	0	0	0	0	0	0	0	0	0	0	0
073012	15:39:26	10031	Trial3BackEng	NN	4	0	1000	1	119	15:39:26	1617884	0	0	0	0	0	0	0	0	0	0	0	0	0	0	0	0	0
073012	15:39:26	10031	Trial3BackEng	NN	4	0	1000	1	119	15:39:26	1619404	0	0	0	0	0	0	0	0	0	0	0	0	0	0	0	0	0
073012	15:39:26	10031	Trial3BackEng	NN	4	0	1000	1	119	15:39:26	1620923	0	0	0	0	0	0	0	0	0	0	0	0	0	0	0	0	0
073012	15:39:26	10031	Trial3BackEng	YY	4	0	1000	0	119	15:39:26	1622442	0	0	0	0	0	0	0	0	0	0	0	0	0	0	0	0	0
073012	15:39:26	10031	Trial3BackEng	NN	4	0	1000	1	119	15:39:26	1623962	0	0	0	0	0	0	0	0	0	0	0	0	0	0	0	0	0
073012	15:39:26	10031	Trial3BackEng	NN	4	0	1000	1	119	15:39:26	1625481	0	0	0	0	0	0	0	0	0	0	0	0	0	0	0	0	0
073012	15:39:26	10031	Trial3BackEng	NN	4	0	1000	1	119	15:39:26	1627000	0	0	0	0	0	0	0	0	0	0	0	0	0	0	0	0	0
073012	15:39:26	10031	Trial3BackEng	YY	4	57	848	1	119	15:39:26	1628373	0	0	0	0	0	0	0	0	0	0	0	0	0	0	0	0	0
073012	15:39:26	10031	Trial3BackEng	NN	4	0	1000	1	119	15:39:26	1630026	0	0	0	0	0	0	0	0	0	0	0	0	0	0	0	0	0
073012	15:39:26	10031	Trial3BackEng	NN	4	0	1000	1	119	15:39:26	1631545	0	0	0	0	0	0	0	0	0	0	0	0	0	0	0	0	0
073012	15:39:26	10031	Trial3BackEng	NN	4	0	1000	1	119	15:39:26	1633065	0	0	0	0	0	0	0	0	0	0	0	0	0	0	0	0	0
073012	15:39:26	10031	Trial3BackEng	YY	4	0	1000	0	119	15:39:26	1634584	0	0	0	0	0	0	0	0	0	0	0	0	0	0	0	0	0
073012	15:39:26	10031	Trial3BackEng	NN	4	0	1000	1	119	15:39:26	1636103	0	0	0	0	0	0	0	0	0	0	0	0	0	0	0	0	0
073012	15:39:26	10031	Trial3BackEng	NN	4	0	1000	1	119	15:39:26	1637623	0	0	0	0	0	0	0	0	0	0	0	0	0	0	0	0	0
073012	15:39:26	10031	Trial3BackEng	NN	4	0	1000	1	119	15:39:26	1639142	0	0	0	0	0	0	0	0	0	0	0	0	0	0	0	0	0
073012	15:39:26	10031	Trial3BackEng	NN	4	0	1000	1	119	15:39:26	1640661	0	0	0	0	0	0	0	0	0	0	0	0	0	0	0	0	0
073012	15:39:26	10031	Trial3BackEng	NN	4	0	1000	1	119	15:39:26	1642181	0	0	0	0	0	0	0	0	0	0	0	0	0	0	0	0	0
073012	15:39:26	10031	Trial3BackEng	NN	4	0	1000	1	119	15:39:26	1643700	0	0	0	0	0	0	0	0	0	0	0	0	0	0	0	0	0
073012	15:39:26	10031	Trial3BackEng	NN	4	0	1000	1	119	15:39:26	1645220	0	0	0	0	0	0	0	0	0	0	0	0	0	0	0	0	0
073012	15:39:26	10031	Trial3BackEng	NN	4	0	1000	1	119	15:39:26	1646739	0	0	0	0	0	0	0	0	0	0	0	0	0	0	0	0	0
073012	15:39:26	10031	Trial3BackEng	NN	4	0	1000	1	119	15:39:26	1648258	0	0	0	0	0	0	0	0	0	0	0	0	0	0	0	0	0
073012	15:39:26	10031	Trial3BackEng	NN	4	0	1000	1	119	15:39:26	1649778	0	0	0	0	0	0	0	0	0	0	0	0	0	0	0	0	0
073012	15:39:26	10031	Trial3BackEng	YY	4	57	662	1	119	15:39:26	1650964	0	0	0	0	0	0	0	0	0	0	0	0	0	0	0	0	0
073012	15:39:26	10031	Trial3BackEng	NN	4	0	1000	1	119	15:39:26	1652803	0	0	0	0	0	0	0	0	0	0	0	0	0	0	0	0	0
073012	15:39:26	10031	Trial3BackEng	NN	4	0	1000	1	119	15:39:26	1654323	0	0	0	0	0	0	0	0	0	0	0	0	0	0	0	0	0
073012	15:39:26	10031	Trial3BackEng	NN	4	0	1000	1	119	15:39:26	1655842	0	0	0	0	0	0	0	0	0	0	0	0	0	0	0	0	0
073012	15:39:26	10031	Trial3BackEng	NN	4	0	1000	1	119	15:39:26	1657361	0	0	0	0	0	0	0	0	0	0	0	0	0	0	0	0	0
073012	15:39:26	10031	Trial3BackEng	YY	4	0	1000	0	119	15:39:26	1658881	0	0	0	0	0	0	0	0	0	0	0	0	0	0	0	0	0
073012	15:39:26	10031	Trial3BackEng	NN	4	0	1000	1	119	15:39:26	1660400	0	0	0	0	0	0	0	0	0	0	0	0	0	0	0	0	0
073012	15:39:26	10031	Trial3BackEng	NN	4	0	1000	1	119	15:39:26	1661919	0	0	0	0	0	0	0	0	0	0	0	0	0	0	0	0	0
073012	15:39:26	10031	Trial3BackEng	NN	4	0	1000	1	119	15:39:26	1663439	0	0	0	0	0	0	0	0	0	0	0	0	0	0	0	0	0
073012	15:39:26	10031	Trial3BackEng	NN	4	0	1000	1	119	15:39:26	1664958	0	0	0	0	0	0	0	0	0	0	0	0	0	0	0	0	0
073012	15:39:26	10031	Trial3BackEng	NN	4	0	1000	1	119	15:39:26	1666477	0	0	0	0	0	0	0	0	0	0	0	0	0	0	0	0	0
073012	15:39:26	10031	Trial3BackEng	YY	4	0	1000	0	119	15:39:26	1667997	0	0	0	0	0	0	0	0	0	0	0	0	0	0	0	0	0
073012	15:39:26	10031	Trial3BackEng	NN	4	0	1000	1	119	15:39:26	1669516	0	0	0	0	0	0	0	0	0	0	0	0	0	0	0	0	0
073012	15:39:26	10031	Trial3BackEng	NN	4	0	1000	1	119	15:39:26	1671035	0	0	0	0	0	0	0	0	0	0	0	0	0	0	0	0	0
073012	15:39:26	10031	Trial3BackEng	NN	4	0	1000	1	119	15:39:26	1672555	0	0	0	0	0	0	0	0	0	0	0	0	0	0	0	0	0
073012	15:39:26	10031	Trial3BackEng	NN	4	0	1000	1	119	15:39:26	1674075	0	0	0	0	0	0	0	0	0	0	0	0	0	0	0	0	0
073012	15:39:26	10031	Trial3BackEng	NN	4	0	1000	1	119	15:39:26	1675594	0	0	0	0	0	0	0	0	0	0	0	0	0	0	0	0	0
073012	15:39:26	10031	Trial3BackEng	NN	4	0	1000	1	119	15:39:26	1677113	0	0	0	0	0	0	0	0	0	0	0	0	0	0	0	0	0
073012	15:39:26	10031	Trial3BackEng	YY	4	0	1000	0	119	15:39:26	1678632	0	0	0	0	0	0	0	0	0	0	0	0	0	0	0	0	0
073012	15:39:26	10031	Trial3BackEng	NN	4	0	1000	1	119	15:39:26	1680152	0	0	0	0	0	0	0	0	0	0	0	0	0	0	0	0	0
073012	15:39:26	10031	Trial3BackEng	NN	4	0	1000	1	119	15:39:26	1681671	0	0	0	0	0	0	0	0	0	0	0	0	0	0	0	0	0
073012	15:39:26	10031	Trial3BackEng	NN	4	0	1000	1	119	15:39:26	1683190	0	0	0	0	0	0	0	0	0	0	0	0	0	0	0	0	0
073012	15:39:26	10031	Trial3BackEng	YY	4	0	1000	0	119	15:39:26	1684710	0	0	0	0	0	0	0	0	0	0	0	0	0	0	0	0	0
073012	15:39:26	10031	Trial3BackEng	NN	4	0	1000	1	119	15:39:26	1686229	0	0	0	0	0	0	0	0	0	0	0	0	0	0	0	0	0
073012	15:39:26	10031	Trial3BackEng	NN	4	0	1000	1	119	15:39:26	1687749	0	0	0	0	0	0	0	0	0	0	0	0	0	0	0	0	0
073012	15:39:26	10031	Trial3BackEng	NN	4	0	1000	1	119	15:39:26	1689268	0	0	0	0	0	0	0	0	0	0	0	0	0	0	0	0	0
073012	15:39:26	10031	Trial3BackEng	NN	4	0	1000	1	119	15:39:26	1690787	0	0	0	0	0	0	0	0	0	0	0	0	0	0	0	0	0
073012	15:39:26	10031	Trial3BackEng	NN	4	0	1000	1	119	15:39:26	1692307	0	0	0	0	0	0	0	0	0	0	0	0	0	0	0	0	0
073012	15:39:26	10031	Trial3BackEng	NN	4	0	1000	1	119	15:39:26	1693826	0	0	0	0	0	0	0	0	0	0	0	0	0	0	0	0	0
073012	15:39:26	10031	Trial3BackEng	NN	4	0	1000	1	119	15:39:26	1695345	0	0	0	0	0	0	0	0	0	0	0	0	0	0	0	0	0
073012	15:39:26	10031	Trial3BackEng	NN	4	0	1000	1	119	15:39:26	1696865	0	0	0	0	0	0	0	0	0	0	0	0	0	0	0	0	0
073012	15:39:26	10031	Trial3BackEng	NN	4	0	1000	1	119	15:39:26	1698384	0	0	0	0	0	0	0	0	0	0	0	0	0	0	0	0	0
073012	15:39:26	10031	Trial3BackEng	YY	4	57	598	1	119	15:39:26	1699504	0	0	0	0	0	0	0	0	0	0	0	0	0	0	0	0	0
073012	15:39:26	10031	Trial3BackEng	NN	4	0	1000	1	119	15:39:26	1701410	0	0	0	0	0	0	0	0	0	0	0	0	0	0	0	0	0
073012	15:39:26	10031	Trial3BackEng	NN	4	0	1000	1	119	15:39:26	1702929	0	0	0	0	0	0	0	0	0	0	0	0	0	0	0	0	0
073012	15:39:26	10031	Trial3BackEng	NN	4	0	1000	1	119	15:39:26	1704448	0	0	0	0	0	0	0	0	0	0	0	0	0	0	0	0	0
073012	15:39:26	10031	Trial3BackEng	YY	4	57	603	1	119	15:39:26	1705608	0	0	0	0	0	0	0	0	0	0	0	0	0	0	0	0	0
073012	15:39:26	10031	Trial3BackEng	NN	4	0	1000	1	119	15:39:26	1707500	0	0	0	0	0	0	0	0	0	0	0	0	0	0	0	0	0
073012	15:39:26	10031	Trial3BackEng	NN	4	0	1000	1	119	15:39:26	1709020	0	0	0	0	0	0	0	0	0	0	0	0	0	0	0	0	0
073012	15:39:26	10031	Trial3BackEng	NN	4	0	1000	1	119	15:39:26	1710539	0	0	0	0	0	0	0	0	0	0	0	0	0	0	0	0	0
073012	15:39:26	10031	Trial3BackEng	NN	4	0	1000	1	119	15:39:26	1712059	0	0	0	0	0	0	0	0	0	0	0	0	0	0	0	0	0
073012	15:39:26	10031	Trial3BackEng	NN	4	57	667	0	119	15:39:26	1713258	0	0	0	0	0	0	0	0	0	0	0	0	0	0	0	0	0
073012	15:39:26	10031	Trial3BackEng	YY	4	0	1000	0	119	15:39:26	1715084	0	0	0	0	0	0	0	0	0	0	0	0	0	0	0	0	0
073012	15:39:26	10031	Trial3BackEng	NN	4	0	1000	1	119	15:39:26	1716603	0	0	0	0	0	0	0	0	0	0	0	0	0	0	0	0	0
073012	15:39:26	10031	Trial3BackEng	NN	4	0	1000	1	119	15:39:26	1718123	0	0	0	0	0	0	0	0	0	0	0	0	0	0	0	0	0
073012	15:39:26	10031	Trial3BackEng	NN	4	0	1000	1	119	15:39:26	1719642	0	0	0	0	0	0	0	0	0	0	0	0	0	0	0	0	0
073012	15:39:26	10031	Trial3BackEng	NN	4	0	1000	1	119	15:39:26	1721161	0	0	0	0	0	0	0	0	0	0	0	0	0	0	0	0	0
073012	15:39:26	10031	Trial3BackEng	NN	4	0	1000	1	119	15:39:26	1722681	0	0	0	0	0	0	0	0	0	0	0	0	0	0	0	0	0
073012	15:39:26	10031	Trial3BackEng	NN	4	0	1000	1	119	15:39:26	1724200	0	0	0	0	0	0	0	0	0	0	0	0	0	0	0	0	0
073012	15:39:26	10031	Trial3BackEng	NN	4	0	1000	1	119	15:39:26	1725720	0	0	0	0	0	0	0	0	0	0	0	0	0	0	0	0	0
073012	15:39:26	10031	Trial3BackEng	NN	4	0	1000	1	119	15:39:26	1727239	0	0	0	0	0	0	0	0	0	0	0	0	0	0	0	0	0
073012	15:39:26	10031	Trial3BackEng	NN	4	0	1000	1	119	15:39:26	1728758	0	0	0	0	0	0	0	0	0	0	0	0	0	0	0	0	0
073012	15:39:26	10031	Trial3BackEng	YY	4	57	847	1	119	15:39:26	1730131	0	0	0	0	0	0	0	0	0	0	0	0	0	0	0	0	0
073012	15:39:26	10031	Trial3BackEng	NN	4	0	1000	1	119	15:39:26	1731784	0	0	0	0	0	0	0	0	0	0	0	0	0	0	0	0	0
073012	15:39:26	10031	Trial3BackEng	NN	4	0	1000	1	119	15:39:26	1733303	0	0	0	0	0	0	0	0	0	0	0	0	0	0	0	0	0
073012	15:39:26	10031	Trial3BackEng	NN	4	0	1000	1	119	15:39:26	1734822	0	0	0	0	0	0	0	0	0	0	0	0	0	0	0	0	0
073012	15:39:26	10031	Trial3BackEng	NN	4	0	1000	1	119	15:39:26	1736342	0	0	0	0	0	0	0	0	0	0	0	0	0	0	0	0	0
073012	15:39:26	10031	Trial3BackEng	NN	4	0	1000	1	119	15:39:26	1737861	0	0	0	0	0	0	0	0	0	0	0	0	0	0	0	0	0
073012	15:39:26	10031	Trial3BackEng	NN	4	0	1000	1	119	15:39:26	1739381	0	0	0	0	0	0	0	0	0	0	0	0	0	0	0	0	0
073012	15:39:26	10031	Trial3BackEng	NN	4	57	960	0	119	15:39:26	1740873	0	0	0	0	0	0	0	0	0	0	0	0	0	0	0	0	0
073012	15:39:26	10031	Trial3BackEng	NN	4	0	1000	1	119	15:39:26	1742406	0	0	0	0	0	0	0	0	0	0	0	0	0	0	0	0	0
073012	15:39:26	10031	Trial3BackEng	YY	4	0	1000	0	119	15:39:26	1743925	0	0	0	0	0	0	0	0	0	0	0	0	0	0	0	0	0
073012	15:39:26	10031	Trial3BackEng	NN	4	0	1000	1	119	15:39:26	1745445	0	0	0	0	0	0	0	0	0	0	0	0	0	0	0	0	0
073012	15:39:26	10031	Trial3BackEng	NN	4	0	1000	1	119	15:39:26	1746964	0	0	0	0	0	0	0	0	0	0	0	0	0	0	0	0	0
073012	15:39:26	10031	Trial3BackEng	NN	4	0	1000	1	119	15:39:26	1748483	0	0	0	0	0	0	0	0	0	0	0	0	0	0	0	0	0
073012	15:39:26	10031	Trial3BackEng	NN	4	0	1000	1	119	15:39:26	1750003	0	0	0	0	0	0	0	0	0	0	0	0	0	0	0	0	0
073012	15:39:26	10031	Trial3BackEng	YY	4	0	1000	0	119	15:39:26	1751522	0	0	0	0	0	0	0	0	0	0	0	0	0	0	0	0	0
073012	15:39:26	10031	Trial3BackEng	NN	4	0	1000	1	119	15:39:26	1753042	0	0	0	0	0	0	0	0	0	0	0	0	0	0	0	0	0
073012	15:39:26	10031	Trial3BackEng	NN	4	0	1000	1	119	15:39:26	1754561	0	0	0	0	0	0	0	0	0	0	0	0	0	0	0	0	0
073012	15:39:26	10031	Trial3BackEng	NN	4	0	1000	1	119	15:39:26	1756080	0	0	0	0	0	0	0	0	0	0	0	0	0	0	0	0	0
073012	15:39:26	10031	Trial3BackEng	YY	4	0	1000	0	119	15:39:26	1757600	0	0	0	0	0	0	0	0	0	0	0	0	0	0	0	0	0
073012	15:39:26	10031	Trial3BackEng	NN	4	0	1000	1	119	15:39:26	1759119	0	0	0	0	0	0	0	0	0	0	0	0	0	0	0	0	0
073012	15:39:26	10031	Trial3BackEng	NN	4	0	1000	1	119	15:39:26	1760638	0	0	0	0	0	0	0	0	0	0	0	0	0	0	0	0	0
073012	15:39:26	10031	Trial3BackEng	NN	4	0	1000	1	119	15:39:26	1762158	0	0	0	0	0	0	0	0	0	0	0	0	0	0	0	0	0
073012	15:39:26	10031	Trial3BackEng	NN	4	0	1000	1	119	15:39:26	1763677	0	0	0	0	0	0	0	0	0	0	0	0	0	0	0	0	0
073012	15:39:26	10031	Trial3BackEng	NN	4	0	1000	1	119	15:39:26	1765197	0	0	0	0	0	0	0	0	0	0	0	0	0	0	0	0	0
073012	15:39:26	10031	Trial3BackEng	YY	4	0	1000	0	119	15:39:26	1766716	0	0	0	0	0	0	0	0	0	0	0	0	0	0	0	0	0
073012	15:39:26	10031	Trial3BackEng	NN	4	0	1000	1	119	15:39:26	1768235	0	0	0	0	0	0	0	0	0	0	0	0	0	0	0	0	0
073012	15:39:26	10031	Trial3BackEng	NN	4	0	1000	1	119	15:39:26	1769755	0	0	0	0	0	0	0	0	0	0	0	0	0	0	0	0	0
073012	15:39:26	10031	Trial3BackEng	NN	4	0	1000	1	119	15:39:26	1771274	0	0	0	0	0	0	0	0	0	0	0	0	0	0	0	0	0
073012	15:39:26	10031	Trial3BackEng	YY	4	0	1000	0	119	15:39:26	1772793	0	0	0	0	0	0	0	0	0	0	0	0	0	0	0	0	0
073012	15:39:26	10031	Memory1RBaseline	Score	5	M1	30572	0	119	15:39:26	1834741	0	0	0	0	0	0	0	0	0	0	0	0	0	0	0	0	0
073012	15:39:26	10031	Memory1RBaseline	Score	5	M7	1591	0	119	15:39:26	1836367	0	0	0	0	0	0	0	0	0	0	0	0	0	0	0	0	0
073012	15:39:26	10031	Memory1RBaseline	Score	5	M8	262	0	119	15:39:26	1836674	0	0	0	0	0	0	0	0	0	0	0	0	0	0	0	0	0
073012	15:39:26	10031	Memory1RBaseline	Score	5	Done	394	0	119	15:39:26	1837114	0	0	0	0	0	0	0	0	0	0	0	0	0	0	0	0	0
073012	15:39:26	10031	Memory2RBaseline	Score2	5	11	37878	0	119	15:39:26	1896009	0	0	0	0	0	0	0	0	0	0	0	0	0	0	0	0	0
073012	15:39:26	10031	Memory2RBaseline	Score2	5	22	377	0	119	15:39:26	1896422	0	0	0	0	0	0	0	0	0	0	0	0	0	0	0	0	0
073012	15:39:26	10031	Memory2RBaseline	Score2	5	44	1492	0	119	15:39:26	1897955	0	0	0	0	0	0	0	0	0	0	0	0	0	0	0	0	0
073012	15:39:26	10031	Memory2RBaseline	Score2	5	77	1831	0	119	15:39:26	1899821	0	0	0	0	0	0	0	0	0	0	0	0	0	0	0	0	0
073012	15:39:26	10031	Memory2RBaseline	Score2	5	88	277	0	119	15:39:26	1900141	0	0	0	0	0	0	0	0	0	0	0	0	0	0	0	0	0
073012	15:39:26	10031	Memory2RBaseline	Score2	5	Done	629	0	119	15:39:26	1900807	0	0	0	0	0	0	0	0	0	0	0	0	0	0	0	0	0
073012	15:39:26	10031	Memory3RBaseline	Score3	5	111	28068	0	119	15:39:26	1950560	0	0	0	0	0	0	0	0	0	0	0	0	0	0	0	0	0
073012	15:39:26	10031	Memory3RBaseline	Score3	5	222	272	0	119	15:39:26	1950880	0	0	0	0	0	0	0	0	0	0	0	0	0	0	0	0	0
073012	15:39:26	10031	Memory3RBaseline	Score3	5	444	1304	0	119	15:39:26	1952226	0	0	0	0	0	0	0	0	0	0	0	0	0	0	0	0	0
073012	15:39:26	10031	Memory3RBaseline	Score3	5	666	1678	0	119	15:39:26	1953945	0	0	0	0	0	0	0	0	0	0	0	0	0	0	0	0	0
073012	15:39:26	10031	Memory3RBaseline	Score3	5	777	240	0	119	15:39:26	1954225	0	0	0	0	0	0	0	0	0	0	0	0	0	0	0	0	0
073012	15:39:26	10031	Memory3RBaseline	Score3	5	888	655	0	119	15:39:26	1954918	0	0	0	0	0	0	0	0	0	0	0	0	0	0	0	0	0
073012	15:39:26	10031	Memory3RBaseline	Score3	5	Done	720	0	119	15:39:26	1955678	0	0	0	0	0	0	0	0	0	0	0	0	0	0	0	0	0
073012	15:39:26	10031	LoriaEngLH3	Stop	6	5	5319	0	119	15:39:26	2027610	0	0	0	0	0	0	0	0	0	0	0	0	0	0	0	0	0
073012	15:39:26	10031	EngTrail	Trails	7	1Trails	1227	0	119	15:39:26	2062340	0	0	0	0	0	0	0	0	0	0	0	0	0	0	0	0	0
073012	15:39:26	10031	Serial7EngBaseline	Serial7EngBaseline	8	83	3575	0	119	15:39:26	2148545	1	0	0	0	0	0	0	0	0	0	0	0	0	0	0	0	0
073012	15:39:26	10031	Serial7EngBaseline	Serial7EngBaseline	8	76	3700	0	119	15:39:26	2152264	2	0	0	0	0	0	0	0	0	0	0	0	0	0	0	0	0
073012	15:39:26	10031	Serial7EngBaseline	Serial7EngBaseline	8	69	5001	0	119	15:39:26	2157289	3	0	0	0	0	0	0	0	0	0	0	0	0	0	0	0	0
073012	15:39:26	10031	Serial7EngBaseline	Serial7EngBaseline	8	62	2438	0	119	15:39:26	2159756	4	0	0	0	0	0	0	0	0	0	0	0	0	0	0	0	0
073012	15:39:26	10031	Serial7EngBaseline	Serial7EngBaseline	8	55	2500	0	119	15:39:26	2162274	5	0	0	0	0	0	0	0	0	0	0	0	0	0	0	0	0
073012	15:39:26	10031	corsiblockEngFwrd	recallseqEngFwrd	9	6	3884	0	119	15:39:26	2209828	5	0	0	0	0	0	0	0	0	0	0	0	0	0	0	0	0
073012	15:39:26	10031	corsiblockEngFwrd	recallseqEngFwrd	9	1	1677	0	119	15:39:26	2211547	5	0	0	0	0	0	0	0	0	0	0	0	0	0	0	0	0
073012	15:39:26	10031	corsiblockEngFwrd	recallseqEngFwrd	9	doneCorsiEng	2982	0	119	15:39:26	2214572	5	0	0	0	0	0	0	0	0	0	0	0	0	0	0	2	0
073012	15:39:26	10031	corsiblockEngFwrd	recallseqEngFwrd	9	2	2137	0	119	15:39:26	2222796	5	0	0	0	0	0	0	0	0	0	0	0	0	0	0	2	0
073012	15:39:26	10031	corsiblockEngFwrd	recallseqEngFwrd	9	4	957	0	119	15:39:26	2223795	5	0	0	0	0	0	0	0	0	0	0	0	0	0	0	2	0
073012	15:39:26	10031	corsiblockEngFwrd	recallseqEngFwrd	9	3	942	0	119	15:39:26	2224781	5	0	0	0	0	0	0	0	0	0	0	0	0	0	0	2	0
073012	15:39:26	10031	corsiblockEngFwrd	recallseqEngFwrd	9	doneCorsiEng	1435	0	119	15:39:26	2226261	5	0	0	0	0	0	0	0	0	0	0	0	0	0	0	3	0
073012	15:39:26	10031	corsiblockEngFwrd	recallseqEngFwrd	9	9	1289	0	119	15:39:26	2234644	5	0	0	0	0	0	0	0	0	0	0	0	0	0	0	3	0
073012	15:39:26	10031	corsiblockEngFwrd	recallseqEngFwrd	9	8	1460	0	119	15:39:26	2236150	5	0	0	0	0	0	0	0	0	0	0	0	0	0	0	3	0
073012	15:39:26	10031	corsiblockEngFwrd	recallseqEngFwrd	9	7	818	0	119	15:39:26	2237003	5	0	0	0	0	0	0	0	0	0	0	0	0	0	0	3	0
073012	15:39:26	10031	corsiblockEngFwrd	recallseqEngFwrd	9	5	1077	0	119	15:39:26	2238123	5	0	0	0	0	0	0	0	0	0	0	0	0	0	0	3	0
073012	15:39:26	10031	corsiblockEngFwrd	recallseqEngFwrd	9	doneCorsiEng	1126	0	119	15:39:26	2239282	5	0	0	0	0	0	0	0	0	0	0	0	0	0	0	4	0
073012	15:39:26	10031	corsiblockEngFwrd	recallseqEngFwrd	9	8	1676	0	119	15:39:26	2249051	5	0	0	0	0	0	0	0	0	0	0	0	0	0	0	4	0
073012	15:39:26	10031	corsiblockEngFwrd	recallseqEngFwrd	9	1	1388	0	119	15:39:26	2250478	5	0	0	0	0	0	0	0	0	0	0	0	0	0	0	4	0
073012	15:39:26	10031	corsiblockEngFwrd	recallseqEngFwrd	9	6	1002	0	119	15:39:26	2251517	5	0	0	0	0	0	0	0	0	0	0	0	0	0	0	4	0
073012	15:39:26	10031	corsiblockEngFwrd	recallseqEngFwrd	9	3	1011	0	119	15:39:26	2252570	5	0	0	0	0	0	0	0	0	0	0	0	0	0	0	4	0
073012	15:39:26	10031	corsiblockEngFwrd	recallseqEngFwrd	9	2	902	0	119	15:39:26	2253516	5	0	0	0	0	0	0	0	0	0	0	0	0	0	0	4	0
073012	15:39:26	10031	corsiblockEngFwrd	recallseqEngFwrd	9	doneCorsiEng	1579	0	119	15:39:26	2255129	5	0	0	0	0	0	0	0	0	0	0	0	0	0	0	4	0
073012	15:39:26	10031	corsiblockEngFwrd	recallseqEngFwrd	9	7	796	0	119	15:39:26	2263979	5	0	0	0	0	0	0	0	0	0	0	0	0	0	0	4	0
073012	15:39:26	10031	corsiblockEngFwrd	recallseqEngFwrd	9	4	885	0	119	15:39:26	2264898	5	0	0	0	0	0	0	0	0	0	0	0	0	0	0	4	0
073012	15:39:26	10031	corsiblockEngFwrd	recallseqEngFwrd	9	9	1029	0	119	15:39:26	2265965	5	0	0	0	0	0	0	0	0	0	0	0	0	0	0	4	0
073012	15:39:26	10031	corsiblockEngFwrd	recallseqEngFwrd	9	2	731	0	119	15:39:26	2266737	5	0	0	0	0	0	0	0	0	0	0	0	0	0	0	4	0
073012	15:39:26	10031	corsiblockEngFwrd	recallseqEngFwrd	9	6	1013	0	119	15:39:26	2267790	5	0	0	0	0	0	0	0	0	0	0	0	0	0	0	4	0
073012	15:39:26	10031	corsiblockEngFwrd	recallseqEngFwrd	9	doneCorsiEng	1009	0	119	15:39:26	2268843	5	0	0	0	0	0	0	0	0	0	0	0	0	0	0	4	0
073012	15:39:26	10031	corsiblockEngRev	recallseqEngRev	10	9	2924	0	119	15:39:26	2285450	5	0	0	0	0	0	0	0	0	0	0	0	0	0	0	4	0
073012	15:39:26	10031	corsiblockEngRev	recallseqEngRev	10	1	981	0	119	15:39:26	2286476	5	0	0	0	0	0	0	0	0	0	0	0	0	0	0	4	0
073012	15:39:26	10031	corsiblockEngRev	recallseqEngRev	10	doneCorsiEng	1163	0	119	15:39:26	2287675	5	0	0	0	0	0	0	0	0	0	0	0	0	0	0	4	2
073012	15:39:26	10031	corsiblockEngRev	recallseqEngRev	10	5	936	0	119	15:39:26	2294699	5	0	0	0	0	0	0	0	0	0	0	0	0	0	0	4	2
073012	15:39:26	10031	corsiblockEngRev	recallseqEngRev	10	6	619	0	119	15:39:26	2295352	5	0	0	0	0	0	0	0	0	0	0	0	0	0	0	4	2
073012	15:39:26	10031	corsiblockEngRev	recallseqEngRev	10	8	1069	0	119	15:39:26	2296458	5	0	0	0	0	0	0	0	0	0	0	0	0	0	0	4	2
073012	15:39:26	10031	corsiblockEngRev	recallseqEngRev	10	doneCorsiEng	916	0	119	15:39:26	2297418	5	0	0	0	0	0	0	0	0	0	0	0	0	0	0	4	3
073012	15:39:26	10031	corsiblockEngRev	recallseqEngRev	10	7	962	0	119	15:39:26	2305468	5	0	0	0	0	0	0	0	0	0	0	0	0	0	0	4	3
073012	15:39:26	10031	corsiblockEngRev	recallseqEngRev	10	3	954	0	119	15:39:26	2306468	5	0	0	0	0	0	0	0	0	0	0	0	0	0	0	4	3
073012	15:39:26	10031	corsiblockEngRev	recallseqEngRev	10	5	994	0	119	15:39:26	2307507	5	0	0	0	0	0	0	0	0	0	0	0	0	0	0	4	3
073012	15:39:26	10031	corsiblockEngRev	recallseqEngRev	10	2	859	0	119	15:39:26	2308400	5	0	0	0	0	0	0	0	0	0	0	0	0	0	0	4	3
073012	15:39:26	10031	corsiblockEngRev	recallseqEngRev	10	doneCorsiEng	894	0	119	15:39:26	2309333	5	0	0	0	0	0	0	0	0	0	0	0	0	0	0	4	3
073012	15:39:26	10031	corsiblockEngRev	recallseqEngRev	10	4	1518	0	119	15:39:26	2317903	5	0	0	0	0	0	0	0	0	0	0	0	0	0	0	4	3
073012	15:39:26	10031	corsiblockEngRev	recallseqEngRev	10	2	783	0	119	15:39:26	2318729	5	0	0	0	0	0	0	0	0	0	0	0	0	0	0	4	3
073012	15:39:26	10031	corsiblockEngRev	recallseqEngRev	10	5	2124	0	119	15:39:26	2320888	5	0	0	0	0	0	0	0	0	0	0	0	0	0	0	4	3
073012	15:39:26	10031	corsiblockEngRev	recallseqEngRev	10	8	805	0	119	15:39:26	2321728	5	0	0	0	0	0	0	0	0	0	0	0	0	0	0	4	3
073012	15:39:26	10031	corsiblockEngRev	recallseqEngRev	10	doneCorsiEng	1086	0	119	15:39:26	2322848	5	0	0	0	0	0	0	0	0	0	0	0	0	0	0	4	4
073012	15:39:26	10031	corsiblockEngRev	recallseqEngRev	10	3	1091	0	119	15:39:26	2331031	5	0	0	0	0	0	0	0	0	0	0	0	0	0	0	4	4
073012	15:39:26	10031	corsiblockEngRev	recallseqEngRev	10	6	742	0	119	15:39:26	2331817	5	0	0	0	0	0	0	0	0	0	0	0	0	0	0	4	4
073012	15:39:26	10031	corsiblockEngRev	recallseqEngRev	10	7	676	0	119	15:39:26	2332537	5	0	0	0	0	0	0	0	0	0	0	0	0	0	0	4	4
073012	15:39:26	10031	corsiblockEngRev	recallseqEngRev	10	1	732	0	119	15:39:26	2333310	5	0	0	0	0	0	0	0	0	0	0	0	0	0	0	4	4
073012	15:39:26	10031	corsiblockEngRev	recallseqEngRev	10	9	1071	0	119	15:39:26	2334416	5	0	0	0	0	0	0	0	0	0	0	0	0	0	0	4	4
073012	15:39:26	10031	corsiblockEngRev	recallseqEngRev	10	doneCorsiEng	997	0	119	15:39:26	2335456	5	0	0	0	0	0	0	0	0	0	0	0	0	0	0	4	4
073012	15:39:26	10031	corsiblockEngRev	recallseqEngRev	10	1	699	0	119	15:39:26	2344199	5	0	0	0	0	0	0	0	0	0	0	0	0	0	0	4	4
073012	15:39:26	10031	corsiblockEngRev	recallseqEngRev	10	2	534	0	119	15:39:26	2344772	5	0	0	0	0	0	0	0	0	0	0	0	0	0	0	4	4
073012	15:39:26	10031	corsiblockEngRev	recallseqEngRev	10	4	713	0	119	15:39:26	2345518	5	0	0	0	0	0	0	0	0	0	0	0	0	0	0	4	4
073012	15:39:26	10031	corsiblockEngRev	recallseqEngRev	10	3	831	0	119	15:39:26	2346385	5	0	0	0	0	0	0	0	0	0	0	0	0	0	0	4	4
073012	15:39:26	10031	corsiblockEngRev	recallseqEngRev	10	7	900	0	119	15:39:26	2347317	5	0	0	0	0	0	0	0	0	0	0	0	0	0	0	4	4
073012	15:39:26	10031	corsiblockEngRev	recallseqEngRev	10	doneCorsiEng	1151	0	119	15:39:26	2348504	5	0	0	0	0	0	0	0	0	0	0	0	0	0	0	4	5
073012	15:39:26	10031	corsiblockEngRev	recallseqEngRev	10	5	957	0	119	15:39:26	2357567	5	0	0	0	0	0	0	0	0	0	0	0	0	0	0	4	5
073012	15:39:26	10031	corsiblockEngRev	recallseqEngRev	10	3	957	0	119	15:39:26	2358566	5	0	0	0	0	0	0	0	0	0	0	0	0	0	0	4	5
073012	15:39:26	10031	corsiblockEngRev	recallseqEngRev	10	9	998	0	119	15:39:26	2359606	5	0	0	0	0	0	0	0	0	0	0	0	0	0	0	4	5
073012	15:39:26	10031	corsiblockEngRev	recallseqEngRev	10	6	1103	0	119	15:39:26	2360752	5	0	0	0	0	0	0	0	0	0	0	0	0	0	0	4	5
073012	15:39:26	10031	corsiblockEngRev	recallseqEngRev	10	8	965	0	119	15:39:26	2361751	5	0	0	0	0	0	0	0	0	0	0	0	0	0	0	4	5
073012	15:39:26	10031	corsiblockEngRev	recallseqEngRev	10	doneCorsiEng	1924	0	119	15:39:26	2363711	5	0	0	0	0	0	0	0	0	0	0	0	0	0	0	4	5
073012	15:39:26	10031	corsiblockEngRev	recallseqEngRev	10	2	956	0	119	15:39:26	2373720	5	0	0	0	0	0	0	0	0	0	0	0	0	0	0	4	5
073012	15:39:26	10031	corsiblockEngRev	recallseqEngRev	10	8	732	0	119	15:39:26	2374493	5	0	0	0	0	0	0	0	0	0	0	0	0	0	0	4	5
073012	15:39:26	10031	corsiblockEngRev	recallseqEngRev	10	7	543	0	119	15:39:26	2375079	5	0	0	0	0	0	0	0	0	0	0	0	0	0	0	4	5
073012	15:39:26	10031	corsiblockEngRev	recallseqEngRev	10	6	1084	0	119	15:39:26	2376199	5	0	0	0	0	0	0	0	0	0	0	0	0	0	0	4	5
073012	15:39:26	10031	corsiblockEngRev	recallseqEngRev	10	9	941	0	119	15:39:26	2377185	5	0	0	0	0	0	0	0	0	0	0	0	0	0	0	4	5
073012	15:39:26	10031	corsiblockEngRev	recallseqEngRev	10	1	1123	0	119	15:39:26	2378345	5	0	0	0	0	0	0	0	0	0	0	0	0	0	0	4	5
073012	15:39:26	10031	corsiblockEngRev	recallseqEngRev	10	doneCorsiEng	939	0	119	15:39:26	2379318	5	0	0	0	0	0	0	0	0	0	0	0	0	0	0	4	6
073012	15:39:26	10031	corsiblockEngRev	recallseqEngRev	10	1	1101	0	119	15:39:26	2389513	5	0	0	0	0	0	0	0	0	0	0	0	0	0	0	4	6
073012	15:39:26	10031	corsiblockEngRev	recallseqEngRev	10	4	754	0	119	15:39:26	2390313	5	0	0	0	0	0	0	0	0	0	0	0	0	0	0	4	6
073012	15:39:26	10031	corsiblockEngRev	recallseqEngRev	10	6	611	0	119	15:39:26	2390966	5	0	0	0	0	0	0	0	0	0	0	0	0	0	0	4	6
073012	15:39:26	10031	corsiblockEngRev	recallseqEngRev	10	7	701	0	119	15:39:26	2391713	5	0	0	0	0	0	0	0	0	0	0	0	0	0	0	4	6
073012	15:39:26	10031	corsiblockEngRev	recallseqEngRev	10	5	1331	0	119	15:39:26	2393085	5	0	0	0	0	0	0	0	0	0	0	0	0	0	0	4	6
073012	15:39:26	10031	corsiblockEngRev	recallseqEngRev	10	8	757	0	119	15:39:26	2393885	5	0	0	0	0	0	0	0	0	0	0	0	0	0	0	4	6
073012	15:39:26	10031	corsiblockEngRev	recallseqEngRev	10	2	750	0	119	15:39:26	2394671	5	0	0	0	0	0	0	0	0	0	0	0	0	0	0	4	6
073012	15:39:26	10031	corsiblockEngRev	recallseqEngRev	10	doneCorsiEng	1100	0	119	15:39:26	2395804	5	0	0	0	0	0	0	0	0	0	0	0	0	0	0	4	6
073012	15:39:26	10031	corsiblockEngRev	recallseqEngRev	10	9	1550	0	119	15:39:26	2407399	5	0	0	0	0	0	0	0	0	0	0	0	0	0	0	4	6
073012	15:39:26	10031	corsiblockEngRev	recallseqEngRev	10	1	724	0	119	15:39:26	2408159	5	0	0	0	0	0	0	0	0	0	0	0	0	0	0	4	6
073012	15:39:26	10031	corsiblockEngRev	recallseqEngRev	10	2	732	0	119	15:39:26	2408932	5	0	0	0	0	0	0	0	0	0	0	0	0	0	0	4	6
073012	15:39:26	10031	corsiblockEngRev	recallseqEngRev	10	resetCorsiEng	2111	0	119	15:39:26	2411078	5	0	0	0	0	0	0	0	0	0	0	0	0	0	0	4	6
073012	15:39:26	10031	corsiblockEngRev	recallseqEngRev	10	9	1140	0	119	15:39:26	2412264	5	0	0	0	0	0	0	0	0	0	0	0	0	0	0	4	6
073012	15:39:26	10031	corsiblockEngRev	recallseqEngRev	10	1	747	0	119	15:39:26	2413050	5	0	0	0	0	0	0	0	0	0	0	0	0	0	0	4	6
073012	15:39:26	10031	corsiblockEngRev	recallseqEngRev	10	7	792	0	119	15:39:26	2413877	5	0	0	0	0	0	0	0	0	0	0	0	0	0	0	4	6
073012	15:39:26	10031	corsiblockEngRev	recallseqEngRev	10	2	670	0	119	15:39:26	2414583	5	0	0	0	0	0	0	0	0	0	0	0	0	0	0	4	6
073012	15:39:26	10031	corsiblockEngRev	recallseqEngRev	10	8	2171	0	119	15:39:26	2416796	5	0	0	0	0	0	0	0	0	0	0	0	0	0	0	4	6
073012	15:39:26	10031	corsiblockEngRev	recallseqEngRev	10	6	695	0	119	15:39:26	2417528	5	0	0	0	0	0	0	0	0	0	0	0	0	0	0	4	6
073012	15:39:26	10031	corsiblockEngRev	recallseqEngRev	10	5	698	0	119	15:39:26	2418261	5	0	0	0	0	0	0	0	0	0	0	0	0	0	0	4	6
073012	15:39:26	10031	corsiblockEngRev	recallseqEngRev	10	doneCorsiEng	1045	0	119	15:39:26	2419341	5	0	0	0	0	0	0	0	0	0	0	0	0	0	0	4	6
073012	15:39:26	10031	testEngBaseline	WordsEngBaseline	11	1EngBaseline	28376	0	119	15:39:26	2457192	5	1	0	0	0	0	0	0	0	0	0	0	0	0	0	4	6
073012	15:39:26	10031	testEngBaseline	WordsEngBaseline	11	5EngBaseline	2881	0	119	15:39:26	2460111	5	1	0	0	0	1	0	0	0	0	0	0	0	0	0	4	6
073012	15:39:26	10031	testEngBaseline	WordsEngBaseline	11	DoneEngBaseline	675	0	119	15:39:26	2460831	5	1	0	0	0	1	0	0	0	0	0	0	0	0	0	4	6
073012	15:39:26	10031	testEngBaseline	Cat2EngBaseline	11	0	1	0	119	15:39:26	2460847	5	1	0	0	0	1	0	0	0	0	0	0	0	0	0	4	6
073012	15:39:26	10031	testEngBaseline	Ch2EngBaseline	11	RR2EngBaseline	6470	0	119	15:39:26	2467348	5	1	3	0	0	1	0	0	0	0	0	0	0	0	0	4	6
073012	15:39:26	10031	testEngBaseline	Cat3EngBaseline	11	R3EngBaseline	5398	0	119	15:39:26	2472785	5	1	3	2	0	1	0	0	0	0	0	0	0	0	0	4	6
073012	15:39:26	10031	testEngBaseline	Cat4EngBaseline	11	0	1	0	119	15:39:26	2472802	5	1	3	2	0	1	0	0	0	0	0	0	0	0	0	4	6
073012	15:39:26	10031	testEngBaseline	Ch4EngBaseline	11	RR4EngBaseline	5005	0	119	15:39:26	2477850	5	1	3	2	3	1	0	0	0	0	0	0	0	0	0	4	6
073012	15:39:26	10031	testEngBaseline	Cat6EngBaseline	11	W6EngBaseline	7639	0	119	15:39:26	2485526	5	1	3	2	3	1	0	0	0	0	0	0	0	0	0	4	6
073012	15:39:26	10031	testEngBaseline	Ch6EngBaseline	11	RR6EngBaseline	3010	0	119	15:39:26	2488579	5	1	3	2	3	1	3	0	0	0	0	0	0	0	0	4	6
073012	15:39:26	10031	testEngBaseline	Cat7EngBaseline	11	R7EngBaseline	5574	0	119	15:39:26	2494190	5	1	3	2	3	1	3	2	0	0	0	0	0	0	0	4	6
073012	15:39:26	10031	testEngBaseline	Cat8EngBaseline	11	R8EngBaseline	4778	0	119	15:39:26	2499001	5	1	3	2	3	1	3	2	2	0	0	0	0	0	0	4	6
073012	15:39:26	10031	DigitSpanFwrdEngBaseline	Score1FwrdEngBaseline	12	DS1	3953	0	119	15:39:26	2516487	5	1	3	2	3	1	3	2	2	0	0	0	0	0	0	4	6
073012	15:39:26	10031	DigitSpanFwrdEngBaseline	Gate1FwrdEngBaseline	12	0	1	0	119	15:39:26	2516503	5	1	3	2	3	1	3	2	2	3	0	0	0	0	0	4	6
073012	15:39:26	10031	DigitSpanFwrdEngBaseline	Score2FwrdEngBaseline	12	DS1	4325	0	119	15:39:26	2526576	5	1	3	2	3	1	3	2	2	3	0	0	0	0	0	4	6
073012	15:39:26	10031	DigitSpanFwrdEngBaseline	Gate3FwrdEngBaseline	12	0	1	0	119	15:39:26	2526592	5	1	3	2	3	1	3	2	2	4	0	0	0	0	0	4	6
073012	15:39:26	10031	DigitSpanFwrdEngBaseline	Score3FwrdEngBaseline	12	DS1	4373	0	119	15:39:26	2538758	5	1	3	2	3	1	3	2	2	4	0	0	0	0	0	4	6
073012	15:39:26	10031	DigitSpanFwrdEngBaseline	Gate5FwrdEngBaseline	12	0	1	0	119	15:39:26	2538773	5	1	3	2	3	1	3	2	2	5	0	0	0	0	0	4	6
073012	15:39:26	10031	DigitSpanFwrdEngBaseline	Score4FwrdEngBaseline	12	DS1	4994	0	119	15:39:26	2553299	5	1	3	2	3	1	3	2	2	5	0	0	0	0	0	4	6
073012	15:39:26	10031	DigitSpanFwrdEngBaseline	Gate7FwrdEngBaseline	12	0	1	0	119	15:39:26	2553314	5	1	3	2	3	1	3	2	2	6	0	0	0	0	0	4	6
073012	15:39:26	10031	DigitSpanFwrdEngBaseline	Score5FwrdEngBaseline	12	DS1	4467	0	119	15:39:26	2568852	5	1	3	2	3	1	3	2	2	6	0	0	0	0	0	4	6
073012	15:39:26	10031	DigitSpanFwrdEngBaseline	Gate9FwrdEngBaseline	12	0	1	0	119	15:39:26	2568867	5	1	3	2	3	1	3	2	2	7	0	0	0	0	0	4	6
073012	15:39:26	10031	DigitSpanFwrdEngBaseline	Score6FwrdEngBaseline	12	DS1	6201	0	119	15:39:26	2588377	5	1	3	2	3	1	3	2	2	8	0	0	0	0	0	4	6
073012	15:39:26	10031	DigitSpanEngBaseline	Score1EngBaseline	13	DS1	3849	0	119	15:39:26	2625775	5	1	3	2	3	1	3	2	2	8	0	0	0	0	0	4	6
073012	15:39:26	10031	DigitSpanEngBaseline	Gate1EngBaseline	13	0	1	0	119	15:39:26	2625790	5	1	3	2	3	1	3	2	2	8	2	0	0	0	0	4	6
073012	15:39:26	10031	DigitSpanEngBaseline	Score2EngBaseline	13	DS1	5903	0	119	15:39:26	2636397	5	1	3	2	3	1	3	2	2	8	2	0	0	0	0	4	6
073012	15:39:26	10031	DigitSpanEngBaseline	Gate3EngBaseline	13	0	1	0	119	15:39:26	2636412	5	1	3	2	3	1	3	2	2	8	3	0	0	0	0	4	6
073012	15:39:26	10031	DigitSpanEngBaseline	Score3EngBaseline	13	DS1	3870	0	119	15:39:26	2646846	5	1	3	2	3	1	3	2	2	8	3	0	0	0	0	4	6
073012	15:39:26	10031	DigitSpanEngBaseline	Gate5EngBaseline	13	0	1	0	119	15:39:26	2646862	5	1	3	2	3	1	3	2	2	8	4	0	0	0	0	4	6
073012	15:39:26	10031	DigitSpanEngBaseline	Score4EngBaseline	13	DS2	10768	0	119	15:39:26	2665692	5	1	3	2	3	1	3	2	2	8	4	0	0	0	0	4	6
073012	15:39:26	10031	DigitSpanEngBaseline	Gate7EngBaseline	13	0	1	0	119	15:39:26	2665707	5	1	3	2	3	1	3	2	2	8	4	0	0	0	0	4	6
073012	15:39:26	10031	DigitSpanEngBaseline	Score44EngBaseline	13	DS2	9725	0	119	15:39:26	2683698	5	1	3	2	3	1	3	2	2	8	4	0	0	0	0	4	6
073012	15:39:26	10031	Trial	IncongruentRight	14	203	424	0	119	15:39:26	2744539	5	1	3	2	3	1	3	2	2	8	4	0	0	0	0	4	6
073012	15:39:26	10031	Trial	IncongruentLeft	14	203	572	1	119	15:39:26	2745685	5	1	3	2	3	1	3	2	2	8	4	0	0	0	0	4	6
073012	15:39:26	10031	Trial	CongruentRight	14	205	489	1	119	15:39:26	2746591	5	1	3	2	3	1	3	2	2	8	4	0	0	0	0	4	6
073012	15:39:26	10031	Trial	IncongruentRight	14	203	402	0	119	15:39:26	2747511	5	1	3	2	3	1	3	2	2	8	4	0	0	0	0	4	6
073012	15:39:26	10031	Trial	CongruentLeft	14	203	461	1	119	15:39:26	2748577	5	1	3	2	3	1	3	2	2	8	4	0	0	0	0	4	6
073012	15:39:26	10031	Trial	CongruentRight	14	205	421	1	119	15:39:26	2749537	5	1	3	2	3	1	3	2	2	8	4	0	0	0	0	4	6
073012	15:39:26	10031	Trial	IncongruentRight	14	203	446	0	119	15:39:26	2750563	5	1	3	2	3	1	3	2	2	8	4	0	0	0	0	4	6
073012	15:39:26	10031	Trial	CongruentLeft	14	203	469	1	119	15:39:26	2751589	5	1	3	2	3	1	3	2	2	8	4	0	0	0	0	4	6
073012	15:39:26	10031	Trial	IncongruentLeft	14	203	542	1	119	15:39:26	2752656	5	1	3	2	3	1	3	2	2	8	4	0	0	0	0	4	6
073012	15:39:26	10031	Trial	IncongruentLeft	14	203	551	1	119	15:39:26	2753668	5	1	3	2	3	1	3	2	2	8	4	0	0	0	0	4	6
073012	15:39:26	10031	Trial	CongruentRight	14	205	511	1	119	15:39:26	2754628	5	1	3	2	3	1	3	2	2	8	4	0	0	0	0	4	6
073012	15:39:26	10031	Trial	IncongruentRight	14	205	535	1	119	15:39:26	2755654	5	1	3	2	3	1	3	2	2	8	4	0	0	0	0	4	6
073012	15:39:26	10031	Trial	CongruentLeft	14	203	466	1	119	15:39:26	2756587	5	1	3	2	3	1	3	2	2	8	4	0	0	0	0	4	6
073012	15:39:26	10031	Trial	CongruentRight	14	205	440	1	119	15:39:26	2757560	5	1	3	2	3	1	3	2	2	8	4	0	0	0	0	4	6
073012	15:39:26	10031	Trial	IncongruentLeft	14	203	464	1	119	15:39:26	2758587	5	1	3	2	3	1	3	2	2	8	4	0	0	0	0	4	6
073012	15:39:26	10031	Trial	IncongruentRight	14	205	409	1	119	15:39:26	2759519	5	1	3	2	3	1	3	2	2	8	4	0	0	0	0	4	6
073012	15:39:26	10031	Trial	CongruentRight	14	205	434	1	119	15:39:26	2760546	5	1	3	2	3	1	3	2	2	8	4	0	0	0	0	4	6
073012	15:39:26	10031	Trial	CongruentLeft	14	203	426	1	119	15:39:26	2761545	5	1	3	2	3	1	3	2	2	8	4	0	0	0	0	4	6
073012	15:39:26	10031	Trial	CongruentRight	14	205	434	1	119	15:39:26	2762545	5	1	3	2	3	1	3	2	2	8	4	0	0	0	0	4	6
073012	15:39:26	10031	Trial	IncongruentRight	14	205	426	1	119	15:39:26	2763544	5	1	3	2	3	1	3	2	2	8	4	0	0	0	0	4	6
073012	15:39:26	10031	Trial	IncongruentLeft	14	203	387	1	119	15:39:26	2764504	5	1	3	2	3	1	3	2	2	8	4	0	0	0	0	4	6
073012	15:39:26	10031	Trial	IncongruentLeft	14	203	507	1	119	15:39:26	2765624	5	1	3	2	3	1	3	2	2	8	4	0	0	0	0	4	6
073012	15:39:26	10031	Trial	CongruentLeft	14	203	404	1	119	15:39:26	2766517	5	1	3	2	3	1	3	2	2	8	4	0	0	0	0	4	6
073012	15:39:26	10031	Trial	CongruentRight	14	205	412	1	119	15:39:26	2767530	5	1	3	2	3	1	3	2	2	8	4	0	0	0	0	4	6
073012	15:39:26	10031	Trial	IncongruentLeft	14	203	388	1	119	15:39:26	2768502	5	1	3	2	3	1	3	2	2	8	4	0	0	0	0	4	6
073012	15:39:26	10031	Trial	IncongruentRight	14	205	397	1	119	15:39:26	2769502	5	1	3	2	3	1	3	2	2	8	4	0	0	0	0	4	6
073012	15:39:26	10031	Trial	CongruentRight	14	205	341	1	119	15:39:26	2770448	5	1	3	2	3	1	3	2	2	8	4	0	0	0	0	4	6
073012	15:39:26	10031	Trial	CongruentLeft	14	203	397	1	119	15:39:26	2771501	5	1	3	2	3	1	3	2	2	8	4	0	0	0	0	4	6
073012	15:39:26	10031	Trial	IncongruentRight	14	205	390	1	119	15:39:26	2772501	5	1	3	2	3	1	3	2	2	8	4	0	0	0	0	4	6
073012	15:39:26	10031	Trial	IncongruentLeft	14	203	414	1	119	15:39:26	2773527	5	1	3	2	3	1	3	2	2	8	4	0	0	0	0	4	6
073012	15:39:26	10031	Trial	IncongruentRight	14	203	391	0	119	15:39:26	2774500	5	1	3	2	3	1	3	2	2	8	4	0	0	0	0	4	6
073012	15:39:26	10031	Trial	CongruentRight	14	205	383	1	119	15:39:26	2775487	5	1	3	2	3	1	3	2	2	8	4	0	0	0	0	4	6
073012	15:39:26	10031	Trial	IncongruentLeft	14	203	439	1	119	15:39:26	2776552	5	1	3	2	3	1	3	2	2	8	4	0	0	0	0	4	6
073012	15:39:26	10031	Trial	CongruentLeft	14	203	384	1	119	15:39:26	2777485	5	1	3	2	3	1	3	2	2	8	4	0	0	0	0	4	6
073012	15:39:26	10031	Trial	CongruentRight	14	205	296	1	119	15:39:26	2778405	5	1	3	2	3	1	3	2	2	8	4	0	0	0	0	4	6
073012	15:39:26	10031	Trial	IncongruentLeft	14	203	467	1	119	15:39:26	2779591	5	1	3	2	3	1	3	2	2	8	4	0	0	0	0	4	6
073012	15:39:26	10031	Trial	IncongruentRight	14	205	332	1	119	15:39:26	2780458	5	1	3	2	3	1	3	2	2	8	4	0	0	0	0	4	6
073012	15:39:26	10031	Trial	IncongruentRight	14	205	516	1	119	15:39:26	2781630	5	1	3	2	3	1	3	2	2	8	4	0	0	0	0	4	6
073012	15:39:26	10031	Trial	CongruentLeft	14	203	412	1	119	15:39:26	2782537	5	1	3	2	3	1	3	2	2	8	4	0	0	0	0	4	6
073012	15:39:26	10031	Trial	IncongruentLeft	14	203	581	1	119	15:39:26	2783696	5	1	3	2	3	1	3	2	2	8	4	0	0	0	0	4	6
073012	15:39:26	10031	Trial	CongruentRight	14	205	445	1	119	15:39:26	2784563	5	1	3	2	3	1	3	2	2	8	4	0	0	0	0	4	6
073012	15:39:26	10031	Trial	CongruentLeft	14	203	390	1	119	15:39:26	2785509	5	1	3	2	3	1	3	2	2	8	4	0	0	0	0	4	6
073012	15:39:26	10031	Trial	IncongruentRight	14	205	462	1	119	15:39:26	2786575	5	1	3	2	3	1	3	2	2	8	4	0	0	0	0	4	6
073012	15:39:26	10031	Trial	CongruentRight	14	205	438	1	119	15:39:26	2787561	5	1	3	2	3	1	3	2	2	8	4	0	0	0	0	4	6
073012	15:39:26	10031	Trial	IncongruentLeft	14	203	447	1	119	15:39:26	2788561	5	1	3	2	3	1	3	2	2	8	4	0	0	0	0	4	6
073012	15:39:26	10031	Trial	CongruentLeft	14	203	455	1	119	15:39:26	2789574	5	1	3	2	3	1	3	2	2	8	4	0	0	0	0	4	6
073012	15:39:26	10031	Trial	IncongruentLeft	14	203	415	1	119	15:39:26	2790533	5	1	3	2	3	1	3	2	2	8	4	0	0	0	0	4	6
073012	15:39:26	10031	Trial	IncongruentRight	14	205	472	1	119	15:39:26	2791586	5	1	3	2	3	1	3	2	2	8	4	0	0	0	0	4	6
073012	15:39:26	10031	Trial	CongruentRight	14	205	384	1	119	15:39:26	2792492	5	1	3	2	3	1	3	2	2	8	4	0	0	0	0	4	6
073012	15:39:26	10031	Trial	CongruentLeft	14	203	376	1	119	15:39:26	2793492	5	1	3	2	3	1	3	2	2	8	4	0	0	0	0	4	6
073012	15:39:26	10031	Trial	CongruentLeft	14	203	337	1	119	15:39:26	2794452	5	1	3	2	3	1	3	2	2	8	4	0	0	0	0	4	6
073012	15:39:26	10031	Trial	IncongruentRight	14	203	377	0	119	15:39:26	2795491	5	1	3	2	3	1	3	2	2	8	4	0	0	0	0	4	6
073012	15:39:26	10031	Trial	IncongruentLeft	14	203	322	1	119	15:39:26	2796438	5	1	3	2	3	1	3	2	2	8	4	0	0	0	0	4	6
073012	15:39:26	10031	Trial	IncongruentRight	14	205	442	1	119	15:39:26	2797557	5	1	3	2	3	1	3	2	2	8	4	0	0	0	0	4	6
073012	15:39:26	10031	Trial	CongruentRight	14	205	387	1	119	15:39:26	2798503	5	1	3	2	3	1	3	2	2	8	4	0	0	0	0	4	6
073012	15:39:26	10031	Trial	CongruentRight	14	205	379	1	119	15:39:26	2799490	5	1	3	2	3	1	3	2	2	8	4	0	0	0	0	4	6
073012	15:39:26	10031	Trial	IncongruentLeft	14	203	451	1	119	15:39:26	2800569	5	1	3	2	3	1	3	2	2	8	4	0	0	0	0	4	6
073012	15:39:26	10031	Trial	CongruentLeft	14	203	428	1	119	15:39:26	2801542	5	1	3	2	3	1	3	2	2	8	4	0	0	0	0	4	6
073012	15:39:26	10031	Trial	CongruentRight	14	205	388	1	119	15:39:26	2802502	5	1	3	2	3	1	3	2	2	8	4	0	0	0	0	4	6
073012	15:39:26	10031	Trial	CongruentLeft	14	205	332	0	119	15:39:26	2803448	5	1	3	2	3	1	3	2	2	8	4	0	0	0	0	4	6
073012	15:39:26	10031	Trial	IncongruentRight	14	205	405	1	119	15:39:26	2804514	5	1	3	2	3	1	3	2	2	8	4	0	0	0	0	4	6
073012	15:39:26	10031	Trial	CongruentRight	14	203	333	0	119	15:39:26	2805447	5	1	3	2	3	1	3	2	2	8	4	0	0	0	0	4	6
073012	15:39:26	10031	Trial	CongruentLeft	14	203	325	1	119	15:39:26	2806433	5	1	3	2	3	1	3	2	2	8	4	0	0	0	0	4	6
073012	15:39:26	10031	Trial	IncongruentLeft	14	203	334	1	119	15:39:26	2807446	5	1	3	2	3	1	3	2	2	8	4	0	0	0	0	4	6
073012	15:39:26	10031	Trial	IncongruentLeft	14	203	438	1	119	15:39:26	2808553	5	1	3	2	3	1	3	2	2	8	4	0	0	0	0	4	6
073012	15:39:26	10031	Trial	CongruentRight	14	205	399	1	119	15:39:26	2809512	5	1	3	2	3	1	3	2	2	8	4	0	0	0	0	4	6
073012	15:39:26	10031	Trial	IncongruentRight	14	203	442	0	119	15:39:26	2810565	5	1	3	2	3	1	3	2	2	8	4	0	0	0	0	4	6
073012	15:39:26	10031	Trial	CongruentLeft	14	203	434	1	119	15:39:26	2811551	5	1	3	2	3	1	3	2	2	8	4	0	0	0	0	4	6
073012	15:39:26	10031	Trial	IncongruentRight	14	205	522	1	119	15:39:26	2812644	5	1	3	2	3	1	3	2	2	8	4	0	0	0	0	4	6
073012	15:39:26	10031	Trial	CongruentRight	14	205	451	1	119	15:39:26	2813564	5	1	3	2	3	1	3	2	2	8	4	0	0	0	0	4	6
073012	15:39:26	10031	Trial	IncongruentLeft	14	203	427	1	119	15:39:26	2814550	5	1	3	2	3	1	3	2	2	8	4	0	0	0	0	4	6
073012	15:39:26	10031	Trial	CongruentLeft	14	203	372	1	119	15:39:26	2815496	5	1	3	2	3	1	3	2	2	8	4	0	0	0	0	4	6
073012	15:39:26	10031	Trial	CongruentRight	14	205	428	1	119	15:39:26	2816549	5	1	3	2	3	1	3	2	2	8	4	0	0	0	0	4	6
073012	15:39:26	10031	Trial	IncongruentLeft	14	205	356	0	119	15:39:26	2817469	5	1	3	2	3	1	3	2	2	8	4	0	0	0	0	4	6
073012	15:39:26	10031	Trial	CongruentRight	14	205	333	1	119	15:39:26	2818455	5	1	3	2	3	1	3	2	2	8	4	0	0	0	0	4	6
073012	15:39:26	10031	Trial	CongruentRight	14	205	405	1	119	15:39:26	2819521	5	1	3	2	3	1	3	2	2	8	4	0	0	0	0	4	6
073012	15:39:26	10031	Trial	IncongruentRight	14	203	414	0	119	15:39:26	2820534	5	1	3	2	3	1	3	2	2	8	4	0	0	0	0	4	6
073012	15:39:26	10031	Trial	CongruentLeft	14	203	358	1	119	15:39:26	2821481	5	1	3	2	3	1	3	2	2	8	4	0	0	0	0	4	6
073012	15:39:26	10031	Trial	IncongruentLeft	14	205	462	0	119	15:39:26	2822573	5	1	3	2	3	1	3	2	2	8	4	0	0	0	0	4	6
073012	15:39:26	10031	Trial	CongruentLeft	14	203	343	1	119	15:39:26	2823453	5	1	3	2	3	1	3	2	2	8	4	0	0	0	0	4	6
073012	15:39:26	10031	Trial	IncongruentRight	14	205	383	1	119	15:39:26	2824493	5	1	3	2	3	1	3	2	2	8	4	0	0	0	0	4	6
073012	15:39:26	10031	Trial	IncongruentLeft	14	205	343	0	119	15:39:26	2825452	5	1	3	2	3	1	3	2	2	8	4	0	0	0	0	4	6
073012	15:39:26	10031	Trial	CongruentRight	14	205	336	1	119	15:39:26	2826452	5	1	3	2	3	1	3	2	2	8	4	0	0	0	0	4	6
073012	15:39:26	10031	Trial	CongruentLeft	14	203	408	1	119	15:39:26	2827518	5	1	3	2	3	1	3	2	2	8	4	0	0	0	0	4	6
073012	15:39:26	10031	Trial	IncongruentLeft	14	203	529	1	119	15:39:26	2828638	5	1	3	2	3	1	3	2	2	8	4	0	0	0	0	4	6
073012	15:39:26	10031	Trial	CongruentLeft	14	203	489	1	119	15:39:26	2829597	5	1	3	2	3	1	3	2	2	8	4	0	0	0	0	4	6
073012	15:39:26	10031	Trial	IncongruentRight	14	205	401	1	119	15:39:26	2830517	5	1	3	2	3	1	3	2	2	8	4	0	0	0	0	4	6
073012	15:39:26	10031	Trial	CongruentRight	14	205	378	1	119	15:39:26	2831490	5	1	3	2	3	1	3	2	2	8	4	0	0	0	0	4	6
073012	15:39:26	10031	Trial	IncongruentLeft	14	205	338	0	119	15:39:26	2832449	5	1	3	2	3	1	3	2	2	8	4	0	0	0	0	4	6
073012	15:39:26	10031	Trial	CongruentLeft	14	203	378	1	119	15:39:26	2833489	5	1	3	2	3	1	3	2	2	8	4	0	0	0	0	4	6
073012	15:39:26	10031	Trial	IncongruentRight	14	205	403	1	119	15:39:26	2834515	5	1	3	2	3	1	3	2	2	8	4	0	0	0	0	4	6
073012	15:39:26	10031	Trial	IncongruentLeft	14	205	347	0	119	15:39:26	2835461	5	1	3	2	3	1	3	2	2	8	4	0	0	0	0	4	6
073012	15:39:26	10031	Trial	CongruentLeft	14	203	404	1	119	15:39:26	2836514	5	1	3	2	3	1	3	2	2	8	4	0	0	0	0	4	6
073012	15:39:26	10031	Trial	IncongruentLeft	14	203	412	1	119	15:39:26	2837527	5	1	3	2	3	1	3	2	2	8	4	0	0	0	0	4	6
073012	15:39:26	10031	Trial	CongruentRight	14	205	421	1	119	15:39:26	2838527	5	1	3	2	3	1	3	2	2	8	4	0	0	0	0	4	6
073012	15:39:26	10031	Trial	CongruentLeft	14	203	460	1	119	15:39:26	2839566	5	1	3	2	3	1	3	2	2	8	4	0	0	0	0	4	6
073012	15:39:26	10031	Trial	IncongruentRight	14	205	488	1	119	15:39:26	2840606	5	1	3	2	3	1	3	2	2	8	4	0	0	0	0	4	6
073012	15:39:26	10031	Trial	CongruentLeft	14	203	448	1	119	15:39:26	2841565	5	1	3	2	3	1	3	2	2	8	4	0	0	0	0	4	6
073012	15:39:26	10031	Trial	CongruentRight	14	205	617	1	119	15:39:26	2842738	5	1	3	2	3	1	3	2	2	8	4	0	0	0	0	4	6
073012	15:39:26	10031	Trial	IncongruentLeft	14	203	689	1	119	15:39:26	2843804	5	1	3	2	3	1	3	2	2	8	4	0	0	0	0	4	6
073012	15:39:26	10031	Trial750Eng	IncongruentRight750	15	0	487	0	119	15:39:26	2867861	5	1	3	2	3	1	3	2	2	8	4	0	0	0	0	4	6
073012	15:39:26	10031	Trial750Eng	IncongruentLeft750	15	205	315	0	119	15:39:26	2868461	5	1	3	2	3	1	3	2	2	8	4	0	0	0	0	4	6
073012	15:39:26	10031	Trial750Eng	CongruentRight750	15	205	386	1	119	15:39:26	2869301	5	1	3	2	3	1	3	2	2	8	4	0	0	0	0	4	6
073012	15:39:26	10031	Trial750Eng	IncongruentRight750	15	0	487	0	119	15:39:26	2870141	5	1	3	2	3	1	3	2	2	8	4	0	0	0	0	4	6
073012	15:39:26	10031	Trial750Eng	CongruentLeft750	15	203	358	1	119	15:39:26	2870807	5	1	3	2	3	1	3	2	2	8	4	0	0	0	0	4	6
073012	15:39:26	10031	Trial750Eng	CongruentRight750	15	205	366	1	119	15:39:26	2871566	5	1	3	2	3	1	3	2	2	8	4	0	0	0	0	4	6
073012	15:39:26	10031	Trial750Eng	IncongruentRight750	15	0	487	0	119	15:39:26	2872433	5	1	3	2	3	1	3	2	2	8	4	0	0	0	0	4	6
073012	15:39:26	10031	Trial750Eng	CongruentLeft750	15	203	450	1	119	15:39:26	2873179	5	1	3	2	3	1	3	2	2	8	4	0	0	0	0	4	6
073012	15:39:26	10031	Trial750Eng	IncongruentLeft750	15	203	423	1	119	15:39:26	2873899	5	1	3	2	3	1	3	2	2	8	4	0	0	0	0	4	6
073012	15:39:26	10031	Trial750Eng	IncongruentLeft750	15	203	383	1	119	15:39:26	2874619	5	1	3	2	3	1	3	2	2	8	4	0	0	0	0	4	6
073012	15:39:26	10031	Trial750Eng	CongruentRight750	15	205	436	1	119	15:39:26	2875418	5	1	3	2	3	1	3	2	2	8	4	0	0	0	0	4	6
073012	15:39:26	10031	Trial750Eng	IncongruentRight750	15	0	487	0	119	15:39:26	2876218	5	1	3	2	3	1	3	2	2	8	4	0	0	0	0	4	6
073012	15:39:26	10031	Trial750Eng	CongruentLeft750	15	203	440	1	119	15:39:26	2876964	5	1	3	2	3	1	3	2	2	8	4	0	0	0	0	4	6
073012	15:39:26	10031	Trial750Eng	CongruentRight750	15	205	448	1	119	15:39:26	2877724	5	1	3	2	3	1	3	2	2	8	4	0	0	0	0	4	6
073012	15:39:26	10031	Trial750Eng	IncongruentLeft750	15	203	390	1	119	15:39:26	2878417	5	1	3	2	3	1	3	2	2	8	4	0	0	0	0	4	6
073012	15:39:26	10031	Trial750Eng	IncongruentRight750	15	205	428	1	119	15:39:26	2879203	5	1	3	2	3	1	3	2	2	8	4	0	0	0	0	4	6
073012	15:39:26	10031	Trial750Eng	CongruentRight750	15	205	433	1	119	15:39:26	2879950	5	1	3	2	3	1	3	2	2	8	4	0	0	0	0	4	6
073012	15:39:26	10031	Trial750Eng	CongruentLeft750	15	203	393	1	119	15:39:26	2880669	5	1	3	2	3	1	3	2	2	8	4	0	0	0	0	4	6
073012	15:39:26	10031	Trial750Eng	CongruentRight750	15	205	415	1	119	15:39:26	2881442	5	1	3	2	3	1	3	2	2	8	4	0	0	0	0	4	6
073012	15:39:26	10031	Trial750Eng	IncongruentRight750	15	205	469	1	119	15:39:26	2882242	5	1	3	2	3	1	3	2	2	8	4	0	0	0	0	4	6
073012	15:39:26	10031	Trial750Eng	IncongruentLeft750	15	203	400	1	119	15:39:26	2882948	5	1	3	2	3	1	3	2	2	8	4	0	0	0	0	4	6
073012	15:39:26	10031	Trial750Eng	IncongruentLeft750	15	203	392	1	119	15:39:26	2883695	5	1	3	2	3	1	3	2	2	8	4	0	0	0	0	4	6
073012	15:39:26	10031	Trial750Eng	CongruentLeft750	15	203	430	1	119	15:39:26	2884481	5	1	3	2	3	1	3	2	2	8	4	0	0	0	0	4	6
073012	15:39:26	10031	Trial750Eng	CongruentRight750	15	205	403	1	119	15:39:26	2885201	5	1	3	2	3	1	3	2	2	8	4	0	0	0	0	4	6
073012	15:39:26	10031	Trial750Eng	IncongruentLeft750	15	203	428	1	119	15:39:26	2885987	5	1	3	2	3	1	3	2	2	8	4	0	0	0	0	4	6
073012	15:39:26	10031	Trial750Eng	IncongruentRight750	15	205	417	1	119	15:39:26	2886720	5	1	3	2	3	1	3	2	2	8	4	0	0	0	0	4	6
073012	15:39:26	10031	Trial750Eng	CongruentRight750	15	205	375	1	119	15:39:26	2887427	5	1	3	2	3	1	3	2	2	8	4	0	0	0	0	4	6
073012	15:39:26	10031	Trial750Eng	CongruentLeft750	15	203	444	1	119	15:39:26	2888239	5	1	3	2	3	1	3	2	2	8	4	0	0	0	0	4	6
073012	15:39:26	10031	Trial750Eng	IncongruentRight750	15	205	389	1	119	15:39:26	2888946	5	1	3	2	3	1	3	2	2	8	4	0	0	0	0	4	6
073012	15:39:26	10031	Trial750Eng	IncongruentLeft750	15	203	429	1	119	15:39:26	2889746	5	1	3	2	3	1	3	2	2	8	4	0	0	0	0	4	6
073012	15:39:26	10031	Trial750Eng	IncongruentRight750	15	205	405	1	119	15:39:26	2890479	5	1	3	2	3	1	3	2	2	8	4	0	0	0	0	4	6
073012	15:39:26	10031	Trial750Eng	CongruentRight750	15	205	398	1	119	15:39:26	2891238	5	1	3	2	3	1	3	2	2	8	4	0	0	0	0	4	6
073012	15:39:26	10031	Trial750Eng	IncongruentLeft750	15	203	435	1	119	15:39:26	2892011	5	1	3	2	3	1	3	2	2	8	4	0	0	0	0	4	6
073012	15:39:26	10031	Trial750Eng	CongruentLeft750	15	203	428	1	119	15:39:26	2892771	5	1	3	2	3	1	3	2	2	8	4	0	0	0	0	4	6
073012	15:39:26	10031	Trial750Eng	CongruentRight750	15	205	401	1	119	15:39:26	2893491	5	1	3	2	3	1	3	2	2	8	4	0	0	0	0	4	6
073012	15:39:26	10031	Trial750Eng	IncongruentLeft750	15	203	441	1	119	15:39:26	2894290	5	1	3	2	3	1	3	2	2	8	4	0	0	0	0	4	6
073012	15:39:26	10031	Trial750Eng	IncongruentRight750	15	205	399	1	119	15:39:26	2894997	5	1	3	2	3	1	3	2	2	8	4	0	0	0	0	4	6
073012	15:39:26	10031	Trial750Eng	IncongruentRight750	15	205	437	1	119	15:39:26	2895770	5	1	3	2	3	1	3	2	2	8	4	0	0	0	0	4	6
073012	15:39:26	10031	Trial750Eng	CongruentLeft750	15	203	445	1	119	15:39:26	2896543	5	1	3	2	3	1	3	2	2	8	4	0	0	0	0	4	6
073012	15:39:26	10031	Trial750Eng	IncongruentLeft750	15	0	487	0	119	15:39:26	2897329	5	1	3	2	3	1	3	2	2	8	4	0	0	0	0	4	6
073012	15:39:26	10031	Trial750Eng	CongruentRight750	15	205	427	1	119	15:39:26	2898036	5	1	3	2	3	1	3	2	2	8	4	0	0	0	0	4	6
073012	15:39:26	10031	Trial750Eng	CongruentLeft750	15	203	403	1	119	15:39:26	2898769	5	1	3	2	3	1	3	2	2	8	4	0	0	0	0	4	6
073012	15:39:26	10031	Trial750Eng	IncongruentRight750	15	205	377	1	119	15:39:26	2899488	5	1	3	2	3	1	3	2	2	8	4	0	0	0	0	4	6
073012	15:39:26	10031	Trial750Eng	CongruentRight750	15	0	487	0	119	15:39:26	2900341	5	1	3	2	3	1	3	2	2	8	4	0	0	0	0	4	6
073012	15:39:26	10031	Trial750Eng	IncongruentLeft750	15	203	412	1	119	15:39:26	2901061	5	1	3	2	3	1	3	2	2	8	4	0	0	0	0	4	6
073012	15:39:26	10031	Trial750Eng	CongruentLeft750	15	203	404	1	119	15:39:26	2901807	5	1	3	2	3	1	3	2	2	8	4	0	0	0	0	4	6
073012	15:39:26	10031	Trial750Eng	IncongruentLeft750	15	0	487	0	119	15:39:26	2902634	5	1	3	2	3	1	3	2	2	8	4	0	0	0	0	4	6
073012	15:39:26	10031	Trial750Eng	IncongruentRight750	15	0	487	0	119	15:39:26	2903407	5	1	3	2	3	1	3	2	2	8	4	0	0	0	0	4	6
073012	15:39:26	10031	Trial750Eng	CongruentRight750	15	205	373	1	119	15:39:26	2904100	5	1	3	2	3	1	3	2	2	8	4	0	0	0	0	4	6
073012	15:39:26	10031	Trial750Eng	CongruentLeft750	15	205	380	0	119	15:39:26	2904846	5	1	3	2	3	1	3	2	2	8	4	0	0	0	0	4	6
073012	15:39:26	10031	Trial750Eng	CongruentLeft750	15	203	368	1	119	15:39:26	2905579	5	1	3	2	3	1	3	2	2	8	4	0	0	0	0	4	6
073012	15:39:26	10031	Trial750Eng	IncongruentRight750	15	0	487	0	119	15:39:26	2906445	5	1	3	2	3	1	3	2	2	8	4	0	0	0	0	4	6
073012	15:39:26	10031	Trial750Eng	IncongruentLeft750	15	203	451	1	119	15:39:26	2907205	5	1	3	2	3	1	3	2	2	8	4	0	0	0	0	4	6
073012	15:39:26	10031	Trial750Eng	IncongruentRight750	15	205	444	1	119	15:39:26	2907952	5	1	3	2	3	1	3	2	2	8	4	0	0	0	0	4	6
073012	15:39:26	10031	Trial750Eng	CongruentRight750	15	205	450	1	119	15:39:26	2908698	5	1	3	2	3	1	3	2	2	8	4	0	0	0	0	4	6
073012	15:39:26	10031	Trial750Eng	CongruentRight750	15	0	487	0	119	15:39:26	2909484	5	1	3	2	3	1	3	2	2	8	4	0	0	0	0	4	6
073012	15:39:26	10031	Trial750Eng	IncongruentLeft750	15	203	418	1	119	15:39:26	2910190	5	1	3	2	3	1	3	2	2	8	4	0	0	0	0	4	6
073012	15:39:26	10031	Trial750Eng	CongruentLeft750	15	203	426	1	119	15:39:26	2910964	5	1	3	2	3	1	3	2	2	8	4	0	0	0	0	4	6
073012	15:39:26	10031	Trial750Eng	CongruentRight750	15	205	432	1	119	15:39:26	2911710	5	1	3	2	3	1	3	2	2	8	4	0	0	0	0	4	6
073012	15:39:26	10031	Trial750Eng	CongruentLeft750	15	203	374	1	119	15:39:26	2912403	5	1	3	2	3	1	3	2	2	8	4	0	0	0	0	4	6
073012	15:39:26	10031	Trial750Eng	IncongruentRight750	15	203	396	0	119	15:39:26	2913163	5	1	3	2	3	1	3	2	2	8	4	0	0	0	0	4	6
073012	15:39:26	10031	Trial750Eng	CongruentRight750	15	205	388	1	119	15:39:26	2913922	5	1	3	2	3	1	3	2	2	8	4	0	0	0	0	4	6
073012	15:39:26	10031	Trial750Eng	CongruentLeft750	15	203	425	1	119	15:39:26	2914709	5	1	3	2	3	1	3	2	2	8	4	0	0	0	0	4	6
073012	15:39:26	10031	Trial750Eng	IncongruentLeft750	15	0	487	0	119	15:39:26	2915509	5	1	3	2	3	1	3	2	2	8	4	0	0	0	0	4	6
073012	15:39:26	10031	Trial750Eng	IncongruentLeft750	15	0	487	0	119	15:39:26	2916281	5	1	3	2	3	1	3	2	2	8	4	0	0	0	0	4	6
073012	15:39:26	10031	Trial750Eng	CongruentRight750	15	0	487	0	119	15:39:26	2917041	5	1	3	2	3	1	3	2	2	8	4	0	0	0	0	4	6
073012	15:39:26	10031	Trial750Eng	IncongruentRight750	15	203	59	0	119	15:39:26	2917374	5	1	3	2	3	1	3	2	2	8	4	0	0	0	0	4	6
073012	15:39:26	10031	Trial750Eng	CongruentLeft750	15	203	467	1	119	15:39:26	2918547	5	1	3	2	3	1	3	2	2	8	4	0	0	0	0	4	6
073012	15:39:26	10031	Trial750Eng	IncongruentRight750	15	0	487	0	119	15:39:26	2919320	5	1	3	2	3	1	3	2	2	8	4	0	0	0	0	4	6
073012	15:39:26	10031	Trial750Eng	CongruentRight750	15	0	487	0	119	15:39:26	2920080	5	1	3	2	3	1	3	2	2	8	4	0	0	0	0	4	6
073012	15:39:26	10031	Trial750Eng	IncongruentLeft750	15	203	411	1	119	15:39:26	2920773	5	1	3	2	3	1	3	2	2	8	4	0	0	0	0	4	6
073012	15:39:26	10031	Trial750Eng	CongruentLeft750	15	203	404	1	119	15:39:26	2921519	5	1	3	2	3	1	3	2	2	8	4	0	0	0	0	4	6
073012	15:39:26	10031	Trial750Eng	CongruentRight750	15	205	367	1	119	15:39:26	2922252	5	1	3	2	3	1	3	2	2	8	4	0	0	0	0	4	6
073012	15:39:26	10031	Trial750Eng	IncongruentLeft750	15	205	367	0	119	15:39:26	2922972	5	1	3	2	3	1	3	2	2	8	4	0	0	0	0	4	6
073012	15:39:26	10031	Trial750Eng	CongruentRight750	15	205	389	1	119	15:39:26	2923745	5	1	3	2	3	1	3	2	2	8	4	0	0	0	0	4	6
073012	15:39:26	10031	Trial750Eng	CongruentRight750	15	203	349	0	119	15:39:26	2924465	5	1	3	2	3	1	3	2	2	8	4	0	0	0	0	4	6
073012	15:39:26	10031	Trial750Eng	IncongruentRight750	15	203	371	0	119	15:39:26	2925224	5	1	3	2	3	1	3	2	2	8	4	0	0	0	0	4	6
073012	15:39:26	10031	Trial750Eng	CongruentLeft750	15	203	440	1	119	15:39:26	2926051	5	1	3	2	3	1	3	2	2	8	4	0	0	0	0	4	6
073012	15:39:26	10031	Trial750Eng	IncongruentLeft750	15	0	487	0	119	15:39:26	2926837	5	1	3	2	3	1	3	2	2	8	4	0	0	0	0	4	6
073012	15:39:26	10031	Trial750Eng	CongruentLeft750	15	0	487	0	119	15:39:26	2927623	5	1	3	2	3	1	3	2	2	8	4	0	0	0	0	4	6
073012	15:39:26	10031	Trial750Eng	IncongruentRight750	15	205	422	1	119	15:39:26	2928330	5	1	3	2	3	1	3	2	2	8	4	0	0	0	0	4	6
073012	15:39:26	10031	Trial750Eng	IncongruentLeft750	15	203	399	1	119	15:39:26	2929076	5	1	3	2	3	1	3	2	2	8	4	0	0	0	0	4	6
073012	15:39:26	10031	Trial750Eng	CongruentRight750	15	205	420	1	119	15:39:26	2929836	5	1	3	2	3	1	3	2	2	8	4	0	0	0	0	4	6
073012	15:39:26	10031	Trial750Eng	CongruentLeft750	15	203	330	1	119	15:39:26	2930489	5	1	3	2	3	1	3	2	2	8	4	0	0	0	0	4	6
073012	15:39:26	10031	Trial750Eng	IncongruentLeft750	15	203	448	1	119	15:39:26	2931355	5	1	3	2	3	1	3	2	2	8	4	0	0	0	0	4	6
073012	15:39:26	10031	Trial750Eng	CongruentLeft750	15	203	424	1	119	15:39:26	2932088	5	1	3	2	3	1	3	2	2	8	4	0	0	0	0	4	6
073012	15:39:26	10031	Trial750Eng	IncongruentRight750	15	205	429	1	119	15:39:26	2932848	5	1	3	2	3	1	3	2	2	8	4	0	0	0	0	4	6
073012	15:39:26	10031	Trial750Eng	CongruentRight750	15	205	419	1	119	15:39:26	2933581	5	1	3	2	3	1	3	2	2	8	4	0	0	0	0	4	6
073012	15:39:26	10031	Trial750Eng	IncongruentLeft750	15	203	380	1	119	15:39:26	2934300	5	1	3	2	3	1	3	2	2	8	4	0	0	0	0	4	6
073012	15:39:26	10031	Trial750Eng	CongruentLeft750	15	203	433	1	119	15:39:26	2935100	5	1	3	2	3	1	3	2	2	8	4	0	0	0	0	4	6
073012	15:39:26	10031	Trial750Eng	IncongruentRight750	15	205	438	1	119	15:39:26	2935860	5	1	3	2	3	1	3	2	2	8	4	0	0	0	0	4	6
073012	15:39:26	10031	Trial750Eng	IncongruentLeft750	15	203	386	1	119	15:39:26	2936580	5	1	3	2	3	1	3	2	2	8	4	0	0	0	0	4	6
073012	15:39:26	10031	Trial750Eng	CongruentLeft750	15	205	375	0	119	15:39:26	2937313	5	1	3	2	3	1	3	2	2	8	4	0	0	0	0	4	6
073012	15:39:26	10031	Trial750Eng	IncongruentLeft750	15	205	384	0	119	15:39:26	2938072	5	1	3	2	3	1	3	2	2	8	4	0	0	0	0	4	6
073012	15:39:26	10031	Trial750Eng	CongruentRight750	15	203	389	0	119	15:39:26	2938832	5	1	3	2	3	1	3	2	2	8	4	0	0	0	0	4	6
073012	15:39:26	10031	Trial750Eng	CongruentLeft750	15	203	443	1	119	15:39:26	2939632	5	1	3	2	3	1	3	2	2	8	4	0	0	0	0	4	6
073012	15:39:26	10031	Trial750Eng	IncongruentRight750	15	205	419	1	119	15:39:26	2940365	5	1	3	2	3	1	3	2	2	8	4	0	0	0	0	4	6
073012	15:39:26	10031	Trial750Eng	CongruentLeft750	15	203	376	1	119	15:39:26	2941071	5	1	3	2	3	1	3	2	2	8	4	0	0	0	0	4	6
073012	15:39:26	10031	Trial750Eng	CongruentRight750	15	205	382	1	119	15:39:26	2941817	5	1	3	2	3	1	3	2	2	8	4	0	0	0	0	4	6
073012	15:39:26	10031	Trial750Eng	IncongruentLeft750	15	203	308	1	119	15:39:26	2942497	5	1	3	2	3	1	3	2	2	8	4	0	0	0	0	4	6
073012	15:39:26	10031	WordsAbsEngBaseline	PAbsEngBaseline1	16	Abs1	4427	0	119	15:39:26	2955492	5	1	3	2	3	1	3	2	2	8	4	0	0	0	0	4	6
073012	15:39:26	10031	WordsAbsEngBaseline	AbsEngBaseline1	16	Abs1	3603	0	119	15:39:26	2959157	5	1	3	2	3	1	3	2	2	8	4	1	0	0	0	4	6
073012	15:39:26	10031	WordsAbsEngBaseline	AbsEngBaseline2	16	Abs1	11198	0	119	15:39:26	2970406	5	1	3	2	3	1	3	2	2	8	4	2	0	0	0	4	6
073012	15:39:26	10031	WordsAbsEngBaseline	AbsEngBaseline3	16	Abs2	13680	0	119	15:39:26	2984147	5	1	3	2	3	1	3	2	2	8	4	2	0	0	0	4	6
073012	15:39:26	10031	Trial2BackEngS	NS	17	0	1000	1	119	15:39:26	3024303	5	1	3	2	3	1	3	2	2	8	4	2	0	0	0	4	6
073012	15:39:26	10031	Trial2BackEngS	NS	17	0	1000	1	119	15:39:26	3025836	5	1	3	2	3	1	3	2	2	8	4	2	0	0	0	4	6
073012	15:39:26	10031	Trial2BackEngS	NS	17	0	1000	1	119	15:39:26	3027369	5	1	3	2	3	1	3	2	2	8	4	2	0	0	0	4	6
073012	15:39:26	10031	Trial2BackEngS	YS	17	0	1000	0	119	15:39:26	3028901	5	1	3	2	3	1	3	2	2	8	4	2	0	0	0	4	6
073012	15:39:26	10031	Trial2BackEngS	NS	17	0	1000	1	119	15:39:26	3030447	5	1	3	2	3	1	3	2	2	8	4	2	0	0	0	4	6
073012	15:39:26	10031	Trial2BackEngS	NS	17	0	1000	1	119	15:39:26	3031980	5	1	3	2	3	1	3	2	2	8	4	2	0	0	0	4	6
073012	15:39:26	10031	Trial2BackEngS	NS	17	0	1000	1	119	15:39:26	3033513	5	1	3	2	3	1	3	2	2	8	4	2	0	0	0	4	6
073012	15:39:26	10031	Trial2BackEngS	NS	17	0	1000	1	119	15:39:26	3035046	5	1	3	2	3	1	3	2	2	8	4	2	0	0	0	4	6
073012	15:39:26	10031	Trial2BackEngS	YS	17	57	521	1	119	15:39:26	3036112	5	1	3	2	3	1	3	2	2	8	4	2	0	0	0	4	6
073012	15:39:26	10031	Trial2BackEngS	NS	17	0	1000	1	119	15:39:26	3038084	5	1	3	2	3	1	3	2	2	8	4	2	0	0	0	4	6
073012	15:39:26	10031	Trial2BackEngS	NS	17	0	1000	1	119	15:39:26	3039617	5	1	3	2	3	1	3	2	2	8	4	2	0	0	0	4	6
073012	15:39:26	10031	Trial2BackEngS	YS	17	0	1000	0	119	15:39:26	3041150	5	1	3	2	3	1	3	2	2	8	4	2	0	0	0	4	6
073012	15:39:26	10031	Trial2BackEngS	NS	17	0	1000	1	119	15:39:26	3042682	5	1	3	2	3	1	3	2	2	8	4	2	0	0	0	4	6
073012	15:39:26	10031	Trial2BackEngS	NS	17	0	1000	1	119	15:39:26	3044215	5	1	3	2	3	1	3	2	2	8	4	2	0	0	0	4	6
073012	15:39:26	10031	Trial2BackEngS	NS	17	0	1000	1	119	15:39:26	3045761	5	1	3	2	3	1	3	2	2	8	4	2	0	0	0	4	6
073012	15:39:26	10031	Trial2BackEngS	YS	17	57	650	1	119	15:39:26	3046934	5	1	3	2	3	1	3	2	2	8	4	2	0	0	0	4	6
073012	15:39:26	10031	Trial2BackEngS	NS	17	0	1000	1	119	15:39:26	3048787	5	1	3	2	3	1	3	2	2	8	4	2	0	0	0	4	6
073012	15:39:26	10031	Trial2BackEngS	NS	17	0	1000	1	119	15:39:26	3050306	5	1	3	2	3	1	3	2	2	8	4	2	0	0	0	4	6
073012	15:39:26	10031	Trial2BackEngS	NS	17	0	1000	1	119	15:39:26	3051839	5	1	3	2	3	1	3	2	2	8	4	2	0	0	0	4	6
073012	15:39:26	10031	Trial2BackEngS	NS	17	0	1000	1	119	15:39:26	3053371	5	1	3	2	3	1	3	2	2	8	4	2	0	0	0	4	6
073012	15:39:26	10031	Trial2BackEngS	YS	17	57	642	1	119	15:39:26	3054557	5	1	3	2	3	1	3	2	2	8	4	2	0	0	0	4	6
073012	15:39:26	10031	Trial2BackEngS	NS	17	0	1000	1	119	15:39:26	3056410	5	1	3	2	3	1	3	2	2	8	4	2	0	0	0	4	6
073012	15:39:26	10031	Trial2BackEngS	NS	17	0	1000	1	119	15:39:26	3057943	5	1	3	2	3	1	3	2	2	8	4	2	0	0	0	4	6
073012	15:39:26	10031	Trial2BackEngS	NS	17	0	1000	1	119	15:39:26	3059475	5	1	3	2	3	1	3	2	2	8	4	2	0	0	0	4	6
073012	15:39:26	10031	Trial2BackEngS	NS	17	57	858	0	119	15:39:26	3060875	5	1	3	2	3	1	3	2	2	8	4	2	0	0	0	4	6
073012	15:39:26	10031	Trial2BackEngS	NS	17	0	1000	1	119	15:39:26	3062514	5	1	3	2	3	1	3	2	2	8	4	2	0	0	0	4	6
073012	15:39:26	10031	Trial2BackEngS	NS	17	0	1000	1	119	15:39:26	3064034	5	1	3	2	3	1	3	2	2	8	4	2	0	0	0	4	6
073012	15:39:26	10031	Trial2BackEngS	NS	17	0	1000	1	119	15:39:26	3065553	5	1	3	2	3	1	3	2	2	8	4	2	0	0	0	4	6
073012	15:39:26	10031	Trial2BackEngS	NS	17	0	1000	1	119	15:39:26	3067099	5	1	3	2	3	1	3	2	2	8	4	2	0	0	0	4	6
073012	15:39:26	10031	Trial2BackEngS	NS	17	0	1000	1	119	15:39:26	3068645	5	1	3	2	3	1	3	2	2	8	4	2	0	0	0	4	6
073012	15:39:26	10031	Trial2BackEngS	NS	17	0	1000	1	119	15:39:26	3070178	5	1	3	2	3	1	3	2	2	8	4	2	0	0	0	4	6
073012	15:39:26	10031	Trial2BackEngS	YS	17	57	651	1	119	15:39:26	3071364	5	1	3	2	3	1	3	2	2	8	4	2	0	0	0	4	6
073012	15:39:26	10031	Trial2BackEngS	NS	17	0	1000	1	119	15:39:26	3073217	5	1	3	2	3	1	3	2	2	8	4	2	0	0	0	4	6
073012	15:39:26	10031	Trial2BackEngS	NS	17	0	1000	1	119	15:39:26	3074749	5	1	3	2	3	1	3	2	2	8	4	2	0	0	0	4	6
073012	15:39:26	10031	Trial2BackEngS	NS	17	0	1000	1	119	15:39:26	3076282	5	1	3	2	3	1	3	2	2	8	4	2	0	0	0	4	6
073012	15:39:26	10031	Trial2BackEngS	YS	17	0	1000	0	119	15:39:26	3077815	5	1	3	2	3	1	3	2	2	8	4	2	0	0	0	4	6
073012	15:39:26	10031	Trial2BackEngS	NS	17	0	1000	1	119	15:39:26	3079361	5	1	3	2	3	1	3	2	2	8	4	2	0	0	0	4	6
073012	15:39:26	10031	Trial2BackEngS	NS	17	0	1000	1	119	15:39:26	3080907	5	1	3	2	3	1	3	2	2	8	4	2	0	0	0	4	6
073012	15:39:26	10031	Trial2BackEngS	NS	17	0	1000	1	119	15:39:26	3082439	5	1	3	2	3	1	3	2	2	8	4	2	0	0	0	4	6
073012	15:39:26	10031	Trial2BackEngS	NS	17	0	1000	1	119	15:39:26	3083972	5	1	3	2	3	1	3	2	2	8	4	2	0	0	0	4	6
073012	15:39:26	10031	Trial2BackEngS	NS	17	0	1000	1	119	15:39:26	3085505	5	1	3	2	3	1	3	2	2	8	4	2	0	0	0	4	6
073012	15:39:26	10031	Trial2BackEngS	NS	17	0	1000	1	119	15:39:26	3087037	5	1	3	2	3	1	3	2	2	8	4	2	0	0	0	4	6
073012	15:39:26	10031	Trial2BackEngS	NS	17	0	1000	1	119	15:39:26	3088570	5	1	3	2	3	1	3	2	2	8	4	2	0	0	0	4	6
073012	15:39:26	10031	Trial2BackEngS	YS	17	0	1000	0	119	15:39:26	3090103	5	1	3	2	3	1	3	2	2	8	4	2	0	0	0	4	6
073012	15:39:26	10031	Trial2BackEngS	NS	17	0	1000	1	119	15:39:26	3091622	5	1	3	2	3	1	3	2	2	8	4	2	0	0	0	4	6
073012	15:39:26	10031	Trial2BackEngS	NS	17	0	1000	1	119	15:39:26	3093168	5	1	3	2	3	1	3	2	2	8	4	2	0	0	0	4	6
073012	15:39:26	10031	Trial2BackEngS	NS	17	0	1000	1	119	15:39:26	3094714	5	1	3	2	3	1	3	2	2	8	4	2	0	0	0	4	6
073012	15:39:26	10031	Trial2BackEngS	NS	17	0	1000	1	119	15:39:26	3096247	5	1	3	2	3	1	3	2	2	8	4	2	0	0	0	4	6
073012	15:39:26	10031	Trial2BackEngS	YS	17	57	709	1	119	15:39:26	3097500	5	1	3	2	3	1	3	2	2	8	4	2	0	0	0	4	6
073012	15:39:26	10031	Trial2BackEngS	NS	17	0	1000	1	119	15:39:26	3099286	5	1	3	2	3	1	3	2	2	8	4	2	0	0	0	4	6
073012	15:39:26	10031	Trial2BackEngS	NS	17	0	1000	1	119	15:39:26	3100818	5	1	3	2	3	1	3	2	2	8	4	2	0	0	0	4	6
073012	15:39:26	10031	Trial2BackEngS	NS	17	0	1000	1	119	15:39:26	3102351	5	1	3	2	3	1	3	2	2	8	4	2	0	0	0	4	6
073012	15:39:26	10031	Trial2BackEngS	NS	17	0	1000	1	119	15:39:26	3103884	5	1	3	2	3	1	3	2	2	8	4	2	0	0	0	4	6
073012	15:39:26	10031	Trial2BackEngS	NS	17	0	1000	1	119	15:39:26	3105416	5	1	3	2	3	1	3	2	2	8	4	2	0	0	0	4	6
073012	15:39:26	10031	Trial2BackEngS	NS	17	0	1000	1	119	15:39:26	3106949	5	1	3	2	3	1	3	2	2	8	4	2	0	0	0	4	6
073012	15:39:26	10031	Trial2BackEngS	YS	17	57	775	1	119	15:39:26	3108269	5	1	3	2	3	1	3	2	2	8	4	2	0	0	0	4	6
073012	15:39:26	10031	Trial2BackEngS	NS	17	0	1000	1	119	15:39:26	3109988	5	1	3	2	3	1	3	2	2	8	4	2	0	0	0	4	6
073012	15:39:26	10031	Trial2BackEngS	NS	17	0	1000	1	119	15:39:26	3111521	5	1	3	2	3	1	3	2	2	8	4	2	0	0	0	4	6
073012	15:39:26	10031	Trial2BackEngS	NS	17	0	1000	1	119	15:39:26	3113053	5	1	3	2	3	1	3	2	2	8	4	2	0	0	0	4	6
073012	15:39:26	10031	Trial2BackEngS	NS	17	0	1000	1	119	15:39:26	3114586	5	1	3	2	3	1	3	2	2	8	4	2	0	0	0	4	6
073012	15:39:26	10031	Trial2BackEngS	NS	17	0	1000	1	119	15:39:26	3116119	5	1	3	2	3	1	3	2	2	8	4	2	0	0	0	4	6
073012	15:39:26	10031	Trial2BackEngS	NS	17	0	1000	1	119	15:39:26	3117651	5	1	3	2	3	1	3	2	2	8	4	2	0	0	0	4	6
073012	15:39:26	10031	Trial2BackEngS	NS	17	0	1000	1	119	15:39:26	3119184	5	1	3	2	3	1	3	2	2	8	4	2	0	0	0	4	6
073012	15:39:26	10031	Trial2BackEngS	YS	17	57	763	1	119	15:39:26	3120490	5	1	3	2	3	1	3	2	2	8	4	2	0	0	0	4	6
073012	15:39:26	10031	Trial2BackEngS	NS	17	0	1000	1	119	15:39:26	3122223	5	1	3	2	3	1	3	2	2	8	4	2	0	0	0	4	6
073012	15:39:26	10031	Trial2BackEngS	NS	17	0	1000	1	119	15:39:26	3123756	5	1	3	2	3	1	3	2	2	8	4	2	0	0	0	4	6
073012	15:39:26	10031	Trial2BackEngS	NS	17	0	1000	1	119	15:39:26	3125289	5	1	3	2	3	1	3	2	2	8	4	2	0	0	0	4	6
073012	15:39:26	10031	Trial2BackEngS	NS	17	0	1000	1	119	15:39:26	3126821	5	1	3	2	3	1	3	2	2	8	4	2	0	0	0	4	6
073012	15:39:26	10031	Trial2BackEngS	YS	17	57	678	1	119	15:39:26	3128034	5	1	3	2	3	1	3	2	2	8	4	2	0	0	0	4	6
073012	15:39:26	10031	Trial2BackEngS	NS	17	0	1000	1	119	15:39:26	3129860	5	1	3	2	3	1	3	2	2	8	4	2	0	0	0	4	6
073012	15:39:26	10031	Trial2BackEngS	NS	17	0	1000	1	119	15:39:26	3131392	5	1	3	2	3	1	3	2	2	8	4	2	0	0	0	4	6
073012	15:39:26	10031	Trial2BackEngS	YS	17	0	1000	0	119	15:39:26	3132925	5	1	3	2	3	1	3	2	2	8	4	2	0	0	0	4	6
073012	15:39:26	10031	Trial2BackEngS	NS	17	0	1000	1	119	15:39:26	3134458	5	1	3	2	3	1	3	2	2	8	4	2	0	0	0	4	6
073012	15:39:26	10031	Trial2BackEngS	NS	17	0	1000	1	119	15:39:26	3135990	5	1	3	2	3	1	3	2	2	8	4	2	0	0	0	4	6
073012	15:39:26	10031	Trial2BackEngS	NS	17	0	1000	1	119	15:39:26	3137523	5	1	3	2	3	1	3	2	2	8	4	2	0	0	0	4	6
073012	15:39:26	10031	Trial2BackEngS	NS	17	0	1000	1	119	15:39:26	3139056	5	1	3	2	3	1	3	2	2	8	4	2	0	0	0	4	6
073012	15:39:26	10031	Trial2BackEngS	NS	17	0	1000	1	119	15:39:26	3140589	5	1	3	2	3	1	3	2	2	8	4	2	0	0	0	4	6
073012	15:39:26	10031	Trial2BackEngS	NS	17	0	1000	1	119	15:39:26	3142122	5	1	3	2	3	1	3	2	2	8	4	2	0	0	0	4	6
073012	15:39:26	10031	Trial2BackEngS	YS	17	0	1000	0	119	15:39:26	3143654	5	1	3	2	3	1	3	2	2	8	4	2	0	0	0	4	6
073012	15:39:26	10031	Trial2BackEngS	NS	17	0	1000	1	119	15:39:26	3145187	5	1	3	2	3	1	3	2	2	8	4	2	0	0	0	4	6
073012	15:39:26	10031	Trial2BackEngS	NS	17	0	1000	1	119	15:39:26	3146719	5	1	3	2	3	1	3	2	2	8	4	2	0	0	0	4	6
073012	15:39:26	10031	Trial2BackEngS	NS	17	0	1000	1	119	15:39:26	3148252	5	1	3	2	3	1	3	2	2	8	4	2	0	0	0	4	6
073012	15:39:26	10031	Trial2BackEngS	NS	17	0	1000	1	119	15:39:26	3149785	5	1	3	2	3	1	3	2	2	8	4	2	0	0	0	4	6
073012	15:39:26	10031	Trial2BackEngS	YS	17	0	1000	0	119	15:39:26	3151318	5	1	3	2	3	1	3	2	2	8	4	2	0	0	0	4	6
073012	15:39:26	10031	Trial2BackEngS	NS	17	0	1000	1	119	15:39:26	3152850	5	1	3	2	3	1	3	2	2	8	4	2	0	0	0	4	6
073012	15:39:26	10031	Trial2BackEngS	NS	17	0	1000	1	119	15:39:26	3154383	5	1	3	2	3	1	3	2	2	8	4	2	0	0	0	4	6
073012	15:39:26	10031	Trial2BackEngS	NS	17	0	1000	1	119	15:39:26	3155916	5	1	3	2	3	1	3	2	2	8	4	2	0	0	0	4	6
073012	15:39:26	10031	Trial2BackEngS	NS	17	57	655	0	119	15:39:26	3157115	5	1	3	2	3	1	3	2	2	8	4	2	0	0	0	4	6
073012	15:39:26	10031	Trial2BackEngS	YS	17	0	1000	0	119	15:39:26	3158954	5	1	3	2	3	1	3	2	2	8	4	2	0	0	0	4	6
073012	15:39:26	10031	Trial2BackEngS	NS	17	0	1000	1	119	15:39:26	3160487	5	1	3	2	3	1	3	2	2	8	4	2	0	0	0	4	6
073012	15:39:26	10031	Trial2BackEngS	NS	17	0	1000	1	119	15:39:26	3162020	5	1	3	2	3	1	3	2	2	8	4	2	0	0	0	4	6
073012	15:39:26	10031	Trial2BackEngS	YS	17	0	1000	0	119	15:39:26	3163552	5	1	3	2	3	1	3	2	2	8	4	2	0	0	0	4	6
073012	15:39:26	10031	Trial2BackEngS	NS	17	0	1000	1	119	15:39:26	3165085	5	1	3	2	3	1	3	2	2	8	4	2	0	0	0	4	6
073012	15:39:26	10031	Trial2BackEngS	NS	17	0	1000	1	119	15:39:26	3166618	5	1	3	2	3	1	3	2	2	8	4	2	0	0	0	4	6
073012	15:39:26	10031	Trial2BackEngS	NS	17	0	1000	1	119	15:39:26	3168151	5	1	3	2	3	1	3	2	2	8	4	2	0	0	0	4	6
073012	15:39:26	10031	Trial2BackEngS	NS	17	0	1000	1	119	15:39:26	3169683	5	1	3	2	3	1	3	2	2	8	4	2	0	0	0	4	6
073012	15:39:26	10031	Trial2BackEngS	NS	17	0	1000	1	119	15:39:26	3171216	5	1	3	2	3	1	3	2	2	8	4	2	0	0	0	4	6
073012	15:39:26	10031	Trial2BackEngS	NS	17	0	1000	1	119	15:39:26	3172749	5	1	3	2	3	1	3	2	2	8	4	2	0	0	0	4	6
073012	15:39:26	10031	Trial2BackEngS	NS	17	0	1000	1	119	15:39:26	3174281	5	1	3	2	3	1	3	2	2	8	4	2	0	0	0	4	6
073012	15:39:26	10031	Trial2BackEngS	NS	17	0	1000	1	119	15:39:26	3175814	5	1	3	2	3	1	3	2	2	8	4	2	0	0	0	4	6
073012	15:39:26	10031	Trial2BackEngS	YS	17	57	628	1	119	15:39:26	3176987	5	1	3	2	3	1	3	2	2	8	4	2	0	0	0	4	6
073012	15:39:26	10031	Trial2BackEngS	NS	17	0	1000	1	119	15:39:26	3178853	5	1	3	2	3	1	3	2	2	8	4	2	0	0	0	4	6
073012	15:39:26	10031	Trial2BackEngS	NS	17	0	1000	1	119	15:39:26	3180386	5	1	3	2	3	1	3	2	2	8	4	2	0	0	0	4	6
073012	15:39:26	10031	Trial2BackEngS	NS	17	0	1000	1	119	15:39:26	3181918	5	1	3	2	3	1	3	2	2	8	4	2	0	0	0	4	6
073012	15:39:26	10031	Trial2BackEngS	NS	17	0	1000	1	119	15:39:26	3183451	5	1	3	2	3	1	3	2	2	8	4	2	0	0	0	4	6
073012	15:39:26	10031	Trial2BackEngS	NS	17	0	1000	1	119	15:39:26	3184984	5	1	3	2	3	1	3	2	2	8	4	2	0	0	0	4	6
073012	15:39:26	10031	Trial2BackEngS	NS	17	0	1000	1	119	15:39:26	3186516	5	1	3	2	3	1	3	2	2	8	4	2	0	0	0	4	6
073012	15:39:26	10031	Trial2BackEngS	NS	17	0	1000	1	119	15:39:26	3188049	5	1	3	2	3	1	3	2	2	8	4	2	0	0	0	4	6
073012	15:39:26	10031	Trial2BackEngS	YS	17	0	1000	0	119	15:39:26	3189581	5	1	3	2	3	1	3	2	2	8	4	2	0	0	0	4	6
073012	15:39:26	10031	Trial2BackEngS	NS	17	0	1000	1	119	15:39:26	3191114	5	1	3	2	3	1	3	2	2	8	4	2	0	0	0	4	6
073012	15:39:26	10031	Trial2BackEngS	NS	17	0	1000	1	119	15:39:26	3192647	5	1	3	2	3	1	3	2	2	8	4	2	0	0	0	4	6
073012	15:39:26	10031	Trial2BackEngS	NS	17	0	1000	1	119	15:39:26	3194180	5	1	3	2	3	1	3	2	2	8	4	2	0	0	0	4	6
073012	15:39:26	10031	Trial2BackEngS	NS	17	0	1000	1	119	15:39:26	3195712	5	1	3	2	3	1	3	2	2	8	4	2	0	0	0	4	6
073012	15:39:26	10031	Trial2BackEngS	NS	17	0	1000	1	119	15:39:26	3197245	5	1	3	2	3	1	3	2	2	8	4	2	0	0	0	4	6
073012	15:39:26	10031	Trial2BackEngS	NS	17	0	1000	1	119	15:39:26	3198778	5	1	3	2	3	1	3	2	2	8	4	2	0	0	0	4	6
073012	15:39:26	10031	Trial2BackEngS	NS	17	0	1000	1	119	15:39:26	3200297	5	1	3	2	3	1	3	2	2	8	4	2	0	0	0	4	6
073012	15:39:26	10031	Trial2BackEngS	NS	17	0	1000	1	119	15:39:26	3201817	5	1	3	2	3	1	3	2	2	8	4	2	0	0	0	4	6
073012	15:39:26	10031	Trial2BackEngS	NS	17	0	1000	1	119	15:39:26	3203336	5	1	3	2	3	1	3	2	2	8	4	2	0	0	0	4	6
073012	15:39:26	10031	Trial2BackEngS	YS	17	57	718	1	119	15:39:26	3204575	5	1	3	2	3	1	3	2	2	8	4	2	0	0	0	4	6
073012	15:39:26	10031	Trial2BackEngS	NS	17	0	1000	1	119	15:39:26	3206361	5	1	3	2	3	1	3	2	2	8	4	2	0	0	0	4	6
073012	15:39:26	10031	ClockEngBaseline	ClockEngBaseline	19	Clock1	43929	0	119	15:39:26	3250504	5	1	3	2	3	1	3	2	2	8	4	2	1	0	0	4	6
073012	15:39:26	10031	ClockEngBaseline	ClockEngBaseline	19	Clock11	886	0	119	15:39:26	3251450	5	1	3	2	3	1	3	2	2	8	4	2	1	1	0	4	6
073012	15:39:26	10031	ClockEngBaseline	ClockEngBaseline	19	Clock111	596	0	119	15:39:26	3252116	5	1	3	2	3	1	3	2	2	8	4	2	1	1	1	4	6
073012	15:39:26	10031	ClockEngBaseline	ClockEngBaseline	19	Clockdone	815	0	119	15:39:26	3252982	5	1	3	2	3	1	3	2	2	8	4	2	1	1	1	4	6
073012	15:39:26	10031	FASEngVFBaseline	StopEngVFBaseline	20	16	6041	0	119	15:39:26	3355488	5	1	3	2	3	1	3	2	2	8	4	2	1	1	1	4	6
