date	time	subject	blockcode	trialcode	values.TaskNumber	response	latency	correct	values.Score	script.starttime	script.elapsedtime	values.ScoreS7	values.Word1	values.Word2	values.Word3	values.Word4	values.Word5	values.Word6	values.Word7	values.Word8	values.DigitSpanFwrd	values.DigitSpanBack	values.ScoreAbs	values.Contour	values.Numbers	values.Hands	values.corsiblockspanFwrd	values.corsiblockspanRev
082712	14:20:46	10009	Language	Language	0	English	13397	0	0	14:20:46	13478	0	0	0	0	0	0	0	0	0	0	0	0	0	0	0	0	0
082712	14:20:46	10009	Session	Session	0	3mo	903	0	0	14:20:46	14464	0	0	0	0	0	0	0	0	0	0	0	0	0	0	0	0	0
082712	14:20:46	10009	HandEng	HandEng	0	Right	1211774	0	0	14:20:46	1226320	0	0	0	0	0	0	0	0	0	0	0	0	0	0	0	0	0
082712	14:20:46	10009	CubeEng	CubeEng	1	1Cube	26338	0	0	14:20:46	1280963	0	0	0	0	0	0	0	0	0	0	0	0	0	0	0	0	0
082712	14:20:46	10009	pm.simpleEngRight	blank.simpleEng	2	0	2387	1	0	14:20:46	1298210	0	0	0	0	0	0	0	0	0	0	0	0	0	0	0	0	0
082712	14:20:46	10009	pm.simpleEngRight	pm.simpleEng	2	57	549	0	0	14:20:46	1298796	0	0	0	0	0	0	0	0	0	0	0	0	0	0	0	0	0
082712	14:20:46	10009	pm.simpleEngRight	blank.simpleEng	2	0	1687	1	0	14:20:46	1300502	0	0	0	0	0	0	0	0	0	0	0	0	0	0	0	0	0
082712	14:20:46	10009	pm.simpleEngRight	pm.simpleEng	2	57	336	0	0	14:20:46	1300876	0	0	0	0	0	0	0	0	0	0	0	0	0	0	0	0	0
082712	14:20:46	10009	pm.simpleEngRight	blank.simpleEng	2	0	2087	1	0	14:20:46	1302995	0	0	0	0	0	0	0	0	0	0	0	0	0	0	0	0	0
082712	14:20:46	10009	pm.simpleEngRight	pm.simpleEng	2	57	324	0	0	14:20:46	1303355	0	0	0	0	0	0	0	0	0	0	0	0	0	0	0	0	0
082712	14:20:46	10009	pm.simpleEngRight	blank.simpleEng	2	0	1887	1	0	14:20:46	1305274	0	0	0	0	0	0	0	0	0	0	0	0	0	0	0	0	0
082712	14:20:46	10009	pm.simpleEngRight	pm.simpleEng	2	57	397	0	0	14:20:46	1305714	0	0	0	0	0	0	0	0	0	0	0	0	0	0	0	0	0
082712	14:20:46	10009	pm.simpleEngRight	blank.simpleEng	2	0	1487	1	0	14:20:46	1307220	0	0	0	0	0	0	0	0	0	0	0	0	0	0	0	0	0
082712	14:20:46	10009	pm.simpleEngRight	pm.simpleEng	2	57	403	0	0	14:20:46	1307659	0	0	0	0	0	0	0	0	0	0	0	0	0	0	0	0	0
082712	14:20:46	10009	pm.simpleEngRight	blank.simpleEng	2	0	1787	1	0	14:20:46	1309472	0	0	0	0	0	0	0	0	0	0	0	0	0	0	0	0	0
082712	14:20:46	10009	pm.simpleEngRight	pm.simpleEng	2	57	374	0	0	14:20:46	1309885	0	0	0	0	0	0	0	0	0	0	0	0	0	0	0	0	0
082712	14:20:46	10009	pm.simpleEngRight	blank.simpleEng	2	0	1587	1	0	14:20:46	1311498	0	0	0	0	0	0	0	0	0	0	0	0	0	0	0	0	0
082712	14:20:46	10009	pm.simpleEngRight	pm.simpleEng	2	57	381	0	0	14:20:46	1311911	0	0	0	0	0	0	0	0	0	0	0	0	0	0	0	0	0
082712	14:20:46	10009	pm.simpleEngRight	blank.simpleEng	2	0	2287	1	0	14:20:46	1314217	0	0	0	0	0	0	0	0	0	0	0	0	0	0	0	0	0
082712	14:20:46	10009	pm.simpleEngRight	pm.simpleEng	2	57	381	0	0	14:20:46	1314630	0	0	0	0	0	0	0	0	0	0	0	0	0	0	0	0	0
082712	14:20:46	10009	pm.simpleEngRight	blank.simpleEng	2	0	1987	1	0	14:20:46	1316643	0	0	0	0	0	0	0	0	0	0	0	0	0	0	0	0	0
082712	14:20:46	10009	pm.simpleEngRight	pm.simpleEng	2	57	404	0	0	14:20:46	1317082	0	0	0	0	0	0	0	0	0	0	0	0	0	0	0	0	0
082712	14:20:46	10009	pm.simpleEngRight	blank.simpleEng	2	0	2187	1	0	14:20:46	1319295	0	0	0	0	0	0	0	0	0	0	0	0	0	0	0	0	0
082712	14:20:46	10009	pm.simpleEngRight	pm.simpleEng	2	57	376	0	0	14:20:46	1319708	0	0	0	0	0	0	0	0	0	0	0	0	0	0	0	0	0
082712	14:20:46	10009	pm.simpleEngRight	blank.simpleEng	2	0	2487	1	0	14:20:46	1322227	0	0	0	0	0	0	0	0	0	0	0	0	0	0	0	0	0
082712	14:20:46	10009	pm.simpleEngRight	pm.simpleEng	2	57	420	0	0	14:20:46	1322680	0	0	0	0	0	0	0	0	0	0	0	0	0	0	0	0	0
082712	14:20:46	10009	pm.simpleEngRight	blank.simpleEng	2	0	1987	1	0	14:20:46	1324693	0	0	0	0	0	0	0	0	0	0	0	0	0	0	0	0	0
082712	14:20:46	10009	pm.simpleEngRight	pm.simpleEng	2	57	417	0	0	14:20:46	1325146	0	0	0	0	0	0	0	0	0	0	0	0	0	0	0	0	0
082712	14:20:46	10009	pm.simpleEngRight	blank.simpleEng	2	0	1587	1	0	14:20:46	1326759	0	0	0	0	0	0	0	0	0	0	0	0	0	0	0	0	0
082712	14:20:46	10009	pm.simpleEngRight	pm.simpleEng	2	57	448	0	0	14:20:46	1327238	0	0	0	0	0	0	0	0	0	0	0	0	0	0	0	0	0
082712	14:20:46	10009	pm.simpleEngRight	blank.simpleEng	2	0	1487	1	0	14:20:46	1328744	0	0	0	0	0	0	0	0	0	0	0	0	0	0	0	0	0
082712	14:20:46	10009	pm.simpleEngRight	pm.simpleEng	2	57	542	0	0	14:20:46	1329317	0	0	0	0	0	0	0	0	0	0	0	0	0	0	0	0	0
082712	14:20:46	10009	pm.simpleEngRight	blank.simpleEng	2	0	1687	1	0	14:20:46	1331023	0	0	0	0	0	0	0	0	0	0	0	0	0	0	0	0	0
082712	14:20:46	10009	pm.simpleEngRight	pm.simpleEng	2	57	471	0	0	14:20:46	1331530	0	0	0	0	0	0	0	0	0	0	0	0	0	0	0	0	0
082712	14:20:46	10009	pm.simpleEngRight	blank.simpleEng	2	0	1787	1	0	14:20:46	1333342	0	0	0	0	0	0	0	0	0	0	0	0	0	0	0	0	0
082712	14:20:46	10009	pm.simpleEngRight	pm.simpleEng	2	57	295	0	0	14:20:46	1333676	0	0	0	0	0	0	0	0	0	0	0	0	0	0	0	0	0
082712	14:20:46	10009	pm.simpleEngRight	blank.simpleEng	2	0	2187	1	0	14:20:46	1335888	0	0	0	0	0	0	0	0	0	0	0	0	0	0	0	0	0
082712	14:20:46	10009	pm.simpleEngRight	pm.simpleEng	2	57	342	0	0	14:20:46	1336261	0	0	0	0	0	0	0	0	0	0	0	0	0	0	0	0	0
082712	14:20:46	10009	pm.simpleEngRight	blank.simpleEng	2	0	2387	1	0	14:20:46	1338674	0	0	0	0	0	0	0	0	0	0	0	0	0	0	0	0	0
082712	14:20:46	10009	pm.simpleEngRight	pm.simpleEng	2	57	340	0	0	14:20:46	1339047	0	0	0	0	0	0	0	0	0	0	0	0	0	0	0	0	0
082712	14:20:46	10009	pm.simpleEngRight	blank.simpleEng	2	0	1887	1	0	14:20:46	1340953	0	0	0	0	0	0	0	0	0	0	0	0	0	0	0	0	0
082712	14:20:46	10009	pm.simpleEngRight	pm.simpleEng	2	57	333	0	0	14:20:46	1341326	0	0	0	0	0	0	0	0	0	0	0	0	0	0	0	0	0
082712	14:20:46	10009	pm.simpleEngRight	blank.simpleEng	2	0	2487	1	0	14:20:46	1343845	0	0	0	0	0	0	0	0	0	0	0	0	0	0	0	0	0
082712	14:20:46	10009	pm.simpleEngRight	pm.simpleEng	2	57	353	0	0	14:20:46	1344231	0	0	0	0	0	0	0	0	0	0	0	0	0	0	0	0	0
082712	14:20:46	10009	pm.simpleEngRight	blank.simpleEng	2	0	2287	1	0	14:20:46	1346550	0	0	0	0	0	0	0	0	0	0	0	0	0	0	0	0	0
082712	14:20:46	10009	pm.simpleEngRight	pm.simpleEng	2	57	335	0	0	14:20:46	1346924	0	0	0	0	0	0	0	0	0	0	0	0	0	0	0	0	0
082712	14:20:46	10009	pm.simpleEngRight	blank.simpleEng	2	0	2087	1	0	14:20:46	1349029	0	0	0	0	0	0	0	0	0	0	0	0	0	0	0	0	0
082712	14:20:46	10009	pm.simpleEngRight	pm.simpleEng	2	57	368	0	0	14:20:46	1349429	0	0	0	0	0	0	0	0	0	0	0	0	0	0	0	0	0
082712	14:20:46	10009	pm.simpleEngRight	blank.simpleEng	2	0	2287	1	0	14:20:46	1351748	0	0	0	0	0	0	0	0	0	0	0	0	0	0	0	0	0
082712	14:20:46	10009	pm.simpleEngRight	pm.simpleEng	2	57	321	0	0	14:20:46	1352108	0	0	0	0	0	0	0	0	0	0	0	0	0	0	0	0	0
082712	14:20:46	10009	pm.simpleEngRight	blank.simpleEng	2	0	2387	1	0	14:20:46	1354521	0	0	0	0	0	0	0	0	0	0	0	0	0	0	0	0	0
082712	14:20:46	10009	pm.simpleEngRight	pm.simpleEng	2	57	285	0	0	14:20:46	1354840	0	0	0	0	0	0	0	0	0	0	0	0	0	0	0	0	0
082712	14:20:46	10009	pm.simpleEngRight	blank.simpleEng	2	0	1887	1	0	14:20:46	1356746	0	0	0	0	0	0	0	0	0	0	0	0	0	0	0	0	0
082712	14:20:46	10009	pm.simpleEngRight	pm.simpleEng	2	57	363	0	0	14:20:46	1357146	0	0	0	0	0	0	0	0	0	0	0	0	0	0	0	0	0
082712	14:20:46	10009	pm.simpleEngRight	blank.simpleEng	2	0	2087	1	0	14:20:46	1359252	0	0	0	0	0	0	0	0	0	0	0	0	0	0	0	0	0
082712	14:20:46	10009	pm.simpleEngRight	pm.simpleEng	2	57	289	0	0	14:20:46	1359572	0	0	0	0	0	0	0	0	0	0	0	0	0	0	0	0	0
082712	14:20:46	10009	pm.simpleEngRight	blank.simpleEng	2	0	1687	1	0	14:20:46	1361278	0	0	0	0	0	0	0	0	0	0	0	0	0	0	0	0	0
082712	14:20:46	10009	pm.simpleEngRight	pm.simpleEng	2	57	344	0	0	14:20:46	1361651	0	0	0	0	0	0	0	0	0	0	0	0	0	0	0	0	0
082712	14:20:46	10009	pm.simpleEngRight	blank.simpleEng	2	0	1487	1	0	14:20:46	1363157	0	0	0	0	0	0	0	0	0	0	0	0	0	0	0	0	0
082712	14:20:46	10009	pm.simpleEngRight	pm.simpleEng	2	57	353	0	0	14:20:46	1363544	0	0	0	0	0	0	0	0	0	0	0	0	0	0	0	0	0
082712	14:20:46	10009	pm.simpleEngRight	blank.simpleEng	2	0	1987	1	0	14:20:46	1365556	0	0	0	0	0	0	0	0	0	0	0	0	0	0	0	0	0
082712	14:20:46	10009	pm.simpleEngRight	pm.simpleEng	2	57	337	0	0	14:20:46	1365929	0	0	0	0	0	0	0	0	0	0	0	0	0	0	0	0	0
082712	14:20:46	10009	pm.simpleEngRight	blank.simpleEng	2	0	1587	1	0	14:20:46	1367542	0	0	0	0	0	0	0	0	0	0	0	0	0	0	0	0	0
082712	14:20:46	10009	pm.simpleEngRight	pm.simpleEng	2	57	335	0	0	14:20:46	1367915	0	0	0	0	0	0	0	0	0	0	0	0	0	0	0	0	0
082712	14:20:46	10009	pm.simpleEngRight	blank.simpleEng	2	0	2487	1	0	14:20:46	1370434	0	0	0	0	0	0	0	0	0	0	0	0	0	0	0	0	0
082712	14:20:46	10009	pm.simpleEngRight	pm.simpleEng	2	57	339	0	0	14:20:46	1370807	0	0	0	0	0	0	0	0	0	0	0	0	0	0	0	0	0
082712	14:20:46	10009	pm.simpleEngRight	blank.simpleEng	2	0	2187	1	0	14:20:46	1373020	0	0	0	0	0	0	0	0	0	0	0	0	0	0	0	0	0
082712	14:20:46	10009	pm.simpleEngRight	pm.simpleEng	2	57	345	0	0	14:20:46	1373406	0	0	0	0	0	0	0	0	0	0	0	0	0	0	0	0	0
082712	14:20:46	10009	pm.simpleEngRight	blank.simpleEng	2	0	1787	1	0	14:20:46	1375219	0	0	0	0	0	0	0	0	0	0	0	0	0	0	0	0	0
082712	14:20:46	10009	pm.simpleEngRight	pm.simpleEng	2	57	322	0	0	14:20:46	1375579	0	0	0	0	0	0	0	0	0	0	0	0	0	0	0	0	0
082712	14:20:46	10009	pm.simpleEngRight	blank.simpleEng	2	0	2087	1	0	14:20:46	1377701	0	0	0	0	0	0	0	0	0	0	0	0	0	0	0	0	0
082712	14:20:46	10009	pm.simpleEngRight	pm.simpleEng	2	57	339	0	0	14:20:46	1378071	0	0	0	0	0	0	0	0	0	0	0	0	0	0	0	0	0
082712	14:20:46	10009	pm.simpleEngRight	blank.simpleEng	2	0	2187	1	0	14:20:46	1380284	0	0	0	0	0	0	0	0	0	0	0	0	0	0	0	0	0
082712	14:20:46	10009	pm.simpleEngRight	pm.simpleEng	2	57	297	0	0	14:20:46	1380617	0	0	0	0	0	0	0	0	0	0	0	0	0	0	0	0	0
082712	14:20:46	10009	pm.simpleEngRight	blank.simpleEng	2	0	2287	1	0	14:20:46	1382922	0	0	0	0	0	0	0	0	0	0	0	0	0	0	0	0	0
082712	14:20:46	10009	pm.simpleEngRight	pm.simpleEng	2	57	283	0	0	14:20:46	1383242	0	0	0	0	0	0	0	0	0	0	0	0	0	0	0	0	0
082712	14:20:46	10009	pm.simpleEngRight	blank.simpleEng	2	0	1587	1	0	14:20:46	1384855	0	0	0	0	0	0	0	0	0	0	0	0	0	0	0	0	0
082712	14:20:46	10009	pm.simpleEngRight	pm.simpleEng	2	57	414	0	0	14:20:46	1385308	0	0	0	0	0	0	0	0	0	0	0	0	0	0	0	0	0
082712	14:20:46	10009	pm.simpleEngRight	blank.simpleEng	2	0	2387	1	0	14:20:46	1387721	0	0	0	0	0	0	0	0	0	0	0	0	0	0	0	0	0
082712	14:20:46	10009	pm.simpleEngRight	pm.simpleEng	2	57	316	0	0	14:20:46	1388067	0	0	0	0	0	0	0	0	0	0	0	0	0	0	0	0	0
082712	14:20:46	10009	pm.simpleEngRight	blank.simpleEng	2	0	1687	1	0	14:20:46	1389773	0	0	0	0	0	0	0	0	0	0	0	0	0	0	0	0	0
082712	14:20:46	10009	pm.simpleEngRight	pm.simpleEng	2	57	344	0	0	14:20:46	1390160	0	0	0	0	0	0	0	0	0	0	0	0	0	0	0	0	0
082712	14:20:46	10009	pm.simpleEngRight	blank.simpleEng	2	0	1787	1	0	14:20:46	1391972	0	0	0	0	0	0	0	0	0	0	0	0	0	0	0	0	0
082712	14:20:46	10009	pm.simpleEngRight	pm.simpleEng	2	57	305	0	0	14:20:46	1392319	0	0	0	0	0	0	0	0	0	0	0	0	0	0	0	0	0
082712	14:20:46	10009	Trial2BackEng	N	3	0	1000	1	1	14:20:46	1420827	0	0	0	0	0	0	0	0	0	0	0	0	0	0	0	0	0
082712	14:20:46	10009	Trial2BackEng	N	3	0	1000	1	2	14:20:46	1422346	0	0	0	0	0	0	0	0	0	0	0	0	0	0	0	0	0
082712	14:20:46	10009	Trial2BackEng	N	3	0	1000	1	3	14:20:46	1423866	0	0	0	0	0	0	0	0	0	0	0	0	0	0	0	0	0
082712	14:20:46	10009	Trial2BackEng	N	3	0	1000	1	4	14:20:46	1425385	0	0	0	0	0	0	0	0	0	0	0	0	0	0	0	0	0
082712	14:20:46	10009	Trial2BackEng	N	3	0	1000	1	5	14:20:46	1426905	0	0	0	0	0	0	0	0	0	0	0	0	0	0	0	0	0
082712	14:20:46	10009	Trial2BackEng	N	3	0	1000	1	6	14:20:46	1428424	0	0	0	0	0	0	0	0	0	0	0	0	0	0	0	0	0
082712	14:20:46	10009	Trial2BackEng	N	3	0	1000	1	7	14:20:46	1429944	0	0	0	0	0	0	0	0	0	0	0	0	0	0	0	0	0
082712	14:20:46	10009	Trial2BackEng	N	3	0	1000	1	8	14:20:46	1431463	0	0	0	0	0	0	0	0	0	0	0	0	0	0	0	0	0
082712	14:20:46	10009	Trial2BackEng	Y	3	0	1000	0	8	14:20:46	1432982	0	0	0	0	0	0	0	0	0	0	0	0	0	0	0	0	0
082712	14:20:46	10009	Trial2BackEng	N	3	0	1000	1	9	14:20:46	1434502	0	0	0	0	0	0	0	0	0	0	0	0	0	0	0	0	0
082712	14:20:46	10009	Trial2BackEng	N	3	0	1000	1	10	14:20:46	1436021	0	0	0	0	0	0	0	0	0	0	0	0	0	0	0	0	0
082712	14:20:46	10009	Trial2BackEng	N	3	0	1000	1	11	14:20:46	1437540	0	0	0	0	0	0	0	0	0	0	0	0	0	0	0	0	0
082712	14:20:46	10009	Trial2BackEng	Y	3	57	692	1	12	14:20:46	1438767	0	0	0	0	0	0	0	0	0	0	0	0	0	0	0	0	0
082712	14:20:46	10009	Trial2BackEng	N	3	0	1000	1	13	14:20:46	1440566	0	0	0	0	0	0	0	0	0	0	0	0	0	0	0	0	0
082712	14:20:46	10009	Trial2BackEng	N	3	0	1000	1	14	14:20:46	1442085	0	0	0	0	0	0	0	0	0	0	0	0	0	0	0	0	0
082712	14:20:46	10009	Trial2BackEng	N	3	0	1000	1	15	14:20:46	1443605	0	0	0	0	0	0	0	0	0	0	0	0	0	0	0	0	0
082712	14:20:46	10009	Trial2BackEng	N	3	0	1000	1	16	14:20:46	1445124	0	0	0	0	0	0	0	0	0	0	0	0	0	0	0	0	0
082712	14:20:46	10009	Trial2BackEng	N	3	0	1000	1	17	14:20:46	1446643	0	0	0	0	0	0	0	0	0	0	0	0	0	0	0	0	0
082712	14:20:46	10009	Trial2BackEng	Y	3	57	453	1	18	14:20:46	1447630	0	0	0	0	0	0	0	0	0	0	0	0	0	0	0	0	0
082712	14:20:46	10009	Trial2BackEng	N	3	0	1000	1	19	14:20:46	1449669	0	0	0	0	0	0	0	0	0	0	0	0	0	0	0	0	0
082712	14:20:46	10009	Trial2BackEng	N	3	0	1000	1	20	14:20:46	1451188	0	0	0	0	0	0	0	0	0	0	0	0	0	0	0	0	0
082712	14:20:46	10009	Trial2BackEng	N	3	0	1000	1	21	14:20:46	1452708	0	0	0	0	0	0	0	0	0	0	0	0	0	0	0	0	0
082712	14:20:46	10009	Trial2BackEng	N	3	0	1000	1	22	14:20:46	1454227	0	0	0	0	0	0	0	0	0	0	0	0	0	0	0	0	0
082712	14:20:46	10009	Trial2BackEng	Y	3	57	661	1	23	14:20:46	1455413	0	0	0	0	0	0	0	0	0	0	0	0	0	0	0	0	0
082712	14:20:46	10009	Trial2BackEng	N	3	0	1000	1	24	14:20:46	1457252	0	0	0	0	0	0	0	0	0	0	0	0	0	0	0	0	0
082712	14:20:46	10009	Trial2BackEng	N	3	0	1000	1	25	14:20:46	1458772	0	0	0	0	0	0	0	0	0	0	0	0	0	0	0	0	0
082712	14:20:46	10009	Trial2BackEng	N	3	0	1000	1	26	14:20:46	1460291	0	0	0	0	0	0	0	0	0	0	0	0	0	0	0	0	0
082712	14:20:46	10009	Trial2BackEng	N	3	0	1000	1	27	14:20:46	1461811	0	0	0	0	0	0	0	0	0	0	0	0	0	0	0	0	0
082712	14:20:46	10009	Trial2BackEng	N	3	0	1000	1	28	14:20:46	1463330	0	0	0	0	0	0	0	0	0	0	0	0	0	0	0	0	0
082712	14:20:46	10009	Trial2BackEng	N	3	0	1000	1	29	14:20:46	1464849	0	0	0	0	0	0	0	0	0	0	0	0	0	0	0	0	0
082712	14:20:46	10009	Trial2BackEng	Y	3	57	854	1	30	14:20:46	1466236	0	0	0	0	0	0	0	0	0	0	0	0	0	0	0	0	0
082712	14:20:46	10009	Trial2BackEng	N	3	0	1000	1	31	14:20:46	1467875	0	0	0	0	0	0	0	0	0	0	0	0	0	0	0	0	0
082712	14:20:46	10009	Trial2BackEng	N	3	0	1000	1	32	14:20:46	1469394	0	0	0	0	0	0	0	0	0	0	0	0	0	0	0	0	0
082712	14:20:46	10009	Trial2BackEng	N	3	0	1000	1	33	14:20:46	1470914	0	0	0	0	0	0	0	0	0	0	0	0	0	0	0	0	0
082712	14:20:46	10009	Trial2BackEng	Y	3	57	566	1	34	14:20:46	1472006	0	0	0	0	0	0	0	0	0	0	0	0	0	0	0	0	0
082712	14:20:46	10009	Trial2BackEng	N	3	0	1000	1	35	14:20:46	1473939	0	0	0	0	0	0	0	0	0	0	0	0	0	0	0	0	0
082712	14:20:46	10009	Trial2BackEng	N	3	0	1000	1	36	14:20:46	1475458	0	0	0	0	0	0	0	0	0	0	0	0	0	0	0	0	0
082712	14:20:46	10009	Trial2BackEng	N	3	0	1000	1	37	14:20:46	1476978	0	0	0	0	0	0	0	0	0	0	0	0	0	0	0	0	0
082712	14:20:46	10009	Trial2BackEng	N	3	0	1000	1	38	14:20:46	1478497	0	0	0	0	0	0	0	0	0	0	0	0	0	0	0	0	0
082712	14:20:46	10009	Trial2BackEng	N	3	0	1000	1	39	14:20:46	1480017	0	0	0	0	0	0	0	0	0	0	0	0	0	0	0	0	0
082712	14:20:46	10009	Trial2BackEng	N	3	0	1000	1	40	14:20:46	1481536	0	0	0	0	0	0	0	0	0	0	0	0	0	0	0	0	0
082712	14:20:46	10009	Trial2BackEng	Y	3	57	855	1	41	14:20:46	1482922	0	0	0	0	0	0	0	0	0	0	0	0	0	0	0	0	0
082712	14:20:46	10009	Trial2BackEng	N	3	0	1000	1	42	14:20:46	1484561	0	0	0	0	0	0	0	0	0	0	0	0	0	0	0	0	0
082712	14:20:46	10009	Trial2BackEng	N	3	0	1000	1	43	14:20:46	1486081	0	0	0	0	0	0	0	0	0	0	0	0	0	0	0	0	0
082712	14:20:46	10009	Trial2BackEng	N	3	0	1000	1	44	14:20:46	1487600	0	0	0	0	0	0	0	0	0	0	0	0	0	0	0	0	0
082712	14:20:46	10009	Trial2BackEng	N	3	0	1000	1	45	14:20:46	1489120	0	0	0	0	0	0	0	0	0	0	0	0	0	0	0	0	0
082712	14:20:46	10009	Trial2BackEng	Y	3	0	1000	0	45	14:20:46	1490639	0	0	0	0	0	0	0	0	0	0	0	0	0	0	0	0	0
082712	14:20:46	10009	Trial2BackEng	N	3	0	1000	1	46	14:20:46	1492158	0	0	0	0	0	0	0	0	0	0	0	0	0	0	0	0	0
082712	14:20:46	10009	Trial2BackEng	N	3	0	1000	1	47	14:20:46	1493678	0	0	0	0	0	0	0	0	0	0	0	0	0	0	0	0	0
082712	14:20:46	10009	Trial2BackEng	N	3	0	1000	1	48	14:20:46	1495197	0	0	0	0	0	0	0	0	0	0	0	0	0	0	0	0	0
082712	14:20:46	10009	Trial2BackEng	N	3	0	1000	1	49	14:20:46	1496717	0	0	0	0	0	0	0	0	0	0	0	0	0	0	0	0	0
082712	14:20:46	10009	Trial2BackEng	N	3	0	1000	1	50	14:20:46	1498236	0	0	0	0	0	0	0	0	0	0	0	0	0	0	0	0	0
082712	14:20:46	10009	Trial2BackEng	Y	3	57	779	1	51	14:20:46	1499542	0	0	0	0	0	0	0	0	0	0	0	0	0	0	0	0	0
082712	14:20:46	10009	Trial2BackEng	N	3	0	1000	1	52	14:20:46	1501262	0	0	0	0	0	0	0	0	0	0	0	0	0	0	0	0	0
082712	14:20:46	10009	Trial2BackEng	N	3	0	1000	1	53	14:20:46	1502781	0	0	0	0	0	0	0	0	0	0	0	0	0	0	0	0	0
082712	14:20:46	10009	Trial2BackEng	N	3	0	1000	1	54	14:20:46	1504300	0	0	0	0	0	0	0	0	0	0	0	0	0	0	0	0	0
082712	14:20:46	10009	Trial2BackEng	N	3	0	1000	1	55	14:20:46	1505819	0	0	0	0	0	0	0	0	0	0	0	0	0	0	0	0	0
082712	14:20:46	10009	Trial2BackEng	N	3	0	1000	1	56	14:20:46	1507339	0	0	0	0	0	0	0	0	0	0	0	0	0	0	0	0	0
082712	14:20:46	10009	Trial2BackEng	N	3	0	1000	1	57	14:20:46	1508858	0	0	0	0	0	0	0	0	0	0	0	0	0	0	0	0	0
082712	14:20:46	10009	Trial2BackEng	Y	3	57	636	1	58	14:20:46	1510018	0	0	0	0	0	0	0	0	0	0	0	0	0	0	0	0	0
082712	14:20:46	10009	Trial2BackEng	N	3	0	1000	1	59	14:20:46	1511884	0	0	0	0	0	0	0	0	0	0	0	0	0	0	0	0	0
082712	14:20:46	10009	Trial2BackEng	N	3	0	1000	1	60	14:20:46	1513403	0	0	0	0	0	0	0	0	0	0	0	0	0	0	0	0	0
082712	14:20:46	10009	Trial2BackEng	Y	3	57	939	1	61	14:20:46	1514869	0	0	0	0	0	0	0	0	0	0	0	0	0	0	0	0	0
082712	14:20:46	10009	Trial2BackEng	N	3	0	1000	1	62	14:20:46	1516429	0	0	0	0	0	0	0	0	0	0	0	0	0	0	0	0	0
082712	14:20:46	10009	Trial2BackEng	N	3	0	1000	1	63	14:20:46	1517948	0	0	0	0	0	0	0	0	0	0	0	0	0	0	0	0	0
082712	14:20:46	10009	Trial2BackEng	N	3	0	1000	1	64	14:20:46	1519467	0	0	0	0	0	0	0	0	0	0	0	0	0	0	0	0	0
082712	14:20:46	10009	Trial2BackEng	N	3	0	1000	1	65	14:20:46	1520987	0	0	0	0	0	0	0	0	0	0	0	0	0	0	0	0	0
082712	14:20:46	10009	Trial2BackEng	N	3	0	1000	1	66	14:20:46	1522506	0	0	0	0	0	0	0	0	0	0	0	0	0	0	0	0	0
082712	14:20:46	10009	Trial2BackEng	N	3	0	1000	1	67	14:20:46	1524026	0	0	0	0	0	0	0	0	0	0	0	0	0	0	0	0	0
082712	14:20:46	10009	Trial2BackEng	N	3	0	1000	1	68	14:20:46	1525545	0	0	0	0	0	0	0	0	0	0	0	0	0	0	0	0	0
082712	14:20:46	10009	Trial2BackEng	N	3	0	1000	1	69	14:20:46	1527064	0	0	0	0	0	0	0	0	0	0	0	0	0	0	0	0	0
082712	14:20:46	10009	Trial2BackEng	N	3	0	1000	1	70	14:20:46	1528584	0	0	0	0	0	0	0	0	0	0	0	0	0	0	0	0	0
082712	14:20:46	10009	Trial2BackEng	N	3	0	1000	1	71	14:20:46	1530103	0	0	0	0	0	0	0	0	0	0	0	0	0	0	0	0	0
082712	14:20:46	10009	Trial2BackEng	Y	3	57	911	1	72	14:20:46	1531542	0	0	0	0	0	0	0	0	0	0	0	0	0	0	0	0	0
082712	14:20:46	10009	Trial2BackEng	N	3	0	1000	1	73	14:20:46	1533128	0	0	0	0	0	0	0	0	0	0	0	0	0	0	0	0	0
082712	14:20:46	10009	Trial2BackEng	N	3	0	1000	1	74	14:20:46	1534648	0	0	0	0	0	0	0	0	0	0	0	0	0	0	0	0	0
082712	14:20:46	10009	Trial2BackEng	N	3	0	1000	1	75	14:20:46	1536167	0	0	0	0	0	0	0	0	0	0	0	0	0	0	0	0	0
082712	14:20:46	10009	Trial2BackEng	Y	3	57	783	1	76	14:20:46	1537473	0	0	0	0	0	0	0	0	0	0	0	0	0	0	0	0	0
082712	14:20:46	10009	Trial2BackEng	N	3	0	1000	1	77	14:20:46	1539193	0	0	0	0	0	0	0	0	0	0	0	0	0	0	0	0	0
082712	14:20:46	10009	Trial2BackEng	N	3	0	1000	1	78	14:20:46	1540712	0	0	0	0	0	0	0	0	0	0	0	0	0	0	0	0	0
082712	14:20:46	10009	Trial2BackEng	N	3	0	1000	1	79	14:20:46	1542231	0	0	0	0	0	0	0	0	0	0	0	0	0	0	0	0	0
082712	14:20:46	10009	Trial2BackEng	N	3	0	1000	1	80	14:20:46	1543751	0	0	0	0	0	0	0	0	0	0	0	0	0	0	0	0	0
082712	14:20:46	10009	Trial2BackEng	N	3	0	1000	1	81	14:20:46	1545270	0	0	0	0	0	0	0	0	0	0	0	0	0	0	0	0	0
082712	14:20:46	10009	Trial2BackEng	Y	3	57	672	1	82	14:20:46	1546470	0	0	0	0	0	0	0	0	0	0	0	0	0	0	0	0	0
082712	14:20:46	10009	Trial2BackEng	N	3	0	1000	1	83	14:20:46	1548296	0	0	0	0	0	0	0	0	0	0	0	0	0	0	0	0	0
082712	14:20:46	10009	Trial2BackEng	N	3	0	1000	1	84	14:20:46	1549815	0	0	0	0	0	0	0	0	0	0	0	0	0	0	0	0	0
082712	14:20:46	10009	Trial2BackEng	N	3	0	1000	1	85	14:20:46	1551334	0	0	0	0	0	0	0	0	0	0	0	0	0	0	0	0	0
082712	14:20:46	10009	Trial2BackEng	N	3	0	1000	1	86	14:20:46	1552854	0	0	0	0	0	0	0	0	0	0	0	0	0	0	0	0	0
082712	14:20:46	10009	Trial2BackEng	N	3	0	1000	1	87	14:20:46	1554373	0	0	0	0	0	0	0	0	0	0	0	0	0	0	0	0	0
082712	14:20:46	10009	Trial2BackEng	N	3	0	1000	1	88	14:20:46	1555893	0	0	0	0	0	0	0	0	0	0	0	0	0	0	0	0	0
082712	14:20:46	10009	Trial2BackEng	N	3	0	1000	1	89	14:20:46	1557412	0	0	0	0	0	0	0	0	0	0	0	0	0	0	0	0	0
082712	14:20:46	10009	Trial2BackEng	N	3	0	1000	1	90	14:20:46	1558931	0	0	0	0	0	0	0	0	0	0	0	0	0	0	0	0	0
082712	14:20:46	10009	Trial2BackEng	N	3	0	1000	1	91	14:20:46	1560451	0	0	0	0	0	0	0	0	0	0	0	0	0	0	0	0	0
082712	14:20:46	10009	Trial2BackEng	Y	3	57	467	1	92	14:20:46	1561450	0	0	0	0	0	0	0	0	0	0	0	0	0	0	0	0	0
082712	14:20:46	10009	Trial2BackEng	N	3	0	1000	1	93	14:20:46	1563476	0	0	0	0	0	0	0	0	0	0	0	0	0	0	0	0	0
082712	14:20:46	10009	Trial2BackEng	N	3	0	1000	1	94	14:20:46	1564996	0	0	0	0	0	0	0	0	0	0	0	0	0	0	0	0	0
082712	14:20:46	10009	Trial2BackEng	N	3	0	1000	1	95	14:20:46	1566515	0	0	0	0	0	0	0	0	0	0	0	0	0	0	0	0	0
082712	14:20:46	10009	Trial2BackEng	N	3	0	1000	1	96	14:20:46	1568034	0	0	0	0	0	0	0	0	0	0	0	0	0	0	0	0	0
082712	14:20:46	10009	Trial2BackEng	N	3	0	1000	1	97	14:20:46	1569554	0	0	0	0	0	0	0	0	0	0	0	0	0	0	0	0	0
082712	14:20:46	10009	Trial2BackEng	N	3	0	1000	1	98	14:20:46	1571073	0	0	0	0	0	0	0	0	0	0	0	0	0	0	0	0	0
082712	14:20:46	10009	Trial2BackEng	N	3	0	1000	1	99	14:20:46	1572592	0	0	0	0	0	0	0	0	0	0	0	0	0	0	0	0	0
082712	14:20:46	10009	Trial2BackEng	N	3	0	1000	1	100	14:20:46	1574112	0	0	0	0	0	0	0	0	0	0	0	0	0	0	0	0	0
082712	14:20:46	10009	Trial2BackEng	Y	3	0	1000	0	100	14:20:46	1575631	0	0	0	0	0	0	0	0	0	0	0	0	0	0	0	0	0
082712	14:20:46	10009	Trial2BackEng	N	3	0	1000	1	101	14:20:46	1577151	0	0	0	0	0	0	0	0	0	0	0	0	0	0	0	0	0
082712	14:20:46	10009	Trial2BackEng	N	3	0	1000	1	102	14:20:46	1578670	0	0	0	0	0	0	0	0	0	0	0	0	0	0	0	0	0
082712	14:20:46	10009	Trial2BackEng	N	3	0	1000	1	103	14:20:46	1580190	0	0	0	0	0	0	0	0	0	0	0	0	0	0	0	0	0
082712	14:20:46	10009	Trial2BackEng	N	3	0	1000	1	104	14:20:46	1581709	0	0	0	0	0	0	0	0	0	0	0	0	0	0	0	0	0
082712	14:20:46	10009	Trial2BackEng	Y	3	0	1000	0	104	14:20:46	1583228	0	0	0	0	0	0	0	0	0	0	0	0	0	0	0	0	0
082712	14:20:46	10009	Trial2BackEng	N	3	0	1000	1	105	14:20:46	1584748	0	0	0	0	0	0	0	0	0	0	0	0	0	0	0	0	0
082712	14:20:46	10009	Trial2BackEng	N	3	0	1000	1	106	14:20:46	1586267	0	0	0	0	0	0	0	0	0	0	0	0	0	0	0	0	0
082712	14:20:46	10009	Trial2BackEng	N	3	0	1000	1	107	14:20:46	1587786	0	0	0	0	0	0	0	0	0	0	0	0	0	0	0	0	0
082712	14:20:46	10009	Trial2BackEng	Y	3	57	938	1	108	14:20:46	1589252	0	0	0	0	0	0	0	0	0	0	0	0	0	0	0	0	0
082712	14:20:46	10009	Trial2BackEng	N	3	0	1000	1	109	14:20:46	1590812	0	0	0	0	0	0	0	0	0	0	0	0	0	0	0	0	0
082712	14:20:46	10009	Trial2BackEng	N	3	0	1000	1	110	14:20:46	1592331	0	0	0	0	0	0	0	0	0	0	0	0	0	0	0	0	0
082712	14:20:46	10009	Trial2BackEng	N	3	0	1000	1	111	14:20:46	1593851	0	0	0	0	0	0	0	0	0	0	0	0	0	0	0	0	0
082712	14:20:46	10009	Trial2BackEng	N	3	0	1000	1	112	14:20:46	1595370	0	0	0	0	0	0	0	0	0	0	0	0	0	0	0	0	0
082712	14:20:46	10009	Trial2BackEng	N	3	0	1000	1	113	14:20:46	1596889	0	0	0	0	0	0	0	0	0	0	0	0	0	0	0	0	0
082712	14:20:46	10009	Trial2BackEng	Y	3	0	1000	0	113	14:20:46	1598409	0	0	0	0	0	0	0	0	0	0	0	0	0	0	0	0	0
082712	14:20:46	10009	Trial2BackEng	N	3	0	1000	1	114	14:20:46	1599928	0	0	0	0	0	0	0	0	0	0	0	0	0	0	0	0	0
082712	14:20:46	10009	Trial2BackEng	N	3	0	1000	1	115	14:20:46	1601448	0	0	0	0	0	0	0	0	0	0	0	0	0	0	0	0	0
082712	14:20:46	10009	Trial2BackEng	N	3	0	1000	1	116	14:20:46	1602967	0	0	0	0	0	0	0	0	0	0	0	0	0	0	0	0	0
082712	14:20:46	10009	Trial2BackEng	Y	3	0	1000	0	116	14:20:46	1604486	0	0	0	0	0	0	0	0	0	0	0	0	0	0	0	0	0
082712	14:20:46	10009	Memory1R3mo	Score	5	M1	24398	0	116	14:20:46	1669527	0	0	0	0	0	0	0	0	0	0	0	0	0	0	0	0	0
082712	14:20:46	10009	Memory1R3mo	Score	5	M4	3158	0	116	14:20:46	1672726	0	0	0	0	0	0	0	0	0	0	0	0	0	0	0	0	0
082712	14:20:46	10009	Memory1R3mo	Score	5	M5	455	0	116	14:20:46	1673219	0	0	0	0	0	0	0	0	0	0	0	0	0	0	0	0	0
082712	14:20:46	10009	Memory1R3mo	Score	5	M6	3266	0	116	14:20:46	1676524	0	0	0	0	0	0	0	0	0	0	0	0	0	0	0	0	0
082712	14:20:46	10009	Memory1R3mo	Score	5	M7	2145	0	116	14:20:46	1678710	0	0	0	0	0	0	0	0	0	0	0	0	0	0	0	0	0
082712	14:20:46	10009	Memory1R3mo	Score	5	Done	3303	0	116	14:20:46	1682055	0	0	0	0	0	0	0	0	0	0	0	0	0	0	0	0	0
082712	14:20:46	10009	Memory2R3mo	Score2	5	11	14203	0	116	14:20:46	1714896	0	0	0	0	0	0	0	0	0	0	0	0	0	0	0	0	0
082712	14:20:46	10009	Memory2R3mo	Score2	5	22	261	0	116	14:20:46	1715202	0	0	0	0	0	0	0	0	0	0	0	0	0	0	0	0	0
082712	14:20:46	10009	Memory2R3mo	Score2	5	44	722	0	116	14:20:46	1715961	0	0	0	0	0	0	0	0	0	0	0	0	0	0	0	0	0
082712	14:20:46	10009	Memory2R3mo	Score2	5	55	251	0	116	14:20:46	1716254	0	0	0	0	0	0	0	0	0	0	0	0	0	0	0	0	0
082712	14:20:46	10009	Memory2R3mo	Score2	5	66	261	0	116	14:20:46	1716561	0	0	0	0	0	0	0	0	0	0	0	0	0	0	0	0	0
082712	14:20:46	10009	Memory2R3mo	Score2	5	77	299	0	116	14:20:46	1716894	0	0	0	0	0	0	0	0	0	0	0	0	0	0	0	0	0
082712	14:20:46	10009	Memory2R3mo	Score2	5	88	646	0	116	14:20:46	1717574	0	0	0	0	0	0	0	0	0	0	0	0	0	0	0	0	0
082712	14:20:46	10009	Memory2R3mo	Score2	5	Done	10214	0	116	14:20:46	1727823	0	0	0	0	0	0	0	0	0	0	0	0	0	0	0	0	0
082712	14:20:46	10009	Memory3R3mo	Score3	5	111	5462	0	116	14:20:46	1753293	0	0	0	0	0	0	0	0	0	0	0	0	0	0	0	0	0
082712	14:20:46	10009	Memory3R3mo	Score3	5	222	382	0	116	14:20:46	1753719	0	0	0	0	0	0	0	0	0	0	0	0	0	0	0	0	0
082712	14:20:46	10009	Memory3R3mo	Score3	5	333	387	0	116	14:20:46	1754146	0	0	0	0	0	0	0	0	0	0	0	0	0	0	0	0	0
082712	14:20:46	10009	Memory3R3mo	Score3	5	444	537	0	116	14:20:46	1754719	0	0	0	0	0	0	0	0	0	0	0	0	0	0	0	0	0
082712	14:20:46	10009	Memory3R3mo	Score3	5	555	396	0	116	14:20:46	1755159	0	0	0	0	0	0	0	0	0	0	0	0	0	0	0	0	0
082712	14:20:46	10009	Memory3R3mo	Score3	5	666	1612	0	116	14:20:46	1756811	0	0	0	0	0	0	0	0	0	0	0	0	0	0	0	0	0
082712	14:20:46	10009	Memory3R3mo	Score3	5	888	1255	0	116	14:20:46	1758104	0	0	0	0	0	0	0	0	0	0	0	0	0	0	0	0	0
082712	14:20:46	10009	Memory3R3mo	Score3	5	777	3346	0	116	14:20:46	1761490	0	0	0	0	0	0	0	0	0	0	0	0	0	0	0	0	0
082712	14:20:46	10009	Memory3R3mo	Score3	5	Done	921	0	116	14:20:46	1762449	0	0	0	0	0	0	0	0	0	0	0	0	0	0	0	0	0
082712	14:20:46	10009	LoriaEngLH3	Stop	6	5	3676	0	116	14:20:46	1843405	0	0	0	0	0	0	0	0	0	0	0	0	0	0	0	0	0
082712	14:20:46	10009	EngTrail	Trails	7	1Trails	822	0	116	14:20:46	1864382	0	0	0	0	0	0	0	0	0	0	0	0	0	0	0	0	0
082712	14:20:46	10009	Serial7Eng3mo	Serial7Eng3mo	8	83	12675	0	116	14:20:46	1883189	1	0	0	0	0	0	0	0	0	0	0	0	0	0	0	0	0
082712	14:20:46	10009	Serial7Eng3mo	Serial7Eng3mo	8	76	2433	0	116	14:20:46	1885642	2	0	0	0	0	0	0	0	0	0	0	0	0	0	0	0	0
082712	14:20:46	10009	Serial7Eng3mo	Serial7Eng3mo	8	79	1484	0	116	14:20:46	1887148	2	0	0	0	0	0	0	0	0	0	0	0	0	0	0	0	0
082712	14:20:46	10009	Serial7Eng3mo	Serial7Eng3mo	8	62	5699	0	116	14:20:46	1892866	2	0	0	0	0	0	0	0	0	0	0	0	0	0	0	0	0
082712	14:20:46	10009	Serial7Eng3mo	Serial7Eng3mo	8	55	4485	0	116	14:20:46	1897371	3	0	0	0	0	0	0	0	0	0	0	0	0	0	0	0	0
082712	14:20:46	10009	corsiblockEngFwrd	recallseqEngFwrd	9	1	1524	0	116	14:20:46	1926213	3	0	0	0	0	0	0	0	0	0	0	0	0	0	0	0	0
082712	14:20:46	10009	corsiblockEngFwrd	recallseqEngFwrd	9	9	941	0	116	14:20:46	1927199	3	0	0	0	0	0	0	0	0	0	0	0	0	0	0	0	0
082712	14:20:46	10009	corsiblockEngFwrd	recallseqEngFwrd	9	doneCorsiEng	963	0	116	14:20:46	1928199	3	0	0	0	0	0	0	0	0	0	0	0	0	0	0	2	0
082712	14:20:46	10009	corsiblockEngFwrd	recallseqEngFwrd	9	4	866	0	116	14:20:46	1935156	3	0	0	0	0	0	0	0	0	0	0	0	0	0	0	2	0
082712	14:20:46	10009	corsiblockEngFwrd	recallseqEngFwrd	9	6	517	0	116	14:20:46	1935716	3	0	0	0	0	0	0	0	0	0	0	0	0	0	0	2	0
082712	14:20:46	10009	corsiblockEngFwrd	recallseqEngFwrd	9	5	462	0	116	14:20:46	1936222	3	0	0	0	0	0	0	0	0	0	0	0	0	0	0	2	0
082712	14:20:46	10009	corsiblockEngFwrd	recallseqEngFwrd	9	doneCorsiEng	796	0	116	14:20:46	1937062	3	0	0	0	0	0	0	0	0	0	0	0	0	0	0	3	0
082712	14:20:46	10009	corsiblockEngFwrd	recallseqEngFwrd	9	2	625	0	116	14:20:46	1944779	3	0	0	0	0	0	0	0	0	0	0	0	0	0	0	3	0
082712	14:20:46	10009	corsiblockEngFwrd	recallseqEngFwrd	9	8	607	0	116	14:20:46	1945419	3	0	0	0	0	0	0	0	0	0	0	0	0	0	0	3	0
082712	14:20:46	10009	corsiblockEngFwrd	recallseqEngFwrd	9	7	589	0	116	14:20:46	1946045	3	0	0	0	0	0	0	0	0	0	0	0	0	0	0	3	0
082712	14:20:46	10009	corsiblockEngFwrd	recallseqEngFwrd	9	3	732	0	116	14:20:46	1946818	3	0	0	0	0	0	0	0	0	0	0	0	0	0	0	3	0
082712	14:20:46	10009	corsiblockEngFwrd	recallseqEngFwrd	9	doneCorsiEng	695	0	116	14:20:46	1947551	3	0	0	0	0	0	0	0	0	0	0	0	0	0	0	4	0
082712	14:20:46	10009	corsiblockEngFwrd	recallseqEngFwrd	9	9	847	0	116	14:20:46	1956494	3	0	0	0	0	0	0	0	0	0	0	0	0	0	0	4	0
082712	14:20:46	10009	corsiblockEngFwrd	recallseqEngFwrd	9	8	811	0	116	14:20:46	1957347	3	0	0	0	0	0	0	0	0	0	0	0	0	0	0	4	0
082712	14:20:46	10009	corsiblockEngFwrd	recallseqEngFwrd	9	7	790	0	116	14:20:46	1958173	3	0	0	0	0	0	0	0	0	0	0	0	0	0	0	4	0
082712	14:20:46	10009	corsiblockEngFwrd	recallseqEngFwrd	9	3	804	0	116	14:20:46	1959013	3	0	0	0	0	0	0	0	0	0	0	0	0	0	0	4	0
082712	14:20:46	10009	corsiblockEngFwrd	recallseqEngFwrd	9	5	724	0	116	14:20:46	1959773	3	0	0	0	0	0	0	0	0	0	0	0	0	0	0	4	0
082712	14:20:46	10009	corsiblockEngFwrd	recallseqEngFwrd	9	doneCorsiEng	964	0	116	14:20:46	1960772	3	0	0	0	0	0	0	0	0	0	0	0	0	0	0	5	0
082712	14:20:46	10009	corsiblockEngFwrd	recallseqEngFwrd	9	2	1123	0	116	14:20:46	1970981	3	0	0	0	0	0	0	0	0	0	0	0	0	0	0	5	0
082712	14:20:46	10009	corsiblockEngFwrd	recallseqEngFwrd	9	4	915	0	116	14:20:46	1971941	3	0	0	0	0	0	0	0	0	0	0	0	0	0	0	5	0
082712	14:20:46	10009	corsiblockEngFwrd	recallseqEngFwrd	9	6	628	0	116	14:20:46	1972608	3	0	0	0	0	0	0	0	0	0	0	0	0	0	0	5	0
082712	14:20:46	10009	corsiblockEngFwrd	recallseqEngFwrd	9	1	841	0	116	14:20:46	1973487	3	0	0	0	0	0	0	0	0	0	0	0	0	0	0	5	0
082712	14:20:46	10009	corsiblockEngFwrd	recallseqEngFwrd	9	5	665	0	116	14:20:46	1974194	3	0	0	0	0	0	0	0	0	0	0	0	0	0	0	5	0
082712	14:20:46	10009	corsiblockEngFwrd	recallseqEngFwrd	9	doneCorsiEng	743	0	116	14:20:46	1974980	3	0	0	0	0	0	0	0	0	0	0	0	0	0	0	5	0
082712	14:20:46	10009	corsiblockEngFwrd	recallseqEngFwrd	9	1	1435	0	116	14:20:46	1985469	3	0	0	0	0	0	0	0	0	0	0	0	0	0	0	5	0
082712	14:20:46	10009	corsiblockEngFwrd	recallseqEngFwrd	9	5	2379	0	116	14:20:46	1987881	3	0	0	0	0	0	0	0	0	0	0	0	0	0	0	5	0
082712	14:20:46	10009	corsiblockEngFwrd	recallseqEngFwrd	9	8	751	0	116	14:20:46	1988668	3	0	0	0	0	0	0	0	0	0	0	0	0	0	0	5	0
082712	14:20:46	10009	corsiblockEngFwrd	recallseqEngFwrd	9	9	2469	0	116	14:20:46	1991173	3	0	0	0	0	0	0	0	0	0	0	0	0	0	0	5	0
082712	14:20:46	10009	corsiblockEngFwrd	recallseqEngFwrd	9	6	819	0	116	14:20:46	1992026	3	0	0	0	0	0	0	0	0	0	0	0	0	0	0	5	0
082712	14:20:46	10009	corsiblockEngFwrd	recallseqEngFwrd	9	doneCorsiEng	744	0	116	14:20:46	1992813	3	0	0	0	0	0	0	0	0	0	0	0	0	0	0	5	0
082712	14:20:46	10009	corsiblockEngRev	recallseqEngRev	10	4	559	0	116	14:20:46	2003049	3	0	0	0	0	0	0	0	0	0	0	0	0	0	0	5	0
082712	14:20:46	10009	corsiblockEngRev	recallseqEngRev	10	8	695	0	116	14:20:46	2003782	3	0	0	0	0	0	0	0	0	0	0	0	0	0	0	5	0
082712	14:20:46	10009	corsiblockEngRev	recallseqEngRev	10	doneCorsiEng	866	0	116	14:20:46	2004688	3	0	0	0	0	0	0	0	0	0	0	0	0	0	0	5	2
082712	14:20:46	10009	corsiblockEngRev	recallseqEngRev	10	9	1101	0	116	14:20:46	2011885	3	0	0	0	0	0	0	0	0	0	0	0	0	0	0	5	2
082712	14:20:46	10009	corsiblockEngRev	recallseqEngRev	10	7	539	0	116	14:20:46	2012458	3	0	0	0	0	0	0	0	0	0	0	0	0	0	0	5	2
082712	14:20:46	10009	corsiblockEngRev	recallseqEngRev	10	5	606	0	116	14:20:46	2013098	3	0	0	0	0	0	0	0	0	0	0	0	0	0	0	5	2
082712	14:20:46	10009	corsiblockEngRev	recallseqEngRev	10	doneCorsiEng	575	0	116	14:20:46	2013711	3	0	0	0	0	0	0	0	0	0	0	0	0	0	0	5	3
082712	14:20:46	10009	corsiblockEngRev	recallseqEngRev	10	1	1197	0	116	14:20:46	2022001	3	0	0	0	0	0	0	0	0	0	0	0	0	0	0	5	3
082712	14:20:46	10009	corsiblockEngRev	recallseqEngRev	10	3	527	0	116	14:20:46	2022574	3	0	0	0	0	0	0	0	0	0	0	0	0	0	0	5	3
082712	14:20:46	10009	corsiblockEngRev	recallseqEngRev	10	6	577	0	116	14:20:46	2023187	3	0	0	0	0	0	0	0	0	0	0	0	0	0	0	5	3
082712	14:20:46	10009	corsiblockEngRev	recallseqEngRev	10	2	901	0	116	14:20:46	2024133	3	0	0	0	0	0	0	0	0	0	0	0	0	0	0	5	3
082712	14:20:46	10009	corsiblockEngRev	recallseqEngRev	10	doneCorsiEng	842	0	116	14:20:46	2025013	3	0	0	0	0	0	0	0	0	0	0	0	0	0	0	5	4
082712	14:20:46	10009	corsiblockEngRev	recallseqEngRev	10	4	1080	0	116	14:20:46	2034183	3	0	0	0	0	0	0	0	0	0	0	0	0	0	0	5	4
082712	14:20:46	10009	corsiblockEngRev	recallseqEngRev	10	5	505	0	116	14:20:46	2034729	3	0	0	0	0	0	0	0	0	0	0	0	0	0	0	5	4
082712	14:20:46	10009	corsiblockEngRev	recallseqEngRev	10	2	702	0	116	14:20:46	2035477	3	0	0	0	0	0	0	0	0	0	0	0	0	0	0	5	4
082712	14:20:46	10009	corsiblockEngRev	recallseqEngRev	10	7	652	0	116	14:20:46	2036169	3	0	0	0	0	0	0	0	0	0	0	0	0	0	0	5	4
082712	14:20:46	10009	corsiblockEngRev	recallseqEngRev	10	9	431	0	116	14:20:46	2036635	3	0	0	0	0	0	0	0	0	0	0	0	0	0	0	5	4
082712	14:20:46	10009	corsiblockEngRev	recallseqEngRev	10	doneCorsiEng	1020	0	116	14:20:46	2037701	3	0	0	0	0	0	0	0	0	0	0	0	0	0	0	5	4
082712	14:20:46	10009	corsiblockEngRev	recallseqEngRev	10	4	1648	0	116	14:20:46	2047404	3	0	0	0	0	0	0	0	0	0	0	0	0	0	0	5	4
082712	14:20:46	10009	corsiblockEngRev	recallseqEngRev	10	1	795	0	116	14:20:46	2048244	3	0	0	0	0	0	0	0	0	0	0	0	0	0	0	5	4
082712	14:20:46	10009	corsiblockEngRev	recallseqEngRev	10	3	3195	0	116	14:20:46	2051483	3	0	0	0	0	0	0	0	0	0	0	0	0	0	0	5	4
082712	14:20:46	10009	corsiblockEngRev	recallseqEngRev	10	6	501	0	116	14:20:46	2052029	3	0	0	0	0	0	0	0	0	0	0	0	0	0	0	5	4
082712	14:20:46	10009	corsiblockEngRev	recallseqEngRev	10	8	506	0	116	14:20:46	2052575	3	0	0	0	0	0	0	0	0	0	0	0	0	0	0	5	4
082712	14:20:46	10009	corsiblockEngRev	recallseqEngRev	10	doneCorsiEng	704	0	116	14:20:46	2053322	3	0	0	0	0	0	0	0	0	0	0	0	0	0	0	5	4
082712	14:20:46	10009	testEng3mo	WordsEng3mo	11	2Eng3mo	32505	0	116	14:20:46	2090760	3	0	1	0	0	0	0	0	0	0	0	0	0	0	0	5	4
082712	14:20:46	10009	testEng3mo	WordsEng3mo	11	3Eng3mo	303	0	116	14:20:46	2091107	3	0	1	1	0	0	0	0	0	0	0	0	0	0	0	5	4
082712	14:20:46	10009	testEng3mo	WordsEng3mo	11	4Eng3mo	1828	0	116	14:20:46	2092973	3	0	1	1	1	0	0	0	0	0	0	0	0	0	0	5	4
082712	14:20:46	10009	testEng3mo	WordsEng3mo	11	6Eng3mo	2258	0	116	14:20:46	2095265	3	0	1	1	1	0	1	0	0	0	0	0	0	0	0	5	4
082712	14:20:46	10009	testEng3mo	WordsEng3mo	11	7Eng3mo	269	0	116	14:20:46	2095572	3	0	1	1	1	0	1	1	0	0	0	0	0	0	0	5	4
082712	14:20:46	10009	testEng3mo	WordsEng3mo	11	8Eng3mo	1899	0	116	14:20:46	2097517	3	0	1	1	1	0	1	1	1	0	0	0	0	0	0	5	4
082712	14:20:46	10009	testEng3mo	WordsEng3mo	11	DoneEng3mo	20401	0	116	14:20:46	2117962	3	0	1	1	1	0	1	1	1	0	0	0	0	0	0	5	4
082712	14:20:46	10009	testEng3mo	Cat1Eng3mo	11	0	1	0	116	14:20:46	2117978	3	0	1	1	1	0	1	1	1	0	0	0	0	0	0	5	4
082712	14:20:46	10009	testEng3mo	Ch1Eng3mo	11	RR1Eng3mo	3335	0	116	14:20:46	2121347	3	3	1	1	1	0	1	1	1	0	0	0	0	0	0	5	4
082712	14:20:46	10009	testEng3mo	Cat5Eng3mo	11	R5Eng3mo	3547	0	116	14:20:46	2124933	3	3	1	1	1	2	1	1	1	0	0	0	0	0	0	5	4
082712	14:20:46	10009	DigitSpanFwrdEng3mo	Score1FwrdEng3mo	12	DS1	3598	0	116	14:20:46	2141166	3	3	1	1	1	2	1	1	1	0	0	0	0	0	0	5	4
082712	14:20:46	10009	DigitSpanFwrdEng3mo	Gate1FwrdEng3mo	12	0	1	0	116	14:20:46	2141181	3	3	1	1	1	2	1	1	1	3	0	0	0	0	0	5	4
082712	14:20:46	10009	DigitSpanFwrdEng3mo	Score2FwrdEng3mo	12	DS1	3035	0	116	14:20:46	2150789	3	3	1	1	1	2	1	1	1	3	0	0	0	0	0	5	4
082712	14:20:46	10009	DigitSpanFwrdEng3mo	Gate3FwrdEng3mo	12	0	1	0	116	14:20:46	2150804	3	3	1	1	1	2	1	1	1	4	0	0	0	0	0	5	4
082712	14:20:46	10009	DigitSpanFwrdEng3mo	Score3FwrdEng3mo	12	DS1	2882	0	116	14:20:46	2161731	3	3	1	1	1	2	1	1	1	4	0	0	0	0	0	5	4
082712	14:20:46	10009	DigitSpanFwrdEng3mo	Gate5FwrdEng3mo	12	0	1	0	116	14:20:46	2161747	3	3	1	1	1	2	1	1	1	5	0	0	0	0	0	5	4
082712	14:20:46	10009	DigitSpanFwrdEng3mo	Score4FwrdEng3mo	12	DS1	3420	0	116	14:20:46	2174686	3	3	1	1	1	2	1	1	1	5	0	0	0	0	0	5	4
082712	14:20:46	10009	DigitSpanFwrdEng3mo	Gate7FwrdEng3mo	12	0	1	0	116	14:20:46	2174701	3	3	1	1	1	2	1	1	1	6	0	0	0	0	0	5	4
082712	14:20:46	10009	DigitSpanFwrdEng3mo	Score5FwrdEng3mo	12	DS1	4659	0	116	14:20:46	2190412	3	3	1	1	1	2	1	1	1	6	0	0	0	0	0	5	4
082712	14:20:46	10009	DigitSpanFwrdEng3mo	Gate9FwrdEng3mo	12	0	1	0	116	14:20:46	2190428	3	3	1	1	1	2	1	1	1	7	0	0	0	0	0	5	4
082712	14:20:46	10009	DigitSpanFwrdEng3mo	Score6FwrdEng3mo	12	DS1	5826	0	116	14:20:46	2209618	3	3	1	1	1	2	1	1	1	8	0	0	0	0	0	5	4
082712	14:20:46	10009	DigitSpanEng3mo	Score1Eng3mo	13	DS1	4273	0	116	14:20:46	2224572	3	3	1	1	1	2	1	1	1	8	0	0	0	0	0	5	4
082712	14:20:46	10009	DigitSpanEng3mo	Gate1Eng3mo	13	0	1	0	116	14:20:46	2224587	3	3	1	1	1	2	1	1	1	8	2	0	0	0	0	5	4
082712	14:20:46	10009	DigitSpanEng3mo	Score2Eng3mo	13	DS1	4532	0	116	14:20:46	2234075	3	3	1	1	1	2	1	1	1	8	2	0	0	0	0	5	4
082712	14:20:46	10009	DigitSpanEng3mo	Gate3Eng3mo	13	0	1	0	116	14:20:46	2234090	3	3	1	1	1	2	1	1	1	8	3	0	0	0	0	5	4
082712	14:20:46	10009	DigitSpanEng3mo	Score3Eng3mo	13	DS1	8521	0	116	14:20:46	2249215	3	3	1	1	1	2	1	1	1	8	3	0	0	0	0	5	4
082712	14:20:46	10009	DigitSpanEng3mo	Gate5Eng3mo	13	0	1	0	116	14:20:46	2249231	3	3	1	1	1	2	1	1	1	8	4	0	0	0	0	5	4
082712	14:20:46	10009	DigitSpanEng3mo	Score4Eng3mo	13	DS1	8444	0	116	14:20:46	2265715	3	3	1	1	1	2	1	1	1	8	4	0	0	0	0	5	4
082712	14:20:46	10009	DigitSpanEng3mo	Gate7Eng3mo	13	0	1	0	116	14:20:46	2265731	3	3	1	1	1	2	1	1	1	8	5	0	0	0	0	5	4
082712	14:20:46	10009	DigitSpanEng3mo	Score5Eng3mo	13	DS1	9826	0	116	14:20:46	2285094	3	3	1	1	1	2	1	1	1	8	5	0	0	0	0	5	4
082712	14:20:46	10009	DigitSpanEng3mo	Gate9Eng3mo	13	0	1	0	116	14:20:46	2285110	3	3	1	1	1	2	1	1	1	8	6	0	0	0	0	5	4
082712	14:20:46	10009	DigitSpanEng3mo	Score6Eng3mo	13	DS1	11890	0	116	14:20:46	2308951	3	3	1	1	1	2	1	1	1	8	7	0	0	0	0	5	4
082712	14:20:46	10009	Trial	IncongruentRight	14	205	682	1	116	14:20:46	2339272	3	3	1	1	1	2	1	1	1	8	7	0	0	0	0	5	4
082712	14:20:46	10009	Trial	IncongruentLeft	14	203	514	1	116	14:20:46	2340099	3	3	1	1	1	2	1	1	1	8	7	0	0	0	0	5	4
082712	14:20:46	10009	Trial	CongruentRight	14	205	379	1	116	14:20:46	2340965	3	3	1	1	1	2	1	1	1	8	7	0	0	0	0	5	4
082712	14:20:46	10009	Trial	IncongruentRight	14	205	422	1	116	14:20:46	2342018	3	3	1	1	1	2	1	1	1	8	7	0	0	0	0	5	4
082712	14:20:46	10009	Trial	CongruentLeft	14	203	398	1	116	14:20:46	2343004	3	3	1	1	1	2	1	1	1	8	7	0	0	0	0	5	4
082712	14:20:46	10009	Trial	CongruentRight	14	205	486	1	116	14:20:46	2344083	3	3	1	1	1	2	1	1	1	8	7	0	0	0	0	5	4
082712	14:20:46	10009	Trial	IncongruentRight	14	205	463	1	116	14:20:46	2345057	3	3	1	1	1	2	1	1	1	8	7	0	0	0	0	5	4
082712	14:20:46	10009	Trial	CongruentLeft	14	203	376	1	116	14:20:46	2345976	3	3	1	1	1	2	1	1	1	8	7	0	0	0	0	5	4
082712	14:20:46	10009	Trial	IncongruentLeft	14	203	480	1	116	14:20:46	2347082	3	3	1	1	1	2	1	1	1	8	7	0	0	0	0	5	4
082712	14:20:46	10009	Trial	IncongruentLeft	14	203	536	1	116	14:20:46	2348135	3	3	1	1	1	2	1	1	1	8	7	0	0	0	0	5	4
082712	14:20:46	10009	Trial	CongruentRight	14	205	417	1	116	14:20:46	2349015	3	3	1	1	1	2	1	1	1	8	7	0	0	0	0	5	4
082712	14:20:46	10009	Trial	IncongruentRight	14	205	505	1	116	14:20:46	2350108	3	3	1	1	1	2	1	1	1	8	7	0	0	0	0	5	4
082712	14:20:46	10009	Trial	CongruentLeft	14	203	465	1	116	14:20:46	2351068	3	3	1	1	1	2	1	1	1	8	7	0	0	0	0	5	4
082712	14:20:46	10009	Trial	CongruentRight	14	205	458	1	116	14:20:46	2352054	3	3	1	1	1	2	1	1	1	8	7	0	0	0	0	5	4
082712	14:20:46	10009	Trial	IncongruentLeft	14	203	418	1	116	14:20:46	2353013	3	3	1	1	1	2	1	1	1	8	7	0	0	0	0	5	4
082712	14:20:46	10009	Trial	IncongruentRight	14	205	427	1	116	14:20:46	2354026	3	3	1	1	1	2	1	1	1	8	7	0	0	0	0	5	4
082712	14:20:46	10009	Trial	CongruentRight	14	205	403	1	116	14:20:46	2354999	3	3	1	1	1	2	1	1	1	8	7	0	0	0	0	5	4
082712	14:20:46	10009	Trial	CongruentLeft	14	203	411	1	116	14:20:46	2356012	3	3	1	1	1	2	1	1	1	8	7	0	0	0	0	5	4
082712	14:20:46	10009	Trial	CongruentRight	14	205	420	1	116	14:20:46	2357012	3	3	1	1	1	2	1	1	1	8	7	0	0	0	0	5	4
082712	14:20:46	10009	Trial	IncongruentRight	14	205	524	1	116	14:20:46	2358118	3	3	1	1	1	2	1	1	1	8	7	0	0	0	0	5	4
082712	14:20:46	10009	Trial	IncongruentLeft	14	203	420	1	116	14:20:46	2359011	3	3	1	1	1	2	1	1	1	8	7	0	0	0	0	5	4
082712	14:20:46	10009	Trial	IncongruentLeft	14	203	541	1	116	14:20:46	2360131	3	3	1	1	1	2	1	1	1	8	7	0	0	0	0	5	4
082712	14:20:46	10009	Trial	CongruentLeft	14	203	453	1	116	14:20:46	2361050	3	3	1	1	1	2	1	1	1	8	7	0	0	0	0	5	4
082712	14:20:46	10009	Trial	CongruentRight	14	205	381	1	116	14:20:46	2361970	3	3	1	1	1	2	1	1	1	8	7	0	0	0	0	5	4
082712	14:20:46	10009	Trial	IncongruentLeft	14	203	422	1	116	14:20:46	2363009	3	3	1	1	1	2	1	1	1	8	7	0	0	0	0	5	4
082712	14:20:46	10009	Trial	IncongruentRight	14	205	414	1	116	14:20:46	2364009	3	3	1	1	1	2	1	1	1	8	7	0	0	0	0	5	4
082712	14:20:46	10009	Trial	CongruentRight	14	205	439	1	116	14:20:46	2365035	3	3	1	1	1	2	1	1	1	8	7	0	0	0	0	5	4
082712	14:20:46	10009	Trial	CongruentLeft	14	203	447	1	116	14:20:46	2366035	3	3	1	1	1	2	1	1	1	8	7	0	0	0	0	5	4
082712	14:20:46	10009	Trial	IncongruentRight	14	205	407	1	116	14:20:46	2366994	3	3	1	1	1	2	1	1	1	8	7	0	0	0	0	5	4
082712	14:20:46	10009	Trial	IncongruentLeft	14	203	464	1	116	14:20:46	2368047	3	3	1	1	1	2	1	1	1	8	7	0	0	0	0	5	4
082712	14:20:46	10009	Trial	IncongruentRight	14	205	408	1	116	14:20:46	2368994	3	3	1	1	1	2	1	1	1	8	7	0	0	0	0	5	4
082712	14:20:46	10009	Trial	CongruentRight	14	205	449	1	116	14:20:46	2370033	3	3	1	1	1	2	1	1	1	8	7	0	0	0	0	5	4
082712	14:20:46	10009	Trial	IncongruentLeft	14	203	457	1	116	14:20:46	2371046	3	3	1	1	1	2	1	1	1	8	7	0	0	0	0	5	4
082712	14:20:46	10009	Trial	CongruentLeft	14	203	433	1	116	14:20:46	2372019	3	3	1	1	1	2	1	1	1	8	7	0	0	0	0	5	4
082712	14:20:46	10009	Trial	CongruentRight	14	205	426	1	116	14:20:46	2373019	3	3	1	1	1	2	1	1	1	8	7	0	0	0	0	5	4
082712	14:20:46	10009	Trial	IncongruentLeft	14	203	469	1	116	14:20:46	2374072	3	3	1	1	1	2	1	1	1	8	7	0	0	0	0	5	4
082712	14:20:46	10009	Trial	IncongruentRight	14	205	381	1	116	14:20:46	2374978	3	3	1	1	1	2	1	1	1	8	7	0	0	0	0	5	4
082712	14:20:46	10009	Trial	IncongruentRight	14	205	421	1	116	14:20:46	2376017	3	3	1	1	1	2	1	1	1	8	7	0	0	0	0	5	4
082712	14:20:46	10009	Trial	CongruentLeft	14	203	398	1	116	14:20:46	2377004	3	3	1	1	1	2	1	1	1	8	7	0	0	0	0	5	4
082712	14:20:46	10009	Trial	IncongruentLeft	14	203	486	1	116	14:20:46	2378083	3	3	1	1	1	2	1	1	1	8	7	0	0	0	0	5	4
082712	14:20:46	10009	Trial	CongruentRight	14	205	415	1	116	14:20:46	2379016	3	3	1	1	1	2	1	1	1	8	7	0	0	0	0	5	4
082712	14:20:46	10009	Trial	CongruentLeft	14	203	455	1	116	14:20:46	2380056	3	3	1	1	1	2	1	1	1	8	7	0	0	0	0	5	4
082712	14:20:46	10009	Trial	IncongruentRight	14	205	416	1	116	14:20:46	2381015	3	3	1	1	1	2	1	1	1	8	7	0	0	0	0	5	4
082712	14:20:46	10009	Trial	CongruentRight	14	205	456	1	116	14:20:46	2382055	3	3	1	1	1	2	1	1	1	8	7	0	0	0	0	5	4
082712	14:20:46	10009	Trial	IncongruentLeft	14	203	464	1	116	14:20:46	2383054	3	3	1	1	1	2	1	1	1	8	7	0	0	0	0	5	4
082712	14:20:46	10009	Trial	CongruentLeft	14	203	505	1	116	14:20:46	2384108	3	3	1	1	1	2	1	1	1	8	7	0	0	0	0	5	4
082712	14:20:46	10009	Trial	IncongruentLeft	14	203	497	1	116	14:20:46	2385094	3	3	1	1	1	2	1	1	1	8	7	0	0	0	0	5	4
082712	14:20:46	10009	Trial	IncongruentRight	14	205	473	1	116	14:20:46	2386067	3	3	1	1	1	2	1	1	1	8	7	0	0	0	0	5	4
082712	14:20:46	10009	Trial	CongruentRight	14	205	434	1	116	14:20:46	2387026	3	3	1	1	1	2	1	1	1	8	7	0	0	0	0	5	4
082712	14:20:46	10009	Trial	CongruentLeft	14	203	426	1	116	14:20:46	2388026	3	3	1	1	1	2	1	1	1	8	7	0	0	0	0	5	4
082712	14:20:46	10009	Trial	CongruentLeft	14	203	418	1	116	14:20:46	2389012	3	3	1	1	1	2	1	1	1	8	7	0	0	0	0	5	4
082712	14:20:46	10009	Trial	IncongruentRight	14	205	427	1	116	14:20:46	2390025	3	3	1	1	1	2	1	1	1	8	7	0	0	0	0	5	4
082712	14:20:46	10009	Trial	IncongruentLeft	14	203	499	1	116	14:20:46	2391091	3	3	1	1	1	2	1	1	1	8	7	0	0	0	0	5	4
082712	14:20:46	10009	Trial	IncongruentRight	14	205	380	1	116	14:20:46	2391971	3	3	1	1	1	2	1	1	1	8	7	0	0	0	0	5	4
082712	14:20:46	10009	Trial	CongruentRight	14	205	420	1	116	14:20:46	2393011	3	3	1	1	1	2	1	1	1	8	7	0	0	0	0	5	4
082712	14:20:46	10009	Trial	CongruentRight	14	205	444	1	116	14:20:46	2394037	3	3	1	1	1	2	1	1	1	8	7	0	0	0	0	5	4
082712	14:20:46	10009	Trial	IncongruentLeft	14	203	485	1	116	14:20:46	2395077	3	3	1	1	1	2	1	1	1	8	7	0	0	0	0	5	4
082712	14:20:46	10009	Trial	CongruentLeft	14	203	493	1	116	14:20:46	2396089	3	3	1	1	1	2	1	1	1	8	7	0	0	0	0	5	4
082712	14:20:46	10009	Trial	CongruentRight	14	205	422	1	116	14:20:46	2397009	3	3	1	1	1	2	1	1	1	8	7	0	0	0	0	5	4
082712	14:20:46	10009	Trial	CongruentLeft	14	203	446	1	116	14:20:46	2398035	3	3	1	1	1	2	1	1	1	8	7	0	0	0	0	5	4
082712	14:20:46	10009	Trial	IncongruentRight	14	205	454	1	116	14:20:46	2399048	3	3	1	1	1	2	1	1	1	8	7	0	0	0	0	5	4
082712	14:20:46	10009	Trial	CongruentRight	14	205	495	1	116	14:20:46	2400088	3	3	1	1	1	2	1	1	1	8	7	0	0	0	0	5	4
082712	14:20:46	10009	Trial	CongruentLeft	14	203	487	1	116	14:20:46	2401074	3	3	1	1	1	2	1	1	1	8	7	0	0	0	0	5	4
082712	14:20:46	10009	Trial	IncongruentLeft	14	203	527	1	116	14:20:46	2402114	3	3	1	1	1	2	1	1	1	8	7	0	0	0	0	5	4
082712	14:20:46	10009	Trial	IncongruentLeft	14	203	552	1	116	14:20:46	2403140	3	3	1	1	1	2	1	1	1	8	7	0	0	0	0	5	4
082712	14:20:46	10009	Trial	CongruentRight	14	205	496	1	116	14:20:46	2404086	3	3	1	1	1	2	1	1	1	8	7	0	0	0	0	5	4
082712	14:20:46	10009	Trial	IncongruentRight	14	205	457	1	116	14:20:46	2405046	3	3	1	1	1	2	1	1	1	8	7	0	0	0	0	5	4
082712	14:20:46	10009	Trial	CongruentLeft	14	203	436	1	116	14:20:46	2406032	3	3	1	1	1	2	1	1	1	8	7	0	0	0	0	5	4
082712	14:20:46	10009	Trial	IncongruentRight	14	205	476	1	116	14:20:46	2407072	3	3	1	1	1	2	1	1	1	8	7	0	0	0	0	5	4
082712	14:20:46	10009	Trial	CongruentRight	14	205	517	1	116	14:20:46	2408111	3	3	1	1	1	2	1	1	1	8	7	0	0	0	0	5	4
082712	14:20:46	10009	Trial	IncongruentLeft	14	203	477	1	116	14:20:46	2409071	3	3	1	1	1	2	1	1	1	8	7	0	0	0	0	5	4
082712	14:20:46	10009	Trial	CongruentLeft	14	203	469	1	116	14:20:46	2410070	3	3	1	1	1	2	1	1	1	8	7	0	0	0	0	5	4
082712	14:20:46	10009	Trial	CongruentRight	14	205	478	1	116	14:20:46	2411070	3	3	1	1	1	2	1	1	1	8	7	0	0	0	0	5	4
082712	14:20:46	10009	Trial	IncongruentLeft	14	203	502	1	116	14:20:46	2412096	3	3	1	1	1	2	1	1	1	8	7	0	0	0	0	5	4
082712	14:20:46	10009	Trial	CongruentRight	14	205	494	1	116	14:20:46	2413096	3	3	1	1	1	2	1	1	1	8	7	0	0	0	0	5	4
082712	14:20:46	10009	Trial	CongruentRight	14	205	487	1	116	14:20:46	2414082	3	3	1	1	1	2	1	1	1	8	7	0	0	0	0	5	4
082712	14:20:46	10009	Trial	IncongruentRight	14	205	511	1	116	14:20:46	2415108	3	3	1	1	1	2	1	1	1	8	7	0	0	0	0	5	4
082712	14:20:46	10009	Trial	CongruentLeft	14	203	504	1	116	14:20:46	2416095	3	3	1	1	1	2	1	1	1	8	7	0	0	0	0	5	4
082712	14:20:46	10009	Trial	IncongruentLeft	14	203	576	1	116	14:20:46	2417174	3	3	1	1	1	2	1	1	1	8	7	0	0	0	0	5	4
082712	14:20:46	10009	Trial	CongruentLeft	14	203	536	1	116	14:20:46	2418134	3	3	1	1	1	2	1	1	1	8	7	0	0	0	0	5	4
082712	14:20:46	10009	Trial	IncongruentRight	14	205	481	1	116	14:20:46	2419080	3	3	1	1	1	2	1	1	1	8	7	0	0	0	0	5	4
082712	14:20:46	10009	Trial	IncongruentLeft	14	203	521	1	116	14:20:46	2420120	3	3	1	1	1	2	1	1	1	8	7	0	0	0	0	5	4
082712	14:20:46	10009	Trial	CongruentRight	14	205	433	1	116	14:20:46	2421026	3	3	1	1	1	2	1	1	1	8	7	0	0	0	0	5	4
082712	14:20:46	10009	Trial	CongruentLeft	14	203	474	1	116	14:20:46	2422066	3	3	1	1	1	2	1	1	1	8	7	0	0	0	0	5	4
082712	14:20:46	10009	Trial	IncongruentLeft	14	203	514	1	116	14:20:46	2423105	3	3	1	1	1	2	1	1	1	8	7	0	0	0	0	5	4
082712	14:20:46	10009	Trial	CongruentLeft	14	203	491	1	116	14:20:46	2424078	3	3	1	1	1	2	1	1	1	8	7	0	0	0	0	5	4
082712	14:20:46	10009	Trial	IncongruentRight	14	205	435	1	116	14:20:46	2425024	3	3	1	1	1	2	1	1	1	8	7	0	0	0	0	5	4
082712	14:20:46	10009	Trial	CongruentRight	14	205	443	1	116	14:20:46	2426037	3	3	1	1	1	2	1	1	1	8	7	0	0	0	0	5	4
082712	14:20:46	10009	Trial	IncongruentLeft	14	203	484	1	116	14:20:46	2427077	3	3	1	1	1	2	1	1	1	8	7	0	0	0	0	5	4
082712	14:20:46	10009	Trial	CongruentLeft	14	203	524	1	116	14:20:46	2428116	3	3	1	1	1	2	1	1	1	8	7	0	0	0	0	5	4
082712	14:20:46	10009	Trial	IncongruentRight	14	205	388	1	116	14:20:46	2428983	3	3	1	1	1	2	1	1	1	8	7	0	0	0	0	5	4
082712	14:20:46	10009	Trial	IncongruentLeft	14	203	333	1	116	14:20:46	2429929	3	3	1	1	1	2	1	1	1	8	7	0	0	0	0	5	4
082712	14:20:46	10009	Trial	CongruentLeft	14	203	389	1	116	14:20:46	2430982	3	3	1	1	1	2	1	1	1	8	7	0	0	0	0	5	4
082712	14:20:46	10009	Trial	IncongruentLeft	14	203	398	1	116	14:20:46	2431981	3	3	1	1	1	2	1	1	1	8	7	0	0	0	0	5	4
082712	14:20:46	10009	Trial	CongruentRight	14	205	374	1	116	14:20:46	2432968	3	3	1	1	1	2	1	1	1	8	7	0	0	0	0	5	4
082712	14:20:46	10009	Trial	CongruentLeft	14	203	398	1	116	14:20:46	2433994	3	3	1	1	1	2	1	1	1	8	7	0	0	0	0	5	4
082712	14:20:46	10009	Trial	IncongruentRight	14	205	425	1	116	14:20:46	2435034	3	3	1	1	1	2	1	1	1	8	7	0	0	0	0	5	4
082712	14:20:46	10009	Trial	CongruentLeft	14	203	418	1	116	14:20:46	2436020	3	3	1	1	1	2	1	1	1	8	7	0	0	0	0	5	4
082712	14:20:46	10009	Trial	CongruentRight	14	205	330	1	116	14:20:46	2436926	3	3	1	1	1	2	1	1	1	8	7	0	0	0	0	5	4
082712	14:20:46	10009	Trial	IncongruentLeft	14	203	323	1	116	14:20:46	2437926	3	3	1	1	1	2	1	1	1	8	7	0	0	0	0	5	4
082712	14:20:46	10009	Trial750Eng	IncongruentRight750	15	0	487	0	116	14:20:46	2444696	3	3	1	1	1	2	1	1	1	8	7	0	0	0	0	5	4
082712	14:20:46	10009	Trial750Eng	IncongruentLeft750	15	205	8	0	116	14:20:46	2444977	3	3	1	1	1	2	1	1	1	8	7	0	0	0	0	5	4
082712	14:20:46	10009	Trial750Eng	CongruentRight750	15	0	487	0	116	14:20:46	2446203	3	3	1	1	1	2	1	1	1	8	7	0	0	0	0	5	4
082712	14:20:46	10009	Trial750Eng	IncongruentRight750	15	205	470	1	116	14:20:46	2446949	3	3	1	1	1	2	1	1	1	8	7	0	0	0	0	5	4
082712	14:20:46	10009	Trial750Eng	CongruentLeft750	15	203	446	1	116	14:20:46	2447682	3	3	1	1	1	2	1	1	1	8	7	0	0	0	0	5	4
082712	14:20:46	10009	Trial750Eng	CongruentRight750	15	205	404	1	116	14:20:46	2448388	3	3	1	1	1	2	1	1	1	8	7	0	0	0	0	5	4
082712	14:20:46	10009	Trial750Eng	IncongruentRight750	15	205	473	1	116	14:20:46	2449201	3	3	1	1	1	2	1	1	1	8	7	0	0	0	0	5	4
082712	14:20:46	10009	Trial750Eng	CongruentLeft750	15	203	354	1	116	14:20:46	2449841	3	3	1	1	1	2	1	1	1	8	7	0	0	0	0	5	4
082712	14:20:46	10009	Trial750Eng	IncongruentLeft750	15	205	360	0	116	14:20:46	2450601	3	3	1	1	1	2	1	1	1	8	7	0	0	0	0	5	4
082712	14:20:46	10009	Trial750Eng	IncongruentLeft750	15	203	461	1	116	14:20:46	2451440	3	3	1	1	1	2	1	1	1	8	7	0	0	0	0	5	4
082712	14:20:46	10009	Trial750Eng	CongruentRight750	15	205	434	1	116	14:20:46	2452160	3	3	1	1	1	2	1	1	1	8	7	0	0	0	0	5	4
082712	14:20:46	10009	Trial750Eng	IncongruentRight750	15	0	487	0	116	14:20:46	2452960	3	3	1	1	1	2	1	1	1	8	7	0	0	0	0	5	4
082712	14:20:46	10009	Trial750Eng	CongruentLeft750	15	203	416	1	116	14:20:46	2453653	3	3	1	1	1	2	1	1	1	8	7	0	0	0	0	5	4
082712	14:20:46	10009	Trial750Eng	CongruentRight750	15	205	440	1	116	14:20:46	2454439	3	3	1	1	1	2	1	1	1	8	7	0	0	0	0	5	4
082712	14:20:46	10009	Trial750Eng	IncongruentLeft750	15	203	398	1	116	14:20:46	2455146	3	3	1	1	1	2	1	1	1	8	7	0	0	0	0	5	4
082712	14:20:46	10009	Trial750Eng	IncongruentRight750	15	205	420	1	116	14:20:46	2455905	3	3	1	1	1	2	1	1	1	8	7	0	0	0	0	5	4
082712	14:20:46	10009	Trial750Eng	CongruentRight750	15	205	441	1	116	14:20:46	2456678	3	3	1	1	1	2	1	1	1	8	7	0	0	0	0	5	4
082712	14:20:46	10009	Trial750Eng	CongruentLeft750	15	203	354	1	116	14:20:46	2457345	3	3	1	1	1	2	1	1	1	8	7	0	0	0	0	5	4
082712	14:20:46	10009	Trial750Eng	CongruentRight750	15	205	408	1	116	14:20:46	2458144	3	3	1	1	1	2	1	1	1	8	7	0	0	0	0	5	4
082712	14:20:46	10009	Trial750Eng	IncongruentRight750	15	205	477	1	116	14:20:46	2458957	3	3	1	1	1	2	1	1	1	8	7	0	0	0	0	5	4
082712	14:20:46	10009	Trial750Eng	IncongruentLeft750	15	203	405	1	116	14:20:46	2459650	3	3	1	1	1	2	1	1	1	8	7	0	0	0	0	5	4
082712	14:20:46	10009	Trial750Eng	IncongruentLeft750	15	203	427	1	116	14:20:46	2460423	3	3	1	1	1	2	1	1	1	8	7	0	0	0	0	5	4
082712	14:20:46	10009	Trial750Eng	CongruentLeft750	15	203	433	1	116	14:20:46	2461170	3	3	1	1	1	2	1	1	1	8	7	0	0	0	0	5	4
082712	14:20:46	10009	Trial750Eng	CongruentRight750	15	205	390	1	116	14:20:46	2461876	3	3	1	1	1	2	1	1	1	8	7	0	0	0	0	5	4
082712	14:20:46	10009	Trial750Eng	IncongruentLeft750	15	0	487	0	116	14:20:46	2462716	3	3	1	1	1	2	1	1	1	8	7	0	0	0	0	5	4
082712	14:20:46	10009	Trial750Eng	IncongruentRight750	15	203	468	0	116	14:20:46	2463462	3	3	1	1	1	2	1	1	1	8	7	0	0	0	0	5	4
082712	14:20:46	10009	Trial750Eng	CongruentRight750	15	205	460	1	116	14:20:46	2464209	3	3	1	1	1	2	1	1	1	8	7	0	0	0	0	5	4
082712	14:20:46	10009	Trial750Eng	CongruentLeft750	15	203	386	1	116	14:20:46	2464888	3	3	1	1	1	2	1	1	1	8	7	0	0	0	0	5	4
082712	14:20:46	10009	Trial750Eng	IncongruentRight750	15	205	391	1	116	14:20:46	2465634	3	3	1	1	1	2	1	1	1	8	7	0	0	0	0	5	4
082712	14:20:46	10009	Trial750Eng	IncongruentLeft750	15	203	448	1	116	14:20:46	2466447	3	3	1	1	1	2	1	1	1	8	7	0	0	0	0	5	4
082712	14:20:46	10009	Trial750Eng	IncongruentRight750	15	0	487	0	116	14:20:46	2467234	3	3	1	1	1	2	1	1	1	8	7	0	0	0	0	5	4
082712	14:20:46	10009	Trial750Eng	CongruentRight750	15	0	487	0	116	14:20:46	2467994	3	3	1	1	1	2	1	1	1	8	7	0	0	0	0	5	4
082712	14:20:46	10009	Trial750Eng	IncongruentLeft750	15	203	470	1	116	14:20:46	2468740	3	3	1	1	1	2	1	1	1	8	7	0	0	0	0	5	4
082712	14:20:46	10009	Trial750Eng	CongruentLeft750	15	203	430	1	116	14:20:46	2469460	3	3	1	1	1	2	1	1	1	8	7	0	0	0	0	5	4
082712	14:20:46	10009	Trial750Eng	CongruentRight750	15	205	436	1	116	14:20:46	2470206	3	3	1	1	1	2	1	1	1	8	7	0	0	0	0	5	4
082712	14:20:46	10009	Trial750Eng	IncongruentLeft750	15	203	458	1	116	14:20:46	2470979	3	3	1	1	1	2	1	1	1	8	7	0	0	0	0	5	4
082712	14:20:46	10009	Trial750Eng	IncongruentRight750	15	0	487	0	116	14:20:46	2471752	3	3	1	1	1	2	1	1	1	8	7	0	0	0	0	5	4
082712	14:20:46	10009	Trial750Eng	IncongruentRight750	15	205	455	1	116	14:20:46	2472485	3	3	1	1	1	2	1	1	1	8	7	0	0	0	0	5	4
082712	14:20:46	10009	Trial750Eng	CongruentLeft750	15	203	432	1	116	14:20:46	2473218	3	3	1	1	1	2	1	1	1	8	7	0	0	0	0	5	4
082712	14:20:46	10009	Trial750Eng	IncongruentLeft750	15	0	487	0	116	14:20:46	2474018	3	3	1	1	1	2	1	1	1	8	7	0	0	0	0	5	4
082712	14:20:46	10009	Trial750Eng	CongruentRight750	15	205	367	1	116	14:20:46	2474658	3	3	1	1	1	2	1	1	1	8	7	0	0	0	0	5	4
082712	14:20:46	10009	Trial750Eng	CongruentLeft750	15	203	374	1	116	14:20:46	2475431	3	3	1	1	1	2	1	1	1	8	7	0	0	0	0	5	4
082712	14:20:46	10009	Trial750Eng	IncongruentRight750	15	205	412	1	116	14:20:46	2476217	3	3	1	1	1	2	1	1	1	8	7	0	0	0	0	5	4
082712	14:20:46	10009	Trial750Eng	CongruentRight750	15	0	487	0	116	14:20:46	2477030	3	3	1	1	1	2	1	1	1	8	7	0	0	0	0	5	4
082712	14:20:46	10009	Trial750Eng	IncongruentLeft750	15	203	441	1	116	14:20:46	2477750	3	3	1	1	1	2	1	1	1	8	7	0	0	0	0	5	4
082712	14:20:46	10009	Trial750Eng	CongruentLeft750	15	0	487	0	116	14:20:46	2478536	3	3	1	1	1	2	1	1	1	8	7	0	0	0	0	5	4
082712	14:20:46	10009	Trial750Eng	IncongruentLeft750	15	0	487	0	116	14:20:46	2479296	3	3	1	1	1	2	1	1	1	8	7	0	0	0	0	5	4
082712	14:20:46	10009	Trial750Eng	IncongruentRight750	15	205	448	1	116	14:20:46	2480016	3	3	1	1	1	2	1	1	1	8	7	0	0	0	0	5	4
082712	14:20:46	10009	Trial750Eng	CongruentRight750	15	0	487	0	116	14:20:46	2480802	3	3	1	1	1	2	1	1	1	8	7	0	0	0	0	5	4
082712	14:20:46	10009	Trial750Eng	CongruentLeft750	15	203	429	1	116	14:20:46	2481508	3	3	1	1	1	2	1	1	1	8	7	0	0	0	0	5	4
082712	14:20:46	10009	Trial750Eng	CongruentLeft750	15	203	438	1	116	14:20:46	2482281	3	3	1	1	1	2	1	1	1	8	7	0	0	0	0	5	4
082712	14:20:46	10009	Trial750Eng	IncongruentRight750	15	205	411	1	116	14:20:46	2483001	3	3	1	1	1	2	1	1	1	8	7	0	0	0	0	5	4
082712	14:20:46	10009	Trial750Eng	IncongruentLeft750	15	203	385	1	116	14:20:46	2483721	3	3	1	1	1	2	1	1	1	8	7	0	0	0	0	5	4
082712	14:20:46	10009	Trial750Eng	IncongruentRight750	15	205	393	1	116	14:20:46	2484480	3	3	1	1	1	2	1	1	1	8	7	0	0	0	0	5	4
082712	14:20:46	10009	Trial750Eng	CongruentRight750	15	205	447	1	116	14:20:46	2485280	3	3	1	1	1	2	1	1	1	8	7	0	0	0	0	5	4
082712	14:20:46	10009	Trial750Eng	CongruentRight750	15	205	437	1	116	14:20:46	2486013	3	3	1	1	1	2	1	1	1	8	7	0	0	0	0	5	4
082712	14:20:46	10009	Trial750Eng	IncongruentLeft750	15	203	426	1	116	14:20:46	2486760	3	3	1	1	1	2	1	1	1	8	7	0	0	0	0	5	4
082712	14:20:46	10009	Trial750Eng	CongruentLeft750	15	203	435	1	116	14:20:46	2487519	3	3	1	1	1	2	1	1	1	8	7	0	0	0	0	5	4
082712	14:20:46	10009	Trial750Eng	CongruentRight750	15	205	392	1	116	14:20:46	2488226	3	3	1	1	1	2	1	1	1	8	7	0	0	0	0	5	4
082712	14:20:46	10009	Trial750Eng	CongruentLeft750	15	203	462	1	116	14:20:46	2489039	3	3	1	1	1	2	1	1	1	8	7	0	0	0	0	5	4
082712	14:20:46	10009	Trial750Eng	IncongruentRight750	15	205	419	1	116	14:20:46	2489745	3	3	1	1	1	2	1	1	1	8	7	0	0	0	0	5	4
082712	14:20:46	10009	Trial750Eng	CongruentRight750	15	0	487	0	116	14:20:46	2490558	3	3	1	1	1	2	1	1	1	8	7	0	0	0	0	5	4
082712	14:20:46	10009	Trial750Eng	CongruentLeft750	15	203	449	1	116	14:20:46	2491278	3	3	1	1	1	2	1	1	1	8	7	0	0	0	0	5	4
082712	14:20:46	10009	Trial750Eng	IncongruentLeft750	15	205	378	0	116	14:20:46	2491971	3	3	1	1	1	2	1	1	1	8	7	0	0	0	0	5	4
082712	14:20:46	10009	Trial750Eng	IncongruentLeft750	15	203	431	1	116	14:20:46	2492770	3	3	1	1	1	2	1	1	1	8	7	0	0	0	0	5	4
082712	14:20:46	10009	Trial750Eng	CongruentRight750	15	0	487	0	116	14:20:46	2493570	3	3	1	1	1	2	1	1	1	8	7	0	0	0	0	5	4
082712	14:20:46	10009	Trial750Eng	IncongruentRight750	15	0	487	0	116	14:20:46	2494330	3	3	1	1	1	2	1	1	1	8	7	0	0	0	0	5	4
082712	14:20:46	10009	Trial750Eng	CongruentLeft750	15	0	487	0	116	14:20:46	2495089	3	3	1	1	1	2	1	1	1	8	7	0	0	0	0	5	4
082712	14:20:46	10009	Trial750Eng	IncongruentRight750	15	0	487	0	116	14:20:46	2495849	3	3	1	1	1	2	1	1	1	8	7	0	0	0	0	5	4
082712	14:20:46	10009	Trial750Eng	CongruentRight750	15	0	487	0	116	14:20:46	2496609	3	3	1	1	1	2	1	1	1	8	7	0	0	0	0	5	4
082712	14:20:46	10009	Trial750Eng	IncongruentLeft750	15	0	487	0	116	14:20:46	2497369	3	3	1	1	1	2	1	1	1	8	7	0	0	0	0	5	4
082712	14:20:46	10009	Trial750Eng	CongruentLeft750	15	0	487	0	116	14:20:46	2498128	3	3	1	1	1	2	1	1	1	8	7	0	0	0	0	5	4
082712	14:20:46	10009	Trial750Eng	CongruentRight750	15	205	447	1	116	14:20:46	2498848	3	3	1	1	1	2	1	1	1	8	7	0	0	0	0	5	4
082712	14:20:46	10009	Trial750Eng	IncongruentLeft750	15	0	487	0	116	14:20:46	2499634	3	3	1	1	1	2	1	1	1	8	7	0	0	0	0	5	4
082712	14:20:46	10009	Trial750Eng	CongruentRight750	15	205	412	1	116	14:20:46	2500327	3	3	1	1	1	2	1	1	1	8	7	0	0	0	0	5	4
082712	14:20:46	10009	Trial750Eng	CongruentRight750	15	205	469	1	116	14:20:46	2501140	3	3	1	1	1	2	1	1	1	8	7	0	0	0	0	5	4
082712	14:20:46	10009	Trial750Eng	IncongruentRight750	15	205	459	1	116	14:20:46	2501873	3	3	1	1	1	2	1	1	1	8	7	0	0	0	0	5	4
082712	14:20:46	10009	Trial750Eng	CongruentLeft750	15	203	387	1	116	14:20:46	2502567	3	3	1	1	1	2	1	1	1	8	7	0	0	0	0	5	4
082712	14:20:46	10009	Trial750Eng	IncongruentLeft750	15	203	409	1	116	14:20:46	2503326	3	3	1	1	1	2	1	1	1	8	7	0	0	0	0	5	4
082712	14:20:46	10009	Trial750Eng	CongruentLeft750	15	203	398	1	116	14:20:46	2504073	3	3	1	1	1	2	1	1	1	8	7	0	0	0	0	5	4
082712	14:20:46	10009	Trial750Eng	IncongruentRight750	15	205	470	1	116	14:20:46	2504899	3	3	1	1	1	2	1	1	1	8	7	0	0	0	0	5	4
082712	14:20:46	10009	Trial750Eng	IncongruentLeft750	15	203	428	1	116	14:20:46	2505605	3	3	1	1	1	2	1	1	1	8	7	0	0	0	0	5	4
082712	14:20:46	10009	Trial750Eng	CongruentRight750	15	0	487	0	116	14:20:46	2506405	3	3	1	1	1	2	1	1	1	8	7	0	0	0	0	5	4
082712	14:20:46	10009	Trial750Eng	CongruentLeft750	15	203	394	1	116	14:20:46	2507071	3	3	1	1	1	2	1	1	1	8	7	0	0	0	0	5	4
082712	14:20:46	10009	Trial750Eng	IncongruentLeft750	15	205	322	0	116	14:20:46	2507764	3	3	1	1	1	2	1	1	1	8	7	0	0	0	0	5	4
082712	14:20:46	10009	Trial750Eng	CongruentLeft750	15	203	360	1	116	14:20:46	2508551	3	3	1	1	1	2	1	1	1	8	7	0	0	0	0	5	4
082712	14:20:46	10009	Trial750Eng	IncongruentRight750	15	205	446	1	116	14:20:46	2509377	3	3	1	1	1	2	1	1	1	8	7	0	0	0	0	5	4
082712	14:20:46	10009	Trial750Eng	CongruentRight750	15	0	487	0	116	14:20:46	2510163	3	3	1	1	1	2	1	1	1	8	7	0	0	0	0	5	4
082712	14:20:46	10009	Trial750Eng	IncongruentLeft750	15	203	411	1	116	14:20:46	2510856	3	3	1	1	1	2	1	1	1	8	7	0	0	0	0	5	4
082712	14:20:46	10009	Trial750Eng	CongruentLeft750	15	203	372	1	116	14:20:46	2511576	3	3	1	1	1	2	1	1	1	8	7	0	0	0	0	5	4
082712	14:20:46	10009	Trial750Eng	IncongruentRight750	15	205	409	1	116	14:20:46	2512349	3	3	1	1	1	2	1	1	1	8	7	0	0	0	0	5	4
082712	14:20:46	10009	Trial750Eng	IncongruentLeft750	15	203	431	1	116	14:20:46	2513122	3	3	1	1	1	2	1	1	1	8	7	0	0	0	0	5	4
082712	14:20:46	10009	Trial750Eng	CongruentLeft750	15	203	455	1	116	14:20:46	2513909	3	3	1	1	1	2	1	1	1	8	7	0	0	0	0	5	4
082712	14:20:46	10009	Trial750Eng	IncongruentLeft750	15	0	487	0	116	14:20:46	2514668	3	3	1	1	1	2	1	1	1	8	7	0	0	0	0	5	4
082712	14:20:46	10009	Trial750Eng	CongruentRight750	15	205	370	1	116	14:20:46	2515308	3	3	1	1	1	2	1	1	1	8	7	0	0	0	0	5	4
082712	14:20:46	10009	Trial750Eng	CongruentLeft750	15	203	315	1	116	14:20:46	2516014	3	3	1	1	1	2	1	1	1	8	7	0	0	0	0	5	4
082712	14:20:46	10009	Trial750Eng	IncongruentRight750	15	205	401	1	116	14:20:46	2516854	3	3	1	1	1	2	1	1	1	8	7	0	0	0	0	5	4
082712	14:20:46	10009	Trial750Eng	CongruentLeft750	15	203	390	1	116	14:20:46	2517587	3	3	1	1	1	2	1	1	1	8	7	0	0	0	0	5	4
082712	14:20:46	10009	Trial750Eng	CongruentRight750	15	205	444	1	116	14:20:46	2518387	3	3	1	1	1	2	1	1	1	8	7	0	0	0	0	5	4
082712	14:20:46	10009	Trial750Eng	IncongruentLeft750	15	203	356	1	116	14:20:46	2519053	3	3	1	1	1	2	1	1	1	8	7	0	0	0	0	5	4
082712	14:20:46	10009	WordsAbsEng3mo	PAbsEng3mo1	16	Abs1	4527	0	116	14:20:46	2530369	3	3	1	1	1	2	1	1	1	8	7	0	0	0	0	5	4
082712	14:20:46	10009	WordsAbsEng3mo	AbsEng3mo1	16	Abs1	4259	0	116	14:20:46	2534674	3	3	1	1	1	2	1	1	1	8	7	1	0	0	0	5	4
082712	14:20:46	10009	WordsAbsEng3mo	AbsEng3mo2	16	Abs1	15650	0	116	14:20:46	2550360	3	3	1	1	1	2	1	1	1	8	7	2	0	0	0	5	4
082712	14:20:46	10009	WordsAbsEng3mo	AbsEng3mo3	16	Abs1	10813	0	116	14:20:46	2561263	3	3	1	1	1	2	1	1	1	8	7	3	0	0	0	5	4
082712	14:20:46	10009	Trial2BackEngS	NS	17	0	1000	1	116	14:20:46	2601087	3	3	1	1	1	2	1	1	1	8	7	3	0	0	0	5	4
082712	14:20:46	10009	Trial2BackEngS	NS	17	0	1000	1	116	14:20:46	2602606	3	3	1	1	1	2	1	1	1	8	7	3	0	0	0	5	4
082712	14:20:46	10009	Trial2BackEngS	NS	17	0	1000	1	116	14:20:46	2604125	3	3	1	1	1	2	1	1	1	8	7	3	0	0	0	5	4
082712	14:20:46	10009	Trial2BackEngS	YS	17	0	1000	0	116	14:20:46	2605645	3	3	1	1	1	2	1	1	1	8	7	3	0	0	0	5	4
082712	14:20:46	10009	Trial2BackEngS	NS	17	0	1000	1	116	14:20:46	2607164	3	3	1	1	1	2	1	1	1	8	7	3	0	0	0	5	4
082712	14:20:46	10009	Trial2BackEngS	NS	17	0	1000	1	116	14:20:46	2608684	3	3	1	1	1	2	1	1	1	8	7	3	0	0	0	5	4
082712	14:20:46	10009	Trial2BackEngS	NS	17	0	1000	1	116	14:20:46	2610203	3	3	1	1	1	2	1	1	1	8	7	3	0	0	0	5	4
082712	14:20:46	10009	Trial2BackEngS	NS	17	0	1000	1	116	14:20:46	2611722	3	3	1	1	1	2	1	1	1	8	7	3	0	0	0	5	4
082712	14:20:46	10009	Trial2BackEngS	YS	17	57	966	1	116	14:20:46	2613215	3	3	1	1	1	2	1	1	1	8	7	3	0	0	0	5	4
082712	14:20:46	10009	Trial2BackEngS	NS	17	0	1000	1	116	14:20:46	2614748	3	3	1	1	1	2	1	1	1	8	7	3	0	0	0	5	4
082712	14:20:46	10009	Trial2BackEngS	NS	17	0	1000	1	116	14:20:46	2616267	3	3	1	1	1	2	1	1	1	8	7	3	0	0	0	5	4
082712	14:20:46	10009	Trial2BackEngS	YS	17	0	1000	0	116	14:20:46	2617787	3	3	1	1	1	2	1	1	1	8	7	3	0	0	0	5	4
082712	14:20:46	10009	Trial2BackEngS	NS	17	0	1000	1	116	14:20:46	2619306	3	3	1	1	1	2	1	1	1	8	7	3	0	0	0	5	4
082712	14:20:46	10009	Trial2BackEngS	NS	17	0	1000	1	116	14:20:46	2620825	3	3	1	1	1	2	1	1	1	8	7	3	0	0	0	5	4
082712	14:20:46	10009	Trial2BackEngS	NS	17	0	1000	1	116	14:20:46	2622345	3	3	1	1	1	2	1	1	1	8	7	3	0	0	0	5	4
082712	14:20:46	10009	Trial2BackEngS	YS	17	0	1000	0	116	14:20:46	2623864	3	3	1	1	1	2	1	1	1	8	7	3	0	0	0	5	4
082712	14:20:46	10009	Trial2BackEngS	NS	17	0	1000	1	116	14:20:46	2625383	3	3	1	1	1	2	1	1	1	8	7	3	0	0	0	5	4
082712	14:20:46	10009	Trial2BackEngS	NS	17	0	1000	1	116	14:20:46	2626903	3	3	1	1	1	2	1	1	1	8	7	3	0	0	0	5	4
082712	14:20:46	10009	Trial2BackEngS	NS	17	0	1000	1	116	14:20:46	2628422	3	3	1	1	1	2	1	1	1	8	7	3	0	0	0	5	4
082712	14:20:46	10009	Trial2BackEngS	NS	17	0	1000	1	116	14:20:46	2629942	3	3	1	1	1	2	1	1	1	8	7	3	0	0	0	5	4
082712	14:20:46	10009	Trial2BackEngS	YS	17	57	474	1	116	14:20:46	2630941	3	3	1	1	1	2	1	1	1	8	7	3	0	0	0	5	4
082712	14:20:46	10009	Trial2BackEngS	NS	17	0	1000	1	116	14:20:46	2632967	3	3	1	1	1	2	1	1	1	8	7	3	0	0	0	5	4
082712	14:20:46	10009	Trial2BackEngS	NS	17	0	1000	1	116	14:20:46	2634486	3	3	1	1	1	2	1	1	1	8	7	3	0	0	0	5	4
082712	14:20:46	10009	Trial2BackEngS	NS	17	0	1000	1	116	14:20:46	2636006	3	3	1	1	1	2	1	1	1	8	7	3	0	0	0	5	4
082712	14:20:46	10009	Trial2BackEngS	NS	17	0	1000	1	116	14:20:46	2637525	3	3	1	1	1	2	1	1	1	8	7	3	0	0	0	5	4
082712	14:20:46	10009	Trial2BackEngS	NS	17	0	1000	1	116	14:20:46	2639045	3	3	1	1	1	2	1	1	1	8	7	3	0	0	0	5	4
082712	14:20:46	10009	Trial2BackEngS	NS	17	0	1000	1	116	14:20:46	2640564	3	3	1	1	1	2	1	1	1	8	7	3	0	0	0	5	4
082712	14:20:46	10009	Trial2BackEngS	NS	17	0	1000	1	116	14:20:46	2642083	3	3	1	1	1	2	1	1	1	8	7	3	0	0	0	5	4
082712	14:20:46	10009	Trial2BackEngS	NS	17	0	1000	1	116	14:20:46	2643603	3	3	1	1	1	2	1	1	1	8	7	3	0	0	0	5	4
082712	14:20:46	10009	Trial2BackEngS	NS	17	0	1000	1	116	14:20:46	2645122	3	3	1	1	1	2	1	1	1	8	7	3	0	0	0	5	4
082712	14:20:46	10009	Trial2BackEngS	NS	17	0	1000	1	116	14:20:46	2646642	3	3	1	1	1	2	1	1	1	8	7	3	0	0	0	5	4
082712	14:20:46	10009	Trial2BackEngS	YS	17	57	942	1	116	14:20:46	2648108	3	3	1	1	1	2	1	1	1	8	7	3	0	0	0	5	4
082712	14:20:46	10009	Trial2BackEngS	NS	17	0	1000	1	116	14:20:46	2649667	3	3	1	1	1	2	1	1	1	8	7	3	0	0	0	5	4
082712	14:20:46	10009	Trial2BackEngS	NS	17	0	1000	1	116	14:20:46	2651186	3	3	1	1	1	2	1	1	1	8	7	3	0	0	0	5	4
082712	14:20:46	10009	Trial2BackEngS	NS	17	0	1000	1	116	14:20:46	2652706	3	3	1	1	1	2	1	1	1	8	7	3	0	0	0	5	4
082712	14:20:46	10009	Trial2BackEngS	YS	17	0	1000	0	116	14:20:46	2654225	3	3	1	1	1	2	1	1	1	8	7	3	0	0	0	5	4
082712	14:20:46	10009	Trial2BackEngS	NS	17	0	1000	1	116	14:20:46	2655745	3	3	1	1	1	2	1	1	1	8	7	3	0	0	0	5	4
082712	14:20:46	10009	Trial2BackEngS	NS	17	0	1000	1	116	14:20:46	2657264	3	3	1	1	1	2	1	1	1	8	7	3	0	0	0	5	4
082712	14:20:46	10009	Trial2BackEngS	NS	17	0	1000	1	116	14:20:46	2658783	3	3	1	1	1	2	1	1	1	8	7	3	0	0	0	5	4
082712	14:20:46	10009	Trial2BackEngS	NS	17	0	1000	1	116	14:20:46	2660303	3	3	1	1	1	2	1	1	1	8	7	3	0	0	0	5	4
082712	14:20:46	10009	Trial2BackEngS	NS	17	0	1000	1	116	14:20:46	2661822	3	3	1	1	1	2	1	1	1	8	7	3	0	0	0	5	4
082712	14:20:46	10009	Trial2BackEngS	NS	17	0	1000	1	116	14:20:46	2663341	3	3	1	1	1	2	1	1	1	8	7	3	0	0	0	5	4
082712	14:20:46	10009	Trial2BackEngS	NS	17	0	1000	1	116	14:20:46	2664861	3	3	1	1	1	2	1	1	1	8	7	3	0	0	0	5	4
082712	14:20:46	10009	Trial2BackEngS	YS	17	57	962	1	116	14:20:46	2666353	3	3	1	1	1	2	1	1	1	8	7	3	0	0	0	5	4
082712	14:20:46	10009	Trial2BackEngS	NS	17	0	1000	1	116	14:20:46	2667886	3	3	1	1	1	2	1	1	1	8	7	3	0	0	0	5	4
082712	14:20:46	10009	Trial2BackEngS	NS	17	0	1000	1	116	14:20:46	2669406	3	3	1	1	1	2	1	1	1	8	7	3	0	0	0	5	4
082712	14:20:46	10009	Trial2BackEngS	NS	17	0	1000	1	116	14:20:46	2670925	3	3	1	1	1	2	1	1	1	8	7	3	0	0	0	5	4
082712	14:20:46	10009	Trial2BackEngS	NS	17	0	1000	1	116	14:20:46	2672444	3	3	1	1	1	2	1	1	1	8	7	3	0	0	0	5	4
082712	14:20:46	10009	Trial2BackEngS	YS	17	57	406	1	116	14:20:46	2673377	3	3	1	1	1	2	1	1	1	8	7	3	0	0	0	5	4
082712	14:20:46	10009	Trial2BackEngS	NS	17	0	1000	1	116	14:20:46	2675473	3	3	1	1	1	2	1	1	1	8	7	3	0	0	0	5	4
082712	14:20:46	10009	Trial2BackEngS	NS	17	0	1000	1	116	14:20:46	2676989	3	3	1	1	1	2	1	1	1	8	7	3	0	0	0	5	4
082712	14:20:46	10009	Trial2BackEngS	NS	17	0	1000	1	116	14:20:46	2678509	3	3	1	1	1	2	1	1	1	8	7	3	0	0	0	5	4
082712	14:20:46	10009	Trial2BackEngS	NS	17	0	1000	1	116	14:20:46	2680028	3	3	1	1	1	2	1	1	1	8	7	3	0	0	0	5	4
082712	14:20:46	10009	Trial2BackEngS	NS	17	0	1000	1	116	14:20:46	2681548	3	3	1	1	1	2	1	1	1	8	7	3	0	0	0	5	4
082712	14:20:46	10009	Trial2BackEngS	NS	17	0	1000	1	116	14:20:46	2683067	3	3	1	1	1	2	1	1	1	8	7	3	0	0	0	5	4
082712	14:20:46	10009	Trial2BackEngS	YS	17	0	1000	0	116	14:20:46	2684586	3	3	1	1	1	2	1	1	1	8	7	3	0	0	0	5	4
082712	14:20:46	10009	Trial2BackEngS	NS	17	0	1000	1	116	14:20:46	2686106	3	3	1	1	1	2	1	1	1	8	7	3	0	0	0	5	4
082712	14:20:46	10009	Trial2BackEngS	NS	17	0	1000	1	116	14:20:46	2687625	3	3	1	1	1	2	1	1	1	8	7	3	0	0	0	5	4
082712	14:20:46	10009	Trial2BackEngS	NS	17	0	1000	1	116	14:20:46	2689144	3	3	1	1	1	2	1	1	1	8	7	3	0	0	0	5	4
082712	14:20:46	10009	Trial2BackEngS	NS	17	0	1000	1	116	14:20:46	2690664	3	3	1	1	1	2	1	1	1	8	7	3	0	0	0	5	4
082712	14:20:46	10009	Trial2BackEngS	NS	17	0	1000	1	116	14:20:46	2692183	3	3	1	1	1	2	1	1	1	8	7	3	0	0	0	5	4
082712	14:20:46	10009	Trial2BackEngS	NS	17	0	1000	1	116	14:20:46	2693702	3	3	1	1	1	2	1	1	1	8	7	3	0	0	0	5	4
082712	14:20:46	10009	Trial2BackEngS	NS	17	0	1000	1	116	14:20:46	2695222	3	3	1	1	1	2	1	1	1	8	7	3	0	0	0	5	4
082712	14:20:46	10009	Trial2BackEngS	YS	17	0	1000	0	116	14:20:46	2696741	3	3	1	1	1	2	1	1	1	8	7	3	0	0	0	5	4
082712	14:20:46	10009	Trial2BackEngS	NS	17	0	1000	1	116	14:20:46	2698261	3	3	1	1	1	2	1	1	1	8	7	3	0	0	0	5	4
082712	14:20:46	10009	Trial2BackEngS	NS	17	0	1000	1	116	14:20:46	2699780	3	3	1	1	1	2	1	1	1	8	7	3	0	0	0	5	4
082712	14:20:46	10009	Trial2BackEngS	NS	17	0	1000	1	116	14:20:46	2701299	3	3	1	1	1	2	1	1	1	8	7	3	0	0	0	5	4
082712	14:20:46	10009	Trial2BackEngS	NS	17	0	1000	1	116	14:20:46	2702819	3	3	1	1	1	2	1	1	1	8	7	3	0	0	0	5	4
082712	14:20:46	10009	Trial2BackEngS	YS	17	0	1000	0	116	14:20:46	2704338	3	3	1	1	1	2	1	1	1	8	7	3	0	0	0	5	4
082712	14:20:46	10009	Trial2BackEngS	NS	17	0	1000	1	116	14:20:46	2705857	3	3	1	1	1	2	1	1	1	8	7	3	0	0	0	5	4
082712	14:20:46	10009	Trial2BackEngS	NS	17	0	1000	1	116	14:20:46	2707377	3	3	1	1	1	2	1	1	1	8	7	3	0	0	0	5	4
082712	14:20:46	10009	Trial2BackEngS	YS	17	0	1000	0	116	14:20:46	2708897	3	3	1	1	1	2	1	1	1	8	7	3	0	0	0	5	4
082712	14:20:46	10009	Trial2BackEngS	NS	17	0	1000	1	116	14:20:46	2710416	3	3	1	1	1	2	1	1	1	8	7	3	0	0	0	5	4
082712	14:20:46	10009	Trial2BackEngS	NS	17	0	1000	1	116	14:20:46	2711935	3	3	1	1	1	2	1	1	1	8	7	3	0	0	0	5	4
082712	14:20:46	10009	Trial2BackEngS	NS	17	0	1000	1	116	14:20:46	2713454	3	3	1	1	1	2	1	1	1	8	7	3	0	0	0	5	4
082712	14:20:46	10009	Trial2BackEngS	NS	17	0	1000	1	116	14:20:46	2714974	3	3	1	1	1	2	1	1	1	8	7	3	0	0	0	5	4
082712	14:20:46	10009	Trial2BackEngS	NS	17	0	1000	1	116	14:20:46	2716493	3	3	1	1	1	2	1	1	1	8	7	3	0	0	0	5	4
082712	14:20:46	10009	Trial2BackEngS	NS	17	0	1000	1	116	14:20:46	2718013	3	3	1	1	1	2	1	1	1	8	7	3	0	0	0	5	4
082712	14:20:46	10009	Trial2BackEngS	YS	17	0	1000	0	116	14:20:46	2719532	3	3	1	1	1	2	1	1	1	8	7	3	0	0	0	5	4
082712	14:20:46	10009	Trial2BackEngS	NS	17	0	1000	1	116	14:20:46	2721051	3	3	1	1	1	2	1	1	1	8	7	3	0	0	0	5	4
082712	14:20:46	10009	Trial2BackEngS	NS	17	0	1000	1	116	14:20:46	2722571	3	3	1	1	1	2	1	1	1	8	7	3	0	0	0	5	4
082712	14:20:46	10009	Trial2BackEngS	NS	17	0	1000	1	116	14:20:46	2724090	3	3	1	1	1	2	1	1	1	8	7	3	0	0	0	5	4
082712	14:20:46	10009	Trial2BackEngS	NS	17	0	1000	1	116	14:20:46	2725610	3	3	1	1	1	2	1	1	1	8	7	3	0	0	0	5	4
082712	14:20:46	10009	Trial2BackEngS	YS	17	0	1000	0	116	14:20:46	2727129	3	3	1	1	1	2	1	1	1	8	7	3	0	0	0	5	4
082712	14:20:46	10009	Trial2BackEngS	NS	17	0	1000	1	116	14:20:46	2728648	3	3	1	1	1	2	1	1	1	8	7	3	0	0	0	5	4
082712	14:20:46	10009	Trial2BackEngS	NS	17	0	1000	1	116	14:20:46	2730168	3	3	1	1	1	2	1	1	1	8	7	3	0	0	0	5	4
082712	14:20:46	10009	Trial2BackEngS	NS	17	0	1000	1	116	14:20:46	2731687	3	3	1	1	1	2	1	1	1	8	7	3	0	0	0	5	4
082712	14:20:46	10009	Trial2BackEngS	NS	17	57	518	0	116	14:20:46	2732727	3	3	1	1	1	2	1	1	1	8	7	3	0	0	0	5	4
082712	14:20:46	10009	Trial2BackEngS	YS	17	0	1000	0	116	14:20:46	2734713	3	3	1	1	1	2	1	1	1	8	7	3	0	0	0	5	4
082712	14:20:46	10009	Trial2BackEngS	NS	17	0	1000	1	116	14:20:46	2736232	3	3	1	1	1	2	1	1	1	8	7	3	0	0	0	5	4
082712	14:20:46	10009	Trial2BackEngS	NS	17	0	1000	1	116	14:20:46	2737751	3	3	1	1	1	2	1	1	1	8	7	3	0	0	0	5	4
082712	14:20:46	10009	Trial2BackEngS	YS	17	57	918	1	116	14:20:46	2739191	3	3	1	1	1	2	1	1	1	8	7	3	0	0	0	5	4
082712	14:20:46	10009	Trial2BackEngS	NS	17	0	1000	1	116	14:20:46	2740777	3	3	1	1	1	2	1	1	1	8	7	3	0	0	0	5	4
082712	14:20:46	10009	Trial2BackEngS	NS	17	0	1000	1	116	14:20:46	2742296	3	3	1	1	1	2	1	1	1	8	7	3	0	0	0	5	4
082712	14:20:46	10009	Trial2BackEngS	NS	17	0	1000	1	116	14:20:46	2743816	3	3	1	1	1	2	1	1	1	8	7	3	0	0	0	5	4
082712	14:20:46	10009	Trial2BackEngS	NS	17	0	1000	1	116	14:20:46	2745335	3	3	1	1	1	2	1	1	1	8	7	3	0	0	0	5	4
082712	14:20:46	10009	Trial2BackEngS	NS	17	0	1000	1	116	14:20:46	2746854	3	3	1	1	1	2	1	1	1	8	7	3	0	0	0	5	4
082712	14:20:46	10009	Trial2BackEngS	NS	17	0	1000	1	116	14:20:46	2748374	3	3	1	1	1	2	1	1	1	8	7	3	0	0	0	5	4
082712	14:20:46	10009	Trial2BackEngS	NS	17	0	1000	1	116	14:20:46	2749893	3	3	1	1	1	2	1	1	1	8	7	3	0	0	0	5	4
082712	14:20:46	10009	Trial2BackEngS	NS	17	0	1000	1	116	14:20:46	2751412	3	3	1	1	1	2	1	1	1	8	7	3	0	0	0	5	4
082712	14:20:46	10009	Trial2BackEngS	YS	17	0	1000	0	116	14:20:46	2752932	3	3	1	1	1	2	1	1	1	8	7	3	0	0	0	5	4
082712	14:20:46	10009	Trial2BackEngS	NS	17	0	1000	1	116	14:20:46	2754451	3	3	1	1	1	2	1	1	1	8	7	3	0	0	0	5	4
082712	14:20:46	10009	Trial2BackEngS	NS	17	0	1000	1	116	14:20:46	2755971	3	3	1	1	1	2	1	1	1	8	7	3	0	0	0	5	4
082712	14:20:46	10009	Trial2BackEngS	NS	17	0	1000	1	116	14:20:46	2757490	3	3	1	1	1	2	1	1	1	8	7	3	0	0	0	5	4
082712	14:20:46	10009	Trial2BackEngS	NS	17	0	1000	1	116	14:20:46	2759009	3	3	1	1	1	2	1	1	1	8	7	3	0	0	0	5	4
082712	14:20:46	10009	Trial2BackEngS	NS	17	0	1000	1	116	14:20:46	2760529	3	3	1	1	1	2	1	1	1	8	7	3	0	0	0	5	4
082712	14:20:46	10009	Trial2BackEngS	NS	17	0	1000	1	116	14:20:46	2762048	3	3	1	1	1	2	1	1	1	8	7	3	0	0	0	5	4
082712	14:20:46	10009	Trial2BackEngS	NS	17	0	1000	1	116	14:20:46	2763568	3	3	1	1	1	2	1	1	1	8	7	3	0	0	0	5	4
082712	14:20:46	10009	Trial2BackEngS	YS	17	0	1000	0	116	14:20:46	2765087	3	3	1	1	1	2	1	1	1	8	7	3	0	0	0	5	4
082712	14:20:46	10009	Trial2BackEngS	NS	17	0	1000	1	116	14:20:46	2766606	3	3	1	1	1	2	1	1	1	8	7	3	0	0	0	5	4
082712	14:20:46	10009	Trial2BackEngS	NS	17	0	1000	1	116	14:20:46	2768126	3	3	1	1	1	2	1	1	1	8	7	3	0	0	0	5	4
082712	14:20:46	10009	Trial2BackEngS	NS	17	0	1000	1	116	14:20:46	2769645	3	3	1	1	1	2	1	1	1	8	7	3	0	0	0	5	4
082712	14:20:46	10009	Trial2BackEngS	NS	17	0	1000	1	116	14:20:46	2771164	3	3	1	1	1	2	1	1	1	8	7	3	0	0	0	5	4
082712	14:20:46	10009	Trial2BackEngS	NS	17	0	1000	1	116	14:20:46	2772684	3	3	1	1	1	2	1	1	1	8	7	3	0	0	0	5	4
082712	14:20:46	10009	Trial2BackEngS	NS	17	0	1000	1	116	14:20:46	2774203	3	3	1	1	1	2	1	1	1	8	7	3	0	0	0	5	4
082712	14:20:46	10009	Trial2BackEngS	NS	17	0	1000	1	116	14:20:46	2775723	3	3	1	1	1	2	1	1	1	8	7	3	0	0	0	5	4
082712	14:20:46	10009	Trial2BackEngS	NS	17	0	1000	1	116	14:20:46	2777242	3	3	1	1	1	2	1	1	1	8	7	3	0	0	0	5	4
082712	14:20:46	10009	Trial2BackEngS	NS	17	0	1000	1	116	14:20:46	2778762	3	3	1	1	1	2	1	1	1	8	7	3	0	0	0	5	4
082712	14:20:46	10009	Trial2BackEngS	YS	17	0	1000	0	116	14:20:46	2780281	3	3	1	1	1	2	1	1	1	8	7	3	0	0	0	5	4
082712	14:20:46	10009	Trial2BackEngS	NS	17	0	1000	1	116	14:20:46	2781800	3	3	1	1	1	2	1	1	1	8	7	3	0	0	0	5	4
082712	14:20:46	10009	ClockEng3mo	ClockEng3mo	19	Clock1	30714	0	116	14:20:46	2812615	3	3	1	1	1	2	1	1	1	8	7	3	1	0	0	5	4
082712	14:20:46	10009	ClockEng3mo	ClockEng3mo	19	Clock11	399	0	116	14:20:46	2813054	3	3	1	1	1	2	1	1	1	8	7	3	1	1	0	5	4
082712	14:20:46	10009	ClockEng3mo	ClockEng3mo	19	Clock111	487	0	116	14:20:46	2813588	3	3	1	1	1	2	1	1	1	8	7	3	1	1	1	5	4
082712	14:20:46	10009	ClockEng3mo	ClockEng3mo	19	Clockdone	618	0	116	14:20:46	2814241	3	3	1	1	1	2	1	1	1	8	7	3	1	1	1	5	4
082712	14:20:46	10009	FASEngVF3mo	StopEngVF3mo	20	12	10308	0	116	14:20:46	2914789	3	3	1	1	1	2	1	1	1	8	7	3	1	1	1	5	4
