date	time	subject	blockcode	trialcode	values.TaskNumber	response	latency	correct	values.Score	script.starttime	script.elapsedtime	values.ScoreS7	values.Word1	values.Word2	values.Word3	values.Word4	values.Word5	values.Word6	values.Word7	values.Word8	values.DigitSpanFwrd	values.DigitSpanBack	values.ScoreAbs	values.Contour	values.Numbers	values.Hands	values.corsiblockspanFwrd	values.corsiblockspanRev
091812	14:34:30	10001	Language	Language	0	French	1207	0	0	14:34:30	1527	0	0	0	0	0	0	0	0	0	0	0	0	0	0	0	0	0
091812	14:34:30	10001	Session	Session	0	6mo	653	0	0	14:34:30	2260	0	0	0	0	0	0	0	0	0	0	0	0	0	0	0	0	0
091812	14:34:30	10001	HandFr	HandFr	0	RightFr	332536	0	0	14:34:30	334930	0	0	0	0	0	0	0	0	0	0	0	0	0	0	0	0	0
091812	14:34:30	10001	AudioCheckFr	WordsFr	0	0	0	0	0	14:34:30	354938	0	0	0	0	0	0	0	0	0	0	0	0	0	0	0	0	0
091812	14:34:30	10001	AudioCheckFr	WordsFr	0	0	0	0	0	14:34:30	371237	0	0	0	0	0	0	0	0	0	0	0	0	0	0	0	0	0
091812	14:34:30	10001	CubeFr	CubeFr	1	1Cube	19798	0	0	14:34:30	392945	0	0	0	0	0	0	0	0	0	0	0	0	0	0	0	0	0
091812	14:34:30	10001	pm.simpleFrRight	blank.simpleFr	2	0	1687	1	0	14:34:30	425653	0	0	0	0	0	0	0	0	0	0	0	0	0	0	0	0	0
091812	14:34:30	10001	pm.simpleFrRight	pm.simpleFr	2	57	479	0	0	14:34:30	426188	0	0	0	0	0	0	0	0	0	0	0	0	0	0	0	0	0
091812	14:34:30	10001	pm.simpleFrRight	blank.simpleFr	2	0	1987	1	0	14:34:30	428211	0	0	0	0	0	0	0	0	0	0	0	0	0	0	0	0	0
091812	14:34:30	10001	pm.simpleFrRight	pm.simpleFr	2	57	396	0	0	14:34:30	428638	0	0	0	0	0	0	0	0	0	0	0	0	0	0	0	0	0
091812	14:34:30	10001	pm.simpleFrRight	blank.simpleFr	2	0	2387	1	0	14:34:30	431064	0	0	0	0	0	0	0	0	0	0	0	0	0	0	0	0	0
091812	14:34:30	10001	pm.simpleFrRight	pm.simpleFr	2	57	348	0	0	14:34:30	431450	0	0	0	0	0	0	0	0	0	0	0	0	0	0	0	0	0
091812	14:34:30	10001	pm.simpleFrRight	blank.simpleFr	2	0	2187	1	0	14:34:30	433663	0	0	0	0	0	0	0	0	0	0	0	0	0	0	0	0	0
091812	14:34:30	10001	pm.simpleFrRight	pm.simpleFr	2	57	376	0	0	14:34:30	434095	0	0	0	0	0	0	0	0	0	0	0	0	0	0	0	0	0
091812	14:34:30	10001	pm.simpleFrRight	blank.simpleFr	2	0	1587	1	0	14:34:30	435715	0	0	0	0	0	0	0	0	0	0	0	0	0	0	0	0	0
091812	14:34:30	10001	pm.simpleFrRight	pm.simpleFr	2	57	445	0	0	14:34:30	436195	0	0	0	0	0	0	0	0	0	0	0	0	0	0	0	0	0
091812	14:34:30	10001	pm.simpleFrRight	blank.simpleFr	2	0	1487	1	0	14:34:30	437714	0	0	0	0	0	0	0	0	0	0	0	0	0	0	0	0	0
091812	14:34:30	10001	pm.simpleFrRight	pm.simpleFr	2	57	322	0	0	14:34:30	438074	0	0	0	0	0	0	0	0	0	0	0	0	0	0	0	0	0
091812	14:34:30	10001	pm.simpleFrRight	blank.simpleFr	2	0	2087	1	0	14:34:30	440194	0	0	0	0	0	0	0	0	0	0	0	0	0	0	0	0	0
091812	14:34:30	10001	pm.simpleFrRight	pm.simpleFr	2	57	468	0	0	14:34:30	440702	0	0	0	0	0	0	0	0	0	0	0	0	0	0	0	0	0
091812	14:34:30	10001	pm.simpleFrRight	blank.simpleFr	2	0	2287	1	0	14:34:30	443019	0	0	0	0	0	0	0	0	0	0	0	0	0	0	0	0	0
091812	14:34:30	10001	pm.simpleFrRight	pm.simpleFr	2	57	511	0	0	14:34:30	443566	0	0	0	0	0	0	0	0	0	0	0	0	0	0	0	0	0
091812	14:34:30	10001	pm.simpleFrRight	blank.simpleFr	2	0	1887	1	0	14:34:30	445485	0	0	0	0	0	0	0	0	0	0	0	0	0	0	0	0	0
091812	14:34:30	10001	pm.simpleFrRight	pm.simpleFr	2	57	375	0	0	14:34:30	445898	0	0	0	0	0	0	0	0	0	0	0	0	0	0	0	0	0
091812	14:34:30	10001	pm.simpleFrRight	blank.simpleFr	2	0	2487	1	0	14:34:30	448417	0	0	0	0	0	0	0	0	0	0	0	0	0	0	0	0	0
091812	14:34:30	10001	pm.simpleFrRight	pm.simpleFr	2	57	324	0	0	14:34:30	448777	0	0	0	0	0	0	0	0	0	0	0	0	0	0	0	0	0
091812	14:34:30	10001	pm.simpleFrRight	blank.simpleFr	2	0	1787	1	0	14:34:30	450589	0	0	0	0	0	0	0	0	0	0	0	0	0	0	0	0	0
091812	14:34:30	10001	pm.simpleFrRight	pm.simpleFr	2	57	401	0	0	14:34:30	451031	0	0	0	0	0	0	0	0	0	0	0	0	0	0	0	0	0
091812	14:34:30	10001	pm.simpleFrRight	blank.simpleFr	2	0	1787	1	0	14:34:30	452842	0	0	0	0	0	0	0	0	0	0	0	0	0	0	0	0	0
091812	14:34:30	10001	pm.simpleFrRight	pm.simpleFr	2	57	280	0	0	14:34:30	453162	0	0	0	0	0	0	0	0	0	0	0	0	0	0	0	0	0
091812	14:34:30	10001	pm.simpleFrRight	blank.simpleFr	2	0	1687	1	0	14:34:30	454881	0	0	0	0	0	0	0	0	0	0	0	0	0	0	0	0	0
091812	14:34:30	10001	pm.simpleFrRight	pm.simpleFr	2	57	371	0	0	14:34:30	455294	0	0	0	0	0	0	0	0	0	0	0	0	0	0	0	0	0
091812	14:34:30	10001	pm.simpleFrRight	blank.simpleFr	2	0	1487	1	0	14:34:30	456813	0	0	0	0	0	0	0	0	0	0	0	0	0	0	0	0	0
091812	14:34:30	10001	pm.simpleFrRight	pm.simpleFr	2	57	326	0	0	14:34:30	457173	0	0	0	0	0	0	0	0	0	0	0	0	0	0	0	0	0
091812	14:34:30	10001	pm.simpleFrRight	blank.simpleFr	2	0	1587	1	0	14:34:30	458786	0	0	0	0	0	0	0	0	0	0	0	0	0	0	0	0	0
091812	14:34:30	10001	pm.simpleFrRight	pm.simpleFr	2	57	355	0	0	14:34:30	459173	0	0	0	0	0	0	0	0	0	0	0	0	0	0	0	0	0
091812	14:34:30	10001	pm.simpleFrRight	blank.simpleFr	2	0	1987	1	0	14:34:30	461185	0	0	0	0	0	0	0	0	0	0	0	0	0	0	0	0	0
091812	14:34:30	10001	pm.simpleFrRight	pm.simpleFr	2	57	354	0	0	14:34:30	461572	0	0	0	0	0	0	0	0	0	0	0	0	0	0	0	0	0
091812	14:34:30	10001	pm.simpleFrRight	blank.simpleFr	2	0	2187	1	0	14:34:30	463784	0	0	0	0	0	0	0	0	0	0	0	0	0	0	0	0	0
091812	14:34:30	10001	pm.simpleFrRight	pm.simpleFr	2	57	331	0	0	14:34:30	464157	0	0	0	0	0	0	0	0	0	0	0	0	0	0	0	0	0
091812	14:34:30	10001	pm.simpleFrRight	blank.simpleFr	2	0	2287	1	0	14:34:30	466476	0	0	0	0	0	0	0	0	0	0	0	0	0	0	0	0	0
091812	14:34:30	10001	pm.simpleFrRight	pm.simpleFr	2	57	385	0	0	14:34:30	466924	0	0	0	0	0	0	0	0	0	0	0	0	0	0	0	0	0
091812	14:34:30	10001	pm.simpleFrRight	blank.simpleFr	2	0	2487	1	0	14:34:30	469449	0	0	0	0	0	0	0	0	0	0	0	0	0	0	0	0	0
091812	14:34:30	10001	pm.simpleFrRight	pm.simpleFr	2	57	396	0	0	14:34:30	469889	0	0	0	0	0	0	0	0	0	0	0	0	0	0	0	0	0
091812	14:34:30	10001	pm.simpleFrRight	blank.simpleFr	2	0	2387	1	0	14:34:30	472314	0	0	0	0	0	0	0	0	0	0	0	0	0	0	0	0	0
091812	14:34:30	10001	pm.simpleFrRight	pm.simpleFr	2	57	313	0	0	14:34:30	472661	0	0	0	0	0	0	0	0	0	0	0	0	0	0	0	0	0
091812	14:34:30	10001	pm.simpleFrRight	blank.simpleFr	2	0	1887	1	0	14:34:30	474580	0	0	0	0	0	0	0	0	0	0	0	0	0	0	0	0	0
091812	14:34:30	10001	pm.simpleFrRight	pm.simpleFr	2	57	304	0	0	14:34:30	474926	0	0	0	0	0	0	0	0	0	0	0	0	0	0	0	0	0
091812	14:34:30	10001	pm.simpleFrRight	blank.simpleFr	2	0	2087	1	0	14:34:30	477046	0	0	0	0	0	0	0	0	0	0	0	0	0	0	0	0	0
091812	14:34:30	10001	pm.simpleFrRight	pm.simpleFr	2	57	303	0	0	14:34:30	477379	0	0	0	0	0	0	0	0	0	0	0	0	0	0	0	0	0
091812	14:34:30	10001	pm.simpleFrRight	blank.simpleFr	2	0	2187	1	0	14:34:30	479591	0	0	0	0	0	0	0	0	0	0	0	0	0	0	0	0	0
091812	14:34:30	10001	pm.simpleFrRight	pm.simpleFr	2	57	364	0	0	14:34:30	479991	0	0	0	0	0	0	0	0	0	0	0	0	0	0	0	0	0
091812	14:34:30	10001	pm.simpleFrRight	blank.simpleFr	2	0	2287	1	0	14:34:30	482310	0	0	0	0	0	0	0	0	0	0	0	0	0	0	0	0	0
091812	14:34:30	10001	pm.simpleFrRight	pm.simpleFr	2	57	406	0	0	14:34:30	482751	0	0	0	0	0	0	0	0	0	0	0	0	0	0	0	0	0
091812	14:34:30	10001	pm.simpleFrRight	blank.simpleFr	2	0	1587	1	0	14:34:30	484363	0	0	0	0	0	0	0	0	0	0	0	0	0	0	0	0	0
091812	14:34:30	10001	pm.simpleFrRight	pm.simpleFr	2	57	376	0	0	14:34:30	484806	0	0	0	0	0	0	0	0	0	0	0	0	0	0	0	0	0
091812	14:34:30	10001	pm.simpleFrRight	blank.simpleFr	2	0	2387	1	0	14:34:30	487228	0	0	0	0	0	0	0	0	0	0	0	0	0	0	0	0	0
091812	14:34:30	10001	pm.simpleFrRight	pm.simpleFr	2	57	328	0	0	14:34:30	487588	0	0	0	0	0	0	0	0	0	0	0	0	0	0	0	0	0
091812	14:34:30	10001	pm.simpleFrRight	blank.simpleFr	2	0	2087	1	0	14:34:30	489707	0	0	0	0	0	0	0	0	0	0	0	0	0	0	0	0	0
091812	14:34:30	10001	pm.simpleFrRight	pm.simpleFr	2	57	344	0	0	14:34:30	490094	0	0	0	0	0	0	0	0	0	0	0	0	0	0	0	0	0
091812	14:34:30	10001	pm.simpleFrRight	blank.simpleFr	2	0	1887	1	0	14:34:30	492013	0	0	0	0	0	0	0	0	0	0	0	0	0	0	0	0	0
091812	14:34:30	10001	pm.simpleFrRight	pm.simpleFr	2	57	342	0	0	14:34:30	492386	0	0	0	0	0	0	0	0	0	0	0	0	0	0	0	0	0
091812	14:34:30	10001	pm.simpleFrRight	blank.simpleFr	2	0	1687	1	0	14:34:30	494092	0	0	0	0	0	0	0	0	0	0	0	0	0	0	0	0	0
091812	14:34:30	10001	pm.simpleFrRight	pm.simpleFr	2	57	327	0	0	14:34:30	494452	0	0	0	0	0	0	0	0	0	0	0	0	0	0	0	0	0
091812	14:34:30	10001	pm.simpleFrRight	blank.simpleFr	2	0	1987	1	0	14:34:30	496465	0	0	0	0	0	0	0	0	0	0	0	0	0	0	0	0	0
091812	14:34:30	10001	pm.simpleFrRight	pm.simpleFr	2	57	338	0	0	14:34:30	496838	0	0	0	0	0	0	0	0	0	0	0	0	0	0	0	0	0
091812	14:34:30	10001	pm.simpleFrRight	blank.simpleFr	2	0	1787	1	0	14:34:30	498650	0	0	0	0	0	0	0	0	0	0	0	0	0	0	0	0	0
091812	14:34:30	10001	pm.simpleFrRight	pm.simpleFr	2	57	345	0	0	14:34:30	499037	0	0	0	0	0	0	0	0	0	0	0	0	0	0	0	0	0
091812	14:34:30	10001	pm.simpleFrRight	blank.simpleFr	2	0	1487	1	0	14:34:30	500556	0	0	0	0	0	0	0	0	0	0	0	0	0	0	0	0	0
091812	14:34:30	10001	pm.simpleFrRight	pm.simpleFr	2	57	343	0	0	14:34:30	500943	0	0	0	0	0	0	0	0	0	0	0	0	0	0	0	0	0
091812	14:34:30	10001	pm.simpleFrRight	blank.simpleFr	2	0	2487	1	0	14:34:30	503462	0	0	0	0	0	0	0	0	0	0	0	0	0	0	0	0	0
091812	14:34:30	10001	pm.simpleFrRight	pm.simpleFr	2	57	384	0	0	14:34:30	503889	0	0	0	0	0	0	0	0	0	0	0	0	0	0	0	0	0
091812	14:34:30	10001	pm.simpleFrRight	blank.simpleFr	2	0	2287	1	0	14:34:30	506207	0	0	0	0	0	0	0	0	0	0	0	0	0	0	0	0	0
091812	14:34:30	10001	pm.simpleFrRight	pm.simpleFr	2	57	309	0	0	14:34:30	506554	0	0	0	0	0	0	0	0	0	0	0	0	0	0	0	0	0
091812	14:34:30	10001	pm.simpleFrRight	blank.simpleFr	2	0	2487	1	0	14:34:30	509073	0	0	0	0	0	0	0	0	0	0	0	0	0	0	0	0	0
091812	14:34:30	10001	pm.simpleFrRight	pm.simpleFr	2	57	322	0	0	14:34:30	509433	0	0	0	0	0	0	0	0	0	0	0	0	0	0	0	0	0
091812	14:34:30	10001	pm.simpleFrRight	blank.simpleFr	2	0	1987	1	0	14:34:30	511445	0	0	0	0	0	0	0	0	0	0	0	0	0	0	0	0	0
091812	14:34:30	10001	pm.simpleFrRight	pm.simpleFr	2	57	319	0	0	14:34:30	511805	0	0	0	0	0	0	0	0	0	0	0	0	0	0	0	0	0
091812	14:34:30	10001	pm.simpleFrRight	blank.simpleFr	2	0	2187	1	0	14:34:30	514018	0	0	0	0	0	0	0	0	0	0	0	0	0	0	0	0	0
091812	14:34:30	10001	pm.simpleFrRight	pm.simpleFr	2	57	369	0	0	14:34:30	514431	0	0	0	0	0	0	0	0	0	0	0	0	0	0	0	0	0
091812	14:34:30	10001	pm.simpleFrRight	blank.simpleFr	2	0	1887	1	0	14:34:30	516350	0	0	0	0	0	0	0	0	0	0	0	0	0	0	0	0	0
091812	14:34:30	10001	pm.simpleFrRight	pm.simpleFr	2	57	388	0	0	14:34:30	516776	0	0	0	0	0	0	0	0	0	0	0	0	0	0	0	0	0
091812	14:34:30	10001	pm.simpleFrRight	blank.simpleFr	2	0	1487	1	0	14:34:30	518309	0	0	0	0	0	0	0	0	0	0	0	0	0	0	0	0	0
091812	14:34:30	10001	pm.simpleFrRight	pm.simpleFr	2	57	526	0	0	14:34:30	518869	0	0	0	0	0	0	0	0	0	0	0	0	0	0	0	0	0
091812	14:34:30	10001	pm.simpleFrRight	blank.simpleFr	2	0	2087	1	0	14:34:30	520988	0	0	0	0	0	0	0	0	0	0	0	0	0	0	0	0	0
091812	14:34:30	10001	pm.simpleFrRight	pm.simpleFr	2	57	344	0	0	14:34:30	521361	0	0	0	0	0	0	0	0	0	0	0	0	0	0	0	0	0
091812	14:34:30	10001	Trial2BackFr	N	3	0	1000	1	1	14:34:30	629292	0	0	0	0	0	0	0	0	0	0	0	0	0	0	0	0	0
091812	14:34:30	10001	Trial2BackFr	N	3	0	1000	1	2	14:34:30	630812	0	0	0	0	0	0	0	0	0	0	0	0	0	0	0	0	0
091812	14:34:30	10001	Trial2BackFr	N	3	0	1000	1	3	14:34:30	632331	0	0	0	0	0	0	0	0	0	0	0	0	0	0	0	0	0
091812	14:34:30	10001	Trial2BackFr	N	3	0	1000	1	4	14:34:30	633850	0	0	0	0	0	0	0	0	0	0	0	0	0	0	0	0	0
091812	14:34:30	10001	Trial2BackFr	N	3	0	1000	1	5	14:34:30	635370	0	0	0	0	0	0	0	0	0	0	0	0	0	0	0	0	0
091812	14:34:30	10001	Trial2BackFr	N	3	0	1000	1	6	14:34:30	636889	0	0	0	0	0	0	0	0	0	0	0	0	0	0	0	0	0
091812	14:34:30	10001	Trial2BackFr	N	3	0	1000	1	7	14:34:30	638409	0	0	0	0	0	0	0	0	0	0	0	0	0	0	0	0	0
091812	14:34:30	10001	Trial2BackFr	N	3	0	1000	1	8	14:34:30	639928	0	0	0	0	0	0	0	0	0	0	0	0	0	0	0	0	0
091812	14:34:30	10001	Trial2BackFr	Y	3	57	653	1	9	14:34:30	641114	0	0	0	0	0	0	0	0	0	0	0	0	0	0	0	0	0
091812	14:34:30	10001	Trial2BackFr	N	3	0	1000	1	10	14:34:30	642954	0	0	0	0	0	0	0	0	0	0	0	0	0	0	0	0	0
091812	14:34:30	10001	Trial2BackFr	N	3	0	1000	1	11	14:34:30	644500	0	0	0	0	0	0	0	0	0	0	0	0	0	0	0	0	0
091812	14:34:30	10001	Trial2BackFr	N	3	0	1000	1	12	14:34:30	646019	0	0	0	0	0	0	0	0	0	0	0	0	0	0	0	0	0
091812	14:34:30	10001	Trial2BackFr	Y	3	57	802	1	13	14:34:30	647352	0	0	0	0	0	0	0	0	0	0	0	0	0	0	0	0	0
091812	14:34:30	10001	Trial2BackFr	N	3	0	1000	1	14	14:34:30	649044	0	0	0	0	0	0	0	0	0	0	0	0	0	0	0	0	0
091812	14:34:30	10001	Trial2BackFr	N	3	0	1000	1	15	14:34:30	650564	0	0	0	0	0	0	0	0	0	0	0	0	0	0	0	0	0
091812	14:34:30	10001	Trial2BackFr	N	3	0	1000	1	16	14:34:30	652083	0	0	0	0	0	0	0	0	0	0	0	0	0	0	0	0	0
091812	14:34:30	10001	Trial2BackFr	N	3	0	1000	1	17	14:34:30	653603	0	0	0	0	0	0	0	0	0	0	0	0	0	0	0	0	0
091812	14:34:30	10001	Trial2BackFr	N	3	0	1000	1	18	14:34:30	655122	0	0	0	0	0	0	0	0	0	0	0	0	0	0	0	0	0
091812	14:34:30	10001	Trial2BackFr	Y	3	0	1000	0	18	14:34:30	656641	0	0	0	0	0	0	0	0	0	0	0	0	0	0	0	0	0
091812	14:34:30	10001	Trial2BackFr	N	3	0	1000	1	19	14:34:30	658161	0	0	0	0	0	0	0	0	0	0	0	0	0	0	0	0	0
091812	14:34:30	10001	Trial2BackFr	N	3	0	1000	1	20	14:34:30	659681	0	0	0	0	0	0	0	0	0	0	0	0	0	0	0	0	0
091812	14:34:30	10001	Trial2BackFr	N	3	0	1000	1	21	14:34:30	661200	0	0	0	0	0	0	0	0	0	0	0	0	0	0	0	0	0
091812	14:34:30	10001	Trial2BackFr	N	3	0	1000	1	22	14:34:30	662719	0	0	0	0	0	0	0	0	0	0	0	0	0	0	0	0	0
091812	14:34:30	10001	Trial2BackFr	Y	3	57	614	1	23	14:34:30	663865	0	0	0	0	0	0	0	0	0	0	0	0	0	0	0	0	0
091812	14:34:30	10001	Trial2BackFr	N	3	0	1000	1	24	14:34:30	665745	0	0	0	0	0	0	0	0	0	0	0	0	0	0	0	0	0
091812	14:34:30	10001	Trial2BackFr	N	3	0	1000	1	25	14:34:30	667277	0	0	0	0	0	0	0	0	0	0	0	0	0	0	0	0	0
091812	14:34:30	10001	Trial2BackFr	N	3	0	1000	1	26	14:34:30	668797	0	0	0	0	0	0	0	0	0	0	0	0	0	0	0	0	0
091812	14:34:30	10001	Trial2BackFr	N	3	0	1000	1	27	14:34:30	670316	0	0	0	0	0	0	0	0	0	0	0	0	0	0	0	0	0
091812	14:34:30	10001	Trial2BackFr	N	3	0	1000	1	28	14:34:30	671835	0	0	0	0	0	0	0	0	0	0	0	0	0	0	0	0	0
091812	14:34:30	10001	Trial2BackFr	N	3	0	1000	1	29	14:34:30	673355	0	0	0	0	0	0	0	0	0	0	0	0	0	0	0	0	0
091812	14:34:30	10001	Trial2BackFr	Y	3	57	636	1	30	14:34:30	674514	0	0	0	0	0	0	0	0	0	0	0	0	0	0	0	0	0
091812	14:34:30	10001	Trial2BackFr	N	3	0	1000	1	31	14:34:30	676380	0	0	0	0	0	0	0	0	0	0	0	0	0	0	0	0	0
091812	14:34:30	10001	Trial2BackFr	N	3	0	1000	1	32	14:34:30	677900	0	0	0	0	0	0	0	0	0	0	0	0	0	0	0	0	0
091812	14:34:30	10001	Trial2BackFr	N	3	0	1000	1	33	14:34:30	679419	0	0	0	0	0	0	0	0	0	0	0	0	0	0	0	0	0
091812	14:34:30	10001	Trial2BackFr	Y	3	57	532	1	34	14:34:30	680485	0	0	0	0	0	0	0	0	0	0	0	0	0	0	0	0	0
091812	14:34:30	10001	Trial2BackFr	N	3	0	1000	1	35	14:34:30	682445	0	0	0	0	0	0	0	0	0	0	0	0	0	0	0	0	0
091812	14:34:30	10001	Trial2BackFr	N	3	0	1000	1	36	14:34:30	683964	0	0	0	0	0	0	0	0	0	0	0	0	0	0	0	0	0
091812	14:34:30	10001	Trial2BackFr	N	3	0	1000	1	37	14:34:30	685483	0	0	0	0	0	0	0	0	0	0	0	0	0	0	0	0	0
091812	14:34:30	10001	Trial2BackFr	N	3	0	1000	1	38	14:34:30	687003	0	0	0	0	0	0	0	0	0	0	0	0	0	0	0	0	0
091812	14:34:30	10001	Trial2BackFr	N	3	0	1000	1	39	14:34:30	688522	0	0	0	0	0	0	0	0	0	0	0	0	0	0	0	0	0
091812	14:34:30	10001	Trial2BackFr	N	3	0	1000	1	40	14:34:30	690042	0	0	0	0	0	0	0	0	0	0	0	0	0	0	0	0	0
091812	14:34:30	10001	Trial2BackFr	Y	3	57	717	1	41	14:34:30	691281	0	0	0	0	0	0	0	0	0	0	0	0	0	0	0	0	0
091812	14:34:30	10001	Trial2BackFr	N	3	0	1000	1	42	14:34:30	693067	0	0	0	0	0	0	0	0	0	0	0	0	0	0	0	0	0
091812	14:34:30	10001	Trial2BackFr	N	3	0	1000	1	43	14:34:30	694587	0	0	0	0	0	0	0	0	0	0	0	0	0	0	0	0	0
091812	14:34:30	10001	Trial2BackFr	N	3	57	570	0	43	14:34:30	695693	0	0	0	0	0	0	0	0	0	0	0	0	0	0	0	0	0
091812	14:34:30	10001	Trial2BackFr	N	3	0	1000	1	44	14:34:30	697612	0	0	0	0	0	0	0	0	0	0	0	0	0	0	0	0	0
091812	14:34:30	10001	Trial2BackFr	Y	3	57	762	1	45	14:34:30	698905	0	0	0	0	0	0	0	0	0	0	0	0	0	0	0	0	0
091812	14:34:30	10001	Trial2BackFr	N	3	0	1000	1	46	14:34:30	700637	0	0	0	0	0	0	0	0	0	0	0	0	0	0	0	0	0
091812	14:34:30	10001	Trial2BackFr	N	3	0	1000	1	47	14:34:30	702157	0	0	0	0	0	0	0	0	0	0	0	0	0	0	0	0	0
091812	14:34:30	10001	Trial2BackFr	N	3	57	583	0	47	14:34:30	703276	0	0	0	0	0	0	0	0	0	0	0	0	0	0	0	0	0
091812	14:34:30	10001	Trial2BackFr	N	3	0	1000	1	48	14:34:30	705182	0	0	0	0	0	0	0	0	0	0	0	0	0	0	0	0	0
091812	14:34:30	10001	Trial2BackFr	N	3	0	1000	1	49	14:34:30	706702	0	0	0	0	0	0	0	0	0	0	0	0	0	0	0	0	0
091812	14:34:30	10001	Trial2BackFr	Y	3	57	489	1	50	14:34:30	707714	0	0	0	0	0	0	0	0	0	0	0	0	0	0	0	0	0
091812	14:34:30	10001	Trial2BackFr	N	3	0	1000	1	51	14:34:30	709727	0	0	0	0	0	0	0	0	0	0	0	0	0	0	0	0	0
091812	14:34:30	10001	Trial2BackFr	N	3	0	1000	1	52	14:34:30	711247	0	0	0	0	0	0	0	0	0	0	0	0	0	0	0	0	0
091812	14:34:30	10001	Trial2BackFr	N	3	0	1000	1	53	14:34:30	712779	0	0	0	0	0	0	0	0	0	0	0	0	0	0	0	0	0
091812	14:34:30	10001	Trial2BackFr	N	3	0	1000	1	54	14:34:30	714299	0	0	0	0	0	0	0	0	0	0	0	0	0	0	0	0	0
091812	14:34:30	10001	Trial2BackFr	N	3	0	1000	1	55	14:34:30	715818	0	0	0	0	0	0	0	0	0	0	0	0	0	0	0	0	0
091812	14:34:30	10001	Trial2BackFr	N	3	0	1000	1	56	14:34:30	717338	0	0	0	0	0	0	0	0	0	0	0	0	0	0	0	0	0
091812	14:34:30	10001	Trial2BackFr	Y	3	57	397	1	57	14:34:30	718257	0	0	0	0	0	0	0	0	0	0	0	0	0	0	0	0	0
091812	14:34:30	10001	Trial2BackFr	N	3	0	1000	1	58	14:34:30	720363	0	0	0	0	0	0	0	0	0	0	0	0	0	0	0	0	0
091812	14:34:30	10001	Trial2BackFr	N	3	0	1000	1	59	14:34:30	721882	0	0	0	0	0	0	0	0	0	0	0	0	0	0	0	0	0
091812	14:34:30	10001	Trial2BackFr	Y	3	57	620	1	60	14:34:30	723028	0	0	0	0	0	0	0	0	0	0	0	0	0	0	0	0	0
091812	14:34:30	10001	Trial2BackFr	N	3	0	1000	1	61	14:34:30	724908	0	0	0	0	0	0	0	0	0	0	0	0	0	0	0	0	0
091812	14:34:30	10001	Trial2BackFr	N	3	0	1000	1	62	14:34:30	726427	0	0	0	0	0	0	0	0	0	0	0	0	0	0	0	0	0
091812	14:34:30	10001	Trial2BackFr	N	3	0	1000	1	63	14:34:30	727947	0	0	0	0	0	0	0	0	0	0	0	0	0	0	0	0	0
091812	14:34:30	10001	Trial2BackFr	N	3	57	601	0	63	14:34:30	729080	0	0	0	0	0	0	0	0	0	0	0	0	0	0	0	0	0
091812	14:34:30	10001	Trial2BackFr	N	3	57	697	0	63	14:34:30	730679	0	0	0	0	0	0	0	0	0	0	0	0	0	0	0	0	0
091812	14:34:30	10001	Trial2BackFr	N	3	0	1000	1	64	14:34:30	732465	0	0	0	0	0	0	0	0	0	0	0	0	0	0	0	0	0
091812	14:34:30	10001	Trial2BackFr	N	3	0	1000	1	65	14:34:30	733984	0	0	0	0	0	0	0	0	0	0	0	0	0	0	0	0	0
091812	14:34:30	10001	Trial2BackFr	N	3	0	1000	1	66	14:34:30	735504	0	0	0	0	0	0	0	0	0	0	0	0	0	0	0	0	0
091812	14:34:30	10001	Trial2BackFr	N	3	0	1000	1	67	14:34:30	737023	0	0	0	0	0	0	0	0	0	0	0	0	0	0	0	0	0
091812	14:34:30	10001	Trial2BackFr	N	3	0	1000	1	68	14:34:30	738543	0	0	0	0	0	0	0	0	0	0	0	0	0	0	0	0	0
091812	14:34:30	10001	Trial2BackFr	Y	3	57	423	1	69	14:34:30	739489	0	0	0	0	0	0	0	0	0	0	0	0	0	0	0	0	0
091812	14:34:30	10001	Trial2BackFr	N	3	0	1000	1	70	14:34:30	741568	0	0	0	0	0	0	0	0	0	0	0	0	0	0	0	0	0
091812	14:34:30	10001	Trial2BackFr	N	3	0	1000	1	71	14:34:30	743087	0	0	0	0	0	0	0	0	0	0	0	0	0	0	0	0	0
091812	14:34:30	10001	Trial2BackFr	N	3	0	1000	1	72	14:34:30	744607	0	0	0	0	0	0	0	0	0	0	0	0	0	0	0	0	0
091812	14:34:30	10001	Trial2BackFr	Y	3	57	615	1	73	14:34:30	745753	0	0	0	0	0	0	0	0	0	0	0	0	0	0	0	0	0
091812	14:34:30	10001	Trial2BackFr	N	3	0	1000	1	74	14:34:30	747632	0	0	0	0	0	0	0	0	0	0	0	0	0	0	0	0	0
091812	14:34:30	10001	Trial2BackFr	N	3	0	1000	1	75	14:34:30	749152	0	0	0	0	0	0	0	0	0	0	0	0	0	0	0	0	0
091812	14:34:30	10001	Trial2BackFr	N	3	0	1000	1	76	14:34:30	750671	0	0	0	0	0	0	0	0	0	0	0	0	0	0	0	0	0
091812	14:34:30	10001	Trial2BackFr	N	3	0	1000	1	77	14:34:30	752190	0	0	0	0	0	0	0	0	0	0	0	0	0	0	0	0	0
091812	14:34:30	10001	Trial2BackFr	N	3	0	1000	1	78	14:34:30	753710	0	0	0	0	0	0	0	0	0	0	0	0	0	0	0	0	0
091812	14:34:30	10001	Trial2BackFr	Y	3	57	617	1	79	14:34:30	754869	0	0	0	0	0	0	0	0	0	0	0	0	0	0	0	0	0
091812	14:34:30	10001	Trial2BackFr	N	3	0	1000	1	80	14:34:30	756735	0	0	0	0	0	0	0	0	0	0	0	0	0	0	0	0	0
091812	14:34:30	10001	Trial2BackFr	N	3	0	1000	1	81	14:34:30	758255	0	0	0	0	0	0	0	0	0	0	0	0	0	0	0	0	0
091812	14:34:30	10001	Trial2BackFr	N	3	0	1000	1	82	14:34:30	759774	0	0	0	0	0	0	0	0	0	0	0	0	0	0	0	0	0
091812	14:34:30	10001	Trial2BackFr	N	3	0	1000	1	83	14:34:30	761293	0	0	0	0	0	0	0	0	0	0	0	0	0	0	0	0	0
091812	14:34:30	10001	Trial2BackFr	N	3	0	1000	1	84	14:34:30	762813	0	0	0	0	0	0	0	0	0	0	0	0	0	0	0	0	0
091812	14:34:30	10001	Trial2BackFr	N	3	0	1000	1	85	14:34:30	764332	0	0	0	0	0	0	0	0	0	0	0	0	0	0	0	0	0
091812	14:34:30	10001	Trial2BackFr	N	3	0	1000	1	86	14:34:30	765852	0	0	0	0	0	0	0	0	0	0	0	0	0	0	0	0	0
091812	14:34:30	10001	Trial2BackFr	N	3	0	1000	1	87	14:34:30	767371	0	0	0	0	0	0	0	0	0	0	0	0	0	0	0	0	0
091812	14:34:30	10001	Trial2BackFr	N	3	57	648	0	87	14:34:30	768544	0	0	0	0	0	0	0	0	0	0	0	0	0	0	0	0	0
091812	14:34:30	10001	Trial2BackFr	Y	3	57	872	1	88	14:34:30	770276	0	0	0	0	0	0	0	0	0	0	0	0	0	0	0	0	0
091812	14:34:30	10001	Trial2BackFr	N	3	0	1000	1	89	14:34:30	771903	0	0	0	0	0	0	0	0	0	0	0	0	0	0	0	0	0
091812	14:34:30	10001	Trial2BackFr	N	3	0	1000	1	90	14:34:30	773422	0	0	0	0	0	0	0	0	0	0	0	0	0	0	0	0	0
091812	14:34:30	10001	Trial2BackFr	N	3	0	1000	1	91	14:34:30	774941	0	0	0	0	0	0	0	0	0	0	0	0	0	0	0	0	0
091812	14:34:30	10001	Trial2BackFr	N	3	0	1000	1	92	14:34:30	776461	0	0	0	0	0	0	0	0	0	0	0	0	0	0	0	0	0
091812	14:34:30	10001	Trial2BackFr	N	3	0	1000	1	93	14:34:30	777980	0	0	0	0	0	0	0	0	0	0	0	0	0	0	0	0	0
091812	14:34:30	10001	Trial2BackFr	N	3	0	1000	1	94	14:34:30	779500	0	0	0	0	0	0	0	0	0	0	0	0	0	0	0	0	0
091812	14:34:30	10001	Trial2BackFr	N	3	0	1000	1	95	14:34:30	781019	0	0	0	0	0	0	0	0	0	0	0	0	0	0	0	0	0
091812	14:34:30	10001	Trial2BackFr	N	3	0	1000	1	96	14:34:30	782538	0	0	0	0	0	0	0	0	0	0	0	0	0	0	0	0	0
091812	14:34:30	10001	Trial2BackFr	Y	3	57	521	1	97	14:34:30	783591	0	0	0	0	0	0	0	0	0	0	0	0	0	0	0	0	0
091812	14:34:30	10001	Trial2BackFr	N	3	0	1000	1	98	14:34:30	785564	0	0	0	0	0	0	0	0	0	0	0	0	0	0	0	0	0
091812	14:34:30	10001	Trial2BackFr	N	3	0	1000	1	99	14:34:30	787083	0	0	0	0	0	0	0	0	0	0	0	0	0	0	0	0	0
091812	14:34:30	10001	Trial2BackFr	N	3	0	1000	1	100	14:34:30	788603	0	0	0	0	0	0	0	0	0	0	0	0	0	0	0	0	0
091812	14:34:30	10001	Trial2BackFr	N	3	57	632	0	100	14:34:30	789762	0	0	0	0	0	0	0	0	0	0	0	0	0	0	0	0	0
091812	14:34:30	10001	Trial2BackFr	Y	3	0	1000	0	100	14:34:30	791628	0	0	0	0	0	0	0	0	0	0	0	0	0	0	0	0	0
091812	14:34:30	10001	Trial2BackFr	N	3	0	1000	1	101	14:34:30	793148	0	0	0	0	0	0	0	0	0	0	0	0	0	0	0	0	0
091812	14:34:30	10001	Trial2BackFr	N	3	0	1000	1	102	14:34:30	794667	0	0	0	0	0	0	0	0	0	0	0	0	0	0	0	0	0
091812	14:34:30	10001	Trial2BackFr	N	3	0	1000	1	103	14:34:30	796200	0	0	0	0	0	0	0	0	0	0	0	0	0	0	0	0	0
091812	14:34:30	10001	Trial2BackFr	Y	3	57	429	1	104	14:34:30	797159	0	0	0	0	0	0	0	0	0	0	0	0	0	0	0	0	0
091812	14:34:30	10001	Trial2BackFr	N	3	0	1000	1	105	14:34:30	799225	0	0	0	0	0	0	0	0	0	0	0	0	0	0	0	0	0
091812	14:34:30	10001	Trial2BackFr	N	3	0	1000	1	106	14:34:30	800745	0	0	0	0	0	0	0	0	0	0	0	0	0	0	0	0	0
091812	14:34:30	10001	Trial2BackFr	N	3	0	1000	1	107	14:34:30	802264	0	0	0	0	0	0	0	0	0	0	0	0	0	0	0	0	0
091812	14:34:30	10001	Trial2BackFr	N	3	0	1000	1	108	14:34:30	803783	0	0	0	0	0	0	0	0	0	0	0	0	0	0	0	0	0
091812	14:34:30	10001	Trial2BackFr	N	3	0	1000	1	109	14:34:30	805303	0	0	0	0	0	0	0	0	0	0	0	0	0	0	0	0	0
091812	14:34:30	10001	Trial2BackFr	Y	3	57	700	1	110	14:34:30	806529	0	0	0	0	0	0	0	0	0	0	0	0	0	0	0	0	0
091812	14:34:30	10001	Trial2BackFr	N	3	0	1000	1	111	14:34:30	808328	0	0	0	0	0	0	0	0	0	0	0	0	0	0	0	0	0
091812	14:34:30	10001	Trial2BackFr	N	3	0	1000	1	112	14:34:30	809848	0	0	0	0	0	0	0	0	0	0	0	0	0	0	0	0	0
091812	14:34:30	10001	Trial2BackFr	N	3	0	1000	1	113	14:34:30	811367	0	0	0	0	0	0	0	0	0	0	0	0	0	0	0	0	0
091812	14:34:30	10001	Trial2BackFr	Y	3	57	556	1	114	14:34:30	812446	0	0	0	0	0	0	0	0	0	0	0	0	0	0	0	0	0
091812	14:34:30	10001	Trial3BackFr	NN	4	0	1000	1	114	14:34:30	858748	0	0	0	0	0	0	0	0	0	0	0	0	0	0	0	0	0
091812	14:34:30	10001	Trial3BackFr	NN	4	0	1000	1	114	14:34:30	860267	0	0	0	0	0	0	0	0	0	0	0	0	0	0	0	0	0
091812	14:34:30	10001	Trial3BackFr	NN	4	0	1000	1	114	14:34:30	861787	0	0	0	0	0	0	0	0	0	0	0	0	0	0	0	0	0
091812	14:34:30	10001	Trial3BackFr	YY	4	57	423	1	114	14:34:30	862747	0	0	0	0	0	0	0	0	0	0	0	0	0	0	0	0	0
091812	14:34:30	10001	Trial3BackFr	NN	4	0	1000	1	114	14:34:30	864813	0	0	0	0	0	0	0	0	0	0	0	0	0	0	0	0	0
091812	14:34:30	10001	Trial3BackFr	NN	4	0	1000	1	114	14:34:30	866332	0	0	0	0	0	0	0	0	0	0	0	0	0	0	0	0	0
091812	14:34:30	10001	Trial3BackFr	NN	4	0	1000	1	114	14:34:30	867851	0	0	0	0	0	0	0	0	0	0	0	0	0	0	0	0	0
091812	14:34:30	10001	Trial3BackFr	NN	4	0	1000	1	114	14:34:30	869371	0	0	0	0	0	0	0	0	0	0	0	0	0	0	0	0	0
091812	14:34:30	10001	Trial3BackFr	YY	4	57	534	1	114	14:34:30	870437	0	0	0	0	0	0	0	0	0	0	0	0	0	0	0	0	0
091812	14:34:30	10001	Trial3BackFr	NN	4	0	1000	1	114	14:34:30	872410	0	0	0	0	0	0	0	0	0	0	0	0	0	0	0	0	0
091812	14:34:30	10001	Trial3BackFr	NN	4	0	1000	1	114	14:34:30	873929	0	0	0	0	0	0	0	0	0	0	0	0	0	0	0	0	0
091812	14:34:30	10001	Trial3BackFr	NN	4	0	1000	1	114	14:34:30	875448	0	0	0	0	0	0	0	0	0	0	0	0	0	0	0	0	0
091812	14:34:30	10001	Trial3BackFr	NN	4	0	1000	1	114	14:34:30	876968	0	0	0	0	0	0	0	0	0	0	0	0	0	0	0	0	0
091812	14:34:30	10001	Trial3BackFr	NN	4	0	1000	1	114	14:34:30	878487	0	0	0	0	0	0	0	0	0	0	0	0	0	0	0	0	0
091812	14:34:30	10001	Trial3BackFr	NN	4	0	1000	1	114	14:34:30	880007	0	0	0	0	0	0	0	0	0	0	0	0	0	0	0	0	0
091812	14:34:30	10001	Trial3BackFr	NN	4	0	1000	1	114	14:34:30	881526	0	0	0	0	0	0	0	0	0	0	0	0	0	0	0	0	0
091812	14:34:30	10001	Trial3BackFr	YY	4	0	1000	0	114	14:34:30	883045	0	0	0	0	0	0	0	0	0	0	0	0	0	0	0	0	0
091812	14:34:30	10001	Trial3BackFr	NN	4	0	1000	1	114	14:34:30	884565	0	0	0	0	0	0	0	0	0	0	0	0	0	0	0	0	0
091812	14:34:30	10001	Trial3BackFr	NN	4	0	1000	1	114	14:34:30	886084	0	0	0	0	0	0	0	0	0	0	0	0	0	0	0	0	0
091812	14:34:30	10001	Trial3BackFr	NN	4	0	1000	1	114	14:34:30	887604	0	0	0	0	0	0	0	0	0	0	0	0	0	0	0	0	0
091812	14:34:30	10001	Trial3BackFr	NN	4	0	1000	1	114	14:34:30	889123	0	0	0	0	0	0	0	0	0	0	0	0	0	0	0	0	0
091812	14:34:30	10001	Trial3BackFr	NN	4	0	1000	1	114	14:34:30	890642	0	0	0	0	0	0	0	0	0	0	0	0	0	0	0	0	0
091812	14:34:30	10001	Trial3BackFr	YY	4	57	527	1	114	14:34:30	891695	0	0	0	0	0	0	0	0	0	0	0	0	0	0	0	0	0
091812	14:34:30	10001	Trial3BackFr	NN	4	0	1000	1	114	14:34:30	893668	0	0	0	0	0	0	0	0	0	0	0	0	0	0	0	0	0
091812	14:34:30	10001	Trial3BackFr	NN	4	0	1000	1	114	14:34:30	895200	0	0	0	0	0	0	0	0	0	0	0	0	0	0	0	0	0
091812	14:34:30	10001	Trial3BackFr	NN	4	0	1000	1	114	14:34:30	896720	0	0	0	0	0	0	0	0	0	0	0	0	0	0	0	0	0
091812	14:34:30	10001	Trial3BackFr	YY	4	0	1000	0	114	14:34:30	898239	0	0	0	0	0	0	0	0	0	0	0	0	0	0	0	0	0
091812	14:34:30	10001	Trial3BackFr	NN	4	0	1000	1	114	14:34:30	899759	0	0	0	0	0	0	0	0	0	0	0	0	0	0	0	0	0
091812	14:34:30	10001	Trial3BackFr	NN	4	0	1000	1	114	14:34:30	901278	0	0	0	0	0	0	0	0	0	0	0	0	0	0	0	0	0
091812	14:34:30	10001	Trial3BackFr	NN	4	0	1000	1	114	14:34:30	902797	0	0	0	0	0	0	0	0	0	0	0	0	0	0	0	0	0
091812	14:34:30	10001	Trial3BackFr	YY	4	57	580	1	114	14:34:30	903904	0	0	0	0	0	0	0	0	0	0	0	0	0	0	0	0	0
091812	14:34:30	10001	Trial3BackFr	NN	4	0	1000	1	114	14:34:30	905823	0	0	0	0	0	0	0	0	0	0	0	0	0	0	0	0	0
091812	14:34:30	10001	Trial3BackFr	NN	4	0	1000	1	114	14:34:30	907342	0	0	0	0	0	0	0	0	0	0	0	0	0	0	0	0	0
091812	14:34:30	10001	Trial3BackFr	NN	4	0	1000	1	114	14:34:30	908862	0	0	0	0	0	0	0	0	0	0	0	0	0	0	0	0	0
091812	14:34:30	10001	Trial3BackFr	NN	4	0	1000	1	114	14:34:30	910381	0	0	0	0	0	0	0	0	0	0	0	0	0	0	0	0	0
091812	14:34:30	10001	Trial3BackFr	NN	4	0	1000	1	114	14:34:30	911901	0	0	0	0	0	0	0	0	0	0	0	0	0	0	0	0	0
091812	14:34:30	10001	Trial3BackFr	NN	4	0	1000	1	114	14:34:30	913420	0	0	0	0	0	0	0	0	0	0	0	0	0	0	0	0	0
091812	14:34:30	10001	Trial3BackFr	NN	4	57	647	0	114	14:34:30	914593	0	0	0	0	0	0	0	0	0	0	0	0	0	0	0	0	0
091812	14:34:30	10001	Trial3BackFr	NN	4	0	1000	1	114	14:34:30	916446	0	0	0	0	0	0	0	0	0	0	0	0	0	0	0	0	0
091812	14:34:30	10001	Trial3BackFr	NN	4	0	1000	1	114	14:34:30	917965	0	0	0	0	0	0	0	0	0	0	0	0	0	0	0	0	0
091812	14:34:30	10001	Trial3BackFr	NN	4	0	1000	1	114	14:34:30	919484	0	0	0	0	0	0	0	0	0	0	0	0	0	0	0	0	0
091812	14:34:30	10001	Trial3BackFr	YY	4	57	855	1	114	14:34:30	920871	0	0	0	0	0	0	0	0	0	0	0	0	0	0	0	0	0
091812	14:34:30	10001	Trial3BackFr	NN	4	0	1000	1	114	14:34:30	922510	0	0	0	0	0	0	0	0	0	0	0	0	0	0	0	0	0
091812	14:34:30	10001	Trial3BackFr	NN	4	0	1000	1	114	14:34:30	924029	0	0	0	0	0	0	0	0	0	0	0	0	0	0	0	0	0
091812	14:34:30	10001	Trial3BackFr	NN	4	0	1000	1	114	14:34:30	925549	0	0	0	0	0	0	0	0	0	0	0	0	0	0	0	0	0
091812	14:34:30	10001	Trial3BackFr	NN	4	0	1000	1	114	14:34:30	927068	0	0	0	0	0	0	0	0	0	0	0	0	0	0	0	0	0
091812	14:34:30	10001	Trial3BackFr	YY	4	57	631	1	114	14:34:30	928228	0	0	0	0	0	0	0	0	0	0	0	0	0	0	0	0	0
091812	14:34:30	10001	Trial3BackFr	NN	4	0	1000	1	114	14:34:30	930093	0	0	0	0	0	0	0	0	0	0	0	0	0	0	0	0	0
091812	14:34:30	10001	Trial3BackFr	NN	4	0	1000	1	114	14:34:30	931613	0	0	0	0	0	0	0	0	0	0	0	0	0	0	0	0	0
091812	14:34:30	10001	Trial3BackFr	NN	4	0	1000	1	114	14:34:30	933132	0	0	0	0	0	0	0	0	0	0	0	0	0	0	0	0	0
091812	14:34:30	10001	Trial3BackFr	NN	4	0	1000	1	114	14:34:30	934652	0	0	0	0	0	0	0	0	0	0	0	0	0	0	0	0	0
091812	14:34:30	10001	Trial3BackFr	NN	4	0	1000	1	114	14:34:30	936171	0	0	0	0	0	0	0	0	0	0	0	0	0	0	0	0	0
091812	14:34:30	10001	Trial3BackFr	YY	4	57	456	1	114	14:34:30	937157	0	0	0	0	0	0	0	0	0	0	0	0	0	0	0	0	0
091812	14:34:30	10001	Trial3BackFr	NN	4	0	1000	1	114	14:34:30	939197	0	0	0	0	0	0	0	0	0	0	0	0	0	0	0	0	0
091812	14:34:30	10001	Trial3BackFr	NN	4	0	1000	1	114	14:34:30	940716	0	0	0	0	0	0	0	0	0	0	0	0	0	0	0	0	0
091812	14:34:30	10001	Trial3BackFr	NN	4	0	1000	1	114	14:34:30	942235	0	0	0	0	0	0	0	0	0	0	0	0	0	0	0	0	0
091812	14:34:30	10001	Trial3BackFr	NN	4	0	1000	1	114	14:34:30	943755	0	0	0	0	0	0	0	0	0	0	0	0	0	0	0	0	0
091812	14:34:30	10001	Trial3BackFr	NN	4	0	1000	1	114	14:34:30	945274	0	0	0	0	0	0	0	0	0	0	0	0	0	0	0	0	0
091812	14:34:30	10001	Trial3BackFr	NN	4	57	663	0	114	14:34:30	946460	0	0	0	0	0	0	0	0	0	0	0	0	0	0	0	0	0
091812	14:34:30	10001	Trial3BackFr	YY	4	0	1000	0	114	14:34:30	948300	0	0	0	0	0	0	0	0	0	0	0	0	0	0	0	0	0
091812	14:34:30	10001	Trial3BackFr	NN	4	0	1000	1	114	14:34:30	949819	0	0	0	0	0	0	0	0	0	0	0	0	0	0	0	0	0
091812	14:34:30	10001	Trial3BackFr	NN	4	0	1000	1	114	14:34:30	951365	0	0	0	0	0	0	0	0	0	0	0	0	0	0	0	0	0
091812	14:34:30	10001	Trial3BackFr	NN	4	0	1000	1	114	14:34:30	952884	0	0	0	0	0	0	0	0	0	0	0	0	0	0	0	0	0
091812	14:34:30	10001	Trial3BackFr	YY	4	57	540	1	114	14:34:30	953951	0	0	0	0	0	0	0	0	0	0	0	0	0	0	0	0	0
091812	14:34:30	10001	Trial3BackFr	NN	4	0	1000	1	114	14:34:30	955910	0	0	0	0	0	0	0	0	0	0	0	0	0	0	0	0	0
091812	14:34:30	10001	Trial3BackFr	NN	4	0	1000	1	114	14:34:30	957429	0	0	0	0	0	0	0	0	0	0	0	0	0	0	0	0	0
091812	14:34:30	10001	Trial3BackFr	NN	4	0	1000	1	114	14:34:30	958949	0	0	0	0	0	0	0	0	0	0	0	0	0	0	0	0	0
091812	14:34:30	10001	Trial3BackFr	NN	4	0	1000	1	114	14:34:30	960468	0	0	0	0	0	0	0	0	0	0	0	0	0	0	0	0	0
091812	14:34:30	10001	Trial3BackFr	NN	4	0	1000	1	114	14:34:30	961988	0	0	0	0	0	0	0	0	0	0	0	0	0	0	0	0	0
091812	14:34:30	10001	Trial3BackFr	NN	4	57	589	0	114	14:34:30	963107	0	0	0	0	0	0	0	0	0	0	0	0	0	0	0	0	0
091812	14:34:30	10001	Trial3BackFr	NN	4	0	1000	1	114	14:34:30	965013	0	0	0	0	0	0	0	0	0	0	0	0	0	0	0	0	0
091812	14:34:30	10001	Trial3BackFr	NN	4	0	1000	1	114	14:34:30	966532	0	0	0	0	0	0	0	0	0	0	0	0	0	0	0	0	0
091812	14:34:30	10001	Trial3BackFr	NN	4	0	1000	1	114	14:34:30	968052	0	0	0	0	0	0	0	0	0	0	0	0	0	0	0	0	0
091812	14:34:30	10001	Trial3BackFr	YY	4	57	735	1	114	14:34:30	969318	0	0	0	0	0	0	0	0	0	0	0	0	0	0	0	0	0
091812	14:34:30	10001	Trial3BackFr	NN	4	0	1000	1	114	14:34:30	971077	0	0	0	0	0	0	0	0	0	0	0	0	0	0	0	0	0
091812	14:34:30	10001	Trial3BackFr	NN	4	0	1000	1	114	14:34:30	972597	0	0	0	0	0	0	0	0	0	0	0	0	0	0	0	0	0
091812	14:34:30	10001	Trial3BackFr	NN	4	0	1000	1	114	14:34:30	974129	0	0	0	0	0	0	0	0	0	0	0	0	0	0	0	0	0
091812	14:34:30	10001	Trial3BackFr	YY	4	57	929	1	114	14:34:30	975582	0	0	0	0	0	0	0	0	0	0	0	0	0	0	0	0	0
091812	14:34:30	10001	Trial3BackFr	NN	4	0	1000	1	114	14:34:30	977155	0	0	0	0	0	0	0	0	0	0	0	0	0	0	0	0	0
091812	14:34:30	10001	Trial3BackFr	NN	4	0	1000	1	114	14:34:30	978674	0	0	0	0	0	0	0	0	0	0	0	0	0	0	0	0	0
091812	14:34:30	10001	Trial3BackFr	NN	4	0	1000	1	114	14:34:30	980194	0	0	0	0	0	0	0	0	0	0	0	0	0	0	0	0	0
091812	14:34:30	10001	Trial3BackFr	NN	4	57	831	0	114	14:34:30	981553	0	0	0	0	0	0	0	0	0	0	0	0	0	0	0	0	0
091812	14:34:30	10001	Trial3BackFr	NN	4	0	1000	1	114	14:34:30	983219	0	0	0	0	0	0	0	0	0	0	0	0	0	0	0	0	0
091812	14:34:30	10001	Trial3BackFr	YY	4	0	1000	0	114	14:34:30	984739	0	0	0	0	0	0	0	0	0	0	0	0	0	0	0	0	0
091812	14:34:30	10001	Trial3BackFr	NN	4	0	1000	1	114	14:34:30	986258	0	0	0	0	0	0	0	0	0	0	0	0	0	0	0	0	0
091812	14:34:30	10001	Trial3BackFr	NN	4	0	1000	1	114	14:34:30	987777	0	0	0	0	0	0	0	0	0	0	0	0	0	0	0	0	0
091812	14:34:30	10001	Trial3BackFr	NN	4	0	1000	1	114	14:34:30	989297	0	0	0	0	0	0	0	0	0	0	0	0	0	0	0	0	0
091812	14:34:30	10001	Trial3BackFr	NN	4	57	685	0	114	14:34:30	990510	0	0	0	0	0	0	0	0	0	0	0	0	0	0	0	0	0
091812	14:34:30	10001	Trial3BackFr	NN	4	0	1000	1	114	14:34:30	992322	0	0	0	0	0	0	0	0	0	0	0	0	0	0	0	0	0
091812	14:34:30	10001	Trial3BackFr	NN	4	0	1000	1	114	14:34:30	993842	0	0	0	0	0	0	0	0	0	0	0	0	0	0	0	0	0
091812	14:34:30	10001	Trial3BackFr	NN	4	0	1000	1	114	14:34:30	995361	0	0	0	0	0	0	0	0	0	0	0	0	0	0	0	0	0
091812	14:34:30	10001	Trial3BackFr	NN	4	0	1000	1	114	14:34:30	996880	0	0	0	0	0	0	0	0	0	0	0	0	0	0	0	0	0
091812	14:34:30	10001	Trial3BackFr	NN	4	0	1000	1	114	14:34:30	998400	0	0	0	0	0	0	0	0	0	0	0	0	0	0	0	0	0
091812	14:34:30	10001	Trial3BackFr	YY	4	57	610	1	114	14:34:30	999532	0	0	0	0	0	0	0	0	0	0	0	0	0	0	0	0	0
091812	14:34:30	10001	Trial3BackFr	NN	4	0	1000	1	114	14:34:30	1001425	0	0	0	0	0	0	0	0	0	0	0	0	0	0	0	0	0
091812	14:34:30	10001	Trial3BackFr	NN	4	0	1000	1	114	14:34:30	1002945	0	0	0	0	0	0	0	0	0	0	0	0	0	0	0	0	0
091812	14:34:30	10001	Trial3BackFr	NN	4	0	1000	1	114	14:34:30	1004464	0	0	0	0	0	0	0	0	0	0	0	0	0	0	0	0	0
091812	14:34:30	10001	Trial3BackFr	NN	4	0	1000	1	114	14:34:30	1005984	0	0	0	0	0	0	0	0	0	0	0	0	0	0	0	0	0
091812	14:34:30	10001	Trial3BackFr	NN	4	0	1000	1	114	14:34:30	1007503	0	0	0	0	0	0	0	0	0	0	0	0	0	0	0	0	0
091812	14:34:30	10001	Trial3BackFr	NN	4	0	1000	1	114	14:34:30	1009022	0	0	0	0	0	0	0	0	0	0	0	0	0	0	0	0	0
091812	14:34:30	10001	Trial3BackFr	NN	4	57	596	0	114	14:34:30	1010142	0	0	0	0	0	0	0	0	0	0	0	0	0	0	0	0	0
091812	14:34:30	10001	Trial3BackFr	NN	4	0	1000	1	114	14:34:30	1012048	0	0	0	0	0	0	0	0	0	0	0	0	0	0	0	0	0
091812	14:34:30	10001	Trial3BackFr	YY	4	0	1000	0	114	14:34:30	1013567	0	0	0	0	0	0	0	0	0	0	0	0	0	0	0	0	0
091812	14:34:30	10001	Trial3BackFr	NN	4	0	1000	1	114	14:34:30	1015087	0	0	0	0	0	0	0	0	0	0	0	0	0	0	0	0	0
091812	14:34:30	10001	Trial3BackFr	NN	4	0	1000	1	114	14:34:30	1016606	0	0	0	0	0	0	0	0	0	0	0	0	0	0	0	0	0
091812	14:34:30	10001	Trial3BackFr	NN	4	0	1000	1	114	14:34:30	1018125	0	0	0	0	0	0	0	0	0	0	0	0	0	0	0	0	0
091812	14:34:30	10001	Trial3BackFr	NN	4	57	899	0	114	14:34:30	1019551	0	0	0	0	0	0	0	0	0	0	0	0	0	0	0	0	0
091812	14:34:30	10001	Trial3BackFr	YY	4	0	1000	0	114	14:34:30	1021151	0	0	0	0	0	0	0	0	0	0	0	0	0	0	0	0	0
091812	14:34:30	10001	Trial3BackFr	NN	4	0	1000	1	114	14:34:30	1022670	0	0	0	0	0	0	0	0	0	0	0	0	0	0	0	0	0
091812	14:34:30	10001	Trial3BackFr	NN	4	0	1000	1	114	14:34:30	1024190	0	0	0	0	0	0	0	0	0	0	0	0	0	0	0	0	0
091812	14:34:30	10001	Trial3BackFr	NN	4	0	1000	1	114	14:34:30	1025709	0	0	0	0	0	0	0	0	0	0	0	0	0	0	0	0	0
091812	14:34:30	10001	Trial3BackFr	YY	4	57	771	1	114	14:34:30	1027015	0	0	0	0	0	0	0	0	0	0	0	0	0	0	0	0	0
091812	14:34:30	10001	Trial3BackFr	NN	4	0	1000	1	114	14:34:30	1028735	0	0	0	0	0	0	0	0	0	0	0	0	0	0	0	0	0
091812	14:34:30	10001	Trial3BackFr	NN	4	0	1000	1	114	14:34:30	1030254	0	0	0	0	0	0	0	0	0	0	0	0	0	0	0	0	0
091812	14:34:30	10001	Trial3BackFr	NN	4	0	1000	1	114	14:34:30	1031773	0	0	0	0	0	0	0	0	0	0	0	0	0	0	0	0	0
091812	14:34:30	10001	Trial3BackFr	NN	4	57	804	0	114	14:34:30	1033106	0	0	0	0	0	0	0	0	0	0	0	0	0	0	0	0	0
091812	14:34:30	10001	Trial3BackFr	NN	4	0	1000	1	114	14:34:30	1034799	0	0	0	0	0	0	0	0	0	0	0	0	0	0	0	0	0
091812	14:34:30	10001	Trial3BackFr	YY	4	0	1000	0	114	14:34:30	1036318	0	0	0	0	0	0	0	0	0	0	0	0	0	0	0	0	0
091812	14:34:30	10001	Trial3BackFr	NN	4	0	1000	1	114	14:34:30	1037838	0	0	0	0	0	0	0	0	0	0	0	0	0	0	0	0	0
091812	14:34:30	10001	Trial3BackFr	NN	4	0	1000	1	114	14:34:30	1039357	0	0	0	0	0	0	0	0	0	0	0	0	0	0	0	0	0
091812	14:34:30	10001	Trial3BackFr	NN	4	57	963	0	114	14:34:30	1040850	0	0	0	0	0	0	0	0	0	0	0	0	0	0	0	0	0
091812	14:34:30	10001	Trial3BackFr	YY	4	57	736	1	114	14:34:30	1042129	0	0	0	0	0	0	0	0	0	0	0	0	0	0	0	0	0
091812	14:34:30	10001	Memory1R6moFr	ScoreFr	5	M7	19307	0	114	14:34:30	1090884	0	0	0	0	0	0	0	0	0	0	0	0	0	0	0	0	0
091812	14:34:30	10001	Memory1R6moFr	ScoreFr	5	M8	298	0	114	14:34:30	1091217	0	0	0	0	0	0	0	0	0	0	0	0	0	0	0	0	0
091812	14:34:30	10001	Memory1R6moFr	ScoreFr	5	Done	5749	0	114	14:34:30	1097001	0	0	0	0	0	0	0	0	0	0	0	0	0	0	0	0	0
091812	14:34:30	10001	Memory2R6moFr	ScoreFr2	5	11	14804	0	114	14:34:30	1130281	0	0	0	0	0	0	0	0	0	0	0	0	0	0	0	0	0
091812	14:34:30	10001	Memory2R6moFr	ScoreFr2	5	33	408	0	114	14:34:30	1130737	0	0	0	0	0	0	0	0	0	0	0	0	0	0	0	0	0
091812	14:34:30	10001	Memory2R6moFr	ScoreFr2	5	44	200	0	114	14:34:30	1130974	0	0	0	0	0	0	0	0	0	0	0	0	0	0	0	0	0
091812	14:34:30	10001	Memory2R6moFr	ScoreFr2	5	77	1710	0	114	14:34:30	1132720	0	0	0	0	0	0	0	0	0	0	0	0	0	0	0	0	0
091812	14:34:30	10001	Memory2R6moFr	ScoreFr2	5	88	179	0	114	14:34:30	1132947	0	0	0	0	0	0	0	0	0	0	0	0	0	0	0	0	0
091812	14:34:30	10001	Memory2R6moFr	ScoreFr2	5	Done	419	0	114	14:34:30	1133402	0	0	0	0	0	0	0	0	0	0	0	0	0	0	0	0	0
091812	14:34:30	10001	Memory3R6moFr	ScoreFr3	5	111	23357	0	114	14:34:30	1175837	0	0	0	0	0	0	0	0	0	0	0	0	0	0	0	0	0
091812	14:34:30	10001	Memory3R6moFr	ScoreFr3	5	333	479	0	114	14:34:30	1176359	0	0	0	0	0	0	0	0	0	0	0	0	0	0	0	0	0
091812	14:34:30	10001	Memory3R6moFr	ScoreFr3	5	444	232	0	114	14:34:30	1176623	0	0	0	0	0	0	0	0	0	0	0	0	0	0	0	0	0
091812	14:34:30	10001	Memory3R6moFr	ScoreFr3	5	555	387	0	114	14:34:30	1177050	0	0	0	0	0	0	0	0	0	0	0	0	0	0	0	0	0
091812	14:34:30	10001	Memory3R6moFr	ScoreFr3	5	777	1673	0	114	14:34:30	1178769	0	0	0	0	0	0	0	0	0	0	0	0	0	0	0	0	0
091812	14:34:30	10001	Memory3R6moFr	ScoreFr3	5	888	227	0	114	14:34:30	1179035	0	0	0	0	0	0	0	0	0	0	0	0	0	0	0	0	0
091812	14:34:30	10001	Memory3R6moFr	ScoreFr3	5	Done	298	0	114	14:34:30	1179369	0	0	0	0	0	0	0	0	0	0	0	0	0	0	0	0	0
091812	14:34:30	10001	LoriaFrLH3	Stop	6	3	5548	0	114	14:34:30	1282330	0	0	0	0	0	0	0	0	0	0	0	0	0	0	0	0	0
091812	14:34:30	10001	FrTrail	Trails	7	1Trails	1182	0	114	14:34:30	1302520	0	0	0	0	0	0	0	0	0	0	0	0	0	0	0	0	0
091812	14:34:30	10001	Serial7Fr6mo	Serial7Fr6mo	8	73	2910	0	114	14:34:30	1359059	1	0	0	0	0	0	0	0	0	0	0	0	0	0	0	0	0
091812	14:34:30	10001	Serial7Fr6mo	Serial7Fr6mo	8	66	2483	0	114	14:34:30	1361567	2	0	0	0	0	0	0	0	0	0	0	0	0	0	0	0	0
091812	14:34:30	10001	Serial7Fr6mo	Serial7Fr6mo	8	59	2463	0	114	14:34:30	1364057	3	0	0	0	0	0	0	0	0	0	0	0	0	0	0	0	0
091812	14:34:30	10001	Serial7Fr6mo	Serial7Fr6mo	8	53	2373	0	114	14:34:30	1366457	3	0	0	0	0	0	0	0	0	0	0	0	0	0	0	0	0
091812	14:34:30	10001	Serial7Fr6mo	Serial7Fr6mo	8	46	3696	0	114	14:34:30	1370176	4	0	0	0	0	0	0	0	0	0	0	0	0	0	0	0	0
091812	14:34:30	10001	corsiblockFrFwrd	recallseqFrFwrd	9	4	2324	0	114	14:34:30	1433990	4	0	0	0	0	0	0	0	0	0	0	0	0	0	0	0	0
091812	14:34:30	10001	corsiblockFrFwrd	recallseqFrFwrd	9	8	1796	0	114	14:34:30	1435829	4	0	0	0	0	0	0	0	0	0	0	0	0	0	0	0	0
091812	14:34:30	10001	corsiblockFrFwrd	recallseqFrFwrd	9	doneCorsiFr	3837	0	114	14:34:30	1439708	4	0	0	0	0	0	0	0	0	0	0	0	0	0	0	2	0
091812	14:34:30	10001	corsiblockFrFwrd	recallseqFrFwrd	9	2	1965	0	114	14:34:30	1447758	4	0	0	0	0	0	0	0	0	0	0	0	0	0	0	2	0
091812	14:34:30	10001	corsiblockFrFwrd	recallseqFrFwrd	9	3	1262	0	114	14:34:30	1449064	4	0	0	0	0	0	0	0	0	0	0	0	0	0	0	2	0
091812	14:34:30	10001	corsiblockFrFwrd	recallseqFrFwrd	9	6	1684	0	114	14:34:30	1450784	4	0	0	0	0	0	0	0	0	0	0	0	0	0	0	2	0
091812	14:34:30	10001	corsiblockFrFwrd	recallseqFrFwrd	9	doneCorsiFr	1740	0	114	14:34:30	1452570	4	0	0	0	0	0	0	0	0	0	0	0	0	0	0	3	0
091812	14:34:30	10001	corsiblockFrFwrd	recallseqFrFwrd	9	9	2407	0	114	14:34:30	1462072	4	0	0	0	0	0	0	0	0	0	0	0	0	0	0	3	0
091812	14:34:30	10001	corsiblockFrFwrd	recallseqFrFwrd	9	5	1274	0	114	14:34:30	1463392	4	0	0	0	0	0	0	0	0	0	0	0	0	0	0	3	0
091812	14:34:30	10001	corsiblockFrFwrd	recallseqFrFwrd	9	7	1458	0	114	14:34:30	1464898	4	0	0	0	0	0	0	0	0	0	0	0	0	0	0	3	0
091812	14:34:30	10001	corsiblockFrFwrd	recallseqFrFwrd	9	1	1320	0	114	14:34:30	1466257	4	0	0	0	0	0	0	0	0	0	0	0	0	0	0	3	0
091812	14:34:30	10001	corsiblockFrFwrd	recallseqFrFwrd	9	doneCorsiFr	2728	0	114	14:34:30	1469030	4	0	0	0	0	0	0	0	0	0	0	0	0	0	0	4	0
091812	14:34:30	10001	corsiblockFrFwrd	recallseqFrFwrd	9	4	3347	0	114	14:34:30	1480465	4	0	0	0	0	0	0	0	0	0	0	0	0	0	0	4	0
091812	14:34:30	10001	corsiblockFrFwrd	recallseqFrFwrd	9	3	1156	0	114	14:34:30	1481665	4	0	0	0	0	0	0	0	0	0	0	0	0	0	0	4	0
091812	14:34:30	10001	corsiblockFrFwrd	recallseqFrFwrd	9	1	1225	0	114	14:34:30	1482931	4	0	0	0	0	0	0	0	0	0	0	0	0	0	0	4	0
091812	14:34:30	10001	corsiblockFrFwrd	recallseqFrFwrd	9	7	2200	0	114	14:34:30	1485170	4	0	0	0	0	0	0	0	0	0	0	0	0	0	0	4	0
091812	14:34:30	10001	corsiblockFrFwrd	recallseqFrFwrd	9	9	1169	0	114	14:34:30	1486383	4	0	0	0	0	0	0	0	0	0	0	0	0	0	0	4	0
091812	14:34:30	10001	corsiblockFrFwrd	recallseqFrFwrd	9	doneCorsiFr	2309	0	114	14:34:30	1488728	4	0	0	0	0	0	0	0	0	0	0	0	0	0	0	5	0
091812	14:34:30	10001	corsiblockFrFwrd	recallseqFrFwrd	9	6	2672	0	114	14:34:30	1500484	4	0	0	0	0	0	0	0	0	0	0	0	0	0	0	5	0
091812	14:34:30	10001	corsiblockFrFwrd	recallseqFrFwrd	9	8	1770	0	114	14:34:30	1502310	4	0	0	0	0	0	0	0	0	0	0	0	0	0	0	5	0
091812	14:34:30	10001	corsiblockFrFwrd	recallseqFrFwrd	9	4	1028	0	114	14:34:30	1503376	4	0	0	0	0	0	0	0	0	0	0	0	0	0	0	5	0
091812	14:34:30	10001	corsiblockFrFwrd	recallseqFrFwrd	9	2	1195	0	114	14:34:30	1504616	4	0	0	0	0	0	0	0	0	0	0	0	0	0	0	5	0
091812	14:34:30	10001	corsiblockFrFwrd	recallseqFrFwrd	9	6	1946	0	114	14:34:30	1506602	4	0	0	0	0	0	0	0	0	0	0	0	0	0	0	5	0
091812	14:34:30	10001	corsiblockFrFwrd	recallseqFrFwrd	9	8	1624	0	114	14:34:30	1508268	4	0	0	0	0	0	0	0	0	0	0	0	0	0	0	5	0
091812	14:34:30	10001	corsiblockFrFwrd	recallseqFrFwrd	9	doneCorsiFr	1256	0	114	14:34:30	1509560	4	0	0	0	0	0	0	0	0	0	0	0	0	0	0	5	0
091812	14:34:30	10001	corsiblockFrFwrd	recallseqFrFwrd	9	7	1768	0	114	14:34:30	1520383	4	0	0	0	0	0	0	0	0	0	0	0	0	0	0	5	0
091812	14:34:30	10001	corsiblockFrFwrd	recallseqFrFwrd	9	1	2108	0	114	14:34:30	1522529	4	0	0	0	0	0	0	0	0	0	0	0	0	0	0	5	0
091812	14:34:30	10001	corsiblockFrFwrd	recallseqFrFwrd	9	2	1256	0	114	14:34:30	1523821	4	0	0	0	0	0	0	0	0	0	0	0	0	0	0	5	0
091812	14:34:30	10001	corsiblockFrFwrd	recallseqFrFwrd	9	4	1078	0	114	14:34:30	1524941	4	0	0	0	0	0	0	0	0	0	0	0	0	0	0	5	0
091812	14:34:30	10001	corsiblockFrFwrd	recallseqFrFwrd	9	3	957	0	114	14:34:30	1525941	4	0	0	0	0	0	0	0	0	0	0	0	0	0	0	5	0
091812	14:34:30	10001	corsiblockFrFwrd	recallseqFrFwrd	9	7	3926	0	114	14:34:30	1529912	4	0	0	0	0	0	0	0	0	0	0	0	0	0	0	5	0
091812	14:34:30	10001	corsiblockFrFwrd	recallseqFrFwrd	9	doneCorsiFr	3931	0	114	14:34:30	1533884	4	0	0	0	0	0	0	0	0	0	0	0	0	0	0	5	0
091812	14:34:30	10001	corsiblockFrRev	recallseqFrRev	10	9	1037	0	114	14:34:30	1551397	4	0	0	0	0	0	0	0	0	0	0	0	0	0	0	5	0
091812	14:34:30	10001	corsiblockFrRev	recallseqFrRev	10	1	1588	0	114	14:34:30	1553023	4	0	0	0	0	0	0	0	0	0	0	0	0	0	0	5	0
091812	14:34:30	10001	corsiblockFrRev	recallseqFrRev	10	doneCorsiFr	1753	0	114	14:34:30	1554823	4	0	0	0	0	0	0	0	0	0	0	0	0	0	0	5	2
091812	14:34:30	10001	corsiblockFrRev	recallseqFrRev	10	2	1576	0	114	14:34:30	1562486	4	0	0	0	0	0	0	0	0	0	0	0	0	0	0	5	2
091812	14:34:30	10001	corsiblockFrRev	recallseqFrRev	10	4	1074	0	114	14:34:30	1563606	4	0	0	0	0	0	0	0	0	0	0	0	0	0	0	5	2
091812	14:34:30	10001	corsiblockFrRev	recallseqFrRev	10	7	1251	0	114	14:34:30	1564899	4	0	0	0	0	0	0	0	0	0	0	0	0	0	0	5	2
091812	14:34:30	10001	corsiblockFrRev	recallseqFrRev	10	doneCorsiFr	1327	0	114	14:34:30	1566271	4	0	0	0	0	0	0	0	0	0	0	0	0	0	0	5	3
091812	14:34:30	10001	corsiblockFrRev	recallseqFrRev	10	6	2528	0	114	14:34:30	1575894	4	0	0	0	0	0	0	0	0	0	0	0	0	0	0	5	3
091812	14:34:30	10001	corsiblockFrRev	recallseqFrRev	10	3	1163	0	114	14:34:30	1577094	4	0	0	0	0	0	0	0	0	0	0	0	0	0	0	5	3
091812	14:34:30	10001	corsiblockFrRev	recallseqFrRev	10	8	1555	0	114	14:34:30	1578693	4	0	0	0	0	0	0	0	0	0	0	0	0	0	0	5	3
091812	14:34:30	10001	corsiblockFrRev	recallseqFrRev	10	5	1205	0	114	14:34:30	1579933	4	0	0	0	0	0	0	0	0	0	0	0	0	0	0	5	3
091812	14:34:30	10001	corsiblockFrRev	recallseqFrRev	10	doneCorsiFr	1568	0	114	14:34:30	1581559	4	0	0	0	0	0	0	0	0	0	0	0	0	0	0	5	4
091812	14:34:30	10001	corsiblockFrRev	recallseqFrRev	10	2	1441	0	114	14:34:30	1591088	4	0	0	0	0	0	0	0	0	0	0	0	0	0	0	5	4
091812	14:34:30	10001	corsiblockFrRev	recallseqFrRev	10	7	1184	0	114	14:34:30	1592314	4	0	0	0	0	0	0	0	0	0	0	0	0	0	0	5	4
091812	14:34:30	10001	corsiblockFrRev	recallseqFrRev	10	4	1214	0	114	14:34:30	1593567	4	0	0	0	0	0	0	0	0	0	0	0	0	0	0	5	4
091812	14:34:30	10001	corsiblockFrRev	recallseqFrRev	10	5	1035	0	114	14:34:30	1594647	4	0	0	0	0	0	0	0	0	0	0	0	0	0	0	5	4
091812	14:34:30	10001	corsiblockFrRev	recallseqFrRev	10	1	1251	0	114	14:34:30	1595940	4	0	0	0	0	0	0	0	0	0	0	0	0	0	0	5	4
091812	14:34:30	10001	corsiblockFrRev	recallseqFrRev	10	doneCorsiFr	2462	0	114	14:34:30	1598445	4	0	0	0	0	0	0	0	0	0	0	0	0	0	0	5	4
091812	14:34:30	10001	corsiblockFrRev	recallseqFrRev	10	7	1330	0	114	14:34:30	1607828	4	0	0	0	0	0	0	0	0	0	0	0	0	0	0	5	4
091812	14:34:30	10001	corsiblockFrRev	recallseqFrRev	10	8	830	0	114	14:34:30	1608695	4	0	0	0	0	0	0	0	0	0	0	0	0	0	0	5	4
091812	14:34:30	10001	corsiblockFrRev	recallseqFrRev	10	3	1553	0	114	14:34:30	1610294	4	0	0	0	0	0	0	0	0	0	0	0	0	0	0	5	4
091812	14:34:30	10001	corsiblockFrRev	recallseqFrRev	10	6	812	0	114	14:34:30	1611147	4	0	0	0	0	0	0	0	0	0	0	0	0	0	0	5	4
091812	14:34:30	10001	corsiblockFrRev	recallseqFrRev	10	9	1397	0	114	14:34:30	1612586	4	0	0	0	0	0	0	0	0	0	0	0	0	0	0	5	4
091812	14:34:30	10001	corsiblockFrRev	recallseqFrRev	10	doneCorsiFr	2255	0	114	14:34:30	1614879	4	0	0	0	0	0	0	0	0	0	0	0	0	0	0	5	5
091812	14:34:30	10001	corsiblockFrRev	recallseqFrRev	10	9	903	0	114	14:34:30	1623876	4	0	0	0	0	0	0	0	0	0	0	0	0	0	0	5	5
091812	14:34:30	10001	corsiblockFrRev	recallseqFrRev	10	2	938	0	114	14:34:30	1624862	4	0	0	0	0	0	0	0	0	0	0	0	0	0	0	5	5
091812	14:34:30	10001	corsiblockFrRev	recallseqFrRev	10	1	2636	0	114	14:34:30	1627541	4	0	0	0	0	0	0	0	0	0	0	0	0	0	0	5	5
091812	14:34:30	10001	corsiblockFrRev	recallseqFrRev	10	3	1021	0	114	14:34:30	1628607	4	0	0	0	0	0	0	0	0	0	0	0	0	0	0	5	5
091812	14:34:30	10001	corsiblockFrRev	recallseqFrRev	10	6	2058	0	114	14:34:30	1630699	4	0	0	0	0	0	0	0	0	0	0	0	0	0	0	5	5
091812	14:34:30	10001	corsiblockFrRev	recallseqFrRev	10	doneCorsiFr	1830	0	114	14:34:30	1632565	4	0	0	0	0	0	0	0	0	0	0	0	0	0	0	5	5
091812	14:34:30	10001	corsiblockFrRev	recallseqFrRev	10	8	2162	0	114	14:34:30	1643774	4	0	0	0	0	0	0	0	0	0	0	0	0	0	0	5	5
091812	14:34:30	10001	corsiblockFrRev	recallseqFrRev	10	6	1466	0	114	14:34:30	1645280	4	0	0	0	0	0	0	0	0	0	0	0	0	0	0	5	5
091812	14:34:30	10001	corsiblockFrRev	recallseqFrRev	10	2	1497	0	114	14:34:30	1646813	4	0	0	0	0	0	0	0	0	0	0	0	0	0	0	5	5
091812	14:34:30	10001	corsiblockFrRev	recallseqFrRev	10	4	900	0	114	14:34:30	1647746	4	0	0	0	0	0	0	0	0	0	0	0	0	0	0	5	5
091812	14:34:30	10001	corsiblockFrRev	recallseqFrRev	10	5	1799	0	114	14:34:30	1649585	4	0	0	0	0	0	0	0	0	0	0	0	0	0	0	5	5
091812	14:34:30	10001	corsiblockFrRev	recallseqFrRev	10	resetCorsiFr	1135	0	114	14:34:30	1650758	4	0	0	0	0	0	0	0	0	0	0	0	0	0	0	5	5
091812	14:34:30	10001	corsiblockFrRev	recallseqFrRev	10	resetCorsiFr	4643	0	114	14:34:30	1655436	4	0	0	0	0	0	0	0	0	0	0	0	0	0	0	5	5
091812	14:34:30	10001	corsiblockFrRev	recallseqFrRev	10	doneCorsiFr	3116	0	114	14:34:30	1658595	4	0	0	0	0	0	0	0	0	0	0	0	0	0	0	5	5
091812	14:34:30	10001	testFr6mo	WordsFr6mo	11	1Fr6mo	2181	0	114	14:34:30	1694421	4	3	0	0	0	0	0	0	0	0	0	0	0	0	0	5	5
091812	14:34:30	10001	testFr6mo	WordsFr6mo	11	3Fr6mo	1004	0	114	14:34:30	1695461	4	3	0	3	0	0	0	0	0	0	0	0	0	0	0	5	5
091812	14:34:30	10001	testFr6mo	WordsFr6mo	11	4Fr6mo	428	0	114	14:34:30	1695942	4	3	0	3	3	0	0	0	0	0	0	0	0	0	0	5	5
091812	14:34:30	10001	testFr6mo	WordsFr6mo	11	DoneFr6mo	757	0	114	14:34:30	1696740	4	3	0	3	3	0	0	0	0	0	0	0	0	0	0	5	5
091812	14:34:30	10001	testFr6mo	Cat2Fr6mo	11	W2Fr6mo	10436	0	114	14:34:30	1707256	4	3	0	3	3	0	0	0	0	0	0	0	0	0	0	5	5
091812	14:34:30	10001	testFr6mo	Ch2Fr6mo	11	RR2Fr6mo	3374	0	114	14:34:30	1710668	4	3	1	3	3	0	0	0	0	0	0	0	0	0	0	5	5
091812	14:34:30	10001	testFr6mo	Cat5Fr6mo	11	R5Fr6mo	3525	0	114	14:34:30	1714226	4	3	1	3	3	2	0	0	0	0	0	0	0	0	0	5	5
091812	14:34:30	10001	testFr6mo	Cat6Fr6mo	11	0	1	0	114	14:34:30	1714243	4	3	1	3	3	2	0	0	0	0	0	0	0	0	0	5	5
091812	14:34:30	10001	testFr6mo	Ch6Fr6mo	11	RR6Fr6mo	9365	0	114	14:34:30	1723636	4	3	1	3	3	2	1	0	0	0	0	0	0	0	0	5	5
091812	14:34:30	10001	testFr6mo	Cat7Fr6mo	11	R7Fr6mo	5059	0	114	14:34:30	1728740	4	3	1	3	3	2	1	2	0	0	0	0	0	0	0	5	5
091812	14:34:30	10001	testFr6mo	Cat8Fr6mo	11	R8Fr6mo	5828	0	114	14:34:30	1734605	4	3	1	3	3	2	1	2	2	0	0	0	0	0	0	5	5
091812	14:34:30	10001	DigitSpanFwrdFr6mo	Score1FwrdFr6mo	12	DS1	2680	0	114	14:34:30	1754544	4	3	1	3	3	2	1	2	2	0	0	0	0	0	0	5	5
091812	14:34:30	10001	DigitSpanFwrdFr6mo	Gate1FwrdFr6mo	12	0	1	0	114	14:34:30	1754560	4	3	1	3	3	2	1	2	2	3	0	0	0	0	0	5	5
091812	14:34:30	10001	DigitSpanFwrdFr6mo	Score2FwrdFr6mo	12	DS1	3000	0	114	14:34:30	1763886	4	3	1	3	3	2	1	2	2	3	0	0	0	0	0	5	5
091812	14:34:30	10001	DigitSpanFwrdFr6mo	Gate3FwrdFr6mo	12	0	1	0	114	14:34:30	1763903	4	3	1	3	3	2	1	2	2	4	0	0	0	0	0	5	5
091812	14:34:30	10001	DigitSpanFwrdFr6mo	Score3FwrdFr6mo	12	DS2	7033	0	114	14:34:30	1778188	4	3	1	3	3	2	1	2	2	4	0	0	0	0	0	5	5
091812	14:34:30	10001	DigitSpanFwrdFr6mo	Gate5FwrdFr6mo	12	0	1	0	114	14:34:30	1778205	4	3	1	3	3	2	1	2	2	4	0	0	0	0	0	5	5
091812	14:34:30	10001	DigitSpanFwrdFr6mo	Score33FwrdFr6mo	12	DS1	3671	0	114	14:34:30	1789090	4	3	1	3	3	2	1	2	2	4	0	0	0	0	0	5	5
091812	14:34:30	10001	DigitSpanFwrdFr6mo	Gate6FwrdFr6mo	12	0	1	0	114	14:34:30	1789105	4	3	1	3	3	2	1	2	2	5	0	0	0	0	0	5	5
091812	14:34:30	10001	DigitSpanFwrdFr6mo	Score4FwrdFr6mo	12	DS2	4529	0	114	14:34:30	1802178	4	3	1	3	3	2	1	2	2	5	0	0	0	0	0	5	5
091812	14:34:30	10001	DigitSpanFwrdFr6mo	Gate7FwrdFr6mo	12	0	1	0	114	14:34:30	1802194	4	3	1	3	3	2	1	2	2	5	0	0	0	0	0	5	5
091812	14:34:30	10001	DigitSpanFwrdFr6mo	Score44FwrdFr6mo	12	DS1	4622	0	114	14:34:30	1815146	4	3	1	3	3	2	1	2	2	5	0	0	0	0	0	5	5
091812	14:34:30	10001	DigitSpanFwrdFr6mo	Gate8FwrdFr6mo	12	0	1	0	114	14:34:30	1815163	4	3	1	3	3	2	1	2	2	6	0	0	0	0	0	5	5
091812	14:34:30	10001	DigitSpanFwrdFr6mo	Score5FwrdFr6mo	12	DS1	5188	0	114	14:34:30	1830300	4	3	1	3	3	2	1	2	2	6	0	0	0	0	0	5	5
091812	14:34:30	10001	DigitSpanFwrdFr6mo	Gate9FwrdFr6mo	12	0	1	0	114	14:34:30	1830316	4	3	1	3	3	2	1	2	2	7	0	0	0	0	0	5	5
091812	14:34:30	10001	DigitSpanFwrdFr6mo	Score6FwrdFr6mo	12	DS2	11468	0	114	14:34:30	1852905	4	3	1	3	3	2	1	2	2	7	0	0	0	0	0	5	5
091812	14:34:30	10001	DigitSpanFwrdFr6mo	Gate11FwrdFr6mo	12	0	1	0	114	14:34:30	1852921	4	3	1	3	3	2	1	2	2	7	0	0	0	0	0	5	5
091812	14:34:30	10001	DigitSpanFwrdFr6mo	Score66FwrdFr6mo	12	DS2	8501	0	114	14:34:30	1872417	4	3	1	3	3	2	1	2	2	7	0	0	0	0	0	5	5
091812	14:34:30	10001	DigitSpanFr6mo	Score1Fr6mo	13	DS1	8110	0	114	14:34:30	1894088	4	3	1	3	3	2	1	2	2	7	0	0	0	0	0	5	5
091812	14:34:30	10001	DigitSpanFr6mo	Gate1Fr6mo	13	0	1	0	114	14:34:30	1894104	4	3	1	3	3	2	1	2	2	7	2	0	0	0	0	5	5
091812	14:34:30	10001	DigitSpanFr6mo	Score2Fr6mo	13	DS1	2959	0	114	14:34:30	1901645	4	3	1	3	3	2	1	2	2	7	2	0	0	0	0	5	5
091812	14:34:30	10001	DigitSpanFr6mo	Gate3Fr6mo	13	0	1	0	114	14:34:30	1901661	4	3	1	3	3	2	1	2	2	7	3	0	0	0	0	5	5
091812	14:34:30	10001	DigitSpanFr6mo	Score3Fr6mo	13	DS1	7891	0	114	14:34:30	1915254	4	3	1	3	3	2	1	2	2	7	3	0	0	0	0	5	5
091812	14:34:30	10001	DigitSpanFr6mo	Gate5Fr6mo	13	0	1	0	114	14:34:30	1915270	4	3	1	3	3	2	1	2	2	7	4	0	0	0	0	5	5
091812	14:34:30	10001	DigitSpanFr6mo	Score4Fr6mo	13	DS1	9360	0	114	14:34:30	1931594	4	3	1	3	3	2	1	2	2	7	4	0	0	0	0	5	5
091812	14:34:30	10001	DigitSpanFr6mo	Gate7Fr6mo	13	0	1	0	114	14:34:30	1931610	4	3	1	3	3	2	1	2	2	7	5	0	0	0	0	5	5
091812	14:34:30	10001	DigitSpanFr6mo	Score5Fr6mo	13	DS2	15706	0	114	14:34:30	1955784	4	3	1	3	3	2	1	2	2	7	5	0	0	0	0	5	5
091812	14:34:30	10001	DigitSpanFr6mo	Gate9Fr6mo	13	0	1	0	114	14:34:30	1955801	4	3	1	3	3	2	1	2	2	7	5	0	0	0	0	5	5
091812	14:34:30	10001	DigitSpanFr6mo	Score55Fr6mo	13	DS1	8865	0	114	14:34:30	1972844	4	3	1	3	3	2	1	2	2	7	5	0	0	0	0	5	5
091812	14:34:30	10001	DigitSpanFr6mo	Gate10Fr6mo	13	0	1	0	114	14:34:30	1972860	4	3	1	3	3	2	1	2	2	7	6	0	0	0	0	5	5
091812	14:34:30	10001	DigitSpanFr6mo	Score6Fr6mo	13	DS2	16130	0	114	14:34:30	1998754	4	3	1	3	3	2	1	2	2	7	6	0	0	0	0	5	5
091812	14:34:30	10001	DigitSpanFr6mo	Gate11Fr6mo	13	0	1	0	114	14:34:30	1998771	4	3	1	3	3	2	1	2	2	7	6	0	0	0	0	5	5
091812	14:34:30	10001	DigitSpanFr6mo	Score66Fr6mo	13	DS2	18540	0	114	14:34:30	2026916	4	3	1	3	3	2	1	2	2	7	6	0	0	0	0	5	5
091812	14:34:30	10001	Trial	IncongruentRight	14	0	737	0	114	14:34:30	2095062	4	3	1	3	3	2	1	2	2	7	6	0	0	0	0	5	5
091812	14:34:30	10001	Trial	IncongruentLeft	14	203	539	1	114	14:34:30	2095875	4	3	1	3	3	2	1	2	2	7	6	0	0	0	0	5	5
091812	14:34:30	10001	Trial	CongruentRight	14	205	467	1	114	14:34:30	2096808	4	3	1	3	3	2	1	2	2	7	6	0	0	0	0	5	5
091812	14:34:30	10001	Trial	IncongruentRight	14	205	479	1	114	14:34:30	2097835	4	3	1	3	3	2	1	2	2	7	6	0	0	0	0	5	5
091812	14:34:30	10001	Trial	CongruentLeft	14	203	487	1	114	14:34:30	2098834	4	3	1	3	3	2	1	2	2	7	6	0	0	0	0	5	5
091812	14:34:30	10001	Trial	CongruentRight	14	205	440	1	114	14:34:30	2099794	4	3	1	3	3	2	1	2	2	7	6	0	0	0	0	5	5
091812	14:34:30	10001	Trial	IncongruentRight	14	205	549	1	114	14:34:30	2100900	4	3	1	3	3	2	1	2	2	7	6	0	0	0	0	5	5
091812	14:34:30	10001	Trial	CongruentLeft	14	203	510	1	114	14:34:30	2101860	4	3	1	3	3	2	1	2	2	7	6	0	0	0	0	5	5
091812	14:34:30	10001	Trial	IncongruentLeft	14	203	675	1	114	14:34:30	2103032	4	3	1	3	3	2	1	2	2	7	6	0	0	0	0	5	5
091812	14:34:30	10001	Trial	IncongruentLeft	14	203	593	1	114	14:34:30	2103939	4	3	1	3	3	2	1	2	2	7	6	0	0	0	0	5	5
091812	14:34:30	10001	Trial	CongruentRight	14	205	601	1	114	14:34:30	2104952	4	3	1	3	3	2	1	2	2	7	6	0	0	0	0	5	5
091812	14:34:30	10001	Trial	IncongruentRight	14	205	417	1	114	14:34:30	2105765	4	3	1	3	3	2	1	2	2	7	6	0	0	0	0	5	5
091812	14:34:30	10001	Trial	CongruentLeft	14	203	458	1	114	14:34:30	2106804	4	3	1	3	3	2	1	2	2	7	6	0	0	0	0	5	5
091812	14:34:30	10001	Trial	CongruentRight	14	205	498	1	114	14:34:30	2107844	4	3	1	3	3	2	1	2	2	7	6	0	0	0	0	5	5
091812	14:34:30	10001	Trial	IncongruentLeft	14	203	616	1	114	14:34:30	2108963	4	3	1	3	3	2	1	2	2	7	6	0	0	0	0	5	5
091812	14:34:30	10001	Trial	IncongruentRight	14	205	547	1	114	14:34:30	2109896	4	3	1	3	3	2	1	2	2	7	6	0	0	0	0	5	5
091812	14:34:30	10001	Trial	CongruentRight	14	205	479	1	114	14:34:30	2110843	4	3	1	3	3	2	1	2	2	7	6	0	0	0	0	5	5
091812	14:34:30	10001	Trial	CongruentLeft	14	203	452	1	114	14:34:30	2111802	4	3	1	3	3	2	1	2	2	7	6	0	0	0	0	5	5
091812	14:34:30	10001	Trial	CongruentRight	14	205	524	1	114	14:34:30	2112869	4	3	1	3	3	2	1	2	2	7	6	0	0	0	0	5	5
091812	14:34:30	10001	Trial	IncongruentRight	14	205	564	1	114	14:34:30	2113908	4	3	1	3	3	2	1	2	2	7	6	0	0	0	0	5	5
091812	14:34:30	10001	Trial	IncongruentLeft	14	203	509	1	114	14:34:30	2114868	4	3	1	3	3	2	1	2	2	7	6	0	0	0	0	5	5
091812	14:34:30	10001	Trial	IncongruentLeft	14	203	661	1	114	14:34:30	2116001	4	3	1	3	3	2	1	2	2	7	6	0	0	0	0	5	5
091812	14:34:30	10001	Trial	CongruentLeft	14	205	446	0	114	14:34:30	2116787	4	3	1	3	3	2	1	2	2	7	6	0	0	0	0	5	5
091812	14:34:30	10001	Trial	CongruentRight	14	205	582	1	114	14:34:30	2117920	4	3	1	3	3	2	1	2	2	7	6	0	0	0	0	5	5
091812	14:34:30	10001	Trial	IncongruentLeft	14	203	539	1	114	14:34:30	2118879	4	3	1	3	3	2	1	2	2	7	6	0	0	0	0	5	5
091812	14:34:30	10001	Trial	IncongruentRight	14	205	550	1	114	14:34:30	2119892	4	3	1	3	3	2	1	2	2	7	6	0	0	0	0	5	5
091812	14:34:30	10001	Trial	CongruentRight	14	205	559	1	114	14:34:30	2120905	4	3	1	3	3	2	1	2	2	7	6	0	0	0	0	5	5
091812	14:34:30	10001	Trial	CongruentLeft	14	203	515	1	114	14:34:30	2121878	4	3	1	3	3	2	1	2	2	7	6	0	0	0	0	5	5
091812	14:34:30	10001	Trial	IncongruentRight	14	205	608	1	114	14:34:30	2122958	4	3	1	3	3	2	1	2	2	7	6	0	0	0	0	5	5
091812	14:34:30	10001	Trial	IncongruentLeft	14	203	616	1	114	14:34:30	2123958	4	3	1	3	3	2	1	2	2	7	6	0	0	0	0	5	5
091812	14:34:30	10001	Trial	IncongruentRight	14	205	512	1	114	14:34:30	2124851	4	3	1	3	3	2	1	2	2	7	6	0	0	0	0	5	5
091812	14:34:30	10001	Trial	CongruentRight	14	205	487	1	114	14:34:30	2125823	4	3	1	3	3	2	1	2	2	7	6	0	0	0	0	5	5
091812	14:34:30	10001	Trial	IncongruentLeft	14	203	479	1	114	14:34:30	2126823	4	3	1	3	3	2	1	2	2	7	6	0	0	0	0	5	5
091812	14:34:30	10001	Trial	CongruentLeft	14	203	474	1	114	14:34:30	2127809	4	3	1	3	3	2	1	2	2	7	6	0	0	0	0	5	5
091812	14:34:30	10001	Trial	CongruentRight	14	205	563	1	114	14:34:30	2128902	4	3	1	3	3	2	1	2	2	7	6	0	0	0	0	5	5
091812	14:34:30	10001	Trial	IncongruentLeft	14	203	503	1	114	14:34:30	2129862	4	3	1	3	3	2	1	2	2	7	6	0	0	0	0	5	5
091812	14:34:30	10001	Trial	IncongruentRight	14	205	403	1	114	14:34:30	2130755	4	3	1	3	3	2	1	2	2	7	6	0	0	0	0	5	5
091812	14:34:30	10001	Trial	IncongruentRight	14	205	478	1	114	14:34:30	2131834	4	3	1	3	3	2	1	2	2	7	6	0	0	0	0	5	5
091812	14:34:30	10001	Trial	CongruentLeft	14	203	501	1	114	14:34:30	2132848	4	3	1	3	3	2	1	2	2	7	6	0	0	0	0	5	5
091812	14:34:30	10001	Trial	IncongruentLeft	14	203	622	1	114	14:34:30	2133967	4	3	1	3	3	2	1	2	2	7	6	0	0	0	0	5	5
091812	14:34:30	10001	Trial	CongruentRight	14	205	519	1	114	14:34:30	2134873	4	3	1	3	3	2	1	2	2	7	6	0	0	0	0	5	5
091812	14:34:30	10001	Trial	CongruentLeft	14	203	640	1	114	14:34:30	2135993	4	3	1	3	3	2	1	2	2	7	6	0	0	0	0	5	5
091812	14:34:30	10001	Trial	IncongruentRight	14	205	504	1	114	14:34:30	2136846	4	3	1	3	3	2	1	2	2	7	6	0	0	0	0	5	5
091812	14:34:30	10001	Trial	CongruentRight	14	205	478	1	114	14:34:30	2137832	4	3	1	3	3	2	1	2	2	7	6	0	0	0	0	5	5
091812	14:34:30	10001	Trial	IncongruentLeft	14	203	473	1	114	14:34:30	2138819	4	3	1	3	3	2	1	2	2	7	6	0	0	0	0	5	5
091812	14:34:30	10001	Trial	CongruentLeft	14	203	593	1	114	14:34:30	2139938	4	3	1	3	3	2	1	2	2	7	6	0	0	0	0	5	5
091812	14:34:30	10001	Trial	IncongruentLeft	14	203	617	1	114	14:34:30	2140964	4	3	1	3	3	2	1	2	2	7	6	0	0	0	0	5	5
091812	14:34:30	10001	Trial	IncongruentRight	14	205	450	1	114	14:34:30	2141791	4	3	1	3	3	2	1	2	2	7	6	0	0	0	0	5	5
091812	14:34:30	10001	Trial	CongruentRight	14	205	410	1	114	14:34:30	2142750	4	3	1	3	3	2	1	2	2	7	6	0	0	0	0	5	5
091812	14:34:30	10001	Trial	CongruentLeft	14	203	483	1	114	14:34:30	2143830	4	3	1	3	3	2	1	2	2	7	6	0	0	0	0	5	5
091812	14:34:30	10001	Trial	CongruentLeft	14	203	633	1	114	14:34:30	2144976	4	3	1	3	3	2	1	2	2	7	6	0	0	0	0	5	5
091812	14:34:30	10001	Trial	IncongruentRight	14	205	451	1	114	14:34:30	2145803	4	3	1	3	3	2	1	2	2	7	6	0	0	0	0	5	5
091812	14:34:30	10001	Trial	IncongruentLeft	14	203	588	1	114	14:34:30	2146935	4	3	1	3	3	2	1	2	2	7	6	0	0	0	0	5	5
091812	14:34:30	10001	Trial	IncongruentRight	14	205	436	1	114	14:34:30	2147775	4	3	1	3	3	2	1	2	2	7	6	0	0	0	0	5	5
091812	14:34:30	10001	Trial	CongruentRight	14	205	413	1	114	14:34:30	2148761	4	3	1	3	3	2	1	2	2	7	6	0	0	0	0	5	5
091812	14:34:30	10001	Trial	CongruentRight	14	205	469	1	114	14:34:30	2149814	4	3	1	3	3	2	1	2	2	7	6	0	0	0	0	5	5
091812	14:34:30	10001	Trial	IncongruentLeft	14	203	717	1	114	14:34:30	2151053	4	3	1	3	3	2	1	2	2	7	6	0	0	0	0	5	5
091812	14:34:30	10001	Trial	CongruentLeft	14	203	662	1	114	14:34:30	2152000	4	3	1	3	3	2	1	2	2	7	6	0	0	0	0	5	5
091812	14:34:30	10001	Trial	CongruentRight	14	205	526	1	114	14:34:30	2152867	4	3	1	3	3	2	1	2	2	7	6	0	0	0	0	5	5
091812	14:34:30	10001	Trial	CongruentLeft	14	203	580	1	114	14:34:30	2153919	4	3	1	3	3	2	1	2	2	7	6	0	0	0	0	5	5
091812	14:34:30	10001	Trial	IncongruentRight	14	205	430	1	114	14:34:30	2154772	4	3	1	3	3	2	1	2	2	7	6	0	0	0	0	5	5
091812	14:34:30	10001	Trial	CongruentRight	14	205	423	1	114	14:34:30	2155758	4	3	1	3	3	2	1	2	2	7	6	0	0	0	0	5	5
091812	14:34:30	10001	Trial	CongruentLeft	14	203	532	1	114	14:34:30	2156878	4	3	1	3	3	2	1	2	2	7	6	0	0	0	0	5	5
091812	14:34:30	10001	Trial	IncongruentLeft	14	205	392	0	114	14:34:30	2157731	4	3	1	3	3	2	1	2	2	7	6	0	0	0	0	5	5
091812	14:34:30	10001	Trial	IncongruentLeft	14	0	737	0	114	14:34:30	2159077	4	3	1	3	3	2	1	2	2	7	6	0	0	0	0	5	5
091812	14:34:30	10001	Trial	CongruentRight	14	205	587	1	114	14:34:30	2159943	4	3	1	3	3	2	1	2	2	7	6	0	0	0	0	5	5
091812	14:34:30	10001	Trial	IncongruentRight	14	205	499	1	114	14:34:30	2160850	4	3	1	3	3	2	1	2	2	7	6	0	0	0	0	5	5
091812	14:34:30	10001	Trial	CongruentLeft	14	203	490	1	114	14:34:30	2161849	4	3	1	3	3	2	1	2	2	7	6	0	0	0	0	5	5
091812	14:34:30	10001	Trial	IncongruentRight	14	205	405	1	114	14:34:30	2162769	4	3	1	3	3	2	1	2	2	7	6	0	0	0	0	5	5
091812	14:34:30	10001	Trial	CongruentRight	14	205	416	1	114	14:34:30	2163782	4	3	1	3	3	2	1	2	2	7	6	0	0	0	0	5	5
091812	14:34:30	10001	Trial	IncongruentLeft	14	203	472	1	114	14:34:30	2164835	4	3	1	3	3	2	1	2	2	7	6	0	0	0	0	5	5
091812	14:34:30	10001	Trial	CongruentLeft	14	203	495	1	114	14:34:30	2165861	4	3	1	3	3	2	1	2	2	7	6	0	0	0	0	5	5
091812	14:34:30	10001	Trial	CongruentRight	14	205	393	1	114	14:34:30	2166754	4	3	1	3	3	2	1	2	2	7	6	0	0	0	0	5	5
091812	14:34:30	10001	Trial	IncongruentLeft	14	203	641	1	114	14:34:30	2168007	4	3	1	3	3	2	1	2	2	7	6	0	0	0	0	5	5
091812	14:34:30	10001	Trial	CongruentRight	14	205	569	1	114	14:34:30	2168927	4	3	1	3	3	2	1	2	2	7	6	0	0	0	0	5	5
091812	14:34:30	10001	Trial	CongruentRight	14	205	559	1	114	14:34:30	2169926	4	3	1	3	3	2	1	2	2	7	6	0	0	0	0	5	5
091812	14:34:30	10001	Trial	IncongruentRight	14	205	569	1	114	14:34:30	2170952	4	3	1	3	3	2	1	2	2	7	6	0	0	0	0	5	5
091812	14:34:30	10001	Trial	CongruentLeft	14	203	610	1	114	14:34:30	2171965	4	3	1	3	3	2	1	2	2	7	6	0	0	0	0	5	5
091812	14:34:30	10001	Trial	IncongruentLeft	14	203	634	1	114	14:34:30	2172992	4	3	1	3	3	2	1	2	2	7	6	0	0	0	0	5	5
091812	14:34:30	10001	Trial	CongruentLeft	14	203	643	1	114	14:34:30	2174005	4	3	1	3	3	2	1	2	2	7	6	0	0	0	0	5	5
091812	14:34:30	10001	Trial	IncongruentRight	14	205	492	1	114	14:34:30	2174858	4	3	1	3	3	2	1	2	2	7	6	0	0	0	0	5	5
091812	14:34:30	10001	Trial	IncongruentLeft	14	203	420	1	114	14:34:30	2175777	4	3	1	3	3	2	1	2	2	7	6	0	0	0	0	5	5
091812	14:34:30	10001	Trial	CongruentRight	14	205	413	1	114	14:34:30	2176777	4	3	1	3	3	2	1	2	2	7	6	0	0	0	0	5	5
091812	14:34:30	10001	Trial	CongruentLeft	14	203	597	1	114	14:34:30	2177950	4	3	1	3	3	2	1	2	2	7	6	0	0	0	0	5	5
091812	14:34:30	10001	Trial	IncongruentLeft	14	203	669	1	114	14:34:30	2179029	4	3	1	3	3	2	1	2	2	7	6	0	0	0	0	5	5
091812	14:34:30	10001	Trial	CongruentLeft	14	203	597	1	114	14:34:30	2179962	4	3	1	3	3	2	1	2	2	7	6	0	0	0	0	5	5
091812	14:34:30	10001	Trial	IncongruentRight	14	205	526	1	114	14:34:30	2180882	4	3	1	3	3	2	1	2	2	7	6	0	0	0	0	5	5
091812	14:34:30	10001	Trial	CongruentRight	14	205	391	1	114	14:34:30	2181748	4	3	1	3	3	2	1	2	2	7	6	0	0	0	0	5	5
091812	14:34:30	10001	Trial	IncongruentLeft	14	203	639	1	114	14:34:30	2183001	4	3	1	3	3	2	1	2	2	7	6	0	0	0	0	5	5
091812	14:34:30	10001	Trial	CongruentLeft	14	203	631	1	114	14:34:30	2183987	4	3	1	3	3	2	1	2	2	7	6	0	0	0	0	5	5
091812	14:34:30	10001	Trial	IncongruentRight	14	205	511	1	114	14:34:30	2184867	4	3	1	3	3	2	1	2	2	7	6	0	0	0	0	5	5
091812	14:34:30	10001	Trial	IncongruentLeft	14	203	520	1	114	14:34:30	2185880	4	3	1	3	3	2	1	2	2	7	6	0	0	0	0	5	5
091812	14:34:30	10001	Trial	CongruentLeft	14	203	590	1	114	14:34:30	2186946	4	3	1	3	3	2	1	2	2	7	6	0	0	0	0	5	5
091812	14:34:30	10001	Trial	IncongruentLeft	14	203	488	1	114	14:34:30	2187839	4	3	1	3	3	2	1	2	2	7	6	0	0	0	0	5	5
091812	14:34:30	10001	Trial	CongruentRight	14	205	592	1	114	14:34:30	2188945	4	3	1	3	3	2	1	2	2	7	6	0	0	0	0	5	5
091812	14:34:30	10001	Trial	CongruentLeft	14	203	521	1	114	14:34:30	2189878	4	3	1	3	3	2	1	2	2	7	6	0	0	0	0	5	5
091812	14:34:30	10001	Trial	IncongruentRight	14	205	463	1	114	14:34:30	2190825	4	3	1	3	3	2	1	2	2	7	6	0	0	0	0	5	5
091812	14:34:30	10001	Trial	CongruentLeft	14	203	554	1	114	14:34:30	2191904	4	3	1	3	3	2	1	2	2	7	6	0	0	0	0	5	5
091812	14:34:30	10001	Trial	CongruentRight	14	205	437	1	114	14:34:30	2192797	4	3	1	3	3	2	1	2	2	7	6	0	0	0	0	5	5
091812	14:34:30	10001	Trial	IncongruentLeft	14	203	459	1	114	14:34:30	2193810	4	3	1	3	3	2	1	2	2	7	6	0	0	0	0	5	5
091812	14:34:30	10001	Trial750Fr	IncongruentRight750	15	0	487	0	114	14:34:30	2203286	4	3	1	3	3	2	1	2	2	7	6	0	0	0	0	5	5
091812	14:34:30	10001	Trial750Fr	IncongruentLeft750	15	0	487	0	114	14:34:30	2204046	4	3	1	3	3	2	1	2	2	7	6	0	0	0	0	5	5
091812	14:34:30	10001	Trial750Fr	CongruentRight750	15	205	450	1	114	14:34:30	2204766	4	3	1	3	3	2	1	2	2	7	6	0	0	0	0	5	5
091812	14:34:30	10001	Trial750Fr	IncongruentRight750	15	205	474	1	114	14:34:30	2205552	4	3	1	3	3	2	1	2	2	7	6	0	0	0	0	5	5
091812	14:34:30	10001	Trial750Fr	CongruentLeft750	15	203	450	1	114	14:34:30	2206285	4	3	1	3	3	2	1	2	2	7	6	0	0	0	0	5	5
091812	14:34:30	10001	Trial750Fr	CongruentRight750	15	205	440	1	114	14:34:30	2207032	4	3	1	3	3	2	1	2	2	7	6	0	0	0	0	5	5
091812	14:34:30	10001	Trial750Fr	IncongruentRight750	15	0	487	0	114	14:34:30	2207818	4	3	1	3	3	2	1	2	2	7	6	0	0	0	0	5	5
091812	14:34:30	10001	Trial750Fr	CongruentLeft750	15	0	487	0	114	14:34:30	2208578	4	3	1	3	3	2	1	2	2	7	6	0	0	0	0	5	5
091812	14:34:30	10001	Trial750Fr	IncongruentLeft750	15	0	487	0	114	14:34:30	2209337	4	3	1	3	3	2	1	2	2	7	6	0	0	0	0	5	5
091812	14:34:30	10001	Trial750Fr	IncongruentLeft750	15	0	487	0	114	14:34:30	2210097	4	3	1	3	3	2	1	2	2	7	6	0	0	0	0	5	5
091812	14:34:30	10001	Trial750Fr	CongruentRight750	15	205	433	1	114	14:34:30	2210817	4	3	1	3	3	2	1	2	2	7	6	0	0	0	0	5	5
091812	14:34:30	10001	Trial750Fr	IncongruentRight750	15	205	359	1	114	14:34:30	2211497	4	3	1	3	3	2	1	2	2	7	6	0	0	0	0	5	5
091812	14:34:30	10001	Trial750Fr	CongruentLeft750	15	203	349	1	114	14:34:30	2212229	4	3	1	3	3	2	1	2	2	7	6	0	0	0	0	5	5
091812	14:34:30	10001	Trial750Fr	CongruentRight750	15	0	487	0	114	14:34:30	2213109	4	3	1	3	3	2	1	2	2	7	6	0	0	0	0	5	5
091812	14:34:30	10001	Trial750Fr	IncongruentLeft750	15	203	445	1	114	14:34:30	2213842	4	3	1	3	3	2	1	2	2	7	6	0	0	0	0	5	5
091812	14:34:30	10001	Trial750Fr	IncongruentRight750	15	205	419	1	114	14:34:30	2214562	4	3	1	3	3	2	1	2	2	7	6	0	0	0	0	5	5
091812	14:34:30	10001	Trial750Fr	CongruentRight750	15	205	472	1	114	14:34:30	2215361	4	3	1	3	3	2	1	2	2	7	6	0	0	0	0	5	5
091812	14:34:30	10001	Trial750Fr	CongruentLeft750	15	203	462	1	114	14:34:30	2216095	4	3	1	3	3	2	1	2	2	7	6	0	0	0	0	5	5
091812	14:34:30	10001	Trial750Fr	CongruentRight750	15	205	406	1	114	14:34:30	2216801	4	3	1	3	3	2	1	2	2	7	6	0	0	0	0	5	5
091812	14:34:30	10001	Trial750Fr	IncongruentRight750	15	205	380	1	114	14:34:30	2217521	4	3	1	3	3	2	1	2	2	7	6	0	0	0	0	5	5
091812	14:34:30	10001	Trial750Fr	IncongruentLeft750	15	203	481	1	114	14:34:30	2218374	4	3	1	3	3	2	1	2	2	7	6	0	0	0	0	5	5
091812	14:34:30	10001	Trial750Fr	IncongruentLeft750	15	203	441	1	114	14:34:30	2219094	4	3	1	3	3	2	1	2	2	7	6	0	0	0	0	5	5
091812	14:34:30	10001	Trial750Fr	CongruentLeft750	15	0	487	0	114	14:34:30	2219880	4	3	1	3	3	2	1	2	2	7	6	0	0	0	0	5	5
091812	14:34:30	10001	Trial750Fr	CongruentRight750	15	205	455	1	114	14:34:30	2220613	4	3	1	3	3	2	1	2	2	7	6	0	0	0	0	5	5
091812	14:34:30	10001	Trial750Fr	IncongruentLeft750	15	203	368	1	114	14:34:30	2221279	4	3	1	3	3	2	1	2	2	7	6	0	0	0	0	5	5
091812	14:34:30	10001	Trial750Fr	IncongruentRight750	15	205	342	1	114	14:34:30	2221999	4	3	1	3	3	2	1	2	2	7	6	0	0	0	0	5	5
091812	14:34:30	10001	Trial750Fr	CongruentRight750	15	203	331	0	114	14:34:30	2222745	4	3	1	3	3	2	1	2	2	7	6	0	0	0	0	5	5
091812	14:34:30	10001	Trial750Fr	CongruentLeft750	15	0	487	0	114	14:34:30	2223638	4	3	1	3	3	2	1	2	2	7	6	0	0	0	0	5	5
091812	14:34:30	10001	Trial750Fr	IncongruentRight750	15	205	361	1	114	14:34:30	2224278	4	3	1	3	3	2	1	2	2	7	6	0	0	0	0	5	5
091812	14:34:30	10001	Trial750Fr	IncongruentLeft750	15	203	418	1	114	14:34:30	2225091	4	3	1	3	3	2	1	2	2	7	6	0	0	0	0	5	5
091812	14:34:30	10001	Trial750Fr	IncongruentRight750	15	205	391	1	114	14:34:30	2225811	4	3	1	3	3	2	1	2	2	7	6	0	0	0	0	5	5
091812	14:34:30	10001	Trial750Fr	CongruentRight750	15	0	487	0	114	14:34:30	2226651	4	3	1	3	3	2	1	2	2	7	6	0	0	0	0	5	5
091812	14:34:30	10001	Trial750Fr	IncongruentLeft750	15	203	469	1	114	14:34:30	2227397	4	3	1	3	3	2	1	2	2	7	6	0	0	0	0	5	5
091812	14:34:30	10001	Trial750Fr	CongruentLeft750	15	0	487	0	114	14:34:30	2228157	4	3	1	3	3	2	1	2	2	7	6	0	0	0	0	5	5
091812	14:34:30	10001	Trial750Fr	CongruentRight750	15	205	451	1	114	14:34:30	2228876	4	3	1	3	3	2	1	2	2	7	6	0	0	0	0	5	5
091812	14:34:30	10001	Trial750Fr	IncongruentLeft750	15	0	487	0	114	14:34:30	2229663	4	3	1	3	3	2	1	2	2	7	6	0	0	0	0	5	5
091812	14:34:30	10001	Trial750Fr	IncongruentRight750	15	205	465	1	114	14:34:30	2230409	4	3	1	3	3	2	1	2	2	7	6	0	0	0	0	5	5
091812	14:34:30	10001	Trial750Fr	IncongruentRight750	15	0	487	0	114	14:34:30	2231169	4	3	1	3	3	2	1	2	2	7	6	0	0	0	0	5	5
091812	14:34:30	10001	Trial750Fr	CongruentLeft750	15	205	15	0	114	14:34:30	2231462	4	3	1	3	3	2	1	2	2	7	6	0	0	0	0	5	5
091812	14:34:30	10001	Trial750Fr	IncongruentLeft750	15	0	487	0	114	14:34:30	2232675	4	3	1	3	3	2	1	2	2	7	6	0	0	0	0	5	5
091812	14:34:30	10001	Trial750Fr	CongruentRight750	15	0	487	0	114	14:34:30	2233434	4	3	1	3	3	2	1	2	2	7	6	0	0	0	0	5	5
091812	14:34:30	10001	Trial750Fr	CongruentLeft750	15	0	487	0	114	14:34:30	2234194	4	3	1	3	3	2	1	2	2	7	6	0	0	0	0	5	5
091812	14:34:30	10001	Trial750Fr	IncongruentRight750	15	0	487	0	114	14:34:30	2234954	4	3	1	3	3	2	1	2	2	7	6	0	0	0	0	5	5
091812	14:34:30	10001	Trial750Fr	CongruentRight750	15	0	487	0	114	14:34:30	2235714	4	3	1	3	3	2	1	2	2	7	6	0	0	0	0	5	5
091812	14:34:30	10001	Trial750Fr	IncongruentLeft750	15	0	487	0	114	14:34:30	2236473	4	3	1	3	3	2	1	2	2	7	6	0	0	0	0	5	5
091812	14:34:30	10001	Trial750Fr	CongruentLeft750	15	0	487	0	114	14:34:30	2237233	4	3	1	3	3	2	1	2	2	7	6	0	0	0	0	5	5
091812	14:34:30	10001	Trial750Fr	IncongruentLeft750	15	203	462	1	114	14:34:30	2237966	4	3	1	3	3	2	1	2	2	7	6	0	0	0	0	5	5
091812	14:34:30	10001	Trial750Fr	IncongruentRight750	15	0	487	0	114	14:34:30	2238739	4	3	1	3	3	2	1	2	2	7	6	0	0	0	0	5	5
091812	14:34:30	10001	Trial750Fr	CongruentRight750	15	0	487	0	114	14:34:30	2239499	4	3	1	3	3	2	1	2	2	7	6	0	0	0	0	5	5
091812	14:34:30	10001	Trial750Fr	CongruentLeft750	15	0	487	0	114	14:34:30	2240259	4	3	1	3	3	2	1	2	2	7	6	0	0	0	0	5	5
091812	14:34:30	10001	Trial750Fr	CongruentLeft750	15	0	487	0	114	14:34:30	2241018	4	3	1	3	3	2	1	2	2	7	6	0	0	0	0	5	5
091812	14:34:30	10001	Trial750Fr	IncongruentRight750	15	0	487	0	114	14:34:30	2241778	4	3	1	3	3	2	1	2	2	7	6	0	0	0	0	5	5
091812	14:34:30	10001	Trial750Fr	IncongruentLeft750	15	0	487	0	114	14:34:30	2242538	4	3	1	3	3	2	1	2	2	7	6	0	0	0	0	5	5
091812	14:34:30	10001	Trial750Fr	IncongruentRight750	15	0	487	0	114	14:34:30	2243297	4	3	1	3	3	2	1	2	2	7	6	0	0	0	0	5	5
091812	14:34:30	10001	Trial750Fr	CongruentRight750	15	0	487	0	114	14:34:30	2244057	4	3	1	3	3	2	1	2	2	7	6	0	0	0	0	5	5
091812	14:34:30	10001	Trial750Fr	CongruentRight750	15	205	438	1	114	14:34:30	2244777	4	3	1	3	3	2	1	2	2	7	6	0	0	0	0	5	5
091812	14:34:30	10001	Trial750Fr	IncongruentLeft750	15	203	431	1	114	14:34:30	2245523	4	3	1	3	3	2	1	2	2	7	6	0	0	0	0	5	5
091812	14:34:30	10001	Trial750Fr	CongruentLeft750	15	0	487	0	114	14:34:30	2246323	4	3	1	3	3	2	1	2	2	7	6	0	0	0	0	5	5
091812	14:34:30	10001	Trial750Fr	CongruentRight750	15	0	487	0	114	14:34:30	2247082	4	3	1	3	3	2	1	2	2	7	6	0	0	0	0	5	5
091812	14:34:30	10001	Trial750Fr	CongruentLeft750	15	0	487	0	114	14:34:30	2247842	4	3	1	3	3	2	1	2	2	7	6	0	0	0	0	5	5
091812	14:34:30	10001	Trial750Fr	IncongruentRight750	15	0	487	0	114	14:34:30	2248603	4	3	1	3	3	2	1	2	2	7	6	0	0	0	0	5	5
091812	14:34:30	10001	Trial750Fr	CongruentRight750	15	0	487	0	114	14:34:30	2249362	4	3	1	3	3	2	1	2	2	7	6	0	0	0	0	5	5
091812	14:34:30	10001	Trial750Fr	CongruentLeft750	15	203	464	1	114	14:34:30	2250121	4	3	1	3	3	2	1	2	2	7	6	0	0	0	0	5	5
091812	14:34:30	10001	Trial750Fr	IncongruentLeft750	15	0	487	0	114	14:34:30	2250881	4	3	1	3	3	2	1	2	2	7	6	0	0	0	0	5	5
091812	14:34:30	10001	Trial750Fr	IncongruentLeft750	15	0	487	0	114	14:34:30	2251641	4	3	1	3	3	2	1	2	2	7	6	0	0	0	0	5	5
091812	14:34:30	10001	Trial750Fr	CongruentRight750	15	203	286	0	114	14:34:30	2252200	4	3	1	3	3	2	1	2	2	7	6	0	0	0	0	5	5
091812	14:34:30	10001	Trial750Fr	IncongruentRight750	15	205	332	1	114	14:34:30	2253013	4	3	1	3	3	2	1	2	2	7	6	0	0	0	0	5	5
091812	14:34:30	10001	Trial750Fr	CongruentLeft750	15	0	487	0	114	14:34:30	2253906	4	3	1	3	3	2	1	2	2	7	6	0	0	0	0	5	5
091812	14:34:30	10001	Trial750Fr	IncongruentRight750	15	0	487	0	114	14:34:30	2254666	4	3	1	3	3	2	1	2	2	7	6	0	0	0	0	5	5
091812	14:34:30	10001	Trial750Fr	CongruentRight750	15	205	485	1	114	14:34:30	2255426	4	3	1	3	3	2	1	2	2	7	6	0	0	0	0	5	5
091812	14:34:30	10001	Trial750Fr	IncongruentLeft750	15	203	413	1	114	14:34:30	2256119	4	3	1	3	3	2	1	2	2	7	6	0	0	0	0	5	5
091812	14:34:30	10001	Trial750Fr	CongruentLeft750	15	203	454	1	114	14:34:30	2256919	4	3	1	3	3	2	1	2	2	7	6	0	0	0	0	5	5
091812	14:34:30	10001	Trial750Fr	CongruentRight750	15	0	487	0	114	14:34:30	2257692	4	3	1	3	3	2	1	2	2	7	6	0	0	0	0	5	5
091812	14:34:30	10001	Trial750Fr	IncongruentLeft750	15	203	483	1	114	14:34:30	2258451	4	3	1	3	3	2	1	2	2	7	6	0	0	0	0	5	5
091812	14:34:30	10001	Trial750Fr	CongruentRight750	15	0	487	0	114	14:34:30	2259211	4	3	1	3	3	2	1	2	2	7	6	0	0	0	0	5	5
091812	14:34:30	10001	Trial750Fr	CongruentRight750	15	0	487	0	114	14:34:30	2259971	4	3	1	3	3	2	1	2	2	7	6	0	0	0	0	5	5
091812	14:34:30	10001	Trial750Fr	IncongruentRight750	15	0	487	0	114	14:34:30	2260731	4	3	1	3	3	2	1	2	2	7	6	0	0	0	0	5	5
091812	14:34:30	10001	Trial750Fr	CongruentLeft750	15	0	487	0	114	14:34:30	2261490	4	3	1	3	3	2	1	2	2	7	6	0	0	0	0	5	5
091812	14:34:30	10001	Trial750Fr	IncongruentLeft750	15	205	301	0	114	14:34:30	2262063	4	3	1	3	3	2	1	2	2	7	6	0	0	0	0	5	5
091812	14:34:30	10001	Trial750Fr	CongruentLeft750	15	0	487	0	114	14:34:30	2262996	4	3	1	3	3	2	1	2	2	7	6	0	0	0	0	5	5
091812	14:34:30	10001	Trial750Fr	IncongruentRight750	15	0	487	0	114	14:34:30	2263756	4	3	1	3	3	2	1	2	2	7	6	0	0	0	0	5	5
091812	14:34:30	10001	Trial750Fr	IncongruentLeft750	15	0	487	0	114	14:34:30	2264529	4	3	1	3	3	2	1	2	2	7	6	0	0	0	0	5	5
091812	14:34:30	10001	Trial750Fr	CongruentRight750	15	205	269	1	114	14:34:30	2265076	4	3	1	3	3	2	1	2	2	7	6	0	0	0	0	5	5
091812	14:34:30	10001	Trial750Fr	CongruentLeft750	15	0	487	0	114	14:34:30	2266035	4	3	1	3	3	2	1	2	2	7	6	0	0	0	0	5	5
091812	14:34:30	10001	Trial750Fr	IncongruentLeft750	15	0	487	0	114	14:34:30	2266795	4	3	1	3	3	2	1	2	2	7	6	0	0	0	0	5	5
091812	14:34:30	10001	Trial750Fr	CongruentLeft750	15	0	487	0	114	14:34:30	2267554	4	3	1	3	3	2	1	2	2	7	6	0	0	0	0	5	5
091812	14:34:30	10001	Trial750Fr	IncongruentRight750	15	203	274	0	114	14:34:30	2268101	4	3	1	3	3	2	1	2	2	7	6	0	0	0	0	5	5
091812	14:34:30	10001	Trial750Fr	CongruentRight750	15	205	373	1	114	14:34:30	2268967	4	3	1	3	3	2	1	2	2	7	6	0	0	0	0	5	5
091812	14:34:30	10001	Trial750Fr	IncongruentLeft750	15	203	458	1	114	14:34:30	2269794	4	3	1	3	3	2	1	2	2	7	6	0	0	0	0	5	5
091812	14:34:30	10001	Trial750Fr	CongruentLeft750	15	0	487	0	114	14:34:30	2270567	4	3	1	3	3	2	1	2	2	7	6	0	0	0	0	5	5
091812	14:34:30	10001	Trial750Fr	IncongruentRight750	15	203	9	0	114	14:34:30	2270847	4	3	1	3	3	2	1	2	2	7	6	0	0	0	0	5	5
091812	14:34:30	10001	Trial750Fr	IncongruentLeft750	15	0	487	0	114	14:34:30	2272073	4	3	1	3	3	2	1	2	2	7	6	0	0	0	0	5	5
091812	14:34:30	10001	Trial750Fr	CongruentLeft750	15	0	487	0	114	14:34:30	2272832	4	3	1	3	3	2	1	2	2	7	6	0	0	0	0	5	5
091812	14:34:30	10001	Trial750Fr	IncongruentLeft750	15	203	94	1	114	14:34:30	2273206	4	3	1	3	3	2	1	2	2	7	6	0	0	0	0	5	5
091812	14:34:30	10001	Trial750Fr	CongruentRight750	15	205	471	1	114	14:34:30	2274339	4	3	1	3	3	2	1	2	2	7	6	0	0	0	0	5	5
091812	14:34:30	10001	Trial750Fr	CongruentLeft750	15	0	487	0	114	14:34:30	2275098	4	3	1	3	3	2	1	2	2	7	6	0	0	0	0	5	5
091812	14:34:30	10001	Trial750Fr	IncongruentRight750	15	0	487	0	114	14:34:30	2275858	4	3	1	3	3	2	1	2	2	7	6	0	0	0	0	5	5
091812	14:34:30	10001	Trial750Fr	CongruentLeft750	15	0	487	0	114	14:34:30	2276618	4	3	1	3	3	2	1	2	2	7	6	0	0	0	0	5	5
091812	14:34:30	10001	Trial750Fr	CongruentRight750	15	0	487	0	114	14:34:30	2277377	4	3	1	3	3	2	1	2	2	7	6	0	0	0	0	5	5
091812	14:34:30	10001	Trial750Fr	IncongruentLeft750	15	203	381	1	114	14:34:30	2278030	4	3	1	3	3	2	1	2	2	7	6	0	0	0	0	5	5
091812	14:34:30	10001	WordsAbsFr6mo	PAbsFr6mo1	16	Abs1	5109	0	114	14:34:30	2297876	4	3	1	3	3	2	1	2	2	7	6	0	0	0	0	5	5
091812	14:34:30	10001	WordsAbsFr6mo	AbsFr6mo1	16	Abs1	3627	0	114	14:34:30	2301541	4	3	1	3	3	2	1	2	2	7	6	1	0	0	0	5	5
091812	14:34:30	10001	WordsAbsFr6mo	AbsFr6mo2	16	Abs1	11862	0	114	14:34:30	2313456	4	3	1	3	3	2	1	2	2	7	6	2	0	0	0	5	5
091812	14:34:30	10001	WordsAbsFr6mo	AbsFr6mo3	16	Abs1	12328	0	114	14:34:30	2325825	4	3	1	3	3	2	1	2	2	7	6	3	0	0	0	5	5
091812	14:34:30	10001	Trial2BackFrS	NS	17	0	1000	1	114	14:34:30	2421001	4	3	1	3	3	2	1	2	2	7	6	3	0	0	0	5	5
091812	14:34:30	10001	Trial2BackFrS	NS	17	0	1000	1	114	14:34:30	2422520	4	3	1	3	3	2	1	2	2	7	6	3	0	0	0	5	5
091812	14:34:30	10001	Trial2BackFrS	NS	17	0	1000	1	114	14:34:30	2424039	4	3	1	3	3	2	1	2	2	7	6	3	0	0	0	5	5
091812	14:34:30	10001	Trial2BackFrS	YS	17	57	486	1	114	14:34:30	2425052	4	3	1	3	3	2	1	2	2	7	6	3	0	0	0	5	5
091812	14:34:30	10001	Trial2BackFrS	NS	17	0	1000	1	114	14:34:30	2427065	4	3	1	3	3	2	1	2	2	7	6	3	0	0	0	5	5
091812	14:34:30	10001	Trial2BackFrS	NS	17	0	1000	1	114	14:34:30	2428584	4	3	1	3	3	2	1	2	2	7	6	3	0	0	0	5	5
091812	14:34:30	10001	Trial2BackFrS	NS	17	57	585	0	114	14:34:30	2429690	4	3	1	3	3	2	1	2	2	7	6	3	0	0	0	5	5
091812	14:34:30	10001	Trial2BackFrS	NS	17	0	1000	1	114	14:34:30	2431610	4	3	1	3	3	2	1	2	2	7	6	3	0	0	0	5	5
091812	14:34:30	10001	Trial2BackFrS	YS	17	57	647	1	114	14:34:30	2432782	4	3	1	3	3	2	1	2	2	7	6	3	0	0	0	5	5
091812	14:34:30	10001	Trial2BackFrS	NS	17	0	1000	1	114	14:34:30	2434635	4	3	1	3	3	2	1	2	2	7	6	3	0	0	0	5	5
091812	14:34:30	10001	Trial2BackFrS	NS	17	0	1000	1	114	14:34:30	2436154	4	3	1	3	3	2	1	2	2	7	6	3	0	0	0	5	5
091812	14:34:30	10001	Trial2BackFrS	YS	17	0	1000	0	114	14:34:30	2437674	4	3	1	3	3	2	1	2	2	7	6	3	0	0	0	5	5
091812	14:34:30	10001	Trial2BackFrS	NS	17	0	1000	1	114	14:34:30	2439193	4	3	1	3	3	2	1	2	2	7	6	3	0	0	0	5	5
091812	14:34:30	10001	Trial2BackFrS	NS	17	0	1000	1	114	14:34:30	2440713	4	3	1	3	3	2	1	2	2	7	6	3	0	0	0	5	5
091812	14:34:30	10001	Trial2BackFrS	NS	17	0	1000	1	114	14:34:30	2442232	4	3	1	3	3	2	1	2	2	7	6	3	0	0	0	5	5
091812	14:34:30	10001	Trial2BackFrS	YS	17	57	569	1	114	14:34:30	2443325	4	3	1	3	3	2	1	2	2	7	6	3	0	0	0	5	5
091812	14:34:30	10001	Trial2BackFrS	NS	17	0	1000	1	114	14:34:30	2445271	4	3	1	3	3	2	1	2	2	7	6	3	0	0	0	5	5
091812	14:34:30	10001	Trial2BackFrS	NS	17	0	1000	1	114	14:34:30	2446790	4	3	1	3	3	2	1	2	2	7	6	3	0	0	0	5	5
091812	14:34:30	10001	Trial2BackFrS	NS	17	0	1000	1	114	14:34:30	2448310	4	3	1	3	3	2	1	2	2	7	6	3	0	0	0	5	5
091812	14:34:30	10001	Trial2BackFrS	NS	17	0	1000	1	114	14:34:30	2449829	4	3	1	3	3	2	1	2	2	7	6	3	0	0	0	5	5
091812	14:34:30	10001	Trial2BackFrS	YS	17	57	586	1	114	14:34:30	2450949	4	3	1	3	3	2	1	2	2	7	6	3	0	0	0	5	5
091812	14:34:30	10001	Trial2BackFrS	NS	17	0	1000	1	114	14:34:30	2452855	4	3	1	3	3	2	1	2	2	7	6	3	0	0	0	5	5
091812	14:34:30	10001	Trial2BackFrS	NS	17	0	1000	1	114	14:34:30	2454374	4	3	1	3	3	2	1	2	2	7	6	3	0	0	0	5	5
091812	14:34:30	10001	Trial2BackFrS	NS	17	0	1000	1	114	14:34:30	2455893	4	3	1	3	3	2	1	2	2	7	6	3	0	0	0	5	5
091812	14:34:30	10001	Trial2BackFrS	NS	17	57	522	0	114	14:34:30	2456946	4	3	1	3	3	2	1	2	2	7	6	3	0	0	0	5	5
091812	14:34:30	10001	Trial2BackFrS	NS	17	0	1000	1	114	14:34:30	2458919	4	3	1	3	3	2	1	2	2	7	6	3	0	0	0	5	5
091812	14:34:30	10001	Trial2BackFrS	NS	17	0	1000	1	114	14:34:30	2460438	4	3	1	3	3	2	1	2	2	7	6	3	0	0	0	5	5
091812	14:34:30	10001	Trial2BackFrS	NS	17	57	600	0	114	14:34:30	2461571	4	3	1	3	3	2	1	2	2	7	6	3	0	0	0	5	5
091812	14:34:30	10001	Trial2BackFrS	NS	17	57	872	0	114	14:34:30	2463344	4	3	1	3	3	2	1	2	2	7	6	3	0	0	0	5	5
091812	14:34:30	10001	Trial2BackFrS	NS	17	0	1000	1	114	14:34:30	2464956	4	3	1	3	3	2	1	2	2	7	6	3	0	0	0	5	5
091812	14:34:30	10001	Trial2BackFrS	NS	17	0	1000	1	114	14:34:30	2466476	4	3	1	3	3	2	1	2	2	7	6	3	0	0	0	5	5
091812	14:34:30	10001	Trial2BackFrS	YS	17	57	451	1	114	14:34:30	2467462	4	3	1	3	3	2	1	2	2	7	6	3	0	0	0	5	5
091812	14:34:30	10001	Trial2BackFrS	NS	17	0	1000	1	114	14:34:30	2469501	4	3	1	3	3	2	1	2	2	7	6	3	0	0	0	5	5
091812	14:34:30	10001	Trial2BackFrS	NS	17	0	1000	1	114	14:34:30	2471021	4	3	1	3	3	2	1	2	2	7	6	3	0	0	0	5	5
091812	14:34:30	10001	Trial2BackFrS	NS	17	57	419	0	114	14:34:30	2471967	4	3	1	3	3	2	1	2	2	7	6	3	0	0	0	5	5
091812	14:34:30	10001	Trial2BackFrS	YS	17	57	689	1	114	14:34:30	2473740	4	3	1	3	3	2	1	2	2	7	6	3	0	0	0	5	5
091812	14:34:30	10001	Trial2BackFrS	NS	17	0	1000	1	114	14:34:30	2475539	4	3	1	3	3	2	1	2	2	7	6	3	0	0	0	5	5
091812	14:34:30	10001	Trial2BackFrS	NS	17	0	1000	1	114	14:34:30	2477058	4	3	1	3	3	2	1	2	2	7	6	3	0	0	0	5	5
091812	14:34:30	10001	Trial2BackFrS	NS	17	57	605	0	114	14:34:30	2478191	4	3	1	3	3	2	1	2	2	7	6	3	0	0	0	5	5
091812	14:34:30	10001	Trial2BackFrS	NS	17	0	1000	1	114	14:34:30	2480084	4	3	1	3	3	2	1	2	2	7	6	3	0	0	0	5	5
091812	14:34:30	10001	Trial2BackFrS	NS	17	0	1000	1	114	14:34:30	2481603	4	3	1	3	3	2	1	2	2	7	6	3	0	0	0	5	5
091812	14:34:30	10001	Trial2BackFrS	NS	17	0	1000	1	114	14:34:30	2483123	4	3	1	3	3	2	1	2	2	7	6	3	0	0	0	5	5
091812	14:34:30	10001	Trial2BackFrS	NS	17	0	1000	1	114	14:34:30	2484642	4	3	1	3	3	2	1	2	2	7	6	3	0	0	0	5	5
091812	14:34:30	10001	Trial2BackFrS	YS	17	57	799	1	114	14:34:30	2485988	4	3	1	3	3	2	1	2	2	7	6	3	0	0	0	5	5
091812	14:34:30	10001	Trial2BackFrS	NS	17	0	1000	1	114	14:34:30	2487667	4	3	1	3	3	2	1	2	2	7	6	3	0	0	0	5	5
091812	14:34:30	10001	Trial2BackFrS	NS	17	0	1000	1	114	14:34:30	2489187	4	3	1	3	3	2	1	2	2	7	6	3	0	0	0	5	5
091812	14:34:30	10001	Trial2BackFrS	NS	17	0	1000	1	114	14:34:30	2490706	4	3	1	3	3	2	1	2	2	7	6	3	0	0	0	5	5
091812	14:34:30	10001	Trial2BackFrS	NS	17	0	1000	1	114	14:34:30	2492226	4	3	1	3	3	2	1	2	2	7	6	3	0	0	0	5	5
091812	14:34:30	10001	Trial2BackFrS	YS	17	57	590	1	114	14:34:30	2493345	4	3	1	3	3	2	1	2	2	7	6	3	0	0	0	5	5
091812	14:34:30	10001	Trial2BackFrS	NS	17	0	1000	1	114	14:34:30	2495251	4	3	1	3	3	2	1	2	2	7	6	3	0	0	0	5	5
091812	14:34:30	10001	Trial2BackFrS	NS	17	0	1000	1	114	14:34:30	2496771	4	3	1	3	3	2	1	2	2	7	6	3	0	0	0	5	5
091812	14:34:30	10001	Trial2BackFrS	NS	17	0	1000	1	114	14:34:30	2498290	4	3	1	3	3	2	1	2	2	7	6	3	0	0	0	5	5
091812	14:34:30	10001	Trial2BackFrS	NS	17	0	1000	1	114	14:34:30	2499809	4	3	1	3	3	2	1	2	2	7	6	3	0	0	0	5	5
091812	14:34:30	10001	Trial2BackFrS	NS	17	0	1000	1	114	14:34:30	2501329	4	3	1	3	3	2	1	2	2	7	6	3	0	0	0	5	5
091812	14:34:30	10001	Trial2BackFrS	NS	17	57	493	0	114	14:34:30	2502355	4	3	1	3	3	2	1	2	2	7	6	3	0	0	0	5	5
091812	14:34:30	10001	Trial2BackFrS	YS	17	57	893	1	114	14:34:30	2504261	4	3	1	3	3	2	1	2	2	7	6	3	0	0	0	5	5
091812	14:34:30	10001	Trial2BackFrS	NS	17	0	1000	1	114	14:34:30	2505847	4	3	1	3	3	2	1	2	2	7	6	3	0	0	0	5	5
091812	14:34:30	10001	Trial2BackFrS	NS	17	0	1000	1	114	14:34:30	2507366	4	3	1	3	3	2	1	2	2	7	6	3	0	0	0	5	5
091812	14:34:30	10001	Trial2BackFrS	NS	17	0	1000	1	114	14:34:30	2508886	4	3	1	3	3	2	1	2	2	7	6	3	0	0	0	5	5
091812	14:34:30	10001	Trial2BackFrS	NS	17	0	1000	1	114	14:34:30	2510405	4	3	1	3	3	2	1	2	2	7	6	3	0	0	0	5	5
091812	14:34:30	10001	Trial2BackFrS	NS	17	0	1000	1	114	14:34:30	2511925	4	3	1	3	3	2	1	2	2	7	6	3	0	0	0	5	5
091812	14:34:30	10001	Trial2BackFrS	NS	17	0	1000	1	114	14:34:30	2513444	4	3	1	3	3	2	1	2	2	7	6	3	0	0	0	5	5
091812	14:34:30	10001	Trial2BackFrS	NS	17	57	524	0	114	14:34:30	2514497	4	3	1	3	3	2	1	2	2	7	6	3	0	0	0	5	5
091812	14:34:30	10001	Trial2BackFrS	YS	17	0	1000	0	114	14:34:30	2516469	4	3	1	3	3	2	1	2	2	7	6	3	0	0	0	5	5
091812	14:34:30	10001	Trial2BackFrS	NS	17	0	1000	1	114	14:34:30	2517989	4	3	1	3	3	2	1	2	2	7	6	3	0	0	0	5	5
091812	14:34:30	10001	Trial2BackFrS	NS	17	0	1000	1	114	14:34:30	2519508	4	3	1	3	3	2	1	2	2	7	6	3	0	0	0	5	5
091812	14:34:30	10001	Trial2BackFrS	NS	17	0	1000	1	114	14:34:30	2521028	4	3	1	3	3	2	1	2	2	7	6	3	0	0	0	5	5
091812	14:34:30	10001	Trial2BackFrS	NS	17	0	1000	1	114	14:34:30	2522547	4	3	1	3	3	2	1	2	2	7	6	3	0	0	0	5	5
091812	14:34:30	10001	Trial2BackFrS	YS	17	0	1000	0	114	14:34:30	2524066	4	3	1	3	3	2	1	2	2	7	6	3	0	0	0	5	5
091812	14:34:30	10001	Trial2BackFrS	NS	17	0	1000	1	114	14:34:30	2525586	4	3	1	3	3	2	1	2	2	7	6	3	0	0	0	5	5
091812	14:34:30	10001	Trial2BackFrS	NS	17	0	1000	1	114	14:34:30	2527105	4	3	1	3	3	2	1	2	2	7	6	3	0	0	0	5	5
091812	14:34:30	10001	Trial2BackFrS	YS	17	57	476	1	114	14:34:30	2528105	4	3	1	3	3	2	1	2	2	7	6	3	0	0	0	5	5
091812	14:34:30	10001	Trial2BackFrS	NS	17	0	1000	1	114	14:34:30	2530131	4	3	1	3	3	2	1	2	2	7	6	3	0	0	0	5	5
091812	14:34:30	10001	Trial2BackFrS	NS	17	0	1000	1	114	14:34:30	2531650	4	3	1	3	3	2	1	2	2	7	6	3	0	0	0	5	5
091812	14:34:30	10001	Trial2BackFrS	NS	17	57	859	0	114	14:34:30	2533036	4	3	1	3	3	2	1	2	2	7	6	3	0	0	0	5	5
091812	14:34:30	10001	Trial2BackFrS	NS	17	0	1000	1	114	14:34:30	2534676	4	3	1	3	3	2	1	2	2	7	6	3	0	0	0	5	5
091812	14:34:30	10001	Trial2BackFrS	NS	17	57	746	0	114	14:34:30	2535955	4	3	1	3	3	2	1	2	2	7	6	3	0	0	0	5	5
091812	14:34:30	10001	Trial2BackFrS	NS	17	0	1000	1	114	14:34:30	2537701	4	3	1	3	3	2	1	2	2	7	6	3	0	0	0	5	5
091812	14:34:30	10001	Trial2BackFrS	YS	17	57	753	1	114	14:34:30	2538994	4	3	1	3	3	2	1	2	2	7	6	3	0	0	0	5	5
091812	14:34:30	10001	Trial2BackFrS	NS	17	0	1000	1	114	14:34:30	2540727	4	3	1	3	3	2	1	2	2	7	6	3	0	0	0	5	5
091812	14:34:30	10001	Trial2BackFrS	NS	17	0	1000	1	114	14:34:30	2542246	4	3	1	3	3	2	1	2	2	7	6	3	0	0	0	5	5
091812	14:34:30	10001	Trial2BackFrS	NS	17	0	1000	1	114	14:34:30	2543765	4	3	1	3	3	2	1	2	2	7	6	3	0	0	0	5	5
091812	14:34:30	10001	Trial2BackFrS	NS	17	0	1000	1	114	14:34:30	2545285	4	3	1	3	3	2	1	2	2	7	6	3	0	0	0	5	5
091812	14:34:30	10001	Trial2BackFrS	YS	17	57	522	1	114	14:34:30	2546338	4	3	1	3	3	2	1	2	2	7	6	3	0	0	0	5	5
091812	14:34:30	10001	Trial2BackFrS	NS	17	0	1000	1	114	14:34:30	2548310	4	3	1	3	3	2	1	2	2	7	6	3	0	0	0	5	5
091812	14:34:30	10001	Trial2BackFrS	NS	17	0	1000	1	114	14:34:30	2549830	4	3	1	3	3	2	1	2	2	7	6	3	0	0	0	5	5
091812	14:34:30	10001	Trial2BackFrS	NS	17	0	1000	1	114	14:34:30	2551349	4	3	1	3	3	2	1	2	2	7	6	3	0	0	0	5	5
091812	14:34:30	10001	Trial2BackFrS	NS	17	0	1000	1	114	14:34:30	2552869	4	3	1	3	3	2	1	2	2	7	6	3	0	0	0	5	5
091812	14:34:30	10001	Trial2BackFrS	YS	17	0	1000	0	114	14:34:30	2554388	4	3	1	3	3	2	1	2	2	7	6	3	0	0	0	5	5
091812	14:34:30	10001	Trial2BackFrS	NS	17	0	1000	1	114	14:34:30	2555907	4	3	1	3	3	2	1	2	2	7	6	3	0	0	0	5	5
091812	14:34:30	10001	Trial2BackFrS	NS	17	0	1000	1	114	14:34:30	2557427	4	3	1	3	3	2	1	2	2	7	6	3	0	0	0	5	5
091812	14:34:30	10001	Trial2BackFrS	YS	17	57	746	1	114	14:34:30	2558706	4	3	1	3	3	2	1	2	2	7	6	3	0	0	0	5	5
091812	14:34:30	10001	Trial2BackFrS	NS	17	0	1000	1	114	14:34:30	2560452	4	3	1	3	3	2	1	2	2	7	6	3	0	0	0	5	5
091812	14:34:30	10001	Trial2BackFrS	NS	17	57	793	0	114	14:34:30	2561771	4	3	1	3	3	2	1	2	2	7	6	3	0	0	0	5	5
091812	14:34:30	10001	Trial2BackFrS	NS	17	0	1000	1	114	14:34:30	2563478	4	3	1	3	3	2	1	2	2	7	6	3	0	0	0	5	5
091812	14:34:30	10001	Trial2BackFrS	NS	17	0	1000	1	114	14:34:30	2564997	4	3	1	3	3	2	1	2	2	7	6	3	0	0	0	5	5
091812	14:34:30	10001	Trial2BackFrS	NS	17	0	1000	1	114	14:34:30	2566516	4	3	1	3	3	2	1	2	2	7	6	3	0	0	0	5	5
091812	14:34:30	10001	Trial2BackFrS	NS	17	0	1000	1	114	14:34:30	2568036	4	3	1	3	3	2	1	2	2	7	6	3	0	0	0	5	5
091812	14:34:30	10001	Trial2BackFrS	NS	17	0	1000	1	114	14:34:30	2569555	4	3	1	3	3	2	1	2	2	7	6	3	0	0	0	5	5
091812	14:34:30	10001	Trial2BackFrS	NS	17	0	1000	1	114	14:34:30	2571075	4	3	1	3	3	2	1	2	2	7	6	3	0	0	0	5	5
091812	14:34:30	10001	Trial2BackFrS	YS	17	57	412	1	114	14:34:30	2572021	4	3	1	3	3	2	1	2	2	7	6	3	0	0	0	5	5
091812	14:34:30	10001	Trial2BackFrS	NS	17	57	877	0	114	14:34:30	2573994	4	3	1	3	3	2	1	2	2	7	6	3	0	0	0	5	5
091812	14:34:30	10001	Trial2BackFrS	NS	17	0	1000	1	114	14:34:30	2575606	4	3	1	3	3	2	1	2	2	7	6	3	0	0	0	5	5
091812	14:34:30	10001	Trial2BackFrS	NS	17	0	1000	1	114	14:34:30	2577126	4	3	1	3	3	2	1	2	2	7	6	3	0	0	0	5	5
091812	14:34:30	10001	Trial2BackFrS	NS	17	0	1000	1	114	14:34:30	2578645	4	3	1	3	3	2	1	2	2	7	6	3	0	0	0	5	5
091812	14:34:30	10001	Trial2BackFrS	NS	17	0	1000	1	114	14:34:30	2580164	4	3	1	3	3	2	1	2	2	7	6	3	0	0	0	5	5
091812	14:34:30	10001	Trial2BackFrS	NS	17	0	1000	1	114	14:34:30	2581684	4	3	1	3	3	2	1	2	2	7	6	3	0	0	0	5	5
091812	14:34:30	10001	Trial2BackFrS	NS	17	0	1000	1	114	14:34:30	2583203	4	3	1	3	3	2	1	2	2	7	6	3	0	0	0	5	5
091812	14:34:30	10001	Trial2BackFrS	YS	17	0	1000	0	114	14:34:30	2584723	4	3	1	3	3	2	1	2	2	7	6	3	0	0	0	5	5
091812	14:34:30	10001	Trial2BackFrS	NS	17	0	1000	1	114	14:34:30	2586242	4	3	1	3	3	2	1	2	2	7	6	3	0	0	0	5	5
091812	14:34:30	10001	Trial2BackFrS	NS	17	0	1000	1	114	14:34:30	2587761	4	3	1	3	3	2	1	2	2	7	6	3	0	0	0	5	5
091812	14:34:30	10001	Trial2BackFrS	NS	17	57	507	0	114	14:34:30	2588801	4	3	1	3	3	2	1	2	2	7	6	3	0	0	0	5	5
091812	14:34:30	10001	Trial2BackFrS	NS	17	0	1000	1	114	14:34:30	2590787	4	3	1	3	3	2	1	2	2	7	6	3	0	0	0	5	5
091812	14:34:30	10001	Trial2BackFrS	NS	17	0	1000	1	114	14:34:30	2592306	4	3	1	3	3	2	1	2	2	7	6	3	0	0	0	5	5
091812	14:34:30	10001	Trial2BackFrS	NS	17	0	1000	1	114	14:34:30	2593826	4	3	1	3	3	2	1	2	2	7	6	3	0	0	0	5	5
091812	14:34:30	10001	Trial2BackFrS	NS	17	57	557	0	114	14:34:30	2594905	4	3	1	3	3	2	1	2	2	7	6	3	0	0	0	5	5
091812	14:34:30	10001	Trial2BackFrS	NS	17	0	1000	1	114	14:34:30	2596864	4	3	1	3	3	2	1	2	2	7	6	3	0	0	0	5	5
091812	14:34:30	10001	Trial2BackFrS	NS	17	0	1000	1	114	14:34:30	2598384	4	3	1	3	3	2	1	2	2	7	6	3	0	0	0	5	5
091812	14:34:30	10001	Trial2BackFrS	YS	17	57	783	1	114	14:34:30	2599690	4	3	1	3	3	2	1	2	2	7	6	3	0	0	0	5	5
091812	14:34:30	10001	Trial2BackFrS	NS	17	0	1000	1	114	14:34:30	2601409	4	3	1	3	3	2	1	2	2	7	6	3	0	0	0	5	5
091812	14:34:30	10001	ClockFr6mo	ClockFr6mo	19	Clock1	49251	0	114	14:34:30	2650790	4	3	1	3	3	2	1	2	2	7	6	3	1	0	0	5	5
091812	14:34:30	10001	ClockFr6mo	ClockFr6mo	19	Clock11	556	0	114	14:34:30	2651390	4	3	1	3	3	2	1	2	2	7	6	3	1	1	0	5	5
091812	14:34:30	10001	ClockFr6mo	ClockFr6mo	19	Clock111	505	0	114	14:34:30	2651950	4	3	1	3	3	2	1	2	2	7	6	3	1	1	1	5	5
091812	14:34:30	10001	ClockFr6mo	ClockFr6mo	19	Clockdone	485	0	114	14:34:30	2652469	4	3	1	3	3	2	1	2	2	7	6	3	1	1	1	5	5
091812	14:34:30	10001	FASFrVF6mo	StopFrVF6mo	20	16	33812	0	114	14:34:30	2785035	4	3	1	3	3	2	1	2	2	7	6	3	1	1	1	5	5
