date	time	subject	blockcode	trialcode	values.TaskNumber	response	latency	correct	values.Score	script.starttime	script.elapsedtime	values.ScoreS7	values.Word1	values.Word2	values.Word3	values.Word4	values.Word5	values.Word6	values.Word7	values.Word8	values.DigitSpanFwrd	values.DigitSpanBack	values.ScoreAbs	values.Contour	values.Numbers	values.Hands	values.corsiblockspanFwrd	values.corsiblockspanRev
090712	17:43:45	10014	Language	Language	0	French	17910	0	0	17:43:45	18009	0	0	0	0	0	0	0	0	0	0	0	0	0	0	0	0	0
090712	17:43:45	10014	Session	Session	0	3mo	1642	0	0	17:43:45	19728	0	0	0	0	0	0	0	0	0	0	0	0	0	0	0	0	0
090712	17:43:45	10014	HandFr	HandFr	0	RightFr	697218	0	0	17:43:45	717026	0	0	0	0	0	0	0	0	0	0	0	0	0	0	0	0	0
090712	17:43:45	10014	AudioCheckFr	WordsFr	0	0	0	0	0	17:43:45	737454	0	0	0	0	0	0	0	0	0	0	0	0	0	0	0	0	0
090712	17:43:45	10014	CubeFr	CubeFr	1	1Cube	45552	0	0	17:43:45	784450	0	0	0	0	0	0	0	0	0	0	0	0	0	0	0	0	0
090712	17:43:45	10014	pm.simpleFrRight	blank.simpleFr	2	0	2387	1	0	17:43:45	806374	0	0	0	0	0	0	0	0	0	0	0	0	0	0	0	0	0
090712	17:43:45	10014	pm.simpleFrRight	pm.simpleFr	2	57	450	0	0	17:43:45	806854	0	0	0	0	0	0	0	0	0	0	0	0	0	0	0	0	0
090712	17:43:45	10014	pm.simpleFrRight	blank.simpleFr	2	0	1687	1	0	17:43:45	808560	0	0	0	0	0	0	0	0	0	0	0	0	0	0	0	0	0
090712	17:43:45	10014	pm.simpleFrRight	pm.simpleFr	2	57	424	0	0	17:43:45	809026	0	0	0	0	0	0	0	0	0	0	0	0	0	0	0	0	0
090712	17:43:45	10014	pm.simpleFrRight	blank.simpleFr	2	0	1987	1	0	17:43:45	811039	0	0	0	0	0	0	0	0	0	0	0	0	0	0	0	0	0
090712	17:43:45	10014	pm.simpleFrRight	pm.simpleFr	2	57	313	0	0	17:43:45	811385	0	0	0	0	0	0	0	0	0	0	0	0	0	0	0	0	0
090712	17:43:45	10014	pm.simpleFrRight	blank.simpleFr	2	0	1587	1	0	17:43:45	812998	0	0	0	0	0	0	0	0	0	0	0	0	0	0	0	0	0
090712	17:43:45	10014	pm.simpleFrRight	pm.simpleFr	2	57	290	0	0	17:43:45	813318	0	0	0	0	0	0	0	0	0	0	0	0	0	0	0	0	0
090712	17:43:45	10014	pm.simpleFrRight	blank.simpleFr	2	0	1487	1	0	17:43:45	814824	0	0	0	0	0	0	0	0	0	0	0	0	0	0	0	0	0
090712	17:43:45	10014	pm.simpleFrRight	pm.simpleFr	2	57	304	0	0	17:43:45	815157	0	0	0	0	0	0	0	0	0	0	0	0	0	0	0	0	0
090712	17:43:45	10014	pm.simpleFrRight	blank.simpleFr	2	0	2187	1	0	17:43:45	817369	0	0	0	0	0	0	0	0	0	0	0	0	0	0	0	0	0
090712	17:43:45	10014	pm.simpleFrRight	pm.simpleFr	2	57	462	0	0	17:43:45	817863	0	0	0	0	0	0	0	0	0	0	0	0	0	0	0	0	0
090712	17:43:45	10014	pm.simpleFrRight	blank.simpleFr	2	0	1887	1	0	17:43:45	819768	0	0	0	0	0	0	0	0	0	0	0	0	0	0	0	0	0
090712	17:43:45	10014	pm.simpleFrRight	pm.simpleFr	2	57	335	0	0	17:43:45	820141	0	0	0	0	0	0	0	0	0	0	0	0	0	0	0	0	0
090712	17:43:45	10014	pm.simpleFrRight	blank.simpleFr	2	0	1787	1	0	17:43:45	821954	0	0	0	0	0	0	0	0	0	0	0	0	0	0	0	0	0
090712	17:43:45	10014	pm.simpleFrRight	pm.simpleFr	2	57	309	0	0	17:43:45	822301	0	0	0	0	0	0	0	0	0	0	0	0	0	0	0	0	0
090712	17:43:45	10014	pm.simpleFrRight	blank.simpleFr	2	0	2487	1	0	17:43:45	824806	0	0	0	0	0	0	0	0	0	0	0	0	0	0	0	0	0
090712	17:43:45	10014	pm.simpleFrRight	pm.simpleFr	2	57	385	0	0	17:43:45	825233	0	0	0	0	0	0	0	0	0	0	0	0	0	0	0	0	0
090712	17:43:45	10014	pm.simpleFrRight	blank.simpleFr	2	0	2087	1	0	17:43:45	827352	0	0	0	0	0	0	0	0	0	0	0	0	0	0	0	0	0
090712	17:43:45	10014	pm.simpleFrRight	pm.simpleFr	2	57	303	0	0	17:43:45	827685	0	0	0	0	0	0	0	0	0	0	0	0	0	0	0	0	0
090712	17:43:45	10014	pm.simpleFrRight	blank.simpleFr	2	0	2287	1	0	17:43:45	829991	0	0	0	0	0	0	0	0	0	0	0	0	0	0	0	0	0
090712	17:43:45	10014	pm.simpleFrRight	pm.simpleFr	2	57	288	0	0	17:43:45	830311	0	0	0	0	0	0	0	0	0	0	0	0	0	0	0	0	0
090712	17:43:45	10014	pm.simpleFrRight	blank.simpleFr	2	0	2287	1	0	17:43:45	832630	0	0	0	0	0	0	0	0	0	0	0	0	0	0	0	0	0
090712	17:43:45	10014	pm.simpleFrRight	pm.simpleFr	2	57	273	0	0	17:43:45	832936	0	0	0	0	0	0	0	0	0	0	0	0	0	0	0	0	0
090712	17:43:45	10014	pm.simpleFrRight	blank.simpleFr	2	0	2087	1	0	17:43:45	835055	0	0	0	0	0	0	0	0	0	0	0	0	0	0	0	0	0
090712	17:43:45	10014	pm.simpleFrRight	pm.simpleFr	2	57	280	0	0	17:43:45	835375	0	0	0	0	0	0	0	0	0	0	0	0	0	0	0	0	0
090712	17:43:45	10014	pm.simpleFrRight	blank.simpleFr	2	0	2387	1	0	17:43:45	837802	0	0	0	0	0	0	0	0	0	0	0	0	0	0	0	0	0
090712	17:43:45	10014	pm.simpleFrRight	pm.simpleFr	2	57	269	0	0	17:43:45	838107	0	0	0	0	0	0	0	0	0	0	0	0	0	0	0	0	0
090712	17:43:45	10014	pm.simpleFrRight	blank.simpleFr	2	0	1687	1	0	17:43:45	839827	0	0	0	0	0	0	0	0	0	0	0	0	0	0	0	0	0
090712	17:43:45	10014	pm.simpleFrRight	pm.simpleFr	2	57	388	0	0	17:43:45	840253	0	0	0	0	0	0	0	0	0	0	0	0	0	0	0	0	0
090712	17:43:45	10014	pm.simpleFrRight	blank.simpleFr	2	0	1987	1	0	17:43:45	842266	0	0	0	0	0	0	0	0	0	0	0	0	0	0	0	0	0
090712	17:43:45	10014	pm.simpleFrRight	pm.simpleFr	2	57	477	0	0	17:43:45	842772	0	0	0	0	0	0	0	0	0	0	0	0	0	0	0	0	0
090712	17:43:45	10014	pm.simpleFrRight	blank.simpleFr	2	0	1887	1	0	17:43:45	844691	0	0	0	0	0	0	0	0	0	0	0	0	0	0	0	0	0
090712	17:43:45	10014	pm.simpleFrRight	pm.simpleFr	2	57	467	0	0	17:43:45	845198	0	0	0	0	0	0	0	0	0	0	0	0	0	0	0	0	0
090712	17:43:45	10014	pm.simpleFrRight	blank.simpleFr	2	0	2487	1	0	17:43:45	847717	0	0	0	0	0	0	0	0	0	0	0	0	0	0	0	0	0
090712	17:43:45	10014	pm.simpleFrRight	pm.simpleFr	2	57	289	0	0	17:43:45	848037	0	0	0	0	0	0	0	0	0	0	0	0	0	0	0	0	0
090712	17:43:45	10014	pm.simpleFrRight	blank.simpleFr	2	0	2187	1	0	17:43:45	850249	0	0	0	0	0	0	0	0	0	0	0	0	0	0	0	0	0
090712	17:43:45	10014	pm.simpleFrRight	pm.simpleFr	2	57	461	0	0	17:43:45	850742	0	0	0	0	0	0	0	0	0	0	0	0	0	0	0	0	0
090712	17:43:45	10014	pm.simpleFrRight	blank.simpleFr	2	0	1787	1	0	17:43:45	852555	0	0	0	0	0	0	0	0	0	0	0	0	0	0	0	0	0
090712	17:43:45	10014	pm.simpleFrRight	pm.simpleFr	2	57	251	0	0	17:43:45	852848	0	0	0	0	0	0	0	0	0	0	0	0	0	0	0	0	0
090712	17:43:45	10014	pm.simpleFrRight	blank.simpleFr	2	0	1487	1	0	17:43:45	854354	0	0	0	0	0	0	0	0	0	0	0	0	0	0	0	0	0
090712	17:43:45	10014	pm.simpleFrRight	pm.simpleFr	2	57	260	0	0	17:43:45	854647	0	0	0	0	0	0	0	0	0	0	0	0	0	0	0	0	0
090712	17:43:45	10014	pm.simpleFrRight	blank.simpleFr	2	0	1587	1	0	17:43:45	856260	0	0	0	0	0	0	0	0	0	0	0	0	0	0	0	0	0
090712	17:43:45	10014	pm.simpleFrRight	pm.simpleFr	2	57	274	0	0	17:43:45	856567	0	0	0	0	0	0	0	0	0	0	0	0	0	0	0	0	0
090712	17:43:45	10014	pm.simpleFrRight	blank.simpleFr	2	0	2487	1	0	17:43:45	859085	0	0	0	0	0	0	0	0	0	0	0	0	0	0	0	0	0
090712	17:43:45	10014	pm.simpleFrRight	pm.simpleFr	2	57	281	0	0	17:43:45	859405	0	0	0	0	0	0	0	0	0	0	0	0	0	0	0	0	0
090712	17:43:45	10014	pm.simpleFrRight	blank.simpleFr	2	0	2287	1	0	17:43:45	861724	0	0	0	0	0	0	0	0	0	0	0	0	0	0	0	0	0
090712	17:43:45	10014	pm.simpleFrRight	pm.simpleFr	2	57	265	0	0	17:43:45	862031	0	0	0	0	0	0	0	0	0	0	0	0	0	0	0	0	0
090712	17:43:45	10014	pm.simpleFrRight	blank.simpleFr	2	0	1687	1	0	17:43:45	863737	0	0	0	0	0	0	0	0	0	0	0	0	0	0	0	0	0
090712	17:43:45	10014	pm.simpleFrRight	pm.simpleFr	2	57	301	0	0	17:43:45	864070	0	0	0	0	0	0	0	0	0	0	0	0	0	0	0	0	0
090712	17:43:45	10014	pm.simpleFrRight	blank.simpleFr	2	0	1987	1	0	17:43:45	866083	0	0	0	0	0	0	0	0	0	0	0	0	0	0	0	0	0
090712	17:43:45	10014	pm.simpleFrRight	pm.simpleFr	2	57	259	0	0	17:43:45	866376	0	0	0	0	0	0	0	0	0	0	0	0	0	0	0	0	0
090712	17:43:45	10014	pm.simpleFrRight	blank.simpleFr	2	0	1887	1	0	17:43:45	868295	0	0	0	0	0	0	0	0	0	0	0	0	0	0	0	0	0
090712	17:43:45	10014	pm.simpleFrRight	pm.simpleFr	2	57	303	0	0	17:43:45	868628	0	0	0	0	0	0	0	0	0	0	0	0	0	0	0	0	0
090712	17:43:45	10014	pm.simpleFrRight	blank.simpleFr	2	0	1587	1	0	17:43:45	870241	0	0	0	0	0	0	0	0	0	0	0	0	0	0	0	0	0
090712	17:43:45	10014	pm.simpleFrRight	pm.simpleFr	2	57	277	0	0	17:43:45	870547	0	0	0	0	0	0	0	0	0	0	0	0	0	0	0	0	0
090712	17:43:45	10014	pm.simpleFrRight	blank.simpleFr	2	0	1487	1	0	17:43:45	872053	0	0	0	0	0	0	0	0	0	0	0	0	0	0	0	0	0
090712	17:43:45	10014	pm.simpleFrRight	pm.simpleFr	2	57	256	0	0	17:43:45	872346	0	0	0	0	0	0	0	0	0	0	0	0	0	0	0	0	0
090712	17:43:45	10014	pm.simpleFrRight	blank.simpleFr	2	0	2187	1	0	17:43:45	874559	0	0	0	0	0	0	0	0	0	0	0	0	0	0	0	0	0
090712	17:43:45	10014	pm.simpleFrRight	pm.simpleFr	2	57	279	0	0	17:43:45	874879	0	0	0	0	0	0	0	0	0	0	0	0	0	0	0	0	0
090712	17:43:45	10014	pm.simpleFrRight	blank.simpleFr	2	0	1787	1	0	17:43:45	876692	0	0	0	0	0	0	0	0	0	0	0	0	0	0	0	0	0
090712	17:43:45	10014	pm.simpleFrRight	pm.simpleFr	2	57	338	0	0	17:43:45	877065	0	0	0	0	0	0	0	0	0	0	0	0	0	0	0	0	0
090712	17:43:45	10014	pm.simpleFrRight	blank.simpleFr	2	0	2087	1	0	17:43:45	879171	0	0	0	0	0	0	0	0	0	0	0	0	0	0	0	0	0
090712	17:43:45	10014	pm.simpleFrRight	pm.simpleFr	2	57	307	0	0	17:43:45	879517	0	0	0	0	0	0	0	0	0	0	0	0	0	0	0	0	0
090712	17:43:45	10014	pm.simpleFrRight	blank.simpleFr	2	0	2387	1	0	17:43:45	881929	0	0	0	0	0	0	0	0	0	0	0	0	0	0	0	0	0
090712	17:43:45	10014	pm.simpleFrRight	pm.simpleFr	2	57	268	0	0	17:43:45	882236	0	0	0	0	0	0	0	0	0	0	0	0	0	0	0	0	0
090712	17:43:45	10014	pm.simpleFrRight	blank.simpleFr	2	0	2487	1	0	17:43:45	884755	0	0	0	0	0	0	0	0	0	0	0	0	0	0	0	0	0
090712	17:43:45	10014	pm.simpleFrRight	pm.simpleFr	2	57	275	0	0	17:43:45	885062	0	0	0	0	0	0	0	0	0	0	0	0	0	0	0	0	0
090712	17:43:45	10014	pm.simpleFrRight	blank.simpleFr	2	0	2087	1	0	17:43:45	887181	0	0	0	0	0	0	0	0	0	0	0	0	0	0	0	0	0
090712	17:43:45	10014	pm.simpleFrRight	pm.simpleFr	2	57	281	0	0	17:43:45	887500	0	0	0	0	0	0	0	0	0	0	0	0	0	0	0	0	0
090712	17:43:45	10014	pm.simpleFrRight	blank.simpleFr	2	0	1987	1	0	17:43:45	889513	0	0	0	0	0	0	0	0	0	0	0	0	0	0	0	0	0
090712	17:43:45	10014	pm.simpleFrRight	pm.simpleFr	2	57	268	0	0	17:43:45	889819	0	0	0	0	0	0	0	0	0	0	0	0	0	0	0	0	0
090712	17:43:45	10014	pm.simpleFrRight	blank.simpleFr	2	0	1687	1	0	17:43:45	891525	0	0	0	0	0	0	0	0	0	0	0	0	0	0	0	0	0
090712	17:43:45	10014	pm.simpleFrRight	pm.simpleFr	2	57	272	0	0	17:43:45	891832	0	0	0	0	0	0	0	0	0	0	0	0	0	0	0	0	0
090712	17:43:45	10014	pm.simpleFrRight	blank.simpleFr	2	0	1887	1	0	17:43:45	893751	0	0	0	0	0	0	0	0	0	0	0	0	0	0	0	0	0
090712	17:43:45	10014	pm.simpleFrRight	pm.simpleFr	2	57	286	0	0	17:43:45	894071	0	0	0	0	0	0	0	0	0	0	0	0	0	0	0	0	0
090712	17:43:45	10014	pm.simpleFrRight	blank.simpleFr	2	0	1587	1	0	17:43:45	895684	0	0	0	0	0	0	0	0	0	0	0	0	0	0	0	0	0
090712	17:43:45	10014	pm.simpleFrRight	pm.simpleFr	2	57	289	0	0	17:43:45	896004	0	0	0	0	0	0	0	0	0	0	0	0	0	0	0	0	0
090712	17:43:45	10014	pm.simpleFrRight	blank.simpleFr	2	0	2387	1	0	17:43:45	898416	0	0	0	0	0	0	0	0	0	0	0	0	0	0	0	0	0
090712	17:43:45	10014	pm.simpleFrRight	pm.simpleFr	2	57	357	0	0	17:43:45	898816	0	0	0	0	0	0	0	0	0	0	0	0	0	0	0	0	0
090712	17:43:45	10014	Trial2BackFr	N	3	0	1000	1	1	17:43:45	1006078	0	0	0	0	0	0	0	0	0	0	0	0	0	0	0	0	0
090712	17:43:45	10014	Trial2BackFr	N	3	0	1000	1	2	17:43:45	1007597	0	0	0	0	0	0	0	0	0	0	0	0	0	0	0	0	0
090712	17:43:45	10014	Trial2BackFr	N	3	0	1000	1	3	17:43:45	1009117	0	0	0	0	0	0	0	0	0	0	0	0	0	0	0	0	0
090712	17:43:45	10014	Trial2BackFr	N	3	0	1000	1	4	17:43:45	1010636	0	0	0	0	0	0	0	0	0	0	0	0	0	0	0	0	0
090712	17:43:45	10014	Trial2BackFr	N	3	0	1000	1	5	17:43:45	1012155	0	0	0	0	0	0	0	0	0	0	0	0	0	0	0	0	0
090712	17:43:45	10014	Trial2BackFr	N	3	0	1000	1	6	17:43:45	1013675	0	0	0	0	0	0	0	0	0	0	0	0	0	0	0	0	0
090712	17:43:45	10014	Trial2BackFr	N	3	0	1000	1	7	17:43:45	1015194	0	0	0	0	0	0	0	0	0	0	0	0	0	0	0	0	0
090712	17:43:45	10014	Trial2BackFr	N	3	0	1000	1	8	17:43:45	1016713	0	0	0	0	0	0	0	0	0	0	0	0	0	0	0	0	0
090712	17:43:45	10014	Trial2BackFr	Y	3	57	556	1	9	17:43:45	1017793	0	0	0	0	0	0	0	0	0	0	0	0	0	0	0	0	0
090712	17:43:45	10014	Trial2BackFr	N	3	0	1000	1	10	17:43:45	1019739	0	0	0	0	0	0	0	0	0	0	0	0	0	0	0	0	0
090712	17:43:45	10014	Trial2BackFr	N	3	0	1000	1	11	17:43:45	1021258	0	0	0	0	0	0	0	0	0	0	0	0	0	0	0	0	0
090712	17:43:45	10014	Trial2BackFr	N	3	0	1000	1	12	17:43:45	1022778	0	0	0	0	0	0	0	0	0	0	0	0	0	0	0	0	0
090712	17:43:45	10014	Trial2BackFr	Y	3	57	492	1	13	17:43:45	1023804	0	0	0	0	0	0	0	0	0	0	0	0	0	0	0	0	0
090712	17:43:45	10014	Trial2BackFr	N	3	0	1000	1	14	17:43:45	1025803	0	0	0	0	0	0	0	0	0	0	0	0	0	0	0	0	0
090712	17:43:45	10014	Trial2BackFr	N	3	0	1000	1	15	17:43:45	1027322	0	0	0	0	0	0	0	0	0	0	0	0	0	0	0	0	0
090712	17:43:45	10014	Trial2BackFr	N	3	0	1000	1	16	17:43:45	1028842	0	0	0	0	0	0	0	0	0	0	0	0	0	0	0	0	0
090712	17:43:45	10014	Trial2BackFr	N	3	0	1000	1	17	17:43:45	1030361	0	0	0	0	0	0	0	0	0	0	0	0	0	0	0	0	0
090712	17:43:45	10014	Trial2BackFr	N	3	0	1000	1	18	17:43:45	1031881	0	0	0	0	0	0	0	0	0	0	0	0	0	0	0	0	0
090712	17:43:45	10014	Trial2BackFr	Y	3	57	396	1	19	17:43:45	1032800	0	0	0	0	0	0	0	0	0	0	0	0	0	0	0	0	0
090712	17:43:45	10014	Trial2BackFr	N	3	0	1000	1	20	17:43:45	1034906	0	0	0	0	0	0	0	0	0	0	0	0	0	0	0	0	0
090712	17:43:45	10014	Trial2BackFr	N	3	0	1000	1	21	17:43:45	1036425	0	0	0	0	0	0	0	0	0	0	0	0	0	0	0	0	0
090712	17:43:45	10014	Trial2BackFr	N	3	0	1000	1	22	17:43:45	1037945	0	0	0	0	0	0	0	0	0	0	0	0	0	0	0	0	0
090712	17:43:45	10014	Trial2BackFr	N	3	0	1000	1	23	17:43:45	1039464	0	0	0	0	0	0	0	0	0	0	0	0	0	0	0	0	0
090712	17:43:45	10014	Trial2BackFr	Y	3	57	525	1	24	17:43:45	1040517	0	0	0	0	0	0	0	0	0	0	0	0	0	0	0	0	0
090712	17:43:45	10014	Trial2BackFr	N	3	0	1000	1	25	17:43:45	1042489	0	0	0	0	0	0	0	0	0	0	0	0	0	0	0	0	0
090712	17:43:45	10014	Trial2BackFr	N	3	0	1000	1	26	17:43:45	1044009	0	0	0	0	0	0	0	0	0	0	0	0	0	0	0	0	0
090712	17:43:45	10014	Trial2BackFr	N	3	0	1000	1	27	17:43:45	1045528	0	0	0	0	0	0	0	0	0	0	0	0	0	0	0	0	0
090712	17:43:45	10014	Trial2BackFr	N	3	0	1000	1	28	17:43:45	1047048	0	0	0	0	0	0	0	0	0	0	0	0	0	0	0	0	0
090712	17:43:45	10014	Trial2BackFr	N	3	0	1000	1	29	17:43:45	1048567	0	0	0	0	0	0	0	0	0	0	0	0	0	0	0	0	0
090712	17:43:45	10014	Trial2BackFr	N	3	0	1000	1	30	17:43:45	1050086	0	0	0	0	0	0	0	0	0	0	0	0	0	0	0	0	0
090712	17:43:45	10014	Trial2BackFr	Y	3	57	398	1	31	17:43:45	1051019	0	0	0	0	0	0	0	0	0	0	0	0	0	0	0	0	0
090712	17:43:45	10014	Trial2BackFr	N	3	0	1000	1	32	17:43:45	1053112	0	0	0	0	0	0	0	0	0	0	0	0	0	0	0	0	0
090712	17:43:45	10014	Trial2BackFr	N	3	0	1000	1	33	17:43:45	1054631	0	0	0	0	0	0	0	0	0	0	0	0	0	0	0	0	0
090712	17:43:45	10014	Trial2BackFr	N	3	0	1000	1	34	17:43:45	1056150	0	0	0	0	0	0	0	0	0	0	0	0	0	0	0	0	0
090712	17:43:45	10014	Trial2BackFr	Y	3	57	574	1	35	17:43:45	1057257	0	0	0	0	0	0	0	0	0	0	0	0	0	0	0	0	0
090712	17:43:45	10014	Trial2BackFr	N	3	0	1000	1	36	17:43:45	1059176	0	0	0	0	0	0	0	0	0	0	0	0	0	0	0	0	0
090712	17:43:45	10014	Trial2BackFr	N	3	0	1000	1	37	17:43:45	1060695	0	0	0	0	0	0	0	0	0	0	0	0	0	0	0	0	0
090712	17:43:45	10014	Trial2BackFr	N	3	0	1000	1	38	17:43:45	1062215	0	0	0	0	0	0	0	0	0	0	0	0	0	0	0	0	0
090712	17:43:45	10014	Trial2BackFr	N	3	0	1000	1	39	17:43:45	1063734	0	0	0	0	0	0	0	0	0	0	0	0	0	0	0	0	0
090712	17:43:45	10014	Trial2BackFr	N	3	0	1000	1	40	17:43:45	1065253	0	0	0	0	0	0	0	0	0	0	0	0	0	0	0	0	0
090712	17:43:45	10014	Trial2BackFr	N	3	0	1000	1	41	17:43:45	1066773	0	0	0	0	0	0	0	0	0	0	0	0	0	0	0	0	0
090712	17:43:45	10014	Trial2BackFr	Y	3	57	559	1	42	17:43:45	1067866	0	0	0	0	0	0	0	0	0	0	0	0	0	0	0	0	0
090712	17:43:45	10014	Trial2BackFr	N	3	0	1000	1	43	17:43:45	1069798	0	0	0	0	0	0	0	0	0	0	0	0	0	0	0	0	0
090712	17:43:45	10014	Trial2BackFr	N	3	0	1000	1	44	17:43:45	1071317	0	0	0	0	0	0	0	0	0	0	0	0	0	0	0	0	0
090712	17:43:45	10014	Trial2BackFr	N	3	0	1000	1	45	17:43:45	1072837	0	0	0	0	0	0	0	0	0	0	0	0	0	0	0	0	0
090712	17:43:45	10014	Trial2BackFr	N	3	0	1000	1	46	17:43:45	1074356	0	0	0	0	0	0	0	0	0	0	0	0	0	0	0	0	0
090712	17:43:45	10014	Trial2BackFr	Y	3	57	639	1	47	17:43:45	1075529	0	0	0	0	0	0	0	0	0	0	0	0	0	0	0	0	0
090712	17:43:45	10014	Trial2BackFr	N	3	0	1000	1	48	17:43:45	1077382	0	0	0	0	0	0	0	0	0	0	0	0	0	0	0	0	0
090712	17:43:45	10014	Trial2BackFr	N	3	0	1000	1	49	17:43:45	1078901	0	0	0	0	0	0	0	0	0	0	0	0	0	0	0	0	0
090712	17:43:45	10014	Trial2BackFr	N	3	0	1000	1	50	17:43:45	1080420	0	0	0	0	0	0	0	0	0	0	0	0	0	0	0	0	0
090712	17:43:45	10014	Trial2BackFr	N	3	0	1000	1	51	17:43:45	1081940	0	0	0	0	0	0	0	0	0	0	0	0	0	0	0	0	0
090712	17:43:45	10014	Trial2BackFr	N	3	0	1000	1	52	17:43:45	1083459	0	0	0	0	0	0	0	0	0	0	0	0	0	0	0	0	0
090712	17:43:45	10014	Trial2BackFr	Y	3	57	432	1	53	17:43:45	1084418	0	0	0	0	0	0	0	0	0	0	0	0	0	0	0	0	0
090712	17:43:45	10014	Trial2BackFr	N	3	0	1000	1	54	17:43:45	1086485	0	0	0	0	0	0	0	0	0	0	0	0	0	0	0	0	0
090712	17:43:45	10014	Trial2BackFr	N	3	0	1000	1	55	17:43:45	1088004	0	0	0	0	0	0	0	0	0	0	0	0	0	0	0	0	0
090712	17:43:45	10014	Trial2BackFr	N	3	0	1000	1	56	17:43:45	1089523	0	0	0	0	0	0	0	0	0	0	0	0	0	0	0	0	0
090712	17:43:45	10014	Trial2BackFr	N	3	0	1000	1	57	17:43:45	1091043	0	0	0	0	0	0	0	0	0	0	0	0	0	0	0	0	0
090712	17:43:45	10014	Trial2BackFr	N	3	0	1000	1	58	17:43:45	1092562	0	0	0	0	0	0	0	0	0	0	0	0	0	0	0	0	0
090712	17:43:45	10014	Trial2BackFr	N	3	0	1000	1	59	17:43:45	1094081	0	0	0	0	0	0	0	0	0	0	0	0	0	0	0	0	0
090712	17:43:45	10014	Trial2BackFr	Y	3	57	385	1	60	17:43:45	1095001	0	0	0	0	0	0	0	0	0	0	0	0	0	0	0	0	0
090712	17:43:45	10014	Trial2BackFr	N	3	0	1000	1	61	17:43:45	1097107	0	0	0	0	0	0	0	0	0	0	0	0	0	0	0	0	0
090712	17:43:45	10014	Trial2BackFr	N	3	0	1000	1	62	17:43:45	1098626	0	0	0	0	0	0	0	0	0	0	0	0	0	0	0	0	0
090712	17:43:45	10014	Trial2BackFr	Y	3	57	704	1	63	17:43:45	1099852	0	0	0	0	0	0	0	0	0	0	0	0	0	0	0	0	0
090712	17:43:45	10014	Trial2BackFr	N	3	0	1000	1	64	17:43:45	1101652	0	0	0	0	0	0	0	0	0	0	0	0	0	0	0	0	0
090712	17:43:45	10014	Trial2BackFr	N	3	0	1000	1	65	17:43:45	1103171	0	0	0	0	0	0	0	0	0	0	0	0	0	0	0	0	0
090712	17:43:45	10014	Trial2BackFr	N	3	0	1000	1	66	17:43:45	1104690	0	0	0	0	0	0	0	0	0	0	0	0	0	0	0	0	0
090712	17:43:45	10014	Trial2BackFr	N	3	0	1000	1	67	17:43:45	1106210	0	0	0	0	0	0	0	0	0	0	0	0	0	0	0	0	0
090712	17:43:45	10014	Trial2BackFr	N	3	0	1000	1	68	17:43:45	1107729	0	0	0	0	0	0	0	0	0	0	0	0	0	0	0	0	0
090712	17:43:45	10014	Trial2BackFr	N	3	0	1000	1	69	17:43:45	1109248	0	0	0	0	0	0	0	0	0	0	0	0	0	0	0	0	0
090712	17:43:45	10014	Trial2BackFr	N	3	0	1000	1	70	17:43:45	1110768	0	0	0	0	0	0	0	0	0	0	0	0	0	0	0	0	0
090712	17:43:45	10014	Trial2BackFr	N	3	0	1000	1	71	17:43:45	1112287	0	0	0	0	0	0	0	0	0	0	0	0	0	0	0	0	0
090712	17:43:45	10014	Trial2BackFr	N	3	0	1000	1	72	17:43:45	1113807	0	0	0	0	0	0	0	0	0	0	0	0	0	0	0	0	0
090712	17:43:45	10014	Trial2BackFr	N	3	0	1000	1	73	17:43:45	1115326	0	0	0	0	0	0	0	0	0	0	0	0	0	0	0	0	0
090712	17:43:45	10014	Trial2BackFr	Y	3	57	628	1	74	17:43:45	1116485	0	0	0	0	0	0	0	0	0	0	0	0	0	0	0	0	0
090712	17:43:45	10014	Trial2BackFr	N	3	0	1000	1	75	17:43:45	1118351	0	0	0	0	0	0	0	0	0	0	0	0	0	0	0	0	0
090712	17:43:45	10014	Trial2BackFr	N	3	0	1000	1	76	17:43:45	1119871	0	0	0	0	0	0	0	0	0	0	0	0	0	0	0	0	0
090712	17:43:45	10014	Trial2BackFr	N	3	0	1000	1	77	17:43:45	1121390	0	0	0	0	0	0	0	0	0	0	0	0	0	0	0	0	0
090712	17:43:45	10014	Trial2BackFr	Y	3	57	708	1	78	17:43:45	1122629	0	0	0	0	0	0	0	0	0	0	0	0	0	0	0	0	0
090712	17:43:45	10014	Trial2BackFr	N	3	0	1000	1	79	17:43:45	1124415	0	0	0	0	0	0	0	0	0	0	0	0	0	0	0	0	0
090712	17:43:45	10014	Trial2BackFr	N	3	0	1000	1	80	17:43:45	1125935	0	0	0	0	0	0	0	0	0	0	0	0	0	0	0	0	0
090712	17:43:45	10014	Trial2BackFr	N	3	0	1000	1	81	17:43:45	1127454	0	0	0	0	0	0	0	0	0	0	0	0	0	0	0	0	0
090712	17:43:45	10014	Trial2BackFr	N	3	0	1000	1	82	17:43:45	1128974	0	0	0	0	0	0	0	0	0	0	0	0	0	0	0	0	0
090712	17:43:45	10014	Trial2BackFr	N	3	0	1000	1	83	17:43:45	1130493	0	0	0	0	0	0	0	0	0	0	0	0	0	0	0	0	0
090712	17:43:45	10014	Trial2BackFr	Y	3	57	437	1	84	17:43:45	1131452	0	0	0	0	0	0	0	0	0	0	0	0	0	0	0	0	0
090712	17:43:45	10014	Trial2BackFr	N	3	0	1000	1	85	17:43:45	1133518	0	0	0	0	0	0	0	0	0	0	0	0	0	0	0	0	0
090712	17:43:45	10014	Trial2BackFr	N	3	0	1000	1	86	17:43:45	1135038	0	0	0	0	0	0	0	0	0	0	0	0	0	0	0	0	0
090712	17:43:45	10014	Trial2BackFr	N	3	0	1000	1	87	17:43:45	1136557	0	0	0	0	0	0	0	0	0	0	0	0	0	0	0	0	0
090712	17:43:45	10014	Trial2BackFr	N	3	0	1000	1	88	17:43:45	1138076	0	0	0	0	0	0	0	0	0	0	0	0	0	0	0	0	0
090712	17:43:45	10014	Trial2BackFr	N	3	0	1000	1	89	17:43:45	1139596	0	0	0	0	0	0	0	0	0	0	0	0	0	0	0	0	0
090712	17:43:45	10014	Trial2BackFr	N	3	0	1000	1	90	17:43:45	1141115	0	0	0	0	0	0	0	0	0	0	0	0	0	0	0	0	0
090712	17:43:45	10014	Trial2BackFr	N	3	0	1000	1	91	17:43:45	1142635	0	0	0	0	0	0	0	0	0	0	0	0	0	0	0	0	0
090712	17:43:45	10014	Trial2BackFr	N	3	0	1000	1	92	17:43:45	1144154	0	0	0	0	0	0	0	0	0	0	0	0	0	0	0	0	0
090712	17:43:45	10014	Trial2BackFr	N	3	0	1000	1	93	17:43:45	1145673	0	0	0	0	0	0	0	0	0	0	0	0	0	0	0	0	0
090712	17:43:45	10014	Trial2BackFr	Y	3	57	520	1	94	17:43:45	1146726	0	0	0	0	0	0	0	0	0	0	0	0	0	0	0	0	0
090712	17:43:45	10014	Trial2BackFr	N	3	0	1000	1	95	17:43:45	1148699	0	0	0	0	0	0	0	0	0	0	0	0	0	0	0	0	0
090712	17:43:45	10014	Trial2BackFr	N	3	0	1000	1	96	17:43:45	1150218	0	0	0	0	0	0	0	0	0	0	0	0	0	0	0	0	0
090712	17:43:45	10014	Trial2BackFr	N	3	0	1000	1	97	17:43:45	1151737	0	0	0	0	0	0	0	0	0	0	0	0	0	0	0	0	0
090712	17:43:45	10014	Trial2BackFr	N	3	0	1000	1	98	17:43:45	1153257	0	0	0	0	0	0	0	0	0	0	0	0	0	0	0	0	0
090712	17:43:45	10014	Trial2BackFr	N	3	0	1000	1	99	17:43:45	1154776	0	0	0	0	0	0	0	0	0	0	0	0	0	0	0	0	0
090712	17:43:45	10014	Trial2BackFr	N	3	0	1000	1	100	17:43:45	1156296	0	0	0	0	0	0	0	0	0	0	0	0	0	0	0	0	0
090712	17:43:45	10014	Trial2BackFr	N	3	0	1000	1	101	17:43:45	1157815	0	0	0	0	0	0	0	0	0	0	0	0	0	0	0	0	0
090712	17:43:45	10014	Trial2BackFr	N	3	0	1000	1	102	17:43:45	1159334	0	0	0	0	0	0	0	0	0	0	0	0	0	0	0	0	0
090712	17:43:45	10014	Trial2BackFr	Y	3	57	570	1	103	17:43:45	1160427	0	0	0	0	0	0	0	0	0	0	0	0	0	0	0	0	0
090712	17:43:45	10014	Trial2BackFr	N	3	0	1000	1	104	17:43:45	1162360	0	0	0	0	0	0	0	0	0	0	0	0	0	0	0	0	0
090712	17:43:45	10014	Trial2BackFr	N	3	0	1000	1	105	17:43:45	1163879	0	0	0	0	0	0	0	0	0	0	0	0	0	0	0	0	0
090712	17:43:45	10014	Trial2BackFr	N	3	0	1000	1	106	17:43:45	1165398	0	0	0	0	0	0	0	0	0	0	0	0	0	0	0	0	0
090712	17:43:45	10014	Trial2BackFr	N	3	0	1000	1	107	17:43:45	1166918	0	0	0	0	0	0	0	0	0	0	0	0	0	0	0	0	0
090712	17:43:45	10014	Trial2BackFr	Y	3	57	667	1	108	17:43:45	1168118	0	0	0	0	0	0	0	0	0	0	0	0	0	0	0	0	0
090712	17:43:45	10014	Trial2BackFr	N	3	0	1000	1	109	17:43:45	1169943	0	0	0	0	0	0	0	0	0	0	0	0	0	0	0	0	0
090712	17:43:45	10014	Trial2BackFr	N	3	0	1000	1	110	17:43:45	1171463	0	0	0	0	0	0	0	0	0	0	0	0	0	0	0	0	0
090712	17:43:45	10014	Trial2BackFr	N	3	0	1000	1	111	17:43:45	1172982	0	0	0	0	0	0	0	0	0	0	0	0	0	0	0	0	0
090712	17:43:45	10014	Trial2BackFr	Y	3	57	714	1	112	17:43:45	1174221	0	0	0	0	0	0	0	0	0	0	0	0	0	0	0	0	0
090712	17:43:45	10014	Trial2BackFr	N	3	0	1000	1	113	17:43:45	1176007	0	0	0	0	0	0	0	0	0	0	0	0	0	0	0	0	0
090712	17:43:45	10014	Trial2BackFr	N	3	0	1000	1	114	17:43:45	1177527	0	0	0	0	0	0	0	0	0	0	0	0	0	0	0	0	0
090712	17:43:45	10014	Trial2BackFr	N	3	0	1000	1	115	17:43:45	1179046	0	0	0	0	0	0	0	0	0	0	0	0	0	0	0	0	0
090712	17:43:45	10014	Trial2BackFr	N	3	0	1000	1	116	17:43:45	1180566	0	0	0	0	0	0	0	0	0	0	0	0	0	0	0	0	0
090712	17:43:45	10014	Trial2BackFr	N	3	0	1000	1	117	17:43:45	1182085	0	0	0	0	0	0	0	0	0	0	0	0	0	0	0	0	0
090712	17:43:45	10014	Trial2BackFr	Y	3	57	443	1	118	17:43:45	1183058	0	0	0	0	0	0	0	0	0	0	0	0	0	0	0	0	0
090712	17:43:45	10014	Trial2BackFr	N	3	0	1000	1	119	17:43:45	1185110	0	0	0	0	0	0	0	0	0	0	0	0	0	0	0	0	0
090712	17:43:45	10014	Trial2BackFr	N	3	0	1000	1	120	17:43:45	1186630	0	0	0	0	0	0	0	0	0	0	0	0	0	0	0	0	0
090712	17:43:45	10014	Trial2BackFr	N	3	0	1000	1	121	17:43:45	1188149	0	0	0	0	0	0	0	0	0	0	0	0	0	0	0	0	0
090712	17:43:45	10014	Trial2BackFr	Y	3	57	490	1	122	17:43:45	1189162	0	0	0	0	0	0	0	0	0	0	0	0	0	0	0	0	0
090712	17:43:45	10014	Trial3BackFr	NN	4	0	1000	1	122	17:43:45	1226986	0	0	0	0	0	0	0	0	0	0	0	0	0	0	0	0	0
090712	17:43:45	10014	Trial3BackFr	NN	4	0	1000	1	122	17:43:45	1228506	0	0	0	0	0	0	0	0	0	0	0	0	0	0	0	0	0
090712	17:43:45	10014	Trial3BackFr	NN	4	0	1000	1	122	17:43:45	1230025	0	0	0	0	0	0	0	0	0	0	0	0	0	0	0	0	0
090712	17:43:45	10014	Trial3BackFr	YY	4	57	469	1	122	17:43:45	1231025	0	0	0	0	0	0	0	0	0	0	0	0	0	0	0	0	0
090712	17:43:45	10014	Trial3BackFr	NN	4	0	1000	1	122	17:43:45	1233050	0	0	0	0	0	0	0	0	0	0	0	0	0	0	0	0	0
090712	17:43:45	10014	Trial3BackFr	NN	4	0	1000	1	122	17:43:45	1234570	0	0	0	0	0	0	0	0	0	0	0	0	0	0	0	0	0
090712	17:43:45	10014	Trial3BackFr	NN	4	0	1000	1	122	17:43:45	1236089	0	0	0	0	0	0	0	0	0	0	0	0	0	0	0	0	0
090712	17:43:45	10014	Trial3BackFr	NN	4	0	1000	1	122	17:43:45	1237608	0	0	0	0	0	0	0	0	0	0	0	0	0	0	0	0	0
090712	17:43:45	10014	Trial3BackFr	YY	4	57	565	1	122	17:43:45	1238701	0	0	0	0	0	0	0	0	0	0	0	0	0	0	0	0	0
090712	17:43:45	10014	Trial3BackFr	NN	4	0	1000	1	122	17:43:45	1240634	0	0	0	0	0	0	0	0	0	0	0	0	0	0	0	0	0
090712	17:43:45	10014	Trial3BackFr	NN	4	0	1000	1	122	17:43:45	1242153	0	0	0	0	0	0	0	0	0	0	0	0	0	0	0	0	0
090712	17:43:45	10014	Trial3BackFr	NN	4	0	1000	1	122	17:43:45	1243673	0	0	0	0	0	0	0	0	0	0	0	0	0	0	0	0	0
090712	17:43:45	10014	Trial3BackFr	NN	4	0	1000	1	122	17:43:45	1245192	0	0	0	0	0	0	0	0	0	0	0	0	0	0	0	0	0
090712	17:43:45	10014	Trial3BackFr	NN	4	0	1000	1	122	17:43:45	1246711	0	0	0	0	0	0	0	0	0	0	0	0	0	0	0	0	0
090712	17:43:45	10014	Trial3BackFr	NN	4	0	1000	1	122	17:43:45	1248231	0	0	0	0	0	0	0	0	0	0	0	0	0	0	0	0	0
090712	17:43:45	10014	Trial3BackFr	NN	4	0	1000	1	122	17:43:45	1249750	0	0	0	0	0	0	0	0	0	0	0	0	0	0	0	0	0
090712	17:43:45	10014	Trial3BackFr	YY	4	57	759	1	122	17:43:45	1251043	0	0	0	0	0	0	0	0	0	0	0	0	0	0	0	0	0
090712	17:43:45	10014	Trial3BackFr	NN	4	0	1000	1	122	17:43:45	1252775	0	0	0	0	0	0	0	0	0	0	0	0	0	0	0	0	0
090712	17:43:45	10014	Trial3BackFr	NN	4	0	1000	1	122	17:43:45	1254295	0	0	0	0	0	0	0	0	0	0	0	0	0	0	0	0	0
090712	17:43:45	10014	Trial3BackFr	NN	4	0	1000	1	122	17:43:45	1255814	0	0	0	0	0	0	0	0	0	0	0	0	0	0	0	0	0
090712	17:43:45	10014	Trial3BackFr	NN	4	0	1000	1	122	17:43:45	1257334	0	0	0	0	0	0	0	0	0	0	0	0	0	0	0	0	0
090712	17:43:45	10014	Trial3BackFr	NN	4	0	1000	1	122	17:43:45	1258853	0	0	0	0	0	0	0	0	0	0	0	0	0	0	0	0	0
090712	17:43:45	10014	Trial3BackFr	YY	4	57	648	1	122	17:43:45	1260026	0	0	0	0	0	0	0	0	0	0	0	0	0	0	0	0	0
090712	17:43:45	10014	Trial3BackFr	NN	4	0	1000	1	122	17:43:45	1261878	0	0	0	0	0	0	0	0	0	0	0	0	0	0	0	0	0
090712	17:43:45	10014	Trial3BackFr	NN	4	0	1000	1	122	17:43:45	1263398	0	0	0	0	0	0	0	0	0	0	0	0	0	0	0	0	0
090712	17:43:45	10014	Trial3BackFr	NN	4	0	1000	1	122	17:43:45	1264917	0	0	0	0	0	0	0	0	0	0	0	0	0	0	0	0	0
090712	17:43:45	10014	Trial3BackFr	YY	4	57	872	1	122	17:43:45	1266316	0	0	0	0	0	0	0	0	0	0	0	0	0	0	0	0	0
090712	17:43:45	10014	Trial3BackFr	NN	4	0	1000	1	122	17:43:45	1267943	0	0	0	0	0	0	0	0	0	0	0	0	0	0	0	0	0
090712	17:43:45	10014	Trial3BackFr	NN	4	0	1000	1	122	17:43:45	1269462	0	0	0	0	0	0	0	0	0	0	0	0	0	0	0	0	0
090712	17:43:45	10014	Trial3BackFr	NN	4	0	1000	1	122	17:43:45	1270981	0	0	0	0	0	0	0	0	0	0	0	0	0	0	0	0	0
090712	17:43:45	10014	Trial3BackFr	YY	4	0	1000	0	122	17:43:45	1272501	0	0	0	0	0	0	0	0	0	0	0	0	0	0	0	0	0
090712	17:43:45	10014	Trial3BackFr	NN	4	0	1000	1	122	17:43:45	1274021	0	0	0	0	0	0	0	0	0	0	0	0	0	0	0	0	0
090712	17:43:45	10014	Trial3BackFr	NN	4	0	1000	1	122	17:43:45	1275539	0	0	0	0	0	0	0	0	0	0	0	0	0	0	0	0	0
090712	17:43:45	10014	Trial3BackFr	NN	4	0	1000	1	122	17:43:45	1277059	0	0	0	0	0	0	0	0	0	0	0	0	0	0	0	0	0
090712	17:43:45	10014	Trial3BackFr	NN	4	0	1000	1	122	17:43:45	1278578	0	0	0	0	0	0	0	0	0	0	0	0	0	0	0	0	0
090712	17:43:45	10014	Trial3BackFr	NN	4	0	1000	1	122	17:43:45	1280097	0	0	0	0	0	0	0	0	0	0	0	0	0	0	0	0	0
090712	17:43:45	10014	Trial3BackFr	NN	4	0	1000	1	122	17:43:45	1281617	0	0	0	0	0	0	0	0	0	0	0	0	0	0	0	0	0
090712	17:43:45	10014	Trial3BackFr	NN	4	0	1000	1	122	17:43:45	1283136	0	0	0	0	0	0	0	0	0	0	0	0	0	0	0	0	0
090712	17:43:45	10014	Trial3BackFr	NN	4	0	1000	1	122	17:43:45	1284656	0	0	0	0	0	0	0	0	0	0	0	0	0	0	0	0	0
090712	17:43:45	10014	Trial3BackFr	NN	4	57	621	0	122	17:43:45	1285802	0	0	0	0	0	0	0	0	0	0	0	0	0	0	0	0	0
090712	17:43:45	10014	Trial3BackFr	NN	4	0	1000	1	122	17:43:45	1287681	0	0	0	0	0	0	0	0	0	0	0	0	0	0	0	0	0
090712	17:43:45	10014	Trial3BackFr	YY	4	0	1000	0	122	17:43:45	1289200	0	0	0	0	0	0	0	0	0	0	0	0	0	0	0	0	0
090712	17:43:45	10014	Trial3BackFr	NN	4	0	1000	1	122	17:43:45	1290720	0	0	0	0	0	0	0	0	0	0	0	0	0	0	0	0	0
090712	17:43:45	10014	Trial3BackFr	NN	4	0	1000	1	122	17:43:45	1292239	0	0	0	0	0	0	0	0	0	0	0	0	0	0	0	0	0
090712	17:43:45	10014	Trial3BackFr	NN	4	0	1000	1	122	17:43:45	1293758	0	0	0	0	0	0	0	0	0	0	0	0	0	0	0	0	0
090712	17:43:45	10014	Trial3BackFr	NN	4	0	1000	1	122	17:43:45	1295278	0	0	0	0	0	0	0	0	0	0	0	0	0	0	0	0	0
090712	17:43:45	10014	Trial3BackFr	YY	4	0	1000	0	122	17:43:45	1296797	0	0	0	0	0	0	0	0	0	0	0	0	0	0	0	0	0
090712	17:43:45	10014	Trial3BackFr	NN	4	0	1000	1	122	17:43:45	1298317	0	0	0	0	0	0	0	0	0	0	0	0	0	0	0	0	0
090712	17:43:45	10014	Trial3BackFr	NN	4	0	1000	1	122	17:43:45	1299836	0	0	0	0	0	0	0	0	0	0	0	0	0	0	0	0	0
090712	17:43:45	10014	Trial3BackFr	NN	4	0	1000	1	122	17:43:45	1301355	0	0	0	0	0	0	0	0	0	0	0	0	0	0	0	0	0
090712	17:43:45	10014	Trial3BackFr	NN	4	0	1000	1	122	17:43:45	1302875	0	0	0	0	0	0	0	0	0	0	0	0	0	0	0	0	0
090712	17:43:45	10014	Trial3BackFr	NN	4	0	1000	1	122	17:43:45	1304394	0	0	0	0	0	0	0	0	0	0	0	0	0	0	0	0	0
090712	17:43:45	10014	Trial3BackFr	YY	4	57	466	1	122	17:43:45	1305394	0	0	0	0	0	0	0	0	0	0	0	0	0	0	0	0	0
090712	17:43:45	10014	Trial3BackFr	NN	4	0	1000	1	122	17:43:45	1307420	0	0	0	0	0	0	0	0	0	0	0	0	0	0	0	0	0
090712	17:43:45	10014	Trial3BackFr	NN	4	0	1000	1	122	17:43:45	1308939	0	0	0	0	0	0	0	0	0	0	0	0	0	0	0	0	0
090712	17:43:45	10014	Trial3BackFr	NN	4	0	1000	1	122	17:43:45	1310458	0	0	0	0	0	0	0	0	0	0	0	0	0	0	0	0	0
090712	17:43:45	10014	Trial3BackFr	NN	4	0	1000	1	122	17:43:45	1311978	0	0	0	0	0	0	0	0	0	0	0	0	0	0	0	0	0
090712	17:43:45	10014	Trial3BackFr	NN	4	0	1000	1	122	17:43:45	1313497	0	0	0	0	0	0	0	0	0	0	0	0	0	0	0	0	0
090712	17:43:45	10014	Trial3BackFr	NN	4	0	1000	1	122	17:43:45	1315016	0	0	0	0	0	0	0	0	0	0	0	0	0	0	0	0	0
090712	17:43:45	10014	Trial3BackFr	YY	4	57	323	1	122	17:43:45	1315869	0	0	0	0	0	0	0	0	0	0	0	0	0	0	0	0	0
090712	17:43:45	10014	Trial3BackFr	NN	4	0	1000	1	122	17:43:45	1318042	0	0	0	0	0	0	0	0	0	0	0	0	0	0	0	0	0
090712	17:43:45	10014	Trial3BackFr	NN	4	0	1000	1	122	17:43:45	1319561	0	0	0	0	0	0	0	0	0	0	0	0	0	0	0	0	0
090712	17:43:45	10014	Trial3BackFr	NN	4	0	1000	1	122	17:43:45	1321094	0	0	0	0	0	0	0	0	0	0	0	0	0	0	0	0	0
090712	17:43:45	10014	Trial3BackFr	YY	4	57	821	1	122	17:43:45	1322440	0	0	0	0	0	0	0	0	0	0	0	0	0	0	0	0	0
090712	17:43:45	10014	Trial3BackFr	NN	4	0	1000	1	122	17:43:45	1324119	0	0	0	0	0	0	0	0	0	0	0	0	0	0	0	0	0
090712	17:43:45	10014	Trial3BackFr	NN	4	0	1000	1	122	17:43:45	1325639	0	0	0	0	0	0	0	0	0	0	0	0	0	0	0	0	0
090712	17:43:45	10014	Trial3BackFr	NN	4	0	1000	1	122	17:43:45	1327158	0	0	0	0	0	0	0	0	0	0	0	0	0	0	0	0	0
090712	17:43:45	10014	Trial3BackFr	NN	4	0	1000	1	122	17:43:45	1328677	0	0	0	0	0	0	0	0	0	0	0	0	0	0	0	0	0
090712	17:43:45	10014	Trial3BackFr	NN	4	0	1000	1	122	17:43:45	1330197	0	0	0	0	0	0	0	0	0	0	0	0	0	0	0	0	0
090712	17:43:45	10014	Trial3BackFr	NN	4	0	1000	1	122	17:43:45	1331716	0	0	0	0	0	0	0	0	0	0	0	0	0	0	0	0	0
090712	17:43:45	10014	Trial3BackFr	NN	4	0	1000	1	122	17:43:45	1333235	0	0	0	0	0	0	0	0	0	0	0	0	0	0	0	0	0
090712	17:43:45	10014	Trial3BackFr	NN	4	0	1000	1	122	17:43:45	1334755	0	0	0	0	0	0	0	0	0	0	0	0	0	0	0	0	0
090712	17:43:45	10014	Trial3BackFr	NN	4	0	1000	1	122	17:43:45	1336274	0	0	0	0	0	0	0	0	0	0	0	0	0	0	0	0	0
090712	17:43:45	10014	Trial3BackFr	YY	4	0	1000	0	122	17:43:45	1337794	0	0	0	0	0	0	0	0	0	0	0	0	0	0	0	0	0
090712	17:43:45	10014	Trial3BackFr	NN	4	0	1000	1	122	17:43:45	1339313	0	0	0	0	0	0	0	0	0	0	0	0	0	0	0	0	0
090712	17:43:45	10014	Trial3BackFr	NN	4	0	1000	1	122	17:43:45	1340832	0	0	0	0	0	0	0	0	0	0	0	0	0	0	0	0	0
090712	17:43:45	10014	Trial3BackFr	NN	4	0	1000	1	122	17:43:45	1342352	0	0	0	0	0	0	0	0	0	0	0	0	0	0	0	0	0
090712	17:43:45	10014	Trial3BackFr	YY	4	0	1000	0	122	17:43:45	1343871	0	0	0	0	0	0	0	0	0	0	0	0	0	0	0	0	0
090712	17:43:45	10014	Trial3BackFr	NN	4	0	1000	1	122	17:43:45	1345390	0	0	0	0	0	0	0	0	0	0	0	0	0	0	0	0	0
090712	17:43:45	10014	Trial3BackFr	NN	4	0	1000	1	122	17:43:45	1346910	0	0	0	0	0	0	0	0	0	0	0	0	0	0	0	0	0
090712	17:43:45	10014	Trial3BackFr	NN	4	0	1000	1	122	17:43:45	1348429	0	0	0	0	0	0	0	0	0	0	0	0	0	0	0	0	0
090712	17:43:45	10014	Trial3BackFr	NN	4	0	1000	1	122	17:43:45	1349949	0	0	0	0	0	0	0	0	0	0	0	0	0	0	0	0	0
090712	17:43:45	10014	Trial3BackFr	NN	4	0	1000	1	122	17:43:45	1351468	0	0	0	0	0	0	0	0	0	0	0	0	0	0	0	0	0
090712	17:43:45	10014	Trial3BackFr	YY	4	0	1000	0	122	17:43:45	1352987	0	0	0	0	0	0	0	0	0	0	0	0	0	0	0	0	0
090712	17:43:45	10014	Trial3BackFr	NN	4	0	1000	1	122	17:43:45	1354507	0	0	0	0	0	0	0	0	0	0	0	0	0	0	0	0	0
090712	17:43:45	10014	Trial3BackFr	NN	4	0	1000	1	122	17:43:45	1356026	0	0	0	0	0	0	0	0	0	0	0	0	0	0	0	0	0
090712	17:43:45	10014	Trial3BackFr	NN	4	0	1000	1	122	17:43:45	1357545	0	0	0	0	0	0	0	0	0	0	0	0	0	0	0	0	0
090712	17:43:45	10014	Trial3BackFr	NN	4	0	1000	1	122	17:43:45	1359091	0	0	0	0	0	0	0	0	0	0	0	0	0	0	0	0	0
090712	17:43:45	10014	Trial3BackFr	NN	4	0	1000	1	122	17:43:45	1360611	0	0	0	0	0	0	0	0	0	0	0	0	0	0	0	0	0
090712	17:43:45	10014	Trial3BackFr	NN	4	0	1000	1	122	17:43:45	1362130	0	0	0	0	0	0	0	0	0	0	0	0	0	0	0	0	0
090712	17:43:45	10014	Trial3BackFr	NN	4	0	1000	1	122	17:43:45	1363650	0	0	0	0	0	0	0	0	0	0	0	0	0	0	0	0	0
090712	17:43:45	10014	Trial3BackFr	NN	4	0	1000	1	122	17:43:45	1365169	0	0	0	0	0	0	0	0	0	0	0	0	0	0	0	0	0
090712	17:43:45	10014	Trial3BackFr	NN	4	57	408	0	122	17:43:45	1366102	0	0	0	0	0	0	0	0	0	0	0	0	0	0	0	0	0
090712	17:43:45	10014	Trial3BackFr	YY	4	0	1000	0	122	17:43:45	1368194	0	0	0	0	0	0	0	0	0	0	0	0	0	0	0	0	0
090712	17:43:45	10014	Trial3BackFr	NN	4	0	1000	1	122	17:43:45	1369714	0	0	0	0	0	0	0	0	0	0	0	0	0	0	0	0	0
090712	17:43:45	10014	Trial3BackFr	NN	4	0	1000	1	122	17:43:45	1371233	0	0	0	0	0	0	0	0	0	0	0	0	0	0	0	0	0
090712	17:43:45	10014	Trial3BackFr	NN	4	0	1000	1	122	17:43:45	1372752	0	0	0	0	0	0	0	0	0	0	0	0	0	0	0	0	0
090712	17:43:45	10014	Trial3BackFr	NN	4	0	1000	1	122	17:43:45	1374272	0	0	0	0	0	0	0	0	0	0	0	0	0	0	0	0	0
090712	17:43:45	10014	Trial3BackFr	NN	4	0	1000	1	122	17:43:45	1375791	0	0	0	0	0	0	0	0	0	0	0	0	0	0	0	0	0
090712	17:43:45	10014	Trial3BackFr	NN	4	0	1000	1	122	17:43:45	1377311	0	0	0	0	0	0	0	0	0	0	0	0	0	0	0	0	0
090712	17:43:45	10014	Trial3BackFr	NN	4	0	1000	1	122	17:43:45	1378830	0	0	0	0	0	0	0	0	0	0	0	0	0	0	0	0	0
090712	17:43:45	10014	Trial3BackFr	NN	4	57	763	0	122	17:43:45	1380123	0	0	0	0	0	0	0	0	0	0	0	0	0	0	0	0	0
090712	17:43:45	10014	Trial3BackFr	YY	4	57	793	1	122	17:43:45	1381655	0	0	0	0	0	0	0	0	0	0	0	0	0	0	0	0	0
090712	17:43:45	10014	Trial3BackFr	NN	4	0	1000	1	122	17:43:45	1383348	0	0	0	0	0	0	0	0	0	0	0	0	0	0	0	0	0
090712	17:43:45	10014	Trial3BackFr	NN	4	0	1000	1	122	17:43:45	1384867	0	0	0	0	0	0	0	0	0	0	0	0	0	0	0	0	0
090712	17:43:45	10014	Trial3BackFr	NN	4	0	1000	1	122	17:43:45	1386387	0	0	0	0	0	0	0	0	0	0	0	0	0	0	0	0	0
090712	17:43:45	10014	Trial3BackFr	NN	4	0	1000	1	122	17:43:45	1387906	0	0	0	0	0	0	0	0	0	0	0	0	0	0	0	0	0
090712	17:43:45	10014	Trial3BackFr	YY	4	57	598	1	122	17:43:45	1389039	0	0	0	0	0	0	0	0	0	0	0	0	0	0	0	0	0
090712	17:43:45	10014	Trial3BackFr	NN	4	0	1000	1	122	17:43:45	1390932	0	0	0	0	0	0	0	0	0	0	0	0	0	0	0	0	0
090712	17:43:45	10014	Trial3BackFr	NN	4	0	1000	1	122	17:43:45	1392451	0	0	0	0	0	0	0	0	0	0	0	0	0	0	0	0	0
090712	17:43:45	10014	Trial3BackFr	NN	4	0	1000	1	122	17:43:45	1393970	0	0	0	0	0	0	0	0	0	0	0	0	0	0	0	0	0
090712	17:43:45	10014	Trial3BackFr	YY	4	57	663	1	122	17:43:45	1395156	0	0	0	0	0	0	0	0	0	0	0	0	0	0	0	0	0
090712	17:43:45	10014	Trial3BackFr	NN	4	0	1000	1	122	17:43:45	1396996	0	0	0	0	0	0	0	0	0	0	0	0	0	0	0	0	0
090712	17:43:45	10014	Trial3BackFr	NN	4	0	1000	1	122	17:43:45	1398515	0	0	0	0	0	0	0	0	0	0	0	0	0	0	0	0	0
090712	17:43:45	10014	Trial3BackFr	NN	4	0	1000	1	122	17:43:45	1400034	0	0	0	0	0	0	0	0	0	0	0	0	0	0	0	0	0
090712	17:43:45	10014	Trial3BackFr	NN	4	0	1000	1	122	17:43:45	1401554	0	0	0	0	0	0	0	0	0	0	0	0	0	0	0	0	0
090712	17:43:45	10014	Trial3BackFr	NN	4	0	1000	1	122	17:43:45	1403073	0	0	0	0	0	0	0	0	0	0	0	0	0	0	0	0	0
090712	17:43:45	10014	Trial3BackFr	YY	4	57	375	1	122	17:43:45	1403979	0	0	0	0	0	0	0	0	0	0	0	0	0	0	0	0	0
090712	17:43:45	10014	Trial3BackFr	NN	4	0	1000	1	122	17:43:45	1406099	0	0	0	0	0	0	0	0	0	0	0	0	0	0	0	0	0
090712	17:43:45	10014	Trial3BackFr	NN	4	0	1000	1	122	17:43:45	1407618	0	0	0	0	0	0	0	0	0	0	0	0	0	0	0	0	0
090712	17:43:45	10014	Trial3BackFr	NN	4	0	1000	1	122	17:43:45	1409137	0	0	0	0	0	0	0	0	0	0	0	0	0	0	0	0	0
090712	17:43:45	10014	Trial3BackFr	YY	4	57	359	1	122	17:43:45	1410030	0	0	0	0	0	0	0	0	0	0	0	0	0	0	0	0	0
090712	17:43:45	10014	Memory1R3moFr	ScoreFr	5	M1	18079	0	122	17:43:45	1458384	0	0	0	0	0	0	0	0	0	0	0	0	0	0	0	0	0
090712	17:43:45	10014	Memory1R3moFr	ScoreFr	5	M3	201	0	122	17:43:45	1458624	0	0	0	0	0	0	0	0	0	0	0	0	0	0	0	0	0
090712	17:43:45	10014	Memory1R3moFr	ScoreFr	5	M2	409	0	122	17:43:45	1459077	0	0	0	0	0	0	0	0	0	0	0	0	0	0	0	0	0
090712	17:43:45	10014	Memory1R3moFr	ScoreFr	5	M3	245	0	122	17:43:45	1459357	0	0	0	0	0	0	0	0	0	0	0	0	0	0	0	0	0
090712	17:43:45	10014	Memory1R3moFr	ScoreFr	5	M5	2781	0	122	17:43:45	1462182	0	0	0	0	0	0	0	0	0	0	0	0	0	0	0	0	0
090712	17:43:45	10014	Memory1R3moFr	ScoreFr	5	M6	275	0	122	17:43:45	1462502	0	0	0	0	0	0	0	0	0	0	0	0	0	0	0	0	0
090712	17:43:45	10014	Memory1R3moFr	ScoreFr	5	M7	275	0	122	17:43:45	1462822	0	0	0	0	0	0	0	0	0	0	0	0	0	0	0	0	0
090712	17:43:45	10014	Memory1R3moFr	ScoreFr	5	Done	524	0	122	17:43:45	1463382	0	0	0	0	0	0	0	0	0	0	0	0	0	0	0	0	0
090712	17:43:45	10014	Memory2R3moFr	ScoreFr2	5	11	24007	0	122	17:43:45	1505924	0	0	0	0	0	0	0	0	0	0	0	0	0	0	0	0	0
090712	17:43:45	10014	Memory2R3moFr	ScoreFr2	5	22	276	0	122	17:43:45	1506244	0	0	0	0	0	0	0	0	0	0	0	0	0	0	0	0	0
090712	17:43:45	10014	Memory2R3moFr	ScoreFr2	5	55	2828	0	122	17:43:45	1509109	0	0	0	0	0	0	0	0	0	0	0	0	0	0	0	0	0
090712	17:43:45	10014	Memory2R3moFr	ScoreFr2	5	66	314	0	122	17:43:45	1509469	0	0	0	0	0	0	0	0	0	0	0	0	0	0	0	0	0
090712	17:43:45	10014	Memory2R3moFr	ScoreFr2	5	77	355	0	122	17:43:45	1509869	0	0	0	0	0	0	0	0	0	0	0	0	0	0	0	0	0
090712	17:43:45	10014	Memory2R3moFr	ScoreFr2	5	88	299	0	122	17:43:45	1510202	0	0	0	0	0	0	0	0	0	0	0	0	0	0	0	0	0
090712	17:43:45	10014	Memory2R3moFr	ScoreFr2	5	Done	1781	0	122	17:43:45	1512028	0	0	0	0	0	0	0	0	0	0	0	0	0	0	0	0	0
090712	17:43:45	10014	Memory3R3moFr	ScoreFr3	5	111	18159	0	122	17:43:45	1548653	0	0	0	0	0	0	0	0	0	0	0	0	0	0	0	0	0
090712	17:43:45	10014	Memory3R3moFr	ScoreFr3	5	222	193	0	122	17:43:45	1548893	0	0	0	0	0	0	0	0	0	0	0	0	0	0	0	0	0
090712	17:43:45	10014	Memory3R3moFr	ScoreFr3	5	333	256	0	122	17:43:45	1549186	0	0	0	0	0	0	0	0	0	0	0	0	0	0	0	0	0
090712	17:43:45	10014	Memory3R3moFr	ScoreFr3	5	444	340	0	122	17:43:45	1549573	0	0	0	0	0	0	0	0	0	0	0	0	0	0	0	0	0
090712	17:43:45	10014	Memory3R3moFr	ScoreFr3	5	666	281	0	122	17:43:45	1549893	0	0	0	0	0	0	0	0	0	0	0	0	0	0	0	0	0
090712	17:43:45	10014	Memory3R3moFr	ScoreFr3	5	555	361	0	122	17:43:45	1550292	0	0	0	0	0	0	0	0	0	0	0	0	0	0	0	0	0
090712	17:43:45	10014	Memory3R3moFr	ScoreFr3	5	777	466	0	122	17:43:45	1550799	0	0	0	0	0	0	0	0	0	0	0	0	0	0	0	0	0
090712	17:43:45	10014	Memory3R3moFr	ScoreFr3	5	888	439	0	122	17:43:45	1551279	0	0	0	0	0	0	0	0	0	0	0	0	0	0	0	0	0
090712	17:43:45	10014	Memory3R3moFr	ScoreFr3	5	Done	464	0	122	17:43:45	1551785	0	0	0	0	0	0	0	0	0	0	0	0	0	0	0	0	0
090712	17:43:45	10014	LoriaFrLH3	Stop	6	7	8982	0	122	17:43:45	1655437	0	0	0	0	0	0	0	0	0	0	0	0	0	0	0	0	0
090712	17:43:45	10014	FrTrail	Trails	7	1Trails	1186	0	122	17:43:45	1676867	0	0	0	0	0	0	0	0	0	0	0	0	0	0	0	0	0
090712	17:43:45	10014	Serial7Fr3mo	Serial7Fr3mo	8	83	6206	0	122	17:43:45	1735684	1	0	0	0	0	0	0	0	0	0	0	0	0	0	0	0	0
090712	17:43:45	10014	Serial7Fr3mo	Serial7Fr3mo	8	76	2049	0	122	17:43:45	1737750	2	0	0	0	0	0	0	0	0	0	0	0	0	0	0	0	0
090712	17:43:45	10014	Serial7Fr3mo	Serial7Fr3mo	8	69	1824	0	122	17:43:45	1739589	3	0	0	0	0	0	0	0	0	0	0	0	0	0	0	0	0
090712	17:43:45	10014	Serial7Fr3mo	Serial7Fr3mo	8	62	1569	0	122	17:43:45	1741175	4	0	0	0	0	0	0	0	0	0	0	0	0	0	0	0	0
090712	17:43:45	10014	Serial7Fr3mo	Serial7Fr3mo	8	55	1943	0	122	17:43:45	1743134	5	0	0	0	0	0	0	0	0	0	0	0	0	0	0	0	0
090712	17:43:45	10014	corsiblockFrFwrd	recallseqFrFwrd	9	3	871	0	122	17:43:45	1786530	5	0	0	0	0	0	0	0	0	0	0	0	0	0	0	0	0
090712	17:43:45	10014	corsiblockFrFwrd	recallseqFrFwrd	9	9	902	0	122	17:43:45	1787476	5	0	0	0	0	0	0	0	0	0	0	0	0	0	0	0	0
090712	17:43:45	10014	corsiblockFrFwrd	recallseqFrFwrd	9	doneCorsiFr	4892	0	122	17:43:45	1792407	5	0	0	0	0	0	0	0	0	0	0	0	0	0	0	2	0
090712	17:43:45	10014	corsiblockFrFwrd	recallseqFrFwrd	9	7	1156	0	122	17:43:45	1799657	5	0	0	0	0	0	0	0	0	0	0	0	0	0	0	2	0
090712	17:43:45	10014	corsiblockFrFwrd	recallseqFrFwrd	9	8	726	0	122	17:43:45	1800417	5	0	0	0	0	0	0	0	0	0	0	0	0	0	0	2	0
090712	17:43:45	10014	corsiblockFrFwrd	recallseqFrFwrd	9	6	630	0	122	17:43:45	1801083	5	0	0	0	0	0	0	0	0	0	0	0	0	0	0	2	0
090712	17:43:45	10014	corsiblockFrFwrd	recallseqFrFwrd	9	doneCorsiFr	748	0	122	17:43:45	1801870	5	0	0	0	0	0	0	0	0	0	0	0	0	0	0	3	0
090712	17:43:45	10014	corsiblockFrFwrd	recallseqFrFwrd	9	4	750	0	122	17:43:45	1809707	5	0	0	0	0	0	0	0	0	0	0	0	0	0	0	3	0
090712	17:43:45	10014	corsiblockFrFwrd	recallseqFrFwrd	9	2	652	0	122	17:43:45	1810400	5	0	0	0	0	0	0	0	0	0	0	0	0	0	0	3	0
090712	17:43:45	10014	corsiblockFrFwrd	recallseqFrFwrd	9	1	759	0	122	17:43:45	1811200	5	0	0	0	0	0	0	0	0	0	0	0	0	0	0	3	0
090712	17:43:45	10014	corsiblockFrFwrd	recallseqFrFwrd	9	5	760	0	122	17:43:45	1811999	5	0	0	0	0	0	0	0	0	0	0	0	0	0	0	3	0
090712	17:43:45	10014	corsiblockFrFwrd	recallseqFrFwrd	9	doneCorsiFr	1008	0	122	17:43:45	1813052	5	0	0	0	0	0	0	0	0	0	0	0	0	0	0	4	0
090712	17:43:45	10014	corsiblockFrFwrd	recallseqFrFwrd	9	7	745	0	122	17:43:45	1821888	5	0	0	0	0	0	0	0	0	0	0	0	0	0	0	4	0
090712	17:43:45	10014	corsiblockFrFwrd	recallseqFrFwrd	9	8	694	0	122	17:43:45	1822621	5	0	0	0	0	0	0	0	0	0	0	0	0	0	0	4	0
090712	17:43:45	10014	corsiblockFrFwrd	recallseqFrFwrd	9	1	913	0	122	17:43:45	1823568	5	0	0	0	0	0	0	0	0	0	0	0	0	0	0	4	0
090712	17:43:45	10014	corsiblockFrFwrd	recallseqFrFwrd	9	2	695	0	122	17:43:45	1824301	5	0	0	0	0	0	0	0	0	0	0	0	0	0	0	4	0
090712	17:43:45	10014	corsiblockFrFwrd	recallseqFrFwrd	9	4	770	0	122	17:43:45	1825114	5	0	0	0	0	0	0	0	0	0	0	0	0	0	0	4	0
090712	17:43:45	10014	corsiblockFrFwrd	recallseqFrFwrd	9	doneCorsiFr	1021	0	122	17:43:45	1826180	5	0	0	0	0	0	0	0	0	0	0	0	0	0	0	5	0
090712	17:43:45	10014	corsiblockFrFwrd	recallseqFrFwrd	9	6	736	0	122	17:43:45	1836002	5	0	0	0	0	0	0	0	0	0	0	0	0	0	0	5	0
090712	17:43:45	10014	corsiblockFrFwrd	recallseqFrFwrd	9	9	892	0	122	17:43:45	1836935	5	0	0	0	0	0	0	0	0	0	0	0	0	0	0	5	0
090712	17:43:45	10014	corsiblockFrFwrd	recallseqFrFwrd	9	3	887	0	122	17:43:45	1837868	5	0	0	0	0	0	0	0	0	0	0	0	0	0	0	5	0
090712	17:43:45	10014	corsiblockFrFwrd	recallseqFrFwrd	9	5	794	0	122	17:43:45	1838708	5	0	0	0	0	0	0	0	0	0	0	0	0	0	0	5	0
090712	17:43:45	10014	corsiblockFrFwrd	recallseqFrFwrd	9	3	986	0	122	17:43:45	1839734	5	0	0	0	0	0	0	0	0	0	0	0	0	0	0	5	0
090712	17:43:45	10014	corsiblockFrFwrd	recallseqFrFwrd	9	5	783	0	122	17:43:45	1840561	5	0	0	0	0	0	0	0	0	0	0	0	0	0	0	5	0
090712	17:43:45	10014	corsiblockFrFwrd	recallseqFrFwrd	9	doneCorsiFr	893	0	122	17:43:45	1841494	5	0	0	0	0	0	0	0	0	0	0	0	0	0	0	5	0
090712	17:43:45	10014	corsiblockFrFwrd	recallseqFrFwrd	9	6	798	0	122	17:43:45	1851343	5	0	0	0	0	0	0	0	0	0	0	0	0	0	0	5	0
090712	17:43:45	10014	corsiblockFrFwrd	recallseqFrFwrd	9	4	607	0	122	17:43:45	1851983	5	0	0	0	0	0	0	0	0	0	0	0	0	0	0	5	0
090712	17:43:45	10014	corsiblockFrFwrd	recallseqFrFwrd	9	8	647	0	122	17:43:45	1852676	5	0	0	0	0	0	0	0	0	0	0	0	0	0	0	5	0
090712	17:43:45	10014	corsiblockFrFwrd	recallseqFrFwrd	9	2	723	0	122	17:43:45	1853435	5	0	0	0	0	0	0	0	0	0	0	0	0	0	0	5	0
090712	17:43:45	10014	corsiblockFrFwrd	recallseqFrFwrd	9	1	706	0	122	17:43:45	1854182	5	0	0	0	0	0	0	0	0	0	0	0	0	0	0	5	0
090712	17:43:45	10014	corsiblockFrFwrd	recallseqFrFwrd	9	7	752	0	122	17:43:45	1854968	5	0	0	0	0	0	0	0	0	0	0	0	0	0	0	5	0
090712	17:43:45	10014	corsiblockFrFwrd	recallseqFrFwrd	9	doneCorsiFr	894	0	122	17:43:45	1855901	5	0	0	0	0	0	0	0	0	0	0	0	0	0	0	6	0
090712	17:43:45	10014	corsiblockFrFwrd	recallseqFrFwrd	9	9	1982	0	122	17:43:45	1866976	5	0	0	0	0	0	0	0	0	0	0	0	0	0	0	6	0
090712	17:43:45	10014	corsiblockFrFwrd	recallseqFrFwrd	9	3	4589	0	122	17:43:45	1871601	5	0	0	0	0	0	0	0	0	0	0	0	0	0	0	6	0
090712	17:43:45	10014	corsiblockFrFwrd	recallseqFrFwrd	9	6	1980	0	122	17:43:45	1873627	5	0	0	0	0	0	0	0	0	0	0	0	0	0	0	6	0
090712	17:43:45	10014	corsiblockFrFwrd	recallseqFrFwrd	9	4	1146	0	122	17:43:45	1874813	5	0	0	0	0	0	0	0	0	0	0	0	0	0	0	6	0
090712	17:43:45	10014	corsiblockFrFwrd	recallseqFrFwrd	9	7	552	0	122	17:43:45	1875400	5	0	0	0	0	0	0	0	0	0	0	0	0	0	0	6	0
090712	17:43:45	10014	corsiblockFrFwrd	recallseqFrFwrd	9	doneCorsiFr	933	0	122	17:43:45	1876372	5	0	0	0	0	0	0	0	0	0	0	0	0	0	0	6	0
090712	17:43:45	10014	corsiblockFrFwrd	recallseqFrFwrd	9	2	622	0	122	17:43:45	1887048	5	0	0	0	0	0	0	0	0	0	0	0	0	0	0	6	0
090712	17:43:45	10014	corsiblockFrFwrd	recallseqFrFwrd	9	1	797	0	122	17:43:45	1887888	5	0	0	0	0	0	0	0	0	0	0	0	0	0	0	6	0
090712	17:43:45	10014	corsiblockFrFwrd	recallseqFrFwrd	9	6	1541	0	122	17:43:45	1889474	5	0	0	0	0	0	0	0	0	0	0	0	0	0	0	6	0
090712	17:43:45	10014	corsiblockFrFwrd	recallseqFrFwrd	9	8	651	0	122	17:43:45	1890167	5	0	0	0	0	0	0	0	0	0	0	0	0	0	0	6	0
090712	17:43:45	10014	corsiblockFrFwrd	recallseqFrFwrd	9	4	550	0	122	17:43:45	1890753	5	0	0	0	0	0	0	0	0	0	0	0	0	0	0	6	0
090712	17:43:45	10014	corsiblockFrFwrd	recallseqFrFwrd	9	2	507	0	122	17:43:45	1891300	5	0	0	0	0	0	0	0	0	0	0	0	0	0	0	6	0
090712	17:43:45	10014	corsiblockFrFwrd	recallseqFrFwrd	9	1	513	0	122	17:43:45	1891846	5	0	0	0	0	0	0	0	0	0	0	0	0	0	0	6	0
090712	17:43:45	10014	corsiblockFrFwrd	recallseqFrFwrd	9	2	567	0	122	17:43:45	1892446	5	0	0	0	0	0	0	0	0	0	0	0	0	0	0	6	0
090712	17:43:45	10014	corsiblockFrFwrd	recallseqFrFwrd	9	1	639	0	122	17:43:45	1893126	5	0	0	0	0	0	0	0	0	0	0	0	0	0	0	6	0
090712	17:43:45	10014	corsiblockFrFwrd	recallseqFrFwrd	9	doneCorsiFr	823	0	122	17:43:45	1893992	5	0	0	0	0	0	0	0	0	0	0	0	0	0	0	6	0
090712	17:43:45	10014	corsiblockFrRev	recallseqFrRev	10	7	1531	0	122	17:43:45	1911798	5	0	0	0	0	0	0	0	0	0	0	0	0	0	0	6	0
090712	17:43:45	10014	corsiblockFrRev	recallseqFrRev	10	3	1038	0	122	17:43:45	1912877	5	0	0	0	0	0	0	0	0	0	0	0	0	0	0	6	0
090712	17:43:45	10014	corsiblockFrRev	recallseqFrRev	10	doneCorsiFr	1390	0	122	17:43:45	1914304	5	0	0	0	0	0	0	0	0	0	0	0	0	0	0	6	0
090712	17:43:45	10014	corsiblockFrRev	recallseqFrRev	10	3	12088	0	122	17:43:45	1931443	5	0	0	0	0	0	0	0	0	0	0	0	0	0	0	6	0
090712	17:43:45	10014	corsiblockFrRev	recallseqFrRev	10	2	2048	0	122	17:43:45	1933535	5	0	0	0	0	0	0	0	0	0	0	0	0	0	0	6	0
090712	17:43:45	10014	corsiblockFrRev	recallseqFrRev	10	doneCorsiFr	1124	0	122	17:43:45	1934695	5	0	0	0	0	0	0	0	0	0	0	0	0	0	0	6	0
090712	17:43:45	10014	testFr3mo	WordsFr3mo	11	2Fr3mo	962	0	122	17:43:45	1976518	5	0	1	0	0	0	0	0	0	0	0	0	0	0	0	6	0
090712	17:43:45	10014	testFr3mo	WordsFr3mo	11	3Fr3mo	1012	0	122	17:43:45	1977571	5	0	1	1	0	0	0	0	0	0	0	0	0	0	0	6	0
090712	17:43:45	10014	testFr3mo	WordsFr3mo	11	5Fr3mo	1807	0	122	17:43:45	1979423	5	0	1	1	0	1	0	0	0	0	0	0	0	0	0	6	0
090712	17:43:45	10014	testFr3mo	WordsFr3mo	11	6Fr3mo	283	0	122	17:43:45	1979743	5	0	1	1	0	1	1	0	0	0	0	0	0	0	0	6	0
090712	17:43:45	10014	testFr3mo	WordsFr3mo	11	8Fr3mo	1499	0	122	17:43:45	1981276	5	0	1	1	0	1	1	0	1	0	0	0	0	0	0	6	0
090712	17:43:45	10014	testFr3mo	WordsFr3mo	11	DoneFr3mo	1150	0	122	17:43:45	1982462	5	0	1	1	0	1	1	0	1	0	0	0	0	0	0	6	0
090712	17:43:45	10014	testFr3mo	Cat1Fr3mo	11	0	1	0	122	17:43:45	1982478	5	0	1	1	0	1	1	0	1	0	0	0	0	0	0	6	0
090712	17:43:45	10014	testFr3mo	Ch1Fr3mo	11	RR1Fr3mo	2972	0	122	17:43:45	1985474	5	3	1	1	0	1	1	0	1	0	0	0	0	0	0	6	0
090712	17:43:45	10014	testFr3mo	Cat4Fr3mo	11	W4Fr3mo	12200	0	122	17:43:45	1997709	5	3	1	1	0	1	1	0	1	0	0	0	0	0	0	6	0
090712	17:43:45	10014	testFr3mo	Ch4Fr3mo	11	RR4Fr3mo	9092	0	122	17:43:45	2006838	5	3	1	1	3	1	1	0	1	0	0	0	0	0	0	6	0
090712	17:43:45	10014	testFr3mo	Cat7Fr3mo	11	R7Fr3mo	6986	0	122	17:43:45	2013862	5	3	1	1	3	1	1	2	1	0	0	0	0	0	0	6	0
090712	17:43:45	10014	DigitSpanFwrdFr3mo	Score1FwrdFr3mo	12	DS1	5232	0	122	17:43:45	2035000	5	3	1	1	3	1	1	2	1	0	0	0	0	0	0	6	0
090712	17:43:45	10014	DigitSpanFwrdFr3mo	Gate1FwrdFr3mo	12	0	1	0	122	17:43:45	2035015	5	3	1	1	3	1	1	2	1	3	0	0	0	0	0	6	0
090712	17:43:45	10014	DigitSpanFwrdFr3mo	Score2FwrdFr3mo	12	DS1	4003	0	122	17:43:45	2044716	5	3	1	1	3	1	1	2	1	3	0	0	0	0	0	6	0
090712	17:43:45	10014	DigitSpanFwrdFr3mo	Gate3FwrdFr3mo	12	0	1	0	122	17:43:45	2044731	5	3	1	1	3	1	1	2	1	4	0	0	0	0	0	6	0
090712	17:43:45	10014	DigitSpanFwrdFr3mo	Score3FwrdFr3mo	12	DS2	7556	0	122	17:43:45	2059576	5	3	1	1	3	1	1	2	1	4	0	0	0	0	0	6	0
090712	17:43:45	10014	DigitSpanFwrdFr3mo	Gate5FwrdFr3mo	12	0	1	0	122	17:43:45	2059592	5	3	1	1	3	1	1	2	1	4	0	0	0	0	0	6	0
090712	17:43:45	10014	DigitSpanFwrdFr3mo	Score33FwrdFr3mo	12	DS1	7545	0	122	17:43:45	2074357	5	3	1	1	3	1	1	2	1	4	0	0	0	0	0	6	0
090712	17:43:45	10014	DigitSpanFwrdFr3mo	Gate6FwrdFr3mo	12	0	1	0	122	17:43:45	2074372	5	3	1	1	3	1	1	2	1	5	0	0	0	0	0	6	0
090712	17:43:45	10014	DigitSpanFwrdFr3mo	Score4FwrdFr3mo	12	DS1	7261	0	122	17:43:45	2090177	5	3	1	1	3	1	1	2	1	5	0	0	0	0	0	6	0
090712	17:43:45	10014	DigitSpanFwrdFr3mo	Gate7FwrdFr3mo	12	0	1	0	122	17:43:45	2090192	5	3	1	1	3	1	1	2	1	6	0	0	0	0	0	6	0
090712	17:43:45	10014	DigitSpanFwrdFr3mo	Score5FwrdFr3mo	12	DS2	8615	0	122	17:43:45	2110888	5	3	1	1	3	1	1	2	1	6	0	0	0	0	0	6	0
090712	17:43:45	10014	DigitSpanFwrdFr3mo	Gate9FwrdFr3mo	12	0	1	0	122	17:43:45	2110904	5	3	1	1	3	1	1	2	1	6	0	0	0	0	0	6	0
090712	17:43:45	10014	DigitSpanFwrdFr3mo	Score55FwrdFr3mo	12	DS2	11837	0	122	17:43:45	2135611	5	3	1	1	3	1	1	2	1	6	0	0	0	0	0	6	0
090712	17:43:45	10014	DigitSpanFr3mo	Score1Fr3mo	13	DS1	4745	0	122	17:43:45	2153524	5	3	1	1	3	1	1	2	1	6	0	0	0	0	0	6	0
090712	17:43:45	10014	DigitSpanFr3mo	Gate1Fr3mo	13	0	1	0	122	17:43:45	2153539	5	3	1	1	3	1	1	2	1	6	2	0	0	0	0	6	0
090712	17:43:45	10014	DigitSpanFr3mo	Score2Fr3mo	13	DS1	3349	0	122	17:43:45	2161481	5	3	1	1	3	1	1	2	1	6	2	0	0	0	0	6	0
090712	17:43:45	10014	DigitSpanFr3mo	Gate3Fr3mo	13	0	1	0	122	17:43:45	2161496	5	3	1	1	3	1	1	2	1	6	3	0	0	0	0	6	0
090712	17:43:45	10014	DigitSpanFr3mo	Score3Fr3mo	13	DS2	4960	0	122	17:43:45	2172170	5	3	1	1	3	1	1	2	1	6	3	0	0	0	0	6	0
090712	17:43:45	10014	DigitSpanFr3mo	Gate5Fr3mo	13	0	1	0	122	17:43:45	2172185	5	3	1	1	3	1	1	2	1	6	3	0	0	0	0	6	0
090712	17:43:45	10014	DigitSpanFr3mo	Score33Fr3mo	13	DS1	5247	0	122	17:43:45	2183498	5	3	1	1	3	1	1	2	1	6	3	0	0	0	0	6	0
090712	17:43:45	10014	DigitSpanFr3mo	Gate6Fr3mo	13	0	1	0	122	17:43:45	2183514	5	3	1	1	3	1	1	2	1	6	4	0	0	0	0	6	0
090712	17:43:45	10014	DigitSpanFr3mo	Score4Fr3mo	13	DS2	7502	0	122	17:43:45	2198292	5	3	1	1	3	1	1	2	1	6	4	0	0	0	0	6	0
090712	17:43:45	10014	DigitSpanFr3mo	Gate7Fr3mo	13	0	1	0	122	17:43:45	2198307	5	3	1	1	3	1	1	2	1	6	4	0	0	0	0	6	0
090712	17:43:45	10014	DigitSpanFr3mo	Score44Fr3mo	13	DS2	6594	0	122	17:43:45	2212126	5	3	1	1	3	1	1	2	1	6	4	0	0	0	0	6	0
090712	17:43:45	10014	Trial	IncongruentRight	14	205	726	1	122	17:43:45	2256987	5	3	1	1	3	1	1	2	1	6	4	0	0	0	0	6	0
090712	17:43:45	10014	Trial	IncongruentLeft	14	203	414	1	122	17:43:45	2257680	5	3	1	1	3	1	1	2	1	6	4	0	0	0	0	6	0
090712	17:43:45	10014	Trial	CongruentRight	14	205	342	1	122	17:43:45	2258600	5	3	1	1	3	1	1	2	1	6	4	0	0	0	0	6	0
090712	17:43:45	10014	Trial	IncongruentRight	14	205	447	1	122	17:43:45	2259706	5	3	1	1	3	1	1	2	1	6	4	0	0	0	0	6	0
090712	17:43:45	10014	Trial	CongruentLeft	14	203	395	1	122	17:43:45	2260666	5	3	1	1	3	1	1	2	1	6	4	0	0	0	0	6	0
090712	17:43:45	10014	Trial	CongruentRight	14	205	402	1	122	17:43:45	2261679	5	3	1	1	3	1	1	2	1	6	4	0	0	0	0	6	0
090712	17:43:45	10014	Trial	IncongruentRight	14	205	555	1	122	17:43:45	2262825	5	3	1	1	3	1	1	2	1	6	4	0	0	0	0	6	0
090712	17:43:45	10014	Trial	CongruentLeft	14	203	435	1	122	17:43:45	2263705	5	3	1	1	3	1	1	2	1	6	4	0	0	0	0	6	0
090712	17:43:45	10014	Trial	IncongruentLeft	14	203	492	1	122	17:43:45	2264771	5	3	1	1	3	1	1	2	1	6	4	0	0	0	0	6	0
090712	17:43:45	10014	Trial	IncongruentLeft	14	203	452	1	122	17:43:45	2265730	5	3	1	1	3	1	1	2	1	6	4	0	0	0	0	6	0
090712	17:43:45	10014	Trial	CongruentRight	14	205	412	1	122	17:43:45	2266690	5	3	1	1	3	1	1	2	1	6	4	0	0	0	0	6	0
090712	17:43:45	10014	Trial	IncongruentRight	14	205	453	1	122	17:43:45	2267730	5	3	1	1	3	1	1	2	1	6	4	0	0	0	0	6	0
090712	17:43:45	10014	Trial	CongruentLeft	14	203	445	1	122	17:43:45	2268716	5	3	1	1	3	1	1	2	1	6	4	0	0	0	0	6	0
090712	17:43:45	10014	Trial	CongruentRight	14	205	373	1	122	17:43:45	2269649	5	3	1	1	3	1	1	2	1	6	4	0	0	0	0	6	0
090712	17:43:45	10014	Trial	IncongruentLeft	14	203	382	1	122	17:43:45	2270649	5	3	1	1	3	1	1	2	1	6	4	0	0	0	0	6	0
090712	17:43:45	10014	Trial	IncongruentRight	14	205	406	1	122	17:43:45	2271674	5	3	1	1	3	1	1	2	1	6	4	0	0	0	0	6	0
090712	17:43:45	10014	Trial	CongruentRight	14	205	383	1	122	17:43:45	2272648	5	3	1	1	3	1	1	2	1	6	4	0	0	0	0	6	0
090712	17:43:45	10014	Trial	CongruentLeft	14	203	423	1	122	17:43:45	2273687	5	3	1	1	3	1	1	2	1	6	4	0	0	0	0	6	0
090712	17:43:45	10014	Trial	CongruentRight	14	205	415	1	122	17:43:45	2274687	5	3	1	1	3	1	1	2	1	6	4	0	0	0	0	6	0
090712	17:43:45	10014	Trial	IncongruentRight	14	205	424	1	122	17:43:45	2275686	5	3	1	1	3	1	1	2	1	6	4	0	0	0	0	6	0
090712	17:43:45	10014	Trial	IncongruentLeft	14	203	384	1	122	17:43:45	2276646	5	3	1	1	3	1	1	2	1	6	4	0	0	0	0	6	0
090712	17:43:45	10014	Trial	IncongruentLeft	14	203	440	1	122	17:43:45	2277712	5	3	1	1	3	1	1	2	1	6	4	0	0	0	0	6	0
090712	17:43:45	10014	Trial	CongruentLeft	14	203	417	1	122	17:43:45	2278685	5	3	1	1	3	1	1	2	1	6	4	0	0	0	0	6	0
090712	17:43:45	10014	Trial	CongruentRight	14	205	409	1	122	17:43:45	2279671	5	3	1	1	3	1	1	2	1	6	4	0	0	0	0	6	0
090712	17:43:45	10014	Trial	IncongruentLeft	14	203	482	1	122	17:43:45	2280751	5	3	1	1	3	1	1	2	1	6	4	0	0	0	0	6	0
090712	17:43:45	10014	Trial	IncongruentRight	14	205	474	1	122	17:43:45	2281737	5	3	1	1	3	1	1	2	1	6	4	0	0	0	0	6	0
090712	17:43:45	10014	Trial	CongruentRight	14	205	434	1	122	17:43:45	2282697	5	3	1	1	3	1	1	2	1	6	4	0	0	0	0	6	0
090712	17:43:45	10014	Trial	CongruentLeft	14	203	507	1	122	17:43:45	2283776	5	3	1	1	3	1	1	2	1	6	4	0	0	0	0	6	0
090712	17:43:45	10014	Trial	IncongruentRight	14	205	419	1	122	17:43:45	2284683	5	3	1	1	3	1	1	2	1	6	4	0	0	0	0	6	0
090712	17:43:45	10014	Trial	IncongruentLeft	14	203	443	1	122	17:43:45	2285709	5	3	1	1	3	1	1	2	1	6	4	0	0	0	0	6	0
090712	17:43:45	10014	Trial	IncongruentRight	14	205	356	1	122	17:43:45	2286615	5	3	1	1	3	1	1	2	1	6	4	0	0	0	0	6	0
090712	17:43:45	10014	Trial	CongruentRight	14	205	415	1	122	17:43:45	2287695	5	3	1	1	3	1	1	2	1	6	4	0	0	0	0	6	0
090712	17:43:45	10014	Trial	IncongruentLeft	14	203	341	1	122	17:43:45	2288601	5	3	1	1	3	1	1	2	1	6	4	0	0	0	0	6	0
090712	17:43:45	10014	Trial	CongruentLeft	14	203	461	1	122	17:43:45	2289720	5	3	1	1	3	1	1	2	1	6	4	0	0	0	0	6	0
090712	17:43:45	10014	Trial	CongruentRight	14	205	486	1	122	17:43:45	2290747	5	3	1	1	3	1	1	2	1	6	4	0	0	0	0	6	0
090712	17:43:45	10014	Trial	IncongruentLeft	14	203	416	1	122	17:43:45	2291693	5	3	1	1	3	1	1	2	1	6	4	0	0	0	0	6	0
090712	17:43:45	10014	Trial	IncongruentRight	14	205	329	1	122	17:43:45	2292599	5	3	1	1	3	1	1	2	1	6	4	0	0	0	0	6	0
090712	17:43:45	10014	Trial	IncongruentRight	14	205	449	1	122	17:43:45	2293719	5	3	1	1	3	1	1	2	1	6	4	0	0	0	0	6	0
090712	17:43:45	10014	Trial	CongruentLeft	14	203	426	1	122	17:43:45	2294705	5	3	1	1	3	1	1	2	1	6	4	0	0	0	0	6	0
090712	17:43:45	10014	Trial	IncongruentLeft	14	205	338	0	122	17:43:45	2295611	5	3	1	1	3	1	1	2	1	6	4	0	0	0	0	6	0
090712	17:43:45	10014	Trial	CongruentRight	14	203	394	0	122	17:43:45	2296664	5	3	1	1	3	1	1	2	1	6	4	0	0	0	0	6	0
090712	17:43:45	10014	Trial	CongruentLeft	14	203	467	1	122	17:43:45	2297744	5	3	1	1	3	1	1	2	1	6	4	0	0	0	0	6	0
090712	17:43:45	10014	Trial	IncongruentRight	14	205	459	1	122	17:43:45	2298730	5	3	1	1	3	1	1	2	1	6	4	0	0	0	0	6	0
090712	17:43:45	10014	Trial	CongruentRight	14	205	579	1	122	17:43:45	2299850	5	3	1	1	3	1	1	2	1	6	4	0	0	0	0	6	0
090712	17:43:45	10014	Trial	IncongruentLeft	14	203	460	1	122	17:43:45	2300729	5	3	1	1	3	1	1	2	1	6	4	0	0	0	0	6	0
090712	17:43:45	10014	Trial	CongruentLeft	14	203	484	1	122	17:43:45	2301756	5	3	1	1	3	1	1	2	1	6	4	0	0	0	0	6	0
090712	17:43:45	10014	Trial	IncongruentLeft	14	203	573	1	122	17:43:45	2302848	5	3	1	1	3	1	1	2	1	6	4	0	0	0	0	6	0
090712	17:43:45	10014	Trial	IncongruentRight	14	205	469	1	122	17:43:45	2303741	5	3	1	1	3	1	1	2	1	6	4	0	0	0	0	6	0
090712	17:43:45	10014	Trial	CongruentRight	14	205	461	1	122	17:43:45	2304728	5	3	1	1	3	1	1	2	1	6	4	0	0	0	0	6	0
090712	17:43:45	10014	Trial	CongruentLeft	14	203	486	1	122	17:43:45	2305754	5	3	1	1	3	1	1	2	1	6	4	0	0	0	0	6	0
090712	17:43:45	10014	Trial	CongruentLeft	14	203	398	1	122	17:43:45	2306674	5	3	1	1	3	1	1	2	1	6	4	0	0	0	0	6	0
090712	17:43:45	10014	Trial	IncongruentRight	14	205	439	1	122	17:43:45	2307713	5	3	1	1	3	1	1	2	1	6	4	0	0	0	0	6	0
090712	17:43:45	10014	Trial	IncongruentLeft	14	203	431	1	122	17:43:45	2308699	5	3	1	1	3	1	1	2	1	6	4	0	0	0	0	6	0
090712	17:43:45	10014	Trial	IncongruentRight	14	205	423	1	122	17:43:45	2309686	5	3	1	1	3	1	1	2	1	6	4	0	0	0	0	6	0
090712	17:43:45	10014	Trial	CongruentRight	14	205	400	1	122	17:43:45	2310672	5	3	1	1	3	1	1	2	1	6	4	0	0	0	0	6	0
090712	17:43:45	10014	Trial	CongruentRight	14	205	392	1	122	17:43:45	2311658	5	3	1	1	3	1	1	2	1	6	4	0	0	0	0	6	0
090712	17:43:45	10014	Trial	IncongruentLeft	14	203	480	1	122	17:43:45	2312751	5	3	1	1	3	1	1	2	1	6	4	0	0	0	0	6	0
090712	17:43:45	10014	Trial	CongruentLeft	14	203	521	1	122	17:43:45	2313791	5	3	1	1	3	1	1	2	1	6	4	0	0	0	0	6	0
090712	17:43:45	10014	Trial	CongruentRight	14	205	449	1	122	17:43:45	2314710	5	3	1	1	3	1	1	2	1	6	4	0	0	0	0	6	0
090712	17:43:45	10014	Trial	CongruentLeft	14	203	522	1	122	17:43:45	2315790	5	3	1	1	3	1	1	2	1	6	4	0	0	0	0	6	0
090712	17:43:45	10014	Trial	IncongruentRight	14	205	498	1	122	17:43:45	2316763	5	3	1	1	3	1	1	2	1	6	4	0	0	0	0	6	0
090712	17:43:45	10014	Trial	CongruentRight	14	205	410	1	122	17:43:45	2317669	5	3	1	1	3	1	1	2	1	6	4	0	0	0	0	6	0
090712	17:43:45	10014	Trial	CongruentLeft	14	203	371	1	122	17:43:45	2318629	5	3	1	1	3	1	1	2	1	6	4	0	0	0	0	6	0
090712	17:43:45	10014	Trial	IncongruentLeft	14	203	459	1	122	17:43:45	2319722	5	3	1	1	3	1	1	2	1	6	4	0	0	0	0	6	0
090712	17:43:45	10014	Trial	IncongruentLeft	14	203	451	1	122	17:43:45	2320721	5	3	1	1	3	1	1	2	1	6	4	0	0	0	0	6	0
090712	17:43:45	10014	Trial	CongruentRight	14	205	428	1	122	17:43:45	2321694	5	3	1	1	3	1	1	2	1	6	4	0	0	0	0	6	0
090712	17:43:45	10014	Trial	IncongruentRight	14	205	359	1	122	17:43:45	2322640	5	3	1	1	3	1	1	2	1	6	4	0	0	0	0	6	0
090712	17:43:45	10014	Trial	CongruentLeft	14	203	463	1	122	17:43:45	2323733	5	3	1	1	3	1	1	2	1	6	4	0	0	0	0	6	0
090712	17:43:45	10014	Trial	IncongruentRight	14	205	472	1	122	17:43:45	2324746	5	3	1	1	3	1	1	2	1	6	4	0	0	0	0	6	0
090712	17:43:45	10014	Trial	CongruentRight	14	205	416	1	122	17:43:45	2325692	5	3	1	1	3	1	1	2	1	6	4	0	0	0	0	6	0
090712	17:43:45	10014	Trial	IncongruentLeft	14	203	472	1	122	17:43:45	2326745	5	3	1	1	3	1	1	2	1	6	4	0	0	0	0	6	0
090712	17:43:45	10014	Trial	CongruentLeft	14	203	449	1	122	17:43:45	2327718	5	3	1	1	3	1	1	2	1	6	4	0	0	0	0	6	0
090712	17:43:45	10014	Trial	CongruentRight	14	205	457	1	122	17:43:45	2328731	5	3	1	1	3	1	1	2	1	6	4	0	0	0	0	6	0
090712	17:43:45	10014	Trial	IncongruentLeft	14	203	466	1	122	17:43:45	2329744	5	3	1	1	3	1	1	2	1	6	4	0	0	0	0	6	0
090712	17:43:45	10014	Trial	CongruentRight	14	205	506	1	122	17:43:45	2330784	5	3	1	1	3	1	1	2	1	6	4	0	0	0	0	6	0
090712	17:43:45	10014	Trial	CongruentRight	14	205	386	1	122	17:43:45	2331663	5	3	1	1	3	1	1	2	1	6	4	0	0	0	0	6	0
090712	17:43:45	10014	Trial	IncongruentRight	14	205	587	1	122	17:43:45	2332863	5	3	1	1	3	1	1	2	1	6	4	0	0	0	0	6	0
090712	17:43:45	10014	Trial	CongruentLeft	14	203	483	1	122	17:43:45	2333756	5	3	1	1	3	1	1	2	1	6	4	0	0	0	0	6	0
090712	17:43:45	10014	Trial	IncongruentLeft	14	203	396	1	122	17:43:45	2334662	5	3	1	1	3	1	1	2	1	6	4	0	0	0	0	6	0
090712	17:43:45	10014	Trial	CongruentLeft	14	203	404	1	122	17:43:45	2335675	5	3	1	1	3	1	1	2	1	6	4	0	0	0	0	6	0
090712	17:43:45	10014	Trial	IncongruentRight	14	205	460	1	122	17:43:45	2336728	5	3	1	1	3	1	1	2	1	6	4	0	0	0	0	6	0
090712	17:43:45	10014	Trial	IncongruentLeft	14	203	420	1	122	17:43:45	2337687	5	3	1	1	3	1	1	2	1	6	4	0	0	0	0	6	0
090712	17:43:45	10014	Trial	CongruentRight	14	205	381	1	122	17:43:45	2338647	5	3	1	1	3	1	1	2	1	6	4	0	0	0	0	6	0
090712	17:43:45	10014	Trial	CongruentLeft	14	203	373	1	122	17:43:45	2339647	5	3	1	1	3	1	1	2	1	6	4	0	0	0	0	6	0
090712	17:43:45	10014	Trial	IncongruentLeft	14	203	430	1	122	17:43:45	2340699	5	3	1	1	3	1	1	2	1	6	4	0	0	0	0	6	0
090712	17:43:45	10014	Trial	CongruentLeft	14	203	406	1	122	17:43:45	2341672	5	3	1	1	3	1	1	2	1	6	4	0	0	0	0	6	0
090712	17:43:45	10014	Trial	IncongruentRight	14	205	415	1	122	17:43:45	2342685	5	3	1	1	3	1	1	2	1	6	4	0	0	0	0	6	0
090712	17:43:45	10014	Trial	CongruentRight	14	205	423	1	122	17:43:45	2343685	5	3	1	1	3	1	1	2	1	6	4	0	0	0	0	6	0
090712	17:43:45	10014	Trial	IncongruentLeft	14	203	415	1	122	17:43:45	2344685	5	3	1	1	3	1	1	2	1	6	4	0	0	0	0	6	0
090712	17:43:45	10014	Trial	CongruentLeft	14	203	424	1	122	17:43:45	2345684	5	3	1	1	3	1	1	2	1	6	4	0	0	0	0	6	0
090712	17:43:45	10014	Trial	IncongruentRight	14	205	432	1	122	17:43:45	2346697	5	3	1	1	3	1	1	2	1	6	4	0	0	0	0	6	0
090712	17:43:45	10014	Trial	IncongruentLeft	14	203	376	1	122	17:43:45	2347643	5	3	1	1	3	1	1	2	1	6	4	0	0	0	0	6	0
090712	17:43:45	10014	Trial	CongruentLeft	14	203	433	1	122	17:43:45	2348696	5	3	1	1	3	1	1	2	1	6	4	0	0	0	0	6	0
090712	17:43:45	10014	Trial	IncongruentLeft	14	203	409	1	122	17:43:45	2349669	5	3	1	1	3	1	1	2	1	6	4	0	0	0	0	6	0
090712	17:43:45	10014	Trial	CongruentRight	14	205	402	1	122	17:43:45	2350669	5	3	1	1	3	1	1	2	1	6	4	0	0	0	0	6	0
090712	17:43:45	10014	Trial	CongruentLeft	14	203	474	1	122	17:43:45	2351735	5	3	1	1	3	1	1	2	1	6	4	0	0	0	0	6	0
090712	17:43:45	10014	Trial	IncongruentRight	14	205	498	1	122	17:43:45	2352761	5	3	1	1	3	1	1	2	1	6	4	0	0	0	0	6	0
090712	17:43:45	10014	Trial	CongruentLeft	14	203	446	1	122	17:43:45	2353721	5	3	1	1	3	1	1	2	1	6	4	0	0	0	0	6	0
090712	17:43:45	10014	Trial	CongruentRight	14	205	438	1	122	17:43:45	2354720	5	3	1	1	3	1	1	2	1	6	4	0	0	0	0	6	0
090712	17:43:45	10014	Trial	IncongruentLeft	14	203	494	1	122	17:43:45	2355773	5	3	1	1	3	1	1	2	1	6	4	0	0	0	0	6	0
090712	17:43:45	10014	Trial750Fr	IncongruentRight750	15	205	450	1	122	17:43:45	2365076	5	3	1	1	3	1	1	2	1	6	4	0	0	0	0	6	0
090712	17:43:45	10014	Trial750Fr	IncongruentLeft750	15	203	425	1	122	17:43:45	2365822	5	3	1	1	3	1	1	2	1	6	4	0	0	0	0	6	0
090712	17:43:45	10014	Trial750Fr	CongruentRight750	15	205	320	1	122	17:43:45	2366462	5	3	1	1	3	1	1	2	1	6	4	0	0	0	0	6	0
090712	17:43:45	10014	Trial750Fr	IncongruentRight750	15	0	487	0	122	17:43:45	2367368	5	3	1	1	3	1	1	2	1	6	4	0	0	0	0	6	0
090712	17:43:45	10014	Trial750Fr	CongruentLeft750	15	203	365	1	122	17:43:45	2368008	5	3	1	1	3	1	1	2	1	6	4	0	0	0	0	6	0
090712	17:43:45	10014	Trial750Fr	CongruentRight750	15	205	438	1	122	17:43:45	2368848	5	3	1	1	3	1	1	2	1	6	4	0	0	0	0	6	0
090712	17:43:45	10014	Trial750Fr	IncongruentRight750	15	0	487	0	122	17:43:45	2369634	5	3	1	1	3	1	1	2	1	6	4	0	0	0	0	6	0
090712	17:43:45	10014	Trial750Fr	CongruentLeft750	15	203	436	1	122	17:43:45	2370341	5	3	1	1	3	1	1	2	1	6	4	0	0	0	0	6	0
090712	17:43:45	10014	Trial750Fr	IncongruentLeft750	15	203	444	1	122	17:43:45	2371114	5	3	1	1	3	1	1	2	1	6	4	0	0	0	0	6	0
090712	17:43:45	10014	Trial750Fr	IncongruentLeft750	15	203	433	1	122	17:43:45	2371846	5	3	1	1	3	1	1	2	1	6	4	0	0	0	0	6	0
090712	17:43:45	10014	Trial750Fr	CongruentRight750	15	205	423	1	122	17:43:45	2372579	5	3	1	1	3	1	1	2	1	6	4	0	0	0	0	6	0
090712	17:43:45	10014	Trial750Fr	IncongruentRight750	15	205	447	1	122	17:43:45	2373366	5	3	1	1	3	1	1	2	1	6	4	0	0	0	0	6	0
090712	17:43:45	10014	Trial750Fr	CongruentLeft750	15	203	373	1	122	17:43:45	2374046	5	3	1	1	3	1	1	2	1	6	4	0	0	0	0	6	0
090712	17:43:45	10014	Trial750Fr	CongruentRight750	15	205	411	1	122	17:43:45	2374819	5	3	1	1	3	1	1	2	1	6	4	0	0	0	0	6	0
090712	17:43:45	10014	Trial750Fr	IncongruentLeft750	15	203	480	1	122	17:43:45	2375645	5	3	1	1	3	1	1	2	1	6	4	0	0	0	0	6	0
090712	17:43:45	10014	Trial750Fr	IncongruentRight750	15	205	408	1	122	17:43:45	2376325	5	3	1	1	3	1	1	2	1	6	4	0	0	0	0	6	0
090712	17:43:45	10014	Trial750Fr	CongruentRight750	15	0	487	0	122	17:43:45	2377151	5	3	1	1	3	1	1	2	1	6	4	0	0	0	0	6	0
090712	17:43:45	10014	Trial750Fr	CongruentLeft750	15	203	422	1	122	17:43:45	2377844	5	3	1	1	3	1	1	2	1	6	4	0	0	0	0	6	0
090712	17:43:45	10014	Trial750Fr	CongruentRight750	15	205	383	1	122	17:43:45	2378564	5	3	1	1	3	1	1	2	1	6	4	0	0	0	0	6	0
090712	17:43:45	10014	Trial750Fr	IncongruentRight750	15	0	487	0	122	17:43:45	2379417	5	3	1	1	3	1	1	2	1	6	4	0	0	0	0	6	0
090712	17:43:45	10014	Trial750Fr	IncongruentLeft750	15	203	428	1	122	17:43:45	2380123	5	3	1	1	3	1	1	2	1	6	4	0	0	0	0	6	0
090712	17:43:45	10014	Trial750Fr	IncongruentLeft750	15	0	487	0	122	17:43:45	2380923	5	3	1	1	3	1	1	2	1	6	4	0	0	0	0	6	0
090712	17:43:45	10014	Trial750Fr	CongruentLeft750	15	203	426	1	122	17:43:45	2381629	5	3	1	1	3	1	1	2	1	6	4	0	0	0	0	6	0
090712	17:43:45	10014	Trial750Fr	CongruentRight750	15	205	451	1	122	17:43:45	2382416	5	3	1	1	3	1	1	2	1	6	4	0	0	0	0	6	0
090712	17:43:45	10014	Trial750Fr	IncongruentLeft750	15	203	393	1	122	17:43:45	2383095	5	3	1	1	3	1	1	2	1	6	4	0	0	0	0	6	0
090712	17:43:45	10014	Trial750Fr	IncongruentRight750	15	0	487	0	122	17:43:45	2383935	5	3	1	1	3	1	1	2	1	6	4	0	0	0	0	6	0
090712	17:43:45	10014	Trial750Fr	CongruentRight750	15	205	438	1	122	17:43:45	2384655	5	3	1	1	3	1	1	2	1	6	4	0	0	0	0	6	0
090712	17:43:45	10014	Trial750Fr	CongruentLeft750	15	203	430	1	122	17:43:45	2385401	5	3	1	1	3	1	1	2	1	6	4	0	0	0	0	6	0
090712	17:43:45	10014	Trial750Fr	IncongruentRight750	15	205	372	1	122	17:43:45	2386094	5	3	1	1	3	1	1	2	1	6	4	0	0	0	0	6	0
090712	17:43:45	10014	Trial750Fr	IncongruentLeft750	15	203	378	1	122	17:43:45	2386840	5	3	1	1	3	1	1	2	1	6	4	0	0	0	0	6	0
090712	17:43:45	10014	Trial750Fr	IncongruentRight750	15	205	464	1	122	17:43:45	2387667	5	3	1	1	3	1	1	2	1	6	4	0	0	0	0	6	0
090712	17:43:45	10014	Trial750Fr	CongruentRight750	15	0	487	0	122	17:43:45	2388440	5	3	1	1	3	1	1	2	1	6	4	0	0	0	0	6	0
090712	17:43:45	10014	Trial750Fr	IncongruentLeft750	15	203	397	1	122	17:43:45	2389106	5	3	1	1	3	1	1	2	1	6	4	0	0	0	0	6	0
090712	17:43:45	10014	Trial750Fr	CongruentLeft750	15	203	470	1	122	17:43:45	2389946	5	3	1	1	3	1	1	2	1	6	4	0	0	0	0	6	0
090712	17:43:45	10014	Trial750Fr	CongruentRight750	15	205	411	1	122	17:43:45	2390639	5	3	1	1	3	1	1	2	1	6	4	0	0	0	0	6	0
090712	17:43:45	10014	Trial750Fr	IncongruentLeft750	15	203	372	1	122	17:43:45	2391359	5	3	1	1	3	1	1	2	1	6	4	0	0	0	0	6	0
090712	17:43:45	10014	Trial750Fr	IncongruentRight750	15	205	377	1	122	17:43:45	2392105	5	3	1	1	3	1	1	2	1	6	4	0	0	0	0	6	0
090712	17:43:45	10014	Trial750Fr	IncongruentRight750	15	0	487	0	122	17:43:45	2392958	5	3	1	1	3	1	1	2	1	6	4	0	0	0	0	6	0
090712	17:43:45	10014	Trial750Fr	CongruentLeft750	15	203	359	1	122	17:43:45	2393598	5	3	1	1	3	1	1	2	1	6	4	0	0	0	0	6	0
090712	17:43:45	10014	Trial750Fr	IncongruentLeft750	15	0	487	0	122	17:43:45	2394464	5	3	1	1	3	1	1	2	1	6	4	0	0	0	0	6	0
090712	17:43:45	10014	Trial750Fr	CongruentRight750	15	205	437	1	122	17:43:45	2395170	5	3	1	1	3	1	1	2	1	6	4	0	0	0	0	6	0
090712	17:43:45	10014	Trial750Fr	CongruentLeft750	15	203	365	1	122	17:43:45	2395863	5	3	1	1	3	1	1	2	1	6	4	0	0	0	0	6	0
090712	17:43:45	10014	Trial750Fr	IncongruentRight750	15	205	419	1	122	17:43:45	2396663	5	3	1	1	3	1	1	2	1	6	4	0	0	0	0	6	0
090712	17:43:45	10014	Trial750Fr	CongruentRight750	15	203	328	0	122	17:43:45	2397316	5	3	1	1	3	1	1	2	1	6	4	0	0	0	0	6	0
090712	17:43:45	10014	Trial750Fr	IncongruentLeft750	15	203	401	1	122	17:43:45	2398156	5	3	1	1	3	1	1	2	1	6	4	0	0	0	0	6	0
090712	17:43:45	10014	Trial750Fr	CongruentLeft750	15	203	438	1	122	17:43:45	2398942	5	3	1	1	3	1	1	2	1	6	4	0	0	0	0	6	0
090712	17:43:45	10014	Trial750Fr	IncongruentLeft750	15	203	444	1	122	17:43:45	2399688	5	3	1	1	3	1	1	2	1	6	4	0	0	0	0	6	0
090712	17:43:45	10014	Trial750Fr	IncongruentRight750	15	205	434	1	122	17:43:45	2400421	5	3	1	1	3	1	1	2	1	6	4	0	0	0	0	6	0
090712	17:43:45	10014	Trial750Fr	CongruentRight750	15	205	394	1	122	17:43:45	2401141	5	3	1	1	3	1	1	2	1	6	4	0	0	0	0	6	0
090712	17:43:45	10014	Trial750Fr	CongruentLeft750	15	203	448	1	122	17:43:45	2401941	5	3	1	1	3	1	1	2	1	6	4	0	0	0	0	6	0
090712	17:43:45	10014	Trial750Fr	CongruentLeft750	15	203	437	1	122	17:43:45	2402674	5	3	1	1	3	1	1	2	1	6	4	0	0	0	0	6	0
090712	17:43:45	10014	Trial750Fr	IncongruentRight750	15	205	411	1	122	17:43:45	2403407	5	3	1	1	3	1	1	2	1	6	4	0	0	0	0	6	0
090712	17:43:45	10014	Trial750Fr	IncongruentLeft750	15	0	487	0	122	17:43:45	2404220	5	3	1	1	3	1	1	2	1	6	4	0	0	0	0	6	0
090712	17:43:45	10014	Trial750Fr	IncongruentRight750	15	205	425	1	122	17:43:45	2404926	5	3	1	1	3	1	1	2	1	6	4	0	0	0	0	6	0
090712	17:43:45	10014	Trial750Fr	CongruentRight750	15	203	321	0	122	17:43:45	2405579	5	3	1	1	3	1	1	2	1	6	4	0	0	0	0	6	0
090712	17:43:45	10014	Trial750Fr	CongruentRight750	15	205	439	1	122	17:43:45	2406446	5	3	1	1	3	1	1	2	1	6	4	0	0	0	0	6	0
090712	17:43:45	10014	Trial750Fr	IncongruentLeft750	15	203	396	1	122	17:43:45	2407139	5	3	1	1	3	1	1	2	1	6	4	0	0	0	0	6	0
090712	17:43:45	10014	Trial750Fr	CongruentLeft750	15	203	437	1	122	17:43:45	2407938	5	3	1	1	3	1	1	2	1	6	4	0	0	0	0	6	0
090712	17:43:45	10014	Trial750Fr	CongruentRight750	15	205	394	1	122	17:43:45	2408645	5	3	1	1	3	1	1	2	1	6	4	0	0	0	0	6	0
090712	17:43:45	10014	Trial750Fr	CongruentLeft750	15	203	416	1	122	17:43:45	2409418	5	3	1	1	3	1	1	2	1	6	4	0	0	0	0	6	0
090712	17:43:45	10014	Trial750Fr	IncongruentRight750	15	205	405	1	122	17:43:45	2410151	5	3	1	1	3	1	1	2	1	6	4	0	0	0	0	6	0
090712	17:43:45	10014	Trial750Fr	CongruentRight750	15	0	487	0	122	17:43:45	2410977	5	3	1	1	3	1	1	2	1	6	4	0	0	0	0	6	0
090712	17:43:45	10014	Trial750Fr	CongruentLeft750	15	0	487	0	122	17:43:45	2411737	5	3	1	1	3	1	1	2	1	6	4	0	0	0	0	6	0
090712	17:43:45	10014	Trial750Fr	IncongruentLeft750	15	0	487	0	122	17:43:45	2412497	5	3	1	1	3	1	1	2	1	6	4	0	0	0	0	6	0
090712	17:43:45	10014	Trial750Fr	IncongruentLeft750	15	0	487	0	122	17:43:45	2413256	5	3	1	1	3	1	1	2	1	6	4	0	0	0	0	6	0
090712	17:43:45	10014	Trial750Fr	CongruentRight750	15	205	460	1	122	17:43:45	2413989	5	3	1	1	3	1	1	2	1	6	4	0	0	0	0	6	0
090712	17:43:45	10014	Trial750Fr	IncongruentRight750	15	203	372	0	122	17:43:45	2414669	5	3	1	1	3	1	1	2	1	6	4	0	0	0	0	6	0
090712	17:43:45	10014	Trial750Fr	CongruentLeft750	15	203	426	1	122	17:43:45	2415469	5	3	1	1	3	1	1	2	1	6	4	0	0	0	0	6	0
090712	17:43:45	10014	Trial750Fr	IncongruentRight750	15	0	487	0	122	17:43:45	2416268	5	3	1	1	3	1	1	2	1	6	4	0	0	0	0	6	0
090712	17:43:45	10014	Trial750Fr	CongruentRight750	15	205	408	1	122	17:43:45	2416948	5	3	1	1	3	1	1	2	1	6	4	0	0	0	0	6	0
090712	17:43:45	10014	Trial750Fr	IncongruentLeft750	15	203	400	1	122	17:43:45	2417707	5	3	1	1	3	1	1	2	1	6	4	0	0	0	0	6	0
090712	17:43:45	10014	Trial750Fr	CongruentLeft750	15	203	390	1	122	17:43:45	2418441	5	3	1	1	3	1	1	2	1	6	4	0	0	0	0	6	0
090712	17:43:45	10014	Trial750Fr	CongruentRight750	15	205	396	1	122	17:43:45	2419187	5	3	1	1	3	1	1	2	1	6	4	0	0	0	0	6	0
090712	17:43:45	10014	Trial750Fr	IncongruentLeft750	15	0	487	0	122	17:43:45	2420027	5	3	1	1	3	1	1	2	1	6	4	0	0	0	0	6	0
090712	17:43:45	10014	Trial750Fr	CongruentRight750	15	205	329	1	122	17:43:45	2420626	5	3	1	1	3	1	1	2	1	6	4	0	0	0	0	6	0
090712	17:43:45	10014	Trial750Fr	CongruentRight750	15	203	322	0	122	17:43:45	2421386	5	3	1	1	3	1	1	2	1	6	4	0	0	0	0	6	0
090712	17:43:45	10014	Trial750Fr	IncongruentRight750	15	0	487	0	122	17:43:45	2422292	5	3	1	1	3	1	1	2	1	6	4	0	0	0	0	6	0
090712	17:43:45	10014	Trial750Fr	CongruentLeft750	15	203	383	1	122	17:43:45	2422945	5	3	1	1	3	1	1	2	1	6	4	0	0	0	0	6	0
090712	17:43:45	10014	Trial750Fr	IncongruentLeft750	15	203	440	1	122	17:43:45	2423772	5	3	1	1	3	1	1	2	1	6	4	0	0	0	0	6	0
090712	17:43:45	10014	Trial750Fr	CongruentLeft750	15	203	462	1	122	17:43:45	2424531	5	3	1	1	3	1	1	2	1	6	4	0	0	0	0	6	0
090712	17:43:45	10014	Trial750Fr	IncongruentRight750	15	205	403	1	122	17:43:45	2425224	5	3	1	1	3	1	1	2	1	6	4	0	0	0	0	6	0
090712	17:43:45	10014	Trial750Fr	IncongruentLeft750	15	203	363	1	122	17:43:45	2425944	5	3	1	1	3	1	1	2	1	6	4	0	0	0	0	6	0
090712	17:43:45	10014	Trial750Fr	CongruentRight750	15	205	417	1	122	17:43:45	2426744	5	3	1	1	3	1	1	2	1	6	4	0	0	0	0	6	0
090712	17:43:45	10014	Trial750Fr	CongruentLeft750	15	203	359	1	122	17:43:45	2427437	5	3	1	1	3	1	1	2	1	6	4	0	0	0	0	6	0
090712	17:43:45	10014	Trial750Fr	IncongruentLeft750	15	0	487	0	122	17:43:45	2428303	5	3	1	1	3	1	1	2	1	6	4	0	0	0	0	6	0
090712	17:43:45	10014	Trial750Fr	CongruentLeft750	15	203	468	1	122	17:43:45	2429050	5	3	1	1	3	1	1	2	1	6	4	0	0	0	0	6	0
090712	17:43:45	10014	Trial750Fr	IncongruentRight750	15	0	487	0	122	17:43:45	2429809	5	3	1	1	3	1	1	2	1	6	4	0	0	0	0	6	0
090712	17:43:45	10014	Trial750Fr	CongruentRight750	15	205	403	1	122	17:43:45	2430489	5	3	1	1	3	1	1	2	1	6	4	0	0	0	0	6	0
090712	17:43:45	10014	Trial750Fr	IncongruentLeft750	15	203	459	1	122	17:43:45	2431302	5	3	1	1	3	1	1	2	1	6	4	0	0	0	0	6	0
090712	17:43:45	10014	Trial750Fr	CongruentLeft750	15	203	448	1	122	17:43:45	2432035	5	3	1	1	3	1	1	2	1	6	4	0	0	0	0	6	0
090712	17:43:45	10014	Trial750Fr	IncongruentRight750	15	0	487	0	122	17:43:45	2432821	5	3	1	1	3	1	1	2	1	6	4	0	0	0	0	6	0
090712	17:43:45	10014	Trial750Fr	IncongruentLeft750	15	203	318	1	122	17:43:45	2433421	5	3	1	1	3	1	1	2	1	6	4	0	0	0	0	6	0
090712	17:43:45	10014	Trial750Fr	CongruentLeft750	15	205	311	0	122	17:43:45	2434167	5	3	1	1	3	1	1	2	1	6	4	0	0	0	0	6	0
090712	17:43:45	10014	Trial750Fr	IncongruentLeft750	15	203	397	1	122	17:43:45	2434994	5	3	1	1	3	1	1	2	1	6	4	0	0	0	0	6	0
090712	17:43:45	10014	Trial750Fr	CongruentRight750	15	205	434	1	122	17:43:45	2435780	5	3	1	1	3	1	1	2	1	6	4	0	0	0	0	6	0
090712	17:43:45	10014	Trial750Fr	CongruentLeft750	15	203	362	1	122	17:43:45	2436473	5	3	1	1	3	1	1	2	1	6	4	0	0	0	0	6	0
090712	17:43:45	10014	Trial750Fr	IncongruentRight750	15	205	464	1	122	17:43:45	2437313	5	3	1	1	3	1	1	2	1	6	4	0	0	0	0	6	0
090712	17:43:45	10014	Trial750Fr	CongruentLeft750	15	203	341	1	122	17:43:45	2437939	5	3	1	1	3	1	1	2	1	6	4	0	0	0	0	6	0
090712	17:43:45	10014	Trial750Fr	CongruentRight750	15	205	443	1	122	17:43:45	2438792	5	3	1	1	3	1	1	2	1	6	4	0	0	0	0	6	0
090712	17:43:45	10014	Trial750Fr	IncongruentLeft750	15	203	307	1	122	17:43:45	2439419	5	3	1	1	3	1	1	2	1	6	4	0	0	0	0	6	0
090712	17:43:45	10014	WordsAbsFr3mo	PAbsFr3mo1	16	Abs1	3591	0	122	17:43:45	2457131	5	3	1	1	3	1	1	2	1	6	4	0	0	0	0	6	0
090712	17:43:45	10014	WordsAbsFr3mo	AbsFr3mo1	16	Abs1	2998	0	122	17:43:45	2460170	5	3	1	1	3	1	1	2	1	6	4	1	0	0	0	6	0
090712	17:43:45	10014	WordsAbsFr3mo	AbsFr3mo2	16	Abs1	22182	0	122	17:43:45	2482387	5	3	1	1	3	1	1	2	1	6	4	2	0	0	0	6	0
090712	17:43:45	10014	WordsAbsFr3mo	AbsFr3mo3	16	Abs1	23428	0	122	17:43:45	2505858	5	3	1	1	3	1	1	2	1	6	4	3	0	0	0	6	0
090712	17:43:45	10014	Trial2BackFrS	NS	17	0	1000	1	122	17:43:45	2556730	5	3	1	1	3	1	1	2	1	6	4	3	0	0	0	6	0
090712	17:43:45	10014	Trial2BackFrS	NS	17	0	1000	1	122	17:43:45	2558249	5	3	1	1	3	1	1	2	1	6	4	3	0	0	0	6	0
090712	17:43:45	10014	Trial2BackFrS	NS	17	0	1000	1	122	17:43:45	2559769	5	3	1	1	3	1	1	2	1	6	4	3	0	0	0	6	0
090712	17:43:45	10014	Trial2BackFrS	YS	17	57	539	1	122	17:43:45	2560835	5	3	1	1	3	1	1	2	1	6	4	3	0	0	0	6	0
090712	17:43:45	10014	Trial2BackFrS	NS	17	0	1000	1	122	17:43:45	2562794	5	3	1	1	3	1	1	2	1	6	4	3	0	0	0	6	0
090712	17:43:45	10014	Trial2BackFrS	NS	17	0	1000	1	122	17:43:45	2564313	5	3	1	1	3	1	1	2	1	6	4	3	0	0	0	6	0
090712	17:43:45	10014	Trial2BackFrS	NS	17	0	1000	1	122	17:43:45	2565833	5	3	1	1	3	1	1	2	1	6	4	3	0	0	0	6	0
090712	17:43:45	10014	Trial2BackFrS	NS	17	0	1000	1	122	17:43:45	2567352	5	3	1	1	3	1	1	2	1	6	4	3	0	0	0	6	0
090712	17:43:45	10014	Trial2BackFrS	YS	17	57	747	1	122	17:43:45	2568632	5	3	1	1	3	1	1	2	1	6	4	3	0	0	0	6	0
090712	17:43:45	10014	Trial2BackFrS	NS	17	0	1000	1	122	17:43:45	2570378	5	3	1	1	3	1	1	2	1	6	4	3	0	0	0	6	0
090712	17:43:45	10014	Trial2BackFrS	NS	17	0	1000	1	122	17:43:45	2571897	5	3	1	1	3	1	1	2	1	6	4	3	0	0	0	6	0
090712	17:43:45	10014	Trial2BackFrS	YS	17	0	1000	0	122	17:43:45	2573416	5	3	1	1	3	1	1	2	1	6	4	3	0	0	0	6	0
090712	17:43:45	10014	Trial2BackFrS	NS	17	0	1000	1	122	17:43:45	2574936	5	3	1	1	3	1	1	2	1	6	4	3	0	0	0	6	0
090712	17:43:45	10014	Trial2BackFrS	NS	17	0	1000	1	122	17:43:45	2576455	5	3	1	1	3	1	1	2	1	6	4	3	0	0	0	6	0
090712	17:43:45	10014	Trial2BackFrS	NS	17	0	1000	1	122	17:43:45	2577974	5	3	1	1	3	1	1	2	1	6	4	3	0	0	0	6	0
090712	17:43:45	10014	Trial2BackFrS	YS	17	57	476	1	122	17:43:45	2578974	5	3	1	1	3	1	1	2	1	6	4	3	0	0	0	6	0
090712	17:43:45	10014	Trial2BackFrS	NS	17	0	1000	1	122	17:43:45	2581000	5	3	1	1	3	1	1	2	1	6	4	3	0	0	0	6	0
090712	17:43:45	10014	Trial2BackFrS	NS	17	0	1000	1	122	17:43:45	2582519	5	3	1	1	3	1	1	2	1	6	4	3	0	0	0	6	0
090712	17:43:45	10014	Trial2BackFrS	NS	17	0	1000	1	122	17:43:45	2584039	5	3	1	1	3	1	1	2	1	6	4	3	0	0	0	6	0
090712	17:43:45	10014	Trial2BackFrS	NS	17	0	1000	1	122	17:43:45	2585558	5	3	1	1	3	1	1	2	1	6	4	3	0	0	0	6	0
090712	17:43:45	10014	Trial2BackFrS	YS	17	57	413	1	122	17:43:45	2586504	5	3	1	1	3	1	1	2	1	6	4	3	0	0	0	6	0
090712	17:43:45	10014	Trial2BackFrS	NS	17	0	1000	1	122	17:43:45	2588583	5	3	1	1	3	1	1	2	1	6	4	3	0	0	0	6	0
090712	17:43:45	10014	Trial2BackFrS	NS	17	0	1000	1	122	17:43:45	2590103	5	3	1	1	3	1	1	2	1	6	4	3	0	0	0	6	0
090712	17:43:45	10014	Trial2BackFrS	NS	17	0	1000	1	122	17:43:45	2591622	5	3	1	1	3	1	1	2	1	6	4	3	0	0	0	6	0
090712	17:43:45	10014	Trial2BackFrS	NS	17	57	748	0	122	17:43:45	2592902	5	3	1	1	3	1	1	2	1	6	4	3	0	0	0	6	0
090712	17:43:45	10014	Trial2BackFrS	NS	17	0	1000	1	122	17:43:45	2594648	5	3	1	1	3	1	1	2	1	6	4	3	0	0	0	6	0
090712	17:43:45	10014	Trial2BackFrS	NS	17	0	1000	1	122	17:43:45	2596167	5	3	1	1	3	1	1	2	1	6	4	3	0	0	0	6	0
090712	17:43:45	10014	Trial2BackFrS	NS	17	0	1000	1	122	17:43:45	2597686	5	3	1	1	3	1	1	2	1	6	4	3	0	0	0	6	0
090712	17:43:45	10014	Trial2BackFrS	NS	17	0	1000	1	122	17:43:45	2599206	5	3	1	1	3	1	1	2	1	6	4	3	0	0	0	6	0
090712	17:43:45	10014	Trial2BackFrS	NS	17	0	1000	1	122	17:43:45	2600725	5	3	1	1	3	1	1	2	1	6	4	3	0	0	0	6	0
090712	17:43:45	10014	Trial2BackFrS	NS	17	0	1000	1	122	17:43:45	2602244	5	3	1	1	3	1	1	2	1	6	4	3	0	0	0	6	0
090712	17:43:45	10014	Trial2BackFrS	YS	17	57	494	1	122	17:43:45	2603271	5	3	1	1	3	1	1	2	1	6	4	3	0	0	0	6	0
090712	17:43:45	10014	Trial2BackFrS	NS	17	0	1000	1	122	17:43:45	2605270	5	3	1	1	3	1	1	2	1	6	4	3	0	0	0	6	0
090712	17:43:45	10014	Trial2BackFrS	NS	17	0	1000	1	122	17:43:45	2606789	5	3	1	1	3	1	1	2	1	6	4	3	0	0	0	6	0
090712	17:43:45	10014	Trial2BackFrS	NS	17	0	1000	1	122	17:43:45	2608309	5	3	1	1	3	1	1	2	1	6	4	3	0	0	0	6	0
090712	17:43:45	10014	Trial2BackFrS	YS	17	57	589	1	122	17:43:45	2609428	5	3	1	1	3	1	1	2	1	6	4	3	0	0	0	6	0
090712	17:43:45	10014	Trial2BackFrS	NS	17	0	1000	1	122	17:43:45	2611334	5	3	1	1	3	1	1	2	1	6	4	3	0	0	0	6	0
090712	17:43:45	10014	Trial2BackFrS	NS	17	0	1000	1	122	17:43:45	2612853	5	3	1	1	3	1	1	2	1	6	4	3	0	0	0	6	0
090712	17:43:45	10014	Trial2BackFrS	NS	17	0	1000	1	122	17:43:45	2614373	5	3	1	1	3	1	1	2	1	6	4	3	0	0	0	6	0
090712	17:43:45	10014	Trial2BackFrS	NS	17	0	1000	1	122	17:43:45	2615892	5	3	1	1	3	1	1	2	1	6	4	3	0	0	0	6	0
090712	17:43:45	10014	Trial2BackFrS	NS	17	0	1000	1	122	17:43:45	2617411	5	3	1	1	3	1	1	2	1	6	4	3	0	0	0	6	0
090712	17:43:45	10014	Trial2BackFrS	NS	17	0	1000	1	122	17:43:45	2618931	5	3	1	1	3	1	1	2	1	6	4	3	0	0	0	6	0
090712	17:43:45	10014	Trial2BackFrS	NS	17	0	1000	1	122	17:43:45	2620451	5	3	1	1	3	1	1	2	1	6	4	3	0	0	0	6	0
090712	17:43:45	10014	Trial2BackFrS	YS	17	0	1000	0	122	17:43:45	2621970	5	3	1	1	3	1	1	2	1	6	4	3	0	0	0	6	0
090712	17:43:45	10014	Trial2BackFrS	NS	17	0	1000	1	122	17:43:45	2623489	5	3	1	1	3	1	1	2	1	6	4	3	0	0	0	6	0
090712	17:43:45	10014	Trial2BackFrS	NS	17	57	800	0	122	17:43:45	2624822	5	3	1	1	3	1	1	2	1	6	4	3	0	0	0	6	0
090712	17:43:45	10014	Trial2BackFrS	NS	17	0	1000	1	122	17:43:45	2626514	5	3	1	1	3	1	1	2	1	6	4	3	0	0	0	6	0
090712	17:43:45	10014	Trial2BackFrS	NS	17	0	1000	1	122	17:43:45	2628034	5	3	1	1	3	1	1	2	1	6	4	3	0	0	0	6	0
090712	17:43:45	10014	Trial2BackFrS	YS	17	57	559	1	122	17:43:45	2629127	5	3	1	1	3	1	1	2	1	6	4	3	0	0	0	6	0
090712	17:43:45	10014	Trial2BackFrS	NS	17	0	1000	1	122	17:43:45	2631059	5	3	1	1	3	1	1	2	1	6	4	3	0	0	0	6	0
090712	17:43:45	10014	Trial2BackFrS	NS	17	0	1000	1	122	17:43:45	2632578	5	3	1	1	3	1	1	2	1	6	4	3	0	0	0	6	0
090712	17:43:45	10014	Trial2BackFrS	NS	17	0	1000	1	122	17:43:45	2634098	5	3	1	1	3	1	1	2	1	6	4	3	0	0	0	6	0
090712	17:43:45	10014	Trial2BackFrS	NS	17	0	1000	1	122	17:43:45	2635617	5	3	1	1	3	1	1	2	1	6	4	3	0	0	0	6	0
090712	17:43:45	10014	Trial2BackFrS	NS	17	57	880	0	122	17:43:45	2637030	5	3	1	1	3	1	1	2	1	6	4	3	0	0	0	6	0
090712	17:43:45	10014	Trial2BackFrS	NS	17	0	1000	1	122	17:43:45	2638642	5	3	1	1	3	1	1	2	1	6	4	3	0	0	0	6	0
090712	17:43:45	10014	Trial2BackFrS	YS	17	57	750	1	122	17:43:45	2639922	5	3	1	1	3	1	1	2	1	6	4	3	0	0	0	6	0
090712	17:43:45	10014	Trial2BackFrS	NS	17	0	1000	1	122	17:43:45	2641668	5	3	1	1	3	1	1	2	1	6	4	3	0	0	0	6	0
090712	17:43:45	10014	Trial2BackFrS	NS	17	0	1000	1	122	17:43:45	2643187	5	3	1	1	3	1	1	2	1	6	4	3	0	0	0	6	0
090712	17:43:45	10014	Trial2BackFrS	NS	17	0	1000	1	122	17:43:45	2644707	5	3	1	1	3	1	1	2	1	6	4	3	0	0	0	6	0
090712	17:43:45	10014	Trial2BackFrS	NS	17	0	1000	1	122	17:43:45	2646226	5	3	1	1	3	1	1	2	1	6	4	3	0	0	0	6	0
090712	17:43:45	10014	Trial2BackFrS	NS	17	0	1000	1	122	17:43:45	2647746	5	3	1	1	3	1	1	2	1	6	4	3	0	0	0	6	0
090712	17:43:45	10014	Trial2BackFrS	NS	17	0	1000	1	122	17:43:45	2649265	5	3	1	1	3	1	1	2	1	6	4	3	0	0	0	6	0
090712	17:43:45	10014	Trial2BackFrS	NS	17	0	1000	1	122	17:43:45	2650784	5	3	1	1	3	1	1	2	1	6	4	3	0	0	0	6	0
090712	17:43:45	10014	Trial2BackFrS	YS	17	57	384	1	122	17:43:45	2651691	5	3	1	1	3	1	1	2	1	6	4	3	0	0	0	6	0
090712	17:43:45	10014	Trial2BackFrS	NS	17	0	1000	1	122	17:43:45	2653810	5	3	1	1	3	1	1	2	1	6	4	3	0	0	0	6	0
090712	17:43:45	10014	Trial2BackFrS	NS	17	0	1000	1	122	17:43:45	2655329	5	3	1	1	3	1	1	2	1	6	4	3	0	0	0	6	0
090712	17:43:45	10014	Trial2BackFrS	NS	17	0	1000	1	122	17:43:45	2656849	5	3	1	1	3	1	1	2	1	6	4	3	0	0	0	6	0
090712	17:43:45	10014	Trial2BackFrS	NS	17	0	1000	1	122	17:43:45	2658368	5	3	1	1	3	1	1	2	1	6	4	3	0	0	0	6	0
090712	17:43:45	10014	Trial2BackFrS	YS	17	57	544	1	122	17:43:45	2659434	5	3	1	1	3	1	1	2	1	6	4	3	0	0	0	6	0
090712	17:43:45	10014	Trial2BackFrS	NS	17	0	1000	1	122	17:43:45	2661393	5	3	1	1	3	1	1	2	1	6	4	3	0	0	0	6	0
090712	17:43:45	10014	Trial2BackFrS	NS	17	0	1000	1	122	17:43:45	2662913	5	3	1	1	3	1	1	2	1	6	4	3	0	0	0	6	0
090712	17:43:45	10014	Trial2BackFrS	YS	17	57	527	1	122	17:43:45	2663965	5	3	1	1	3	1	1	2	1	6	4	3	0	0	0	6	0
090712	17:43:45	10014	Trial2BackFrS	NS	17	0	1000	1	122	17:43:45	2665938	5	3	1	1	3	1	1	2	1	6	4	3	0	0	0	6	0
090712	17:43:45	10014	Trial2BackFrS	NS	17	0	1000	1	122	17:43:45	2667457	5	3	1	1	3	1	1	2	1	6	4	3	0	0	0	6	0
090712	17:43:45	10014	Trial2BackFrS	NS	17	57	670	0	122	17:43:45	2668657	5	3	1	1	3	1	1	2	1	6	4	3	0	0	0	6	0
090712	17:43:45	10014	Trial2BackFrS	NS	17	0	1000	1	122	17:43:45	2670483	5	3	1	1	3	1	1	2	1	6	4	3	0	0	0	6	0
090712	17:43:45	10014	Trial2BackFrS	NS	17	0	1000	1	122	17:43:45	2672002	5	3	1	1	3	1	1	2	1	6	4	3	0	0	0	6	0
090712	17:43:45	10014	Trial2BackFrS	NS	17	57	557	0	122	17:43:45	2673082	5	3	1	1	3	1	1	2	1	6	4	3	0	0	0	6	0
090712	17:43:45	10014	Trial2BackFrS	YS	17	57	667	1	122	17:43:45	2674708	5	3	1	1	3	1	1	2	1	6	4	3	0	0	0	6	0
090712	17:43:45	10014	Trial2BackFrS	NS	17	0	1000	1	122	17:43:45	2676520	5	3	1	1	3	1	1	2	1	6	4	3	0	0	0	6	0
090712	17:43:45	10014	Trial2BackFrS	NS	17	0	1000	1	122	17:43:45	2678040	5	3	1	1	3	1	1	2	1	6	4	3	0	0	0	6	0
090712	17:43:45	10014	Trial2BackFrS	NS	17	0	1000	1	122	17:43:45	2679559	5	3	1	1	3	1	1	2	1	6	4	3	0	0	0	6	0
090712	17:43:45	10014	Trial2BackFrS	NS	17	0	1000	1	122	17:43:45	2681078	5	3	1	1	3	1	1	2	1	6	4	3	0	0	0	6	0
090712	17:43:45	10014	Trial2BackFrS	YS	17	57	537	1	122	17:43:45	2682145	5	3	1	1	3	1	1	2	1	6	4	3	0	0	0	6	0
090712	17:43:45	10014	Trial2BackFrS	NS	17	0	1000	1	122	17:43:45	2684104	5	3	1	1	3	1	1	2	1	6	4	3	0	0	0	6	0
090712	17:43:45	10014	Trial2BackFrS	NS	17	0	1000	1	122	17:43:45	2685623	5	3	1	1	3	1	1	2	1	6	4	3	0	0	0	6	0
090712	17:43:45	10014	Trial2BackFrS	NS	17	0	1000	1	122	17:43:45	2687143	5	3	1	1	3	1	1	2	1	6	4	3	0	0	0	6	0
090712	17:43:45	10014	Trial2BackFrS	NS	17	57	536	0	122	17:43:45	2688209	5	3	1	1	3	1	1	2	1	6	4	3	0	0	0	6	0
090712	17:43:45	10014	Trial2BackFrS	YS	17	0	1000	0	122	17:43:45	2690168	5	3	1	1	3	1	1	2	1	6	4	3	0	0	0	6	0
090712	17:43:45	10014	Trial2BackFrS	NS	17	0	1000	1	122	17:43:45	2691687	5	3	1	1	3	1	1	2	1	6	4	3	0	0	0	6	0
090712	17:43:45	10014	Trial2BackFrS	NS	17	0	1000	1	122	17:43:45	2693207	5	3	1	1	3	1	1	2	1	6	4	3	0	0	0	6	0
090712	17:43:45	10014	Trial2BackFrS	YS	17	57	504	1	122	17:43:45	2694233	5	3	1	1	3	1	1	2	1	6	4	3	0	0	0	6	0
090712	17:43:45	10014	Trial2BackFrS	NS	17	0	1000	1	122	17:43:45	2696232	5	3	1	1	3	1	1	2	1	6	4	3	0	0	0	6	0
090712	17:43:45	10014	Trial2BackFrS	NS	17	0	1000	1	122	17:43:45	2697752	5	3	1	1	3	1	1	2	1	6	4	3	0	0	0	6	0
090712	17:43:45	10014	Trial2BackFrS	NS	17	0	1000	1	122	17:43:45	2699284	5	3	1	1	3	1	1	2	1	6	4	3	0	0	0	6	0
090712	17:43:45	10014	Trial2BackFrS	NS	17	0	1000	1	122	17:43:45	2700804	5	3	1	1	3	1	1	2	1	6	4	3	0	0	0	6	0
090712	17:43:45	10014	Trial2BackFrS	NS	17	0	1000	1	122	17:43:45	2702323	5	3	1	1	3	1	1	2	1	6	4	3	0	0	0	6	0
090712	17:43:45	10014	Trial2BackFrS	NS	17	0	1000	1	122	17:43:45	2703843	5	3	1	1	3	1	1	2	1	6	4	3	0	0	0	6	0
090712	17:43:45	10014	Trial2BackFrS	NS	17	0	1000	1	122	17:43:45	2705362	5	3	1	1	3	1	1	2	1	6	4	3	0	0	0	6	0
090712	17:43:45	10014	Trial2BackFrS	NS	17	0	1000	1	122	17:43:45	2706881	5	3	1	1	3	1	1	2	1	6	4	3	0	0	0	6	0
090712	17:43:45	10014	Trial2BackFrS	YS	17	57	509	1	122	17:43:45	2707921	5	3	1	1	3	1	1	2	1	6	4	3	0	0	0	6	0
090712	17:43:45	10014	Trial2BackFrS	NS	17	0	1000	1	122	17:43:45	2709906	5	3	1	1	3	1	1	2	1	6	4	3	0	0	0	6	0
090712	17:43:45	10014	Trial2BackFrS	NS	17	0	1000	1	122	17:43:45	2711426	5	3	1	1	3	1	1	2	1	6	4	3	0	0	0	6	0
090712	17:43:45	10014	Trial2BackFrS	NS	17	0	1000	1	122	17:43:45	2712946	5	3	1	1	3	1	1	2	1	6	4	3	0	0	0	6	0
090712	17:43:45	10014	Trial2BackFrS	NS	17	0	1000	1	122	17:43:45	2714464	5	3	1	1	3	1	1	2	1	6	4	3	0	0	0	6	0
090712	17:43:45	10014	Trial2BackFrS	NS	17	0	1000	1	122	17:43:45	2715984	5	3	1	1	3	1	1	2	1	6	4	3	0	0	0	6	0
090712	17:43:45	10014	Trial2BackFrS	NS	17	0	1000	1	122	17:43:45	2717503	5	3	1	1	3	1	1	2	1	6	4	3	0	0	0	6	0
090712	17:43:45	10014	Trial2BackFrS	NS	17	0	1000	1	122	17:43:45	2719023	5	3	1	1	3	1	1	2	1	6	4	3	0	0	0	6	0
090712	17:43:45	10014	Trial2BackFrS	YS	17	57	447	1	122	17:43:45	2719996	5	3	1	1	3	1	1	2	1	6	4	3	0	0	0	6	0
090712	17:43:45	10014	Trial2BackFrS	NS	17	0	1000	1	122	17:43:45	2722048	5	3	1	1	3	1	1	2	1	6	4	3	0	0	0	6	0
090712	17:43:45	10014	Trial2BackFrS	NS	17	0	1000	1	122	17:43:45	2723568	5	3	1	1	3	1	1	2	1	6	4	3	0	0	0	6	0
090712	17:43:45	10014	Trial2BackFrS	NS	17	0	1000	1	122	17:43:45	2725087	5	3	1	1	3	1	1	2	1	6	4	3	0	0	0	6	0
090712	17:43:45	10014	Trial2BackFrS	NS	17	0	1000	1	122	17:43:45	2726606	5	3	1	1	3	1	1	2	1	6	4	3	0	0	0	6	0
090712	17:43:45	10014	Trial2BackFrS	NS	17	0	1000	1	122	17:43:45	2728126	5	3	1	1	3	1	1	2	1	6	4	3	0	0	0	6	0
090712	17:43:45	10014	Trial2BackFrS	NS	17	0	1000	1	122	17:43:45	2729645	5	3	1	1	3	1	1	2	1	6	4	3	0	0	0	6	0
090712	17:43:45	10014	Trial2BackFrS	NS	17	0	1000	1	122	17:43:45	2731164	5	3	1	1	3	1	1	2	1	6	4	3	0	0	0	6	0
090712	17:43:45	10014	Trial2BackFrS	NS	17	0	1000	1	122	17:43:45	2732684	5	3	1	1	3	1	1	2	1	6	4	3	0	0	0	6	0
090712	17:43:45	10014	Trial2BackFrS	NS	17	0	1000	1	122	17:43:45	2734203	5	3	1	1	3	1	1	2	1	6	4	3	0	0	0	6	0
090712	17:43:45	10014	Trial2BackFrS	YS	17	57	994	1	122	17:43:45	2735722	5	3	1	1	3	1	1	2	1	6	4	3	0	0	0	6	0
090712	17:43:45	10014	Trial2BackFrS	NS	17	0	1000	1	122	17:43:45	2737242	5	3	1	1	3	1	1	2	1	6	4	3	0	0	0	6	0
090712	17:43:45	10014	Trial3BackFrS	NNS	18	0	1000	1	122	17:43:45	2768629	5	3	1	1	3	1	1	2	1	6	4	3	0	0	0	6	0
090712	17:43:45	10014	Trial3BackFrS	NNS	18	0	1000	1	122	17:43:45	2770148	5	3	1	1	3	1	1	2	1	6	4	3	0	0	0	6	0
090712	17:43:45	10014	Trial3BackFrS	NNS	18	0	1000	1	122	17:43:45	2771667	5	3	1	1	3	1	1	2	1	6	4	3	0	0	0	6	0
090712	17:43:45	10014	Trial3BackFrS	YYS	18	57	633	1	122	17:43:45	2772827	5	3	1	1	3	1	1	2	1	6	4	3	0	0	0	6	0
090712	17:43:45	10014	Trial3BackFrS	NNS	18	0	1000	1	122	17:43:45	2774693	5	3	1	1	3	1	1	2	1	6	4	3	0	0	0	6	0
090712	17:43:45	10014	Trial3BackFrS	NNS	18	0	1000	1	122	17:43:45	2776212	5	3	1	1	3	1	1	2	1	6	4	3	0	0	0	6	0
090712	17:43:45	10014	Trial3BackFrS	NNS	18	0	1000	1	122	17:43:45	2777732	5	3	1	1	3	1	1	2	1	6	4	3	0	0	0	6	0
090712	17:43:45	10014	Trial3BackFrS	NNS	18	0	1000	1	122	17:43:45	2779251	5	3	1	1	3	1	1	2	1	6	4	3	0	0	0	6	0
090712	17:43:45	10014	Trial3BackFrS	YYS	18	57	585	1	122	17:43:45	2780357	5	3	1	1	3	1	1	2	1	6	4	3	0	0	0	6	0
090712	17:43:45	10014	Trial3BackFrS	NNS	18	0	1000	1	122	17:43:45	2782276	5	3	1	1	3	1	1	2	1	6	4	3	0	0	0	6	0
090712	17:43:45	10014	Trial3BackFrS	NNS	18	0	1000	1	122	17:43:45	2783796	5	3	1	1	3	1	1	2	1	6	4	3	0	0	0	6	0
090712	17:43:45	10014	Trial3BackFrS	NNS	18	0	1000	1	122	17:43:45	2785315	5	3	1	1	3	1	1	2	1	6	4	3	0	0	0	6	0
090712	17:43:45	10014	Trial3BackFrS	NNS	18	0	1000	1	122	17:43:45	2786835	5	3	1	1	3	1	1	2	1	6	4	3	0	0	0	6	0
090712	17:43:45	10014	Trial3BackFrS	NNS	18	57	569	0	122	17:43:45	2787927	5	3	1	1	3	1	1	2	1	6	4	3	0	0	0	6	0
090712	17:43:45	10014	Trial3BackFrS	NNS	18	0	1000	1	122	17:43:45	2789860	5	3	1	1	3	1	1	2	1	6	4	3	0	0	0	6	0
090712	17:43:45	10014	Trial3BackFrS	NNS	18	0	1000	1	122	17:43:45	2791379	5	3	1	1	3	1	1	2	1	6	4	3	0	0	0	6	0
090712	17:43:45	10014	Trial3BackFrS	YYS	18	0	1000	0	122	17:43:45	2792899	5	3	1	1	3	1	1	2	1	6	4	3	0	0	0	6	0
090712	17:43:45	10014	Trial3BackFrS	NNS	18	0	1000	1	122	17:43:45	2794418	5	3	1	1	3	1	1	2	1	6	4	3	0	0	0	6	0
090712	17:43:45	10014	Trial3BackFrS	NNS	18	0	1000	1	122	17:43:45	2795937	5	3	1	1	3	1	1	2	1	6	4	3	0	0	0	6	0
090712	17:43:45	10014	Trial3BackFrS	NNS	18	57	714	0	122	17:43:45	2797177	5	3	1	1	3	1	1	2	1	6	4	3	0	0	0	6	0
090712	17:43:45	10014	Trial3BackFrS	NNS	18	0	1000	1	122	17:43:45	2798963	5	3	1	1	3	1	1	2	1	6	4	3	0	0	0	6	0
090712	17:43:45	10014	Trial3BackFrS	NNS	18	0	1000	1	122	17:43:45	2800482	5	3	1	1	3	1	1	2	1	6	4	3	0	0	0	6	0
090712	17:43:45	10014	Trial3BackFrS	YYS	18	0	1000	0	122	17:43:45	2802002	5	3	1	1	3	1	1	2	1	6	4	3	0	0	0	6	0
090712	17:43:45	10014	Trial3BackFrS	NNS	18	0	1000	1	122	17:43:45	2803521	5	3	1	1	3	1	1	2	1	6	4	3	0	0	0	6	0
090712	17:43:45	10014	Trial3BackFrS	NNS	18	0	1000	1	122	17:43:45	2805040	5	3	1	1	3	1	1	2	1	6	4	3	0	0	0	6	0
090712	17:43:45	10014	Trial3BackFrS	NNS	18	57	699	0	122	17:43:45	2806266	5	3	1	1	3	1	1	2	1	6	4	3	0	0	0	6	0
090712	17:43:45	10014	Trial3BackFrS	YYS	18	0	1000	0	122	17:43:45	2808066	5	3	1	1	3	1	1	2	1	6	4	3	0	0	0	6	0
090712	17:43:45	10014	Trial3BackFrS	NNS	18	0	1000	1	122	17:43:45	2809585	5	3	1	1	3	1	1	2	1	6	4	3	0	0	0	6	0
090712	17:43:45	10014	Trial3BackFrS	NNS	18	0	1000	1	122	17:43:45	2811104	5	3	1	1	3	1	1	2	1	6	4	3	0	0	0	6	0
090712	17:43:45	10014	Trial3BackFrS	NNS	18	0	1000	1	122	17:43:45	2812624	5	3	1	1	3	1	1	2	1	6	4	3	0	0	0	6	0
090712	17:43:45	10014	Trial3BackFrS	YYS	18	57	827	1	122	17:43:45	2813983	5	3	1	1	3	1	1	2	1	6	4	3	0	0	0	6	0
090712	17:43:45	10014	Trial3BackFrS	NNS	18	0	1000	1	122	17:43:45	2815649	5	3	1	1	3	1	1	2	1	6	4	3	0	0	0	6	0
090712	17:43:45	10014	Trial3BackFrS	NNS	18	0	1000	1	122	17:43:45	2817169	5	3	1	1	3	1	1	2	1	6	4	3	0	0	0	6	0
090712	17:43:45	10014	Trial3BackFrS	NNS	18	0	1000	1	122	17:43:45	2818688	5	3	1	1	3	1	1	2	1	6	4	3	0	0	0	6	0
090712	17:43:45	10014	Trial3BackFrS	NNS	18	0	1000	1	122	17:43:45	2820207	5	3	1	1	3	1	1	2	1	6	4	3	0	0	0	6	0
090712	17:43:45	10014	Trial3BackFrS	NNS	18	0	1000	1	122	17:43:45	2821727	5	3	1	1	3	1	1	2	1	6	4	3	0	0	0	6	0
090712	17:43:45	10014	Trial3BackFrS	NNS	18	57	876	0	122	17:43:45	2823126	5	3	1	1	3	1	1	2	1	6	4	3	0	0	0	6	0
090712	17:43:45	10014	Trial3BackFrS	NNS	18	0	1000	1	122	17:43:45	2824752	5	3	1	1	3	1	1	2	1	6	4	3	0	0	0	6	0
090712	17:43:45	10014	Trial3BackFrS	NNS	18	0	1000	1	122	17:43:45	2826271	5	3	1	1	3	1	1	2	1	6	4	3	0	0	0	6	0
090712	17:43:45	10014	Trial3BackFrS	NNS	18	0	1000	1	122	17:43:45	2827791	5	3	1	1	3	1	1	2	1	6	4	3	0	0	0	6	0
090712	17:43:45	10014	Trial3BackFrS	NNS	18	0	1000	1	122	17:43:45	2829310	5	3	1	1	3	1	1	2	1	6	4	3	0	0	0	6	0
090712	17:43:45	10014	Trial3BackFrS	YYS	18	57	364	1	122	17:43:45	2830203	5	3	1	1	3	1	1	2	1	6	4	3	0	0	0	6	0
090712	17:43:45	10014	Trial3BackFrS	NNS	18	0	1000	1	122	17:43:45	2832336	5	3	1	1	3	1	1	2	1	6	4	3	0	0	0	6	0
090712	17:43:45	10014	Trial3BackFrS	NNS	18	0	1000	1	122	17:43:45	2833855	5	3	1	1	3	1	1	2	1	6	4	3	0	0	0	6	0
090712	17:43:45	10014	Trial3BackFrS	NNS	18	0	1000	1	122	17:43:45	2835374	5	3	1	1	3	1	1	2	1	6	4	3	0	0	0	6	0
090712	17:43:45	10014	Trial3BackFrS	NNS	18	0	1000	1	122	17:43:45	2836894	5	3	1	1	3	1	1	2	1	6	4	3	0	0	0	6	0
090712	17:43:45	10014	Trial3BackFrS	YYS	18	57	748	1	122	17:43:45	2838173	5	3	1	1	3	1	1	2	1	6	4	3	0	0	0	6	0
090712	17:43:45	10014	Trial3BackFrS	NNS	18	0	1000	1	122	17:43:45	2839919	5	3	1	1	3	1	1	2	1	6	4	3	0	0	0	6	0
090712	17:43:45	10014	Trial3BackFrS	NNS	18	0	1000	1	122	17:43:45	2841439	5	3	1	1	3	1	1	2	1	6	4	3	0	0	0	6	0
090712	17:43:45	10014	Trial3BackFrS	NNS	18	0	1000	1	122	17:43:45	2842958	5	3	1	1	3	1	1	2	1	6	4	3	0	0	0	6	0
090712	17:43:45	10014	Trial3BackFrS	NNS	18	0	1000	1	122	17:43:45	2844477	5	3	1	1	3	1	1	2	1	6	4	3	0	0	0	6	0
090712	17:43:45	10014	Trial3BackFrS	NNS	18	0	1000	1	122	17:43:45	2845997	5	3	1	1	3	1	1	2	1	6	4	3	0	0	0	6	0
090712	17:43:45	10014	Trial3BackFrS	YYS	18	57	605	1	122	17:43:45	2847130	5	3	1	1	3	1	1	2	1	6	4	3	0	0	0	6	0
090712	17:43:45	10014	Trial3BackFrS	NNS	18	0	1000	1	122	17:43:45	2849022	5	3	1	1	3	1	1	2	1	6	4	3	0	0	0	6	0
090712	17:43:45	10014	Trial3BackFrS	NNS	18	0	1000	1	122	17:43:45	2850542	5	3	1	1	3	1	1	2	1	6	4	3	0	0	0	6	0
090712	17:43:45	10014	Trial3BackFrS	NNS	18	0	1000	1	122	17:43:45	2852061	5	3	1	1	3	1	1	2	1	6	4	3	0	0	0	6	0
090712	17:43:45	10014	Trial3BackFrS	NNS	18	0	1000	1	122	17:43:45	2853580	5	3	1	1	3	1	1	2	1	6	4	3	0	0	0	6	0
090712	17:43:45	10014	Trial3BackFrS	NNS	18	0	1000	1	122	17:43:45	2855100	5	3	1	1	3	1	1	2	1	6	4	3	0	0	0	6	0
090712	17:43:45	10014	Trial3BackFrS	NNS	18	57	318	0	122	17:43:45	2855939	5	3	1	1	3	1	1	2	1	6	4	3	0	0	0	6	0
090712	17:43:45	10014	Trial3BackFrS	YYS	18	0	1000	0	122	17:43:45	2858125	5	3	1	1	3	1	1	2	1	6	4	3	0	0	0	6	0
090712	17:43:45	10014	Trial3BackFrS	NNS	18	0	1000	1	122	17:43:45	2859644	5	3	1	1	3	1	1	2	1	6	4	3	0	0	0	6	0
090712	17:43:45	10014	Trial3BackFrS	NNS	18	0	1000	1	122	17:43:45	2861164	5	3	1	1	3	1	1	2	1	6	4	3	0	0	0	6	0
090712	17:43:45	10014	Trial3BackFrS	NNS	18	0	1000	1	122	17:43:45	2862683	5	3	1	1	3	1	1	2	1	6	4	3	0	0	0	6	0
090712	17:43:45	10014	Trial3BackFrS	YYS	18	57	766	1	122	17:43:45	2863976	5	3	1	1	3	1	1	2	1	6	4	3	0	0	0	6	0
090712	17:43:45	10014	Trial3BackFrS	NNS	18	0	1000	1	122	17:43:45	2865708	5	3	1	1	3	1	1	2	1	6	4	3	0	0	0	6	0
090712	17:43:45	10014	Trial3BackFrS	NNS	18	0	1000	1	122	17:43:45	2867228	5	3	1	1	3	1	1	2	1	6	4	3	0	0	0	6	0
090712	17:43:45	10014	Trial3BackFrS	NNS	18	0	1000	1	122	17:43:45	2868747	5	3	1	1	3	1	1	2	1	6	4	3	0	0	0	6	0
090712	17:43:45	10014	Trial3BackFrS	NNS	18	0	1000	1	122	17:43:45	2870267	5	3	1	1	3	1	1	2	1	6	4	3	0	0	0	6	0
090712	17:43:45	10014	Trial3BackFrS	NNS	18	57	430	0	122	17:43:45	2871226	5	3	1	1	3	1	1	2	1	6	4	3	0	0	0	6	0
090712	17:43:45	10014	Trial3BackFrS	NNS	18	0	1000	1	122	17:43:45	2873292	5	3	1	1	3	1	1	2	1	6	4	3	0	0	0	6	0
090712	17:43:45	10014	Trial3BackFrS	NNS	18	0	1000	1	122	17:43:45	2874811	5	3	1	1	3	1	1	2	1	6	4	3	0	0	0	6	0
090712	17:43:45	10014	Trial3BackFrS	NNS	18	0	1000	1	122	17:43:45	2876331	5	3	1	1	3	1	1	2	1	6	4	3	0	0	0	6	0
090712	17:43:45	10014	Trial3BackFrS	NNS	18	0	1000	1	122	17:43:45	2877850	5	3	1	1	3	1	1	2	1	6	4	3	0	0	0	6	0
090712	17:43:45	10014	Trial3BackFrS	YYS	18	57	478	1	122	17:43:45	2878850	5	3	1	1	3	1	1	2	1	6	4	3	0	0	0	6	0
090712	17:43:45	10014	Trial3BackFrS	NNS	18	0	1000	1	122	17:43:45	2880876	5	3	1	1	3	1	1	2	1	6	4	3	0	0	0	6	0
090712	17:43:45	10014	Trial3BackFrS	NNS	18	0	1000	1	122	17:43:45	2882395	5	3	1	1	3	1	1	2	1	6	4	3	0	0	0	6	0
090712	17:43:45	10014	Trial3BackFrS	NNS	18	0	1000	1	122	17:43:45	2883914	5	3	1	1	3	1	1	2	1	6	4	3	0	0	0	6	0
090712	17:43:45	10014	Trial3BackFrS	YYS	18	57	638	1	122	17:43:45	2885074	5	3	1	1	3	1	1	2	1	6	4	3	0	0	0	6	0
090712	17:43:45	10014	Trial3BackFrS	NNS	18	0	1000	1	122	17:43:45	2886940	5	3	1	1	3	1	1	2	1	6	4	3	0	0	0	6	0
090712	17:43:45	10014	Trial3BackFrS	NNS	18	0	1000	1	122	17:43:45	2888459	5	3	1	1	3	1	1	2	1	6	4	3	0	0	0	6	0
090712	17:43:45	10014	Trial3BackFrS	NNS	18	0	1000	1	122	17:43:45	2889978	5	3	1	1	3	1	1	2	1	6	4	3	0	0	0	6	0
090712	17:43:45	10014	Trial3BackFrS	NNS	18	0	1000	1	122	17:43:45	2891498	5	3	1	1	3	1	1	2	1	6	4	3	0	0	0	6	0
090712	17:43:45	10014	Trial3BackFrS	NNS	18	0	1000	1	122	17:43:45	2893017	5	3	1	1	3	1	1	2	1	6	4	3	0	0	0	6	0
090712	17:43:45	10014	Trial3BackFrS	YYS	18	57	351	1	122	17:43:45	2893897	5	3	1	1	3	1	1	2	1	6	4	3	0	0	0	6	0
090712	17:43:45	10014	Trial3BackFrS	NNS	18	0	1000	1	122	17:43:45	2896043	5	3	1	1	3	1	1	2	1	6	4	3	0	0	0	6	0
090712	17:43:45	10014	Trial3BackFrS	NNS	18	0	1000	1	122	17:43:45	2897562	5	3	1	1	3	1	1	2	1	6	4	3	0	0	0	6	0
090712	17:43:45	10014	Trial3BackFrS	NNS	18	0	1000	1	122	17:43:45	2899081	5	3	1	1	3	1	1	2	1	6	4	3	0	0	0	6	0
090712	17:43:45	10014	Trial3BackFrS	NNS	18	0	1000	1	122	17:43:45	2900601	5	3	1	1	3	1	1	2	1	6	4	3	0	0	0	6	0
090712	17:43:45	10014	Trial3BackFrS	NNS	18	0	1000	1	122	17:43:45	2902120	5	3	1	1	3	1	1	2	1	6	4	3	0	0	0	6	0
090712	17:43:45	10014	Trial3BackFrS	NNS	18	57	528	0	122	17:43:45	2903173	5	3	1	1	3	1	1	2	1	6	4	3	0	0	0	6	0
090712	17:43:45	10014	Trial3BackFrS	NNS	18	0	1000	1	122	17:43:45	2905145	5	3	1	1	3	1	1	2	1	6	4	3	0	0	0	6	0
090712	17:43:45	10014	Trial3BackFrS	NNS	18	0	1000	1	122	17:43:45	2906665	5	3	1	1	3	1	1	2	1	6	4	3	0	0	0	6	0
090712	17:43:45	10014	Trial3BackFrS	NNS	18	0	1000	1	122	17:43:45	2908184	5	3	1	1	3	1	1	2	1	6	4	3	0	0	0	6	0
090712	17:43:45	10014	Trial3BackFrS	YYS	18	0	1000	0	122	17:43:45	2909704	5	3	1	1	3	1	1	2	1	6	4	3	0	0	0	6	0
090712	17:43:45	10014	Trial3BackFrS	NNS	18	0	1000	1	122	17:43:45	2911223	5	3	1	1	3	1	1	2	1	6	4	3	0	0	0	6	0
090712	17:43:45	10014	Trial3BackFrS	NNS	18	57	817	0	122	17:43:45	2912569	5	3	1	1	3	1	1	2	1	6	4	3	0	0	0	6	0
090712	17:43:45	10014	Trial3BackFrS	NNS	18	0	1000	1	122	17:43:45	2914248	5	3	1	1	3	1	1	2	1	6	4	3	0	0	0	6	0
090712	17:43:45	10014	Trial3BackFrS	NNS	18	0	1000	1	122	17:43:45	2915768	5	3	1	1	3	1	1	2	1	6	4	3	0	0	0	6	0
090712	17:43:45	10014	Trial3BackFrS	NNS	18	0	1000	1	122	17:43:45	2917287	5	3	1	1	3	1	1	2	1	6	4	3	0	0	0	6	0
090712	17:43:45	10014	Trial3BackFrS	NNS	18	0	1000	1	122	17:43:45	2918806	5	3	1	1	3	1	1	2	1	6	4	3	0	0	0	6	0
090712	17:43:45	10014	Trial3BackFrS	NNS	18	0	1000	1	122	17:43:45	2920326	5	3	1	1	3	1	1	2	1	6	4	3	0	0	0	6	0
090712	17:43:45	10014	Trial3BackFrS	NNS	18	0	1000	1	122	17:43:45	2921845	5	3	1	1	3	1	1	2	1	6	4	3	0	0	0	6	0
090712	17:43:45	10014	Trial3BackFrS	YYS	18	57	642	1	122	17:43:45	2923018	5	3	1	1	3	1	1	2	1	6	4	3	0	0	0	6	0
090712	17:43:45	10014	Trial3BackFrS	NNS	18	0	1000	1	122	17:43:45	2924871	5	3	1	1	3	1	1	2	1	6	4	3	0	0	0	6	0
090712	17:43:45	10014	Trial3BackFrS	NNS	18	0	1000	1	122	17:43:45	2926390	5	3	1	1	3	1	1	2	1	6	4	3	0	0	0	6	0
090712	17:43:45	10014	Trial3BackFrS	NNS	18	0	1000	1	122	17:43:45	2927909	5	3	1	1	3	1	1	2	1	6	4	3	0	0	0	6	0
090712	17:43:45	10014	Trial3BackFrS	NNS	18	0	1000	1	122	17:43:45	2929429	5	3	1	1	3	1	1	2	1	6	4	3	0	0	0	6	0
090712	17:43:45	10014	Trial3BackFrS	YYS	18	57	594	1	122	17:43:45	2930548	5	3	1	1	3	1	1	2	1	6	4	3	0	0	0	6	0
090712	17:43:45	10014	Trial3BackFrS	NNS	18	0	1000	1	122	17:43:45	2932454	5	3	1	1	3	1	1	2	1	6	4	3	0	0	0	6	0
090712	17:43:45	10014	Trial3BackFrS	NNS	18	0	1000	1	122	17:43:45	2933974	5	3	1	1	3	1	1	2	1	6	4	3	0	0	0	6	0
090712	17:43:45	10014	Trial3BackFrS	NNS	18	0	1000	1	122	17:43:45	2935493	5	3	1	1	3	1	1	2	1	6	4	3	0	0	0	6	0
090712	17:43:45	10014	Trial3BackFrS	YYS	18	0	1000	0	122	17:43:45	2937012	5	3	1	1	3	1	1	2	1	6	4	3	0	0	0	6	0
090712	17:43:45	10014	Trial3BackFrS	NNS	18	0	1000	1	122	17:43:45	2938532	5	3	1	1	3	1	1	2	1	6	4	3	0	0	0	6	0
090712	17:43:45	10014	Trial3BackFrS	NNS	18	0	1000	1	122	17:43:45	2940131	5	3	1	1	3	1	1	2	1	6	4	3	0	0	0	6	0
090712	17:43:45	10014	Trial3BackFrS	NNS	18	0	1000	1	122	17:43:45	2941650	5	3	1	1	3	1	1	2	1	6	4	3	0	0	0	6	0
090712	17:43:45	10014	Trial3BackFrS	NNS	18	57	404	0	122	17:43:45	2942583	5	3	1	1	3	1	1	2	1	6	4	3	0	0	0	6	0
090712	17:43:45	10014	Trial3BackFrS	NNS	18	0	1000	1	122	17:43:45	2944676	5	3	1	1	3	1	1	2	1	6	4	3	0	0	0	6	0
090712	17:43:45	10014	Trial3BackFrS	YYS	18	0	1000	0	122	17:43:45	2946195	5	3	1	1	3	1	1	2	1	6	4	3	0	0	0	6	0
090712	17:43:45	10014	Trial3BackFrS	NNS	18	0	1000	1	122	17:43:45	2947714	5	3	1	1	3	1	1	2	1	6	4	3	0	0	0	6	0
090712	17:43:45	10014	Trial3BackFrS	NNS	18	57	628	0	122	17:43:45	2948874	5	3	1	1	3	1	1	2	1	6	4	3	0	0	0	6	0
090712	17:43:45	10014	Trial3BackFrS	NNS	18	0	1000	1	122	17:43:45	2950740	5	3	1	1	3	1	1	2	1	6	4	3	0	0	0	6	0
090712	17:43:45	10014	Trial3BackFrS	YYS	18	0	1000	0	122	17:43:45	2952273	5	3	1	1	3	1	1	2	1	6	4	3	0	0	0	6	0
090712	17:43:45	10014	ClockFr3mo	ClockFr3mo	19	Clock2	56842	0	122	17:43:45	3009223	5	3	1	1	3	1	1	2	1	6	4	3	0	0	0	6	0
090712	17:43:45	10014	ClockFr3mo	ClockFr3mo	19	Clock11	888	0	122	17:43:45	3010155	5	3	1	1	3	1	1	2	1	6	4	3	0	1	0	6	0
090712	17:43:45	10014	ClockFr3mo	ClockFr3mo	19	Clock111	323	0	122	17:43:45	3010516	5	3	1	1	3	1	1	2	1	6	4	3	0	1	1	6	0
090712	17:43:45	10014	ClockFr3mo	ClockFr3mo	19	Clockdone	675	0	122	17:43:45	3011235	5	3	1	1	3	1	1	2	1	6	4	3	0	1	1	6	0
090712	17:43:45	10014	FASFrVF3mo	StopFrVF3mo	20	6	24635	0	122	17:43:45	3134401	5	3	1	1	3	1	1	2	1	6	4	3	0	1	1	6	0
