date	time	subject	blockcode	trialcode	values.TaskNumber	response	latency	correct	values.Score	script.starttime	script.elapsedtime	values.ScoreS7	values.Word1	values.Word2	values.Word3	values.Word4	values.Word5	values.Word6	values.Word7	values.Word8	values.DigitSpanFwrd	values.DigitSpanBack	values.ScoreAbs	values.Contour	values.Numbers	values.Hands	values.corsiblockspanFwrd	values.corsiblockspanRev
062912	14:53:14	785496	Language	Language	0	French	9743	0	0	14:53:14	10134	0	0	0	0	0	0	0	0	0	0	0	0	0	0	0	0	0
062912	14:53:14	785496	Session	Session	0	Baseline	1777	0	0	14:53:14	12000	0	0	0	0	0	0	0	0	0	0	0	0	0	0	0	0	0
062912	14:53:14	785496	HandFr	HandFr	0	RightFr	1357	0	0	14:53:14	13439	0	0	0	0	0	0	0	0	0	0	0	0	0	0	0	0	0
062912	14:53:14	785496	AudioCheckFr	WordsFr	0	0	0	0	0	14:53:14	20403	0	0	0	0	0	0	0	0	0	0	0	0	0	0	0	0	0
062912	14:53:14	785496	CubeFr	CubeFr	1	1Cube	875	0	0	14:53:14	21849	0	0	0	0	0	0	0	0	0	0	0	0	0	0	0	0	0
062912	14:53:14	785496	pm.simpleFrRight	blank.simpleFr	2	0	2187	1	0	14:53:14	46080	0	0	0	0	0	0	0	0	0	0	0	0	0	0	0	0	0
062912	14:53:14	785496	pm.simpleFrRight	pm.simpleFr	2	57	314	0	0	14:53:14	46426	0	0	0	0	0	0	0	0	0	0	0	0	0	0	0	0	0
062912	14:53:14	785496	pm.simpleFrRight	blank.simpleFr	2	0	2287	1	0	14:53:14	48745	0	0	0	0	0	0	0	0	0	0	0	0	0	0	0	0	0
062912	14:53:14	785496	pm.simpleFrRight	pm.simpleFr	2	57	225	0	0	14:53:14	49012	0	0	0	0	0	0	0	0	0	0	0	0	0	0	0	0	0
062912	14:53:14	785496	pm.simpleFrRight	blank.simpleFr	2	0	1687	1	0	14:53:14	50731	0	0	0	0	0	0	0	0	0	0	0	0	0	0	0	0	0
062912	14:53:14	785496	pm.simpleFrRight	pm.simpleFr	2	57	528	0	0	14:53:14	51291	0	0	0	0	0	0	0	0	0	0	0	0	0	0	0	0	0
062912	14:53:14	785496	pm.simpleFrRight	blank.simpleFr	2	0	1587	1	0	14:53:14	52903	0	0	0	0	0	0	0	0	0	0	0	0	0	0	0	0	0
062912	14:53:14	785496	pm.simpleFrRight	pm.simpleFr	2	57	258	0	0	14:53:14	53197	0	0	0	0	0	0	0	0	0	0	0	0	0	0	0	0	0
062912	14:53:14	785496	pm.simpleFrRight	blank.simpleFr	2	0	1787	1	0	14:53:14	55009	0	0	0	0	0	0	0	0	0	0	0	0	0	0	0	0	0
062912	14:53:14	785496	pm.simpleFrRight	pm.simpleFr	2	57	631	0	0	14:53:14	55675	0	0	0	0	0	0	0	0	0	0	0	0	0	0	0	0	0
062912	14:53:14	785496	pm.simpleFrRight	blank.simpleFr	2	0	2487	1	0	14:53:14	58194	0	0	0	0	0	0	0	0	0	0	0	0	0	0	0	0	0
062912	14:53:14	785496	pm.simpleFrRight	pm.simpleFr	2	57	230	0	0	14:53:14	58461	0	0	0	0	0	0	0	0	0	0	0	0	0	0	0	0	0
062912	14:53:14	785496	pm.simpleFrRight	blank.simpleFr	2	0	1987	1	0	14:53:14	60474	0	0	0	0	0	0	0	0	0	0	0	0	0	0	0	0	0
062912	14:53:14	785496	pm.simpleFrRight	pm.simpleFr	2	57	1982	0	0	14:53:14	62499	0	0	0	0	0	0	0	0	0	0	0	0	0	0	0	0	0
062912	14:53:14	785496	pm.simpleFrRight	blank.simpleFr	2	0	2087	1	0	14:53:14	64619	0	0	0	0	0	0	0	0	0	0	0	0	0	0	0	0	0
062912	14:53:14	785496	pm.simpleFrRight	pm.simpleFr	2	57	2014	0	0	14:53:14	66671	0	0	0	0	0	0	0	0	0	0	0	0	0	0	0	0	0
062912	14:53:14	785496	pm.simpleFrRight	blank.simpleFr	2	0	1487	1	0	14:53:14	68377	0	0	0	0	0	0	0	0	0	0	0	0	0	0	0	0	0
062912	14:53:14	785496	pm.simpleFrRight	pm.simpleFr	2	57	3216	0	0	14:53:14	71629	0	0	0	0	0	0	0	0	0	0	0	0	0	0	0	0	0
062912	14:53:14	785496	pm.simpleFrRight	blank.simpleFr	2	0	1887	1	0	14:53:14	73548	0	0	0	0	0	0	0	0	0	0	0	0	0	0	0	0	0
062912	14:53:14	785496	pm.simpleFrRight	pm.simpleFr	2	57	407	0	0	14:53:14	73988	0	0	0	0	0	0	0	0	0	0	0	0	0	0	0	0	0
062912	14:53:14	785496	pm.simpleFrRight	blank.simpleFr	2	0	2387	1	0	14:53:14	76400	0	0	0	0	0	0	0	0	0	0	0	0	0	0	0	0	0
062912	14:53:14	785496	pm.simpleFrRight	pm.simpleFr	2	57	281	0	0	14:53:14	76720	0	0	0	0	0	0	0	0	0	0	0	0	0	0	0	0	0
062912	14:53:14	785496	pm.simpleFrRight	blank.simpleFr	2	0	1887	1	0	14:53:14	78639	0	0	0	0	0	0	0	0	0	0	0	0	0	0	0	0	0
062912	14:53:14	785496	pm.simpleFrRight	pm.simpleFr	2	57	429	0	0	14:53:14	79108	0	0	0	0	0	0	0	0	0	0	0	0	0	0	0	0	0
062912	14:53:14	785496	pm.simpleFrRight	blank.simpleFr	2	0	1587	1	0	14:53:14	80732	0	0	0	0	0	0	0	0	0	0	0	0	0	0	0	0	0
062912	14:53:14	785496	pm.simpleFrRight	pm.simpleFr	2	57	252	0	0	14:53:14	81025	0	0	0	0	0	0	0	0	0	0	0	0	0	0	0	0	0
062912	14:53:14	785496	pm.simpleFrRight	blank.simpleFr	2	0	2287	1	0	14:53:14	83344	0	0	0	0	0	0	0	0	0	0	0	0	0	0	0	0	0
062912	14:53:14	785496	pm.simpleFrRight	pm.simpleFr	2	57	295	0	0	14:53:14	83678	0	0	0	0	0	0	0	0	0	0	0	0	0	0	0	0	0
062912	14:53:14	785496	pm.simpleFrRight	blank.simpleFr	2	0	1787	1	0	14:53:14	85490	0	0	0	0	0	0	0	0	0	0	0	0	0	0	0	0	0
062912	14:53:14	785496	pm.simpleFrRight	pm.simpleFr	2	57	487	0	0	14:53:14	86010	0	0	0	0	0	0	0	0	0	0	0	0	0	0	0	0	0
062912	14:53:14	785496	pm.simpleFrRight	blank.simpleFr	2	0	2187	1	0	14:53:14	88236	0	0	0	0	0	0	0	0	0	0	0	0	0	0	0	0	0
062912	14:53:14	785496	pm.simpleFrRight	pm.simpleFr	2	57	1292	0	0	14:53:14	89569	0	0	0	0	0	0	0	0	0	0	0	0	0	0	0	0	0
062912	14:53:14	785496	pm.simpleFrRight	blank.simpleFr	2	0	1987	1	0	14:53:14	91581	0	0	0	0	0	0	0	0	0	0	0	0	0	0	0	0	0
062912	14:53:14	785496	pm.simpleFrRight	pm.simpleFr	2	57	3893	0	0	14:53:14	95513	0	0	0	0	0	0	0	0	0	0	0	0	0	0	0	0	0
062912	14:53:14	785496	pm.simpleFrRight	blank.simpleFr	2	0	1487	1	0	14:53:14	97032	0	0	0	0	0	0	0	0	0	0	0	0	0	0	0	0	0
062912	14:53:14	785496	pm.simpleFrRight	pm.simpleFr	2	57	3759	0	0	14:53:14	100831	0	0	0	0	0	0	0	0	0	0	0	0	0	0	0	0	0
062912	14:53:14	785496	pm.simpleFrRight	blank.simpleFr	2	0	1687	1	0	14:53:14	102550	0	0	0	0	0	0	0	0	0	0	0	0	0	0	0	0	0
062912	14:53:14	785496	pm.simpleFrRight	pm.simpleFr	2	57	291	0	0	14:53:14	102883	0	0	0	0	0	0	0	0	0	0	0	0	0	0	0	0	0
062912	14:53:14	785496	pm.simpleFrRight	blank.simpleFr	2	0	2087	1	0	14:53:14	105002	0	0	0	0	0	0	0	0	0	0	0	0	0	0	0	0	0
062912	14:53:14	785496	pm.simpleFrRight	pm.simpleFr	2	57	205	0	0	14:53:14	105242	0	0	0	0	0	0	0	0	0	0	0	0	0	0	0	0	0
062912	14:53:14	785496	pm.simpleFrRight	blank.simpleFr	2	0	2387	1	0	14:53:14	107654	0	0	0	0	0	0	0	0	0	0	0	0	0	0	0	0	0
062912	14:53:14	785496	pm.simpleFrRight	pm.simpleFr	2	57	1986	0	0	14:53:14	109680	0	0	0	0	0	0	0	0	0	0	0	0	0	0	0	0	0
062912	14:53:14	785496	pm.simpleFrRight	blank.simpleFr	2	0	2487	1	0	14:53:14	112199	0	0	0	0	0	0	0	0	0	0	0	0	0	0	0	0	0
062912	14:53:14	785496	pm.simpleFrRight	pm.simpleFr	2	57	515	0	0	14:53:14	112748	0	0	0	0	0	0	0	0	0	0	0	0	0	0	0	0	0
062912	14:53:14	785496	pm.simpleFrRight	blank.simpleFr	2	0	1887	1	0	14:53:14	114678	0	0	0	0	0	0	0	0	0	0	0	0	0	0	0	0	0
062912	14:53:14	785496	pm.simpleFrRight	pm.simpleFr	2	57	161	0	0	14:53:14	114878	0	0	0	0	0	0	0	0	0	0	0	0	0	0	0	0	0
062912	14:53:14	785496	pm.simpleFrRight	blank.simpleFr	2	57	1098	0	0	14:53:14	117011	0	0	0	0	0	0	0	0	0	0	0	0	0	0	0	0	0
062912	14:53:14	785496	pm.simpleFrRight	blank.simpleFr	2	57	402	0	0	14:53:14	118450	0	0	0	0	0	0	0	0	0	0	0	0	0	0	0	0	0
062912	14:53:14	785496	pm.simpleFrRight	blank.simpleFr	2	57	54	0	0	14:53:14	119703	0	0	0	0	0	0	0	0	0	0	0	0	0	0	0	0	0
062912	14:53:14	785496	pm.simpleFrRight	blank.simpleFr	2	0	1987	1	0	14:53:14	123022	0	0	0	0	0	0	0	0	0	0	0	0	0	0	0	0	0
062912	14:53:14	785496	pm.simpleFrRight	pm.simpleFr	2	57	441	0	0	14:53:14	123501	0	0	0	0	0	0	0	0	0	0	0	0	0	0	0	0	0
062912	14:53:14	785496	pm.simpleFrRight	blank.simpleFr	2	0	2187	1	0	14:53:14	125714	0	0	0	0	0	0	0	0	0	0	0	0	0	0	0	0	0
062912	14:53:14	785496	pm.simpleFrRight	pm.simpleFr	2	57	260	0	0	14:53:14	126007	0	0	0	0	0	0	0	0	0	0	0	0	0	0	0	0	0
062912	14:53:14	785496	pm.simpleFrRight	blank.simpleFr	2	0	2487	1	0	14:53:14	128526	0	0	0	0	0	0	0	0	0	0	0	0	0	0	0	0	0
062912	14:53:14	785496	pm.simpleFrRight	pm.simpleFr	2	57	3802	0	0	14:53:14	132365	0	0	0	0	0	0	0	0	0	0	0	0	0	0	0	0	0
062912	14:53:14	785496	pm.simpleFrRight	blank.simpleFr	2	57	1385	0	0	14:53:14	134790	0	0	0	0	0	0	0	0	0	0	0	0	0	0	0	0	0
062912	14:53:14	785496	pm.simpleFrRight	blank.simpleFr	2	0	1787	1	0	14:53:14	136603	0	0	0	0	0	0	0	0	0	0	0	0	0	0	0	0	0
062912	14:53:14	785496	pm.simpleFrRight	pm.simpleFr	2	57	862	0	0	14:53:14	137522	0	0	0	0	0	0	0	0	0	0	0	0	0	0	0	0	0
062912	14:53:14	785496	pm.simpleFrRight	blank.simpleFr	2	0	2287	1	0	14:53:14	139841	0	0	0	0	0	0	0	0	0	0	0	0	0	0	0	0	0
062912	14:53:14	785496	pm.simpleFrRight	pm.simpleFr	2	57	1126	0	0	14:53:14	141001	0	0	0	0	0	0	0	0	0	0	0	0	0	0	0	0	0
062912	14:53:14	785496	pm.simpleFrRight	blank.simpleFr	2	0	1687	1	0	14:53:14	142720	0	0	0	0	0	0	0	0	0	0	0	0	0	0	0	0	0
062912	14:53:14	785496	pm.simpleFrRight	pm.simpleFr	2	57	1334	0	0	14:53:14	144107	0	0	0	0	0	0	0	0	0	0	0	0	0	0	0	0	0
062912	14:53:14	785496	pm.simpleFrRight	blank.simpleFr	2	0	1787	1	0	14:53:14	145919	0	0	0	0	0	0	0	0	0	0	0	0	0	0	0	0	0
062912	14:53:14	785496	pm.simpleFrRight	pm.simpleFr	2	57	4128	0	0	14:53:14	150091	0	0	0	0	0	0	0	0	0	0	0	0	0	0	0	0	0
062912	14:53:14	785496	pm.simpleFrRight	blank.simpleFr	2	0	2087	1	0	14:53:14	152210	0	0	0	0	0	0	0	0	0	0	0	0	0	0	0	0	0
062912	14:53:14	785496	pm.simpleFrRight	pm.simpleFr	2	57	869	0	0	14:53:14	153116	0	0	0	0	0	0	0	0	0	0	0	0	0	0	0	0	0
062912	14:53:14	785496	pm.simpleFrRight	blank.simpleFr	2	0	1587	1	0	14:53:14	154729	0	0	0	0	0	0	0	0	0	0	0	0	0	0	0	0	0
062912	14:53:14	785496	pm.simpleFrRight	pm.simpleFr	2	57	133	0	0	14:53:14	154902	0	0	0	0	0	0	0	0	0	0	0	0	0	0	0	0	0
062912	14:53:14	785496	pm.simpleFrRight	blank.simpleFr	2	0	2487	1	0	14:53:14	157421	0	0	0	0	0	0	0	0	0	0	0	0	0	0	0	0	0
062912	14:53:14	785496	pm.simpleFrRight	pm.simpleFr	2	57	249	0	0	14:53:14	157701	0	0	0	0	0	0	0	0	0	0	0	0	0	0	0	0	0
062912	14:53:14	785496	pm.simpleFrRight	blank.simpleFr	2	0	1687	1	0	14:53:14	159420	0	0	0	0	0	0	0	0	0	0	0	0	0	0	0	0	0
062912	14:53:14	785496	pm.simpleFrRight	pm.simpleFr	2	57	6437	0	0	14:53:14	165911	0	0	0	0	0	0	0	0	0	0	0	0	0	0	0	0	0
062912	14:53:14	785496	pm.simpleFrRight	blank.simpleFr	2	0	2387	1	0	14:53:14	168323	0	0	0	0	0	0	0	0	0	0	0	0	0	0	0	0	0
062912	14:53:14	785496	pm.simpleFrRight	pm.simpleFr	2	57	3819	0	0	14:53:14	172202	0	0	0	0	0	0	0	0	0	0	0	0	0	0	0	0	0
062912	14:53:14	785496	pm.simpleFrRight	blank.simpleFr	2	0	1987	1	0	14:53:14	174214	0	0	0	0	0	0	0	0	0	0	0	0	0	0	0	0	0
062912	14:53:14	785496	pm.simpleFrRight	pm.simpleFr	2	57	5568	0	0	14:53:14	179833	0	0	0	0	0	0	0	0	0	0	0	0	0	0	0	0	0
062912	14:53:14	785496	pm.simpleFrRight	blank.simpleFr	2	0	2187	1	0	14:53:14	182051	0	0	0	0	0	0	0	0	0	0	0	0	0	0	0	0	0
062912	14:53:14	785496	pm.simpleFrRight	pm.simpleFr	2	57	258	0	0	14:53:14	182344	0	0	0	0	0	0	0	0	0	0	0	0	0	0	0	0	0
062912	14:53:14	785496	pm.simpleFrRight	blank.simpleFr	2	0	1487	1	0	14:53:14	183864	0	0	0	0	0	0	0	0	0	0	0	0	0	0	0	0	0
062912	14:53:14	785496	pm.simpleFrRight	pm.simpleFr	2	57	329	0	0	14:53:14	184237	0	0	0	0	0	0	0	0	0	0	0	0	0	0	0	0	0
062912	14:53:14	785496	pm.simpleFrRight	blank.simpleFr	2	0	2287	1	0	14:53:14	186556	0	0	0	0	0	0	0	0	0	0	0	0	0	0	0	0	0
062912	14:53:14	785496	pm.simpleFrRight	pm.simpleFr	2	57	394	0	0	14:53:14	186982	0	0	0	0	0	0	0	0	0	0	0	0	0	0	0	0	0
062912	14:53:14	785496	pm.simpleFrRight	blank.simpleFr	2	0	1887	1	0	14:53:14	188928	0	0	0	0	0	0	0	0	0	0	0	0	0	0	0	0	0
062912	14:53:14	785496	pm.simpleFrRight	pm.simpleFr	2	57	3958	0	0	14:53:14	192927	0	0	0	0	0	0	0	0	0	0	0	0	0	0	0	0	0
062912	14:53:14	785496	Trial2BackFr	N	3	57	509	0	0	14:53:14	218397	0	0	0	0	0	0	0	0	0	0	0	0	0	0	0	0	0
062912	14:53:14	785496	Trial2BackFr	N	3	0	1000	1	1	14:53:14	220382	0	0	0	0	0	0	0	0	0	0	0	0	0	0	0	0	0
062912	14:53:14	785496	Trial2BackFr	N	3	0	1000	1	2	14:53:14	221902	0	0	0	0	0	0	0	0	0	0	0	0	0	0	0	0	0
062912	14:53:14	785496	Trial2BackFr	N	3	57	555	0	2	14:53:14	222981	0	0	0	0	0	0	0	0	0	0	0	0	0	0	0	0	0
062912	14:53:14	785496	Trial2BackFr	N	3	0	1000	1	3	14:53:14	224927	0	0	0	0	0	0	0	0	0	0	0	0	0	0	0	0	0
062912	14:53:14	785496	Trial2BackFr	N	3	57	404	0	3	14:53:14	225860	0	0	0	0	0	0	0	0	0	0	0	0	0	0	0	0	0
062912	14:53:14	785496	Trial2BackFr	N	3	0	1000	1	4	14:53:14	227953	0	0	0	0	0	0	0	0	0	0	0	0	0	0	0	0	0
062912	14:53:14	785496	Trial2BackFr	N	3	0	1000	1	5	14:53:14	229472	0	0	0	0	0	0	0	0	0	0	0	0	0	0	0	0	0
062912	14:53:14	785496	Trial2BackFr	Y	3	0	1000	0	5	14:53:14	230992	0	0	0	0	0	0	0	0	0	0	0	0	0	0	0	0	0
062912	14:53:14	785496	Trial2BackFr	N	3	0	1000	1	6	14:53:14	232511	0	0	0	0	0	0	0	0	0	0	0	0	0	0	0	0	0
062912	14:53:14	785496	Trial2BackFr	N	3	0	1000	1	7	14:53:14	234030	0	0	0	0	0	0	0	0	0	0	0	0	0	0	0	0	0
062912	14:53:14	785496	Trial2BackFr	N	3	0	1000	1	8	14:53:14	235550	0	0	0	0	0	0	0	0	0	0	0	0	0	0	0	0	0
062912	14:53:14	785496	Trial2BackFr	Y	3	0	1000	0	8	14:53:14	237069	0	0	0	0	0	0	0	0	0	0	0	0	0	0	0	0	0
062912	14:53:14	785496	Trial2BackFr	N	3	0	1000	1	9	14:53:14	238589	0	0	0	0	0	0	0	0	0	0	0	0	0	0	0	0	0
062912	14:53:14	785496	Trial2BackFr	N	3	0	1000	1	10	14:53:14	240108	0	0	0	0	0	0	0	0	0	0	0	0	0	0	0	0	0
062912	14:53:14	785496	Trial2BackFr	N	3	0	1000	1	11	14:53:14	241627	0	0	0	0	0	0	0	0	0	0	0	0	0	0	0	0	0
062912	14:53:14	785496	Trial2BackFr	N	3	0	1000	1	12	14:53:14	243147	0	0	0	0	0	0	0	0	0	0	0	0	0	0	0	0	0
062912	14:53:14	785496	Trial2BackFr	N	3	0	1000	1	13	14:53:14	244666	0	0	0	0	0	0	0	0	0	0	0	0	0	0	0	0	0
062912	14:53:14	785496	Trial2BackFr	Y	3	0	1000	0	13	14:53:14	246185	0	0	0	0	0	0	0	0	0	0	0	0	0	0	0	0	0
062912	14:53:14	785496	Trial2BackFr	N	3	57	399	0	13	14:53:14	247118	0	0	0	0	0	0	0	0	0	0	0	0	0	0	0	0	0
062912	14:53:14	785496	Trial2BackFr	N	3	0	1000	1	14	14:53:14	249211	0	0	0	0	0	0	0	0	0	0	0	0	0	0	0	0	0
062912	14:53:14	785496	Trial2BackFr	N	3	0	1000	1	15	14:53:14	250730	0	0	0	0	0	0	0	0	0	0	0	0	0	0	0	0	0
062912	14:53:14	785496	Trial2BackFr	N	3	0	1000	1	16	14:53:14	252250	0	0	0	0	0	0	0	0	0	0	0	0	0	0	0	0	0
062912	14:53:14	785496	Trial2BackFr	Y	3	0	1000	0	16	14:53:14	253769	0	0	0	0	0	0	0	0	0	0	0	0	0	0	0	0	0
062912	14:53:14	785496	Trial2BackFr	N	3	0	1000	1	17	14:53:14	255302	0	0	0	0	0	0	0	0	0	0	0	0	0	0	0	0	0
062912	14:53:14	785496	Trial2BackFr	N	3	0	1000	1	18	14:53:14	256821	0	0	0	0	0	0	0	0	0	0	0	0	0	0	0	0	0
062912	14:53:14	785496	Trial2BackFr	N	3	57	690	0	18	14:53:14	258047	0	0	0	0	0	0	0	0	0	0	0	0	0	0	0	0	0
062912	14:53:14	785496	Trial2BackFr	N	3	0	1000	1	19	14:53:14	259847	0	0	0	0	0	0	0	0	0	0	0	0	0	0	0	0	0
062912	14:53:14	785496	Trial2BackFr	N	3	0	1000	1	20	14:53:14	261366	0	0	0	0	0	0	0	0	0	0	0	0	0	0	0	0	0
062912	14:53:14	785496	Trial2BackFr	N	3	0	1000	1	21	14:53:14	262885	0	0	0	0	0	0	0	0	0	0	0	0	0	0	0	0	0
062912	14:53:14	785496	Trial2BackFr	Y	3	0	1000	0	21	14:53:14	264405	0	0	0	0	0	0	0	0	0	0	0	0	0	0	0	0	0
062912	14:53:14	785496	Trial2BackFr	N	3	0	1000	1	22	14:53:14	265924	0	0	0	0	0	0	0	0	0	0	0	0	0	0	0	0	0
062912	14:53:14	785496	Trial2BackFr	N	3	0	1000	1	23	14:53:14	267443	0	0	0	0	0	0	0	0	0	0	0	0	0	0	0	0	0
062912	14:53:14	785496	Trial2BackFr	N	3	0	1000	1	24	14:53:14	268963	0	0	0	0	0	0	0	0	0	0	0	0	0	0	0	0	0
062912	14:53:14	785496	Trial2BackFr	Y	3	0	1000	0	24	14:53:14	270482	0	0	0	0	0	0	0	0	0	0	0	0	0	0	0	0	0
062912	14:53:14	785496	Trial2BackFr	N	3	0	1000	1	25	14:53:14	272002	0	0	0	0	0	0	0	0	0	0	0	0	0	0	0	0	0
062912	14:53:14	785496	Trial2BackFr	N	3	0	1000	1	26	14:53:14	273521	0	0	0	0	0	0	0	0	0	0	0	0	0	0	0	0	0
062912	14:53:14	785496	Trial2BackFr	N	3	0	1000	1	27	14:53:14	275040	0	0	0	0	0	0	0	0	0	0	0	0	0	0	0	0	0
062912	14:53:14	785496	Trial2BackFr	N	3	0	1000	1	28	14:53:14	276560	0	0	0	0	0	0	0	0	0	0	0	0	0	0	0	0	0
062912	14:53:14	785496	Trial2BackFr	N	3	57	247	0	28	14:53:14	277333	0	0	0	0	0	0	0	0	0	0	0	0	0	0	0	0	0
062912	14:53:14	785496	Trial2BackFr	N	3	0	1000	1	29	14:53:14	279585	0	0	0	0	0	0	0	0	0	0	0	0	0	0	0	0	0
062912	14:53:14	785496	Trial2BackFr	Y	3	0	1000	0	29	14:53:14	281105	0	0	0	0	0	0	0	0	0	0	0	0	0	0	0	0	0
062912	14:53:14	785496	Trial2BackFr	N	3	0	1000	1	30	14:53:14	282624	0	0	0	0	0	0	0	0	0	0	0	0	0	0	0	0	0
062912	14:53:14	785496	Trial2BackFr	N	3	0	1000	1	31	14:53:14	284143	0	0	0	0	0	0	0	0	0	0	0	0	0	0	0	0	0
062912	14:53:14	785496	Trial2BackFr	N	3	57	600	0	31	14:53:14	285276	0	0	0	0	0	0	0	0	0	0	0	0	0	0	0	0	0
062912	14:53:14	785496	Trial2BackFr	N	3	0	1000	1	32	14:53:14	287169	0	0	0	0	0	0	0	0	0	0	0	0	0	0	0	0	0
062912	14:53:14	785496	Trial2BackFr	Y	3	0	1000	0	32	14:53:14	288688	0	0	0	0	0	0	0	0	0	0	0	0	0	0	0	0	0
062912	14:53:14	785496	Trial2BackFr	N	3	57	309	0	32	14:53:14	289528	0	0	0	0	0	0	0	0	0	0	0	0	0	0	0	0	0
062912	14:53:14	785496	Trial2BackFr	N	3	0	1000	1	33	14:53:14	291713	0	0	0	0	0	0	0	0	0	0	0	0	0	0	0	0	0
062912	14:53:14	785496	Trial2BackFr	N	3	57	567	0	33	14:53:14	292807	0	0	0	0	0	0	0	0	0	0	0	0	0	0	0	0	0
062912	14:53:14	785496	Trial2BackFr	N	3	0	1000	1	34	14:53:14	294739	0	0	0	0	0	0	0	0	0	0	0	0	0	0	0	0	0
062912	14:53:14	785496	Trial2BackFr	N	3	0	1000	1	35	14:53:14	296258	0	0	0	0	0	0	0	0	0	0	0	0	0	0	0	0	0
062912	14:53:14	785496	Trial2BackFr	Y	3	0	1000	0	35	14:53:14	297778	0	0	0	0	0	0	0	0	0	0	0	0	0	0	0	0	0
062912	14:53:14	785496	Trial2BackFr	N	3	0	1000	1	36	14:53:14	299297	0	0	0	0	0	0	0	0	0	0	0	0	0	0	0	0	0
062912	14:53:14	785496	Trial2BackFr	N	3	0	1000	1	37	14:53:14	300816	0	0	0	0	0	0	0	0	0	0	0	0	0	0	0	0	0
062912	14:53:14	785496	Trial2BackFr	N	3	57	264	0	37	14:53:14	301603	0	0	0	0	0	0	0	0	0	0	0	0	0	0	0	0	0
062912	14:53:14	785496	Trial2BackFr	N	3	0	1000	1	38	14:53:14	303842	0	0	0	0	0	0	0	0	0	0	0	0	0	0	0	0	0
062912	14:53:14	785496	Trial2BackFr	N	3	0	1000	1	39	14:53:14	305361	0	0	0	0	0	0	0	0	0	0	0	0	0	0	0	0	0
062912	14:53:14	785496	Trial2BackFr	N	3	0	1000	1	40	14:53:14	306881	0	0	0	0	0	0	0	0	0	0	0	0	0	0	0	0	0
062912	14:53:14	785496	Trial2BackFr	Y	3	0	1000	0	40	14:53:14	308400	0	0	0	0	0	0	0	0	0	0	0	0	0	0	0	0	0
062912	14:53:14	785496	Trial2BackFr	N	3	0	1000	1	41	14:53:14	309920	0	0	0	0	0	0	0	0	0	0	0	0	0	0	0	0	0
062912	14:53:14	785496	Trial2BackFr	N	3	0	1000	1	42	14:53:14	311439	0	0	0	0	0	0	0	0	0	0	0	0	0	0	0	0	0
062912	14:53:14	785496	Trial2BackFr	Y	3	0	1000	0	42	14:53:14	312958	0	0	0	0	0	0	0	0	0	0	0	0	0	0	0	0	0
062912	14:53:14	785496	Trial2BackFr	N	3	0	1000	1	43	14:53:14	314491	0	0	0	0	0	0	0	0	0	0	0	0	0	0	0	0	0
062912	14:53:14	785496	Trial2BackFr	N	3	0	1000	1	44	14:53:14	316010	0	0	0	0	0	0	0	0	0	0	0	0	0	0	0	0	0
062912	14:53:14	785496	Trial2BackFr	N	3	0	1000	1	45	14:53:14	317530	0	0	0	0	0	0	0	0	0	0	0	0	0	0	0	0	0
062912	14:53:14	785496	Trial2BackFr	N	3	0	1000	1	46	14:53:14	319049	0	0	0	0	0	0	0	0	0	0	0	0	0	0	0	0	0
062912	14:53:14	785496	Trial2BackFr	N	3	0	1000	1	47	14:53:14	320569	0	0	0	0	0	0	0	0	0	0	0	0	0	0	0	0	0
062912	14:53:14	785496	Trial2BackFr	N	3	0	1000	1	48	14:53:14	322088	0	0	0	0	0	0	0	0	0	0	0	0	0	0	0	0	0
062912	14:53:14	785496	Trial2BackFr	N	3	0	1000	1	49	14:53:14	323607	0	0	0	0	0	0	0	0	0	0	0	0	0	0	0	0	0
062912	14:53:14	785496	Trial2BackFr	N	3	0	1000	1	50	14:53:14	325127	0	0	0	0	0	0	0	0	0	0	0	0	0	0	0	0	0
062912	14:53:14	785496	Trial2BackFr	N	3	57	433	0	50	14:53:14	326086	0	0	0	0	0	0	0	0	0	0	0	0	0	0	0	0	0
062912	14:53:14	785496	Trial2BackFr	N	3	0	1000	1	51	14:53:14	328152	0	0	0	0	0	0	0	0	0	0	0	0	0	0	0	0	0
062912	14:53:14	785496	Trial2BackFr	Y	3	0	1000	0	51	14:53:14	329672	0	0	0	0	0	0	0	0	0	0	0	0	0	0	0	0	0
062912	14:53:14	785496	Trial2BackFr	N	3	0	1000	1	52	14:53:14	331191	0	0	0	0	0	0	0	0	0	0	0	0	0	0	0	0	0
062912	14:53:14	785496	Trial2BackFr	N	3	0	1000	1	53	14:53:14	332710	0	0	0	0	0	0	0	0	0	0	0	0	0	0	0	0	0
062912	14:53:14	785496	Trial2BackFr	N	3	0	1000	1	54	14:53:14	334230	0	0	0	0	0	0	0	0	0	0	0	0	0	0	0	0	0
062912	14:53:14	785496	Trial2BackFr	Y	3	0	1000	0	54	14:53:14	335749	0	0	0	0	0	0	0	0	0	0	0	0	0	0	0	0	0
062912	14:53:14	785496	Trial2BackFr	N	3	0	1000	1	55	14:53:14	337269	0	0	0	0	0	0	0	0	0	0	0	0	0	0	0	0	0
062912	14:53:14	785496	Trial2BackFr	N	3	57	963	0	55	14:53:14	338761	0	0	0	0	0	0	0	0	0	0	0	0	0	0	0	0	0
062912	14:53:14	785496	Trial2BackFr	N	3	0	1000	1	56	14:53:14	340294	0	0	0	0	0	0	0	0	0	0	0	0	0	0	0	0	0
062912	14:53:14	785496	Trial2BackFr	N	3	0	1000	1	57	14:53:14	341813	0	0	0	0	0	0	0	0	0	0	0	0	0	0	0	0	0
062912	14:53:14	785496	Trial2BackFr	N	3	0	1000	1	58	14:53:14	343334	0	0	0	0	0	0	0	0	0	0	0	0	0	0	0	0	0
062912	14:53:14	785496	Trial2BackFr	Y	3	0	1000	0	58	14:53:14	344852	0	0	0	0	0	0	0	0	0	0	0	0	0	0	0	0	0
062912	14:53:14	785496	Trial2BackFr	N	3	0	1000	1	59	14:53:14	346372	0	0	0	0	0	0	0	0	0	0	0	0	0	0	0	0	0
062912	14:53:14	785496	Trial2BackFr	N	3	0	1000	1	60	14:53:14	347891	0	0	0	0	0	0	0	0	0	0	0	0	0	0	0	0	0
062912	14:53:14	785496	Trial2BackFr	N	3	0	1000	1	61	14:53:14	349410	0	0	0	0	0	0	0	0	0	0	0	0	0	0	0	0	0
062912	14:53:14	785496	Trial2BackFr	N	3	57	869	0	61	14:53:14	350810	0	0	0	0	0	0	0	0	0	0	0	0	0	0	0	0	0
062912	14:53:14	785496	Trial2BackFr	N	3	0	1000	1	62	14:53:14	352436	0	0	0	0	0	0	0	0	0	0	0	0	0	0	0	0	0
062912	14:53:14	785496	Trial2BackFr	N	3	0	1000	1	63	14:53:14	353955	0	0	0	0	0	0	0	0	0	0	0	0	0	0	0	0	0
062912	14:53:14	785496	Trial2BackFr	N	3	57	277	0	63	14:53:14	354755	0	0	0	0	0	0	0	0	0	0	0	0	0	0	0	0	0
062912	14:53:14	785496	Trial2BackFr	N	3	0	1000	1	64	14:53:14	356981	0	0	0	0	0	0	0	0	0	0	0	0	0	0	0	0	0
062912	14:53:14	785496	Trial2BackFr	N	3	57	563	0	64	14:53:14	358073	0	0	0	0	0	0	0	0	0	0	0	0	0	0	0	0	0
062912	14:53:14	785496	Trial2BackFr	Y	3	0	1000	0	64	14:53:14	360006	0	0	0	0	0	0	0	0	0	0	0	0	0	0	0	0	0
062912	14:53:14	785496	Trial2BackFr	N	3	0	1000	1	65	14:53:14	361525	0	0	0	0	0	0	0	0	0	0	0	0	0	0	0	0	0
062912	14:53:14	785496	Trial2BackFr	N	3	0	1000	1	66	14:53:14	363045	0	0	0	0	0	0	0	0	0	0	0	0	0	0	0	0	0
062912	14:53:14	785496	Trial2BackFr	N	3	0	1000	1	67	14:53:14	364564	0	0	0	0	0	0	0	0	0	0	0	0	0	0	0	0	0
062912	14:53:14	785496	Trial2BackFr	N	3	57	467	0	67	14:53:14	365564	0	0	0	0	0	0	0	0	0	0	0	0	0	0	0	0	0
062912	14:53:14	785496	Trial2BackFr	N	3	0	1000	1	68	14:53:14	367590	0	0	0	0	0	0	0	0	0	0	0	0	0	0	0	0	0
062912	14:53:14	785496	Trial2BackFr	N	3	57	543	0	68	14:53:14	368669	0	0	0	0	0	0	0	0	0	0	0	0	0	0	0	0	0
062912	14:53:14	785496	Trial2BackFr	N	3	0	1000	1	69	14:53:14	370615	0	0	0	0	0	0	0	0	0	0	0	0	0	0	0	0	0
062912	14:53:14	785496	Trial2BackFr	N	3	0	1000	1	70	14:53:14	372134	0	0	0	0	0	0	0	0	0	0	0	0	0	0	0	0	0
062912	14:53:14	785496	Trial2BackFr	Y	3	57	414	1	71	14:53:14	373081	0	0	0	0	0	0	0	0	0	0	0	0	0	0	0	0	0
062912	14:53:14	785496	Trial2BackFr	N	3	0	1000	1	72	14:53:14	375173	0	0	0	0	0	0	0	0	0	0	0	0	0	0	0	0	0
062912	14:53:14	785496	Trial2BackFr	N	3	0	1000	1	73	14:53:14	376693	0	0	0	0	0	0	0	0	0	0	0	0	0	0	0	0	0
062912	14:53:14	785496	Trial2BackFr	N	3	0	1000	1	74	14:53:14	378212	0	0	0	0	0	0	0	0	0	0	0	0	0	0	0	0	0
062912	14:53:14	785496	Trial2BackFr	N	3	0	1000	1	75	14:53:14	379731	0	0	0	0	0	0	0	0	0	0	0	0	0	0	0	0	0
062912	14:53:14	785496	Trial2BackFr	Y	3	0	1000	0	75	14:53:14	381251	0	0	0	0	0	0	0	0	0	0	0	0	0	0	0	0	0
062912	14:53:14	785496	Trial2BackFr	N	3	0	1000	1	76	14:53:14	382770	0	0	0	0	0	0	0	0	0	0	0	0	0	0	0	0	0
062912	14:53:14	785496	Trial2BackFr	N	3	0	1000	1	77	14:53:14	384289	0	0	0	0	0	0	0	0	0	0	0	0	0	0	0	0	0
062912	14:53:14	785496	Trial2BackFr	N	3	0	1000	1	78	14:53:14	385809	0	0	0	0	0	0	0	0	0	0	0	0	0	0	0	0	0
062912	14:53:14	785496	Trial2BackFr	Y	3	57	611	1	79	14:53:14	386955	0	0	0	0	0	0	0	0	0	0	0	0	0	0	0	0	0
062912	14:53:14	785496	Trial2BackFr	N	3	0	1000	1	80	14:53:14	388834	0	0	0	0	0	0	0	0	0	0	0	0	0	0	0	0	0
062912	14:53:14	785496	Trial2BackFr	N	3	0	1000	1	81	14:53:14	390354	0	0	0	0	0	0	0	0	0	0	0	0	0	0	0	0	0
062912	14:53:14	785496	Trial2BackFr	N	3	0	1000	1	82	14:53:14	391873	0	0	0	0	0	0	0	0	0	0	0	0	0	0	0	0	0
062912	14:53:14	785496	Trial2BackFr	N	3	0	1000	1	83	14:53:14	393392	0	0	0	0	0	0	0	0	0	0	0	0	0	0	0	0	0
062912	14:53:14	785496	Trial2BackFr	N	3	0	1000	1	84	14:53:14	394912	0	0	0	0	0	0	0	0	0	0	0	0	0	0	0	0	0
062912	14:53:14	785496	Trial2BackFr	Y	3	0	1000	0	84	14:53:14	396431	0	0	0	0	0	0	0	0	0	0	0	0	0	0	0	0	0
062912	14:53:14	785496	Trial2BackFr	N	3	0	1000	1	85	14:53:14	397951	0	0	0	0	0	0	0	0	0	0	0	0	0	0	0	0	0
062912	14:53:14	785496	Trial2BackFr	N	3	0	1000	1	86	14:53:14	399484	0	0	0	0	0	0	0	0	0	0	0	0	0	0	0	0	0
062912	14:53:14	785496	Trial2BackFr	N	3	57	539	0	86	14:53:14	400549	0	0	0	0	0	0	0	0	0	0	0	0	0	0	0	0	0
062912	14:53:14	785496	Trial2BackFr	Y	3	0	1000	0	86	14:53:14	402509	0	0	0	0	0	0	0	0	0	0	0	0	0	0	0	0	0
062912	14:53:14	785496	Memory1RBaselineFr	ScoreFr	5	M8	4377	0	86	14:53:14	465097	0	0	0	0	0	0	0	0	0	0	0	0	0	0	0	0	0
062912	14:53:14	785496	Memory1RBaselineFr	ScoreFr	5	Done	248	0	86	14:53:14	465390	0	0	0	0	0	0	0	0	0	0	0	0	0	0	0	0	0
062912	14:53:14	785496	Memory2RBaselineFr	ScoreFr2	5	33	2702	0	86	14:53:14	488541	0	0	0	0	0	0	0	0	0	0	0	0	0	0	0	0	0
062912	14:53:14	785496	Memory2RBaselineFr	ScoreFr2	5	22	366	0	86	14:53:14	488954	0	0	0	0	0	0	0	0	0	0	0	0	0	0	0	0	0
062912	14:53:14	785496	Memory2RBaselineFr	ScoreFr2	5	11	292	0	86	14:53:14	489327	0	0	0	0	0	0	0	0	0	0	0	0	0	0	0	0	0
062912	14:53:14	785496	Memory2RBaselineFr	ScoreFr2	5	66	553	0	86	14:53:14	489930	0	0	0	0	0	0	0	0	0	0	0	0	0	0	0	0	0
062912	14:53:14	785496	Memory2RBaselineFr	ScoreFr2	5	77	456	0	86	14:53:14	490436	0	0	0	0	0	0	0	0	0	0	0	0	0	0	0	0	0
062912	14:53:14	785496	Memory2RBaselineFr	ScoreFr2	5	Done	4020	0	86	14:53:14	494512	0	0	0	0	0	0	0	0	0	0	0	0	0	0	0	0	0
062912	14:53:14	785496	Memory3RBaselineFr	ScoreFr3	5	444	9462	0	86	14:53:14	521994	0	0	0	0	0	0	0	0	0	0	0	0	0	0	0	0	0
062912	14:53:14	785496	Memory3RBaselineFr	ScoreFr3	5	555	271	0	86	14:53:14	522301	0	0	0	0	0	0	0	0	0	0	0	0	0	0	0	0	0
062912	14:53:14	785496	Memory3RBaselineFr	ScoreFr3	5	777	237	0	86	14:53:14	522580	0	0	0	0	0	0	0	0	0	0	0	0	0	0	0	0	0
062912	14:53:14	785496	Memory3RBaselineFr	ScoreFr3	5	888	309	0	86	14:53:14	522927	0	0	0	0	0	0	0	0	0	0	0	0	0	0	0	0	0
062912	14:53:14	785496	Memory3RBaselineFr	ScoreFr3	5	666	280	0	86	14:53:14	523247	0	0	0	0	0	0	0	0	0	0	0	0	0	0	0	0	0
062912	14:53:14	785496	Memory3RBaselineFr	ScoreFr3	5	333	328	0	86	14:53:14	523620	0	0	0	0	0	0	0	0	0	0	0	0	0	0	0	0	0
062912	14:53:14	785496	Memory3RBaselineFr	ScoreFr3	5	222	326	0	86	14:53:14	523980	0	0	0	0	0	0	0	0	0	0	0	0	0	0	0	0	0
062912	14:53:14	785496	Memory3RBaselineFr	ScoreFr3	5	Done	566	0	86	14:53:14	524593	0	0	0	0	0	0	0	0	0	0	0	0	0	0	0	0	0
062912	14:53:14	785496	LoriaFrLH3	Stop	6	5	2646	0	86	14:53:14	574655	0	0	0	0	0	0	0	0	0	0	0	0	0	0	0	0	0
062912	14:53:14	785496	FrTrail	Trails	7	1Trails	1278	0	86	14:53:14	578864	0	0	0	0	0	0	0	0	0	0	0	0	0	0	0	0	0
062912	14:53:14	785496	Serial7FrBaseline	Serial7FrBaseline	8	83	8020	0	86	14:53:14	588888	1	0	0	0	0	0	0	0	0	0	0	0	0	0	0	0	0
062912	14:53:14	785496	Serial7FrBaseline	Serial7FrBaseline	8	76	4620	0	86	14:53:14	593540	2	0	0	0	0	0	0	0	0	0	0	0	0	0	0	0	0
062912	14:53:14	785496	Serial7FrBaseline	Serial7FrBaseline	8	69	2345	0	86	14:53:14	595912	3	0	0	0	0	0	0	0	0	0	0	0	0	0	0	0	0
062912	14:53:14	785496	Serial7FrBaseline	Serial7FrBaseline	8	62	1460	0	86	14:53:14	597405	4	0	0	0	0	0	0	0	0	0	0	0	0	0	0	0	0
062912	14:53:14	785496	Serial7FrBaseline	Serial7FrBaseline	8	55	1967	0	86	14:53:14	599405	5	0	0	0	0	0	0	0	0	0	0	0	0	0	0	0	0
062912	14:53:14	785496	corsiblockFrFwrd	recallseqFrFwrd	9	3	4159	0	86	14:53:14	611120	5	0	0	0	0	0	0	0	0	0	0	0	0	0	0	0	0
062912	14:53:14	785496	corsiblockFrFwrd	recallseqFrFwrd	9	4	535	0	86	14:53:14	611693	5	0	0	0	0	0	0	0	0	0	0	0	0	0	0	0	0
062912	14:53:14	785496	corsiblockFrFwrd	recallseqFrFwrd	9	5	228	0	86	14:53:14	611959	5	0	0	0	0	0	0	0	0	0	0	0	0	0	0	0	0
062912	14:53:14	785496	corsiblockFrFwrd	recallseqFrFwrd	9	doneCorsiFr	735	0	86	14:53:14	612732	5	0	0	0	0	0	0	0	0	0	0	0	0	0	0	0	0
062912	14:53:14	785496	corsiblockFrFwrd	recallseqFrFwrd	9	5	3729	0	86	14:53:14	621516	5	0	0	0	0	0	0	0	0	0	0	0	0	0	0	0	0
062912	14:53:14	785496	corsiblockFrFwrd	recallseqFrFwrd	9	6	596	0	86	14:53:14	622155	5	0	0	0	0	0	0	0	0	0	0	0	0	0	0	0	0
062912	14:53:14	785496	corsiblockFrFwrd	recallseqFrFwrd	9	doneCorsiFr	476	0	86	14:53:14	622678	5	0	0	0	0	0	0	0	0	0	0	0	0	0	0	0	0
062912	14:53:14	785496	corsiblockFrRev	recallseqFrRev	10	resetCorsiFr	1831	0	86	14:53:14	638602	5	0	0	0	0	0	0	0	0	0	0	0	0	0	0	0	0
062912	14:53:14	785496	corsiblockFrRev	recallseqFrRev	10	resetCorsiFr	1051	0	86	14:53:14	639695	5	0	0	0	0	0	0	0	0	0	0	0	0	0	0	0	0
062912	14:53:14	785496	corsiblockFrRev	recallseqFrRev	10	6	407	0	86	14:53:14	640149	5	0	0	0	0	0	0	0	0	0	0	0	0	0	0	0	0
062912	14:53:14	785496	corsiblockFrRev	recallseqFrRev	10	5	550	0	86	14:53:14	640748	5	0	0	0	0	0	0	0	0	0	0	0	0	0	0	0	0
062912	14:53:14	785496	corsiblockFrRev	recallseqFrRev	10	doneCorsiFr	459	0	86	14:53:14	641254	5	0	0	0	0	0	0	0	0	0	0	0	0	0	0	0	0
062912	14:53:14	785496	corsiblockFrRev	recallseqFrRev	10	8	4883	0	86	14:53:14	651211	5	0	0	0	0	0	0	0	0	0	0	0	0	0	0	0	0
062912	14:53:14	785496	corsiblockFrRev	recallseqFrRev	10	7	437	0	86	14:53:14	651690	5	0	0	0	0	0	0	0	0	0	0	0	0	0	0	0	0
062912	14:53:14	785496	corsiblockFrRev	recallseqFrRev	10	doneCorsiFr	628	0	86	14:53:14	652357	5	0	0	0	0	0	0	0	0	0	0	0	0	0	0	0	0
062912	14:53:14	785496	testFrBaseline	WordsFrBaseline	11	6FrBaseline	805	0	86	14:53:14	655022	5	0	0	0	0	0	1	0	0	0	0	0	0	0	0	0	0
062912	14:53:14	785496	testFrBaseline	WordsFrBaseline	11	4FrBaseline	184	0	86	14:53:14	655249	5	0	0	0	1	0	1	0	0	0	0	0	0	0	0	0	0
062912	14:53:14	785496	testFrBaseline	WordsFrBaseline	11	2FrBaseline	246	0	86	14:53:14	655542	5	0	1	0	1	0	1	0	0	0	0	0	0	0	0	0	0
062912	14:53:14	785496	testFrBaseline	WordsFrBaseline	11	2FrBaseline	355	0	86	14:53:14	655955	5	0	1	0	1	0	1	0	0	0	0	0	0	0	0	0	0
062912	14:53:14	785496	testFrBaseline	WordsFrBaseline	11	3FrBaseline	919	0	86	14:53:14	656928	5	0	1	1	1	0	1	0	0	0	0	0	0	0	0	0	0
062912	14:53:14	785496	testFrBaseline	WordsFrBaseline	11	2FrBaseline	318	0	86	14:53:14	657288	5	0	1	1	1	0	1	0	0	0	0	0	0	0	0	0	0
062912	14:53:14	785496	testFrBaseline	WordsFrBaseline	11	DoneFrBaseline	513	0	86	14:53:14	657851	5	0	1	1	1	0	1	0	0	0	0	0	0	0	0	0	0
062912	14:53:14	785496	testFrBaseline	Cat1FrBaseline	11	W1FrBaseline	1544	0	86	14:53:14	659460	5	0	1	1	1	0	1	0	0	0	0	0	0	0	0	0	0
062912	14:53:14	785496	testFrBaseline	Ch1FrBaseline	11	RR1FrBaseline	2044	0	86	14:53:14	661552	5	3	1	1	1	0	1	0	0	0	0	0	0	0	0	0	0
062912	14:53:14	785496	testFrBaseline	Cat5FrBaseline	11	R5FrBaseline	2334	0	86	14:53:14	663925	5	3	1	1	1	2	1	0	0	0	0	0	0	0	0	0	0
062912	14:53:14	785496	testFrBaseline	Cat7FrBaseline	11	R7FrBaseline	745	0	86	14:53:14	664711	5	3	1	1	1	2	1	2	0	0	0	0	0	0	0	0	0
062912	14:53:14	785496	testFrBaseline	Cat8FrBaseline	11	R8FrBaseline	1332	0	86	14:53:14	666084	5	3	1	1	1	2	1	2	2	0	0	0	0	0	0	0	0
062912	14:53:14	785496	DigitSpanFwrdFrBaseline	Score1FwrdFrBaseline	12	DS2	1225	0	86	14:53:14	674681	5	3	1	1	1	2	1	2	2	0	0	0	0	0	0	0	0
062912	14:53:14	785496	DigitSpanFwrdFrBaseline	Gate1FwrdFrBaseline	12	0	1	0	86	14:53:14	674697	5	3	1	1	1	2	1	2	2	0	0	0	0	0	0	0	0
062912	14:53:14	785496	DigitSpanFwrdFrBaseline	Score11FwrdFrBaseline	12	DS2	2020	0	86	14:53:14	681744	5	3	1	1	1	2	1	2	2	0	0	0	0	0	0	0	0
062912	14:53:14	785496	DigitSpanFrBaseline	Score1FrBaseline	13	DS2	35966	0	86	14:53:14	723607	5	3	1	1	1	2	1	2	2	0	0	0	0	0	0	0	0
062912	14:53:14	785496	DigitSpanFrBaseline	Gate1FrBaseline	13	0	1	0	86	14:53:14	723623	5	3	1	1	1	2	1	2	2	0	0	0	0	0	0	0	0
062912	14:53:14	785496	DigitSpanFrBaseline	Score11FrBaseline	13	DS2	880	0	86	14:53:14	727925	5	3	1	1	1	2	1	2	2	0	0	0	0	0	0	0	0
062912	14:53:14	785496	Trial	IncongruentRight	14	205	520	1	86	14:53:14	746291	5	3	1	1	1	2	1	2	2	0	0	0	0	0	0	0	0
062912	14:53:14	785496	Trial	IncongruentLeft	14	203	241	1	86	14:53:14	747011	5	3	1	1	1	2	1	2	2	0	0	0	0	0	0	0	0
062912	14:53:14	785496	Trial	CongruentRight	14	205	297	1	86	14:53:14	748064	5	3	1	1	1	2	1	2	2	0	0	0	0	0	0	0	0
062912	14:53:14	785496	Trial	IncongruentRight	14	205	404	1	86	14:53:14	749184	5	3	1	1	1	2	1	2	2	0	0	0	0	0	0	0	0
062912	14:53:14	785496	Trial	CongruentLeft	14	203	333	1	86	14:53:14	750117	5	3	1	1	1	2	1	2	2	0	0	0	0	0	0	0	0
062912	14:53:14	785496	Trial	CongruentRight	14	205	373	1	86	14:53:14	751156	5	3	1	1	1	2	1	2	2	0	0	0	0	0	0	0	0
062912	14:53:14	785496	Trial	IncongruentRight	14	205	462	1	86	14:53:14	752235	5	3	1	1	1	2	1	2	2	0	0	0	0	0	0	0	0
062912	14:53:14	785496	Trial	CongruentLeft	14	0	737	0	86	14:53:14	753502	5	3	1	1	1	2	1	2	2	0	0	0	0	0	0	0	0
062912	14:53:14	785496	Trial	IncongruentLeft	14	0	737	0	86	14:53:14	754515	5	3	1	1	1	2	1	2	2	0	0	0	0	0	0	0	0
062912	14:53:14	785496	Trial	IncongruentLeft	14	0	737	0	86	14:53:14	755528	5	3	1	1	1	2	1	2	2	0	0	0	0	0	0	0	0
062912	14:53:14	785496	Trial	CongruentRight	14	0	737	0	86	14:53:14	756541	5	3	1	1	1	2	1	2	2	0	0	0	0	0	0	0	0
062912	14:53:14	785496	Trial	IncongruentRight	14	0	737	0	86	14:53:14	757554	5	3	1	1	1	2	1	2	2	0	0	0	0	0	0	0	0
062912	14:53:14	785496	Trial	CongruentLeft	14	0	737	0	86	14:53:14	758566	5	3	1	1	1	2	1	2	2	0	0	0	0	0	0	0	0
062912	14:53:14	785496	Trial	CongruentRight	14	0	737	0	86	14:53:14	759579	5	3	1	1	1	2	1	2	2	0	0	0	0	0	0	0	0
062912	14:53:14	785496	Trial	IncongruentLeft	14	0	737	0	86	14:53:14	760592	5	3	1	1	1	2	1	2	2	0	0	0	0	0	0	0	0
062912	14:53:14	785496	Trial	IncongruentRight	14	0	737	0	86	14:53:14	761605	5	3	1	1	1	2	1	2	2	0	0	0	0	0	0	0	0
062912	14:53:14	785496	Trial	CongruentRight	14	0	737	0	86	14:53:14	762618	5	3	1	1	1	2	1	2	2	0	0	0	0	0	0	0	0
062912	14:53:14	785496	Trial	CongruentLeft	14	203	418	1	86	14:53:14	763311	5	3	1	1	1	2	1	2	2	0	0	0	0	0	0	0	0
062912	14:53:14	785496	Trial	CongruentRight	14	205	265	1	86	14:53:14	764164	5	3	1	1	1	2	1	2	2	0	0	0	0	0	0	0	0
062912	14:53:14	785496	Trial	IncongruentRight	14	205	405	1	86	14:53:14	765310	5	3	1	1	1	2	1	2	2	0	0	0	0	0	0	0	0
062912	14:53:14	785496	Trial	IncongruentLeft	14	203	411	1	86	14:53:14	766323	5	3	1	1	1	2	1	2	2	0	0	0	0	0	0	0	0
062912	14:53:14	785496	Trial	IncongruentLeft	14	203	468	1	86	14:53:14	767376	5	3	1	1	1	2	1	2	2	0	0	0	0	0	0	0	0
062912	14:53:14	785496	Trial	CongruentLeft	14	205	380	0	86	14:53:14	768282	5	3	1	1	1	2	1	2	2	0	0	0	0	0	0	0	0
062912	14:53:14	785496	Trial	CongruentRight	14	205	422	1	86	14:53:14	769322	5	3	1	1	1	2	1	2	2	0	0	0	0	0	0	0	0
062912	14:53:14	785496	Trial	IncongruentLeft	14	203	381	1	86	14:53:14	770282	5	3	1	1	1	2	1	2	2	0	0	0	0	0	0	0	0
062912	14:53:14	785496	Trial	IncongruentRight	14	205	343	1	86	14:53:14	771241	5	3	1	1	1	2	1	2	2	0	0	0	0	0	0	0	0
062912	14:53:14	785496	Trial	CongruentRight	14	205	480	1	86	14:53:14	772388	5	3	1	1	1	2	1	2	2	0	0	0	0	0	0	0	0
062912	14:53:14	785496	Trial	CongruentLeft	14	203	424	1	86	14:53:14	773334	5	3	1	1	1	2	1	2	2	0	0	0	0	0	0	0	0
062912	14:53:14	785496	Trial	IncongruentRight	14	203	382	0	86	14:53:14	774293	5	3	1	1	1	2	1	2	2	0	0	0	0	0	0	0	0
062912	14:53:14	785496	Trial	IncongruentLeft	14	203	407	1	86	14:53:14	775306	5	3	1	1	1	2	1	2	2	0	0	0	0	0	0	0	0
062912	14:53:14	785496	Trial	IncongruentRight	14	205	289	1	86	14:53:14	776199	5	3	1	1	1	2	1	2	2	0	0	0	0	0	0	0	0
062912	14:53:14	785496	Trial	CongruentRight	14	205	428	1	86	14:53:14	777345	5	3	1	1	1	2	1	2	2	0	0	0	0	0	0	0	0
062912	14:53:14	785496	Trial	IncongruentLeft	14	203	497	1	86	14:53:14	778412	5	3	1	1	1	2	1	2	2	0	0	0	0	0	0	0	0
062912	14:53:14	785496	Trial	CongruentLeft	14	203	557	1	86	14:53:14	779465	5	3	1	1	1	2	1	2	2	0	0	0	0	0	0	0	0
062912	14:53:14	785496	Trial	CongruentRight	14	205	374	1	86	14:53:14	780304	5	3	1	1	1	2	1	2	2	0	0	0	0	0	0	0	0
062912	14:53:14	785496	Trial	IncongruentLeft	14	205	446	0	86	14:53:14	781357	5	3	1	1	1	2	1	2	2	0	0	0	0	0	0	0	0
062912	14:53:14	785496	Trial	IncongruentRight	14	205	405	1	86	14:53:14	782317	5	3	1	1	1	2	1	2	2	0	0	0	0	0	0	0	0
062912	14:53:14	785496	Trial	IncongruentRight	14	205	478	1	86	14:53:14	783397	5	3	1	1	1	2	1	2	2	0	0	0	0	0	0	0	0
062912	14:53:14	785496	Trial	CongruentLeft	14	203	375	1	86	14:53:14	784289	5	3	1	1	1	2	1	2	2	0	0	0	0	0	0	0	0
062912	14:53:14	785496	Trial	IncongruentLeft	14	205	335	0	86	14:53:14	785249	5	3	1	1	1	2	1	2	2	0	0	0	0	0	0	0	0
062912	14:53:14	785496	Trial	CongruentRight	14	205	616	1	86	14:53:14	786529	5	3	1	1	1	2	1	2	2	0	0	0	0	0	0	0	0
062912	14:53:14	785496	Trial	CongruentLeft	14	203	384	1	86	14:53:14	787288	5	3	1	1	1	2	1	2	2	0	0	0	0	0	0	0	0
062912	14:53:14	785496	Trial	IncongruentRight	14	205	409	1	86	14:53:14	788315	5	3	1	1	1	2	1	2	2	0	0	0	0	0	0	0	0
062912	14:53:14	785496	Trial	CongruentRight	14	205	334	1	86	14:53:14	789247	5	3	1	1	1	2	1	2	2	0	0	0	0	0	0	0	0
062912	14:53:14	785496	Trial	IncongruentLeft	14	203	361	1	86	14:53:14	790274	5	3	1	1	1	2	1	2	2	0	0	0	0	0	0	0	0
062912	14:53:14	785496	Trial	CongruentLeft	14	203	370	1	86	14:53:14	791273	5	3	1	1	1	2	1	2	2	0	0	0	0	0	0	0	0
062912	14:53:14	785496	Trial	IncongruentLeft	14	0	737	0	86	14:53:14	792633	5	3	1	1	1	2	1	2	2	0	0	0	0	0	0	0	0
062912	14:53:14	785496	Trial	IncongruentRight	14	0	737	0	86	14:53:14	793646	5	3	1	1	1	2	1	2	2	0	0	0	0	0	0	0	0
062912	14:53:14	785496	Trial	CongruentRight	14	0	737	0	86	14:53:14	794659	5	3	1	1	1	2	1	2	2	0	0	0	0	0	0	0	0
062912	14:53:14	785496	Trial	CongruentLeft	14	0	737	0	86	14:53:14	795672	5	3	1	1	1	2	1	2	2	0	0	0	0	0	0	0	0
062912	14:53:14	785496	Trial	CongruentLeft	14	0	737	0	86	14:53:14	796684	5	3	1	1	1	2	1	2	2	0	0	0	0	0	0	0	0
062912	14:53:14	785496	Trial	IncongruentRight	14	0	737	0	86	14:53:14	797697	5	3	1	1	1	2	1	2	2	0	0	0	0	0	0	0	0
062912	14:53:14	785496	Trial	IncongruentLeft	14	0	737	0	86	14:53:14	798710	5	3	1	1	1	2	1	2	2	0	0	0	0	0	0	0	0
062912	14:53:14	785496	Trial	IncongruentRight	14	0	737	0	86	14:53:14	799723	5	3	1	1	1	2	1	2	2	0	0	0	0	0	0	0	0
062912	14:53:14	785496	Trial	CongruentRight	14	0	737	0	86	14:53:14	800736	5	3	1	1	1	2	1	2	2	0	0	0	0	0	0	0	0
062912	14:53:14	785496	Trial	CongruentRight	14	0	737	0	86	14:53:14	801749	5	3	1	1	1	2	1	2	2	0	0	0	0	0	0	0	0
062912	14:53:14	785496	Trial	IncongruentLeft	14	0	737	0	86	14:53:14	802762	5	3	1	1	1	2	1	2	2	0	0	0	0	0	0	0	0
062912	14:53:14	785496	Trial	CongruentLeft	14	0	737	0	86	14:53:14	803775	5	3	1	1	1	2	1	2	2	0	0	0	0	0	0	0	0
062912	14:53:14	785496	Trial	CongruentRight	14	0	737	0	86	14:53:14	804788	5	3	1	1	1	2	1	2	2	0	0	0	0	0	0	0	0
062912	14:53:14	785496	Trial	CongruentLeft	14	0	737	0	86	14:53:14	805801	5	3	1	1	1	2	1	2	2	0	0	0	0	0	0	0	0
062912	14:53:14	785496	Trial	IncongruentRight	14	0	737	0	86	14:53:14	806814	5	3	1	1	1	2	1	2	2	0	0	0	0	0	0	0	0
062912	14:53:14	785496	Trial	CongruentRight	14	0	737	0	86	14:53:14	807827	5	3	1	1	1	2	1	2	2	0	0	0	0	0	0	0	0
062912	14:53:14	785496	Trial	CongruentLeft	14	0	737	0	86	14:53:14	808839	5	3	1	1	1	2	1	2	2	0	0	0	0	0	0	0	0
062912	14:53:14	785496	Trial	IncongruentLeft	14	0	737	0	86	14:53:14	809852	5	3	1	1	1	2	1	2	2	0	0	0	0	0	0	0	0
062912	14:53:14	785496	Trial	IncongruentLeft	14	0	737	0	86	14:53:14	810865	5	3	1	1	1	2	1	2	2	0	0	0	0	0	0	0	0
062912	14:53:14	785496	Trial	CongruentRight	14	0	737	0	86	14:53:14	811878	5	3	1	1	1	2	1	2	2	0	0	0	0	0	0	0	0
062912	14:53:14	785496	Trial	IncongruentRight	14	0	737	0	86	14:53:14	812891	5	3	1	1	1	2	1	2	2	0	0	0	0	0	0	0	0
062912	14:53:14	785496	Trial	CongruentLeft	14	0	737	0	86	14:53:14	813904	5	3	1	1	1	2	1	2	2	0	0	0	0	0	0	0	0
062912	14:53:14	785496	Trial	IncongruentRight	14	0	737	0	86	14:53:14	814917	5	3	1	1	1	2	1	2	2	0	0	0	0	0	0	0	0
062912	14:53:14	785496	Trial	CongruentRight	14	0	737	0	86	14:53:14	815930	5	3	1	1	1	2	1	2	2	0	0	0	0	0	0	0	0
062912	14:53:14	785496	Trial	IncongruentLeft	14	0	737	0	86	14:53:14	816943	5	3	1	1	1	2	1	2	2	0	0	0	0	0	0	0	0
062912	14:53:14	785496	Trial	CongruentLeft	14	0	737	0	86	14:53:14	817956	5	3	1	1	1	2	1	2	2	0	0	0	0	0	0	0	0
062912	14:53:14	785496	Trial	CongruentRight	14	0	737	0	86	14:53:14	818969	5	3	1	1	1	2	1	2	2	0	0	0	0	0	0	0	0
062912	14:53:14	785496	Trial	IncongruentLeft	14	0	737	0	86	14:53:14	819982	5	3	1	1	1	2	1	2	2	0	0	0	0	0	0	0	0
062912	14:53:14	785496	Trial	CongruentRight	14	0	737	0	86	14:53:14	820995	5	3	1	1	1	2	1	2	2	0	0	0	0	0	0	0	0
062912	14:53:14	785496	Trial	CongruentRight	14	0	737	0	86	14:53:14	822008	5	3	1	1	1	2	1	2	2	0	0	0	0	0	0	0	0
062912	14:53:14	785496	Trial	IncongruentRight	14	0	737	0	86	14:53:14	823020	5	3	1	1	1	2	1	2	2	0	0	0	0	0	0	0	0
062912	14:53:14	785496	Trial	CongruentLeft	14	0	737	0	86	14:53:14	824033	5	3	1	1	1	2	1	2	2	0	0	0	0	0	0	0	0
062912	14:53:14	785496	Trial	IncongruentLeft	14	0	737	0	86	14:53:14	825046	5	3	1	1	1	2	1	2	2	0	0	0	0	0	0	0	0
062912	14:53:14	785496	Trial	CongruentLeft	14	0	737	0	86	14:53:14	826059	5	3	1	1	1	2	1	2	2	0	0	0	0	0	0	0	0
062912	14:53:14	785496	Trial	IncongruentRight	14	0	737	0	86	14:53:14	827072	5	3	1	1	1	2	1	2	2	0	0	0	0	0	0	0	0
062912	14:53:14	785496	Trial	IncongruentLeft	14	0	737	0	86	14:53:14	828085	5	3	1	1	1	2	1	2	2	0	0	0	0	0	0	0	0
062912	14:53:14	785496	Trial	CongruentRight	14	0	737	0	86	14:53:14	829098	5	3	1	1	1	2	1	2	2	0	0	0	0	0	0	0	0
062912	14:53:14	785496	Trial	CongruentLeft	14	0	737	0	86	14:53:14	830111	5	3	1	1	1	2	1	2	2	0	0	0	0	0	0	0	0
062912	14:53:14	785496	Trial	IncongruentLeft	14	0	737	0	86	14:53:14	831124	5	3	1	1	1	2	1	2	2	0	0	0	0	0	0	0	0
062912	14:53:14	785496	Trial	CongruentLeft	14	0	737	0	86	14:53:14	832137	5	3	1	1	1	2	1	2	2	0	0	0	0	0	0	0	0
062912	14:53:14	785496	Trial	IncongruentRight	14	0	737	0	86	14:53:14	833150	5	3	1	1	1	2	1	2	2	0	0	0	0	0	0	0	0
062912	14:53:14	785496	Trial	CongruentRight	14	0	737	0	86	14:53:14	834163	5	3	1	1	1	2	1	2	2	0	0	0	0	0	0	0	0
062912	14:53:14	785496	Trial	IncongruentLeft	14	0	737	0	86	14:53:14	835176	5	3	1	1	1	2	1	2	2	0	0	0	0	0	0	0	0
062912	14:53:14	785496	Trial	CongruentLeft	14	0	737	0	86	14:53:14	836188	5	3	1	1	1	2	1	2	2	0	0	0	0	0	0	0	0
062912	14:53:14	785496	Trial	IncongruentRight	14	0	737	0	86	14:53:14	837201	5	3	1	1	1	2	1	2	2	0	0	0	0	0	0	0	0
062912	14:53:14	785496	Trial	IncongruentLeft	14	0	737	0	86	14:53:14	838214	5	3	1	1	1	2	1	2	2	0	0	0	0	0	0	0	0
062912	14:53:14	785496	Trial	CongruentLeft	14	0	737	0	86	14:53:14	839227	5	3	1	1	1	2	1	2	2	0	0	0	0	0	0	0	0
062912	14:53:14	785496	Trial	IncongruentLeft	14	0	737	0	86	14:53:14	840240	5	3	1	1	1	2	1	2	2	0	0	0	0	0	0	0	0
062912	14:53:14	785496	Trial	CongruentRight	14	0	737	0	86	14:53:14	841253	5	3	1	1	1	2	1	2	2	0	0	0	0	0	0	0	0
062912	14:53:14	785496	Trial	CongruentLeft	14	0	737	0	86	14:53:14	842266	5	3	1	1	1	2	1	2	2	0	0	0	0	0	0	0	0
062912	14:53:14	785496	Trial	IncongruentRight	14	0	737	0	86	14:53:14	843279	5	3	1	1	1	2	1	2	2	0	0	0	0	0	0	0	0
062912	14:53:14	785496	Trial	CongruentLeft	14	0	737	0	86	14:53:14	844292	5	3	1	1	1	2	1	2	2	0	0	0	0	0	0	0	0
062912	14:53:14	785496	Trial	CongruentRight	14	0	737	0	86	14:53:14	845305	5	3	1	1	1	2	1	2	2	0	0	0	0	0	0	0	0
062912	14:53:14	785496	Trial	IncongruentLeft	14	0	737	0	86	14:53:14	846318	5	3	1	1	1	2	1	2	2	0	0	0	0	0	0	0	0
062912	14:53:14	785496	WordsAbsFrBaseline	PAbsFrBaseline1	16	Abs1	1277	0	86	14:53:14	849930	5	3	1	1	1	2	1	2	2	0	0	0	0	0	0	0	0
062912	14:53:14	785496	WordsAbsFrBaseline	AbsFrBaseline1	16	Abs1	773	0	86	14:53:14	850742	5	3	1	1	1	2	1	2	2	0	0	1	0	0	0	0	0
062912	14:53:14	785496	WordsAbsFrBaseline	AbsFrBaseline2	16	Abs1	912	0	86	14:53:14	851702	5	3	1	1	1	2	1	2	2	0	0	2	0	0	0	0	0
062912	14:53:14	785496	WordsAbsFrBaseline	AbsFrBaseline3	16	Abs2	748	0	86	14:53:14	852489	5	3	1	1	1	2	1	2	2	0	0	2	0	0	0	0	0
