date	time	subject	blockcode	trialcode	values.TaskNumber	response	latency	correct	values.Score	script.starttime	script.elapsedtime	values.ScoreS7	values.Word1	values.Word2	values.Word3	values.Word4	values.Word5	values.Word6	values.Word7	values.Word8	values.DigitSpanFwrd	values.DigitSpanBack	values.ScoreAbs	values.Contour	values.Numbers	values.Hands	values.corsiblockspanFwrd	values.corsiblockspanRev
071012	19:56:02	10024	Language	Language	0	French	541008	0	0	19:56:02	541099	0	0	0	0	0	0	0	0	0	0	0	0	0	0	0	0	0
071012	19:56:02	10024	Session	Session	0	Baseline	5069	0	0	19:56:02	546242	0	0	0	0	0	0	0	0	0	0	0	0	0	0	0	0	0
071012	19:56:02	10024	HandFr	HandFr	0	RightFr	3244	0	0	19:56:02	549561	0	0	0	0	0	0	0	0	0	0	0	0	0	0	0	0	0
071012	19:56:02	10024	AudioCheckFr	WordsFr	0	0	0	0	0	19:56:02	604204	0	0	0	0	0	0	0	0	0	0	0	0	0	0	0	0	0
071012	19:56:02	10024	CubeFr	CubeFr	1	1Cube	53919	0	0	19:56:02	659436	0	0	0	0	0	0	0	0	0	0	0	0	0	0	0	0	0
071012	19:56:02	10024	pm.simpleFrRight	blank.simpleFr	2	0	2187	1	0	19:56:02	721811	0	0	0	0	0	0	0	0	0	0	0	0	0	0	0	0	0
071012	19:56:02	10024	pm.simpleFrRight	pm.simpleFr	2	57	332	0	0	19:56:02	722184	0	0	0	0	0	0	0	0	0	0	0	0	0	0	0	0	0
071012	19:56:02	10024	pm.simpleFrRight	blank.simpleFr	2	0	2287	1	0	19:56:02	724490	0	0	0	0	0	0	0	0	0	0	0	0	0	0	0	0	0
071012	19:56:02	10024	pm.simpleFrRight	pm.simpleFr	2	57	278	0	0	19:56:02	724810	0	0	0	0	0	0	0	0	0	0	0	0	0	0	0	0	0
071012	19:56:02	10024	pm.simpleFrRight	blank.simpleFr	2	0	1687	1	0	19:56:02	726609	0	0	0	0	0	0	0	0	0	0	0	0	0	0	0	0	0
071012	19:56:02	10024	pm.simpleFrRight	pm.simpleFr	2	57	286	0	0	19:56:02	726929	0	0	0	0	0	0	0	0	0	0	0	0	0	0	0	0	0
071012	19:56:02	10024	pm.simpleFrRight	blank.simpleFr	2	0	1787	1	0	19:56:02	728742	0	0	0	0	0	0	0	0	0	0	0	0	0	0	0	0	0
071012	19:56:02	10024	pm.simpleFrRight	pm.simpleFr	2	57	362	0	0	19:56:02	729141	0	0	0	0	0	0	0	0	0	0	0	0	0	0	0	0	0
071012	19:56:02	10024	pm.simpleFrRight	blank.simpleFr	2	0	1887	1	0	19:56:02	731047	0	0	0	0	0	0	0	0	0	0	0	0	0	0	0	0	0
071012	19:56:02	10024	pm.simpleFrRight	pm.simpleFr	2	57	360	0	0	19:56:02	731447	0	0	0	0	0	0	0	0	0	0	0	0	0	0	0	0	0
071012	19:56:02	10024	pm.simpleFrRight	blank.simpleFr	2	0	2487	1	0	19:56:02	733953	0	0	0	0	0	0	0	0	0	0	0	0	0	0	0	0	0
071012	19:56:02	10024	pm.simpleFrRight	pm.simpleFr	2	57	319	0	0	19:56:02	734313	0	0	0	0	0	0	0	0	0	0	0	0	0	0	0	0	0
071012	19:56:02	10024	pm.simpleFrRight	blank.simpleFr	2	0	1587	1	0	19:56:02	735925	0	0	0	0	0	0	0	0	0	0	0	0	0	0	0	0	0
071012	19:56:02	10024	pm.simpleFrRight	pm.simpleFr	2	57	346	0	0	19:56:02	736312	0	0	0	0	0	0	0	0	0	0	0	0	0	0	0	0	0
071012	19:56:02	10024	pm.simpleFrRight	blank.simpleFr	2	0	1487	1	0	19:56:02	737818	0	0	0	0	0	0	0	0	0	0	0	0	0	0	0	0	0
071012	19:56:02	10024	pm.simpleFrRight	pm.simpleFr	2	57	278	0	0	19:56:02	738138	0	0	0	0	0	0	0	0	0	0	0	0	0	0	0	0	0
071012	19:56:02	10024	pm.simpleFrRight	blank.simpleFr	2	0	2387	1	0	19:56:02	740550	0	0	0	0	0	0	0	0	0	0	0	0	0	0	0	0	0
071012	19:56:02	10024	pm.simpleFrRight	pm.simpleFr	2	57	345	0	0	19:56:02	740937	0	0	0	0	0	0	0	0	0	0	0	0	0	0	0	0	0
071012	19:56:02	10024	pm.simpleFrRight	blank.simpleFr	2	0	2087	1	0	19:56:02	743056	0	0	0	0	0	0	0	0	0	0	0	0	0	0	0	0	0
071012	19:56:02	10024	pm.simpleFrRight	pm.simpleFr	2	57	320	0	0	19:56:02	743416	0	0	0	0	0	0	0	0	0	0	0	0	0	0	0	0	0
071012	19:56:02	10024	pm.simpleFrRight	blank.simpleFr	2	0	1987	1	0	19:56:02	745428	0	0	0	0	0	0	0	0	0	0	0	0	0	0	0	0	0
071012	19:56:02	10024	pm.simpleFrRight	pm.simpleFr	2	57	331	0	0	19:56:02	745802	0	0	0	0	0	0	0	0	0	0	0	0	0	0	0	0	0
071012	19:56:02	10024	pm.simpleFrRight	blank.simpleFr	2	0	2387	1	0	19:56:02	748213	0	0	0	0	0	0	0	0	0	0	0	0	0	0	0	0	0
071012	19:56:02	10024	pm.simpleFrRight	pm.simpleFr	2	57	346	0	0	19:56:02	748600	0	0	0	0	0	0	0	0	0	0	0	0	0	0	0	0	0
071012	19:56:02	10024	pm.simpleFrRight	blank.simpleFr	2	0	1487	1	0	19:56:02	750120	0	0	0	0	0	0	0	0	0	0	0	0	0	0	0	0	0
071012	19:56:02	10024	pm.simpleFrRight	pm.simpleFr	2	57	311	0	0	19:56:02	750466	0	0	0	0	0	0	0	0	0	0	0	0	0	0	0	0	0
071012	19:56:02	10024	pm.simpleFrRight	blank.simpleFr	2	0	1587	1	0	19:56:02	752079	0	0	0	0	0	0	0	0	0	0	0	0	0	0	0	0	0
071012	19:56:02	10024	pm.simpleFrRight	pm.simpleFr	2	57	256	0	0	19:56:02	752372	0	0	0	0	0	0	0	0	0	0	0	0	0	0	0	0	0
071012	19:56:02	10024	pm.simpleFrRight	blank.simpleFr	2	0	2187	1	0	19:56:02	754585	0	0	0	0	0	0	0	0	0	0	0	0	0	0	0	0	0
071012	19:56:02	10024	pm.simpleFrRight	pm.simpleFr	2	57	310	0	0	19:56:02	754931	0	0	0	0	0	0	0	0	0	0	0	0	0	0	0	0	0
071012	19:56:02	10024	pm.simpleFrRight	blank.simpleFr	2	0	2087	1	0	19:56:02	757050	0	0	0	0	0	0	0	0	0	0	0	0	0	0	0	0	0
071012	19:56:02	10024	pm.simpleFrRight	pm.simpleFr	2	57	277	0	0	19:56:02	757357	0	0	0	0	0	0	0	0	0	0	0	0	0	0	0	0	0
071012	19:56:02	10024	pm.simpleFrRight	blank.simpleFr	2	0	1887	1	0	19:56:02	759263	0	0	0	0	0	0	0	0	0	0	0	0	0	0	0	0	0
071012	19:56:02	10024	pm.simpleFrRight	pm.simpleFr	2	57	256	0	0	19:56:02	759556	0	0	0	0	0	0	0	0	0	0	0	0	0	0	0	0	0
071012	19:56:02	10024	pm.simpleFrRight	blank.simpleFr	2	0	1787	1	0	19:56:02	761368	0	0	0	0	0	0	0	0	0	0	0	0	0	0	0	0	0
071012	19:56:02	10024	pm.simpleFrRight	pm.simpleFr	2	57	294	0	0	19:56:02	761702	0	0	0	0	0	0	0	0	0	0	0	0	0	0	0	0	0
071012	19:56:02	10024	pm.simpleFrRight	blank.simpleFr	2	0	1687	1	0	19:56:02	763421	0	0	0	0	0	0	0	0	0	0	0	0	0	0	0	0	0
071012	19:56:02	10024	pm.simpleFrRight	pm.simpleFr	2	57	337	0	0	19:56:02	763794	0	0	0	0	0	0	0	0	0	0	0	0	0	0	0	0	0
071012	19:56:02	10024	pm.simpleFrRight	blank.simpleFr	2	0	1987	1	0	19:56:02	765807	0	0	0	0	0	0	0	0	0	0	0	0	0	0	0	0	0
071012	19:56:02	10024	pm.simpleFrRight	pm.simpleFr	2	57	289	0	0	19:56:02	766126	0	0	0	0	0	0	0	0	0	0	0	0	0	0	0	0	0
071012	19:56:02	10024	pm.simpleFrRight	blank.simpleFr	2	0	2487	1	0	19:56:02	768646	0	0	0	0	0	0	0	0	0	0	0	0	0	0	0	0	0
071012	19:56:02	10024	pm.simpleFrRight	pm.simpleFr	2	57	281	0	0	19:56:02	768965	0	0	0	0	0	0	0	0	0	0	0	0	0	0	0	0	0
071012	19:56:02	10024	pm.simpleFrRight	blank.simpleFr	2	0	2287	1	0	19:56:02	771284	0	0	0	0	0	0	0	0	0	0	0	0	0	0	0	0	0
071012	19:56:02	10024	pm.simpleFrRight	pm.simpleFr	2	57	314	0	0	19:56:02	771631	0	0	0	0	0	0	0	0	0	0	0	0	0	0	0	0	0
071012	19:56:02	10024	pm.simpleFrRight	blank.simpleFr	2	0	1687	1	0	19:56:02	773350	0	0	0	0	0	0	0	0	0	0	0	0	0	0	0	0	0
071012	19:56:02	10024	pm.simpleFrRight	pm.simpleFr	2	57	488	0	0	19:56:02	773870	0	0	0	0	0	0	0	0	0	0	0	0	0	0	0	0	0
071012	19:56:02	10024	pm.simpleFrRight	blank.simpleFr	2	0	2287	1	0	19:56:02	776189	0	0	0	0	0	0	0	0	0	0	0	0	0	0	0	0	0
071012	19:56:02	10024	pm.simpleFrRight	pm.simpleFr	2	57	337	0	0	19:56:02	776562	0	0	0	0	0	0	0	0	0	0	0	0	0	0	0	0	0
071012	19:56:02	10024	pm.simpleFrRight	blank.simpleFr	2	0	1987	1	0	19:56:02	778575	0	0	0	0	0	0	0	0	0	0	0	0	0	0	0	0	0
071012	19:56:02	10024	pm.simpleFrRight	pm.simpleFr	2	57	304	0	0	19:56:02	778921	0	0	0	0	0	0	0	0	0	0	0	0	0	0	0	0	0
071012	19:56:02	10024	pm.simpleFrRight	blank.simpleFr	2	0	1587	1	0	19:56:02	780534	0	0	0	0	0	0	0	0	0	0	0	0	0	0	0	0	0
071012	19:56:02	10024	pm.simpleFrRight	pm.simpleFr	2	57	345	0	0	19:56:02	780921	0	0	0	0	0	0	0	0	0	0	0	0	0	0	0	0	0
071012	19:56:02	10024	pm.simpleFrRight	blank.simpleFr	2	0	1787	1	0	19:56:02	782733	0	0	0	0	0	0	0	0	0	0	0	0	0	0	0	0	0
071012	19:56:02	10024	pm.simpleFrRight	pm.simpleFr	2	57	289	0	0	19:56:02	783053	0	0	0	0	0	0	0	0	0	0	0	0	0	0	0	0	0
071012	19:56:02	10024	pm.simpleFrRight	blank.simpleFr	2	0	2187	1	0	19:56:02	785266	0	0	0	0	0	0	0	0	0	0	0	0	0	0	0	0	0
071012	19:56:02	10024	pm.simpleFrRight	pm.simpleFr	2	57	253	0	0	19:56:02	785559	0	0	0	0	0	0	0	0	0	0	0	0	0	0	0	0	0
071012	19:56:02	10024	pm.simpleFrRight	blank.simpleFr	2	0	2087	1	0	19:56:02	787678	0	0	0	0	0	0	0	0	0	0	0	0	0	0	0	0	0
071012	19:56:02	10024	pm.simpleFrRight	pm.simpleFr	2	57	256	0	0	19:56:02	787971	0	0	0	0	0	0	0	0	0	0	0	0	0	0	0	0	0
071012	19:56:02	10024	pm.simpleFrRight	blank.simpleFr	2	0	2487	1	0	19:56:02	790490	0	0	0	0	0	0	0	0	0	0	0	0	0	0	0	0	0
071012	19:56:02	10024	pm.simpleFrRight	pm.simpleFr	2	57	308	0	0	19:56:02	790837	0	0	0	0	0	0	0	0	0	0	0	0	0	0	0	0	0
071012	19:56:02	10024	pm.simpleFrRight	blank.simpleFr	2	0	1487	1	0	19:56:02	792356	0	0	0	0	0	0	0	0	0	0	0	0	0	0	0	0	0
071012	19:56:02	10024	pm.simpleFrRight	pm.simpleFr	2	57	298	0	0	19:56:02	792689	0	0	0	0	0	0	0	0	0	0	0	0	0	0	0	0	0
071012	19:56:02	10024	pm.simpleFrRight	blank.simpleFr	2	0	2387	1	0	19:56:02	795101	0	0	0	0	0	0	0	0	0	0	0	0	0	0	0	0	0
071012	19:56:02	10024	pm.simpleFrRight	pm.simpleFr	2	57	225	0	0	19:56:02	795368	0	0	0	0	0	0	0	0	0	0	0	0	0	0	0	0	0
071012	19:56:02	10024	pm.simpleFrRight	blank.simpleFr	2	0	1887	1	0	19:56:02	797287	0	0	0	0	0	0	0	0	0	0	0	0	0	0	0	0	0
071012	19:56:02	10024	pm.simpleFrRight	pm.simpleFr	2	57	247	0	0	19:56:02	797567	0	0	0	0	0	0	0	0	0	0	0	0	0	0	0	0	0
071012	19:56:02	10024	pm.simpleFrRight	blank.simpleFr	2	0	2087	1	0	19:56:02	799686	0	0	0	0	0	0	0	0	0	0	0	0	0	0	0	0	0
071012	19:56:02	10024	pm.simpleFrRight	pm.simpleFr	2	57	296	0	0	19:56:02	800020	0	0	0	0	0	0	0	0	0	0	0	0	0	0	0	0	0
071012	19:56:02	10024	pm.simpleFrRight	blank.simpleFr	2	0	2487	1	0	19:56:02	802538	0	0	0	0	0	0	0	0	0	0	0	0	0	0	0	0	0
071012	19:56:02	10024	pm.simpleFrRight	pm.simpleFr	2	57	259	0	0	19:56:02	802832	0	0	0	0	0	0	0	0	0	0	0	0	0	0	0	0	0
071012	19:56:02	10024	pm.simpleFrRight	blank.simpleFr	2	0	1887	1	0	19:56:02	804737	0	0	0	0	0	0	0	0	0	0	0	0	0	0	0	0	0
071012	19:56:02	10024	pm.simpleFrRight	pm.simpleFr	2	57	252	0	0	19:56:02	805031	0	0	0	0	0	0	0	0	0	0	0	0	0	0	0	0	0
071012	19:56:02	10024	pm.simpleFrRight	blank.simpleFr	2	0	1587	1	0	19:56:02	806644	0	0	0	0	0	0	0	0	0	0	0	0	0	0	0	0	0
071012	19:56:02	10024	pm.simpleFrRight	pm.simpleFr	2	57	234	0	0	19:56:02	806910	0	0	0	0	0	0	0	0	0	0	0	0	0	0	0	0	0
071012	19:56:02	10024	pm.simpleFrRight	blank.simpleFr	2	0	2287	1	0	19:56:02	809229	0	0	0	0	0	0	0	0	0	0	0	0	0	0	0	0	0
071012	19:56:02	10024	pm.simpleFrRight	pm.simpleFr	2	57	257	0	0	19:56:02	809522	0	0	0	0	0	0	0	0	0	0	0	0	0	0	0	0	0
071012	19:56:02	10024	pm.simpleFrRight	blank.simpleFr	2	0	2187	1	0	19:56:02	811735	0	0	0	0	0	0	0	0	0	0	0	0	0	0	0	0	0
071012	19:56:02	10024	pm.simpleFrRight	pm.simpleFr	2	57	247	0	0	19:56:02	812014	0	0	0	0	0	0	0	0	0	0	0	0	0	0	0	0	0
071012	19:56:02	10024	pm.simpleFrRight	blank.simpleFr	2	0	1787	1	0	19:56:02	813827	0	0	0	0	0	0	0	0	0	0	0	0	0	0	0	0	0
071012	19:56:02	10024	pm.simpleFrRight	pm.simpleFr	2	57	235	0	0	19:56:02	814094	0	0	0	0	0	0	0	0	0	0	0	0	0	0	0	0	0
071012	19:56:02	10024	Trial2BackFr	N	3	0	1000	1	1	19:56:02	898806	0	0	0	0	0	0	0	0	0	0	0	0	0	0	0	0	0
071012	19:56:02	10024	Trial2BackFr	N	3	0	1000	1	2	19:56:02	900326	0	0	0	0	0	0	0	0	0	0	0	0	0	0	0	0	0
071012	19:56:02	10024	Trial2BackFr	N	3	0	1000	1	3	19:56:02	901845	0	0	0	0	0	0	0	0	0	0	0	0	0	0	0	0	0
071012	19:56:02	10024	Trial2BackFr	N	3	0	1000	1	4	19:56:02	903364	0	0	0	0	0	0	0	0	0	0	0	0	0	0	0	0	0
071012	19:56:02	10024	Trial2BackFr	N	3	0	1000	1	5	19:56:02	904884	0	0	0	0	0	0	0	0	0	0	0	0	0	0	0	0	0
071012	19:56:02	10024	Trial2BackFr	N	3	0	1000	1	6	19:56:02	906403	0	0	0	0	0	0	0	0	0	0	0	0	0	0	0	0	0
071012	19:56:02	10024	Trial2BackFr	N	3	0	1000	1	7	19:56:02	907922	0	0	0	0	0	0	0	0	0	0	0	0	0	0	0	0	0
071012	19:56:02	10024	Trial2BackFr	N	3	57	542	0	7	19:56:02	908989	0	0	0	0	0	0	0	0	0	0	0	0	0	0	0	0	0
071012	19:56:02	10024	Trial2BackFr	Y	3	0	1000	0	7	19:56:02	910948	0	0	0	0	0	0	0	0	0	0	0	0	0	0	0	0	0
071012	19:56:02	10024	Trial2BackFr	N	3	0	1000	1	8	19:56:02	912467	0	0	0	0	0	0	0	0	0	0	0	0	0	0	0	0	0
071012	19:56:02	10024	Trial2BackFr	N	3	57	748	0	8	19:56:02	913747	0	0	0	0	0	0	0	0	0	0	0	0	0	0	0	0	0
071012	19:56:02	10024	Trial2BackFr	N	3	0	1000	1	9	19:56:02	915493	0	0	0	0	0	0	0	0	0	0	0	0	0	0	0	0	0
071012	19:56:02	10024	Trial2BackFr	Y	3	57	747	1	10	19:56:02	916772	0	0	0	0	0	0	0	0	0	0	0	0	0	0	0	0	0
071012	19:56:02	10024	Trial2BackFr	N	3	0	1000	1	11	19:56:02	918519	0	0	0	0	0	0	0	0	0	0	0	0	0	0	0	0	0
071012	19:56:02	10024	Trial2BackFr	N	3	0	1000	1	12	19:56:02	920038	0	0	0	0	0	0	0	0	0	0	0	0	0	0	0	0	0
071012	19:56:02	10024	Trial2BackFr	N	3	0	1000	1	13	19:56:02	921557	0	0	0	0	0	0	0	0	0	0	0	0	0	0	0	0	0
071012	19:56:02	10024	Trial2BackFr	N	3	0	1000	1	14	19:56:02	923076	0	0	0	0	0	0	0	0	0	0	0	0	0	0	0	0	0
071012	19:56:02	10024	Trial2BackFr	N	3	0	1000	1	15	19:56:02	924596	0	0	0	0	0	0	0	0	0	0	0	0	0	0	0	0	0
071012	19:56:02	10024	Trial2BackFr	Y	3	57	524	1	16	19:56:02	925649	0	0	0	0	0	0	0	0	0	0	0	0	0	0	0	0	0
071012	19:56:02	10024	Trial2BackFr	N	3	0	1000	1	17	19:56:02	927621	0	0	0	0	0	0	0	0	0	0	0	0	0	0	0	0	0
071012	19:56:02	10024	Trial2BackFr	N	3	57	762	0	17	19:56:02	928914	0	0	0	0	0	0	0	0	0	0	0	0	0	0	0	0	0
071012	19:56:02	10024	Trial2BackFr	N	3	0	1000	1	18	19:56:02	930647	0	0	0	0	0	0	0	0	0	0	0	0	0	0	0	0	0
071012	19:56:02	10024	Trial2BackFr	N	3	0	1000	1	19	19:56:02	932166	0	0	0	0	0	0	0	0	0	0	0	0	0	0	0	0	0
071012	19:56:02	10024	Trial2BackFr	Y	3	57	457	1	20	19:56:02	933152	0	0	0	0	0	0	0	0	0	0	0	0	0	0	0	0	0
071012	19:56:02	10024	Trial2BackFr	N	3	0	1000	1	21	19:56:02	935191	0	0	0	0	0	0	0	0	0	0	0	0	0	0	0	0	0
071012	19:56:02	10024	Trial2BackFr	N	3	0	1000	1	22	19:56:02	936711	0	0	0	0	0	0	0	0	0	0	0	0	0	0	0	0	0
071012	19:56:02	10024	Trial2BackFr	N	3	0	1000	1	23	19:56:02	938230	0	0	0	0	0	0	0	0	0	0	0	0	0	0	0	0	0
071012	19:56:02	10024	Trial2BackFr	N	3	0	1000	1	24	19:56:02	939750	0	0	0	0	0	0	0	0	0	0	0	0	0	0	0	0	0
071012	19:56:02	10024	Trial2BackFr	N	3	0	1000	1	25	19:56:02	941269	0	0	0	0	0	0	0	0	0	0	0	0	0	0	0	0	0
071012	19:56:02	10024	Trial2BackFr	N	3	0	1000	1	26	19:56:02	942788	0	0	0	0	0	0	0	0	0	0	0	0	0	0	0	0	0
071012	19:56:02	10024	Trial2BackFr	Y	3	57	491	1	27	19:56:02	943801	0	0	0	0	0	0	0	0	0	0	0	0	0	0	0	0	0
071012	19:56:02	10024	Trial2BackFr	N	3	0	1000	1	28	19:56:02	945814	0	0	0	0	0	0	0	0	0	0	0	0	0	0	0	0	0
071012	19:56:02	10024	Trial2BackFr	N	3	0	1000	1	29	19:56:02	947333	0	0	0	0	0	0	0	0	0	0	0	0	0	0	0	0	0
071012	19:56:02	10024	Trial2BackFr	N	3	0	1000	1	30	19:56:02	948853	0	0	0	0	0	0	0	0	0	0	0	0	0	0	0	0	0
071012	19:56:02	10024	Trial2BackFr	Y	3	57	474	1	31	19:56:02	949852	0	0	0	0	0	0	0	0	0	0	0	0	0	0	0	0	0
071012	19:56:02	10024	Trial2BackFr	N	3	0	1000	1	32	19:56:02	951878	0	0	0	0	0	0	0	0	0	0	0	0	0	0	0	0	0
071012	19:56:02	10024	Trial2BackFr	N	3	0	1000	1	33	19:56:02	953397	0	0	0	0	0	0	0	0	0	0	0	0	0	0	0	0	0
071012	19:56:02	10024	Trial2BackFr	N	3	57	633	0	33	19:56:02	954557	0	0	0	0	0	0	0	0	0	0	0	0	0	0	0	0	0
071012	19:56:02	10024	Trial2BackFr	N	3	0	1000	1	34	19:56:02	956423	0	0	0	0	0	0	0	0	0	0	0	0	0	0	0	0	0
071012	19:56:02	10024	Trial2BackFr	N	3	0	1000	1	35	19:56:02	957942	0	0	0	0	0	0	0	0	0	0	0	0	0	0	0	0	0
071012	19:56:02	10024	Trial2BackFr	N	3	57	809	0	35	19:56:02	959275	0	0	0	0	0	0	0	0	0	0	0	0	0	0	0	0	0
071012	19:56:02	10024	Trial2BackFr	Y	3	0	1000	0	35	19:56:02	960968	0	0	0	0	0	0	0	0	0	0	0	0	0	0	0	0	0
071012	19:56:02	10024	Trial2BackFr	N	3	0	1000	1	36	19:56:02	962487	0	0	0	0	0	0	0	0	0	0	0	0	0	0	0	0	0
071012	19:56:02	10024	Trial2BackFr	N	3	0	1000	1	37	19:56:02	964007	0	0	0	0	0	0	0	0	0	0	0	0	0	0	0	0	0
071012	19:56:02	10024	Trial2BackFr	N	3	0	1000	1	38	19:56:02	965526	0	0	0	0	0	0	0	0	0	0	0	0	0	0	0	0	0
071012	19:56:02	10024	Trial2BackFr	N	3	0	1000	1	39	19:56:02	967072	0	0	0	0	0	0	0	0	0	0	0	0	0	0	0	0	0
071012	19:56:02	10024	Trial2BackFr	Y	3	57	478	1	40	19:56:02	968085	0	0	0	0	0	0	0	0	0	0	0	0	0	0	0	0	0
071012	19:56:02	10024	Trial2BackFr	N	3	0	1000	1	41	19:56:02	970097	0	0	0	0	0	0	0	0	0	0	0	0	0	0	0	0	0
071012	19:56:02	10024	Trial2BackFr	N	3	0	1000	1	42	19:56:02	971617	0	0	0	0	0	0	0	0	0	0	0	0	0	0	0	0	0
071012	19:56:02	10024	Trial2BackFr	N	3	0	1000	1	43	19:56:02	973136	0	0	0	0	0	0	0	0	0	0	0	0	0	0	0	0	0
071012	19:56:02	10024	Trial2BackFr	N	3	0	1000	1	44	19:56:02	974656	0	0	0	0	0	0	0	0	0	0	0	0	0	0	0	0	0
071012	19:56:02	10024	Trial2BackFr	N	3	0	1000	1	45	19:56:02	976175	0	0	0	0	0	0	0	0	0	0	0	0	0	0	0	0	0
071012	19:56:02	10024	Trial2BackFr	Y	3	57	735	1	46	19:56:02	977441	0	0	0	0	0	0	0	0	0	0	0	0	0	0	0	0	0
071012	19:56:02	10024	Trial2BackFr	N	3	0	1000	1	47	19:56:02	979200	0	0	0	0	0	0	0	0	0	0	0	0	0	0	0	0	0
071012	19:56:02	10024	Trial2BackFr	N	3	0	1000	1	48	19:56:02	980720	0	0	0	0	0	0	0	0	0	0	0	0	0	0	0	0	0
071012	19:56:02	10024	Trial2BackFr	N	3	0	1000	1	49	19:56:02	982239	0	0	0	0	0	0	0	0	0	0	0	0	0	0	0	0	0
071012	19:56:02	10024	Trial2BackFr	N	3	0	1000	1	50	19:56:02	983759	0	0	0	0	0	0	0	0	0	0	0	0	0	0	0	0	0
071012	19:56:02	10024	Trial2BackFr	N	3	0	1000	1	51	19:56:02	985278	0	0	0	0	0	0	0	0	0	0	0	0	0	0	0	0	0
071012	19:56:02	10024	Trial2BackFr	N	3	0	1000	1	52	19:56:02	986797	0	0	0	0	0	0	0	0	0	0	0	0	0	0	0	0	0
071012	19:56:02	10024	Trial2BackFr	Y	3	57	561	1	53	19:56:02	987890	0	0	0	0	0	0	0	0	0	0	0	0	0	0	0	0	0
071012	19:56:02	10024	Trial2BackFr	N	3	0	1000	1	54	19:56:02	989823	0	0	0	0	0	0	0	0	0	0	0	0	0	0	0	0	0
071012	19:56:02	10024	Trial2BackFr	N	3	0	1000	1	55	19:56:02	991355	0	0	0	0	0	0	0	0	0	0	0	0	0	0	0	0	0
071012	19:56:02	10024	Trial2BackFr	Y	3	57	706	1	56	19:56:02	992595	0	0	0	0	0	0	0	0	0	0	0	0	0	0	0	0	0
071012	19:56:02	10024	Trial2BackFr	N	3	0	1000	1	57	19:56:02	994381	0	0	0	0	0	0	0	0	0	0	0	0	0	0	0	0	0
071012	19:56:02	10024	Trial2BackFr	N	3	0	1000	1	58	19:56:02	995900	0	0	0	0	0	0	0	0	0	0	0	0	0	0	0	0	0
071012	19:56:02	10024	Trial2BackFr	N	3	57	610	0	58	19:56:02	997033	0	0	0	0	0	0	0	0	0	0	0	0	0	0	0	0	0
071012	19:56:02	10024	Trial2BackFr	N	3	0	1000	1	59	19:56:02	998926	0	0	0	0	0	0	0	0	0	0	0	0	0	0	0	0	0
071012	19:56:02	10024	Trial2BackFr	N	3	0	1000	1	60	19:56:02	1000445	0	0	0	0	0	0	0	0	0	0	0	0	0	0	0	0	0
071012	19:56:02	10024	Trial2BackFr	N	3	0	1000	1	61	19:56:02	1001965	0	0	0	0	0	0	0	0	0	0	0	0	0	0	0	0	0
071012	19:56:02	10024	Trial2BackFr	N	3	0	1000	1	62	19:56:02	1003484	0	0	0	0	0	0	0	0	0	0	0	0	0	0	0	0	0
071012	19:56:02	10024	Trial2BackFr	N	3	0	1000	1	63	19:56:02	1005003	0	0	0	0	0	0	0	0	0	0	0	0	0	0	0	0	0
071012	19:56:02	10024	Trial2BackFr	N	3	57	610	0	63	19:56:02	1006136	0	0	0	0	0	0	0	0	0	0	0	0	0	0	0	0	0
071012	19:56:02	10024	Trial2BackFr	N	3	0	1000	1	64	19:56:02	1008029	0	0	0	0	0	0	0	0	0	0	0	0	0	0	0	0	0
071012	19:56:02	10024	Trial2BackFr	Y	3	0	1000	0	64	19:56:02	1009548	0	0	0	0	0	0	0	0	0	0	0	0	0	0	0	0	0
071012	19:56:02	10024	Trial2BackFr	N	3	0	1000	1	65	19:56:02	1011067	0	0	0	0	0	0	0	0	0	0	0	0	0	0	0	0	0
071012	19:56:02	10024	Trial2BackFr	N	3	57	562	0	65	19:56:02	1012160	0	0	0	0	0	0	0	0	0	0	0	0	0	0	0	0	0
071012	19:56:02	10024	Trial2BackFr	N	3	0	1000	1	66	19:56:02	1014093	0	0	0	0	0	0	0	0	0	0	0	0	0	0	0	0	0
071012	19:56:02	10024	Trial2BackFr	Y	3	57	736	1	67	19:56:02	1015359	0	0	0	0	0	0	0	0	0	0	0	0	0	0	0	0	0
071012	19:56:02	10024	Trial2BackFr	N	3	0	1000	1	68	19:56:02	1017118	0	0	0	0	0	0	0	0	0	0	0	0	0	0	0	0	0
071012	19:56:02	10024	Trial2BackFr	N	3	0	1000	1	69	19:56:02	1018638	0	0	0	0	0	0	0	0	0	0	0	0	0	0	0	0	0
071012	19:56:02	10024	Trial2BackFr	N	3	0	1000	1	70	19:56:02	1020157	0	0	0	0	0	0	0	0	0	0	0	0	0	0	0	0	0
071012	19:56:02	10024	Trial2BackFr	N	3	0	1000	1	71	19:56:02	1021677	0	0	0	0	0	0	0	0	0	0	0	0	0	0	0	0	0
071012	19:56:02	10024	Trial2BackFr	N	3	57	545	0	71	19:56:02	1022756	0	0	0	0	0	0	0	0	0	0	0	0	0	0	0	0	0
071012	19:56:02	10024	Trial2BackFr	Y	3	57	623	1	72	19:56:02	1024329	0	0	0	0	0	0	0	0	0	0	0	0	0	0	0	0	0
071012	19:56:02	10024	Trial2BackFr	N	3	0	1000	1	73	19:56:02	1026195	0	0	0	0	0	0	0	0	0	0	0	0	0	0	0	0	0
071012	19:56:02	10024	Trial2BackFr	N	3	0	1000	1	74	19:56:02	1027714	0	0	0	0	0	0	0	0	0	0	0	0	0	0	0	0	0
071012	19:56:02	10024	Trial2BackFr	N	3	0	1000	1	75	19:56:02	1029233	0	0	0	0	0	0	0	0	0	0	0	0	0	0	0	0	0
071012	19:56:02	10024	Trial2BackFr	N	3	0	1000	1	76	19:56:02	1030753	0	0	0	0	0	0	0	0	0	0	0	0	0	0	0	0	0
071012	19:56:02	10024	Trial2BackFr	N	3	0	1000	1	77	19:56:02	1032272	0	0	0	0	0	0	0	0	0	0	0	0	0	0	0	0	0
071012	19:56:02	10024	Trial2BackFr	N	3	57	637	0	77	19:56:02	1033432	0	0	0	0	0	0	0	0	0	0	0	0	0	0	0	0	0
071012	19:56:02	10024	Trial2BackFr	N	3	0	1000	1	78	19:56:02	1035298	0	0	0	0	0	0	0	0	0	0	0	0	0	0	0	0	0
071012	19:56:02	10024	Trial2BackFr	N	3	0	1000	1	79	19:56:02	1036817	0	0	0	0	0	0	0	0	0	0	0	0	0	0	0	0	0
071012	19:56:02	10024	Trial2BackFr	N	3	0	1000	1	80	19:56:02	1038336	0	0	0	0	0	0	0	0	0	0	0	0	0	0	0	0	0
071012	19:56:02	10024	Trial2BackFr	Y	3	57	540	1	81	19:56:02	1039403	0	0	0	0	0	0	0	0	0	0	0	0	0	0	0	0	0
071012	19:56:02	10024	Trial2BackFr	N	3	0	1000	1	82	19:56:02	1041362	0	0	0	0	0	0	0	0	0	0	0	0	0	0	0	0	0
071012	19:56:02	10024	Trial2BackFr	N	3	0	1000	1	83	19:56:02	1042881	0	0	0	0	0	0	0	0	0	0	0	0	0	0	0	0	0
071012	19:56:02	10024	Trial2BackFr	N	3	57	748	0	83	19:56:02	1044161	0	0	0	0	0	0	0	0	0	0	0	0	0	0	0	0	0
071012	19:56:02	10024	Trial2BackFr	N	3	0	1000	1	84	19:56:02	1045907	0	0	0	0	0	0	0	0	0	0	0	0	0	0	0	0	0
071012	19:56:02	10024	Trial2BackFr	N	3	0	1000	1	85	19:56:02	1047426	0	0	0	0	0	0	0	0	0	0	0	0	0	0	0	0	0
071012	19:56:02	10024	Trial2BackFr	N	3	0	1000	1	86	19:56:02	1048946	0	0	0	0	0	0	0	0	0	0	0	0	0	0	0	0	0
071012	19:56:02	10024	Trial2BackFr	N	3	0	1000	1	87	19:56:02	1050465	0	0	0	0	0	0	0	0	0	0	0	0	0	0	0	0	0
071012	19:56:02	10024	Trial2BackFr	N	3	0	1000	1	88	19:56:02	1051984	0	0	0	0	0	0	0	0	0	0	0	0	0	0	0	0	0
071012	19:56:02	10024	Trial2BackFr	Y	3	57	461	1	89	19:56:02	1052971	0	0	0	0	0	0	0	0	0	0	0	0	0	0	0	0	0
071012	19:56:02	10024	Trial2BackFr	N	3	0	1000	1	90	19:56:02	1055010	0	0	0	0	0	0	0	0	0	0	0	0	0	0	0	0	0
071012	19:56:02	10024	Trial2BackFr	N	3	0	1000	1	91	19:56:02	1056529	0	0	0	0	0	0	0	0	0	0	0	0	0	0	0	0	0
071012	19:56:02	10024	Trial2BackFr	N	3	0	1000	1	92	19:56:02	1058048	0	0	0	0	0	0	0	0	0	0	0	0	0	0	0	0	0
071012	19:56:02	10024	Trial2BackFr	N	3	0	1000	1	93	19:56:02	1059568	0	0	0	0	0	0	0	0	0	0	0	0	0	0	0	0	0
071012	19:56:02	10024	Trial2BackFr	Y	3	57	573	1	94	19:56:02	1060674	0	0	0	0	0	0	0	0	0	0	0	0	0	0	0	0	0
071012	19:56:02	10024	Trial2BackFr	N	3	0	1000	1	95	19:56:02	1062593	0	0	0	0	0	0	0	0	0	0	0	0	0	0	0	0	0
071012	19:56:02	10024	Trial2BackFr	N	3	0	1000	1	96	19:56:02	1064113	0	0	0	0	0	0	0	0	0	0	0	0	0	0	0	0	0
071012	19:56:02	10024	Trial2BackFr	N	3	0	1000	1	97	19:56:02	1065632	0	0	0	0	0	0	0	0	0	0	0	0	0	0	0	0	0
071012	19:56:02	10024	Trial2BackFr	Y	3	57	412	1	98	19:56:02	1066578	0	0	0	0	0	0	0	0	0	0	0	0	0	0	0	0	0
071012	19:56:02	10024	Trial2BackFr	N	3	0	1000	1	99	19:56:02	1068658	0	0	0	0	0	0	0	0	0	0	0	0	0	0	0	0	0
071012	19:56:02	10024	Trial2BackFr	N	3	0	1000	1	100	19:56:02	1070177	0	0	0	0	0	0	0	0	0	0	0	0	0	0	0	0	0
071012	19:56:02	10024	Trial2BackFr	N	3	0	1000	1	101	19:56:02	1071710	0	0	0	0	0	0	0	0	0	0	0	0	0	0	0	0	0
071012	19:56:02	10024	Trial2BackFr	N	3	0	1000	1	102	19:56:02	1073229	0	0	0	0	0	0	0	0	0	0	0	0	0	0	0	0	0
071012	19:56:02	10024	Trial2BackFr	N	3	0	1000	1	103	19:56:02	1074748	0	0	0	0	0	0	0	0	0	0	0	0	0	0	0	0	0
071012	19:56:02	10024	Trial2BackFr	Y	3	57	512	1	104	19:56:02	1075788	0	0	0	0	0	0	0	0	0	0	0	0	0	0	0	0	0
071012	19:56:02	10024	Trial2BackFr	N	3	0	1000	1	105	19:56:02	1077774	0	0	0	0	0	0	0	0	0	0	0	0	0	0	0	0	0
071012	19:56:02	10024	Trial2BackFr	N	3	0	1000	1	106	19:56:02	1079293	0	0	0	0	0	0	0	0	0	0	0	0	0	0	0	0	0
071012	19:56:02	10024	Trial2BackFr	N	3	0	1000	1	107	19:56:02	1080813	0	0	0	0	0	0	0	0	0	0	0	0	0	0	0	0	0
071012	19:56:02	10024	Trial2BackFr	Y	3	57	527	1	108	19:56:02	1081866	0	0	0	0	0	0	0	0	0	0	0	0	0	0	0	0	0
071012	19:56:02	10024	Trial3BackFr	NN	4	0	1000	1	108	19:56:02	1121449	0	0	0	0	0	0	0	0	0	0	0	0	0	0	0	0	0
071012	19:56:02	10024	Trial3BackFr	NN	4	0	1000	1	108	19:56:02	1122969	0	0	0	0	0	0	0	0	0	0	0	0	0	0	0	0	0
071012	19:56:02	10024	Trial3BackFr	NN	4	0	1000	1	108	19:56:02	1124488	0	0	0	0	0	0	0	0	0	0	0	0	0	0	0	0	0
071012	19:56:02	10024	Trial3BackFr	YY	4	57	771	1	108	19:56:02	1125781	0	0	0	0	0	0	0	0	0	0	0	0	0	0	0	0	0
071012	19:56:02	10024	Trial3BackFr	NN	4	0	1000	1	108	19:56:02	1127514	0	0	0	0	0	0	0	0	0	0	0	0	0	0	0	0	0
071012	19:56:02	10024	Trial3BackFr	NN	4	0	1000	1	108	19:56:02	1129033	0	0	0	0	0	0	0	0	0	0	0	0	0	0	0	0	0
071012	19:56:02	10024	Trial3BackFr	NN	4	0	1000	1	108	19:56:02	1130552	0	0	0	0	0	0	0	0	0	0	0	0	0	0	0	0	0
071012	19:56:02	10024	Trial3BackFr	NN	4	0	1000	1	108	19:56:02	1132072	0	0	0	0	0	0	0	0	0	0	0	0	0	0	0	0	0
071012	19:56:02	10024	Trial3BackFr	YY	4	57	499	1	108	19:56:02	1133098	0	0	0	0	0	0	0	0	0	0	0	0	0	0	0	0	0
071012	19:56:02	10024	Trial3BackFr	NN	4	57	929	0	108	19:56:02	1135031	0	0	0	0	0	0	0	0	0	0	0	0	0	0	0	0	0
071012	19:56:02	10024	Trial3BackFr	NN	4	0	1000	1	108	19:56:02	1136590	0	0	0	0	0	0	0	0	0	0	0	0	0	0	0	0	0
071012	19:56:02	10024	Trial3BackFr	NN	4	0	1000	1	108	19:56:02	1138109	0	0	0	0	0	0	0	0	0	0	0	0	0	0	0	0	0
071012	19:56:02	10024	Trial3BackFr	NN	4	0	1000	1	108	19:56:02	1139629	0	0	0	0	0	0	0	0	0	0	0	0	0	0	0	0	0
071012	19:56:02	10024	Trial3BackFr	NN	4	0	1000	1	108	19:56:02	1141148	0	0	0	0	0	0	0	0	0	0	0	0	0	0	0	0	0
071012	19:56:02	10024	Trial3BackFr	NN	4	57	862	0	108	19:56:02	1142534	0	0	0	0	0	0	0	0	0	0	0	0	0	0	0	0	0
071012	19:56:02	10024	Trial3BackFr	NN	4	0	1000	1	108	19:56:02	1144174	0	0	0	0	0	0	0	0	0	0	0	0	0	0	0	0	0
071012	19:56:02	10024	Trial3BackFr	YY	4	57	125	1	108	19:56:02	1144827	0	0	0	0	0	0	0	0	0	0	0	0	0	0	0	0	0
071012	19:56:02	10024	Trial3BackFr	NN	4	57	955	0	108	19:56:02	1147159	0	0	0	0	0	0	0	0	0	0	0	0	0	0	0	0	0
071012	19:56:02	10024	Trial3BackFr	NN	4	0	1000	1	108	19:56:02	1148692	0	0	0	0	0	0	0	0	0	0	0	0	0	0	0	0	0
071012	19:56:02	10024	Trial3BackFr	NN	4	0	1000	1	108	19:56:02	1150211	0	0	0	0	0	0	0	0	0	0	0	0	0	0	0	0	0
071012	19:56:02	10024	Trial3BackFr	NN	4	0	1000	1	108	19:56:02	1151731	0	0	0	0	0	0	0	0	0	0	0	0	0	0	0	0	0
071012	19:56:02	10024	Trial3BackFr	NN	4	0	1000	1	108	19:56:02	1153250	0	0	0	0	0	0	0	0	0	0	0	0	0	0	0	0	0
071012	19:56:02	10024	Trial3BackFr	YY	4	57	632	1	108	19:56:02	1154409	0	0	0	0	0	0	0	0	0	0	0	0	0	0	0	0	0
071012	19:56:02	10024	Trial3BackFr	NN	4	0	1000	1	108	19:56:02	1156275	0	0	0	0	0	0	0	0	0	0	0	0	0	0	0	0	0
071012	19:56:02	10024	Trial3BackFr	NN	4	0	1000	1	108	19:56:02	1157795	0	0	0	0	0	0	0	0	0	0	0	0	0	0	0	0	0
071012	19:56:02	10024	Trial3BackFr	NN	4	0	1000	1	108	19:56:02	1159314	0	0	0	0	0	0	0	0	0	0	0	0	0	0	0	0	0
071012	19:56:02	10024	Trial3BackFr	YY	4	57	440	1	108	19:56:02	1160287	0	0	0	0	0	0	0	0	0	0	0	0	0	0	0	0	0
071012	19:56:02	10024	Trial3BackFr	NN	4	0	1000	1	108	19:56:02	1162340	0	0	0	0	0	0	0	0	0	0	0	0	0	0	0	0	0
071012	19:56:02	10024	Trial3BackFr	NN	4	0	1000	1	108	19:56:02	1163859	0	0	0	0	0	0	0	0	0	0	0	0	0	0	0	0	0
071012	19:56:02	10024	Trial3BackFr	NN	4	57	679	0	108	19:56:02	1165072	0	0	0	0	0	0	0	0	0	0	0	0	0	0	0	0	0
071012	19:56:02	10024	Trial3BackFr	YY	4	0	1000	0	108	19:56:02	1166884	0	0	0	0	0	0	0	0	0	0	0	0	0	0	0	0	0
071012	19:56:02	10024	Trial3BackFr	NN	4	0	1000	1	108	19:56:02	1168404	0	0	0	0	0	0	0	0	0	0	0	0	0	0	0	0	0
071012	19:56:02	10024	Trial3BackFr	NN	4	0	1000	1	108	19:56:02	1169937	0	0	0	0	0	0	0	0	0	0	0	0	0	0	0	0	0
071012	19:56:02	10024	Trial3BackFr	NN	4	0	1000	1	108	19:56:02	1171456	0	0	0	0	0	0	0	0	0	0	0	0	0	0	0	0	0
071012	19:56:02	10024	Trial3BackFr	NN	4	57	730	0	108	19:56:02	1172709	0	0	0	0	0	0	0	0	0	0	0	0	0	0	0	0	0
071012	19:56:02	10024	Trial3BackFr	NN	4	57	760	0	108	19:56:02	1174255	0	0	0	0	0	0	0	0	0	0	0	0	0	0	0	0	0
071012	19:56:02	10024	Trial3BackFr	NN	4	57	915	0	108	19:56:02	1175894	0	0	0	0	0	0	0	0	0	0	0	0	0	0	0	0	0
071012	19:56:02	10024	Trial3BackFr	NN	4	0	1000	1	108	19:56:02	1177480	0	0	0	0	0	0	0	0	0	0	0	0	0	0	0	0	0
071012	19:56:02	10024	Trial3BackFr	NN	4	0	1000	1	108	19:56:02	1179000	0	0	0	0	0	0	0	0	0	0	0	0	0	0	0	0	0
071012	19:56:02	10024	Trial3BackFr	NN	4	0	1000	1	108	19:56:02	1180519	0	0	0	0	0	0	0	0	0	0	0	0	0	0	0	0	0
071012	19:56:02	10024	Trial3BackFr	NN	4	57	563	0	108	19:56:02	1181612	0	0	0	0	0	0	0	0	0	0	0	0	0	0	0	0	0
071012	19:56:02	10024	Trial3BackFr	YY	4	0	1000	0	108	19:56:02	1183544	0	0	0	0	0	0	0	0	0	0	0	0	0	0	0	0	0
071012	19:56:02	10024	Trial3BackFr	NN	4	0	1000	1	108	19:56:02	1185064	0	0	0	0	0	0	0	0	0	0	0	0	0	0	0	0	0
071012	19:56:02	10024	Trial3BackFr	NN	4	57	818	0	108	19:56:02	1186410	0	0	0	0	0	0	0	0	0	0	0	0	0	0	0	0	0
071012	19:56:02	10024	Trial3BackFr	NN	4	0	1000	1	108	19:56:02	1188089	0	0	0	0	0	0	0	0	0	0	0	0	0	0	0	0	0
071012	19:56:02	10024	Trial3BackFr	NN	4	0	1000	1	108	19:56:02	1189609	0	0	0	0	0	0	0	0	0	0	0	0	0	0	0	0	0
071012	19:56:02	10024	Trial3BackFr	YY	4	57	481	1	108	19:56:02	1190621	0	0	0	0	0	0	0	0	0	0	0	0	0	0	0	0	0
071012	19:56:02	10024	Trial3BackFr	NN	4	0	1000	1	108	19:56:02	1192634	0	0	0	0	0	0	0	0	0	0	0	0	0	0	0	0	0
071012	19:56:02	10024	Trial3BackFr	NN	4	0	1000	1	108	19:56:02	1194153	0	0	0	0	0	0	0	0	0	0	0	0	0	0	0	0	0
071012	19:56:02	10024	Trial3BackFr	NN	4	0	1000	1	108	19:56:02	1195673	0	0	0	0	0	0	0	0	0	0	0	0	0	0	0	0	0
071012	19:56:02	10024	Trial3BackFr	NN	4	0	1000	1	108	19:56:02	1197192	0	0	0	0	0	0	0	0	0	0	0	0	0	0	0	0	0
071012	19:56:02	10024	Trial3BackFr	NN	4	0	1000	1	108	19:56:02	1198712	0	0	0	0	0	0	0	0	0	0	0	0	0	0	0	0	0
071012	19:56:02	10024	Trial3BackFr	YY	4	57	530	1	108	19:56:02	1199764	0	0	0	0	0	0	0	0	0	0	0	0	0	0	0	0	0
071012	19:56:02	10024	Trial3BackFr	NN	4	57	719	0	108	19:56:02	1201470	0	0	0	0	0	0	0	0	0	0	0	0	0	0	0	0	0
071012	19:56:02	10024	Trial3BackFr	NN	4	0	1000	1	108	19:56:02	1203230	0	0	0	0	0	0	0	0	0	0	0	0	0	0	0	0	0
071012	19:56:02	10024	Trial3BackFr	NN	4	0	1000	1	108	19:56:02	1204749	0	0	0	0	0	0	0	0	0	0	0	0	0	0	0	0	0
071012	19:56:02	10024	Trial3BackFr	NN	4	0	1000	1	108	19:56:02	1206268	0	0	0	0	0	0	0	0	0	0	0	0	0	0	0	0	0
071012	19:56:02	10024	Trial3BackFr	NN	4	57	580	0	108	19:56:02	1207414	0	0	0	0	0	0	0	0	0	0	0	0	0	0	0	0	0
071012	19:56:02	10024	Trial3BackFr	NN	4	0	1000	1	108	19:56:02	1209334	0	0	0	0	0	0	0	0	0	0	0	0	0	0	0	0	0
071012	19:56:02	10024	Trial3BackFr	YY	4	57	723	1	108	19:56:02	1210587	0	0	0	0	0	0	0	0	0	0	0	0	0	0	0	0	0
071012	19:56:02	10024	Trial3BackFr	NN	4	57	641	0	108	19:56:02	1212013	0	0	0	0	0	0	0	0	0	0	0	0	0	0	0	0	0
071012	19:56:02	10024	Trial3BackFr	NN	4	57	652	0	108	19:56:02	1213519	0	0	0	0	0	0	0	0	0	0	0	0	0	0	0	0	0
071012	19:56:02	10024	Trial3BackFr	NN	4	0	1000	1	108	19:56:02	1215358	0	0	0	0	0	0	0	0	0	0	0	0	0	0	0	0	0
071012	19:56:02	10024	Trial3BackFr	YY	4	57	747	1	108	19:56:02	1216638	0	0	0	0	0	0	0	0	0	0	0	0	0	0	0	0	0
071012	19:56:02	10024	Trial3BackFr	NN	4	0	1000	1	108	19:56:02	1218383	0	0	0	0	0	0	0	0	0	0	0	0	0	0	0	0	0
071012	19:56:02	10024	Trial3BackFr	NN	4	57	601	0	108	19:56:02	1219516	0	0	0	0	0	0	0	0	0	0	0	0	0	0	0	0	0
071012	19:56:02	10024	Trial3BackFr	NN	4	0	1000	1	108	19:56:02	1221409	0	0	0	0	0	0	0	0	0	0	0	0	0	0	0	0	0
071012	19:56:02	10024	Trial3BackFr	NN	4	57	711	0	108	19:56:02	1222648	0	0	0	0	0	0	0	0	0	0	0	0	0	0	0	0	0
071012	19:56:02	10024	Trial3BackFr	NN	4	0	1000	1	108	19:56:02	1224434	0	0	0	0	0	0	0	0	0	0	0	0	0	0	0	0	0
071012	19:56:02	10024	Trial3BackFr	NN	4	0	1000	1	108	19:56:02	1225954	0	0	0	0	0	0	0	0	0	0	0	0	0	0	0	0	0
071012	19:56:02	10024	Trial3BackFr	NN	4	57	727	0	108	19:56:02	1227207	0	0	0	0	0	0	0	0	0	0	0	0	0	0	0	0	0
071012	19:56:02	10024	Trial3BackFr	NN	4	0	1000	1	108	19:56:02	1228979	0	0	0	0	0	0	0	0	0	0	0	0	0	0	0	0	0
071012	19:56:02	10024	Trial3BackFr	NN	4	0	1000	1	108	19:56:02	1230499	0	0	0	0	0	0	0	0	0	0	0	0	0	0	0	0	0
071012	19:56:02	10024	Trial3BackFr	YY	4	57	582	1	108	19:56:02	1231605	0	0	0	0	0	0	0	0	0	0	0	0	0	0	0	0	0
071012	19:56:02	10024	Trial3BackFr	NN	4	0	1000	1	108	19:56:02	1233524	0	0	0	0	0	0	0	0	0	0	0	0	0	0	0	0	0
071012	19:56:02	10024	Trial3BackFr	NN	4	0	1000	1	108	19:56:02	1235044	0	0	0	0	0	0	0	0	0	0	0	0	0	0	0	0	0
071012	19:56:02	10024	Trial3BackFr	NN	4	0	1000	1	108	19:56:02	1236563	0	0	0	0	0	0	0	0	0	0	0	0	0	0	0	0	0
071012	19:56:02	10024	Trial3BackFr	YY	4	57	549	1	108	19:56:02	1237643	0	0	0	0	0	0	0	0	0	0	0	0	0	0	0	0	0
071012	19:56:02	10024	Trial3BackFr	NN	4	0	1000	1	108	19:56:02	1239588	0	0	0	0	0	0	0	0	0	0	0	0	0	0	0	0	0
071012	19:56:02	10024	Trial3BackFr	NN	4	0	1000	1	108	19:56:02	1241108	0	0	0	0	0	0	0	0	0	0	0	0	0	0	0	0	0
071012	19:56:02	10024	Trial3BackFr	NN	4	0	1000	1	108	19:56:02	1242627	0	0	0	0	0	0	0	0	0	0	0	0	0	0	0	0	0
071012	19:56:02	10024	Trial3BackFr	NN	4	0	1000	1	108	19:56:02	1244146	0	0	0	0	0	0	0	0	0	0	0	0	0	0	0	0	0
071012	19:56:02	10024	Trial3BackFr	NN	4	0	1000	1	108	19:56:02	1245666	0	0	0	0	0	0	0	0	0	0	0	0	0	0	0	0	0
071012	19:56:02	10024	Trial3BackFr	YY	4	57	614	1	108	19:56:02	1246812	0	0	0	0	0	0	0	0	0	0	0	0	0	0	0	0	0
071012	19:56:02	10024	Trial3BackFr	NN	4	0	1000	1	108	19:56:02	1248691	0	0	0	0	0	0	0	0	0	0	0	0	0	0	0	0	0
071012	19:56:02	10024	Trial3BackFr	NN	4	0	1000	1	108	19:56:02	1250211	0	0	0	0	0	0	0	0	0	0	0	0	0	0	0	0	0
071012	19:56:02	10024	Trial3BackFr	NN	4	0	1000	1	108	19:56:02	1251730	0	0	0	0	0	0	0	0	0	0	0	0	0	0	0	0	0
071012	19:56:02	10024	Trial3BackFr	NN	4	0	1000	1	108	19:56:02	1253250	0	0	0	0	0	0	0	0	0	0	0	0	0	0	0	0	0
071012	19:56:02	10024	Trial3BackFr	NN	4	0	1000	1	108	19:56:02	1254769	0	0	0	0	0	0	0	0	0	0	0	0	0	0	0	0	0
071012	19:56:02	10024	Trial3BackFr	NN	4	57	679	0	108	19:56:02	1255982	0	0	0	0	0	0	0	0	0	0	0	0	0	0	0	0	0
071012	19:56:02	10024	Trial3BackFr	NN	4	0	1000	1	108	19:56:02	1257794	0	0	0	0	0	0	0	0	0	0	0	0	0	0	0	0	0
071012	19:56:02	10024	Trial3BackFr	NN	4	0	1000	1	108	19:56:02	1259314	0	0	0	0	0	0	0	0	0	0	0	0	0	0	0	0	0
071012	19:56:02	10024	Trial3BackFr	NN	4	0	1000	1	108	19:56:02	1260833	0	0	0	0	0	0	0	0	0	0	0	0	0	0	0	0	0
071012	19:56:02	10024	Trial3BackFr	YY	4	57	710	1	108	19:56:02	1262073	0	0	0	0	0	0	0	0	0	0	0	0	0	0	0	0	0
071012	19:56:02	10024	Trial3BackFr	NN	4	0	1000	1	108	19:56:02	1263859	0	0	0	0	0	0	0	0	0	0	0	0	0	0	0	0	0
071012	19:56:02	10024	Trial3BackFr	NN	4	0	1000	1	108	19:56:02	1265378	0	0	0	0	0	0	0	0	0	0	0	0	0	0	0	0	0
071012	19:56:02	10024	Trial3BackFr	NN	4	57	646	0	108	19:56:02	1266551	0	0	0	0	0	0	0	0	0	0	0	0	0	0	0	0	0
071012	19:56:02	10024	Trial3BackFr	NN	4	0	1000	1	108	19:56:02	1268403	0	0	0	0	0	0	0	0	0	0	0	0	0	0	0	0	0
071012	19:56:02	10024	Trial3BackFr	NN	4	0	1000	1	108	19:56:02	1269923	0	0	0	0	0	0	0	0	0	0	0	0	0	0	0	0	0
071012	19:56:02	10024	Trial3BackFr	NN	4	0	1000	1	108	19:56:02	1271442	0	0	0	0	0	0	0	0	0	0	0	0	0	0	0	0	0
071012	19:56:02	10024	Trial3BackFr	NN	4	0	1000	1	108	19:56:02	1272962	0	0	0	0	0	0	0	0	0	0	0	0	0	0	0	0	0
071012	19:56:02	10024	Trial3BackFr	NN	4	0	1000	1	108	19:56:02	1274481	0	0	0	0	0	0	0	0	0	0	0	0	0	0	0	0	0
071012	19:56:02	10024	Trial3BackFr	YY	4	57	470	1	108	19:56:02	1275480	0	0	0	0	0	0	0	0	0	0	0	0	0	0	0	0	0
071012	19:56:02	10024	Trial3BackFr	NN	4	0	1000	1	108	19:56:02	1277507	0	0	0	0	0	0	0	0	0	0	0	0	0	0	0	0	0
071012	19:56:02	10024	Trial3BackFr	NN	4	0	1000	1	108	19:56:02	1279026	0	0	0	0	0	0	0	0	0	0	0	0	0	0	0	0	0
071012	19:56:02	10024	Trial3BackFr	NN	4	0	1000	1	108	19:56:02	1280545	0	0	0	0	0	0	0	0	0	0	0	0	0	0	0	0	0
071012	19:56:02	10024	Trial3BackFr	NN	4	0	1000	1	108	19:56:02	1282065	0	0	0	0	0	0	0	0	0	0	0	0	0	0	0	0	0
071012	19:56:02	10024	Trial3BackFr	YY	4	57	551	1	108	19:56:02	1283144	0	0	0	0	0	0	0	0	0	0	0	0	0	0	0	0	0
071012	19:56:02	10024	Trial3BackFr	NN	4	0	1000	1	108	19:56:02	1285090	0	0	0	0	0	0	0	0	0	0	0	0	0	0	0	0	0
071012	19:56:02	10024	Trial3BackFr	NN	4	0	1000	1	108	19:56:02	1286609	0	0	0	0	0	0	0	0	0	0	0	0	0	0	0	0	0
071012	19:56:02	10024	Trial3BackFr	NN	4	0	1000	1	108	19:56:02	1288129	0	0	0	0	0	0	0	0	0	0	0	0	0	0	0	0	0
071012	19:56:02	10024	Trial3BackFr	YY	4	57	502	1	108	19:56:02	1289155	0	0	0	0	0	0	0	0	0	0	0	0	0	0	0	0	0
071012	19:56:02	10024	Trial3BackFr	NN	4	0	1000	1	108	19:56:02	1291154	0	0	0	0	0	0	0	0	0	0	0	0	0	0	0	0	0
071012	19:56:02	10024	Trial3BackFr	NN	4	0	1000	1	108	19:56:02	1292674	0	0	0	0	0	0	0	0	0	0	0	0	0	0	0	0	0
071012	19:56:02	10024	Trial3BackFr	NN	4	0	1000	1	108	19:56:02	1294193	0	0	0	0	0	0	0	0	0	0	0	0	0	0	0	0	0
071012	19:56:02	10024	Trial3BackFr	NN	4	0	1000	1	108	19:56:02	1295712	0	0	0	0	0	0	0	0	0	0	0	0	0	0	0	0	0
071012	19:56:02	10024	Trial3BackFr	NN	4	0	1000	1	108	19:56:02	1297232	0	0	0	0	0	0	0	0	0	0	0	0	0	0	0	0	0
071012	19:56:02	10024	Trial3BackFr	YY	4	0	1000	0	108	19:56:02	1298751	0	0	0	0	0	0	0	0	0	0	0	0	0	0	0	0	0
071012	19:56:02	10024	Trial3BackFr	NN	4	0	1000	1	108	19:56:02	1300270	0	0	0	0	0	0	0	0	0	0	0	0	0	0	0	0	0
071012	19:56:02	10024	Trial3BackFr	NN	4	0	1000	1	108	19:56:02	1301790	0	0	0	0	0	0	0	0	0	0	0	0	0	0	0	0	0
071012	19:56:02	10024	Trial3BackFr	NN	4	0	1000	1	108	19:56:02	1303309	0	0	0	0	0	0	0	0	0	0	0	0	0	0	0	0	0
071012	19:56:02	10024	Trial3BackFr	YY	4	57	538	1	108	19:56:02	1304375	0	0	0	0	0	0	0	0	0	0	0	0	0	0	0	0	0
071012	19:56:02	10024	Memory1RBaselineFr	ScoreFr	5	M1	22047	0	108	19:56:02	1378240	0	0	0	0	0	0	0	0	0	0	0	0	0	0	0	0	0
071012	19:56:02	10024	Memory1RBaselineFr	ScoreFr	5	M3	2101	0	108	19:56:02	1380385	0	0	0	0	0	0	0	0	0	0	0	0	0	0	0	0	0
071012	19:56:02	10024	Memory1RBaselineFr	ScoreFr	5	M6	1995	0	108	19:56:02	1382424	0	0	0	0	0	0	0	0	0	0	0	0	0	0	0	0	0
071012	19:56:02	10024	Memory1RBaselineFr	ScoreFr	5	Done	987	0	108	19:56:02	1383450	0	0	0	0	0	0	0	0	0	0	0	0	0	0	0	0	0
071012	19:56:02	10024	Memory2RBaselineFr	ScoreFr2	5	11	31588	0	108	19:56:02	1432777	0	0	0	0	0	0	0	0	0	0	0	0	0	0	0	0	0
071012	19:56:02	10024	Memory2RBaselineFr	ScoreFr2	5	44	745	0	108	19:56:02	1433563	0	0	0	0	0	0	0	0	0	0	0	0	0	0	0	0	0
071012	19:56:02	10024	Memory2RBaselineFr	ScoreFr2	5	55	247	0	108	19:56:02	1433857	0	0	0	0	0	0	0	0	0	0	0	0	0	0	0	0	0
071012	19:56:02	10024	Memory2RBaselineFr	ScoreFr2	5	66	242	0	108	19:56:02	1434137	0	0	0	0	0	0	0	0	0	0	0	0	0	0	0	0	0
071012	19:56:02	10024	Memory2RBaselineFr	ScoreFr2	5	77	258	0	108	19:56:02	1434430	0	0	0	0	0	0	0	0	0	0	0	0	0	0	0	0	0
071012	19:56:02	10024	Memory2RBaselineFr	ScoreFr2	5	88	612	0	108	19:56:02	1435083	0	0	0	0	0	0	0	0	0	0	0	0	0	0	0	0	0
071012	19:56:02	10024	Memory2RBaselineFr	ScoreFr2	5	Done	776	0	108	19:56:02	1435896	0	0	0	0	0	0	0	0	0	0	0	0	0	0	0	0	0
071012	19:56:02	10024	Memory3RBaselineFr	ScoreFr3	5	111	25428	0	108	19:56:02	1481411	0	0	0	0	0	0	0	0	0	0	0	0	0	0	0	0	0
071012	19:56:02	10024	Memory3RBaselineFr	ScoreFr3	5	222	319	0	108	19:56:02	1481771	0	0	0	0	0	0	0	0	0	0	0	0	0	0	0	0	0
071012	19:56:02	10024	Memory3RBaselineFr	ScoreFr3	5	333	263	0	108	19:56:02	1482077	0	0	0	0	0	0	0	0	0	0	0	0	0	0	0	0	0
071012	19:56:02	10024	Memory3RBaselineFr	ScoreFr3	5	444	652	0	108	19:56:02	1482770	0	0	0	0	0	0	0	0	0	0	0	0	0	0	0	0	0
071012	19:56:02	10024	Memory3RBaselineFr	ScoreFr3	5	555	231	0	108	19:56:02	1483037	0	0	0	0	0	0	0	0	0	0	0	0	0	0	0	0	0
071012	19:56:02	10024	Memory3RBaselineFr	ScoreFr3	5	666	269	0	108	19:56:02	1483343	0	0	0	0	0	0	0	0	0	0	0	0	0	0	0	0	0
071012	19:56:02	10024	Memory3RBaselineFr	ScoreFr3	5	888	298	0	108	19:56:02	1483676	0	0	0	0	0	0	0	0	0	0	0	0	0	0	0	0	0
071012	19:56:02	10024	Memory3RBaselineFr	ScoreFr3	5	777	421	0	108	19:56:02	1484143	0	0	0	0	0	0	0	0	0	0	0	0	0	0	0	0	0
071012	19:56:02	10024	Memory3RBaselineFr	ScoreFr3	5	Done	15242	0	108	19:56:02	1499430	0	0	0	0	0	0	0	0	0	0	0	0	0	0	0	0	0
071012	19:56:02	10024	LoriaFrLH3	Stop	6	3	4407	0	108	19:56:02	1592261	0	0	0	0	0	0	0	0	0	0	0	0	0	0	0	0	0
071012	19:56:02	10024	FrTrail	Trails	7	1Trails	1190	0	108	19:56:02	1621394	0	0	0	0	0	0	0	0	0	0	0	0	0	0	0	0	0
071012	19:56:02	10024	Serial7FrBaseline	Serial7FrBaseline	8	83	3060	0	108	19:56:02	1667576	1	0	0	0	0	0	0	0	0	0	0	0	0	0	0	0	0
071012	19:56:02	10024	Serial7FrBaseline	Serial7FrBaseline	8	76	2689	0	108	19:56:02	1670282	2	0	0	0	0	0	0	0	0	0	0	0	0	0	0	0	0
071012	19:56:02	10024	Serial7FrBaseline	Serial7FrBaseline	8	69	2728	0	108	19:56:02	1673028	3	0	0	0	0	0	0	0	0	0	0	0	0	0	0	0	0
071012	19:56:02	10024	Serial7FrBaseline	Serial7FrBaseline	8	62	2814	0	108	19:56:02	1675867	4	0	0	0	0	0	0	0	0	0	0	0	0	0	0	0	0
071012	19:56:02	10024	Serial7FrBaseline	Serial7FrBaseline	8	55	2711	0	108	19:56:02	1678599	5	0	0	0	0	0	0	0	0	0	0	0	0	0	0	0	0
071012	19:56:02	10024	corsiblockFrFwrd	recallseqFrFwrd	9	1	3630	0	108	19:56:02	1736096	5	0	0	0	0	0	0	0	0	0	0	0	0	0	0	0	0
071012	19:56:02	10024	corsiblockFrFwrd	recallseqFrFwrd	9	9	1581	0	108	19:56:02	1737722	5	0	0	0	0	0	0	0	0	0	0	0	0	0	0	0	0
071012	19:56:02	10024	corsiblockFrFwrd	recallseqFrFwrd	9	doneCorsiFr	2003	0	108	19:56:02	1739761	5	0	0	0	0	0	0	0	0	0	0	0	0	0	0	2	0
071012	19:56:02	10024	corsiblockFrFwrd	recallseqFrFwrd	9	8	1848	0	108	19:56:02	1747705	5	0	0	0	0	0	0	0	0	0	0	0	0	0	0	2	0
071012	19:56:02	10024	corsiblockFrFwrd	recallseqFrFwrd	9	4	1043	0	108	19:56:02	1748784	5	0	0	0	0	0	0	0	0	0	0	0	0	0	0	2	0
071012	19:56:02	10024	corsiblockFrFwrd	recallseqFrFwrd	9	6	740	0	108	19:56:02	1749557	5	0	0	0	0	0	0	0	0	0	0	0	0	0	0	2	0
071012	19:56:02	10024	corsiblockFrFwrd	recallseqFrFwrd	9	doneCorsiFr	1055	0	108	19:56:02	1750650	5	0	0	0	0	0	0	0	0	0	0	0	0	0	0	3	0
071012	19:56:02	10024	corsiblockFrFwrd	recallseqFrFwrd	9	2	1967	0	108	19:56:02	1759713	5	0	0	0	0	0	0	0	0	0	0	0	0	0	0	3	0
071012	19:56:02	10024	corsiblockFrFwrd	recallseqFrFwrd	9	5	1635	0	108	19:56:02	1761392	5	0	0	0	0	0	0	0	0	0	0	0	0	0	0	3	0
071012	19:56:02	10024	corsiblockFrFwrd	recallseqFrFwrd	9	7	2220	0	108	19:56:02	1763645	5	0	0	0	0	0	0	0	0	0	0	0	0	0	0	3	0
071012	19:56:02	10024	corsiblockFrFwrd	recallseqFrFwrd	9	3	1048	0	108	19:56:02	1764738	5	0	0	0	0	0	0	0	0	0	0	0	0	0	0	3	0
071012	19:56:02	10024	corsiblockFrFwrd	recallseqFrFwrd	9	doneCorsiFr	1522	0	108	19:56:02	1766297	5	0	0	0	0	0	0	0	0	0	0	0	0	0	0	4	0
071012	19:56:02	10024	corsiblockFrFwrd	recallseqFrFwrd	9	9	1193	0	108	19:56:02	1775573	5	0	0	0	0	0	0	0	0	0	0	0	0	0	0	4	0
071012	19:56:02	10024	corsiblockFrFwrd	recallseqFrFwrd	9	8	982	0	108	19:56:02	1776600	5	0	0	0	0	0	0	0	0	0	0	0	0	0	0	4	0
071012	19:56:02	10024	corsiblockFrFwrd	recallseqFrFwrd	9	3	1012	0	108	19:56:02	1777652	5	0	0	0	0	0	0	0	0	0	0	0	0	0	0	4	0
071012	19:56:02	10024	corsiblockFrFwrd	recallseqFrFwrd	9	2	887	0	108	19:56:02	1778585	5	0	0	0	0	0	0	0	0	0	0	0	0	0	0	4	0
071012	19:56:02	10024	corsiblockFrFwrd	recallseqFrFwrd	9	5	1618	0	108	19:56:02	1780238	5	0	0	0	0	0	0	0	0	0	0	0	0	0	0	4	0
071012	19:56:02	10024	corsiblockFrFwrd	recallseqFrFwrd	9	doneCorsiFr	950	0	108	19:56:02	1781224	5	0	0	0	0	0	0	0	0	0	0	0	0	0	0	4	0
071012	19:56:02	10024	corsiblockFrFwrd	recallseqFrFwrd	9	4	1849	0	108	19:56:02	1791127	5	0	0	0	0	0	0	0	0	0	0	0	0	0	0	4	0
071012	19:56:02	10024	corsiblockFrFwrd	recallseqFrFwrd	9	1	1244	0	108	19:56:02	1792407	5	0	0	0	0	0	0	0	0	0	0	0	0	0	0	4	0
071012	19:56:02	10024	corsiblockFrFwrd	recallseqFrFwrd	9	9	1037	0	108	19:56:02	1793486	5	0	0	0	0	0	0	0	0	0	0	0	0	0	0	4	0
071012	19:56:02	10024	corsiblockFrFwrd	recallseqFrFwrd	9	5	981	0	108	19:56:02	1794512	5	0	0	0	0	0	0	0	0	0	0	0	0	0	0	4	0
071012	19:56:02	10024	corsiblockFrFwrd	recallseqFrFwrd	9	doneCorsiFr	2827	0	108	19:56:02	1797378	5	0	0	0	0	0	0	0	0	0	0	0	0	0	0	4	0
071012	19:56:02	10024	corsiblockFrRev	recallseqFrRev	10	5	1578	0	108	19:56:02	1814798	5	0	0	0	0	0	0	0	0	0	0	0	0	0	0	4	0
071012	19:56:02	10024	corsiblockFrRev	recallseqFrRev	10	4	797	0	108	19:56:02	1815637	5	0	0	0	0	0	0	0	0	0	0	0	0	0	0	4	0
071012	19:56:02	10024	corsiblockFrRev	recallseqFrRev	10	resetCorsiFr	2342	0	108	19:56:02	1818023	5	0	0	0	0	0	0	0	0	0	0	0	0	0	0	4	0
071012	19:56:02	10024	corsiblockFrRev	recallseqFrRev	10	4	908	0	108	19:56:02	1818969	5	0	0	0	0	0	0	0	0	0	0	0	0	0	0	4	0
071012	19:56:02	10024	corsiblockFrRev	recallseqFrRev	10	5	770	0	108	19:56:02	1819782	5	0	0	0	0	0	0	0	0	0	0	0	0	0	0	4	0
071012	19:56:02	10024	corsiblockFrRev	recallseqFrRev	10	doneCorsiFr	829	0	108	19:56:02	1820648	5	0	0	0	0	0	0	0	0	0	0	0	0	0	0	4	2
071012	19:56:02	10024	corsiblockFrRev	recallseqFrRev	10	1	1471	0	108	19:56:02	1828205	5	0	0	0	0	0	0	0	0	0	0	0	0	0	0	4	2
071012	19:56:02	10024	corsiblockFrRev	recallseqFrRev	10	2	677	0	108	19:56:02	1828925	5	0	0	0	0	0	0	0	0	0	0	0	0	0	0	4	2
071012	19:56:02	10024	corsiblockFrRev	recallseqFrRev	10	7	518	0	108	19:56:02	1829485	5	0	0	0	0	0	0	0	0	0	0	0	0	0	0	4	2
071012	19:56:02	10024	corsiblockFrRev	recallseqFrRev	10	doneCorsiFr	942	0	108	19:56:02	1830471	5	0	0	0	0	0	0	0	0	0	0	0	0	0	0	4	3
071012	19:56:02	10024	corsiblockFrRev	recallseqFrRev	10	6	865	0	108	19:56:02	1838428	5	0	0	0	0	0	0	0	0	0	0	0	0	0	0	4	3
071012	19:56:02	10024	corsiblockFrRev	recallseqFrRev	10	8	782	0	108	19:56:02	1839254	5	0	0	0	0	0	0	0	0	0	0	0	0	0	0	4	3
071012	19:56:02	10024	corsiblockFrRev	recallseqFrRev	10	3	996	0	108	19:56:02	1840294	5	0	0	0	0	0	0	0	0	0	0	0	0	0	0	4	3
071012	19:56:02	10024	corsiblockFrRev	recallseqFrRev	10	2	517	0	108	19:56:02	1840854	5	0	0	0	0	0	0	0	0	0	0	0	0	0	0	4	3
071012	19:56:02	10024	corsiblockFrRev	recallseqFrRev	10	9	1237	0	108	19:56:02	1842133	5	0	0	0	0	0	0	0	0	0	0	0	0	0	0	4	3
071012	19:56:02	10024	corsiblockFrRev	recallseqFrRev	10	doneCorsiFr	1293	0	108	19:56:02	1843466	5	0	0	0	0	0	0	0	0	0	0	0	0	0	0	4	3
071012	19:56:02	10024	corsiblockFrRev	recallseqFrRev	10	2	1013	0	108	19:56:02	1851529	5	0	0	0	0	0	0	0	0	0	0	0	0	0	0	4	3
071012	19:56:02	10024	corsiblockFrRev	recallseqFrRev	10	7	633	0	108	19:56:02	1852196	5	0	0	0	0	0	0	0	0	0	0	0	0	0	0	4	3
071012	19:56:02	10024	corsiblockFrRev	recallseqFrRev	10	6	646	0	108	19:56:02	1852875	5	0	0	0	0	0	0	0	0	0	0	0	0	0	0	4	3
071012	19:56:02	10024	corsiblockFrRev	recallseqFrRev	10	5	543	0	108	19:56:02	1853462	5	0	0	0	0	0	0	0	0	0	0	0	0	0	0	4	3
071012	19:56:02	10024	corsiblockFrRev	recallseqFrRev	10	doneCorsiFr	844	0	108	19:56:02	1854342	5	0	0	0	0	0	0	0	0	0	0	0	0	0	0	4	4
071012	19:56:02	10024	corsiblockFrRev	recallseqFrRev	10	1	698	0	108	19:56:02	1862125	5	0	0	0	0	0	0	0	0	0	0	0	0	0	0	4	4
071012	19:56:02	10024	corsiblockFrRev	recallseqFrRev	10	4	781	0	108	19:56:02	1862951	5	0	0	0	0	0	0	0	0	0	0	0	0	0	0	4	4
071012	19:56:02	10024	corsiblockFrRev	recallseqFrRev	10	8	650	0	108	19:56:02	1863644	5	0	0	0	0	0	0	0	0	0	0	0	0	0	0	4	4
071012	19:56:02	10024	corsiblockFrRev	recallseqFrRev	10	9	693	0	108	19:56:02	1864377	5	0	0	0	0	0	0	0	0	0	0	0	0	0	0	4	4
071012	19:56:02	10024	corsiblockFrRev	recallseqFrRev	10	3	816	0	108	19:56:02	1865230	5	0	0	0	0	0	0	0	0	0	0	0	0	0	0	4	4
071012	19:56:02	10024	corsiblockFrRev	recallseqFrRev	10	doneCorsiFr	1115	0	108	19:56:02	1866390	5	0	0	0	0	0	0	0	0	0	0	0	0	0	0	4	5
071012	19:56:02	10024	corsiblockFrRev	recallseqFrRev	10	6	986	0	108	19:56:02	1876466	5	0	0	0	0	0	0	0	0	0	0	0	0	0	0	4	5
071012	19:56:02	10024	corsiblockFrRev	recallseqFrRev	10	7	928	0	108	19:56:02	1877439	5	0	0	0	0	0	0	0	0	0	0	0	0	0	0	4	5
071012	19:56:02	10024	corsiblockFrRev	recallseqFrRev	10	8	531	0	108	19:56:02	1878012	5	0	0	0	0	0	0	0	0	0	0	0	0	0	0	4	5
071012	19:56:02	10024	corsiblockFrRev	recallseqFrRev	10	2	1573	0	108	19:56:02	1879625	5	0	0	0	0	0	0	0	0	0	0	0	0	0	0	4	5
071012	19:56:02	10024	corsiblockFrRev	recallseqFrRev	10	4	625	0	108	19:56:02	1880291	5	0	0	0	0	0	0	0	0	0	0	0	0	0	0	4	5
071012	19:56:02	10024	corsiblockFrRev	recallseqFrRev	10	3	814	0	108	19:56:02	1881144	5	0	0	0	0	0	0	0	0	0	0	0	0	0	0	4	5
071012	19:56:02	10024	corsiblockFrRev	recallseqFrRev	10	doneCorsiFr	1057	0	108	19:56:02	1882237	5	0	0	0	0	0	0	0	0	0	0	0	0	0	0	4	5
071012	19:56:02	10024	corsiblockFrRev	recallseqFrRev	10	9	1147	0	108	19:56:02	1892433	5	0	0	0	0	0	0	0	0	0	0	0	0	0	0	4	5
071012	19:56:02	10024	corsiblockFrRev	recallseqFrRev	10	5	1096	0	108	19:56:02	1893566	5	0	0	0	0	0	0	0	0	0	0	0	0	0	0	4	5
071012	19:56:02	10024	corsiblockFrRev	recallseqFrRev	10	4	892	0	108	19:56:02	1894499	5	0	0	0	0	0	0	0	0	0	0	0	0	0	0	4	5
071012	19:56:02	10024	corsiblockFrRev	recallseqFrRev	10	1	710	0	108	19:56:02	1895245	5	0	0	0	0	0	0	0	0	0	0	0	0	0	0	4	5
071012	19:56:02	10024	corsiblockFrRev	recallseqFrRev	10	4	788	0	108	19:56:02	1896071	5	0	0	0	0	0	0	0	0	0	0	0	0	0	0	4	5
071012	19:56:02	10024	corsiblockFrRev	recallseqFrRev	10	7	770	0	108	19:56:02	1896884	5	0	0	0	0	0	0	0	0	0	0	0	0	0	0	4	5
071012	19:56:02	10024	corsiblockFrRev	recallseqFrRev	10	doneCorsiFr	957	0	108	19:56:02	1897884	5	0	0	0	0	0	0	0	0	0	0	0	0	0	0	4	5
071012	19:56:02	10024	testFrBaseline	WordsFrBaseline	11	2FrBaseline	1918	0	108	19:56:02	1920529	5	0	1	0	0	0	0	0	0	0	0	0	0	0	0	4	5
071012	19:56:02	10024	testFrBaseline	WordsFrBaseline	11	1FrBaseline	681	0	108	19:56:02	1921248	5	1	1	0	0	0	0	0	0	0	0	0	0	0	0	4	5
071012	19:56:02	10024	testFrBaseline	WordsFrBaseline	11	3FrBaseline	361	0	108	19:56:02	1921648	5	1	1	1	0	0	0	0	0	0	0	0	0	0	0	4	5
071012	19:56:02	10024	testFrBaseline	WordsFrBaseline	11	5FrBaseline	2433	0	108	19:56:02	1924127	5	1	1	1	0	1	0	0	0	0	0	0	0	0	0	4	5
071012	19:56:02	10024	testFrBaseline	WordsFrBaseline	11	7FrBaseline	2065	0	108	19:56:02	1926233	5	1	1	1	0	1	0	1	0	0	0	0	0	0	0	4	5
071012	19:56:02	10024	testFrBaseline	WordsFrBaseline	11	8FrBaseline	288	0	108	19:56:02	1926566	5	1	1	1	0	1	0	1	1	0	0	0	0	0	0	4	5
071012	19:56:02	10024	testFrBaseline	WordsFrBaseline	11	DoneFrBaseline	17995	0	108	19:56:02	1944599	5	1	1	1	0	1	0	1	1	0	0	0	0	0	0	4	5
071012	19:56:02	10024	testFrBaseline	Cat4FrBaseline	11	0	1	0	108	19:56:02	1944618	5	1	1	1	0	1	0	1	1	0	0	0	0	0	0	4	5
071012	19:56:02	10024	testFrBaseline	Ch4FrBaseline	11	RR4FrBaseline	2467	0	108	19:56:02	1947117	5	1	1	1	3	1	0	1	1	0	0	0	0	0	0	4	5
071012	19:56:02	10024	testFrBaseline	Cat6FrBaseline	11	W6FrBaseline	10099	0	108	19:56:02	1957260	5	1	1	1	3	1	0	1	1	0	0	0	0	0	0	4	5
071012	19:56:02	10024	testFrBaseline	Ch6FrBaseline	11	RR6FrBaseline	4804	0	108	19:56:02	1962098	5	1	1	1	3	1	3	1	1	0	0	0	0	0	0	4	5
071012	19:56:02	10024	DigitSpanFwrdFrBaseline	Score1FwrdFrBaseline	12	DS1	4524	0	108	19:56:02	1988673	5	1	1	1	3	1	3	1	1	0	0	0	0	0	0	4	5
071012	19:56:02	10024	DigitSpanFwrdFrBaseline	Gate1FwrdFrBaseline	12	0	1	0	108	19:56:02	1988689	5	1	1	1	3	1	3	1	1	3	0	0	0	0	0	4	5
071012	19:56:02	10024	DigitSpanFwrdFrBaseline	Score2FwrdFrBaseline	12	DS1	3643	0	108	19:56:02	1998523	5	1	1	1	3	1	3	1	1	3	0	0	0	0	0	4	5
071012	19:56:02	10024	DigitSpanFwrdFrBaseline	Gate3FwrdFrBaseline	12	0	1	0	108	19:56:02	1998538	5	1	1	1	3	1	3	1	1	4	0	0	0	0	0	4	5
071012	19:56:02	10024	DigitSpanFwrdFrBaseline	Score3FwrdFrBaseline	12	DS1	3123	0	108	19:56:02	2008626	5	1	1	1	3	1	3	1	1	4	0	0	0	0	0	4	5
071012	19:56:02	10024	DigitSpanFwrdFrBaseline	Gate5FwrdFrBaseline	12	0	1	0	108	19:56:02	2008641	5	1	1	1	3	1	3	1	1	5	0	0	0	0	0	4	5
071012	19:56:02	10024	DigitSpanFwrdFrBaseline	Score4FwrdFrBaseline	12	DS2	7870	0	108	19:56:02	2025059	5	1	1	1	3	1	3	1	1	5	0	0	0	0	0	4	5
071012	19:56:02	10024	DigitSpanFwrdFrBaseline	Gate7FwrdFrBaseline	12	0	1	0	108	19:56:02	2025074	5	1	1	1	3	1	3	1	1	5	0	0	0	0	0	4	5
071012	19:56:02	10024	DigitSpanFwrdFrBaseline	Score44FwrdFrBaseline	12	DS1	5892	0	108	19:56:02	2039293	5	1	1	1	3	1	3	1	1	5	0	0	0	0	0	4	5
071012	19:56:02	10024	DigitSpanFwrdFrBaseline	Gate8FwrdFrBaseline	12	0	1	0	108	19:56:02	2039309	5	1	1	1	3	1	3	1	1	6	0	0	0	0	0	4	5
071012	19:56:02	10024	DigitSpanFwrdFrBaseline	Score5FwrdFrBaseline	12	DS2	6694	0	108	19:56:02	2058099	5	1	1	1	3	1	3	1	1	6	0	0	0	0	0	4	5
071012	19:56:02	10024	DigitSpanFwrdFrBaseline	Gate9FwrdFrBaseline	12	0	1	0	108	19:56:02	2058114	5	1	1	1	3	1	3	1	1	6	0	0	0	0	0	4	5
071012	19:56:02	10024	DigitSpanFwrdFrBaseline	Score55FwrdFrBaseline	12	DS2	6696	0	108	19:56:02	2077664	5	1	1	1	3	1	3	1	1	6	0	0	0	0	0	4	5
071012	19:56:02	10024	DigitSpanFrBaseline	Score1FrBaseline	13	DS1	3651	0	108	19:56:02	2095830	5	1	1	1	3	1	3	1	1	6	0	0	0	0	0	4	5
071012	19:56:02	10024	DigitSpanFrBaseline	Gate1FrBaseline	13	0	1	0	108	19:56:02	2095846	5	1	1	1	3	1	3	1	1	6	2	0	0	0	0	4	5
071012	19:56:02	10024	DigitSpanFrBaseline	Score2FrBaseline	13	DS1	3638	0	108	19:56:02	2103974	5	1	1	1	3	1	3	1	1	6	2	0	0	0	0	4	5
071012	19:56:02	10024	DigitSpanFrBaseline	Gate3FrBaseline	13	0	1	0	108	19:56:02	2103989	5	1	1	1	3	1	3	1	1	6	3	0	0	0	0	4	5
071012	19:56:02	10024	DigitSpanFrBaseline	Score3FrBaseline	13	DS1	6638	0	108	19:56:02	2116355	5	1	1	1	3	1	3	1	1	6	3	0	0	0	0	4	5
071012	19:56:02	10024	DigitSpanFrBaseline	Gate5FrBaseline	13	0	1	0	108	19:56:02	2116371	5	1	1	1	3	1	3	1	1	6	4	0	0	0	0	4	5
071012	19:56:02	10024	DigitSpanFrBaseline	Score4FrBaseline	13	DS2	6982	0	108	19:56:02	2130629	5	1	1	1	3	1	3	1	1	6	4	0	0	0	0	4	5
071012	19:56:02	10024	DigitSpanFrBaseline	Gate7FrBaseline	13	0	1	0	108	19:56:02	2130645	5	1	1	1	3	1	3	1	1	6	4	0	0	0	0	4	5
071012	19:56:02	10024	DigitSpanFrBaseline	Score44FrBaseline	13	DS1	11787	0	108	19:56:02	2149662	5	1	1	1	3	1	3	1	1	6	4	0	0	0	0	4	5
071012	19:56:02	10024	DigitSpanFrBaseline	Gate8FrBaseline	13	0	1	0	108	19:56:02	2149677	5	1	1	1	3	1	3	1	1	6	5	0	0	0	0	4	5
071012	19:56:02	10024	DigitSpanFrBaseline	Score5FrBaseline	13	DS2	10105	0	108	19:56:02	2168601	5	1	1	1	3	1	3	1	1	6	5	0	0	0	0	4	5
071012	19:56:02	10024	DigitSpanFrBaseline	Gate9FrBaseline	13	0	1	0	108	19:56:02	2168616	5	1	1	1	3	1	3	1	1	6	5	0	0	0	0	4	5
071012	19:56:02	10024	DigitSpanFrBaseline	Score55FrBaseline	13	DS2	11373	0	108	19:56:02	2188806	5	1	1	1	3	1	3	1	1	6	5	0	0	0	0	4	5
071012	19:56:02	10024	Trial	IncongruentRight	14	205	548	1	108	19:56:02	2302626	5	1	1	1	3	1	3	1	1	6	5	0	0	0	0	4	5
071012	19:56:02	10024	Trial	IncongruentLeft	14	203	509	1	108	19:56:02	2303586	5	1	1	1	3	1	3	1	1	6	5	0	0	0	0	4	5
071012	19:56:02	10024	Trial	CongruentRight	14	205	374	1	108	19:56:02	2304452	5	1	1	1	3	1	3	1	1	6	5	0	0	0	0	4	5
071012	19:56:02	10024	Trial	IncongruentRight	14	203	366	0	108	19:56:02	2305438	5	1	1	1	3	1	3	1	1	6	5	0	0	0	0	4	5
071012	19:56:02	10024	Trial	CongruentLeft	14	203	441	1	108	19:56:02	2306531	5	1	1	1	3	1	3	1	1	6	5	0	0	0	0	4	5
071012	19:56:02	10024	Trial	CongruentRight	14	205	385	1	108	19:56:02	2307478	5	1	1	1	3	1	3	1	1	6	5	0	0	0	0	4	5
071012	19:56:02	10024	Trial	IncongruentRight	14	205	410	1	108	19:56:02	2308491	5	1	1	1	3	1	3	1	1	6	5	0	0	0	0	4	5
071012	19:56:02	10024	Trial	CongruentLeft	14	203	466	1	108	19:56:02	2309557	5	1	1	1	3	1	3	1	1	6	5	0	0	0	0	4	5
071012	19:56:02	10024	Trial	IncongruentLeft	14	203	555	1	108	19:56:02	2310636	5	1	1	1	3	1	3	1	1	6	5	0	0	0	0	4	5
071012	19:56:02	10024	Trial	IncongruentLeft	14	203	499	1	108	19:56:02	2311583	5	1	1	1	3	1	3	1	1	6	5	0	0	0	0	4	5
071012	19:56:02	10024	Trial	CongruentRight	14	205	395	1	108	19:56:02	2312476	5	1	1	1	3	1	3	1	1	6	5	0	0	0	0	4	5
071012	19:56:02	10024	Trial	IncongruentRight	14	205	355	1	108	19:56:02	2313435	5	1	1	1	3	1	3	1	1	6	5	0	0	0	0	4	5
071012	19:56:02	10024	Trial	CongruentLeft	14	203	460	1	108	19:56:02	2314542	5	1	1	1	3	1	3	1	1	6	5	0	0	0	0	4	5
071012	19:56:02	10024	Trial	CongruentRight	14	205	420	1	108	19:56:02	2315501	5	1	1	1	3	1	3	1	1	6	5	0	0	0	0	4	5
071012	19:56:02	10024	Trial	IncongruentLeft	14	203	365	1	108	19:56:02	2316447	5	1	1	1	3	1	3	1	1	6	5	0	0	0	0	4	5
071012	19:56:02	10024	Trial	IncongruentRight	14	205	376	1	108	19:56:02	2317461	5	1	1	1	3	1	3	1	1	6	5	0	0	0	0	4	5
071012	19:56:02	10024	Trial	CongruentRight	14	203	350	0	108	19:56:02	2318434	5	1	1	1	3	1	3	1	1	6	5	0	0	0	0	4	5
071012	19:56:02	10024	Trial	CongruentLeft	14	203	518	1	108	19:56:02	2319606	5	1	1	1	3	1	3	1	1	6	5	0	0	0	0	4	5
071012	19:56:02	10024	Trial	CongruentRight	14	205	414	1	108	19:56:02	2320499	5	1	1	1	3	1	3	1	1	6	5	0	0	0	0	4	5
071012	19:56:02	10024	Trial	IncongruentRight	14	205	567	1	108	19:56:02	2321645	5	1	1	1	3	1	3	1	1	6	5	0	0	0	0	4	5
071012	19:56:02	10024	Trial	IncongruentLeft	14	203	495	1	108	19:56:02	2322578	5	1	1	1	3	1	3	1	1	6	5	0	0	0	0	4	5
071012	19:56:02	10024	Trial	IncongruentLeft	14	203	471	1	108	19:56:02	2323551	5	1	1	1	3	1	3	1	1	6	5	0	0	0	0	4	5
071012	19:56:02	10024	Trial	CongruentLeft	14	203	400	1	108	19:56:02	2324484	5	1	1	1	3	1	3	1	1	6	5	0	0	0	0	4	5
071012	19:56:02	10024	Trial	CongruentRight	14	205	472	1	108	19:56:02	2325551	5	1	1	1	3	1	3	1	1	6	5	0	0	0	0	4	5
071012	19:56:02	10024	Trial	IncongruentLeft	14	203	481	1	108	19:56:02	2326563	5	1	1	1	3	1	3	1	1	6	5	0	0	0	0	4	5
071012	19:56:02	10024	Trial	IncongruentRight	14	205	441	1	108	19:56:02	2327523	5	1	1	1	3	1	3	1	1	6	5	0	0	0	0	4	5
071012	19:56:02	10024	Trial	CongruentRight	14	205	466	1	108	19:56:02	2328549	5	1	1	1	3	1	3	1	1	6	5	0	0	0	0	4	5
071012	19:56:02	10024	Trial	CongruentLeft	14	203	426	1	108	19:56:02	2329509	5	1	1	1	3	1	3	1	1	6	5	0	0	0	0	4	5
071012	19:56:02	10024	Trial	IncongruentRight	14	205	386	1	108	19:56:02	2330469	5	1	1	1	3	1	3	1	1	6	5	0	0	0	0	4	5
071012	19:56:02	10024	Trial	IncongruentLeft	14	203	507	1	108	19:56:02	2331588	5	1	1	1	3	1	3	1	1	6	5	0	0	0	0	4	5
071012	19:56:02	10024	Trial	IncongruentRight	14	205	467	1	108	19:56:02	2332548	5	1	1	1	3	1	3	1	1	6	5	0	0	0	0	4	5
071012	19:56:02	10024	Trial	CongruentRight	14	205	523	1	108	19:56:02	2333601	5	1	1	1	3	1	3	1	1	6	5	0	0	0	0	4	5
071012	19:56:02	10024	Trial	IncongruentLeft	14	203	468	1	108	19:56:02	2334547	5	1	1	1	3	1	3	1	1	6	5	0	0	0	0	4	5
071012	19:56:02	10024	Trial	CongruentLeft	14	203	396	1	108	19:56:02	2335466	5	1	1	1	3	1	3	1	1	6	5	0	0	0	0	4	5
071012	19:56:02	10024	Trial	CongruentRight	14	205	373	1	108	19:56:02	2336453	5	1	1	1	3	1	3	1	1	6	5	0	0	0	0	4	5
071012	19:56:02	10024	Trial	IncongruentLeft	14	203	493	1	108	19:56:02	2337572	5	1	1	1	3	1	3	1	1	6	5	0	0	0	0	4	5
071012	19:56:02	10024	Trial	IncongruentRight	14	205	504	1	108	19:56:02	2338585	5	1	1	1	3	1	3	1	1	6	5	0	0	0	0	4	5
071012	19:56:02	10024	Trial	IncongruentRight	14	205	496	1	108	19:56:02	2339585	5	1	1	1	3	1	3	1	1	6	5	0	0	0	0	4	5
071012	19:56:02	10024	Trial	CongruentLeft	14	203	473	1	108	19:56:02	2340558	5	1	1	1	3	1	3	1	1	6	5	0	0	0	0	4	5
071012	19:56:02	10024	Trial	IncongruentLeft	14	203	369	1	108	19:56:02	2341451	5	1	1	1	3	1	3	1	1	6	5	0	0	0	0	4	5
071012	19:56:02	10024	Trial	CongruentRight	14	205	521	1	108	19:56:02	2342610	5	1	1	1	3	1	3	1	1	6	5	0	0	0	0	4	5
071012	19:56:02	10024	Trial	CongruentLeft	14	203	466	1	108	19:56:02	2343557	5	1	1	1	3	1	3	1	1	6	5	0	0	0	0	4	5
071012	19:56:02	10024	Trial	IncongruentRight	14	205	362	1	108	19:56:02	2344450	5	1	1	1	3	1	3	1	1	6	5	0	0	0	0	4	5
071012	19:56:02	10024	Trial	CongruentRight	14	203	291	0	108	19:56:02	2345369	5	1	1	1	3	1	3	1	1	6	5	0	0	0	0	4	5
071012	19:56:02	10024	Trial	IncongruentLeft	14	203	619	1	108	19:56:02	2346702	5	1	1	1	3	1	3	1	1	6	5	0	0	0	0	4	5
071012	19:56:02	10024	Trial	CongruentLeft	14	203	531	1	108	19:56:02	2347622	5	1	1	1	3	1	3	1	1	6	5	0	0	0	0	4	5
071012	19:56:02	10024	Trial	IncongruentLeft	14	203	540	1	108	19:56:02	2348621	5	1	1	1	3	1	3	1	1	6	5	0	0	0	0	4	5
071012	19:56:02	10024	Trial	IncongruentRight	14	205	452	1	108	19:56:02	2349541	5	1	1	1	3	1	3	1	1	6	5	0	0	0	0	4	5
071012	19:56:02	10024	Trial	CongruentRight	14	205	382	1	108	19:56:02	2350461	5	1	1	1	3	1	3	1	1	6	5	0	0	0	0	4	5
071012	19:56:02	10024	Trial	CongruentLeft	14	0	737	0	108	19:56:02	2351807	5	1	1	1	3	1	3	1	1	6	5	0	0	0	0	4	5
071012	19:56:02	10024	Trial	CongruentLeft	14	0	737	0	108	19:56:02	2352820	5	1	1	1	3	1	3	1	1	6	5	0	0	0	0	4	5
071012	19:56:02	10024	Trial	IncongruentRight	14	205	520	1	108	19:56:02	2353619	5	1	1	1	3	1	3	1	1	6	5	0	0	0	0	4	5
071012	19:56:02	10024	Trial	IncongruentLeft	14	203	465	1	108	19:56:02	2354565	5	1	1	1	3	1	3	1	1	6	5	0	0	0	0	4	5
071012	19:56:02	10024	Trial	IncongruentRight	14	205	473	1	108	19:56:02	2355565	5	1	1	1	3	1	3	1	1	6	5	0	0	0	0	4	5
071012	19:56:02	10024	Trial	CongruentRight	14	205	546	1	108	19:56:02	2356645	5	1	1	1	3	1	3	1	1	6	5	0	0	0	0	4	5
071012	19:56:02	10024	Trial	CongruentRight	14	205	413	1	108	19:56:02	2357524	5	1	1	1	3	1	3	1	1	6	5	0	0	0	0	4	5
071012	19:56:02	10024	Trial	IncongruentLeft	14	0	737	0	108	19:56:02	2358831	5	1	1	1	3	1	3	1	1	6	5	0	0	0	0	4	5
071012	19:56:02	10024	Trial	CongruentLeft	14	203	509	1	108	19:56:02	2359617	5	1	1	1	3	1	3	1	1	6	5	0	0	0	0	4	5
071012	19:56:02	10024	Trial	CongruentRight	14	205	502	1	108	19:56:02	2360603	5	1	1	1	3	1	3	1	1	6	5	0	0	0	0	4	5
071012	19:56:02	10024	Trial	CongruentLeft	14	203	446	1	108	19:56:02	2361549	5	1	1	1	3	1	3	1	1	6	5	0	0	0	0	4	5
071012	19:56:02	10024	Trial	IncongruentRight	14	205	425	1	108	19:56:02	2362549	5	1	1	1	3	1	3	1	1	6	5	0	0	0	0	4	5
071012	19:56:02	10024	Trial	CongruentRight	14	205	530	1	108	19:56:02	2363642	5	1	1	1	3	1	3	1	1	6	5	0	0	0	0	4	5
071012	19:56:02	10024	Trial	CongruentLeft	14	203	474	1	108	19:56:02	2364588	5	1	1	1	3	1	3	1	1	6	5	0	0	0	0	4	5
071012	19:56:02	10024	Trial	IncongruentLeft	14	203	450	1	108	19:56:02	2365561	5	1	1	1	3	1	3	1	1	6	5	0	0	0	0	4	5
071012	19:56:02	10024	Trial	IncongruentLeft	14	203	379	1	108	19:56:02	2366494	5	1	1	1	3	1	3	1	1	6	5	0	0	0	0	4	5
071012	19:56:02	10024	Trial	CongruentRight	14	205	339	1	108	19:56:02	2367454	5	1	1	1	3	1	3	1	1	6	5	0	0	0	0	4	5
071012	19:56:02	10024	Trial	IncongruentRight	14	205	379	1	108	19:56:02	2368493	5	1	1	1	3	1	3	1	1	6	5	0	0	0	0	4	5
071012	19:56:02	10024	Trial	CongruentLeft	14	203	548	1	108	19:56:02	2369666	5	1	1	1	3	1	3	1	1	6	5	0	0	0	0	4	5
071012	19:56:02	10024	Trial	IncongruentRight	14	205	524	1	108	19:56:02	2370639	5	1	1	1	3	1	3	1	1	6	5	0	0	0	0	4	5
071012	19:56:02	10024	Trial	CongruentRight	14	205	421	1	108	19:56:02	2371532	5	1	1	1	3	1	3	1	1	6	5	0	0	0	0	4	5
071012	19:56:02	10024	Trial	IncongruentLeft	14	203	461	1	108	19:56:02	2372572	5	1	1	1	3	1	3	1	1	6	5	0	0	0	0	4	5
071012	19:56:02	10024	Trial	CongruentLeft	14	203	581	1	108	19:56:02	2373691	5	1	1	1	3	1	3	1	1	6	5	0	0	0	0	4	5
071012	19:56:02	10024	Trial	CongruentRight	14	205	638	1	108	19:56:02	2374757	5	1	1	1	3	1	3	1	1	6	5	0	0	0	0	4	5
071012	19:56:02	10024	Trial	IncongruentLeft	14	203	454	1	108	19:56:02	2375570	5	1	1	1	3	1	3	1	1	6	5	0	0	0	0	4	5
071012	19:56:02	10024	Trial	CongruentRight	14	205	446	1	108	19:56:02	2376557	5	1	1	1	3	1	3	1	1	6	5	0	0	0	0	4	5
071012	19:56:02	10024	Trial	CongruentRight	14	205	375	1	108	19:56:02	2377490	5	1	1	1	3	1	3	1	1	6	5	0	0	0	0	4	5
071012	19:56:02	10024	Trial	IncongruentRight	14	205	495	1	108	19:56:02	2378609	5	1	1	1	3	1	3	1	1	6	5	0	0	0	0	4	5
071012	19:56:02	10024	Trial	CongruentLeft	14	203	504	1	108	19:56:02	2379609	5	1	1	1	3	1	3	1	1	6	5	0	0	0	0	4	5
071012	19:56:02	10024	Trial	IncongruentLeft	14	203	480	1	108	19:56:02	2380595	5	1	1	1	3	1	3	1	1	6	5	0	0	0	0	4	5
071012	19:56:02	10024	Trial	CongruentLeft	14	203	392	1	108	19:56:02	2381501	5	1	1	1	3	1	3	1	1	6	5	0	0	0	0	4	5
071012	19:56:02	10024	Trial	IncongruentRight	14	205	497	1	108	19:56:02	2382608	5	1	1	1	3	1	3	1	1	6	5	0	0	0	0	4	5
071012	19:56:02	10024	Trial	IncongruentLeft	14	203	457	1	108	19:56:02	2383567	5	1	1	1	3	1	3	1	1	6	5	0	0	0	0	4	5
071012	19:56:02	10024	Trial	CongruentRight	14	205	401	1	108	19:56:02	2384513	5	1	1	1	3	1	3	1	1	6	5	0	0	0	0	4	5
071012	19:56:02	10024	Trial	CongruentLeft	14	203	330	1	108	19:56:02	2385433	5	1	1	1	3	1	3	1	1	6	5	0	0	0	0	4	5
071012	19:56:02	10024	Trial	IncongruentLeft	14	205	354	0	108	19:56:02	2386459	5	1	1	1	3	1	3	1	1	6	5	0	0	0	0	4	5
071012	19:56:02	10024	Trial	CongruentLeft	14	203	443	1	108	19:56:02	2387552	5	1	1	1	3	1	3	1	1	6	5	0	0	0	0	4	5
071012	19:56:02	10024	Trial	IncongruentRight	14	205	406	1	108	19:56:02	2388512	5	1	1	1	3	1	3	1	1	6	5	0	0	0	0	4	5
071012	19:56:02	10024	Trial	CongruentRight	14	205	379	1	108	19:56:02	2389485	5	1	1	1	3	1	3	1	1	6	5	0	0	0	0	4	5
071012	19:56:02	10024	Trial	IncongruentLeft	14	203	516	1	108	19:56:02	2390618	5	1	1	1	3	1	3	1	1	6	5	0	0	0	0	4	5
071012	19:56:02	10024	Trial	CongruentLeft	14	203	428	1	108	19:56:02	2391537	5	1	1	1	3	1	3	1	1	6	5	0	0	0	0	4	5
071012	19:56:02	10024	Trial	IncongruentRight	14	205	452	1	108	19:56:02	2392563	5	1	1	1	3	1	3	1	1	6	5	0	0	0	0	4	5
071012	19:56:02	10024	Trial	IncongruentLeft	14	203	509	1	108	19:56:02	2393616	5	1	1	1	3	1	3	1	1	6	5	0	0	0	0	4	5
071012	19:56:02	10024	Trial	CongruentLeft	14	203	424	1	108	19:56:02	2394536	5	1	1	1	3	1	3	1	1	6	5	0	0	0	0	4	5
071012	19:56:02	10024	Trial	IncongruentLeft	14	203	496	1	108	19:56:02	2395616	5	1	1	1	3	1	3	1	1	6	5	0	0	0	0	4	5
071012	19:56:02	10024	Trial	CongruentRight	14	205	441	1	108	19:56:02	2396562	5	1	1	1	3	1	3	1	1	6	5	0	0	0	0	4	5
071012	19:56:02	10024	Trial	CongruentLeft	14	203	433	1	108	19:56:02	2397548	5	1	1	1	3	1	3	1	1	6	5	0	0	0	0	4	5
071012	19:56:02	10024	Trial	IncongruentRight	14	205	394	1	108	19:56:02	2398508	5	1	1	1	3	1	3	1	1	6	5	0	0	0	0	4	5
071012	19:56:02	10024	Trial	CongruentLeft	14	203	338	1	108	19:56:02	2399454	5	1	1	1	3	1	3	1	1	6	5	0	0	0	0	4	5
071012	19:56:02	10024	Trial	CongruentRight	14	205	378	1	108	19:56:02	2400494	5	1	1	1	3	1	3	1	1	6	5	0	0	0	0	4	5
071012	19:56:02	10024	Trial	IncongruentLeft	14	203	403	1	108	19:56:02	2401520	5	1	1	1	3	1	3	1	1	6	5	0	0	0	0	4	5
071012	19:56:02	10024	Trial750Fr	IncongruentRight750	15	205	454	1	108	19:56:02	2411969	5	1	1	1	3	1	3	1	1	6	5	0	0	0	0	4	5
071012	19:56:02	10024	Trial750Fr	IncongruentLeft750	15	203	367	1	108	19:56:02	2412635	5	1	1	1	3	1	3	1	1	6	5	0	0	0	0	4	5
071012	19:56:02	10024	Trial750Fr	CongruentRight750	15	205	372	1	108	19:56:02	2413395	5	1	1	1	3	1	3	1	1	6	5	0	0	0	0	4	5
071012	19:56:02	10024	Trial750Fr	IncongruentRight750	15	203	330	0	108	19:56:02	2414088	5	1	1	1	3	1	3	1	1	6	5	0	0	0	0	4	5
071012	19:56:02	10024	Trial750Fr	CongruentLeft750	15	203	416	1	108	19:56:02	2414928	5	1	1	1	3	1	3	1	1	6	5	0	0	0	0	4	5
071012	19:56:02	10024	Trial750Fr	CongruentRight750	15	205	408	1	108	19:56:02	2415674	5	1	1	1	3	1	3	1	1	6	5	0	0	0	0	4	5
071012	19:56:02	10024	Trial750Fr	IncongruentRight750	15	205	413	1	108	19:56:02	2416434	5	1	1	1	3	1	3	1	1	6	5	0	0	0	0	4	5
071012	19:56:02	10024	Trial750Fr	CongruentLeft750	15	203	483	1	108	19:56:02	2417247	5	1	1	1	3	1	3	1	1	6	5	0	0	0	0	4	5
071012	19:56:02	10024	Trial750Fr	IncongruentLeft750	15	203	411	1	108	19:56:02	2417940	5	1	1	1	3	1	3	1	1	6	5	0	0	0	0	4	5
071012	19:56:02	10024	Trial750Fr	IncongruentLeft750	15	203	420	1	108	19:56:02	2418699	5	1	1	1	3	1	3	1	1	6	5	0	0	0	0	4	5
071012	19:56:02	10024	Trial750Fr	CongruentRight750	15	0	487	0	108	19:56:02	2419513	5	1	1	1	3	1	3	1	1	6	5	0	0	0	0	4	5
071012	19:56:02	10024	Trial750Fr	IncongruentRight750	15	205	386	1	108	19:56:02	2420179	5	1	1	1	3	1	3	1	1	6	5	0	0	0	0	4	5
071012	19:56:02	10024	Trial750Fr	CongruentLeft750	15	0	487	0	108	19:56:02	2421019	5	1	1	1	3	1	3	1	1	6	5	0	0	0	0	4	5
071012	19:56:02	10024	Trial750Fr	CongruentRight750	15	0	487	0	108	19:56:02	2421778	5	1	1	1	3	1	3	1	1	6	5	0	0	0	0	4	5
071012	19:56:02	10024	Trial750Fr	IncongruentLeft750	15	0	487	0	108	19:56:02	2422538	5	1	1	1	3	1	3	1	1	6	5	0	0	0	0	4	5
071012	19:56:02	10024	Trial750Fr	IncongruentRight750	15	205	352	1	108	19:56:02	2423164	5	1	1	1	3	1	3	1	1	6	5	0	0	0	0	4	5
071012	19:56:02	10024	Trial750Fr	CongruentRight750	15	0	487	0	108	19:56:02	2424044	5	1	1	1	3	1	3	1	1	6	5	0	0	0	0	4	5
071012	19:56:02	10024	Trial750Fr	CongruentLeft750	15	203	478	1	108	19:56:02	2424804	5	1	1	1	3	1	3	1	1	6	5	0	0	0	0	4	5
071012	19:56:02	10024	Trial750Fr	CongruentRight750	15	205	374	1	108	19:56:02	2425457	5	1	1	1	3	1	3	1	1	6	5	0	0	0	0	4	5
071012	19:56:02	10024	Trial750Fr	IncongruentRight750	15	203	318	0	108	19:56:02	2426163	5	1	1	1	3	1	3	1	1	6	5	0	0	0	0	4	5
071012	19:56:02	10024	Trial750Fr	IncongruentLeft750	15	0	487	0	108	19:56:02	2427070	5	1	1	1	3	1	3	1	1	6	5	0	0	0	0	4	5
071012	19:56:02	10024	Trial750Fr	IncongruentLeft750	15	0	487	0	108	19:56:02	2427829	5	1	1	1	3	1	3	1	1	6	5	0	0	0	0	4	5
071012	19:56:02	10024	Trial750Fr	CongruentLeft750	15	203	373	1	108	19:56:02	2428482	5	1	1	1	3	1	3	1	1	6	5	0	0	0	0	4	5
071012	19:56:02	10024	Trial750Fr	CongruentRight750	15	203	333	0	108	19:56:02	2429202	5	1	1	1	3	1	3	1	1	6	5	0	0	0	0	4	5
071012	19:56:02	10024	Trial750Fr	IncongruentLeft750	15	0	487	0	108	19:56:02	2430095	5	1	1	1	3	1	3	1	1	6	5	0	0	0	0	4	5
071012	19:56:02	10024	Trial750Fr	IncongruentRight750	15	0	487	0	108	19:56:02	2430855	5	1	1	1	3	1	3	1	1	6	5	0	0	0	0	4	5
071012	19:56:02	10024	Trial750Fr	CongruentRight750	15	205	483	1	108	19:56:02	2431614	5	1	1	1	3	1	3	1	1	6	5	0	0	0	0	4	5
071012	19:56:02	10024	Trial750Fr	CongruentLeft750	15	0	487	0	108	19:56:02	2432374	5	1	1	1	3	1	3	1	1	6	5	0	0	0	0	4	5
071012	19:56:02	10024	Trial750Fr	IncongruentRight750	15	205	372	1	108	19:56:02	2433027	5	1	1	1	3	1	3	1	1	6	5	0	0	0	0	4	5
071012	19:56:02	10024	Trial750Fr	IncongruentLeft750	15	0	487	0	108	19:56:02	2433880	5	1	1	1	3	1	3	1	1	6	5	0	0	0	0	4	5
071012	19:56:02	10024	Trial750Fr	IncongruentRight750	15	205	370	1	108	19:56:02	2434520	5	1	1	1	3	1	3	1	1	6	5	0	0	0	0	4	5
071012	19:56:02	10024	Trial750Fr	CongruentRight750	15	0	487	0	108	19:56:02	2435386	5	1	1	1	3	1	3	1	1	6	5	0	0	0	0	4	5
071012	19:56:02	10024	Trial750Fr	IncongruentLeft750	15	203	480	1	108	19:56:02	2436146	5	1	1	1	3	1	3	1	1	6	5	0	0	0	0	4	5
071012	19:56:02	10024	Trial750Fr	CongruentLeft750	15	0	487	0	108	19:56:02	2436906	5	1	1	1	3	1	3	1	1	6	5	0	0	0	0	4	5
071012	19:56:02	10024	Trial750Fr	CongruentRight750	15	205	384	1	108	19:56:02	2437572	5	1	1	1	3	1	3	1	1	6	5	0	0	0	0	4	5
071012	19:56:02	10024	Trial750Fr	IncongruentLeft750	15	203	345	1	108	19:56:02	2438292	5	1	1	1	3	1	3	1	1	6	5	0	0	0	0	4	5
071012	19:56:02	10024	Trial750Fr	IncongruentRight750	15	205	366	1	108	19:56:02	2439051	5	1	1	1	3	1	3	1	1	6	5	0	0	0	0	4	5
071012	19:56:02	10024	Trial750Fr	IncongruentRight750	15	205	291	1	108	19:56:02	2439731	5	1	1	1	3	1	3	1	1	6	5	0	0	0	0	4	5
071012	19:56:02	10024	Trial750Fr	CongruentLeft750	15	0	487	0	108	19:56:02	2440664	5	1	1	1	3	1	3	1	1	6	5	0	0	0	0	4	5
071012	19:56:02	10024	Trial750Fr	IncongruentLeft750	15	203	466	1	108	19:56:02	2441411	5	1	1	1	3	1	3	1	1	6	5	0	0	0	0	4	5
071012	19:56:02	10024	Trial750Fr	CongruentRight750	15	205	458	1	108	19:56:02	2442157	5	1	1	1	3	1	3	1	1	6	5	0	0	0	0	4	5
071012	19:56:02	10024	Trial750Fr	CongruentLeft750	15	203	432	1	108	19:56:02	2442877	5	1	1	1	3	1	3	1	1	6	5	0	0	0	0	4	5
071012	19:56:02	10024	Trial750Fr	IncongruentRight750	15	205	421	1	108	19:56:02	2443609	5	1	1	1	3	1	3	1	1	6	5	0	0	0	0	4	5
071012	19:56:02	10024	Trial750Fr	CongruentRight750	15	0	487	0	108	19:56:02	2444423	5	1	1	1	3	1	3	1	1	6	5	0	0	0	0	4	5
071012	19:56:02	10024	Trial750Fr	IncongruentLeft750	15	0	487	0	108	19:56:02	2445182	5	1	1	1	3	1	3	1	1	6	5	0	0	0	0	4	5
071012	19:56:02	10024	Trial750Fr	CongruentLeft750	15	203	427	1	108	19:56:02	2445889	5	1	1	1	3	1	3	1	1	6	5	0	0	0	0	4	5
071012	19:56:02	10024	Trial750Fr	IncongruentLeft750	15	203	355	1	108	19:56:02	2446568	5	1	1	1	3	1	3	1	1	6	5	0	0	0	0	4	5
071012	19:56:02	10024	Trial750Fr	IncongruentRight750	15	205	361	1	108	19:56:02	2447328	5	1	1	1	3	1	3	1	1	6	5	0	0	0	0	4	5
071012	19:56:02	10024	Trial750Fr	CongruentRight750	15	205	367	1	108	19:56:02	2448074	5	1	1	1	3	1	3	1	1	6	5	0	0	0	0	4	5
071012	19:56:02	10024	Trial750Fr	CongruentLeft750	15	203	457	1	108	19:56:02	2448927	5	1	1	1	3	1	3	1	1	6	5	0	0	0	0	4	5
071012	19:56:02	10024	Trial750Fr	CongruentLeft750	15	203	429	1	108	19:56:02	2449647	5	1	1	1	3	1	3	1	1	6	5	0	0	0	0	4	5
071012	19:56:02	10024	Trial750Fr	IncongruentRight750	15	205	466	1	108	19:56:02	2450433	5	1	1	1	3	1	3	1	1	6	5	0	0	0	0	4	5
071012	19:56:02	10024	Trial750Fr	IncongruentLeft750	15	0	487	0	108	19:56:02	2451193	5	1	1	1	3	1	3	1	1	6	5	0	0	0	0	4	5
071012	19:56:02	10024	Trial750Fr	IncongruentRight750	15	0	487	0	108	19:56:02	2451953	5	1	1	1	3	1	3	1	1	6	5	0	0	0	0	4	5
071012	19:56:02	10024	Trial750Fr	CongruentRight750	15	203	297	0	108	19:56:02	2452526	5	1	1	1	3	1	3	1	1	6	5	0	0	0	0	4	5
071012	19:56:02	10024	Trial750Fr	CongruentRight750	15	205	401	1	108	19:56:02	2453392	5	1	1	1	3	1	3	1	1	6	5	0	0	0	0	4	5
071012	19:56:02	10024	Trial750Fr	IncongruentLeft750	15	0	487	0	108	19:56:02	2454219	5	1	1	1	3	1	3	1	1	6	5	0	0	0	0	4	5
071012	19:56:02	10024	Trial750Fr	CongruentLeft750	15	203	479	1	108	19:56:02	2454978	5	1	1	1	3	1	3	1	1	6	5	0	0	0	0	4	5
071012	19:56:02	10024	Trial750Fr	CongruentRight750	15	205	439	1	108	19:56:02	2455698	5	1	1	1	3	1	3	1	1	6	5	0	0	0	0	4	5
071012	19:56:02	10024	Trial750Fr	CongruentLeft750	15	0	487	0	108	19:56:02	2456485	5	1	1	1	3	1	3	1	1	6	5	0	0	0	0	4	5
071012	19:56:02	10024	Trial750Fr	IncongruentRight750	15	205	357	1	108	19:56:02	2457111	5	1	1	1	3	1	3	1	1	6	5	0	0	0	0	4	5
071012	19:56:02	10024	Trial750Fr	CongruentRight750	15	205	445	1	108	19:56:02	2457964	5	1	1	1	3	1	3	1	1	6	5	0	0	0	0	4	5
071012	19:56:02	10024	Trial750Fr	CongruentLeft750	15	0	487	0	108	19:56:02	2458750	5	1	1	1	3	1	3	1	1	6	5	0	0	0	0	4	5
071012	19:56:02	10024	Trial750Fr	IncongruentLeft750	15	203	459	1	108	19:56:02	2459483	5	1	1	1	3	1	3	1	1	6	5	0	0	0	0	4	5
071012	19:56:02	10024	Trial750Fr	IncongruentLeft750	15	203	371	1	108	19:56:02	2460163	5	1	1	1	3	1	3	1	1	6	5	0	0	0	0	4	5
071012	19:56:02	10024	Trial750Fr	CongruentRight750	15	205	233	1	108	19:56:02	2460763	5	1	1	1	3	1	3	1	1	6	5	0	0	0	0	4	5
071012	19:56:02	10024	Trial750Fr	IncongruentRight750	15	203	367	0	108	19:56:02	2461642	5	1	1	1	3	1	3	1	1	6	5	0	0	0	0	4	5
071012	19:56:02	10024	Trial750Fr	CongruentLeft750	15	0	487	0	108	19:56:02	2462509	5	1	1	1	3	1	3	1	1	6	5	0	0	0	0	4	5
071012	19:56:02	10024	Trial750Fr	IncongruentRight750	15	205	397	1	108	19:56:02	2463175	5	1	1	1	3	1	3	1	1	6	5	0	0	0	0	4	5
071012	19:56:02	10024	Trial750Fr	CongruentRight750	15	205	325	1	108	19:56:02	2463868	5	1	1	1	3	1	3	1	1	6	5	0	0	0	0	4	5
071012	19:56:02	10024	Trial750Fr	IncongruentLeft750	15	205	331	0	108	19:56:02	2464614	5	1	1	1	3	1	3	1	1	6	5	0	0	0	0	4	5
071012	19:56:02	10024	Trial750Fr	CongruentLeft750	15	203	448	1	108	19:56:02	2465481	5	1	1	1	3	1	3	1	1	6	5	0	0	0	0	4	5
071012	19:56:02	10024	Trial750Fr	CongruentRight750	15	0	487	0	108	19:56:02	2466267	5	1	1	1	3	1	3	1	1	6	5	0	0	0	0	4	5
071012	19:56:02	10024	Trial750Fr	IncongruentLeft750	15	203	430	1	108	19:56:02	2466973	5	1	1	1	3	1	3	1	1	6	5	0	0	0	0	4	5
071012	19:56:02	10024	Trial750Fr	CongruentRight750	15	205	406	1	108	19:56:02	2467707	5	1	1	1	3	1	3	1	1	6	5	0	0	0	0	4	5
071012	19:56:02	10024	Trial750Fr	CongruentRight750	15	205	412	1	108	19:56:02	2468466	5	1	1	1	3	1	3	1	1	6	5	0	0	0	0	4	5
071012	19:56:02	10024	Trial750Fr	IncongruentRight750	15	205	386	1	108	19:56:02	2469186	5	1	1	1	3	1	3	1	1	6	5	0	0	0	0	4	5
071012	19:56:02	10024	Trial750Fr	CongruentLeft750	15	0	487	0	108	19:56:02	2470026	5	1	1	1	3	1	3	1	1	6	5	0	0	0	0	4	5
071012	19:56:02	10024	Trial750Fr	IncongruentLeft750	15	203	304	1	108	19:56:02	2470598	5	1	1	1	3	1	3	1	1	6	5	0	0	0	0	4	5
071012	19:56:02	10024	Trial750Fr	CongruentLeft750	15	0	487	0	108	19:56:02	2471532	5	1	1	1	3	1	3	1	1	6	5	0	0	0	0	4	5
071012	19:56:02	10024	Trial750Fr	IncongruentRight750	15	205	445	1	108	19:56:02	2472251	5	1	1	1	3	1	3	1	1	6	5	0	0	0	0	4	5
071012	19:56:02	10024	Trial750Fr	IncongruentLeft750	15	203	438	1	108	19:56:02	2473011	5	1	1	1	3	1	3	1	1	6	5	0	0	0	0	4	5
071012	19:56:02	10024	Trial750Fr	CongruentRight750	15	205	443	1	108	19:56:02	2473757	5	1	1	1	3	1	3	1	1	6	5	0	0	0	0	4	5
071012	19:56:02	10024	Trial750Fr	CongruentLeft750	15	203	273	1	108	19:56:02	2474331	5	1	1	1	3	1	3	1	1	6	5	0	0	0	0	4	5
071012	19:56:02	10024	Trial750Fr	IncongruentLeft750	15	0	487	0	108	19:56:02	2475290	5	1	1	1	3	1	3	1	1	6	5	0	0	0	0	4	5
071012	19:56:02	10024	Trial750Fr	CongruentLeft750	15	203	415	1	108	19:56:02	2475983	5	1	1	1	3	1	3	1	1	6	5	0	0	0	0	4	5
071012	19:56:02	10024	Trial750Fr	IncongruentRight750	15	205	455	1	108	19:56:02	2476783	5	1	1	1	3	1	3	1	1	6	5	0	0	0	0	4	5
071012	19:56:02	10024	Trial750Fr	CongruentRight750	15	205	301	1	108	19:56:02	2477369	5	1	1	1	3	1	3	1	1	6	5	0	0	0	0	4	5
071012	19:56:02	10024	Trial750Fr	IncongruentLeft750	15	203	451	1	108	19:56:02	2478262	5	1	1	1	3	1	3	1	1	6	5	0	0	0	0	4	5
071012	19:56:02	10024	Trial750Fr	CongruentLeft750	15	203	395	1	108	19:56:02	2478968	5	1	1	1	3	1	3	1	1	6	5	0	0	0	0	4	5
071012	19:56:02	10024	Trial750Fr	IncongruentRight750	15	205	448	1	108	19:56:02	2479768	5	1	1	1	3	1	3	1	1	6	5	0	0	0	0	4	5
071012	19:56:02	10024	Trial750Fr	IncongruentLeft750	15	0	487	0	108	19:56:02	2480555	5	1	1	1	3	1	3	1	1	6	5	0	0	0	0	4	5
071012	19:56:02	10024	Trial750Fr	CongruentLeft750	15	0	487	0	108	19:56:02	2481314	5	1	1	1	3	1	3	1	1	6	5	0	0	0	0	4	5
071012	19:56:02	10024	Trial750Fr	IncongruentLeft750	15	203	438	1	108	19:56:02	2482034	5	1	1	1	3	1	3	1	1	6	5	0	0	0	0	4	5
071012	19:56:02	10024	Trial750Fr	CongruentRight750	15	205	367	1	108	19:56:02	2482714	5	1	1	1	3	1	3	1	1	6	5	0	0	0	0	4	5
071012	19:56:02	10024	Trial750Fr	CongruentLeft750	15	203	340	1	108	19:56:02	2483434	5	1	1	1	3	1	3	1	1	6	5	0	0	0	0	4	5
071012	19:56:02	10024	Trial750Fr	IncongruentRight750	15	205	330	1	108	19:56:02	2484167	5	1	1	1	3	1	3	1	1	6	5	0	0	0	0	4	5
071012	19:56:02	10024	Trial750Fr	CongruentLeft750	15	203	290	1	108	19:56:02	2484886	5	1	1	1	3	1	3	1	1	6	5	0	0	0	0	4	5
071012	19:56:02	10024	Trial750Fr	CongruentRight750	15	205	264	1	108	19:56:02	2485606	5	1	1	1	3	1	3	1	1	6	5	0	0	0	0	4	5
071012	19:56:02	10024	Trial750Fr	IncongruentLeft750	15	203	270	1	108	19:56:02	2486366	5	1	1	1	3	1	3	1	1	6	5	0	0	0	0	4	5
071012	19:56:02	10024	WordsAbsFrBaseline	PAbsFrBaseline1	16	Abs1	5044	0	108	19:56:02	2507837	5	1	1	1	3	1	3	1	1	6	5	0	0	0	0	4	5
071012	19:56:02	10024	WordsAbsFrBaseline	AbsFrBaseline1	16	Abs1	3043	0	108	19:56:02	2510916	5	1	1	1	3	1	3	1	1	6	5	1	0	0	0	4	5
071012	19:56:02	10024	WordsAbsFrBaseline	AbsFrBaseline2	16	Abs2	22542	0	108	19:56:02	2533493	5	1	1	1	3	1	3	1	1	6	5	1	0	0	0	4	5
071012	19:56:02	10024	WordsAbsFrBaseline	AbsFrBaseline3	16	Abs1	24749	0	108	19:56:02	2558283	5	1	1	1	3	1	3	1	1	6	5	2	0	0	0	4	5
071012	19:56:02	10024	Trial2BackFrS	NS	17	0	1000	1	108	19:56:02	2614834	5	1	1	1	3	1	3	1	1	6	5	2	0	0	0	4	5
071012	19:56:02	10024	Trial2BackFrS	NS	17	0	1000	1	108	19:56:02	2616353	5	1	1	1	3	1	3	1	1	6	5	2	0	0	0	4	5
071012	19:56:02	10024	Trial2BackFrS	NS	17	0	1000	1	108	19:56:02	2617872	5	1	1	1	3	1	3	1	1	6	5	2	0	0	0	4	5
071012	19:56:02	10024	Trial2BackFrS	YS	17	57	361	1	108	19:56:02	2618765	5	1	1	1	3	1	3	1	1	6	5	2	0	0	0	4	5
071012	19:56:02	10024	Trial2BackFrS	NS	17	0	1000	1	108	19:56:02	2620898	5	1	1	1	3	1	3	1	1	6	5	2	0	0	0	4	5
071012	19:56:02	10024	Trial2BackFrS	NS	17	57	440	0	108	19:56:02	2621871	5	1	1	1	3	1	3	1	1	6	5	2	0	0	0	4	5
071012	19:56:02	10024	Trial2BackFrS	NS	17	0	1000	1	108	19:56:02	2623923	5	1	1	1	3	1	3	1	1	6	5	2	0	0	0	4	5
071012	19:56:02	10024	Trial2BackFrS	NS	17	0	1000	1	108	19:56:02	2625443	5	1	1	1	3	1	3	1	1	6	5	2	0	0	0	4	5
071012	19:56:02	10024	Trial2BackFrS	YS	17	57	391	1	108	19:56:02	2626362	5	1	1	1	3	1	3	1	1	6	5	2	0	0	0	4	5
071012	19:56:02	10024	Trial2BackFrS	NS	17	0	1000	1	108	19:56:02	2628468	5	1	1	1	3	1	3	1	1	6	5	2	0	0	0	4	5
071012	19:56:02	10024	Trial2BackFrS	NS	17	0	1000	1	108	19:56:02	2629987	5	1	1	1	3	1	3	1	1	6	5	2	0	0	0	4	5
071012	19:56:02	10024	Trial2BackFrS	YS	17	0	1000	0	108	19:56:02	2631507	5	1	1	1	3	1	3	1	1	6	5	2	0	0	0	4	5
071012	19:56:02	10024	Trial2BackFrS	NS	17	0	1000	1	108	19:56:02	2633026	5	1	1	1	3	1	3	1	1	6	5	2	0	0	0	4	5
071012	19:56:02	10024	Trial2BackFrS	NS	17	57	711	0	108	19:56:02	2634266	5	1	1	1	3	1	3	1	1	6	5	2	0	0	0	4	5
071012	19:56:02	10024	Trial2BackFrS	NS	17	0	1000	1	108	19:56:02	2636052	5	1	1	1	3	1	3	1	1	6	5	2	0	0	0	4	5
071012	19:56:02	10024	Trial2BackFrS	YS	17	0	1000	0	108	19:56:02	2637571	5	1	1	1	3	1	3	1	1	6	5	2	0	0	0	4	5
071012	19:56:02	10024	Trial2BackFrS	NS	17	0	1000	1	108	19:56:02	2639091	5	1	1	1	3	1	3	1	1	6	5	2	0	0	0	4	5
071012	19:56:02	10024	Trial2BackFrS	NS	17	0	1000	1	108	19:56:02	2640610	5	1	1	1	3	1	3	1	1	6	5	2	0	0	0	4	5
071012	19:56:02	10024	Trial2BackFrS	NS	17	0	1000	1	108	19:56:02	2642129	5	1	1	1	3	1	3	1	1	6	5	2	0	0	0	4	5
071012	19:56:02	10024	Trial2BackFrS	NS	17	0	1000	1	108	19:56:02	2643649	5	1	1	1	3	1	3	1	1	6	5	2	0	0	0	4	5
071012	19:56:02	10024	Trial2BackFrS	YS	17	57	536	1	108	19:56:02	2644715	5	1	1	1	3	1	3	1	1	6	5	2	0	0	0	4	5
071012	19:56:02	10024	Trial2BackFrS	NS	17	0	1000	1	108	19:56:02	2646674	5	1	1	1	3	1	3	1	1	6	5	2	0	0	0	4	5
071012	19:56:02	10024	Trial2BackFrS	NS	17	0	1000	1	108	19:56:02	2648194	5	1	1	1	3	1	3	1	1	6	5	2	0	0	0	4	5
071012	19:56:02	10024	Trial2BackFrS	NS	17	0	1000	1	108	19:56:02	2649713	5	1	1	1	3	1	3	1	1	6	5	2	0	0	0	4	5
071012	19:56:02	10024	Trial2BackFrS	NS	17	57	536	0	108	19:56:02	2650779	5	1	1	1	3	1	3	1	1	6	5	2	0	0	0	4	5
071012	19:56:02	10024	Trial2BackFrS	NS	17	0	1000	1	108	19:56:02	2652738	5	1	1	1	3	1	3	1	1	6	5	2	0	0	0	4	5
071012	19:56:02	10024	Trial2BackFrS	NS	17	0	1000	1	108	19:56:02	2654258	5	1	1	1	3	1	3	1	1	6	5	2	0	0	0	4	5
071012	19:56:02	10024	Trial2BackFrS	NS	17	0	1000	1	108	19:56:02	2655777	5	1	1	1	3	1	3	1	1	6	5	2	0	0	0	4	5
071012	19:56:02	10024	Trial2BackFrS	NS	17	57	600	0	108	19:56:02	2656910	5	1	1	1	3	1	3	1	1	6	5	2	0	0	0	4	5
071012	19:56:02	10024	Trial2BackFrS	NS	17	0	1000	1	108	19:56:02	2658803	5	1	1	1	3	1	3	1	1	6	5	2	0	0	0	4	5
071012	19:56:02	10024	Trial2BackFrS	NS	17	0	1000	1	108	19:56:02	2660322	5	1	1	1	3	1	3	1	1	6	5	2	0	0	0	4	5
071012	19:56:02	10024	Trial2BackFrS	YS	17	57	615	1	108	19:56:02	2661468	5	1	1	1	3	1	3	1	1	6	5	2	0	0	0	4	5
071012	19:56:02	10024	Trial2BackFrS	NS	17	0	1000	1	108	19:56:02	2663348	5	1	1	1	3	1	3	1	1	6	5	2	0	0	0	4	5
071012	19:56:02	10024	Trial2BackFrS	NS	17	0	1000	1	108	19:56:02	2664867	5	1	1	1	3	1	3	1	1	6	5	2	0	0	0	4	5
071012	19:56:02	10024	Trial2BackFrS	NS	17	0	1000	1	108	19:56:02	2666386	5	1	1	1	3	1	3	1	1	6	5	2	0	0	0	4	5
071012	19:56:02	10024	Trial2BackFrS	YS	17	57	615	1	108	19:56:02	2667532	5	1	1	1	3	1	3	1	1	6	5	2	0	0	0	4	5
071012	19:56:02	10024	Trial2BackFrS	NS	17	0	1000	1	108	19:56:02	2669411	5	1	1	1	3	1	3	1	1	6	5	2	0	0	0	4	5
071012	19:56:02	10024	Trial2BackFrS	NS	17	0	1000	1	108	19:56:02	2670931	5	1	1	1	3	1	3	1	1	6	5	2	0	0	0	4	5
071012	19:56:02	10024	Trial2BackFrS	NS	17	0	1000	1	108	19:56:02	2672450	5	1	1	1	3	1	3	1	1	6	5	2	0	0	0	4	5
071012	19:56:02	10024	Trial2BackFrS	NS	17	0	1000	1	108	19:56:02	2673970	5	1	1	1	3	1	3	1	1	6	5	2	0	0	0	4	5
071012	19:56:02	10024	Trial2BackFrS	NS	17	0	1000	1	108	19:56:02	2675489	5	1	1	1	3	1	3	1	1	6	5	2	0	0	0	4	5
071012	19:56:02	10024	Trial2BackFrS	NS	17	0	1000	1	108	19:56:02	2677008	5	1	1	1	3	1	3	1	1	6	5	2	0	0	0	4	5
071012	19:56:02	10024	Trial2BackFrS	NS	17	0	1000	1	108	19:56:02	2678528	5	1	1	1	3	1	3	1	1	6	5	2	0	0	0	4	5
071012	19:56:02	10024	Trial2BackFrS	YS	17	57	632	1	108	19:56:02	2679688	5	1	1	1	3	1	3	1	1	6	5	2	0	0	0	4	5
071012	19:56:02	10024	Trial2BackFrS	NS	17	0	1000	1	108	19:56:02	2681553	5	1	1	1	3	1	3	1	1	6	5	2	0	0	0	4	5
071012	19:56:02	10024	Trial2BackFrS	NS	17	0	1000	1	108	19:56:02	2683073	5	1	1	1	3	1	3	1	1	6	5	2	0	0	0	4	5
071012	19:56:02	10024	Trial2BackFrS	NS	17	0	1000	1	108	19:56:02	2684592	5	1	1	1	3	1	3	1	1	6	5	2	0	0	0	4	5
071012	19:56:02	10024	Trial2BackFrS	NS	17	0	1000	1	108	19:56:02	2686111	5	1	1	1	3	1	3	1	1	6	5	2	0	0	0	4	5
071012	19:56:02	10024	Trial2BackFrS	YS	17	57	488	1	108	19:56:02	2687124	5	1	1	1	3	1	3	1	1	6	5	2	0	0	0	4	5
071012	19:56:02	10024	Trial2BackFrS	NS	17	0	1000	1	108	19:56:02	2689138	5	1	1	1	3	1	3	1	1	6	5	2	0	0	0	4	5
071012	19:56:02	10024	Trial2BackFrS	NS	17	0	1000	1	108	19:56:02	2690656	5	1	1	1	3	1	3	1	1	6	5	2	0	0	0	4	5
071012	19:56:02	10024	Trial2BackFrS	NS	17	57	616	0	108	19:56:02	2691803	5	1	1	1	3	1	3	1	1	6	5	2	0	0	0	4	5
071012	19:56:02	10024	Trial2BackFrS	NS	17	0	1000	1	108	19:56:02	2693682	5	1	1	1	3	1	3	1	1	6	5	2	0	0	0	4	5
071012	19:56:02	10024	Trial2BackFrS	NS	17	0	1000	1	108	19:56:02	2695201	5	1	1	1	3	1	3	1	1	6	5	2	0	0	0	4	5
071012	19:56:02	10024	Trial2BackFrS	NS	17	0	1000	1	108	19:56:02	2696721	5	1	1	1	3	1	3	1	1	6	5	2	0	0	0	4	5
071012	19:56:02	10024	Trial2BackFrS	YS	17	57	519	1	108	19:56:02	2697773	5	1	1	1	3	1	3	1	1	6	5	2	0	0	0	4	5
071012	19:56:02	10024	Trial2BackFrS	NS	17	0	1000	1	108	19:56:02	2699746	5	1	1	1	3	1	3	1	1	6	5	2	0	0	0	4	5
071012	19:56:02	10024	Trial2BackFrS	NS	17	0	1000	1	108	19:56:02	2701265	5	1	1	1	3	1	3	1	1	6	5	2	0	0	0	4	5
071012	19:56:02	10024	Trial2BackFrS	NS	17	0	1000	1	108	19:56:02	2702785	5	1	1	1	3	1	3	1	1	6	5	2	0	0	0	4	5
071012	19:56:02	10024	Trial2BackFrS	NS	17	0	1000	1	108	19:56:02	2704304	5	1	1	1	3	1	3	1	1	6	5	2	0	0	0	4	5
071012	19:56:02	10024	Trial2BackFrS	NS	17	0	1000	1	108	19:56:02	2705823	5	1	1	1	3	1	3	1	1	6	5	2	0	0	0	4	5
071012	19:56:02	10024	Trial2BackFrS	NS	17	0	1000	1	108	19:56:02	2707343	5	1	1	1	3	1	3	1	1	6	5	2	0	0	0	4	5
071012	19:56:02	10024	Trial2BackFrS	NS	17	0	1000	1	108	19:56:02	2708862	5	1	1	1	3	1	3	1	1	6	5	2	0	0	0	4	5
071012	19:56:02	10024	Trial2BackFrS	YS	17	0	1000	0	108	19:56:02	2710382	5	1	1	1	3	1	3	1	1	6	5	2	0	0	0	4	5
071012	19:56:02	10024	Trial2BackFrS	NS	17	0	1000	1	108	19:56:02	2711901	5	1	1	1	3	1	3	1	1	6	5	2	0	0	0	4	5
071012	19:56:02	10024	Trial2BackFrS	NS	17	0	1000	1	108	19:56:02	2713420	5	1	1	1	3	1	3	1	1	6	5	2	0	0	0	4	5
071012	19:56:02	10024	Trial2BackFrS	NS	17	57	875	0	108	19:56:02	2714820	5	1	1	1	3	1	3	1	1	6	5	2	0	0	0	4	5
071012	19:56:02	10024	Trial2BackFrS	NS	17	0	1000	1	108	19:56:02	2716446	5	1	1	1	3	1	3	1	1	6	5	2	0	0	0	4	5
071012	19:56:02	10024	Trial2BackFrS	YS	17	57	873	1	108	19:56:02	2717845	5	1	1	1	3	1	3	1	1	6	5	2	0	0	0	4	5
071012	19:56:02	10024	Trial2BackFrS	NS	17	0	1000	1	108	19:56:02	2719471	5	1	1	1	3	1	3	1	1	6	5	2	0	0	0	4	5
071012	19:56:02	10024	Trial2BackFrS	NS	17	0	1000	1	108	19:56:02	2720991	5	1	1	1	3	1	3	1	1	6	5	2	0	0	0	4	5
071012	19:56:02	10024	Trial2BackFrS	YS	17	57	377	1	108	19:56:02	2721897	5	1	1	1	3	1	3	1	1	6	5	2	0	0	0	4	5
071012	19:56:02	10024	Trial2BackFrS	NS	17	0	1000	1	108	19:56:02	2724016	5	1	1	1	3	1	3	1	1	6	5	2	0	0	0	4	5
071012	19:56:02	10024	Trial2BackFrS	NS	17	0	1000	1	108	19:56:02	2725535	5	1	1	1	3	1	3	1	1	6	5	2	0	0	0	4	5
071012	19:56:02	10024	Trial2BackFrS	NS	17	57	824	0	108	19:56:02	2726881	5	1	1	1	3	1	3	1	1	6	5	2	0	0	0	4	5
071012	19:56:02	10024	Trial2BackFrS	NS	17	0	1000	1	108	19:56:02	2728561	5	1	1	1	3	1	3	1	1	6	5	2	0	0	0	4	5
071012	19:56:02	10024	Trial2BackFrS	NS	17	0	1000	1	108	19:56:02	2730080	5	1	1	1	3	1	3	1	1	6	5	2	0	0	0	4	5
071012	19:56:02	10024	Trial2BackFrS	NS	17	0	1000	1	108	19:56:02	2731600	5	1	1	1	3	1	3	1	1	6	5	2	0	0	0	4	5
071012	19:56:02	10024	Trial2BackFrS	YS	17	57	615	1	108	19:56:02	2732746	5	1	1	1	3	1	3	1	1	6	5	2	0	0	0	4	5
071012	19:56:02	10024	Trial2BackFrS	NS	17	0	1000	1	108	19:56:02	2734625	5	1	1	1	3	1	3	1	1	6	5	2	0	0	0	4	5
071012	19:56:02	10024	Trial2BackFrS	NS	17	0	1000	1	108	19:56:02	2736145	5	1	1	1	3	1	3	1	1	6	5	2	0	0	0	4	5
071012	19:56:02	10024	Trial2BackFrS	NS	17	0	1000	1	108	19:56:02	2737664	5	1	1	1	3	1	3	1	1	6	5	2	0	0	0	4	5
071012	19:56:02	10024	Trial2BackFrS	NS	17	0	1000	1	108	19:56:02	2739183	5	1	1	1	3	1	3	1	1	6	5	2	0	0	0	4	5
071012	19:56:02	10024	Trial2BackFrS	YS	17	0	1000	0	108	19:56:02	2740703	5	1	1	1	3	1	3	1	1	6	5	2	0	0	0	4	5
071012	19:56:02	10024	Trial2BackFrS	NS	17	57	616	0	108	19:56:02	2741849	5	1	1	1	3	1	3	1	1	6	5	2	0	0	0	4	5
071012	19:56:02	10024	Trial2BackFrS	NS	17	0	1000	1	108	19:56:02	2743728	5	1	1	1	3	1	3	1	1	6	5	2	0	0	0	4	5
071012	19:56:02	10024	Trial2BackFrS	NS	17	0	1000	1	108	19:56:02	2745248	5	1	1	1	3	1	3	1	1	6	5	2	0	0	0	4	5
071012	19:56:02	10024	Trial2BackFrS	NS	17	57	439	0	108	19:56:02	2746220	5	1	1	1	3	1	3	1	1	6	5	2	0	0	0	4	5
071012	19:56:02	10024	Trial2BackFrS	YS	17	0	1000	0	108	19:56:02	2748273	5	1	1	1	3	1	3	1	1	6	5	2	0	0	0	4	5
071012	19:56:02	10024	Trial2BackFrS	NS	17	0	1000	1	108	19:56:02	2749792	5	1	1	1	3	1	3	1	1	6	5	2	0	0	0	4	5
071012	19:56:02	10024	Trial2BackFrS	NS	17	0	1000	1	108	19:56:02	2751312	5	1	1	1	3	1	3	1	1	6	5	2	0	0	0	4	5
071012	19:56:02	10024	Trial2BackFrS	YS	17	57	678	1	108	19:56:02	2752511	5	1	1	1	3	1	3	1	1	6	5	2	0	0	0	4	5
071012	19:56:02	10024	Trial2BackFrS	NS	17	0	1000	1	108	19:56:02	2754337	5	1	1	1	3	1	3	1	1	6	5	2	0	0	0	4	5
071012	19:56:02	10024	Trial2BackFrS	NS	17	0	1000	1	108	19:56:02	2755857	5	1	1	1	3	1	3	1	1	6	5	2	0	0	0	4	5
071012	19:56:02	10024	Trial2BackFrS	NS	17	0	1000	1	108	19:56:02	2757376	5	1	1	1	3	1	3	1	1	6	5	2	0	0	0	4	5
071012	19:56:02	10024	Trial2BackFrS	NS	17	0	1000	1	108	19:56:02	2758895	5	1	1	1	3	1	3	1	1	6	5	2	0	0	0	4	5
071012	19:56:02	10024	Trial2BackFrS	NS	17	0	1000	1	108	19:56:02	2760415	5	1	1	1	3	1	3	1	1	6	5	2	0	0	0	4	5
071012	19:56:02	10024	Trial2BackFrS	NS	17	0	1000	1	108	19:56:02	2761934	5	1	1	1	3	1	3	1	1	6	5	2	0	0	0	4	5
071012	19:56:02	10024	Trial2BackFrS	NS	17	0	1000	1	108	19:56:02	2763453	5	1	1	1	3	1	3	1	1	6	5	2	0	0	0	4	5
071012	19:56:02	10024	Trial2BackFrS	NS	17	0	1000	1	108	19:56:02	2764973	5	1	1	1	3	1	3	1	1	6	5	2	0	0	0	4	5
071012	19:56:02	10024	Trial2BackFrS	YS	17	57	505	1	108	19:56:02	2766012	5	1	1	1	3	1	3	1	1	6	5	2	0	0	0	4	5
071012	19:56:02	10024	Trial2BackFrS	NS	17	0	1000	1	108	19:56:02	2767998	5	1	1	1	3	1	3	1	1	6	5	2	0	0	0	4	5
071012	19:56:02	10024	Trial2BackFrS	NS	17	0	1000	1	108	19:56:02	2769518	5	1	1	1	3	1	3	1	1	6	5	2	0	0	0	4	5
071012	19:56:02	10024	Trial2BackFrS	NS	17	0	1000	1	108	19:56:02	2771037	5	1	1	1	3	1	3	1	1	6	5	2	0	0	0	4	5
071012	19:56:02	10024	Trial2BackFrS	NS	17	0	1000	1	108	19:56:02	2772556	5	1	1	1	3	1	3	1	1	6	5	2	0	0	0	4	5
071012	19:56:02	10024	Trial2BackFrS	NS	17	0	1000	1	108	19:56:02	2774076	5	1	1	1	3	1	3	1	1	6	5	2	0	0	0	4	5
071012	19:56:02	10024	Trial2BackFrS	NS	17	0	1000	1	108	19:56:02	2775595	5	1	1	1	3	1	3	1	1	6	5	2	0	0	0	4	5
071012	19:56:02	10024	Trial2BackFrS	NS	17	0	1000	1	108	19:56:02	2777115	5	1	1	1	3	1	3	1	1	6	5	2	0	0	0	4	5
071012	19:56:02	10024	Trial2BackFrS	YS	17	0	1000	0	108	19:56:02	2778634	5	1	1	1	3	1	3	1	1	6	5	2	0	0	0	4	5
071012	19:56:02	10024	Trial2BackFrS	NS	17	0	1000	1	108	19:56:02	2780153	5	1	1	1	3	1	3	1	1	6	5	2	0	0	0	4	5
071012	19:56:02	10024	Trial2BackFrS	NS	17	0	1000	1	108	19:56:02	2781673	5	1	1	1	3	1	3	1	1	6	5	2	0	0	0	4	5
071012	19:56:02	10024	Trial2BackFrS	NS	17	57	573	0	108	19:56:02	2782779	5	1	1	1	3	1	3	1	1	6	5	2	0	0	0	4	5
071012	19:56:02	10024	Trial2BackFrS	NS	17	0	1000	1	108	19:56:02	2784698	5	1	1	1	3	1	3	1	1	6	5	2	0	0	0	4	5
071012	19:56:02	10024	Trial2BackFrS	NS	17	0	1000	1	108	19:56:02	2786218	5	1	1	1	3	1	3	1	1	6	5	2	0	0	0	4	5
071012	19:56:02	10024	Trial2BackFrS	NS	17	0	1000	1	108	19:56:02	2787737	5	1	1	1	3	1	3	1	1	6	5	2	0	0	0	4	5
071012	19:56:02	10024	Trial2BackFrS	NS	17	0	1000	1	108	19:56:02	2789256	5	1	1	1	3	1	3	1	1	6	5	2	0	0	0	4	5
071012	19:56:02	10024	Trial2BackFrS	NS	17	0	1000	1	108	19:56:02	2790776	5	1	1	1	3	1	3	1	1	6	5	2	0	0	0	4	5
071012	19:56:02	10024	Trial2BackFrS	NS	17	0	1000	1	108	19:56:02	2792295	5	1	1	1	3	1	3	1	1	6	5	2	0	0	0	4	5
071012	19:56:02	10024	Trial2BackFrS	YS	17	57	510	1	108	19:56:02	2793335	5	1	1	1	3	1	3	1	1	6	5	2	0	0	0	4	5
071012	19:56:02	10024	Trial2BackFrS	NS	17	0	1000	1	108	19:56:02	2795321	5	1	1	1	3	1	3	1	1	6	5	2	0	0	0	4	5
071012	19:56:02	10024	ClockFrBaseline	ClockFrBaseline	19	Clock1	54966	0	108	19:56:02	2850418	5	1	1	1	3	1	3	1	1	6	5	2	1	0	0	4	5
071012	19:56:02	10024	ClockFrBaseline	ClockFrBaseline	19	Clock11	776	0	108	19:56:02	2851232	5	1	1	1	3	1	3	1	1	6	5	2	1	1	0	4	5
071012	19:56:02	10024	ClockFrBaseline	ClockFrBaseline	19	Clock111	549	0	108	19:56:02	2851818	5	1	1	1	3	1	3	1	1	6	5	2	1	1	1	4	5
071012	19:56:02	10024	ClockFrBaseline	ClockFrBaseline	19	Clockdone	480	0	108	19:56:02	2852338	5	1	1	1	3	1	3	1	1	6	5	2	1	1	1	4	5
071012	19:56:02	10024	FASFrVFBaseline	StopFrVFBaseline	20	18	8143	0	108	19:56:02	2988912	5	1	1	1	3	1	3	1	1	6	5	2	1	1	1	4	5
