date	time	subject	blockcode	trialcode	values.TaskNumber	response	latency	correct	values.Score	script.starttime	script.elapsedtime	values.ScoreS7	values.Word1	values.Word2	values.Word3	values.Word4	values.Word5	values.Word6	values.Word7	values.Word8	values.DigitSpanFwrd	values.DigitSpanBack	values.ScoreAbs	values.Contour	values.Numbers	values.Hands	values.corsiblockspanFwrd	values.corsiblockspanRev
072512	15:07:52	10005	Language	Language	0	French	12750	0	0	15:07:52	12896	0	0	0	0	0	0	0	0	0	0	0	0	0	0	0	0	0
072512	15:07:52	10005	Session	Session	0	3mo	611	0	0	15:07:52	13589	0	0	0	0	0	0	0	0	0	0	0	0	0	0	0	0	0
072512	15:07:52	10005	HandFr	HandFr	0	RightFr	1440093	0	0	15:07:52	1453765	0	0	0	0	0	0	0	0	0	0	0	0	0	0	0	0	0
072512	15:07:52	10005	AudioCheckFr	WordsFr	0	0	0	0	0	15:07:52	1471495	0	0	0	0	0	0	0	0	0	0	0	0	0	0	0	0	0
072512	15:07:52	10005	AudioCheckFr	WordsFr	0	0	0	0	0	15:07:52	1485585	0	0	0	0	0	0	0	0	0	0	0	0	0	0	0	0	0
072512	15:07:52	10005	CubeFr	CubeFr	1	1Cube	44810	0	0	15:07:52	1534477	0	0	0	0	0	0	0	0	0	0	0	0	0	0	0	0	0
072512	15:07:52	10005	pm.simpleFrRight	blank.simpleFr	2	0	2187	1	0	15:07:52	1581698	0	0	0	0	0	0	0	0	0	0	0	0	0	0	0	0	0
072512	15:07:52	10005	pm.simpleFrRight	pm.simpleFr	2	57	553	0	0	15:07:52	1582284	0	0	0	0	0	0	0	0	0	0	0	0	0	0	0	0	0
072512	15:07:52	10005	pm.simpleFrRight	blank.simpleFr	2	0	2387	1	0	15:07:52	1584696	0	0	0	0	0	0	0	0	0	0	0	0	0	0	0	0	0
072512	15:07:52	10005	pm.simpleFrRight	pm.simpleFr	2	57	930	0	0	15:07:52	1585656	0	0	0	0	0	0	0	0	0	0	0	0	0	0	0	0	0
072512	15:07:52	10005	pm.simpleFrRight	blank.simpleFr	2	0	1687	1	0	15:07:52	1587362	0	0	0	0	0	0	0	0	0	0	0	0	0	0	0	0	0
072512	15:07:52	10005	pm.simpleFrRight	pm.simpleFr	2	57	328	0	0	15:07:52	1587721	0	0	0	0	0	0	0	0	0	0	0	0	0	0	0	0	0
072512	15:07:52	10005	pm.simpleFrRight	blank.simpleFr	2	0	2087	1	0	15:07:52	1589840	0	0	0	0	0	0	0	0	0	0	0	0	0	0	0	0	0
072512	15:07:52	10005	pm.simpleFrRight	pm.simpleFr	2	57	297	0	0	15:07:52	1590174	0	0	0	0	0	0	0	0	0	0	0	0	0	0	0	0	0
072512	15:07:52	10005	pm.simpleFrRight	blank.simpleFr	2	0	1487	1	0	15:07:52	1591693	0	0	0	0	0	0	0	0	0	0	0	0	0	0	0	0	0
072512	15:07:52	10005	pm.simpleFrRight	pm.simpleFr	2	57	284	0	0	15:07:52	1592013	0	0	0	0	0	0	0	0	0	0	0	0	0	0	0	0	0
072512	15:07:52	10005	pm.simpleFrRight	blank.simpleFr	2	0	1587	1	0	15:07:52	1593626	0	0	0	0	0	0	0	0	0	0	0	0	0	0	0	0	0
072512	15:07:52	10005	pm.simpleFrRight	pm.simpleFr	2	57	320	0	0	15:07:52	1593985	0	0	0	0	0	0	0	0	0	0	0	0	0	0	0	0	0
072512	15:07:52	10005	pm.simpleFrRight	blank.simpleFr	2	0	2487	1	0	15:07:52	1596505	0	0	0	0	0	0	0	0	0	0	0	0	0	0	0	0	0
072512	15:07:52	10005	pm.simpleFrRight	pm.simpleFr	2	57	321	0	0	15:07:52	1596864	0	0	0	0	0	0	0	0	0	0	0	0	0	0	0	0	0
072512	15:07:52	10005	pm.simpleFrRight	blank.simpleFr	2	0	1887	1	0	15:07:52	1598783	0	0	0	0	0	0	0	0	0	0	0	0	0	0	0	0	0
072512	15:07:52	10005	pm.simpleFrRight	pm.simpleFr	2	57	266	0	0	15:07:52	1599090	0	0	0	0	0	0	0	0	0	0	0	0	0	0	0	0	0
072512	15:07:52	10005	pm.simpleFrRight	blank.simpleFr	2	0	2287	1	0	15:07:52	1601409	0	0	0	0	0	0	0	0	0	0	0	0	0	0	0	0	0
072512	15:07:52	10005	pm.simpleFrRight	pm.simpleFr	2	57	296	0	0	15:07:52	1601742	0	0	0	0	0	0	0	0	0	0	0	0	0	0	0	0	0
072512	15:07:52	10005	pm.simpleFrRight	blank.simpleFr	2	0	1787	1	0	15:07:52	1603555	0	0	0	0	0	0	0	0	0	0	0	0	0	0	0	0	0
072512	15:07:52	10005	pm.simpleFrRight	pm.simpleFr	2	57	262	0	0	15:07:52	1603848	0	0	0	0	0	0	0	0	0	0	0	0	0	0	0	0	0
072512	15:07:52	10005	pm.simpleFrRight	blank.simpleFr	2	0	1987	1	0	15:07:52	1605861	0	0	0	0	0	0	0	0	0	0	0	0	0	0	0	0	0
072512	15:07:52	10005	pm.simpleFrRight	pm.simpleFr	2	57	325	0	0	15:07:52	1606220	0	0	0	0	0	0	0	0	0	0	0	0	0	0	0	0	0
072512	15:07:52	10005	pm.simpleFrRight	blank.simpleFr	2	0	1687	1	0	15:07:52	1607940	0	0	0	0	0	0	0	0	0	0	0	0	0	0	0	0	0
072512	15:07:52	10005	pm.simpleFrRight	pm.simpleFr	2	57	293	0	0	15:07:52	1608273	0	0	0	0	0	0	0	0	0	0	0	0	0	0	0	0	0
072512	15:07:52	10005	pm.simpleFrRight	blank.simpleFr	2	0	2487	1	0	15:07:52	1610792	0	0	0	0	0	0	0	0	0	0	0	0	0	0	0	0	0
072512	15:07:52	10005	pm.simpleFrRight	pm.simpleFr	2	57	257	0	0	15:07:52	1611085	0	0	0	0	0	0	0	0	0	0	0	0	0	0	0	0	0
072512	15:07:52	10005	pm.simpleFrRight	blank.simpleFr	2	0	2187	1	0	15:07:52	1613297	0	0	0	0	0	0	0	0	0	0	0	0	0	0	0	0	0
072512	15:07:52	10005	pm.simpleFrRight	pm.simpleFr	2	57	264	0	0	15:07:52	1613591	0	0	0	0	0	0	0	0	0	0	0	0	0	0	0	0	0
072512	15:07:52	10005	pm.simpleFrRight	blank.simpleFr	2	0	2387	1	0	15:07:52	1616003	0	0	0	0	0	0	0	0	0	0	0	0	0	0	0	0	0
072512	15:07:52	10005	pm.simpleFrRight	pm.simpleFr	2	57	262	0	0	15:07:52	1616296	0	0	0	0	0	0	0	0	0	0	0	0	0	0	0	0	0
072512	15:07:52	10005	pm.simpleFrRight	blank.simpleFr	2	0	1587	1	0	15:07:52	1617909	0	0	0	0	0	0	0	0	0	0	0	0	0	0	0	0	0
072512	15:07:52	10005	pm.simpleFrRight	pm.simpleFr	2	57	244	0	0	15:07:52	1618189	0	0	0	0	0	0	0	0	0	0	0	0	0	0	0	0	0
072512	15:07:52	10005	pm.simpleFrRight	blank.simpleFr	2	0	2287	1	0	15:07:52	1620508	0	0	0	0	0	0	0	0	0	0	0	0	0	0	0	0	0
072512	15:07:52	10005	pm.simpleFrRight	pm.simpleFr	2	57	253	0	0	15:07:52	1620801	0	0	0	0	0	0	0	0	0	0	0	0	0	0	0	0	0
072512	15:07:52	10005	pm.simpleFrRight	blank.simpleFr	2	0	1787	1	0	15:07:52	1622614	0	0	0	0	0	0	0	0	0	0	0	0	0	0	0	0	0
072512	15:07:52	10005	pm.simpleFrRight	pm.simpleFr	2	57	246	0	0	15:07:52	1622894	0	0	0	0	0	0	0	0	0	0	0	0	0	0	0	0	0
072512	15:07:52	10005	pm.simpleFrRight	blank.simpleFr	2	0	1887	1	0	15:07:52	1624813	0	0	0	0	0	0	0	0	0	0	0	0	0	0	0	0	0
072512	15:07:52	10005	pm.simpleFrRight	pm.simpleFr	2	57	251	0	0	15:07:52	1625106	0	0	0	0	0	0	0	0	0	0	0	0	0	0	0	0	0
072512	15:07:52	10005	pm.simpleFrRight	blank.simpleFr	2	0	1487	1	0	15:07:52	1626625	0	0	0	0	0	0	0	0	0	0	0	0	0	0	0	0	0
072512	15:07:52	10005	pm.simpleFrRight	pm.simpleFr	2	57	263	0	0	15:07:52	1626918	0	0	0	0	0	0	0	0	0	0	0	0	0	0	0	0	0
072512	15:07:52	10005	pm.simpleFrRight	blank.simpleFr	2	0	2087	1	0	15:07:52	1629038	0	0	0	0	0	0	0	0	0	0	0	0	0	0	0	0	0
072512	15:07:52	10005	pm.simpleFrRight	pm.simpleFr	2	57	250	0	0	15:07:52	1629331	0	0	0	0	0	0	0	0	0	0	0	0	0	0	0	0	0
072512	15:07:52	10005	pm.simpleFrRight	blank.simpleFr	2	0	1987	1	0	15:07:52	1631343	0	0	0	0	0	0	0	0	0	0	0	0	0	0	0	0	0
072512	15:07:52	10005	pm.simpleFrRight	pm.simpleFr	2	57	249	0	0	15:07:52	1631623	0	0	0	0	0	0	0	0	0	0	0	0	0	0	0	0	0
072512	15:07:52	10005	pm.simpleFrRight	blank.simpleFr	2	0	1787	1	0	15:07:52	1633436	0	0	0	0	0	0	0	0	0	0	0	0	0	0	0	0	0
072512	15:07:52	10005	pm.simpleFrRight	pm.simpleFr	2	57	253	0	0	15:07:52	1633729	0	0	0	0	0	0	0	0	0	0	0	0	0	0	0	0	0
072512	15:07:52	10005	pm.simpleFrRight	blank.simpleFr	2	0	1887	1	0	15:07:52	1635635	0	0	0	0	0	0	0	0	0	0	0	0	0	0	0	0	0
072512	15:07:52	10005	pm.simpleFrRight	pm.simpleFr	2	57	261	0	0	15:07:52	1635928	0	0	0	0	0	0	0	0	0	0	0	0	0	0	0	0	0
072512	15:07:52	10005	pm.simpleFrRight	blank.simpleFr	2	0	2487	1	0	15:07:52	1638447	0	0	0	0	0	0	0	0	0	0	0	0	0	0	0	0	0
072512	15:07:52	10005	pm.simpleFrRight	pm.simpleFr	2	57	265	0	0	15:07:52	1638754	0	0	0	0	0	0	0	0	0	0	0	0	0	0	0	0	0
072512	15:07:52	10005	pm.simpleFrRight	blank.simpleFr	2	0	1487	1	0	15:07:52	1640273	0	0	0	0	0	0	0	0	0	0	0	0	0	0	0	0	0
072512	15:07:52	10005	pm.simpleFrRight	pm.simpleFr	2	57	263	0	0	15:07:52	1640566	0	0	0	0	0	0	0	0	0	0	0	0	0	0	0	0	0
072512	15:07:52	10005	pm.simpleFrRight	blank.simpleFr	2	57	2017	0	0	15:07:52	1643618	0	0	0	0	0	0	0	0	0	0	0	0	0	0	0	0	0
072512	15:07:52	10005	pm.simpleFrRight	blank.simpleFr	2	0	1687	1	0	15:07:52	1645338	0	0	0	0	0	0	0	0	0	0	0	0	0	0	0	0	0
072512	15:07:52	10005	pm.simpleFrRight	pm.simpleFr	2	57	910	0	0	15:07:52	1646284	0	0	0	0	0	0	0	0	0	0	0	0	0	0	0	0	0
072512	15:07:52	10005	pm.simpleFrRight	blank.simpleFr	2	0	1987	1	0	15:07:52	1648296	0	0	0	0	0	0	0	0	0	0	0	0	0	0	0	0	0
072512	15:07:52	10005	pm.simpleFrRight	pm.simpleFr	2	57	288	0	0	15:07:52	1648616	0	0	0	0	0	0	0	0	0	0	0	0	0	0	0	0	0
072512	15:07:52	10005	pm.simpleFrRight	blank.simpleFr	2	0	1587	1	0	15:07:52	1650229	0	0	0	0	0	0	0	0	0	0	0	0	0	0	0	0	0
072512	15:07:52	10005	pm.simpleFrRight	pm.simpleFr	2	57	275	0	0	15:07:52	1650536	0	0	0	0	0	0	0	0	0	0	0	0	0	0	0	0	0
072512	15:07:52	10005	pm.simpleFrRight	blank.simpleFr	2	0	2287	1	0	15:07:52	1652854	0	0	0	0	0	0	0	0	0	0	0	0	0	0	0	0	0
072512	15:07:52	10005	pm.simpleFrRight	pm.simpleFr	2	57	305	0	0	15:07:52	1653201	0	0	0	0	0	0	0	0	0	0	0	0	0	0	0	0	0
072512	15:07:52	10005	pm.simpleFrRight	blank.simpleFr	2	0	2387	1	0	15:07:52	1655613	0	0	0	0	0	0	0	0	0	0	0	0	0	0	0	0	0
072512	15:07:52	10005	pm.simpleFrRight	pm.simpleFr	2	57	250	0	0	15:07:52	1655893	0	0	0	0	0	0	0	0	0	0	0	0	0	0	0	0	0
072512	15:07:52	10005	pm.simpleFrRight	blank.simpleFr	2	0	2187	1	0	15:07:52	1658106	0	0	0	0	0	0	0	0	0	0	0	0	0	0	0	0	0
072512	15:07:52	10005	pm.simpleFrRight	pm.simpleFr	2	57	253	0	0	15:07:52	1658399	0	0	0	0	0	0	0	0	0	0	0	0	0	0	0	0	0
072512	15:07:52	10005	pm.simpleFrRight	blank.simpleFr	2	0	1587	1	0	15:07:52	1660012	0	0	0	0	0	0	0	0	0	0	0	0	0	0	0	0	0
072512	15:07:52	10005	pm.simpleFrRight	pm.simpleFr	2	57	268	0	0	15:07:52	1660318	0	0	0	0	0	0	0	0	0	0	0	0	0	0	0	0	0
072512	15:07:52	10005	pm.simpleFrRight	blank.simpleFr	2	0	2287	1	0	15:07:52	1662637	0	0	0	0	0	0	0	0	0	0	0	0	0	0	0	0	0
072512	15:07:52	10005	pm.simpleFrRight	pm.simpleFr	2	57	234	0	0	15:07:52	1662904	0	0	0	0	0	0	0	0	0	0	0	0	0	0	0	0	0
072512	15:07:52	10005	pm.simpleFrRight	blank.simpleFr	2	0	1787	1	0	15:07:52	1664716	0	0	0	0	0	0	0	0	0	0	0	0	0	0	0	0	0
072512	15:07:52	10005	pm.simpleFrRight	pm.simpleFr	2	57	235	0	0	15:07:52	1664983	0	0	0	0	0	0	0	0	0	0	0	0	0	0	0	0	0
072512	15:07:52	10005	pm.simpleFrRight	blank.simpleFr	2	0	2187	1	0	15:07:52	1667195	0	0	0	0	0	0	0	0	0	0	0	0	0	0	0	0	0
072512	15:07:52	10005	pm.simpleFrRight	pm.simpleFr	2	57	2156	0	0	15:07:52	1669381	0	0	0	0	0	0	0	0	0	0	0	0	0	0	0	0	0
072512	15:07:52	10005	pm.simpleFrRight	blank.simpleFr	2	0	1487	1	0	15:07:52	1670887	0	0	0	0	0	0	0	0	0	0	0	0	0	0	0	0	0
072512	15:07:52	10005	pm.simpleFrRight	pm.simpleFr	2	57	576	0	0	15:07:52	1671500	0	0	0	0	0	0	0	0	0	0	0	0	0	0	0	0	0
072512	15:07:52	10005	pm.simpleFrRight	blank.simpleFr	2	0	2487	1	0	15:07:52	1674019	0	0	0	0	0	0	0	0	0	0	0	0	0	0	0	0	0
072512	15:07:52	10005	pm.simpleFrRight	pm.simpleFr	2	57	324	0	0	15:07:52	1674379	0	0	0	0	0	0	0	0	0	0	0	0	0	0	0	0	0
072512	15:07:52	10005	pm.simpleFrRight	blank.simpleFr	2	0	1887	1	0	15:07:52	1676298	0	0	0	0	0	0	0	0	0	0	0	0	0	0	0	0	0
072512	15:07:52	10005	pm.simpleFrRight	pm.simpleFr	2	57	269	0	0	15:07:52	1676605	0	0	0	0	0	0	0	0	0	0	0	0	0	0	0	0	0
072512	15:07:52	10005	pm.simpleFrRight	blank.simpleFr	2	0	1687	1	0	15:07:52	1678324	0	0	0	0	0	0	0	0	0	0	0	0	0	0	0	0	0
072512	15:07:52	10005	pm.simpleFrRight	pm.simpleFr	2	57	307	0	0	15:07:52	1678670	0	0	0	0	0	0	0	0	0	0	0	0	0	0	0	0	0
072512	15:07:52	10005	Trial2BackFr	N	3	0	1000	1	1	15:07:52	1833833	0	0	0	0	0	0	0	0	0	0	0	0	0	0	0	0	0
072512	15:07:52	10005	Trial2BackFr	N	3	0	1000	1	2	15:07:52	1835352	0	0	0	0	0	0	0	0	0	0	0	0	0	0	0	0	0
072512	15:07:52	10005	Trial2BackFr	N	3	0	1000	1	3	15:07:52	1836871	0	0	0	0	0	0	0	0	0	0	0	0	0	0	0	0	0
072512	15:07:52	10005	Trial2BackFr	N	3	0	1000	1	4	15:07:52	1838391	0	0	0	0	0	0	0	0	0	0	0	0	0	0	0	0	0
072512	15:07:52	10005	Trial2BackFr	N	3	0	1000	1	5	15:07:52	1839910	0	0	0	0	0	0	0	0	0	0	0	0	0	0	0	0	0
072512	15:07:52	10005	Trial2BackFr	N	3	0	1000	1	6	15:07:52	1841430	0	0	0	0	0	0	0	0	0	0	0	0	0	0	0	0	0
072512	15:07:52	10005	Trial2BackFr	N	3	0	1000	1	7	15:07:52	1842949	0	0	0	0	0	0	0	0	0	0	0	0	0	0	0	0	0
072512	15:07:52	10005	Trial2BackFr	N	3	0	1000	1	8	15:07:52	1844468	0	0	0	0	0	0	0	0	0	0	0	0	0	0	0	0	0
072512	15:07:52	10005	Trial2BackFr	Y	3	0	1000	0	8	15:07:52	1845988	0	0	0	0	0	0	0	0	0	0	0	0	0	0	0	0	0
072512	15:07:52	10005	Trial2BackFr	N	3	0	1000	1	9	15:07:52	1847507	0	0	0	0	0	0	0	0	0	0	0	0	0	0	0	0	0
072512	15:07:52	10005	Trial2BackFr	N	3	0	1000	1	10	15:07:52	1849026	0	0	0	0	0	0	0	0	0	0	0	0	0	0	0	0	0
072512	15:07:52	10005	Trial2BackFr	N	3	0	1000	1	11	15:07:52	1850546	0	0	0	0	0	0	0	0	0	0	0	0	0	0	0	0	0
072512	15:07:52	10005	Trial2BackFr	Y	3	0	1000	0	11	15:07:52	1852065	0	0	0	0	0	0	0	0	0	0	0	0	0	0	0	0	0
072512	15:07:52	10005	Trial2BackFr	N	3	0	1000	1	12	15:07:52	1853585	0	0	0	0	0	0	0	0	0	0	0	0	0	0	0	0	0
072512	15:07:52	10005	Trial2BackFr	N	3	0	1000	1	13	15:07:52	1855104	0	0	0	0	0	0	0	0	0	0	0	0	0	0	0	0	0
072512	15:07:52	10005	Trial2BackFr	N	3	0	1000	1	14	15:07:52	1856623	0	0	0	0	0	0	0	0	0	0	0	0	0	0	0	0	0
072512	15:07:52	10005	Trial2BackFr	N	3	0	1000	1	15	15:07:52	1858143	0	0	0	0	0	0	0	0	0	0	0	0	0	0	0	0	0
072512	15:07:52	10005	Trial2BackFr	N	3	0	1000	1	16	15:07:52	1859662	0	0	0	0	0	0	0	0	0	0	0	0	0	0	0	0	0
072512	15:07:52	10005	Trial2BackFr	Y	3	0	1000	0	16	15:07:52	1861181	0	0	0	0	0	0	0	0	0	0	0	0	0	0	0	0	0
072512	15:07:52	10005	Trial2BackFr	N	3	0	1000	1	17	15:07:52	1862701	0	0	0	0	0	0	0	0	0	0	0	0	0	0	0	0	0
072512	15:07:52	10005	Trial2BackFr	N	3	0	1000	1	18	15:07:52	1864220	0	0	0	0	0	0	0	0	0	0	0	0	0	0	0	0	0
072512	15:07:52	10005	Trial2BackFr	N	3	0	1000	1	19	15:07:52	1865739	0	0	0	0	0	0	0	0	0	0	0	0	0	0	0	0	0
072512	15:07:52	10005	Trial2BackFr	N	3	0	1000	1	20	15:07:52	1867259	0	0	0	0	0	0	0	0	0	0	0	0	0	0	0	0	0
072512	15:07:52	10005	Trial2BackFr	Y	3	0	1000	0	20	15:07:52	1868778	0	0	0	0	0	0	0	0	0	0	0	0	0	0	0	0	0
072512	15:07:52	10005	Trial2BackFr	N	3	57	827	0	20	15:07:52	1870137	0	0	0	0	0	0	0	0	0	0	0	0	0	0	0	0	0
072512	15:07:52	10005	Trial2BackFr	N	3	0	1000	1	21	15:07:52	1871804	0	0	0	0	0	0	0	0	0	0	0	0	0	0	0	0	0
072512	15:07:52	10005	Trial2BackFr	N	3	0	1000	1	22	15:07:52	1873323	0	0	0	0	0	0	0	0	0	0	0	0	0	0	0	0	0
072512	15:07:52	10005	Trial2BackFr	N	3	0	1000	1	23	15:07:52	1874842	0	0	0	0	0	0	0	0	0	0	0	0	0	0	0	0	0
072512	15:07:52	10005	Trial2BackFr	N	3	0	1000	1	24	15:07:52	1876362	0	0	0	0	0	0	0	0	0	0	0	0	0	0	0	0	0
072512	15:07:52	10005	Trial2BackFr	N	3	0	1000	1	25	15:07:52	1877881	0	0	0	0	0	0	0	0	0	0	0	0	0	0	0	0	0
072512	15:07:52	10005	Trial2BackFr	Y	3	57	619	1	26	15:07:52	1879027	0	0	0	0	0	0	0	0	0	0	0	0	0	0	0	0	0
072512	15:07:52	10005	Trial2BackFr	N	3	0	1000	1	27	15:07:52	1880907	0	0	0	0	0	0	0	0	0	0	0	0	0	0	0	0	0
072512	15:07:52	10005	Trial2BackFr	N	3	0	1000	1	28	15:07:52	1882426	0	0	0	0	0	0	0	0	0	0	0	0	0	0	0	0	0
072512	15:07:52	10005	Trial2BackFr	N	3	0	1000	1	29	15:07:52	1883945	0	0	0	0	0	0	0	0	0	0	0	0	0	0	0	0	0
072512	15:07:52	10005	Trial2BackFr	Y	3	0	1000	0	29	15:07:52	1885465	0	0	0	0	0	0	0	0	0	0	0	0	0	0	0	0	0
072512	15:07:52	10005	Trial2BackFr	N	3	0	1000	1	30	15:07:52	1886984	0	0	0	0	0	0	0	0	0	0	0	0	0	0	0	0	0
072512	15:07:52	10005	Trial2BackFr	N	3	0	1000	1	31	15:07:52	1888504	0	0	0	0	0	0	0	0	0	0	0	0	0	0	0	0	0
072512	15:07:52	10005	Trial2BackFr	N	3	0	1000	1	32	15:07:52	1890023	0	0	0	0	0	0	0	0	0	0	0	0	0	0	0	0	0
072512	15:07:52	10005	Trial2BackFr	N	3	0	1000	1	33	15:07:52	1891542	0	0	0	0	0	0	0	0	0	0	0	0	0	0	0	0	0
072512	15:07:52	10005	Trial2BackFr	N	3	0	1000	1	34	15:07:52	1893061	0	0	0	0	0	0	0	0	0	0	0	0	0	0	0	0	0
072512	15:07:52	10005	Trial2BackFr	N	3	0	1000	1	35	15:07:52	1894581	0	0	0	0	0	0	0	0	0	0	0	0	0	0	0	0	0
072512	15:07:52	10005	Trial2BackFr	Y	3	0	1000	0	35	15:07:52	1896100	0	0	0	0	0	0	0	0	0	0	0	0	0	0	0	0	0
072512	15:07:52	10005	Trial2BackFr	N	3	0	1000	1	36	15:07:52	1897620	0	0	0	0	0	0	0	0	0	0	0	0	0	0	0	0	0
072512	15:07:52	10005	Trial2BackFr	N	3	0	1000	1	37	15:07:52	1899139	0	0	0	0	0	0	0	0	0	0	0	0	0	0	0	0	0
072512	15:07:52	10005	Trial2BackFr	N	3	0	1000	1	38	15:07:52	1900658	0	0	0	0	0	0	0	0	0	0	0	0	0	0	0	0	0
072512	15:07:52	10005	Trial2BackFr	N	3	0	1000	1	39	15:07:52	1902178	0	0	0	0	0	0	0	0	0	0	0	0	0	0	0	0	0
072512	15:07:52	10005	Trial2BackFr	Y	3	57	962	1	40	15:07:52	1903670	0	0	0	0	0	0	0	0	0	0	0	0	0	0	0	0	0
072512	15:07:52	10005	Trial2BackFr	N	3	0	1000	1	41	15:07:52	1905203	0	0	0	0	0	0	0	0	0	0	0	0	0	0	0	0	0
072512	15:07:52	10005	Trial2BackFr	N	3	0	1000	1	42	15:07:52	1906722	0	0	0	0	0	0	0	0	0	0	0	0	0	0	0	0	0
072512	15:07:52	10005	Trial2BackFr	N	3	0	1000	1	43	15:07:52	1908242	0	0	0	0	0	0	0	0	0	0	0	0	0	0	0	0	0
072512	15:07:52	10005	Trial2BackFr	N	3	0	1000	1	44	15:07:52	1909761	0	0	0	0	0	0	0	0	0	0	0	0	0	0	0	0	0
072512	15:07:52	10005	Trial2BackFr	N	3	0	1000	1	45	15:07:52	1911281	0	0	0	0	0	0	0	0	0	0	0	0	0	0	0	0	0
072512	15:07:52	10005	Trial2BackFr	Y	3	0	1000	0	45	15:07:52	1912800	0	0	0	0	0	0	0	0	0	0	0	0	0	0	0	0	0
072512	15:07:52	10005	Trial2BackFr	N	3	0	1000	1	46	15:07:52	1914319	0	0	0	0	0	0	0	0	0	0	0	0	0	0	0	0	0
072512	15:07:52	10005	Trial2BackFr	N	3	0	1000	1	47	15:07:52	1915839	0	0	0	0	0	0	0	0	0	0	0	0	0	0	0	0	0
072512	15:07:52	10005	Trial2BackFr	N	3	0	1000	1	48	15:07:52	1917358	0	0	0	0	0	0	0	0	0	0	0	0	0	0	0	0	0
072512	15:07:52	10005	Trial2BackFr	N	3	0	1000	1	49	15:07:52	1918877	0	0	0	0	0	0	0	0	0	0	0	0	0	0	0	0	0
072512	15:07:52	10005	Trial2BackFr	N	3	0	1000	1	50	15:07:52	1920397	0	0	0	0	0	0	0	0	0	0	0	0	0	0	0	0	0
072512	15:07:52	10005	Trial2BackFr	N	3	0	1000	1	51	15:07:52	1921916	0	0	0	0	0	0	0	0	0	0	0	0	0	0	0	0	0
072512	15:07:52	10005	Trial2BackFr	Y	3	0	1000	0	51	15:07:52	1923436	0	0	0	0	0	0	0	0	0	0	0	0	0	0	0	0	0
072512	15:07:52	10005	Trial2BackFr	N	3	0	1000	1	52	15:07:52	1924955	0	0	0	0	0	0	0	0	0	0	0	0	0	0	0	0	0
072512	15:07:52	10005	Trial2BackFr	N	3	0	1000	1	53	15:07:52	1926474	0	0	0	0	0	0	0	0	0	0	0	0	0	0	0	0	0
072512	15:07:52	10005	Trial2BackFr	Y	3	0	1000	0	53	15:07:52	1927994	0	0	0	0	0	0	0	0	0	0	0	0	0	0	0	0	0
072512	15:07:52	10005	Trial2BackFr	N	3	0	1000	1	54	15:07:52	1929513	0	0	0	0	0	0	0	0	0	0	0	0	0	0	0	0	0
072512	15:07:52	10005	Trial2BackFr	N	3	0	1000	1	55	15:07:52	1931032	0	0	0	0	0	0	0	0	0	0	0	0	0	0	0	0	0
072512	15:07:52	10005	Trial2BackFr	N	3	0	1000	1	56	15:07:52	1932552	0	0	0	0	0	0	0	0	0	0	0	0	0	0	0	0	0
072512	15:07:52	10005	Trial2BackFr	N	3	0	1000	1	57	15:07:52	1934071	0	0	0	0	0	0	0	0	0	0	0	0	0	0	0	0	0
072512	15:07:52	10005	Trial2BackFr	N	3	0	1000	1	58	15:07:52	1935590	0	0	0	0	0	0	0	0	0	0	0	0	0	0	0	0	0
072512	15:07:52	10005	Trial2BackFr	N	3	0	1000	1	59	15:07:52	1937110	0	0	0	0	0	0	0	0	0	0	0	0	0	0	0	0	0
072512	15:07:52	10005	Trial2BackFr	N	3	0	1000	1	60	15:07:52	1938629	0	0	0	0	0	0	0	0	0	0	0	0	0	0	0	0	0
072512	15:07:52	10005	Trial2BackFr	N	3	0	1000	1	61	15:07:52	1940149	0	0	0	0	0	0	0	0	0	0	0	0	0	0	0	0	0
072512	15:07:52	10005	Trial2BackFr	N	3	0	1000	1	62	15:07:52	1941668	0	0	0	0	0	0	0	0	0	0	0	0	0	0	0	0	0
072512	15:07:52	10005	Trial2BackFr	N	3	0	1000	1	63	15:07:52	1943187	0	0	0	0	0	0	0	0	0	0	0	0	0	0	0	0	0
072512	15:07:52	10005	Trial2BackFr	Y	3	0	1000	0	63	15:07:52	1944707	0	0	0	0	0	0	0	0	0	0	0	0	0	0	0	0	0
072512	15:07:52	10005	Trial2BackFr	N	3	0	1000	1	64	15:07:52	1946226	0	0	0	0	0	0	0	0	0	0	0	0	0	0	0	0	0
072512	15:07:52	10005	Trial2BackFr	N	3	0	1000	1	65	15:07:52	1947745	0	0	0	0	0	0	0	0	0	0	0	0	0	0	0	0	0
072512	15:07:52	10005	Trial2BackFr	N	3	0	1000	1	66	15:07:52	1949265	0	0	0	0	0	0	0	0	0	0	0	0	0	0	0	0	0
072512	15:07:52	10005	Trial2BackFr	Y	3	0	1000	0	66	15:07:52	1950784	0	0	0	0	0	0	0	0	0	0	0	0	0	0	0	0	0
072512	15:07:52	10005	Trial2BackFr	N	3	0	1000	1	67	15:07:52	1952304	0	0	0	0	0	0	0	0	0	0	0	0	0	0	0	0	0
072512	15:07:52	10005	Trial2BackFr	N	3	0	1000	1	68	15:07:52	1953823	0	0	0	0	0	0	0	0	0	0	0	0	0	0	0	0	0
072512	15:07:52	10005	Trial2BackFr	N	3	0	1000	1	69	15:07:52	1955342	0	0	0	0	0	0	0	0	0	0	0	0	0	0	0	0	0
072512	15:07:52	10005	Trial2BackFr	N	3	0	1000	1	70	15:07:52	1956862	0	0	0	0	0	0	0	0	0	0	0	0	0	0	0	0	0
072512	15:07:52	10005	Trial2BackFr	N	3	0	1000	1	71	15:07:52	1958381	0	0	0	0	0	0	0	0	0	0	0	0	0	0	0	0	0
072512	15:07:52	10005	Trial2BackFr	Y	3	0	1000	0	71	15:07:52	1959900	0	0	0	0	0	0	0	0	0	0	0	0	0	0	0	0	0
072512	15:07:52	10005	Trial2BackFr	N	3	0	1000	1	72	15:07:52	1961420	0	0	0	0	0	0	0	0	0	0	0	0	0	0	0	0	0
072512	15:07:52	10005	Trial2BackFr	N	3	0	1000	1	73	15:07:52	1962939	0	0	0	0	0	0	0	0	0	0	0	0	0	0	0	0	0
072512	15:07:52	10005	Trial2BackFr	N	3	0	1000	1	74	15:07:52	1964459	0	0	0	0	0	0	0	0	0	0	0	0	0	0	0	0	0
072512	15:07:52	10005	Trial2BackFr	N	3	0	1000	1	75	15:07:52	1965978	0	0	0	0	0	0	0	0	0	0	0	0	0	0	0	0	0
072512	15:07:52	10005	Trial2BackFr	N	3	0	1000	1	76	15:07:52	1967497	0	0	0	0	0	0	0	0	0	0	0	0	0	0	0	0	0
072512	15:07:52	10005	Trial2BackFr	N	3	0	1000	1	77	15:07:52	1969017	0	0	0	0	0	0	0	0	0	0	0	0	0	0	0	0	0
072512	15:07:52	10005	Trial2BackFr	N	3	0	1000	1	78	15:07:52	1970536	0	0	0	0	0	0	0	0	0	0	0	0	0	0	0	0	0
072512	15:07:52	10005	Trial2BackFr	N	3	57	985	0	78	15:07:52	1972055	0	0	0	0	0	0	0	0	0	0	0	0	0	0	0	0	0
072512	15:07:52	10005	Trial2BackFr	N	3	0	1000	1	79	15:07:52	1973575	0	0	0	0	0	0	0	0	0	0	0	0	0	0	0	0	0
072512	15:07:52	10005	Trial2BackFr	Y	3	0	1000	0	79	15:07:52	1975094	0	0	0	0	0	0	0	0	0	0	0	0	0	0	0	0	0
072512	15:07:52	10005	Trial2BackFr	N	3	57	699	0	79	15:07:52	1976320	0	0	0	0	0	0	0	0	0	0	0	0	0	0	0	0	0
072512	15:07:52	10005	Trial2BackFr	N	3	0	1000	1	80	15:07:52	1978120	0	0	0	0	0	0	0	0	0	0	0	0	0	0	0	0	0
072512	15:07:52	10005	Trial2BackFr	N	3	0	1000	1	81	15:07:52	1979639	0	0	0	0	0	0	0	0	0	0	0	0	0	0	0	0	0
072512	15:07:52	10005	Trial2BackFr	N	3	0	1000	1	82	15:07:52	1981158	0	0	0	0	0	0	0	0	0	0	0	0	0	0	0	0	0
072512	15:07:52	10005	Trial2BackFr	N	3	0	1000	1	83	15:07:52	1982678	0	0	0	0	0	0	0	0	0	0	0	0	0	0	0	0	0
072512	15:07:52	10005	Trial2BackFr	N	3	0	1000	1	84	15:07:52	1984197	0	0	0	0	0	0	0	0	0	0	0	0	0	0	0	0	0
072512	15:07:52	10005	Trial2BackFr	N	3	0	1000	1	85	15:07:52	1985716	0	0	0	0	0	0	0	0	0	0	0	0	0	0	0	0	0
072512	15:07:52	10005	Trial2BackFr	N	3	0	1000	1	86	15:07:52	1987236	0	0	0	0	0	0	0	0	0	0	0	0	0	0	0	0	0
072512	15:07:52	10005	Trial2BackFr	Y	3	0	1000	0	86	15:07:52	1988755	0	0	0	0	0	0	0	0	0	0	0	0	0	0	0	0	0
072512	15:07:52	10005	Trial2BackFr	N	3	0	1000	1	87	15:07:52	1990274	0	0	0	0	0	0	0	0	0	0	0	0	0	0	0	0	0
072512	15:07:52	10005	Trial2BackFr	N	3	0	1000	1	88	15:07:52	1991794	0	0	0	0	0	0	0	0	0	0	0	0	0	0	0	0	0
072512	15:07:52	10005	Trial2BackFr	N	3	0	1000	1	89	15:07:52	1993313	0	0	0	0	0	0	0	0	0	0	0	0	0	0	0	0	0
072512	15:07:52	10005	Trial2BackFr	N	3	0	1000	1	90	15:07:52	1994833	0	0	0	0	0	0	0	0	0	0	0	0	0	0	0	0	0
072512	15:07:52	10005	Trial2BackFr	Y	3	0	1000	0	90	15:07:52	1996352	0	0	0	0	0	0	0	0	0	0	0	0	0	0	0	0	0
072512	15:07:52	10005	Trial2BackFr	N	3	0	1000	1	91	15:07:52	1997871	0	0	0	0	0	0	0	0	0	0	0	0	0	0	0	0	0
072512	15:07:52	10005	Trial2BackFr	N	3	0	1000	1	92	15:07:52	1999391	0	0	0	0	0	0	0	0	0	0	0	0	0	0	0	0	0
072512	15:07:52	10005	Trial2BackFr	N	3	0	1000	1	93	15:07:52	2000910	0	0	0	0	0	0	0	0	0	0	0	0	0	0	0	0	0
072512	15:07:52	10005	Trial2BackFr	Y	3	57	642	1	94	15:07:52	2002083	0	0	0	0	0	0	0	0	0	0	0	0	0	0	0	0	0
072512	15:07:52	10005	Trial2BackFr	N	3	0	1000	1	95	15:07:52	2003935	0	0	0	0	0	0	0	0	0	0	0	0	0	0	0	0	0
072512	15:07:52	10005	Trial2BackFr	N	3	0	1000	1	96	15:07:52	2005455	0	0	0	0	0	0	0	0	0	0	0	0	0	0	0	0	0
072512	15:07:52	10005	Trial2BackFr	N	3	0	1000	1	97	15:07:52	2006974	0	0	0	0	0	0	0	0	0	0	0	0	0	0	0	0	0
072512	15:07:52	10005	Trial2BackFr	N	3	0	1000	1	98	15:07:52	2008494	0	0	0	0	0	0	0	0	0	0	0	0	0	0	0	0	0
072512	15:07:52	10005	Trial2BackFr	N	3	0	1000	1	99	15:07:52	2010013	0	0	0	0	0	0	0	0	0	0	0	0	0	0	0	0	0
072512	15:07:52	10005	Trial2BackFr	Y	3	0	1000	0	99	15:07:52	2011532	0	0	0	0	0	0	0	0	0	0	0	0	0	0	0	0	0
072512	15:07:52	10005	Trial2BackFr	N	3	0	1000	1	100	15:07:52	2013052	0	0	0	0	0	0	0	0	0	0	0	0	0	0	0	0	0
072512	15:07:52	10005	Trial2BackFr	N	3	0	1000	1	101	15:07:52	2014571	0	0	0	0	0	0	0	0	0	0	0	0	0	0	0	0	0
072512	15:07:52	10005	Trial2BackFr	N	3	0	1000	1	102	15:07:52	2016091	0	0	0	0	0	0	0	0	0	0	0	0	0	0	0	0	0
072512	15:07:52	10005	Trial2BackFr	Y	3	57	774	1	103	15:07:52	2017397	0	0	0	0	0	0	0	0	0	0	0	0	0	0	0	0	0
072512	15:07:52	10005	Memory1R3moFr	ScoreFr	5	M5	37618	0	103	15:07:52	2094019	0	0	0	0	0	0	0	0	0	0	0	0	0	0	0	0	0
072512	15:07:52	10005	Memory1R3moFr	ScoreFr	5	M7	275	0	103	15:07:52	2094339	0	0	0	0	0	0	0	0	0	0	0	0	0	0	0	0	0
072512	15:07:52	10005	Memory1R3moFr	ScoreFr	5	M6	297	0	103	15:07:52	2094671	0	0	0	0	0	0	0	0	0	0	0	0	0	0	0	0	0
072512	15:07:52	10005	Memory1R3moFr	ScoreFr	5	M8	485	0	103	15:07:52	2095191	0	0	0	0	0	0	0	0	0	0	0	0	0	0	0	0	0
072512	15:07:52	10005	Memory1R3moFr	ScoreFr	5	Done	756	0	103	15:07:52	2095991	0	0	0	0	0	0	0	0	0	0	0	0	0	0	0	0	0
072512	15:07:52	10005	Memory2R3moFr	ScoreFr2	5	11	33273	0	103	15:07:52	2148369	0	0	0	0	0	0	0	0	0	0	0	0	0	0	0	0	0
072512	15:07:52	10005	Memory2R3moFr	ScoreFr2	5	55	2434	0	103	15:07:52	2150848	0	0	0	0	0	0	0	0	0	0	0	0	0	0	0	0	0
072512	15:07:52	10005	Memory2R3moFr	ScoreFr2	5	66	619	0	103	15:07:52	2151501	0	0	0	0	0	0	0	0	0	0	0	0	0	0	0	0	0
072512	15:07:52	10005	Memory2R3moFr	ScoreFr2	5	77	278	0	103	15:07:52	2151821	0	0	0	0	0	0	0	0	0	0	0	0	0	0	0	0	0
072512	15:07:52	10005	Memory2R3moFr	ScoreFr2	5	Done	1462	0	103	15:07:52	2153327	0	0	0	0	0	0	0	0	0	0	0	0	0	0	0	0	0
072512	15:07:52	10005	Memory3R3moFr	ScoreFr3	5	111	26234	0	103	15:07:52	2197909	0	0	0	0	0	0	0	0	0	0	0	0	0	0	0	0	0
072512	15:07:52	10005	Memory3R3moFr	ScoreFr3	5	555	6947	0	103	15:07:52	2204892	0	0	0	0	0	0	0	0	0	0	0	0	0	0	0	0	0
072512	15:07:52	10005	Memory3R3moFr	ScoreFr3	5	777	228	0	103	15:07:52	2205159	0	0	0	0	0	0	0	0	0	0	0	0	0	0	0	0	0
072512	15:07:52	10005	Memory3R3moFr	ScoreFr3	5	666	361	0	103	15:07:52	2205559	0	0	0	0	0	0	0	0	0	0	0	0	0	0	0	0	0
072512	15:07:52	10005	Memory3R3moFr	ScoreFr3	5	888	450	0	103	15:07:52	2206052	0	0	0	0	0	0	0	0	0	0	0	0	0	0	0	0	0
072512	15:07:52	10005	Memory3R3moFr	ScoreFr3	5	Done	428	0	103	15:07:52	2206518	0	0	0	0	0	0	0	0	0	0	0	0	0	0	0	0	0
072512	15:07:52	10005	LoriaFrLH3	Stop	6	4	3468	0	103	15:07:52	2302027	0	0	0	0	0	0	0	0	0	0	0	0	0	0	0	0	0
072512	15:07:52	10005	FrTrail	Trails	7	1Trails	719	0	103	15:07:52	2340596	0	0	0	0	0	0	0	0	0	0	0	0	0	0	0	0	0
072512	15:07:52	10005	Serial7Fr3mo	Serial7Fr3mo	8	83	4472	0	103	15:07:52	2381567	1	0	0	0	0	0	0	0	0	0	0	0	0	0	0	0	0
072512	15:07:52	10005	Serial7Fr3mo	Serial7Fr3mo	8	76	2489	0	103	15:07:52	2384073	2	0	0	0	0	0	0	0	0	0	0	0	0	0	0	0	0
072512	15:07:52	10005	Serial7Fr3mo	Serial7Fr3mo	8	69	2390	0	103	15:07:52	2386485	3	0	0	0	0	0	0	0	0	0	0	0	0	0	0	0	0
072512	15:07:52	10005	Serial7Fr3mo	Serial7Fr3mo	8	62	2636	0	103	15:07:52	2389137	4	0	0	0	0	0	0	0	0	0	0	0	0	0	0	0	0
072512	15:07:52	10005	Serial7Fr3mo	Serial7Fr3mo	8	55	3973	0	103	15:07:52	2393136	5	0	0	0	0	0	0	0	0	0	0	0	0	0	0	0	0
072512	15:07:52	10005	corsiblockFrFwrd	recallseqFrFwrd	9	8	26082	0	103	15:07:52	2475715	5	0	0	0	0	0	0	0	0	0	0	0	0	0	0	0	0
072512	15:07:52	10005	corsiblockFrFwrd	recallseqFrFwrd	9	4	854	0	103	15:07:52	2476608	5	0	0	0	0	0	0	0	0	0	0	0	0	0	0	0	0
072512	15:07:52	10005	corsiblockFrFwrd	recallseqFrFwrd	9	doneCorsiFr	1841	0	103	15:07:52	2478487	5	0	0	0	0	0	0	0	0	0	0	0	0	0	0	2	0
072512	15:07:52	10005	corsiblockFrFwrd	recallseqFrFwrd	9	1	4026	0	103	15:07:52	2488616	5	0	0	0	0	0	0	0	0	0	0	0	0	0	0	2	0
072512	15:07:52	10005	corsiblockFrFwrd	recallseqFrFwrd	9	9	1649	0	103	15:07:52	2490309	5	0	0	0	0	0	0	0	0	0	0	0	0	0	0	2	0
072512	15:07:52	10005	corsiblockFrFwrd	recallseqFrFwrd	9	3	2836	0	103	15:07:52	2493188	5	0	0	0	0	0	0	0	0	0	0	0	0	0	0	2	0
072512	15:07:52	10005	corsiblockFrFwrd	recallseqFrFwrd	9	doneCorsiFr	3157	0	103	15:07:52	2496386	5	0	0	0	0	0	0	0	0	0	0	0	0	0	0	3	0
072512	15:07:52	10005	corsiblockFrFwrd	recallseqFrFwrd	9	7	2108	0	103	15:07:52	2505582	5	0	0	0	0	0	0	0	0	0	0	0	0	0	0	3	0
072512	15:07:52	10005	corsiblockFrFwrd	recallseqFrFwrd	9	2	1434	0	103	15:07:52	2507062	5	0	0	0	0	0	0	0	0	0	0	0	0	0	0	3	0
072512	15:07:52	10005	corsiblockFrFwrd	recallseqFrFwrd	9	4	1690	0	103	15:07:52	2508794	5	0	0	0	0	0	0	0	0	0	0	0	0	0	0	3	0
072512	15:07:52	10005	corsiblockFrFwrd	recallseqFrFwrd	9	5	973	0	103	15:07:52	2509807	5	0	0	0	0	0	0	0	0	0	0	0	0	0	0	3	0
072512	15:07:52	10005	corsiblockFrFwrd	recallseqFrFwrd	9	doneCorsiFr	1513	0	103	15:07:52	2511353	5	0	0	0	0	0	0	0	0	0	0	0	0	0	0	3	0
072512	15:07:52	10005	corsiblockFrFwrd	recallseqFrFwrd	9	1	2012	0	103	15:07:52	2520416	5	0	0	0	0	0	0	0	0	0	0	0	0	0	0	3	0
072512	15:07:52	10005	corsiblockFrFwrd	recallseqFrFwrd	9	7	1087	0	103	15:07:52	2521549	5	0	0	0	0	0	0	0	0	0	0	0	0	0	0	3	0
072512	15:07:52	10005	corsiblockFrFwrd	recallseqFrFwrd	9	8	882	0	103	15:07:52	2522469	5	0	0	0	0	0	0	0	0	0	0	0	0	0	0	3	0
072512	15:07:52	10005	corsiblockFrFwrd	recallseqFrFwrd	9	3	1483	0	103	15:07:52	2523988	5	0	0	0	0	0	0	0	0	0	0	0	0	0	0	3	0
072512	15:07:52	10005	corsiblockFrFwrd	recallseqFrFwrd	9	doneCorsiFr	1803	0	103	15:07:52	2525828	5	0	0	0	0	0	0	0	0	0	0	0	0	0	0	4	0
072512	15:07:52	10005	corsiblockFrFwrd	recallseqFrFwrd	9	4	1777	0	103	15:07:52	2534690	5	0	0	0	0	0	0	0	0	0	0	0	0	0	0	4	0
072512	15:07:52	10005	corsiblockFrFwrd	recallseqFrFwrd	9	2	1101	0	103	15:07:52	2535837	5	0	0	0	0	0	0	0	0	0	0	0	0	0	0	4	0
072512	15:07:52	10005	corsiblockFrFwrd	recallseqFrFwrd	9	5	1283	0	103	15:07:52	2537156	5	0	0	0	0	0	0	0	0	0	0	0	0	0	0	4	0
072512	15:07:52	10005	corsiblockFrFwrd	recallseqFrFwrd	9	9	1203	0	103	15:07:52	2538396	5	0	0	0	0	0	0	0	0	0	0	0	0	0	0	4	0
072512	15:07:52	10005	corsiblockFrFwrd	recallseqFrFwrd	9	6	2796	0	103	15:07:52	2541234	5	0	0	0	0	0	0	0	0	0	0	0	0	0	0	4	0
072512	15:07:52	10005	corsiblockFrFwrd	recallseqFrFwrd	9	doneCorsiFr	1515	0	103	15:07:52	2542794	5	0	0	0	0	0	0	0	0	0	0	0	0	0	0	5	0
072512	15:07:52	10005	corsiblockFrFwrd	recallseqFrFwrd	9	3	1771	0	103	15:07:52	2553656	5	0	0	0	0	0	0	0	0	0	0	0	0	0	0	5	0
072512	15:07:52	10005	corsiblockFrFwrd	recallseqFrFwrd	9	2	871	0	103	15:07:52	2554562	5	0	0	0	0	0	0	0	0	0	0	0	0	0	0	5	0
072512	15:07:52	10005	corsiblockFrFwrd	recallseqFrFwrd	9	7	1756	0	103	15:07:52	2556362	5	0	0	0	0	0	0	0	0	0	0	0	0	0	0	5	0
072512	15:07:52	10005	corsiblockFrFwrd	recallseqFrFwrd	9	4	1261	0	103	15:07:52	2557668	5	0	0	0	0	0	0	0	0	0	0	0	0	0	0	5	0
072512	15:07:52	10005	corsiblockFrFwrd	recallseqFrFwrd	9	6	2235	0	103	15:07:52	2559947	5	0	0	0	0	0	0	0	0	0	0	0	0	0	0	5	0
072512	15:07:52	10005	corsiblockFrFwrd	recallseqFrFwrd	9	doneCorsiFr	1076	0	103	15:07:52	2561066	5	0	0	0	0	0	0	0	0	0	0	0	0	0	0	5	0
072512	15:07:52	10005	corsiblockFrFwrd	recallseqFrFwrd	9	1	1635	0	103	15:07:52	2571755	5	0	0	0	0	0	0	0	0	0	0	0	0	0	0	5	0
072512	15:07:52	10005	corsiblockFrFwrd	recallseqFrFwrd	9	9	1027	0	103	15:07:52	2572821	5	0	0	0	0	0	0	0	0	0	0	0	0	0	0	5	0
072512	15:07:52	10005	corsiblockFrFwrd	recallseqFrFwrd	9	4	2457	0	103	15:07:52	2575314	5	0	0	0	0	0	0	0	0	0	0	0	0	0	0	5	0
072512	15:07:52	10005	corsiblockFrFwrd	recallseqFrFwrd	9	8	1468	0	103	15:07:52	2576820	5	0	0	0	0	0	0	0	0	0	0	0	0	0	0	5	0
072512	15:07:52	10005	corsiblockFrFwrd	recallseqFrFwrd	9	3	1946	0	103	15:07:52	2578806	5	0	0	0	0	0	0	0	0	0	0	0	0	0	0	5	0
072512	15:07:52	10005	corsiblockFrFwrd	recallseqFrFwrd	9	doneCorsiFr	1536	0	103	15:07:52	2580378	5	0	0	0	0	0	0	0	0	0	0	0	0	0	0	5	0
072512	15:07:52	10005	corsiblockFrRev	recallseqFrRev	10	5	2666	0	103	15:07:52	2598597	5	0	0	0	0	0	0	0	0	0	0	0	0	0	0	5	0
072512	15:07:52	10005	corsiblockFrRev	recallseqFrRev	10	4	888	0	103	15:07:52	2599530	5	0	0	0	0	0	0	0	0	0	0	0	0	0	0	5	0
072512	15:07:52	10005	corsiblockFrRev	recallseqFrRev	10	doneCorsiFr	1227	0	103	15:07:52	2600796	5	0	0	0	0	0	0	0	0	0	0	0	0	0	0	5	0
072512	15:07:52	10005	corsiblockFrRev	recallseqFrRev	10	9	3446	0	103	15:07:52	2609286	5	0	0	0	0	0	0	0	0	0	0	0	0	0	0	5	0
072512	15:07:52	10005	corsiblockFrRev	recallseqFrRev	10	1	1006	0	103	15:07:52	2610339	5	0	0	0	0	0	0	0	0	0	0	0	0	0	0	5	0
072512	15:07:52	10005	corsiblockFrRev	recallseqFrRev	10	doneCorsiFr	1498	0	103	15:07:52	2611872	5	0	0	0	0	0	0	0	0	0	0	0	0	0	0	5	2
072512	15:07:52	10005	corsiblockFrRev	recallseqFrRev	10	2	1753	0	103	15:07:52	2618722	5	0	0	0	0	0	0	0	0	0	0	0	0	0	0	5	2
072512	15:07:52	10005	corsiblockFrRev	recallseqFrRev	10	7	866	0	103	15:07:52	2619629	5	0	0	0	0	0	0	0	0	0	0	0	0	0	0	5	2
072512	15:07:52	10005	corsiblockFrRev	recallseqFrRev	10	8	856	0	103	15:07:52	2620522	5	0	0	0	0	0	0	0	0	0	0	0	0	0	0	5	2
072512	15:07:52	10005	corsiblockFrRev	recallseqFrRev	10	doneCorsiFr	1411	0	103	15:07:52	2621974	5	0	0	0	0	0	0	0	0	0	0	0	0	0	0	5	3
072512	15:07:52	10005	corsiblockFrRev	recallseqFrRev	10	9	6947	0	103	15:07:52	2636009	5	0	0	0	0	0	0	0	0	0	0	0	0	0	0	5	3
072512	15:07:52	10005	corsiblockFrRev	recallseqFrRev	10	2	1036	0	103	15:07:52	2637088	5	0	0	0	0	0	0	0	0	0	0	0	0	0	0	5	3
072512	15:07:52	10005	corsiblockFrRev	recallseqFrRev	10	3	765	0	103	15:07:52	2637888	5	0	0	0	0	0	0	0	0	0	0	0	0	0	0	5	3
072512	15:07:52	10005	corsiblockFrRev	recallseqFrRev	10	6	885	0	103	15:07:52	2638807	5	0	0	0	0	0	0	0	0	0	0	0	0	0	0	5	3
072512	15:07:52	10005	corsiblockFrRev	recallseqFrRev	10	doneCorsiFr	1476	0	103	15:07:52	2640327	5	0	0	0	0	0	0	0	0	0	0	0	0	0	0	5	3
072512	15:07:52	10005	corsiblockFrRev	recallseqFrRev	10	5	5898	0	103	15:07:52	2653281	5	0	0	0	0	0	0	0	0	0	0	0	0	0	0	5	3
072512	15:07:52	10005	corsiblockFrRev	recallseqFrRev	10	1	1155	0	103	15:07:52	2654481	5	0	0	0	0	0	0	0	0	0	0	0	0	0	0	5	3
072512	15:07:52	10005	corsiblockFrRev	recallseqFrRev	10	3	1066	0	103	15:07:52	2655587	5	0	0	0	0	0	0	0	0	0	0	0	0	0	0	5	3
072512	15:07:52	10005	corsiblockFrRev	recallseqFrRev	10	6	928	0	103	15:07:52	2656560	5	0	0	0	0	0	0	0	0	0	0	0	0	0	0	5	3
072512	15:07:52	10005	corsiblockFrRev	recallseqFrRev	10	doneCorsiFr	987	0	103	15:07:52	2657586	5	0	0	0	0	0	0	0	0	0	0	0	0	0	0	5	4
072512	15:07:52	10005	corsiblockFrRev	recallseqFrRev	10	8	16741	0	103	15:07:52	2681416	5	0	0	0	0	0	0	0	0	0	0	0	0	0	0	5	4
072512	15:07:52	10005	corsiblockFrRev	recallseqFrRev	10	2	874	0	103	15:07:52	2682336	5	0	0	0	0	0	0	0	0	0	0	0	0	0	0	5	4
072512	15:07:52	10005	corsiblockFrRev	recallseqFrRev	10	1	2730	0	103	15:07:52	2685109	5	0	0	0	0	0	0	0	0	0	0	0	0	0	0	5	4
072512	15:07:52	10005	corsiblockFrRev	recallseqFrRev	10	4	933	0	103	15:07:52	2686081	5	0	0	0	0	0	0	0	0	0	0	0	0	0	0	5	4
072512	15:07:52	10005	corsiblockFrRev	recallseqFrRev	10	doneCorsiFr	1201	0	103	15:07:52	2687321	5	0	0	0	0	0	0	0	0	0	0	0	0	0	0	5	4
072512	15:07:52	10005	corsiblockFrRev	recallseqFrRev	10	2	5279	0	103	15:07:52	2700648	5	0	0	0	0	0	0	0	0	0	0	0	0	0	0	5	4
072512	15:07:52	10005	corsiblockFrRev	recallseqFrRev	10	5	5217	0	103	15:07:52	2705900	5	0	0	0	0	0	0	0	0	0	0	0	0	0	0	5	4
072512	15:07:52	10005	corsiblockFrRev	recallseqFrRev	10	4	606	0	103	15:07:52	2706539	5	0	0	0	0	0	0	0	0	0	0	0	0	0	0	5	4
072512	15:07:52	10005	corsiblockFrRev	recallseqFrRev	10	7	1118	0	103	15:07:52	2707699	5	0	0	0	0	0	0	0	0	0	0	0	0	0	0	5	4
072512	15:07:52	10005	corsiblockFrRev	recallseqFrRev	10	9	775	0	103	15:07:52	2708512	5	0	0	0	0	0	0	0	0	0	0	0	0	0	0	5	4
072512	15:07:52	10005	corsiblockFrRev	recallseqFrRev	10	doneCorsiFr	1442	0	103	15:07:52	2709991	5	0	0	0	0	0	0	0	0	0	0	0	0	0	0	5	4
072512	15:07:52	10005	testFr3mo	WordsFr3mo	11	1Fr3mo	718	0	103	15:07:52	2733409	5	1	0	0	0	0	0	0	0	0	0	0	0	0	0	5	4
072512	15:07:52	10005	testFr3mo	WordsFr3mo	11	7Fr3mo	1745	0	103	15:07:52	2735194	5	1	0	0	0	0	0	1	0	0	0	0	0	0	0	5	4
072512	15:07:52	10005	testFr3mo	WordsFr3mo	11	DoneFr3mo	22278	0	103	15:07:52	2757518	5	1	0	0	0	0	0	1	0	0	0	0	0	0	0	5	4
072512	15:07:52	10005	testFr3mo	Cat2Fr3mo	11	W2Fr3mo	13658	0	103	15:07:52	2771219	5	1	0	0	0	0	0	1	0	0	0	0	0	0	0	5	4
072512	15:07:52	10005	testFr3mo	Ch2Fr3mo	11	RR2Fr3mo	6420	0	103	15:07:52	2777683	5	1	3	0	0	0	0	1	0	0	0	0	0	0	0	5	4
072512	15:07:52	10005	testFr3mo	Cat3Fr3mo	11	0	1	0	103	15:07:52	2777700	5	1	3	0	0	0	0	1	0	0	0	0	0	0	0	5	4
072512	15:07:52	10005	testFr3mo	Ch3Fr3mo	11	RR3Fr3mo	5703	0	103	15:07:52	2783440	5	1	3	3	0	0	0	1	0	0	0	0	0	0	0	5	4
072512	15:07:52	10005	testFr3mo	Cat4Fr3mo	11	R4Fr3mo	7110	0	103	15:07:52	2790584	5	1	3	3	2	0	0	1	0	0	0	0	0	0	0	5	4
072512	15:07:52	10005	testFr3mo	Cat5Fr3mo	11	R5Fr3mo	9310	0	103	15:07:52	2799927	5	1	3	3	2	2	0	1	0	0	0	0	0	0	0	5	4
072512	15:07:52	10005	testFr3mo	Cat6Fr3mo	11	W6Fr3mo	12135	0	103	15:07:52	2812095	5	1	3	3	2	2	0	1	0	0	0	0	0	0	0	5	4
072512	15:07:52	10005	testFr3mo	Ch6Fr3mo	11	RR6Fr3mo	4135	0	103	15:07:52	2816267	5	1	3	3	2	2	3	1	0	0	0	0	0	0	0	5	4
072512	15:07:52	10005	testFr3mo	Cat8Fr3mo	11	R8Fr3mo	5707	0	103	15:07:52	2822011	5	1	3	3	2	2	3	1	2	0	0	0	0	0	0	5	4
072512	15:07:52	10005	DigitSpanFwrdFr3mo	Score1FwrdFr3mo	12	DS1	3420	0	103	15:07:52	2843869	5	1	3	3	2	2	3	1	2	0	0	0	0	0	0	5	4
072512	15:07:52	10005	DigitSpanFwrdFr3mo	Gate1FwrdFr3mo	12	0	1	0	103	15:07:52	2843884	5	1	3	3	2	2	3	1	2	3	0	0	0	0	0	5	4
072512	15:07:52	10005	DigitSpanFwrdFr3mo	Score2FwrdFr3mo	12	DS1	2912	0	103	15:07:52	2852518	5	1	3	3	2	2	3	1	2	3	0	0	0	0	0	5	4
072512	15:07:52	10005	DigitSpanFwrdFr3mo	Gate3FwrdFr3mo	12	0	1	0	103	15:07:52	2852534	5	1	3	3	2	2	3	1	2	4	0	0	0	0	0	5	4
072512	15:07:52	10005	DigitSpanFwrdFr3mo	Score3FwrdFr3mo	12	DS1	5449	0	103	15:07:52	2865247	5	1	3	3	2	2	3	1	2	4	0	0	0	0	0	5	4
072512	15:07:52	10005	DigitSpanFwrdFr3mo	Gate5FwrdFr3mo	12	0	1	0	103	15:07:52	2865262	5	1	3	3	2	2	3	1	2	5	0	0	0	0	0	5	4
072512	15:07:52	10005	DigitSpanFwrdFr3mo	Score4FwrdFr3mo	12	DS2	9697	0	103	15:07:52	2883492	5	1	3	3	2	2	3	1	2	5	0	0	0	0	0	5	4
072512	15:07:52	10005	DigitSpanFwrdFr3mo	Gate7FwrdFr3mo	12	0	1	0	103	15:07:52	2883508	5	1	3	3	2	2	3	1	2	5	0	0	0	0	0	5	4
072512	15:07:52	10005	DigitSpanFwrdFr3mo	Score44FwrdFr3mo	12	DS2	12488	0	103	15:07:52	2904324	5	1	3	3	2	2	3	1	2	5	0	0	0	0	0	5	4
072512	15:07:52	10005	DigitSpanFr3mo	Score1Fr3mo	13	DS1	4206	0	103	15:07:52	2924675	5	1	3	3	2	2	3	1	2	5	0	0	0	0	0	5	4
072512	15:07:52	10005	DigitSpanFr3mo	Gate1Fr3mo	13	0	1	0	103	15:07:52	2924690	5	1	3	3	2	2	3	1	2	5	2	0	0	0	0	5	4
072512	15:07:52	10005	DigitSpanFr3mo	Score2Fr3mo	13	DS1	5425	0	103	15:07:52	2934698	5	1	3	3	2	2	3	1	2	5	2	0	0	0	0	5	4
072512	15:07:52	10005	DigitSpanFr3mo	Gate3Fr3mo	13	0	1	0	103	15:07:52	2934713	5	1	3	3	2	2	3	1	2	5	3	0	0	0	0	5	4
072512	15:07:52	10005	DigitSpanFr3mo	Score3Fr3mo	13	DS2	11237	0	103	15:07:52	2951664	5	1	3	3	2	2	3	1	2	5	3	0	0	0	0	5	4
072512	15:07:52	10005	DigitSpanFr3mo	Gate5Fr3mo	13	0	1	0	103	15:07:52	2951679	5	1	3	3	2	2	3	1	2	5	3	0	0	0	0	5	4
072512	15:07:52	10005	DigitSpanFr3mo	Score33Fr3mo	13	DS2	13868	0	103	15:07:52	2971602	5	1	3	3	2	2	3	1	2	5	3	0	0	0	0	5	4
072512	15:07:52	10005	Trial	IncongruentRight	14	0	737	0	103	15:07:52	3042226	5	1	3	3	2	2	3	1	2	5	3	0	0	0	0	5	4
072512	15:07:52	10005	Trial	IncongruentLeft	14	203	632	1	103	15:07:52	3043133	5	1	3	3	2	2	3	1	2	5	3	0	0	0	0	5	4
072512	15:07:52	10005	Trial	CongruentRight	14	205	497	1	103	15:07:52	3043999	5	1	3	3	2	2	3	1	2	5	3	0	0	0	0	5	4
072512	15:07:52	10005	Trial	IncongruentRight	14	205	554	1	103	15:07:52	3045052	5	1	3	3	2	2	3	1	2	5	3	0	0	0	0	5	4
072512	15:07:52	10005	Trial	CongruentLeft	14	203	548	1	103	15:07:52	3046065	5	1	3	3	2	2	3	1	2	5	3	0	0	0	0	5	4
072512	15:07:52	10005	Trial	CongruentRight	14	205	445	1	103	15:07:52	3046958	5	1	3	3	2	2	3	1	2	5	3	0	0	0	0	5	4
072512	15:07:52	10005	Trial	IncongruentRight	14	205	533	1	103	15:07:52	3048050	5	1	3	3	2	2	3	1	2	5	3	0	0	0	0	5	4
072512	15:07:52	10005	Trial	CongruentLeft	14	203	430	1	103	15:07:52	3048944	5	1	3	3	2	2	3	1	2	5	3	0	0	0	0	5	4
072512	15:07:52	10005	Trial	IncongruentLeft	14	205	390	0	103	15:07:52	3049903	5	1	3	3	2	2	3	1	2	5	3	0	0	0	0	5	4
072512	15:07:52	10005	Trial	IncongruentLeft	14	205	447	0	103	15:07:52	3050956	5	1	3	3	2	2	3	1	2	5	3	0	0	0	0	5	4
072512	15:07:52	10005	Trial	CongruentRight	14	205	439	1	103	15:07:52	3051956	5	1	3	3	2	2	3	1	2	5	3	0	0	0	0	5	4
072512	15:07:52	10005	Trial	IncongruentRight	14	205	559	1	103	15:07:52	3053075	5	1	3	3	2	2	3	1	2	5	3	0	0	0	0	5	4
072512	15:07:52	10005	Trial	CongruentLeft	14	203	456	1	103	15:07:52	3053968	5	1	3	3	2	2	3	1	2	5	3	0	0	0	0	5	4
072512	15:07:52	10005	Trial	CongruentRight	14	205	480	1	103	15:07:52	3054994	5	1	3	3	2	2	3	1	2	5	3	0	0	0	0	5	4
072512	15:07:52	10005	Trial	IncongruentLeft	14	203	408	1	103	15:07:52	3055914	5	1	3	3	2	2	3	1	2	5	3	0	0	0	0	5	4
072512	15:07:52	10005	Trial	IncongruentRight	14	205	321	1	103	15:07:52	3056834	5	1	3	3	2	2	3	1	2	5	3	0	0	0	0	5	4
072512	15:07:52	10005	Trial	CongruentRight	14	205	409	1	103	15:07:52	3057913	5	1	3	3	2	2	3	1	2	5	3	0	0	0	0	5	4
072512	15:07:52	10005	Trial	CongruentLeft	14	203	402	1	103	15:07:52	3058913	5	1	3	3	2	2	3	1	2	5	3	0	0	0	0	5	4
072512	15:07:52	10005	Trial	CongruentRight	14	205	298	1	103	15:07:52	3059805	5	1	3	3	2	2	3	1	2	5	3	0	0	0	0	5	4
072512	15:07:52	10005	Trial	IncongruentRight	14	205	562	1	103	15:07:52	3061072	5	1	3	3	2	2	3	1	2	5	3	0	0	0	0	5	4
072512	15:07:52	10005	Trial	IncongruentLeft	14	203	603	1	103	15:07:52	3062111	5	1	3	3	2	2	3	1	2	5	3	0	0	0	0	5	4
072512	15:07:52	10005	Trial	IncongruentLeft	14	205	451	0	103	15:07:52	3062964	5	1	3	3	2	2	3	1	2	5	3	0	0	0	0	5	4
072512	15:07:52	10005	Trial	CongruentLeft	14	203	635	1	103	15:07:52	3064137	5	1	3	3	2	2	3	1	2	5	3	0	0	0	0	5	4
072512	15:07:52	10005	Trial	CongruentRight	14	205	500	1	103	15:07:52	3065003	5	1	3	3	2	2	3	1	2	5	3	0	0	0	0	5	4
072512	15:07:52	10005	Trial	IncongruentLeft	14	203	492	1	103	15:07:52	3066003	5	1	3	3	2	2	3	1	2	5	3	0	0	0	0	5	4
072512	15:07:52	10005	Trial	IncongruentRight	14	205	453	1	103	15:07:52	3066963	5	1	3	3	2	2	3	1	2	5	3	0	0	0	0	5	4
072512	15:07:52	10005	Trial	CongruentRight	14	205	493	1	103	15:07:52	3068002	5	1	3	3	2	2	3	1	2	5	3	0	0	0	0	5	4
072512	15:07:52	10005	Trial	CongruentLeft	14	203	437	1	103	15:07:52	3068935	5	1	3	3	2	2	3	1	2	5	3	0	0	0	0	5	4
072512	15:07:52	10005	Trial	IncongruentRight	14	205	414	1	103	15:07:52	3069921	5	1	3	3	2	2	3	1	2	5	3	0	0	0	0	5	4
072512	15:07:52	10005	Trial	IncongruentLeft	14	203	566	1	103	15:07:52	3071068	5	1	3	3	2	2	3	1	2	5	3	0	0	0	0	5	4
072512	15:07:52	10005	Trial	IncongruentRight	14	205	462	1	103	15:07:52	3071961	5	1	3	3	2	2	3	1	2	5	3	0	0	0	0	5	4
072512	15:07:52	10005	Trial	CongruentRight	14	205	455	1	103	15:07:52	3072960	5	1	3	3	2	2	3	1	2	5	3	0	0	0	0	5	4
072512	15:07:52	10005	Trial	IncongruentLeft	14	203	543	1	103	15:07:52	3074040	5	1	3	3	2	2	3	1	2	5	3	0	0	0	0	5	4
072512	15:07:52	10005	Trial	CongruentLeft	14	205	488	0	103	15:07:52	3074986	5	1	3	3	2	2	3	1	2	5	3	0	0	0	0	5	4
072512	15:07:52	10005	Trial	CongruentRight	14	205	448	1	103	15:07:52	3075946	5	1	3	3	2	2	3	1	2	5	3	0	0	0	0	5	4
072512	15:07:52	10005	Trial	IncongruentLeft	14	203	459	1	103	15:07:52	3076972	5	1	3	3	2	2	3	1	2	5	3	0	0	0	0	5	4
072512	15:07:52	10005	Trial	IncongruentRight	14	205	420	1	103	15:07:52	3077931	5	1	3	3	2	2	3	1	2	5	3	0	0	0	0	5	4
072512	15:07:52	10005	Trial	IncongruentRight	14	205	476	1	103	15:07:52	3078984	5	1	3	3	2	2	3	1	2	5	3	0	0	0	0	5	4
072512	15:07:52	10005	Trial	CongruentLeft	14	205	388	0	103	15:07:52	3079904	5	1	3	3	2	2	3	1	2	5	3	0	0	0	0	5	4
072512	15:07:52	10005	Trial	IncongruentLeft	14	205	716	0	103	15:07:52	3081223	5	1	3	3	2	2	3	1	2	5	3	0	0	0	0	5	4
072512	15:07:52	10005	Trial	CongruentRight	14	205	565	1	103	15:07:52	3082076	5	1	3	3	2	2	3	1	2	5	3	0	0	0	0	5	4
072512	15:07:52	10005	Trial	CongruentLeft	14	203	509	1	103	15:07:52	3083022	5	1	3	3	2	2	3	1	2	5	3	0	0	0	0	5	4
072512	15:07:52	10005	Trial	IncongruentRight	14	205	502	1	103	15:07:52	3084009	5	1	3	3	2	2	3	1	2	5	3	0	0	0	0	5	4
072512	15:07:52	10005	Trial	CongruentRight	14	205	478	1	103	15:07:52	3084995	5	1	3	3	2	2	3	1	2	5	3	0	0	0	0	5	4
072512	15:07:52	10005	Trial	IncongruentLeft	14	203	471	1	103	15:07:52	3085981	5	1	3	3	2	2	3	1	2	5	3	0	0	0	0	5	4
072512	15:07:52	10005	Trial	CongruentLeft	14	203	527	1	103	15:07:52	3087034	5	1	3	3	2	2	3	1	2	5	3	0	0	0	0	5	4
072512	15:07:52	10005	Trial	IncongruentLeft	14	203	695	1	103	15:07:52	3088207	5	1	3	3	2	2	3	1	2	5	3	0	0	0	0	5	4
072512	15:07:52	10005	Trial	IncongruentRight	14	205	512	1	103	15:07:52	3089020	5	1	3	3	2	2	3	1	2	5	3	0	0	0	0	5	4
072512	15:07:52	10005	Trial	CongruentRight	14	203	392	0	103	15:07:52	3089900	5	1	3	3	2	2	3	1	2	5	3	0	0	0	0	5	4
072512	15:07:52	10005	Trial	CongruentLeft	14	203	497	1	103	15:07:52	3091006	5	1	3	3	2	2	3	1	2	5	3	0	0	0	0	5	4
072512	15:07:52	10005	Trial	CongruentLeft	14	203	553	1	103	15:07:52	3092059	5	1	3	3	2	2	3	1	2	5	3	0	0	0	0	5	4
072512	15:07:52	10005	Trial	IncongruentRight	14	205	433	1	103	15:07:52	3092939	5	1	3	3	2	2	3	1	2	5	3	0	0	0	0	5	4
072512	15:07:52	10005	Trial	IncongruentLeft	14	203	330	1	103	15:07:52	3093832	5	1	3	3	2	2	3	1	2	5	3	0	0	0	0	5	4
072512	15:07:52	10005	Trial	IncongruentRight	14	205	450	1	103	15:07:52	3094951	5	1	3	3	2	2	3	1	2	5	3	0	0	0	0	5	4
072512	15:07:52	10005	Trial	CongruentRight	14	205	490	1	103	15:07:52	3095990	5	1	3	3	2	2	3	1	2	5	3	0	0	0	0	5	4
072512	15:07:52	10005	Trial	CongruentRight	14	205	467	1	103	15:07:52	3096977	5	1	3	3	2	2	3	1	2	5	3	0	0	0	0	5	4
072512	15:07:52	10005	Trial	IncongruentLeft	14	203	363	1	103	15:07:52	3097870	5	1	3	3	2	2	3	1	2	5	3	0	0	0	0	5	4
072512	15:07:52	10005	Trial	CongruentLeft	14	205	371	0	103	15:07:52	3098883	5	1	3	3	2	2	3	1	2	5	3	0	0	0	0	5	4
072512	15:07:52	10005	Trial	CongruentRight	14	205	428	1	103	15:07:52	3099936	5	1	3	3	2	2	3	1	2	5	3	0	0	0	0	5	4
072512	15:07:52	10005	Trial	CongruentLeft	14	203	548	1	103	15:07:52	3101055	5	1	3	3	2	2	3	1	2	5	3	0	0	0	0	5	4
072512	15:07:52	10005	Trial	IncongruentRight	14	205	413	1	103	15:07:52	3101922	5	1	3	3	2	2	3	1	2	5	3	0	0	0	0	5	4
072512	15:07:52	10005	Trial	CongruentRight	14	205	501	1	103	15:07:52	3103001	5	1	3	3	2	2	3	1	2	5	3	0	0	0	0	5	4
072512	15:07:52	10005	Trial	CongruentLeft	14	203	493	1	103	15:07:52	3104001	5	1	3	3	2	2	3	1	2	5	3	0	0	0	0	5	4
072512	15:07:52	10005	Trial	IncongruentLeft	14	203	598	1	103	15:07:52	3105107	5	1	3	3	2	2	3	1	2	5	3	0	0	0	0	5	4
072512	15:07:52	10005	Trial	IncongruentLeft	14	205	494	0	103	15:07:52	3106000	5	1	3	3	2	2	3	1	2	5	3	0	0	0	0	5	4
072512	15:07:52	10005	Trial	CongruentRight	14	205	409	1	103	15:07:52	3106919	5	1	3	3	2	2	3	1	2	5	3	0	0	0	0	5	4
072512	15:07:52	10005	Trial	IncongruentRight	14	205	626	1	103	15:07:52	3108146	5	1	3	3	2	2	3	1	2	5	3	0	0	0	0	5	4
072512	15:07:52	10005	Trial	CongruentLeft	14	203	538	1	103	15:07:52	3109052	5	1	3	3	2	2	3	1	2	5	3	0	0	0	0	5	4
072512	15:07:52	10005	Trial	IncongruentRight	14	205	434	1	103	15:07:52	3109945	5	1	3	3	2	2	3	1	2	5	3	0	0	0	0	5	4
072512	15:07:52	10005	Trial	CongruentRight	14	205	475	1	103	15:07:52	3110984	5	1	3	3	2	2	3	1	2	5	3	0	0	0	0	5	4
072512	15:07:52	10005	Trial	IncongruentLeft	14	203	531	1	103	15:07:52	3112051	5	1	3	3	2	2	3	1	2	5	3	0	0	0	0	5	4
072512	15:07:52	10005	Trial	CongruentLeft	14	205	443	0	103	15:07:52	3112957	5	1	3	3	2	2	3	1	2	5	3	0	0	0	0	5	4
072512	15:07:52	10005	Trial	CongruentRight	14	205	420	1	103	15:07:52	3113930	5	1	3	3	2	2	3	1	2	5	3	0	0	0	0	5	4
072512	15:07:52	10005	Trial	IncongruentLeft	14	203	428	1	103	15:07:52	3114943	5	1	3	3	2	2	3	1	2	5	3	0	0	0	0	5	4
072512	15:07:52	10005	Trial	CongruentRight	14	205	357	1	103	15:07:52	3115862	5	1	3	3	2	2	3	1	2	5	3	0	0	0	0	5	4
072512	15:07:52	10005	Trial	CongruentRight	14	205	589	1	103	15:07:52	3117102	5	1	3	3	2	2	3	1	2	5	3	0	0	0	0	5	4
072512	15:07:52	10005	Trial	IncongruentRight	14	203	501	0	103	15:07:52	3118008	5	1	3	3	2	2	3	1	2	5	3	0	0	0	0	5	4
072512	15:07:52	10005	Trial	CongruentLeft	14	203	589	1	103	15:07:52	3119101	5	1	3	3	2	2	3	1	2	5	3	0	0	0	0	5	4
072512	15:07:52	10005	Trial	IncongruentLeft	14	203	550	1	103	15:07:52	3120061	5	1	3	3	2	2	3	1	2	5	3	0	0	0	0	5	4
072512	15:07:52	10005	Trial	CongruentLeft	14	205	431	0	103	15:07:52	3120940	5	1	3	3	2	2	3	1	2	5	3	0	0	0	0	5	4
072512	15:07:52	10005	Trial	IncongruentRight	14	205	695	1	103	15:07:52	3122206	5	1	3	3	2	2	3	1	2	5	3	0	0	0	0	5	4
072512	15:07:52	10005	Trial	IncongruentLeft	14	203	481	1	103	15:07:52	3122993	5	1	3	3	2	2	3	1	2	5	3	0	0	0	0	5	4
072512	15:07:52	10005	Trial	CongruentRight	14	205	440	1	103	15:07:52	3123952	5	1	3	3	2	2	3	1	2	5	3	0	0	0	0	5	4
072512	15:07:52	10005	Trial	CongruentLeft	14	203	352	1	103	15:07:52	3124859	5	1	3	3	2	2	3	1	2	5	3	0	0	0	0	5	4
072512	15:07:52	10005	Trial	IncongruentLeft	14	203	600	1	103	15:07:52	3126112	5	1	3	3	2	2	3	1	2	5	3	0	0	0	0	5	4
072512	15:07:52	10005	Trial	CongruentLeft	14	203	609	1	103	15:07:52	3127111	5	1	3	3	2	2	3	1	2	5	3	0	0	0	0	5	4
072512	15:07:52	10005	Trial	IncongruentRight	14	205	457	1	103	15:07:52	3127964	5	1	3	3	2	2	3	1	2	5	3	0	0	0	0	5	4
072512	15:07:52	10005	Trial	CongruentRight	14	203	401	0	103	15:07:52	3128910	5	1	3	3	2	2	3	1	2	5	3	0	0	0	0	5	4
072512	15:07:52	10005	Trial	IncongruentLeft	14	203	506	1	103	15:07:52	3130017	5	1	3	3	2	2	3	1	2	5	3	0	0	0	0	5	4
072512	15:07:52	10005	Trial	CongruentLeft	14	203	498	1	103	15:07:52	3131003	5	1	3	3	2	2	3	1	2	5	3	0	0	0	0	5	4
072512	15:07:52	10005	Trial	IncongruentRight	14	205	411	1	103	15:07:52	3131909	5	1	3	3	2	2	3	1	2	5	3	0	0	0	0	5	4
072512	15:07:52	10005	Trial	IncongruentLeft	14	205	403	0	103	15:07:52	3132909	5	1	3	3	2	2	3	1	2	5	3	0	0	0	0	5	4
072512	15:07:52	10005	Trial	CongruentLeft	14	203	731	1	103	15:07:52	3134242	5	1	3	3	2	2	3	1	2	5	3	0	0	0	0	5	4
072512	15:07:52	10005	Trial	IncongruentLeft	14	203	646	1	103	15:07:52	3135161	5	1	3	3	2	2	3	1	2	5	3	0	0	0	0	5	4
072512	15:07:52	10005	Trial	CongruentRight	14	205	479	1	103	15:07:52	3136001	5	1	3	3	2	2	3	1	2	5	3	0	0	0	0	5	4
072512	15:07:52	10005	Trial	CongruentLeft	14	205	423	0	103	15:07:52	3136934	5	1	3	3	2	2	3	1	2	5	3	0	0	0	0	5	4
072512	15:07:52	10005	Trial	IncongruentRight	14	205	466	1	103	15:07:52	3138000	5	1	3	3	2	2	3	1	2	5	3	0	0	0	0	5	4
072512	15:07:52	10005	Trial	CongruentLeft	14	203	347	1	103	15:07:52	3138880	5	1	3	3	2	2	3	1	2	5	3	0	0	0	0	5	4
072512	15:07:52	10005	Trial	CongruentRight	14	203	371	0	103	15:07:52	3139906	5	1	3	3	2	2	3	1	2	5	3	0	0	0	0	5	4
072512	15:07:52	10005	Trial	IncongruentLeft	14	205	284	0	103	15:07:52	3140812	5	1	3	3	2	2	3	1	2	5	3	0	0	0	0	5	4
072512	15:07:52	10005	Trial750Fr	IncongruentRight750	15	0	487	0	103	15:07:52	3160177	5	1	3	3	2	2	3	1	2	5	3	0	0	0	0	5	4
072512	15:07:52	10005	Trial750Fr	IncongruentLeft750	15	0	487	0	103	15:07:52	3160937	5	1	3	3	2	2	3	1	2	5	3	0	0	0	0	5	4
072512	15:07:52	10005	Trial750Fr	CongruentRight750	15	0	487	0	103	15:07:52	3161697	5	1	3	3	2	2	3	1	2	5	3	0	0	0	0	5	4
072512	15:07:52	10005	Trial750Fr	IncongruentRight750	15	0	487	0	103	15:07:52	3162456	5	1	3	3	2	2	3	1	2	5	3	0	0	0	0	5	4
072512	15:07:52	10005	Trial750Fr	CongruentLeft750	15	0	487	0	103	15:07:52	3163216	5	1	3	3	2	2	3	1	2	5	3	0	0	0	0	5	4
072512	15:07:52	10005	Trial750Fr	CongruentRight750	15	0	487	0	103	15:07:52	3163976	5	1	3	3	2	2	3	1	2	5	3	0	0	0	0	5	4
072512	15:07:52	10005	Trial750Fr	IncongruentRight750	15	203	399	0	103	15:07:52	3164655	5	1	3	3	2	2	3	1	2	5	3	0	0	0	0	5	4
072512	15:07:52	10005	Trial750Fr	CongruentLeft750	15	205	326	0	103	15:07:52	3165335	5	1	3	3	2	2	3	1	2	5	3	0	0	0	0	5	4
072512	15:07:52	10005	Trial750Fr	IncongruentLeft750	15	205	349	0	103	15:07:52	3166108	5	1	3	3	2	2	3	1	2	5	3	0	0	0	0	5	4
072512	15:07:52	10005	Trial750Fr	IncongruentLeft750	15	205	403	0	103	15:07:52	3166908	5	1	3	3	2	2	3	1	2	5	3	0	0	0	0	5	4
072512	15:07:52	10005	Trial750Fr	CongruentRight750	15	0	487	0	103	15:07:52	3167734	5	1	3	3	2	2	3	1	2	5	3	0	0	0	0	5	4
072512	15:07:52	10005	Trial750Fr	IncongruentRight750	15	0	487	0	103	15:07:52	3168494	5	1	3	3	2	2	3	1	2	5	3	0	0	0	0	5	4
072512	15:07:52	10005	Trial750Fr	CongruentLeft750	15	203	441	1	103	15:07:52	3169214	5	1	3	3	2	2	3	1	2	5	3	0	0	0	0	5	4
072512	15:07:52	10005	Trial750Fr	CongruentRight750	15	205	353	1	103	15:07:52	3169880	5	1	3	3	2	2	3	1	2	5	3	0	0	0	0	5	4
072512	15:07:52	10005	Trial750Fr	IncongruentLeft750	15	205	311	0	103	15:07:52	3170586	5	1	3	3	2	2	3	1	2	5	3	0	0	0	0	5	4
072512	15:07:52	10005	Trial750Fr	IncongruentRight750	15	205	412	1	103	15:07:52	3171439	5	1	3	3	2	2	3	1	2	5	3	0	0	0	0	5	4
072512	15:07:52	10005	Trial750Fr	CongruentRight750	15	205	469	1	103	15:07:52	3172252	5	1	3	3	2	2	3	1	2	5	3	0	0	0	0	5	4
072512	15:07:52	10005	Trial750Fr	CongruentLeft750	15	203	474	1	103	15:07:52	3172999	5	1	3	3	2	2	3	1	2	5	3	0	0	0	0	5	4
072512	15:07:52	10005	Trial750Fr	CongruentRight750	15	205	402	1	103	15:07:52	3173692	5	1	3	3	2	2	3	1	2	5	3	0	0	0	0	5	4
072512	15:07:52	10005	Trial750Fr	IncongruentRight750	15	203	408	0	103	15:07:52	3174438	5	1	3	3	2	2	3	1	2	5	3	0	0	0	0	5	4
072512	15:07:52	10005	Trial750Fr	IncongruentLeft750	15	0	487	0	103	15:07:52	3175265	5	1	3	3	2	2	3	1	2	5	3	0	0	0	0	5	4
072512	15:07:52	10005	Trial750Fr	IncongruentLeft750	15	0	487	0	103	15:07:52	3176024	5	1	3	3	2	2	3	1	2	5	3	0	0	0	0	5	4
072512	15:07:52	10005	Trial750Fr	CongruentLeft750	15	0	487	0	103	15:07:52	3176784	5	1	3	3	2	2	3	1	2	5	3	0	0	0	0	5	4
072512	15:07:52	10005	Trial750Fr	CongruentRight750	15	205	470	1	103	15:07:52	3177531	5	1	3	3	2	2	3	1	2	5	3	0	0	0	0	5	4
072512	15:07:52	10005	Trial750Fr	IncongruentLeft750	15	203	383	1	103	15:07:52	3178196	5	1	3	3	2	2	3	1	2	5	3	0	0	0	0	5	4
072512	15:07:52	10005	Trial750Fr	IncongruentRight750	15	205	372	1	103	15:07:52	3178943	5	1	3	3	2	2	3	1	2	5	3	0	0	0	0	5	4
072512	15:07:52	10005	Trial750Fr	CongruentRight750	15	203	362	0	103	15:07:52	3179676	5	1	3	3	2	2	3	1	2	5	3	0	0	0	0	5	4
072512	15:07:52	10005	Trial750Fr	CongruentLeft750	15	203	434	1	103	15:07:52	3180502	5	1	3	3	2	2	3	1	2	5	3	0	0	0	0	5	4
072512	15:07:52	10005	Trial750Fr	IncongruentRight750	15	0	487	0	103	15:07:52	3181302	5	1	3	3	2	2	3	1	2	5	3	0	0	0	0	5	4
072512	15:07:52	10005	Trial750Fr	IncongruentLeft750	15	203	464	1	103	15:07:52	3182048	5	1	3	3	2	2	3	1	2	5	3	0	0	0	0	5	4
072512	15:07:52	10005	Trial750Fr	IncongruentRight750	15	205	409	1	103	15:07:52	3182741	5	1	3	3	2	2	3	1	2	5	3	0	0	0	0	5	4
072512	15:07:52	10005	Trial750Fr	CongruentRight750	15	203	398	0	103	15:07:52	3183488	5	1	3	3	2	2	3	1	2	5	3	0	0	0	0	5	4
072512	15:07:52	10005	Trial750Fr	IncongruentLeft750	15	205	308	0	103	15:07:52	3184141	5	1	3	3	2	2	3	1	2	5	3	0	0	0	0	5	4
072512	15:07:52	10005	Trial750Fr	CongruentLeft750	15	0	487	0	103	15:07:52	3185061	5	1	3	3	2	2	3	1	2	5	3	0	0	0	0	5	4
072512	15:07:52	10005	Trial750Fr	CongruentRight750	15	0	487	0	103	15:07:52	3185820	5	1	3	3	2	2	3	1	2	5	3	0	0	0	0	5	4
072512	15:07:52	10005	Trial750Fr	IncongruentLeft750	15	0	487	0	103	15:07:52	3186580	5	1	3	3	2	2	3	1	2	5	3	0	0	0	0	5	4
072512	15:07:52	10005	Trial750Fr	IncongruentRight750	15	0	487	0	103	15:07:52	3187340	5	1	3	3	2	2	3	1	2	5	3	0	0	0	0	5	4
072512	15:07:52	10005	Trial750Fr	IncongruentRight750	15	0	487	0	103	15:07:52	3188099	5	1	3	3	2	2	3	1	2	5	3	0	0	0	0	5	4
072512	15:07:52	10005	Trial750Fr	CongruentLeft750	15	0	487	0	103	15:07:52	3188859	5	1	3	3	2	2	3	1	2	5	3	0	0	0	0	5	4
072512	15:07:52	10005	Trial750Fr	IncongruentLeft750	15	0	487	0	103	15:07:52	3189619	5	1	3	3	2	2	3	1	2	5	3	0	0	0	0	5	4
072512	15:07:52	10005	Trial750Fr	CongruentRight750	15	205	467	1	103	15:07:52	3190365	5	1	3	3	2	2	3	1	2	5	3	0	0	0	0	5	4
072512	15:07:52	10005	Trial750Fr	CongruentLeft750	15	203	380	1	103	15:07:52	3191031	5	1	3	3	2	2	3	1	2	5	3	0	0	0	0	5	4
072512	15:07:52	10005	Trial750Fr	IncongruentRight750	15	205	337	1	103	15:07:52	3191738	5	1	3	3	2	2	3	1	2	5	3	0	0	0	0	5	4
072512	15:07:52	10005	Trial750Fr	CongruentRight750	15	203	359	0	103	15:07:52	3192511	5	1	3	3	2	2	3	1	2	5	3	0	0	0	0	5	4
072512	15:07:52	10005	Trial750Fr	IncongruentLeft750	15	205	288	0	103	15:07:52	3193190	5	1	3	3	2	2	3	1	2	5	3	0	0	0	0	5	4
072512	15:07:52	10005	Trial750Fr	CongruentLeft750	15	205	421	0	103	15:07:52	3194070	5	1	3	3	2	2	3	1	2	5	3	0	0	0	0	5	4
072512	15:07:52	10005	Trial750Fr	IncongruentLeft750	15	0	487	0	103	15:07:52	3194883	5	1	3	3	2	2	3	1	2	5	3	0	0	0	0	5	4
072512	15:07:52	10005	Trial750Fr	IncongruentRight750	15	0	487	0	103	15:07:52	3195643	5	1	3	3	2	2	3	1	2	5	3	0	0	0	0	5	4
072512	15:07:52	10005	Trial750Fr	CongruentRight750	15	0	487	0	103	15:07:52	3196402	5	1	3	3	2	2	3	1	2	5	3	0	0	0	0	5	4
072512	15:07:52	10005	Trial750Fr	CongruentLeft750	15	0	487	0	103	15:07:52	3197162	5	1	3	3	2	2	3	1	2	5	3	0	0	0	0	5	4
072512	15:07:52	10005	Trial750Fr	CongruentLeft750	15	0	487	0	103	15:07:52	3197922	5	1	3	3	2	2	3	1	2	5	3	0	0	0	0	5	4
072512	15:07:52	10005	Trial750Fr	IncongruentRight750	15	0	487	0	103	15:07:52	3198681	5	1	3	3	2	2	3	1	2	5	3	0	0	0	0	5	4
072512	15:07:52	10005	Trial750Fr	IncongruentLeft750	15	0	487	0	103	15:07:52	3199441	5	1	3	3	2	2	3	1	2	5	3	0	0	0	0	5	4
072512	15:07:52	10005	Trial750Fr	IncongruentRight750	15	205	485	1	103	15:07:52	3200201	5	1	3	3	2	2	3	1	2	5	3	0	0	0	0	5	4
072512	15:07:52	10005	Trial750Fr	CongruentRight750	15	0	487	0	103	15:07:52	3200961	5	1	3	3	2	2	3	1	2	5	3	0	0	0	0	5	4
072512	15:07:52	10005	Trial750Fr	CongruentRight750	15	0	487	0	103	15:07:52	3201720	5	1	3	3	2	2	3	1	2	5	3	0	0	0	0	5	4
072512	15:07:52	10005	Trial750Fr	IncongruentLeft750	15	0	487	0	103	15:07:52	3202480	5	1	3	3	2	2	3	1	2	5	3	0	0	0	0	5	4
072512	15:07:52	10005	Trial750Fr	CongruentLeft750	15	0	487	0	103	15:07:52	3203240	5	1	3	3	2	2	3	1	2	5	3	0	0	0	0	5	4
072512	15:07:52	10005	Trial750Fr	CongruentRight750	15	0	487	0	103	15:07:52	3203999	5	1	3	3	2	2	3	1	2	5	3	0	0	0	0	5	4
072512	15:07:52	10005	Trial750Fr	CongruentLeft750	15	0	487	0	103	15:07:52	3204759	5	1	3	3	2	2	3	1	2	5	3	0	0	0	0	5	4
072512	15:07:52	10005	Trial750Fr	IncongruentRight750	15	0	487	0	103	15:07:52	3205519	5	1	3	3	2	2	3	1	2	5	3	0	0	0	0	5	4
072512	15:07:52	10005	Trial750Fr	CongruentRight750	15	0	487	0	103	15:07:52	3206278	5	1	3	3	2	2	3	1	2	5	3	0	0	0	0	5	4
072512	15:07:52	10005	Trial750Fr	CongruentLeft750	15	0	487	0	103	15:07:52	3207038	5	1	3	3	2	2	3	1	2	5	3	0	0	0	0	5	4
072512	15:07:52	10005	Trial750Fr	IncongruentLeft750	15	0	487	0	103	15:07:52	3207798	5	1	3	3	2	2	3	1	2	5	3	0	0	0	0	5	4
072512	15:07:52	10005	Trial750Fr	IncongruentLeft750	15	0	487	0	103	15:07:52	3208557	5	1	3	3	2	2	3	1	2	5	3	0	0	0	0	5	4
072512	15:07:52	10005	Trial750Fr	CongruentRight750	15	0	487	0	103	15:07:52	3209317	5	1	3	3	2	2	3	1	2	5	3	0	0	0	0	5	4
072512	15:07:52	10005	Trial750Fr	IncongruentRight750	15	0	487	0	103	15:07:52	3210077	5	1	3	3	2	2	3	1	2	5	3	0	0	0	0	5	4
072512	15:07:52	10005	Trial750Fr	CongruentLeft750	15	0	487	0	103	15:07:52	3210836	5	1	3	3	2	2	3	1	2	5	3	0	0	0	0	5	4
072512	15:07:52	10005	Trial750Fr	IncongruentRight750	15	203	417	0	103	15:07:52	3211529	5	1	3	3	2	2	3	1	2	5	3	0	0	0	0	5	4
072512	15:07:52	10005	Trial750Fr	CongruentRight750	15	205	361	1	103	15:07:52	3212236	5	1	3	3	2	2	3	1	2	5	3	0	0	0	0	5	4
072512	15:07:52	10005	Trial750Fr	IncongruentLeft750	15	205	351	0	103	15:07:52	3212969	5	1	3	3	2	2	3	1	2	5	3	0	0	0	0	5	4
072512	15:07:52	10005	Trial750Fr	CongruentLeft750	15	203	5	1	103	15:07:52	3213370	5	1	3	3	2	2	3	1	2	5	3	0	0	0	0	5	4
072512	15:07:52	10005	Trial750Fr	CongruentRight750	15	0	487	0	103	15:07:52	3214595	5	1	3	3	2	2	3	1	2	5	3	0	0	0	0	5	4
072512	15:07:52	10005	Trial750Fr	IncongruentLeft750	15	0	487	0	103	15:07:52	3215355	5	1	3	3	2	2	3	1	2	5	3	0	0	0	0	5	4
072512	15:07:52	10005	Trial750Fr	CongruentRight750	15	0	487	0	103	15:07:52	3216114	5	1	3	3	2	2	3	1	2	5	3	0	0	0	0	5	4
072512	15:07:52	10005	Trial750Fr	CongruentRight750	15	0	487	0	103	15:07:52	3216874	5	1	3	3	2	2	3	1	2	5	3	0	0	0	0	5	4
072512	15:07:52	10005	Trial750Fr	IncongruentRight750	15	205	475	1	103	15:07:52	3217620	5	1	3	3	2	2	3	1	2	5	3	0	0	0	0	5	4
072512	15:07:52	10005	Trial750Fr	CongruentLeft750	15	0	487	0	103	15:07:52	3218380	5	1	3	3	2	2	3	1	2	5	3	0	0	0	0	5	4
072512	15:07:52	10005	Trial750Fr	IncongruentLeft750	15	0	487	0	103	15:07:52	3219140	5	1	3	3	2	2	3	1	2	5	3	0	0	0	0	5	4
072512	15:07:52	10005	Trial750Fr	CongruentLeft750	15	0	487	0	103	15:07:52	3219899	5	1	3	3	2	2	3	1	2	5	3	0	0	0	0	5	4
072512	15:07:52	10005	Trial750Fr	IncongruentRight750	15	205	474	1	103	15:07:52	3220646	5	1	3	3	2	2	3	1	2	5	3	0	0	0	0	5	4
072512	15:07:52	10005	Trial750Fr	IncongruentLeft750	15	0	487	0	103	15:07:52	3221405	5	1	3	3	2	2	3	1	2	5	3	0	0	0	0	5	4
072512	15:07:52	10005	Trial750Fr	CongruentRight750	15	0	487	0	103	15:07:52	3222165	5	1	3	3	2	2	3	1	2	5	3	0	0	0	0	5	4
072512	15:07:52	10005	Trial750Fr	CongruentLeft750	15	203	400	1	103	15:07:52	3222845	5	1	3	3	2	2	3	1	2	5	3	0	0	0	0	5	4
072512	15:07:52	10005	Trial750Fr	IncongruentLeft750	15	0	487	0	103	15:07:52	3223671	5	1	3	3	2	2	3	1	2	5	3	0	0	0	0	5	4
072512	15:07:52	10005	Trial750Fr	CongruentLeft750	15	0	487	0	103	15:07:52	3224431	5	1	3	3	2	2	3	1	2	5	3	0	0	0	0	5	4
072512	15:07:52	10005	Trial750Fr	IncongruentRight750	15	205	22	1	103	15:07:52	3224724	5	1	3	3	2	2	3	1	2	5	3	0	0	0	0	5	4
072512	15:07:52	10005	Trial750Fr	CongruentRight750	15	0	487	0	103	15:07:52	3225937	5	1	3	3	2	2	3	1	2	5	3	0	0	0	0	5	4
072512	15:07:52	10005	Trial750Fr	IncongruentLeft750	15	0	487	0	103	15:07:52	3226697	5	1	3	3	2	2	3	1	2	5	3	0	0	0	0	5	4
072512	15:07:52	10005	Trial750Fr	CongruentLeft750	15	0	487	0	103	15:07:52	3227456	5	1	3	3	2	2	3	1	2	5	3	0	0	0	0	5	4
072512	15:07:52	10005	Trial750Fr	IncongruentRight750	15	0	487	0	103	15:07:52	3228216	5	1	3	3	2	2	3	1	2	5	3	0	0	0	0	5	4
072512	15:07:52	10005	Trial750Fr	IncongruentLeft750	15	203	461	1	103	15:07:52	3228949	5	1	3	3	2	2	3	1	2	5	3	0	0	0	0	5	4
072512	15:07:52	10005	Trial750Fr	CongruentLeft750	15	203	437	1	103	15:07:52	3229682	5	1	3	3	2	2	3	1	2	5	3	0	0	0	0	5	4
072512	15:07:52	10005	Trial750Fr	IncongruentLeft750	15	203	395	1	103	15:07:52	3230389	5	1	3	3	2	2	3	1	2	5	3	0	0	0	0	5	4
072512	15:07:52	10005	Trial750Fr	CongruentRight750	15	205	464	1	103	15:07:52	3231215	5	1	3	3	2	2	3	1	2	5	3	0	0	0	0	5	4
072512	15:07:52	10005	Trial750Fr	CongruentLeft750	15	203	425	1	103	15:07:52	3231934	5	1	3	3	2	2	3	1	2	5	3	0	0	0	0	5	4
072512	15:07:52	10005	Trial750Fr	IncongruentRight750	15	0	487	0	103	15:07:52	3232734	5	1	3	3	2	2	3	1	2	5	3	0	0	0	0	5	4
072512	15:07:52	10005	Trial750Fr	CongruentLeft750	15	203	423	1	103	15:07:52	3233427	5	1	3	3	2	2	3	1	2	5	3	0	0	0	0	5	4
072512	15:07:52	10005	Trial750Fr	CongruentRight750	15	205	383	1	103	15:07:52	3234147	5	1	3	3	2	2	3	1	2	5	3	0	0	0	0	5	4
072512	15:07:52	10005	Trial750Fr	IncongruentLeft750	15	203	372	1	103	15:07:52	3234893	5	1	3	3	2	2	3	1	2	5	3	0	0	0	0	5	4
072512	15:07:52	10005	WordsAbsFr3mo	PAbsFr3mo1	16	Abs1	4201	0	103	15:07:52	3248941	5	1	3	3	2	2	3	1	2	5	3	0	0	0	0	5	4
072512	15:07:52	10005	WordsAbsFr3mo	AbsFr3mo1	16	Abs1	3475	0	103	15:07:52	3252459	5	1	3	3	2	2	3	1	2	5	3	1	0	0	0	5	4
072512	15:07:52	10005	WordsAbsFr3mo	AbsFr3mo2	16	Abs1	13364	0	103	15:07:52	3265867	5	1	3	3	2	2	3	1	2	5	3	2	0	0	0	5	4
072512	15:07:52	10005	WordsAbsFr3mo	AbsFr3mo3	16	Abs2	28011	0	103	15:07:52	3293922	5	1	3	3	2	2	3	1	2	5	3	2	0	0	0	5	4
072512	15:07:52	10005	Trial2BackFrS	NS	17	0	1000	1	103	15:07:52	3350259	5	1	3	3	2	2	3	1	2	5	3	2	0	0	0	5	4
072512	15:07:52	10005	Trial2BackFrS	NS	17	0	1000	1	103	15:07:52	3351778	5	1	3	3	2	2	3	1	2	5	3	2	0	0	0	5	4
072512	15:07:52	10005	Trial2BackFrS	NS	17	0	1000	1	103	15:07:52	3353297	5	1	3	3	2	2	3	1	2	5	3	2	0	0	0	5	4
072512	15:07:52	10005	Trial2BackFrS	YS	17	57	675	1	103	15:07:52	3354497	5	1	3	3	2	2	3	1	2	5	3	2	0	0	0	5	4
072512	15:07:52	10005	Trial2BackFrS	NS	17	0	1000	1	103	15:07:52	3356323	5	1	3	3	2	2	3	1	2	5	3	2	0	0	0	5	4
072512	15:07:52	10005	Trial2BackFrS	NS	17	57	705	0	103	15:07:52	3357562	5	1	3	3	2	2	3	1	2	5	3	2	0	0	0	5	4
072512	15:07:52	10005	Trial2BackFrS	NS	17	0	1000	1	103	15:07:52	3359348	5	1	3	3	2	2	3	1	2	5	3	2	0	0	0	5	4
072512	15:07:52	10005	Trial2BackFrS	NS	17	0	1000	1	103	15:07:52	3360868	5	1	3	3	2	2	3	1	2	5	3	2	0	0	0	5	4
072512	15:07:52	10005	Trial2BackFrS	YS	17	57	465	1	103	15:07:52	3361867	5	1	3	3	2	2	3	1	2	5	3	2	0	0	0	5	4
072512	15:07:52	10005	Trial2BackFrS	NS	17	0	1000	1	103	15:07:52	3363893	5	1	3	3	2	2	3	1	2	5	3	2	0	0	0	5	4
072512	15:07:52	10005	Trial2BackFrS	NS	17	0	1000	1	103	15:07:52	3365412	5	1	3	3	2	2	3	1	2	5	3	2	0	0	0	5	4
072512	15:07:52	10005	Trial2BackFrS	YS	17	0	1000	0	103	15:07:52	3366932	5	1	3	3	2	2	3	1	2	5	3	2	0	0	0	5	4
072512	15:07:52	10005	Trial2BackFrS	NS	17	0	1000	1	103	15:07:52	3368451	5	1	3	3	2	2	3	1	2	5	3	2	0	0	0	5	4
072512	15:07:52	10005	Trial2BackFrS	NS	17	0	1000	1	103	15:07:52	3369970	5	1	3	3	2	2	3	1	2	5	3	2	0	0	0	5	4
072512	15:07:52	10005	Trial2BackFrS	NS	17	57	338	0	103	15:07:52	3370837	5	1	3	3	2	2	3	1	2	5	3	2	0	0	0	5	4
072512	15:07:52	10005	Trial2BackFrS	YS	17	0	1000	0	103	15:07:52	3372996	5	1	3	3	2	2	3	1	2	5	3	2	0	0	0	5	4
072512	15:07:52	10005	Trial2BackFrS	NS	17	0	1000	1	103	15:07:52	3374515	5	1	3	3	2	2	3	1	2	5	3	2	0	0	0	5	4
072512	15:07:52	10005	Trial2BackFrS	NS	17	0	1000	1	103	15:07:52	3376035	5	1	3	3	2	2	3	1	2	5	3	2	0	0	0	5	4
072512	15:07:52	10005	Trial2BackFrS	NS	17	0	1000	1	103	15:07:52	3377554	5	1	3	3	2	2	3	1	2	5	3	2	0	0	0	5	4
072512	15:07:52	10005	Trial2BackFrS	NS	17	57	738	0	103	15:07:52	3378820	5	1	3	3	2	2	3	1	2	5	3	2	0	0	0	5	4
072512	15:07:52	10005	Trial2BackFrS	YS	17	0	1000	0	103	15:07:52	3380579	5	1	3	3	2	2	3	1	2	5	3	2	0	0	0	5	4
072512	15:07:52	10005	Trial2BackFrS	NS	17	0	1000	1	103	15:07:52	3382099	5	1	3	3	2	2	3	1	2	5	3	2	0	0	0	5	4
072512	15:07:52	10005	Trial2BackFrS	NS	17	0	1000	1	103	15:07:52	3383618	5	1	3	3	2	2	3	1	2	5	3	2	0	0	0	5	4
072512	15:07:52	10005	Trial2BackFrS	NS	17	57	945	0	103	15:07:52	3385097	5	1	3	3	2	2	3	1	2	5	3	2	0	0	0	5	4
072512	15:07:52	10005	Trial2BackFrS	NS	17	0	1000	1	103	15:07:52	3386643	5	1	3	3	2	2	3	1	2	5	3	2	0	0	0	5	4
072512	15:07:52	10005	Trial2BackFrS	NS	17	0	1000	1	103	15:07:52	3388163	5	1	3	3	2	2	3	1	2	5	3	2	0	0	0	5	4
072512	15:07:52	10005	Trial2BackFrS	NS	17	57	928	0	103	15:07:52	3389616	5	1	3	3	2	2	3	1	2	5	3	2	0	0	0	5	4
072512	15:07:52	10005	Trial2BackFrS	NS	17	0	1000	1	103	15:07:52	3391188	5	1	3	3	2	2	3	1	2	5	3	2	0	0	0	5	4
072512	15:07:52	10005	Trial2BackFrS	NS	17	0	1000	1	103	15:07:52	3392708	5	1	3	3	2	2	3	1	2	5	3	2	0	0	0	5	4
072512	15:07:52	10005	Trial2BackFrS	NS	17	0	1000	1	103	15:07:52	3394227	5	1	3	3	2	2	3	1	2	5	3	2	0	0	0	5	4
072512	15:07:52	10005	Trial2BackFrS	NS	17	0	1000	1	103	15:07:52	3395746	5	1	3	3	2	2	3	1	2	5	3	2	0	0	0	5	4
072512	15:07:52	10005	Trial2BackFrS	YS	17	0	1000	0	103	15:07:52	3397266	5	1	3	3	2	2	3	1	2	5	3	2	0	0	0	5	4
072512	15:07:52	10005	Trial2BackFrS	NS	17	0	1000	1	103	15:07:52	3398785	5	1	3	3	2	2	3	1	2	5	3	2	0	0	0	5	4
072512	15:07:52	10005	Trial2BackFrS	NS	17	57	2	0	103	15:07:52	3399319	5	1	3	3	2	2	3	1	2	5	3	2	0	0	0	5	4
072512	15:07:52	10005	Trial2BackFrS	NS	17	0	1000	1	103	15:07:52	3401811	5	1	3	3	2	2	3	1	2	5	3	2	0	0	0	5	4
072512	15:07:52	10005	Trial2BackFrS	YS	17	57	208	1	103	15:07:52	3402544	5	1	3	3	2	2	3	1	2	5	3	2	0	0	0	5	4
072512	15:07:52	10005	Trial2BackFrS	NS	17	0	1000	1	103	15:07:52	3404836	5	1	3	3	2	2	3	1	2	5	3	2	0	0	0	5	4
072512	15:07:52	10005	Trial2BackFrS	NS	17	57	511	0	103	15:07:52	3405876	5	1	3	3	2	2	3	1	2	5	3	2	0	0	0	5	4
072512	15:07:52	10005	Trial2BackFrS	NS	17	0	1000	1	103	15:07:52	3407861	5	1	3	3	2	2	3	1	2	5	3	2	0	0	0	5	4
072512	15:07:52	10005	Trial2BackFrS	NS	17	0	1000	1	103	15:07:52	3409381	5	1	3	3	2	2	3	1	2	5	3	2	0	0	0	5	4
072512	15:07:52	10005	Trial2BackFrS	NS	17	57	110	0	103	15:07:52	3410020	5	1	3	3	2	2	3	1	2	5	3	2	0	0	0	5	4
072512	15:07:52	10005	Trial2BackFrS	NS	17	57	764	0	103	15:07:52	3412179	5	1	3	3	2	2	3	1	2	5	3	2	0	0	0	5	4
072512	15:07:52	10005	Trial2BackFrS	NS	17	0	1000	1	103	15:07:52	3413899	5	1	3	3	2	2	3	1	2	5	3	2	0	0	0	5	4
072512	15:07:52	10005	Trial2BackFrS	YS	17	57	424	1	103	15:07:52	3414845	5	1	3	3	2	2	3	1	2	5	3	2	0	0	0	5	4
072512	15:07:52	10005	Trial2BackFrS	NS	17	57	533	0	103	15:07:52	3416471	5	1	3	3	2	2	3	1	2	5	3	2	0	0	0	5	4
072512	15:07:52	10005	Trial2BackFrS	NS	17	0	1000	1	103	15:07:52	3418417	5	1	3	3	2	2	3	1	2	5	3	2	0	0	0	5	4
072512	15:07:52	10005	Trial2BackFrS	NS	17	57	449	0	103	15:07:52	3419390	5	1	3	3	2	2	3	1	2	5	3	2	0	0	0	5	4
072512	15:07:52	10005	Trial2BackFrS	NS	17	0	1000	1	103	15:07:52	3421442	5	1	3	3	2	2	3	1	2	5	3	2	0	0	0	5	4
072512	15:07:52	10005	Trial2BackFrS	YS	17	57	256	1	103	15:07:52	3422229	5	1	3	3	2	2	3	1	2	5	3	2	0	0	0	5	4
072512	15:07:52	10005	Trial2BackFrS	NS	17	0	1000	1	103	15:07:52	3424468	5	1	3	3	2	2	3	1	2	5	3	2	0	0	0	5	4
072512	15:07:52	10005	Trial2BackFrS	NS	17	0	1000	1	103	15:07:52	3425987	5	1	3	3	2	2	3	1	2	5	3	2	0	0	0	5	4
072512	15:07:52	10005	Trial2BackFrS	NS	17	57	431	0	103	15:07:52	3426947	5	1	3	3	2	2	3	1	2	5	3	2	0	0	0	5	4
072512	15:07:52	10005	Trial2BackFrS	NS	17	0	1000	1	103	15:07:52	3429013	5	1	3	3	2	2	3	1	2	5	3	2	0	0	0	5	4
072512	15:07:52	10005	Trial2BackFrS	NS	17	0	1000	1	103	15:07:52	3430532	5	1	3	3	2	2	3	1	2	5	3	2	0	0	0	5	4
072512	15:07:52	10005	Trial2BackFrS	NS	17	0	1000	1	103	15:07:52	3432051	5	1	3	3	2	2	3	1	2	5	3	2	0	0	0	5	4
072512	15:07:52	10005	Trial2BackFrS	YS	17	57	590	1	103	15:07:52	3433171	5	1	3	3	2	2	3	1	2	5	3	2	0	0	0	5	4
072512	15:07:52	10005	Trial2BackFrS	NS	17	0	1000	1	103	15:07:52	3435077	5	1	3	3	2	2	3	1	2	5	3	2	0	0	0	5	4
072512	15:07:52	10005	Trial2BackFrS	NS	17	0	1000	1	103	15:07:52	3436596	5	1	3	3	2	2	3	1	2	5	3	2	0	0	0	5	4
072512	15:07:52	10005	Trial2BackFrS	NS	17	57	62	0	103	15:07:52	3437183	5	1	3	3	2	2	3	1	2	5	3	2	0	0	0	5	4
072512	15:07:52	10005	Trial2BackFrS	NS	17	0	1000	1	103	15:07:52	3439622	5	1	3	3	2	2	3	1	2	5	3	2	0	0	0	5	4
072512	15:07:52	10005	Trial2BackFrS	NS	17	0	1000	1	103	15:07:52	3441154	5	1	3	3	2	2	3	1	2	5	3	2	0	0	0	5	4
072512	15:07:52	10005	Trial2BackFrS	NS	17	0	1000	1	103	15:07:52	3442674	5	1	3	3	2	2	3	1	2	5	3	2	0	0	0	5	4
072512	15:07:52	10005	Trial2BackFrS	NS	17	0	1000	1	103	15:07:52	3444193	5	1	3	3	2	2	3	1	2	5	3	2	0	0	0	5	4
072512	15:07:52	10005	Trial2BackFrS	YS	17	0	1000	0	103	15:07:52	3445712	5	1	3	3	2	2	3	1	2	5	3	2	0	0	0	5	4
072512	15:07:52	10005	Trial2BackFrS	NS	17	0	1000	1	103	15:07:52	3447232	5	1	3	3	2	2	3	1	2	5	3	2	0	0	0	5	4
072512	15:07:52	10005	Trial2BackFrS	NS	17	0	1000	1	103	15:07:52	3448751	5	1	3	3	2	2	3	1	2	5	3	2	0	0	0	5	4
072512	15:07:52	10005	Trial2BackFrS	NS	17	57	354	0	103	15:07:52	3449631	5	1	3	3	2	2	3	1	2	5	3	2	0	0	0	5	4
072512	15:07:52	10005	Trial2BackFrS	NS	17	0	1000	1	103	15:07:52	3451776	5	1	3	3	2	2	3	1	2	5	3	2	0	0	0	5	4
072512	15:07:52	10005	Trial2BackFrS	YS	17	0	1000	0	103	15:07:52	3453296	5	1	3	3	2	2	3	1	2	5	3	2	0	0	0	5	4
072512	15:07:52	10005	Trial2BackFrS	NS	17	0	1000	1	103	15:07:52	3454815	5	1	3	3	2	2	3	1	2	5	3	2	0	0	0	5	4
072512	15:07:52	10005	Trial2BackFrS	NS	17	57	706	0	103	15:07:52	3456055	5	1	3	3	2	2	3	1	2	5	3	2	0	0	0	5	4
072512	15:07:52	10005	Trial2BackFrS	YS	17	0	1000	0	103	15:07:52	3457841	5	1	3	3	2	2	3	1	2	5	3	2	0	0	0	5	4
072512	15:07:52	10005	Trial2BackFrS	NS	17	0	1000	1	103	15:07:52	3459360	5	1	3	3	2	2	3	1	2	5	3	2	0	0	0	5	4
072512	15:07:52	10005	Trial2BackFrS	NS	17	57	753	0	103	15:07:52	3460639	5	1	3	3	2	2	3	1	2	5	3	2	0	0	0	5	4
072512	15:07:52	10005	Trial2BackFrS	NS	17	0	1000	1	103	15:07:52	3462385	5	1	3	3	2	2	3	1	2	5	3	2	0	0	0	5	4
072512	15:07:52	10005	Trial2BackFrS	NS	17	0	1000	1	103	15:07:52	3463905	5	1	3	3	2	2	3	1	2	5	3	2	0	0	0	5	4
072512	15:07:52	10005	Trial2BackFrS	NS	17	57	640	0	103	15:07:52	3465077	5	1	3	3	2	2	3	1	2	5	3	2	0	0	0	5	4
072512	15:07:52	10005	Trial2BackFrS	NS	17	0	1000	1	103	15:07:52	3466930	5	1	3	3	2	2	3	1	2	5	3	2	0	0	0	5	4
072512	15:07:52	10005	Trial2BackFrS	YS	17	0	1000	0	103	15:07:52	3468450	5	1	3	3	2	2	3	1	2	5	3	2	0	0	0	5	4
072512	15:07:52	10005	Trial2BackFrS	NS	17	57	975	0	103	15:07:52	3469956	5	1	3	3	2	2	3	1	2	5	3	2	0	0	0	5	4
072512	15:07:52	10005	Trial2BackFrS	NS	17	0	1000	1	103	15:07:52	3471475	5	1	3	3	2	2	3	1	2	5	3	2	0	0	0	5	4
072512	15:07:52	10005	Trial2BackFrS	NS	17	0	1000	1	103	15:07:52	3472994	5	1	3	3	2	2	3	1	2	5	3	2	0	0	0	5	4
072512	15:07:52	10005	Trial2BackFrS	NS	17	0	1000	1	103	15:07:52	3474514	5	1	3	3	2	2	3	1	2	5	3	2	0	0	0	5	4
072512	15:07:52	10005	Trial2BackFrS	YS	17	57	271	1	103	15:07:52	3475313	5	1	3	3	2	2	3	1	2	5	3	2	0	0	0	5	4
072512	15:07:52	10005	Trial2BackFrS	NS	17	57	829	0	103	15:07:52	3477379	5	1	3	3	2	2	3	1	2	5	3	2	0	0	0	5	4
072512	15:07:52	10005	Trial2BackFrS	NS	17	0	1000	1	103	15:07:52	3479032	5	1	3	3	2	2	3	1	2	5	3	2	0	0	0	5	4
072512	15:07:52	10005	Trial2BackFrS	NS	17	0	1000	1	103	15:07:52	3480551	5	1	3	3	2	2	3	1	2	5	3	2	0	0	0	5	4
072512	15:07:52	10005	Trial2BackFrS	NS	17	0	1000	1	103	15:07:52	3482071	5	1	3	3	2	2	3	1	2	5	3	2	0	0	0	5	4
072512	15:07:52	10005	Trial2BackFrS	YS	17	57	553	1	103	15:07:52	3483150	5	1	3	3	2	2	3	1	2	5	3	2	0	0	0	5	4
072512	15:07:52	10005	Trial2BackFrS	NS	17	57	440	0	103	15:07:52	3484550	5	1	3	3	2	2	3	1	2	5	3	2	0	0	0	5	4
072512	15:07:52	10005	Trial2BackFrS	NS	17	57	419	0	103	15:07:52	3486016	5	1	3	3	2	2	3	1	2	5	3	2	0	0	0	5	4
072512	15:07:52	10005	Trial2BackFrS	YS	17	0	1000	0	103	15:07:52	3488095	5	1	3	3	2	2	3	1	2	5	3	2	0	0	0	5	4
072512	15:07:52	10005	Trial2BackFrS	NS	17	0	1000	1	103	15:07:52	3489614	5	1	3	3	2	2	3	1	2	5	3	2	0	0	0	5	4
072512	15:07:52	10005	Trial2BackFrS	NS	17	0	1000	1	103	15:07:52	3491134	5	1	3	3	2	2	3	1	2	5	3	2	0	0	0	5	4
072512	15:07:52	10005	Trial2BackFrS	NS	17	0	1000	1	103	15:07:52	3492653	5	1	3	3	2	2	3	1	2	5	3	2	0	0	0	5	4
072512	15:07:52	10005	Trial2BackFrS	NS	17	0	1000	1	103	15:07:52	3494172	5	1	3	3	2	2	3	1	2	5	3	2	0	0	0	5	4
072512	15:07:52	10005	Trial2BackFrS	NS	17	0	1000	1	103	15:07:52	3495692	5	1	3	3	2	2	3	1	2	5	3	2	0	0	0	5	4
072512	15:07:52	10005	Trial2BackFrS	NS	17	0	1000	1	103	15:07:52	3497211	5	1	3	3	2	2	3	1	2	5	3	2	0	0	0	5	4
072512	15:07:52	10005	Trial2BackFrS	NS	17	0	1000	1	103	15:07:52	3498730	5	1	3	3	2	2	3	1	2	5	3	2	0	0	0	5	4
072512	15:07:52	10005	Trial2BackFrS	NS	17	0	1000	1	103	15:07:52	3500250	5	1	3	3	2	2	3	1	2	5	3	2	0	0	0	5	4
072512	15:07:52	10005	Trial2BackFrS	YS	17	0	1000	0	103	15:07:52	3501769	5	1	3	3	2	2	3	1	2	5	3	2	0	0	0	5	4
072512	15:07:52	10005	Trial2BackFrS	NS	17	0	1000	1	103	15:07:52	3503288	5	1	3	3	2	2	3	1	2	5	3	2	0	0	0	5	4
072512	15:07:52	10005	Trial2BackFrS	NS	17	0	1000	1	103	15:07:52	3504808	5	1	3	3	2	2	3	1	2	5	3	2	0	0	0	5	4
072512	15:07:52	10005	Trial2BackFrS	NS	17	0	1000	1	103	15:07:52	3506327	5	1	3	3	2	2	3	1	2	5	3	2	0	0	0	5	4
072512	15:07:52	10005	Trial2BackFrS	NS	17	0	1000	1	103	15:07:52	3507846	5	1	3	3	2	2	3	1	2	5	3	2	0	0	0	5	4
072512	15:07:52	10005	Trial2BackFrS	NS	17	0	1000	1	103	15:07:52	3509366	5	1	3	3	2	2	3	1	2	5	3	2	0	0	0	5	4
072512	15:07:52	10005	Trial2BackFrS	NS	17	0	1000	1	103	15:07:52	3510886	5	1	3	3	2	2	3	1	2	5	3	2	0	0	0	5	4
072512	15:07:52	10005	Trial2BackFrS	NS	17	0	1000	1	103	15:07:52	3512405	5	1	3	3	2	2	3	1	2	5	3	2	0	0	0	5	4
072512	15:07:52	10005	Trial2BackFrS	YS	17	0	1000	0	103	15:07:52	3513924	5	1	3	3	2	2	3	1	2	5	3	2	0	0	0	5	4
072512	15:07:52	10005	Trial2BackFrS	NS	17	0	1000	1	103	15:07:52	3515443	5	1	3	3	2	2	3	1	2	5	3	2	0	0	0	5	4
072512	15:07:52	10005	Trial2BackFrS	NS	17	0	1000	1	103	15:07:52	3516963	5	1	3	3	2	2	3	1	2	5	3	2	0	0	0	5	4
072512	15:07:52	10005	Trial2BackFrS	NS	17	0	1000	1	103	15:07:52	3518482	5	1	3	3	2	2	3	1	2	5	3	2	0	0	0	5	4
072512	15:07:52	10005	Trial2BackFrS	NS	17	0	1000	1	103	15:07:52	3520002	5	1	3	3	2	2	3	1	2	5	3	2	0	0	0	5	4
072512	15:07:52	10005	Trial2BackFrS	NS	17	0	1000	1	103	15:07:52	3521521	5	1	3	3	2	2	3	1	2	5	3	2	0	0	0	5	4
072512	15:07:52	10005	Trial2BackFrS	NS	17	0	1000	1	103	15:07:52	3523040	5	1	3	3	2	2	3	1	2	5	3	2	0	0	0	5	4
072512	15:07:52	10005	Trial2BackFrS	NS	17	0	1000	1	103	15:07:52	3524560	5	1	3	3	2	2	3	1	2	5	3	2	0	0	0	5	4
072512	15:07:52	10005	Trial2BackFrS	NS	17	0	1000	1	103	15:07:52	3526079	5	1	3	3	2	2	3	1	2	5	3	2	0	0	0	5	4
072512	15:07:52	10005	Trial2BackFrS	NS	17	0	1000	1	103	15:07:52	3527598	5	1	3	3	2	2	3	1	2	5	3	2	0	0	0	5	4
072512	15:07:52	10005	Trial2BackFrS	YS	17	0	1000	0	103	15:07:52	3529118	5	1	3	3	2	2	3	1	2	5	3	2	0	0	0	5	4
072512	15:07:52	10005	Trial2BackFrS	NS	17	0	1000	1	103	15:07:52	3530637	5	1	3	3	2	2	3	1	2	5	3	2	0	0	0	5	4
072512	15:07:52	10005	ClockFr3mo	ClockFr3mo	19	Clock2	65923	0	103	15:07:52	3596663	5	1	3	3	2	2	3	1	2	5	3	2	0	0	0	5	4
072512	15:07:52	10005	ClockFr3mo	ClockFr3mo	19	Clock22	420	0	103	15:07:52	3597130	5	1	3	3	2	2	3	1	2	5	3	2	0	0	0	5	4
072512	15:07:52	10005	ClockFr3mo	ClockFr3mo	19	Clock222	418	0	103	15:07:52	3597583	5	1	3	3	2	2	3	1	2	5	3	2	0	0	0	5	4
072512	15:07:52	10005	ClockFr3mo	ClockFr3mo	19	Clock1	3517	0	103	15:07:52	3601141	5	1	3	3	2	2	3	1	2	5	3	2	1	0	0	5	4
072512	15:07:52	10005	ClockFr3mo	ClockFr3mo	19	Clock2	526	0	103	15:07:52	3601701	5	1	3	3	2	2	3	1	2	5	3	2	0	0	0	5	4
072512	15:07:52	10005	ClockFr3mo	ClockFr3mo	19	Clockdone	1038	0	103	15:07:52	3602781	5	1	3	3	2	2	3	1	2	5	3	2	0	0	0	5	4
072512	15:07:52	10005	FASFrVF3mo	StopFrVF3mo	20	9	23138	0	103	15:07:52	3751815	5	1	3	3	2	2	3	1	2	5	3	2	0	0	0	5	4
