date	time	subject	blockcode	trialcode	values.TaskNumber	response	latency	correct	values.Score	script.starttime	script.elapsedtime	values.ScoreS7	values.Word1	values.Word2	values.Word3	values.Word4	values.Word5	values.Word6	values.Word7	values.Word8	values.DigitSpanFwrd	values.DigitSpanBack	values.ScoreAbs	values.Contour	values.Numbers	values.Hands	values.corsiblockspanFwrd	values.corsiblockspanRev
071912	12:17:01	10002	Language	Language	0	French	3395	0	0	12:17:01	3750	0	0	0	0	0	0	0	0	0	0	0	0	0	0	0	0	0
071912	12:17:01	10002	Session	Session	0	3mo	983	0	0	12:17:01	4819	0	0	0	0	0	0	0	0	0	0	0	0	0	0	0	0	0
071912	12:17:01	10002	HandFr	HandFr	0	RightFr	1120821	0	0	12:17:01	1125724	0	0	0	0	0	0	0	0	0	0	0	0	0	0	0	0	0
071912	12:17:01	10002	AudioCheckFr	WordsFr	0	0	0	0	0	12:17:01	1151210	0	0	0	0	0	0	0	0	0	0	0	0	0	0	0	0	0
071912	12:17:01	10002	CubeFr	CubeFr	1	1Cube	26411	0	0	12:17:01	1179462	0	0	0	0	0	0	0	0	0	0	0	0	0	0	0	0	0
071912	12:17:01	10002	pm.simpleFrRight	blank.simpleFr	2	0	2287	1	0	12:17:01	1232414	0	0	0	0	0	0	0	0	0	0	0	0	0	0	0	0	0
071912	12:17:01	10002	pm.simpleFrRight	pm.simpleFr	2	57	545	0	0	12:17:01	1233001	0	0	0	0	0	0	0	0	0	0	0	0	0	0	0	0	0
071912	12:17:01	10002	pm.simpleFrRight	blank.simpleFr	2	0	2087	1	0	12:17:01	1235120	0	0	0	0	0	0	0	0	0	0	0	0	0	0	0	0	0
071912	12:17:01	10002	pm.simpleFrRight	pm.simpleFr	2	57	416	0	0	12:17:01	1235573	0	0	0	0	0	0	0	0	0	0	0	0	0	0	0	0	0
071912	12:17:01	10002	pm.simpleFrRight	blank.simpleFr	2	0	1787	1	0	12:17:01	1237386	0	0	0	0	0	0	0	0	0	0	0	0	0	0	0	0	0
071912	12:17:01	10002	pm.simpleFrRight	pm.simpleFr	2	57	454	0	0	12:17:01	1237879	0	0	0	0	0	0	0	0	0	0	0	0	0	0	0	0	0
071912	12:17:01	10002	pm.simpleFrRight	blank.simpleFr	2	0	1987	1	0	12:17:01	1239891	0	0	0	0	0	0	0	0	0	0	0	0	0	0	0	0	0
071912	12:17:01	10002	pm.simpleFrRight	pm.simpleFr	2	57	330	0	0	12:17:01	1240265	0	0	0	0	0	0	0	0	0	0	0	0	0	0	0	0	0
071912	12:17:01	10002	pm.simpleFrRight	blank.simpleFr	2	0	1487	1	0	12:17:01	1241784	0	0	0	0	0	0	0	0	0	0	0	0	0	0	0	0	0
071912	12:17:01	10002	pm.simpleFrRight	pm.simpleFr	2	57	360	0	0	12:17:01	1242184	0	0	0	0	0	0	0	0	0	0	0	0	0	0	0	0	0
071912	12:17:01	10002	pm.simpleFrRight	blank.simpleFr	2	0	2187	1	0	12:17:01	1244396	0	0	0	0	0	0	0	0	0	0	0	0	0	0	0	0	0
071912	12:17:01	10002	pm.simpleFrRight	pm.simpleFr	2	57	385	0	0	12:17:01	1244823	0	0	0	0	0	0	0	0	0	0	0	0	0	0	0	0	0
071912	12:17:01	10002	pm.simpleFrRight	blank.simpleFr	2	0	1887	1	0	12:17:01	1246742	0	0	0	0	0	0	0	0	0	0	0	0	0	0	0	0	0
071912	12:17:01	10002	pm.simpleFrRight	pm.simpleFr	2	57	410	0	0	12:17:01	1247182	0	0	0	0	0	0	0	0	0	0	0	0	0	0	0	0	0
071912	12:17:01	10002	pm.simpleFrRight	blank.simpleFr	2	0	1587	1	0	12:17:01	1248795	0	0	0	0	0	0	0	0	0	0	0	0	0	0	0	0	0
071912	12:17:01	10002	pm.simpleFrRight	pm.simpleFr	2	57	469	0	0	12:17:01	1249301	0	0	0	0	0	0	0	0	0	0	0	0	0	0	0	0	0
071912	12:17:01	10002	pm.simpleFrRight	blank.simpleFr	2	0	2387	1	0	12:17:01	1251713	0	0	0	0	0	0	0	0	0	0	0	0	0	0	0	0	0
071912	12:17:01	10002	pm.simpleFrRight	pm.simpleFr	2	57	350	0	0	12:17:01	1252100	0	0	0	0	0	0	0	0	0	0	0	0	0	0	0	0	0
071912	12:17:01	10002	pm.simpleFrRight	blank.simpleFr	2	0	1687	1	0	12:17:01	1253806	0	0	0	0	0	0	0	0	0	0	0	0	0	0	0	0	0
071912	12:17:01	10002	pm.simpleFrRight	pm.simpleFr	2	57	481	0	0	12:17:01	1254326	0	0	0	0	0	0	0	0	0	0	0	0	0	0	0	0	0
071912	12:17:01	10002	pm.simpleFrRight	blank.simpleFr	2	0	2487	1	0	12:17:01	1256845	0	0	0	0	0	0	0	0	0	0	0	0	0	0	0	0	0
071912	12:17:01	10002	pm.simpleFrRight	pm.simpleFr	2	57	450	0	0	12:17:01	1257338	0	0	0	0	0	0	0	0	0	0	0	0	0	0	0	0	0
071912	12:17:01	10002	pm.simpleFrRight	blank.simpleFr	2	0	1687	1	0	12:17:01	1259057	0	0	0	0	0	0	0	0	0	0	0	0	0	0	0	0	0
071912	12:17:01	10002	pm.simpleFrRight	pm.simpleFr	2	57	382	0	0	12:17:01	1259470	0	0	0	0	0	0	0	0	0	0	0	0	0	0	0	0	0
071912	12:17:01	10002	pm.simpleFrRight	blank.simpleFr	2	0	2287	1	0	12:17:01	1261789	0	0	0	0	0	0	0	0	0	0	0	0	0	0	0	0	0
071912	12:17:01	10002	pm.simpleFrRight	pm.simpleFr	2	57	353	0	0	12:17:01	1262176	0	0	0	0	0	0	0	0	0	0	0	0	0	0	0	0	0
071912	12:17:01	10002	pm.simpleFrRight	blank.simpleFr	2	0	1787	1	0	12:17:01	1263988	0	0	0	0	0	0	0	0	0	0	0	0	0	0	0	0	0
071912	12:17:01	10002	pm.simpleFrRight	pm.simpleFr	2	57	426	0	0	12:17:01	1264455	0	0	0	0	0	0	0	0	0	0	0	0	0	0	0	0	0
071912	12:17:01	10002	pm.simpleFrRight	blank.simpleFr	2	0	2187	1	0	12:17:01	1266667	0	0	0	0	0	0	0	0	0	0	0	0	0	0	0	0	0
071912	12:17:01	10002	pm.simpleFrRight	pm.simpleFr	2	57	372	0	0	12:17:01	1267081	0	0	0	0	0	0	0	0	0	0	0	0	0	0	0	0	0
071912	12:17:01	10002	pm.simpleFrRight	blank.simpleFr	2	0	2387	1	0	12:17:01	1269493	0	0	0	0	0	0	0	0	0	0	0	0	0	0	0	0	0
071912	12:17:01	10002	pm.simpleFrRight	pm.simpleFr	2	57	458	0	0	12:17:01	1269986	0	0	0	0	0	0	0	0	0	0	0	0	0	0	0	0	0
071912	12:17:01	10002	pm.simpleFrRight	blank.simpleFr	2	0	1987	1	0	12:17:01	1271999	0	0	0	0	0	0	0	0	0	0	0	0	0	0	0	0	0
071912	12:17:01	10002	pm.simpleFrRight	pm.simpleFr	2	57	480	0	0	12:17:01	1272518	0	0	0	0	0	0	0	0	0	0	0	0	0	0	0	0	0
071912	12:17:01	10002	pm.simpleFrRight	blank.simpleFr	2	0	1587	1	0	12:17:01	1274131	0	0	0	0	0	0	0	0	0	0	0	0	0	0	0	0	0
071912	12:17:01	10002	pm.simpleFrRight	pm.simpleFr	2	57	507	0	0	12:17:01	1274678	0	0	0	0	0	0	0	0	0	0	0	0	0	0	0	0	0
071912	12:17:01	10002	pm.simpleFrRight	blank.simpleFr	2	0	2487	1	0	12:17:01	1277197	0	0	0	0	0	0	0	0	0	0	0	0	0	0	0	0	0
071912	12:17:01	10002	pm.simpleFrRight	pm.simpleFr	2	57	434	0	0	12:17:01	1277663	0	0	0	0	0	0	0	0	0	0	0	0	0	0	0	0	0
071912	12:17:01	10002	pm.simpleFrRight	blank.simpleFr	2	0	1487	1	0	12:17:01	1279182	0	0	0	0	0	0	0	0	0	0	0	0	0	0	0	0	0
071912	12:17:01	10002	pm.simpleFrRight	pm.simpleFr	2	57	560	0	0	12:17:01	1279782	0	0	0	0	0	0	0	0	0	0	0	0	0	0	0	0	0
071912	12:17:01	10002	pm.simpleFrRight	blank.simpleFr	2	0	2087	1	0	12:17:01	1281901	0	0	0	0	0	0	0	0	0	0	0	0	0	0	0	0	0
071912	12:17:01	10002	pm.simpleFrRight	pm.simpleFr	2	57	385	0	0	12:17:01	1282328	0	0	0	0	0	0	0	0	0	0	0	0	0	0	0	0	0
071912	12:17:01	10002	pm.simpleFrRight	blank.simpleFr	2	0	1887	1	0	12:17:01	1284234	0	0	0	0	0	0	0	0	0	0	0	0	0	0	0	0	0
071912	12:17:01	10002	pm.simpleFrRight	pm.simpleFr	2	57	389	0	0	12:17:01	1284660	0	0	0	0	0	0	0	0	0	0	0	0	0	0	0	0	0
071912	12:17:01	10002	pm.simpleFrRight	blank.simpleFr	2	0	1687	1	0	12:17:01	1286380	0	0	0	0	0	0	0	0	0	0	0	0	0	0	0	0	0
071912	12:17:01	10002	pm.simpleFrRight	pm.simpleFr	2	57	419	0	0	12:17:01	1286833	0	0	0	0	0	0	0	0	0	0	0	0	0	0	0	0	0
071912	12:17:01	10002	pm.simpleFrRight	blank.simpleFr	2	0	1887	1	0	12:17:01	1288739	0	0	0	0	0	0	0	0	0	0	0	0	0	0	0	0	0
071912	12:17:01	10002	pm.simpleFrRight	pm.simpleFr	2	57	380	0	0	12:17:01	1289152	0	0	0	0	0	0	0	0	0	0	0	0	0	0	0	0	0
071912	12:17:01	10002	pm.simpleFrRight	blank.simpleFr	2	0	2287	1	0	12:17:01	1291457	0	0	0	0	0	0	0	0	0	0	0	0	0	0	0	0	0
071912	12:17:01	10002	pm.simpleFrRight	pm.simpleFr	2	57	381	0	0	12:17:01	1291871	0	0	0	0	0	0	0	0	0	0	0	0	0	0	0	0	0
071912	12:17:01	10002	pm.simpleFrRight	blank.simpleFr	2	0	1487	1	0	12:17:01	1293390	0	0	0	0	0	0	0	0	0	0	0	0	0	0	0	0	0
071912	12:17:01	10002	pm.simpleFrRight	pm.simpleFr	2	57	432	0	0	12:17:01	1293856	0	0	0	0	0	0	0	0	0	0	0	0	0	0	0	0	0
071912	12:17:01	10002	pm.simpleFrRight	blank.simpleFr	2	0	2487	1	0	12:17:01	1296376	0	0	0	0	0	0	0	0	0	0	0	0	0	0	0	0	0
071912	12:17:01	10002	pm.simpleFrRight	pm.simpleFr	2	57	327	0	0	12:17:01	1296736	0	0	0	0	0	0	0	0	0	0	0	0	0	0	0	0	0
071912	12:17:01	10002	pm.simpleFrRight	blank.simpleFr	2	0	1787	1	0	12:17:01	1298548	0	0	0	0	0	0	0	0	0	0	0	0	0	0	0	0	0
071912	12:17:01	10002	pm.simpleFrRight	pm.simpleFr	2	57	411	0	0	12:17:01	1299001	0	0	0	0	0	0	0	0	0	0	0	0	0	0	0	0	0
071912	12:17:01	10002	pm.simpleFrRight	blank.simpleFr	2	0	1987	1	0	12:17:01	1301014	0	0	0	0	0	0	0	0	0	0	0	0	0	0	0	0	0
071912	12:17:01	10002	pm.simpleFrRight	pm.simpleFr	2	57	345	0	0	12:17:01	1301400	0	0	0	0	0	0	0	0	0	0	0	0	0	0	0	0	0
071912	12:17:01	10002	pm.simpleFrRight	blank.simpleFr	2	0	2387	1	0	12:17:01	1303813	0	0	0	0	0	0	0	0	0	0	0	0	0	0	0	0	0
071912	12:17:01	10002	pm.simpleFrRight	pm.simpleFr	2	57	346	0	0	12:17:01	1304199	0	0	0	0	0	0	0	0	0	0	0	0	0	0	0	0	0
071912	12:17:01	10002	pm.simpleFrRight	blank.simpleFr	2	0	2187	1	0	12:17:01	1306412	0	0	0	0	0	0	0	0	0	0	0	0	0	0	0	0	0
071912	12:17:01	10002	pm.simpleFrRight	pm.simpleFr	2	57	371	0	0	12:17:01	1306825	0	0	0	0	0	0	0	0	0	0	0	0	0	0	0	0	0
071912	12:17:01	10002	pm.simpleFrRight	blank.simpleFr	2	0	2087	1	0	12:17:01	1308931	0	0	0	0	0	0	0	0	0	0	0	0	0	0	0	0	0
071912	12:17:01	10002	pm.simpleFrRight	pm.simpleFr	2	57	428	0	0	12:17:01	1309397	0	0	0	0	0	0	0	0	0	0	0	0	0	0	0	0	0
071912	12:17:01	10002	pm.simpleFrRight	blank.simpleFr	2	0	1587	1	0	12:17:01	1311010	0	0	0	0	0	0	0	0	0	0	0	0	0	0	0	0	0
071912	12:17:01	10002	pm.simpleFrRight	pm.simpleFr	2	57	413	0	0	12:17:01	1311463	0	0	0	0	0	0	0	0	0	0	0	0	0	0	0	0	0
071912	12:17:01	10002	pm.simpleFrRight	blank.simpleFr	2	0	1987	1	0	12:17:01	1313476	0	0	0	0	0	0	0	0	0	0	0	0	0	0	0	0	0
071912	12:17:01	10002	pm.simpleFrRight	pm.simpleFr	2	57	331	0	0	12:17:01	1313849	0	0	0	0	0	0	0	0	0	0	0	0	0	0	0	0	0
071912	12:17:01	10002	pm.simpleFrRight	blank.simpleFr	2	0	2387	1	0	12:17:01	1316261	0	0	0	0	0	0	0	0	0	0	0	0	0	0	0	0	0
071912	12:17:01	10002	pm.simpleFrRight	pm.simpleFr	2	57	361	0	0	12:17:01	1316661	0	0	0	0	0	0	0	0	0	0	0	0	0	0	0	0	0
071912	12:17:01	10002	pm.simpleFrRight	blank.simpleFr	2	0	1587	1	0	12:17:01	1318274	0	0	0	0	0	0	0	0	0	0	0	0	0	0	0	0	0
071912	12:17:01	10002	pm.simpleFrRight	pm.simpleFr	2	57	461	0	0	12:17:01	1318767	0	0	0	0	0	0	0	0	0	0	0	0	0	0	0	0	0
071912	12:17:01	10002	pm.simpleFrRight	blank.simpleFr	2	0	1687	1	0	12:17:01	1320473	0	0	0	0	0	0	0	0	0	0	0	0	0	0	0	0	0
071912	12:17:01	10002	pm.simpleFrRight	pm.simpleFr	2	57	341	0	0	12:17:01	1320846	0	0	0	0	0	0	0	0	0	0	0	0	0	0	0	0	0
071912	12:17:01	10002	pm.simpleFrRight	blank.simpleFr	2	0	1887	1	0	12:17:01	1322765	0	0	0	0	0	0	0	0	0	0	0	0	0	0	0	0	0
071912	12:17:01	10002	pm.simpleFrRight	pm.simpleFr	2	57	449	0	0	12:17:01	1323245	0	0	0	0	0	0	0	0	0	0	0	0	0	0	0	0	0
071912	12:17:01	10002	pm.simpleFrRight	blank.simpleFr	2	0	2187	1	0	12:17:01	1325458	0	0	0	0	0	0	0	0	0	0	0	0	0	0	0	0	0
071912	12:17:01	10002	pm.simpleFrRight	pm.simpleFr	2	57	461	0	0	12:17:01	1325950	0	0	0	0	0	0	0	0	0	0	0	0	0	0	0	0	0
071912	12:17:01	10002	pm.simpleFrRight	blank.simpleFr	2	0	2287	1	0	12:17:01	1328270	0	0	0	0	0	0	0	0	0	0	0	0	0	0	0	0	0
071912	12:17:01	10002	pm.simpleFrRight	pm.simpleFr	2	57	464	0	0	12:17:01	1328776	0	0	0	0	0	0	0	0	0	0	0	0	0	0	0	0	0
071912	12:17:01	10002	Trial2BackFr	N	3	0	1000	1	1	12:17:01	1413463	0	0	0	0	0	0	0	0	0	0	0	0	0	0	0	0	0
071912	12:17:01	10002	Trial2BackFr	N	3	0	1000	1	2	12:17:01	1414982	0	0	0	0	0	0	0	0	0	0	0	0	0	0	0	0	0
071912	12:17:01	10002	Trial2BackFr	N	3	0	1000	1	3	12:17:01	1416502	0	0	0	0	0	0	0	0	0	0	0	0	0	0	0	0	0
071912	12:17:01	10002	Trial2BackFr	N	3	0	1000	1	4	12:17:01	1418021	0	0	0	0	0	0	0	0	0	0	0	0	0	0	0	0	0
071912	12:17:01	10002	Trial2BackFr	N	3	0	1000	1	5	12:17:01	1419541	0	0	0	0	0	0	0	0	0	0	0	0	0	0	0	0	0
071912	12:17:01	10002	Trial2BackFr	N	3	0	1000	1	6	12:17:01	1421060	0	0	0	0	0	0	0	0	0	0	0	0	0	0	0	0	0
071912	12:17:01	10002	Trial2BackFr	N	3	0	1000	1	7	12:17:01	1422579	0	0	0	0	0	0	0	0	0	0	0	0	0	0	0	0	0
071912	12:17:01	10002	Trial2BackFr	N	3	0	1000	1	8	12:17:01	1424099	0	0	0	0	0	0	0	0	0	0	0	0	0	0	0	0	0
071912	12:17:01	10002	Trial2BackFr	Y	3	0	1000	0	8	12:17:01	1425618	0	0	0	0	0	0	0	0	0	0	0	0	0	0	0	0	0
071912	12:17:01	10002	Trial2BackFr	N	3	0	1000	1	9	12:17:01	1427138	0	0	0	0	0	0	0	0	0	0	0	0	0	0	0	0	0
071912	12:17:01	10002	Trial2BackFr	N	3	0	1000	1	10	12:17:01	1428657	0	0	0	0	0	0	0	0	0	0	0	0	0	0	0	0	0
071912	12:17:01	10002	Trial2BackFr	N	3	0	1000	1	11	12:17:01	1430176	0	0	0	0	0	0	0	0	0	0	0	0	0	0	0	0	0
071912	12:17:01	10002	Trial2BackFr	Y	3	0	1000	0	11	12:17:01	1431709	0	0	0	0	0	0	0	0	0	0	0	0	0	0	0	0	0
071912	12:17:01	10002	Trial2BackFr	N	3	0	1000	1	12	12:17:01	1433229	0	0	0	0	0	0	0	0	0	0	0	0	0	0	0	0	0
071912	12:17:01	10002	Trial2BackFr	N	3	0	1000	1	13	12:17:01	1434748	0	0	0	0	0	0	0	0	0	0	0	0	0	0	0	0	0
071912	12:17:01	10002	Trial2BackFr	N	3	0	1000	1	14	12:17:01	1436267	0	0	0	0	0	0	0	0	0	0	0	0	0	0	0	0	0
071912	12:17:01	10002	Trial2BackFr	N	3	0	1000	1	15	12:17:01	1437787	0	0	0	0	0	0	0	0	0	0	0	0	0	0	0	0	0
071912	12:17:01	10002	Trial2BackFr	N	3	0	1000	1	16	12:17:01	1439306	0	0	0	0	0	0	0	0	0	0	0	0	0	0	0	0	0
071912	12:17:01	10002	Trial2BackFr	Y	3	57	951	1	17	12:17:01	1440786	0	0	0	0	0	0	0	0	0	0	0	0	0	0	0	0	0
071912	12:17:01	10002	Trial2BackFr	N	3	0	1000	1	18	12:17:01	1442332	0	0	0	0	0	0	0	0	0	0	0	0	0	0	0	0	0
071912	12:17:01	10002	Trial2BackFr	N	3	0	1000	1	19	12:17:01	1443851	0	0	0	0	0	0	0	0	0	0	0	0	0	0	0	0	0
071912	12:17:01	10002	Trial2BackFr	N	3	0	1000	1	20	12:17:01	1445370	0	0	0	0	0	0	0	0	0	0	0	0	0	0	0	0	0
071912	12:17:01	10002	Trial2BackFr	N	3	0	1000	1	21	12:17:01	1446890	0	0	0	0	0	0	0	0	0	0	0	0	0	0	0	0	0
071912	12:17:01	10002	Trial2BackFr	Y	3	57	935	1	22	12:17:01	1448356	0	0	0	0	0	0	0	0	0	0	0	0	0	0	0	0	0
071912	12:17:01	10002	Trial2BackFr	N	3	0	1000	1	23	12:17:01	1449915	0	0	0	0	0	0	0	0	0	0	0	0	0	0	0	0	0
071912	12:17:01	10002	Trial2BackFr	N	3	0	1000	1	24	12:17:01	1451435	0	0	0	0	0	0	0	0	0	0	0	0	0	0	0	0	0
071912	12:17:01	10002	Trial2BackFr	N	3	0	1000	1	25	12:17:01	1452954	0	0	0	0	0	0	0	0	0	0	0	0	0	0	0	0	0
071912	12:17:01	10002	Trial2BackFr	N	3	0	1000	1	26	12:17:01	1454473	0	0	0	0	0	0	0	0	0	0	0	0	0	0	0	0	0
071912	12:17:01	10002	Trial2BackFr	N	3	0	1000	1	27	12:17:01	1455993	0	0	0	0	0	0	0	0	0	0	0	0	0	0	0	0	0
071912	12:17:01	10002	Trial2BackFr	N	3	0	1000	1	28	12:17:01	1457512	0	0	0	0	0	0	0	0	0	0	0	0	0	0	0	0	0
071912	12:17:01	10002	Trial2BackFr	Y	3	0	1000	0	28	12:17:01	1459032	0	0	0	0	0	0	0	0	0	0	0	0	0	0	0	0	0
071912	12:17:01	10002	Trial2BackFr	N	3	57	825	0	28	12:17:01	1460391	0	0	0	0	0	0	0	0	0	0	0	0	0	0	0	0	0
071912	12:17:01	10002	Trial2BackFr	N	3	0	1000	1	29	12:17:01	1462057	0	0	0	0	0	0	0	0	0	0	0	0	0	0	0	0	0
071912	12:17:01	10002	Trial2BackFr	N	3	0	1000	1	30	12:17:01	1463577	0	0	0	0	0	0	0	0	0	0	0	0	0	0	0	0	0
071912	12:17:01	10002	Trial2BackFr	Y	3	0	1000	0	30	12:17:01	1465096	0	0	0	0	0	0	0	0	0	0	0	0	0	0	0	0	0
071912	12:17:01	10002	Trial2BackFr	N	3	0	1000	1	31	12:17:01	1466615	0	0	0	0	0	0	0	0	0	0	0	0	0	0	0	0	0
071912	12:17:01	10002	Trial2BackFr	N	3	0	1000	1	32	12:17:01	1468135	0	0	0	0	0	0	0	0	0	0	0	0	0	0	0	0	0
071912	12:17:01	10002	Trial2BackFr	N	3	0	1000	1	33	12:17:01	1469654	0	0	0	0	0	0	0	0	0	0	0	0	0	0	0	0	0
071912	12:17:01	10002	Trial2BackFr	N	3	0	1000	1	34	12:17:01	1471173	0	0	0	0	0	0	0	0	0	0	0	0	0	0	0	0	0
071912	12:17:01	10002	Trial2BackFr	N	3	0	1000	1	35	12:17:01	1472693	0	0	0	0	0	0	0	0	0	0	0	0	0	0	0	0	0
071912	12:17:01	10002	Trial2BackFr	N	3	0	1000	1	36	12:17:01	1474212	0	0	0	0	0	0	0	0	0	0	0	0	0	0	0	0	0
071912	12:17:01	10002	Trial2BackFr	Y	3	0	1000	0	36	12:17:01	1475732	0	0	0	0	0	0	0	0	0	0	0	0	0	0	0	0	0
071912	12:17:01	10002	Trial2BackFr	N	3	0	1000	1	37	12:17:01	1477251	0	0	0	0	0	0	0	0	0	0	0	0	0	0	0	0	0
071912	12:17:01	10002	Trial2BackFr	N	3	0	1000	1	38	12:17:01	1478771	0	0	0	0	0	0	0	0	0	0	0	0	0	0	0	0	0
071912	12:17:01	10002	Trial2BackFr	N	3	0	1000	1	39	12:17:01	1480290	0	0	0	0	0	0	0	0	0	0	0	0	0	0	0	0	0
071912	12:17:01	10002	Trial2BackFr	N	3	0	1000	1	40	12:17:01	1481809	0	0	0	0	0	0	0	0	0	0	0	0	0	0	0	0	0
071912	12:17:01	10002	Trial2BackFr	Y	3	0	1000	0	40	12:17:01	1483329	0	0	0	0	0	0	0	0	0	0	0	0	0	0	0	0	0
071912	12:17:01	10002	Trial2BackFr	N	3	0	1000	1	41	12:17:01	1484848	0	0	0	0	0	0	0	0	0	0	0	0	0	0	0	0	0
071912	12:17:01	10002	Trial2BackFr	N	3	0	1000	1	42	12:17:01	1486368	0	0	0	0	0	0	0	0	0	0	0	0	0	0	0	0	0
071912	12:17:01	10002	Trial2BackFr	N	3	0	1000	1	43	12:17:01	1487887	0	0	0	0	0	0	0	0	0	0	0	0	0	0	0	0	0
071912	12:17:01	10002	Trial2BackFr	N	3	0	1000	1	44	12:17:01	1489406	0	0	0	0	0	0	0	0	0	0	0	0	0	0	0	0	0
071912	12:17:01	10002	Trial2BackFr	N	3	0	1000	1	45	12:17:01	1490926	0	0	0	0	0	0	0	0	0	0	0	0	0	0	0	0	0
071912	12:17:01	10002	Trial2BackFr	Y	3	0	1000	0	45	12:17:01	1492445	0	0	0	0	0	0	0	0	0	0	0	0	0	0	0	0	0
071912	12:17:01	10002	Trial2BackFr	N	3	0	1000	1	46	12:17:01	1493964	0	0	0	0	0	0	0	0	0	0	0	0	0	0	0	0	0
071912	12:17:01	10002	Trial2BackFr	N	3	0	1000	1	47	12:17:01	1495484	0	0	0	0	0	0	0	0	0	0	0	0	0	0	0	0	0
071912	12:17:01	10002	Trial2BackFr	N	3	0	1000	1	48	12:17:01	1497003	0	0	0	0	0	0	0	0	0	0	0	0	0	0	0	0	0
071912	12:17:01	10002	Trial2BackFr	N	3	0	1000	1	49	12:17:01	1498523	0	0	0	0	0	0	0	0	0	0	0	0	0	0	0	0	0
071912	12:17:01	10002	Trial2BackFr	N	3	0	1000	1	50	12:17:01	1500042	0	0	0	0	0	0	0	0	0	0	0	0	0	0	0	0	0
071912	12:17:01	10002	Trial2BackFr	N	3	0	1000	1	51	12:17:01	1501562	0	0	0	0	0	0	0	0	0	0	0	0	0	0	0	0	0
071912	12:17:01	10002	Trial2BackFr	Y	3	57	775	1	52	12:17:01	1502867	0	0	0	0	0	0	0	0	0	0	0	0	0	0	0	0	0
071912	12:17:01	10002	Trial2BackFr	N	3	0	1000	1	53	12:17:01	1504587	0	0	0	0	0	0	0	0	0	0	0	0	0	0	0	0	0
071912	12:17:01	10002	Trial2BackFr	N	3	0	1000	1	54	12:17:01	1506106	0	0	0	0	0	0	0	0	0	0	0	0	0	0	0	0	0
071912	12:17:01	10002	Trial2BackFr	Y	3	0	1000	0	54	12:17:01	1507626	0	0	0	0	0	0	0	0	0	0	0	0	0	0	0	0	0
071912	12:17:01	10002	Trial2BackFr	N	3	57	38	0	54	12:17:01	1508199	0	0	0	0	0	0	0	0	0	0	0	0	0	0	0	0	0
071912	12:17:01	10002	Trial2BackFr	N	3	0	1000	1	55	12:17:01	1510651	0	0	0	0	0	0	0	0	0	0	0	0	0	0	0	0	0
071912	12:17:01	10002	Trial2BackFr	N	3	0	1000	1	56	12:17:01	1512171	0	0	0	0	0	0	0	0	0	0	0	0	0	0	0	0	0
071912	12:17:01	10002	Trial2BackFr	N	3	0	1000	1	57	12:17:01	1513690	0	0	0	0	0	0	0	0	0	0	0	0	0	0	0	0	0
071912	12:17:01	10002	Trial2BackFr	N	3	57	966	0	57	12:17:01	1515183	0	0	0	0	0	0	0	0	0	0	0	0	0	0	0	0	0
071912	12:17:01	10002	Trial2BackFr	N	3	0	1000	1	58	12:17:01	1516716	0	0	0	0	0	0	0	0	0	0	0	0	0	0	0	0	0
071912	12:17:01	10002	Trial2BackFr	N	3	0	1000	1	59	12:17:01	1518235	0	0	0	0	0	0	0	0	0	0	0	0	0	0	0	0	0
071912	12:17:01	10002	Trial2BackFr	N	3	0	1000	1	60	12:17:01	1519754	0	0	0	0	0	0	0	0	0	0	0	0	0	0	0	0	0
071912	12:17:01	10002	Trial2BackFr	N	3	0	1000	1	61	12:17:01	1521274	0	0	0	0	0	0	0	0	0	0	0	0	0	0	0	0	0
071912	12:17:01	10002	Trial2BackFr	N	3	0	1000	1	62	12:17:01	1522793	0	0	0	0	0	0	0	0	0	0	0	0	0	0	0	0	0
071912	12:17:01	10002	Trial2BackFr	Y	3	57	551	1	63	12:17:01	1523873	0	0	0	0	0	0	0	0	0	0	0	0	0	0	0	0	0
071912	12:17:01	10002	Trial2BackFr	N	3	0	1000	1	64	12:17:01	1525819	0	0	0	0	0	0	0	0	0	0	0	0	0	0	0	0	0
071912	12:17:01	10002	Trial2BackFr	N	3	0	1000	1	65	12:17:01	1527338	0	0	0	0	0	0	0	0	0	0	0	0	0	0	0	0	0
071912	12:17:01	10002	Trial2BackFr	N	3	0	1000	1	66	12:17:01	1528858	0	0	0	0	0	0	0	0	0	0	0	0	0	0	0	0	0
071912	12:17:01	10002	Trial2BackFr	Y	3	57	887	1	67	12:17:01	1530270	0	0	0	0	0	0	0	0	0	0	0	0	0	0	0	0	0
071912	12:17:01	10002	Trial2BackFr	N	3	0	1000	1	68	12:17:01	1531883	0	0	0	0	0	0	0	0	0	0	0	0	0	0	0	0	0
071912	12:17:01	10002	Trial2BackFr	N	3	0	1000	1	69	12:17:01	1533402	0	0	0	0	0	0	0	0	0	0	0	0	0	0	0	0	0
071912	12:17:01	10002	Trial2BackFr	N	3	0	1000	1	70	12:17:01	1534922	0	0	0	0	0	0	0	0	0	0	0	0	0	0	0	0	0
071912	12:17:01	10002	Trial2BackFr	N	3	0	1000	1	71	12:17:01	1536441	0	0	0	0	0	0	0	0	0	0	0	0	0	0	0	0	0
071912	12:17:01	10002	Trial2BackFr	N	3	0	1000	1	72	12:17:01	1537961	0	0	0	0	0	0	0	0	0	0	0	0	0	0	0	0	0
071912	12:17:01	10002	Trial2BackFr	Y	3	57	855	1	73	12:17:01	1539347	0	0	0	0	0	0	0	0	0	0	0	0	0	0	0	0	0
071912	12:17:01	10002	Trial2BackFr	N	3	0	1000	1	74	12:17:01	1540986	0	0	0	0	0	0	0	0	0	0	0	0	0	0	0	0	0
071912	12:17:01	10002	Trial2BackFr	N	3	0	1000	1	75	12:17:01	1542505	0	0	0	0	0	0	0	0	0	0	0	0	0	0	0	0	0
071912	12:17:01	10002	Trial2BackFr	N	3	0	1000	1	76	12:17:01	1544025	0	0	0	0	0	0	0	0	0	0	0	0	0	0	0	0	0
071912	12:17:01	10002	Trial2BackFr	N	3	0	1000	1	77	12:17:01	1545545	0	0	0	0	0	0	0	0	0	0	0	0	0	0	0	0	0
071912	12:17:01	10002	Trial2BackFr	N	3	0	1000	1	78	12:17:01	1547063	0	0	0	0	0	0	0	0	0	0	0	0	0	0	0	0	0
071912	12:17:01	10002	Trial2BackFr	N	3	0	1000	1	79	12:17:01	1548583	0	0	0	0	0	0	0	0	0	0	0	0	0	0	0	0	0
071912	12:17:01	10002	Trial2BackFr	N	3	0	1000	1	80	12:17:01	1550103	0	0	0	0	0	0	0	0	0	0	0	0	0	0	0	0	0
071912	12:17:01	10002	Trial2BackFr	N	3	0	1000	1	81	12:17:01	1551622	0	0	0	0	0	0	0	0	0	0	0	0	0	0	0	0	0
071912	12:17:01	10002	Trial2BackFr	N	3	0	1000	1	82	12:17:01	1553141	0	0	0	0	0	0	0	0	0	0	0	0	0	0	0	0	0
071912	12:17:01	10002	Trial2BackFr	Y	3	57	778	1	83	12:17:01	1554447	0	0	0	0	0	0	0	0	0	0	0	0	0	0	0	0	0
071912	12:17:01	10002	Trial2BackFr	N	3	0	1000	1	84	12:17:01	1556167	0	0	0	0	0	0	0	0	0	0	0	0	0	0	0	0	0
071912	12:17:01	10002	Trial2BackFr	N	3	0	1000	1	85	12:17:01	1557686	0	0	0	0	0	0	0	0	0	0	0	0	0	0	0	0	0
071912	12:17:01	10002	Trial2BackFr	N	3	0	1000	1	86	12:17:01	1559206	0	0	0	0	0	0	0	0	0	0	0	0	0	0	0	0	0
071912	12:17:01	10002	Trial2BackFr	N	3	0	1000	1	87	12:17:01	1560725	0	0	0	0	0	0	0	0	0	0	0	0	0	0	0	0	0
071912	12:17:01	10002	Trial2BackFr	N	3	0	1000	1	88	12:17:01	1562244	0	0	0	0	0	0	0	0	0	0	0	0	0	0	0	0	0
071912	12:17:01	10002	Trial2BackFr	N	3	0	1000	1	89	12:17:01	1563764	0	0	0	0	0	0	0	0	0	0	0	0	0	0	0	0	0
071912	12:17:01	10002	Trial2BackFr	N	3	0	1000	1	90	12:17:01	1565283	0	0	0	0	0	0	0	0	0	0	0	0	0	0	0	0	0
071912	12:17:01	10002	Trial2BackFr	N	3	0	1000	1	91	12:17:01	1566803	0	0	0	0	0	0	0	0	0	0	0	0	0	0	0	0	0
071912	12:17:01	10002	Trial2BackFr	Y	3	57	669	1	92	12:17:01	1568002	0	0	0	0	0	0	0	0	0	0	0	0	0	0	0	0	0
071912	12:17:01	10002	Trial2BackFr	N	3	0	1000	1	93	12:17:01	1569828	0	0	0	0	0	0	0	0	0	0	0	0	0	0	0	0	0
071912	12:17:01	10002	Trial2BackFr	N	3	0	1000	1	94	12:17:01	1571347	0	0	0	0	0	0	0	0	0	0	0	0	0	0	0	0	0
071912	12:17:01	10002	Trial2BackFr	N	3	0	1000	1	95	12:17:01	1572867	0	0	0	0	0	0	0	0	0	0	0	0	0	0	0	0	0
071912	12:17:01	10002	Trial2BackFr	N	3	0	1000	1	96	12:17:01	1574386	0	0	0	0	0	0	0	0	0	0	0	0	0	0	0	0	0
071912	12:17:01	10002	Trial2BackFr	Y	3	57	589	1	97	12:17:01	1575506	0	0	0	0	0	0	0	0	0	0	0	0	0	0	0	0	0
071912	12:17:01	10002	Trial2BackFr	N	3	0	1000	1	98	12:17:01	1577412	0	0	0	0	0	0	0	0	0	0	0	0	0	0	0	0	0
071912	12:17:01	10002	Trial2BackFr	N	3	0	1000	1	99	12:17:01	1578931	0	0	0	0	0	0	0	0	0	0	0	0	0	0	0	0	0
071912	12:17:01	10002	Trial2BackFr	N	3	0	1000	1	100	12:17:01	1580451	0	0	0	0	0	0	0	0	0	0	0	0	0	0	0	0	0
071912	12:17:01	10002	Trial2BackFr	Y	3	57	477	1	101	12:17:01	1581450	0	0	0	0	0	0	0	0	0	0	0	0	0	0	0	0	0
071912	12:17:01	10002	Trial2BackFr	N	3	0	1000	1	102	12:17:01	1583476	0	0	0	0	0	0	0	0	0	0	0	0	0	0	0	0	0
071912	12:17:01	10002	Trial2BackFr	N	3	0	1000	1	103	12:17:01	1584995	0	0	0	0	0	0	0	0	0	0	0	0	0	0	0	0	0
071912	12:17:01	10002	Trial2BackFr	N	3	0	1000	1	104	12:17:01	1586515	0	0	0	0	0	0	0	0	0	0	0	0	0	0	0	0	0
071912	12:17:01	10002	Trial2BackFr	N	3	0	1000	1	105	12:17:01	1588034	0	0	0	0	0	0	0	0	0	0	0	0	0	0	0	0	0
071912	12:17:01	10002	Trial2BackFr	N	3	0	1000	1	106	12:17:01	1589553	0	0	0	0	0	0	0	0	0	0	0	0	0	0	0	0	0
071912	12:17:01	10002	Trial2BackFr	Y	3	57	718	1	107	12:17:01	1590793	0	0	0	0	0	0	0	0	0	0	0	0	0	0	0	0	0
071912	12:17:01	10002	Trial2BackFr	N	3	0	1000	1	108	12:17:01	1592579	0	0	0	0	0	0	0	0	0	0	0	0	0	0	0	0	0
071912	12:17:01	10002	Trial2BackFr	N	3	0	1000	1	109	12:17:01	1594098	0	0	0	0	0	0	0	0	0	0	0	0	0	0	0	0	0
071912	12:17:01	10002	Trial2BackFr	N	3	0	1000	1	110	12:17:01	1595618	0	0	0	0	0	0	0	0	0	0	0	0	0	0	0	0	0
071912	12:17:01	10002	Trial2BackFr	Y	3	57	989	1	111	12:17:01	1597137	0	0	0	0	0	0	0	0	0	0	0	0	0	0	0	0	0
071912	12:17:01	10002	Memory1R3moFr	ScoreFr	5	M1	28090	0	111	12:17:01	1661992	0	0	0	0	0	0	0	0	0	0	0	0	0	0	0	0	0
071912	12:17:01	10002	Memory1R3moFr	ScoreFr	5	M2	2131	0	111	12:17:01	1664164	0	0	0	0	0	0	0	0	0	0	0	0	0	0	0	0	0
071912	12:17:01	10002	Memory1R3moFr	ScoreFr	5	M4	446	0	111	12:17:01	1664658	0	0	0	0	0	0	0	0	0	0	0	0	0	0	0	0	0
071912	12:17:01	10002	Memory1R3moFr	ScoreFr	5	M5	273	0	111	12:17:01	1664964	0	0	0	0	0	0	0	0	0	0	0	0	0	0	0	0	0
071912	12:17:01	10002	Memory1R3moFr	ScoreFr	5	M6	271	0	111	12:17:01	1665271	0	0	0	0	0	0	0	0	0	0	0	0	0	0	0	0	0
071912	12:17:01	10002	Memory1R3moFr	ScoreFr	5	M7	332	0	111	12:17:01	1665644	0	0	0	0	0	0	0	0	0	0	0	0	0	0	0	0	0
071912	12:17:01	10002	Memory1R3moFr	ScoreFr	5	M8	535	0	111	12:17:01	1666217	0	0	0	0	0	0	0	0	0	0	0	0	0	0	0	0	0
071912	12:17:01	10002	Memory1R3moFr	ScoreFr	5	Done	15201	0	111	12:17:01	1681464	0	0	0	0	0	0	0	0	0	0	0	0	0	0	0	0	0
071912	12:17:01	10002	Memory2R3moFr	ScoreFr2	5	11	19840	0	111	12:17:01	1720022	0	0	0	0	0	0	0	0	0	0	0	0	0	0	0	0	0
071912	12:17:01	10002	Memory2R3moFr	ScoreFr2	5	22	388	0	111	12:17:01	1720449	0	0	0	0	0	0	0	0	0	0	0	0	0	0	0	0	0
071912	12:17:01	10002	Memory2R3moFr	ScoreFr2	5	33	497	0	111	12:17:01	1720982	0	0	0	0	0	0	0	0	0	0	0	0	0	0	0	0	0
071912	12:17:01	10002	Memory2R3moFr	ScoreFr2	5	44	460	0	111	12:17:01	1721489	0	0	0	0	0	0	0	0	0	0	0	0	0	0	0	0	0
071912	12:17:01	10002	Memory2R3moFr	ScoreFr2	5	55	537	0	111	12:17:01	1722062	0	0	0	0	0	0	0	0	0	0	0	0	0	0	0	0	0
071912	12:17:01	10002	Memory2R3moFr	ScoreFr2	5	66	604	0	111	12:17:01	1722701	0	0	0	0	0	0	0	0	0	0	0	0	0	0	0	0	0
071912	12:17:01	10002	Memory2R3moFr	ScoreFr2	5	77	1012	0	111	12:17:01	1723754	0	0	0	0	0	0	0	0	0	0	0	0	0	0	0	0	0
071912	12:17:01	10002	Memory2R3moFr	ScoreFr2	5	88	1159	0	111	12:17:01	1724954	0	0	0	0	0	0	0	0	0	0	0	0	0	0	0	0	0
071912	12:17:01	10002	Memory2R3moFr	ScoreFr2	5	Done	4320	0	111	12:17:01	1729312	0	0	0	0	0	0	0	0	0	0	0	0	0	0	0	0	0
071912	12:17:01	10002	Memory3R3moFr	ScoreFr3	5	111	13688	0	111	12:17:01	1761873	0	0	0	0	0	0	0	0	0	0	0	0	0	0	0	0	0
071912	12:17:01	10002	Memory3R3moFr	ScoreFr3	5	222	249	0	111	12:17:01	1762166	0	0	0	0	0	0	0	0	0	0	0	0	0	0	0	0	0
071912	12:17:01	10002	Memory3R3moFr	ScoreFr3	5	333	484	0	111	12:17:01	1762686	0	0	0	0	0	0	0	0	0	0	0	0	0	0	0	0	0
071912	12:17:01	10002	Memory3R3moFr	ScoreFr3	5	444	356	0	111	12:17:01	1763086	0	0	0	0	0	0	0	0	0	0	0	0	0	0	0	0	0
071912	12:17:01	10002	Memory3R3moFr	ScoreFr3	5	555	308	0	111	12:17:01	1763432	0	0	0	0	0	0	0	0	0	0	0	0	0	0	0	0	0
071912	12:17:01	10002	Memory3R3moFr	ScoreFr3	5	777	281	0	111	12:17:01	1763752	0	0	0	0	0	0	0	0	0	0	0	0	0	0	0	0	0
071912	12:17:01	10002	Memory3R3moFr	ScoreFr3	5	666	289	0	111	12:17:01	1764085	0	0	0	0	0	0	0	0	0	0	0	0	0	0	0	0	0
071912	12:17:01	10002	Memory3R3moFr	ScoreFr3	5	888	468	0	111	12:17:01	1764591	0	0	0	0	0	0	0	0	0	0	0	0	0	0	0	0	0
071912	12:17:01	10002	Memory3R3moFr	ScoreFr3	5	Done	490	0	111	12:17:01	1765125	0	0	0	0	0	0	0	0	0	0	0	0	0	0	0	0	0
071912	12:17:01	10002	LoriaFrLH3	Stop	6	11	9563	0	111	12:17:01	1872592	0	0	0	0	0	0	0	0	0	0	0	0	0	0	0	0	0
071912	12:17:01	10002	FrTrail	Trails	7	1Trails	2545	0	111	12:17:01	1903097	0	0	0	0	0	0	0	0	0	0	0	0	0	0	0	0	0
071912	12:17:01	10002	Serial7Fr3mo	Serial7Fr3mo	8	83	29321	0	111	12:17:01	1980324	1	0	0	0	0	0	0	0	0	0	0	0	0	0	0	0	0
071912	12:17:01	10002	Serial7Fr3mo	Serial7Fr3mo	8	79	2675	0	111	12:17:01	1983016	1	0	0	0	0	0	0	0	0	0	0	0	0	0	0	0	0
071912	12:17:01	10002	Serial7Fr3mo	Serial7Fr3mo	8	72	2935	0	111	12:17:01	1985976	2	0	0	0	0	0	0	0	0	0	0	0	0	0	0	0	0
071912	12:17:01	10002	Serial7Fr3mo	Serial7Fr3mo	8	65	2559	0	111	12:17:01	1988562	3	0	0	0	0	0	0	0	0	0	0	0	0	0	0	0	0
071912	12:17:01	10002	Serial7Fr3mo	Serial7Fr3mo	8	58	11101	0	111	12:17:01	1999678	4	0	0	0	0	0	0	0	0	0	0	0	0	0	0	0	0
071912	12:17:01	10002	corsiblockFrFwrd	recallseqFrFwrd	9	8	4392	0	111	12:17:01	2067145	4	0	0	0	0	0	0	0	0	0	0	0	0	0	0	0	0
071912	12:17:01	10002	corsiblockFrFwrd	recallseqFrFwrd	9	3	1266	0	111	12:17:01	2068451	4	0	0	0	0	0	0	0	0	0	0	0	0	0	0	0	0
071912	12:17:01	10002	corsiblockFrFwrd	recallseqFrFwrd	9	doneCorsiFr	1520	0	111	12:17:01	2070011	4	0	0	0	0	0	0	0	0	0	0	0	0	0	0	2	0
071912	12:17:01	10002	corsiblockFrFwrd	recallseqFrFwrd	9	2	2029	0	111	12:17:01	2078127	4	0	0	0	0	0	0	0	0	0	0	0	0	0	0	2	0
071912	12:17:01	10002	corsiblockFrFwrd	recallseqFrFwrd	9	7	828	0	111	12:17:01	2078994	4	0	0	0	0	0	0	0	0	0	0	0	0	0	0	2	0
071912	12:17:01	10002	corsiblockFrFwrd	recallseqFrFwrd	9	5	962	0	111	12:17:01	2079993	4	0	0	0	0	0	0	0	0	0	0	0	0	0	0	2	0
071912	12:17:01	10002	corsiblockFrFwrd	recallseqFrFwrd	9	doneCorsiFr	1066	0	111	12:17:01	2081099	4	0	0	0	0	0	0	0	0	0	0	0	0	0	0	3	0
071912	12:17:01	10002	corsiblockFrFwrd	recallseqFrFwrd	9	9	661	0	111	12:17:01	2088856	4	0	0	0	0	0	0	0	0	0	0	0	0	0	0	3	0
071912	12:17:01	10002	corsiblockFrFwrd	recallseqFrFwrd	9	6	1090	0	111	12:17:01	2089989	4	0	0	0	0	0	0	0	0	0	0	0	0	0	0	3	0
071912	12:17:01	10002	corsiblockFrFwrd	recallseqFrFwrd	9	4	542	0	111	12:17:01	2090576	4	0	0	0	0	0	0	0	0	0	0	0	0	0	0	3	0
071912	12:17:01	10002	corsiblockFrFwrd	recallseqFrFwrd	9	1	747	0	111	12:17:01	2091362	4	0	0	0	0	0	0	0	0	0	0	0	0	0	0	3	0
071912	12:17:01	10002	corsiblockFrFwrd	recallseqFrFwrd	9	doneCorsiFr	1625	0	111	12:17:01	2093028	4	0	0	0	0	0	0	0	0	0	0	0	0	0	0	4	0
071912	12:17:01	10002	corsiblockFrFwrd	recallseqFrFwrd	9	7	780	0	111	12:17:01	2101891	4	0	0	0	0	0	0	0	0	0	0	0	0	0	0	4	0
071912	12:17:01	10002	corsiblockFrFwrd	recallseqFrFwrd	9	9	576	0	111	12:17:01	2102504	4	0	0	0	0	0	0	0	0	0	0	0	0	0	0	4	0
071912	12:17:01	10002	corsiblockFrFwrd	recallseqFrFwrd	9	8	738	0	111	12:17:01	2103277	4	0	0	0	0	0	0	0	0	0	0	0	0	0	0	4	0
071912	12:17:01	10002	corsiblockFrFwrd	recallseqFrFwrd	9	1	693	0	111	12:17:01	2104010	4	0	0	0	0	0	0	0	0	0	0	0	0	0	0	4	0
071912	12:17:01	10002	corsiblockFrFwrd	recallseqFrFwrd	9	5	736	0	111	12:17:01	2104784	4	0	0	0	0	0	0	0	0	0	0	0	0	0	0	4	0
071912	12:17:01	10002	corsiblockFrFwrd	recallseqFrFwrd	9	doneCorsiFr	707	0	111	12:17:01	2105530	4	0	0	0	0	0	0	0	0	0	0	0	0	0	0	5	0
071912	12:17:01	10002	corsiblockFrFwrd	recallseqFrFwrd	9	6	678	0	111	12:17:01	2115299	4	0	0	0	0	0	0	0	0	0	0	0	0	0	0	5	0
071912	12:17:01	10002	corsiblockFrFwrd	recallseqFrFwrd	9	2	599	0	111	12:17:01	2115939	4	0	0	0	0	0	0	0	0	0	0	0	0	0	0	5	0
071912	12:17:01	10002	corsiblockFrFwrd	recallseqFrFwrd	9	3	639	0	111	12:17:01	2116619	4	0	0	0	0	0	0	0	0	0	0	0	0	0	0	5	0
071912	12:17:01	10002	corsiblockFrFwrd	recallseqFrFwrd	9	4	512	0	111	12:17:01	2117165	4	0	0	0	0	0	0	0	0	0	0	0	0	0	0	5	0
071912	12:17:01	10002	corsiblockFrFwrd	recallseqFrFwrd	9	6	1422	0	111	12:17:01	2118631	4	0	0	0	0	0	0	0	0	0	0	0	0	0	0	5	0
071912	12:17:01	10002	corsiblockFrFwrd	recallseqFrFwrd	9	3	619	0	111	12:17:01	2119284	4	0	0	0	0	0	0	0	0	0	0	0	0	0	0	5	0
071912	12:17:01	10002	corsiblockFrFwrd	recallseqFrFwrd	9	5	710	0	111	12:17:01	2120031	4	0	0	0	0	0	0	0	0	0	0	0	0	0	0	5	0
071912	12:17:01	10002	corsiblockFrFwrd	recallseqFrFwrd	9	doneCorsiFr	660	0	111	12:17:01	2120724	4	0	0	0	0	0	0	0	0	0	0	0	0	0	0	5	0
071912	12:17:01	10002	corsiblockFrFwrd	recallseqFrFwrd	9	7	420	0	111	12:17:01	2130200	4	0	0	0	0	0	0	0	0	0	0	0	0	0	0	5	0
071912	12:17:01	10002	corsiblockFrFwrd	recallseqFrFwrd	9	8	506	0	111	12:17:01	2130747	4	0	0	0	0	0	0	0	0	0	0	0	0	0	0	5	0
071912	12:17:01	10002	corsiblockFrFwrd	recallseqFrFwrd	9	1	688	0	111	12:17:01	2131480	4	0	0	0	0	0	0	0	0	0	0	0	0	0	0	5	0
071912	12:17:01	10002	corsiblockFrFwrd	recallseqFrFwrd	9	9	507	0	111	12:17:01	2132026	4	0	0	0	0	0	0	0	0	0	0	0	0	0	0	5	0
071912	12:17:01	10002	corsiblockFrFwrd	recallseqFrFwrd	9	2	848	0	111	12:17:01	2132919	4	0	0	0	0	0	0	0	0	0	0	0	0	0	0	5	0
071912	12:17:01	10002	corsiblockFrFwrd	recallseqFrFwrd	9	4	1932	0	111	12:17:01	2134892	4	0	0	0	0	0	0	0	0	0	0	0	0	0	0	5	0
071912	12:17:01	10002	corsiblockFrFwrd	recallseqFrFwrd	9	doneCorsiFr	879	0	111	12:17:01	2135811	4	0	0	0	0	0	0	0	0	0	0	0	0	0	0	6	0
071912	12:17:01	10002	corsiblockFrFwrd	recallseqFrFwrd	9	6	1053	0	111	12:17:01	2145954	4	0	0	0	0	0	0	0	0	0	0	0	0	0	0	6	0
071912	12:17:01	10002	corsiblockFrFwrd	recallseqFrFwrd	9	9	4560	0	111	12:17:01	2150552	4	0	0	0	0	0	0	0	0	0	0	0	0	0	0	6	0
071912	12:17:01	10002	corsiblockFrFwrd	recallseqFrFwrd	9	8	586	0	111	12:17:01	2151179	4	0	0	0	0	0	0	0	0	0	0	0	0	0	0	6	0
071912	12:17:01	10002	corsiblockFrFwrd	recallseqFrFwrd	9	4	423	0	111	12:17:01	2151645	4	0	0	0	0	0	0	0	0	0	0	0	0	0	0	6	0
071912	12:17:01	10002	corsiblockFrFwrd	recallseqFrFwrd	9	5	341	0	111	12:17:01	2152032	4	0	0	0	0	0	0	0	0	0	0	0	0	0	0	6	0
071912	12:17:01	10002	corsiblockFrFwrd	recallseqFrFwrd	9	1	715	0	111	12:17:01	2152791	4	0	0	0	0	0	0	0	0	0	0	0	0	0	0	6	0
071912	12:17:01	10002	corsiblockFrFwrd	recallseqFrFwrd	9	doneCorsiFr	1083	0	111	12:17:01	2153911	4	0	0	0	0	0	0	0	0	0	0	0	0	0	0	6	0
071912	12:17:01	10002	corsiblockFrFwrd	recallseqFrFwrd	9	2	746	0	111	12:17:01	2164707	4	0	0	0	0	0	0	0	0	0	0	0	0	0	0	6	0
071912	12:17:01	10002	corsiblockFrFwrd	recallseqFrFwrd	9	7	703	0	111	12:17:01	2165453	4	0	0	0	0	0	0	0	0	0	0	0	0	0	0	6	0
071912	12:17:01	10002	corsiblockFrFwrd	recallseqFrFwrd	9	3	637	0	111	12:17:01	2166133	4	0	0	0	0	0	0	0	0	0	0	0	0	0	0	6	0
071912	12:17:01	10002	corsiblockFrFwrd	recallseqFrFwrd	9	4	413	0	111	12:17:01	2166586	4	0	0	0	0	0	0	0	0	0	0	0	0	0	0	6	0
071912	12:17:01	10002	corsiblockFrFwrd	recallseqFrFwrd	9	1	496	0	111	12:17:01	2167119	4	0	0	0	0	0	0	0	0	0	0	0	0	0	0	6	0
071912	12:17:01	10002	corsiblockFrFwrd	recallseqFrFwrd	9	7	563	0	111	12:17:01	2167719	4	0	0	0	0	0	0	0	0	0	0	0	0	0	0	6	0
071912	12:17:01	10002	corsiblockFrFwrd	recallseqFrFwrd	9	doneCorsiFr	843	0	111	12:17:01	2168598	4	0	0	0	0	0	0	0	0	0	0	0	0	0	0	6	0
071912	12:17:01	10002	corsiblockFrRev	recallseqFrRev	10	5	1340	0	111	12:17:01	2183619	4	0	0	0	0	0	0	0	0	0	0	0	0	0	0	6	0
071912	12:17:01	10002	corsiblockFrRev	recallseqFrRev	10	4	415	0	111	12:17:01	2184072	4	0	0	0	0	0	0	0	0	0	0	0	0	0	0	6	0
071912	12:17:01	10002	corsiblockFrRev	recallseqFrRev	10	doneCorsiFr	730	0	111	12:17:01	2184845	4	0	0	0	0	0	0	0	0	0	0	0	0	0	0	6	2
071912	12:17:01	10002	corsiblockFrRev	recallseqFrRev	10	8	937	0	111	12:17:01	2191869	4	0	0	0	0	0	0	0	0	0	0	0	0	0	0	6	2
071912	12:17:01	10002	corsiblockFrRev	recallseqFrRev	10	3	693	0	111	12:17:01	2192602	4	0	0	0	0	0	0	0	0	0	0	0	0	0	0	6	2
071912	12:17:01	10002	corsiblockFrRev	recallseqFrRev	10	2	919	0	111	12:17:01	2193562	4	0	0	0	0	0	0	0	0	0	0	0	0	0	0	6	2
071912	12:17:01	10002	corsiblockFrRev	recallseqFrRev	10	doneCorsiFr	1103	0	111	12:17:01	2194708	4	0	0	0	0	0	0	0	0	0	0	0	0	0	0	6	3
071912	12:17:01	10002	corsiblockFrRev	recallseqFrRev	10	6	795	0	111	12:17:01	2202598	4	0	0	0	0	0	0	0	0	0	0	0	0	0	0	6	3
071912	12:17:01	10002	corsiblockFrRev	recallseqFrRev	10	1	731	0	111	12:17:01	2203371	4	0	0	0	0	0	0	0	0	0	0	0	0	0	0	6	3
071912	12:17:01	10002	corsiblockFrRev	recallseqFrRev	10	7	630	0	111	12:17:01	2204038	4	0	0	0	0	0	0	0	0	0	0	0	0	0	0	6	3
071912	12:17:01	10002	corsiblockFrRev	recallseqFrRev	10	9	372	0	111	12:17:01	2204451	4	0	0	0	0	0	0	0	0	0	0	0	0	0	0	6	3
071912	12:17:01	10002	corsiblockFrRev	recallseqFrRev	10	doneCorsiFr	823	0	111	12:17:01	2205317	4	0	0	0	0	0	0	0	0	0	0	0	0	0	0	6	3
071912	12:17:01	10002	corsiblockFrRev	recallseqFrRev	10	8	1801	0	111	12:17:01	2214167	4	0	0	0	0	0	0	0	0	0	0	0	0	0	0	6	3
071912	12:17:01	10002	corsiblockFrRev	recallseqFrRev	10	7	514	0	111	12:17:01	2214727	4	0	0	0	0	0	0	0	0	0	0	0	0	0	0	6	3
071912	12:17:01	10002	corsiblockFrRev	recallseqFrRev	10	9	1066	0	111	12:17:01	2215833	4	0	0	0	0	0	0	0	0	0	0	0	0	0	0	6	3
071912	12:17:01	10002	corsiblockFrRev	recallseqFrRev	10	1	673	0	111	12:17:01	2216540	4	0	0	0	0	0	0	0	0	0	0	0	0	0	0	6	3
071912	12:17:01	10002	corsiblockFrRev	recallseqFrRev	10	doneCorsiFr	1430	0	111	12:17:01	2218006	4	0	0	0	0	0	0	0	0	0	0	0	0	0	0	6	3
071912	12:17:01	10002	testFr3mo	WordsFr3mo	11	2Fr3mo	1798	0	111	12:17:01	2305025	4	0	1	0	0	0	0	0	0	0	0	0	0	0	0	6	3
071912	12:17:01	10002	testFr3mo	WordsFr3mo	11	3Fr3mo	304	0	111	12:17:01	2305371	4	0	1	1	0	0	0	0	0	0	0	0	0	0	0	6	3
071912	12:17:01	10002	testFr3mo	WordsFr3mo	11	6Fr3mo	2413	0	111	12:17:01	2307824	4	0	1	1	0	0	1	0	0	0	0	0	0	0	0	6	3
071912	12:17:01	10002	testFr3mo	WordsFr3mo	11	7Fr3mo	617	0	111	12:17:01	2308477	4	0	1	1	0	0	1	1	0	0	0	0	0	0	0	6	3
071912	12:17:01	10002	testFr3mo	WordsFr3mo	11	8Fr3mo	380	0	111	12:17:01	2308903	4	0	1	1	0	0	1	1	1	0	0	0	0	0	0	6	3
071912	12:17:01	10002	testFr3mo	WordsFr3mo	11	DoneFr3mo	22737	0	111	12:17:01	2331681	4	0	1	1	0	0	1	1	1	0	0	0	0	0	0	6	3
071912	12:17:01	10002	testFr3mo	Cat1Fr3mo	11	0	1	0	111	12:17:01	2331697	4	0	1	1	0	0	1	1	1	0	0	0	0	0	0	6	3
071912	12:17:01	10002	testFr3mo	Ch1Fr3mo	11	RR1Fr3mo	8159	0	111	12:17:01	2339877	4	3	1	1	0	0	1	1	1	0	0	0	0	0	0	6	3
071912	12:17:01	10002	testFr3mo	Cat4Fr3mo	11	R4Fr3mo	10410	0	111	12:17:01	2350327	4	3	1	1	2	0	1	1	1	0	0	0	0	0	0	6	3
071912	12:17:01	10002	testFr3mo	Cat5Fr3mo	11	R5Fr3mo	3689	0	111	12:17:01	2354058	4	3	1	1	2	2	1	1	1	0	0	0	0	0	0	6	3
071912	12:17:01	10002	DigitSpanFwrdFr3mo	Score1FwrdFr3mo	12	DS1	3906	0	111	12:17:01	2376823	4	3	1	1	2	2	1	1	1	0	0	0	0	0	0	6	3
071912	12:17:01	10002	DigitSpanFwrdFr3mo	Gate1FwrdFr3mo	12	0	1	0	111	12:17:01	2376838	4	3	1	1	2	2	1	1	1	3	0	0	0	0	0	6	3
071912	12:17:01	10002	DigitSpanFwrdFr3mo	Score2FwrdFr3mo	12	DS1	4888	0	111	12:17:01	2387459	4	3	1	1	2	2	1	1	1	3	0	0	0	0	0	6	3
071912	12:17:01	10002	DigitSpanFwrdFr3mo	Gate3FwrdFr3mo	12	0	1	0	111	12:17:01	2387474	4	3	1	1	2	2	1	1	1	4	0	0	0	0	0	6	3
071912	12:17:01	10002	DigitSpanFwrdFr3mo	Score3FwrdFr3mo	12	DS1	5882	0	111	12:17:01	2400626	4	3	1	1	2	2	1	1	1	4	0	0	0	0	0	6	3
071912	12:17:01	10002	DigitSpanFwrdFr3mo	Gate5FwrdFr3mo	12	0	1	0	111	12:17:01	2400642	4	3	1	1	2	2	1	1	1	5	0	0	0	0	0	6	3
071912	12:17:01	10002	DigitSpanFwrdFr3mo	Score4FwrdFr3mo	12	DS2	22054	0	111	12:17:01	2431214	4	3	1	1	2	2	1	1	1	5	0	0	0	0	0	6	3
071912	12:17:01	10002	DigitSpanFwrdFr3mo	Gate7FwrdFr3mo	12	0	1	0	111	12:17:01	2431230	4	3	1	1	2	2	1	1	1	5	0	0	0	0	0	6	3
071912	12:17:01	10002	DigitSpanFwrdFr3mo	Score44FwrdFr3mo	12	DS2	15790	0	111	12:17:01	2455378	4	3	1	1	2	2	1	1	1	5	0	0	0	0	0	6	3
071912	12:17:01	10002	DigitSpanFr3mo	Score1Fr3mo	13	DS1	3578	0	111	12:17:01	2482248	4	3	1	1	2	2	1	1	1	5	0	0	0	0	0	6	3
071912	12:17:01	10002	DigitSpanFr3mo	Gate1Fr3mo	13	0	1	0	111	12:17:01	2482263	4	3	1	1	2	2	1	1	1	5	2	0	0	0	0	6	3
071912	12:17:01	10002	DigitSpanFr3mo	Score2Fr3mo	13	DS1	3872	0	111	12:17:01	2490711	4	3	1	1	2	2	1	1	1	5	2	0	0	0	0	6	3
071912	12:17:01	10002	DigitSpanFr3mo	Gate3Fr3mo	13	0	1	0	111	12:17:01	2490726	4	3	1	1	2	2	1	1	1	5	3	0	0	0	0	6	3
071912	12:17:01	10002	DigitSpanFr3mo	Score3Fr3mo	13	DS2	4444	0	111	12:17:01	2500880	4	3	1	1	2	2	1	1	1	5	3	0	0	0	0	6	3
071912	12:17:01	10002	DigitSpanFr3mo	Gate5Fr3mo	13	0	1	0	111	12:17:01	2500896	4	3	1	1	2	2	1	1	1	5	3	0	0	0	0	6	3
071912	12:17:01	10002	DigitSpanFr3mo	Score33Fr3mo	13	DS1	20402	0	111	12:17:01	2527377	4	3	1	1	2	2	1	1	1	5	3	0	0	0	0	6	3
071912	12:17:01	10002	DigitSpanFr3mo	Gate6Fr3mo	13	0	1	0	111	12:17:01	2527392	4	3	1	1	2	2	1	1	1	5	4	0	0	0	0	6	3
071912	12:17:01	10002	DigitSpanFr3mo	Score4Fr3mo	13	DS2	15323	0	111	12:17:01	2549981	4	3	1	1	2	2	1	1	1	5	4	0	0	0	0	6	3
071912	12:17:01	10002	DigitSpanFr3mo	Gate7Fr3mo	13	0	1	0	111	12:17:01	2549996	4	3	1	1	2	2	1	1	1	5	4	0	0	0	0	6	3
071912	12:17:01	10002	DigitSpanFr3mo	Score44Fr3mo	13	DS2	15160	0	111	12:17:01	2572359	4	3	1	1	2	2	1	1	1	5	4	0	0	0	0	6	3
071912	12:17:01	10002	Trial	IncongruentRight	14	0	737	0	111	12:17:01	2621206	4	3	1	1	2	2	1	1	1	5	4	0	0	0	0	6	3
071912	12:17:01	10002	Trial	IncongruentLeft	14	203	558	1	111	12:17:01	2622046	4	3	1	1	2	2	1	1	1	5	4	0	0	0	0	6	3
071912	12:17:01	10002	Trial	CongruentRight	14	205	470	1	111	12:17:01	2622952	4	3	1	1	2	2	1	1	1	5	4	0	0	0	0	6	3
071912	12:17:01	10002	Trial	IncongruentRight	14	205	495	1	111	12:17:01	2623978	4	3	1	1	2	2	1	1	1	5	4	0	0	0	0	6	3
071912	12:17:01	10002	Trial	CongruentLeft	14	0	737	0	111	12:17:01	2625218	4	3	1	1	2	2	1	1	1	5	4	0	0	0	0	6	3
071912	12:17:01	10002	Trial	CongruentRight	14	205	626	1	111	12:17:01	2626124	4	3	1	1	2	2	1	1	1	5	4	0	0	0	0	6	3
071912	12:17:01	10002	Trial	IncongruentRight	14	205	442	1	111	12:17:01	2626937	4	3	1	1	2	2	1	1	1	5	4	0	0	0	0	6	3
071912	12:17:01	10002	Trial	CongruentLeft	14	203	456	1	111	12:17:01	2627977	4	3	1	1	2	2	1	1	1	5	4	0	0	0	0	6	3
071912	12:17:01	10002	Trial	IncongruentLeft	14	203	510	1	111	12:17:01	2629016	4	3	1	1	2	2	1	1	1	5	4	0	0	0	0	6	3
071912	12:17:01	10002	Trial	IncongruentLeft	14	203	422	1	111	12:17:01	2629923	4	3	1	1	2	2	1	1	1	5	4	0	0	0	0	6	3
071912	12:17:01	10002	Trial	CongruentRight	14	205	526	1	111	12:17:01	2631029	4	3	1	1	2	2	1	1	1	5	4	0	0	0	0	6	3
071912	12:17:01	10002	Trial	IncongruentRight	14	205	519	1	111	12:17:01	2632029	4	3	1	1	2	2	1	1	1	5	4	0	0	0	0	6	3
071912	12:17:01	10002	Trial	CongruentLeft	14	203	495	1	111	12:17:01	2633002	4	3	1	1	2	2	1	1	1	5	4	0	0	0	0	6	3
071912	12:17:01	10002	Trial	CongruentRight	14	205	552	1	111	12:17:01	2634054	4	3	1	1	2	2	1	1	1	5	4	0	0	0	0	6	3
071912	12:17:01	10002	Trial	IncongruentLeft	14	203	480	1	111	12:17:01	2634987	4	3	1	1	2	2	1	1	1	5	4	0	0	0	0	6	3
071912	12:17:01	10002	Trial	IncongruentRight	14	205	456	1	111	12:17:01	2635961	4	3	1	1	2	2	1	1	1	5	4	0	0	0	0	6	3
071912	12:17:01	10002	Trial	CongruentRight	14	205	353	1	111	12:17:01	2636853	4	3	1	1	2	2	1	1	1	5	4	0	0	0	0	6	3
071912	12:17:01	10002	Trial	CongruentLeft	14	205	297	0	111	12:17:01	2637800	4	3	1	1	2	2	1	1	1	5	4	0	0	0	0	6	3
071912	12:17:01	10002	Trial	CongruentRight	14	0	737	0	111	12:17:01	2639226	4	3	1	1	2	2	1	1	1	5	4	0	0	0	0	6	3
071912	12:17:01	10002	Trial	IncongruentRight	14	205	634	1	111	12:17:01	2640132	4	3	1	1	2	2	1	1	1	5	4	0	0	0	0	6	3
071912	12:17:01	10002	Trial	IncongruentLeft	14	203	498	1	111	12:17:01	2640998	4	3	1	1	2	2	1	1	1	5	4	0	0	0	0	6	3
071912	12:17:01	10002	Trial	IncongruentLeft	14	203	509	1	111	12:17:01	2642025	4	3	1	1	2	2	1	1	1	5	4	0	0	0	0	6	3
071912	12:17:01	10002	Trial	CongruentLeft	14	203	438	1	111	12:17:01	2642958	4	3	1	1	2	2	1	1	1	5	4	0	0	0	0	6	3
071912	12:17:01	10002	Trial	CongruentRight	14	205	494	1	111	12:17:01	2644011	4	3	1	1	2	2	1	1	1	5	4	0	0	0	0	6	3
071912	12:17:01	10002	Trial	IncongruentLeft	14	203	486	1	111	12:17:01	2644997	4	3	1	1	2	2	1	1	1	5	4	0	0	0	0	6	3
071912	12:17:01	10002	Trial	IncongruentRight	14	205	415	1	111	12:17:01	2645930	4	3	1	1	2	2	1	1	1	5	4	0	0	0	0	6	3
071912	12:17:01	10002	Trial	CongruentRight	14	205	439	1	111	12:17:01	2646956	4	3	1	1	2	2	1	1	1	5	4	0	0	0	0	6	3
071912	12:17:01	10002	Trial	CongruentLeft	14	203	448	1	111	12:17:01	2647956	4	3	1	1	2	2	1	1	1	5	4	0	0	0	0	6	3
071912	12:17:01	10002	Trial	IncongruentRight	14	205	472	1	111	12:17:01	2648982	4	3	1	1	2	2	1	1	1	5	4	0	0	0	0	6	3
071912	12:17:01	10002	Trial	IncongruentLeft	14	203	433	1	111	12:17:01	2649941	4	3	1	1	2	2	1	1	1	5	4	0	0	0	0	6	3
071912	12:17:01	10002	Trial	IncongruentRight	14	205	441	1	111	12:17:01	2650954	4	3	1	1	2	2	1	1	1	5	4	0	0	0	0	6	3
071912	12:17:01	10002	Trial	CongruentRight	14	205	577	1	111	12:17:01	2652087	4	3	1	1	2	2	1	1	1	5	4	0	0	0	0	6	3
071912	12:17:01	10002	Trial	IncongruentLeft	14	203	522	1	111	12:17:01	2653034	4	3	1	1	2	2	1	1	1	5	4	0	0	0	0	6	3
071912	12:17:01	10002	Trial	CongruentLeft	14	203	674	1	111	12:17:01	2654180	4	3	1	1	2	2	1	1	1	5	4	0	0	0	0	6	3
071912	12:17:01	10002	Trial	CongruentRight	14	205	522	1	111	12:17:01	2655033	4	3	1	1	2	2	1	1	1	5	4	0	0	0	0	6	3
071912	12:17:01	10002	Trial	IncongruentLeft	14	203	531	1	111	12:17:01	2656032	4	3	1	1	2	2	1	1	1	5	4	0	0	0	0	6	3
071912	12:17:01	10002	Trial	IncongruentRight	14	205	411	1	111	12:17:01	2656926	4	3	1	1	2	2	1	1	1	5	4	0	0	0	0	6	3
071912	12:17:01	10002	Trial	IncongruentRight	14	205	468	1	111	12:17:01	2657978	4	3	1	1	2	2	1	1	1	5	4	0	0	0	0	6	3
071912	12:17:01	10002	Trial	CongruentLeft	14	203	428	1	111	12:17:01	2658938	4	3	1	1	2	2	1	1	1	5	4	0	0	0	0	6	3
071912	12:17:01	10002	Trial	IncongruentLeft	14	203	580	1	111	12:17:01	2660084	4	3	1	1	2	2	1	1	1	5	4	0	0	0	0	6	3
071912	12:17:01	10002	Trial	CongruentRight	14	205	541	1	111	12:17:01	2661044	4	3	1	1	2	2	1	1	1	5	4	0	0	0	0	6	3
071912	12:17:01	10002	Trial	CongruentLeft	14	203	437	1	111	12:17:01	2661937	4	3	1	1	2	2	1	1	1	5	4	0	0	0	0	6	3
071912	12:17:01	10002	Trial	IncongruentRight	14	205	477	1	111	12:17:01	2662977	4	3	1	1	2	2	1	1	1	5	4	0	0	0	0	6	3
071912	12:17:01	10002	Trial	CongruentRight	14	205	470	1	111	12:17:01	2663976	4	3	1	1	2	2	1	1	1	5	4	0	0	0	0	6	3
071912	12:17:01	10002	Trial	IncongruentLeft	14	203	462	1	111	12:17:01	2664962	4	3	1	1	2	2	1	1	1	5	4	0	0	0	0	6	3
071912	12:17:01	10002	Trial	CongruentLeft	14	203	519	1	111	12:17:01	2666029	4	3	1	1	2	2	1	1	1	5	4	0	0	0	0	6	3
071912	12:17:01	10002	Trial	IncongruentLeft	14	203	527	1	111	12:17:01	2667028	4	3	1	1	2	2	1	1	1	5	4	0	0	0	0	6	3
071912	12:17:01	10002	Trial	IncongruentRight	14	205	504	1	111	12:17:01	2668001	4	3	1	1	2	2	1	1	1	5	4	0	0	0	0	6	3
071912	12:17:01	10002	Trial	CongruentRight	14	205	435	1	111	12:17:01	2668948	4	3	1	1	2	2	1	1	1	5	4	0	0	0	0	6	3
071912	12:17:01	10002	Trial	CongruentLeft	14	203	456	1	111	12:17:01	2669960	4	3	1	1	2	2	1	1	1	5	4	0	0	0	0	6	3
071912	12:17:01	10002	Trial	CongruentLeft	14	203	480	1	111	12:17:01	2670987	4	3	1	1	2	2	1	1	1	5	4	0	0	0	0	6	3
071912	12:17:01	10002	Trial	IncongruentRight	14	205	457	1	111	12:17:01	2671960	4	3	1	1	2	2	1	1	1	5	4	0	0	0	0	6	3
071912	12:17:01	10002	Trial	IncongruentLeft	14	203	548	1	111	12:17:01	2673066	4	3	1	1	2	2	1	1	1	5	4	0	0	0	0	6	3
071912	12:17:01	10002	Trial	IncongruentRight	14	205	381	1	111	12:17:01	2673892	4	3	1	1	2	2	1	1	1	5	4	0	0	0	0	6	3
071912	12:17:01	10002	Trial	CongruentRight	14	205	613	1	111	12:17:01	2675132	4	3	1	1	2	2	1	1	1	5	4	0	0	0	0	6	3
071912	12:17:01	10002	Trial	CongruentRight	14	205	525	1	111	12:17:01	2676038	4	3	1	1	2	2	1	1	1	5	4	0	0	0	0	6	3
071912	12:17:01	10002	Trial	IncongruentLeft	14	203	438	1	111	12:17:01	2676944	4	3	1	1	2	2	1	1	1	5	4	0	0	0	0	6	3
071912	12:17:01	10002	Trial	CongruentLeft	14	203	478	1	111	12:17:01	2677997	4	3	1	1	2	2	1	1	1	5	4	0	0	0	0	6	3
071912	12:17:01	10002	Trial	CongruentRight	14	205	470	1	111	12:17:01	2678983	4	3	1	1	2	2	1	1	1	5	4	0	0	0	0	6	3
071912	12:17:01	10002	Trial	CongruentLeft	14	203	495	1	111	12:17:01	2680010	4	3	1	1	2	2	1	1	1	5	4	0	0	0	0	6	3
071912	12:17:01	10002	Trial	IncongruentRight	14	205	423	1	111	12:17:01	2680929	4	3	1	1	2	2	1	1	1	5	4	0	0	0	0	6	3
071912	12:17:01	10002	Trial	CongruentRight	14	205	432	1	111	12:17:01	2681942	4	3	1	1	2	2	1	1	1	5	4	0	0	0	0	6	3
071912	12:17:01	10002	Trial	CongruentLeft	14	203	440	1	111	12:17:01	2682955	4	3	1	1	2	2	1	1	1	5	4	0	0	0	0	6	3
071912	12:17:01	10002	Trial	IncongruentLeft	14	203	480	1	111	12:17:01	2683995	4	3	1	1	2	2	1	1	1	5	4	0	0	0	0	6	3
071912	12:17:01	10002	Trial	IncongruentLeft	14	203	424	1	111	12:17:01	2684941	4	3	1	1	2	2	1	1	1	5	4	0	0	0	0	6	3
071912	12:17:01	10002	Trial	CongruentRight	14	205	465	1	111	12:17:01	2685981	4	3	1	1	2	2	1	1	1	5	4	0	0	0	0	6	3
071912	12:17:01	10002	Trial	IncongruentRight	14	205	521	1	111	12:17:01	2687034	4	3	1	1	2	2	1	1	1	5	4	0	0	0	0	6	3
071912	12:17:01	10002	Trial	CongruentLeft	14	203	530	1	111	12:17:01	2688033	4	3	1	1	2	2	1	1	1	5	4	0	0	0	0	6	3
071912	12:17:01	10002	Trial	IncongruentRight	14	205	538	1	111	12:17:01	2689046	4	3	1	1	2	2	1	1	1	5	4	0	0	0	0	6	3
071912	12:17:01	10002	Trial	CongruentRight	14	205	466	1	111	12:17:01	2689979	4	3	1	1	2	2	1	1	1	5	4	0	0	0	0	6	3
071912	12:17:01	10002	Trial	IncongruentLeft	14	203	475	1	111	12:17:01	2690979	4	3	1	1	2	2	1	1	1	5	4	0	0	0	0	6	3
071912	12:17:01	10002	Trial	CongruentLeft	14	203	531	1	111	12:17:01	2692045	4	3	1	1	2	2	1	1	1	5	4	0	0	0	0	6	3
071912	12:17:01	10002	Trial	CongruentRight	14	205	444	1	111	12:17:01	2692951	4	3	1	1	2	2	1	1	1	5	4	0	0	0	0	6	3
071912	12:17:01	10002	Trial	IncongruentLeft	14	203	564	1	111	12:17:01	2694071	4	3	1	1	2	2	1	1	1	5	4	0	0	0	0	6	3
071912	12:17:01	10002	Trial	CongruentRight	14	205	508	1	111	12:17:01	2695017	4	3	1	1	2	2	1	1	1	5	4	0	0	0	0	6	3
071912	12:17:01	10002	Trial	CongruentRight	14	205	485	1	111	12:17:01	2695990	4	3	1	1	2	2	1	1	1	5	4	0	0	0	0	6	3
071912	12:17:01	10002	Trial	IncongruentRight	14	205	445	1	111	12:17:01	2696950	4	3	1	1	2	2	1	1	1	5	4	0	0	0	0	6	3
071912	12:17:01	10002	Trial	CongruentLeft	14	203	437	1	111	12:17:01	2697936	4	3	1	1	2	2	1	1	1	5	4	0	0	0	0	6	3
071912	12:17:01	10002	Trial	IncongruentLeft	14	203	366	1	111	12:17:01	2698869	4	3	1	1	2	2	1	1	1	5	4	0	0	0	0	6	3
071912	12:17:01	10002	Trial	CongruentLeft	14	203	422	1	111	12:17:01	2699922	4	3	1	1	2	2	1	1	1	5	4	0	0	0	0	6	3
071912	12:17:01	10002	Trial	IncongruentRight	14	205	703	1	111	12:17:01	2701202	4	3	1	1	2	2	1	1	1	5	4	0	0	0	0	6	3
071912	12:17:01	10002	Trial	IncongruentLeft	14	203	551	1	111	12:17:01	2702054	4	3	1	1	2	2	1	1	1	5	4	0	0	0	0	6	3
071912	12:17:01	10002	Trial	CongruentRight	14	205	559	1	111	12:17:01	2703067	4	3	1	1	2	2	1	1	1	5	4	0	0	0	0	6	3
071912	12:17:01	10002	Trial	CongruentLeft	14	203	488	1	111	12:17:01	2703987	4	3	1	1	2	2	1	1	1	5	4	0	0	0	0	6	3
071912	12:17:01	10002	Trial	IncongruentLeft	14	203	496	1	111	12:17:01	2705000	4	3	1	1	2	2	1	1	1	5	4	0	0	0	0	6	3
071912	12:17:01	10002	Trial	CongruentLeft	14	203	443	1	111	12:17:01	2705960	4	3	1	1	2	2	1	1	1	5	4	0	0	0	0	6	3
071912	12:17:01	10002	Trial	IncongruentRight	14	205	451	1	111	12:17:01	2706972	4	3	1	1	2	2	1	1	1	5	4	0	0	0	0	6	3
071912	12:17:01	10002	Trial	CongruentRight	14	205	332	1	111	12:17:01	2707852	4	3	1	1	2	2	1	1	1	5	4	0	0	0	0	6	3
071912	12:17:01	10002	Trial	IncongruentLeft	14	203	532	1	111	12:17:01	2709052	4	3	1	1	2	2	1	1	1	5	4	0	0	0	0	6	3
071912	12:17:01	10002	Trial	CongruentLeft	14	203	508	1	111	12:17:01	2710025	4	3	1	1	2	2	1	1	1	5	4	0	0	0	0	6	3
071912	12:17:01	10002	Trial	IncongruentRight	14	205	565	1	111	12:17:01	2711078	4	3	1	1	2	2	1	1	1	5	4	0	0	0	0	6	3
071912	12:17:01	10002	Trial	IncongruentLeft	14	203	446	1	111	12:17:01	2711957	4	3	1	1	2	2	1	1	1	5	4	0	0	0	0	6	3
071912	12:17:01	10002	Trial	CongruentLeft	14	203	470	1	111	12:17:01	2712983	4	3	1	1	2	2	1	1	1	5	4	0	0	0	0	6	3
071912	12:17:01	10002	Trial	IncongruentLeft	14	203	478	1	111	12:17:01	2713996	4	3	1	1	2	2	1	1	1	5	4	0	0	0	0	6	3
071912	12:17:01	10002	Trial	CongruentRight	14	205	551	1	111	12:17:01	2715063	4	3	1	1	2	2	1	1	1	5	4	0	0	0	0	6	3
071912	12:17:01	10002	Trial	CongruentLeft	14	203	607	1	111	12:17:01	2716116	4	3	1	1	2	2	1	1	1	5	4	0	0	0	0	6	3
071912	12:17:01	10002	Trial	IncongruentRight	14	205	472	1	111	12:17:01	2716982	4	3	1	1	2	2	1	1	1	5	4	0	0	0	0	6	3
071912	12:17:01	10002	Trial	CongruentLeft	14	203	496	1	111	12:17:01	2718008	4	3	1	1	2	2	1	1	1	5	4	0	0	0	0	6	3
071912	12:17:01	10002	Trial	CongruentRight	14	205	472	1	111	12:17:01	2718981	4	3	1	1	2	2	1	1	1	5	4	0	0	0	0	6	3
071912	12:17:01	10002	Trial	IncongruentLeft	14	203	368	1	111	12:17:01	2719874	4	3	1	1	2	2	1	1	1	5	4	0	0	0	0	6	3
071912	12:17:01	10002	Trial750Fr	IncongruentRight750	15	0	487	0	111	12:17:01	2728297	4	3	1	1	2	2	1	1	1	5	4	0	0	0	0	6	3
071912	12:17:01	10002	Trial750Fr	IncongruentLeft750	15	203	425	1	111	12:17:01	2729004	4	3	1	1	2	2	1	1	1	5	4	0	0	0	0	6	3
071912	12:17:01	10002	Trial750Fr	CongruentRight750	15	205	337	1	111	12:17:01	2729670	4	3	1	1	2	2	1	1	1	5	4	0	0	0	0	6	3
071912	12:17:01	10002	Trial750Fr	IncongruentRight750	15	203	455	0	111	12:17:01	2730537	4	3	1	1	2	2	1	1	1	5	4	0	0	0	0	6	3
071912	12:17:01	10002	Trial750Fr	CongruentLeft750	15	0	487	0	111	12:17:01	2731310	4	3	1	1	2	2	1	1	1	5	4	0	0	0	0	6	3
071912	12:17:01	10002	Trial750Fr	CongruentRight750	15	205	437	1	111	12:17:01	2732016	4	3	1	1	2	2	1	1	1	5	4	0	0	0	0	6	3
071912	12:17:01	10002	Trial750Fr	IncongruentRight750	15	0	487	0	111	12:17:01	2732816	4	3	1	1	2	2	1	1	1	5	4	0	0	0	0	6	3
071912	12:17:01	10002	Trial750Fr	CongruentLeft750	15	205	131	0	111	12:17:01	2733215	4	3	1	1	2	2	1	1	1	5	4	0	0	0	0	6	3
071912	12:17:01	10002	Trial750Fr	IncongruentLeft750	15	0	487	0	111	12:17:01	2734322	4	3	1	1	2	2	1	1	1	5	4	0	0	0	0	6	3
071912	12:17:01	10002	Trial750Fr	IncongruentLeft750	15	203	481	1	111	12:17:01	2735081	4	3	1	1	2	2	1	1	1	5	4	0	0	0	0	6	3
071912	12:17:01	10002	Trial750Fr	CongruentRight750	15	205	409	1	111	12:17:01	2735761	4	3	1	1	2	2	1	1	1	5	4	0	0	0	0	6	3
071912	12:17:01	10002	Trial750Fr	IncongruentRight750	15	0	487	0	111	12:17:01	2736587	4	3	1	1	2	2	1	1	1	5	4	0	0	0	0	6	3
071912	12:17:01	10002	Trial750Fr	CongruentLeft750	15	203	423	1	111	12:17:01	2737281	4	3	1	1	2	2	1	1	1	5	4	0	0	0	0	6	3
071912	12:17:01	10002	Trial750Fr	CongruentRight750	15	205	399	1	111	12:17:01	2738027	4	3	1	1	2	2	1	1	1	5	4	0	0	0	0	6	3
071912	12:17:01	10002	Trial750Fr	IncongruentLeft750	15	203	453	1	111	12:17:01	2738827	4	3	1	1	2	2	1	1	1	5	4	0	0	0	0	6	3
071912	12:17:01	10002	Trial750Fr	IncongruentRight750	15	205	426	1	111	12:17:01	2739546	4	3	1	1	2	2	1	1	1	5	4	0	0	0	0	6	3
071912	12:17:01	10002	Trial750Fr	CongruentRight750	15	205	435	1	111	12:17:01	2740306	4	3	1	1	2	2	1	1	1	5	4	0	0	0	0	6	3
071912	12:17:01	10002	Trial750Fr	CongruentLeft750	15	0	487	0	111	12:17:01	2741092	4	3	1	1	2	2	1	1	1	5	4	0	0	0	0	6	3
071912	12:17:01	10002	Trial750Fr	CongruentRight750	15	205	430	1	111	12:17:01	2741799	4	3	1	1	2	2	1	1	1	5	4	0	0	0	0	6	3
071912	12:17:01	10002	Trial750Fr	IncongruentRight750	15	0	487	0	111	12:17:01	2742598	4	3	1	1	2	2	1	1	1	5	4	0	0	0	0	6	3
071912	12:17:01	10002	Trial750Fr	IncongruentLeft750	15	203	460	1	111	12:17:01	2743332	4	3	1	1	2	2	1	1	1	5	4	0	0	0	0	6	3
071912	12:17:01	10002	Trial750Fr	IncongruentLeft750	15	0	487	0	111	12:17:01	2744105	4	3	1	1	2	2	1	1	1	5	4	0	0	0	0	6	3
071912	12:17:01	10002	Trial750Fr	CongruentLeft750	15	203	474	1	111	12:17:01	2744851	4	3	1	1	2	2	1	1	1	5	4	0	0	0	0	6	3
071912	12:17:01	10002	Trial750Fr	CongruentRight750	15	205	386	1	111	12:17:01	2745531	4	3	1	1	2	2	1	1	1	5	4	0	0	0	0	6	3
071912	12:17:01	10002	Trial750Fr	IncongruentLeft750	15	203	440	1	111	12:17:01	2746330	4	3	1	1	2	2	1	1	1	5	4	0	0	0	0	6	3
071912	12:17:01	10002	Trial750Fr	IncongruentRight750	15	205	429	1	111	12:17:01	2747063	4	3	1	1	2	2	1	1	1	5	4	0	0	0	0	6	3
071912	12:17:01	10002	Trial750Fr	CongruentRight750	15	205	470	1	111	12:17:01	2747863	4	3	1	1	2	2	1	1	1	5	4	0	0	0	0	6	3
071912	12:17:01	10002	Trial750Fr	CongruentLeft750	15	203	459	1	111	12:17:01	2748596	4	3	1	1	2	2	1	1	1	5	4	0	0	0	0	6	3
071912	12:17:01	10002	Trial750Fr	IncongruentRight750	15	205	419	1	111	12:17:01	2749316	4	3	1	1	2	2	1	1	1	5	4	0	0	0	0	6	3
071912	12:17:01	10002	Trial750Fr	IncongruentLeft750	15	203	457	1	111	12:17:01	2750102	4	3	1	1	2	2	1	1	1	5	4	0	0	0	0	6	3
071912	12:17:01	10002	Trial750Fr	IncongruentRight750	15	205	479	1	111	12:17:01	2750875	4	3	1	1	2	2	1	1	1	5	4	0	0	0	0	6	3
071912	12:17:01	10002	Trial750Fr	CongruentRight750	15	205	455	1	111	12:17:01	2751608	4	3	1	1	2	2	1	1	1	5	4	0	0	0	0	6	3
071912	12:17:01	10002	Trial750Fr	IncongruentLeft750	15	203	447	1	111	12:17:01	2752355	4	3	1	1	2	2	1	1	1	5	4	0	0	0	0	6	3
071912	12:17:01	10002	Trial750Fr	CongruentLeft750	15	205	405	0	111	12:17:01	2753061	4	3	1	1	2	2	1	1	1	5	4	0	0	0	0	6	3
071912	12:17:01	10002	Trial750Fr	CongruentRight750	15	205	443	1	111	12:17:01	2753847	4	3	1	1	2	2	1	1	1	5	4	0	0	0	0	6	3
071912	12:17:01	10002	Trial750Fr	IncongruentLeft750	15	0	487	0	111	12:17:01	2754634	4	3	1	1	2	2	1	1	1	5	4	0	0	0	0	6	3
071912	12:17:01	10002	Trial750Fr	IncongruentRight750	15	0	487	0	111	12:17:01	2755393	4	3	1	1	2	2	1	1	1	5	4	0	0	0	0	6	3
071912	12:17:01	10002	Trial750Fr	IncongruentRight750	15	0	487	0	111	12:17:01	2756153	4	3	1	1	2	2	1	1	1	5	4	0	0	0	0	6	3
071912	12:17:01	10002	Trial750Fr	CongruentLeft750	15	0	487	0	111	12:17:01	2756913	4	3	1	1	2	2	1	1	1	5	4	0	0	0	0	6	3
071912	12:17:01	10002	Trial750Fr	IncongruentLeft750	15	0	487	0	111	12:17:01	2757673	4	3	1	1	2	2	1	1	1	5	4	0	0	0	0	6	3
071912	12:17:01	10002	Trial750Fr	CongruentRight750	15	0	487	0	111	12:17:01	2758432	4	3	1	1	2	2	1	1	1	5	4	0	0	0	0	6	3
071912	12:17:01	10002	Trial750Fr	CongruentLeft750	15	203	450	1	111	12:17:01	2759152	4	3	1	1	2	2	1	1	1	5	4	0	0	0	0	6	3
071912	12:17:01	10002	Trial750Fr	IncongruentRight750	15	205	458	1	111	12:17:01	2759925	4	3	1	1	2	2	1	1	1	5	4	0	0	0	0	6	3
071912	12:17:01	10002	Trial750Fr	CongruentRight750	15	0	487	0	111	12:17:01	2760698	4	3	1	1	2	2	1	1	1	5	4	0	0	0	0	6	3
071912	12:17:01	10002	Trial750Fr	IncongruentLeft750	15	0	487	0	111	12:17:01	2761458	4	3	1	1	2	2	1	1	1	5	4	0	0	0	0	6	3
071912	12:17:01	10002	Trial750Fr	CongruentLeft750	15	0	487	0	111	12:17:01	2762217	4	3	1	1	2	2	1	1	1	5	4	0	0	0	0	6	3
071912	12:17:01	10002	Trial750Fr	IncongruentLeft750	15	0	487	0	111	12:17:01	2762977	4	3	1	1	2	2	1	1	1	5	4	0	0	0	0	6	3
071912	12:17:01	10002	Trial750Fr	IncongruentRight750	15	203	257	0	111	12:17:01	2763510	4	3	1	1	2	2	1	1	1	5	4	0	0	0	0	6	3
071912	12:17:01	10002	Trial750Fr	CongruentRight750	15	0	487	0	111	12:17:01	2764483	4	3	1	1	2	2	1	1	1	5	4	0	0	0	0	6	3
071912	12:17:01	10002	Trial750Fr	CongruentLeft750	15	0	487	0	111	12:17:01	2765243	4	3	1	1	2	2	1	1	1	5	4	0	0	0	0	6	3
071912	12:17:01	10002	Trial750Fr	CongruentLeft750	15	0	487	0	111	12:17:01	2766003	4	3	1	1	2	2	1	1	1	5	4	0	0	0	0	6	3
071912	12:17:01	10002	Trial750Fr	IncongruentRight750	15	205	448	1	111	12:17:01	2766722	4	3	1	1	2	2	1	1	1	5	4	0	0	0	0	6	3
071912	12:17:01	10002	Trial750Fr	IncongruentLeft750	15	203	376	1	111	12:17:01	2767415	4	3	1	1	2	2	1	1	1	5	4	0	0	0	0	6	3
071912	12:17:01	10002	Trial750Fr	IncongruentRight750	15	205	381	1	111	12:17:01	2768162	4	3	1	1	2	2	1	1	1	5	4	0	0	0	0	6	3
071912	12:17:01	10002	Trial750Fr	CongruentRight750	15	0	487	0	111	12:17:01	2769015	4	3	1	1	2	2	1	1	1	5	4	0	0	0	0	6	3
071912	12:17:01	10002	Trial750Fr	CongruentRight750	15	0	487	0	111	12:17:01	2769774	4	3	1	1	2	2	1	1	1	5	4	0	0	0	0	6	3
071912	12:17:01	10002	Trial750Fr	IncongruentLeft750	15	0	487	0	111	12:17:01	2770534	4	3	1	1	2	2	1	1	1	5	4	0	0	0	0	6	3
071912	12:17:01	10002	Trial750Fr	CongruentLeft750	15	203	460	1	111	12:17:01	2771267	4	3	1	1	2	2	1	1	1	5	4	0	0	0	0	6	3
071912	12:17:01	10002	Trial750Fr	CongruentRight750	15	0	487	0	111	12:17:01	2772040	4	3	1	1	2	2	1	1	1	5	4	0	0	0	0	6	3
071912	12:17:01	10002	Trial750Fr	CongruentLeft750	15	0	487	0	111	12:17:01	2772800	4	3	1	1	2	2	1	1	1	5	4	0	0	0	0	6	3
071912	12:17:01	10002	Trial750Fr	IncongruentRight750	15	205	450	1	111	12:17:01	2773519	4	3	1	1	2	2	1	1	1	5	4	0	0	0	0	6	3
071912	12:17:01	10002	Trial750Fr	CongruentRight750	15	0	487	0	111	12:17:01	2774306	4	3	1	1	2	2	1	1	1	5	4	0	0	0	0	6	3
071912	12:17:01	10002	Trial750Fr	CongruentLeft750	15	0	487	0	111	12:17:01	2775066	4	3	1	1	2	2	1	1	1	5	4	0	0	0	0	6	3
071912	12:17:01	10002	Trial750Fr	IncongruentLeft750	15	0	487	0	111	12:17:01	2775825	4	3	1	1	2	2	1	1	1	5	4	0	0	0	0	6	3
071912	12:17:01	10002	Trial750Fr	IncongruentLeft750	15	0	487	0	111	12:17:01	2776585	4	3	1	1	2	2	1	1	1	5	4	0	0	0	0	6	3
071912	12:17:01	10002	Trial750Fr	CongruentRight750	15	205	408	1	111	12:17:01	2777265	4	3	1	1	2	2	1	1	1	5	4	0	0	0	0	6	3
071912	12:17:01	10002	Trial750Fr	IncongruentRight750	15	0	487	0	111	12:17:01	2778091	4	3	1	1	2	2	1	1	1	5	4	0	0	0	0	6	3
071912	12:17:01	10002	Trial750Fr	CongruentLeft750	15	0	487	0	111	12:17:01	2778851	4	3	1	1	2	2	1	1	1	5	4	0	0	0	0	6	3
071912	12:17:01	10002	Trial750Fr	IncongruentRight750	15	0	487	0	111	12:17:01	2779611	4	3	1	1	2	2	1	1	1	5	4	0	0	0	0	6	3
071912	12:17:01	10002	Trial750Fr	CongruentRight750	15	0	487	0	111	12:17:01	2780370	4	3	1	1	2	2	1	1	1	5	4	0	0	0	0	6	3
071912	12:17:01	10002	Trial750Fr	IncongruentLeft750	15	0	487	0	111	12:17:01	2781130	4	3	1	1	2	2	1	1	1	5	4	0	0	0	0	6	3
071912	12:17:01	10002	Trial750Fr	CongruentLeft750	15	0	487	0	111	12:17:01	2781890	4	3	1	1	2	2	1	1	1	5	4	0	0	0	0	6	3
071912	12:17:01	10002	Trial750Fr	CongruentRight750	15	205	448	1	111	12:17:01	2782609	4	3	1	1	2	2	1	1	1	5	4	0	0	0	0	6	3
071912	12:17:01	10002	Trial750Fr	IncongruentLeft750	15	203	424	1	111	12:17:01	2783356	4	3	1	1	2	2	1	1	1	5	4	0	0	0	0	6	3
071912	12:17:01	10002	Trial750Fr	CongruentRight750	15	205	382	1	111	12:17:01	2784049	4	3	1	1	2	2	1	1	1	5	4	0	0	0	0	6	3
071912	12:17:01	10002	Trial750Fr	CongruentRight750	15	205	436	1	111	12:17:01	2784849	4	3	1	1	2	2	1	1	1	5	4	0	0	0	0	6	3
071912	12:17:01	10002	Trial750Fr	IncongruentRight750	15	0	487	0	111	12:17:01	2785648	4	3	1	1	2	2	1	1	1	5	4	0	0	0	0	6	3
071912	12:17:01	10002	Trial750Fr	CongruentLeft750	15	0	487	0	111	12:17:01	2786408	4	3	1	1	2	2	1	1	1	5	4	0	0	0	0	6	3
071912	12:17:01	10002	Trial750Fr	IncongruentLeft750	15	0	487	0	111	12:17:01	2787168	4	3	1	1	2	2	1	1	1	5	4	0	0	0	0	6	3
071912	12:17:01	10002	Trial750Fr	CongruentLeft750	15	0	487	0	111	12:17:01	2787927	4	3	1	1	2	2	1	1	1	5	4	0	0	0	0	6	3
071912	12:17:01	10002	Trial750Fr	IncongruentRight750	15	203	299	0	111	12:17:01	2788500	4	3	1	1	2	2	1	1	1	5	4	0	0	0	0	6	3
071912	12:17:01	10002	Trial750Fr	IncongruentLeft750	15	0	487	0	111	12:17:01	2789434	4	3	1	1	2	2	1	1	1	5	4	0	0	0	0	6	3
071912	12:17:01	10002	Trial750Fr	CongruentRight750	15	0	487	0	111	12:17:01	2790193	4	3	1	1	2	2	1	1	1	5	4	0	0	0	0	6	3
071912	12:17:01	10002	Trial750Fr	CongruentLeft750	15	0	487	0	111	12:17:01	2790953	4	3	1	1	2	2	1	1	1	5	4	0	0	0	0	6	3
071912	12:17:01	10002	Trial750Fr	IncongruentLeft750	15	0	487	0	111	12:17:01	2791713	4	3	1	1	2	2	1	1	1	5	4	0	0	0	0	6	3
071912	12:17:01	10002	Trial750Fr	CongruentLeft750	15	203	321	1	111	12:17:01	2792312	4	3	1	1	2	2	1	1	1	5	4	0	0	0	0	6	3
071912	12:17:01	10002	Trial750Fr	IncongruentRight750	15	205	442	1	111	12:17:01	2793192	4	3	1	1	2	2	1	1	1	5	4	0	0	0	0	6	3
071912	12:17:01	10002	Trial750Fr	CongruentRight750	15	205	399	1	111	12:17:01	2793898	4	3	1	1	2	2	1	1	1	5	4	0	0	0	0	6	3
071912	12:17:01	10002	Trial750Fr	IncongruentLeft750	15	203	469	1	111	12:17:01	2794711	4	3	1	1	2	2	1	1	1	5	4	0	0	0	0	6	3
071912	12:17:01	10002	Trial750Fr	CongruentLeft750	15	0	487	0	111	12:17:01	2795471	4	3	1	1	2	2	1	1	1	5	4	0	0	0	0	6	3
071912	12:17:01	10002	Trial750Fr	IncongruentRight750	15	203	35	0	111	12:17:01	2795777	4	3	1	1	2	2	1	1	1	5	4	0	0	0	0	6	3
071912	12:17:01	10002	Trial750Fr	IncongruentLeft750	15	0	487	0	111	12:17:01	2796977	4	3	1	1	2	2	1	1	1	5	4	0	0	0	0	6	3
071912	12:17:01	10002	Trial750Fr	CongruentLeft750	15	0	487	0	111	12:17:01	2797737	4	3	1	1	2	2	1	1	1	5	4	0	0	0	0	6	3
071912	12:17:01	10002	Trial750Fr	IncongruentLeft750	15	0	487	0	111	12:17:01	2798497	4	3	1	1	2	2	1	1	1	5	4	0	0	0	0	6	3
071912	12:17:01	10002	Trial750Fr	CongruentRight750	15	205	465	1	111	12:17:01	2799243	4	3	1	1	2	2	1	1	1	5	4	0	0	0	0	6	3
071912	12:17:01	10002	Trial750Fr	CongruentLeft750	15	203	457	1	111	12:17:01	2799989	4	3	1	1	2	2	1	1	1	5	4	0	0	0	0	6	3
071912	12:17:01	10002	Trial750Fr	IncongruentRight750	15	205	351	1	111	12:17:01	2800629	4	3	1	1	2	2	1	1	1	5	4	0	0	0	0	6	3
071912	12:17:01	10002	Trial750Fr	CongruentLeft750	15	203	453	1	111	12:17:01	2801482	4	3	1	1	2	2	1	1	1	5	4	0	0	0	0	6	3
071912	12:17:01	10002	Trial750Fr	CongruentRight750	15	205	397	1	111	12:17:01	2802175	4	3	1	1	2	2	1	1	1	5	4	0	0	0	0	6	3
071912	12:17:01	10002	Trial750Fr	IncongruentLeft750	15	203	355	1	111	12:17:01	2802881	4	3	1	1	2	2	1	1	1	5	4	0	0	0	0	6	3
071912	12:17:01	10002	WordsAbsFr3mo	PAbsFr3mo1	16	Abs1	6303	0	111	12:17:01	2820394	4	3	1	1	2	2	1	1	1	5	4	0	0	0	0	6	3
071912	12:17:01	10002	WordsAbsFr3mo	AbsFr3mo1	16	Abs1	6759	0	111	12:17:01	2827192	4	3	1	1	2	2	1	1	1	5	4	1	0	0	0	6	3
071912	12:17:01	10002	WordsAbsFr3mo	AbsFr3mo2	16	Abs1	19786	0	111	12:17:01	2847011	4	3	1	1	2	2	1	1	1	5	4	2	0	0	0	6	3
071912	12:17:01	10002	WordsAbsFr3mo	AbsFr3mo3	16	Abs1	33318	0	111	12:17:01	2880371	4	3	1	1	2	2	1	1	1	5	4	3	0	0	0	6	3
071912	12:17:01	10002	Trial2BackFrS	NS	17	0	1000	1	111	12:17:01	2930924	4	3	1	1	2	2	1	1	1	5	4	3	0	0	0	6	3
071912	12:17:01	10002	Trial2BackFrS	NS	17	0	1000	1	111	12:17:01	2932444	4	3	1	1	2	2	1	1	1	5	4	3	0	0	0	6	3
071912	12:17:01	10002	Trial2BackFrS	NS	17	0	1000	1	111	12:17:01	2933963	4	3	1	1	2	2	1	1	1	5	4	3	0	0	0	6	3
071912	12:17:01	10002	Trial2BackFrS	YS	17	0	1000	0	111	12:17:01	2935482	4	3	1	1	2	2	1	1	1	5	4	3	0	0	0	6	3
071912	12:17:01	10002	Trial2BackFrS	NS	17	0	1000	1	111	12:17:01	2937002	4	3	1	1	2	2	1	1	1	5	4	3	0	0	0	6	3
071912	12:17:01	10002	Trial2BackFrS	NS	17	0	1000	1	111	12:17:01	2938521	4	3	1	1	2	2	1	1	1	5	4	3	0	0	0	6	3
071912	12:17:01	10002	Trial2BackFrS	NS	17	0	1000	1	111	12:17:01	2940041	4	3	1	1	2	2	1	1	1	5	4	3	0	0	0	6	3
071912	12:17:01	10002	Trial2BackFrS	NS	17	57	747	0	111	12:17:01	2941320	4	3	1	1	2	2	1	1	1	5	4	3	0	0	0	6	3
071912	12:17:01	10002	Trial2BackFrS	YS	17	0	1000	0	111	12:17:01	2943066	4	3	1	1	2	2	1	1	1	5	4	3	0	0	0	6	3
071912	12:17:01	10002	Trial2BackFrS	NS	17	0	1000	1	111	12:17:01	2944586	4	3	1	1	2	2	1	1	1	5	4	3	0	0	0	6	3
071912	12:17:01	10002	Trial2BackFrS	NS	17	0	1000	1	111	12:17:01	2946105	4	3	1	1	2	2	1	1	1	5	4	3	0	0	0	6	3
071912	12:17:01	10002	Trial2BackFrS	YS	17	0	1000	0	111	12:17:01	2947624	4	3	1	1	2	2	1	1	1	5	4	3	0	0	0	6	3
071912	12:17:01	10002	Trial2BackFrS	NS	17	0	1000	1	111	12:17:01	2949144	4	3	1	1	2	2	1	1	1	5	4	3	0	0	0	6	3
071912	12:17:01	10002	Trial2BackFrS	NS	17	0	1000	1	111	12:17:01	2950663	4	3	1	1	2	2	1	1	1	5	4	3	0	0	0	6	3
071912	12:17:01	10002	Trial2BackFrS	NS	17	0	1000	1	111	12:17:01	2952183	4	3	1	1	2	2	1	1	1	5	4	3	0	0	0	6	3
071912	12:17:01	10002	Trial2BackFrS	YS	17	0	1000	0	111	12:17:01	2953702	4	3	1	1	2	2	1	1	1	5	4	3	0	0	0	6	3
071912	12:17:01	10002	Trial2BackFrS	NS	17	0	1000	1	111	12:17:01	2955221	4	3	1	1	2	2	1	1	1	5	4	3	0	0	0	6	3
071912	12:17:01	10002	Trial2BackFrS	NS	17	0	1000	1	111	12:17:01	2956741	4	3	1	1	2	2	1	1	1	5	4	3	0	0	0	6	3
071912	12:17:01	10002	Trial2BackFrS	NS	17	0	1000	1	111	12:17:01	2958260	4	3	1	1	2	2	1	1	1	5	4	3	0	0	0	6	3
071912	12:17:01	10002	Trial2BackFrS	NS	17	0	1000	1	111	12:17:01	2959780	4	3	1	1	2	2	1	1	1	5	4	3	0	0	0	6	3
071912	12:17:01	10002	Trial2BackFrS	YS	17	57	960	1	111	12:17:01	2961272	4	3	1	1	2	2	1	1	1	5	4	3	0	0	0	6	3
071912	12:17:01	10002	Trial2BackFrS	NS	17	0	1000	1	111	12:17:01	2962805	4	3	1	1	2	2	1	1	1	5	4	3	0	0	0	6	3
071912	12:17:01	10002	Trial2BackFrS	NS	17	0	1000	1	111	12:17:01	2964325	4	3	1	1	2	2	1	1	1	5	4	3	0	0	0	6	3
071912	12:17:01	10002	Trial2BackFrS	NS	17	0	1000	1	111	12:17:01	2965844	4	3	1	1	2	2	1	1	1	5	4	3	0	0	0	6	3
071912	12:17:01	10002	Trial2BackFrS	NS	17	57	640	0	111	12:17:01	2967017	4	3	1	1	2	2	1	1	1	5	4	3	0	0	0	6	3
071912	12:17:01	10002	Trial2BackFrS	NS	17	0	1000	1	111	12:17:01	2968869	4	3	1	1	2	2	1	1	1	5	4	3	0	0	0	6	3
071912	12:17:01	10002	Trial2BackFrS	NS	17	0	1000	1	111	12:17:01	2970389	4	3	1	1	2	2	1	1	1	5	4	3	0	0	0	6	3
071912	12:17:01	10002	Trial2BackFrS	NS	17	0	1000	1	111	12:17:01	2971908	4	3	1	1	2	2	1	1	1	5	4	3	0	0	0	6	3
071912	12:17:01	10002	Trial2BackFrS	NS	17	0	1000	1	111	12:17:01	2973427	4	3	1	1	2	2	1	1	1	5	4	3	0	0	0	6	3
071912	12:17:01	10002	Trial2BackFrS	NS	17	0	1000	1	111	12:17:01	2974947	4	3	1	1	2	2	1	1	1	5	4	3	0	0	0	6	3
071912	12:17:01	10002	Trial2BackFrS	NS	17	0	1000	1	111	12:17:01	2976466	4	3	1	1	2	2	1	1	1	5	4	3	0	0	0	6	3
071912	12:17:01	10002	Trial2BackFrS	YS	17	57	449	1	111	12:17:01	2977439	4	3	1	1	2	2	1	1	1	5	4	3	0	0	0	6	3
071912	12:17:01	10002	Trial2BackFrS	NS	17	0	1000	1	111	12:17:01	2979492	4	3	1	1	2	2	1	1	1	5	4	3	0	0	0	6	3
071912	12:17:01	10002	Trial2BackFrS	NS	17	0	1000	1	111	12:17:01	2981011	4	3	1	1	2	2	1	1	1	5	4	3	0	0	0	6	3
071912	12:17:01	10002	Trial2BackFrS	NS	17	0	1000	1	111	12:17:01	2982531	4	3	1	1	2	2	1	1	1	5	4	3	0	0	0	6	3
071912	12:17:01	10002	Trial2BackFrS	YS	17	57	961	1	111	12:17:01	2984023	4	3	1	1	2	2	1	1	1	5	4	3	0	0	0	6	3
071912	12:17:01	10002	Trial2BackFrS	NS	17	0	1000	1	111	12:17:01	2985556	4	3	1	1	2	2	1	1	1	5	4	3	0	0	0	6	3
071912	12:17:01	10002	Trial2BackFrS	NS	17	0	1000	1	111	12:17:01	2987075	4	3	1	1	2	2	1	1	1	5	4	3	0	0	0	6	3
071912	12:17:01	10002	Trial2BackFrS	NS	17	0	1000	1	111	12:17:01	2988595	4	3	1	1	2	2	1	1	1	5	4	3	0	0	0	6	3
071912	12:17:01	10002	Trial2BackFrS	NS	17	0	1000	1	111	12:17:01	2990114	4	3	1	1	2	2	1	1	1	5	4	3	0	0	0	6	3
071912	12:17:01	10002	Trial2BackFrS	NS	17	0	1000	1	111	12:17:01	2991634	4	3	1	1	2	2	1	1	1	5	4	3	0	0	0	6	3
071912	12:17:01	10002	Trial2BackFrS	NS	17	0	1000	1	111	12:17:01	2993153	4	3	1	1	2	2	1	1	1	5	4	3	0	0	0	6	3
071912	12:17:01	10002	Trial2BackFrS	NS	17	57	498	0	111	12:17:01	2994179	4	3	1	1	2	2	1	1	1	5	4	3	0	0	0	6	3
071912	12:17:01	10002	Trial2BackFrS	YS	17	0	1000	0	111	12:17:01	2996179	4	3	1	1	2	2	1	1	1	5	4	3	0	0	0	6	3
071912	12:17:01	10002	Trial2BackFrS	NS	17	0	1000	1	111	12:17:01	2997698	4	3	1	1	2	2	1	1	1	5	4	3	0	0	0	6	3
071912	12:17:01	10002	Trial2BackFrS	NS	17	0	1000	1	111	12:17:01	2999217	4	3	1	1	2	2	1	1	1	5	4	3	0	0	0	6	3
071912	12:17:01	10002	Trial2BackFrS	NS	17	0	1000	1	111	12:17:01	3000737	4	3	1	1	2	2	1	1	1	5	4	3	0	0	0	6	3
071912	12:17:01	10002	Trial2BackFrS	NS	17	0	1000	1	111	12:17:01	3002256	4	3	1	1	2	2	1	1	1	5	4	3	0	0	0	6	3
071912	12:17:01	10002	Trial2BackFrS	YS	17	57	483	1	111	12:17:01	3003269	4	3	1	1	2	2	1	1	1	5	4	3	0	0	0	6	3
071912	12:17:01	10002	Trial2BackFrS	NS	17	0	1000	1	111	12:17:01	3005281	4	3	1	1	2	2	1	1	1	5	4	3	0	0	0	6	3
071912	12:17:01	10002	Trial2BackFrS	NS	17	0	1000	1	111	12:17:01	3006801	4	3	1	1	2	2	1	1	1	5	4	3	0	0	0	6	3
071912	12:17:01	10002	Trial2BackFrS	NS	17	0	1000	1	111	12:17:01	3008320	4	3	1	1	2	2	1	1	1	5	4	3	0	0	0	6	3
071912	12:17:01	10002	Trial2BackFrS	NS	17	0	1000	1	111	12:17:01	3009840	4	3	1	1	2	2	1	1	1	5	4	3	0	0	0	6	3
071912	12:17:01	10002	Trial2BackFrS	NS	17	57	835	0	111	12:17:01	3011199	4	3	1	1	2	2	1	1	1	5	4	3	0	0	0	6	3
071912	12:17:01	10002	Trial2BackFrS	NS	17	0	1000	1	111	12:17:01	3012865	4	3	1	1	2	2	1	1	1	5	4	3	0	0	0	6	3
071912	12:17:01	10002	Trial2BackFrS	YS	17	0	1000	0	111	12:17:01	3014385	4	3	1	1	2	2	1	1	1	5	4	3	0	0	0	6	3
071912	12:17:01	10002	Trial2BackFrS	NS	17	0	1000	1	111	12:17:01	3015904	4	3	1	1	2	2	1	1	1	5	4	3	0	0	0	6	3
071912	12:17:01	10002	Trial2BackFrS	NS	17	0	1000	1	111	12:17:01	3017423	4	3	1	1	2	2	1	1	1	5	4	3	0	0	0	6	3
071912	12:17:01	10002	Trial2BackFrS	NS	17	0	1000	1	111	12:17:01	3018943	4	3	1	1	2	2	1	1	1	5	4	3	0	0	0	6	3
071912	12:17:01	10002	Trial2BackFrS	NS	17	57	676	0	111	12:17:01	3020142	4	3	1	1	2	2	1	1	1	5	4	3	0	0	0	6	3
071912	12:17:01	10002	Trial2BackFrS	NS	17	0	1000	1	111	12:17:01	3021968	4	3	1	1	2	2	1	1	1	5	4	3	0	0	0	6	3
071912	12:17:01	10002	Trial2BackFrS	NS	17	0	1000	1	111	12:17:01	3023488	4	3	1	1	2	2	1	1	1	5	4	3	0	0	0	6	3
071912	12:17:01	10002	Trial2BackFrS	NS	17	0	1000	1	111	12:17:01	3025007	4	3	1	1	2	2	1	1	1	5	4	3	0	0	0	6	3
071912	12:17:01	10002	Trial2BackFrS	YS	17	57	916	1	111	12:17:01	3026447	4	3	1	1	2	2	1	1	1	5	4	3	0	0	0	6	3
071912	12:17:01	10002	Trial2BackFrS	NS	17	0	1000	1	111	12:17:01	3028033	4	3	1	1	2	2	1	1	1	5	4	3	0	0	0	6	3
071912	12:17:01	10002	Trial2BackFrS	NS	17	0	1000	1	111	12:17:01	3029552	4	3	1	1	2	2	1	1	1	5	4	3	0	0	0	6	3
071912	12:17:01	10002	Trial2BackFrS	NS	17	0	1000	1	111	12:17:01	3031071	4	3	1	1	2	2	1	1	1	5	4	3	0	0	0	6	3
071912	12:17:01	10002	Trial2BackFrS	NS	17	0	1000	1	111	12:17:01	3032591	4	3	1	1	2	2	1	1	1	5	4	3	0	0	0	6	3
071912	12:17:01	10002	Trial2BackFrS	YS	17	0	1000	0	111	12:17:01	3034137	4	3	1	1	2	2	1	1	1	5	4	3	0	0	0	6	3
071912	12:17:01	10002	Trial2BackFrS	NS	17	0	1000	1	111	12:17:01	3035656	4	3	1	1	2	2	1	1	1	5	4	3	0	0	0	6	3
071912	12:17:01	10002	Trial2BackFrS	NS	17	0	1000	1	111	12:17:01	3037176	4	3	1	1	2	2	1	1	1	5	4	3	0	0	0	6	3
071912	12:17:01	10002	Trial2BackFrS	YS	17	0	1000	0	111	12:17:01	3038695	4	3	1	1	2	2	1	1	1	5	4	3	0	0	0	6	3
071912	12:17:01	10002	Trial2BackFrS	NS	17	0	1000	1	111	12:17:01	3040215	4	3	1	1	2	2	1	1	1	5	4	3	0	0	0	6	3
071912	12:17:01	10002	Trial2BackFrS	NS	17	0	1000	1	111	12:17:01	3041734	4	3	1	1	2	2	1	1	1	5	4	3	0	0	0	6	3
071912	12:17:01	10002	Trial2BackFrS	NS	17	0	1000	1	111	12:17:01	3043253	4	3	1	1	2	2	1	1	1	5	4	3	0	0	0	6	3
071912	12:17:01	10002	Trial2BackFrS	NS	17	0	1000	1	111	12:17:01	3044773	4	3	1	1	2	2	1	1	1	5	4	3	0	0	0	6	3
071912	12:17:01	10002	Trial2BackFrS	NS	17	0	1000	1	111	12:17:01	3046292	4	3	1	1	2	2	1	1	1	5	4	3	0	0	0	6	3
071912	12:17:01	10002	Trial2BackFrS	NS	17	0	1000	1	111	12:17:01	3047812	4	3	1	1	2	2	1	1	1	5	4	3	0	0	0	6	3
071912	12:17:01	10002	Trial2BackFrS	YS	17	57	543	1	111	12:17:01	3048877	4	3	1	1	2	2	1	1	1	5	4	3	0	0	0	6	3
071912	12:17:01	10002	Trial2BackFrS	NS	17	0	1000	1	111	12:17:01	3050837	4	3	1	1	2	2	1	1	1	5	4	3	0	0	0	6	3
071912	12:17:01	10002	Trial2BackFrS	NS	17	0	1000	1	111	12:17:01	3052356	4	3	1	1	2	2	1	1	1	5	4	3	0	0	0	6	3
071912	12:17:01	10002	Trial2BackFrS	NS	17	0	1000	1	111	12:17:01	3053876	4	3	1	1	2	2	1	1	1	5	4	3	0	0	0	6	3
071912	12:17:01	10002	Trial2BackFrS	NS	17	0	1000	1	111	12:17:01	3055409	4	3	1	1	2	2	1	1	1	5	4	3	0	0	0	6	3
071912	12:17:01	10002	Trial2BackFrS	YS	17	57	690	1	111	12:17:01	3056621	4	3	1	1	2	2	1	1	1	5	4	3	0	0	0	6	3
071912	12:17:01	10002	Trial2BackFrS	NS	17	0	1000	1	111	12:17:01	3058434	4	3	1	1	2	2	1	1	1	5	4	3	0	0	0	6	3
071912	12:17:01	10002	Trial2BackFrS	NS	17	0	1000	1	111	12:17:01	3059953	4	3	1	1	2	2	1	1	1	5	4	3	0	0	0	6	3
071912	12:17:01	10002	Trial2BackFrS	NS	17	0	1000	1	111	12:17:01	3061473	4	3	1	1	2	2	1	1	1	5	4	3	0	0	0	6	3
071912	12:17:01	10002	Trial2BackFrS	NS	17	0	1000	1	111	12:17:01	3062992	4	3	1	1	2	2	1	1	1	5	4	3	0	0	0	6	3
071912	12:17:01	10002	Trial2BackFrS	YS	17	0	1000	0	111	12:17:01	3064512	4	3	1	1	2	2	1	1	1	5	4	3	0	0	0	6	3
071912	12:17:01	10002	Trial2BackFrS	NS	17	0	1000	1	111	12:17:01	3066031	4	3	1	1	2	2	1	1	1	5	4	3	0	0	0	6	3
071912	12:17:01	10002	Trial2BackFrS	NS	17	0	1000	1	111	12:17:01	3067551	4	3	1	1	2	2	1	1	1	5	4	3	0	0	0	6	3
071912	12:17:01	10002	Trial2BackFrS	YS	17	0	1000	0	111	12:17:01	3069070	4	3	1	1	2	2	1	1	1	5	4	3	0	0	0	6	3
071912	12:17:01	10002	Trial2BackFrS	NS	17	0	1000	1	111	12:17:01	3070589	4	3	1	1	2	2	1	1	1	5	4	3	0	0	0	6	3
071912	12:17:01	10002	Trial2BackFrS	NS	17	0	1000	1	111	12:17:01	3072109	4	3	1	1	2	2	1	1	1	5	4	3	0	0	0	6	3
071912	12:17:01	10002	Trial2BackFrS	NS	17	0	1000	1	111	12:17:01	3073628	4	3	1	1	2	2	1	1	1	5	4	3	0	0	0	6	3
071912	12:17:01	10002	Trial2BackFrS	NS	17	0	1000	1	111	12:17:01	3075147	4	3	1	1	2	2	1	1	1	5	4	3	0	0	0	6	3
071912	12:17:01	10002	Trial2BackFrS	NS	17	0	1000	1	111	12:17:01	3076667	4	3	1	1	2	2	1	1	1	5	4	3	0	0	0	6	3
071912	12:17:01	10002	Trial2BackFrS	NS	17	0	1000	1	111	12:17:01	3078186	4	3	1	1	2	2	1	1	1	5	4	3	0	0	0	6	3
071912	12:17:01	10002	Trial2BackFrS	NS	17	0	1000	1	111	12:17:01	3079706	4	3	1	1	2	2	1	1	1	5	4	3	0	0	0	6	3
071912	12:17:01	10002	Trial2BackFrS	NS	17	57	616	0	111	12:17:01	3080852	4	3	1	1	2	2	1	1	1	5	4	3	0	0	0	6	3
071912	12:17:01	10002	Trial2BackFrS	YS	17	0	1000	0	111	12:17:01	3082731	4	3	1	1	2	2	1	1	1	5	4	3	0	0	0	6	3
071912	12:17:01	10002	Trial2BackFrS	NS	17	0	1000	1	111	12:17:01	3084250	4	3	1	1	2	2	1	1	1	5	4	3	0	0	0	6	3
071912	12:17:01	10002	Trial2BackFrS	NS	17	0	1000	1	111	12:17:01	3085770	4	3	1	1	2	2	1	1	1	5	4	3	0	0	0	6	3
071912	12:17:01	10002	Trial2BackFrS	NS	17	0	1000	1	111	12:17:01	3087289	4	3	1	1	2	2	1	1	1	5	4	3	0	0	0	6	3
071912	12:17:01	10002	Trial2BackFrS	NS	17	0	1000	1	111	12:17:01	3088809	4	3	1	1	2	2	1	1	1	5	4	3	0	0	0	6	3
071912	12:17:01	10002	Trial2BackFrS	NS	17	0	1000	1	111	12:17:01	3090328	4	3	1	1	2	2	1	1	1	5	4	3	0	0	0	6	3
071912	12:17:01	10002	Trial2BackFrS	NS	17	0	1000	1	111	12:17:01	3091847	4	3	1	1	2	2	1	1	1	5	4	3	0	0	0	6	3
071912	12:17:01	10002	Trial2BackFrS	NS	17	0	1000	1	111	12:17:01	3093367	4	3	1	1	2	2	1	1	1	5	4	3	0	0	0	6	3
071912	12:17:01	10002	Trial2BackFrS	YS	17	0	1000	0	111	12:17:01	3094886	4	3	1	1	2	2	1	1	1	5	4	3	0	0	0	6	3
071912	12:17:01	10002	Trial2BackFrS	NS	17	0	1000	1	111	12:17:01	3096406	4	3	1	1	2	2	1	1	1	5	4	3	0	0	0	6	3
071912	12:17:01	10002	Trial2BackFrS	NS	17	0	1000	1	111	12:17:01	3097925	4	3	1	1	2	2	1	1	1	5	4	3	0	0	0	6	3
071912	12:17:01	10002	Trial2BackFrS	NS	17	0	1000	1	111	12:17:01	3099444	4	3	1	1	2	2	1	1	1	5	4	3	0	0	0	6	3
071912	12:17:01	10002	Trial2BackFrS	NS	17	0	1000	1	111	12:17:01	3100964	4	3	1	1	2	2	1	1	1	5	4	3	0	0	0	6	3
071912	12:17:01	10002	Trial2BackFrS	NS	17	0	1000	1	111	12:17:01	3102483	4	3	1	1	2	2	1	1	1	5	4	3	0	0	0	6	3
071912	12:17:01	10002	Trial2BackFrS	NS	17	0	1000	1	111	12:17:01	3104003	4	3	1	1	2	2	1	1	1	5	4	3	0	0	0	6	3
071912	12:17:01	10002	Trial2BackFrS	NS	17	0	1000	1	111	12:17:01	3105522	4	3	1	1	2	2	1	1	1	5	4	3	0	0	0	6	3
071912	12:17:01	10002	Trial2BackFrS	NS	17	0	1000	1	111	12:17:01	3107041	4	3	1	1	2	2	1	1	1	5	4	3	0	0	0	6	3
071912	12:17:01	10002	Trial2BackFrS	NS	17	0	1000	1	111	12:17:01	3108561	4	3	1	1	2	2	1	1	1	5	4	3	0	0	0	6	3
071912	12:17:01	10002	Trial2BackFrS	YS	17	0	1000	0	111	12:17:01	3110080	4	3	1	1	2	2	1	1	1	5	4	3	0	0	0	6	3
071912	12:17:01	10002	Trial2BackFrS	NS	17	0	1000	1	111	12:17:01	3111600	4	3	1	1	2	2	1	1	1	5	4	3	0	0	0	6	3
071912	12:17:01	10002	ClockFr3mo	ClockFr3mo	19	Clock1	61258	0	111	12:17:01	3172962	4	3	1	1	2	2	1	1	1	5	4	3	1	0	0	6	3
071912	12:17:01	10002	ClockFr3mo	ClockFr3mo	19	Clock22	587	0	111	12:17:01	3173589	4	3	1	1	2	2	1	1	1	5	4	3	1	0	0	6	3
071912	12:17:01	10002	ClockFr3mo	ClockFr3mo	19	Clock222	376	0	111	12:17:01	3174002	4	3	1	1	2	2	1	1	1	5	4	3	1	0	0	6	3
071912	12:17:01	10002	ClockFr3mo	ClockFr3mo	19	Clockdone	482	0	111	12:17:01	3174522	4	3	1	1	2	2	1	1	1	5	4	3	1	0	0	6	3
071912	12:17:01	10002	FASFrVF3mo	StopFrVF3mo	20	5	5500	0	111	12:17:01	3304072	4	3	1	1	2	2	1	1	1	5	4	3	1	0	0	6	3
