date	time	subject	blockcode	trialcode	values.TaskNumber	response	latency	correct	values.Score	script.starttime	script.elapsedtime	values.ScoreS7	values.Word1	values.Word2	values.Word3	values.Word4	values.Word5	values.Word6	values.Word7	values.Word8	values.DigitSpanFwrd	values.DigitSpanBack	values.ScoreAbs	values.Contour	values.Numbers	values.Hands	values.corsiblockspanFwrd	values.corsiblockspanRev
071012	18:01:33	10023	Language	Language	0	English	421587	0	0	18:01:33	421852	0	0	0	0	0	0	0	0	0	0	0	0	0	0	0	0	0
071012	18:01:33	10023	Session	Session	0	Baseline	955	0	0	18:01:33	422891	0	0	0	0	0	0	0	0	0	0	0	0	0	0	0	0	0
071012	18:01:33	10023	HandEng	HandEng	0	Right	3827	0	0	18:01:33	426796	0	0	0	0	0	0	0	0	0	0	0	0	0	0	0	0	0
071012	18:01:33	10023	CubeEng	CubeEng	1	2Cube	68997	0	0	18:01:33	537084	0	0	0	0	0	0	0	0	0	0	0	0	0	0	0	0	0
071012	18:01:33	10023	pm.simpleEngRight	blank.simpleEng	2	0	1587	1	0	18:01:33	559115	0	0	0	0	0	0	0	0	0	0	0	0	0	0	0	0	0
071012	18:01:33	10023	pm.simpleEngRight	pm.simpleEng	2	57	44	0	0	18:01:33	559195	0	0	0	0	0	0	0	0	0	0	0	0	0	0	0	0	0
071012	18:01:33	10023	pm.simpleEngRight	blank.simpleEng	2	0	1887	1	0	18:01:33	561115	0	0	0	0	0	0	0	0	0	0	0	0	0	0	0	0	0
071012	18:01:33	10023	pm.simpleEngRight	pm.simpleEng	2	57	684	0	0	18:01:33	561834	0	0	0	0	0	0	0	0	0	0	0	0	0	0	0	0	0
071012	18:01:33	10023	pm.simpleEngRight	blank.simpleEng	2	57	1980	0	0	18:01:33	564847	0	0	0	0	0	0	0	0	0	0	0	0	0	0	0	0	0
071012	18:01:33	10023	pm.simpleEngRight	blank.simpleEng	2	0	2187	1	0	18:01:33	567059	0	0	0	0	0	0	0	0	0	0	0	0	0	0	0	0	0
071012	18:01:33	10023	pm.simpleEngRight	pm.simpleEng	2	57	516	0	0	18:01:33	567605	0	0	0	0	0	0	0	0	0	0	0	0	0	0	0	0	0
071012	18:01:33	10023	pm.simpleEngRight	blank.simpleEng	2	0	2487	1	0	18:01:33	570124	0	0	0	0	0	0	0	0	0	0	0	0	0	0	0	0	0
071012	18:01:33	10023	pm.simpleEngRight	pm.simpleEng	2	57	411	0	0	18:01:33	570577	0	0	0	0	0	0	0	0	0	0	0	0	0	0	0	0	0
071012	18:01:33	10023	pm.simpleEngRight	blank.simpleEng	2	0	1487	1	0	18:01:33	572097	0	0	0	0	0	0	0	0	0	0	0	0	0	0	0	0	0
071012	18:01:33	10023	pm.simpleEngRight	pm.simpleEng	2	57	358	0	0	18:01:33	572497	0	0	0	0	0	0	0	0	0	0	0	0	0	0	0	0	0
071012	18:01:33	10023	pm.simpleEngRight	blank.simpleEng	2	0	2387	1	0	18:01:33	574909	0	0	0	0	0	0	0	0	0	0	0	0	0	0	0	0	0
071012	18:01:33	10023	pm.simpleEngRight	pm.simpleEng	2	57	282	0	0	18:01:33	575229	0	0	0	0	0	0	0	0	0	0	0	0	0	0	0	0	0
071012	18:01:33	10023	pm.simpleEngRight	blank.simpleEng	2	0	1687	1	0	18:01:33	576948	0	0	0	0	0	0	0	0	0	0	0	0	0	0	0	0	0
071012	18:01:33	10023	pm.simpleEngRight	pm.simpleEng	2	57	274	0	0	18:01:33	577255	0	0	0	0	0	0	0	0	0	0	0	0	0	0	0	0	0
071012	18:01:33	10023	pm.simpleEngRight	blank.simpleEng	2	0	1987	1	0	18:01:33	579267	0	0	0	0	0	0	0	0	0	0	0	0	0	0	0	0	0
071012	18:01:33	10023	pm.simpleEngRight	pm.simpleEng	2	57	292	0	0	18:01:33	579600	0	0	0	0	0	0	0	0	0	0	0	0	0	0	0	0	0
071012	18:01:33	10023	pm.simpleEngRight	blank.simpleEng	2	0	1787	1	0	18:01:33	581413	0	0	0	0	0	0	0	0	0	0	0	0	0	0	0	0	0
071012	18:01:33	10023	pm.simpleEngRight	pm.simpleEng	2	57	257	0	0	18:01:33	581706	0	0	0	0	0	0	0	0	0	0	0	0	0	0	0	0	0
071012	18:01:33	10023	pm.simpleEngRight	blank.simpleEng	2	0	2287	1	0	18:01:33	584025	0	0	0	0	0	0	0	0	0	0	0	0	0	0	0	0	0
071012	18:01:33	10023	pm.simpleEngRight	pm.simpleEng	2	57	285	0	0	18:01:33	584345	0	0	0	0	0	0	0	0	0	0	0	0	0	0	0	0	0
071012	18:01:33	10023	pm.simpleEngRight	blank.simpleEng	2	0	1587	1	0	18:01:33	585958	0	0	0	0	0	0	0	0	0	0	0	0	0	0	0	0	0
071012	18:01:33	10023	pm.simpleEngRight	pm.simpleEng	2	57	273	0	0	18:01:33	586264	0	0	0	0	0	0	0	0	0	0	0	0	0	0	0	0	0
071012	18:01:33	10023	pm.simpleEngRight	blank.simpleEng	2	0	2187	1	0	18:01:33	588477	0	0	0	0	0	0	0	0	0	0	0	0	0	0	0	0	0
071012	18:01:33	10023	pm.simpleEngRight	pm.simpleEng	2	57	265	0	0	18:01:33	588783	0	0	0	0	0	0	0	0	0	0	0	0	0	0	0	0	0
071012	18:01:33	10023	pm.simpleEngRight	blank.simpleEng	2	0	2487	1	0	18:01:33	591302	0	0	0	0	0	0	0	0	0	0	0	0	0	0	0	0	0
071012	18:01:33	10023	pm.simpleEngRight	pm.simpleEng	2	57	272	0	0	18:01:33	591609	0	0	0	0	0	0	0	0	0	0	0	0	0	0	0	0	0
071012	18:01:33	10023	pm.simpleEngRight	blank.simpleEng	2	0	2087	1	0	18:01:33	593728	0	0	0	0	0	0	0	0	0	0	0	0	0	0	0	0	0
071012	18:01:33	10023	pm.simpleEngRight	pm.simpleEng	2	57	278	0	0	18:01:33	594048	0	0	0	0	0	0	0	0	0	0	0	0	0	0	0	0	0
071012	18:01:33	10023	pm.simpleEngRight	blank.simpleEng	2	0	1487	1	0	18:01:33	595567	0	0	0	0	0	0	0	0	0	0	0	0	0	0	0	0	0
071012	18:01:33	10023	pm.simpleEngRight	pm.simpleEng	2	57	278	0	0	18:01:33	595887	0	0	0	0	0	0	0	0	0	0	0	0	0	0	0	0	0
071012	18:01:33	10023	pm.simpleEngRight	blank.simpleEng	2	0	2287	1	0	18:01:33	598206	0	0	0	0	0	0	0	0	0	0	0	0	0	0	0	0	0
071012	18:01:33	10023	pm.simpleEngRight	pm.simpleEng	2	57	280	0	0	18:01:33	598526	0	0	0	0	0	0	0	0	0	0	0	0	0	0	0	0	0
071012	18:01:33	10023	pm.simpleEngRight	blank.simpleEng	2	0	1887	1	0	18:01:33	600445	0	0	0	0	0	0	0	0	0	0	0	0	0	0	0	0	0
071012	18:01:33	10023	pm.simpleEngRight	pm.simpleEng	2	57	265	0	0	18:01:33	600752	0	0	0	0	0	0	0	0	0	0	0	0	0	0	0	0	0
071012	18:01:33	10023	pm.simpleEngRight	blank.simpleEng	2	0	2387	1	0	18:01:33	603164	0	0	0	0	0	0	0	0	0	0	0	0	0	0	0	0	0
071012	18:01:33	10023	pm.simpleEngRight	pm.simpleEng	2	57	362	0	0	18:01:33	603564	0	0	0	0	0	0	0	0	0	0	0	0	0	0	0	0	0
071012	18:01:33	10023	pm.simpleEngRight	blank.simpleEng	2	0	1987	1	0	18:01:33	605577	0	0	0	0	0	0	0	0	0	0	0	0	0	0	0	0	0
071012	18:01:33	10023	pm.simpleEngRight	pm.simpleEng	2	57	270	0	0	18:01:33	605883	0	0	0	0	0	0	0	0	0	0	0	0	0	0	0	0	0
071012	18:01:33	10023	pm.simpleEngRight	blank.simpleEng	2	0	1687	1	0	18:01:33	607602	0	0	0	0	0	0	0	0	0	0	0	0	0	0	0	0	0
071012	18:01:33	10023	pm.simpleEngRight	pm.simpleEng	2	57	324	0	0	18:01:33	607962	0	0	0	0	0	0	0	0	0	0	0	0	0	0	0	0	0
071012	18:01:33	10023	pm.simpleEngRight	blank.simpleEng	2	0	1787	1	0	18:01:33	609775	0	0	0	0	0	0	0	0	0	0	0	0	0	0	0	0	0
071012	18:01:33	10023	pm.simpleEngRight	pm.simpleEng	2	57	295	0	0	18:01:33	610108	0	0	0	0	0	0	0	0	0	0	0	0	0	0	0	0	0
071012	18:01:33	10023	pm.simpleEngRight	blank.simpleEng	2	0	1787	1	0	18:01:33	611921	0	0	0	0	0	0	0	0	0	0	0	0	0	0	0	0	0
071012	18:01:33	10023	pm.simpleEngRight	pm.simpleEng	2	57	293	0	0	18:01:33	612254	0	0	0	0	0	0	0	0	0	0	0	0	0	0	0	0	0
071012	18:01:33	10023	pm.simpleEngRight	blank.simpleEng	2	0	2187	1	0	18:01:33	614466	0	0	0	0	0	0	0	0	0	0	0	0	0	0	0	0	0
071012	18:01:33	10023	pm.simpleEngRight	pm.simpleEng	2	57	275	0	0	18:01:33	614773	0	0	0	0	0	0	0	0	0	0	0	0	0	0	0	0	0
071012	18:01:33	10023	pm.simpleEngRight	blank.simpleEng	2	0	1587	1	0	18:01:33	616386	0	0	0	0	0	0	0	0	0	0	0	0	0	0	0	0	0
071012	18:01:33	10023	pm.simpleEngRight	pm.simpleEng	2	57	228	0	0	18:01:33	616652	0	0	0	0	0	0	0	0	0	0	0	0	0	0	0	0	0
071012	18:01:33	10023	pm.simpleEngRight	blank.simpleEng	2	0	2087	1	0	18:01:33	618771	0	0	0	0	0	0	0	0	0	0	0	0	0	0	0	0	0
071012	18:01:33	10023	pm.simpleEngRight	pm.simpleEng	2	57	274	0	0	18:01:33	619078	0	0	0	0	0	0	0	0	0	0	0	0	0	0	0	0	0
071012	18:01:33	10023	pm.simpleEngRight	blank.simpleEng	2	0	1687	1	0	18:01:33	620797	0	0	0	0	0	0	0	0	0	0	0	0	0	0	0	0	0
071012	18:01:33	10023	pm.simpleEngRight	pm.simpleEng	2	57	248	0	0	18:01:33	621077	0	0	0	0	0	0	0	0	0	0	0	0	0	0	0	0	0
071012	18:01:33	10023	pm.simpleEngRight	blank.simpleEng	2	0	1887	1	0	18:01:33	622996	0	0	0	0	0	0	0	0	0	0	0	0	0	0	0	0	0
071012	18:01:33	10023	pm.simpleEngRight	pm.simpleEng	2	57	209	0	0	18:01:33	623236	0	0	0	0	0	0	0	0	0	0	0	0	0	0	0	0	0
071012	18:01:33	10023	pm.simpleEngRight	blank.simpleEng	2	0	2487	1	0	18:01:33	625755	0	0	0	0	0	0	0	0	0	0	0	0	0	0	0	0	0
071012	18:01:33	10023	pm.simpleEngRight	pm.simpleEng	2	57	266	0	0	18:01:33	626062	0	0	0	0	0	0	0	0	0	0	0	0	0	0	0	0	0
071012	18:01:33	10023	pm.simpleEngRight	blank.simpleEng	2	0	1987	1	0	18:01:33	628074	0	0	0	0	0	0	0	0	0	0	0	0	0	0	0	0	0
071012	18:01:33	10023	pm.simpleEngRight	pm.simpleEng	2	57	267	0	0	18:01:33	628381	0	0	0	0	0	0	0	0	0	0	0	0	0	0	0	0	0
071012	18:01:33	10023	pm.simpleEngRight	blank.simpleEng	2	0	2287	1	0	18:01:33	630700	0	0	0	0	0	0	0	0	0	0	0	0	0	0	0	0	0
071012	18:01:33	10023	pm.simpleEngRight	pm.simpleEng	2	57	282	0	0	18:01:33	631020	0	0	0	0	0	0	0	0	0	0	0	0	0	0	0	0	0
071012	18:01:33	10023	pm.simpleEngRight	blank.simpleEng	2	0	1487	1	0	18:01:33	632539	0	0	0	0	0	0	0	0	0	0	0	0	0	0	0	0	0
071012	18:01:33	10023	pm.simpleEngRight	pm.simpleEng	2	57	299	0	0	18:01:33	632872	0	0	0	0	0	0	0	0	0	0	0	0	0	0	0	0	0
071012	18:01:33	10023	pm.simpleEngRight	blank.simpleEng	2	0	2387	1	0	18:01:33	635285	0	0	0	0	0	0	0	0	0	0	0	0	0	0	0	0	0
071012	18:01:33	10023	pm.simpleEngRight	pm.simpleEng	2	57	241	0	0	18:01:33	635564	0	0	0	0	0	0	0	0	0	0	0	0	0	0	0	0	0
071012	18:01:33	10023	pm.simpleEngRight	blank.simpleEng	2	0	2187	1	0	18:01:33	637777	0	0	0	0	0	0	0	0	0	0	0	0	0	0	0	0	0
071012	18:01:33	10023	pm.simpleEngRight	pm.simpleEng	2	57	261	0	0	18:01:33	638070	0	0	0	0	0	0	0	0	0	0	0	0	0	0	0	0	0
071012	18:01:33	10023	pm.simpleEngRight	blank.simpleEng	2	0	2087	1	0	18:01:33	640189	0	0	0	0	0	0	0	0	0	0	0	0	0	0	0	0	0
071012	18:01:33	10023	pm.simpleEngRight	pm.simpleEng	2	57	264	0	0	18:01:33	640496	0	0	0	0	0	0	0	0	0	0	0	0	0	0	0	0	0
071012	18:01:33	10023	pm.simpleEngRight	blank.simpleEng	2	0	2287	1	0	18:01:33	642815	0	0	0	0	0	0	0	0	0	0	0	0	0	0	0	0	0
071012	18:01:33	10023	pm.simpleEngRight	pm.simpleEng	2	57	294	0	0	18:01:33	643148	0	0	0	0	0	0	0	0	0	0	0	0	0	0	0	0	0
071012	18:01:33	10023	pm.simpleEngRight	blank.simpleEng	2	0	1487	1	0	18:01:33	644667	0	0	0	0	0	0	0	0	0	0	0	0	0	0	0	0	0
071012	18:01:33	10023	pm.simpleEngRight	pm.simpleEng	2	57	282	0	0	18:01:33	644987	0	0	0	0	0	0	0	0	0	0	0	0	0	0	0	0	0
071012	18:01:33	10023	pm.simpleEngRight	blank.simpleEng	2	0	1887	1	0	18:01:33	646907	0	0	0	0	0	0	0	0	0	0	0	0	0	0	0	0	0
071012	18:01:33	10023	pm.simpleEngRight	pm.simpleEng	2	57	267	0	0	18:01:33	647213	0	0	0	0	0	0	0	0	0	0	0	0	0	0	0	0	0
071012	18:01:33	10023	pm.simpleEngRight	blank.simpleEng	2	0	1987	1	0	18:01:33	649226	0	0	0	0	0	0	0	0	0	0	0	0	0	0	0	0	0
071012	18:01:33	10023	pm.simpleEngRight	pm.simpleEng	2	57	284	0	0	18:01:33	649546	0	0	0	0	0	0	0	0	0	0	0	0	0	0	0	0	0
071012	18:01:33	10023	pm.simpleEngRight	blank.simpleEng	2	0	1687	1	0	18:01:33	651252	0	0	0	0	0	0	0	0	0	0	0	0	0	0	0	0	0
071012	18:01:33	10023	pm.simpleEngRight	pm.simpleEng	2	57	241	0	0	18:01:33	651531	0	0	0	0	0	0	0	0	0	0	0	0	0	0	0	0	0
071012	18:01:33	10023	pm.simpleEngRight	blank.simpleEng	2	0	1587	1	0	18:01:33	653144	0	0	0	0	0	0	0	0	0	0	0	0	0	0	0	0	0
071012	18:01:33	10023	pm.simpleEngRight	pm.simpleEng	2	57	237	0	0	18:01:33	653411	0	0	0	0	0	0	0	0	0	0	0	0	0	0	0	0	0
071012	18:01:33	10023	Trial2BackEng	N	3	0	1000	1	1	18:01:33	728247	0	0	0	0	0	0	0	0	0	0	0	0	0	0	0	0	0
071012	18:01:33	10023	Trial2BackEng	N	3	57	65	0	1	18:01:33	728834	0	0	0	0	0	0	0	0	0	0	0	0	0	0	0	0	0
071012	18:01:33	10023	Trial2BackEng	N	3	0	1000	1	2	18:01:33	731273	0	0	0	0	0	0	0	0	0	0	0	0	0	0	0	0	0
071012	18:01:33	10023	Trial2BackEng	N	3	0	1000	1	3	18:01:33	732792	0	0	0	0	0	0	0	0	0	0	0	0	0	0	0	0	0
071012	18:01:33	10023	Trial2BackEng	N	3	57	432	0	3	18:01:33	733752	0	0	0	0	0	0	0	0	0	0	0	0	0	0	0	0	0
071012	18:01:33	10023	Trial2BackEng	N	3	0	1000	1	4	18:01:33	735818	0	0	0	0	0	0	0	0	0	0	0	0	0	0	0	0	0
071012	18:01:33	10023	Trial2BackEng	N	3	0	1000	1	5	18:01:33	737337	0	0	0	0	0	0	0	0	0	0	0	0	0	0	0	0	0
071012	18:01:33	10023	Trial2BackEng	N	3	0	1000	1	6	18:01:33	738856	0	0	0	0	0	0	0	0	0	0	0	0	0	0	0	0	0
071012	18:01:33	10023	Trial2BackEng	Y	3	0	1000	0	6	18:01:33	740376	0	0	0	0	0	0	0	0	0	0	0	0	0	0	0	0	0
071012	18:01:33	10023	Trial2BackEng	N	3	0	1000	1	7	18:01:33	741895	0	0	0	0	0	0	0	0	0	0	0	0	0	0	0	0	0
071012	18:01:33	10023	Trial2BackEng	N	3	0	1000	1	8	18:01:33	743414	0	0	0	0	0	0	0	0	0	0	0	0	0	0	0	0	0
071012	18:01:33	10023	Trial2BackEng	N	3	0	1000	1	9	18:01:33	744934	0	0	0	0	0	0	0	0	0	0	0	0	0	0	0	0	0
071012	18:01:33	10023	Trial2BackEng	Y	3	57	578	1	10	18:01:33	746040	0	0	0	0	0	0	0	0	0	0	0	0	0	0	0	0	0
071012	18:01:33	10023	Trial2BackEng	N	3	0	1000	1	11	18:01:33	747959	0	0	0	0	0	0	0	0	0	0	0	0	0	0	0	0	0
071012	18:01:33	10023	Trial2BackEng	N	3	0	1000	1	12	18:01:33	749479	0	0	0	0	0	0	0	0	0	0	0	0	0	0	0	0	0
071012	18:01:33	10023	Trial2BackEng	N	3	0	1000	1	13	18:01:33	750998	0	0	0	0	0	0	0	0	0	0	0	0	0	0	0	0	0
071012	18:01:33	10023	Trial2BackEng	N	3	0	1000	1	14	18:01:33	752517	0	0	0	0	0	0	0	0	0	0	0	0	0	0	0	0	0
071012	18:01:33	10023	Trial2BackEng	N	3	0	1000	1	15	18:01:33	754037	0	0	0	0	0	0	0	0	0	0	0	0	0	0	0	0	0
071012	18:01:33	10023	Trial2BackEng	Y	3	0	1000	0	15	18:01:33	755556	0	0	0	0	0	0	0	0	0	0	0	0	0	0	0	0	0
071012	18:01:33	10023	Trial2BackEng	N	3	0	1000	1	16	18:01:33	757076	0	0	0	0	0	0	0	0	0	0	0	0	0	0	0	0	0
071012	18:01:33	10023	Trial2BackEng	N	3	0	1000	1	17	18:01:33	758595	0	0	0	0	0	0	0	0	0	0	0	0	0	0	0	0	0
071012	18:01:33	10023	Trial2BackEng	N	3	0	1000	1	18	18:01:33	760114	0	0	0	0	0	0	0	0	0	0	0	0	0	0	0	0	0
071012	18:01:33	10023	Trial2BackEng	N	3	0	1000	1	19	18:01:33	761634	0	0	0	0	0	0	0	0	0	0	0	0	0	0	0	0	0
071012	18:01:33	10023	Trial2BackEng	Y	3	0	1000	0	19	18:01:33	763153	0	0	0	0	0	0	0	0	0	0	0	0	0	0	0	0	0
071012	18:01:33	10023	Trial2BackEng	N	3	0	1000	1	20	18:01:33	764672	0	0	0	0	0	0	0	0	0	0	0	0	0	0	0	0	0
071012	18:01:33	10023	Trial2BackEng	N	3	0	1000	1	21	18:01:33	766192	0	0	0	0	0	0	0	0	0	0	0	0	0	0	0	0	0
071012	18:01:33	10023	Trial2BackEng	N	3	0	1000	1	22	18:01:33	767711	0	0	0	0	0	0	0	0	0	0	0	0	0	0	0	0	0
071012	18:01:33	10023	Trial2BackEng	N	3	0	1000	1	23	18:01:33	769231	0	0	0	0	0	0	0	0	0	0	0	0	0	0	0	0	0
071012	18:01:33	10023	Trial2BackEng	N	3	0	1000	1	24	18:01:33	770750	0	0	0	0	0	0	0	0	0	0	0	0	0	0	0	0	0
071012	18:01:33	10023	Trial2BackEng	N	3	0	1000	1	25	18:01:33	772269	0	0	0	0	0	0	0	0	0	0	0	0	0	0	0	0	0
071012	18:01:33	10023	Trial2BackEng	Y	3	0	1000	0	25	18:01:33	773789	0	0	0	0	0	0	0	0	0	0	0	0	0	0	0	0	0
071012	18:01:33	10023	Trial2BackEng	N	3	0	1000	1	26	18:01:33	775308	0	0	0	0	0	0	0	0	0	0	0	0	0	0	0	0	0
071012	18:01:33	10023	Trial2BackEng	N	3	0	1000	1	27	18:01:33	776828	0	0	0	0	0	0	0	0	0	0	0	0	0	0	0	0	0
071012	18:01:33	10023	Trial2BackEng	N	3	0	1000	1	28	18:01:33	778347	0	0	0	0	0	0	0	0	0	0	0	0	0	0	0	0	0
071012	18:01:33	10023	Trial2BackEng	Y	3	0	1000	0	28	18:01:33	779866	0	0	0	0	0	0	0	0	0	0	0	0	0	0	0	0	0
071012	18:01:33	10023	Trial2BackEng	N	3	0	1000	1	29	18:01:33	781386	0	0	0	0	0	0	0	0	0	0	0	0	0	0	0	0	0
071012	18:01:33	10023	Trial2BackEng	N	3	0	1000	1	30	18:01:33	782905	0	0	0	0	0	0	0	0	0	0	0	0	0	0	0	0	0
071012	18:01:33	10023	Trial2BackEng	N	3	0	1000	1	31	18:01:33	784424	0	0	0	0	0	0	0	0	0	0	0	0	0	0	0	0	0
071012	18:01:33	10023	Trial2BackEng	N	3	0	1000	1	32	18:01:33	785944	0	0	0	0	0	0	0	0	0	0	0	0	0	0	0	0	0
071012	18:01:33	10023	Trial2BackEng	N	3	0	1000	1	33	18:01:33	787463	0	0	0	0	0	0	0	0	0	0	0	0	0	0	0	0	0
071012	18:01:33	10023	Trial2BackEng	N	3	0	1000	1	34	18:01:33	788983	0	0	0	0	0	0	0	0	0	0	0	0	0	0	0	0	0
071012	18:01:33	10023	Trial2BackEng	Y	3	0	1000	0	34	18:01:33	790502	0	0	0	0	0	0	0	0	0	0	0	0	0	0	0	0	0
071012	18:01:33	10023	Trial2BackEng	N	3	0	1000	1	35	18:01:33	792021	0	0	0	0	0	0	0	0	0	0	0	0	0	0	0	0	0
071012	18:01:33	10023	Trial2BackEng	N	3	0	1000	1	36	18:01:33	793541	0	0	0	0	0	0	0	0	0	0	0	0	0	0	0	0	0
071012	18:01:33	10023	Trial2BackEng	N	3	0	1000	1	37	18:01:33	795060	0	0	0	0	0	0	0	0	0	0	0	0	0	0	0	0	0
071012	18:01:33	10023	Trial2BackEng	N	3	0	1000	1	38	18:01:33	796580	0	0	0	0	0	0	0	0	0	0	0	0	0	0	0	0	0
071012	18:01:33	10023	Trial2BackEng	Y	3	0	1000	0	38	18:01:33	798099	0	0	0	0	0	0	0	0	0	0	0	0	0	0	0	0	0
071012	18:01:33	10023	Trial2BackEng	N	3	0	1000	1	39	18:01:33	799618	0	0	0	0	0	0	0	0	0	0	0	0	0	0	0	0	0
071012	18:01:33	10023	Trial2BackEng	N	3	0	1000	1	40	18:01:33	801138	0	0	0	0	0	0	0	0	0	0	0	0	0	0	0	0	0
071012	18:01:33	10023	Trial2BackEng	N	3	0	1000	1	41	18:01:33	802657	0	0	0	0	0	0	0	0	0	0	0	0	0	0	0	0	0
071012	18:01:33	10023	Trial2BackEng	N	3	0	1000	1	42	18:01:33	804177	0	0	0	0	0	0	0	0	0	0	0	0	0	0	0	0	0
071012	18:01:33	10023	Trial2BackEng	N	3	0	1000	1	43	18:01:33	805696	0	0	0	0	0	0	0	0	0	0	0	0	0	0	0	0	0
071012	18:01:33	10023	Trial2BackEng	Y	3	57	278	1	44	18:01:33	806495	0	0	0	0	0	0	0	0	0	0	0	0	0	0	0	0	0
071012	18:01:33	10023	Trial2BackEng	N	3	0	1000	1	45	18:01:33	808721	0	0	0	0	0	0	0	0	0	0	0	0	0	0	0	0	0
071012	18:01:33	10023	Trial2BackEng	N	3	0	1000	1	46	18:01:33	810241	0	0	0	0	0	0	0	0	0	0	0	0	0	0	0	0	0
071012	18:01:33	10023	Trial2BackEng	N	3	0	1000	1	47	18:01:33	811760	0	0	0	0	0	0	0	0	0	0	0	0	0	0	0	0	0
071012	18:01:33	10023	Trial2BackEng	N	3	0	1000	1	48	18:01:33	813280	0	0	0	0	0	0	0	0	0	0	0	0	0	0	0	0	0
071012	18:01:33	10023	Trial2BackEng	N	3	0	1000	1	49	18:01:33	814799	0	0	0	0	0	0	0	0	0	0	0	0	0	0	0	0	0
071012	18:01:33	10023	Trial2BackEng	N	3	57	679	0	49	18:01:33	816012	0	0	0	0	0	0	0	0	0	0	0	0	0	0	0	0	0
071012	18:01:33	10023	Trial2BackEng	Y	3	0	1000	0	49	18:01:33	817824	0	0	0	0	0	0	0	0	0	0	0	0	0	0	0	0	0
071012	18:01:33	10023	Trial2BackEng	N	3	0	1000	1	50	18:01:33	819344	0	0	0	0	0	0	0	0	0	0	0	0	0	0	0	0	0
071012	18:01:33	10023	Trial2BackEng	N	3	0	1000	1	51	18:01:33	820863	0	0	0	0	0	0	0	0	0	0	0	0	0	0	0	0	0
071012	18:01:33	10023	Trial2BackEng	Y	3	0	1000	0	51	18:01:33	822383	0	0	0	0	0	0	0	0	0	0	0	0	0	0	0	0	0
071012	18:01:33	10023	Trial2BackEng	N	3	0	1000	1	52	18:01:33	823902	0	0	0	0	0	0	0	0	0	0	0	0	0	0	0	0	0
071012	18:01:33	10023	Trial2BackEng	N	3	0	1000	1	53	18:01:33	825421	0	0	0	0	0	0	0	0	0	0	0	0	0	0	0	0	0
071012	18:01:33	10023	Trial2BackEng	N	3	0	1000	1	54	18:01:33	826941	0	0	0	0	0	0	0	0	0	0	0	0	0	0	0	0	0
071012	18:01:33	10023	Trial2BackEng	N	3	0	1000	1	55	18:01:33	828460	0	0	0	0	0	0	0	0	0	0	0	0	0	0	0	0	0
071012	18:01:33	10023	Trial2BackEng	N	3	57	633	0	55	18:01:33	829619	0	0	0	0	0	0	0	0	0	0	0	0	0	0	0	0	0
071012	18:01:33	10023	Trial2BackEng	N	3	0	1000	1	56	18:01:33	831486	0	0	0	0	0	0	0	0	0	0	0	0	0	0	0	0	0
071012	18:01:33	10023	Trial2BackEng	N	3	0	1000	1	57	18:01:33	833005	0	0	0	0	0	0	0	0	0	0	0	0	0	0	0	0	0
071012	18:01:33	10023	Trial2BackEng	N	3	0	1000	1	58	18:01:33	834524	0	0	0	0	0	0	0	0	0	0	0	0	0	0	0	0	0
071012	18:01:33	10023	Trial2BackEng	N	3	0	1000	1	59	18:01:33	836044	0	0	0	0	0	0	0	0	0	0	0	0	0	0	0	0	0
071012	18:01:33	10023	Trial2BackEng	N	3	0	1000	1	60	18:01:33	837576	0	0	0	0	0	0	0	0	0	0	0	0	0	0	0	0	0
071012	18:01:33	10023	Trial2BackEng	Y	3	0	1000	0	60	18:01:33	839096	0	0	0	0	0	0	0	0	0	0	0	0	0	0	0	0	0
071012	18:01:33	10023	Trial2BackEng	N	3	0	1000	1	61	18:01:33	840615	0	0	0	0	0	0	0	0	0	0	0	0	0	0	0	0	0
071012	18:01:33	10023	Trial2BackEng	N	3	0	1000	1	62	18:01:33	842135	0	0	0	0	0	0	0	0	0	0	0	0	0	0	0	0	0
071012	18:01:33	10023	Trial2BackEng	N	3	57	479	0	62	18:01:33	843147	0	0	0	0	0	0	0	0	0	0	0	0	0	0	0	0	0
071012	18:01:33	10023	Trial2BackEng	Y	3	0	1000	0	62	18:01:33	845160	0	0	0	0	0	0	0	0	0	0	0	0	0	0	0	0	0
071012	18:01:33	10023	Trial2BackEng	N	3	0	1000	1	63	18:01:33	846679	0	0	0	0	0	0	0	0	0	0	0	0	0	0	0	0	0
071012	18:01:33	10023	Trial2BackEng	N	3	0	1000	1	64	18:01:33	848199	0	0	0	0	0	0	0	0	0	0	0	0	0	0	0	0	0
071012	18:01:33	10023	Trial2BackEng	N	3	0	1000	1	65	18:01:33	849718	0	0	0	0	0	0	0	0	0	0	0	0	0	0	0	0	0
071012	18:01:33	10023	Trial2BackEng	N	3	0	1000	1	66	18:01:33	851238	0	0	0	0	0	0	0	0	0	0	0	0	0	0	0	0	0
071012	18:01:33	10023	Trial2BackEng	N	3	0	1000	1	67	18:01:33	852757	0	0	0	0	0	0	0	0	0	0	0	0	0	0	0	0	0
071012	18:01:33	10023	Trial2BackEng	Y	3	0	1000	0	67	18:01:33	854276	0	0	0	0	0	0	0	0	0	0	0	0	0	0	0	0	0
071012	18:01:33	10023	Trial2BackEng	N	3	0	1000	1	68	18:01:33	855796	0	0	0	0	0	0	0	0	0	0	0	0	0	0	0	0	0
071012	18:01:33	10023	Trial2BackEng	N	3	0	1000	1	69	18:01:33	857315	0	0	0	0	0	0	0	0	0	0	0	0	0	0	0	0	0
071012	18:01:33	10023	Trial2BackEng	N	3	0	1000	1	70	18:01:33	858834	0	0	0	0	0	0	0	0	0	0	0	0	0	0	0	0	0
071012	18:01:33	10023	Trial2BackEng	N	3	0	1000	1	71	18:01:33	860354	0	0	0	0	0	0	0	0	0	0	0	0	0	0	0	0	0
071012	18:01:33	10023	Trial2BackEng	N	3	0	1000	1	72	18:01:33	861873	0	0	0	0	0	0	0	0	0	0	0	0	0	0	0	0	0
071012	18:01:33	10023	Trial2BackEng	N	3	0	1000	1	73	18:01:33	863393	0	0	0	0	0	0	0	0	0	0	0	0	0	0	0	0	0
071012	18:01:33	10023	Trial2BackEng	N	3	0	1000	1	74	18:01:33	864912	0	0	0	0	0	0	0	0	0	0	0	0	0	0	0	0	0
071012	18:01:33	10023	Trial2BackEng	N	3	0	1000	1	75	18:01:33	866431	0	0	0	0	0	0	0	0	0	0	0	0	0	0	0	0	0
071012	18:01:33	10023	Trial2BackEng	N	3	57	869	0	75	18:01:33	867831	0	0	0	0	0	0	0	0	0	0	0	0	0	0	0	0	0
071012	18:01:33	10023	Trial2BackEng	Y	3	0	1000	0	75	18:01:33	869457	0	0	0	0	0	0	0	0	0	0	0	0	0	0	0	0	0
071012	18:01:33	10023	Trial2BackEng	N	3	0	1000	1	76	18:01:33	870976	0	0	0	0	0	0	0	0	0	0	0	0	0	0	0	0	0
071012	18:01:33	10023	Trial2BackEng	N	3	0	1000	1	77	18:01:33	872496	0	0	0	0	0	0	0	0	0	0	0	0	0	0	0	0	0
071012	18:01:33	10023	Trial2BackEng	N	3	0	1000	1	78	18:01:33	874015	0	0	0	0	0	0	0	0	0	0	0	0	0	0	0	0	0
071012	18:01:33	10023	Trial2BackEng	N	3	0	1000	1	79	18:01:33	875534	0	0	0	0	0	0	0	0	0	0	0	0	0	0	0	0	0
071012	18:01:33	10023	Trial2BackEng	N	3	0	1000	1	80	18:01:33	877054	0	0	0	0	0	0	0	0	0	0	0	0	0	0	0	0	0
071012	18:01:33	10023	Trial2BackEng	N	3	57	647	0	80	18:01:33	878227	0	0	0	0	0	0	0	0	0	0	0	0	0	0	0	0	0
071012	18:01:33	10023	Trial2BackEng	N	3	0	1000	1	81	18:01:33	880079	0	0	0	0	0	0	0	0	0	0	0	0	0	0	0	0	0
071012	18:01:33	10023	Trial2BackEng	N	3	0	1000	1	82	18:01:33	881599	0	0	0	0	0	0	0	0	0	0	0	0	0	0	0	0	0
071012	18:01:33	10023	Trial2BackEng	Y	3	57	694	1	83	18:01:33	882825	0	0	0	0	0	0	0	0	0	0	0	0	0	0	0	0	0
071012	18:01:33	10023	Trial2BackEng	N	3	0	1000	1	84	18:01:33	884624	0	0	0	0	0	0	0	0	0	0	0	0	0	0	0	0	0
071012	18:01:33	10023	Trial2BackEng	N	3	0	1000	1	85	18:01:33	886143	0	0	0	0	0	0	0	0	0	0	0	0	0	0	0	0	0
071012	18:01:33	10023	Trial2BackEng	N	3	0	1000	1	86	18:01:33	887663	0	0	0	0	0	0	0	0	0	0	0	0	0	0	0	0	0
071012	18:01:33	10023	Trial2BackEng	N	3	0	1000	1	87	18:01:33	889182	0	0	0	0	0	0	0	0	0	0	0	0	0	0	0	0	0
071012	18:01:33	10023	Trial2BackEng	Y	3	0	1000	0	87	18:01:33	890702	0	0	0	0	0	0	0	0	0	0	0	0	0	0	0	0	0
071012	18:01:33	10023	Trial2BackEng	N	3	0	1000	1	88	18:01:33	892221	0	0	0	0	0	0	0	0	0	0	0	0	0	0	0	0	0
071012	18:01:33	10023	Trial2BackEng	N	3	57	791	0	88	18:01:33	893540	0	0	0	0	0	0	0	0	0	0	0	0	0	0	0	0	0
071012	18:01:33	10023	Trial2BackEng	N	3	0	1000	1	89	18:01:33	895246	0	0	0	0	0	0	0	0	0	0	0	0	0	0	0	0	0
071012	18:01:33	10023	Trial2BackEng	Y	3	0	1000	0	89	18:01:33	896766	0	0	0	0	0	0	0	0	0	0	0	0	0	0	0	0	0
071012	18:01:33	10023	Trial2BackEng	N	3	0	1000	1	90	18:01:33	898285	0	0	0	0	0	0	0	0	0	0	0	0	0	0	0	0	0
071012	18:01:33	10023	Trial2BackEng	N	3	0	1000	1	91	18:01:33	899804	0	0	0	0	0	0	0	0	0	0	0	0	0	0	0	0	0
071012	18:01:33	10023	Trial2BackEng	N	3	57	535	0	91	18:01:33	900871	0	0	0	0	0	0	0	0	0	0	0	0	0	0	0	0	0
071012	18:01:33	10023	Trial2BackEng	N	3	0	1000	1	92	18:01:33	902830	0	0	0	0	0	0	0	0	0	0	0	0	0	0	0	0	0
071012	18:01:33	10023	Trial2BackEng	N	3	0	1000	1	93	18:01:33	904349	0	0	0	0	0	0	0	0	0	0	0	0	0	0	0	0	0
071012	18:01:33	10023	Trial2BackEng	Y	3	0	1000	0	93	18:01:33	905869	0	0	0	0	0	0	0	0	0	0	0	0	0	0	0	0	0
071012	18:01:33	10023	Trial2BackEng	N	3	0	1000	1	94	18:01:33	907388	0	0	0	0	0	0	0	0	0	0	0	0	0	0	0	0	0
071012	18:01:33	10023	Trial2BackEng	N	3	0	1000	1	95	18:01:33	908908	0	0	0	0	0	0	0	0	0	0	0	0	0	0	0	0	0
071012	18:01:33	10023	Trial2BackEng	N	3	0	1000	1	96	18:01:33	910427	0	0	0	0	0	0	0	0	0	0	0	0	0	0	0	0	0
071012	18:01:33	10023	Trial2BackEng	Y	3	57	585	1	97	18:01:33	911547	0	0	0	0	0	0	0	0	0	0	0	0	0	0	0	0	0
071012	18:01:33	10023	Memory1RBaseline	Score	5	M1	17274	0	97	18:01:33	967231	0	0	0	0	0	0	0	0	0	0	0	0	0	0	0	0	0
071012	18:01:33	10023	Memory1RBaseline	Score	5	M3	356	0	97	18:01:33	967631	0	0	0	0	0	0	0	0	0	0	0	0	0	0	0	0	0
071012	18:01:33	10023	Memory1RBaseline	Score	5	M3	635	0	97	18:01:33	968310	0	0	0	0	0	0	0	0	0	0	0	0	0	0	0	0	0
071012	18:01:33	10023	Memory1RBaseline	Score	5	M2	284	0	97	18:01:33	968630	0	0	0	0	0	0	0	0	0	0	0	0	0	0	0	0	0
071012	18:01:33	10023	Memory1RBaseline	Score	5	M4	1844	0	97	18:01:33	970510	0	0	0	0	0	0	0	0	0	0	0	0	0	0	0	0	0
071012	18:01:33	10023	Memory1RBaseline	Score	5	Done	1045	0	97	18:01:33	971589	0	0	0	0	0	0	0	0	0	0	0	0	0	0	0	0	0
071012	18:01:33	10023	Memory2RBaseline	Score2	5	11	18242	0	97	18:01:33	1013372	0	0	0	0	0	0	0	0	0	0	0	0	0	0	0	0	0
071012	18:01:33	10023	Memory2RBaseline	Score2	5	22	356	0	97	18:01:33	1013772	0	0	0	0	0	0	0	0	0	0	0	0	0	0	0	0	0
071012	18:01:33	10023	Memory2RBaseline	Score2	5	44	309	0	97	18:01:33	1014118	0	0	0	0	0	0	0	0	0	0	0	0	0	0	0	0	0
071012	18:01:33	10023	Memory2RBaseline	Score2	5	33	299	0	97	18:01:33	1014452	0	0	0	0	0	0	0	0	0	0	0	0	0	0	0	0	0
071012	18:01:33	10023	Memory2RBaseline	Score2	5	55	557	0	97	18:01:33	1015052	0	0	0	0	0	0	0	0	0	0	0	0	0	0	0	0	0
071012	18:01:33	10023	Memory2RBaseline	Score2	5	88	533	0	97	18:01:33	1015625	0	0	0	0	0	0	0	0	0	0	0	0	0	0	0	0	0
071012	18:01:33	10023	Memory2RBaseline	Score2	5	Done	5144	0	97	18:01:33	1020809	0	0	0	0	0	0	0	0	0	0	0	0	0	0	0	0	0
071012	18:01:33	10023	Memory3RBaseline	Score3	5	111	18548	0	97	18:01:33	1060980	0	0	0	0	0	0	0	0	0	0	0	0	0	0	0	0	0
071012	18:01:33	10023	Memory3RBaseline	Score3	5	222	356	0	97	18:01:33	1061379	0	0	0	0	0	0	0	0	0	0	0	0	0	0	0	0	0
071012	18:01:33	10023	Memory3RBaseline	Score3	5	333	1220	0	97	18:01:33	1062646	0	0	0	0	0	0	0	0	0	0	0	0	0	0	0	0	0
071012	18:01:33	10023	Memory3RBaseline	Score3	5	444	466	0	97	18:01:33	1063152	0	0	0	0	0	0	0	0	0	0	0	0	0	0	0	0	0
071012	18:01:33	10023	Memory3RBaseline	Score3	5	555	1064	0	97	18:01:33	1064258	0	0	0	0	0	0	0	0	0	0	0	0	0	0	0	0	0
071012	18:01:33	10023	Memory3RBaseline	Score3	5	666	502	0	97	18:01:33	1064805	0	0	0	0	0	0	0	0	0	0	0	0	0	0	0	0	0
071012	18:01:33	10023	Memory3RBaseline	Score3	5	777	1219	0	97	18:01:33	1066058	0	0	0	0	0	0	0	0	0	0	0	0	0	0	0	0	0
071012	18:01:33	10023	Memory3RBaseline	Score3	5	888	934	0	97	18:01:33	1067030	0	0	0	0	0	0	0	0	0	0	0	0	0	0	0	0	0
071012	18:01:33	10023	Memory3RBaseline	Score3	5	Done	4017	0	97	18:01:33	1071082	0	0	0	0	0	0	0	0	0	0	0	0	0	0	0	0	0
071012	18:01:33	10023	LoriaEngLH3	Stop	6	4	3832	0	97	18:01:33	1177001	0	0	0	0	0	0	0	0	0	0	0	0	0	0	0	0	0
071012	18:01:33	10023	EngTrail	Trails	7	1Trails	1147	0	97	18:01:33	1246771	0	0	0	0	0	0	0	0	0	0	0	0	0	0	0	0	0
071012	18:01:33	10023	Serial7EngBaseline	Serial7EngBaseline	8	83	1989	0	97	18:01:33	1303296	1	0	0	0	0	0	0	0	0	0	0	0	0	0	0	0	0
071012	18:01:33	10023	Serial7EngBaseline	Serial7EngBaseline	8	75	3047	0	97	18:01:33	1306361	1	0	0	0	0	0	0	0	0	0	0	0	0	0	0	0	0
071012	18:01:33	10023	Serial7EngBaseline	Serial7EngBaseline	8	67	3117	0	97	18:01:33	1309507	1	0	0	0	0	0	0	0	0	0	0	0	0	0	0	0	0
071012	18:01:33	10023	Serial7EngBaseline	Serial7EngBaseline	8	60	3364	0	97	18:01:33	1312892	2	0	0	0	0	0	0	0	0	0	0	0	0	0	0	0	0
071012	18:01:33	10023	Serial7EngBaseline	Serial7EngBaseline	8	53	2851	0	97	18:01:33	1315772	3	0	0	0	0	0	0	0	0	0	0	0	0	0	0	0	0
071012	18:01:33	10023	corsiblockEngFwrd	recallseqEngFwrd	9	1	2968	0	97	18:01:33	1403349	3	0	0	0	0	0	0	0	0	0	0	0	0	0	0	0	0
071012	18:01:33	10023	corsiblockEngFwrd	recallseqEngFwrd	9	4	1123	0	97	18:01:33	1404509	3	0	0	0	0	0	0	0	0	0	0	0	0	0	0	0	0
071012	18:01:33	10023	corsiblockEngFwrd	recallseqEngFwrd	9	doneCorsiEng	1188	0	97	18:01:33	1405735	3	0	0	0	0	0	0	0	0	0	0	0	0	0	0	0	0
071012	18:01:33	10023	corsiblockEngFwrd	recallseqEngFwrd	9	3	734	0	97	18:01:33	1411519	3	0	0	0	0	0	0	0	0	0	0	0	0	0	0	0	0
071012	18:01:33	10023	corsiblockEngFwrd	recallseqEngFwrd	9	7	1634	0	97	18:01:33	1413199	3	0	0	0	0	0	0	0	0	0	0	0	0	0	0	0	0
071012	18:01:33	10023	corsiblockEngFwrd	recallseqEngFwrd	9	doneCorsiEng	1450	0	97	18:01:33	1414691	3	0	0	0	0	0	0	0	0	0	0	0	0	0	0	2	0
071012	18:01:33	10023	corsiblockEngFwrd	recallseqEngFwrd	9	5	922	0	97	18:01:33	1420702	3	0	0	0	0	0	0	0	0	0	0	0	0	0	0	2	0
071012	18:01:33	10023	corsiblockEngFwrd	recallseqEngFwrd	9	2	826	0	97	18:01:33	1421569	3	0	0	0	0	0	0	0	0	0	0	0	0	0	0	2	0
071012	18:01:33	10023	corsiblockEngFwrd	recallseqEngFwrd	9	9	712	0	97	18:01:33	1422315	3	0	0	0	0	0	0	0	0	0	0	0	0	0	0	2	0
071012	18:01:33	10023	corsiblockEngFwrd	recallseqEngFwrd	9	doneCorsiEng	1078	0	97	18:01:33	1423435	3	0	0	0	0	0	0	0	0	0	0	0	0	0	0	3	0
071012	18:01:33	10023	corsiblockEngFwrd	recallseqEngFwrd	9	6	899	0	97	18:01:33	1431418	3	0	0	0	0	0	0	0	0	0	0	0	0	0	0	3	0
071012	18:01:33	10023	corsiblockEngFwrd	recallseqEngFwrd	9	8	1111	0	97	18:01:33	1432564	3	0	0	0	0	0	0	0	0	0	0	0	0	0	0	3	0
071012	18:01:33	10023	corsiblockEngFwrd	recallseqEngFwrd	9	7	748	0	97	18:01:33	1433351	3	0	0	0	0	0	0	0	0	0	0	0	0	0	0	3	0
071012	18:01:33	10023	corsiblockEngFwrd	recallseqEngFwrd	9	1	1178	0	97	18:01:33	1434563	3	0	0	0	0	0	0	0	0	0	0	0	0	0	0	3	0
071012	18:01:33	10023	corsiblockEngFwrd	recallseqEngFwrd	9	doneCorsiEng	1589	0	97	18:01:33	1436189	3	0	0	0	0	0	0	0	0	0	0	0	0	0	0	4	0
071012	18:01:33	10023	corsiblockEngFwrd	recallseqEngFwrd	9	5	1953	0	97	18:01:33	1446225	3	0	0	0	0	0	0	0	0	0	0	0	0	0	0	4	0
071012	18:01:33	10023	corsiblockEngFwrd	recallseqEngFwrd	9	9	991	0	97	18:01:33	1447252	3	0	0	0	0	0	0	0	0	0	0	0	0	0	0	4	0
071012	18:01:33	10023	corsiblockEngFwrd	recallseqEngFwrd	9	2	877	0	97	18:01:33	1448171	3	0	0	0	0	0	0	0	0	0	0	0	0	0	0	4	0
071012	18:01:33	10023	corsiblockEngFwrd	recallseqEngFwrd	9	4	797	0	97	18:01:33	1449011	3	0	0	0	0	0	0	0	0	0	0	0	0	0	0	4	0
071012	18:01:33	10023	corsiblockEngFwrd	recallseqEngFwrd	9	doneCorsiEng	1197	0	97	18:01:33	1450250	3	0	0	0	0	0	0	0	0	0	0	0	0	0	0	4	0
071012	18:01:33	10023	corsiblockEngFwrd	recallseqEngFwrd	9	8	868	0	97	18:01:33	1459167	3	0	0	0	0	0	0	0	0	0	0	0	0	0	0	4	0
071012	18:01:33	10023	corsiblockEngFwrd	recallseqEngFwrd	9	3	849	0	97	18:01:33	1460060	3	0	0	0	0	0	0	0	0	0	0	0	0	0	0	4	0
071012	18:01:33	10023	corsiblockEngFwrd	recallseqEngFwrd	9	7	868	0	97	18:01:33	1460966	3	0	0	0	0	0	0	0	0	0	0	0	0	0	0	4	0
071012	18:01:33	10023	corsiblockEngFwrd	recallseqEngFwrd	9	5	738	0	97	18:01:33	1461739	3	0	0	0	0	0	0	0	0	0	0	0	0	0	0	4	0
071012	18:01:33	10023	corsiblockEngFwrd	recallseqEngFwrd	9	1	845	0	97	18:01:33	1462619	3	0	0	0	0	0	0	0	0	0	0	0	0	0	0	4	0
071012	18:01:33	10023	corsiblockEngFwrd	recallseqEngFwrd	9	doneCorsiEng	1589	0	97	18:01:33	1464245	3	0	0	0	0	0	0	0	0	0	0	0	0	0	0	4	0
071012	18:01:33	10023	corsiblockEngRev	recallseqEngRev	10	5	946	0	97	18:01:33	1476960	3	0	0	0	0	0	0	0	0	0	0	0	0	0	0	4	0
071012	18:01:33	10023	corsiblockEngRev	recallseqEngRev	10	3	904	0	97	18:01:33	1477906	3	0	0	0	0	0	0	0	0	0	0	0	0	0	0	4	0
071012	18:01:33	10023	corsiblockEngRev	recallseqEngRev	10	doneCorsiEng	990	0	97	18:01:33	1478932	3	0	0	0	0	0	0	0	0	0	0	0	0	0	0	4	2
071012	18:01:33	10023	corsiblockEngRev	recallseqEngRev	10	9	1944	0	97	18:01:33	1486969	3	0	0	0	0	0	0	0	0	0	0	0	0	0	0	4	2
071012	18:01:33	10023	corsiblockEngRev	recallseqEngRev	10	4	1054	0	97	18:01:33	1488062	3	0	0	0	0	0	0	0	0	0	0	0	0	0	0	4	2
071012	18:01:33	10023	corsiblockEngRev	recallseqEngRev	10	7	1065	0	97	18:01:33	1489168	3	0	0	0	0	0	0	0	0	0	0	0	0	0	0	4	2
071012	18:01:33	10023	corsiblockEngRev	recallseqEngRev	10	doneCorsiEng	1239	0	97	18:01:33	1490447	3	0	0	0	0	0	0	0	0	0	0	0	0	0	0	4	3
071012	18:01:33	10023	corsiblockEngRev	recallseqEngRev	10	2	1005	0	97	18:01:33	1498538	3	0	0	0	0	0	0	0	0	0	0	0	0	0	0	4	3
071012	18:01:33	10023	corsiblockEngRev	recallseqEngRev	10	1	902	0	97	18:01:33	1499484	3	0	0	0	0	0	0	0	0	0	0	0	0	0	0	4	3
071012	18:01:33	10023	corsiblockEngRev	recallseqEngRev	10	6	883	0	97	18:01:33	1500403	3	0	0	0	0	0	0	0	0	0	0	0	0	0	0	4	3
071012	18:01:33	10023	corsiblockEngRev	recallseqEngRev	10	8	1036	0	97	18:01:33	1501483	3	0	0	0	0	0	0	0	0	0	0	0	0	0	0	4	3
071012	18:01:33	10023	corsiblockEngRev	recallseqEngRev	10	doneCorsiEng	884	0	97	18:01:33	1502403	3	0	0	0	0	0	0	0	0	0	0	0	0	0	0	4	4
071012	18:01:33	10023	corsiblockEngRev	recallseqEngRev	10	9	978	0	97	18:01:33	1511466	3	0	0	0	0	0	0	0	0	0	0	0	0	0	0	4	4
071012	18:01:33	10023	corsiblockEngRev	recallseqEngRev	10	4	940	0	97	18:01:33	1512452	3	0	0	0	0	0	0	0	0	0	0	0	0	0	0	4	4
071012	18:01:33	10023	corsiblockEngRev	recallseqEngRev	10	7	2691	0	97	18:01:33	1515184	3	0	0	0	0	0	0	0	0	0	0	0	0	0	0	4	4
071012	18:01:33	10023	corsiblockEngRev	recallseqEngRev	10	1	1639	0	97	18:01:33	1516864	3	0	0	0	0	0	0	0	0	0	0	0	0	0	0	4	4
071012	18:01:33	10023	corsiblockEngRev	recallseqEngRev	10	doneCorsiEng	1055	0	97	18:01:33	1517956	3	0	0	0	0	0	0	0	0	0	0	0	0	0	0	4	4
071012	18:01:33	10023	corsiblockEngRev	recallseqEngRev	10	9	1200	0	97	18:01:33	1527206	3	0	0	0	0	0	0	0	0	0	0	0	0	0	0	4	4
071012	18:01:33	10023	corsiblockEngRev	recallseqEngRev	10	8	1592	0	97	18:01:33	1528832	3	0	0	0	0	0	0	0	0	0	0	0	0	0	0	4	4
071012	18:01:33	10023	corsiblockEngRev	recallseqEngRev	10	5	1198	0	97	18:01:33	1530071	3	0	0	0	0	0	0	0	0	0	0	0	0	0	0	4	4
071012	18:01:33	10023	corsiblockEngRev	recallseqEngRev	10	6	1023	0	97	18:01:33	1531138	3	0	0	0	0	0	0	0	0	0	0	0	0	0	0	4	4
071012	18:01:33	10023	corsiblockEngRev	recallseqEngRev	10	1	904	0	97	18:01:33	1532084	3	0	0	0	0	0	0	0	0	0	0	0	0	0	0	4	4
071012	18:01:33	10023	corsiblockEngRev	recallseqEngRev	10	doneCorsiEng	1402	0	97	18:01:33	1533523	3	0	0	0	0	0	0	0	0	0	0	0	0	0	0	4	4
071012	18:01:33	10023	testEngBaseline	WordsEngBaseline	11	1EngBaseline	628	0	97	18:01:33	1575867	3	1	0	0	0	0	0	0	0	0	0	0	0	0	0	4	4
071012	18:01:33	10023	testEngBaseline	WordsEngBaseline	11	1EngBaseline	547	0	97	18:01:33	1576453	3	1	0	0	0	0	0	0	0	0	0	0	0	0	0	4	4
071012	18:01:33	10023	testEngBaseline	WordsEngBaseline	11	2EngBaseline	289	0	97	18:01:33	1576786	3	1	1	0	0	0	0	0	0	0	0	0	0	0	0	4	4
071012	18:01:33	10023	testEngBaseline	WordsEngBaseline	11	3EngBaseline	219	0	97	18:01:33	1577039	3	1	1	1	0	0	0	0	0	0	0	0	0	0	0	4	4
071012	18:01:33	10023	testEngBaseline	WordsEngBaseline	11	4EngBaseline	286	0	97	18:01:33	1577359	3	1	1	1	1	0	0	0	0	0	0	0	0	0	0	4	4
071012	18:01:33	10023	testEngBaseline	WordsEngBaseline	11	5EngBaseline	230	0	97	18:01:33	1577626	3	1	1	1	1	1	0	0	0	0	0	0	0	0	0	4	4
071012	18:01:33	10023	testEngBaseline	WordsEngBaseline	11	7EngBaseline	252	0	97	18:01:33	1577919	3	1	1	1	1	1	0	1	0	0	0	0	0	0	0	4	4
071012	18:01:33	10023	testEngBaseline	WordsEngBaseline	11	6EngBaseline	359	0	97	18:01:33	1578319	3	1	1	1	1	1	1	1	0	0	0	0	0	0	0	4	4
071012	18:01:33	10023	testEngBaseline	WordsEngBaseline	11	8EngBaseline	431	0	97	18:01:33	1578785	3	1	1	1	1	1	1	1	1	0	0	0	0	0	0	4	4
071012	18:01:33	10023	testEngBaseline	WordsEngBaseline	11	DoneEngBaseline	644	0	97	18:01:33	1579465	3	1	1	1	1	1	1	1	1	0	0	0	0	0	0	4	4
071012	18:01:33	10023	testEngBaseline	Cat1EngBaseline	11	W1EngBaseline	7759	0	97	18:01:33	1587261	3	1	1	1	1	1	1	1	1	0	0	0	0	0	0	4	4
071012	18:01:33	10023	testEngBaseline	Ch1EngBaseline	11	RR1EngBaseline	3081	0	97	18:01:33	1590394	3	3	1	1	1	1	1	1	1	0	0	0	0	0	0	4	4
071012	18:01:33	10023	DigitSpanFwrdEngBaseline	Score1FwrdEngBaseline	12	DS1	5886	0	97	18:01:33	1611505	3	3	1	1	1	1	1	1	1	0	0	0	0	0	0	4	4
071012	18:01:33	10023	DigitSpanFwrdEngBaseline	Gate1FwrdEngBaseline	12	0	1	0	97	18:01:33	1611520	3	3	1	1	1	1	1	1	1	3	0	0	0	0	0	4	4
071012	18:01:33	10023	DigitSpanFwrdEngBaseline	Score2FwrdEngBaseline	12	DS1	3817	0	97	18:01:33	1621088	3	3	1	1	1	1	1	1	1	3	0	0	0	0	0	4	4
071012	18:01:33	10023	DigitSpanFwrdEngBaseline	Gate3FwrdEngBaseline	12	0	1	0	97	18:01:33	1621103	3	3	1	1	1	1	1	1	1	4	0	0	0	0	0	4	4
071012	18:01:33	10023	DigitSpanFwrdEngBaseline	Score3FwrdEngBaseline	12	DS1	4458	0	97	18:01:33	1633349	3	3	1	1	1	1	1	1	1	4	0	0	0	0	0	4	4
071012	18:01:33	10023	DigitSpanFwrdEngBaseline	Gate5FwrdEngBaseline	12	0	1	0	97	18:01:33	1633365	3	3	1	1	1	1	1	1	1	5	0	0	0	0	0	4	4
071012	18:01:33	10023	DigitSpanFwrdEngBaseline	Score4FwrdEngBaseline	12	DS1	5659	0	97	18:01:33	1648556	3	3	1	1	1	1	1	1	1	5	0	0	0	0	0	4	4
071012	18:01:33	10023	DigitSpanFwrdEngBaseline	Gate7FwrdEngBaseline	12	0	1	0	97	18:01:33	1648572	3	3	1	1	1	1	1	1	1	6	0	0	0	0	0	4	4
071012	18:01:33	10023	DigitSpanFwrdEngBaseline	Score5FwrdEngBaseline	12	DS1	7675	0	97	18:01:33	1667309	3	3	1	1	1	1	1	1	1	6	0	0	0	0	0	4	4
071012	18:01:33	10023	DigitSpanFwrdEngBaseline	Gate9FwrdEngBaseline	12	0	1	0	97	18:01:33	1667324	3	3	1	1	1	1	1	1	1	7	0	0	0	0	0	4	4
071012	18:01:33	10023	DigitSpanFwrdEngBaseline	Score6FwrdEngBaseline	12	DS2	7049	0	97	18:01:33	1687701	3	3	1	1	1	1	1	1	1	7	0	0	0	0	0	4	4
071012	18:01:33	10023	DigitSpanFwrdEngBaseline	Gate11FwrdEngBaseline	12	0	1	0	97	18:01:33	1687716	3	3	1	1	1	1	1	1	1	7	0	0	0	0	0	4	4
071012	18:01:33	10023	DigitSpanFwrdEngBaseline	Score66FwrdEngBaseline	12	DS2	8563	0	97	18:01:33	1709452	3	3	1	1	1	1	1	1	1	7	0	0	0	0	0	4	4
071012	18:01:33	10023	DigitSpanEngBaseline	Score1EngBaseline	13	DS1	5892	0	97	18:01:33	1730137	3	3	1	1	1	1	1	1	1	7	0	0	0	0	0	4	4
071012	18:01:33	10023	DigitSpanEngBaseline	Gate1EngBaseline	13	0	1	0	97	18:01:33	1730152	3	3	1	1	1	1	1	1	1	7	2	0	0	0	0	4	4
071012	18:01:33	10023	DigitSpanEngBaseline	Score2EngBaseline	13	DS2	4958	0	97	18:01:33	1739826	3	3	1	1	1	1	1	1	1	7	2	0	0	0	0	4	4
071012	18:01:33	10023	DigitSpanEngBaseline	Gate3EngBaseline	13	0	1	0	97	18:01:33	1739841	3	3	1	1	1	1	1	1	1	7	2	0	0	0	0	4	4
071012	18:01:33	10023	DigitSpanEngBaseline	Score22EngBaseline	13	DS1	7233	0	97	18:01:33	1751861	3	3	1	1	1	1	1	1	1	7	2	0	0	0	0	4	4
071012	18:01:33	10023	DigitSpanEngBaseline	Gate4EngBaseline	13	0	1	0	97	18:01:33	1751877	3	3	1	1	1	1	1	1	1	7	3	0	0	0	0	4	4
071012	18:01:33	10023	DigitSpanEngBaseline	Score3EngBaseline	13	DS2	7188	0	97	18:01:33	1765669	3	3	1	1	1	1	1	1	1	7	3	0	0	0	0	4	4
071012	18:01:33	10023	DigitSpanEngBaseline	Gate5EngBaseline	13	0	1	0	97	18:01:33	1765684	3	3	1	1	1	1	1	1	1	7	3	0	0	0	0	4	4
071012	18:01:33	10023	DigitSpanEngBaseline	Score33EngBaseline	13	DS1	8616	0	97	18:01:33	1780610	3	3	1	1	1	1	1	1	1	7	3	0	0	0	0	4	4
071012	18:01:33	10023	DigitSpanEngBaseline	Gate6EngBaseline	13	0	1	0	97	18:01:33	1780625	3	3	1	1	1	1	1	1	1	7	4	0	0	0	0	4	4
071012	18:01:33	10023	DigitSpanEngBaseline	Score4EngBaseline	13	DS2	8578	0	97	18:01:33	1797256	3	3	1	1	1	1	1	1	1	7	4	0	0	0	0	4	4
071012	18:01:33	10023	DigitSpanEngBaseline	Gate7EngBaseline	13	0	1	0	97	18:01:33	1797272	3	3	1	1	1	1	1	1	1	7	4	0	0	0	0	4	4
071012	18:01:33	10023	DigitSpanEngBaseline	Score44EngBaseline	13	DS2	19482	0	97	18:01:33	1825018	3	3	1	1	1	1	1	1	1	7	4	0	0	0	0	4	4
071012	18:01:33	10023	Trial	IncongruentRight	14	205	508	1	97	18:01:33	1888113	3	3	1	1	1	1	1	1	1	7	4	0	0	0	0	4	4
071012	18:01:33	10023	Trial	IncongruentLeft	14	203	436	1	97	18:01:33	1889032	3	3	1	1	1	1	1	1	1	7	4	0	0	0	0	4	4
071012	18:01:33	10023	Trial	CongruentRight	14	205	381	1	97	18:01:33	1889979	3	3	1	1	1	1	1	1	1	7	4	0	0	0	0	4	4
071012	18:01:33	10023	Trial	IncongruentRight	14	203	357	0	97	18:01:33	1890952	3	3	1	1	1	1	1	1	1	7	4	0	0	0	0	4	4
071012	18:01:33	10023	Trial	CongruentLeft	14	205	368	0	97	18:01:33	1891978	3	3	1	1	1	1	1	1	1	7	4	0	0	0	0	4	4
071012	18:01:33	10023	Trial	CongruentRight	14	205	520	1	97	18:01:33	1893137	3	3	1	1	1	1	1	1	1	7	4	0	0	0	0	4	4
071012	18:01:33	10023	Trial	IncongruentRight	14	205	689	1	97	18:01:33	1894297	3	3	1	1	1	1	1	1	1	7	4	0	0	0	0	4	4
071012	18:01:33	10023	Trial	CongruentLeft	14	203	521	1	97	18:01:33	1895137	3	3	1	1	1	1	1	1	1	7	4	0	0	0	0	4	4
071012	18:01:33	10023	Trial	IncongruentLeft	14	203	610	1	97	18:01:33	1896216	3	3	1	1	1	1	1	1	1	7	4	0	0	0	0	4	4
071012	18:01:33	10023	Trial	IncongruentLeft	14	203	570	1	97	18:01:33	1897176	3	3	1	1	1	1	1	1	1	7	4	0	0	0	0	4	4
071012	18:01:33	10023	Trial	CongruentRight	14	205	403	1	97	18:01:33	1898015	3	3	1	1	1	1	1	1	1	7	4	0	0	0	0	4	4
071012	18:01:33	10023	Trial	IncongruentRight	14	203	363	0	97	18:01:33	1898975	3	3	1	1	1	1	1	1	1	7	4	0	0	0	0	4	4
071012	18:01:33	10023	Trial	CongruentLeft	14	0	737	0	97	18:01:33	1900335	3	3	1	1	1	1	1	1	1	7	4	0	0	0	0	4	4
071012	18:01:33	10023	Trial	CongruentRight	14	205	539	1	97	18:01:33	1901148	3	3	1	1	1	1	1	1	1	7	4	0	0	0	0	4	4
071012	18:01:33	10023	Trial	IncongruentLeft	14	203	580	1	97	18:01:33	1902187	3	3	1	1	1	1	1	1	1	7	4	0	0	0	0	4	4
071012	18:01:33	10023	Trial	IncongruentRight	14	205	380	1	97	18:01:33	1902987	3	3	1	1	1	1	1	1	1	7	4	0	0	0	0	4	4
071012	18:01:33	10023	Trial	CongruentRight	14	205	631	1	97	18:01:33	1904253	3	3	1	1	1	1	1	1	1	7	4	0	0	0	0	4	4
071012	18:01:33	10023	Trial	CongruentLeft	14	203	543	1	97	18:01:33	1905159	3	3	1	1	1	1	1	1	1	7	4	0	0	0	0	4	4
071012	18:01:33	10023	Trial	CongruentRight	14	205	664	1	97	18:01:33	1906279	3	3	1	1	1	1	1	1	1	7	4	0	0	0	0	4	4
071012	18:01:33	10023	Trial	IncongruentRight	14	205	720	1	97	18:01:33	1907345	3	3	1	1	1	1	1	1	1	7	4	0	0	0	0	4	4
071012	18:01:33	10023	Trial	IncongruentLeft	14	203	601	1	97	18:01:33	1908225	3	3	1	1	1	1	1	1	1	7	4	0	0	0	0	4	4
071012	18:01:33	10023	Trial	IncongruentLeft	14	203	657	1	97	18:01:33	1909277	3	3	1	1	1	1	1	1	1	7	4	0	0	0	0	4	4
071012	18:01:33	10023	Trial	CongruentLeft	14	0	737	0	97	18:01:33	1910357	3	3	1	1	1	1	1	1	1	7	4	0	0	0	0	4	4
071012	18:01:33	10023	Trial	CongruentRight	14	0	737	0	97	18:01:33	1911370	3	3	1	1	1	1	1	1	1	7	4	0	0	0	0	4	4
071012	18:01:33	10023	Trial	IncongruentLeft	14	205	256	0	97	18:01:33	1911903	3	3	1	1	1	1	1	1	1	7	4	0	0	0	0	4	4
071012	18:01:33	10023	Trial	IncongruentRight	14	0	737	0	97	18:01:33	1913383	3	3	1	1	1	1	1	1	1	7	4	0	0	0	0	4	4
071012	18:01:33	10023	Trial	CongruentRight	14	0	737	0	97	18:01:33	1914396	3	3	1	1	1	1	1	1	1	7	4	0	0	0	0	4	4
071012	18:01:33	10023	Trial	CongruentLeft	14	203	433	1	97	18:01:33	1915102	3	3	1	1	1	1	1	1	1	7	4	0	0	0	0	4	4
071012	18:01:33	10023	Trial	IncongruentRight	14	205	567	1	97	18:01:33	1916235	3	3	1	1	1	1	1	1	1	7	4	0	0	0	0	4	4
071012	18:01:33	10023	Trial	IncongruentLeft	14	203	511	1	97	18:01:33	1917181	3	3	1	1	1	1	1	1	1	7	4	0	0	0	0	4	4
071012	18:01:33	10023	Trial	IncongruentRight	14	205	522	1	97	18:01:33	1918207	3	3	1	1	1	1	1	1	1	7	4	0	0	0	0	4	4
071012	18:01:33	10023	Trial	CongruentRight	14	205	675	1	97	18:01:33	1919354	3	3	1	1	1	1	1	1	1	7	4	0	0	0	0	4	4
071012	18:01:33	10023	Trial	IncongruentLeft	14	203	459	1	97	18:01:33	1920140	3	3	1	1	1	1	1	1	1	7	4	0	0	0	0	4	4
071012	18:01:33	10023	Trial	CongruentLeft	14	203	659	1	97	18:01:33	1921339	3	3	1	1	1	1	1	1	1	7	4	0	0	0	0	4	4
071012	18:01:33	10023	Trial	CongruentRight	14	205	459	1	97	18:01:33	1922139	3	3	1	1	1	1	1	1	1	7	4	0	0	0	0	4	4
071012	18:01:33	10023	Trial	IncongruentLeft	14	203	516	1	97	18:01:33	1923192	3	3	1	1	1	1	1	1	1	7	4	0	0	0	0	4	4
071012	18:01:33	10023	Trial	IncongruentRight	14	205	540	1	97	18:01:33	1924218	3	3	1	1	1	1	1	1	1	7	4	0	0	0	0	4	4
071012	18:01:33	10023	Trial	IncongruentRight	14	205	629	1	97	18:01:33	1925311	3	3	1	1	1	1	1	1	1	7	4	0	0	0	0	4	4
071012	18:01:33	10023	Trial	CongruentLeft	14	203	509	1	97	18:01:33	1926191	3	3	1	1	1	1	1	1	1	7	4	0	0	0	0	4	4
071012	18:01:33	10023	Trial	IncongruentLeft	14	203	677	1	97	18:01:33	1927350	3	3	1	1	1	1	1	1	1	7	4	0	0	0	0	4	4
071012	18:01:33	10023	Trial	CongruentRight	14	205	478	1	97	18:01:33	1928163	3	3	1	1	1	1	1	1	1	7	4	0	0	0	0	4	4
071012	18:01:33	10023	Trial	CongruentLeft	14	203	486	1	97	18:01:33	1929163	3	3	1	1	1	1	1	1	1	7	4	0	0	0	0	4	4
071012	18:01:33	10023	Trial	IncongruentRight	14	205	655	1	97	18:01:33	1930336	3	3	1	1	1	1	1	1	1	7	4	0	0	0	0	4	4
071012	18:01:33	10023	Trial	CongruentRight	14	0	737	0	97	18:01:33	1931402	3	3	1	1	1	1	1	1	1	7	4	0	0	0	0	4	4
071012	18:01:33	10023	Trial	IncongruentLeft	14	203	463	1	97	18:01:33	1932135	3	3	1	1	1	1	1	1	1	7	4	0	0	0	0	4	4
071012	18:01:33	10023	Trial	CongruentLeft	14	0	737	0	97	18:01:33	1933414	3	3	1	1	1	1	1	1	1	7	4	0	0	0	0	4	4
071012	18:01:33	10023	Trial	IncongruentLeft	14	0	737	0	97	18:01:33	1934427	3	3	1	1	1	1	1	1	1	7	4	0	0	0	0	4	4
071012	18:01:33	10023	Trial	IncongruentRight	14	205	590	1	97	18:01:33	1935294	3	3	1	1	1	1	1	1	1	7	4	0	0	0	0	4	4
071012	18:01:33	10023	Trial	CongruentRight	14	205	662	1	97	18:01:33	1936360	3	3	1	1	1	1	1	1	1	7	4	0	0	0	0	4	4
071012	18:01:33	10023	Trial	CongruentLeft	14	203	482	1	97	18:01:33	1937186	3	3	1	1	1	1	1	1	1	7	4	0	0	0	0	4	4
071012	18:01:33	10023	Trial	CongruentLeft	14	203	650	1	97	18:01:33	1938359	3	3	1	1	1	1	1	1	1	7	4	0	0	0	0	4	4
071012	18:01:33	10023	Trial	IncongruentRight	14	205	562	1	97	18:01:33	1939279	3	3	1	1	1	1	1	1	1	7	4	0	0	0	0	4	4
071012	18:01:33	10023	Trial	IncongruentLeft	14	203	714	1	97	18:01:33	1940425	3	3	1	1	1	1	1	1	1	7	4	0	0	0	0	4	4
071012	18:01:33	10023	Trial	IncongruentRight	14	205	627	1	97	18:01:33	1941345	3	3	1	1	1	1	1	1	1	7	4	0	0	0	0	4	4
071012	18:01:33	10023	Trial	CongruentRight	14	0	737	0	97	18:01:33	1942438	3	3	1	1	1	1	1	1	1	7	4	0	0	0	0	4	4
071012	18:01:33	10023	Trial	CongruentRight	14	0	737	0	97	18:01:33	1943450	3	3	1	1	1	1	1	1	1	7	4	0	0	0	0	4	4
071012	18:01:33	10023	Trial	IncongruentLeft	14	203	526	1	97	18:01:33	1944250	3	3	1	1	1	1	1	1	1	7	4	0	0	0	0	4	4
071012	18:01:33	10023	Trial	CongruentLeft	14	203	663	1	97	18:01:33	1945383	3	3	1	1	1	1	1	1	1	7	4	0	0	0	0	4	4
071012	18:01:33	10023	Trial	CongruentRight	14	205	463	1	97	18:01:33	1946183	3	3	1	1	1	1	1	1	1	7	4	0	0	0	0	4	4
071012	18:01:33	10023	Trial	CongruentLeft	14	203	443	1	97	18:01:33	1947182	3	3	1	1	1	1	1	1	1	7	4	0	0	0	0	4	4
071012	18:01:33	10023	Trial	IncongruentRight	14	205	371	1	97	18:01:33	1948102	3	3	1	1	1	1	1	1	1	7	4	0	0	0	0	4	4
071012	18:01:33	10023	Trial	CongruentRight	14	203	427	0	97	18:01:33	1949168	3	3	1	1	1	1	1	1	1	7	4	0	0	0	0	4	4
071012	18:01:33	10023	Trial	CongruentLeft	14	203	500	1	97	18:01:33	1950234	3	3	1	1	1	1	1	1	1	7	4	0	0	0	0	4	4
071012	18:01:33	10023	Trial	IncongruentLeft	14	203	684	1	97	18:01:33	1951420	3	3	1	1	1	1	1	1	1	7	4	0	0	0	0	4	4
071012	18:01:33	10023	Trial	IncongruentLeft	14	203	724	1	97	18:01:33	1952460	3	3	1	1	1	1	1	1	1	7	4	0	0	0	0	4	4
071012	18:01:33	10023	Trial	CongruentRight	14	205	557	1	97	18:01:33	1953287	3	3	1	1	1	1	1	1	1	7	4	0	0	0	0	4	4
071012	18:01:33	10023	Trial	IncongruentRight	14	205	677	1	97	18:01:33	1954406	3	3	1	1	1	1	1	1	1	7	4	0	0	0	0	4	4
071012	18:01:33	10023	Trial	CongruentLeft	14	203	557	1	97	18:01:33	1955286	3	3	1	1	1	1	1	1	1	7	4	0	0	0	0	4	4
071012	18:01:33	10023	Trial	IncongruentRight	14	205	470	1	97	18:01:33	1956205	3	3	1	1	1	1	1	1	1	7	4	0	0	0	0	4	4
071012	18:01:33	10023	Trial	CongruentRight	14	205	513	1	97	18:01:33	1957258	3	3	1	1	1	1	1	1	1	7	4	0	0	0	0	4	4
071012	18:01:33	10023	Trial	IncongruentLeft	14	203	425	1	97	18:01:33	1958178	3	3	1	1	1	1	1	1	1	7	4	0	0	0	0	4	4
071012	18:01:33	10023	Trial	CongruentLeft	14	203	530	1	97	18:01:33	1959271	3	3	1	1	1	1	1	1	1	7	4	0	0	0	0	4	4
071012	18:01:33	10023	Trial	CongruentRight	14	205	538	1	97	18:01:33	1960284	3	3	1	1	1	1	1	1	1	7	4	0	0	0	0	4	4
071012	18:01:33	10023	Trial	IncongruentLeft	14	203	611	1	97	18:01:33	1961350	3	3	1	1	1	1	1	1	1	7	4	0	0	0	0	4	4
071012	18:01:33	10023	Trial	CongruentRight	14	205	587	1	97	18:01:33	1962336	3	3	1	1	1	1	1	1	1	7	4	0	0	0	0	4	4
071012	18:01:33	10023	Trial	CongruentRight	14	205	595	1	97	18:01:33	1963336	3	3	1	1	1	1	1	1	1	7	4	0	0	0	0	4	4
071012	18:01:33	10023	Trial	IncongruentRight	14	205	667	1	97	18:01:33	1964415	3	3	1	1	1	1	1	1	1	7	4	0	0	0	0	4	4
071012	18:01:33	10023	Trial	CongruentLeft	14	203	404	1	97	18:01:33	1965148	3	3	1	1	1	1	1	1	1	7	4	0	0	0	0	4	4
071012	18:01:33	10023	Trial	IncongruentLeft	14	203	540	1	97	18:01:33	1966281	3	3	1	1	1	1	1	1	1	7	4	0	0	0	0	4	4
071012	18:01:33	10023	Trial	CongruentLeft	14	203	533	1	97	18:01:33	1967281	3	3	1	1	1	1	1	1	1	7	4	0	0	0	0	4	4
071012	18:01:33	10023	Trial	IncongruentRight	14	205	493	1	97	18:01:33	1968241	3	3	1	1	1	1	1	1	1	7	4	0	0	0	0	4	4
071012	18:01:33	10023	Trial	IncongruentLeft	14	203	549	1	97	18:01:33	1969293	3	3	1	1	1	1	1	1	1	7	4	0	0	0	0	4	4
071012	18:01:33	10023	Trial	CongruentRight	14	205	622	1	97	18:01:33	1970360	3	3	1	1	1	1	1	1	1	7	4	0	0	0	0	4	4
071012	18:01:33	10023	Trial	CongruentLeft	14	203	486	1	97	18:01:33	1971226	3	3	1	1	1	1	1	1	1	7	4	0	0	0	0	4	4
071012	18:01:33	10023	Trial	IncongruentLeft	14	203	687	1	97	18:01:33	1972425	3	3	1	1	1	1	1	1	1	7	4	0	0	0	0	4	4
071012	18:01:33	10023	Trial	CongruentLeft	14	205	551	0	97	18:01:33	1973292	3	3	1	1	1	1	1	1	1	7	4	0	0	0	0	4	4
071012	18:01:33	10023	Trial	IncongruentRight	14	205	639	1	97	18:01:33	1974385	3	3	1	1	1	1	1	1	1	7	4	0	0	0	0	4	4
071012	18:01:33	10023	Trial	CongruentRight	14	205	711	1	97	18:01:33	1975451	3	3	1	1	1	1	1	1	1	7	4	0	0	0	0	4	4
071012	18:01:33	10023	Trial	IncongruentLeft	14	203	592	1	97	18:01:33	1976331	3	3	1	1	1	1	1	1	1	7	4	0	0	0	0	4	4
071012	18:01:33	10023	Trial	CongruentLeft	14	203	600	1	97	18:01:33	1977344	3	3	1	1	1	1	1	1	1	7	4	0	0	0	0	4	4
071012	18:01:33	10023	Trial	IncongruentRight	14	205	625	1	97	18:01:33	1978370	3	3	1	1	1	1	1	1	1	7	4	0	0	0	0	4	4
071012	18:01:33	10023	Trial	IncongruentLeft	14	203	537	1	97	18:01:33	1979276	3	3	1	1	1	1	1	1	1	7	4	0	0	0	0	4	4
071012	18:01:33	10023	Trial	CongruentLeft	14	203	674	1	97	18:01:33	1980409	3	3	1	1	1	1	1	1	1	7	4	0	0	0	0	4	4
071012	18:01:33	10023	Trial	IncongruentLeft	14	0	737	0	97	18:01:33	1981476	3	3	1	1	1	1	1	1	1	7	4	0	0	0	0	4	4
071012	18:01:33	10023	Trial	CongruentRight	14	205	485	1	97	18:01:33	1982235	3	3	1	1	1	1	1	1	1	7	4	0	0	0	0	4	4
071012	18:01:33	10023	Trial	CongruentLeft	14	203	494	1	97	18:01:33	1983248	3	3	1	1	1	1	1	1	1	7	4	0	0	0	0	4	4
071012	18:01:33	10023	Trial	IncongruentRight	14	205	518	1	97	18:01:33	1984274	3	3	1	1	1	1	1	1	1	7	4	0	0	0	0	4	4
071012	18:01:33	10023	Trial	CongruentLeft	14	0	737	0	97	18:01:33	1985487	3	3	1	1	1	1	1	1	1	7	4	0	0	0	0	4	4
071012	18:01:33	10023	Trial	CongruentRight	14	205	601	1	97	18:01:33	1986367	3	3	1	1	1	1	1	1	1	7	4	0	0	0	0	4	4
071012	18:01:33	10023	Trial	IncongruentLeft	14	203	449	1	97	18:01:33	1987206	3	3	1	1	1	1	1	1	1	7	4	0	0	0	0	4	4
071012	18:01:33	10023	Trial750Eng	IncongruentRight750	15	0	487	0	97	18:01:33	1998908	3	3	1	1	1	1	1	1	1	7	4	0	0	0	0	4	4
071012	18:01:33	10023	Trial750Eng	IncongruentLeft750	15	0	487	0	97	18:01:33	1999668	3	3	1	1	1	1	1	1	1	7	4	0	0	0	0	4	4
071012	18:01:33	10023	Trial750Eng	CongruentRight750	15	0	487	0	97	18:01:33	2000427	3	3	1	1	1	1	1	1	1	7	4	0	0	0	0	4	4
071012	18:01:33	10023	Trial750Eng	IncongruentRight750	15	0	487	0	97	18:01:33	2001187	3	3	1	1	1	1	1	1	1	7	4	0	0	0	0	4	4
071012	18:01:33	10023	Trial750Eng	CongruentLeft750	15	0	487	0	97	18:01:33	2001947	3	3	1	1	1	1	1	1	1	7	4	0	0	0	0	4	4
071012	18:01:33	10023	Trial750Eng	CongruentRight750	15	0	487	0	97	18:01:33	2002707	3	3	1	1	1	1	1	1	1	7	4	0	0	0	0	4	4
071012	18:01:33	10023	Trial750Eng	IncongruentRight750	15	0	487	0	97	18:01:33	2003466	3	3	1	1	1	1	1	1	1	7	4	0	0	0	0	4	4
071012	18:01:33	10023	Trial750Eng	CongruentLeft750	15	0	487	0	97	18:01:33	2004226	3	3	1	1	1	1	1	1	1	7	4	0	0	0	0	4	4
071012	18:01:33	10023	Trial750Eng	IncongruentLeft750	15	0	487	0	97	18:01:33	2004986	3	3	1	1	1	1	1	1	1	7	4	0	0	0	0	4	4
071012	18:01:33	10023	Trial750Eng	IncongruentLeft750	15	0	487	0	97	18:01:33	2005745	3	3	1	1	1	1	1	1	1	7	4	0	0	0	0	4	4
071012	18:01:33	10023	Trial750Eng	CongruentRight750	15	0	487	0	97	18:01:33	2006505	3	3	1	1	1	1	1	1	1	7	4	0	0	0	0	4	4
071012	18:01:33	10023	Trial750Eng	IncongruentRight750	15	0	487	0	97	18:01:33	2007264	3	3	1	1	1	1	1	1	1	7	4	0	0	0	0	4	4
071012	18:01:33	10023	Trial750Eng	CongruentLeft750	15	0	487	0	97	18:01:33	2008025	3	3	1	1	1	1	1	1	1	7	4	0	0	0	0	4	4
071012	18:01:33	10023	Trial750Eng	CongruentRight750	15	0	487	0	97	18:01:33	2008797	3	3	1	1	1	1	1	1	1	7	4	0	0	0	0	4	4
071012	18:01:33	10023	Trial750Eng	IncongruentLeft750	15	0	487	0	97	18:01:33	2009557	3	3	1	1	1	1	1	1	1	7	4	0	0	0	0	4	4
071012	18:01:33	10023	Trial750Eng	IncongruentRight750	15	0	487	0	97	18:01:33	2010317	3	3	1	1	1	1	1	1	1	7	4	0	0	0	0	4	4
071012	18:01:33	10023	Trial750Eng	CongruentRight750	15	0	487	0	97	18:01:33	2011077	3	3	1	1	1	1	1	1	1	7	4	0	0	0	0	4	4
071012	18:01:33	10023	Trial750Eng	CongruentLeft750	15	0	487	0	97	18:01:33	2011836	3	3	1	1	1	1	1	1	1	7	4	0	0	0	0	4	4
071012	18:01:33	10023	Trial750Eng	CongruentRight750	15	205	347	1	97	18:01:33	2012463	3	3	1	1	1	1	1	1	1	7	4	0	0	0	0	4	4
071012	18:01:33	10023	Trial750Eng	IncongruentRight750	15	203	307	0	97	18:01:33	2013183	3	3	1	1	1	1	1	1	1	7	4	0	0	0	0	4	4
071012	18:01:33	10023	Trial750Eng	IncongruentLeft750	15	205	329	0	97	18:01:33	2013942	3	3	1	1	1	1	1	1	1	7	4	0	0	0	0	4	4
071012	18:01:33	10023	Trial750Eng	IncongruentLeft750	15	0	487	0	97	18:01:33	2014848	3	3	1	1	1	1	1	1	1	7	4	0	0	0	0	4	4
071012	18:01:33	10023	Trial750Eng	CongruentLeft750	15	0	487	0	97	18:01:33	2015608	3	3	1	1	1	1	1	1	1	7	4	0	0	0	0	4	4
071012	18:01:33	10023	Trial750Eng	CongruentRight750	15	205	463	1	97	18:01:33	2016341	3	3	1	1	1	1	1	1	1	7	4	0	0	0	0	4	4
071012	18:01:33	10023	Trial750Eng	IncongruentLeft750	15	203	391	1	97	18:01:33	2017034	3	3	1	1	1	1	1	1	1	7	4	0	0	0	0	4	4
071012	18:01:33	10023	Trial750Eng	IncongruentRight750	15	205	445	1	97	18:01:33	2017834	3	3	1	1	1	1	1	1	1	7	4	0	0	0	0	4	4
071012	18:01:33	10023	Trial750Eng	CongruentRight750	15	0	487	0	97	18:01:33	2018620	3	3	1	1	1	1	1	1	1	7	4	0	0	0	0	4	4
071012	18:01:33	10023	Trial750Eng	CongruentLeft750	15	0	487	0	97	18:01:33	2019380	3	3	1	1	1	1	1	1	1	7	4	0	0	0	0	4	4
071012	18:01:33	10023	Trial750Eng	IncongruentRight750	15	0	487	0	97	18:01:33	2020139	3	3	1	1	1	1	1	1	1	7	4	0	0	0	0	4	4
071012	18:01:33	10023	Trial750Eng	IncongruentLeft750	15	0	487	0	97	18:01:33	2020899	3	3	1	1	1	1	1	1	1	7	4	0	0	0	0	4	4
071012	18:01:33	10023	Trial750Eng	IncongruentRight750	15	205	451	1	97	18:01:33	2021632	3	3	1	1	1	1	1	1	1	7	4	0	0	0	0	4	4
071012	18:01:33	10023	Trial750Eng	CongruentRight750	15	0	487	0	97	18:01:33	2022405	3	3	1	1	1	1	1	1	1	7	4	0	0	0	0	4	4
071012	18:01:33	10023	Trial750Eng	IncongruentLeft750	15	203	434	1	97	18:01:33	2023112	3	3	1	1	1	1	1	1	1	7	4	0	0	0	0	4	4
071012	18:01:33	10023	Trial750Eng	CongruentLeft750	15	205	394	0	97	18:01:33	2023831	3	3	1	1	1	1	1	1	1	7	4	0	0	0	0	4	4
071012	18:01:33	10023	Trial750Eng	CongruentRight750	15	0	487	0	97	18:01:33	2024671	3	3	1	1	1	1	1	1	1	7	4	0	0	0	0	4	4
071012	18:01:33	10023	Trial750Eng	IncongruentLeft750	15	203	456	1	97	18:01:33	2025404	3	3	1	1	1	1	1	1	1	7	4	0	0	0	0	4	4
071012	18:01:33	10023	Trial750Eng	IncongruentRight750	15	0	487	0	97	18:01:33	2026177	3	3	1	1	1	1	1	1	1	7	4	0	0	0	0	4	4
071012	18:01:33	10023	Trial750Eng	IncongruentRight750	15	0	487	0	97	18:01:33	2026937	3	3	1	1	1	1	1	1	1	7	4	0	0	0	0	4	4
071012	18:01:33	10023	Trial750Eng	CongruentLeft750	15	0	487	0	97	18:01:33	2027696	3	3	1	1	1	1	1	1	1	7	4	0	0	0	0	4	4
071012	18:01:33	10023	Trial750Eng	IncongruentLeft750	15	0	487	0	97	18:01:33	2028456	3	3	1	1	1	1	1	1	1	7	4	0	0	0	0	4	4
071012	18:01:33	10023	Trial750Eng	CongruentRight750	15	0	487	0	97	18:01:33	2029216	3	3	1	1	1	1	1	1	1	7	4	0	0	0	0	4	4
071012	18:01:33	10023	Trial750Eng	CongruentLeft750	15	0	487	0	97	18:01:33	2029976	3	3	1	1	1	1	1	1	1	7	4	0	0	0	0	4	4
071012	18:01:33	10023	Trial750Eng	IncongruentRight750	15	0	487	0	97	18:01:33	2030735	3	3	1	1	1	1	1	1	1	7	4	0	0	0	0	4	4
071012	18:01:33	10023	Trial750Eng	CongruentRight750	15	0	487	0	97	18:01:33	2031495	3	3	1	1	1	1	1	1	1	7	4	0	0	0	0	4	4
071012	18:01:33	10023	Trial750Eng	IncongruentLeft750	15	0	487	0	97	18:01:33	2032254	3	3	1	1	1	1	1	1	1	7	4	0	0	0	0	4	4
071012	18:01:33	10023	Trial750Eng	CongruentLeft750	15	0	487	0	97	18:01:33	2033015	3	3	1	1	1	1	1	1	1	7	4	0	0	0	0	4	4
071012	18:01:33	10023	Trial750Eng	IncongruentLeft750	15	203	289	1	97	18:01:33	2033574	3	3	1	1	1	1	1	1	1	7	4	0	0	0	0	4	4
071012	18:01:33	10023	Trial750Eng	IncongruentRight750	15	205	457	1	97	18:01:33	2034507	3	3	1	1	1	1	1	1	1	7	4	0	0	0	0	4	4
071012	18:01:33	10023	Trial750Eng	CongruentRight750	15	0	487	0	97	18:01:33	2035280	3	3	1	1	1	1	1	1	1	7	4	0	0	0	0	4	4
071012	18:01:33	10023	Trial750Eng	CongruentLeft750	15	0	487	0	97	18:01:33	2036040	3	3	1	1	1	1	1	1	1	7	4	0	0	0	0	4	4
071012	18:01:33	10023	Trial750Eng	CongruentLeft750	15	0	487	0	97	18:01:33	2036799	3	3	1	1	1	1	1	1	1	7	4	0	0	0	0	4	4
071012	18:01:33	10023	Trial750Eng	IncongruentRight750	15	0	487	0	97	18:01:33	2037559	3	3	1	1	1	1	1	1	1	7	4	0	0	0	0	4	4
071012	18:01:33	10023	Trial750Eng	IncongruentLeft750	15	0	487	0	97	18:01:33	2038319	3	3	1	1	1	1	1	1	1	7	4	0	0	0	0	4	4
071012	18:01:33	10023	Trial750Eng	IncongruentRight750	15	205	472	1	97	18:01:33	2039065	3	3	1	1	1	1	1	1	1	7	4	0	0	0	0	4	4
071012	18:01:33	10023	Trial750Eng	CongruentRight750	15	203	448	0	97	18:01:33	2039798	3	3	1	1	1	1	1	1	1	7	4	0	0	0	0	4	4
071012	18:01:33	10023	Trial750Eng	CongruentRight750	15	0	487	0	97	18:01:33	2040585	3	3	1	1	1	1	1	1	1	7	4	0	0	0	0	4	4
071012	18:01:33	10023	Trial750Eng	IncongruentLeft750	15	205	158	0	97	18:01:33	2041024	3	3	1	1	1	1	1	1	1	7	4	0	0	0	0	4	4
071012	18:01:33	10023	Trial750Eng	CongruentLeft750	15	0	487	0	97	18:01:33	2042091	3	3	1	1	1	1	1	1	1	7	4	0	0	0	0	4	4
071012	18:01:33	10023	Trial750Eng	CongruentRight750	15	205	476	1	97	18:01:33	2042837	3	3	1	1	1	1	1	1	1	7	4	0	0	0	0	4	4
071012	18:01:33	10023	Trial750Eng	CongruentLeft750	15	0	487	0	97	18:01:33	2043597	3	3	1	1	1	1	1	1	1	7	4	0	0	0	0	4	4
071012	18:01:33	10023	Trial750Eng	IncongruentRight750	15	0	487	0	97	18:01:33	2044356	3	3	1	1	1	1	1	1	1	7	4	0	0	0	0	4	4
071012	18:01:33	10023	Trial750Eng	CongruentRight750	15	0	487	0	97	18:01:33	2045116	3	3	1	1	1	1	1	1	1	7	4	0	0	0	0	4	4
071012	18:01:33	10023	Trial750Eng	CongruentLeft750	15	0	487	0	97	18:01:33	2045876	3	3	1	1	1	1	1	1	1	7	4	0	0	0	0	4	4
071012	18:01:33	10023	Trial750Eng	IncongruentLeft750	15	0	487	0	97	18:01:33	2046635	3	3	1	1	1	1	1	1	1	7	4	0	0	0	0	4	4
071012	18:01:33	10023	Trial750Eng	IncongruentLeft750	15	203	475	1	97	18:01:33	2047382	3	3	1	1	1	1	1	1	1	7	4	0	0	0	0	4	4
071012	18:01:33	10023	Trial750Eng	CongruentRight750	15	205	403	1	97	18:01:33	2048075	3	3	1	1	1	1	1	1	1	7	4	0	0	0	0	4	4
071012	18:01:33	10023	Trial750Eng	IncongruentRight750	15	203	344	0	97	18:01:33	2048768	3	3	1	1	1	1	1	1	1	7	4	0	0	0	0	4	4
071012	18:01:33	10023	Trial750Eng	CongruentLeft750	15	205	367	0	97	18:01:33	2049527	3	3	1	1	1	1	1	1	1	7	4	0	0	0	0	4	4
071012	18:01:33	10023	Trial750Eng	IncongruentRight750	15	203	375	0	97	18:01:33	2050300	3	3	1	1	1	1	1	1	1	7	4	0	0	0	0	4	4
071012	18:01:33	10023	Trial750Eng	CongruentRight750	15	0	487	0	97	18:01:33	2051154	3	3	1	1	1	1	1	1	1	7	4	0	0	0	0	4	4
071012	18:01:33	10023	Trial750Eng	IncongruentLeft750	15	0	487	0	97	18:01:33	2051913	3	3	1	1	1	1	1	1	1	7	4	0	0	0	0	4	4
071012	18:01:33	10023	Trial750Eng	CongruentLeft750	15	0	487	0	97	18:01:33	2052673	3	3	1	1	1	1	1	1	1	7	4	0	0	0	0	4	4
071012	18:01:33	10023	Trial750Eng	CongruentRight750	15	0	487	0	97	18:01:33	2053433	3	3	1	1	1	1	1	1	1	7	4	0	0	0	0	4	4
071012	18:01:33	10023	Trial750Eng	IncongruentLeft750	15	0	487	0	97	18:01:33	2054193	3	3	1	1	1	1	1	1	1	7	4	0	0	0	0	4	4
071012	18:01:33	10023	Trial750Eng	CongruentRight750	15	205	470	1	97	18:01:33	2054939	3	3	1	1	1	1	1	1	1	7	4	0	0	0	0	4	4
071012	18:01:33	10023	Trial750Eng	CongruentRight750	15	0	487	0	97	18:01:33	2055699	3	3	1	1	1	1	1	1	1	7	4	0	0	0	0	4	4
071012	18:01:33	10023	Trial750Eng	IncongruentRight750	15	0	487	0	97	18:01:33	2056458	3	3	1	1	1	1	1	1	1	7	4	0	0	0	0	4	4
071012	18:01:33	10023	Trial750Eng	CongruentLeft750	15	203	464	1	97	18:01:33	2057191	3	3	1	1	1	1	1	1	1	7	4	0	0	0	0	4	4
071012	18:01:33	10023	Trial750Eng	IncongruentLeft750	15	0	487	0	97	18:01:33	2057964	3	3	1	1	1	1	1	1	1	7	4	0	0	0	0	4	4
071012	18:01:33	10023	Trial750Eng	CongruentLeft750	15	0	487	0	97	18:01:33	2058724	3	3	1	1	1	1	1	1	1	7	4	0	0	0	0	4	4
071012	18:01:33	10023	Trial750Eng	IncongruentRight750	15	205	402	1	97	18:01:33	2059404	3	3	1	1	1	1	1	1	1	7	4	0	0	0	0	4	4
071012	18:01:33	10023	Trial750Eng	IncongruentLeft750	15	0	487	0	97	18:01:33	2060230	3	3	1	1	1	1	1	1	1	7	4	0	0	0	0	4	4
071012	18:01:33	10023	Trial750Eng	CongruentRight750	15	0	487	0	97	18:01:33	2060990	3	3	1	1	1	1	1	1	1	7	4	0	0	0	0	4	4
071012	18:01:33	10023	Trial750Eng	CongruentLeft750	15	203	473	1	97	18:01:33	2061736	3	3	1	1	1	1	1	1	1	7	4	0	0	0	0	4	4
071012	18:01:33	10023	Trial750Eng	IncongruentLeft750	15	0	487	0	97	18:01:33	2062496	3	3	1	1	1	1	1	1	1	7	4	0	0	0	0	4	4
071012	18:01:33	10023	Trial750Eng	CongruentLeft750	15	0	487	0	97	18:01:33	2063256	3	3	1	1	1	1	1	1	1	7	4	0	0	0	0	4	4
071012	18:01:33	10023	Trial750Eng	IncongruentRight750	15	205	447	1	97	18:01:33	2063975	3	3	1	1	1	1	1	1	1	7	4	0	0	0	0	4	4
071012	18:01:33	10023	Trial750Eng	CongruentRight750	15	205	455	1	97	18:01:33	2064748	3	3	1	1	1	1	1	1	1	7	4	0	0	0	0	4	4
071012	18:01:33	10023	Trial750Eng	IncongruentLeft750	15	203	461	1	97	18:01:33	2065495	3	3	1	1	1	1	1	1	1	7	4	0	0	0	0	4	4
071012	18:01:33	10023	Trial750Eng	CongruentLeft750	15	0	487	0	97	18:01:33	2066267	3	3	1	1	1	1	1	1	1	7	4	0	0	0	0	4	4
071012	18:01:33	10023	Trial750Eng	IncongruentRight750	15	205	427	1	97	18:01:33	2066974	3	3	1	1	1	1	1	1	1	7	4	0	0	0	0	4	4
071012	18:01:33	10023	Trial750Eng	IncongruentLeft750	15	203	419	1	97	18:01:33	2067720	3	3	1	1	1	1	1	1	1	7	4	0	0	0	0	4	4
071012	18:01:33	10023	Trial750Eng	CongruentLeft750	15	0	487	0	97	18:01:33	2068533	3	3	1	1	1	1	1	1	1	7	4	0	0	0	0	4	4
071012	18:01:33	10023	Trial750Eng	IncongruentLeft750	15	203	145	1	97	18:01:33	2068960	3	3	1	1	1	1	1	1	1	7	4	0	0	0	0	4	4
071012	18:01:33	10023	Trial750Eng	CongruentRight750	15	205	345	1	97	18:01:33	2069919	3	3	1	1	1	1	1	1	1	7	4	0	0	0	0	4	4
071012	18:01:33	10023	Trial750Eng	CongruentLeft750	15	205	447	0	97	18:01:33	2070759	3	3	1	1	1	1	1	1	1	7	4	0	0	0	0	4	4
071012	18:01:33	10023	Trial750Eng	IncongruentRight750	15	0	487	0	97	18:01:33	2071545	3	3	1	1	1	1	1	1	1	7	4	0	0	0	0	4	4
071012	18:01:33	10023	Trial750Eng	CongruentLeft750	15	205	125	0	97	18:01:33	2071945	3	3	1	1	1	1	1	1	1	7	4	0	0	0	0	4	4
071012	18:01:33	10023	Trial750Eng	CongruentRight750	15	0	487	0	97	18:01:33	2073051	3	3	1	1	1	1	1	1	1	7	4	0	0	0	0	4	4
071012	18:01:33	10023	Trial750Eng	IncongruentLeft750	15	0	487	0	97	18:01:33	2073811	3	3	1	1	1	1	1	1	1	7	4	0	0	0	0	4	4
071012	18:01:33	10023	WordsAbsEngBaseline	PAbsEngBaseline1	16	Abs1	4429	0	97	18:01:33	2090578	3	3	1	1	1	1	1	1	1	7	4	0	0	0	0	4	4
071012	18:01:33	10023	WordsAbsEngBaseline	AbsEngBaseline1	16	Abs1	3930	0	97	18:01:33	2094576	3	3	1	1	1	1	1	1	1	7	4	1	0	0	0	4	4
071012	18:01:33	10023	WordsAbsEngBaseline	AbsEngBaseline2	16	Abs1	6816	0	97	18:01:33	2101427	3	3	1	1	1	1	1	1	1	7	4	2	0	0	0	4	4
071012	18:01:33	10023	WordsAbsEngBaseline	AbsEngBaseline3	16	Abs1	8317	0	97	18:01:33	2109783	3	3	1	1	1	1	1	1	1	7	4	3	0	0	0	4	4
071012	18:01:33	10023	Trial2BackEngS	NS	17	0	1000	1	97	18:01:33	2210609	3	3	1	1	1	1	1	1	1	7	4	3	0	0	0	4	4
071012	18:01:33	10023	Trial2BackEngS	NS	17	0	1000	1	97	18:01:33	2212129	3	3	1	1	1	1	1	1	1	7	4	3	0	0	0	4	4
071012	18:01:33	10023	Trial2BackEngS	NS	17	0	1000	1	97	18:01:33	2213648	3	3	1	1	1	1	1	1	1	7	4	3	0	0	0	4	4
071012	18:01:33	10023	Trial2BackEngS	YS	17	57	663	1	97	18:01:33	2214834	3	3	1	1	1	1	1	1	1	7	4	3	0	0	0	4	4
071012	18:01:33	10023	Trial2BackEngS	NS	17	0	1000	1	97	18:01:33	2216673	3	3	1	1	1	1	1	1	1	7	4	3	0	0	0	4	4
071012	18:01:33	10023	Trial2BackEngS	NS	17	0	1000	1	97	18:01:33	2218193	3	3	1	1	1	1	1	1	1	7	4	3	0	0	0	4	4
071012	18:01:33	10023	Trial2BackEngS	NS	17	0	1000	1	97	18:01:33	2219712	3	3	1	1	1	1	1	1	1	7	4	3	0	0	0	4	4
071012	18:01:33	10023	Trial2BackEngS	NS	17	0	1000	1	97	18:01:33	2221231	3	3	1	1	1	1	1	1	1	7	4	3	0	0	0	4	4
071012	18:01:33	10023	Trial2BackEngS	YS	17	57	535	1	97	18:01:33	2222298	3	3	1	1	1	1	1	1	1	7	4	3	0	0	0	4	4
071012	18:01:33	10023	Trial2BackEngS	NS	17	0	1000	1	97	18:01:33	2224257	3	3	1	1	1	1	1	1	1	7	4	3	0	0	0	4	4
071012	18:01:33	10023	Trial2BackEngS	NS	17	57	741	0	97	18:01:33	2225523	3	3	1	1	1	1	1	1	1	7	4	3	0	0	0	4	4
071012	18:01:33	10023	Trial2BackEngS	YS	17	0	1000	0	97	18:01:33	2227282	3	3	1	1	1	1	1	1	1	7	4	3	0	0	0	4	4
071012	18:01:33	10023	Trial2BackEngS	NS	17	0	1000	1	97	18:01:33	2228802	3	3	1	1	1	1	1	1	1	7	4	3	0	0	0	4	4
071012	18:01:33	10023	Trial2BackEngS	NS	17	0	1000	1	97	18:01:33	2230321	3	3	1	1	1	1	1	1	1	7	4	3	0	0	0	4	4
071012	18:01:33	10023	Trial2BackEngS	NS	17	0	1000	1	97	18:01:33	2231841	3	3	1	1	1	1	1	1	1	7	4	3	0	0	0	4	4
071012	18:01:33	10023	Trial2BackEngS	YS	17	57	758	1	97	18:01:33	2233120	3	3	1	1	1	1	1	1	1	7	4	3	0	0	0	4	4
071012	18:01:33	10023	Trial2BackEngS	NS	17	0	1000	1	97	18:01:33	2234866	3	3	1	1	1	1	1	1	1	7	4	3	0	0	0	4	4
071012	18:01:33	10023	Trial2BackEngS	NS	17	0	1000	1	97	18:01:33	2236385	3	3	1	1	1	1	1	1	1	7	4	3	0	0	0	4	4
071012	18:01:33	10023	Trial2BackEngS	NS	17	0	1000	1	97	18:01:33	2237905	3	3	1	1	1	1	1	1	1	7	4	3	0	0	0	4	4
071012	18:01:33	10023	Trial2BackEngS	NS	17	0	1000	1	97	18:01:33	2239424	3	3	1	1	1	1	1	1	1	7	4	3	0	0	0	4	4
071012	18:01:33	10023	Trial2BackEngS	YS	17	57	662	1	97	18:01:33	2240610	3	3	1	1	1	1	1	1	1	7	4	3	0	0	0	4	4
071012	18:01:33	10023	Trial2BackEngS	NS	17	0	1000	1	97	18:01:33	2242450	3	3	1	1	1	1	1	1	1	7	4	3	0	0	0	4	4
071012	18:01:33	10023	Trial2BackEngS	NS	17	0	1000	1	97	18:01:33	2243969	3	3	1	1	1	1	1	1	1	7	4	3	0	0	0	4	4
071012	18:01:33	10023	Trial2BackEngS	NS	17	0	1000	1	97	18:01:33	2245488	3	3	1	1	1	1	1	1	1	7	4	3	0	0	0	4	4
071012	18:01:33	10023	Trial2BackEngS	NS	17	57	469	0	97	18:01:33	2246488	3	3	1	1	1	1	1	1	1	7	4	3	0	0	0	4	4
071012	18:01:33	10023	Trial2BackEngS	NS	17	0	1000	1	97	18:01:33	2248514	3	3	1	1	1	1	1	1	1	7	4	3	0	0	0	4	4
071012	18:01:33	10023	Trial2BackEngS	NS	17	0	1000	1	97	18:01:33	2250033	3	3	1	1	1	1	1	1	1	7	4	3	0	0	0	4	4
071012	18:01:33	10023	Trial2BackEngS	NS	17	0	1000	1	97	18:01:33	2251553	3	3	1	1	1	1	1	1	1	7	4	3	0	0	0	4	4
071012	18:01:33	10023	Trial2BackEngS	NS	17	57	645	0	97	18:01:33	2252725	3	3	1	1	1	1	1	1	1	7	4	3	0	0	0	4	4
071012	18:01:33	10023	Trial2BackEngS	NS	17	0	1000	1	97	18:01:33	2254578	3	3	1	1	1	1	1	1	1	7	4	3	0	0	0	4	4
071012	18:01:33	10023	Trial2BackEngS	NS	17	0	1000	1	97	18:01:33	2256097	3	3	1	1	1	1	1	1	1	7	4	3	0	0	0	4	4
071012	18:01:33	10023	Trial2BackEngS	YS	17	0	1000	0	97	18:01:33	2257617	3	3	1	1	1	1	1	1	1	7	4	3	0	0	0	4	4
071012	18:01:33	10023	Trial2BackEngS	NS	17	0	1000	1	97	18:01:33	2259136	3	3	1	1	1	1	1	1	1	7	4	3	0	0	0	4	4
071012	18:01:33	10023	Trial2BackEngS	NS	17	0	1000	1	97	18:01:33	2260655	3	3	1	1	1	1	1	1	1	7	4	3	0	0	0	4	4
071012	18:01:33	10023	Trial2BackEngS	NS	17	0	1000	1	97	18:01:33	2262175	3	3	1	1	1	1	1	1	1	7	4	3	0	0	0	4	4
071012	18:01:33	10023	Trial2BackEngS	YS	17	0	1000	0	97	18:01:33	2263694	3	3	1	1	1	1	1	1	1	7	4	3	0	0	0	4	4
071012	18:01:33	10023	Trial2BackEngS	NS	17	57	327	0	97	18:01:33	2264547	3	3	1	1	1	1	1	1	1	7	4	3	0	0	0	4	4
071012	18:01:33	10023	Trial2BackEngS	NS	17	0	1000	1	97	18:01:33	2266720	3	3	1	1	1	1	1	1	1	7	4	3	0	0	0	4	4
071012	18:01:33	10023	Trial2BackEngS	NS	17	0	1000	1	97	18:01:33	2268239	3	3	1	1	1	1	1	1	1	7	4	3	0	0	0	4	4
071012	18:01:33	10023	Trial2BackEngS	NS	17	57	662	0	97	18:01:33	2269425	3	3	1	1	1	1	1	1	1	7	4	3	0	0	0	4	4
071012	18:01:33	10023	Trial2BackEngS	NS	17	0	1000	1	97	18:01:33	2271265	3	3	1	1	1	1	1	1	1	7	4	3	0	0	0	4	4
071012	18:01:33	10023	Trial2BackEngS	NS	17	0	1000	1	97	18:01:33	2272784	3	3	1	1	1	1	1	1	1	7	4	3	0	0	0	4	4
071012	18:01:33	10023	Trial2BackEngS	NS	17	0	1000	1	97	18:01:33	2274303	3	3	1	1	1	1	1	1	1	7	4	3	0	0	0	4	4
071012	18:01:33	10023	Trial2BackEngS	YS	17	0	1000	0	97	18:01:33	2275823	3	3	1	1	1	1	1	1	1	7	4	3	0	0	0	4	4
071012	18:01:33	10023	Trial2BackEngS	NS	17	0	1000	1	97	18:01:33	2277342	3	3	1	1	1	1	1	1	1	7	4	3	0	0	0	4	4
071012	18:01:33	10023	Trial2BackEngS	NS	17	57	695	0	97	18:01:33	2278568	3	3	1	1	1	1	1	1	1	7	4	3	0	0	0	4	4
071012	18:01:33	10023	Trial2BackEngS	NS	17	0	1000	1	97	18:01:33	2280368	3	3	1	1	1	1	1	1	1	7	4	3	0	0	0	4	4
071012	18:01:33	10023	Trial2BackEngS	NS	17	0	1000	1	97	18:01:33	2281887	3	3	1	1	1	1	1	1	1	7	4	3	0	0	0	4	4
071012	18:01:33	10023	Trial2BackEngS	YS	17	57	854	1	97	18:01:33	2283273	3	3	1	1	1	1	1	1	1	7	4	3	0	0	0	4	4
071012	18:01:33	10023	Trial2BackEngS	NS	17	0	1000	1	97	18:01:33	2284912	3	3	1	1	1	1	1	1	1	7	4	3	0	0	0	4	4
071012	18:01:33	10023	Trial2BackEngS	NS	17	0	1000	1	97	18:01:33	2286432	3	3	1	1	1	1	1	1	1	7	4	3	0	0	0	4	4
071012	18:01:33	10023	Trial2BackEngS	NS	17	0	1000	1	97	18:01:33	2287951	3	3	1	1	1	1	1	1	1	7	4	3	0	0	0	4	4
071012	18:01:33	10023	Trial2BackEngS	NS	17	0	1000	1	97	18:01:33	2289471	3	3	1	1	1	1	1	1	1	7	4	3	0	0	0	4	4
071012	18:01:33	10023	Trial2BackEngS	NS	17	0	1000	1	97	18:01:33	2290990	3	3	1	1	1	1	1	1	1	7	4	3	0	0	0	4	4
071012	18:01:33	10023	Trial2BackEngS	NS	17	0	1000	1	97	18:01:33	2292509	3	3	1	1	1	1	1	1	1	7	4	3	0	0	0	4	4
071012	18:01:33	10023	Trial2BackEngS	YS	17	0	1000	0	97	18:01:33	2294029	3	3	1	1	1	1	1	1	1	7	4	3	0	0	0	4	4
071012	18:01:33	10023	Trial2BackEngS	NS	17	0	1000	1	97	18:01:33	2295548	3	3	1	1	1	1	1	1	1	7	4	3	0	0	0	4	4
071012	18:01:33	10023	Trial2BackEngS	NS	17	57	456	0	97	18:01:33	2296534	3	3	1	1	1	1	1	1	1	7	4	3	0	0	0	4	4
071012	18:01:33	10023	Trial2BackEngS	NS	17	0	1000	1	97	18:01:33	2298573	3	3	1	1	1	1	1	1	1	7	4	3	0	0	0	4	4
071012	18:01:33	10023	Trial2BackEngS	NS	17	0	1000	1	97	18:01:33	2300093	3	3	1	1	1	1	1	1	1	7	4	3	0	0	0	4	4
071012	18:01:33	10023	Trial2BackEngS	NS	17	0	1000	1	97	18:01:33	2301612	3	3	1	1	1	1	1	1	1	7	4	3	0	0	0	4	4
071012	18:01:33	10023	Trial2BackEngS	NS	17	0	1000	1	97	18:01:33	2303132	3	3	1	1	1	1	1	1	1	7	4	3	0	0	0	4	4
071012	18:01:33	10023	Trial2BackEngS	NS	17	57	489	0	97	18:01:33	2304145	3	3	1	1	1	1	1	1	1	7	4	3	0	0	0	4	4
071012	18:01:33	10023	Trial2BackEngS	YS	17	0	1000	0	97	18:01:33	2306157	3	3	1	1	1	1	1	1	1	7	4	3	0	0	0	4	4
071012	18:01:33	10023	Trial2BackEngS	NS	17	0	1000	1	97	18:01:33	2307676	3	3	1	1	1	1	1	1	1	7	4	3	0	0	0	4	4
071012	18:01:33	10023	Trial2BackEngS	NS	17	0	1000	1	97	18:01:33	2309196	3	3	1	1	1	1	1	1	1	7	4	3	0	0	0	4	4
071012	18:01:33	10023	Trial2BackEngS	NS	17	0	1000	1	97	18:01:33	2310715	3	3	1	1	1	1	1	1	1	7	4	3	0	0	0	4	4
071012	18:01:33	10023	Trial2BackEngS	NS	17	0	1000	1	97	18:01:33	2312235	3	3	1	1	1	1	1	1	1	7	4	3	0	0	0	4	4
071012	18:01:33	10023	Trial2BackEngS	YS	17	57	522	1	97	18:01:33	2313288	3	3	1	1	1	1	1	1	1	7	4	3	0	0	0	4	4
071012	18:01:33	10023	Trial2BackEngS	NS	17	0	1000	1	97	18:01:33	2315260	3	3	1	1	1	1	1	1	1	7	4	3	0	0	0	4	4
071012	18:01:33	10023	Trial2BackEngS	NS	17	0	1000	1	97	18:01:33	2316779	3	3	1	1	1	1	1	1	1	7	4	3	0	0	0	4	4
071012	18:01:33	10023	Trial2BackEngS	YS	17	0	1000	0	97	18:01:33	2318299	3	3	1	1	1	1	1	1	1	7	4	3	0	0	0	4	4
071012	18:01:33	10023	Trial2BackEngS	NS	17	0	1000	1	97	18:01:33	2319818	3	3	1	1	1	1	1	1	1	7	4	3	0	0	0	4	4
071012	18:01:33	10023	Trial2BackEngS	NS	17	0	1000	1	97	18:01:33	2321338	3	3	1	1	1	1	1	1	1	7	4	3	0	0	0	4	4
071012	18:01:33	10023	Trial2BackEngS	NS	17	0	1000	1	97	18:01:33	2322857	3	3	1	1	1	1	1	1	1	7	4	3	0	0	0	4	4
071012	18:01:33	10023	Trial2BackEngS	NS	17	0	1000	1	97	18:01:33	2324377	3	3	1	1	1	1	1	1	1	7	4	3	0	0	0	4	4
071012	18:01:33	10023	Trial2BackEngS	NS	17	57	684	0	97	18:01:33	2325589	3	3	1	1	1	1	1	1	1	7	4	3	0	0	0	4	4
071012	18:01:33	10023	Trial2BackEngS	NS	17	0	1000	1	97	18:01:33	2327402	3	3	1	1	1	1	1	1	1	7	4	3	0	0	0	4	4
071012	18:01:33	10023	Trial2BackEngS	YS	17	57	650	1	97	18:01:33	2328575	3	3	1	1	1	1	1	1	1	7	4	3	0	0	0	4	4
071012	18:01:33	10023	Trial2BackEngS	NS	17	0	1000	1	97	18:01:33	2330427	3	3	1	1	1	1	1	1	1	7	4	3	0	0	0	4	4
071012	18:01:33	10023	Trial2BackEngS	NS	17	0	1000	1	97	18:01:33	2331947	3	3	1	1	1	1	1	1	1	7	4	3	0	0	0	4	4
071012	18:01:33	10023	Trial2BackEngS	NS	17	0	1000	1	97	18:01:33	2333466	3	3	1	1	1	1	1	1	1	7	4	3	0	0	0	4	4
071012	18:01:33	10023	Trial2BackEngS	NS	17	0	1000	1	97	18:01:33	2334985	3	3	1	1	1	1	1	1	1	7	4	3	0	0	0	4	4
071012	18:01:33	10023	Trial2BackEngS	YS	17	0	1000	0	97	18:01:33	2336505	3	3	1	1	1	1	1	1	1	7	4	3	0	0	0	4	4
071012	18:01:33	10023	Trial2BackEngS	NS	17	0	1000	1	97	18:01:33	2338024	3	3	1	1	1	1	1	1	1	7	4	3	0	0	0	4	4
071012	18:01:33	10023	Trial2BackEngS	NS	17	0	1000	1	97	18:01:33	2339543	3	3	1	1	1	1	1	1	1	7	4	3	0	0	0	4	4
071012	18:01:33	10023	Trial2BackEngS	NS	17	0	1000	1	97	18:01:33	2341063	3	3	1	1	1	1	1	1	1	7	4	3	0	0	0	4	4
071012	18:01:33	10023	Trial2BackEngS	NS	17	0	1000	1	97	18:01:33	2342582	3	3	1	1	1	1	1	1	1	7	4	3	0	0	0	4	4
071012	18:01:33	10023	Trial2BackEngS	YS	17	0	1000	0	97	18:01:33	2344102	3	3	1	1	1	1	1	1	1	7	4	3	0	0	0	4	4
071012	18:01:33	10023	Trial2BackEngS	NS	17	0	1000	1	97	18:01:33	2345621	3	3	1	1	1	1	1	1	1	7	4	3	0	0	0	4	4
071012	18:01:33	10023	Trial2BackEngS	NS	17	0	1000	1	97	18:01:33	2347141	3	3	1	1	1	1	1	1	1	7	4	3	0	0	0	4	4
071012	18:01:33	10023	Trial2BackEngS	YS	17	0	1000	0	97	18:01:33	2348660	3	3	1	1	1	1	1	1	1	7	4	3	0	0	0	4	4
071012	18:01:33	10023	Trial2BackEngS	NS	17	57	1	0	97	18:01:33	2349194	3	3	1	1	1	1	1	1	1	7	4	3	0	0	0	4	4
071012	18:01:33	10023	Trial2BackEngS	NS	17	0	1000	1	97	18:01:33	2351685	3	3	1	1	1	1	1	1	1	7	4	3	0	0	0	4	4
071012	18:01:33	10023	Trial2BackEngS	NS	17	0	1000	1	97	18:01:33	2353205	3	3	1	1	1	1	1	1	1	7	4	3	0	0	0	4	4
071012	18:01:33	10023	Trial2BackEngS	NS	17	0	1000	1	97	18:01:33	2354724	3	3	1	1	1	1	1	1	1	7	4	3	0	0	0	4	4
071012	18:01:33	10023	Trial2BackEngS	NS	17	0	1000	1	97	18:01:33	2356243	3	3	1	1	1	1	1	1	1	7	4	3	0	0	0	4	4
071012	18:01:33	10023	Trial2BackEngS	NS	17	0	1000	1	97	18:01:33	2357763	3	3	1	1	1	1	1	1	1	7	4	3	0	0	0	4	4
071012	18:01:33	10023	Trial2BackEngS	NS	17	0	1000	1	97	18:01:33	2359282	3	3	1	1	1	1	1	1	1	7	4	3	0	0	0	4	4
071012	18:01:33	10023	Trial2BackEngS	NS	17	0	1000	1	97	18:01:33	2360802	3	3	1	1	1	1	1	1	1	7	4	3	0	0	0	4	4
071012	18:01:33	10023	Trial2BackEngS	YS	17	0	1000	0	97	18:01:33	2362321	3	3	1	1	1	1	1	1	1	7	4	3	0	0	0	4	4
071012	18:01:33	10023	Trial2BackEngS	NS	17	0	1000	1	97	18:01:33	2363840	3	3	1	1	1	1	1	1	1	7	4	3	0	0	0	4	4
071012	18:01:33	10023	Trial2BackEngS	NS	17	0	1000	1	97	18:01:33	2365360	3	3	1	1	1	1	1	1	1	7	4	3	0	0	0	4	4
071012	18:01:33	10023	Trial2BackEngS	NS	17	0	1000	1	97	18:01:33	2366879	3	3	1	1	1	1	1	1	1	7	4	3	0	0	0	4	4
071012	18:01:33	10023	Trial2BackEngS	NS	17	0	1000	1	97	18:01:33	2368399	3	3	1	1	1	1	1	1	1	7	4	3	0	0	0	4	4
071012	18:01:33	10023	Trial2BackEngS	NS	17	0	1000	1	97	18:01:33	2369918	3	3	1	1	1	1	1	1	1	7	4	3	0	0	0	4	4
071012	18:01:33	10023	Trial2BackEngS	NS	17	0	1000	1	97	18:01:33	2371437	3	3	1	1	1	1	1	1	1	7	4	3	0	0	0	4	4
071012	18:01:33	10023	Trial2BackEngS	NS	17	0	1000	1	97	18:01:33	2372957	3	3	1	1	1	1	1	1	1	7	4	3	0	0	0	4	4
071012	18:01:33	10023	Trial2BackEngS	YS	17	0	1000	0	97	18:01:33	2374476	3	3	1	1	1	1	1	1	1	7	4	3	0	0	0	4	4
071012	18:01:33	10023	Trial2BackEngS	NS	17	57	551	0	97	18:01:33	2375556	3	3	1	1	1	1	1	1	1	7	4	3	0	0	0	4	4
071012	18:01:33	10023	Trial2BackEngS	NS	17	0	1000	1	97	18:01:33	2377502	3	3	1	1	1	1	1	1	1	7	4	3	0	0	0	4	4
071012	18:01:33	10023	Trial2BackEngS	NS	17	0	1000	1	97	18:01:33	2379021	3	3	1	1	1	1	1	1	1	7	4	3	0	0	0	4	4
071012	18:01:33	10023	Trial2BackEngS	NS	17	0	1000	1	97	18:01:33	2380540	3	3	1	1	1	1	1	1	1	7	4	3	0	0	0	4	4
071012	18:01:33	10023	Trial2BackEngS	NS	17	0	1000	1	97	18:01:33	2382060	3	3	1	1	1	1	1	1	1	7	4	3	0	0	0	4	4
071012	18:01:33	10023	Trial2BackEngS	NS	17	0	1000	1	97	18:01:33	2383579	3	3	1	1	1	1	1	1	1	7	4	3	0	0	0	4	4
071012	18:01:33	10023	Trial2BackEngS	NS	17	0	1000	1	97	18:01:33	2385098	3	3	1	1	1	1	1	1	1	7	4	3	0	0	0	4	4
071012	18:01:33	10023	Trial2BackEngS	NS	17	0	1000	1	97	18:01:33	2386618	3	3	1	1	1	1	1	1	1	7	4	3	0	0	0	4	4
071012	18:01:33	10023	Trial2BackEngS	NS	17	0	1000	1	97	18:01:33	2388137	3	3	1	1	1	1	1	1	1	7	4	3	0	0	0	4	4
071012	18:01:33	10023	Trial2BackEngS	YS	17	57	537	1	97	18:01:33	2389204	3	3	1	1	1	1	1	1	1	7	4	3	0	0	0	4	4
071012	18:01:33	10023	Trial2BackEngS	NS	17	0	1000	1	97	18:01:33	2391163	3	3	1	1	1	1	1	1	1	7	4	3	0	0	0	4	4
071012	18:01:33	10023	ClockEngBaseline	ClockEngBaseline	19	Clock1	50875	0	97	18:01:33	2442156	3	3	1	1	1	1	1	1	1	7	4	3	1	0	0	4	4
071012	18:01:33	10023	ClockEngBaseline	ClockEngBaseline	19	Clock22	517	0	97	18:01:33	2442715	3	3	1	1	1	1	1	1	1	7	4	3	1	0	0	4	4
071012	18:01:33	10023	ClockEngBaseline	ClockEngBaseline	19	Clock111	421	0	97	18:01:33	2443182	3	3	1	1	1	1	1	1	1	7	4	3	1	0	1	4	4
071012	18:01:33	10023	ClockEngBaseline	ClockEngBaseline	19	Clockdone	515	0	97	18:01:33	2443742	3	3	1	1	1	1	1	1	1	7	4	3	1	0	1	4	4
071012	18:01:33	10023	FASEngVFBaseline	StopEngVFBaseline	20	18	5937	0	97	18:01:33	2541823	3	3	1	1	1	1	1	1	1	7	4	3	1	0	1	4	4
