date	time	subject	blockcode	trialcode	values.TaskNumber	response	latency	correct	values.Score	script.starttime	script.elapsedtime	values.ScoreS7	values.Word1	values.Word2	values.Word3	values.Word4	values.Word5	values.Word6	values.Word7	values.Word8	values.DigitSpanFwrd	values.DigitSpanBack	values.ScoreAbs	values.Contour	values.Numbers	values.Hands	values.corsiblockspanFwrd	values.corsiblockspanRev
083112	12:31:24	10039	Language	Language	0	French	23695	0	0	12:31:24	23828	0	0	0	0	0	0	0	0	0	0	0	0	0	0	0	0	0
083112	12:31:24	10039	Session	Session	0	Baseline	820	0	0	12:31:24	24720	0	0	0	0	0	0	0	0	0	0	0	0	0	0	0	0	0
083112	12:31:24	10039	HandFr	HandFr	0	RightFr	1811961	0	0	12:31:24	1836760	0	0	0	0	0	0	0	0	0	0	0	0	0	0	0	0	0
083112	12:31:24	10039	AudioCheckFr	WordsFr	0	0	0	0	0	12:31:24	1892753	0	0	0	0	0	0	0	0	0	0	0	0	0	0	0	0	0
083112	12:31:24	10039	CubeFr	CubeFr	1	1Cube	42660	0	0	12:31:24	1938891	0	0	0	0	0	0	0	0	0	0	0	0	0	0	0	0	0
083112	12:31:24	10039	pm.simpleFrRight	blank.simpleFr	2	0	1687	1	0	12:31:24	2008902	0	0	0	0	0	0	0	0	0	0	0	0	0	0	0	0	0
083112	12:31:24	10039	pm.simpleFrRight	pm.simpleFr	2	57	660	0	0	12:31:24	2009595	0	0	0	0	0	0	0	0	0	0	0	0	0	0	0	0	0
083112	12:31:24	10039	pm.simpleFrRight	blank.simpleFr	2	0	2487	1	0	12:31:24	2012114	0	0	0	0	0	0	0	0	0	0	0	0	0	0	0	0	0
083112	12:31:24	10039	pm.simpleFrRight	pm.simpleFr	2	57	632	0	0	12:31:24	2012781	0	0	0	0	0	0	0	0	0	0	0	0	0	0	0	0	0
083112	12:31:24	10039	pm.simpleFrRight	blank.simpleFr	2	0	2387	1	0	12:31:24	2015193	0	0	0	0	0	0	0	0	0	0	0	0	0	0	0	0	0
083112	12:31:24	10039	pm.simpleFrRight	pm.simpleFr	2	57	353	0	0	12:31:24	2015579	0	0	0	0	0	0	0	0	0	0	0	0	0	0	0	0	0
083112	12:31:24	10039	pm.simpleFrRight	blank.simpleFr	2	0	1587	1	0	12:31:24	2017192	0	0	0	0	0	0	0	0	0	0	0	0	0	0	0	0	0
083112	12:31:24	10039	pm.simpleFrRight	pm.simpleFr	2	57	338	0	0	12:31:24	2017565	0	0	0	0	0	0	0	0	0	0	0	0	0	0	0	0	0
083112	12:31:24	10039	pm.simpleFrRight	blank.simpleFr	2	0	1987	1	0	12:31:24	2019578	0	0	0	0	0	0	0	0	0	0	0	0	0	0	0	0	0
083112	12:31:24	10039	pm.simpleFrRight	pm.simpleFr	2	57	929	0	0	12:31:24	2020538	0	0	0	0	0	0	0	0	0	0	0	0	0	0	0	0	0
083112	12:31:24	10039	pm.simpleFrRight	blank.simpleFr	2	0	1887	1	0	12:31:24	2022457	0	0	0	0	0	0	0	0	0	0	0	0	0	0	0	0	0
083112	12:31:24	10039	pm.simpleFrRight	pm.simpleFr	2	57	402	0	0	12:31:24	2022896	0	0	0	0	0	0	0	0	0	0	0	0	0	0	0	0	0
083112	12:31:24	10039	pm.simpleFrRight	blank.simpleFr	2	0	2287	1	0	12:31:24	2025216	0	0	0	0	0	0	0	0	0	0	0	0	0	0	0	0	0
083112	12:31:24	10039	pm.simpleFrRight	pm.simpleFr	2	57	363	0	0	12:31:24	2025615	0	0	0	0	0	0	0	0	0	0	0	0	0	0	0	0	0
083112	12:31:24	10039	pm.simpleFrRight	blank.simpleFr	2	0	2187	1	0	12:31:24	2027828	0	0	0	0	0	0	0	0	0	0	0	0	0	0	0	0	0
083112	12:31:24	10039	pm.simpleFrRight	pm.simpleFr	2	57	390	0	0	12:31:24	2028254	0	0	0	0	0	0	0	0	0	0	0	0	0	0	0	0	0
083112	12:31:24	10039	pm.simpleFrRight	blank.simpleFr	2	0	1787	1	0	12:31:24	2030067	0	0	0	0	0	0	0	0	0	0	0	0	0	0	0	0	0
083112	12:31:24	10039	pm.simpleFrRight	pm.simpleFr	2	57	279	0	0	12:31:24	2030387	0	0	0	0	0	0	0	0	0	0	0	0	0	0	0	0	0
083112	12:31:24	10039	pm.simpleFrRight	blank.simpleFr	2	0	1487	1	0	12:31:24	2031906	0	0	0	0	0	0	0	0	0	0	0	0	0	0	0	0	0
083112	12:31:24	10039	pm.simpleFrRight	pm.simpleFr	2	57	280	0	0	12:31:24	2032226	0	0	0	0	0	0	0	0	0	0	0	0	0	0	0	0	0
083112	12:31:24	10039	pm.simpleFrRight	blank.simpleFr	2	0	2087	1	0	12:31:24	2034345	0	0	0	0	0	0	0	0	0	0	0	0	0	0	0	0	0
083112	12:31:24	10039	pm.simpleFrRight	pm.simpleFr	2	57	273	0	0	12:31:24	2034652	0	0	0	0	0	0	0	0	0	0	0	0	0	0	0	0	0
083112	12:31:24	10039	pm.simpleFrRight	blank.simpleFr	2	0	1987	1	0	12:31:24	2036664	0	0	0	0	0	0	0	0	0	0	0	0	0	0	0	0	0
083112	12:31:24	10039	pm.simpleFrRight	pm.simpleFr	2	57	274	0	0	12:31:24	2036971	0	0	0	0	0	0	0	0	0	0	0	0	0	0	0	0	0
083112	12:31:24	10039	pm.simpleFrRight	blank.simpleFr	2	0	2487	1	0	12:31:24	2039490	0	0	0	0	0	0	0	0	0	0	0	0	0	0	0	0	0
083112	12:31:24	10039	pm.simpleFrRight	pm.simpleFr	2	57	248	0	0	12:31:24	2039770	0	0	0	0	0	0	0	0	0	0	0	0	0	0	0	0	0
083112	12:31:24	10039	pm.simpleFrRight	blank.simpleFr	2	0	1887	1	0	12:31:24	2041689	0	0	0	0	0	0	0	0	0	0	0	0	0	0	0	0	0
083112	12:31:24	10039	pm.simpleFrRight	pm.simpleFr	2	57	289	0	0	12:31:24	2042009	0	0	0	0	0	0	0	0	0	0	0	0	0	0	0	0	0
083112	12:31:24	10039	pm.simpleFrRight	blank.simpleFr	2	0	2187	1	0	12:31:24	2044221	0	0	0	0	0	0	0	0	0	0	0	0	0	0	0	0	0
083112	12:31:24	10039	pm.simpleFrRight	pm.simpleFr	2	57	269	0	0	12:31:24	2044528	0	0	0	0	0	0	0	0	0	0	0	0	0	0	0	0	0
083112	12:31:24	10039	pm.simpleFrRight	blank.simpleFr	2	0	1487	1	0	12:31:24	2046034	0	0	0	0	0	0	0	0	0	0	0	0	0	0	0	0	0
083112	12:31:24	10039	pm.simpleFrRight	pm.simpleFr	2	57	296	0	0	12:31:24	2046367	0	0	0	0	0	0	0	0	0	0	0	0	0	0	0	0	0
083112	12:31:24	10039	pm.simpleFrRight	blank.simpleFr	2	0	2287	1	0	12:31:24	2048686	0	0	0	0	0	0	0	0	0	0	0	0	0	0	0	0	0
083112	12:31:24	10039	pm.simpleFrRight	pm.simpleFr	2	57	252	0	0	12:31:24	2048979	0	0	0	0	0	0	0	0	0	0	0	0	0	0	0	0	0
083112	12:31:24	10039	pm.simpleFrRight	blank.simpleFr	2	0	1787	1	0	12:31:24	2050792	0	0	0	0	0	0	0	0	0	0	0	0	0	0	0	0	0
083112	12:31:24	10039	pm.simpleFrRight	pm.simpleFr	2	57	273	0	0	12:31:24	2051098	0	0	0	0	0	0	0	0	0	0	0	0	0	0	0	0	0
083112	12:31:24	10039	pm.simpleFrRight	blank.simpleFr	2	0	1687	1	0	12:31:24	2052818	0	0	0	0	0	0	0	0	0	0	0	0	0	0	0	0	0
083112	12:31:24	10039	pm.simpleFrRight	pm.simpleFr	2	57	328	0	0	12:31:24	2053178	0	0	0	0	0	0	0	0	0	0	0	0	0	0	0	0	0
083112	12:31:24	10039	pm.simpleFrRight	blank.simpleFr	2	0	1587	1	0	12:31:24	2054790	0	0	0	0	0	0	0	0	0	0	0	0	0	0	0	0	0
083112	12:31:24	10039	pm.simpleFrRight	pm.simpleFr	2	57	275	0	0	12:31:24	2055097	0	0	0	0	0	0	0	0	0	0	0	0	0	0	0	0	0
083112	12:31:24	10039	pm.simpleFrRight	blank.simpleFr	2	0	2087	1	0	12:31:24	2057216	0	0	0	0	0	0	0	0	0	0	0	0	0	0	0	0	0
083112	12:31:24	10039	pm.simpleFrRight	pm.simpleFr	2	57	281	0	0	12:31:24	2057536	0	0	0	0	0	0	0	0	0	0	0	0	0	0	0	0	0
083112	12:31:24	10039	pm.simpleFrRight	blank.simpleFr	2	0	2387	1	0	12:31:24	2059948	0	0	0	0	0	0	0	0	0	0	0	0	0	0	0	0	0
083112	12:31:24	10039	pm.simpleFrRight	pm.simpleFr	2	57	237	0	0	12:31:24	2060228	0	0	0	0	0	0	0	0	0	0	0	0	0	0	0	0	0
083112	12:31:24	10039	pm.simpleFrRight	blank.simpleFr	2	0	2087	1	0	12:31:24	2062347	0	0	0	0	0	0	0	0	0	0	0	0	0	0	0	0	0
083112	12:31:24	10039	pm.simpleFrRight	pm.simpleFr	2	57	238	0	0	12:31:24	2062627	0	0	0	0	0	0	0	0	0	0	0	0	0	0	0	0	0
083112	12:31:24	10039	pm.simpleFrRight	blank.simpleFr	2	0	1887	1	0	12:31:24	2064546	0	0	0	0	0	0	0	0	0	0	0	0	0	0	0	0	0
083112	12:31:24	10039	pm.simpleFrRight	pm.simpleFr	2	57	279	0	0	12:31:24	2064866	0	0	0	0	0	0	0	0	0	0	0	0	0	0	0	0	0
083112	12:31:24	10039	pm.simpleFrRight	blank.simpleFr	2	0	1787	1	0	12:31:24	2066679	0	0	0	0	0	0	0	0	0	0	0	0	0	0	0	0	0
083112	12:31:24	10039	pm.simpleFrRight	pm.simpleFr	2	57	243	0	0	12:31:24	2066959	0	0	0	0	0	0	0	0	0	0	0	0	0	0	0	0	0
083112	12:31:24	10039	pm.simpleFrRight	blank.simpleFr	2	0	2387	1	0	12:31:24	2069371	0	0	0	0	0	0	0	0	0	0	0	0	0	0	0	0	0
083112	12:31:24	10039	pm.simpleFrRight	pm.simpleFr	2	57	238	0	0	12:31:24	2069651	0	0	0	0	0	0	0	0	0	0	0	0	0	0	0	0	0
083112	12:31:24	10039	pm.simpleFrRight	blank.simpleFr	2	0	2487	1	0	12:31:24	2072170	0	0	0	0	0	0	0	0	0	0	0	0	0	0	0	0	0
083112	12:31:24	10039	pm.simpleFrRight	pm.simpleFr	2	57	255	0	0	12:31:24	2072463	0	0	0	0	0	0	0	0	0	0	0	0	0	0	0	0	0
083112	12:31:24	10039	pm.simpleFrRight	blank.simpleFr	2	0	1587	1	0	12:31:24	2074076	0	0	0	0	0	0	0	0	0	0	0	0	0	0	0	0	0
083112	12:31:24	10039	pm.simpleFrRight	pm.simpleFr	2	57	269	0	0	12:31:24	2074382	0	0	0	0	0	0	0	0	0	0	0	0	0	0	0	0	0
083112	12:31:24	10039	pm.simpleFrRight	blank.simpleFr	2	0	1987	1	0	12:31:24	2076395	0	0	0	0	0	0	0	0	0	0	0	0	0	0	0	0	0
083112	12:31:24	10039	pm.simpleFrRight	pm.simpleFr	2	57	269	0	0	12:31:24	2076701	0	0	0	0	0	0	0	0	0	0	0	0	0	0	0	0	0
083112	12:31:24	10039	pm.simpleFrRight	blank.simpleFr	2	0	1487	1	0	12:31:24	2078221	0	0	0	0	0	0	0	0	0	0	0	0	0	0	0	0	0
083112	12:31:24	10039	pm.simpleFrRight	pm.simpleFr	2	57	284	0	0	12:31:24	2078541	0	0	0	0	0	0	0	0	0	0	0	0	0	0	0	0	0
083112	12:31:24	10039	pm.simpleFrRight	blank.simpleFr	2	0	1687	1	0	12:31:24	2080260	0	0	0	0	0	0	0	0	0	0	0	0	0	0	0	0	0
083112	12:31:24	10039	pm.simpleFrRight	pm.simpleFr	2	57	276	0	0	12:31:24	2080580	0	0	0	0	0	0	0	0	0	0	0	0	0	0	0	0	0
083112	12:31:24	10039	pm.simpleFrRight	blank.simpleFr	2	0	2187	1	0	12:31:24	2082792	0	0	0	0	0	0	0	0	0	0	0	0	0	0	0	0	0
083112	12:31:24	10039	pm.simpleFrRight	pm.simpleFr	2	57	321	0	0	12:31:24	2083152	0	0	0	0	0	0	0	0	0	0	0	0	0	0	0	0	0
083112	12:31:24	10039	pm.simpleFrRight	blank.simpleFr	2	0	2287	1	0	12:31:24	2085471	0	0	0	0	0	0	0	0	0	0	0	0	0	0	0	0	0
083112	12:31:24	10039	pm.simpleFrRight	pm.simpleFr	2	57	250	0	0	12:31:24	2085751	0	0	0	0	0	0	0	0	0	0	0	0	0	0	0	0	0
083112	12:31:24	10039	pm.simpleFrRight	blank.simpleFr	2	0	2187	1	0	12:31:24	2087964	0	0	0	0	0	0	0	0	0	0	0	0	0	0	0	0	0
083112	12:31:24	10039	pm.simpleFrRight	pm.simpleFr	2	57	253	0	0	12:31:24	2088257	0	0	0	0	0	0	0	0	0	0	0	0	0	0	0	0	0
083112	12:31:24	10039	pm.simpleFrRight	blank.simpleFr	2	0	2287	1	0	12:31:24	2090576	0	0	0	0	0	0	0	0	0	0	0	0	0	0	0	0	0
083112	12:31:24	10039	pm.simpleFrRight	pm.simpleFr	2	57	265	0	0	12:31:24	2090883	0	0	0	0	0	0	0	0	0	0	0	0	0	0	0	0	0
083112	12:31:24	10039	pm.simpleFrRight	blank.simpleFr	2	0	2087	1	0	12:31:24	2093001	0	0	0	0	0	0	0	0	0	0	0	0	0	0	0	0	0
083112	12:31:24	10039	pm.simpleFrRight	pm.simpleFr	2	57	287	0	0	12:31:24	2093321	0	0	0	0	0	0	0	0	0	0	0	0	0	0	0	0	0
083112	12:31:24	10039	pm.simpleFrRight	blank.simpleFr	2	0	1987	1	0	12:31:24	2095334	0	0	0	0	0	0	0	0	0	0	0	0	0	0	0	0	0
083112	12:31:24	10039	pm.simpleFrRight	pm.simpleFr	2	57	259	0	0	12:31:24	2095627	0	0	0	0	0	0	0	0	0	0	0	0	0	0	0	0	0
083112	12:31:24	10039	pm.simpleFrRight	blank.simpleFr	2	0	2387	1	0	12:31:24	2098040	0	0	0	0	0	0	0	0	0	0	0	0	0	0	0	0	0
083112	12:31:24	10039	pm.simpleFrRight	pm.simpleFr	2	57	240	0	0	12:31:24	2098319	0	0	0	0	0	0	0	0	0	0	0	0	0	0	0	0	0
083112	12:31:24	10039	pm.simpleFrRight	blank.simpleFr	2	0	1487	1	0	12:31:24	2099839	0	0	0	0	0	0	0	0	0	0	0	0	0	0	0	0	0
083112	12:31:24	10039	pm.simpleFrRight	pm.simpleFr	2	57	314	0	0	12:31:24	2100185	0	0	0	0	0	0	0	0	0	0	0	0	0	0	0	0	0
083112	12:31:24	10039	pm.simpleFrRight	blank.simpleFr	2	0	1887	1	0	12:31:24	2102105	0	0	0	0	0	0	0	0	0	0	0	0	0	0	0	0	0
083112	12:31:24	10039	pm.simpleFrRight	pm.simpleFr	2	57	224	0	0	12:31:24	2102371	0	0	0	0	0	0	0	0	0	0	0	0	0	0	0	0	0
083112	12:31:24	10039	Trial2BackFr	N	3	0	1000	1	1	12:31:24	2220830	0	0	0	0	0	0	0	0	0	0	0	0	0	0	0	0	0
083112	12:31:24	10039	Trial2BackFr	N	3	0	1000	1	2	12:31:24	2222349	0	0	0	0	0	0	0	0	0	0	0	0	0	0	0	0	0
083112	12:31:24	10039	Trial2BackFr	N	3	0	1000	1	3	12:31:24	2223869	0	0	0	0	0	0	0	0	0	0	0	0	0	0	0	0	0
083112	12:31:24	10039	Trial2BackFr	N	3	0	1000	1	4	12:31:24	2225388	0	0	0	0	0	0	0	0	0	0	0	0	0	0	0	0	0
083112	12:31:24	10039	Trial2BackFr	N	3	0	1000	1	5	12:31:24	2226907	0	0	0	0	0	0	0	0	0	0	0	0	0	0	0	0	0
083112	12:31:24	10039	Trial2BackFr	N	3	0	1000	1	6	12:31:24	2228427	0	0	0	0	0	0	0	0	0	0	0	0	0	0	0	0	0
083112	12:31:24	10039	Trial2BackFr	N	3	0	1000	1	7	12:31:24	2229946	0	0	0	0	0	0	0	0	0	0	0	0	0	0	0	0	0
083112	12:31:24	10039	Trial2BackFr	N	3	0	1000	1	8	12:31:24	2231466	0	0	0	0	0	0	0	0	0	0	0	0	0	0	0	0	0
083112	12:31:24	10039	Trial2BackFr	Y	3	57	768	1	9	12:31:24	2232758	0	0	0	0	0	0	0	0	0	0	0	0	0	0	0	0	0
083112	12:31:24	10039	Trial2BackFr	N	3	0	1000	1	10	12:31:24	2234491	0	0	0	0	0	0	0	0	0	0	0	0	0	0	0	0	0
083112	12:31:24	10039	Trial2BackFr	N	3	0	1000	1	11	12:31:24	2236010	0	0	0	0	0	0	0	0	0	0	0	0	0	0	0	0	0
083112	12:31:24	10039	Trial2BackFr	N	3	57	928	0	11	12:31:24	2237463	0	0	0	0	0	0	0	0	0	0	0	0	0	0	0	0	0
083112	12:31:24	10039	Trial2BackFr	Y	3	57	893	1	12	12:31:24	2238943	0	0	0	0	0	0	0	0	0	0	0	0	0	0	0	0	0
083112	12:31:24	10039	Trial2BackFr	N	3	0	1000	1	13	12:31:24	2240529	0	0	0	0	0	0	0	0	0	0	0	0	0	0	0	0	0
083112	12:31:24	10039	Trial2BackFr	N	3	0	1000	1	14	12:31:24	2242048	0	0	0	0	0	0	0	0	0	0	0	0	0	0	0	0	0
083112	12:31:24	10039	Trial2BackFr	N	3	0	1000	1	15	12:31:24	2243567	0	0	0	0	0	0	0	0	0	0	0	0	0	0	0	0	0
083112	12:31:24	10039	Trial2BackFr	N	3	0	1000	1	16	12:31:24	2245087	0	0	0	0	0	0	0	0	0	0	0	0	0	0	0	0	0
083112	12:31:24	10039	Trial2BackFr	N	3	0	1000	1	17	12:31:24	2246606	0	0	0	0	0	0	0	0	0	0	0	0	0	0	0	0	0
083112	12:31:24	10039	Trial2BackFr	Y	3	0	1000	0	17	12:31:24	2248125	0	0	0	0	0	0	0	0	0	0	0	0	0	0	0	0	0
083112	12:31:24	10039	Trial2BackFr	N	3	0	1000	1	18	12:31:24	2249645	0	0	0	0	0	0	0	0	0	0	0	0	0	0	0	0	0
083112	12:31:24	10039	Trial2BackFr	N	3	0	1000	1	19	12:31:24	2251164	0	0	0	0	0	0	0	0	0	0	0	0	0	0	0	0	0
083112	12:31:24	10039	Trial2BackFr	N	3	0	1000	1	20	12:31:24	2252684	0	0	0	0	0	0	0	0	0	0	0	0	0	0	0	0	0
083112	12:31:24	10039	Trial2BackFr	N	3	0	1000	1	21	12:31:24	2254203	0	0	0	0	0	0	0	0	0	0	0	0	0	0	0	0	0
083112	12:31:24	10039	Trial2BackFr	Y	3	57	894	1	22	12:31:24	2255629	0	0	0	0	0	0	0	0	0	0	0	0	0	0	0	0	0
083112	12:31:24	10039	Trial2BackFr	N	3	0	1000	1	23	12:31:24	2257228	0	0	0	0	0	0	0	0	0	0	0	0	0	0	0	0	0
083112	12:31:24	10039	Trial2BackFr	N	3	0	1000	1	24	12:31:24	2258748	0	0	0	0	0	0	0	0	0	0	0	0	0	0	0	0	0
083112	12:31:24	10039	Trial2BackFr	N	3	0	1000	1	25	12:31:24	2260267	0	0	0	0	0	0	0	0	0	0	0	0	0	0	0	0	0
083112	12:31:24	10039	Trial2BackFr	N	3	0	1000	1	26	12:31:24	2261787	0	0	0	0	0	0	0	0	0	0	0	0	0	0	0	0	0
083112	12:31:24	10039	Trial2BackFr	N	3	0	1000	1	27	12:31:24	2263306	0	0	0	0	0	0	0	0	0	0	0	0	0	0	0	0	0
083112	12:31:24	10039	Trial2BackFr	N	3	0	1000	1	28	12:31:24	2264825	0	0	0	0	0	0	0	0	0	0	0	0	0	0	0	0	0
083112	12:31:24	10039	Trial2BackFr	Y	3	0	1000	0	28	12:31:24	2266345	0	0	0	0	0	0	0	0	0	0	0	0	0	0	0	0	0
083112	12:31:24	10039	Trial2BackFr	N	3	0	1000	1	29	12:31:24	2267864	0	0	0	0	0	0	0	0	0	0	0	0	0	0	0	0	0
083112	12:31:24	10039	Trial2BackFr	N	3	0	1000	1	30	12:31:24	2269384	0	0	0	0	0	0	0	0	0	0	0	0	0	0	0	0	0
083112	12:31:24	10039	Trial2BackFr	N	3	0	1000	1	31	12:31:24	2270903	0	0	0	0	0	0	0	0	0	0	0	0	0	0	0	0	0
083112	12:31:24	10039	Trial2BackFr	Y	3	0	1000	0	31	12:31:24	2272422	0	0	0	0	0	0	0	0	0	0	0	0	0	0	0	0	0
083112	12:31:24	10039	Trial2BackFr	N	3	0	1000	1	32	12:31:24	2273942	0	0	0	0	0	0	0	0	0	0	0	0	0	0	0	0	0
083112	12:31:24	10039	Trial2BackFr	N	3	0	1000	1	33	12:31:24	2275461	0	0	0	0	0	0	0	0	0	0	0	0	0	0	0	0	0
083112	12:31:24	10039	Trial2BackFr	N	3	0	1000	1	34	12:31:24	2276980	0	0	0	0	0	0	0	0	0	0	0	0	0	0	0	0	0
083112	12:31:24	10039	Trial2BackFr	N	3	0	1000	1	35	12:31:24	2278500	0	0	0	0	0	0	0	0	0	0	0	0	0	0	0	0	0
083112	12:31:24	10039	Trial2BackFr	N	3	0	1000	1	36	12:31:24	2280019	0	0	0	0	0	0	0	0	0	0	0	0	0	0	0	0	0
083112	12:31:24	10039	Trial2BackFr	N	3	0	1000	1	37	12:31:24	2281539	0	0	0	0	0	0	0	0	0	0	0	0	0	0	0	0	0
083112	12:31:24	10039	Trial2BackFr	Y	3	0	1000	0	37	12:31:24	2283058	0	0	0	0	0	0	0	0	0	0	0	0	0	0	0	0	0
083112	12:31:24	10039	Trial2BackFr	N	3	0	1000	1	38	12:31:24	2284577	0	0	0	0	0	0	0	0	0	0	0	0	0	0	0	0	0
083112	12:31:24	10039	Trial2BackFr	N	3	0	1000	1	39	12:31:24	2286097	0	0	0	0	0	0	0	0	0	0	0	0	0	0	0	0	0
083112	12:31:24	10039	Trial2BackFr	N	3	57	744	0	39	12:31:24	2287363	0	0	0	0	0	0	0	0	0	0	0	0	0	0	0	0	0
083112	12:31:24	10039	Trial2BackFr	N	3	0	1000	1	40	12:31:24	2289122	0	0	0	0	0	0	0	0	0	0	0	0	0	0	0	0	0
083112	12:31:24	10039	Trial2BackFr	Y	3	0	1000	0	40	12:31:24	2290642	0	0	0	0	0	0	0	0	0	0	0	0	0	0	0	0	0
083112	12:31:24	10039	Trial2BackFr	N	3	0	1000	1	41	12:31:24	2292161	0	0	0	0	0	0	0	0	0	0	0	0	0	0	0	0	0
083112	12:31:24	10039	Trial2BackFr	N	3	0	1000	1	42	12:31:24	2293680	0	0	0	0	0	0	0	0	0	0	0	0	0	0	0	0	0
083112	12:31:24	10039	Trial2BackFr	N	3	0	1000	1	43	12:31:24	2295200	0	0	0	0	0	0	0	0	0	0	0	0	0	0	0	0	0
083112	12:31:24	10039	Trial2BackFr	N	3	0	1000	1	44	12:31:24	2296719	0	0	0	0	0	0	0	0	0	0	0	0	0	0	0	0	0
083112	12:31:24	10039	Trial2BackFr	N	3	0	1000	1	45	12:31:24	2298239	0	0	0	0	0	0	0	0	0	0	0	0	0	0	0	0	0
083112	12:31:24	10039	Trial2BackFr	Y	3	57	842	1	46	12:31:24	2299611	0	0	0	0	0	0	0	0	0	0	0	0	0	0	0	0	0
083112	12:31:24	10039	Trial2BackFr	N	3	0	1000	1	47	12:31:24	2301264	0	0	0	0	0	0	0	0	0	0	0	0	0	0	0	0	0
083112	12:31:24	10039	Trial2BackFr	N	3	0	1000	1	48	12:31:24	2302783	0	0	0	0	0	0	0	0	0	0	0	0	0	0	0	0	0
083112	12:31:24	10039	Trial2BackFr	N	3	0	1000	1	49	12:31:24	2304303	0	0	0	0	0	0	0	0	0	0	0	0	0	0	0	0	0
083112	12:31:24	10039	Trial2BackFr	N	3	0	1000	1	50	12:31:24	2305822	0	0	0	0	0	0	0	0	0	0	0	0	0	0	0	0	0
083112	12:31:24	10039	Trial2BackFr	N	3	0	1000	1	51	12:31:24	2307342	0	0	0	0	0	0	0	0	0	0	0	0	0	0	0	0	0
083112	12:31:24	10039	Trial2BackFr	N	3	0	1000	1	52	12:31:24	2308861	0	0	0	0	0	0	0	0	0	0	0	0	0	0	0	0	0
083112	12:31:24	10039	Trial2BackFr	Y	3	57	779	1	53	12:31:24	2310167	0	0	0	0	0	0	0	0	0	0	0	0	0	0	0	0	0
083112	12:31:24	10039	Trial2BackFr	N	3	0	1000	1	54	12:31:24	2311886	0	0	0	0	0	0	0	0	0	0	0	0	0	0	0	0	0
083112	12:31:24	10039	Trial2BackFr	N	3	0	1000	1	55	12:31:24	2313406	0	0	0	0	0	0	0	0	0	0	0	0	0	0	0	0	0
083112	12:31:24	10039	Trial2BackFr	Y	3	57	842	1	56	12:31:24	2314779	0	0	0	0	0	0	0	0	0	0	0	0	0	0	0	0	0
083112	12:31:24	10039	Trial2BackFr	N	3	0	1000	1	57	12:31:24	2316431	0	0	0	0	0	0	0	0	0	0	0	0	0	0	0	0	0
083112	12:31:24	10039	Trial2BackFr	N	3	0	1000	1	58	12:31:24	2317951	0	0	0	0	0	0	0	0	0	0	0	0	0	0	0	0	0
083112	12:31:24	10039	Trial2BackFr	N	3	0	1000	1	59	12:31:24	2319470	0	0	0	0	0	0	0	0	0	0	0	0	0	0	0	0	0
083112	12:31:24	10039	Trial2BackFr	N	3	0	1000	1	60	12:31:24	2320989	0	0	0	0	0	0	0	0	0	0	0	0	0	0	0	0	0
083112	12:31:24	10039	Trial2BackFr	N	3	0	1000	1	61	12:31:24	2322509	0	0	0	0	0	0	0	0	0	0	0	0	0	0	0	0	0
083112	12:31:24	10039	Trial2BackFr	N	3	0	1000	1	62	12:31:24	2324028	0	0	0	0	0	0	0	0	0	0	0	0	0	0	0	0	0
083112	12:31:24	10039	Trial2BackFr	N	3	0	1000	1	63	12:31:24	2325548	0	0	0	0	0	0	0	0	0	0	0	0	0	0	0	0	0
083112	12:31:24	10039	Trial2BackFr	N	3	0	1000	1	64	12:31:24	2327067	0	0	0	0	0	0	0	0	0	0	0	0	0	0	0	0	0
083112	12:31:24	10039	Trial2BackFr	N	3	0	1000	1	65	12:31:24	2328586	0	0	0	0	0	0	0	0	0	0	0	0	0	0	0	0	0
083112	12:31:24	10039	Trial2BackFr	N	3	0	1000	1	66	12:31:24	2330106	0	0	0	0	0	0	0	0	0	0	0	0	0	0	0	0	0
083112	12:31:24	10039	Trial2BackFr	Y	3	57	734	1	67	12:31:24	2331372	0	0	0	0	0	0	0	0	0	0	0	0	0	0	0	0	0
083112	12:31:24	10039	Trial2BackFr	N	3	0	1000	1	68	12:31:24	2333131	0	0	0	0	0	0	0	0	0	0	0	0	0	0	0	0	0
083112	12:31:24	10039	Trial2BackFr	N	3	0	1000	1	69	12:31:24	2334651	0	0	0	0	0	0	0	0	0	0	0	0	0	0	0	0	0
083112	12:31:24	10039	Trial2BackFr	N	3	0	1000	1	70	12:31:24	2336170	0	0	0	0	0	0	0	0	0	0	0	0	0	0	0	0	0
083112	12:31:24	10039	Trial2BackFr	Y	3	57	654	1	71	12:31:24	2337356	0	0	0	0	0	0	0	0	0	0	0	0	0	0	0	0	0
083112	12:31:24	10039	Trial2BackFr	N	3	0	1000	1	72	12:31:24	2339195	0	0	0	0	0	0	0	0	0	0	0	0	0	0	0	0	0
083112	12:31:24	10039	Trial2BackFr	N	3	0	1000	1	73	12:31:24	2340715	0	0	0	0	0	0	0	0	0	0	0	0	0	0	0	0	0
083112	12:31:24	10039	Trial2BackFr	N	3	0	1000	1	74	12:31:24	2342234	0	0	0	0	0	0	0	0	0	0	0	0	0	0	0	0	0
083112	12:31:24	10039	Trial2BackFr	N	3	0	1000	1	75	12:31:24	2343753	0	0	0	0	0	0	0	0	0	0	0	0	0	0	0	0	0
083112	12:31:24	10039	Trial2BackFr	N	3	0	1000	1	76	12:31:24	2345273	0	0	0	0	0	0	0	0	0	0	0	0	0	0	0	0	0
083112	12:31:24	10039	Trial2BackFr	Y	3	0	1000	0	76	12:31:24	2346792	0	0	0	0	0	0	0	0	0	0	0	0	0	0	0	0	0
083112	12:31:24	10039	Trial2BackFr	N	3	0	1000	1	77	12:31:24	2348312	0	0	0	0	0	0	0	0	0	0	0	0	0	0	0	0	0
083112	12:31:24	10039	Trial2BackFr	N	3	0	1000	1	78	12:31:24	2349831	0	0	0	0	0	0	0	0	0	0	0	0	0	0	0	0	0
083112	12:31:24	10039	Trial2BackFr	N	3	0	1000	1	79	12:31:24	2351350	0	0	0	0	0	0	0	0	0	0	0	0	0	0	0	0	0
083112	12:31:24	10039	Trial2BackFr	N	3	0	1000	1	80	12:31:24	2352870	0	0	0	0	0	0	0	0	0	0	0	0	0	0	0	0	0
083112	12:31:24	10039	Trial2BackFr	N	3	0	1000	1	81	12:31:24	2354389	0	0	0	0	0	0	0	0	0	0	0	0	0	0	0	0	0
083112	12:31:24	10039	Trial2BackFr	N	3	0	1000	1	82	12:31:24	2355909	0	0	0	0	0	0	0	0	0	0	0	0	0	0	0	0	0
083112	12:31:24	10039	Trial2BackFr	N	3	0	1000	1	83	12:31:24	2357428	0	0	0	0	0	0	0	0	0	0	0	0	0	0	0	0	0
083112	12:31:24	10039	Trial2BackFr	N	3	0	1000	1	84	12:31:24	2358947	0	0	0	0	0	0	0	0	0	0	0	0	0	0	0	0	0
083112	12:31:24	10039	Trial2BackFr	N	3	0	1000	1	85	12:31:24	2360467	0	0	0	0	0	0	0	0	0	0	0	0	0	0	0	0	0
083112	12:31:24	10039	Trial2BackFr	Y	3	57	692	1	86	12:31:24	2361693	0	0	0	0	0	0	0	0	0	0	0	0	0	0	0	0	0
083112	12:31:24	10039	Trial2BackFr	N	3	0	1000	1	87	12:31:24	2363492	0	0	0	0	0	0	0	0	0	0	0	0	0	0	0	0	0
083112	12:31:24	10039	Trial2BackFr	N	3	0	1000	1	88	12:31:24	2365012	0	0	0	0	0	0	0	0	0	0	0	0	0	0	0	0	0
083112	12:31:24	10039	Trial2BackFr	N	3	0	1000	1	89	12:31:24	2366531	0	0	0	0	0	0	0	0	0	0	0	0	0	0	0	0	0
083112	12:31:24	10039	Trial2BackFr	N	3	0	1000	1	90	12:31:24	2368050	0	0	0	0	0	0	0	0	0	0	0	0	0	0	0	0	0
083112	12:31:24	10039	Trial2BackFr	N	3	0	1000	1	91	12:31:24	2369570	0	0	0	0	0	0	0	0	0	0	0	0	0	0	0	0	0
083112	12:31:24	10039	Trial2BackFr	N	3	0	1000	1	92	12:31:24	2371089	0	0	0	0	0	0	0	0	0	0	0	0	0	0	0	0	0
083112	12:31:24	10039	Trial2BackFr	N	3	0	1000	1	93	12:31:24	2372608	0	0	0	0	0	0	0	0	0	0	0	0	0	0	0	0	0
083112	12:31:24	10039	Trial2BackFr	N	3	0	1000	1	94	12:31:24	2374128	0	0	0	0	0	0	0	0	0	0	0	0	0	0	0	0	0
083112	12:31:24	10039	Trial2BackFr	Y	3	57	647	1	95	12:31:24	2375301	0	0	0	0	0	0	0	0	0	0	0	0	0	0	0	0	0
083112	12:31:24	10039	Trial2BackFr	N	3	0	1000	1	96	12:31:24	2377153	0	0	0	0	0	0	0	0	0	0	0	0	0	0	0	0	0
083112	12:31:24	10039	Trial2BackFr	N	3	0	1000	1	97	12:31:24	2378673	0	0	0	0	0	0	0	0	0	0	0	0	0	0	0	0	0
083112	12:31:24	10039	Trial2BackFr	N	3	0	1000	1	98	12:31:24	2380192	0	0	0	0	0	0	0	0	0	0	0	0	0	0	0	0	0
083112	12:31:24	10039	Trial2BackFr	N	3	0	1000	1	99	12:31:24	2381711	0	0	0	0	0	0	0	0	0	0	0	0	0	0	0	0	0
083112	12:31:24	10039	Trial2BackFr	Y	3	57	679	1	100	12:31:24	2382925	0	0	0	0	0	0	0	0	0	0	0	0	0	0	0	0	0
083112	12:31:24	10039	Trial2BackFr	N	3	0	1000	1	101	12:31:24	2384737	0	0	0	0	0	0	0	0	0	0	0	0	0	0	0	0	0
083112	12:31:24	10039	Trial2BackFr	N	3	0	1000	1	102	12:31:24	2386256	0	0	0	0	0	0	0	0	0	0	0	0	0	0	0	0	0
083112	12:31:24	10039	Trial2BackFr	N	3	0	1000	1	103	12:31:24	2387776	0	0	0	0	0	0	0	0	0	0	0	0	0	0	0	0	0
083112	12:31:24	10039	Trial2BackFr	Y	3	57	599	1	104	12:31:24	2388909	0	0	0	0	0	0	0	0	0	0	0	0	0	0	0	0	0
083112	12:31:24	10039	Trial2BackFr	N	3	0	1000	1	105	12:31:24	2390801	0	0	0	0	0	0	0	0	0	0	0	0	0	0	0	0	0
083112	12:31:24	10039	Trial2BackFr	N	3	0	1000	1	106	12:31:24	2392321	0	0	0	0	0	0	0	0	0	0	0	0	0	0	0	0	0
083112	12:31:24	10039	Trial2BackFr	N	3	0	1000	1	107	12:31:24	2393840	0	0	0	0	0	0	0	0	0	0	0	0	0	0	0	0	0
083112	12:31:24	10039	Trial2BackFr	N	3	0	1000	1	108	12:31:24	2395359	0	0	0	0	0	0	0	0	0	0	0	0	0	0	0	0	0
083112	12:31:24	10039	Trial2BackFr	N	3	0	1000	1	109	12:31:24	2396879	0	0	0	0	0	0	0	0	0	0	0	0	0	0	0	0	0
083112	12:31:24	10039	Trial2BackFr	Y	3	57	967	1	110	12:31:24	2398371	0	0	0	0	0	0	0	0	0	0	0	0	0	0	0	0	0
083112	12:31:24	10039	Trial2BackFr	N	3	0	1000	1	111	12:31:24	2399904	0	0	0	0	0	0	0	0	0	0	0	0	0	0	0	0	0
083112	12:31:24	10039	Trial2BackFr	N	3	0	1000	1	112	12:31:24	2401424	0	0	0	0	0	0	0	0	0	0	0	0	0	0	0	0	0
083112	12:31:24	10039	Trial2BackFr	N	3	0	1000	1	113	12:31:24	2402943	0	0	0	0	0	0	0	0	0	0	0	0	0	0	0	0	0
083112	12:31:24	10039	Trial2BackFr	Y	3	57	807	1	114	12:31:24	2404276	0	0	0	0	0	0	0	0	0	0	0	0	0	0	0	0	0
083112	12:31:24	10039	Memory1RBaselineFr	ScoreFr	5	M1	17841	0	114	12:31:24	2508207	0	0	0	0	0	0	0	0	0	0	0	0	0	0	0	0	0
083112	12:31:24	10039	Memory1RBaselineFr	ScoreFr	5	M5	604	0	114	12:31:24	2508847	0	0	0	0	0	0	0	0	0	0	0	0	0	0	0	0	0
083112	12:31:24	10039	Memory1RBaselineFr	ScoreFr	5	Done	804	0	114	12:31:24	2509687	0	0	0	0	0	0	0	0	0	0	0	0	0	0	0	0	0
083112	12:31:24	10039	Memory2RBaselineFr	ScoreFr2	5	11	17280	0	114	12:31:24	2547471	0	0	0	0	0	0	0	0	0	0	0	0	0	0	0	0	0
083112	12:31:24	10039	Memory2RBaselineFr	ScoreFr2	5	22	186	0	114	12:31:24	2547698	0	0	0	0	0	0	0	0	0	0	0	0	0	0	0	0	0
083112	12:31:24	10039	Memory2RBaselineFr	ScoreFr2	5	55	1880	0	114	12:31:24	2549617	0	0	0	0	0	0	0	0	0	0	0	0	0	0	0	0	0
083112	12:31:24	10039	Memory2RBaselineFr	ScoreFr2	5	88	777	0	114	12:31:24	2550430	0	0	0	0	0	0	0	0	0	0	0	0	0	0	0	0	0
083112	12:31:24	10039	Memory2RBaselineFr	ScoreFr2	5	Done	492	0	114	12:31:24	2550963	0	0	0	0	0	0	0	0	0	0	0	0	0	0	0	0	0
083112	12:31:24	10039	Memory3RBaselineFr	ScoreFr3	5	111	18351	0	114	12:31:24	2587522	0	0	0	0	0	0	0	0	0	0	0	0	0	0	0	0	0
083112	12:31:24	10039	Memory3RBaselineFr	ScoreFr3	5	222	1152	0	114	12:31:24	2588708	0	0	0	0	0	0	0	0	0	0	0	0	0	0	0	0	0
083112	12:31:24	10039	Memory3RBaselineFr	ScoreFr3	5	333	397	0	114	12:31:24	2589148	0	0	0	0	0	0	0	0	0	0	0	0	0	0	0	0	0
083112	12:31:24	10039	Memory3RBaselineFr	ScoreFr3	5	555	1549	0	114	12:31:24	2590734	0	0	0	0	0	0	0	0	0	0	0	0	0	0	0	0	0
083112	12:31:24	10039	Memory3RBaselineFr	ScoreFr3	5	Done	819	0	114	12:31:24	2591587	0	0	0	0	0	0	0	0	0	0	0	0	0	0	0	0	0
083112	12:31:24	10039	LoriaFrLH3	Stop	6	8	6852	0	114	12:31:24	2742074	0	0	0	0	0	0	0	0	0	0	0	0	0	0	0	0	0
083112	12:31:24	10039	FrTrail	Trails	7	1Trails	1711	0	114	12:31:24	2828318	0	0	0	0	0	0	0	0	0	0	0	0	0	0	0	0	0
083112	12:31:24	10039	Serial7FrBaseline	Serial7FrBaseline	8	83	2827	0	114	12:31:24	2929944	1	0	0	0	0	0	0	0	0	0	0	0	0	0	0	0	0
083112	12:31:24	10039	Serial7FrBaseline	Serial7FrBaseline	8	76	2629	0	114	12:31:24	2932597	2	0	0	0	0	0	0	0	0	0	0	0	0	0	0	0	0
083112	12:31:24	10039	Serial7FrBaseline	Serial7FrBaseline	8	69	3104	0	114	12:31:24	2935729	3	0	0	0	0	0	0	0	0	0	0	0	0	0	0	0	0
083112	12:31:24	10039	Serial7FrBaseline	Serial7FrBaseline	8	62	3205	0	114	12:31:24	2938955	4	0	0	0	0	0	0	0	0	0	0	0	0	0	0	0	0
083112	12:31:24	10039	Serial7FrBaseline	Serial7FrBaseline	8	55	2299	0	114	12:31:24	2941274	5	0	0	0	0	0	0	0	0	0	0	0	0	0	0	0	0
083112	12:31:24	10039	corsiblockFrFwrd	recallseqFrFwrd	9	9	3790	0	114	12:31:24	3024907	5	0	0	0	0	0	0	0	0	0	0	0	0	0	0	0	0
083112	12:31:24	10039	corsiblockFrFwrd	recallseqFrFwrd	9	7	693	0	114	12:31:24	3025640	5	0	0	0	0	0	0	0	0	0	0	0	0	0	0	0	0
083112	12:31:24	10039	corsiblockFrFwrd	recallseqFrFwrd	9	doneCorsiFr	2176	0	114	12:31:24	3027852	5	0	0	0	0	0	0	0	0	0	0	0	0	0	0	2	0
083112	12:31:24	10039	corsiblockFrFwrd	recallseqFrFwrd	9	1	1305	0	114	12:31:24	3035249	5	0	0	0	0	0	0	0	0	0	0	0	0	0	0	2	0
083112	12:31:24	10039	corsiblockFrFwrd	recallseqFrFwrd	9	resetCorsiFr	3879	0	114	12:31:24	3039167	5	0	0	0	0	0	0	0	0	0	0	0	0	0	0	2	0
083112	12:31:24	10039	corsiblockFrFwrd	recallseqFrFwrd	9	resetCorsiFr	872	0	114	12:31:24	3040074	5	0	0	0	0	0	0	0	0	0	0	0	0	0	0	2	0
083112	12:31:24	10039	corsiblockFrFwrd	recallseqFrFwrd	9	3	1038	0	114	12:31:24	3041153	5	0	0	0	0	0	0	0	0	0	0	0	0	0	0	2	0
083112	12:31:24	10039	corsiblockFrFwrd	recallseqFrFwrd	9	6	574	0	114	12:31:24	3041766	5	0	0	0	0	0	0	0	0	0	0	0	0	0	0	2	0
083112	12:31:24	10039	corsiblockFrFwrd	recallseqFrFwrd	9	1	945	0	114	12:31:24	3042753	5	0	0	0	0	0	0	0	0	0	0	0	0	0	0	2	0
083112	12:31:24	10039	corsiblockFrFwrd	recallseqFrFwrd	9	doneCorsiFr	1103	0	114	12:31:24	3043899	5	0	0	0	0	0	0	0	0	0	0	0	0	0	0	3	0
083112	12:31:24	10039	corsiblockFrFwrd	recallseqFrFwrd	9	2	1412	0	114	12:31:24	3052415	5	0	0	0	0	0	0	0	0	0	0	0	0	0	0	3	0
083112	12:31:24	10039	corsiblockFrFwrd	recallseqFrFwrd	9	5	552	0	114	12:31:24	3053002	5	0	0	0	0	0	0	0	0	0	0	0	0	0	0	3	0
083112	12:31:24	10039	corsiblockFrFwrd	recallseqFrFwrd	9	4	461	0	114	12:31:24	3053508	5	0	0	0	0	0	0	0	0	0	0	0	0	0	0	3	0
083112	12:31:24	10039	corsiblockFrFwrd	recallseqFrFwrd	9	8	635	0	114	12:31:24	3054188	5	0	0	0	0	0	0	0	0	0	0	0	0	0	0	3	0
083112	12:31:24	10039	corsiblockFrFwrd	recallseqFrFwrd	9	doneCorsiFr	731	0	114	12:31:24	3054961	5	0	0	0	0	0	0	0	0	0	0	0	0	0	0	4	0
083112	12:31:24	10039	corsiblockFrFwrd	recallseqFrFwrd	9	6	1116	0	114	12:31:24	3064171	5	0	0	0	0	0	0	0	0	0	0	0	0	0	0	4	0
083112	12:31:24	10039	corsiblockFrFwrd	recallseqFrFwrd	9	1	636	0	114	12:31:24	3064850	5	0	0	0	0	0	0	0	0	0	0	0	0	0	0	4	0
083112	12:31:24	10039	corsiblockFrFwrd	recallseqFrFwrd	9	2	683	0	114	12:31:24	3065570	5	0	0	0	0	0	0	0	0	0	0	0	0	0	0	4	0
083112	12:31:24	10039	corsiblockFrFwrd	recallseqFrFwrd	9	8	749	0	114	12:31:24	3066357	5	0	0	0	0	0	0	0	0	0	0	0	0	0	0	4	0
083112	12:31:24	10039	corsiblockFrFwrd	recallseqFrFwrd	9	7	635	0	114	12:31:24	3067036	5	0	0	0	0	0	0	0	0	0	0	0	0	0	0	4	0
083112	12:31:24	10039	corsiblockFrFwrd	recallseqFrFwrd	9	doneCorsiFr	875	0	114	12:31:24	3067956	5	0	0	0	0	0	0	0	0	0	0	0	0	0	0	5	0
083112	12:31:24	10039	corsiblockFrFwrd	recallseqFrFwrd	9	3	1145	0	114	12:31:24	3078192	5	0	0	0	0	0	0	0	0	0	0	0	0	0	0	5	0
083112	12:31:24	10039	corsiblockFrFwrd	recallseqFrFwrd	9	9	1087	0	114	12:31:24	3079325	5	0	0	0	0	0	0	0	0	0	0	0	0	0	0	5	0
083112	12:31:24	10039	corsiblockFrFwrd	recallseqFrFwrd	9	5	786	0	114	12:31:24	3080151	5	0	0	0	0	0	0	0	0	0	0	0	0	0	0	5	0
083112	12:31:24	10039	corsiblockFrFwrd	recallseqFrFwrd	9	4	536	0	114	12:31:24	3080724	5	0	0	0	0	0	0	0	0	0	0	0	0	0	0	5	0
083112	12:31:24	10039	corsiblockFrFwrd	recallseqFrFwrd	9	8	1585	0	114	12:31:24	3082350	5	0	0	0	0	0	0	0	0	0	0	0	0	0	0	5	0
083112	12:31:24	10039	corsiblockFrFwrd	recallseqFrFwrd	9	3	601	0	114	12:31:24	3082990	5	0	0	0	0	0	0	0	0	0	0	0	0	0	0	5	0
083112	12:31:24	10039	corsiblockFrFwrd	recallseqFrFwrd	9	doneCorsiFr	929	0	114	12:31:24	3083963	5	0	0	0	0	0	0	0	0	0	0	0	0	0	0	5	0
083112	12:31:24	10039	corsiblockFrFwrd	recallseqFrFwrd	9	7	1579	0	114	12:31:24	3094585	5	0	0	0	0	0	0	0	0	0	0	0	0	0	0	5	0
083112	12:31:24	10039	corsiblockFrFwrd	recallseqFrFwrd	9	9	645	0	114	12:31:24	3095265	5	0	0	0	0	0	0	0	0	0	0	0	0	0	0	5	0
083112	12:31:24	10039	corsiblockFrFwrd	recallseqFrFwrd	9	2	670	0	114	12:31:24	3095971	5	0	0	0	0	0	0	0	0	0	0	0	0	0	0	5	0
083112	12:31:24	10039	corsiblockFrFwrd	recallseqFrFwrd	9	1	515	0	114	12:31:24	3096531	5	0	0	0	0	0	0	0	0	0	0	0	0	0	0	5	0
083112	12:31:24	10039	corsiblockFrFwrd	recallseqFrFwrd	9	3	651	0	114	12:31:24	3097224	5	0	0	0	0	0	0	0	0	0	0	0	0	0	0	5	0
083112	12:31:24	10039	corsiblockFrFwrd	recallseqFrFwrd	9	4	406	0	114	12:31:24	3097664	5	0	0	0	0	0	0	0	0	0	0	0	0	0	0	5	0
083112	12:31:24	10039	corsiblockFrFwrd	recallseqFrFwrd	9	doneCorsiFr	839	0	114	12:31:24	3098544	5	0	0	0	0	0	0	0	0	0	0	0	0	0	0	5	0
083112	12:31:24	10039	corsiblockFrRev	recallseqFrRev	10	3	1297	0	114	12:31:24	3119722	5	0	0	0	0	0	0	0	0	0	0	0	0	0	0	5	0
083112	12:31:24	10039	corsiblockFrRev	recallseqFrRev	10	4	700	0	114	12:31:24	3120455	5	0	0	0	0	0	0	0	0	0	0	0	0	0	0	5	0
083112	12:31:24	10039	corsiblockFrRev	recallseqFrRev	10	doneCorsiFr	992	0	114	12:31:24	3121481	5	0	0	0	0	0	0	0	0	0	0	0	0	0	0	5	2
083112	12:31:24	10039	corsiblockFrRev	recallseqFrRev	10	6	994	0	114	12:31:24	3128571	5	0	0	0	0	0	0	0	0	0	0	0	0	0	0	5	2
083112	12:31:24	10039	corsiblockFrRev	recallseqFrRev	10	9	682	0	114	12:31:24	3129291	5	0	0	0	0	0	0	0	0	0	0	0	0	0	0	5	2
083112	12:31:24	10039	corsiblockFrRev	recallseqFrRev	10	7	475	0	114	12:31:24	3129811	5	0	0	0	0	0	0	0	0	0	0	0	0	0	0	5	2
083112	12:31:24	10039	corsiblockFrRev	recallseqFrRev	10	doneCorsiFr	699	0	114	12:31:24	3130544	5	0	0	0	0	0	0	0	0	0	0	0	0	0	0	5	3
083112	12:31:24	10039	corsiblockFrRev	recallseqFrRev	10	5	931	0	114	12:31:24	3138567	5	0	0	0	0	0	0	0	0	0	0	0	0	0	0	5	3
083112	12:31:24	10039	corsiblockFrRev	recallseqFrRev	10	1	663	0	114	12:31:24	3139274	5	0	0	0	0	0	0	0	0	0	0	0	0	0	0	5	3
083112	12:31:24	10039	corsiblockFrRev	recallseqFrRev	10	8	852	0	114	12:31:24	3140167	5	0	0	0	0	0	0	0	0	0	0	0	0	0	0	5	3
083112	12:31:24	10039	corsiblockFrRev	recallseqFrRev	10	2	575	0	114	12:31:24	3140780	5	0	0	0	0	0	0	0	0	0	0	0	0	0	0	5	3
083112	12:31:24	10039	corsiblockFrRev	recallseqFrRev	10	doneCorsiFr	737	0	114	12:31:24	3141553	5	0	0	0	0	0	0	0	0	0	0	0	0	0	0	5	4
083112	12:31:24	10039	corsiblockFrRev	recallseqFrRev	10	3	1066	0	114	12:31:24	3150709	5	0	0	0	0	0	0	0	0	0	0	0	0	0	0	5	4
083112	12:31:24	10039	corsiblockFrRev	recallseqFrRev	10	7	688	0	114	12:31:24	3151442	5	0	0	0	0	0	0	0	0	0	0	0	0	0	0	5	4
083112	12:31:24	10039	corsiblockFrRev	recallseqFrRev	10	9	491	0	114	12:31:24	3151975	5	0	0	0	0	0	0	0	0	0	0	0	0	0	0	5	4
083112	12:31:24	10039	corsiblockFrRev	recallseqFrRev	10	1	758	0	114	12:31:24	3152775	5	0	0	0	0	0	0	0	0	0	0	0	0	0	0	5	4
083112	12:31:24	10039	corsiblockFrRev	recallseqFrRev	10	6	814	0	114	12:31:24	3153628	5	0	0	0	0	0	0	0	0	0	0	0	0	0	0	5	4
083112	12:31:24	10039	corsiblockFrRev	recallseqFrRev	10	doneCorsiFr	769	0	114	12:31:24	3154441	5	0	0	0	0	0	0	0	0	0	0	0	0	0	0	5	5
083112	12:31:24	10039	corsiblockFrRev	recallseqFrRev	10	5	1226	0	114	12:31:24	3164757	5	0	0	0	0	0	0	0	0	0	0	0	0	0	0	5	5
083112	12:31:24	10039	corsiblockFrRev	recallseqFrRev	10	4	608	0	114	12:31:24	3165410	5	0	0	0	0	0	0	0	0	0	0	0	0	0	0	5	5
083112	12:31:24	10039	corsiblockFrRev	recallseqFrRev	10	8	795	0	114	12:31:24	3166250	5	0	0	0	0	0	0	0	0	0	0	0	0	0	0	5	5
083112	12:31:24	10039	corsiblockFrRev	recallseqFrRev	10	2	844	0	114	12:31:24	3167129	5	0	0	0	0	0	0	0	0	0	0	0	0	0	0	5	5
083112	12:31:24	10039	corsiblockFrRev	recallseqFrRev	10	4	1283	0	114	12:31:24	3168449	5	0	0	0	0	0	0	0	0	0	0	0	0	0	0	5	5
083112	12:31:24	10039	corsiblockFrRev	recallseqFrRev	10	5	4612	0	114	12:31:24	3173100	5	0	0	0	0	0	0	0	0	0	0	0	0	0	0	5	5
083112	12:31:24	10039	corsiblockFrRev	recallseqFrRev	10	doneCorsiFr	840	0	114	12:31:24	3173980	5	0	0	0	0	0	0	0	0	0	0	0	0	0	0	5	5
083112	12:31:24	10039	corsiblockFrRev	recallseqFrRev	10	6	1367	0	114	12:31:24	3184402	5	0	0	0	0	0	0	0	0	0	0	0	0	0	0	5	5
083112	12:31:24	10039	corsiblockFrRev	recallseqFrRev	10	1	650	0	114	12:31:24	3185095	5	0	0	0	0	0	0	0	0	0	0	0	0	0	0	5	5
083112	12:31:24	10039	corsiblockFrRev	recallseqFrRev	10	3	557	0	114	12:31:24	3185695	5	0	0	0	0	0	0	0	0	0	0	0	0	0	0	5	5
083112	12:31:24	10039	corsiblockFrRev	recallseqFrRev	10	2	621	0	114	12:31:24	3186362	5	0	0	0	0	0	0	0	0	0	0	0	0	0	0	5	5
083112	12:31:24	10039	corsiblockFrRev	recallseqFrRev	10	7	611	0	114	12:31:24	3187015	5	0	0	0	0	0	0	0	0	0	0	0	0	0	0	5	5
083112	12:31:24	10039	corsiblockFrRev	recallseqFrRev	10	8	606	0	114	12:31:24	3187654	5	0	0	0	0	0	0	0	0	0	0	0	0	0	0	5	5
083112	12:31:24	10039	corsiblockFrRev	recallseqFrRev	10	doneCorsiFr	718	0	114	12:31:24	3188414	5	0	0	0	0	0	0	0	0	0	0	0	0	0	0	5	5
083112	12:31:24	10039	testFrBaseline	WordsFrBaseline	11	2FrBaseline	2145	0	114	12:31:24	3217389	5	0	1	0	0	0	0	0	0	0	0	0	0	0	0	5	5
083112	12:31:24	10039	testFrBaseline	WordsFrBaseline	11	8FrBaseline	607	0	114	12:31:24	3218042	5	0	1	0	0	0	0	0	1	0	0	0	0	0	0	5	5
083112	12:31:24	10039	testFrBaseline	WordsFrBaseline	11	DoneFrBaseline	450	0	114	12:31:24	3218535	5	0	1	0	0	0	0	0	1	0	0	0	0	0	0	5	5
083112	12:31:24	10039	testFrBaseline	Cat1FrBaseline	11	W1FrBaseline	7677	0	114	12:31:24	3226252	5	0	1	0	0	0	0	0	1	0	0	0	0	0	0	5	5
083112	12:31:24	10039	testFrBaseline	Ch1FrBaseline	11	RR1FrBaseline	3840	0	114	12:31:24	3230130	5	3	1	0	0	0	0	0	1	0	0	0	0	0	0	5	5
083112	12:31:24	10039	testFrBaseline	Cat3FrBaseline	11	R3FrBaseline	4386	0	114	12:31:24	3234555	5	3	1	2	0	0	0	0	1	0	0	0	0	0	0	5	5
083112	12:31:24	10039	testFrBaseline	Cat4FrBaseline	11	0	1	0	114	12:31:24	3234571	5	3	1	2	0	0	0	0	1	0	0	0	0	0	0	5	5
083112	12:31:24	10039	testFrBaseline	Ch4FrBaseline	11	WW4FrBaseline	15580	0	114	12:31:24	3250189	5	3	1	2	0	0	0	0	1	0	0	0	0	0	0	5	5
083112	12:31:24	10039	testFrBaseline	Cat5FrBaseline	11	W5FrBaseline	11590	0	114	12:31:24	3261824	5	3	1	2	0	0	0	0	1	0	0	0	0	0	0	5	5
083112	12:31:24	10039	testFrBaseline	Ch5FrBaseline	11	RR5FrBaseline	5059	0	114	12:31:24	3266915	5	3	1	2	0	3	0	0	1	0	0	0	0	0	0	5	5
083112	12:31:24	10039	testFrBaseline	Cat6FrBaseline	11	W6FrBaseline	4799	0	114	12:31:24	3271753	5	3	1	2	0	3	0	0	1	0	0	0	0	0	0	5	5
083112	12:31:24	10039	testFrBaseline	Ch6FrBaseline	11	WW6FrBaseline	7465	0	114	12:31:24	3279257	5	3	1	2	0	3	0	0	1	0	0	0	0	0	0	5	5
083112	12:31:24	10039	testFrBaseline	Cat7FrBaseline	11	W7FrBaseline	4737	0	114	12:31:24	3284028	5	3	1	2	0	3	0	0	1	0	0	0	0	0	0	5	5
083112	12:31:24	10039	testFrBaseline	Ch7FrBaseline	11	RR7FrBaseline	3502	0	114	12:31:24	3287574	5	3	1	2	0	3	0	3	1	0	0	0	0	0	0	5	5
083112	12:31:24	10039	DigitSpanFwrdFrBaseline	Score1FwrdFrBaseline	12	DS1	5075	0	114	12:31:24	3321333	5	3	1	2	0	3	0	3	1	0	0	0	0	0	0	5	5
083112	12:31:24	10039	DigitSpanFwrdFrBaseline	Gate1FwrdFrBaseline	12	0	1	0	114	12:31:24	3321349	5	3	1	2	0	3	0	3	1	3	0	0	0	0	0	5	5
083112	12:31:24	10039	DigitSpanFwrdFrBaseline	Score2FwrdFrBaseline	12	DS2	7119	0	114	12:31:24	3334648	5	3	1	2	0	3	0	3	1	3	0	0	0	0	0	5	5
083112	12:31:24	10039	DigitSpanFwrdFrBaseline	Gate3FwrdFrBaseline	12	0	1	0	114	12:31:24	3334663	5	3	1	2	0	3	0	3	1	3	0	0	0	0	0	5	5
083112	12:31:24	10039	DigitSpanFwrdFrBaseline	Score22FwrdFrBaseline	12	DS1	5068	0	114	12:31:24	3345510	5	3	1	2	0	3	0	3	1	3	0	0	0	0	0	5	5
083112	12:31:24	10039	DigitSpanFwrdFrBaseline	Gate4FwrdFrBaseline	12	0	1	0	114	12:31:24	3345525	5	3	1	2	0	3	0	3	1	4	0	0	0	0	0	5	5
083112	12:31:24	10039	DigitSpanFwrdFrBaseline	Score3FwrdFrBaseline	12	DS2	5723	0	114	12:31:24	3358212	5	3	1	2	0	3	0	3	1	4	0	0	0	0	0	5	5
083112	12:31:24	10039	DigitSpanFwrdFrBaseline	Gate5FwrdFrBaseline	12	0	1	0	114	12:31:24	3358228	5	3	1	2	0	3	0	3	1	4	0	0	0	0	0	5	5
083112	12:31:24	10039	DigitSpanFwrdFrBaseline	Score33FwrdFrBaseline	12	DS2	9193	0	114	12:31:24	3375845	5	3	1	2	0	3	0	3	1	4	0	0	0	0	0	5	5
083112	12:31:24	10039	DigitSpanFrBaseline	Score1FrBaseline	13	DS1	4547	0	114	12:31:24	3397382	5	3	1	2	0	3	0	3	1	4	0	0	0	0	0	5	5
083112	12:31:24	10039	DigitSpanFrBaseline	Gate1FrBaseline	13	0	1	0	114	12:31:24	3397398	5	3	1	2	0	3	0	3	1	4	2	0	0	0	0	5	5
083112	12:31:24	10039	DigitSpanFrBaseline	Score2FrBaseline	13	DS1	4883	0	114	12:31:24	3406779	5	3	1	2	0	3	0	3	1	4	2	0	0	0	0	5	5
083112	12:31:24	10039	DigitSpanFrBaseline	Gate3FrBaseline	13	0	1	0	114	12:31:24	3406794	5	3	1	2	0	3	0	3	1	4	3	0	0	0	0	5	5
083112	12:31:24	10039	DigitSpanFrBaseline	Score3FrBaseline	13	DS2	5880	0	114	12:31:24	3418374	5	3	1	2	0	3	0	3	1	4	3	0	0	0	0	5	5
083112	12:31:24	10039	DigitSpanFrBaseline	Gate5FrBaseline	13	0	1	0	114	12:31:24	3418389	5	3	1	2	0	3	0	3	1	4	3	0	0	0	0	5	5
083112	12:31:24	10039	DigitSpanFrBaseline	Score33FrBaseline	13	DS2	19691	0	114	12:31:24	3444137	5	3	1	2	0	3	0	3	1	4	3	0	0	0	0	5	5
083112	12:31:24	10039	Trial	IncongruentRight	14	205	597	1	114	12:31:24	3506951	5	3	1	2	0	3	0	3	1	4	3	0	0	0	0	5	5
083112	12:31:24	10039	Trial	IncongruentLeft	14	203	413	1	114	12:31:24	3507778	5	3	1	2	0	3	0	3	1	4	3	0	0	0	0	5	5
083112	12:31:24	10039	Trial	CongruentRight	14	205	470	1	114	12:31:24	3508831	5	3	1	2	0	3	0	3	1	4	3	0	0	0	0	5	5
083112	12:31:24	10039	Trial	IncongruentRight	14	205	574	1	114	12:31:24	3509937	5	3	1	2	0	3	0	3	1	4	3	0	0	0	0	5	5
083112	12:31:24	10039	Trial	CongruentLeft	14	203	506	1	114	12:31:24	3510883	5	3	1	2	0	3	0	3	1	4	3	0	0	0	0	5	5
083112	12:31:24	10039	Trial	CongruentRight	14	205	562	1	114	12:31:24	3511936	5	3	1	2	0	3	0	3	1	4	3	0	0	0	0	5	5
083112	12:31:24	10039	Trial	IncongruentRight	14	205	618	1	114	12:31:24	3512989	5	3	1	2	0	3	0	3	1	4	3	0	0	0	0	5	5
083112	12:31:24	10039	Trial	CongruentLeft	14	203	562	1	114	12:31:24	3513935	5	3	1	2	0	3	0	3	1	4	3	0	0	0	0	5	5
083112	12:31:24	10039	Trial	IncongruentLeft	14	203	651	1	114	12:31:24	3515015	5	3	1	2	0	3	0	3	1	4	3	0	0	0	0	5	5
083112	12:31:24	10039	Trial	IncongruentLeft	14	203	547	1	114	12:31:24	3515921	5	3	1	2	0	3	0	3	1	4	3	0	0	0	0	5	5
083112	12:31:24	10039	Trial	CongruentRight	14	205	524	1	114	12:31:24	3516894	5	3	1	2	0	3	0	3	1	4	3	0	0	0	0	5	5
083112	12:31:24	10039	Trial	IncongruentRight	14	205	628	1	114	12:31:24	3518000	5	3	1	2	0	3	0	3	1	4	3	0	0	0	0	5	5
083112	12:31:24	10039	Trial	CongruentLeft	14	203	460	1	114	12:31:24	3518826	5	3	1	2	0	3	0	3	1	4	3	0	0	0	0	5	5
083112	12:31:24	10039	Trial	CongruentRight	14	205	597	1	114	12:31:24	3519959	5	3	1	2	0	3	0	3	1	4	3	0	0	0	0	5	5
083112	12:31:24	10039	Trial	IncongruentLeft	14	203	429	1	114	12:31:24	3520799	5	3	1	2	0	3	0	3	1	4	3	0	0	0	0	5	5
083112	12:31:24	10039	Trial	IncongruentRight	14	205	518	1	114	12:31:24	3521878	5	3	1	2	0	3	0	3	1	4	3	0	0	0	0	5	5
083112	12:31:24	10039	Trial	CongruentRight	14	205	574	1	114	12:31:24	3522945	5	3	1	2	0	3	0	3	1	4	3	0	0	0	0	5	5
083112	12:31:24	10039	Trial	CongruentLeft	14	203	486	1	114	12:31:24	3523851	5	3	1	2	0	3	0	3	1	4	3	0	0	0	0	5	5
083112	12:31:24	10039	Trial	CongruentRight	14	205	543	1	114	12:31:24	3524904	5	3	1	2	0	3	0	3	1	4	3	0	0	0	0	5	5
083112	12:31:24	10039	Trial	IncongruentRight	14	205	551	1	114	12:31:24	3525917	5	3	1	2	0	3	0	3	1	4	3	0	0	0	0	5	5
083112	12:31:24	10039	Trial	IncongruentLeft	14	203	528	1	114	12:31:24	3526890	5	3	1	2	0	3	0	3	1	4	3	0	0	0	0	5	5
083112	12:31:24	10039	Trial	IncongruentLeft	14	205	376	0	114	12:31:24	3527743	5	3	1	2	0	3	0	3	1	4	3	0	0	0	0	5	5
083112	12:31:24	10039	Trial	CongruentLeft	14	203	672	1	114	12:31:24	3529036	5	3	1	2	0	3	0	3	1	4	3	0	0	0	0	5	5
083112	12:31:24	10039	Trial	CongruentRight	14	205	568	1	114	12:31:24	3529929	5	3	1	2	0	3	0	3	1	4	3	0	0	0	0	5	5
083112	12:31:24	10039	Trial	IncongruentLeft	14	203	401	1	114	12:31:24	3530769	5	3	1	2	0	3	0	3	1	4	3	0	0	0	0	5	5
083112	12:31:24	10039	Trial	IncongruentRight	14	205	489	1	114	12:31:24	3531848	5	3	1	2	0	3	0	3	1	4	3	0	0	0	0	5	5
083112	12:31:24	10039	Trial	CongruentRight	14	205	498	1	114	12:31:24	3532861	5	3	1	2	0	3	0	3	1	4	3	0	0	0	0	5	5
083112	12:31:24	10039	Trial	CongruentLeft	14	203	570	1	114	12:31:24	3533927	5	3	1	2	0	3	0	3	1	4	3	0	0	0	0	5	5
083112	12:31:24	10039	Trial	IncongruentRight	14	205	451	1	114	12:31:24	3534807	5	3	1	2	0	3	0	3	1	4	3	0	0	0	0	5	5
083112	12:31:24	10039	Trial	IncongruentLeft	14	203	443	1	114	12:31:24	3535806	5	3	1	2	0	3	0	3	1	4	3	0	0	0	0	5	5
083112	12:31:24	10039	Trial	IncongruentRight	14	205	323	1	114	12:31:24	3536686	5	3	1	2	0	3	0	3	1	4	3	0	0	0	0	5	5
083112	12:31:24	10039	Trial	CongruentRight	14	205	556	1	114	12:31:24	3537912	5	3	1	2	0	3	0	3	1	4	3	0	0	0	0	5	5
083112	12:31:24	10039	Trial	IncongruentLeft	14	203	500	1	114	12:31:24	3538858	5	3	1	2	0	3	0	3	1	4	3	0	0	0	0	5	5
083112	12:31:24	10039	Trial	CongruentLeft	14	203	637	1	114	12:31:24	3539991	5	3	1	2	0	3	0	3	1	4	3	0	0	0	0	5	5
083112	12:31:24	10039	Trial	CongruentRight	14	205	533	1	114	12:31:24	3540898	5	3	1	2	0	3	0	3	1	4	3	0	0	0	0	5	5
083112	12:31:24	10039	Trial	IncongruentLeft	14	203	576	1	114	12:31:24	3541950	5	3	1	2	0	3	0	3	1	4	3	0	0	0	0	5	5
083112	12:31:24	10039	Trial	IncongruentRight	14	205	457	1	114	12:31:24	3542830	5	3	1	2	0	3	0	3	1	4	3	0	0	0	0	5	5
083112	12:31:24	10039	Trial	IncongruentRight	14	205	545	1	114	12:31:24	3543923	5	3	1	2	0	3	0	3	1	4	3	0	0	0	0	5	5
083112	12:31:24	10039	Trial	CongruentLeft	14	203	601	1	114	12:31:24	3544976	5	3	1	2	0	3	0	3	1	4	3	0	0	0	0	5	5
083112	12:31:24	10039	Trial	IncongruentLeft	14	203	369	1	114	12:31:24	3545735	5	3	1	2	0	3	0	3	1	4	3	0	0	0	0	5	5
083112	12:31:24	10039	Trial	CongruentRight	14	205	474	1	114	12:31:24	3546842	5	3	1	2	0	3	0	3	1	4	3	0	0	0	0	5	5
083112	12:31:24	10039	Trial	CongruentLeft	14	203	514	1	114	12:31:24	3547881	5	3	1	2	0	3	0	3	1	4	3	0	0	0	0	5	5
083112	12:31:24	10039	Trial	IncongruentRight	14	205	459	1	114	12:31:24	3548828	5	3	1	2	0	3	0	3	1	4	3	0	0	0	0	5	5
083112	12:31:24	10039	Trial	CongruentRight	14	205	611	1	114	12:31:24	3549987	5	3	1	2	0	3	0	3	1	4	3	0	0	0	0	5	5
083112	12:31:24	10039	Trial	IncongruentLeft	14	203	491	1	114	12:31:24	3550867	5	3	1	2	0	3	0	3	1	4	3	0	0	0	0	5	5
083112	12:31:24	10039	Trial	CongruentLeft	14	203	388	1	114	12:31:24	3551760	5	3	1	2	0	3	0	3	1	4	3	0	0	0	0	5	5
083112	12:31:24	10039	Trial	IncongruentLeft	14	203	508	1	114	12:31:24	3552879	5	3	1	2	0	3	0	3	1	4	3	0	0	0	0	5	5
083112	12:31:24	10039	Trial	IncongruentRight	14	205	469	1	114	12:31:24	3553839	5	3	1	2	0	3	0	3	1	4	3	0	0	0	0	5	5
083112	12:31:24	10039	Trial	CongruentRight	14	205	445	1	114	12:31:24	3554812	5	3	1	2	0	3	0	3	1	4	3	0	0	0	0	5	5
083112	12:31:24	10039	Trial	CongruentLeft	14	203	549	1	114	12:31:24	3555918	5	3	1	2	0	3	0	3	1	4	3	0	0	0	0	5	5
083112	12:31:24	10039	Trial	CongruentLeft	14	203	430	1	114	12:31:24	3556798	5	3	1	2	0	3	0	3	1	4	3	0	0	0	0	5	5
083112	12:31:24	10039	Trial	IncongruentRight	14	205	550	1	114	12:31:24	3557917	5	3	1	2	0	3	0	3	1	4	3	0	0	0	0	5	5
083112	12:31:24	10039	Trial	IncongruentLeft	14	203	494	1	114	12:31:24	3558864	5	3	1	2	0	3	0	3	1	4	3	0	0	0	0	5	5
083112	12:31:24	10039	Trial	IncongruentRight	14	205	471	1	114	12:31:24	3559837	5	3	1	2	0	3	0	3	1	4	3	0	0	0	0	5	5
083112	12:31:24	10039	Trial	CongruentRight	14	205	543	1	114	12:31:24	3560903	5	3	1	2	0	3	0	3	1	4	3	0	0	0	0	5	5
083112	12:31:24	10039	Trial	CongruentRight	14	205	490	1	114	12:31:24	3561862	5	3	1	2	0	3	0	3	1	4	3	0	0	0	0	5	5
083112	12:31:24	10039	Trial	IncongruentLeft	14	203	466	1	114	12:31:24	3562849	5	3	1	2	0	3	0	3	1	4	3	0	0	0	0	5	5
083112	12:31:24	10039	Trial	CongruentLeft	14	203	523	1	114	12:31:24	3563902	5	3	1	2	0	3	0	3	1	4	3	0	0	0	0	5	5
083112	12:31:24	10039	Trial	CongruentRight	14	205	515	1	114	12:31:24	3564888	5	3	1	2	0	3	0	3	1	4	3	0	0	0	0	5	5
083112	12:31:24	10039	Trial	CongruentLeft	14	203	480	1	114	12:31:24	3565863	5	3	1	2	0	3	0	3	1	4	3	0	0	0	0	5	5
083112	12:31:24	10039	Trial	IncongruentRight	14	205	491	1	114	12:31:24	3566874	5	3	1	2	0	3	0	3	1	4	3	0	0	0	0	5	5
083112	12:31:24	10039	Trial	CongruentRight	14	0	737	0	114	12:31:24	3568100	5	3	1	2	0	3	0	3	1	4	3	0	0	0	0	5	5
083112	12:31:24	10039	Trial	CongruentLeft	14	203	597	1	114	12:31:24	3568966	5	3	1	2	0	3	0	3	1	4	3	0	0	0	0	5	5
083112	12:31:24	10039	Trial	IncongruentLeft	14	203	621	1	114	12:31:24	3569993	5	3	1	2	0	3	0	3	1	4	3	0	0	0	0	5	5
083112	12:31:24	10039	Trial	IncongruentLeft	14	203	549	1	114	12:31:24	3570926	5	3	1	2	0	3	0	3	1	4	3	0	0	0	0	5	5
083112	12:31:24	10039	Trial	CongruentRight	14	205	494	1	114	12:31:24	3571872	5	3	1	2	0	3	0	3	1	4	3	0	0	0	0	5	5
083112	12:31:24	10039	Trial	IncongruentRight	14	205	489	1	114	12:31:24	3572871	5	3	1	2	0	3	0	3	1	4	3	0	0	0	0	5	5
083112	12:31:24	10039	Trial	CongruentLeft	14	203	481	1	114	12:31:24	3573871	5	3	1	2	0	3	0	3	1	4	3	0	0	0	0	5	5
083112	12:31:24	10039	Trial	IncongruentRight	14	205	490	1	114	12:31:24	3574870	5	3	1	2	0	3	0	3	1	4	3	0	0	0	0	5	5
083112	12:31:24	10039	Trial	CongruentRight	14	205	482	1	114	12:31:24	3575870	5	3	1	2	0	3	0	3	1	4	3	0	0	0	0	5	5
083112	12:31:24	10039	Trial	IncongruentLeft	14	203	475	1	114	12:31:24	3576856	5	3	1	2	0	3	0	3	1	4	3	0	0	0	0	5	5
083112	12:31:24	10039	Trial	CongruentLeft	14	203	547	1	114	12:31:24	3577936	5	3	1	2	0	3	0	3	1	4	3	0	0	0	0	5	5
083112	12:31:24	10039	Trial	CongruentRight	14	205	443	1	114	12:31:24	3578829	5	3	1	2	0	3	0	3	1	4	3	0	0	0	0	5	5
083112	12:31:24	10039	Trial	IncongruentLeft	14	203	564	1	114	12:31:24	3579949	5	3	1	2	0	3	0	3	1	4	3	0	0	0	0	5	5
083112	12:31:24	10039	Trial	CongruentRight	14	205	460	1	114	12:31:24	3580841	5	3	1	2	0	3	0	3	1	4	3	0	0	0	0	5	5
083112	12:31:24	10039	Trial	CongruentRight	14	205	596	1	114	12:31:24	3581974	5	3	1	2	0	3	0	3	1	4	3	0	0	0	0	5	5
083112	12:31:24	10039	Trial	IncongruentRight	14	205	621	1	114	12:31:24	3583000	5	3	1	2	0	3	0	3	1	4	3	0	0	0	0	5	5
083112	12:31:24	10039	Trial	CongruentLeft	14	203	517	1	114	12:31:24	3583893	5	3	1	2	0	3	0	3	1	4	3	0	0	0	0	5	5
083112	12:31:24	10039	Trial	IncongruentLeft	14	203	477	1	114	12:31:24	3584853	5	3	1	2	0	3	0	3	1	4	3	0	0	0	0	5	5
083112	12:31:24	10039	Trial	CongruentLeft	14	203	486	1	114	12:31:24	3585866	5	3	1	2	0	3	0	3	1	4	3	0	0	0	0	5	5
083112	12:31:24	10039	Trial	IncongruentRight	14	205	398	1	114	12:31:24	3586786	5	3	1	2	0	3	0	3	1	4	3	0	0	0	0	5	5
083112	12:31:24	10039	Trial	IncongruentLeft	14	203	471	1	114	12:31:24	3587852	5	3	1	2	0	3	0	3	1	4	3	0	0	0	0	5	5
083112	12:31:24	10039	Trial	CongruentRight	14	205	431	1	114	12:31:24	3588812	5	3	1	2	0	3	0	3	1	4	3	0	0	0	0	5	5
083112	12:31:24	10039	Trial	CongruentLeft	14	203	503	1	114	12:31:24	3589878	5	3	1	2	0	3	0	3	1	4	3	0	0	0	0	5	5
083112	12:31:24	10039	Trial	IncongruentLeft	14	203	560	1	114	12:31:24	3590944	5	3	1	2	0	3	0	3	1	4	3	0	0	0	0	5	5
083112	12:31:24	10039	Trial	CongruentLeft	14	203	504	1	114	12:31:24	3591877	5	3	1	2	0	3	0	3	1	4	3	0	0	0	0	5	5
083112	12:31:24	10039	Trial	IncongruentRight	14	205	465	1	114	12:31:24	3592850	5	3	1	2	0	3	0	3	1	4	3	0	0	0	0	5	5
083112	12:31:24	10039	Trial	CongruentRight	14	205	441	1	114	12:31:24	3593823	5	3	1	2	0	3	0	3	1	4	3	0	0	0	0	5	5
083112	12:31:24	10039	Trial	IncongruentLeft	14	203	449	1	114	12:31:24	3594823	5	3	1	2	0	3	0	3	1	4	3	0	0	0	0	5	5
083112	12:31:24	10039	Trial	CongruentLeft	14	203	442	1	114	12:31:24	3595822	5	3	1	2	0	3	0	3	1	4	3	0	0	0	0	5	5
083112	12:31:24	10039	Trial	IncongruentRight	14	205	530	1	114	12:31:24	3596902	5	3	1	2	0	3	0	3	1	4	3	0	0	0	0	5	5
083112	12:31:24	10039	Trial	IncongruentLeft	14	203	490	1	114	12:31:24	3597861	5	3	1	2	0	3	0	3	1	4	3	0	0	0	0	5	5
083112	12:31:24	10039	Trial	CongruentLeft	14	203	643	1	114	12:31:24	3599021	5	3	1	2	0	3	0	3	1	4	3	0	0	0	0	5	5
083112	12:31:24	10039	Trial	IncongruentLeft	14	203	491	1	114	12:31:24	3599874	5	3	1	2	0	3	0	3	1	4	3	0	0	0	0	5	5
083112	12:31:24	10039	Trial	CongruentRight	14	205	596	1	114	12:31:24	3600967	5	3	1	2	0	3	0	3	1	4	3	0	0	0	0	5	5
083112	12:31:24	10039	Trial	CongruentLeft	14	203	604	1	114	12:31:24	3601979	5	3	1	2	0	3	0	3	1	4	3	0	0	0	0	5	5
083112	12:31:24	10039	Trial	IncongruentRight	14	205	468	1	114	12:31:24	3602846	5	3	1	2	0	3	0	3	1	4	3	0	0	0	0	5	5
083112	12:31:24	10039	Trial	CongruentLeft	14	203	480	1	114	12:31:24	3603872	5	3	1	2	0	3	0	3	1	4	3	0	0	0	0	5	5
083112	12:31:24	10039	Trial	CongruentRight	14	205	504	1	114	12:31:24	3604885	5	3	1	2	0	3	0	3	1	4	3	0	0	0	0	5	5
083112	12:31:24	10039	Trial	IncongruentLeft	14	203	400	1	114	12:31:24	3605791	5	3	1	2	0	3	0	3	1	4	3	0	0	0	0	5	5
083112	12:31:24	10039	Trial750Fr	IncongruentRight750	15	0	487	0	114	12:31:24	3617040	5	3	1	2	0	3	0	3	1	4	3	0	0	0	0	5	5
083112	12:31:24	10039	Trial750Fr	IncongruentLeft750	15	203	343	1	114	12:31:24	3617653	5	3	1	2	0	3	0	3	1	4	3	0	0	0	0	5	5
083112	12:31:24	10039	Trial750Fr	CongruentRight750	15	205	463	1	114	12:31:24	3618533	5	3	1	2	0	3	0	3	1	4	3	0	0	0	0	5	5
083112	12:31:24	10039	Trial750Fr	IncongruentRight750	15	0	487	0	114	12:31:24	3619306	5	3	1	2	0	3	0	3	1	4	3	0	0	0	0	5	5
083112	12:31:24	10039	Trial750Fr	CongruentLeft750	15	203	477	1	114	12:31:24	3620066	5	3	1	2	0	3	0	3	1	4	3	0	0	0	0	5	5
083112	12:31:24	10039	Trial750Fr	CongruentRight750	15	205	438	1	114	12:31:24	3620785	5	3	1	2	0	3	0	3	1	4	3	0	0	0	0	5	5
083112	12:31:24	10039	Trial750Fr	IncongruentRight750	15	205	462	1	114	12:31:24	3621558	5	3	1	2	0	3	0	3	1	4	3	0	0	0	0	5	5
083112	12:31:24	10039	Trial750Fr	CongruentLeft750	15	203	420	1	114	12:31:24	3622265	5	3	1	2	0	3	0	3	1	4	3	0	0	0	0	5	5
083112	12:31:24	10039	Trial750Fr	IncongruentLeft750	15	0	487	0	114	12:31:24	3623078	5	3	1	2	0	3	0	3	1	4	3	0	0	0	0	5	5
083112	12:31:24	10039	Trial750Fr	IncongruentLeft750	15	0	487	0	114	12:31:24	3623837	5	3	1	2	0	3	0	3	1	4	3	0	0	0	0	5	5
083112	12:31:24	10039	Trial750Fr	CongruentRight750	15	205	442	1	114	12:31:24	3624557	5	3	1	2	0	3	0	3	1	4	3	0	0	0	0	5	5
083112	12:31:24	10039	Trial750Fr	IncongruentRight750	15	0	487	0	114	12:31:24	3625344	5	3	1	2	0	3	0	3	1	4	3	0	0	0	0	5	5
083112	12:31:24	10039	Trial750Fr	CongruentLeft750	15	203	408	1	114	12:31:24	3626023	5	3	1	2	0	3	0	3	1	4	3	0	0	0	0	5	5
083112	12:31:24	10039	Trial750Fr	CongruentRight750	15	0	487	0	114	12:31:24	3626863	5	3	1	2	0	3	0	3	1	4	3	0	0	0	0	5	5
083112	12:31:24	10039	Trial750Fr	IncongruentLeft750	15	203	408	1	114	12:31:24	3627543	5	3	1	2	0	3	0	3	1	4	3	0	0	0	0	5	5
083112	12:31:24	10039	Trial750Fr	IncongruentRight750	15	205	321	1	114	12:31:24	3628222	5	3	1	2	0	3	0	3	1	4	3	0	0	0	0	5	5
083112	12:31:24	10039	Trial750Fr	CongruentRight750	15	0	487	0	114	12:31:24	3629129	5	3	1	2	0	3	0	3	1	4	3	0	0	0	0	5	5
083112	12:31:24	10039	Trial750Fr	CongruentLeft750	15	203	383	1	114	12:31:24	3629782	5	3	1	2	0	3	0	3	1	4	3	0	0	0	0	5	5
083112	12:31:24	10039	Trial750Fr	CongruentRight750	15	205	423	1	114	12:31:24	3630581	5	3	1	2	0	3	0	3	1	4	3	0	0	0	0	5	5
083112	12:31:24	10039	Trial750Fr	IncongruentRight750	15	0	487	0	114	12:31:24	3631395	5	3	1	2	0	3	0	3	1	4	3	0	0	0	0	5	5
083112	12:31:24	10039	Trial750Fr	IncongruentLeft750	15	203	357	1	114	12:31:24	3632021	5	3	1	2	0	3	0	3	1	4	3	0	0	0	0	5	5
083112	12:31:24	10039	Trial750Fr	IncongruentLeft750	15	205	365	0	114	12:31:24	3632794	5	3	1	2	0	3	0	3	1	4	3	0	0	0	0	5	5
083112	12:31:24	10039	Trial750Fr	CongruentLeft750	15	0	487	0	114	12:31:24	3633660	5	3	1	2	0	3	0	3	1	4	3	0	0	0	0	5	5
083112	12:31:24	10039	Trial750Fr	CongruentRight750	15	205	459	1	114	12:31:24	3634393	5	3	1	2	0	3	0	3	1	4	3	0	0	0	0	5	5
083112	12:31:24	10039	Trial750Fr	IncongruentLeft750	15	0	487	0	114	12:31:24	3635166	5	3	1	2	0	3	0	3	1	4	3	0	0	0	0	5	5
083112	12:31:24	10039	Trial750Fr	IncongruentRight750	15	205	472	1	114	12:31:24	3635912	5	3	1	2	0	3	0	3	1	4	3	0	0	0	0	5	5
083112	12:31:24	10039	Trial750Fr	CongruentRight750	15	0	487	0	114	12:31:24	3636672	5	3	1	2	0	3	0	3	1	4	3	0	0	0	0	5	5
083112	12:31:24	10039	Trial750Fr	CongruentLeft750	15	203	407	1	114	12:31:24	3637352	5	3	1	2	0	3	0	3	1	4	3	0	0	0	0	5	5
083112	12:31:24	10039	Trial750Fr	IncongruentRight750	15	205	447	1	114	12:31:24	3638152	5	3	1	2	0	3	0	3	1	4	3	0	0	0	0	5	5
083112	12:31:24	10039	Trial750Fr	IncongruentLeft750	15	0	487	0	114	12:31:24	3638938	5	3	1	2	0	3	0	3	1	4	3	0	0	0	0	5	5
083112	12:31:24	10039	Trial750Fr	IncongruentRight750	15	0	487	0	114	12:31:24	3639698	5	3	1	2	0	3	0	3	1	4	3	0	0	0	0	5	5
083112	12:31:24	10039	Trial750Fr	CongruentRight750	15	0	487	0	114	12:31:24	3640457	5	3	1	2	0	3	0	3	1	4	3	0	0	0	0	5	5
083112	12:31:24	10039	Trial750Fr	IncongruentLeft750	15	203	429	1	114	12:31:24	3641164	5	3	1	2	0	3	0	3	1	4	3	0	0	0	0	5	5
083112	12:31:24	10039	Trial750Fr	CongruentLeft750	15	203	422	1	114	12:31:24	3641910	5	3	1	2	0	3	0	3	1	4	3	0	0	0	0	5	5
083112	12:31:24	10039	Trial750Fr	CongruentRight750	15	205	363	1	114	12:31:24	3642603	5	3	1	2	0	3	0	3	1	4	3	0	0	0	0	5	5
083112	12:31:24	10039	Trial750Fr	IncongruentLeft750	15	203	417	1	114	12:31:24	3643403	5	3	1	2	0	3	0	3	1	4	3	0	0	0	0	5	5
083112	12:31:24	10039	Trial750Fr	IncongruentRight750	15	205	409	1	114	12:31:24	3644149	5	3	1	2	0	3	0	3	1	4	3	0	0	0	0	5	5
083112	12:31:24	10039	Trial750Fr	IncongruentRight750	15	0	487	0	114	12:31:24	3644976	5	3	1	2	0	3	0	3	1	4	3	0	0	0	0	5	5
083112	12:31:24	10039	Trial750Fr	CongruentLeft750	15	203	359	1	114	12:31:24	3645615	5	3	1	2	0	3	0	3	1	4	3	0	0	0	0	5	5
083112	12:31:24	10039	Trial750Fr	IncongruentLeft750	15	0	487	0	114	12:31:24	3646482	5	3	1	2	0	3	0	3	1	4	3	0	0	0	0	5	5
083112	12:31:24	10039	Trial750Fr	CongruentRight750	15	205	357	1	114	12:31:24	3647108	5	3	1	2	0	3	0	3	1	4	3	0	0	0	0	5	5
083112	12:31:24	10039	Trial750Fr	CongruentLeft750	15	203	461	1	114	12:31:24	3647974	5	3	1	2	0	3	0	3	1	4	3	0	0	0	0	5	5
083112	12:31:24	10039	Trial750Fr	IncongruentRight750	15	205	403	1	114	12:31:24	3648667	5	3	1	2	0	3	0	3	1	4	3	0	0	0	0	5	5
083112	12:31:24	10039	Trial750Fr	CongruentRight750	15	205	473	1	114	12:31:24	3649480	5	3	1	2	0	3	0	3	1	4	3	0	0	0	0	5	5
083112	12:31:24	10039	Trial750Fr	IncongruentLeft750	15	203	369	1	114	12:31:24	3650134	5	3	1	2	0	3	0	3	1	4	3	0	0	0	0	5	5
083112	12:31:24	10039	Trial750Fr	CongruentLeft750	15	203	471	1	114	12:31:24	3650987	5	3	1	2	0	3	0	3	1	4	3	0	0	0	0	5	5
083112	12:31:24	10039	Trial750Fr	IncongruentLeft750	15	203	476	1	114	12:31:24	3651733	5	3	1	2	0	3	0	3	1	4	3	0	0	0	0	5	5
083112	12:31:24	10039	Trial750Fr	IncongruentRight750	15	205	453	1	114	12:31:24	3652479	5	3	1	2	0	3	0	3	1	4	3	0	0	0	0	5	5
083112	12:31:24	10039	Trial750Fr	CongruentRight750	15	205	426	1	114	12:31:24	3653199	5	3	1	2	0	3	0	3	1	4	3	0	0	0	0	5	5
083112	12:31:24	10039	Trial750Fr	CongruentLeft750	15	203	480	1	114	12:31:24	3653999	5	3	1	2	0	3	0	3	1	4	3	0	0	0	0	5	5
083112	12:31:24	10039	Trial750Fr	CongruentLeft750	15	203	456	1	114	12:31:24	3654732	5	3	1	2	0	3	0	3	1	4	3	0	0	0	0	5	5
083112	12:31:24	10039	Trial750Fr	IncongruentRight750	15	205	400	1	114	12:31:24	3655438	5	3	1	2	0	3	0	3	1	4	3	0	0	0	0	5	5
083112	12:31:24	10039	Trial750Fr	IncongruentLeft750	15	0	487	0	114	12:31:24	3656264	5	3	1	2	0	3	0	3	1	4	3	0	0	0	0	5	5
083112	12:31:24	10039	Trial750Fr	IncongruentRight750	15	205	430	1	114	12:31:24	3656971	5	3	1	2	0	3	0	3	1	4	3	0	0	0	0	5	5
083112	12:31:24	10039	Trial750Fr	CongruentRight750	15	205	438	1	114	12:31:24	3657744	5	3	1	2	0	3	0	3	1	4	3	0	0	0	0	5	5
083112	12:31:24	10039	Trial750Fr	CongruentRight750	15	0	487	0	114	12:31:24	3658530	5	3	1	2	0	3	0	3	1	4	3	0	0	0	0	5	5
083112	12:31:24	10039	Trial750Fr	IncongruentLeft750	15	203	372	1	114	12:31:24	3659183	5	3	1	2	0	3	0	3	1	4	3	0	0	0	0	5	5
083112	12:31:24	10039	Trial750Fr	CongruentLeft750	15	203	445	1	114	12:31:24	3660009	5	3	1	2	0	3	0	3	1	4	3	0	0	0	0	5	5
083112	12:31:24	10039	Trial750Fr	CongruentRight750	15	205	434	1	114	12:31:24	3660743	5	3	1	2	0	3	0	3	1	4	3	0	0	0	0	5	5
083112	12:31:24	10039	Trial750Fr	CongruentLeft750	15	0	487	0	114	12:31:24	3661542	5	3	1	2	0	3	0	3	1	4	3	0	0	0	0	5	5
083112	12:31:24	10039	Trial750Fr	IncongruentRight750	15	205	432	1	114	12:31:24	3662249	5	3	1	2	0	3	0	3	1	4	3	0	0	0	0	5	5
083112	12:31:24	10039	Trial750Fr	CongruentRight750	15	205	424	1	114	12:31:24	3663008	5	3	1	2	0	3	0	3	1	4	3	0	0	0	0	5	5
083112	12:31:24	10039	Trial750Fr	CongruentLeft750	15	203	462	1	114	12:31:24	3663781	5	3	1	2	0	3	0	3	1	4	3	0	0	0	0	5	5
083112	12:31:24	10039	Trial750Fr	IncongruentLeft750	15	0	487	0	114	12:31:24	3664554	5	3	1	2	0	3	0	3	1	4	3	0	0	0	0	5	5
083112	12:31:24	10039	Trial750Fr	IncongruentLeft750	15	203	476	1	114	12:31:24	3665301	5	3	1	2	0	3	0	3	1	4	3	0	0	0	0	5	5
083112	12:31:24	10039	Trial750Fr	CongruentRight750	15	205	436	1	114	12:31:24	3666020	5	3	1	2	0	3	0	3	1	4	3	0	0	0	0	5	5
083112	12:31:24	10039	Trial750Fr	IncongruentRight750	15	205	458	1	114	12:31:24	3666793	5	3	1	2	0	3	0	3	1	4	3	0	0	0	0	5	5
083112	12:31:24	10039	Trial750Fr	CongruentLeft750	15	0	487	0	114	12:31:24	3667567	5	3	1	2	0	3	0	3	1	4	3	0	0	0	0	5	5
083112	12:31:24	10039	Trial750Fr	IncongruentRight750	15	0	487	0	114	12:31:24	3668326	5	3	1	2	0	3	0	3	1	4	3	0	0	0	0	5	5
083112	12:31:24	10039	Trial750Fr	CongruentRight750	15	0	487	0	114	12:31:24	3669086	5	3	1	2	0	3	0	3	1	4	3	0	0	0	0	5	5
083112	12:31:24	10039	Trial750Fr	IncongruentLeft750	15	203	424	1	114	12:31:24	3669792	5	3	1	2	0	3	0	3	1	4	3	0	0	0	0	5	5
083112	12:31:24	10039	Trial750Fr	CongruentLeft750	15	203	433	1	114	12:31:24	3670552	5	3	1	2	0	3	0	3	1	4	3	0	0	0	0	5	5
083112	12:31:24	10039	Trial750Fr	CongruentRight750	15	205	438	1	114	12:31:24	3671312	5	3	1	2	0	3	0	3	1	4	3	0	0	0	0	5	5
083112	12:31:24	10039	Trial750Fr	IncongruentLeft750	15	0	487	0	114	12:31:24	3672098	5	3	1	2	0	3	0	3	1	4	3	0	0	0	0	5	5
083112	12:31:24	10039	Trial750Fr	CongruentRight750	15	205	420	1	114	12:31:24	3672791	5	3	1	2	0	3	0	3	1	4	3	0	0	0	0	5	5
083112	12:31:24	10039	Trial750Fr	CongruentRight750	15	0	487	0	114	12:31:24	3673604	5	3	1	2	0	3	0	3	1	4	3	0	0	0	0	5	5
083112	12:31:24	10039	Trial750Fr	IncongruentRight750	15	203	386	0	114	12:31:24	3674270	5	3	1	2	0	3	0	3	1	4	3	0	0	0	0	5	5
083112	12:31:24	10039	Trial750Fr	CongruentLeft750	15	0	487	0	114	12:31:24	3675110	5	3	1	2	0	3	0	3	1	4	3	0	0	0	0	5	5
083112	12:31:24	10039	Trial750Fr	IncongruentLeft750	15	0	487	0	114	12:31:24	3675870	5	3	1	2	0	3	0	3	1	4	3	0	0	0	0	5	5
083112	12:31:24	10039	Trial750Fr	CongruentLeft750	15	203	472	1	114	12:31:24	3676616	5	3	1	2	0	3	0	3	1	4	3	0	0	0	0	5	5
083112	12:31:24	10039	Trial750Fr	IncongruentRight750	15	205	417	1	114	12:31:24	3677323	5	3	1	2	0	3	0	3	1	4	3	0	0	0	0	5	5
083112	12:31:24	10039	Trial750Fr	IncongruentLeft750	15	203	422	1	114	12:31:24	3678069	5	3	1	2	0	3	0	3	1	4	3	0	0	0	0	5	5
083112	12:31:24	10039	Trial750Fr	CongruentRight750	15	205	396	1	114	12:31:24	3678789	5	3	1	2	0	3	0	3	1	4	3	0	0	0	0	5	5
083112	12:31:24	10039	Trial750Fr	CongruentLeft750	15	0	487	0	114	12:31:24	3679628	5	3	1	2	0	3	0	3	1	4	3	0	0	0	0	5	5
083112	12:31:24	10039	Trial750Fr	IncongruentLeft750	15	0	487	0	114	12:31:24	3680388	5	3	1	2	0	3	0	3	1	4	3	0	0	0	0	5	5
083112	12:31:24	10039	Trial750Fr	CongruentLeft750	15	0	487	0	114	12:31:24	3681148	5	3	1	2	0	3	0	3	1	4	3	0	0	0	0	5	5
083112	12:31:24	10039	Trial750Fr	IncongruentRight750	15	205	442	1	114	12:31:24	3681867	5	3	1	2	0	3	0	3	1	4	3	0	0	0	0	5	5
083112	12:31:24	10039	Trial750Fr	CongruentRight750	15	0	487	0	114	12:31:24	3682654	5	3	1	2	0	3	0	3	1	4	3	0	0	0	0	5	5
083112	12:31:24	10039	Trial750Fr	IncongruentLeft750	15	203	408	1	114	12:31:24	3683334	5	3	1	2	0	3	0	3	1	4	3	0	0	0	0	5	5
083112	12:31:24	10039	Trial750Fr	CongruentLeft750	15	203	465	1	114	12:31:24	3684160	5	3	1	2	0	3	0	3	1	4	3	0	0	0	0	5	5
083112	12:31:24	10039	Trial750Fr	IncongruentRight750	15	205	470	1	114	12:31:24	3684906	5	3	1	2	0	3	0	3	1	4	3	0	0	0	0	5	5
083112	12:31:24	10039	Trial750Fr	IncongruentLeft750	15	0	487	0	114	12:31:24	3685666	5	3	1	2	0	3	0	3	1	4	3	0	0	0	0	5	5
083112	12:31:24	10039	Trial750Fr	CongruentLeft750	15	0	487	0	114	12:31:24	3686426	5	3	1	2	0	3	0	3	1	4	3	0	0	0	0	5	5
083112	12:31:24	10039	Trial750Fr	IncongruentLeft750	15	205	396	0	114	12:31:24	3687092	5	3	1	2	0	3	0	3	1	4	3	0	0	0	0	5	5
083112	12:31:24	10039	Trial750Fr	CongruentRight750	15	0	487	0	114	12:31:24	3687932	5	3	1	2	0	3	0	3	1	4	3	0	0	0	0	5	5
083112	12:31:24	10039	Trial750Fr	CongruentLeft750	15	0	487	0	114	12:31:24	3688691	5	3	1	2	0	3	0	3	1	4	3	0	0	0	0	5	5
083112	12:31:24	10039	Trial750Fr	IncongruentRight750	15	205	483	1	114	12:31:24	3689451	5	3	1	2	0	3	0	3	1	4	3	0	0	0	0	5	5
083112	12:31:24	10039	Trial750Fr	CongruentLeft750	15	203	427	1	114	12:31:24	3690157	5	3	1	2	0	3	0	3	1	4	3	0	0	0	0	5	5
083112	12:31:24	10039	Trial750Fr	CongruentRight750	15	205	355	1	114	12:31:24	3690837	5	3	1	2	0	3	0	3	1	4	3	0	0	0	0	5	5
083112	12:31:24	10039	Trial750Fr	IncongruentLeft750	15	0	487	0	114	12:31:24	3691717	5	3	1	2	0	3	0	3	1	4	3	0	0	0	0	5	5
083112	12:31:24	10039	WordsAbsFrBaseline	PAbsFrBaseline1	16	Abs1	16444	0	114	12:31:24	3716627	5	3	1	2	0	3	0	3	1	4	3	0	0	0	0	5	5
083112	12:31:24	10039	WordsAbsFrBaseline	AbsFrBaseline1	16	Abs1	6237	0	114	12:31:24	3722904	5	3	1	2	0	3	0	3	1	4	3	1	0	0	0	5	5
083112	12:31:24	10039	WordsAbsFrBaseline	AbsFrBaseline2	16	Abs1	48295	0	114	12:31:24	3771244	5	3	1	2	0	3	0	3	1	4	3	2	0	0	0	5	5
083112	12:31:24	10039	WordsAbsFrBaseline	AbsFrBaseline3	16	Abs2	59129	0	114	12:31:24	3830407	5	3	1	2	0	3	0	3	1	4	3	2	0	0	0	5	5
083112	12:31:24	10039	Trial2BackFrS	NS	17	0	1000	1	114	12:31:24	3894328	5	3	1	2	0	3	0	3	1	4	3	2	0	0	0	5	5
083112	12:31:24	10039	Trial2BackFrS	NS	17	0	1000	1	114	12:31:24	3895847	5	3	1	2	0	3	0	3	1	4	3	2	0	0	0	5	5
083112	12:31:24	10039	Trial2BackFrS	NS	17	0	1000	1	114	12:31:24	3897367	5	3	1	2	0	3	0	3	1	4	3	2	0	0	0	5	5
083112	12:31:24	10039	Trial2BackFrS	YS	17	57	670	1	114	12:31:24	3898566	5	3	1	2	0	3	0	3	1	4	3	2	0	0	0	5	5
083112	12:31:24	10039	Trial2BackFrS	NS	17	0	1000	1	114	12:31:24	3900392	5	3	1	2	0	3	0	3	1	4	3	2	0	0	0	5	5
083112	12:31:24	10039	Trial2BackFrS	NS	17	0	1000	1	114	12:31:24	3901912	5	3	1	2	0	3	0	3	1	4	3	2	0	0	0	5	5
083112	12:31:24	10039	Trial2BackFrS	NS	17	0	1000	1	114	12:31:24	3903431	5	3	1	2	0	3	0	3	1	4	3	2	0	0	0	5	5
083112	12:31:24	10039	Trial2BackFrS	NS	17	0	1000	1	114	12:31:24	3904950	5	3	1	2	0	3	0	3	1	4	3	2	0	0	0	5	5
083112	12:31:24	10039	Trial2BackFrS	YS	17	57	590	1	114	12:31:24	3906070	5	3	1	2	0	3	0	3	1	4	3	2	0	0	0	5	5
083112	12:31:24	10039	Trial2BackFrS	NS	17	0	1000	1	114	12:31:24	3907976	5	3	1	2	0	3	0	3	1	4	3	2	0	0	0	5	5
083112	12:31:24	10039	Trial2BackFrS	NS	17	0	1000	1	114	12:31:24	3909495	5	3	1	2	0	3	0	3	1	4	3	2	0	0	0	5	5
083112	12:31:24	10039	Trial2BackFrS	YS	17	0	1000	0	114	12:31:24	3911015	5	3	1	2	0	3	0	3	1	4	3	2	0	0	0	5	5
083112	12:31:24	10039	Trial2BackFrS	NS	17	0	1000	1	114	12:31:24	3912534	5	3	1	2	0	3	0	3	1	4	3	2	0	0	0	5	5
083112	12:31:24	10039	Trial2BackFrS	NS	17	0	1000	1	114	12:31:24	3914053	5	3	1	2	0	3	0	3	1	4	3	2	0	0	0	5	5
083112	12:31:24	10039	Trial2BackFrS	NS	17	0	1000	1	114	12:31:24	3915573	5	3	1	2	0	3	0	3	1	4	3	2	0	0	0	5	5
083112	12:31:24	10039	Trial2BackFrS	YS	17	57	896	1	114	12:31:24	3916999	5	3	1	2	0	3	0	3	1	4	3	2	0	0	0	5	5
083112	12:31:24	10039	Trial2BackFrS	NS	17	0	1000	1	114	12:31:24	3918598	5	3	1	2	0	3	0	3	1	4	3	2	0	0	0	5	5
083112	12:31:24	10039	Trial2BackFrS	NS	17	0	1000	1	114	12:31:24	3920118	5	3	1	2	0	3	0	3	1	4	3	2	0	0	0	5	5
083112	12:31:24	10039	Trial2BackFrS	NS	17	57	687	0	114	12:31:24	3921330	5	3	1	2	0	3	0	3	1	4	3	2	0	0	0	5	5
083112	12:31:24	10039	Trial2BackFrS	NS	17	0	1000	1	114	12:31:24	3923143	5	3	1	2	0	3	0	3	1	4	3	2	0	0	0	5	5
083112	12:31:24	10039	Trial2BackFrS	YS	17	57	621	1	114	12:31:24	3924289	5	3	1	2	0	3	0	3	1	4	3	2	0	0	0	5	5
083112	12:31:24	10039	Trial2BackFrS	NS	17	0	1000	1	114	12:31:24	3926168	5	3	1	2	0	3	0	3	1	4	3	2	0	0	0	5	5
083112	12:31:24	10039	Trial2BackFrS	NS	17	57	732	0	114	12:31:24	3927435	5	3	1	2	0	3	0	3	1	4	3	2	0	0	0	5	5
083112	12:31:24	10039	Trial2BackFrS	NS	17	0	1000	1	114	12:31:24	3929194	5	3	1	2	0	3	0	3	1	4	3	2	0	0	0	5	5
083112	12:31:24	10039	Trial2BackFrS	NS	17	57	826	0	114	12:31:24	3930553	5	3	1	2	0	3	0	3	1	4	3	2	0	0	0	5	5
083112	12:31:24	10039	Trial2BackFrS	NS	17	57	808	0	114	12:31:24	3932033	5	3	1	2	0	3	0	3	1	4	3	2	0	0	0	5	5
083112	12:31:24	10039	Trial2BackFrS	NS	17	0	1000	1	114	12:31:24	3933712	5	3	1	2	0	3	0	3	1	4	3	2	0	0	0	5	5
083112	12:31:24	10039	Trial2BackFrS	NS	17	0	1000	1	114	12:31:24	3935231	5	3	1	2	0	3	0	3	1	4	3	2	0	0	0	5	5
083112	12:31:24	10039	Trial2BackFrS	NS	17	57	549	0	114	12:31:24	3936311	5	3	1	2	0	3	0	3	1	4	3	2	0	0	0	5	5
083112	12:31:24	10039	Trial2BackFrS	NS	17	0	1000	1	114	12:31:24	3938257	5	3	1	2	0	3	0	3	1	4	3	2	0	0	0	5	5
083112	12:31:24	10039	Trial2BackFrS	NS	17	0	1000	1	114	12:31:24	3939776	5	3	1	2	0	3	0	3	1	4	3	2	0	0	0	5	5
083112	12:31:24	10039	Trial2BackFrS	YS	17	57	772	1	114	12:31:24	3941069	5	3	1	2	0	3	0	3	1	4	3	2	0	0	0	5	5
083112	12:31:24	10039	Trial2BackFrS	NS	17	0	1000	1	114	12:31:24	3942802	5	3	1	2	0	3	0	3	1	4	3	2	0	0	0	5	5
083112	12:31:24	10039	Trial2BackFrS	NS	17	0	1000	1	114	12:31:24	3944321	5	3	1	2	0	3	0	3	1	4	3	2	0	0	0	5	5
083112	12:31:24	10039	Trial2BackFrS	NS	17	0	1000	1	114	12:31:24	3945840	5	3	1	2	0	3	0	3	1	4	3	2	0	0	0	5	5
083112	12:31:24	10039	Trial2BackFrS	YS	17	0	1000	0	114	12:31:24	3947360	5	3	1	2	0	3	0	3	1	4	3	2	0	0	0	5	5
083112	12:31:24	10039	Trial2BackFrS	NS	17	57	788	0	114	12:31:24	3948679	5	3	1	2	0	3	0	3	1	4	3	2	0	0	0	5	5
083112	12:31:24	10039	Trial2BackFrS	NS	17	0	1000	1	114	12:31:24	3950386	5	3	1	2	0	3	0	3	1	4	3	2	0	0	0	5	5
083112	12:31:24	10039	Trial2BackFrS	NS	17	57	770	0	114	12:31:24	3951678	5	3	1	2	0	3	0	3	1	4	3	2	0	0	0	5	5
083112	12:31:24	10039	Trial2BackFrS	NS	17	0	1000	1	114	12:31:24	3953411	5	3	1	2	0	3	0	3	1	4	3	2	0	0	0	5	5
083112	12:31:24	10039	Trial2BackFrS	NS	17	0	1000	1	114	12:31:24	3954930	5	3	1	2	0	3	0	3	1	4	3	2	0	0	0	5	5
083112	12:31:24	10039	Trial2BackFrS	NS	17	0	1000	1	114	12:31:24	3956450	5	3	1	2	0	3	0	3	1	4	3	2	0	0	0	5	5
083112	12:31:24	10039	Trial2BackFrS	NS	17	0	1000	1	114	12:31:24	3957969	5	3	1	2	0	3	0	3	1	4	3	2	0	0	0	5	5
083112	12:31:24	10039	Trial2BackFrS	YS	17	57	915	1	114	12:31:24	3959408	5	3	1	2	0	3	0	3	1	4	3	2	0	0	0	5	5
083112	12:31:24	10039	Trial2BackFrS	NS	17	0	1000	1	114	12:31:24	3960994	5	3	1	2	0	3	0	3	1	4	3	2	0	0	0	5	5
083112	12:31:24	10039	Trial2BackFrS	NS	17	0	1000	1	114	12:31:24	3962514	5	3	1	2	0	3	0	3	1	4	3	2	0	0	0	5	5
083112	12:31:24	10039	Trial2BackFrS	NS	17	0	1000	1	114	12:31:24	3964033	5	3	1	2	0	3	0	3	1	4	3	2	0	0	0	5	5
083112	12:31:24	10039	Trial2BackFrS	NS	17	0	1000	1	114	12:31:24	3965553	5	3	1	2	0	3	0	3	1	4	3	2	0	0	0	5	5
083112	12:31:24	10039	Trial2BackFrS	YS	17	57	739	1	114	12:31:24	3966819	5	3	1	2	0	3	0	3	1	4	3	2	0	0	0	5	5
083112	12:31:24	10039	Trial2BackFrS	NS	17	0	1000	1	114	12:31:24	3968578	5	3	1	2	0	3	0	3	1	4	3	2	0	0	0	5	5
083112	12:31:24	10039	Trial2BackFrS	NS	17	0	1000	1	114	12:31:24	3970097	5	3	1	2	0	3	0	3	1	4	3	2	0	0	0	5	5
083112	12:31:24	10039	Trial2BackFrS	NS	17	0	1000	1	114	12:31:24	3971617	5	3	1	2	0	3	0	3	1	4	3	2	0	0	0	5	5
083112	12:31:24	10039	Trial2BackFrS	NS	17	0	1000	1	114	12:31:24	3973136	5	3	1	2	0	3	0	3	1	4	3	2	0	0	0	5	5
083112	12:31:24	10039	Trial2BackFrS	NS	17	0	1000	1	114	12:31:24	3974656	5	3	1	2	0	3	0	3	1	4	3	2	0	0	0	5	5
083112	12:31:24	10039	Trial2BackFrS	NS	17	0	1000	1	114	12:31:24	3976175	5	3	1	2	0	3	0	3	1	4	3	2	0	0	0	5	5
083112	12:31:24	10039	Trial2BackFrS	YS	17	0	1000	0	114	12:31:24	3977694	5	3	1	2	0	3	0	3	1	4	3	2	0	0	0	5	5
083112	12:31:24	10039	Trial2BackFrS	NS	17	0	1000	1	114	12:31:24	3979214	5	3	1	2	0	3	0	3	1	4	3	2	0	0	0	5	5
083112	12:31:24	10039	Trial2BackFrS	NS	17	0	1000	1	114	12:31:24	3980733	5	3	1	2	0	3	0	3	1	4	3	2	0	0	0	5	5
083112	12:31:24	10039	Trial2BackFrS	NS	17	0	1000	1	114	12:31:24	3982252	5	3	1	2	0	3	0	3	1	4	3	2	0	0	0	5	5
083112	12:31:24	10039	Trial2BackFrS	NS	17	57	646	0	114	12:31:24	3983425	5	3	1	2	0	3	0	3	1	4	3	2	0	0	0	5	5
083112	12:31:24	10039	Trial2BackFrS	NS	17	0	1000	1	114	12:31:24	3985278	5	3	1	2	0	3	0	3	1	4	3	2	0	0	0	5	5
083112	12:31:24	10039	Trial2BackFrS	NS	17	0	1000	1	114	12:31:24	3986798	5	3	1	2	0	3	0	3	1	4	3	2	0	0	0	5	5
083112	12:31:24	10039	Trial2BackFrS	NS	17	0	1000	1	114	12:31:24	3988317	5	3	1	2	0	3	0	3	1	4	3	2	0	0	0	5	5
083112	12:31:24	10039	Trial2BackFrS	YS	17	57	425	1	114	12:31:24	3989276	5	3	1	2	0	3	0	3	1	4	3	2	0	0	0	5	5
083112	12:31:24	10039	Trial2BackFrS	NS	17	0	1000	1	114	12:31:24	3991342	5	3	1	2	0	3	0	3	1	4	3	2	0	0	0	5	5
083112	12:31:24	10039	Trial2BackFrS	NS	17	0	1000	1	114	12:31:24	3992862	5	3	1	2	0	3	0	3	1	4	3	2	0	0	0	5	5
083112	12:31:24	10039	Trial2BackFrS	NS	17	0	1000	1	114	12:31:24	3994381	5	3	1	2	0	3	0	3	1	4	3	2	0	0	0	5	5
083112	12:31:24	10039	Trial2BackFrS	NS	17	0	1000	1	114	12:31:24	3995900	5	3	1	2	0	3	0	3	1	4	3	2	0	0	0	5	5
083112	12:31:24	10039	Trial2BackFrS	YS	17	0	1000	0	114	12:31:24	3997420	5	3	1	2	0	3	0	3	1	4	3	2	0	0	0	5	5
083112	12:31:24	10039	Trial2BackFrS	NS	17	0	1000	1	114	12:31:24	3998939	5	3	1	2	0	3	0	3	1	4	3	2	0	0	0	5	5
083112	12:31:24	10039	Trial2BackFrS	NS	17	0	1000	1	114	12:31:24	4000458	5	3	1	2	0	3	0	3	1	4	3	2	0	0	0	5	5
083112	12:31:24	10039	Trial2BackFrS	YS	17	57	888	1	114	12:31:24	4001871	5	3	1	2	0	3	0	3	1	4	3	2	0	0	0	5	5
083112	12:31:24	10039	Trial2BackFrS	NS	17	0	1000	1	114	12:31:24	4003484	5	3	1	2	0	3	0	3	1	4	3	2	0	0	0	5	5
083112	12:31:24	10039	Trial2BackFrS	NS	17	0	1000	1	114	12:31:24	4005003	5	3	1	2	0	3	0	3	1	4	3	2	0	0	0	5	5
083112	12:31:24	10039	Trial2BackFrS	NS	17	0	1000	1	114	12:31:24	4006523	5	3	1	2	0	3	0	3	1	4	3	2	0	0	0	5	5
083112	12:31:24	10039	Trial2BackFrS	NS	17	0	1000	1	114	12:31:24	4008042	5	3	1	2	0	3	0	3	1	4	3	2	0	0	0	5	5
083112	12:31:24	10039	Trial2BackFrS	NS	17	0	1000	1	114	12:31:24	4009561	5	3	1	2	0	3	0	3	1	4	3	2	0	0	0	5	5
083112	12:31:24	10039	Trial2BackFrS	NS	17	0	1000	1	114	12:31:24	4011081	5	3	1	2	0	3	0	3	1	4	3	2	0	0	0	5	5
083112	12:31:24	10039	Trial2BackFrS	YS	17	57	602	1	114	12:31:24	4012214	5	3	1	2	0	3	0	3	1	4	3	2	0	0	0	5	5
083112	12:31:24	10039	Trial2BackFrS	NS	17	0	1000	1	114	12:31:24	4014106	5	3	1	2	0	3	0	3	1	4	3	2	0	0	0	5	5
083112	12:31:24	10039	Trial2BackFrS	NS	17	0	1000	1	114	12:31:24	4015625	5	3	1	2	0	3	0	3	1	4	3	2	0	0	0	5	5
083112	12:31:24	10039	Trial2BackFrS	NS	17	0	1000	1	114	12:31:24	4017145	5	3	1	2	0	3	0	3	1	4	3	2	0	0	0	5	5
083112	12:31:24	10039	Trial2BackFrS	NS	17	0	1000	1	114	12:31:24	4018704	5	3	1	2	0	3	0	3	1	4	3	2	0	0	0	5	5
083112	12:31:24	10039	Trial2BackFrS	YS	17	57	674	1	114	12:31:24	4019904	5	3	1	2	0	3	0	3	1	4	3	2	0	0	0	5	5
083112	12:31:24	10039	Trial2BackFrS	NS	17	0	1000	1	114	12:31:24	4021730	5	3	1	2	0	3	0	3	1	4	3	2	0	0	0	5	5
083112	12:31:24	10039	Trial2BackFrS	NS	17	0	1000	1	114	12:31:24	4023249	5	3	1	2	0	3	0	3	1	4	3	2	0	0	0	5	5
083112	12:31:24	10039	Trial2BackFrS	NS	17	0	1000	1	114	12:31:24	4024769	5	3	1	2	0	3	0	3	1	4	3	2	0	0	0	5	5
083112	12:31:24	10039	Trial2BackFrS	NS	17	57	737	0	114	12:31:24	4026035	5	3	1	2	0	3	0	3	1	4	3	2	0	0	0	5	5
083112	12:31:24	10039	Trial2BackFrS	YS	17	0	1000	0	114	12:31:24	4027794	5	3	1	2	0	3	0	3	1	4	3	2	0	0	0	5	5
083112	12:31:24	10039	Trial2BackFrS	NS	17	0	1000	1	114	12:31:24	4029314	5	3	1	2	0	3	0	3	1	4	3	2	0	0	0	5	5
083112	12:31:24	10039	Trial2BackFrS	NS	17	0	1000	1	114	12:31:24	4030833	5	3	1	2	0	3	0	3	1	4	3	2	0	0	0	5	5
083112	12:31:24	10039	Trial2BackFrS	YS	17	57	705	1	114	12:31:24	4032059	5	3	1	2	0	3	0	3	1	4	3	2	0	0	0	5	5
083112	12:31:24	10039	Trial2BackFrS	NS	17	0	1000	1	114	12:31:24	4033858	5	3	1	2	0	3	0	3	1	4	3	2	0	0	0	5	5
083112	12:31:24	10039	Trial2BackFrS	NS	17	0	1000	1	114	12:31:24	4035378	5	3	1	2	0	3	0	3	1	4	3	2	0	0	0	5	5
083112	12:31:24	10039	Trial2BackFrS	NS	17	57	864	0	114	12:31:24	4036764	5	3	1	2	0	3	0	3	1	4	3	2	0	0	0	5	5
083112	12:31:24	10039	Trial2BackFrS	NS	17	0	1000	1	114	12:31:24	4038403	5	3	1	2	0	3	0	3	1	4	3	2	0	0	0	5	5
083112	12:31:24	10039	Trial2BackFrS	NS	17	0	1000	1	114	12:31:24	4039923	5	3	1	2	0	3	0	3	1	4	3	2	0	0	0	5	5
083112	12:31:24	10039	Trial2BackFrS	NS	17	0	1000	1	114	12:31:24	4041442	5	3	1	2	0	3	0	3	1	4	3	2	0	0	0	5	5
083112	12:31:24	10039	Trial2BackFrS	NS	17	0	1000	1	114	12:31:24	4042961	5	3	1	2	0	3	0	3	1	4	3	2	0	0	0	5	5
083112	12:31:24	10039	Trial2BackFrS	NS	17	0	1000	1	114	12:31:24	4044481	5	3	1	2	0	3	0	3	1	4	3	2	0	0	0	5	5
083112	12:31:24	10039	Trial2BackFrS	YS	17	57	785	1	114	12:31:24	4045787	5	3	1	2	0	3	0	3	1	4	3	2	0	0	0	5	5
083112	12:31:24	10039	Trial2BackFrS	NS	17	0	1000	1	114	12:31:24	4047506	5	3	1	2	0	3	0	3	1	4	3	2	0	0	0	5	5
083112	12:31:24	10039	Trial2BackFrS	NS	17	0	1000	1	114	12:31:24	4049025	5	3	1	2	0	3	0	3	1	4	3	2	0	0	0	5	5
083112	12:31:24	10039	Trial2BackFrS	NS	17	0	1000	1	114	12:31:24	4050545	5	3	1	2	0	3	0	3	1	4	3	2	0	0	0	5	5
083112	12:31:24	10039	Trial2BackFrS	NS	17	0	1000	1	114	12:31:24	4052064	5	3	1	2	0	3	0	3	1	4	3	2	0	0	0	5	5
083112	12:31:24	10039	Trial2BackFrS	NS	17	0	1000	1	114	12:31:24	4053584	5	3	1	2	0	3	0	3	1	4	3	2	0	0	0	5	5
083112	12:31:24	10039	Trial2BackFrS	NS	17	0	1000	1	114	12:31:24	4055103	5	3	1	2	0	3	0	3	1	4	3	2	0	0	0	5	5
083112	12:31:24	10039	Trial2BackFrS	NS	17	0	1000	1	114	12:31:24	4056622	5	3	1	2	0	3	0	3	1	4	3	2	0	0	0	5	5
083112	12:31:24	10039	Trial2BackFrS	YS	17	57	643	1	114	12:31:24	4057795	5	3	1	2	0	3	0	3	1	4	3	2	0	0	0	5	5
083112	12:31:24	10039	Trial2BackFrS	NS	17	0	1000	1	114	12:31:24	4059648	5	3	1	2	0	3	0	3	1	4	3	2	0	0	0	5	5
083112	12:31:24	10039	Trial2BackFrS	NS	17	0	1000	1	114	12:31:24	4061167	5	3	1	2	0	3	0	3	1	4	3	2	0	0	0	5	5
083112	12:31:24	10039	Trial2BackFrS	NS	17	0	1000	1	114	12:31:24	4062687	5	3	1	2	0	3	0	3	1	4	3	2	0	0	0	5	5
083112	12:31:24	10039	Trial2BackFrS	NS	17	0	1000	1	114	12:31:24	4064206	5	3	1	2	0	3	0	3	1	4	3	2	0	0	0	5	5
083112	12:31:24	10039	Trial2BackFrS	NS	17	0	1000	1	114	12:31:24	4065725	5	3	1	2	0	3	0	3	1	4	3	2	0	0	0	5	5
083112	12:31:24	10039	Trial2BackFrS	NS	17	0	1000	1	114	12:31:24	4067245	5	3	1	2	0	3	0	3	1	4	3	2	0	0	0	5	5
083112	12:31:24	10039	Trial2BackFrS	NS	17	0	1000	1	114	12:31:24	4068764	5	3	1	2	0	3	0	3	1	4	3	2	0	0	0	5	5
083112	12:31:24	10039	Trial2BackFrS	NS	17	0	1000	1	114	12:31:24	4070284	5	3	1	2	0	3	0	3	1	4	3	2	0	0	0	5	5
083112	12:31:24	10039	Trial2BackFrS	NS	17	0	1000	1	114	12:31:24	4071803	5	3	1	2	0	3	0	3	1	4	3	2	0	0	0	5	5
083112	12:31:24	10039	Trial2BackFrS	YS	17	57	726	1	114	12:31:24	4073056	5	3	1	2	0	3	0	3	1	4	3	2	0	0	0	5	5
083112	12:31:24	10039	Trial2BackFrS	NS	17	0	1000	1	114	12:31:24	4074828	5	3	1	2	0	3	0	3	1	4	3	2	0	0	0	5	5
083112	12:31:24	10039	ClockFrBaseline	ClockFrBaseline	19	Clock1	73934	0	114	12:31:24	4148865	5	3	1	2	0	3	0	3	1	4	3	2	1	0	0	5	5
083112	12:31:24	10039	ClockFrBaseline	ClockFrBaseline	19	Clock11	932	0	114	12:31:24	4149838	5	3	1	2	0	3	0	3	1	4	3	2	1	1	0	5	5
083112	12:31:24	10039	ClockFrBaseline	ClockFrBaseline	19	Clock222	710	0	114	12:31:24	4150584	5	3	1	2	0	3	0	3	1	4	3	2	1	1	0	5	5
083112	12:31:24	10039	ClockFrBaseline	ClockFrBaseline	19	Clockdone	477	0	114	12:31:24	4151104	5	3	1	2	0	3	0	3	1	4	3	2	1	1	0	5	5
083112	12:31:24	10039	FASFrVFBaseline	StopFrVFBaseline	20	9	3722	0	114	12:31:24	4315852	5	3	1	2	0	3	0	3	1	4	3	2	1	1	0	5	5
