date	time	subject	blockcode	trialcode	values.TaskNumber	response	latency	correct	values.Score	script.starttime	script.elapsedtime	values.ScoreS7	values.Word1	values.Word2	values.Word3	values.Word4	values.Word5	values.Word6	values.Word7	values.Word8	values.DigitSpanFwrd	values.DigitSpanBack	values.ScoreAbs	values.Contour	values.Numbers	values.Hands	values.corsiblockspanFwrd	values.corsiblockspanRev
072312	12:31:23	10026	Language	Language	0	French	842	0	0	12:31:23	975	0	0	0	0	0	0	0	0	0	0	0	0	0	0	0	0	0
072312	12:31:23	10026	Session	Session	0	Baseline	904	0	0	12:31:23	1961	0	0	0	0	0	0	0	0	0	0	0	0	0	0	0	0	0
072312	12:31:23	10026	HandFr	HandFr	0	RightFr	829	0	0	12:31:23	2867	0	0	0	0	0	0	0	0	0	0	0	0	0	0	0	0	0
072312	12:31:23	10026	AudioCheckFr	WordsFr	0	0	0	0	0	12:31:23	666271	0	0	0	0	0	0	0	0	0	0	0	0	0	0	0	0	0
072312	12:31:23	10026	CubeFr	CubeFr	1	1Cube	40616	0	0	12:31:23	707928	0	0	0	0	0	0	0	0	0	0	0	0	0	0	0	0	0
072312	12:31:23	10026	pm.simpleFrRight	blank.simpleFr	2	0	1887	1	0	12:31:23	746619	0	0	0	0	0	0	0	0	0	0	0	0	0	0	0	0	0
072312	12:31:23	10026	pm.simpleFrRight	pm.simpleFr	2	57	632	0	0	12:31:23	747285	0	0	0	0	0	0	0	0	0	0	0	0	0	0	0	0	0
072312	12:31:23	10026	pm.simpleFrRight	blank.simpleFr	2	0	1587	1	0	12:31:23	748898	0	0	0	0	0	0	0	0	0	0	0	0	0	0	0	0	0
072312	12:31:23	10026	pm.simpleFrRight	pm.simpleFr	2	57	465	0	0	12:31:23	749404	0	0	0	0	0	0	0	0	0	0	0	0	0	0	0	0	0
072312	12:31:23	10026	pm.simpleFrRight	blank.simpleFr	2	0	1987	1	0	12:31:23	751417	0	0	0	0	0	0	0	0	0	0	0	0	0	0	0	0	0
072312	12:31:23	10026	pm.simpleFrRight	pm.simpleFr	2	57	330	0	0	12:31:23	751777	0	0	0	0	0	0	0	0	0	0	0	0	0	0	0	0	0
072312	12:31:23	10026	pm.simpleFrRight	blank.simpleFr	2	0	1687	1	0	12:31:23	753496	0	0	0	0	0	0	0	0	0	0	0	0	0	0	0	0	0
072312	12:31:23	10026	pm.simpleFrRight	pm.simpleFr	2	57	266	0	0	12:31:23	753802	0	0	0	0	0	0	0	0	0	0	0	0	0	0	0	0	0
072312	12:31:23	10026	pm.simpleFrRight	blank.simpleFr	2	0	2087	1	0	12:31:23	755922	0	0	0	0	0	0	0	0	0	0	0	0	0	0	0	0	0
072312	12:31:23	10026	pm.simpleFrRight	pm.simpleFr	2	57	241	0	0	12:31:23	756201	0	0	0	0	0	0	0	0	0	0	0	0	0	0	0	0	0
072312	12:31:23	10026	pm.simpleFrRight	blank.simpleFr	2	0	2487	1	0	12:31:23	758707	0	0	0	0	0	0	0	0	0	0	0	0	0	0	0	0	0
072312	12:31:23	10026	pm.simpleFrRight	pm.simpleFr	2	57	223	0	0	12:31:23	758960	0	0	0	0	0	0	0	0	0	0	0	0	0	0	0	0	0
072312	12:31:23	10026	pm.simpleFrRight	blank.simpleFr	2	0	2387	1	0	12:31:23	761373	0	0	0	0	0	0	0	0	0	0	0	0	0	0	0	0	0
072312	12:31:23	10026	pm.simpleFrRight	pm.simpleFr	2	57	277	0	0	12:31:23	761693	0	0	0	0	0	0	0	0	0	0	0	0	0	0	0	0	0
072312	12:31:23	10026	pm.simpleFrRight	blank.simpleFr	2	0	2287	1	0	12:31:23	764012	0	0	0	0	0	0	0	0	0	0	0	0	0	0	0	0	0
072312	12:31:23	10026	pm.simpleFrRight	pm.simpleFr	2	57	278	0	0	12:31:23	764332	0	0	0	0	0	0	0	0	0	0	0	0	0	0	0	0	0
072312	12:31:23	10026	pm.simpleFrRight	blank.simpleFr	2	0	1487	1	0	12:31:23	765837	0	0	0	0	0	0	0	0	0	0	0	0	0	0	0	0	0
072312	12:31:23	10026	pm.simpleFrRight	pm.simpleFr	2	57	229	0	0	12:31:23	766104	0	0	0	0	0	0	0	0	0	0	0	0	0	0	0	0	0
072312	12:31:23	10026	pm.simpleFrRight	blank.simpleFr	2	0	1787	1	0	12:31:23	767917	0	0	0	0	0	0	0	0	0	0	0	0	0	0	0	0	0
072312	12:31:23	10026	pm.simpleFrRight	pm.simpleFr	2	57	229	0	0	12:31:23	768183	0	0	0	0	0	0	0	0	0	0	0	0	0	0	0	0	0
072312	12:31:23	10026	pm.simpleFrRight	blank.simpleFr	2	0	2187	1	0	12:31:23	770396	0	0	0	0	0	0	0	0	0	0	0	0	0	0	0	0	0
072312	12:31:23	10026	pm.simpleFrRight	pm.simpleFr	2	57	230	0	0	12:31:23	770662	0	0	0	0	0	0	0	0	0	0	0	0	0	0	0	0	0
072312	12:31:23	10026	pm.simpleFrRight	blank.simpleFr	2	0	2487	1	0	12:31:23	773168	0	0	0	0	0	0	0	0	0	0	0	0	0	0	0	0	0
072312	12:31:23	10026	pm.simpleFrRight	pm.simpleFr	2	57	978	0	0	12:31:23	774181	0	0	0	0	0	0	0	0	0	0	0	0	0	0	0	0	0
072312	12:31:23	10026	pm.simpleFrRight	blank.simpleFr	2	0	1887	1	0	12:31:23	776100	0	0	0	0	0	0	0	0	0	0	0	0	0	0	0	0	0
072312	12:31:23	10026	pm.simpleFrRight	pm.simpleFr	2	57	269	0	0	12:31:23	776406	0	0	0	0	0	0	0	0	0	0	0	0	0	0	0	0	0
072312	12:31:23	10026	pm.simpleFrRight	blank.simpleFr	2	0	1487	1	0	12:31:23	777913	0	0	0	0	0	0	0	0	0	0	0	0	0	0	0	0	0
072312	12:31:23	10026	pm.simpleFrRight	pm.simpleFr	2	57	233	0	0	12:31:23	778179	0	0	0	0	0	0	0	0	0	0	0	0	0	0	0	0	0
072312	12:31:23	10026	pm.simpleFrRight	blank.simpleFr	2	0	2187	1	0	12:31:23	780392	0	0	0	0	0	0	0	0	0	0	0	0	0	0	0	0	0
072312	12:31:23	10026	pm.simpleFrRight	pm.simpleFr	2	57	218	0	0	12:31:23	780645	0	0	0	0	0	0	0	0	0	0	0	0	0	0	0	0	0
072312	12:31:23	10026	pm.simpleFrRight	blank.simpleFr	2	0	2287	1	0	12:31:23	782951	0	0	0	0	0	0	0	0	0	0	0	0	0	0	0	0	0
072312	12:31:23	10026	pm.simpleFrRight	pm.simpleFr	2	57	219	0	0	12:31:23	783204	0	0	0	0	0	0	0	0	0	0	0	0	0	0	0	0	0
072312	12:31:23	10026	pm.simpleFrRight	blank.simpleFr	2	0	1787	1	0	12:31:23	785017	0	0	0	0	0	0	0	0	0	0	0	0	0	0	0	0	0
072312	12:31:23	10026	pm.simpleFrRight	pm.simpleFr	2	57	217	0	0	12:31:23	785270	0	0	0	0	0	0	0	0	0	0	0	0	0	0	0	0	0
072312	12:31:23	10026	pm.simpleFrRight	blank.simpleFr	2	0	2387	1	0	12:31:23	787682	0	0	0	0	0	0	0	0	0	0	0	0	0	0	0	0	0
072312	12:31:23	10026	pm.simpleFrRight	pm.simpleFr	2	57	223	0	0	12:31:23	787935	0	0	0	0	0	0	0	0	0	0	0	0	0	0	0	0	0
072312	12:31:23	10026	pm.simpleFrRight	blank.simpleFr	2	0	1987	1	0	12:31:23	789948	0	0	0	0	0	0	0	0	0	0	0	0	0	0	0	0	0
072312	12:31:23	10026	pm.simpleFrRight	pm.simpleFr	2	57	229	0	0	12:31:23	790214	0	0	0	0	0	0	0	0	0	0	0	0	0	0	0	0	0
072312	12:31:23	10026	pm.simpleFrRight	blank.simpleFr	2	0	1587	1	0	12:31:23	791827	0	0	0	0	0	0	0	0	0	0	0	0	0	0	0	0	0
072312	12:31:23	10026	pm.simpleFrRight	pm.simpleFr	2	57	222	0	0	12:31:23	792080	0	0	0	0	0	0	0	0	0	0	0	0	0	0	0	0	0
072312	12:31:23	10026	pm.simpleFrRight	blank.simpleFr	2	0	2087	1	0	12:31:23	794199	0	0	0	0	0	0	0	0	0	0	0	0	0	0	0	0	0
072312	12:31:23	10026	pm.simpleFrRight	pm.simpleFr	2	57	234	0	0	12:31:23	794466	0	0	0	0	0	0	0	0	0	0	0	0	0	0	0	0	0
072312	12:31:23	10026	pm.simpleFrRight	blank.simpleFr	2	0	1687	1	0	12:31:23	796185	0	0	0	0	0	0	0	0	0	0	0	0	0	0	0	0	0
072312	12:31:23	10026	pm.simpleFrRight	pm.simpleFr	2	57	216	0	0	12:31:23	796439	0	0	0	0	0	0	0	0	0	0	0	0	0	0	0	0	0
072312	12:31:23	10026	pm.simpleFrRight	blank.simpleFr	2	0	1487	1	0	12:31:23	797945	0	0	0	0	0	0	0	0	0	0	0	0	0	0	0	0	0
072312	12:31:23	10026	pm.simpleFrRight	pm.simpleFr	2	57	232	0	0	12:31:23	798211	0	0	0	0	0	0	0	0	0	0	0	0	0	0	0	0	0
072312	12:31:23	10026	pm.simpleFrRight	blank.simpleFr	2	0	1787	1	0	12:31:23	800024	0	0	0	0	0	0	0	0	0	0	0	0	0	0	0	0	0
072312	12:31:23	10026	pm.simpleFrRight	pm.simpleFr	2	57	217	0	0	12:31:23	800277	0	0	0	0	0	0	0	0	0	0	0	0	0	0	0	0	0
072312	12:31:23	10026	pm.simpleFrRight	blank.simpleFr	2	0	2387	1	0	12:31:23	802689	0	0	0	0	0	0	0	0	0	0	0	0	0	0	0	0	0
072312	12:31:23	10026	pm.simpleFrRight	pm.simpleFr	2	57	224	0	0	12:31:23	802956	0	0	0	0	0	0	0	0	0	0	0	0	0	0	0	0	0
072312	12:31:23	10026	pm.simpleFrRight	blank.simpleFr	2	0	1987	1	0	12:31:23	804969	0	0	0	0	0	0	0	0	0	0	0	0	0	0	0	0	0
072312	12:31:23	10026	pm.simpleFrRight	pm.simpleFr	2	57	217	0	0	12:31:23	805222	0	0	0	0	0	0	0	0	0	0	0	0	0	0	0	0	0
072312	12:31:23	10026	pm.simpleFrRight	blank.simpleFr	2	0	1887	1	0	12:31:23	807141	0	0	0	0	0	0	0	0	0	0	0	0	0	0	0	0	0
072312	12:31:23	10026	pm.simpleFrRight	pm.simpleFr	2	57	284	0	0	12:31:23	807461	0	0	0	0	0	0	0	0	0	0	0	0	0	0	0	0	0
072312	12:31:23	10026	pm.simpleFrRight	blank.simpleFr	2	0	2087	1	0	12:31:23	809580	0	0	0	0	0	0	0	0	0	0	0	0	0	0	0	0	0
072312	12:31:23	10026	pm.simpleFrRight	pm.simpleFr	2	57	213	0	0	12:31:23	809833	0	0	0	0	0	0	0	0	0	0	0	0	0	0	0	0	0
072312	12:31:23	10026	pm.simpleFrRight	blank.simpleFr	2	0	1687	1	0	12:31:23	811553	0	0	0	0	0	0	0	0	0	0	0	0	0	0	0	0	0
072312	12:31:23	10026	pm.simpleFrRight	pm.simpleFr	2	57	208	0	0	12:31:23	811792	0	0	0	0	0	0	0	0	0	0	0	0	0	0	0	0	0
072312	12:31:23	10026	pm.simpleFrRight	blank.simpleFr	2	0	2487	1	0	12:31:23	814311	0	0	0	0	0	0	0	0	0	0	0	0	0	0	0	0	0
072312	12:31:23	10026	pm.simpleFrRight	pm.simpleFr	2	57	202	0	0	12:31:23	814551	0	0	0	0	0	0	0	0	0	0	0	0	0	0	0	0	0
072312	12:31:23	10026	pm.simpleFrRight	blank.simpleFr	2	0	2187	1	0	12:31:23	816764	0	0	0	0	0	0	0	0	0	0	0	0	0	0	0	0	0
072312	12:31:23	10026	pm.simpleFrRight	pm.simpleFr	2	57	245	0	0	12:31:23	817044	0	0	0	0	0	0	0	0	0	0	0	0	0	0	0	0	0
072312	12:31:23	10026	pm.simpleFrRight	blank.simpleFr	2	0	2287	1	0	12:31:23	819363	0	0	0	0	0	0	0	0	0	0	0	0	0	0	0	0	0
072312	12:31:23	10026	pm.simpleFrRight	pm.simpleFr	2	57	238	0	0	12:31:23	819643	0	0	0	0	0	0	0	0	0	0	0	0	0	0	0	0	0
072312	12:31:23	10026	pm.simpleFrRight	blank.simpleFr	2	0	1587	1	0	12:31:23	821255	0	0	0	0	0	0	0	0	0	0	0	0	0	0	0	0	0
072312	12:31:23	10026	pm.simpleFrRight	pm.simpleFr	2	57	281	0	0	12:31:23	821575	0	0	0	0	0	0	0	0	0	0	0	0	0	0	0	0	0
072312	12:31:23	10026	pm.simpleFrRight	blank.simpleFr	2	0	1587	1	0	12:31:23	823188	0	0	0	0	0	0	0	0	0	0	0	0	0	0	0	0	0
072312	12:31:23	10026	pm.simpleFrRight	pm.simpleFr	2	57	285	0	0	12:31:23	823508	0	0	0	0	0	0	0	0	0	0	0	0	0	0	0	0	0
072312	12:31:23	10026	pm.simpleFrRight	blank.simpleFr	2	0	2087	1	0	12:31:23	825627	0	0	0	0	0	0	0	0	0	0	0	0	0	0	0	0	0
072312	12:31:23	10026	pm.simpleFrRight	pm.simpleFr	2	57	214	0	0	12:31:23	825880	0	0	0	0	0	0	0	0	0	0	0	0	0	0	0	0	0
072312	12:31:23	10026	pm.simpleFrRight	blank.simpleFr	2	0	1487	1	0	12:31:23	827386	0	0	0	0	0	0	0	0	0	0	0	0	0	0	0	0	0
072312	12:31:23	10026	pm.simpleFrRight	pm.simpleFr	2	57	246	0	0	12:31:23	827666	0	0	0	0	0	0	0	0	0	0	0	0	0	0	0	0	0
072312	12:31:23	10026	pm.simpleFrRight	blank.simpleFr	2	0	1687	1	0	12:31:23	829372	0	0	0	0	0	0	0	0	0	0	0	0	0	0	0	0	0
072312	12:31:23	10026	pm.simpleFrRight	pm.simpleFr	2	57	245	0	0	12:31:23	829652	0	0	0	0	0	0	0	0	0	0	0	0	0	0	0	0	0
072312	12:31:23	10026	pm.simpleFrRight	blank.simpleFr	2	0	2387	1	0	12:31:23	832064	0	0	0	0	0	0	0	0	0	0	0	0	0	0	0	0	0
072312	12:31:23	10026	pm.simpleFrRight	pm.simpleFr	2	57	224	0	0	12:31:23	832331	0	0	0	0	0	0	0	0	0	0	0	0	0	0	0	0	0
072312	12:31:23	10026	pm.simpleFrRight	blank.simpleFr	2	0	2487	1	0	12:31:23	834850	0	0	0	0	0	0	0	0	0	0	0	0	0	0	0	0	0
072312	12:31:23	10026	pm.simpleFrRight	pm.simpleFr	2	57	255	0	0	12:31:23	835143	0	0	0	0	0	0	0	0	0	0	0	0	0	0	0	0	0
072312	12:31:23	10026	pm.simpleFrRight	blank.simpleFr	2	0	1987	1	0	12:31:23	837156	0	0	0	0	0	0	0	0	0	0	0	0	0	0	0	0	0
072312	12:31:23	10026	pm.simpleFrRight	pm.simpleFr	2	57	269	0	0	12:31:23	837462	0	0	0	0	0	0	0	0	0	0	0	0	0	0	0	0	0
072312	12:31:23	10026	Trial2BackFr	N	3	0	1000	1	1	12:31:23	896984	0	0	0	0	0	0	0	0	0	0	0	0	0	0	0	0	0
072312	12:31:23	10026	Trial2BackFr	N	3	0	1000	1	2	12:31:23	898504	0	0	0	0	0	0	0	0	0	0	0	0	0	0	0	0	0
072312	12:31:23	10026	Trial2BackFr	N	3	0	1000	1	3	12:31:23	900023	0	0	0	0	0	0	0	0	0	0	0	0	0	0	0	0	0
072312	12:31:23	10026	Trial2BackFr	N	3	0	1000	1	4	12:31:23	901543	0	0	0	0	0	0	0	0	0	0	0	0	0	0	0	0	0
072312	12:31:23	10026	Trial2BackFr	N	3	0	1000	1	5	12:31:23	903062	0	0	0	0	0	0	0	0	0	0	0	0	0	0	0	0	0
072312	12:31:23	10026	Trial2BackFr	N	3	0	1000	1	6	12:31:23	904582	0	0	0	0	0	0	0	0	0	0	0	0	0	0	0	0	0
072312	12:31:23	10026	Trial2BackFr	N	3	0	1000	1	7	12:31:23	906101	0	0	0	0	0	0	0	0	0	0	0	0	0	0	0	0	0
072312	12:31:23	10026	Trial2BackFr	N	3	0	1000	1	8	12:31:23	907620	0	0	0	0	0	0	0	0	0	0	0	0	0	0	0	0	0
072312	12:31:23	10026	Trial2BackFr	Y	3	0	1000	0	8	12:31:23	909140	0	0	0	0	0	0	0	0	0	0	0	0	0	0	0	0	0
072312	12:31:23	10026	Trial2BackFr	N	3	57	704	0	8	12:31:23	910366	0	0	0	0	0	0	0	0	0	0	0	0	0	0	0	0	0
072312	12:31:23	10026	Trial2BackFr	N	3	0	1000	1	9	12:31:23	912165	0	0	0	0	0	0	0	0	0	0	0	0	0	0	0	0	0
072312	12:31:23	10026	Trial2BackFr	N	3	0	1000	1	10	12:31:23	913684	0	0	0	0	0	0	0	0	0	0	0	0	0	0	0	0	0
072312	12:31:23	10026	Trial2BackFr	Y	3	57	447	1	11	12:31:23	914657	0	0	0	0	0	0	0	0	0	0	0	0	0	0	0	0	0
072312	12:31:23	10026	Trial2BackFr	N	3	0	1000	1	12	12:31:23	916710	0	0	0	0	0	0	0	0	0	0	0	0	0	0	0	0	0
072312	12:31:23	10026	Trial2BackFr	N	3	0	1000	1	13	12:31:23	918229	0	0	0	0	0	0	0	0	0	0	0	0	0	0	0	0	0
072312	12:31:23	10026	Trial2BackFr	N	3	0	1000	1	14	12:31:23	919749	0	0	0	0	0	0	0	0	0	0	0	0	0	0	0	0	0
072312	12:31:23	10026	Trial2BackFr	N	3	0	1000	1	15	12:31:23	921268	0	0	0	0	0	0	0	0	0	0	0	0	0	0	0	0	0
072312	12:31:23	10026	Trial2BackFr	N	3	0	1000	1	16	12:31:23	922788	0	0	0	0	0	0	0	0	0	0	0	0	0	0	0	0	0
072312	12:31:23	10026	Trial2BackFr	Y	3	57	767	1	17	12:31:23	924080	0	0	0	0	0	0	0	0	0	0	0	0	0	0	0	0	0
072312	12:31:23	10026	Trial2BackFr	N	3	0	1000	1	18	12:31:23	925813	0	0	0	0	0	0	0	0	0	0	0	0	0	0	0	0	0
072312	12:31:23	10026	Trial2BackFr	N	3	0	1000	1	19	12:31:23	927332	0	0	0	0	0	0	0	0	0	0	0	0	0	0	0	0	0
072312	12:31:23	10026	Trial2BackFr	N	3	0	1000	1	20	12:31:23	928852	0	0	0	0	0	0	0	0	0	0	0	0	0	0	0	0	0
072312	12:31:23	10026	Trial2BackFr	N	3	0	1000	1	21	12:31:23	930371	0	0	0	0	0	0	0	0	0	0	0	0	0	0	0	0	0
072312	12:31:23	10026	Trial2BackFr	Y	3	57	768	1	22	12:31:23	931664	0	0	0	0	0	0	0	0	0	0	0	0	0	0	0	0	0
072312	12:31:23	10026	Trial2BackFr	N	3	0	1000	1	23	12:31:23	933397	0	0	0	0	0	0	0	0	0	0	0	0	0	0	0	0	0
072312	12:31:23	10026	Trial2BackFr	N	3	0	1000	1	24	12:31:23	934916	0	0	0	0	0	0	0	0	0	0	0	0	0	0	0	0	0
072312	12:31:23	10026	Trial2BackFr	N	3	0	1000	1	25	12:31:23	936435	0	0	0	0	0	0	0	0	0	0	0	0	0	0	0	0	0
072312	12:31:23	10026	Trial2BackFr	N	3	0	1000	1	26	12:31:23	937955	0	0	0	0	0	0	0	0	0	0	0	0	0	0	0	0	0
072312	12:31:23	10026	Trial2BackFr	N	3	0	1000	1	27	12:31:23	939474	0	0	0	0	0	0	0	0	0	0	0	0	0	0	0	0	0
072312	12:31:23	10026	Trial2BackFr	N	3	0	1000	1	28	12:31:23	940994	0	0	0	0	0	0	0	0	0	0	0	0	0	0	0	0	0
072312	12:31:23	10026	Trial2BackFr	Y	3	57	641	1	29	12:31:23	942166	0	0	0	0	0	0	0	0	0	0	0	0	0	0	0	0	0
072312	12:31:23	10026	Trial2BackFr	N	3	0	1000	1	30	12:31:23	944019	0	0	0	0	0	0	0	0	0	0	0	0	0	0	0	0	0
072312	12:31:23	10026	Trial2BackFr	N	3	57	719	0	30	12:31:23	945272	0	0	0	0	0	0	0	0	0	0	0	0	0	0	0	0	0
072312	12:31:23	10026	Trial2BackFr	N	3	0	1000	1	31	12:31:23	947044	0	0	0	0	0	0	0	0	0	0	0	0	0	0	0	0	0
072312	12:31:23	10026	Trial2BackFr	Y	3	57	590	1	32	12:31:23	948164	0	0	0	0	0	0	0	0	0	0	0	0	0	0	0	0	0
072312	12:31:23	10026	Trial2BackFr	N	3	0	1000	1	33	12:31:23	950070	0	0	0	0	0	0	0	0	0	0	0	0	0	0	0	0	0
072312	12:31:23	10026	Trial2BackFr	N	3	0	1000	1	34	12:31:23	951589	0	0	0	0	0	0	0	0	0	0	0	0	0	0	0	0	0
072312	12:31:23	10026	Trial2BackFr	N	3	0	1000	1	35	12:31:23	953109	0	0	0	0	0	0	0	0	0	0	0	0	0	0	0	0	0
072312	12:31:23	10026	Trial2BackFr	N	3	0	1000	1	36	12:31:23	954628	0	0	0	0	0	0	0	0	0	0	0	0	0	0	0	0	0
072312	12:31:23	10026	Trial2BackFr	N	3	57	622	0	36	12:31:23	955774	0	0	0	0	0	0	0	0	0	0	0	0	0	0	0	0	0
072312	12:31:23	10026	Trial2BackFr	N	3	0	1000	1	37	12:31:23	957653	0	0	0	0	0	0	0	0	0	0	0	0	0	0	0	0	0
072312	12:31:23	10026	Trial2BackFr	Y	3	57	765	1	38	12:31:23	958946	0	0	0	0	0	0	0	0	0	0	0	0	0	0	0	0	0
072312	12:31:23	10026	Trial2BackFr	N	3	0	1000	1	39	12:31:23	960679	0	0	0	0	0	0	0	0	0	0	0	0	0	0	0	0	0
072312	12:31:23	10026	Trial2BackFr	N	3	0	1000	1	40	12:31:23	962198	0	0	0	0	0	0	0	0	0	0	0	0	0	0	0	0	0
072312	12:31:23	10026	Trial2BackFr	N	3	0	1000	1	41	12:31:23	963718	0	0	0	0	0	0	0	0	0	0	0	0	0	0	0	0	0
072312	12:31:23	10026	Trial2BackFr	N	3	0	1000	1	42	12:31:23	965237	0	0	0	0	0	0	0	0	0	0	0	0	0	0	0	0	0
072312	12:31:23	10026	Trial2BackFr	Y	3	57	673	1	43	12:31:23	966436	0	0	0	0	0	0	0	0	0	0	0	0	0	0	0	0	0
072312	12:31:23	10026	Trial2BackFr	N	3	0	1000	1	44	12:31:23	968262	0	0	0	0	0	0	0	0	0	0	0	0	0	0	0	0	0
072312	12:31:23	10026	Trial2BackFr	N	3	0	1000	1	45	12:31:23	969782	0	0	0	0	0	0	0	0	0	0	0	0	0	0	0	0	0
072312	12:31:23	10026	Trial2BackFr	N	3	0	1000	1	46	12:31:23	971301	0	0	0	0	0	0	0	0	0	0	0	0	0	0	0	0	0
072312	12:31:23	10026	Trial2BackFr	N	3	0	1000	1	47	12:31:23	972821	0	0	0	0	0	0	0	0	0	0	0	0	0	0	0	0	0
072312	12:31:23	10026	Trial2BackFr	N	3	0	1000	1	48	12:31:23	974340	0	0	0	0	0	0	0	0	0	0	0	0	0	0	0	0	0
072312	12:31:23	10026	Trial2BackFr	Y	3	57	670	1	49	12:31:23	975540	0	0	0	0	0	0	0	0	0	0	0	0	0	0	0	0	0
072312	12:31:23	10026	Trial2BackFr	N	3	0	1000	1	50	12:31:23	977365	0	0	0	0	0	0	0	0	0	0	0	0	0	0	0	0	0
072312	12:31:23	10026	Trial2BackFr	N	3	0	1000	1	51	12:31:23	978885	0	0	0	0	0	0	0	0	0	0	0	0	0	0	0	0	0
072312	12:31:23	10026	Trial2BackFr	N	3	0	1000	1	52	12:31:23	980404	0	0	0	0	0	0	0	0	0	0	0	0	0	0	0	0	0
072312	12:31:23	10026	Trial2BackFr	N	3	0	1000	1	53	12:31:23	981924	0	0	0	0	0	0	0	0	0	0	0	0	0	0	0	0	0
072312	12:31:23	10026	Trial2BackFr	N	3	0	1000	1	54	12:31:23	983443	0	0	0	0	0	0	0	0	0	0	0	0	0	0	0	0	0
072312	12:31:23	10026	Trial2BackFr	N	3	0	1000	1	55	12:31:23	984962	0	0	0	0	0	0	0	0	0	0	0	0	0	0	0	0	0
072312	12:31:23	10026	Trial2BackFr	Y	3	57	687	1	56	12:31:23	986175	0	0	0	0	0	0	0	0	0	0	0	0	0	0	0	0	0
072312	12:31:23	10026	Trial2BackFr	N	3	0	1000	1	57	12:31:23	987988	0	0	0	0	0	0	0	0	0	0	0	0	0	0	0	0	0
072312	12:31:23	10026	Trial2BackFr	N	3	0	1000	1	58	12:31:23	989507	0	0	0	0	0	0	0	0	0	0	0	0	0	0	0	0	0
072312	12:31:23	10026	Trial2BackFr	Y	3	57	686	1	59	12:31:23	990720	0	0	0	0	0	0	0	0	0	0	0	0	0	0	0	0	0
072312	12:31:23	10026	Trial2BackFr	N	3	0	1000	1	60	12:31:23	992533	0	0	0	0	0	0	0	0	0	0	0	0	0	0	0	0	0
072312	12:31:23	10026	Trial2BackFr	N	3	0	1000	1	61	12:31:23	994052	0	0	0	0	0	0	0	0	0	0	0	0	0	0	0	0	0
072312	12:31:23	10026	Trial2BackFr	N	3	0	1000	1	62	12:31:23	995571	0	0	0	0	0	0	0	0	0	0	0	0	0	0	0	0	0
072312	12:31:23	10026	Trial2BackFr	N	3	57	862	0	62	12:31:23	996957	0	0	0	0	0	0	0	0	0	0	0	0	0	0	0	0	0
072312	12:31:23	10026	Trial2BackFr	N	3	0	1000	1	63	12:31:23	998597	0	0	0	0	0	0	0	0	0	0	0	0	0	0	0	0	0
072312	12:31:23	10026	Trial2BackFr	N	3	0	1000	1	64	12:31:23	1000116	0	0	0	0	0	0	0	0	0	0	0	0	0	0	0	0	0
072312	12:31:23	10026	Trial2BackFr	N	3	0	1000	1	65	12:31:23	1001636	0	0	0	0	0	0	0	0	0	0	0	0	0	0	0	0	0
072312	12:31:23	10026	Trial2BackFr	N	3	0	1000	1	66	12:31:23	1003155	0	0	0	0	0	0	0	0	0	0	0	0	0	0	0	0	0
072312	12:31:23	10026	Trial2BackFr	N	3	0	1000	1	67	12:31:23	1004674	0	0	0	0	0	0	0	0	0	0	0	0	0	0	0	0	0
072312	12:31:23	10026	Trial2BackFr	N	3	0	1000	1	68	12:31:23	1006194	0	0	0	0	0	0	0	0	0	0	0	0	0	0	0	0	0
072312	12:31:23	10026	Trial2BackFr	Y	3	57	591	1	69	12:31:23	1007313	0	0	0	0	0	0	0	0	0	0	0	0	0	0	0	0	0
072312	12:31:23	10026	Trial2BackFr	N	3	0	1000	1	70	12:31:23	1009219	0	0	0	0	0	0	0	0	0	0	0	0	0	0	0	0	0
072312	12:31:23	10026	Trial2BackFr	N	3	0	1000	1	71	12:31:23	1010739	0	0	0	0	0	0	0	0	0	0	0	0	0	0	0	0	0
072312	12:31:23	10026	Trial2BackFr	N	3	0	1000	1	72	12:31:23	1012258	0	0	0	0	0	0	0	0	0	0	0	0	0	0	0	0	0
072312	12:31:23	10026	Trial2BackFr	Y	3	57	687	1	73	12:31:23	1013471	0	0	0	0	0	0	0	0	0	0	0	0	0	0	0	0	0
072312	12:31:23	10026	Trial2BackFr	N	3	0	1000	1	74	12:31:23	1015284	0	0	0	0	0	0	0	0	0	0	0	0	0	0	0	0	0
072312	12:31:23	10026	Trial2BackFr	N	3	0	1000	1	75	12:31:23	1016803	0	0	0	0	0	0	0	0	0	0	0	0	0	0	0	0	0
072312	12:31:23	10026	Trial2BackFr	N	3	0	1000	1	76	12:31:23	1018322	0	0	0	0	0	0	0	0	0	0	0	0	0	0	0	0	0
072312	12:31:23	10026	Trial2BackFr	N	3	0	1000	1	77	12:31:23	1019842	0	0	0	0	0	0	0	0	0	0	0	0	0	0	0	0	0
072312	12:31:23	10026	Trial2BackFr	N	3	0	1000	1	78	12:31:23	1021361	0	0	0	0	0	0	0	0	0	0	0	0	0	0	0	0	0
072312	12:31:23	10026	Trial2BackFr	Y	3	57	944	1	79	12:31:23	1022827	0	0	0	0	0	0	0	0	0	0	0	0	0	0	0	0	0
072312	12:31:23	10026	Trial2BackFr	N	3	0	1000	1	80	12:31:23	1024387	0	0	0	0	0	0	0	0	0	0	0	0	0	0	0	0	0
072312	12:31:23	10026	Trial2BackFr	N	3	0	1000	1	81	12:31:23	1025906	0	0	0	0	0	0	0	0	0	0	0	0	0	0	0	0	0
072312	12:31:23	10026	Trial2BackFr	N	3	0	1000	1	82	12:31:23	1027425	0	0	0	0	0	0	0	0	0	0	0	0	0	0	0	0	0
072312	12:31:23	10026	Trial2BackFr	N	3	0	1000	1	83	12:31:23	1028945	0	0	0	0	0	0	0	0	0	0	0	0	0	0	0	0	0
072312	12:31:23	10026	Trial2BackFr	N	3	0	1000	1	84	12:31:23	1030464	0	0	0	0	0	0	0	0	0	0	0	0	0	0	0	0	0
072312	12:31:23	10026	Trial2BackFr	N	3	0	1000	1	85	12:31:23	1031983	0	0	0	0	0	0	0	0	0	0	0	0	0	0	0	0	0
072312	12:31:23	10026	Trial2BackFr	N	3	0	1000	1	86	12:31:23	1033503	0	0	0	0	0	0	0	0	0	0	0	0	0	0	0	0	0
072312	12:31:23	10026	Trial2BackFr	N	3	0	1000	1	87	12:31:23	1035022	0	0	0	0	0	0	0	0	0	0	0	0	0	0	0	0	0
072312	12:31:23	10026	Trial2BackFr	N	3	0	1000	1	88	12:31:23	1036541	0	0	0	0	0	0	0	0	0	0	0	0	0	0	0	0	0
072312	12:31:23	10026	Trial2BackFr	Y	3	57	835	1	89	12:31:23	1037901	0	0	0	0	0	0	0	0	0	0	0	0	0	0	0	0	0
072312	12:31:23	10026	Trial2BackFr	N	3	0	1000	1	90	12:31:23	1039567	0	0	0	0	0	0	0	0	0	0	0	0	0	0	0	0	0
072312	12:31:23	10026	Trial2BackFr	N	3	0	1000	1	91	12:31:23	1041086	0	0	0	0	0	0	0	0	0	0	0	0	0	0	0	0	0
072312	12:31:23	10026	Trial2BackFr	N	3	0	1000	1	92	12:31:23	1042606	0	0	0	0	0	0	0	0	0	0	0	0	0	0	0	0	0
072312	12:31:23	10026	Trial2BackFr	N	3	0	1000	1	93	12:31:23	1044125	0	0	0	0	0	0	0	0	0	0	0	0	0	0	0	0	0
072312	12:31:23	10026	Trial2BackFr	N	3	0	1000	1	94	12:31:23	1045645	0	0	0	0	0	0	0	0	0	0	0	0	0	0	0	0	0
072312	12:31:23	10026	Trial2BackFr	N	3	0	1000	1	95	12:31:23	1047164	0	0	0	0	0	0	0	0	0	0	0	0	0	0	0	0	0
072312	12:31:23	10026	Trial2BackFr	N	3	0	1000	1	96	12:31:23	1048683	0	0	0	0	0	0	0	0	0	0	0	0	0	0	0	0	0
072312	12:31:23	10026	Trial2BackFr	N	3	0	1000	1	97	12:31:23	1050203	0	0	0	0	0	0	0	0	0	0	0	0	0	0	0	0	0
072312	12:31:23	10026	Trial2BackFr	Y	3	57	645	1	98	12:31:23	1051375	0	0	0	0	0	0	0	0	0	0	0	0	0	0	0	0	0
072312	12:31:23	10026	Trial2BackFr	N	3	0	1000	1	99	12:31:23	1053228	0	0	0	0	0	0	0	0	0	0	0	0	0	0	0	0	0
072312	12:31:23	10026	Trial2BackFr	N	3	0	1000	1	100	12:31:23	1054748	0	0	0	0	0	0	0	0	0	0	0	0	0	0	0	0	0
072312	12:31:23	10026	Trial2BackFr	N	3	0	1000	1	101	12:31:23	1056267	0	0	0	0	0	0	0	0	0	0	0	0	0	0	0	0	0
072312	12:31:23	10026	Trial2BackFr	N	3	0	1000	1	102	12:31:23	1057786	0	0	0	0	0	0	0	0	0	0	0	0	0	0	0	0	0
072312	12:31:23	10026	Trial2BackFr	Y	3	57	709	1	103	12:31:23	1059026	0	0	0	0	0	0	0	0	0	0	0	0	0	0	0	0	0
072312	12:31:23	10026	Trial2BackFr	N	3	0	1000	1	104	12:31:23	1060812	0	0	0	0	0	0	0	0	0	0	0	0	0	0	0	0	0
072312	12:31:23	10026	Trial2BackFr	N	3	0	1000	1	105	12:31:23	1062331	0	0	0	0	0	0	0	0	0	0	0	0	0	0	0	0	0
072312	12:31:23	10026	Trial2BackFr	N	3	0	1000	1	106	12:31:23	1063851	0	0	0	0	0	0	0	0	0	0	0	0	0	0	0	0	0
072312	12:31:23	10026	Trial2BackFr	Y	3	0	1000	0	106	12:31:23	1065370	0	0	0	0	0	0	0	0	0	0	0	0	0	0	0	0	0
072312	12:31:23	10026	Trial2BackFr	N	3	0	1000	1	107	12:31:23	1066889	0	0	0	0	0	0	0	0	0	0	0	0	0	0	0	0	0
072312	12:31:23	10026	Trial2BackFr	N	3	0	1000	1	108	12:31:23	1068409	0	0	0	0	0	0	0	0	0	0	0	0	0	0	0	0	0
072312	12:31:23	10026	Trial2BackFr	N	3	0	1000	1	109	12:31:23	1069928	0	0	0	0	0	0	0	0	0	0	0	0	0	0	0	0	0
072312	12:31:23	10026	Trial2BackFr	N	3	0	1000	1	110	12:31:23	1071447	0	0	0	0	0	0	0	0	0	0	0	0	0	0	0	0	0
072312	12:31:23	10026	Trial2BackFr	N	3	0	1000	1	111	12:31:23	1072967	0	0	0	0	0	0	0	0	0	0	0	0	0	0	0	0	0
072312	12:31:23	10026	Trial2BackFr	Y	3	0	1000	0	111	12:31:23	1074486	0	0	0	0	0	0	0	0	0	0	0	0	0	0	0	0	0
072312	12:31:23	10026	Trial2BackFr	N	3	0	1000	1	112	12:31:23	1076006	0	0	0	0	0	0	0	0	0	0	0	0	0	0	0	0	0
072312	12:31:23	10026	Trial2BackFr	N	3	0	1000	1	113	12:31:23	1077525	0	0	0	0	0	0	0	0	0	0	0	0	0	0	0	0	0
072312	12:31:23	10026	Trial2BackFr	N	3	0	1000	1	114	12:31:23	1079044	0	0	0	0	0	0	0	0	0	0	0	0	0	0	0	0	0
072312	12:31:23	10026	Trial2BackFr	Y	3	0	1000	0	114	12:31:23	1080564	0	0	0	0	0	0	0	0	0	0	0	0	0	0	0	0	0
072312	12:31:23	10026	Trial3BackFr	NN	4	0	1000	1	114	12:31:23	1093599	0	0	0	0	0	0	0	0	0	0	0	0	0	0	0	0	0
072312	12:31:23	10026	Trial3BackFr	NN	4	0	1000	1	114	12:31:23	1095118	0	0	0	0	0	0	0	0	0	0	0	0	0	0	0	0	0
072312	12:31:23	10026	Trial3BackFr	NN	4	0	1000	1	114	12:31:23	1096637	0	0	0	0	0	0	0	0	0	0	0	0	0	0	0	0	0
072312	12:31:23	10026	Trial3BackFr	YY	4	57	786	1	114	12:31:23	1097957	0	0	0	0	0	0	0	0	0	0	0	0	0	0	0	0	0
072312	12:31:23	10026	Trial3BackFr	NN	4	0	1000	1	114	12:31:23	1099663	0	0	0	0	0	0	0	0	0	0	0	0	0	0	0	0	0
072312	12:31:23	10026	Trial3BackFr	NN	4	0	1000	1	114	12:31:23	1101182	0	0	0	0	0	0	0	0	0	0	0	0	0	0	0	0	0
072312	12:31:23	10026	Trial3BackFr	NN	4	0	1000	1	114	12:31:23	1102701	0	0	0	0	0	0	0	0	0	0	0	0	0	0	0	0	0
072312	12:31:23	10026	Trial3BackFr	NN	4	0	1000	1	114	12:31:23	1104221	0	0	0	0	0	0	0	0	0	0	0	0	0	0	0	0	0
072312	12:31:23	10026	Trial3BackFr	YY	4	0	1000	0	114	12:31:23	1105740	0	0	0	0	0	0	0	0	0	0	0	0	0	0	0	0	0
072312	12:31:23	10026	Trial3BackFr	NN	4	0	1000	1	114	12:31:23	1107260	0	0	0	0	0	0	0	0	0	0	0	0	0	0	0	0	0
072312	12:31:23	10026	Trial3BackFr	NN	4	0	1000	1	114	12:31:23	1108779	0	0	0	0	0	0	0	0	0	0	0	0	0	0	0	0	0
072312	12:31:23	10026	Trial3BackFr	NN	4	0	1000	1	114	12:31:23	1110298	0	0	0	0	0	0	0	0	0	0	0	0	0	0	0	0	0
072312	12:31:23	10026	Trial3BackFr	NN	4	0	1000	1	114	12:31:23	1111818	0	0	0	0	0	0	0	0	0	0	0	0	0	0	0	0	0
072312	12:31:23	10026	Trial3BackFr	NN	4	0	1000	1	114	12:31:23	1113337	0	0	0	0	0	0	0	0	0	0	0	0	0	0	0	0	0
072312	12:31:23	10026	Trial3BackFr	NN	4	57	453	0	114	12:31:23	1114323	0	0	0	0	0	0	0	0	0	0	0	0	0	0	0	0	0
072312	12:31:23	10026	Trial3BackFr	NN	4	0	1000	1	114	12:31:23	1116363	0	0	0	0	0	0	0	0	0	0	0	0	0	0	0	0	0
072312	12:31:23	10026	Trial3BackFr	YY	4	0	1000	0	114	12:31:23	1117882	0	0	0	0	0	0	0	0	0	0	0	0	0	0	0	0	0
072312	12:31:23	10026	Trial3BackFr	NN	4	0	1000	1	114	12:31:23	1119401	0	0	0	0	0	0	0	0	0	0	0	0	0	0	0	0	0
072312	12:31:23	10026	Trial3BackFr	NN	4	0	1000	1	114	12:31:23	1120921	0	0	0	0	0	0	0	0	0	0	0	0	0	0	0	0	0
072312	12:31:23	10026	Trial3BackFr	NN	4	0	1000	1	114	12:31:23	1122440	0	0	0	0	0	0	0	0	0	0	0	0	0	0	0	0	0
072312	12:31:23	10026	Trial3BackFr	NN	4	0	1000	1	114	12:31:23	1123959	0	0	0	0	0	0	0	0	0	0	0	0	0	0	0	0	0
072312	12:31:23	10026	Trial3BackFr	NN	4	0	1000	1	114	12:31:23	1125479	0	0	0	0	0	0	0	0	0	0	0	0	0	0	0	0	0
072312	12:31:23	10026	Trial3BackFr	YY	4	57	423	1	114	12:31:23	1126425	0	0	0	0	0	0	0	0	0	0	0	0	0	0	0	0	0
072312	12:31:23	10026	Trial3BackFr	NN	4	0	1000	1	114	12:31:23	1128504	0	0	0	0	0	0	0	0	0	0	0	0	0	0	0	0	0
072312	12:31:23	10026	Trial3BackFr	NN	4	0	1000	1	114	12:31:23	1130024	0	0	0	0	0	0	0	0	0	0	0	0	0	0	0	0	0
072312	12:31:23	10026	Trial3BackFr	NN	4	0	1000	1	114	12:31:23	1131543	0	0	0	0	0	0	0	0	0	0	0	0	0	0	0	0	0
072312	12:31:23	10026	Trial3BackFr	YY	4	57	487	1	114	12:31:23	1132556	0	0	0	0	0	0	0	0	0	0	0	0	0	0	0	0	0
072312	12:31:23	10026	Trial3BackFr	NN	4	0	1000	1	114	12:31:23	1134569	0	0	0	0	0	0	0	0	0	0	0	0	0	0	0	0	0
072312	12:31:23	10026	Trial3BackFr	NN	4	0	1000	1	114	12:31:23	1136088	0	0	0	0	0	0	0	0	0	0	0	0	0	0	0	0	0
072312	12:31:23	10026	Trial3BackFr	NN	4	0	1000	1	114	12:31:23	1137607	0	0	0	0	0	0	0	0	0	0	0	0	0	0	0	0	0
072312	12:31:23	10026	Trial3BackFr	YY	4	0	1000	0	114	12:31:23	1139127	0	0	0	0	0	0	0	0	0	0	0	0	0	0	0	0	0
072312	12:31:23	10026	Trial3BackFr	NN	4	57	791	0	114	12:31:23	1140446	0	0	0	0	0	0	0	0	0	0	0	0	0	0	0	0	0
072312	12:31:23	10026	Trial3BackFr	NN	4	0	1000	1	114	12:31:23	1142152	0	0	0	0	0	0	0	0	0	0	0	0	0	0	0	0	0
072312	12:31:23	10026	Trial3BackFr	NN	4	0	1000	1	114	12:31:23	1143672	0	0	0	0	0	0	0	0	0	0	0	0	0	0	0	0	0
072312	12:31:23	10026	Trial3BackFr	NN	4	0	1000	1	114	12:31:23	1145191	0	0	0	0	0	0	0	0	0	0	0	0	0	0	0	0	0
072312	12:31:23	10026	Trial3BackFr	NN	4	0	1000	1	114	12:31:23	1146711	0	0	0	0	0	0	0	0	0	0	0	0	0	0	0	0	0
072312	12:31:23	10026	Trial3BackFr	NN	4	0	1000	1	114	12:31:23	1148230	0	0	0	0	0	0	0	0	0	0	0	0	0	0	0	0	0
072312	12:31:23	10026	Trial3BackFr	NN	4	0	1000	1	114	12:31:23	1149802	0	0	0	0	0	0	0	0	0	0	0	0	0	0	0	0	0
072312	12:31:23	10026	Trial3BackFr	NN	4	0	1000	1	114	12:31:23	1151322	0	0	0	0	0	0	0	0	0	0	0	0	0	0	0	0	0
072312	12:31:23	10026	Trial3BackFr	NN	4	0	1000	1	114	12:31:23	1152841	0	0	0	0	0	0	0	0	0	0	0	0	0	0	0	0	0
072312	12:31:23	10026	Trial3BackFr	NN	4	0	1000	1	114	12:31:23	1154361	0	0	0	0	0	0	0	0	0	0	0	0	0	0	0	0	0
072312	12:31:23	10026	Trial3BackFr	YY	4	0	1000	0	114	12:31:23	1155880	0	0	0	0	0	0	0	0	0	0	0	0	0	0	0	0	0
072312	12:31:23	10026	Trial3BackFr	NN	4	0	1000	1	114	12:31:23	1157399	0	0	0	0	0	0	0	0	0	0	0	0	0	0	0	0	0
072312	12:31:23	10026	Trial3BackFr	NN	4	0	1000	1	114	12:31:23	1158919	0	0	0	0	0	0	0	0	0	0	0	0	0	0	0	0	0
072312	12:31:23	10026	Trial3BackFr	NN	4	0	1000	1	114	12:31:23	1160438	0	0	0	0	0	0	0	0	0	0	0	0	0	0	0	0	0
072312	12:31:23	10026	Trial3BackFr	NN	4	0	1000	1	114	12:31:23	1161958	0	0	0	0	0	0	0	0	0	0	0	0	0	0	0	0	0
072312	12:31:23	10026	Trial3BackFr	YY	4	57	888	1	114	12:31:23	1163370	0	0	0	0	0	0	0	0	0	0	0	0	0	0	0	0	0
072312	12:31:23	10026	Trial3BackFr	NN	4	0	1000	1	114	12:31:23	1164983	0	0	0	0	0	0	0	0	0	0	0	0	0	0	0	0	0
072312	12:31:23	10026	Trial3BackFr	NN	4	0	1000	1	114	12:31:23	1166502	0	0	0	0	0	0	0	0	0	0	0	0	0	0	0	0	0
072312	12:31:23	10026	Trial3BackFr	NN	4	0	1000	1	114	12:31:23	1168022	0	0	0	0	0	0	0	0	0	0	0	0	0	0	0	0	0
072312	12:31:23	10026	Trial3BackFr	NN	4	0	1000	1	114	12:31:23	1169541	0	0	0	0	0	0	0	0	0	0	0	0	0	0	0	0	0
072312	12:31:23	10026	Trial3BackFr	NN	4	0	1000	1	114	12:31:23	1171061	0	0	0	0	0	0	0	0	0	0	0	0	0	0	0	0	0
072312	12:31:23	10026	Trial3BackFr	YY	4	0	1000	0	114	12:31:23	1172580	0	0	0	0	0	0	0	0	0	0	0	0	0	0	0	0	0
072312	12:31:23	10026	Trial3BackFr	NN	4	0	1000	1	114	12:31:23	1174099	0	0	0	0	0	0	0	0	0	0	0	0	0	0	0	0	0
072312	12:31:23	10026	Trial3BackFr	NN	4	0	1000	1	114	12:31:23	1175619	0	0	0	0	0	0	0	0	0	0	0	0	0	0	0	0	0
072312	12:31:23	10026	Trial3BackFr	NN	4	0	1000	1	114	12:31:23	1177138	0	0	0	0	0	0	0	0	0	0	0	0	0	0	0	0	0
072312	12:31:23	10026	Trial3BackFr	NN	4	0	1000	1	114	12:31:23	1178657	0	0	0	0	0	0	0	0	0	0	0	0	0	0	0	0	0
072312	12:31:23	10026	Trial3BackFr	NN	4	0	1000	1	114	12:31:23	1180177	0	0	0	0	0	0	0	0	0	0	0	0	0	0	0	0	0
072312	12:31:23	10026	Trial3BackFr	NN	4	0	1000	1	114	12:31:23	1181696	0	0	0	0	0	0	0	0	0	0	0	0	0	0	0	0	0
072312	12:31:23	10026	Trial3BackFr	YY	4	0	1000	0	114	12:31:23	1183215	0	0	0	0	0	0	0	0	0	0	0	0	0	0	0	0	0
072312	12:31:23	10026	Trial3BackFr	NN	4	0	1000	1	114	12:31:23	1184735	0	0	0	0	0	0	0	0	0	0	0	0	0	0	0	0	0
072312	12:31:23	10026	Trial3BackFr	NN	4	0	1000	1	114	12:31:23	1186254	0	0	0	0	0	0	0	0	0	0	0	0	0	0	0	0	0
072312	12:31:23	10026	Trial3BackFr	NN	4	0	1000	1	114	12:31:23	1187774	0	0	0	0	0	0	0	0	0	0	0	0	0	0	0	0	0
072312	12:31:23	10026	Trial3BackFr	YY	4	57	335	1	114	12:31:23	1188640	0	0	0	0	0	0	0	0	0	0	0	0	0	0	0	0	0
072312	12:31:23	10026	Trial3BackFr	NN	4	0	1000	1	114	12:31:23	1190799	0	0	0	0	0	0	0	0	0	0	0	0	0	0	0	0	0
072312	12:31:23	10026	Trial3BackFr	NN	4	0	1000	1	114	12:31:23	1192319	0	0	0	0	0	0	0	0	0	0	0	0	0	0	0	0	0
072312	12:31:23	10026	Trial3BackFr	NN	4	0	1000	1	114	12:31:23	1193838	0	0	0	0	0	0	0	0	0	0	0	0	0	0	0	0	0
072312	12:31:23	10026	Trial3BackFr	NN	4	0	1000	1	114	12:31:23	1195357	0	0	0	0	0	0	0	0	0	0	0	0	0	0	0	0	0
072312	12:31:23	10026	Trial3BackFr	NN	4	0	1000	1	114	12:31:23	1196877	0	0	0	0	0	0	0	0	0	0	0	0	0	0	0	0	0
072312	12:31:23	10026	Trial3BackFr	NN	4	0	1000	1	114	12:31:23	1198396	0	0	0	0	0	0	0	0	0	0	0	0	0	0	0	0	0
072312	12:31:23	10026	Trial3BackFr	NN	4	0	1000	1	114	12:31:23	1199915	0	0	0	0	0	0	0	0	0	0	0	0	0	0	0	0	0
072312	12:31:23	10026	Trial3BackFr	NN	4	0	1000	1	114	12:31:23	1201435	0	0	0	0	0	0	0	0	0	0	0	0	0	0	0	0	0
072312	12:31:23	10026	Trial3BackFr	NN	4	0	1000	1	114	12:31:23	1202954	0	0	0	0	0	0	0	0	0	0	0	0	0	0	0	0	0
072312	12:31:23	10026	Trial3BackFr	YY	4	0	1000	0	114	12:31:23	1204474	0	0	0	0	0	0	0	0	0	0	0	0	0	0	0	0	0
072312	12:31:23	10026	Trial3BackFr	NN	4	0	1000	1	114	12:31:23	1205993	0	0	0	0	0	0	0	0	0	0	0	0	0	0	0	0	0
072312	12:31:23	10026	Trial3BackFr	NN	4	0	1000	1	114	12:31:23	1207512	0	0	0	0	0	0	0	0	0	0	0	0	0	0	0	0	0
072312	12:31:23	10026	Trial3BackFr	NN	4	0	1000	1	114	12:31:23	1209032	0	0	0	0	0	0	0	0	0	0	0	0	0	0	0	0	0
072312	12:31:23	10026	Trial3BackFr	YY	4	0	1000	0	114	12:31:23	1210551	0	0	0	0	0	0	0	0	0	0	0	0	0	0	0	0	0
072312	12:31:23	10026	Trial3BackFr	NN	4	0	1000	1	114	12:31:23	1212071	0	0	0	0	0	0	0	0	0	0	0	0	0	0	0	0	0
072312	12:31:23	10026	Trial3BackFr	NN	4	0	1000	1	114	12:31:23	1213590	0	0	0	0	0	0	0	0	0	0	0	0	0	0	0	0	0
072312	12:31:23	10026	Trial3BackFr	NN	4	0	1000	1	114	12:31:23	1215109	0	0	0	0	0	0	0	0	0	0	0	0	0	0	0	0	0
072312	12:31:23	10026	Trial3BackFr	NN	4	0	1000	1	114	12:31:23	1216629	0	0	0	0	0	0	0	0	0	0	0	0	0	0	0	0	0
072312	12:31:23	10026	Trial3BackFr	NN	4	0	1000	1	114	12:31:23	1218148	0	0	0	0	0	0	0	0	0	0	0	0	0	0	0	0	0
072312	12:31:23	10026	Trial3BackFr	YY	4	0	1000	0	114	12:31:23	1219668	0	0	0	0	0	0	0	0	0	0	0	0	0	0	0	0	0
072312	12:31:23	10026	Trial3BackFr	NN	4	0	1000	1	114	12:31:23	1221187	0	0	0	0	0	0	0	0	0	0	0	0	0	0	0	0	0
072312	12:31:23	10026	Trial3BackFr	NN	4	0	1000	1	114	12:31:23	1222706	0	0	0	0	0	0	0	0	0	0	0	0	0	0	0	0	0
072312	12:31:23	10026	Trial3BackFr	NN	4	0	1000	1	114	12:31:23	1224226	0	0	0	0	0	0	0	0	0	0	0	0	0	0	0	0	0
072312	12:31:23	10026	Trial3BackFr	NN	4	0	1000	1	114	12:31:23	1225745	0	0	0	0	0	0	0	0	0	0	0	0	0	0	0	0	0
072312	12:31:23	10026	Trial3BackFr	NN	4	0	1000	1	114	12:31:23	1227264	0	0	0	0	0	0	0	0	0	0	0	0	0	0	0	0	0
072312	12:31:23	10026	Trial3BackFr	NN	4	0	1000	1	114	12:31:23	1228784	0	0	0	0	0	0	0	0	0	0	0	0	0	0	0	0	0
072312	12:31:23	10026	Trial3BackFr	NN	4	0	1000	1	114	12:31:23	1230303	0	0	0	0	0	0	0	0	0	0	0	0	0	0	0	0	0
072312	12:31:23	10026	Trial3BackFr	NN	4	0	1000	1	114	12:31:23	1231823	0	0	0	0	0	0	0	0	0	0	0	0	0	0	0	0	0
072312	12:31:23	10026	Trial3BackFr	NN	4	0	1000	1	114	12:31:23	1233342	0	0	0	0	0	0	0	0	0	0	0	0	0	0	0	0	0
072312	12:31:23	10026	Trial3BackFr	YY	4	0	1000	0	114	12:31:23	1234861	0	0	0	0	0	0	0	0	0	0	0	0	0	0	0	0	0
072312	12:31:23	10026	Trial3BackFr	NN	4	0	1000	1	114	12:31:23	1236381	0	0	0	0	0	0	0	0	0	0	0	0	0	0	0	0	0
072312	12:31:23	10026	Trial3BackFr	NN	4	0	1000	1	114	12:31:23	1237900	0	0	0	0	0	0	0	0	0	0	0	0	0	0	0	0	0
072312	12:31:23	10026	Trial3BackFr	NN	4	0	1000	1	114	12:31:23	1239419	0	0	0	0	0	0	0	0	0	0	0	0	0	0	0	0	0
072312	12:31:23	10026	Trial3BackFr	NN	4	0	1000	1	114	12:31:23	1240939	0	0	0	0	0	0	0	0	0	0	0	0	0	0	0	0	0
072312	12:31:23	10026	Trial3BackFr	NN	4	0	1000	1	114	12:31:23	1242458	0	0	0	0	0	0	0	0	0	0	0	0	0	0	0	0	0
072312	12:31:23	10026	Trial3BackFr	NN	4	0	1000	1	114	12:31:23	1243978	0	0	0	0	0	0	0	0	0	0	0	0	0	0	0	0	0
072312	12:31:23	10026	Trial3BackFr	NN	4	0	1000	1	114	12:31:23	1245497	0	0	0	0	0	0	0	0	0	0	0	0	0	0	0	0	0
072312	12:31:23	10026	Trial3BackFr	NN	4	0	1000	1	114	12:31:23	1247016	0	0	0	0	0	0	0	0	0	0	0	0	0	0	0	0	0
072312	12:31:23	10026	Trial3BackFr	YY	4	57	627	1	114	12:31:23	1248176	0	0	0	0	0	0	0	0	0	0	0	0	0	0	0	0	0
072312	12:31:23	10026	Trial3BackFr	NN	4	0	1000	1	114	12:31:23	1250042	0	0	0	0	0	0	0	0	0	0	0	0	0	0	0	0	0
072312	12:31:23	10026	Trial3BackFr	NN	4	0	1000	1	114	12:31:23	1251561	0	0	0	0	0	0	0	0	0	0	0	0	0	0	0	0	0
072312	12:31:23	10026	Trial3BackFr	NN	4	0	1000	1	114	12:31:23	1253081	0	0	0	0	0	0	0	0	0	0	0	0	0	0	0	0	0
072312	12:31:23	10026	Trial3BackFr	NN	4	0	1000	1	114	12:31:23	1254600	0	0	0	0	0	0	0	0	0	0	0	0	0	0	0	0	0
072312	12:31:23	10026	Trial3BackFr	YY	4	0	1000	0	114	12:31:23	1256120	0	0	0	0	0	0	0	0	0	0	0	0	0	0	0	0	0
072312	12:31:23	10026	Trial3BackFr	NN	4	0	1000	1	114	12:31:23	1257639	0	0	0	0	0	0	0	0	0	0	0	0	0	0	0	0	0
072312	12:31:23	10026	Trial3BackFr	NN	4	0	1000	1	114	12:31:23	1259158	0	0	0	0	0	0	0	0	0	0	0	0	0	0	0	0	0
072312	12:31:23	10026	Trial3BackFr	NN	4	0	1000	1	114	12:31:23	1260678	0	0	0	0	0	0	0	0	0	0	0	0	0	0	0	0	0
072312	12:31:23	10026	Trial3BackFr	YY	4	57	454	1	114	12:31:23	1261664	0	0	0	0	0	0	0	0	0	0	0	0	0	0	0	0	0
072312	12:31:23	10026	Trial3BackFr	NN	4	0	1000	1	114	12:31:23	1263703	0	0	0	0	0	0	0	0	0	0	0	0	0	0	0	0	0
072312	12:31:23	10026	Trial3BackFr	NN	4	0	1000	1	114	12:31:23	1265222	0	0	0	0	0	0	0	0	0	0	0	0	0	0	0	0	0
072312	12:31:23	10026	Trial3BackFr	NN	4	0	1000	1	114	12:31:23	1266742	0	0	0	0	0	0	0	0	0	0	0	0	0	0	0	0	0
072312	12:31:23	10026	Trial3BackFr	NN	4	0	1000	1	114	12:31:23	1268261	0	0	0	0	0	0	0	0	0	0	0	0	0	0	0	0	0
072312	12:31:23	10026	Trial3BackFr	NN	4	0	1000	1	114	12:31:23	1269781	0	0	0	0	0	0	0	0	0	0	0	0	0	0	0	0	0
072312	12:31:23	10026	Trial3BackFr	YY	4	0	1000	0	114	12:31:23	1271300	0	0	0	0	0	0	0	0	0	0	0	0	0	0	0	0	0
072312	12:31:23	10026	Trial3BackFr	NN	4	0	1000	1	114	12:31:23	1272819	0	0	0	0	0	0	0	0	0	0	0	0	0	0	0	0	0
072312	12:31:23	10026	Trial3BackFr	NN	4	0	1000	1	114	12:31:23	1274339	0	0	0	0	0	0	0	0	0	0	0	0	0	0	0	0	0
072312	12:31:23	10026	Trial3BackFr	NN	4	0	1000	1	114	12:31:23	1275858	0	0	0	0	0	0	0	0	0	0	0	0	0	0	0	0	0
072312	12:31:23	10026	Trial3BackFr	YY	4	0	1000	0	114	12:31:23	1277377	0	0	0	0	0	0	0	0	0	0	0	0	0	0	0	0	0
072312	12:31:23	10026	Memory1RBaselineFr	ScoreFr	5	M3	15778	0	114	12:31:23	1332649	0	0	0	0	0	0	0	0	0	0	0	0	0	0	0	0	0
072312	12:31:23	10026	Memory1RBaselineFr	ScoreFr	5	M6	2119	0	114	12:31:23	1334808	0	0	0	0	0	0	0	0	0	0	0	0	0	0	0	0	0
072312	12:31:23	10026	Memory1RBaselineFr	ScoreFr	5	M7	183	0	114	12:31:23	1335034	0	0	0	0	0	0	0	0	0	0	0	0	0	0	0	0	0
072312	12:31:23	10026	Memory1RBaselineFr	ScoreFr	5	Done	12693	0	114	12:31:23	1347763	0	0	0	0	0	0	0	0	0	0	0	0	0	0	0	0	0
072312	12:31:23	10026	Memory2RBaselineFr	ScoreFr2	5	11	34087	0	114	12:31:23	1400554	0	0	0	0	0	0	0	0	0	0	0	0	0	0	0	0	0
072312	12:31:23	10026	Memory2RBaselineFr	ScoreFr2	5	22	755	0	114	12:31:23	1401354	0	0	0	0	0	0	0	0	0	0	0	0	0	0	0	0	0
072312	12:31:23	10026	Memory2RBaselineFr	ScoreFr2	5	33	451	0	114	12:31:23	1401847	0	0	0	0	0	0	0	0	0	0	0	0	0	0	0	0	0
072312	12:31:23	10026	Memory2RBaselineFr	ScoreFr2	5	66	1622	0	114	12:31:23	1403513	0	0	0	0	0	0	0	0	0	0	0	0	0	0	0	0	0
072312	12:31:23	10026	Memory2RBaselineFr	ScoreFr2	5	77	676	0	114	12:31:23	1404233	0	0	0	0	0	0	0	0	0	0	0	0	0	0	0	0	0
072312	12:31:23	10026	Memory2RBaselineFr	ScoreFr2	5	88	597	0	114	12:31:23	1404873	0	0	0	0	0	0	0	0	0	0	0	0	0	0	0	0	0
072312	12:31:23	10026	Memory2RBaselineFr	ScoreFr2	5	Done	1437	0	114	12:31:23	1406352	0	0	0	0	0	0	0	0	0	0	0	0	0	0	0	0	0
072312	12:31:23	10026	Memory3RBaselineFr	ScoreFr3	5	111	47107	0	114	12:31:23	1471686	0	0	0	0	0	0	0	0	0	0	0	0	0	0	0	0	0
072312	12:31:23	10026	Memory3RBaselineFr	ScoreFr3	5	222	254	0	114	12:31:23	1471979	0	0	0	0	0	0	0	0	0	0	0	0	0	0	0	0	0
072312	12:31:23	10026	Memory3RBaselineFr	ScoreFr3	5	333	217	0	114	12:31:23	1472232	0	0	0	0	0	0	0	0	0	0	0	0	0	0	0	0	0
072312	12:31:23	10026	Memory3RBaselineFr	ScoreFr3	5	555	460	0	114	12:31:23	1472739	0	0	0	0	0	0	0	0	0	0	0	0	0	0	0	0	0
072312	12:31:23	10026	Memory3RBaselineFr	ScoreFr3	5	666	1337	0	114	12:31:23	1474111	0	0	0	0	0	0	0	0	0	0	0	0	0	0	0	0	0
072312	12:31:23	10026	Memory3RBaselineFr	ScoreFr3	5	777	396	0	114	12:31:23	1474551	0	0	0	0	0	0	0	0	0	0	0	0	0	0	0	0	0
072312	12:31:23	10026	Memory3RBaselineFr	ScoreFr3	5	888	613	0	114	12:31:23	1475204	0	0	0	0	0	0	0	0	0	0	0	0	0	0	0	0	0
072312	12:31:23	10026	Memory3RBaselineFr	ScoreFr3	5	Done	320	0	114	12:31:23	1475564	0	0	0	0	0	0	0	0	0	0	0	0	0	0	0	0	0
072312	12:31:23	10026	LoriaFrLH3	Stop	6	3	3112	0	114	12:31:23	1570314	0	0	0	0	0	0	0	0	0	0	0	0	0	0	0	0	0
072312	12:31:23	10026	FrTrail	Trails	7	1Trails	1151	0	114	12:31:23	1614588	0	0	0	0	0	0	0	0	0	0	0	0	0	0	0	0	0
072312	12:31:23	10026	Serial7FrBaseline	Serial7FrBaseline	8	83	2948	0	114	12:31:23	1701527	1	0	0	0	0	0	0	0	0	0	0	0	0	0	0	0	0
072312	12:31:23	10026	Serial7FrBaseline	Serial7FrBaseline	8	74	2156	0	114	12:31:23	1703700	1	0	0	0	0	0	0	0	0	0	0	0	0	0	0	0	0
072312	12:31:23	10026	Serial7FrBaseline	Serial7FrBaseline	8	66	3063	0	114	12:31:23	1706779	1	0	0	0	0	0	0	0	0	0	0	0	0	0	0	0	0
072312	12:31:23	10026	Serial7FrBaseline	Serial7FrBaseline	8	59	2048	0	114	12:31:23	1708844	2	0	0	0	0	0	0	0	0	0	0	0	0	0	0	0	0
072312	12:31:23	10026	Serial7FrBaseline	Serial7FrBaseline	8	52	2287	0	114	12:31:23	1711150	3	0	0	0	0	0	0	0	0	0	0	0	0	0	0	0	0
072312	12:31:23	10026	corsiblockFrFwrd	recallseqFrFwrd	9	1	4150	0	114	12:31:23	1777177	3	0	0	0	0	0	0	0	0	0	0	0	0	0	0	0	0
072312	12:31:23	10026	corsiblockFrFwrd	recallseqFrFwrd	9	3	1309	0	114	12:31:23	1778523	3	0	0	0	0	0	0	0	0	0	0	0	0	0	0	0	0
072312	12:31:23	10026	corsiblockFrFwrd	recallseqFrFwrd	9	doneCorsiFr	3514	0	114	12:31:23	1782081	3	0	0	0	0	0	0	0	0	0	0	0	0	0	0	2	0
072312	12:31:23	10026	corsiblockFrFwrd	recallseqFrFwrd	9	7	1073	0	114	12:31:23	1789238	3	0	0	0	0	0	0	0	0	0	0	0	0	0	0	2	0
072312	12:31:23	10026	corsiblockFrFwrd	recallseqFrFwrd	9	8	1127	0	114	12:31:23	1790398	3	0	0	0	0	0	0	0	0	0	0	0	0	0	0	2	0
072312	12:31:23	10026	corsiblockFrFwrd	recallseqFrFwrd	9	6	1735	0	114	12:31:23	1792171	3	0	0	0	0	0	0	0	0	0	0	0	0	0	0	2	0
072312	12:31:23	10026	corsiblockFrFwrd	recallseqFrFwrd	9	doneCorsiFr	1299	0	114	12:31:23	1793503	3	0	0	0	0	0	0	0	0	0	0	0	0	0	0	3	0
072312	12:31:23	10026	corsiblockFrFwrd	recallseqFrFwrd	9	2	1043	0	114	12:31:23	1801633	3	0	0	0	0	0	0	0	0	0	0	0	0	0	0	3	0
072312	12:31:23	10026	corsiblockFrFwrd	recallseqFrFwrd	9	4	931	0	114	12:31:23	1802606	3	0	0	0	0	0	0	0	0	0	0	0	0	0	0	3	0
072312	12:31:23	10026	corsiblockFrFwrd	recallseqFrFwrd	9	9	934	0	114	12:31:23	1803579	3	0	0	0	0	0	0	0	0	0	0	0	0	0	0	3	0
072312	12:31:23	10026	corsiblockFrFwrd	recallseqFrFwrd	9	5	1010	0	114	12:31:23	1804632	3	0	0	0	0	0	0	0	0	0	0	0	0	0	0	3	0
072312	12:31:23	10026	corsiblockFrFwrd	recallseqFrFwrd	9	doneCorsiFr	837	0	114	12:31:23	1805512	3	0	0	0	0	0	0	0	0	0	0	0	0	0	0	4	0
072312	12:31:23	10026	corsiblockFrFwrd	recallseqFrFwrd	9	6	1130	0	114	12:31:23	1814735	3	0	0	0	0	0	0	0	0	0	0	0	0	0	0	4	0
072312	12:31:23	10026	corsiblockFrFwrd	recallseqFrFwrd	9	9	1414	0	114	12:31:23	1816188	3	0	0	0	0	0	0	0	0	0	0	0	0	0	0	4	0
072312	12:31:23	10026	corsiblockFrFwrd	recallseqFrFwrd	9	8	721	0	114	12:31:23	1816947	3	0	0	0	0	0	0	0	0	0	0	0	0	0	0	4	0
072312	12:31:23	10026	corsiblockFrFwrd	recallseqFrFwrd	9	7	921	0	114	12:31:23	1817907	3	0	0	0	0	0	0	0	0	0	0	0	0	0	0	4	0
072312	12:31:23	10026	corsiblockFrFwrd	recallseqFrFwrd	9	2	874	0	114	12:31:23	1818826	3	0	0	0	0	0	0	0	0	0	0	0	0	0	0	4	0
072312	12:31:23	10026	corsiblockFrFwrd	recallseqFrFwrd	9	doneCorsiFr	3746	0	114	12:31:23	1822612	3	0	0	0	0	0	0	0	0	0	0	0	0	0	0	5	0
072312	12:31:23	10026	corsiblockFrFwrd	recallseqFrFwrd	9	4	1407	0	114	12:31:23	1833114	3	0	0	0	0	0	0	0	0	0	0	0	0	0	0	5	0
072312	12:31:23	10026	corsiblockFrFwrd	recallseqFrFwrd	9	3	1002	0	114	12:31:23	1834154	3	0	0	0	0	0	0	0	0	0	0	0	0	0	0	5	0
072312	12:31:23	10026	corsiblockFrFwrd	recallseqFrFwrd	9	5	1003	0	114	12:31:23	1835193	3	0	0	0	0	0	0	0	0	0	0	0	0	0	0	5	0
072312	12:31:23	10026	corsiblockFrFwrd	recallseqFrFwrd	9	1	1235	0	114	12:31:23	1836473	3	0	0	0	0	0	0	0	0	0	0	0	0	0	0	5	0
072312	12:31:23	10026	corsiblockFrFwrd	recallseqFrFwrd	9	9	2875	0	114	12:31:23	1839392	3	0	0	0	0	0	0	0	0	0	0	0	0	0	0	5	0
072312	12:31:23	10026	corsiblockFrFwrd	recallseqFrFwrd	9	6	1085	0	114	12:31:23	1840511	3	0	0	0	0	0	0	0	0	0	0	0	0	0	0	5	0
072312	12:31:23	10026	corsiblockFrFwrd	recallseqFrFwrd	9	doneCorsiFr	1069	0	114	12:31:23	1841617	3	0	0	0	0	0	0	0	0	0	0	0	0	0	0	5	0
072312	12:31:23	10026	corsiblockFrFwrd	recallseqFrFwrd	9	4	2025	0	114	12:31:23	1852693	3	0	0	0	0	0	0	0	0	0	0	0	0	0	0	5	0
072312	12:31:23	10026	corsiblockFrFwrd	recallseqFrFwrd	9	2	1575	0	114	12:31:23	1854306	3	0	0	0	0	0	0	0	0	0	0	0	0	0	0	5	0
072312	12:31:23	10026	corsiblockFrFwrd	recallseqFrFwrd	9	1	1002	0	114	12:31:23	1855345	3	0	0	0	0	0	0	0	0	0	0	0	0	0	0	5	0
072312	12:31:23	10026	corsiblockFrFwrd	recallseqFrFwrd	9	7	1123	0	114	12:31:23	1856505	3	0	0	0	0	0	0	0	0	0	0	0	0	0	0	5	0
072312	12:31:23	10026	corsiblockFrFwrd	recallseqFrFwrd	9	3	2147	0	114	12:31:23	1858690	3	0	0	0	0	0	0	0	0	0	0	0	0	0	0	5	0
072312	12:31:23	10026	corsiblockFrFwrd	recallseqFrFwrd	9	doneCorsiFr	3305	0	114	12:31:23	1862036	3	0	0	0	0	0	0	0	0	0	0	0	0	0	0	5	0
072312	12:31:23	10026	corsiblockFrRev	recallseqFrRev	10	2	1163	0	114	12:31:23	1879495	3	0	0	0	0	0	0	0	0	0	0	0	0	0	0	5	0
072312	12:31:23	10026	corsiblockFrRev	recallseqFrRev	10	8	1084	0	114	12:31:23	1880615	3	0	0	0	0	0	0	0	0	0	0	0	0	0	0	5	0
072312	12:31:23	10026	corsiblockFrRev	recallseqFrRev	10	doneCorsiFr	892	0	114	12:31:23	1881548	3	0	0	0	0	0	0	0	0	0	0	0	0	0	0	5	2
072312	12:31:23	10026	corsiblockFrRev	recallseqFrRev	10	6	1644	0	114	12:31:23	1889278	3	0	0	0	0	0	0	0	0	0	0	0	0	0	0	5	2
072312	12:31:23	10026	corsiblockFrRev	recallseqFrRev	10	1	1116	0	114	12:31:23	1890438	3	0	0	0	0	0	0	0	0	0	0	0	0	0	0	5	2
072312	12:31:23	10026	corsiblockFrRev	recallseqFrRev	10	5	1141	0	114	12:31:23	1891624	3	0	0	0	0	0	0	0	0	0	0	0	0	0	0	5	2
072312	12:31:23	10026	corsiblockFrRev	recallseqFrRev	10	doneCorsiFr	1019	0	114	12:31:23	1892677	3	0	0	0	0	0	0	0	0	0	0	0	0	0	0	5	3
072312	12:31:23	10026	corsiblockFrRev	recallseqFrRev	10	4	956	0	114	12:31:23	1900727	3	0	0	0	0	0	0	0	0	0	0	0	0	0	0	5	3
072312	12:31:23	10026	corsiblockFrRev	recallseqFrRev	10	3	788	0	114	12:31:23	1901553	3	0	0	0	0	0	0	0	0	0	0	0	0	0	0	5	3
072312	12:31:23	10026	corsiblockFrRev	recallseqFrRev	10	9	929	0	114	12:31:23	1902526	3	0	0	0	0	0	0	0	0	0	0	0	0	0	0	5	3
072312	12:31:23	10026	corsiblockFrRev	recallseqFrRev	10	7	604	0	114	12:31:23	1903166	3	0	0	0	0	0	0	0	0	0	0	0	0	0	0	5	3
072312	12:31:23	10026	corsiblockFrRev	recallseqFrRev	10	doneCorsiFr	1629	0	114	12:31:23	1904832	3	0	0	0	0	0	0	0	0	0	0	0	0	0	0	5	4
072312	12:31:23	10026	corsiblockFrRev	recallseqFrRev	10	8	1601	0	114	12:31:23	1914521	3	0	0	0	0	0	0	0	0	0	0	0	0	0	0	5	4
072312	12:31:23	10026	corsiblockFrRev	recallseqFrRev	10	7	1001	0	114	12:31:23	1915561	3	0	0	0	0	0	0	0	0	0	0	0	0	0	0	5	4
072312	12:31:23	10026	corsiblockFrRev	recallseqFrRev	10	3	978	0	114	12:31:23	1916574	3	0	0	0	0	0	0	0	0	0	0	0	0	0	0	5	4
072312	12:31:23	10026	corsiblockFrRev	recallseqFrRev	10	9	1005	0	114	12:31:23	1917613	3	0	0	0	0	0	0	0	0	0	0	0	0	0	0	5	4
072312	12:31:23	10026	corsiblockFrRev	recallseqFrRev	10	1	877	0	114	12:31:23	1918533	3	0	0	0	0	0	0	0	0	0	0	0	0	0	0	5	4
072312	12:31:23	10026	corsiblockFrRev	recallseqFrRev	10	doneCorsiFr	1678	0	114	12:31:23	1920252	3	0	0	0	0	0	0	0	0	0	0	0	0	0	0	5	5
072312	12:31:23	10026	corsiblockFrRev	recallseqFrRev	10	2	1588	0	114	12:31:23	1930928	3	0	0	0	0	0	0	0	0	0	0	0	0	0	0	5	5
072312	12:31:23	10026	corsiblockFrRev	recallseqFrRev	10	6	3010	0	114	12:31:23	1933980	3	0	0	0	0	0	0	0	0	0	0	0	0	0	0	5	5
072312	12:31:23	10026	corsiblockFrRev	recallseqFrRev	10	2	1686	0	114	12:31:23	1935699	3	0	0	0	0	0	0	0	0	0	0	0	0	0	0	5	5
072312	12:31:23	10026	corsiblockFrRev	recallseqFrRev	10	4	2471	0	114	12:31:23	1938205	3	0	0	0	0	0	0	0	0	0	0	0	0	0	0	5	5
072312	12:31:23	10026	corsiblockFrRev	recallseqFrRev	10	7	749	0	114	12:31:23	1938991	3	0	0	0	0	0	0	0	0	0	0	0	0	0	0	5	5
072312	12:31:23	10026	corsiblockFrRev	recallseqFrRev	10	5	2603	0	114	12:31:23	1941630	3	0	0	0	0	0	0	0	0	0	0	0	0	0	0	5	5
072312	12:31:23	10026	corsiblockFrRev	recallseqFrRev	10	doneCorsiFr	1627	0	114	12:31:23	1943296	3	0	0	0	0	0	0	0	0	0	0	0	0	0	0	5	5
072312	12:31:23	10026	corsiblockFrRev	recallseqFrRev	10	6	1528	0	114	12:31:23	1953879	3	0	0	0	0	0	0	0	0	0	0	0	0	0	0	5	5
072312	12:31:23	10026	corsiblockFrRev	recallseqFrRev	10	4	771	0	114	12:31:23	1954692	3	0	0	0	0	0	0	0	0	0	0	0	0	0	0	5	5
072312	12:31:23	10026	corsiblockFrRev	recallseqFrRev	10	3	982	0	114	12:31:23	1955718	3	0	0	0	0	0	0	0	0	0	0	0	0	0	0	5	5
072312	12:31:23	10026	corsiblockFrRev	recallseqFrRev	10	8	2156	0	114	12:31:23	1957917	3	0	0	0	0	0	0	0	0	0	0	0	0	0	0	5	5
072312	12:31:23	10026	corsiblockFrRev	recallseqFrRev	10	9	3684	0	114	12:31:23	1961635	3	0	0	0	0	0	0	0	0	0	0	0	0	0	0	5	5
072312	12:31:23	10026	corsiblockFrRev	recallseqFrRev	10	2	830	0	114	12:31:23	1962502	3	0	0	0	0	0	0	0	0	0	0	0	0	0	0	5	5
072312	12:31:23	10026	corsiblockFrRev	recallseqFrRev	10	doneCorsiFr	884	0	114	12:31:23	1963422	3	0	0	0	0	0	0	0	0	0	0	0	0	0	0	5	5
072312	12:31:23	10026	testFrBaseline	WordsFrBaseline	11	1FrBaseline	36284	0	114	12:31:23	2010883	3	1	0	0	0	0	0	0	0	0	0	0	0	0	0	5	5
072312	12:31:23	10026	testFrBaseline	WordsFrBaseline	11	2FrBaseline	670	0	114	12:31:23	2011589	3	1	1	0	0	0	0	0	0	0	0	0	0	0	0	5	5
072312	12:31:23	10026	testFrBaseline	WordsFrBaseline	11	3FrBaseline	644	0	114	12:31:23	2012269	3	1	1	1	0	0	0	0	0	0	0	0	0	0	0	5	5
072312	12:31:23	10026	testFrBaseline	WordsFrBaseline	11	4FrBaseline	236	0	114	12:31:23	2012549	3	1	1	1	1	0	0	0	0	0	0	0	0	0	0	5	5
072312	12:31:23	10026	testFrBaseline	WordsFrBaseline	11	6FrBaseline	820	0	114	12:31:23	2013415	3	1	1	1	1	0	1	0	0	0	0	0	0	0	0	5	5
072312	12:31:23	10026	testFrBaseline	WordsFrBaseline	11	7FrBaseline	274	0	114	12:31:23	2013735	3	1	1	1	1	0	1	1	0	0	0	0	0	0	0	5	5
072312	12:31:23	10026	testFrBaseline	WordsFrBaseline	11	DoneFrBaseline	610	0	114	12:31:23	2014388	3	1	1	1	1	0	1	1	0	0	0	0	0	0	0	5	5
072312	12:31:23	10026	testFrBaseline	Cat5FrBaseline	11	R5FrBaseline	5365	0	114	12:31:23	2019785	3	1	1	1	1	2	1	1	0	0	0	0	0	0	0	5	5
072312	12:31:23	10026	testFrBaseline	Cat8FrBaseline	11	W8FrBaseline	12183	0	114	12:31:23	2032007	3	1	1	1	1	2	1	1	0	0	0	0	0	0	0	5	5
072312	12:31:23	10026	testFrBaseline	Ch8FrBaseline	11	RR8FrBaseline	7081	0	114	12:31:23	2039124	3	1	1	1	1	2	1	1	3	0	0	0	0	0	0	5	5
072312	12:31:23	10026	DigitSpanFwrdFrBaseline	Score1FwrdFrBaseline	12	DS1	4804	0	114	12:31:23	2062794	3	1	1	1	1	2	1	1	3	0	0	0	0	0	0	5	5
072312	12:31:23	10026	DigitSpanFwrdFrBaseline	Gate1FwrdFrBaseline	12	0	1	0	114	12:31:23	2062810	3	1	1	1	1	2	1	1	3	3	0	0	0	0	0	5	5
072312	12:31:23	10026	DigitSpanFwrdFrBaseline	Score2FwrdFrBaseline	12	DS1	3565	0	114	12:31:23	2072537	3	1	1	1	1	2	1	1	3	3	0	0	0	0	0	5	5
072312	12:31:23	10026	DigitSpanFwrdFrBaseline	Gate3FwrdFrBaseline	12	0	1	0	114	12:31:23	2072552	3	1	1	1	1	2	1	1	3	4	0	0	0	0	0	5	5
072312	12:31:23	10026	DigitSpanFwrdFrBaseline	Score3FwrdFrBaseline	12	DS1	3745	0	114	12:31:23	2083279	3	1	1	1	1	2	1	1	3	4	0	0	0	0	0	5	5
072312	12:31:23	10026	DigitSpanFwrdFrBaseline	Gate5FwrdFrBaseline	12	0	1	0	114	12:31:23	2083295	3	1	1	1	1	2	1	1	3	5	0	0	0	0	0	5	5
072312	12:31:23	10026	DigitSpanFwrdFrBaseline	Score4FwrdFrBaseline	12	DS2	9563	0	114	12:31:23	2101392	3	1	1	1	1	2	1	1	3	5	0	0	0	0	0	5	5
072312	12:31:23	10026	DigitSpanFwrdFrBaseline	Gate7FwrdFrBaseline	12	0	1	0	114	12:31:23	2101407	3	1	1	1	1	2	1	1	3	5	0	0	0	0	0	5	5
072312	12:31:23	10026	DigitSpanFwrdFrBaseline	Score44FwrdFrBaseline	12	DS1	4879	0	114	12:31:23	2114613	3	1	1	1	1	2	1	1	3	5	0	0	0	0	0	5	5
072312	12:31:23	10026	DigitSpanFwrdFrBaseline	Gate8FwrdFrBaseline	12	0	1	0	114	12:31:23	2114629	3	1	1	1	1	2	1	1	3	6	0	0	0	0	0	5	5
072312	12:31:23	10026	DigitSpanFwrdFrBaseline	Score5FwrdFrBaseline	12	DS2	8332	0	114	12:31:23	2135045	3	1	1	1	1	2	1	1	3	6	0	0	0	0	0	5	5
072312	12:31:23	10026	DigitSpanFwrdFrBaseline	Gate9FwrdFrBaseline	12	0	1	0	114	12:31:23	2135060	3	1	1	1	1	2	1	1	3	6	0	0	0	0	0	5	5
072312	12:31:23	10026	DigitSpanFwrdFrBaseline	Score55FwrdFrBaseline	12	DS1	7016	0	114	12:31:23	2154944	3	1	1	1	1	2	1	1	3	6	0	0	0	0	0	5	5
072312	12:31:23	10026	DigitSpanFwrdFrBaseline	Gate10FwrdFrBaseline	12	0	1	0	114	12:31:23	2154959	3	1	1	1	1	2	1	1	3	7	0	0	0	0	0	5	5
072312	12:31:23	10026	DigitSpanFwrdFrBaseline	Score6FwrdFrBaseline	12	DS2	17408	0	114	12:31:23	2185571	3	1	1	1	1	2	1	1	3	7	0	0	0	0	0	5	5
072312	12:31:23	10026	DigitSpanFwrdFrBaseline	Gate11FwrdFrBaseline	12	0	1	0	114	12:31:23	2185586	3	1	1	1	1	2	1	1	3	7	0	0	0	0	0	5	5
072312	12:31:23	10026	DigitSpanFwrdFrBaseline	Score66FwrdFrBaseline	12	DS2	50747	0	114	12:31:23	2249372	3	1	1	1	1	2	1	1	3	7	0	0	0	0	0	5	5
072312	12:31:23	10026	DigitSpanFrBaseline	Score1FrBaseline	13	DS1	4084	0	114	12:31:23	2258342	3	1	1	1	1	2	1	1	3	7	0	0	0	0	0	5	5
072312	12:31:23	10026	DigitSpanFrBaseline	Gate1FrBaseline	13	0	1	0	114	12:31:23	2258357	3	1	1	1	1	2	1	1	3	7	2	0	0	0	0	5	5
072312	12:31:23	10026	DigitSpanFrBaseline	Score2FrBaseline	13	DS1	4770	0	114	12:31:23	2267604	3	1	1	1	1	2	1	1	3	7	2	0	0	0	0	5	5
072312	12:31:23	10026	DigitSpanFrBaseline	Gate3FrBaseline	13	0	1	0	114	12:31:23	2267620	3	1	1	1	1	2	1	1	3	7	3	0	0	0	0	5	5
072312	12:31:23	10026	DigitSpanFrBaseline	Score3FrBaseline	13	DS1	7022	0	114	12:31:23	2280373	3	1	1	1	1	2	1	1	3	7	3	0	0	0	0	5	5
072312	12:31:23	10026	DigitSpanFrBaseline	Gate5FrBaseline	13	0	1	0	114	12:31:23	2280388	3	1	1	1	1	2	1	1	3	7	4	0	0	0	0	5	5
072312	12:31:23	10026	DigitSpanFrBaseline	Score4FrBaseline	13	DS2	10765	0	114	12:31:23	2298406	3	1	1	1	1	2	1	1	3	7	4	0	0	0	0	5	5
072312	12:31:23	10026	DigitSpanFrBaseline	Gate7FrBaseline	13	0	1	0	114	12:31:23	2298421	3	1	1	1	1	2	1	1	3	7	4	0	0	0	0	5	5
072312	12:31:23	10026	DigitSpanFrBaseline	Score44FrBaseline	13	DS2	10391	0	114	12:31:23	2316025	3	1	1	1	1	2	1	1	3	7	4	0	0	0	0	5	5
072312	12:31:23	10026	Trial	IncongruentRight	14	0	737	0	114	12:31:23	2361740	3	1	1	1	1	2	1	1	3	7	4	0	0	0	0	5	5
072312	12:31:23	10026	Trial	IncongruentLeft	14	203	499	1	114	12:31:23	2362513	3	1	1	1	1	2	1	1	3	7	4	0	0	0	0	5	5
072312	12:31:23	10026	Trial	CongruentRight	14	205	555	1	114	12:31:23	2363566	3	1	1	1	1	2	1	1	3	7	4	0	0	0	0	5	5
072312	12:31:23	10026	Trial	IncongruentRight	14	203	372	0	114	12:31:23	2364392	3	1	1	1	1	2	1	1	3	7	4	0	0	0	0	5	5
072312	12:31:23	10026	Trial	CongruentLeft	14	203	700	1	114	12:31:23	2365711	3	1	1	1	1	2	1	1	3	7	4	0	0	0	0	5	5
072312	12:31:23	10026	Trial	CongruentRight	14	205	503	1	114	12:31:23	2366524	3	1	1	1	1	2	1	1	3	7	4	0	0	0	0	5	5
072312	12:31:23	10026	Trial	IncongruentRight	14	205	607	1	114	12:31:23	2367631	3	1	1	1	1	2	1	1	3	7	4	0	0	0	0	5	5
072312	12:31:23	10026	Trial	CongruentLeft	14	203	440	1	114	12:31:23	2368470	3	1	1	1	1	2	1	1	3	7	4	0	0	0	0	5	5
072312	12:31:23	10026	Trial	IncongruentLeft	14	203	432	1	114	12:31:23	2369457	3	1	1	1	1	2	1	1	3	7	4	0	0	0	0	5	5
072312	12:31:23	10026	Trial	IncongruentLeft	14	0	737	0	114	12:31:23	2370749	3	1	1	1	1	2	1	1	3	7	4	0	0	0	0	5	5
072312	12:31:23	10026	Trial	CongruentRight	14	205	609	1	114	12:31:23	2371629	3	1	1	1	1	2	1	1	3	7	4	0	0	0	0	5	5
072312	12:31:23	10026	Trial	IncongruentRight	14	205	681	1	114	12:31:23	2372709	3	1	1	1	1	2	1	1	3	7	4	0	0	0	0	5	5
072312	12:31:23	10026	Trial	CongruentLeft	14	203	434	1	114	12:31:23	2373455	3	1	1	1	1	2	1	1	3	7	4	0	0	0	0	5	5
072312	12:31:23	10026	Trial	CongruentRight	14	205	397	1	114	12:31:23	2374428	3	1	1	1	1	2	1	1	3	7	4	0	0	0	0	5	5
072312	12:31:23	10026	Trial	IncongruentLeft	14	203	357	1	114	12:31:23	2375387	3	1	1	1	1	2	1	1	3	7	4	0	0	0	0	5	5
072312	12:31:23	10026	Trial	IncongruentRight	14	205	398	1	114	12:31:23	2376427	3	1	1	1	1	2	1	1	3	7	4	0	0	0	0	5	5
072312	12:31:23	10026	Trial	CongruentRight	14	203	422	0	114	12:31:23	2377453	3	1	1	1	1	2	1	1	3	7	4	0	0	0	0	5	5
072312	12:31:23	10026	Trial	CongruentLeft	14	0	737	0	114	12:31:23	2378760	3	1	1	1	1	2	1	1	3	7	4	0	0	0	0	5	5
072312	12:31:23	10026	Trial	CongruentRight	14	205	566	1	114	12:31:23	2379599	3	1	1	1	1	2	1	1	3	7	4	0	0	0	0	5	5
072312	12:31:23	10026	Trial	IncongruentRight	14	205	559	1	114	12:31:23	2380599	3	1	1	1	1	2	1	1	3	7	4	0	0	0	0	5	5
072312	12:31:23	10026	Trial	IncongruentLeft	14	203	567	1	114	12:31:23	2381598	3	1	1	1	1	2	1	1	3	7	4	0	0	0	0	5	5
072312	12:31:23	10026	Trial	IncongruentLeft	14	203	626	1	114	12:31:23	2382678	3	1	1	1	1	2	1	1	3	7	4	0	0	0	0	5	5
072312	12:31:23	10026	Trial	CongruentLeft	14	203	507	1	114	12:31:23	2383558	3	1	1	1	1	2	1	1	3	7	4	0	0	0	0	5	5
072312	12:31:23	10026	Trial	CongruentRight	14	205	435	1	114	12:31:23	2384477	3	1	1	1	1	2	1	1	3	7	4	0	0	0	0	5	5
072312	12:31:23	10026	Trial	IncongruentLeft	14	203	444	1	114	12:31:23	2385490	3	1	1	1	1	2	1	1	3	7	4	0	0	0	0	5	5
072312	12:31:23	10026	Trial	IncongruentRight	14	205	404	1	114	12:31:23	2386450	3	1	1	1	1	2	1	1	3	7	4	0	0	0	0	5	5
072312	12:31:23	10026	Trial	CongruentRight	14	0	737	0	114	12:31:23	2387769	3	1	1	1	1	2	1	1	3	7	4	0	0	0	0	5	5
072312	12:31:23	10026	Trial	CongruentLeft	14	203	597	1	114	12:31:23	2388635	3	1	1	1	1	2	1	1	3	7	4	0	0	0	0	5	5
072312	12:31:23	10026	Trial	IncongruentRight	14	205	445	1	114	12:31:23	2389488	3	1	1	1	1	2	1	1	3	7	4	0	0	0	0	5	5
072312	12:31:23	10026	Trial	IncongruentLeft	14	203	470	1	114	12:31:23	2390515	3	1	1	1	1	2	1	1	3	7	4	0	0	0	0	5	5
072312	12:31:23	10026	Trial	IncongruentRight	14	205	337	1	114	12:31:23	2391394	3	1	1	1	1	2	1	1	3	7	4	0	0	0	0	5	5
072312	12:31:23	10026	Trial	CongruentRight	14	205	505	1	114	12:31:23	2392567	3	1	1	1	1	2	1	1	3	7	4	0	0	0	0	5	5
072312	12:31:23	10026	Trial	IncongruentLeft	14	203	369	1	114	12:31:23	2393420	3	1	1	1	1	2	1	1	3	7	4	0	0	0	0	5	5
072312	12:31:23	10026	Trial	CongruentLeft	14	203	522	1	114	12:31:23	2394580	3	1	1	1	1	2	1	1	3	7	4	0	0	0	0	5	5
072312	12:31:23	10026	Trial	CongruentRight	14	205	402	1	114	12:31:23	2395459	3	1	1	1	1	2	1	1	3	7	4	0	0	0	0	5	5
072312	12:31:23	10026	Trial	IncongruentLeft	14	203	347	1	114	12:31:23	2396406	3	1	1	1	1	2	1	1	3	7	4	0	0	0	0	5	5
072312	12:31:23	10026	Trial	IncongruentRight	14	205	387	1	114	12:31:23	2397445	3	1	1	1	1	2	1	1	3	7	4	0	0	0	0	5	5
072312	12:31:23	10026	Trial	IncongruentRight	14	203	315	0	114	12:31:23	2398365	3	1	1	1	1	2	1	1	3	7	4	0	0	0	0	5	5
072312	12:31:23	10026	Trial	CongruentLeft	14	203	532	1	114	12:31:23	2399591	3	1	1	1	1	2	1	1	3	7	4	0	0	0	0	5	5
072312	12:31:23	10026	Trial	IncongruentLeft	14	203	524	1	114	12:31:23	2400578	3	1	1	1	1	2	1	1	3	7	4	0	0	0	0	5	5
072312	12:31:23	10026	Trial	CongruentRight	14	205	452	1	114	12:31:23	2401510	3	1	1	1	1	2	1	1	3	7	4	0	0	0	0	5	5
072312	12:31:23	10026	Trial	CongruentLeft	14	203	508	1	114	12:31:23	2402563	3	1	1	1	1	2	1	1	3	7	4	0	0	0	0	5	5
072312	12:31:23	10026	Trial	IncongruentRight	14	205	357	1	114	12:31:23	2403403	3	1	1	1	1	2	1	1	3	7	4	0	0	0	0	5	5
072312	12:31:23	10026	Trial	CongruentRight	14	205	478	1	114	12:31:23	2404522	3	1	1	1	1	2	1	1	3	7	4	0	0	0	0	5	5
072312	12:31:23	10026	Trial	IncongruentLeft	14	203	454	1	114	12:31:23	2405509	3	1	1	1	1	2	1	1	3	7	4	0	0	0	0	5	5
072312	12:31:23	10026	Trial	CongruentLeft	14	203	414	1	114	12:31:23	2406468	3	1	1	1	1	2	1	1	3	7	4	0	0	0	0	5	5
072312	12:31:23	10026	Trial	IncongruentLeft	14	203	567	1	114	12:31:23	2407615	3	1	1	1	1	2	1	1	3	7	4	0	0	0	0	5	5
072312	12:31:23	10026	Trial	IncongruentRight	14	205	399	1	114	12:31:23	2408454	3	1	1	1	1	2	1	1	3	7	4	0	0	0	0	5	5
072312	12:31:23	10026	Trial	CongruentRight	14	205	471	1	114	12:31:23	2409520	3	1	1	1	1	2	1	1	3	7	4	0	0	0	0	5	5
072312	12:31:23	10026	Trial	CongruentLeft	14	203	448	1	114	12:31:23	2410493	3	1	1	1	1	2	1	1	3	7	4	0	0	0	0	5	5
072312	12:31:23	10026	Trial	CongruentLeft	14	203	408	1	114	12:31:23	2411453	3	1	1	1	1	2	1	1	3	7	4	0	0	0	0	5	5
072312	12:31:23	10026	Trial	IncongruentRight	14	205	465	1	114	12:31:23	2412519	3	1	1	1	1	2	1	1	3	7	4	0	0	0	0	5	5
072312	12:31:23	10026	Trial	IncongruentLeft	14	203	713	1	114	12:31:23	2413759	3	1	1	1	1	2	1	1	3	7	4	0	0	0	0	5	5
072312	12:31:23	10026	Trial	IncongruentRight	14	205	417	1	114	12:31:23	2414465	3	1	1	1	1	2	1	1	3	7	4	0	0	0	0	5	5
072312	12:31:23	10026	Trial	CongruentRight	14	205	570	1	114	12:31:23	2415612	3	1	1	1	1	2	1	1	3	7	4	0	0	0	0	5	5
072312	12:31:23	10026	Trial	CongruentRight	14	205	450	1	114	12:31:23	2416491	3	1	1	1	1	2	1	1	3	7	4	0	0	0	0	5	5
072312	12:31:23	10026	Trial	IncongruentLeft	14	203	395	1	114	12:31:23	2417437	3	1	1	1	1	2	1	1	3	7	4	0	0	0	0	5	5
072312	12:31:23	10026	Trial	CongruentLeft	14	203	387	1	114	12:31:23	2418437	3	1	1	1	1	2	1	1	3	7	4	0	0	0	0	5	5
072312	12:31:23	10026	Trial	CongruentRight	14	205	507	1	114	12:31:23	2419556	3	1	1	1	1	2	1	1	3	7	4	0	0	0	0	5	5
072312	12:31:23	10026	Trial	CongruentLeft	14	203	372	1	114	12:31:23	2420423	3	1	1	1	1	2	1	1	3	7	4	0	0	0	0	5	5
072312	12:31:23	10026	Trial	IncongruentRight	14	205	492	1	114	12:31:23	2421542	3	1	1	1	1	2	1	1	3	7	4	0	0	0	0	5	5
072312	12:31:23	10026	Trial	CongruentRight	14	203	324	0	114	12:31:23	2422369	3	1	1	1	1	2	1	1	3	7	4	0	0	0	0	5	5
072312	12:31:23	10026	Trial	CongruentLeft	14	203	416	1	114	12:31:23	2423475	3	1	1	1	1	2	1	1	3	7	4	0	0	0	0	5	5
072312	12:31:23	10026	Trial	IncongruentLeft	14	203	520	1	114	12:31:23	2424581	3	1	1	1	1	2	1	1	3	7	4	0	0	0	0	5	5
072312	12:31:23	10026	Trial	IncongruentLeft	14	203	448	1	114	12:31:23	2425501	3	1	1	1	1	2	1	1	3	7	4	0	0	0	0	5	5
072312	12:31:23	10026	Trial	CongruentRight	14	205	441	1	114	12:31:23	2426500	3	1	1	1	1	2	1	1	3	7	4	0	0	0	0	5	5
072312	12:31:23	10026	Trial	IncongruentRight	14	0	737	0	114	12:31:23	2427780	3	1	1	1	1	2	1	1	3	7	4	0	0	0	0	5	5
072312	12:31:23	10026	Trial	CongruentLeft	14	203	585	1	114	12:31:23	2428646	3	1	1	1	1	2	1	1	3	7	4	0	0	0	0	5	5
072312	12:31:23	10026	Trial	IncongruentRight	14	205	433	1	114	12:31:23	2429486	3	1	1	1	1	2	1	1	3	7	4	0	0	0	0	5	5
072312	12:31:23	10026	Trial	CongruentRight	14	205	458	1	114	12:31:23	2430512	3	1	1	1	1	2	1	1	3	7	4	0	0	0	0	5	5
072312	12:31:23	10026	Trial	IncongruentLeft	14	203	437	1	114	12:31:23	2431498	3	1	1	1	1	2	1	1	3	7	4	0	0	0	0	5	5
072312	12:31:23	10026	Trial	CongruentLeft	14	203	446	1	114	12:31:23	2432511	3	1	1	1	1	2	1	1	3	7	4	0	0	0	0	5	5
072312	12:31:23	10026	Trial	CongruentRight	14	205	422	1	114	12:31:23	2433484	3	1	1	1	1	2	1	1	3	7	4	0	0	0	0	5	5
072312	12:31:23	10026	Trial	IncongruentLeft	14	203	398	1	114	12:31:23	2434470	3	1	1	1	1	2	1	1	3	7	4	0	0	0	0	5	5
072312	12:31:23	10026	Trial	CongruentRight	14	205	519	1	114	12:31:23	2435590	3	1	1	1	1	2	1	1	3	7	4	0	0	0	0	5	5
072312	12:31:23	10026	Trial	CongruentRight	14	205	559	1	114	12:31:23	2436630	3	1	1	1	1	2	1	1	3	7	4	0	0	0	0	5	5
072312	12:31:23	10026	Trial	IncongruentRight	14	203	359	0	114	12:31:23	2437429	3	1	1	1	1	2	1	1	3	7	4	0	0	0	0	5	5
072312	12:31:23	10026	Trial	CongruentLeft	14	203	464	1	114	12:31:23	2438522	3	1	1	1	1	2	1	1	3	7	4	0	0	0	0	5	5
072312	12:31:23	10026	Trial	IncongruentLeft	14	203	584	1	114	12:31:23	2439655	3	1	1	1	1	2	1	1	3	7	4	0	0	0	0	5	5
072312	12:31:23	10026	Trial	CongruentLeft	14	203	496	1	114	12:31:23	2440561	3	1	1	1	1	2	1	1	3	7	4	0	0	0	0	5	5
072312	12:31:23	10026	Trial	IncongruentRight	14	205	473	1	114	12:31:23	2441534	3	1	1	1	1	2	1	1	3	7	4	0	0	0	0	5	5
072312	12:31:23	10026	Trial	IncongruentLeft	14	203	545	1	114	12:31:23	2442614	3	1	1	1	1	2	1	1	3	7	4	0	0	0	0	5	5
072312	12:31:23	10026	Trial	CongruentRight	14	205	521	1	114	12:31:23	2443587	3	1	1	1	1	2	1	1	3	7	4	0	0	0	0	5	5
072312	12:31:23	10026	Trial	CongruentLeft	14	203	483	1	114	12:31:23	2444546	3	1	1	1	1	2	1	1	3	7	4	0	0	0	0	5	5
072312	12:31:23	10026	Trial	IncongruentLeft	14	203	538	1	114	12:31:23	2445599	3	1	1	1	1	2	1	1	3	7	4	0	0	0	0	5	5
072312	12:31:23	10026	Trial	CongruentLeft	14	203	482	1	114	12:31:23	2446546	3	1	1	1	1	2	1	1	3	7	4	0	0	0	0	5	5
072312	12:31:23	10026	Trial	IncongruentRight	14	205	523	1	114	12:31:23	2447585	3	1	1	1	1	2	1	1	3	7	4	0	0	0	0	5	5
072312	12:31:23	10026	Trial	CongruentRight	14	205	484	1	114	12:31:23	2448545	3	1	1	1	1	2	1	1	3	7	4	0	0	0	0	5	5
072312	12:31:23	10026	Trial	IncongruentLeft	14	203	668	1	114	12:31:23	2449731	3	1	1	1	1	2	1	1	3	7	4	0	0	0	0	5	5
072312	12:31:23	10026	Trial	CongruentLeft	14	203	516	1	114	12:31:23	2450571	3	1	1	1	1	2	1	1	3	7	4	0	0	0	0	5	5
072312	12:31:23	10026	Trial	IncongruentRight	14	205	509	1	114	12:31:23	2451570	3	1	1	1	1	2	1	1	3	7	4	0	0	0	0	5	5
072312	12:31:23	10026	Trial	IncongruentLeft	14	203	469	1	114	12:31:23	2452530	3	1	1	1	1	2	1	1	3	7	4	0	0	0	0	5	5
072312	12:31:23	10026	Trial	CongruentLeft	14	203	430	1	114	12:31:23	2453489	3	1	1	1	1	2	1	1	3	7	4	0	0	0	0	5	5
072312	12:31:23	10026	Trial	IncongruentLeft	14	203	582	1	114	12:31:23	2454635	3	1	1	1	1	2	1	1	3	7	4	0	0	0	0	5	5
072312	12:31:23	10026	Trial	CongruentRight	14	205	478	1	114	12:31:23	2455542	3	1	1	1	1	2	1	1	3	7	4	0	0	0	0	5	5
072312	12:31:23	10026	Trial	CongruentLeft	14	203	583	1	114	12:31:23	2456635	3	1	1	1	1	2	1	1	3	7	4	0	0	0	0	5	5
072312	12:31:23	10026	Trial	IncongruentRight	14	205	463	1	114	12:31:23	2457514	3	1	1	1	1	2	1	1	3	7	4	0	0	0	0	5	5
072312	12:31:23	10026	Trial	CongruentLeft	14	203	407	1	114	12:31:23	2458461	3	1	1	1	1	2	1	1	3	7	4	0	0	0	0	5	5
072312	12:31:23	10026	Trial	CongruentRight	14	205	448	1	114	12:31:23	2459500	3	1	1	1	1	2	1	1	3	7	4	0	0	0	0	5	5
072312	12:31:23	10026	Trial	IncongruentLeft	14	203	376	1	114	12:31:23	2460433	3	1	1	1	1	2	1	1	3	7	4	0	0	0	0	5	5
072312	12:31:23	10026	Trial750Fr	IncongruentRight750	15	0	487	0	114	12:31:23	2472042	3	1	1	1	1	2	1	1	3	7	4	0	0	0	0	5	5
072312	12:31:23	10026	Trial750Fr	IncongruentLeft750	15	203	482	1	114	12:31:23	2472802	3	1	1	1	1	2	1	1	3	7	4	0	0	0	0	5	5
072312	12:31:23	10026	Trial750Fr	CongruentRight750	15	0	487	0	114	12:31:23	2473561	3	1	1	1	1	2	1	1	3	7	4	0	0	0	0	5	5
072312	12:31:23	10026	Trial750Fr	IncongruentRight750	15	0	487	0	114	12:31:23	2474321	3	1	1	1	1	2	1	1	3	7	4	0	0	0	0	5	5
072312	12:31:23	10026	Trial750Fr	CongruentLeft750	15	0	487	0	114	12:31:23	2475081	3	1	1	1	1	2	1	1	3	7	4	0	0	0	0	5	5
072312	12:31:23	10026	Trial750Fr	CongruentRight750	15	205	451	1	114	12:31:23	2475814	3	1	1	1	1	2	1	1	3	7	4	0	0	0	0	5	5
072312	12:31:23	10026	Trial750Fr	IncongruentRight750	15	0	487	0	114	12:31:23	2476587	3	1	1	1	1	2	1	1	3	7	4	0	0	0	0	5	5
072312	12:31:23	10026	Trial750Fr	CongruentLeft750	15	203	449	1	114	12:31:23	2477306	3	1	1	1	1	2	1	1	3	7	4	0	0	0	0	5	5
072312	12:31:23	10026	Trial750Fr	IncongruentLeft750	15	0	487	0	114	12:31:23	2478093	3	1	1	1	1	2	1	1	3	7	4	0	0	0	0	5	5
072312	12:31:23	10026	Trial750Fr	IncongruentLeft750	15	0	487	0	114	12:31:23	2478853	3	1	1	1	1	2	1	1	3	7	4	0	0	0	0	5	5
072312	12:31:23	10026	Trial750Fr	CongruentRight750	15	205	471	1	114	12:31:23	2479599	3	1	1	1	1	2	1	1	3	7	4	0	0	0	0	5	5
072312	12:31:23	10026	Trial750Fr	IncongruentRight750	15	0	487	0	114	12:31:23	2480359	3	1	1	1	1	2	1	1	3	7	4	0	0	0	0	5	5
072312	12:31:23	10026	Trial750Fr	CongruentLeft750	15	203	405	1	114	12:31:23	2481038	3	1	1	1	1	2	1	1	3	7	4	0	0	0	0	5	5
072312	12:31:23	10026	Trial750Fr	CongruentRight750	15	205	317	1	114	12:31:23	2481718	3	1	1	1	1	2	1	1	3	7	4	0	0	0	0	5	5
072312	12:31:23	10026	Trial750Fr	IncongruentLeft750	15	203	371	1	114	12:31:23	2482518	3	1	1	1	1	2	1	1	3	7	4	0	0	0	0	5	5
072312	12:31:23	10026	Trial750Fr	IncongruentRight750	15	205	377	1	114	12:31:23	2483264	3	1	1	1	1	2	1	1	3	7	4	0	0	0	0	5	5
072312	12:31:23	10026	Trial750Fr	CongruentRight750	15	205	451	1	114	12:31:23	2484104	3	1	1	1	1	2	1	1	3	7	4	0	0	0	0	5	5
072312	12:31:23	10026	Trial750Fr	CongruentLeft750	15	203	439	1	114	12:31:23	2484837	3	1	1	1	1	2	1	1	3	7	4	0	0	0	0	5	5
072312	12:31:23	10026	Trial750Fr	CongruentRight750	15	205	380	1	114	12:31:23	2485516	3	1	1	1	1	2	1	1	3	7	4	0	0	0	0	5	5
072312	12:31:23	10026	Trial750Fr	IncongruentRight750	15	0	487	0	114	12:31:23	2486369	3	1	1	1	1	2	1	1	3	7	4	0	0	0	0	5	5
072312	12:31:23	10026	Trial750Fr	IncongruentLeft750	15	0	487	0	114	12:31:23	2487129	3	1	1	1	1	2	1	1	3	7	4	0	0	0	0	5	5
072312	12:31:23	10026	Trial750Fr	IncongruentLeft750	15	0	487	0	114	12:31:23	2487889	3	1	1	1	1	2	1	1	3	7	4	0	0	0	0	5	5
072312	12:31:23	10026	Trial750Fr	CongruentLeft750	15	0	487	0	114	12:31:23	2488649	3	1	1	1	1	2	1	1	3	7	4	0	0	0	0	5	5
072312	12:31:23	10026	Trial750Fr	CongruentRight750	15	0	487	0	114	12:31:23	2489408	3	1	1	1	1	2	1	1	3	7	4	0	0	0	0	5	5
072312	12:31:23	10026	Trial750Fr	IncongruentLeft750	15	203	427	1	114	12:31:23	2490115	3	1	1	1	1	2	1	1	3	7	4	0	0	0	0	5	5
072312	12:31:23	10026	Trial750Fr	IncongruentRight750	15	205	468	1	114	12:31:23	2490914	3	1	1	1	1	2	1	1	3	7	4	0	0	0	0	5	5
072312	12:31:23	10026	Trial750Fr	CongruentRight750	15	0	487	0	114	12:31:23	2491674	3	1	1	1	1	2	1	1	3	7	4	0	0	0	0	5	5
072312	12:31:23	10026	Trial750Fr	CongruentLeft750	15	0	487	0	114	12:31:23	2492434	3	1	1	1	1	2	1	1	3	7	4	0	0	0	0	5	5
072312	12:31:23	10026	Trial750Fr	IncongruentRight750	15	0	487	0	114	12:31:23	2493193	3	1	1	1	1	2	1	1	3	7	4	0	0	0	0	5	5
072312	12:31:23	10026	Trial750Fr	IncongruentLeft750	15	203	466	1	114	12:31:23	2493940	3	1	1	1	1	2	1	1	3	7	4	0	0	0	0	5	5
072312	12:31:23	10026	Trial750Fr	IncongruentRight750	15	0	487	0	114	12:31:23	2494699	3	1	1	1	1	2	1	1	3	7	4	0	0	0	0	5	5
072312	12:31:23	10026	Trial750Fr	CongruentRight750	15	203	384	0	114	12:31:23	2495352	3	1	1	1	1	2	1	1	3	7	4	0	0	0	0	5	5
072312	12:31:23	10026	Trial750Fr	IncongruentLeft750	15	0	487	0	114	12:31:23	2496206	3	1	1	1	1	2	1	1	3	7	4	0	0	0	0	5	5
072312	12:31:23	10026	Trial750Fr	CongruentLeft750	15	0	487	0	114	12:31:23	2496965	3	1	1	1	1	2	1	1	3	7	4	0	0	0	0	5	5
072312	12:31:23	10026	Trial750Fr	CongruentRight750	15	205	454	1	114	12:31:23	2497698	3	1	1	1	1	2	1	1	3	7	4	0	0	0	0	5	5
072312	12:31:23	10026	Trial750Fr	IncongruentLeft750	15	203	398	1	114	12:31:23	2498405	3	1	1	1	1	2	1	1	3	7	4	0	0	0	0	5	5
072312	12:31:23	10026	Trial750Fr	IncongruentRight750	15	205	436	1	114	12:31:23	2499178	3	1	1	1	1	2	1	1	3	7	4	0	0	0	0	5	5
072312	12:31:23	10026	Trial750Fr	IncongruentRight750	15	0	487	0	114	12:31:23	2499977	3	1	1	1	1	2	1	1	3	7	4	0	0	0	0	5	5
072312	12:31:23	10026	Trial750Fr	CongruentLeft750	15	203	466	1	114	12:31:23	2500724	3	1	1	1	1	2	1	1	3	7	4	0	0	0	0	5	5
072312	12:31:23	10026	Trial750Fr	IncongruentLeft750	15	0	487	0	114	12:31:23	2501483	3	1	1	1	1	2	1	1	3	7	4	0	0	0	0	5	5
072312	12:31:23	10026	Trial750Fr	CongruentRight750	15	205	463	1	114	12:31:23	2502216	3	1	1	1	1	2	1	1	3	7	4	0	0	0	0	5	5
072312	12:31:23	10026	Trial750Fr	CongruentLeft750	15	0	487	0	114	12:31:23	2502989	3	1	1	1	1	2	1	1	3	7	4	0	0	0	0	5	5
072312	12:31:23	10026	Trial750Fr	IncongruentRight750	15	205	414	1	114	12:31:23	2503682	3	1	1	1	1	2	1	1	3	7	4	0	0	0	0	5	5
072312	12:31:23	10026	Trial750Fr	CongruentRight750	15	205	470	1	114	12:31:23	2504496	3	1	1	1	1	2	1	1	3	7	4	0	0	0	0	5	5
072312	12:31:23	10026	Trial750Fr	IncongruentLeft750	15	203	412	1	114	12:31:23	2505189	3	1	1	1	1	2	1	1	3	7	4	0	0	0	0	5	5
072312	12:31:23	10026	Trial750Fr	CongruentLeft750	15	203	452	1	114	12:31:23	2505988	3	1	1	1	1	2	1	1	3	7	4	0	0	0	0	5	5
072312	12:31:23	10026	Trial750Fr	IncongruentLeft750	15	0	487	0	114	12:31:23	2506761	3	1	1	1	1	2	1	1	3	7	4	0	0	0	0	5	5
072312	12:31:23	10026	Trial750Fr	IncongruentRight750	15	205	370	1	114	12:31:23	2507401	3	1	1	1	1	2	1	1	3	7	4	0	0	0	0	5	5
072312	12:31:23	10026	Trial750Fr	CongruentRight750	15	0	487	0	114	12:31:23	2508267	3	1	1	1	1	2	1	1	3	7	4	0	0	0	0	5	5
072312	12:31:23	10026	Trial750Fr	CongruentLeft750	15	203	384	1	114	12:31:23	2508921	3	1	1	1	1	2	1	1	3	7	4	0	0	0	0	5	5
072312	12:31:23	10026	Trial750Fr	CongruentLeft750	15	205	248	0	114	12:31:23	2509547	3	1	1	1	1	2	1	1	3	7	4	0	0	0	0	5	5
072312	12:31:23	10026	Trial750Fr	IncongruentRight750	15	0	487	0	114	12:31:23	2510533	3	1	1	1	1	2	1	1	3	7	4	0	0	0	0	5	5
072312	12:31:23	10026	Trial750Fr	IncongruentLeft750	15	0	487	0	114	12:31:23	2511293	3	1	1	1	1	2	1	1	3	7	4	0	0	0	0	5	5
072312	12:31:23	10026	Trial750Fr	IncongruentRight750	15	205	366	1	114	12:31:23	2511933	3	1	1	1	1	2	1	1	3	7	4	0	0	0	0	5	5
072312	12:31:23	10026	Trial750Fr	CongruentRight750	15	0	487	0	114	12:31:23	2512799	3	1	1	1	1	2	1	1	3	7	4	0	0	0	0	5	5
072312	12:31:23	10026	Trial750Fr	CongruentRight750	15	0	487	0	114	12:31:23	2513558	3	1	1	1	1	2	1	1	3	7	4	0	0	0	0	5	5
072312	12:31:23	10026	Trial750Fr	IncongruentLeft750	15	203	405	1	114	12:31:23	2514238	3	1	1	1	1	2	1	1	3	7	4	0	0	0	0	5	5
072312	12:31:23	10026	Trial750Fr	CongruentLeft750	15	205	301	0	114	12:31:23	2514891	3	1	1	1	1	2	1	1	3	7	4	0	0	0	0	5	5
072312	12:31:23	10026	Trial750Fr	CongruentRight750	15	0	487	0	114	12:31:23	2515824	3	1	1	1	1	2	1	1	3	7	4	0	0	0	0	5	5
072312	12:31:23	10026	Trial750Fr	CongruentLeft750	15	0	487	0	114	12:31:23	2516584	3	1	1	1	1	2	1	1	3	7	4	0	0	0	0	5	5
072312	12:31:23	10026	Trial750Fr	IncongruentRight750	15	0	487	0	114	12:31:23	2517344	3	1	1	1	1	2	1	1	3	7	4	0	0	0	0	5	5
072312	12:31:23	10026	Trial750Fr	CongruentRight750	15	203	188	0	114	12:31:23	2517810	3	1	1	1	1	2	1	1	3	7	4	0	0	0	0	5	5
072312	12:31:23	10026	Trial750Fr	CongruentLeft750	15	203	324	1	114	12:31:23	2518703	3	1	1	1	1	2	1	1	3	7	4	0	0	0	0	5	5
072312	12:31:23	10026	Trial750Fr	IncongruentLeft750	15	203	457	1	114	12:31:23	2519583	3	1	1	1	1	2	1	1	3	7	4	0	0	0	0	5	5
072312	12:31:23	10026	Trial750Fr	IncongruentLeft750	15	203	447	1	114	12:31:23	2520316	3	1	1	1	1	2	1	1	3	7	4	0	0	0	0	5	5
072312	12:31:23	10026	Trial750Fr	CongruentRight750	15	205	455	1	114	12:31:23	2521089	3	1	1	1	1	2	1	1	3	7	4	0	0	0	0	5	5
072312	12:31:23	10026	Trial750Fr	IncongruentRight750	15	0	487	0	114	12:31:23	2521862	3	1	1	1	1	2	1	1	3	7	4	0	0	0	0	5	5
072312	12:31:23	10026	Trial750Fr	CongruentLeft750	15	203	421	1	114	12:31:23	2522555	3	1	1	1	1	2	1	1	3	7	4	0	0	0	0	5	5
072312	12:31:23	10026	Trial750Fr	IncongruentRight750	15	205	381	1	114	12:31:23	2523274	3	1	1	1	1	2	1	1	3	7	4	0	0	0	0	5	5
072312	12:31:23	10026	Trial750Fr	CongruentRight750	15	203	371	0	114	12:31:23	2524021	3	1	1	1	1	2	1	1	3	7	4	0	0	0	0	5	5
072312	12:31:23	10026	Trial750Fr	IncongruentLeft750	15	0	487	0	114	12:31:23	2524874	3	1	1	1	1	2	1	1	3	7	4	0	0	0	0	5	5
072312	12:31:23	10026	Trial750Fr	CongruentLeft750	15	205	273	0	114	12:31:23	2525420	3	1	1	1	1	2	1	1	3	7	4	0	0	0	0	5	5
072312	12:31:23	10026	Trial750Fr	CongruentRight750	15	0	487	0	114	12:31:23	2526380	3	1	1	1	1	2	1	1	3	7	4	0	0	0	0	5	5
072312	12:31:23	10026	Trial750Fr	IncongruentLeft750	15	203	431	1	114	12:31:23	2527086	3	1	1	1	1	2	1	1	3	7	4	0	0	0	0	5	5
072312	12:31:23	10026	Trial750Fr	CongruentRight750	15	0	487	0	114	12:31:23	2527886	3	1	1	1	1	2	1	1	3	7	4	0	0	0	0	5	5
072312	12:31:23	10026	Trial750Fr	CongruentRight750	15	0	487	0	114	12:31:23	2528646	3	1	1	1	1	2	1	1	3	7	4	0	0	0	0	5	5
072312	12:31:23	10026	Trial750Fr	IncongruentRight750	15	203	53	0	114	12:31:23	2528979	3	1	1	1	1	2	1	1	3	7	4	0	0	0	0	5	5
072312	12:31:23	10026	Trial750Fr	CongruentLeft750	15	0	487	0	114	12:31:23	2530152	3	1	1	1	1	2	1	1	3	7	4	0	0	0	0	5	5
072312	12:31:23	10026	Trial750Fr	IncongruentLeft750	15	203	339	1	114	12:31:23	2530765	3	1	1	1	1	2	1	1	3	7	4	0	0	0	0	5	5
072312	12:31:23	10026	Trial750Fr	CongruentLeft750	15	203	364	1	114	12:31:23	2531551	3	1	1	1	1	2	1	1	3	7	4	0	0	0	0	5	5
072312	12:31:23	10026	Trial750Fr	IncongruentRight750	15	0	487	0	114	12:31:23	2532418	3	1	1	1	1	2	1	1	3	7	4	0	0	0	0	5	5
072312	12:31:23	10026	Trial750Fr	IncongruentLeft750	15	0	487	0	114	12:31:23	2533177	3	1	1	1	1	2	1	1	3	7	4	0	0	0	0	5	5
072312	12:31:23	10026	Trial750Fr	CongruentRight750	15	205	337	1	114	12:31:23	2533790	3	1	1	1	1	2	1	1	3	7	4	0	0	0	0	5	5
072312	12:31:23	10026	Trial750Fr	CongruentLeft750	15	203	314	1	114	12:31:23	2534523	3	1	1	1	1	2	1	1	3	7	4	0	0	0	0	5	5
072312	12:31:23	10026	Trial750Fr	IncongruentLeft750	15	205	335	0	114	12:31:23	2535296	3	1	1	1	1	2	1	1	3	7	4	0	0	0	0	5	5
072312	12:31:23	10026	Trial750Fr	CongruentLeft750	15	0	487	0	114	12:31:23	2536189	3	1	1	1	1	2	1	1	3	7	4	0	0	0	0	5	5
072312	12:31:23	10026	Trial750Fr	IncongruentRight750	15	0	487	0	114	12:31:23	2536949	3	1	1	1	1	2	1	1	3	7	4	0	0	0	0	5	5
072312	12:31:23	10026	Trial750Fr	CongruentRight750	15	0	487	0	114	12:31:23	2537709	3	1	1	1	1	2	1	1	3	7	4	0	0	0	0	5	5
072312	12:31:23	10026	Trial750Fr	IncongruentLeft750	15	203	430	1	114	12:31:23	2538415	3	1	1	1	1	2	1	1	3	7	4	0	0	0	0	5	5
072312	12:31:23	10026	Trial750Fr	CongruentLeft750	15	0	487	0	114	12:31:23	2539215	3	1	1	1	1	2	1	1	3	7	4	0	0	0	0	5	5
072312	12:31:23	10026	Trial750Fr	IncongruentRight750	15	205	332	1	114	12:31:23	2539828	3	1	1	1	1	2	1	1	3	7	4	0	0	0	0	5	5
072312	12:31:23	10026	Trial750Fr	IncongruentLeft750	15	205	324	0	114	12:31:23	2540574	3	1	1	1	1	2	1	1	3	7	4	0	0	0	0	5	5
072312	12:31:23	10026	Trial750Fr	CongruentLeft750	15	0	487	0	114	12:31:23	2541481	3	1	1	1	1	2	1	1	3	7	4	0	0	0	0	5	5
072312	12:31:23	10026	Trial750Fr	IncongruentLeft750	15	0	487	0	114	12:31:23	2542240	3	1	1	1	1	2	1	1	3	7	4	0	0	0	0	5	5
072312	12:31:23	10026	Trial750Fr	CongruentRight750	15	0	487	0	114	12:31:23	2543000	3	1	1	1	1	2	1	1	3	7	4	0	0	0	0	5	5
072312	12:31:23	10026	Trial750Fr	CongruentLeft750	15	205	19	0	114	12:31:23	2543293	3	1	1	1	1	2	1	1	3	7	4	0	0	0	0	5	5
072312	12:31:23	10026	Trial750Fr	IncongruentRight750	15	0	487	0	114	12:31:23	2544506	3	1	1	1	1	2	1	1	3	7	4	0	0	0	0	5	5
072312	12:31:23	10026	Trial750Fr	CongruentLeft750	15	0	487	0	114	12:31:23	2545266	3	1	1	1	1	2	1	1	3	7	4	0	0	0	0	5	5
072312	12:31:23	10026	Trial750Fr	CongruentRight750	15	0	487	0	114	12:31:23	2546025	3	1	1	1	1	2	1	1	3	7	4	0	0	0	0	5	5
072312	12:31:23	10026	Trial750Fr	IncongruentLeft750	15	203	449	1	114	12:31:23	2546745	3	1	1	1	1	2	1	1	3	7	4	0	0	0	0	5	5
072312	12:31:23	10026	WordsAbsFrBaseline	PAbsFrBaseline1	16	Abs1	8588	0	114	12:31:23	2566231	3	1	1	1	1	2	1	1	3	7	4	0	0	0	0	5	5
072312	12:31:23	10026	WordsAbsFrBaseline	AbsFrBaseline1	16	Abs1	4573	0	114	12:31:23	2570842	3	1	1	1	1	2	1	1	3	7	4	1	0	0	0	5	5
072312	12:31:23	10026	WordsAbsFrBaseline	AbsFrBaseline2	16	Abs1	12680	0	114	12:31:23	2583557	3	1	1	1	1	2	1	1	3	7	4	2	0	0	0	5	5
072312	12:31:23	10026	WordsAbsFrBaseline	AbsFrBaseline3	16	Abs1	25293	0	114	12:31:23	2608893	3	1	1	1	1	2	1	1	3	7	4	3	0	0	0	5	5
072312	12:31:23	10026	Trial2BackFrS	NS	17	0	1000	1	114	12:31:23	2650117	3	1	1	1	1	2	1	1	3	7	4	3	0	0	0	5	5
072312	12:31:23	10026	Trial2BackFrS	NS	17	0	1000	1	114	12:31:23	2651636	3	1	1	1	1	2	1	1	3	7	4	3	0	0	0	5	5
072312	12:31:23	10026	Trial2BackFrS	NS	17	0	1000	1	114	12:31:23	2653155	3	1	1	1	1	2	1	1	3	7	4	3	0	0	0	5	5
072312	12:31:23	10026	Trial2BackFrS	YS	17	0	1000	0	114	12:31:23	2654675	3	1	1	1	1	2	1	1	3	7	4	3	0	0	0	5	5
072312	12:31:23	10026	Trial2BackFrS	NS	17	0	1000	1	114	12:31:23	2656207	3	1	1	1	1	2	1	1	3	7	4	3	0	0	0	5	5
072312	12:31:23	10026	Trial2BackFrS	NS	17	0	1000	1	114	12:31:23	2657727	3	1	1	1	1	2	1	1	3	7	4	3	0	0	0	5	5
072312	12:31:23	10026	Trial2BackFrS	NS	17	0	1000	1	114	12:31:23	2659246	3	1	1	1	1	2	1	1	3	7	4	3	0	0	0	5	5
072312	12:31:23	10026	Trial2BackFrS	NS	17	0	1000	1	114	12:31:23	2660766	3	1	1	1	1	2	1	1	3	7	4	3	0	0	0	5	5
072312	12:31:23	10026	Trial2BackFrS	YS	17	0	1000	0	114	12:31:23	2662285	3	1	1	1	1	2	1	1	3	7	4	3	0	0	0	5	5
072312	12:31:23	10026	Trial2BackFrS	NS	17	0	1000	1	114	12:31:23	2663804	3	1	1	1	1	2	1	1	3	7	4	3	0	0	0	5	5
072312	12:31:23	10026	Trial2BackFrS	NS	17	0	1000	1	114	12:31:23	2665324	3	1	1	1	1	2	1	1	3	7	4	3	0	0	0	5	5
072312	12:31:23	10026	Trial2BackFrS	YS	17	0	1000	0	114	12:31:23	2666843	3	1	1	1	1	2	1	1	3	7	4	3	0	0	0	5	5
072312	12:31:23	10026	Trial2BackFrS	NS	17	0	1000	1	114	12:31:23	2668363	3	1	1	1	1	2	1	1	3	7	4	3	0	0	0	5	5
072312	12:31:23	10026	Trial2BackFrS	NS	17	0	1000	1	114	12:31:23	2669882	3	1	1	1	1	2	1	1	3	7	4	3	0	0	0	5	5
072312	12:31:23	10026	Trial2BackFrS	NS	17	0	1000	1	114	12:31:23	2671401	3	1	1	1	1	2	1	1	3	7	4	3	0	0	0	5	5
072312	12:31:23	10026	Trial2BackFrS	YS	17	0	1000	0	114	12:31:23	2672921	3	1	1	1	1	2	1	1	3	7	4	3	0	0	0	5	5
072312	12:31:23	10026	Trial2BackFrS	NS	17	0	1000	1	114	12:31:23	2674440	3	1	1	1	1	2	1	1	3	7	4	3	0	0	0	5	5
072312	12:31:23	10026	Trial2BackFrS	NS	17	0	1000	1	114	12:31:23	2675959	3	1	1	1	1	2	1	1	3	7	4	3	0	0	0	5	5
072312	12:31:23	10026	Trial2BackFrS	NS	17	0	1000	1	114	12:31:23	2677479	3	1	1	1	1	2	1	1	3	7	4	3	0	0	0	5	5
072312	12:31:23	10026	Trial2BackFrS	NS	17	0	1000	1	114	12:31:23	2678998	3	1	1	1	1	2	1	1	3	7	4	3	0	0	0	5	5
072312	12:31:23	10026	Trial2BackFrS	YS	17	0	1000	0	114	12:31:23	2680518	3	1	1	1	1	2	1	1	3	7	4	3	0	0	0	5	5
072312	12:31:23	10026	Trial2BackFrS	NS	17	0	1000	1	114	12:31:23	2682037	3	1	1	1	1	2	1	1	3	7	4	3	0	0	0	5	5
072312	12:31:23	10026	Trial2BackFrS	NS	17	0	1000	1	114	12:31:23	2683556	3	1	1	1	1	2	1	1	3	7	4	3	0	0	0	5	5
072312	12:31:23	10026	Trial2BackFrS	NS	17	0	1000	1	114	12:31:23	2685076	3	1	1	1	1	2	1	1	3	7	4	3	0	0	0	5	5
072312	12:31:23	10026	Trial2BackFrS	NS	17	0	1000	1	114	12:31:23	2686595	3	1	1	1	1	2	1	1	3	7	4	3	0	0	0	5	5
072312	12:31:23	10026	Trial2BackFrS	NS	17	0	1000	1	114	12:31:23	2688115	3	1	1	1	1	2	1	1	3	7	4	3	0	0	0	5	5
072312	12:31:23	10026	Trial2BackFrS	NS	17	0	1000	1	114	12:31:23	2689634	3	1	1	1	1	2	1	1	3	7	4	3	0	0	0	5	5
072312	12:31:23	10026	Trial2BackFrS	NS	17	0	1000	1	114	12:31:23	2691153	3	1	1	1	1	2	1	1	3	7	4	3	0	0	0	5	5
072312	12:31:23	10026	Trial2BackFrS	NS	17	0	1000	1	114	12:31:23	2692713	3	1	1	1	1	2	1	1	3	7	4	3	0	0	0	5	5
072312	12:31:23	10026	Trial2BackFrS	NS	17	0	1000	1	114	12:31:23	2694232	3	1	1	1	1	2	1	1	3	7	4	3	0	0	0	5	5
072312	12:31:23	10026	Trial2BackFrS	NS	17	0	1000	1	114	12:31:23	2695752	3	1	1	1	1	2	1	1	3	7	4	3	0	0	0	5	5
072312	12:31:23	10026	Trial2BackFrS	YS	17	0	1000	0	114	12:31:23	2697271	3	1	1	1	1	2	1	1	3	7	4	3	0	0	0	5	5
072312	12:31:23	10026	Trial2BackFrS	NS	17	0	1000	1	114	12:31:23	2698790	3	1	1	1	1	2	1	1	3	7	4	3	0	0	0	5	5
072312	12:31:23	10026	Trial2BackFrS	NS	17	0	1000	1	114	12:31:23	2700310	3	1	1	1	1	2	1	1	3	7	4	3	0	0	0	5	5
072312	12:31:23	10026	Trial2BackFrS	NS	17	57	981	0	114	12:31:23	2701816	3	1	1	1	1	2	1	1	3	7	4	3	0	0	0	5	5
072312	12:31:23	10026	Trial2BackFrS	YS	17	0	1000	0	114	12:31:23	2703335	3	1	1	1	1	2	1	1	3	7	4	3	0	0	0	5	5
072312	12:31:23	10026	Trial2BackFrS	NS	17	0	1000	1	114	12:31:23	2704854	3	1	1	1	1	2	1	1	3	7	4	3	0	0	0	5	5
072312	12:31:23	10026	Trial2BackFrS	NS	17	0	1000	1	114	12:31:23	2706374	3	1	1	1	1	2	1	1	3	7	4	3	0	0	0	5	5
072312	12:31:23	10026	Trial2BackFrS	NS	17	0	1000	1	114	12:31:23	2707893	3	1	1	1	1	2	1	1	3	7	4	3	0	0	0	5	5
072312	12:31:23	10026	Trial2BackFrS	NS	17	0	1000	1	114	12:31:23	2709413	3	1	1	1	1	2	1	1	3	7	4	3	0	0	0	5	5
072312	12:31:23	10026	Trial2BackFrS	NS	17	0	1000	1	114	12:31:23	2710932	3	1	1	1	1	2	1	1	3	7	4	3	0	0	0	5	5
072312	12:31:23	10026	Trial2BackFrS	NS	17	0	1000	1	114	12:31:23	2712452	3	1	1	1	1	2	1	1	3	7	4	3	0	0	0	5	5
072312	12:31:23	10026	Trial2BackFrS	NS	17	0	1000	1	114	12:31:23	2713971	3	1	1	1	1	2	1	1	3	7	4	3	0	0	0	5	5
072312	12:31:23	10026	Trial2BackFrS	YS	17	57	888	1	114	12:31:23	2715383	3	1	1	1	1	2	1	1	3	7	4	3	0	0	0	5	5
072312	12:31:23	10026	Trial2BackFrS	NS	17	0	1000	1	114	12:31:23	2716996	3	1	1	1	1	2	1	1	3	7	4	3	0	0	0	5	5
072312	12:31:23	10026	Trial2BackFrS	NS	17	0	1000	1	114	12:31:23	2718516	3	1	1	1	1	2	1	1	3	7	4	3	0	0	0	5	5
072312	12:31:23	10026	Trial2BackFrS	NS	17	0	1000	1	114	12:31:23	2720035	3	1	1	1	1	2	1	1	3	7	4	3	0	0	0	5	5
072312	12:31:23	10026	Trial2BackFrS	NS	17	0	1000	1	114	12:31:23	2721554	3	1	1	1	1	2	1	1	3	7	4	3	0	0	0	5	5
072312	12:31:23	10026	Trial2BackFrS	YS	17	0	1000	0	114	12:31:23	2723074	3	1	1	1	1	2	1	1	3	7	4	3	0	0	0	5	5
072312	12:31:23	10026	Trial2BackFrS	NS	17	0	1000	1	114	12:31:23	2724593	3	1	1	1	1	2	1	1	3	7	4	3	0	0	0	5	5
072312	12:31:23	10026	Trial2BackFrS	NS	17	0	1000	1	114	12:31:23	2726113	3	1	1	1	1	2	1	1	3	7	4	3	0	0	0	5	5
072312	12:31:23	10026	Trial2BackFrS	NS	17	0	1000	1	114	12:31:23	2727632	3	1	1	1	1	2	1	1	3	7	4	3	0	0	0	5	5
072312	12:31:23	10026	Trial2BackFrS	NS	17	0	1000	1	114	12:31:23	2729151	3	1	1	1	1	2	1	1	3	7	4	3	0	0	0	5	5
072312	12:31:23	10026	Trial2BackFrS	NS	17	0	1000	1	114	12:31:23	2730671	3	1	1	1	1	2	1	1	3	7	4	3	0	0	0	5	5
072312	12:31:23	10026	Trial2BackFrS	NS	17	0	1000	1	114	12:31:23	2732190	3	1	1	1	1	2	1	1	3	7	4	3	0	0	0	5	5
072312	12:31:23	10026	Trial2BackFrS	YS	17	0	1000	0	114	12:31:23	2733709	3	1	1	1	1	2	1	1	3	7	4	3	0	0	0	5	5
072312	12:31:23	10026	Trial2BackFrS	NS	17	57	812	0	114	12:31:23	2735056	3	1	1	1	1	2	1	1	3	7	4	3	0	0	0	5	5
072312	12:31:23	10026	Trial2BackFrS	NS	17	0	1000	1	114	12:31:23	2736735	3	1	1	1	1	2	1	1	3	7	4	3	0	0	0	5	5
072312	12:31:23	10026	Trial2BackFrS	NS	17	0	1000	1	114	12:31:23	2738254	3	1	1	1	1	2	1	1	3	7	4	3	0	0	0	5	5
072312	12:31:23	10026	Trial2BackFrS	NS	17	0	1000	1	114	12:31:23	2739774	3	1	1	1	1	2	1	1	3	7	4	3	0	0	0	5	5
072312	12:31:23	10026	Trial2BackFrS	NS	17	0	1000	1	114	12:31:23	2741293	3	1	1	1	1	2	1	1	3	7	4	3	0	0	0	5	5
072312	12:31:23	10026	Trial2BackFrS	NS	17	0	1000	1	114	12:31:23	2742813	3	1	1	1	1	2	1	1	3	7	4	3	0	0	0	5	5
072312	12:31:23	10026	Trial2BackFrS	NS	17	0	1000	1	114	12:31:23	2744332	3	1	1	1	1	2	1	1	3	7	4	3	0	0	0	5	5
072312	12:31:23	10026	Trial2BackFrS	YS	17	57	382	1	114	12:31:23	2745238	3	1	1	1	1	2	1	1	3	7	4	3	0	0	0	5	5
072312	12:31:23	10026	Trial2BackFrS	NS	17	0	1000	1	114	12:31:23	2747357	3	1	1	1	1	2	1	1	3	7	4	3	0	0	0	5	5
072312	12:31:23	10026	Trial2BackFrS	NS	17	0	1000	1	114	12:31:23	2748877	3	1	1	1	1	2	1	1	3	7	4	3	0	0	0	5	5
072312	12:31:23	10026	Trial2BackFrS	NS	17	0	1000	1	114	12:31:23	2750396	3	1	1	1	1	2	1	1	3	7	4	3	0	0	0	5	5
072312	12:31:23	10026	Trial2BackFrS	NS	17	0	1000	1	114	12:31:23	2751915	3	1	1	1	1	2	1	1	3	7	4	3	0	0	0	5	5
072312	12:31:23	10026	Trial2BackFrS	YS	17	0	1000	0	114	12:31:23	2753435	3	1	1	1	1	2	1	1	3	7	4	3	0	0	0	5	5
072312	12:31:23	10026	Trial2BackFrS	NS	17	0	1000	1	114	12:31:23	2754954	3	1	1	1	1	2	1	1	3	7	4	3	0	0	0	5	5
072312	12:31:23	10026	Trial2BackFrS	NS	17	0	1000	1	114	12:31:23	2756474	3	1	1	1	1	2	1	1	3	7	4	3	0	0	0	5	5
072312	12:31:23	10026	Trial2BackFrS	YS	17	57	608	1	114	12:31:23	2757606	3	1	1	1	1	2	1	1	3	7	4	3	0	0	0	5	5
072312	12:31:23	10026	Trial2BackFrS	NS	17	0	1000	1	114	12:31:23	2759499	3	1	1	1	1	2	1	1	3	7	4	3	0	0	0	5	5
072312	12:31:23	10026	Trial2BackFrS	NS	17	0	1000	1	114	12:31:23	2761019	3	1	1	1	1	2	1	1	3	7	4	3	0	0	0	5	5
072312	12:31:23	10026	Trial2BackFrS	NS	17	0	1000	1	114	12:31:23	2762538	3	1	1	1	1	2	1	1	3	7	4	3	0	0	0	5	5
072312	12:31:23	10026	Trial2BackFrS	NS	17	0	1000	1	114	12:31:23	2764057	3	1	1	1	1	2	1	1	3	7	4	3	0	0	0	5	5
072312	12:31:23	10026	Trial2BackFrS	NS	17	0	1000	1	114	12:31:23	2765577	3	1	1	1	1	2	1	1	3	7	4	3	0	0	0	5	5
072312	12:31:23	10026	Trial2BackFrS	NS	17	0	1000	1	114	12:31:23	2767096	3	1	1	1	1	2	1	1	3	7	4	3	0	0	0	5	5
072312	12:31:23	10026	Trial2BackFrS	YS	17	57	769	1	114	12:31:23	2768389	3	1	1	1	1	2	1	1	3	7	4	3	0	0	0	5	5
072312	12:31:23	10026	Trial2BackFrS	NS	17	0	1000	1	114	12:31:23	2770121	3	1	1	1	1	2	1	1	3	7	4	3	0	0	0	5	5
072312	12:31:23	10026	Trial2BackFrS	NS	17	0	1000	1	114	12:31:23	2771641	3	1	1	1	1	2	1	1	3	7	4	3	0	0	0	5	5
072312	12:31:23	10026	Trial2BackFrS	NS	17	0	1000	1	114	12:31:23	2773160	3	1	1	1	1	2	1	1	3	7	4	3	0	0	0	5	5
072312	12:31:23	10026	Trial2BackFrS	NS	17	0	1000	1	114	12:31:23	2774680	3	1	1	1	1	2	1	1	3	7	4	3	0	0	0	5	5
072312	12:31:23	10026	Trial2BackFrS	YS	17	57	801	1	114	12:31:23	2776012	3	1	1	1	1	2	1	1	3	7	4	3	0	0	0	5	5
072312	12:31:23	10026	Trial2BackFrS	NS	17	0	1000	1	114	12:31:23	2777705	3	1	1	1	1	2	1	1	3	7	4	3	0	0	0	5	5
072312	12:31:23	10026	Trial2BackFrS	NS	17	0	1000	1	114	12:31:23	2779224	3	1	1	1	1	2	1	1	3	7	4	3	0	0	0	5	5
072312	12:31:23	10026	Trial2BackFrS	NS	17	0	1000	1	114	12:31:23	2780744	3	1	1	1	1	2	1	1	3	7	4	3	0	0	0	5	5
072312	12:31:23	10026	Trial2BackFrS	NS	17	0	1000	1	114	12:31:23	2782263	3	1	1	1	1	2	1	1	3	7	4	3	0	0	0	5	5
072312	12:31:23	10026	Trial2BackFrS	YS	17	0	1000	0	114	12:31:23	2783783	3	1	1	1	1	2	1	1	3	7	4	3	0	0	0	5	5
072312	12:31:23	10026	Trial2BackFrS	NS	17	0	1000	1	114	12:31:23	2785302	3	1	1	1	1	2	1	1	3	7	4	3	0	0	0	5	5
072312	12:31:23	10026	Trial2BackFrS	NS	17	0	1000	1	114	12:31:23	2786821	3	1	1	1	1	2	1	1	3	7	4	3	0	0	0	5	5
072312	12:31:23	10026	Trial2BackFrS	YS	17	57	499	1	114	12:31:23	2787848	3	1	1	1	1	2	1	1	3	7	4	3	0	0	0	5	5
072312	12:31:23	10026	Trial2BackFrS	NS	17	0	1000	1	114	12:31:23	2789847	3	1	1	1	1	2	1	1	3	7	4	3	0	0	0	5	5
072312	12:31:23	10026	Trial2BackFrS	NS	17	0	1000	1	114	12:31:23	2791366	3	1	1	1	1	2	1	1	3	7	4	3	0	0	0	5	5
072312	12:31:23	10026	Trial2BackFrS	NS	17	0	1000	1	114	12:31:23	2792886	3	1	1	1	1	2	1	1	3	7	4	3	0	0	0	5	5
072312	12:31:23	10026	Trial2BackFrS	NS	17	0	1000	1	114	12:31:23	2794405	3	1	1	1	1	2	1	1	3	7	4	3	0	0	0	5	5
072312	12:31:23	10026	Trial2BackFrS	NS	17	0	1000	1	114	12:31:23	2795924	3	1	1	1	1	2	1	1	3	7	4	3	0	0	0	5	5
072312	12:31:23	10026	Trial2BackFrS	NS	17	0	1000	1	114	12:31:23	2797444	3	1	1	1	1	2	1	1	3	7	4	3	0	0	0	5	5
072312	12:31:23	10026	Trial2BackFrS	NS	17	0	1000	1	114	12:31:23	2798963	3	1	1	1	1	2	1	1	3	7	4	3	0	0	0	5	5
072312	12:31:23	10026	Trial2BackFrS	NS	17	0	1000	1	114	12:31:23	2800482	3	1	1	1	1	2	1	1	3	7	4	3	0	0	0	5	5
072312	12:31:23	10026	Trial2BackFrS	YS	17	0	1000	0	114	12:31:23	2802002	3	1	1	1	1	2	1	1	3	7	4	3	0	0	0	5	5
072312	12:31:23	10026	Trial2BackFrS	NS	17	0	1000	1	114	12:31:23	2803521	3	1	1	1	1	2	1	1	3	7	4	3	0	0	0	5	5
072312	12:31:23	10026	Trial2BackFrS	NS	17	0	1000	1	114	12:31:23	2805041	3	1	1	1	1	2	1	1	3	7	4	3	0	0	0	5	5
072312	12:31:23	10026	Trial2BackFrS	NS	17	0	1000	1	114	12:31:23	2806560	3	1	1	1	1	2	1	1	3	7	4	3	0	0	0	5	5
072312	12:31:23	10026	Trial2BackFrS	NS	17	0	1000	1	114	12:31:23	2808079	3	1	1	1	1	2	1	1	3	7	4	3	0	0	0	5	5
072312	12:31:23	10026	Trial2BackFrS	NS	17	0	1000	1	114	12:31:23	2809599	3	1	1	1	1	2	1	1	3	7	4	3	0	0	0	5	5
072312	12:31:23	10026	Trial2BackFrS	NS	17	0	1000	1	114	12:31:23	2811118	3	1	1	1	1	2	1	1	3	7	4	3	0	0	0	5	5
072312	12:31:23	10026	Trial2BackFrS	NS	17	0	1000	1	114	12:31:23	2812638	3	1	1	1	1	2	1	1	3	7	4	3	0	0	0	5	5
072312	12:31:23	10026	Trial2BackFrS	YS	17	0	1000	0	114	12:31:23	2814157	3	1	1	1	1	2	1	1	3	7	4	3	0	0	0	5	5
072312	12:31:23	10026	Trial2BackFrS	NS	17	0	1000	1	114	12:31:23	2815676	3	1	1	1	1	2	1	1	3	7	4	3	0	0	0	5	5
072312	12:31:23	10026	Trial2BackFrS	NS	17	0	1000	1	114	12:31:23	2817196	3	1	1	1	1	2	1	1	3	7	4	3	0	0	0	5	5
072312	12:31:23	10026	Trial2BackFrS	NS	17	0	1000	1	114	12:31:23	2818715	3	1	1	1	1	2	1	1	3	7	4	3	0	0	0	5	5
072312	12:31:23	10026	Trial2BackFrS	NS	17	0	1000	1	114	12:31:23	2820234	3	1	1	1	1	2	1	1	3	7	4	3	0	0	0	5	5
072312	12:31:23	10026	Trial2BackFrS	NS	17	0	1000	1	114	12:31:23	2821754	3	1	1	1	1	2	1	1	3	7	4	3	0	0	0	5	5
072312	12:31:23	10026	Trial2BackFrS	NS	17	0	1000	1	114	12:31:23	2823273	3	1	1	1	1	2	1	1	3	7	4	3	0	0	0	5	5
072312	12:31:23	10026	Trial2BackFrS	NS	17	0	1000	1	114	12:31:23	2824793	3	1	1	1	1	2	1	1	3	7	4	3	0	0	0	5	5
072312	12:31:23	10026	Trial2BackFrS	NS	17	0	1000	1	114	12:31:23	2826312	3	1	1	1	1	2	1	1	3	7	4	3	0	0	0	5	5
072312	12:31:23	10026	Trial2BackFrS	NS	17	0	1000	1	114	12:31:23	2827831	3	1	1	1	1	2	1	1	3	7	4	3	0	0	0	5	5
072312	12:31:23	10026	Trial2BackFrS	YS	17	0	1000	0	114	12:31:23	2829351	3	1	1	1	1	2	1	1	3	7	4	3	0	0	0	5	5
072312	12:31:23	10026	Trial2BackFrS	NS	17	0	1000	1	114	12:31:23	2830870	3	1	1	1	1	2	1	1	3	7	4	3	0	0	0	5	5
072312	12:31:23	10026	ClockFrBaseline	ClockFrBaseline	19	Clock1	88671	0	114	12:31:23	2919648	3	1	1	1	1	2	1	1	3	7	4	3	1	0	0	5	5
072312	12:31:23	10026	ClockFrBaseline	ClockFrBaseline	19	Clock11	747	0	114	12:31:23	2920434	3	1	1	1	1	2	1	1	3	7	4	3	1	1	0	5	5
072312	12:31:23	10026	ClockFrBaseline	ClockFrBaseline	19	Clock111	425	0	114	12:31:23	2920901	3	1	1	1	1	2	1	1	3	7	4	3	1	1	1	5	5
072312	12:31:23	10026	ClockFrBaseline	ClockFrBaseline	19	Clockdone	597	0	114	12:31:23	2921540	3	1	1	1	1	2	1	1	3	7	4	3	1	1	1	5	5
072312	12:31:23	10026	FASFrVFBaseline	StopFrVFBaseline	20	13	60316	0	114	12:31:23	3090785	3	1	1	1	1	2	1	1	3	7	4	3	1	1	1	5	5
