date	time	subject	blockcode	trialcode	values.TaskNumber	response	latency	correct	values.Score	script.starttime	script.elapsedtime	values.ScoreS7	values.Word1	values.Word2	values.Word3	values.Word4	values.Word5	values.Word6	values.Word7	values.Word8	values.DigitSpanFwrd	values.DigitSpanBack	values.ScoreAbs	values.Contour	values.Numbers	values.Hands	values.corsiblockspanFwrd	values.corsiblockspanRev
073012	14:09:33	10030	Language	Language	0	French	469811	0	0	14:09:33	469907	0	0	0	0	0	0	0	0	0	0	0	0	0	0	0	0	0
073012	14:09:33	10030	Session	Session	0	Baseline	918	0	0	14:09:33	470905	0	0	0	0	0	0	0	0	0	0	0	0	0	0	0	0	0
073012	14:09:33	10030	HandFr	HandFr	0	RightFr	2381098	0	0	14:09:33	2852088	0	0	0	0	0	0	0	0	0	0	0	0	0	0	0	0	0
073012	14:09:33	10030	AudioCheckFr	WordsFr	0	0	0	0	0	14:09:33	2890277	0	0	0	0	0	0	0	0	0	0	0	0	0	0	0	0	0
073012	14:09:33	10030	CubeFr	CubeFr	1	1Cube	49166	0	0	14:09:33	2940865	0	0	0	0	0	0	0	0	0	0	0	0	0	0	0	0	0
073012	14:09:33	10030	pm.simpleFrRight	blank.simpleFr	2	0	1687	1	0	14:09:33	2984593	0	0	0	0	0	0	0	0	0	0	0	0	0	0	0	0	0
073012	14:09:33	10030	pm.simpleFrRight	pm.simpleFr	2	57	1327	0	0	14:09:33	2985953	0	0	0	0	0	0	0	0	0	0	0	0	0	0	0	0	0
073012	14:09:33	10030	pm.simpleFrRight	blank.simpleFr	2	0	2387	1	0	14:09:33	2988365	0	0	0	0	0	0	0	0	0	0	0	0	0	0	0	0	0
073012	14:09:33	10030	pm.simpleFrRight	pm.simpleFr	2	57	484	0	0	14:09:33	2988885	0	0	0	0	0	0	0	0	0	0	0	0	0	0	0	0	0
073012	14:09:33	10030	pm.simpleFrRight	blank.simpleFr	2	0	1487	1	0	14:09:33	2990404	0	0	0	0	0	0	0	0	0	0	0	0	0	0	0	0	0
073012	14:09:33	10030	pm.simpleFrRight	pm.simpleFr	2	57	300	0	0	14:09:33	2990737	0	0	0	0	0	0	0	0	0	0	0	0	0	0	0	0	0
073012	14:09:33	10030	pm.simpleFrRight	blank.simpleFr	2	0	2187	1	0	14:09:33	2992950	0	0	0	0	0	0	0	0	0	0	0	0	0	0	0	0	0
073012	14:09:33	10030	pm.simpleFrRight	pm.simpleFr	2	57	331	0	0	14:09:33	2993323	0	0	0	0	0	0	0	0	0	0	0	0	0	0	0	0	0
073012	14:09:33	10030	pm.simpleFrRight	blank.simpleFr	2	0	1887	1	0	14:09:33	2995242	0	0	0	0	0	0	0	0	0	0	0	0	0	0	0	0	0
073012	14:09:33	10030	pm.simpleFrRight	pm.simpleFr	2	57	406	0	0	14:09:33	2995682	0	0	0	0	0	0	0	0	0	0	0	0	0	0	0	0	0
073012	14:09:33	10030	pm.simpleFrRight	blank.simpleFr	2	0	1987	1	0	14:09:33	2997694	0	0	0	0	0	0	0	0	0	0	0	0	0	0	0	0	0
073012	14:09:33	10030	pm.simpleFrRight	pm.simpleFr	2	57	290	0	0	14:09:33	2998014	0	0	0	0	0	0	0	0	0	0	0	0	0	0	0	0	0
073012	14:09:33	10030	pm.simpleFrRight	blank.simpleFr	2	0	1787	1	0	14:09:33	2999827	0	0	0	0	0	0	0	0	0	0	0	0	0	0	0	0	0
073012	14:09:33	10030	pm.simpleFrRight	pm.simpleFr	2	57	285	0	0	14:09:33	3000147	0	0	0	0	0	0	0	0	0	0	0	0	0	0	0	0	0
073012	14:09:33	10030	pm.simpleFrRight	blank.simpleFr	2	0	2287	1	0	14:09:33	3002466	0	0	0	0	0	0	0	0	0	0	0	0	0	0	0	0	0
073012	14:09:33	10030	pm.simpleFrRight	pm.simpleFr	2	57	286	0	0	14:09:33	3002785	0	0	0	0	0	0	0	0	0	0	0	0	0	0	0	0	0
073012	14:09:33	10030	pm.simpleFrRight	blank.simpleFr	2	0	2487	1	0	14:09:33	3005305	0	0	0	0	0	0	0	0	0	0	0	0	0	0	0	0	0
073012	14:09:33	10030	pm.simpleFrRight	pm.simpleFr	2	57	231	0	0	14:09:33	3005571	0	0	0	0	0	0	0	0	0	0	0	0	0	0	0	0	0
073012	14:09:33	10030	pm.simpleFrRight	blank.simpleFr	2	0	1587	1	0	14:09:33	3007184	0	0	0	0	0	0	0	0	0	0	0	0	0	0	0	0	0
073012	14:09:33	10030	pm.simpleFrRight	pm.simpleFr	2	57	336	0	0	14:09:33	3007557	0	0	0	0	0	0	0	0	0	0	0	0	0	0	0	0	0
073012	14:09:33	10030	pm.simpleFrRight	blank.simpleFr	2	0	2087	1	0	14:09:33	3009676	0	0	0	0	0	0	0	0	0	0	0	0	0	0	0	0	0
073012	14:09:33	10030	pm.simpleFrRight	pm.simpleFr	2	57	228	0	0	14:09:33	3009943	0	0	0	0	0	0	0	0	0	0	0	0	0	0	0	0	0
073012	14:09:33	10030	pm.simpleFrRight	blank.simpleFr	2	0	2087	1	0	14:09:33	3012062	0	0	0	0	0	0	0	0	0	0	0	0	0	0	0	0	0
073012	14:09:33	10030	pm.simpleFrRight	pm.simpleFr	2	57	225	0	0	14:09:33	3012328	0	0	0	0	0	0	0	0	0	0	0	0	0	0	0	0	0
073012	14:09:33	10030	pm.simpleFrRight	blank.simpleFr	2	0	2287	1	0	14:09:33	3014647	0	0	0	0	0	0	0	0	0	0	0	0	0	0	0	0	0
073012	14:09:33	10030	pm.simpleFrRight	pm.simpleFr	2	57	249	0	0	14:09:33	3014927	0	0	0	0	0	0	0	0	0	0	0	0	0	0	0	0	0
073012	14:09:33	10030	pm.simpleFrRight	blank.simpleFr	2	0	2187	1	0	14:09:33	3017140	0	0	0	0	0	0	0	0	0	0	0	0	0	0	0	0	0
073012	14:09:33	10030	pm.simpleFrRight	pm.simpleFr	2	57	220	0	0	14:09:33	3017393	0	0	0	0	0	0	0	0	0	0	0	0	0	0	0	0	0
073012	14:09:33	10030	pm.simpleFrRight	blank.simpleFr	2	0	2487	1	0	14:09:33	3019912	0	0	0	0	0	0	0	0	0	0	0	0	0	0	0	0	0
073012	14:09:33	10030	pm.simpleFrRight	pm.simpleFr	2	57	232	0	0	14:09:33	3020178	0	0	0	0	0	0	0	0	0	0	0	0	0	0	0	0	0
073012	14:09:33	10030	pm.simpleFrRight	blank.simpleFr	2	0	1487	1	0	14:09:33	3021698	0	0	0	0	0	0	0	0	0	0	0	0	0	0	0	0	0
073012	14:09:33	10030	pm.simpleFrRight	pm.simpleFr	2	57	349	0	0	14:09:33	3022084	0	0	0	0	0	0	0	0	0	0	0	0	0	0	0	0	0
073012	14:09:33	10030	pm.simpleFrRight	blank.simpleFr	2	0	1787	1	0	14:09:33	3023897	0	0	0	0	0	0	0	0	0	0	0	0	0	0	0	0	0
073012	14:09:33	10030	pm.simpleFrRight	pm.simpleFr	2	57	278	0	0	14:09:33	3024217	0	0	0	0	0	0	0	0	0	0	0	0	0	0	0	0	0
073012	14:09:33	10030	pm.simpleFrRight	blank.simpleFr	2	0	1587	1	0	14:09:33	3025829	0	0	0	0	0	0	0	0	0	0	0	0	0	0	0	0	0
073012	14:09:33	10030	pm.simpleFrRight	pm.simpleFr	2	57	218	0	0	14:09:33	3026083	0	0	0	0	0	0	0	0	0	0	0	0	0	0	0	0	0
073012	14:09:33	10030	pm.simpleFrRight	blank.simpleFr	2	0	1687	1	0	14:09:33	3027802	0	0	0	0	0	0	0	0	0	0	0	0	0	0	0	0	0
073012	14:09:33	10030	pm.simpleFrRight	pm.simpleFr	2	57	213	0	0	14:09:33	3028055	0	0	0	0	0	0	0	0	0	0	0	0	0	0	0	0	0
073012	14:09:33	10030	pm.simpleFrRight	blank.simpleFr	2	0	1887	1	0	14:09:33	3029974	0	0	0	0	0	0	0	0	0	0	0	0	0	0	0	0	0
073012	14:09:33	10030	pm.simpleFrRight	pm.simpleFr	2	57	233	0	0	14:09:33	3030241	0	0	0	0	0	0	0	0	0	0	0	0	0	0	0	0	0
073012	14:09:33	10030	pm.simpleFrRight	blank.simpleFr	2	0	2387	1	0	14:09:33	3032653	0	0	0	0	0	0	0	0	0	0	0	0	0	0	0	0	0
073012	14:09:33	10030	pm.simpleFrRight	pm.simpleFr	2	57	258	0	0	14:09:33	3032947	0	0	0	0	0	0	0	0	0	0	0	0	0	0	0	0	0
073012	14:09:33	10030	pm.simpleFrRight	blank.simpleFr	2	0	1987	1	0	14:09:33	3034959	0	0	0	0	0	0	0	0	0	0	0	0	0	0	0	0	0
073012	14:09:33	10030	pm.simpleFrRight	pm.simpleFr	2	57	224	0	0	14:09:33	3035225	0	0	0	0	0	0	0	0	0	0	0	0	0	0	0	0	0
073012	14:09:33	10030	pm.simpleFrRight	blank.simpleFr	2	0	1887	1	0	14:09:33	3037145	0	0	0	0	0	0	0	0	0	0	0	0	0	0	0	0	0
073012	14:09:33	10030	pm.simpleFrRight	pm.simpleFr	2	57	214	0	0	14:09:33	3037398	0	0	0	0	0	0	0	0	0	0	0	0	0	0	0	0	0
073012	14:09:33	10030	pm.simpleFrRight	blank.simpleFr	2	0	2287	1	0	14:09:33	3039717	0	0	0	0	0	0	0	0	0	0	0	0	0	0	0	0	0
073012	14:09:33	10030	pm.simpleFrRight	pm.simpleFr	2	57	218	0	0	14:09:33	3039970	0	0	0	0	0	0	0	0	0	0	0	0	0	0	0	0	0
073012	14:09:33	10030	pm.simpleFrRight	blank.simpleFr	2	0	1487	1	0	14:09:33	3041490	0	0	0	0	0	0	0	0	0	0	0	0	0	0	0	0	0
073012	14:09:33	10030	pm.simpleFrRight	pm.simpleFr	2	57	317	0	0	14:09:33	3041849	0	0	0	0	0	0	0	0	0	0	0	0	0	0	0	0	0
073012	14:09:33	10030	pm.simpleFrRight	blank.simpleFr	2	0	1587	1	0	14:09:33	3043462	0	0	0	0	0	0	0	0	0	0	0	0	0	0	0	0	0
073012	14:09:33	10030	pm.simpleFrRight	pm.simpleFr	2	57	217	0	0	14:09:33	3043715	0	0	0	0	0	0	0	0	0	0	0	0	0	0	0	0	0
073012	14:09:33	10030	pm.simpleFrRight	blank.simpleFr	2	0	2187	1	0	14:09:33	3045928	0	0	0	0	0	0	0	0	0	0	0	0	0	0	0	0	0
073012	14:09:33	10030	pm.simpleFrRight	pm.simpleFr	2	57	231	0	0	14:09:33	3046194	0	0	0	0	0	0	0	0	0	0	0	0	0	0	0	0	0
073012	14:09:33	10030	pm.simpleFrRight	blank.simpleFr	2	0	1787	1	0	14:09:33	3048007	0	0	0	0	0	0	0	0	0	0	0	0	0	0	0	0	0
073012	14:09:33	10030	pm.simpleFrRight	pm.simpleFr	2	57	216	0	0	14:09:33	3048260	0	0	0	0	0	0	0	0	0	0	0	0	0	0	0	0	0
073012	14:09:33	10030	pm.simpleFrRight	blank.simpleFr	2	0	2387	1	0	14:09:33	3050673	0	0	0	0	0	0	0	0	0	0	0	0	0	0	0	0	0
073012	14:09:33	10030	pm.simpleFrRight	pm.simpleFr	2	57	254	0	0	14:09:33	3050966	0	0	0	0	0	0	0	0	0	0	0	0	0	0	0	0	0
073012	14:09:33	10030	pm.simpleFrRight	blank.simpleFr	2	0	1687	1	0	14:09:33	3052685	0	0	0	0	0	0	0	0	0	0	0	0	0	0	0	0	0
073012	14:09:33	10030	pm.simpleFrRight	pm.simpleFr	2	57	241	0	0	14:09:33	3052965	0	0	0	0	0	0	0	0	0	0	0	0	0	0	0	0	0
073012	14:09:33	10030	pm.simpleFrRight	blank.simpleFr	2	0	2487	1	0	14:09:33	3055484	0	0	0	0	0	0	0	0	0	0	0	0	0	0	0	0	0
073012	14:09:33	10030	pm.simpleFrRight	pm.simpleFr	2	57	642	0	0	14:09:33	3056164	0	0	0	0	0	0	0	0	0	0	0	0	0	0	0	0	0
073012	14:09:33	10030	pm.simpleFrRight	blank.simpleFr	2	0	1987	1	0	14:09:33	3058176	0	0	0	0	0	0	0	0	0	0	0	0	0	0	0	0	0
073012	14:09:33	10030	pm.simpleFrRight	pm.simpleFr	2	57	254	0	0	14:09:33	3058469	0	0	0	0	0	0	0	0	0	0	0	0	0	0	0	0	0
073012	14:09:33	10030	pm.simpleFrRight	blank.simpleFr	2	0	2087	1	0	14:09:33	3060589	0	0	0	0	0	0	0	0	0	0	0	0	0	0	0	0	0
073012	14:09:33	10030	pm.simpleFrRight	pm.simpleFr	2	57	242	0	0	14:09:33	3060868	0	0	0	0	0	0	0	0	0	0	0	0	0	0	0	0	0
073012	14:09:33	10030	pm.simpleFrRight	blank.simpleFr	2	0	1587	1	0	14:09:33	3062481	0	0	0	0	0	0	0	0	0	0	0	0	0	0	0	0	0
073012	14:09:33	10030	pm.simpleFrRight	pm.simpleFr	2	57	221	0	0	14:09:33	3062734	0	0	0	0	0	0	0	0	0	0	0	0	0	0	0	0	0
073012	14:09:33	10030	pm.simpleFrRight	blank.simpleFr	2	0	1487	1	0	14:09:33	3064254	0	0	0	0	0	0	0	0	0	0	0	0	0	0	0	0	0
073012	14:09:33	10030	pm.simpleFrRight	pm.simpleFr	2	57	241	0	0	14:09:33	3064533	0	0	0	0	0	0	0	0	0	0	0	0	0	0	0	0	0
073012	14:09:33	10030	pm.simpleFrRight	blank.simpleFr	2	0	1987	1	0	14:09:33	3066546	0	0	0	0	0	0	0	0	0	0	0	0	0	0	0	0	0
073012	14:09:33	10030	pm.simpleFrRight	pm.simpleFr	2	57	236	0	0	14:09:33	3066812	0	0	0	0	0	0	0	0	0	0	0	0	0	0	0	0	0
073012	14:09:33	10030	pm.simpleFrRight	blank.simpleFr	2	0	2087	1	0	14:09:33	3068931	0	0	0	0	0	0	0	0	0	0	0	0	0	0	0	0	0
073012	14:09:33	10030	pm.simpleFrRight	pm.simpleFr	2	57	250	0	0	14:09:33	3069212	0	0	0	0	0	0	0	0	0	0	0	0	0	0	0	0	0
073012	14:09:33	10030	pm.simpleFrRight	blank.simpleFr	2	0	2487	1	0	14:09:33	3071731	0	0	0	0	0	0	0	0	0	0	0	0	0	0	0	0	0
073012	14:09:33	10030	pm.simpleFrRight	pm.simpleFr	2	57	235	0	0	14:09:33	3071997	0	0	0	0	0	0	0	0	0	0	0	0	0	0	0	0	0
073012	14:09:33	10030	pm.simpleFrRight	blank.simpleFr	2	0	2187	1	0	14:09:33	3074209	0	0	0	0	0	0	0	0	0	0	0	0	0	0	0	0	0
073012	14:09:33	10030	pm.simpleFrRight	pm.simpleFr	2	57	300	0	0	14:09:33	3074543	0	0	0	0	0	0	0	0	0	0	0	0	0	0	0	0	0
073012	14:09:33	10030	pm.simpleFrRight	blank.simpleFr	2	0	1687	1	0	14:09:33	3076262	0	0	0	0	0	0	0	0	0	0	0	0	0	0	0	0	0
073012	14:09:33	10030	pm.simpleFrRight	pm.simpleFr	2	57	279	0	0	14:09:33	3076582	0	0	0	0	0	0	0	0	0	0	0	0	0	0	0	0	0
073012	14:09:33	10030	Trial2BackFr	N	3	0	1000	1	1	14:09:33	3181752	0	0	0	0	0	0	0	0	0	0	0	0	0	0	0	0	0
073012	14:09:33	10030	Trial2BackFr	N	3	0	1000	1	2	14:09:33	3183271	0	0	0	0	0	0	0	0	0	0	0	0	0	0	0	0	0
073012	14:09:33	10030	Trial2BackFr	N	3	0	1000	1	3	14:09:33	3184790	0	0	0	0	0	0	0	0	0	0	0	0	0	0	0	0	0
073012	14:09:33	10030	Trial2BackFr	N	3	0	1000	1	4	14:09:33	3186309	0	0	0	0	0	0	0	0	0	0	0	0	0	0	0	0	0
073012	14:09:33	10030	Trial2BackFr	N	3	0	1000	1	5	14:09:33	3187842	0	0	0	0	0	0	0	0	0	0	0	0	0	0	0	0	0
073012	14:09:33	10030	Trial2BackFr	N	3	0	1000	1	6	14:09:33	3189361	0	0	0	0	0	0	0	0	0	0	0	0	0	0	0	0	0
073012	14:09:33	10030	Trial2BackFr	N	3	0	1000	1	7	14:09:33	3190881	0	0	0	0	0	0	0	0	0	0	0	0	0	0	0	0	0
073012	14:09:33	10030	Trial2BackFr	N	3	0	1000	1	8	14:09:33	3192400	0	0	0	0	0	0	0	0	0	0	0	0	0	0	0	0	0
073012	14:09:33	10030	Trial2BackFr	Y	3	57	862	1	9	14:09:33	3193786	0	0	0	0	0	0	0	0	0	0	0	0	0	0	0	0	0
073012	14:09:33	10030	Trial2BackFr	N	3	0	1000	1	10	14:09:33	3195426	0	0	0	0	0	0	0	0	0	0	0	0	0	0	0	0	0
073012	14:09:33	10030	Trial2BackFr	N	3	0	1000	1	11	14:09:33	3196945	0	0	0	0	0	0	0	0	0	0	0	0	0	0	0	0	0
073012	14:09:33	10030	Trial2BackFr	N	3	0	1000	1	12	14:09:33	3198465	0	0	0	0	0	0	0	0	0	0	0	0	0	0	0	0	0
073012	14:09:33	10030	Trial2BackFr	Y	3	0	1000	0	12	14:09:33	3199984	0	0	0	0	0	0	0	0	0	0	0	0	0	0	0	0	0
073012	14:09:33	10030	Trial2BackFr	N	3	0	1000	1	13	14:09:33	3201503	0	0	0	0	0	0	0	0	0	0	0	0	0	0	0	0	0
073012	14:09:33	10030	Trial2BackFr	N	3	0	1000	1	14	14:09:33	3203023	0	0	0	0	0	0	0	0	0	0	0	0	0	0	0	0	0
073012	14:09:33	10030	Trial2BackFr	N	3	0	1000	1	15	14:09:33	3204542	0	0	0	0	0	0	0	0	0	0	0	0	0	0	0	0	0
073012	14:09:33	10030	Trial2BackFr	N	3	0	1000	1	16	14:09:33	3206061	0	0	0	0	0	0	0	0	0	0	0	0	0	0	0	0	0
073012	14:09:33	10030	Trial2BackFr	N	3	0	1000	1	17	14:09:33	3207581	0	0	0	0	0	0	0	0	0	0	0	0	0	0	0	0	0
073012	14:09:33	10030	Trial2BackFr	Y	3	0	1000	0	17	14:09:33	3209100	0	0	0	0	0	0	0	0	0	0	0	0	0	0	0	0	0
073012	14:09:33	10030	Trial2BackFr	N	3	0	1000	1	18	14:09:33	3210619	0	0	0	0	0	0	0	0	0	0	0	0	0	0	0	0	0
073012	14:09:33	10030	Trial2BackFr	N	3	0	1000	1	19	14:09:33	3212139	0	0	0	0	0	0	0	0	0	0	0	0	0	0	0	0	0
073012	14:09:33	10030	Trial2BackFr	N	3	0	1000	1	20	14:09:33	3213658	0	0	0	0	0	0	0	0	0	0	0	0	0	0	0	0	0
073012	14:09:33	10030	Trial2BackFr	N	3	0	1000	1	21	14:09:33	3215178	0	0	0	0	0	0	0	0	0	0	0	0	0	0	0	0	0
073012	14:09:33	10030	Trial2BackFr	Y	3	0	1000	0	21	14:09:33	3216697	0	0	0	0	0	0	0	0	0	0	0	0	0	0	0	0	0
073012	14:09:33	10030	Trial2BackFr	N	3	0	1000	1	22	14:09:33	3218216	0	0	0	0	0	0	0	0	0	0	0	0	0	0	0	0	0
073012	14:09:33	10030	Trial2BackFr	N	3	0	1000	1	23	14:09:33	3219736	0	0	0	0	0	0	0	0	0	0	0	0	0	0	0	0	0
073012	14:09:33	10030	Trial2BackFr	N	3	0	1000	1	24	14:09:33	3221255	0	0	0	0	0	0	0	0	0	0	0	0	0	0	0	0	0
073012	14:09:33	10030	Trial2BackFr	N	3	0	1000	1	25	14:09:33	3222774	0	0	0	0	0	0	0	0	0	0	0	0	0	0	0	0	0
073012	14:09:33	10030	Trial2BackFr	N	3	0	1000	1	26	14:09:33	3224294	0	0	0	0	0	0	0	0	0	0	0	0	0	0	0	0	0
073012	14:09:33	10030	Trial2BackFr	N	3	0	1000	1	27	14:09:33	3225813	0	0	0	0	0	0	0	0	0	0	0	0	0	0	0	0	0
073012	14:09:33	10030	Trial2BackFr	Y	3	0	1000	0	27	14:09:33	3227333	0	0	0	0	0	0	0	0	0	0	0	0	0	0	0	0	0
073012	14:09:33	10030	Trial2BackFr	N	3	0	1000	1	28	14:09:33	3228852	0	0	0	0	0	0	0	0	0	0	0	0	0	0	0	0	0
073012	14:09:33	10030	Trial2BackFr	N	3	0	1000	1	29	14:09:33	3230371	0	0	0	0	0	0	0	0	0	0	0	0	0	0	0	0	0
073012	14:09:33	10030	Trial2BackFr	N	3	0	1000	1	30	14:09:33	3231891	0	0	0	0	0	0	0	0	0	0	0	0	0	0	0	0	0
073012	14:09:33	10030	Trial2BackFr	Y	3	0	1000	0	30	14:09:33	3233410	0	0	0	0	0	0	0	0	0	0	0	0	0	0	0	0	0
073012	14:09:33	10030	Trial2BackFr	N	3	0	1000	1	31	14:09:33	3234929	0	0	0	0	0	0	0	0	0	0	0	0	0	0	0	0	0
073012	14:09:33	10030	Trial2BackFr	N	3	0	1000	1	32	14:09:33	3236449	0	0	0	0	0	0	0	0	0	0	0	0	0	0	0	0	0
073012	14:09:33	10030	Trial2BackFr	N	3	0	1000	1	33	14:09:33	3237968	0	0	0	0	0	0	0	0	0	0	0	0	0	0	0	0	0
073012	14:09:33	10030	Trial2BackFr	N	3	0	1000	1	34	14:09:33	3239488	0	0	0	0	0	0	0	0	0	0	0	0	0	0	0	0	0
073012	14:09:33	10030	Trial2BackFr	N	3	0	1000	1	35	14:09:33	3241007	0	0	0	0	0	0	0	0	0	0	0	0	0	0	0	0	0
073012	14:09:33	10030	Trial2BackFr	N	3	0	1000	1	36	14:09:33	3242526	0	0	0	0	0	0	0	0	0	0	0	0	0	0	0	0	0
073012	14:09:33	10030	Trial2BackFr	Y	3	57	862	1	37	14:09:33	3243912	0	0	0	0	0	0	0	0	0	0	0	0	0	0	0	0	0
073012	14:09:33	10030	Trial2BackFr	N	3	0	1000	1	38	14:09:33	3245552	0	0	0	0	0	0	0	0	0	0	0	0	0	0	0	0	0
073012	14:09:33	10030	Trial2BackFr	N	3	0	1000	1	39	14:09:33	3247071	0	0	0	0	0	0	0	0	0	0	0	0	0	0	0	0	0
073012	14:09:33	10030	Trial2BackFr	N	3	0	1000	1	40	14:09:33	3248590	0	0	0	0	0	0	0	0	0	0	0	0	0	0	0	0	0
073012	14:09:33	10030	Trial2BackFr	N	3	0	1000	1	41	14:09:33	3250110	0	0	0	0	0	0	0	0	0	0	0	0	0	0	0	0	0
073012	14:09:33	10030	Trial2BackFr	Y	3	0	1000	0	41	14:09:33	3251629	0	0	0	0	0	0	0	0	0	0	0	0	0	0	0	0	0
073012	14:09:33	10030	Trial2BackFr	N	3	0	1000	1	42	14:09:33	3253149	0	0	0	0	0	0	0	0	0	0	0	0	0	0	0	0	0
073012	14:09:33	10030	Trial2BackFr	N	3	0	1000	1	43	14:09:33	3254668	0	0	0	0	0	0	0	0	0	0	0	0	0	0	0	0	0
073012	14:09:33	10030	Trial2BackFr	N	3	0	1000	1	44	14:09:33	3256187	0	0	0	0	0	0	0	0	0	0	0	0	0	0	0	0	0
073012	14:09:33	10030	Trial2BackFr	N	3	0	1000	1	45	14:09:33	3257707	0	0	0	0	0	0	0	0	0	0	0	0	0	0	0	0	0
073012	14:09:33	10030	Trial2BackFr	N	3	0	1000	1	46	14:09:33	3259226	0	0	0	0	0	0	0	0	0	0	0	0	0	0	0	0	0
073012	14:09:33	10030	Trial2BackFr	Y	3	0	1000	0	46	14:09:33	3260745	0	0	0	0	0	0	0	0	0	0	0	0	0	0	0	0	0
073012	14:09:33	10030	Trial2BackFr	N	3	0	1000	1	47	14:09:33	3262265	0	0	0	0	0	0	0	0	0	0	0	0	0	0	0	0	0
073012	14:09:33	10030	Trial2BackFr	N	3	0	1000	1	48	14:09:33	3263784	0	0	0	0	0	0	0	0	0	0	0	0	0	0	0	0	0
073012	14:09:33	10030	Trial2BackFr	N	3	0	1000	1	49	14:09:33	3265303	0	0	0	0	0	0	0	0	0	0	0	0	0	0	0	0	0
073012	14:09:33	10030	Trial2BackFr	N	3	0	1000	1	50	14:09:33	3266823	0	0	0	0	0	0	0	0	0	0	0	0	0	0	0	0	0
073012	14:09:33	10030	Trial2BackFr	N	3	0	1000	1	51	14:09:33	3268342	0	0	0	0	0	0	0	0	0	0	0	0	0	0	0	0	0
073012	14:09:33	10030	Trial2BackFr	N	3	0	1000	1	52	14:09:33	3269862	0	0	0	0	0	0	0	0	0	0	0	0	0	0	0	0	0
073012	14:09:33	10030	Trial2BackFr	Y	3	57	566	1	53	14:09:33	3270955	0	0	0	0	0	0	0	0	0	0	0	0	0	0	0	0	0
073012	14:09:33	10030	Trial2BackFr	N	3	0	1000	1	54	14:09:33	3272887	0	0	0	0	0	0	0	0	0	0	0	0	0	0	0	0	0
073012	14:09:33	10030	Trial2BackFr	N	3	0	1000	1	55	14:09:33	3274446	0	0	0	0	0	0	0	0	0	0	0	0	0	0	0	0	0
073012	14:09:33	10030	Trial2BackFr	Y	3	0	1000	0	55	14:09:33	3275966	0	0	0	0	0	0	0	0	0	0	0	0	0	0	0	0	0
073012	14:09:33	10030	Trial2BackFr	N	3	0	1000	1	56	14:09:33	3277485	0	0	0	0	0	0	0	0	0	0	0	0	0	0	0	0	0
073012	14:09:33	10030	Trial2BackFr	N	3	0	1000	1	57	14:09:33	3279004	0	0	0	0	0	0	0	0	0	0	0	0	0	0	0	0	0
073012	14:09:33	10030	Trial2BackFr	N	3	0	1000	1	58	14:09:33	3280524	0	0	0	0	0	0	0	0	0	0	0	0	0	0	0	0	0
073012	14:09:33	10030	Trial2BackFr	N	3	0	1000	1	59	14:09:33	3282043	0	0	0	0	0	0	0	0	0	0	0	0	0	0	0	0	0
073012	14:09:33	10030	Trial2BackFr	N	3	0	1000	1	60	14:09:33	3283563	0	0	0	0	0	0	0	0	0	0	0	0	0	0	0	0	0
073012	14:09:33	10030	Trial2BackFr	N	3	0	1000	1	61	14:09:33	3285082	0	0	0	0	0	0	0	0	0	0	0	0	0	0	0	0	0
073012	14:09:33	10030	Trial2BackFr	N	3	0	1000	1	62	14:09:33	3286601	0	0	0	0	0	0	0	0	0	0	0	0	0	0	0	0	0
073012	14:09:33	10030	Trial2BackFr	N	3	0	1000	1	63	14:09:33	3288121	0	0	0	0	0	0	0	0	0	0	0	0	0	0	0	0	0
073012	14:09:33	10030	Trial2BackFr	N	3	0	1000	1	64	14:09:33	3289640	0	0	0	0	0	0	0	0	0	0	0	0	0	0	0	0	0
073012	14:09:33	10030	Trial2BackFr	N	3	0	1000	1	65	14:09:33	3291159	0	0	0	0	0	0	0	0	0	0	0	0	0	0	0	0	0
073012	14:09:33	10030	Trial2BackFr	Y	3	0	1000	0	65	14:09:33	3292679	0	0	0	0	0	0	0	0	0	0	0	0	0	0	0	0	0
073012	14:09:33	10030	Trial2BackFr	N	3	0	1000	1	66	14:09:33	3294198	0	0	0	0	0	0	0	0	0	0	0	0	0	0	0	0	0
073012	14:09:33	10030	Trial2BackFr	N	3	0	1000	1	67	14:09:33	3295718	0	0	0	0	0	0	0	0	0	0	0	0	0	0	0	0	0
073012	14:09:33	10030	Trial2BackFr	N	3	0	1000	1	68	14:09:33	3297237	0	0	0	0	0	0	0	0	0	0	0	0	0	0	0	0	0
073012	14:09:33	10030	Trial2BackFr	Y	3	57	662	1	69	14:09:33	3298423	0	0	0	0	0	0	0	0	0	0	0	0	0	0	0	0	0
073012	14:09:33	10030	Trial2BackFr	N	3	0	1000	1	70	14:09:33	3300262	0	0	0	0	0	0	0	0	0	0	0	0	0	0	0	0	0
073012	14:09:33	10030	Trial2BackFr	N	3	0	1000	1	71	14:09:33	3301782	0	0	0	0	0	0	0	0	0	0	0	0	0	0	0	0	0
073012	14:09:33	10030	Trial2BackFr	N	3	0	1000	1	72	14:09:33	3303301	0	0	0	0	0	0	0	0	0	0	0	0	0	0	0	0	0
073012	14:09:33	10030	Trial2BackFr	N	3	0	1000	1	73	14:09:33	3304820	0	0	0	0	0	0	0	0	0	0	0	0	0	0	0	0	0
073012	14:09:33	10030	Trial2BackFr	N	3	0	1000	1	74	14:09:33	3306340	0	0	0	0	0	0	0	0	0	0	0	0	0	0	0	0	0
073012	14:09:33	10030	Trial2BackFr	Y	3	57	679	1	75	14:09:33	3307553	0	0	0	0	0	0	0	0	0	0	0	0	0	0	0	0	0
073012	14:09:33	10030	Trial2BackFr	N	3	0	1000	1	76	14:09:33	3309365	0	0	0	0	0	0	0	0	0	0	0	0	0	0	0	0	0
073012	14:09:33	10030	Trial2BackFr	N	3	0	1000	1	77	14:09:33	3310885	0	0	0	0	0	0	0	0	0	0	0	0	0	0	0	0	0
073012	14:09:33	10030	Trial2BackFr	N	3	0	1000	1	78	14:09:33	3312404	0	0	0	0	0	0	0	0	0	0	0	0	0	0	0	0	0
073012	14:09:33	10030	Trial2BackFr	N	3	0	1000	1	79	14:09:33	3313923	0	0	0	0	0	0	0	0	0	0	0	0	0	0	0	0	0
073012	14:09:33	10030	Trial2BackFr	N	3	0	1000	1	80	14:09:33	3315443	0	0	0	0	0	0	0	0	0	0	0	0	0	0	0	0	0
073012	14:09:33	10030	Trial2BackFr	N	3	0	1000	1	81	14:09:33	3316962	0	0	0	0	0	0	0	0	0	0	0	0	0	0	0	0	0
073012	14:09:33	10030	Trial2BackFr	N	3	0	1000	1	82	14:09:33	3318481	0	0	0	0	0	0	0	0	0	0	0	0	0	0	0	0	0
073012	14:09:33	10030	Trial2BackFr	N	3	0	1000	1	83	14:09:33	3320001	0	0	0	0	0	0	0	0	0	0	0	0	0	0	0	0	0
073012	14:09:33	10030	Trial2BackFr	N	3	0	1000	1	84	14:09:33	3321520	0	0	0	0	0	0	0	0	0	0	0	0	0	0	0	0	0
073012	14:09:33	10030	Trial2BackFr	Y	3	57	874	1	85	14:09:33	3322919	0	0	0	0	0	0	0	0	0	0	0	0	0	0	0	0	0
073012	14:09:33	10030	Trial2BackFr	N	3	0	1000	1	86	14:09:33	3324546	0	0	0	0	0	0	0	0	0	0	0	0	0	0	0	0	0
073012	14:09:33	10030	Trial2BackFr	N	3	0	1000	1	87	14:09:33	3326065	0	0	0	0	0	0	0	0	0	0	0	0	0	0	0	0	0
073012	14:09:33	10030	Trial2BackFr	N	3	0	1000	1	88	14:09:33	3327584	0	0	0	0	0	0	0	0	0	0	0	0	0	0	0	0	0
073012	14:09:33	10030	Trial2BackFr	N	3	0	1000	1	89	14:09:33	3329104	0	0	0	0	0	0	0	0	0	0	0	0	0	0	0	0	0
073012	14:09:33	10030	Trial2BackFr	N	3	0	1000	1	90	14:09:33	3330623	0	0	0	0	0	0	0	0	0	0	0	0	0	0	0	0	0
073012	14:09:33	10030	Trial2BackFr	N	3	0	1000	1	91	14:09:33	3332142	0	0	0	0	0	0	0	0	0	0	0	0	0	0	0	0	0
073012	14:09:33	10030	Trial2BackFr	N	3	0	1000	1	92	14:09:33	3333662	0	0	0	0	0	0	0	0	0	0	0	0	0	0	0	0	0
073012	14:09:33	10030	Trial2BackFr	N	3	0	1000	1	93	14:09:33	3335181	0	0	0	0	0	0	0	0	0	0	0	0	0	0	0	0	0
073012	14:09:33	10030	Trial2BackFr	Y	3	0	1000	0	93	14:09:33	3336701	0	0	0	0	0	0	0	0	0	0	0	0	0	0	0	0	0
073012	14:09:33	10030	Trial2BackFr	N	3	0	1000	1	94	14:09:33	3338220	0	0	0	0	0	0	0	0	0	0	0	0	0	0	0	0	0
073012	14:09:33	10030	Trial2BackFr	N	3	0	1000	1	95	14:09:33	3339739	0	0	0	0	0	0	0	0	0	0	0	0	0	0	0	0	0
073012	14:09:33	10030	Trial2BackFr	N	3	0	1000	1	96	14:09:33	3341259	0	0	0	0	0	0	0	0	0	0	0	0	0	0	0	0	0
073012	14:09:33	10030	Trial2BackFr	N	3	0	1000	1	97	14:09:33	3342778	0	0	0	0	0	0	0	0	0	0	0	0	0	0	0	0	0
073012	14:09:33	10030	Trial2BackFr	Y	3	57	575	1	98	14:09:33	3343884	0	0	0	0	0	0	0	0	0	0	0	0	0	0	0	0	0
073012	14:09:33	10030	Trial2BackFr	N	3	0	1000	1	99	14:09:33	3345804	0	0	0	0	0	0	0	0	0	0	0	0	0	0	0	0	0
073012	14:09:33	10030	Trial2BackFr	N	3	0	1000	1	100	14:09:33	3347323	0	0	0	0	0	0	0	0	0	0	0	0	0	0	0	0	0
073012	14:09:33	10030	Trial2BackFr	N	3	0	1000	1	101	14:09:33	3348842	0	0	0	0	0	0	0	0	0	0	0	0	0	0	0	0	0
073012	14:09:33	10030	Trial2BackFr	Y	3	57	895	1	102	14:09:33	3350268	0	0	0	0	0	0	0	0	0	0	0	0	0	0	0	0	0
073012	14:09:33	10030	Trial2BackFr	N	3	0	1000	1	103	14:09:33	3351868	0	0	0	0	0	0	0	0	0	0	0	0	0	0	0	0	0
073012	14:09:33	10030	Trial2BackFr	N	3	0	1000	1	104	14:09:33	3353387	0	0	0	0	0	0	0	0	0	0	0	0	0	0	0	0	0
073012	14:09:33	10030	Trial2BackFr	N	3	0	1000	1	105	14:09:33	3354906	0	0	0	0	0	0	0	0	0	0	0	0	0	0	0	0	0
073012	14:09:33	10030	Trial2BackFr	N	3	0	1000	1	106	14:09:33	3356426	0	0	0	0	0	0	0	0	0	0	0	0	0	0	0	0	0
073012	14:09:33	10030	Trial2BackFr	N	3	0	1000	1	107	14:09:33	3357945	0	0	0	0	0	0	0	0	0	0	0	0	0	0	0	0	0
073012	14:09:33	10030	Trial2BackFr	Y	3	57	592	1	108	14:09:33	3359064	0	0	0	0	0	0	0	0	0	0	0	0	0	0	0	0	0
073012	14:09:33	10030	Trial2BackFr	N	3	0	1000	1	109	14:09:33	3360970	0	0	0	0	0	0	0	0	0	0	0	0	0	0	0	0	0
073012	14:09:33	10030	Trial2BackFr	N	3	0	1000	1	110	14:09:33	3362490	0	0	0	0	0	0	0	0	0	0	0	0	0	0	0	0	0
073012	14:09:33	10030	Trial2BackFr	N	3	0	1000	1	111	14:09:33	3364009	0	0	0	0	0	0	0	0	0	0	0	0	0	0	0	0	0
073012	14:09:33	10030	Trial2BackFr	Y	3	0	1000	0	111	14:09:33	3365529	0	0	0	0	0	0	0	0	0	0	0	0	0	0	0	0	0
073012	14:09:33	10030	Memory1RBaselineFr	ScoreFr	5	M1	25766	0	111	14:09:33	3448108	0	0	0	0	0	0	0	0	0	0	0	0	0	0	0	0	0
073012	14:09:33	10030	Memory1RBaselineFr	ScoreFr	5	M2	260	0	111	14:09:33	3448414	0	0	0	0	0	0	0	0	0	0	0	0	0	0	0	0	0
073012	14:09:33	10030	Memory1RBaselineFr	ScoreFr	5	M4	330	0	111	14:09:33	3448788	0	0	0	0	0	0	0	0	0	0	0	0	0	0	0	0	0
073012	14:09:33	10030	Memory1RBaselineFr	ScoreFr	5	M3	373	0	111	14:09:33	3449201	0	0	0	0	0	0	0	0	0	0	0	0	0	0	0	0	0
073012	14:09:33	10030	Memory1RBaselineFr	ScoreFr	5	M5	344	0	111	14:09:33	3449587	0	0	0	0	0	0	0	0	0	0	0	0	0	0	0	0	0
073012	14:09:33	10030	Memory1RBaselineFr	ScoreFr	5	M6	693	0	111	14:09:33	3450320	0	0	0	0	0	0	0	0	0	0	0	0	0	0	0	0	0
073012	14:09:33	10030	Memory1RBaselineFr	ScoreFr	5	M7	240	0	111	14:09:33	3450600	0	0	0	0	0	0	0	0	0	0	0	0	0	0	0	0	0
073012	14:09:33	10030	Memory1RBaselineFr	ScoreFr	5	Done	792	0	111	14:09:33	3451426	0	0	0	0	0	0	0	0	0	0	0	0	0	0	0	0	0
073012	14:09:33	10030	Memory2RBaselineFr	ScoreFr2	5	11	44387	0	111	14:09:33	3514161	0	0	0	0	0	0	0	0	0	0	0	0	0	0	0	0	0
073012	14:09:33	10030	Memory2RBaselineFr	ScoreFr2	5	22	806	0	111	14:09:33	3515000	0	0	0	0	0	0	0	0	0	0	0	0	0	0	0	0	0
073012	14:09:33	10030	Memory2RBaselineFr	ScoreFr2	5	33	309	0	111	14:09:33	3515347	0	0	0	0	0	0	0	0	0	0	0	0	0	0	0	0	0
073012	14:09:33	10030	Memory2RBaselineFr	ScoreFr2	5	44	547	0	111	14:09:33	3515933	0	0	0	0	0	0	0	0	0	0	0	0	0	0	0	0	0
073012	14:09:33	10030	Memory2RBaselineFr	ScoreFr2	5	66	553	0	111	14:09:33	3516533	0	0	0	0	0	0	0	0	0	0	0	0	0	0	0	0	0
073012	14:09:33	10030	Memory2RBaselineFr	ScoreFr2	5	88	441	0	111	14:09:33	3517013	0	0	0	0	0	0	0	0	0	0	0	0	0	0	0	0	0
073012	14:09:33	10030	Memory2RBaselineFr	ScoreFr2	5	Done	633	0	111	14:09:33	3517692	0	0	0	0	0	0	0	0	0	0	0	0	0	0	0	0	0
073012	14:09:33	10030	Memory3RBaselineFr	ScoreFr3	5	111	47054	0	111	14:09:33	3582825	0	0	0	0	0	0	0	0	0	0	0	0	0	0	0	0	0
073012	14:09:33	10030	Memory3RBaselineFr	ScoreFr3	5	222	362	0	111	14:09:33	3583225	0	0	0	0	0	0	0	0	0	0	0	0	0	0	0	0	0
073012	14:09:33	10030	Memory3RBaselineFr	ScoreFr3	5	444	426	0	111	14:09:33	3583692	0	0	0	0	0	0	0	0	0	0	0	0	0	0	0	0	0
073012	14:09:33	10030	Memory3RBaselineFr	ScoreFr3	5	555	288	0	111	14:09:33	3584025	0	0	0	0	0	0	0	0	0	0	0	0	0	0	0	0	0
073012	14:09:33	10030	Memory3RBaselineFr	ScoreFr3	5	666	1123	0	111	14:09:33	3585184	0	0	0	0	0	0	0	0	0	0	0	0	0	0	0	0	0
073012	14:09:33	10030	Memory3RBaselineFr	ScoreFr3	5	888	627	0	111	14:09:33	3585851	0	0	0	0	0	0	0	0	0	0	0	0	0	0	0	0	0
073012	14:09:33	10030	Memory3RBaselineFr	ScoreFr3	5	Done	473	0	111	14:09:33	3586370	0	0	0	0	0	0	0	0	0	0	0	0	0	0	0	0	0
073012	14:09:33	10030	LoriaFrLH3	Stop	6	4	6434	0	111	14:09:33	3707869	0	0	0	0	0	0	0	0	0	0	0	0	0	0	0	0	0
073012	14:09:33	10030	FrTrail	Trails	7	1Trails	1491	0	111	14:09:33	3773800	0	0	0	0	0	0	0	0	0	0	0	0	0	0	0	0	0
073012	14:09:33	10030	Serial7FrBaseline	Serial7FrBaseline	8	83	3910	0	111	14:09:33	3855273	1	0	0	0	0	0	0	0	0	0	0	0	0	0	0	0	0
073012	14:09:33	10030	Serial7FrBaseline	Serial7FrBaseline	8	74	2037	0	111	14:09:33	3857339	1	0	0	0	0	0	0	0	0	0	0	0	0	0	0	0	0
073012	14:09:33	10030	Serial7FrBaseline	Serial7FrBaseline	8	69	3124	0	111	14:09:33	3860484	1	0	0	0	0	0	0	0	0	0	0	0	0	0	0	0	0
073012	14:09:33	10030	Serial7FrBaseline	Serial7FrBaseline	8	62	1774	0	111	14:09:33	3862284	2	0	0	0	0	0	0	0	0	0	0	0	0	0	0	0	0
073012	14:09:33	10030	Serial7FrBaseline	Serial7FrBaseline	8	55	2003	0	111	14:09:33	3864310	3	0	0	0	0	0	0	0	0	0	0	0	0	0	0	0	0
073012	14:09:33	10030	corsiblockFrFwrd	recallseqFrFwrd	9	1	8212	0	111	14:09:33	3942438	3	0	0	0	0	0	0	0	0	0	0	0	0	0	0	0	0
073012	14:09:33	10030	corsiblockFrFwrd	recallseqFrFwrd	9	6	2739	0	111	14:09:33	3945210	3	0	0	0	0	0	0	0	0	0	0	0	0	0	0	0	0
073012	14:09:33	10030	corsiblockFrFwrd	recallseqFrFwrd	9	doneCorsiFr	2815	0	111	14:09:33	3948062	3	0	0	0	0	0	0	0	0	0	0	0	0	0	0	2	0
073012	14:09:33	10030	corsiblockFrFwrd	recallseqFrFwrd	9	8	1439	0	111	14:09:33	3955592	3	0	0	0	0	0	0	0	0	0	0	0	0	0	0	2	0
073012	14:09:33	10030	corsiblockFrFwrd	recallseqFrFwrd	9	5	1288	0	111	14:09:33	3956925	3	0	0	0	0	0	0	0	0	0	0	0	0	0	0	2	0
073012	14:09:33	10030	corsiblockFrFwrd	recallseqFrFwrd	9	2	1091	0	111	14:09:33	3958058	3	0	0	0	0	0	0	0	0	0	0	0	0	0	0	2	0
073012	14:09:33	10030	corsiblockFrFwrd	recallseqFrFwrd	9	doneCorsiFr	1518	0	111	14:09:33	3959617	3	0	0	0	0	0	0	0	0	0	0	0	0	0	0	3	0
073012	14:09:33	10030	corsiblockFrFwrd	recallseqFrFwrd	9	4	1452	0	111	14:09:33	3968160	3	0	0	0	0	0	0	0	0	0	0	0	0	0	0	3	0
073012	14:09:33	10030	corsiblockFrFwrd	recallseqFrFwrd	9	7	1167	0	111	14:09:33	3969373	3	0	0	0	0	0	0	0	0	0	0	0	0	0	0	3	0
073012	14:09:33	10030	corsiblockFrFwrd	recallseqFrFwrd	9	9	779	0	111	14:09:33	3970186	3	0	0	0	0	0	0	0	0	0	0	0	0	0	0	3	0
073012	14:09:33	10030	corsiblockFrFwrd	recallseqFrFwrd	9	3	1422	0	111	14:09:33	3971652	3	0	0	0	0	0	0	0	0	0	0	0	0	0	0	3	0
073012	14:09:33	10030	corsiblockFrFwrd	recallseqFrFwrd	9	doneCorsiFr	2611	0	111	14:09:33	3974304	3	0	0	0	0	0	0	0	0	0	0	0	0	0	0	4	0
073012	14:09:33	10030	corsiblockFrFwrd	recallseqFrFwrd	9	6	1349	0	111	14:09:33	3983741	3	0	0	0	0	0	0	0	0	0	0	0	0	0	0	4	0
073012	14:09:33	10030	corsiblockFrFwrd	recallseqFrFwrd	9	5	1075	0	111	14:09:33	3984860	3	0	0	0	0	0	0	0	0	0	0	0	0	0	0	4	0
073012	14:09:33	10030	corsiblockFrFwrd	recallseqFrFwrd	9	2	1163	0	111	14:09:33	3986060	3	0	0	0	0	0	0	0	0	0	0	0	0	0	0	4	0
073012	14:09:33	10030	corsiblockFrFwrd	recallseqFrFwrd	9	9	908	0	111	14:09:33	3987006	3	0	0	0	0	0	0	0	0	0	0	0	0	0	0	4	0
073012	14:09:33	10030	corsiblockFrFwrd	recallseqFrFwrd	9	8	1153	0	111	14:09:33	3988192	3	0	0	0	0	0	0	0	0	0	0	0	0	0	0	4	0
073012	14:09:33	10030	corsiblockFrFwrd	recallseqFrFwrd	9	doneCorsiFr	1575	0	111	14:09:33	3989805	3	0	0	0	0	0	0	0	0	0	0	0	0	0	0	4	0
073012	14:09:33	10030	corsiblockFrFwrd	recallseqFrFwrd	9	3	2064	0	111	14:09:33	3999920	3	0	0	0	0	0	0	0	0	0	0	0	0	0	0	4	0
073012	14:09:33	10030	corsiblockFrFwrd	recallseqFrFwrd	9	1	990	0	111	14:09:33	4000947	3	0	0	0	0	0	0	0	0	0	0	0	0	0	0	4	0
073012	14:09:33	10030	corsiblockFrFwrd	recallseqFrFwrd	9	4	1284	0	111	14:09:33	4002266	3	0	0	0	0	0	0	0	0	0	0	0	0	0	0	4	0
073012	14:09:33	10030	corsiblockFrFwrd	recallseqFrFwrd	9	7	1301	0	111	14:09:33	4003612	3	0	0	0	0	0	0	0	0	0	0	0	0	0	0	4	0
073012	14:09:33	10030	corsiblockFrFwrd	recallseqFrFwrd	9	4	1003	0	111	14:09:33	4004652	3	0	0	0	0	0	0	0	0	0	0	0	0	0	0	4	0
073012	14:09:33	10030	corsiblockFrFwrd	recallseqFrFwrd	9	doneCorsiFr	1083	0	111	14:09:33	4005771	3	0	0	0	0	0	0	0	0	0	0	0	0	0	0	5	0
073012	14:09:33	10030	corsiblockFrFwrd	recallseqFrFwrd	9	4	2489	0	111	14:09:33	4016354	3	0	0	0	0	0	0	0	0	0	0	0	0	0	0	5	0
073012	14:09:33	10030	corsiblockFrFwrd	recallseqFrFwrd	9	3	1157	0	111	14:09:33	4017553	3	0	0	0	0	0	0	0	0	0	0	0	0	0	0	5	0
073012	14:09:33	10030	corsiblockFrFwrd	recallseqFrFwrd	9	2	1357	0	111	14:09:33	4018953	3	0	0	0	0	0	0	0	0	0	0	0	0	0	0	5	0
073012	14:09:33	10030	corsiblockFrFwrd	recallseqFrFwrd	9	7	893	0	111	14:09:33	4019886	3	0	0	0	0	0	0	0	0	0	0	0	0	0	0	5	0
073012	14:09:33	10030	corsiblockFrFwrd	recallseqFrFwrd	9	9	776	0	111	14:09:33	4020699	3	0	0	0	0	0	0	0	0	0	0	0	0	0	0	5	0
073012	14:09:33	10030	corsiblockFrFwrd	recallseqFrFwrd	9	8	956	0	111	14:09:33	4021698	3	0	0	0	0	0	0	0	0	0	0	0	0	0	0	5	0
073012	14:09:33	10030	corsiblockFrFwrd	recallseqFrFwrd	9	doneCorsiFr	1244	0	111	14:09:33	4022978	3	0	0	0	0	0	0	0	0	0	0	0	0	0	0	5	0
073012	14:09:33	10030	corsiblockFrFwrd	recallseqFrFwrd	9	6	1651	0	111	14:09:33	4033680	3	0	0	0	0	0	0	0	0	0	0	0	0	0	0	5	0
073012	14:09:33	10030	corsiblockFrFwrd	recallseqFrFwrd	9	1	1150	0	111	14:09:33	4034866	3	0	0	0	0	0	0	0	0	0	0	0	0	0	0	5	0
073012	14:09:33	10030	corsiblockFrFwrd	recallseqFrFwrd	9	4	1524	0	111	14:09:33	4036425	3	0	0	0	0	0	0	0	0	0	0	0	0	0	0	5	0
073012	14:09:33	10030	corsiblockFrFwrd	recallseqFrFwrd	9	9	1116	0	111	14:09:33	4037585	3	0	0	0	0	0	0	0	0	0	0	0	0	0	0	5	0
073012	14:09:33	10030	corsiblockFrFwrd	recallseqFrFwrd	9	2	1005	0	111	14:09:33	4038624	3	0	0	0	0	0	0	0	0	0	0	0	0	0	0	5	0
073012	14:09:33	10030	corsiblockFrFwrd	recallseqFrFwrd	9	3	1117	0	111	14:09:33	4039784	3	0	0	0	0	0	0	0	0	0	0	0	0	0	0	5	0
073012	14:09:33	10030	corsiblockFrFwrd	recallseqFrFwrd	9	doneCorsiFr	1662	0	111	14:09:33	4041490	3	0	0	0	0	0	0	0	0	0	0	0	0	0	0	5	0
073012	14:09:33	10030	corsiblockFrRev	recallseqFrRev	10	3	1643	0	111	14:09:33	4062002	3	0	0	0	0	0	0	0	0	0	0	0	0	0	0	5	0
073012	14:09:33	10030	corsiblockFrRev	recallseqFrRev	10	4	1171	0	111	14:09:33	4063214	3	0	0	0	0	0	0	0	0	0	0	0	0	0	0	5	0
073012	14:09:33	10030	corsiblockFrRev	recallseqFrRev	10	doneCorsiFr	1070	0	111	14:09:33	4064321	3	0	0	0	0	0	0	0	0	0	0	0	0	0	0	5	2
073012	14:09:33	10030	corsiblockFrRev	recallseqFrRev	10	8	1281	0	111	14:09:33	4071691	3	0	0	0	0	0	0	0	0	0	0	0	0	0	0	5	2
073012	14:09:33	10030	corsiblockFrRev	recallseqFrRev	10	9	850	0	111	14:09:33	4072584	3	0	0	0	0	0	0	0	0	0	0	0	0	0	0	5	2
073012	14:09:33	10030	corsiblockFrRev	recallseqFrRev	10	5	1210	0	111	14:09:33	4073863	3	0	0	0	0	0	0	0	0	0	0	0	0	0	0	5	2
073012	14:09:33	10030	corsiblockFrRev	recallseqFrRev	10	doneCorsiFr	1237	0	111	14:09:33	4075143	3	0	0	0	0	0	0	0	0	0	0	0	0	0	0	5	3
073012	14:09:33	10030	corsiblockFrRev	recallseqFrRev	10	2	1115	0	111	14:09:33	4083353	3	0	0	0	0	0	0	0	0	0	0	0	0	0	0	5	3
073012	14:09:33	10030	corsiblockFrRev	recallseqFrRev	10	6	915	0	111	14:09:33	4084312	3	0	0	0	0	0	0	0	0	0	0	0	0	0	0	5	3
073012	14:09:33	10030	corsiblockFrRev	recallseqFrRev	10	7	1156	0	111	14:09:33	4085512	3	0	0	0	0	0	0	0	0	0	0	0	0	0	0	5	3
073012	14:09:33	10030	corsiblockFrRev	recallseqFrRev	10	1	916	0	111	14:09:33	4086471	3	0	0	0	0	0	0	0	0	0	0	0	0	0	0	5	3
073012	14:09:33	10030	corsiblockFrRev	recallseqFrRev	10	doneCorsiFr	1525	0	111	14:09:33	4088031	3	0	0	0	0	0	0	0	0	0	0	0	0	0	0	5	4
073012	14:09:33	10030	corsiblockFrRev	recallseqFrRev	10	4	1331	0	111	14:09:33	4097453	3	0	0	0	0	0	0	0	0	0	0	0	0	0	0	5	4
073012	14:09:33	10030	corsiblockFrRev	recallseqFrRev	10	2	782	0	111	14:09:33	4098280	3	0	0	0	0	0	0	0	0	0	0	0	0	0	0	5	4
073012	14:09:33	10030	corsiblockFrRev	recallseqFrRev	10	8	1300	0	111	14:09:33	4099613	3	0	0	0	0	0	0	0	0	0	0	0	0	0	0	5	4
073012	14:09:33	10030	corsiblockFrRev	recallseqFrRev	10	5	678	0	111	14:09:33	4100332	3	0	0	0	0	0	0	0	0	0	0	0	0	0	0	5	4
073012	14:09:33	10030	corsiblockFrRev	recallseqFrRev	10	6	831	0	111	14:09:33	4101199	3	0	0	0	0	0	0	0	0	0	0	0	0	0	0	5	4
073012	14:09:33	10030	corsiblockFrRev	recallseqFrRev	10	doneCorsiFr	1549	0	111	14:09:33	4102785	3	0	0	0	0	0	0	0	0	0	0	0	0	0	0	5	4
073012	14:09:33	10030	corsiblockFrRev	recallseqFrRev	10	7	1409	0	111	14:09:33	4112247	3	0	0	0	0	0	0	0	0	0	0	0	0	0	0	5	4
073012	14:09:33	10030	corsiblockFrRev	recallseqFrRev	10	3	2988	0	111	14:09:33	4115273	3	0	0	0	0	0	0	0	0	0	0	0	0	0	0	5	4
073012	14:09:33	10030	corsiblockFrRev	recallseqFrRev	10	9	1075	0	111	14:09:33	4116393	3	0	0	0	0	0	0	0	0	0	0	0	0	0	0	5	4
073012	14:09:33	10030	corsiblockFrRev	recallseqFrRev	10	1	699	0	111	14:09:33	4117125	3	0	0	0	0	0	0	0	0	0	0	0	0	0	0	5	4
073012	14:09:33	10030	corsiblockFrRev	recallseqFrRev	10	8	1110	0	111	14:09:33	4118272	3	0	0	0	0	0	0	0	0	0	0	0	0	0	0	5	4
073012	14:09:33	10030	corsiblockFrRev	recallseqFrRev	10	doneCorsiFr	947	0	111	14:09:33	4119258	3	0	0	0	0	0	0	0	0	0	0	0	0	0	0	5	4
073012	14:09:33	10030	testFrBaseline	WordsFrBaseline	11	1FrBaseline	41684	0	111	14:09:33	4173862	3	1	0	0	0	0	0	0	0	0	0	0	0	0	0	5	4
073012	14:09:33	10030	testFrBaseline	WordsFrBaseline	11	3FrBaseline	1771	0	111	14:09:33	4175675	3	1	0	1	0	0	0	0	0	0	0	0	0	0	0	5	4
073012	14:09:33	10030	testFrBaseline	WordsFrBaseline	11	5FrBaseline	831	0	111	14:09:33	4176541	3	1	0	1	0	1	0	0	0	0	0	0	0	0	0	5	4
073012	14:09:33	10030	testFrBaseline	WordsFrBaseline	11	7FrBaseline	285	0	111	14:09:33	4176861	3	1	0	1	0	1	0	1	0	0	0	0	0	0	0	5	4
073012	14:09:33	10030	testFrBaseline	WordsFrBaseline	11	7FrBaseline	797	0	111	14:09:33	4177700	3	1	0	1	0	1	0	1	0	0	0	0	0	0	0	5	4
073012	14:09:33	10030	testFrBaseline	WordsFrBaseline	11	6FrBaseline	709	0	111	14:09:33	4178447	3	1	0	1	0	1	1	1	0	0	0	0	0	0	0	5	4
073012	14:09:33	10030	testFrBaseline	WordsFrBaseline	11	8FrBaseline	483	0	111	14:09:33	4178967	3	1	0	1	0	1	1	1	1	0	0	0	0	0	0	5	4
073012	14:09:33	10030	testFrBaseline	WordsFrBaseline	11	2FrBaseline	5778	0	111	14:09:33	4184791	3	1	1	1	0	1	1	1	1	0	0	0	0	0	0	5	4
073012	14:09:33	10030	testFrBaseline	WordsFrBaseline	11	7FrBaseline	2234	0	111	14:09:33	4187070	3	1	1	1	0	1	1	1	1	0	0	0	0	0	0	5	4
073012	14:09:33	10030	testFrBaseline	WordsFrBaseline	11	6FrBaseline	443	0	111	14:09:33	4187550	3	1	1	1	0	1	1	1	1	0	0	0	0	0	0	5	4
073012	14:09:33	10030	testFrBaseline	WordsFrBaseline	11	DoneFrBaseline	16931	0	111	14:09:33	4204516	3	1	1	1	0	1	1	1	1	0	0	0	0	0	0	5	4
073012	14:09:33	10030	testFrBaseline	Cat4FrBaseline	11	0	1	0	111	14:09:33	4204535	3	1	1	1	0	1	1	1	1	0	0	0	0	0	0	5	4
073012	14:09:33	10030	testFrBaseline	Ch4FrBaseline	11	RR4FrBaseline	5040	0	111	14:09:33	4209607	3	1	1	1	3	1	1	1	1	0	0	0	0	0	0	5	4
073012	14:09:33	10030	testFrBaseline	Cat6FrBaseline	11	W6FrBaseline	13777	0	111	14:09:33	4223428	3	1	1	1	3	1	1	1	1	0	0	0	0	0	0	5	4
073012	14:09:33	10030	testFrBaseline	Ch6FrBaseline	11	RR6FrBaseline	7300	0	111	14:09:33	4230771	3	1	1	1	3	1	3	1	1	0	0	0	0	0	0	5	4
073012	14:09:33	10030	DigitSpanFwrdFrBaseline	Score1FwrdFrBaseline	12	DS1	5736	0	111	14:09:33	4255001	3	1	1	1	3	1	3	1	1	0	0	0	0	0	0	5	4
073012	14:09:33	10030	DigitSpanFwrdFrBaseline	Gate1FwrdFrBaseline	12	0	1	0	111	14:09:33	4255017	3	1	1	1	3	1	3	1	1	3	0	0	0	0	0	5	4
073012	14:09:33	10030	DigitSpanFwrdFrBaseline	Score2FwrdFrBaseline	12	DS1	7563	0	111	14:09:33	4268769	3	1	1	1	3	1	3	1	1	3	0	0	0	0	0	5	4
073012	14:09:33	10030	DigitSpanFwrdFrBaseline	Gate3FwrdFrBaseline	12	0	1	0	111	14:09:33	4268784	3	1	1	1	3	1	3	1	1	4	0	0	0	0	0	5	4
073012	14:09:33	10030	DigitSpanFwrdFrBaseline	Score3FwrdFrBaseline	12	DS1	6283	0	111	14:09:33	4282017	3	1	1	1	3	1	3	1	1	4	0	0	0	0	0	5	4
073012	14:09:33	10030	DigitSpanFwrdFrBaseline	Gate5FwrdFrBaseline	12	0	1	0	111	14:09:33	4282032	3	1	1	1	3	1	3	1	1	5	0	0	0	0	0	5	4
073012	14:09:33	10030	DigitSpanFwrdFrBaseline	Score4FwrdFrBaseline	12	DS2	10230	0	111	14:09:33	4300782	3	1	1	1	3	1	3	1	1	5	0	0	0	0	0	5	4
073012	14:09:33	10030	DigitSpanFwrdFrBaseline	Gate7FwrdFrBaseline	12	0	1	0	111	14:09:33	4300798	3	1	1	1	3	1	3	1	1	5	0	0	0	0	0	5	4
073012	14:09:33	10030	DigitSpanFwrdFrBaseline	Score44FwrdFrBaseline	12	DS2	9242	0	111	14:09:33	4318375	3	1	1	1	3	1	3	1	1	5	0	0	0	0	0	5	4
073012	14:09:33	10030	DigitSpanFrBaseline	Score1FrBaseline	13	DS1	4460	0	111	14:09:33	4341032	3	1	1	1	3	1	3	1	1	5	0	0	0	0	0	5	4
073012	14:09:33	10030	DigitSpanFrBaseline	Gate1FrBaseline	13	0	1	0	111	14:09:33	4341047	3	1	1	1	3	1	3	1	1	5	2	0	0	0	0	5	4
073012	14:09:33	10030	DigitSpanFrBaseline	Score2FrBaseline	13	DS1	4923	0	111	14:09:33	4350455	3	1	1	1	3	1	3	1	1	5	2	0	0	0	0	5	4
073012	14:09:33	10030	DigitSpanFrBaseline	Gate3FrBaseline	13	0	1	0	111	14:09:33	4350470	3	1	1	1	3	1	3	1	1	5	3	0	0	0	0	5	4
073012	14:09:33	10030	DigitSpanFrBaseline	Score3FrBaseline	13	DS1	4610	0	111	14:09:33	4360797	3	1	1	1	3	1	3	1	1	5	3	0	0	0	0	5	4
073012	14:09:33	10030	DigitSpanFrBaseline	Gate5FrBaseline	13	0	1	0	111	14:09:33	4360813	3	1	1	1	3	1	3	1	1	5	4	0	0	0	0	5	4
073012	14:09:33	10030	DigitSpanFrBaseline	Score4FrBaseline	13	DS2	5769	0	111	14:09:33	4373845	3	1	1	1	3	1	3	1	1	5	4	0	0	0	0	5	4
073012	14:09:33	10030	DigitSpanFrBaseline	Gate7FrBaseline	13	0	1	0	111	14:09:33	4373860	3	1	1	1	3	1	3	1	1	5	4	0	0	0	0	5	4
073012	14:09:33	10030	DigitSpanFrBaseline	Score44FrBaseline	13	DS2	8771	0	111	14:09:33	4389865	3	1	1	1	3	1	3	1	1	5	4	0	0	0	0	5	4
073012	14:09:33	10030	Trial	IncongruentRight	14	0	737	0	111	14:09:33	4439778	3	1	1	1	3	1	3	1	1	5	4	0	0	0	0	5	4
073012	14:09:33	10030	Trial	IncongruentLeft	14	0	737	0	111	14:09:33	4440791	3	1	1	1	3	1	3	1	1	5	4	0	0	0	0	5	4
073012	14:09:33	10030	Trial	CongruentRight	14	205	651	1	111	14:09:33	4441724	3	1	1	1	3	1	3	1	1	5	4	0	0	0	0	5	4
073012	14:09:33	10030	Trial	IncongruentRight	14	0	737	0	111	14:09:33	4442803	3	1	1	1	3	1	3	1	1	5	4	0	0	0	0	5	4
073012	14:09:33	10030	Trial	CongruentLeft	14	203	655	1	111	14:09:33	4443736	3	1	1	1	3	1	3	1	1	5	4	0	0	0	0	5	4
073012	14:09:33	10030	Trial	CongruentRight	14	0	737	0	111	14:09:33	4444815	3	1	1	1	3	1	3	1	1	5	4	0	0	0	0	5	4
073012	14:09:33	10030	Trial	IncongruentRight	14	205	706	1	111	14:09:33	4445802	3	1	1	1	3	1	3	1	1	5	4	0	0	0	0	5	4
073012	14:09:33	10030	Trial	CongruentLeft	14	0	737	0	111	14:09:33	4446829	3	1	1	1	3	1	3	1	1	5	4	0	0	0	0	5	4
073012	14:09:33	10030	Trial	IncongruentLeft	14	203	677	1	111	14:09:33	4447774	3	1	1	1	3	1	3	1	1	5	4	0	0	0	0	5	4
073012	14:09:33	10030	Trial	IncongruentLeft	14	203	639	1	111	14:09:33	4448747	3	1	1	1	3	1	3	1	1	5	4	0	0	0	0	5	4
073012	14:09:33	10030	Trial	CongruentRight	14	205	646	1	111	14:09:33	4449747	3	1	1	1	3	1	3	1	1	5	4	0	0	0	0	5	4
073012	14:09:33	10030	Trial	IncongruentRight	14	205	625	1	111	14:09:33	4450746	3	1	1	1	3	1	3	1	1	5	4	0	0	0	0	5	4
073012	14:09:33	10030	Trial	CongruentLeft	14	203	633	1	111	14:09:33	4451746	3	1	1	1	3	1	3	1	1	5	4	0	0	0	0	5	4
073012	14:09:33	10030	Trial	CongruentRight	14	205	658	1	111	14:09:33	4452772	3	1	1	1	3	1	3	1	1	5	4	0	0	0	0	5	4
073012	14:09:33	10030	Trial	IncongruentLeft	14	203	714	1	111	14:09:33	4453825	3	1	1	1	3	1	3	1	1	5	4	0	0	0	0	5	4
073012	14:09:33	10030	Trial	IncongruentRight	14	205	611	1	111	14:09:33	4454718	3	1	1	1	3	1	3	1	1	5	4	0	0	0	0	5	4
073012	14:09:33	10030	Trial	CongruentRight	14	205	587	1	111	14:09:33	4455704	3	1	1	1	3	1	3	1	1	5	4	0	0	0	0	5	4
073012	14:09:33	10030	Trial	CongruentLeft	14	203	691	1	111	14:09:33	4456811	3	1	1	1	3	1	3	1	1	5	4	0	0	0	0	5	4
073012	14:09:33	10030	Trial	CongruentRight	14	0	737	0	111	14:09:33	4457837	3	1	1	1	3	1	3	1	1	5	4	0	0	0	0	5	4
073012	14:09:33	10030	Trial	IncongruentRight	14	205	613	1	111	14:09:33	4458730	3	1	1	1	3	1	3	1	1	5	4	0	0	0	0	5	4
073012	14:09:33	10030	Trial	IncongruentLeft	14	203	609	1	111	14:09:33	4459716	3	1	1	1	3	1	3	1	1	5	4	0	0	0	0	5	4
073012	14:09:33	10030	Trial	IncongruentLeft	14	203	551	1	111	14:09:33	4460676	3	1	1	1	3	1	3	1	1	5	4	0	0	0	0	5	4
073012	14:09:33	10030	Trial	CongruentLeft	14	203	480	1	111	14:09:33	4461609	3	1	1	1	3	1	3	1	1	5	4	0	0	0	0	5	4
073012	14:09:33	10030	Trial	CongruentRight	14	205	681	1	111	14:09:33	4462808	3	1	1	1	3	1	3	1	1	5	4	0	0	0	0	5	4
073012	14:09:33	10030	Trial	IncongruentLeft	14	203	721	1	111	14:09:33	4463848	3	1	1	1	3	1	3	1	1	5	4	0	0	0	0	5	4
073012	14:09:33	10030	Trial	IncongruentRight	14	205	665	1	111	14:09:33	4464794	3	1	1	1	3	1	3	1	1	5	4	0	0	0	0	5	4
073012	14:09:33	10030	Trial	CongruentRight	14	205	609	1	111	14:09:33	4465727	3	1	1	1	3	1	3	1	1	5	4	0	0	0	0	5	4
073012	14:09:33	10030	Trial	CongruentLeft	14	203	650	1	111	14:09:33	4466767	3	1	1	1	3	1	3	1	1	5	4	0	0	0	0	5	4
073012	14:09:33	10030	Trial	IncongruentRight	14	205	677	1	111	14:09:33	4467806	3	1	1	1	3	1	3	1	1	5	4	0	0	0	0	5	4
073012	14:09:33	10030	Trial	IncongruentLeft	14	203	669	1	111	14:09:33	4468806	3	1	1	1	3	1	3	1	1	5	4	0	0	0	0	5	4
073012	14:09:33	10030	Trial	IncongruentRight	14	205	598	1	111	14:09:33	4469739	3	1	1	1	3	1	3	1	1	5	4	0	0	0	0	5	4
073012	14:09:33	10030	Trial	CongruentRight	14	205	558	1	111	14:09:33	4470698	3	1	1	1	3	1	3	1	1	5	4	0	0	0	0	5	4
073012	14:09:33	10030	Trial	IncongruentLeft	14	203	567	1	111	14:09:33	4471698	3	1	1	1	3	1	3	1	1	5	4	0	0	0	0	5	4
073012	14:09:33	10030	Trial	CongruentLeft	14	203	495	1	111	14:09:33	4472631	3	1	1	1	3	1	3	1	1	5	4	0	0	0	0	5	4
073012	14:09:33	10030	Trial	CongruentRight	14	205	648	1	111	14:09:33	4473777	3	1	1	1	3	1	3	1	1	5	4	0	0	0	0	5	4
073012	14:09:33	10030	Trial	IncongruentLeft	14	0	737	0	111	14:09:33	4474857	3	1	1	1	3	1	3	1	1	5	4	0	0	0	0	5	4
073012	14:09:33	10030	Trial	IncongruentRight	14	205	600	1	111	14:09:33	4475736	3	1	1	1	3	1	3	1	1	5	4	0	0	0	0	5	4
073012	14:09:33	10030	Trial	IncongruentRight	14	205	672	1	111	14:09:33	4476802	3	1	1	1	3	1	3	1	1	5	4	0	0	0	0	5	4
073012	14:09:33	10030	Trial	CongruentLeft	14	203	601	1	111	14:09:33	4477735	3	1	1	1	3	1	3	1	1	5	4	0	0	0	0	5	4
073012	14:09:33	10030	Trial	IncongruentLeft	14	203	484	1	111	14:09:33	4478628	3	1	1	1	3	1	3	1	1	5	4	0	0	0	0	5	4
073012	14:09:33	10030	Trial	CongruentRight	14	205	652	1	111	14:09:33	4479801	3	1	1	1	3	1	3	1	1	5	4	0	0	0	0	5	4
073012	14:09:33	10030	Trial	CongruentLeft	14	203	724	1	111	14:09:33	4480867	3	1	1	1	3	1	3	1	1	5	4	0	0	0	0	5	4
073012	14:09:33	10030	Trial	IncongruentRight	14	0	737	0	111	14:09:33	4481880	3	1	1	1	3	1	3	1	1	5	4	0	0	0	0	5	4
073012	14:09:33	10030	Trial	CongruentRight	14	0	737	0	111	14:09:33	4482893	3	1	1	1	3	1	3	1	1	5	4	0	0	0	0	5	4
073012	14:09:33	10030	Trial	IncongruentLeft	14	0	737	0	111	14:09:33	4483906	3	1	1	1	3	1	3	1	1	5	4	0	0	0	0	5	4
073012	14:09:33	10030	Trial	CongruentLeft	14	203	574	1	111	14:09:33	4484759	3	1	1	1	3	1	3	1	1	5	4	0	0	0	0	5	4
073012	14:09:33	10030	Trial	IncongruentLeft	14	203	519	1	111	14:09:33	4485705	3	1	1	1	3	1	3	1	1	5	4	0	0	0	0	5	4
073012	14:09:33	10030	Trial	IncongruentRight	14	205	659	1	111	14:09:33	4486852	3	1	1	1	3	1	3	1	1	5	4	0	0	0	0	5	4
073012	14:09:33	10030	Trial	CongruentRight	14	0	737	0	111	14:09:33	4487918	3	1	1	1	3	1	3	1	1	5	4	0	0	0	0	5	4
073012	14:09:33	10030	Trial	CongruentLeft	14	0	737	0	111	14:09:33	4488931	3	1	1	1	3	1	3	1	1	5	4	0	0	0	0	5	4
073012	14:09:33	10030	Trial	CongruentLeft	14	0	737	0	111	14:09:33	4489944	3	1	1	1	3	1	3	1	1	5	4	0	0	0	0	5	4
073012	14:09:33	10030	Trial	IncongruentRight	14	205	729	1	111	14:09:33	4490943	3	1	1	1	3	1	3	1	1	5	4	0	0	0	0	5	4
073012	14:09:33	10030	Trial	IncongruentLeft	14	0	737	0	111	14:09:33	4491956	3	1	1	1	3	1	3	1	1	5	4	0	0	0	0	5	4
073012	14:09:33	10030	Trial	IncongruentRight	14	0	737	0	111	14:09:33	4492969	3	1	1	1	3	1	3	1	1	5	4	0	0	0	0	5	4
073012	14:09:33	10030	Trial	CongruentRight	14	0	737	0	111	14:09:33	4493982	3	1	1	1	3	1	3	1	1	5	4	0	0	0	0	5	4
073012	14:09:33	10030	Trial	CongruentRight	14	205	370	1	111	14:09:33	4494621	3	1	1	1	3	1	3	1	1	5	4	0	0	0	0	5	4
073012	14:09:33	10030	Trial	IncongruentLeft	14	203	602	1	111	14:09:33	4495861	3	1	1	1	3	1	3	1	1	5	4	0	0	0	0	5	4
073012	14:09:33	10030	Trial	CongruentLeft	14	203	515	1	111	14:09:33	4496767	3	1	1	1	3	1	3	1	1	5	4	0	0	0	0	5	4
073012	14:09:33	10030	Trial	CongruentRight	14	205	686	1	111	14:09:33	4497954	3	1	1	1	3	1	3	1	1	5	4	0	0	0	0	5	4
073012	14:09:33	10030	Trial	CongruentLeft	14	0	737	0	111	14:09:33	4498993	3	1	1	1	3	1	3	1	1	5	4	0	0	0	0	5	4
073012	14:09:33	10030	Trial	IncongruentRight	14	205	707	1	111	14:09:33	4499980	3	1	1	1	3	1	3	1	1	5	4	0	0	0	0	5	4
073012	14:09:33	10030	Trial	CongruentRight	14	205	599	1	111	14:09:33	4500872	3	1	1	1	3	1	3	1	1	5	4	0	0	0	0	5	4
073012	14:09:33	10030	Trial	CongruentLeft	14	203	626	1	111	14:09:33	4501912	3	1	1	1	3	1	3	1	1	5	4	0	0	0	0	5	4
073012	14:09:33	10030	Trial	IncongruentLeft	14	203	554	1	111	14:09:33	4502832	3	1	1	1	3	1	3	1	1	5	4	0	0	0	0	5	4
073012	14:09:33	10030	Trial	IncongruentLeft	14	203	483	1	111	14:09:33	4503765	3	1	1	1	3	1	3	1	1	5	4	0	0	0	0	5	4
073012	14:09:33	10030	Trial	CongruentRight	14	205	635	1	111	14:09:33	4504911	3	1	1	1	3	1	3	1	1	5	4	0	0	0	0	5	4
073012	14:09:33	10030	Trial	IncongruentRight	14	205	579	1	111	14:09:33	4505857	3	1	1	1	3	1	3	1	1	5	4	0	0	0	0	5	4
073012	14:09:33	10030	Trial	CongruentLeft	14	203	684	1	111	14:09:33	4506963	3	1	1	1	3	1	3	1	1	5	4	0	0	0	0	5	4
073012	14:09:33	10030	Trial	IncongruentRight	14	0	737	0	111	14:09:33	4508003	3	1	1	1	3	1	3	1	1	5	4	0	0	0	0	5	4
073012	14:09:33	10030	Trial	CongruentRight	14	205	668	1	111	14:09:33	4508949	3	1	1	1	3	1	3	1	1	5	4	0	0	0	0	5	4
073012	14:09:33	10030	Trial	IncongruentLeft	14	203	693	1	111	14:09:33	4509975	3	1	1	1	3	1	3	1	1	5	4	0	0	0	0	5	4
073012	14:09:33	10030	Trial	CongruentLeft	14	203	573	1	111	14:09:33	4510855	3	1	1	1	3	1	3	1	1	5	4	0	0	0	0	5	4
073012	14:09:33	10030	Trial	CongruentRight	14	0	737	0	111	14:09:33	4512014	3	1	1	1	3	1	3	1	1	5	4	0	0	0	0	5	4
073012	14:09:33	10030	Trial	IncongruentLeft	14	0	737	0	111	14:09:33	4513027	3	1	1	1	3	1	3	1	1	5	4	0	0	0	0	5	4
073012	14:09:33	10030	Trial	CongruentRight	14	0	737	0	111	14:09:33	4514041	3	1	1	1	3	1	3	1	1	5	4	0	0	0	0	5	4
073012	14:09:33	10030	Trial	CongruentRight	14	0	737	0	111	14:09:33	4515053	3	1	1	1	3	1	3	1	1	5	4	0	0	0	0	5	4
073012	14:09:33	10030	Trial	IncongruentRight	14	205	434	1	111	14:09:33	4515759	3	1	1	1	3	1	3	1	1	5	4	0	0	0	0	5	4
073012	14:09:33	10030	Trial	CongruentLeft	14	203	682	1	111	14:09:33	4517012	3	1	1	1	3	1	3	1	1	5	4	0	0	0	0	5	4
073012	14:09:33	10030	Trial	IncongruentLeft	14	203	723	1	111	14:09:33	4518052	3	1	1	1	3	1	3	1	1	5	4	0	0	0	0	5	4
073012	14:09:33	10030	Trial	CongruentLeft	14	0	737	0	111	14:09:33	4519065	3	1	1	1	3	1	3	1	1	5	4	0	0	0	0	5	4
073012	14:09:33	10030	Trial	IncongruentRight	14	205	726	1	111	14:09:33	4520064	3	1	1	1	3	1	3	1	1	5	4	0	0	0	0	5	4
073012	14:09:33	10030	Trial	IncongruentLeft	14	0	737	0	111	14:09:33	4521077	3	1	1	1	3	1	3	1	1	5	4	0	0	0	0	5	4
073012	14:09:33	10030	Trial	CongruentRight	14	0	737	0	111	14:09:33	4522090	3	1	1	1	3	1	3	1	1	5	4	0	0	0	0	5	4
073012	14:09:33	10030	Trial	CongruentLeft	14	0	737	0	111	14:09:33	4523103	3	1	1	1	3	1	3	1	1	5	4	0	0	0	0	5	4
073012	14:09:33	10030	Trial	IncongruentLeft	14	0	737	0	111	14:09:33	4524116	3	1	1	1	3	1	3	1	1	5	4	0	0	0	0	5	4
073012	14:09:33	10030	Trial	CongruentLeft	14	203	635	1	111	14:09:33	4525022	3	1	1	1	3	1	3	1	1	5	4	0	0	0	0	5	4
073012	14:09:33	10030	Trial	IncongruentRight	14	205	531	1	111	14:09:33	4525929	3	1	1	1	3	1	3	1	1	5	4	0	0	0	0	5	4
073012	14:09:33	10030	Trial	CongruentRight	14	205	572	1	111	14:09:33	4526968	3	1	1	1	3	1	3	1	1	5	4	0	0	0	0	5	4
073012	14:09:33	10030	Trial	IncongruentLeft	14	203	535	1	111	14:09:33	4527941	3	1	1	1	3	1	3	1	1	5	4	0	0	0	0	5	4
073012	14:09:33	10030	Trial	CongruentLeft	14	203	463	1	111	14:09:33	4528861	3	1	1	1	3	1	3	1	1	5	4	0	0	0	0	5	4
073012	14:09:33	10030	Trial	IncongruentRight	14	205	487	1	111	14:09:33	4529887	3	1	1	1	3	1	3	1	1	5	4	0	0	0	0	5	4
073012	14:09:33	10030	Trial	IncongruentLeft	14	203	592	1	111	14:09:33	4530993	3	1	1	1	3	1	3	1	1	5	4	0	0	0	0	5	4
073012	14:09:33	10030	Trial	CongruentLeft	14	203	600	1	111	14:09:33	4532006	3	1	1	1	3	1	3	1	1	5	4	0	0	0	0	5	4
073012	14:09:33	10030	Trial	IncongruentLeft	14	203	609	1	111	14:09:33	4533006	3	1	1	1	3	1	3	1	1	5	4	0	0	0	0	5	4
073012	14:09:33	10030	Trial	CongruentRight	14	205	601	1	111	14:09:33	4534005	3	1	1	1	3	1	3	1	1	5	4	0	0	0	0	5	4
073012	14:09:33	10030	Trial	CongruentLeft	14	203	689	1	111	14:09:33	4535085	3	1	1	1	3	1	3	1	1	5	4	0	0	0	0	5	4
073012	14:09:33	10030	Trial	IncongruentRight	14	205	650	1	111	14:09:33	4536045	3	1	1	1	3	1	3	1	1	5	4	0	0	0	0	5	4
073012	14:09:33	10030	Trial	CongruentLeft	14	203	642	1	111	14:09:33	4537044	3	1	1	1	3	1	3	1	1	5	4	0	0	0	0	5	4
073012	14:09:33	10030	Trial	CongruentRight	14	205	619	1	111	14:09:33	4538017	3	1	1	1	3	1	3	1	1	5	4	0	0	0	0	5	4
073012	14:09:33	10030	Trial	IncongruentLeft	14	203	547	1	111	14:09:33	4538950	3	1	1	1	3	1	3	1	1	5	4	0	0	0	0	5	4
073012	14:09:33	10030	WordsAbsFrBaseline	PAbsFrBaseline1	16	Abs2	30286	0	111	14:09:33	4577854	3	1	1	1	3	1	3	1	1	5	4	0	0	0	0	5	4
073012	14:09:33	10030	WordsAbsFrBaseline	PAbsFrBaseline2	16	Abs2	1718	0	111	14:09:33	4579613	3	1	1	1	3	1	3	1	1	5	4	0	0	0	0	5	4
073012	14:09:33	10030	WordsAbsFrBaseline	PAbsFrBaseline3	16	AbsContinue	2167	0	111	14:09:33	4581812	3	1	1	1	3	1	3	1	1	5	4	0	0	0	0	5	4
073012	14:09:33	10030	WordsAbsFrBaseline	AbsFrBaseline1	16	Abs1	5423	0	111	14:09:33	4587277	3	1	1	1	3	1	3	1	1	5	4	1	0	0	0	5	4
073012	14:09:33	10030	WordsAbsFrBaseline	AbsFrBaseline2	16	Abs1	16229	0	111	14:09:33	4603550	3	1	1	1	3	1	3	1	1	5	4	2	0	0	0	5	4
073012	14:09:33	10030	WordsAbsFrBaseline	AbsFrBaseline3	16	Abs1	13068	0	111	14:09:33	4616651	3	1	1	1	3	1	3	1	1	5	4	3	0	0	0	5	4
073012	14:09:33	10030	Trial2BackFrS	NS	17	0	1000	1	111	14:09:33	4684796	3	1	1	1	3	1	3	1	1	5	4	3	0	0	0	5	4
073012	14:09:33	10030	Trial2BackFrS	NS	17	0	1000	1	111	14:09:33	4686315	3	1	1	1	3	1	3	1	1	5	4	3	0	0	0	5	4
073012	14:09:33	10030	Trial2BackFrS	NS	17	0	1000	1	111	14:09:33	4687835	3	1	1	1	3	1	3	1	1	5	4	3	0	0	0	5	4
073012	14:09:33	10030	Trial2BackFrS	YS	17	0	1000	0	111	14:09:33	4689354	3	1	1	1	3	1	3	1	1	5	4	3	0	0	0	5	4
073012	14:09:33	10030	Trial2BackFrS	NS	17	0	1000	1	111	14:09:33	4690874	3	1	1	1	3	1	3	1	1	5	4	3	0	0	0	5	4
073012	14:09:33	10030	Trial2BackFrS	NS	17	0	1000	1	111	14:09:33	4692393	3	1	1	1	3	1	3	1	1	5	4	3	0	0	0	5	4
073012	14:09:33	10030	Trial2BackFrS	NS	17	0	1000	1	111	14:09:33	4693912	3	1	1	1	3	1	3	1	1	5	4	3	0	0	0	5	4
073012	14:09:33	10030	Trial2BackFrS	NS	17	0	1000	1	111	14:09:33	4695432	3	1	1	1	3	1	3	1	1	5	4	3	0	0	0	5	4
073012	14:09:33	10030	Trial2BackFrS	YS	17	57	549	1	111	14:09:33	4696511	3	1	1	1	3	1	3	1	1	5	4	3	0	0	0	5	4
073012	14:09:33	10030	Trial2BackFrS	NS	17	0	1000	1	111	14:09:33	4698457	3	1	1	1	3	1	3	1	1	5	4	3	0	0	0	5	4
073012	14:09:33	10030	Trial2BackFrS	NS	17	0	1000	1	111	14:09:33	4699976	3	1	1	1	3	1	3	1	1	5	4	3	0	0	0	5	4
073012	14:09:33	10030	Trial2BackFrS	YS	17	0	1000	0	111	14:09:33	4701496	3	1	1	1	3	1	3	1	1	5	4	3	0	0	0	5	4
073012	14:09:33	10030	Trial2BackFrS	NS	17	0	1000	1	111	14:09:33	4703015	3	1	1	1	3	1	3	1	1	5	4	3	0	0	0	5	4
073012	14:09:33	10030	Trial2BackFrS	NS	17	0	1000	1	111	14:09:33	4704535	3	1	1	1	3	1	3	1	1	5	4	3	0	0	0	5	4
073012	14:09:33	10030	Trial2BackFrS	NS	17	0	1000	1	111	14:09:33	4706054	3	1	1	1	3	1	3	1	1	5	4	3	0	0	0	5	4
073012	14:09:33	10030	Trial2BackFrS	YS	17	0	1000	0	111	14:09:33	4707573	3	1	1	1	3	1	3	1	1	5	4	3	0	0	0	5	4
073012	14:09:33	10030	Trial2BackFrS	NS	17	0	1000	1	111	14:09:33	4709093	3	1	1	1	3	1	3	1	1	5	4	3	0	0	0	5	4
073012	14:09:33	10030	Trial2BackFrS	NS	17	0	1000	1	111	14:09:33	4710612	3	1	1	1	3	1	3	1	1	5	4	3	0	0	0	5	4
073012	14:09:33	10030	Trial2BackFrS	NS	17	0	1000	1	111	14:09:33	4712131	3	1	1	1	3	1	3	1	1	5	4	3	0	0	0	5	4
073012	14:09:33	10030	Trial2BackFrS	NS	17	0	1000	1	111	14:09:33	4713651	3	1	1	1	3	1	3	1	1	5	4	3	0	0	0	5	4
073012	14:09:33	10030	Trial2BackFrS	YS	17	57	602	1	111	14:09:33	4714784	3	1	1	1	3	1	3	1	1	5	4	3	0	0	0	5	4
073012	14:09:33	10030	Trial2BackFrS	NS	17	0	1000	1	111	14:09:33	4716676	3	1	1	1	3	1	3	1	1	5	4	3	0	0	0	5	4
073012	14:09:33	10030	Trial2BackFrS	NS	17	0	1000	1	111	14:09:33	4718196	3	1	1	1	3	1	3	1	1	5	4	3	0	0	0	5	4
073012	14:09:33	10030	Trial2BackFrS	NS	17	0	1000	1	111	14:09:33	4719715	3	1	1	1	3	1	3	1	1	5	4	3	0	0	0	5	4
073012	14:09:33	10030	Trial2BackFrS	NS	17	57	633	0	111	14:09:33	4720874	3	1	1	1	3	1	3	1	1	5	4	3	0	0	0	5	4
073012	14:09:33	10030	Trial2BackFrS	NS	17	0	1000	1	111	14:09:33	4722740	3	1	1	1	3	1	3	1	1	5	4	3	0	0	0	5	4
073012	14:09:33	10030	Trial2BackFrS	NS	17	0	1000	1	111	14:09:33	4724260	3	1	1	1	3	1	3	1	1	5	4	3	0	0	0	5	4
073012	14:09:33	10030	Trial2BackFrS	NS	17	0	1000	1	111	14:09:33	4725779	3	1	1	1	3	1	3	1	1	5	4	3	0	0	0	5	4
073012	14:09:33	10030	Trial2BackFrS	NS	17	0	1000	1	111	14:09:33	4727298	3	1	1	1	3	1	3	1	1	5	4	3	0	0	0	5	4
073012	14:09:33	10030	Trial2BackFrS	NS	17	0	1000	1	111	14:09:33	4728818	3	1	1	1	3	1	3	1	1	5	4	3	0	0	0	5	4
073012	14:09:33	10030	Trial2BackFrS	NS	17	0	1000	1	111	14:09:33	4730337	3	1	1	1	3	1	3	1	1	5	4	3	0	0	0	5	4
073012	14:09:33	10030	Trial2BackFrS	YS	17	0	1000	0	111	14:09:33	4731857	3	1	1	1	3	1	3	1	1	5	4	3	0	0	0	5	4
073012	14:09:33	10030	Trial2BackFrS	NS	17	0	1000	1	111	14:09:33	4733376	3	1	1	1	3	1	3	1	1	5	4	3	0	0	0	5	4
073012	14:09:33	10030	Trial2BackFrS	NS	17	0	1000	1	111	14:09:33	4734895	3	1	1	1	3	1	3	1	1	5	4	3	0	0	0	5	4
073012	14:09:33	10030	Trial2BackFrS	NS	17	0	1000	1	111	14:09:33	4736415	3	1	1	1	3	1	3	1	1	5	4	3	0	0	0	5	4
073012	14:09:33	10030	Trial2BackFrS	YS	17	0	1000	0	111	14:09:33	4737934	3	1	1	1	3	1	3	1	1	5	4	3	0	0	0	5	4
073012	14:09:33	10030	Trial2BackFrS	NS	17	0	1000	1	111	14:09:33	4739453	3	1	1	1	3	1	3	1	1	5	4	3	0	0	0	5	4
073012	14:09:33	10030	Trial2BackFrS	NS	17	0	1000	1	111	14:09:33	4740973	3	1	1	1	3	1	3	1	1	5	4	3	0	0	0	5	4
073012	14:09:33	10030	Trial2BackFrS	NS	17	0	1000	1	111	14:09:33	4742492	3	1	1	1	3	1	3	1	1	5	4	3	0	0	0	5	4
073012	14:09:33	10030	Trial2BackFrS	NS	17	0	1000	1	111	14:09:33	4744012	3	1	1	1	3	1	3	1	1	5	4	3	0	0	0	5	4
073012	14:09:33	10030	Trial2BackFrS	NS	17	0	1000	1	111	14:09:33	4745531	3	1	1	1	3	1	3	1	1	5	4	3	0	0	0	5	4
073012	14:09:33	10030	Trial2BackFrS	NS	17	0	1000	1	111	14:09:33	4747050	3	1	1	1	3	1	3	1	1	5	4	3	0	0	0	5	4
073012	14:09:33	10030	Trial2BackFrS	NS	17	0	1000	1	111	14:09:33	4748570	3	1	1	1	3	1	3	1	1	5	4	3	0	0	0	5	4
073012	14:09:33	10030	Trial2BackFrS	YS	17	0	1000	0	111	14:09:33	4750089	3	1	1	1	3	1	3	1	1	5	4	3	0	0	0	5	4
073012	14:09:33	10030	Trial2BackFrS	NS	17	0	1000	1	111	14:09:33	4751608	3	1	1	1	3	1	3	1	1	5	4	3	0	0	0	5	4
073012	14:09:33	10030	Trial2BackFrS	NS	17	0	1000	1	111	14:09:33	4753128	3	1	1	1	3	1	3	1	1	5	4	3	0	0	0	5	4
073012	14:09:33	10030	Trial2BackFrS	NS	17	0	1000	1	111	14:09:33	4754647	3	1	1	1	3	1	3	1	1	5	4	3	0	0	0	5	4
073012	14:09:33	10030	Trial2BackFrS	NS	17	0	1000	1	111	14:09:33	4756166	3	1	1	1	3	1	3	1	1	5	4	3	0	0	0	5	4
073012	14:09:33	10030	Trial2BackFrS	YS	17	57	613	1	111	14:09:33	4757313	3	1	1	1	3	1	3	1	1	5	4	3	0	0	0	5	4
073012	14:09:33	10030	Trial2BackFrS	NS	17	0	1000	1	111	14:09:33	4759192	3	1	1	1	3	1	3	1	1	5	4	3	0	0	0	5	4
073012	14:09:33	10030	Trial2BackFrS	NS	17	0	1000	1	111	14:09:33	4760711	3	1	1	1	3	1	3	1	1	5	4	3	0	0	0	5	4
073012	14:09:33	10030	Trial2BackFrS	NS	17	0	1000	1	111	14:09:33	4762231	3	1	1	1	3	1	3	1	1	5	4	3	0	0	0	5	4
073012	14:09:33	10030	Trial2BackFrS	NS	17	0	1000	1	111	14:09:33	4763750	3	1	1	1	3	1	3	1	1	5	4	3	0	0	0	5	4
073012	14:09:33	10030	Trial2BackFrS	NS	17	0	1000	1	111	14:09:33	4765269	3	1	1	1	3	1	3	1	1	5	4	3	0	0	0	5	4
073012	14:09:33	10030	Trial2BackFrS	NS	17	0	1000	1	111	14:09:33	4766789	3	1	1	1	3	1	3	1	1	5	4	3	0	0	0	5	4
073012	14:09:33	10030	Trial2BackFrS	YS	17	0	1000	0	111	14:09:33	4768308	3	1	1	1	3	1	3	1	1	5	4	3	0	0	0	5	4
073012	14:09:33	10030	Trial2BackFrS	NS	17	0	1000	1	111	14:09:33	4769828	3	1	1	1	3	1	3	1	1	5	4	3	0	0	0	5	4
073012	14:09:33	10030	Trial2BackFrS	NS	17	0	1000	1	111	14:09:33	4771347	3	1	1	1	3	1	3	1	1	5	4	3	0	0	0	5	4
073012	14:09:33	10030	Trial2BackFrS	NS	17	0	1000	1	111	14:09:33	4772866	3	1	1	1	3	1	3	1	1	5	4	3	0	0	0	5	4
073012	14:09:33	10030	Trial2BackFrS	NS	17	0	1000	1	111	14:09:33	4774386	3	1	1	1	3	1	3	1	1	5	4	3	0	0	0	5	4
073012	14:09:33	10030	Trial2BackFrS	NS	17	0	1000	1	111	14:09:33	4775906	3	1	1	1	3	1	3	1	1	5	4	3	0	0	0	5	4
073012	14:09:33	10030	Trial2BackFrS	NS	17	0	1000	1	111	14:09:33	4777424	3	1	1	1	3	1	3	1	1	5	4	3	0	0	0	5	4
073012	14:09:33	10030	Trial2BackFrS	NS	17	0	1000	1	111	14:09:33	4778944	3	1	1	1	3	1	3	1	1	5	4	3	0	0	0	5	4
073012	14:09:33	10030	Trial2BackFrS	YS	17	0	1000	0	111	14:09:33	4780463	3	1	1	1	3	1	3	1	1	5	4	3	0	0	0	5	4
073012	14:09:33	10030	Trial2BackFrS	NS	17	0	1000	1	111	14:09:33	4781983	3	1	1	1	3	1	3	1	1	5	4	3	0	0	0	5	4
073012	14:09:33	10030	Trial2BackFrS	NS	17	0	1000	1	111	14:09:33	4783502	3	1	1	1	3	1	3	1	1	5	4	3	0	0	0	5	4
073012	14:09:33	10030	Trial2BackFrS	NS	17	0	1000	1	111	14:09:33	4785021	3	1	1	1	3	1	3	1	1	5	4	3	0	0	0	5	4
073012	14:09:33	10030	Trial2BackFrS	NS	17	0	1000	1	111	14:09:33	4786541	3	1	1	1	3	1	3	1	1	5	4	3	0	0	0	5	4
073012	14:09:33	10030	Trial2BackFrS	YS	17	57	589	1	111	14:09:33	4787660	3	1	1	1	3	1	3	1	1	5	4	3	0	0	0	5	4
073012	14:09:33	10030	Trial2BackFrS	NS	17	0	1000	1	111	14:09:33	4789566	3	1	1	1	3	1	3	1	1	5	4	3	0	0	0	5	4
073012	14:09:33	10030	Trial2BackFrS	NS	17	0	1000	1	111	14:09:33	4791085	3	1	1	1	3	1	3	1	1	5	4	3	0	0	0	5	4
073012	14:09:33	10030	Trial2BackFrS	YS	17	0	1000	0	111	14:09:33	4792605	3	1	1	1	3	1	3	1	1	5	4	3	0	0	0	5	4
073012	14:09:33	10030	Trial2BackFrS	NS	17	0	1000	1	111	14:09:33	4794124	3	1	1	1	3	1	3	1	1	5	4	3	0	0	0	5	4
073012	14:09:33	10030	Trial2BackFrS	NS	17	0	1000	1	111	14:09:33	4795643	3	1	1	1	3	1	3	1	1	5	4	3	0	0	0	5	4
073012	14:09:33	10030	Trial2BackFrS	NS	17	57	670	0	111	14:09:33	4796843	3	1	1	1	3	1	3	1	1	5	4	3	0	0	0	5	4
073012	14:09:33	10030	Trial2BackFrS	NS	17	0	1000	1	111	14:09:33	4798669	3	1	1	1	3	1	3	1	1	5	4	3	0	0	0	5	4
073012	14:09:33	10030	Trial2BackFrS	NS	17	0	1000	1	111	14:09:33	4800188	3	1	1	1	3	1	3	1	1	5	4	3	0	0	0	5	4
073012	14:09:33	10030	Trial2BackFrS	NS	17	0	1000	1	111	14:09:33	4801708	3	1	1	1	3	1	3	1	1	5	4	3	0	0	0	5	4
073012	14:09:33	10030	Trial2BackFrS	YS	17	0	1000	0	111	14:09:33	4803227	3	1	1	1	3	1	3	1	1	5	4	3	0	0	0	5	4
073012	14:09:33	10030	Trial2BackFrS	NS	17	0	1000	1	111	14:09:33	4804746	3	1	1	1	3	1	3	1	1	5	4	3	0	0	0	5	4
073012	14:09:33	10030	Trial2BackFrS	NS	17	0	1000	1	111	14:09:33	4806266	3	1	1	1	3	1	3	1	1	5	4	3	0	0	0	5	4
073012	14:09:33	10030	Trial2BackFrS	NS	17	0	1000	1	111	14:09:33	4807785	3	1	1	1	3	1	3	1	1	5	4	3	0	0	0	5	4
073012	14:09:33	10030	Trial2BackFrS	NS	17	0	1000	1	111	14:09:33	4809304	3	1	1	1	3	1	3	1	1	5	4	3	0	0	0	5	4
073012	14:09:33	10030	Trial2BackFrS	YS	17	0	1000	0	111	14:09:33	4810824	3	1	1	1	3	1	3	1	1	5	4	3	0	0	0	5	4
073012	14:09:33	10030	Trial2BackFrS	NS	17	0	1000	1	111	14:09:33	4812343	3	1	1	1	3	1	3	1	1	5	4	3	0	0	0	5	4
073012	14:09:33	10030	Trial2BackFrS	NS	17	57	578	0	111	14:09:33	4813449	3	1	1	1	3	1	3	1	1	5	4	3	0	0	0	5	4
073012	14:09:33	10030	Trial2BackFrS	NS	17	0	1000	1	111	14:09:33	4815369	3	1	1	1	3	1	3	1	1	5	4	3	0	0	0	5	4
073012	14:09:33	10030	Trial2BackFrS	NS	17	0	1000	1	111	14:09:33	4816888	3	1	1	1	3	1	3	1	1	5	4	3	0	0	0	5	4
073012	14:09:33	10030	Trial2BackFrS	YS	17	0	1000	0	111	14:09:33	4818407	3	1	1	1	3	1	3	1	1	5	4	3	0	0	0	5	4
073012	14:09:33	10030	Trial2BackFrS	NS	17	0	1000	1	111	14:09:33	4819927	3	1	1	1	3	1	3	1	1	5	4	3	0	0	0	5	4
073012	14:09:33	10030	Trial2BackFrS	NS	17	0	1000	1	111	14:09:33	4821446	3	1	1	1	3	1	3	1	1	5	4	3	0	0	0	5	4
073012	14:09:33	10030	Trial2BackFrS	YS	17	0	1000	0	111	14:09:33	4822965	3	1	1	1	3	1	3	1	1	5	4	3	0	0	0	5	4
073012	14:09:33	10030	Trial2BackFrS	NS	17	0	1000	1	111	14:09:33	4824485	3	1	1	1	3	1	3	1	1	5	4	3	0	0	0	5	4
073012	14:09:33	10030	Trial2BackFrS	NS	17	0	1000	1	111	14:09:33	4826004	3	1	1	1	3	1	3	1	1	5	4	3	0	0	0	5	4
073012	14:09:33	10030	Trial2BackFrS	NS	17	0	1000	1	111	14:09:33	4827523	3	1	1	1	3	1	3	1	1	5	4	3	0	0	0	5	4
073012	14:09:33	10030	Trial2BackFrS	NS	17	0	1000	1	111	14:09:33	4829043	3	1	1	1	3	1	3	1	1	5	4	3	0	0	0	5	4
073012	14:09:33	10030	Trial2BackFrS	NS	17	0	1000	1	111	14:09:33	4830562	3	1	1	1	3	1	3	1	1	5	4	3	0	0	0	5	4
073012	14:09:33	10030	Trial2BackFrS	NS	17	0	1000	1	111	14:09:33	4832082	3	1	1	1	3	1	3	1	1	5	4	3	0	0	0	5	4
073012	14:09:33	10030	Trial2BackFrS	NS	17	0	1000	1	111	14:09:33	4833601	3	1	1	1	3	1	3	1	1	5	4	3	0	0	0	5	4
073012	14:09:33	10030	Trial2BackFrS	NS	17	0	1000	1	111	14:09:33	4835120	3	1	1	1	3	1	3	1	1	5	4	3	0	0	0	5	4
073012	14:09:33	10030	Trial2BackFrS	YS	17	57	728	1	111	14:09:33	4836373	3	1	1	1	3	1	3	1	1	5	4	3	0	0	0	5	4
073012	14:09:33	10030	Trial2BackFrS	NS	17	0	1000	1	111	14:09:33	4838146	3	1	1	1	3	1	3	1	1	5	4	3	0	0	0	5	4
073012	14:09:33	10030	Trial2BackFrS	NS	17	0	1000	1	111	14:09:33	4839665	3	1	1	1	3	1	3	1	1	5	4	3	0	0	0	5	4
073012	14:09:33	10030	Trial2BackFrS	NS	17	0	1000	1	111	14:09:33	4841185	3	1	1	1	3	1	3	1	1	5	4	3	0	0	0	5	4
073012	14:09:33	10030	Trial2BackFrS	NS	17	0	1000	1	111	14:09:33	4842704	3	1	1	1	3	1	3	1	1	5	4	3	0	0	0	5	4
073012	14:09:33	10030	Trial2BackFrS	NS	17	0	1000	1	111	14:09:33	4844223	3	1	1	1	3	1	3	1	1	5	4	3	0	0	0	5	4
073012	14:09:33	10030	Trial2BackFrS	NS	17	0	1000	1	111	14:09:33	4845743	3	1	1	1	3	1	3	1	1	5	4	3	0	0	0	5	4
073012	14:09:33	10030	Trial2BackFrS	NS	17	0	1000	1	111	14:09:33	4847262	3	1	1	1	3	1	3	1	1	5	4	3	0	0	0	5	4
073012	14:09:33	10030	Trial2BackFrS	YS	17	57	762	1	111	14:09:33	4848555	3	1	1	1	3	1	3	1	1	5	4	3	0	0	0	5	4
073012	14:09:33	10030	Trial2BackFrS	NS	17	0	1000	1	111	14:09:33	4850287	3	1	1	1	3	1	3	1	1	5	4	3	0	0	0	5	4
073012	14:09:33	10030	Trial2BackFrS	NS	17	0	1000	1	111	14:09:33	4851807	3	1	1	1	3	1	3	1	1	5	4	3	0	0	0	5	4
073012	14:09:33	10030	Trial2BackFrS	NS	17	0	1000	1	111	14:09:33	4853326	3	1	1	1	3	1	3	1	1	5	4	3	0	0	0	5	4
073012	14:09:33	10030	Trial2BackFrS	NS	17	0	1000	1	111	14:09:33	4854846	3	1	1	1	3	1	3	1	1	5	4	3	0	0	0	5	4
073012	14:09:33	10030	Trial2BackFrS	NS	17	0	1000	1	111	14:09:33	4856365	3	1	1	1	3	1	3	1	1	5	4	3	0	0	0	5	4
073012	14:09:33	10030	Trial2BackFrS	NS	17	0	1000	1	111	14:09:33	4857884	3	1	1	1	3	1	3	1	1	5	4	3	0	0	0	5	4
073012	14:09:33	10030	Trial2BackFrS	NS	17	0	1000	1	111	14:09:33	4859404	3	1	1	1	3	1	3	1	1	5	4	3	0	0	0	5	4
073012	14:09:33	10030	Trial2BackFrS	NS	17	0	1000	1	111	14:09:33	4860923	3	1	1	1	3	1	3	1	1	5	4	3	0	0	0	5	4
073012	14:09:33	10030	Trial2BackFrS	NS	17	0	1000	1	111	14:09:33	4862443	3	1	1	1	3	1	3	1	1	5	4	3	0	0	0	5	4
073012	14:09:33	10030	Trial2BackFrS	YS	17	57	621	1	111	14:09:33	4863588	3	1	1	1	3	1	3	1	1	5	4	3	0	0	0	5	4
073012	14:09:33	10030	Trial2BackFrS	NS	17	0	1000	1	111	14:09:33	4865468	3	1	1	1	3	1	3	1	1	5	4	3	0	0	0	5	4
073012	14:09:33	10030	ClockFrBaseline	ClockFrBaseline	19	Clock1	84758	0	111	14:09:33	4950340	3	1	1	1	3	1	3	1	1	5	4	3	1	0	0	5	4
073012	14:09:33	10030	ClockFrBaseline	ClockFrBaseline	19	Clock11	1171	0	111	14:09:33	4951552	3	1	1	1	3	1	3	1	1	5	4	3	1	1	0	5	4
073012	14:09:33	10030	ClockFrBaseline	ClockFrBaseline	19	Clock111	655	0	111	14:09:33	4952245	3	1	1	1	3	1	3	1	1	5	4	3	1	1	1	5	4
073012	14:09:33	10030	ClockFrBaseline	ClockFrBaseline	19	Clockdone	697	0	111	14:09:33	4952978	3	1	1	1	3	1	3	1	1	5	4	3	1	1	1	5	4
073012	14:09:33	10030	FASFrVFBaseline	StopFrVFBaseline	20	12	6243	0	111	14:09:33	5090443	3	1	1	1	3	1	3	1	1	5	4	3	1	1	1	5	4
