date	time	subject	blockcode	trialcode	values.TaskNumber	response	latency	correct	values.Score	script.starttime	script.elapsedtime	values.ScoreS7	values.Word1	values.Word2	values.Word3	values.Word4	values.Word5	values.Word6	values.Word7	values.Word8	values.DigitSpanFwrd	values.DigitSpanBack	values.ScoreAbs	values.Contour	values.Numbers	values.Hands	values.corsiblockspanFwrd	values.corsiblockspanRev
071212	12:27:29	10006	Language	Language	0	French	23307	0	0	12:27:29	23411	0	0	0	0	0	0	0	0	0	0	0	0	0	0	0	0	0
071212	12:27:29	10006	Session	Session	0	3mo	1044	0	0	12:27:29	24531	0	0	0	0	0	0	0	0	0	0	0	0	0	0	0	0	0
071212	12:27:29	10006	HandFr	HandFr	0	RightFr	1560853	0	0	12:27:29	1585469	0	0	0	0	0	0	0	0	0	0	0	0	0	0	0	0	0
071212	12:27:29	10006	AudioCheckFr	WordsFr	0	0	0	0	0	12:27:29	1613525	0	0	0	0	0	0	0	0	0	0	0	0	0	0	0	0	0
071212	12:27:29	10006	CubeFr	CubeFr	1	1Cube	84409	0	0	12:27:29	1699167	0	0	0	0	0	0	0	0	0	0	0	0	0	0	0	0	0
071212	12:27:29	10006	pm.simpleFrRight	blank.simpleFr	2	0	2087	1	0	12:27:29	1725143	0	0	0	0	0	0	0	0	0	0	0	0	0	0	0	0	0
071212	12:27:29	10006	pm.simpleFrRight	pm.simpleFr	2	57	731	0	0	12:27:29	1725916	0	0	0	0	0	0	0	0	0	0	0	0	0	0	0	0	0
071212	12:27:29	10006	pm.simpleFrRight	blank.simpleFr	2	0	1787	1	0	12:27:29	1727729	0	0	0	0	0	0	0	0	0	0	0	0	0	0	0	0	0
071212	12:27:29	10006	pm.simpleFrRight	pm.simpleFr	2	57	354	0	0	12:27:29	1728115	0	0	0	0	0	0	0	0	0	0	0	0	0	0	0	0	0
071212	12:27:29	10006	pm.simpleFrRight	blank.simpleFr	2	0	2187	1	0	12:27:29	1730328	0	0	0	0	0	0	0	0	0	0	0	0	0	0	0	0	0
071212	12:27:29	10006	pm.simpleFrRight	pm.simpleFr	2	57	331	0	0	12:27:29	1730701	0	0	0	0	0	0	0	0	0	0	0	0	0	0	0	0	0
071212	12:27:29	10006	pm.simpleFrRight	blank.simpleFr	2	0	1587	1	0	12:27:29	1732314	0	0	0	0	0	0	0	0	0	0	0	0	0	0	0	0	0
071212	12:27:29	10006	pm.simpleFrRight	pm.simpleFr	2	57	329	0	0	12:27:29	1732674	0	0	0	0	0	0	0	0	0	0	0	0	0	0	0	0	0
071212	12:27:29	10006	pm.simpleFrRight	blank.simpleFr	2	0	2487	1	0	12:27:29	1735192	0	0	0	0	0	0	0	0	0	0	0	0	0	0	0	0	0
071212	12:27:29	10006	pm.simpleFrRight	pm.simpleFr	2	57	313	0	0	12:27:29	1735539	0	0	0	0	0	0	0	0	0	0	0	0	0	0	0	0	0
071212	12:27:29	10006	pm.simpleFrRight	blank.simpleFr	2	0	1887	1	0	12:27:29	1737445	0	0	0	0	0	0	0	0	0	0	0	0	0	0	0	0	0
071212	12:27:29	10006	pm.simpleFrRight	pm.simpleFr	2	57	350	0	0	12:27:29	1737831	0	0	0	0	0	0	0	0	0	0	0	0	0	0	0	0	0
071212	12:27:29	10006	pm.simpleFrRight	blank.simpleFr	2	0	1687	1	0	12:27:29	1739537	0	0	0	0	0	0	0	0	0	0	0	0	0	0	0	0	0
071212	12:27:29	10006	pm.simpleFrRight	pm.simpleFr	2	57	321	0	0	12:27:29	1739897	0	0	0	0	0	0	0	0	0	0	0	0	0	0	0	0	0
071212	12:27:29	10006	pm.simpleFrRight	blank.simpleFr	2	0	1487	1	0	12:27:29	1741403	0	0	0	0	0	0	0	0	0	0	0	0	0	0	0	0	0
071212	12:27:29	10006	pm.simpleFrRight	pm.simpleFr	2	57	295	0	0	12:27:29	1741736	0	0	0	0	0	0	0	0	0	0	0	0	0	0	0	0	0
071212	12:27:29	10006	pm.simpleFrRight	blank.simpleFr	2	0	2287	1	0	12:27:29	1744042	0	0	0	0	0	0	0	0	0	0	0	0	0	0	0	0	0
071212	12:27:29	10006	pm.simpleFrRight	pm.simpleFr	2	57	280	0	0	12:27:29	1744362	0	0	0	0	0	0	0	0	0	0	0	0	0	0	0	0	0
071212	12:27:29	10006	pm.simpleFrRight	blank.simpleFr	2	0	2387	1	0	12:27:29	1746774	0	0	0	0	0	0	0	0	0	0	0	0	0	0	0	0	0
071212	12:27:29	10006	pm.simpleFrRight	pm.simpleFr	2	57	348	0	0	12:27:29	1747161	0	0	0	0	0	0	0	0	0	0	0	0	0	0	0	0	0
071212	12:27:29	10006	pm.simpleFrRight	blank.simpleFr	2	0	1987	1	0	12:27:29	1749173	0	0	0	0	0	0	0	0	0	0	0	0	0	0	0	0	0
071212	12:27:29	10006	pm.simpleFrRight	pm.simpleFr	2	57	397	0	0	12:27:29	1749600	0	0	0	0	0	0	0	0	0	0	0	0	0	0	0	0	0
071212	12:27:29	10006	pm.simpleFrRight	blank.simpleFr	2	0	2387	1	0	12:27:29	1752012	0	0	0	0	0	0	0	0	0	0	0	0	0	0	0	0	0
071212	12:27:29	10006	pm.simpleFrRight	pm.simpleFr	2	57	294	0	0	12:27:29	1752345	0	0	0	0	0	0	0	0	0	0	0	0	0	0	0	0	0
071212	12:27:29	10006	pm.simpleFrRight	blank.simpleFr	2	0	1587	1	0	12:27:29	1753958	0	0	0	0	0	0	0	0	0	0	0	0	0	0	0	0	0
071212	12:27:29	10006	pm.simpleFrRight	pm.simpleFr	2	57	347	0	0	12:27:29	1754344	0	0	0	0	0	0	0	0	0	0	0	0	0	0	0	0	0
071212	12:27:29	10006	pm.simpleFrRight	blank.simpleFr	2	0	1887	1	0	12:27:29	1756264	0	0	0	0	0	0	0	0	0	0	0	0	0	0	0	0	0
071212	12:27:29	10006	pm.simpleFrRight	pm.simpleFr	2	57	282	0	0	12:27:29	1756584	0	0	0	0	0	0	0	0	0	0	0	0	0	0	0	0	0
071212	12:27:29	10006	pm.simpleFrRight	blank.simpleFr	2	0	1987	1	0	12:27:29	1758596	0	0	0	0	0	0	0	0	0	0	0	0	0	0	0	0	0
071212	12:27:29	10006	pm.simpleFrRight	pm.simpleFr	2	57	285	0	0	12:27:29	1758916	0	0	0	0	0	0	0	0	0	0	0	0	0	0	0	0	0
071212	12:27:29	10006	pm.simpleFrRight	blank.simpleFr	2	0	1787	1	0	12:27:29	1760728	0	0	0	0	0	0	0	0	0	0	0	0	0	0	0	0	0
071212	12:27:29	10006	pm.simpleFrRight	pm.simpleFr	2	57	313	0	0	12:27:29	1761075	0	0	0	0	0	0	0	0	0	0	0	0	0	0	0	0	0
071212	12:27:29	10006	pm.simpleFrRight	blank.simpleFr	2	0	2287	1	0	12:27:29	1763394	0	0	0	0	0	0	0	0	0	0	0	0	0	0	0	0	0
071212	12:27:29	10006	pm.simpleFrRight	pm.simpleFr	2	57	256	0	0	12:27:29	1763687	0	0	0	0	0	0	0	0	0	0	0	0	0	0	0	0	0
071212	12:27:29	10006	pm.simpleFrRight	blank.simpleFr	2	0	1687	1	0	12:27:29	1765393	0	0	0	0	0	0	0	0	0	0	0	0	0	0	0	0	0
071212	12:27:29	10006	pm.simpleFrRight	pm.simpleFr	2	57	288	0	0	12:27:29	1765713	0	0	0	0	0	0	0	0	0	0	0	0	0	0	0	0	0
071212	12:27:29	10006	pm.simpleFrRight	blank.simpleFr	2	0	2187	1	0	12:27:29	1767926	0	0	0	0	0	0	0	0	0	0	0	0	0	0	0	0	0
071212	12:27:29	10006	pm.simpleFrRight	pm.simpleFr	2	57	300	0	0	12:27:29	1768259	0	0	0	0	0	0	0	0	0	0	0	0	0	0	0	0	0
071212	12:27:29	10006	pm.simpleFrRight	blank.simpleFr	2	0	1487	1	0	12:27:29	1769778	0	0	0	0	0	0	0	0	0	0	0	0	0	0	0	0	0
071212	12:27:29	10006	pm.simpleFrRight	pm.simpleFr	2	57	383	0	0	12:27:29	1770191	0	0	0	0	0	0	0	0	0	0	0	0	0	0	0	0	0
071212	12:27:29	10006	pm.simpleFrRight	blank.simpleFr	2	0	2487	1	0	12:27:29	1772710	0	0	0	0	0	0	0	0	0	0	0	0	0	0	0	0	0
071212	12:27:29	10006	pm.simpleFrRight	pm.simpleFr	2	57	267	0	0	12:27:29	1773017	0	0	0	0	0	0	0	0	0	0	0	0	0	0	0	0	0
071212	12:27:29	10006	pm.simpleFrRight	blank.simpleFr	2	0	2087	1	0	12:27:29	1775123	0	0	0	0	0	0	0	0	0	0	0	0	0	0	0	0	0
071212	12:27:29	10006	pm.simpleFrRight	pm.simpleFr	2	57	271	0	0	12:27:29	1775429	0	0	0	0	0	0	0	0	0	0	0	0	0	0	0	0	0
071212	12:27:29	10006	pm.simpleFrRight	blank.simpleFr	2	0	2387	1	0	12:27:29	1777841	0	0	0	0	0	0	0	0	0	0	0	0	0	0	0	0	0
071212	12:27:29	10006	pm.simpleFrRight	pm.simpleFr	2	57	287	0	0	12:27:29	1778161	0	0	0	0	0	0	0	0	0	0	0	0	0	0	0	0	0
071212	12:27:29	10006	pm.simpleFrRight	blank.simpleFr	2	0	1787	1	0	12:27:29	1779974	0	0	0	0	0	0	0	0	0	0	0	0	0	0	0	0	0
071212	12:27:29	10006	pm.simpleFrRight	pm.simpleFr	2	57	331	0	0	12:27:29	1780347	0	0	0	0	0	0	0	0	0	0	0	0	0	0	0	0	0
071212	12:27:29	10006	pm.simpleFrRight	blank.simpleFr	2	0	1687	1	0	12:27:29	1782053	0	0	0	0	0	0	0	0	0	0	0	0	0	0	0	0	0
071212	12:27:29	10006	pm.simpleFrRight	pm.simpleFr	2	57	315	0	0	12:27:29	1782400	0	0	0	0	0	0	0	0	0	0	0	0	0	0	0	0	0
071212	12:27:29	10006	pm.simpleFrRight	blank.simpleFr	2	0	1487	1	0	12:27:29	1783919	0	0	0	0	0	0	0	0	0	0	0	0	0	0	0	0	0
071212	12:27:29	10006	pm.simpleFrRight	pm.simpleFr	2	57	242	0	0	12:27:29	1784199	0	0	0	0	0	0	0	0	0	0	0	0	0	0	0	0	0
071212	12:27:29	10006	pm.simpleFrRight	blank.simpleFr	2	0	2287	1	0	12:27:29	1786518	0	0	0	0	0	0	0	0	0	0	0	0	0	0	0	0	0
071212	12:27:29	10006	pm.simpleFrRight	pm.simpleFr	2	57	315	0	0	12:27:29	1786864	0	0	0	0	0	0	0	0	0	0	0	0	0	0	0	0	0
071212	12:27:29	10006	pm.simpleFrRight	blank.simpleFr	2	0	2087	1	0	12:27:29	1788984	0	0	0	0	0	0	0	0	0	0	0	0	0	0	0	0	0
071212	12:27:29	10006	pm.simpleFrRight	pm.simpleFr	2	57	313	0	0	12:27:29	1789330	0	0	0	0	0	0	0	0	0	0	0	0	0	0	0	0	0
071212	12:27:29	10006	pm.simpleFrRight	blank.simpleFr	2	0	2487	1	0	12:27:29	1791849	0	0	0	0	0	0	0	0	0	0	0	0	0	0	0	0	0
071212	12:27:29	10006	pm.simpleFrRight	pm.simpleFr	2	57	296	0	0	12:27:29	1792182	0	0	0	0	0	0	0	0	0	0	0	0	0	0	0	0	0
071212	12:27:29	10006	pm.simpleFrRight	blank.simpleFr	2	0	1987	1	0	12:27:29	1794195	0	0	0	0	0	0	0	0	0	0	0	0	0	0	0	0	0
071212	12:27:29	10006	pm.simpleFrRight	pm.simpleFr	2	57	286	0	0	12:27:29	1794515	0	0	0	0	0	0	0	0	0	0	0	0	0	0	0	0	0
071212	12:27:29	10006	pm.simpleFrRight	blank.simpleFr	2	0	1587	1	0	12:27:29	1796127	0	0	0	0	0	0	0	0	0	0	0	0	0	0	0	0	0
071212	12:27:29	10006	pm.simpleFrRight	pm.simpleFr	2	57	273	0	0	12:27:29	1796434	0	0	0	0	0	0	0	0	0	0	0	0	0	0	0	0	0
071212	12:27:29	10006	pm.simpleFrRight	blank.simpleFr	2	0	2187	1	0	12:27:29	1798646	0	0	0	0	0	0	0	0	0	0	0	0	0	0	0	0	0
071212	12:27:29	10006	pm.simpleFrRight	pm.simpleFr	2	57	298	0	0	12:27:29	1798979	0	0	0	0	0	0	0	0	0	0	0	0	0	0	0	0	0
071212	12:27:29	10006	pm.simpleFrRight	blank.simpleFr	2	0	1887	1	0	12:27:29	1800885	0	0	0	0	0	0	0	0	0	0	0	0	0	0	0	0	0
071212	12:27:29	10006	pm.simpleFrRight	pm.simpleFr	2	57	331	0	0	12:27:29	1801258	0	0	0	0	0	0	0	0	0	0	0	0	0	0	0	0	0
071212	12:27:29	10006	pm.simpleFrRight	blank.simpleFr	2	0	1987	1	0	12:27:29	1803271	0	0	0	0	0	0	0	0	0	0	0	0	0	0	0	0	0
071212	12:27:29	10006	pm.simpleFrRight	pm.simpleFr	2	57	329	0	0	12:27:29	1803631	0	0	0	0	0	0	0	0	0	0	0	0	0	0	0	0	0
071212	12:27:29	10006	pm.simpleFrRight	blank.simpleFr	2	0	2087	1	0	12:27:29	1805736	0	0	0	0	0	0	0	0	0	0	0	0	0	0	0	0	0
071212	12:27:29	10006	pm.simpleFrRight	pm.simpleFr	2	57	311	0	0	12:27:29	1806083	0	0	0	0	0	0	0	0	0	0	0	0	0	0	0	0	0
071212	12:27:29	10006	pm.simpleFrRight	blank.simpleFr	2	0	1587	1	0	12:27:29	1807696	0	0	0	0	0	0	0	0	0	0	0	0	0	0	0	0	0
071212	12:27:29	10006	pm.simpleFrRight	pm.simpleFr	2	57	337	0	0	12:27:29	1808069	0	0	0	0	0	0	0	0	0	0	0	0	0	0	0	0	0
071212	12:27:29	10006	pm.simpleFrRight	blank.simpleFr	2	0	2387	1	0	12:27:29	1810481	0	0	0	0	0	0	0	0	0	0	0	0	0	0	0	0	0
071212	12:27:29	10006	pm.simpleFrRight	pm.simpleFr	2	57	318	0	0	12:27:29	1810841	0	0	0	0	0	0	0	0	0	0	0	0	0	0	0	0	0
071212	12:27:29	10006	pm.simpleFrRight	blank.simpleFr	2	0	1887	1	0	12:27:29	1812760	0	0	0	0	0	0	0	0	0	0	0	0	0	0	0	0	0
071212	12:27:29	10006	pm.simpleFrRight	pm.simpleFr	2	57	311	0	0	12:27:29	1813107	0	0	0	0	0	0	0	0	0	0	0	0	0	0	0	0	0
071212	12:27:29	10006	pm.simpleFrRight	blank.simpleFr	2	0	2487	1	0	12:27:29	1815626	0	0	0	0	0	0	0	0	0	0	0	0	0	0	0	0	0
071212	12:27:29	10006	pm.simpleFrRight	pm.simpleFr	2	57	294	0	0	12:27:29	1815959	0	0	0	0	0	0	0	0	0	0	0	0	0	0	0	0	0
071212	12:27:29	10006	pm.simpleFrRight	blank.simpleFr	2	0	2187	1	0	12:27:29	1818171	0	0	0	0	0	0	0	0	0	0	0	0	0	0	0	0	0
071212	12:27:29	10006	pm.simpleFrRight	pm.simpleFr	2	57	324	0	0	12:27:29	1818531	0	0	0	0	0	0	0	0	0	0	0	0	0	0	0	0	0
071212	12:27:29	10006	Trial2BackFr	N	3	0	1000	1	1	12:27:29	1982476	0	0	0	0	0	0	0	0	0	0	0	0	0	0	0	0	0
071212	12:27:29	10006	Trial2BackFr	N	3	0	1000	1	2	12:27:29	1983996	0	0	0	0	0	0	0	0	0	0	0	0	0	0	0	0	0
071212	12:27:29	10006	Trial2BackFr	N	3	0	1000	1	3	12:27:29	1985515	0	0	0	0	0	0	0	0	0	0	0	0	0	0	0	0	0
071212	12:27:29	10006	Trial2BackFr	N	3	0	1000	1	4	12:27:29	1987035	0	0	0	0	0	0	0	0	0	0	0	0	0	0	0	0	0
071212	12:27:29	10006	Trial2BackFr	N	3	0	1000	1	5	12:27:29	1988554	0	0	0	0	0	0	0	0	0	0	0	0	0	0	0	0	0
071212	12:27:29	10006	Trial2BackFr	N	3	0	1000	1	6	12:27:29	1990073	0	0	0	0	0	0	0	0	0	0	0	0	0	0	0	0	0
071212	12:27:29	10006	Trial2BackFr	N	3	0	1000	1	7	12:27:29	1991593	0	0	0	0	0	0	0	0	0	0	0	0	0	0	0	0	0
071212	12:27:29	10006	Trial2BackFr	N	3	0	1000	1	8	12:27:29	1993112	0	0	0	0	0	0	0	0	0	0	0	0	0	0	0	0	0
071212	12:27:29	10006	Trial2BackFr	Y	3	57	534	1	9	12:27:29	1994178	0	0	0	0	0	0	0	0	0	0	0	0	0	0	0	0	0
071212	12:27:29	10006	Trial2BackFr	N	3	0	1000	1	10	12:27:29	1996138	0	0	0	0	0	0	0	0	0	0	0	0	0	0	0	0	0
071212	12:27:29	10006	Trial2BackFr	N	3	0	1000	1	11	12:27:29	1997657	0	0	0	0	0	0	0	0	0	0	0	0	0	0	0	0	0
071212	12:27:29	10006	Trial2BackFr	N	3	0	1000	1	12	12:27:29	1999176	0	0	0	0	0	0	0	0	0	0	0	0	0	0	0	0	0
071212	12:27:29	10006	Trial2BackFr	Y	3	57	550	1	13	12:27:29	2000256	0	0	0	0	0	0	0	0	0	0	0	0	0	0	0	0	0
071212	12:27:29	10006	Trial2BackFr	N	3	0	1000	1	14	12:27:29	2002202	0	0	0	0	0	0	0	0	0	0	0	0	0	0	0	0	0
071212	12:27:29	10006	Trial2BackFr	N	3	0	1000	1	15	12:27:29	2003721	0	0	0	0	0	0	0	0	0	0	0	0	0	0	0	0	0
071212	12:27:29	10006	Trial2BackFr	N	3	0	1000	1	16	12:27:29	2005240	0	0	0	0	0	0	0	0	0	0	0	0	0	0	0	0	0
071212	12:27:29	10006	Trial2BackFr	N	3	0	1000	1	17	12:27:29	2006760	0	0	0	0	0	0	0	0	0	0	0	0	0	0	0	0	0
071212	12:27:29	10006	Trial2BackFr	N	3	0	1000	1	18	12:27:29	2008279	0	0	0	0	0	0	0	0	0	0	0	0	0	0	0	0	0
071212	12:27:29	10006	Trial2BackFr	Y	3	0	1000	0	18	12:27:29	2009798	0	0	0	0	0	0	0	0	0	0	0	0	0	0	0	0	0
071212	12:27:29	10006	Trial2BackFr	N	3	0	1000	1	19	12:27:29	2011318	0	0	0	0	0	0	0	0	0	0	0	0	0	0	0	0	0
071212	12:27:29	10006	Trial2BackFr	N	3	0	1000	1	20	12:27:29	2012837	0	0	0	0	0	0	0	0	0	0	0	0	0	0	0	0	0
071212	12:27:29	10006	Trial2BackFr	N	3	0	1000	1	21	12:27:29	2014356	0	0	0	0	0	0	0	0	0	0	0	0	0	0	0	0	0
071212	12:27:29	10006	Trial2BackFr	N	3	0	1000	1	22	12:27:29	2015876	0	0	0	0	0	0	0	0	0	0	0	0	0	0	0	0	0
071212	12:27:29	10006	Trial2BackFr	Y	3	57	538	1	23	12:27:29	2016942	0	0	0	0	0	0	0	0	0	0	0	0	0	0	0	0	0
071212	12:27:29	10006	Trial2BackFr	N	3	0	1000	1	24	12:27:29	2018901	0	0	0	0	0	0	0	0	0	0	0	0	0	0	0	0	0
071212	12:27:29	10006	Trial2BackFr	N	3	0	1000	1	25	12:27:29	2020421	0	0	0	0	0	0	0	0	0	0	0	0	0	0	0	0	0
071212	12:27:29	10006	Trial2BackFr	N	3	0	1000	1	26	12:27:29	2021940	0	0	0	0	0	0	0	0	0	0	0	0	0	0	0	0	0
071212	12:27:29	10006	Trial2BackFr	N	3	0	1000	1	27	12:27:29	2023459	0	0	0	0	0	0	0	0	0	0	0	0	0	0	0	0	0
071212	12:27:29	10006	Trial2BackFr	N	3	0	1000	1	28	12:27:29	2024979	0	0	0	0	0	0	0	0	0	0	0	0	0	0	0	0	0
071212	12:27:29	10006	Trial2BackFr	N	3	0	1000	1	29	12:27:29	2026498	0	0	0	0	0	0	0	0	0	0	0	0	0	0	0	0	0
071212	12:27:29	10006	Trial2BackFr	Y	3	57	491	1	30	12:27:29	2027511	0	0	0	0	0	0	0	0	0	0	0	0	0	0	0	0	0
071212	12:27:29	10006	Trial2BackFr	N	3	0	1000	1	31	12:27:29	2029524	0	0	0	0	0	0	0	0	0	0	0	0	0	0	0	0	0
071212	12:27:29	10006	Trial2BackFr	N	3	0	1000	1	32	12:27:29	2031043	0	0	0	0	0	0	0	0	0	0	0	0	0	0	0	0	0
071212	12:27:29	10006	Trial2BackFr	N	3	0	1000	1	33	12:27:29	2032562	0	0	0	0	0	0	0	0	0	0	0	0	0	0	0	0	0
071212	12:27:29	10006	Trial2BackFr	Y	3	57	762	1	34	12:27:29	2033855	0	0	0	0	0	0	0	0	0	0	0	0	0	0	0	0	0
071212	12:27:29	10006	Trial2BackFr	N	3	0	1000	1	35	12:27:29	2035588	0	0	0	0	0	0	0	0	0	0	0	0	0	0	0	0	0
071212	12:27:29	10006	Trial2BackFr	N	3	0	1000	1	36	12:27:29	2037107	0	0	0	0	0	0	0	0	0	0	0	0	0	0	0	0	0
071212	12:27:29	10006	Trial2BackFr	N	3	0	1000	1	37	12:27:29	2038627	0	0	0	0	0	0	0	0	0	0	0	0	0	0	0	0	0
071212	12:27:29	10006	Trial2BackFr	N	3	0	1000	1	38	12:27:29	2040146	0	0	0	0	0	0	0	0	0	0	0	0	0	0	0	0	0
071212	12:27:29	10006	Trial2BackFr	N	3	0	1000	1	39	12:27:29	2041665	0	0	0	0	0	0	0	0	0	0	0	0	0	0	0	0	0
071212	12:27:29	10006	Trial2BackFr	N	3	57	699	0	39	12:27:29	2042891	0	0	0	0	0	0	0	0	0	0	0	0	0	0	0	0	0
071212	12:27:29	10006	Trial2BackFr	Y	3	0	1000	0	39	12:27:29	2044691	0	0	0	0	0	0	0	0	0	0	0	0	0	0	0	0	0
071212	12:27:29	10006	Trial2BackFr	N	3	0	1000	1	40	12:27:29	2046210	0	0	0	0	0	0	0	0	0	0	0	0	0	0	0	0	0
071212	12:27:29	10006	Trial2BackFr	N	3	0	1000	1	41	12:27:29	2047729	0	0	0	0	0	0	0	0	0	0	0	0	0	0	0	0	0
071212	12:27:29	10006	Trial2BackFr	N	3	0	1000	1	42	12:27:29	2049249	0	0	0	0	0	0	0	0	0	0	0	0	0	0	0	0	0
071212	12:27:29	10006	Trial2BackFr	N	3	0	1000	1	43	12:27:29	2050768	0	0	0	0	0	0	0	0	0	0	0	0	0	0	0	0	0
071212	12:27:29	10006	Trial2BackFr	Y	3	57	524	1	44	12:27:29	2051821	0	0	0	0	0	0	0	0	0	0	0	0	0	0	0	0	0
071212	12:27:29	10006	Trial2BackFr	N	3	0	1000	1	45	12:27:29	2053794	0	0	0	0	0	0	0	0	0	0	0	0	0	0	0	0	0
071212	12:27:29	10006	Trial2BackFr	N	3	0	1000	1	46	12:27:29	2055313	0	0	0	0	0	0	0	0	0	0	0	0	0	0	0	0	0
071212	12:27:29	10006	Trial2BackFr	N	3	0	1000	1	47	12:27:29	2056832	0	0	0	0	0	0	0	0	0	0	0	0	0	0	0	0	0
071212	12:27:29	10006	Trial2BackFr	N	3	0	1000	1	48	12:27:29	2058352	0	0	0	0	0	0	0	0	0	0	0	0	0	0	0	0	0
071212	12:27:29	10006	Trial2BackFr	N	3	0	1000	1	49	12:27:29	2059871	0	0	0	0	0	0	0	0	0	0	0	0	0	0	0	0	0
071212	12:27:29	10006	Trial2BackFr	Y	3	57	605	1	50	12:27:29	2061004	0	0	0	0	0	0	0	0	0	0	0	0	0	0	0	0	0
071212	12:27:29	10006	Trial2BackFr	N	3	0	1000	1	51	12:27:29	2062896	0	0	0	0	0	0	0	0	0	0	0	0	0	0	0	0	0
071212	12:27:29	10006	Trial2BackFr	N	3	0	1000	1	52	12:27:29	2064416	0	0	0	0	0	0	0	0	0	0	0	0	0	0	0	0	0
071212	12:27:29	10006	Trial2BackFr	N	3	0	1000	1	53	12:27:29	2065935	0	0	0	0	0	0	0	0	0	0	0	0	0	0	0	0	0
071212	12:27:29	10006	Trial2BackFr	N	3	0	1000	1	54	12:27:29	2067455	0	0	0	0	0	0	0	0	0	0	0	0	0	0	0	0	0
071212	12:27:29	10006	Trial2BackFr	N	3	57	541	0	54	12:27:29	2068521	0	0	0	0	0	0	0	0	0	0	0	0	0	0	0	0	0
071212	12:27:29	10006	Trial2BackFr	N	3	0	1000	1	55	12:27:29	2070480	0	0	0	0	0	0	0	0	0	0	0	0	0	0	0	0	0
071212	12:27:29	10006	Trial2BackFr	Y	3	0	1000	0	55	12:27:29	2071999	0	0	0	0	0	0	0	0	0	0	0	0	0	0	0	0	0
071212	12:27:29	10006	Trial2BackFr	N	3	0	1000	1	56	12:27:29	2073519	0	0	0	0	0	0	0	0	0	0	0	0	0	0	0	0	0
071212	12:27:29	10006	Trial2BackFr	N	3	57	621	0	56	12:27:29	2074665	0	0	0	0	0	0	0	0	0	0	0	0	0	0	0	0	0
071212	12:27:29	10006	Trial2BackFr	Y	3	0	1000	0	56	12:27:29	2076544	0	0	0	0	0	0	0	0	0	0	0	0	0	0	0	0	0
071212	12:27:29	10006	Trial2BackFr	N	3	0	1000	1	57	12:27:29	2078063	0	0	0	0	0	0	0	0	0	0	0	0	0	0	0	0	0
071212	12:27:29	10006	Trial2BackFr	N	3	0	1000	1	58	12:27:29	2079583	0	0	0	0	0	0	0	0	0	0	0	0	0	0	0	0	0
071212	12:27:29	10006	Trial2BackFr	N	3	0	1000	1	59	12:27:29	2081102	0	0	0	0	0	0	0	0	0	0	0	0	0	0	0	0	0
071212	12:27:29	10006	Trial2BackFr	N	3	0	1000	1	60	12:27:29	2082622	0	0	0	0	0	0	0	0	0	0	0	0	0	0	0	0	0
071212	12:27:29	10006	Trial2BackFr	N	3	57	478	0	60	12:27:29	2083621	0	0	0	0	0	0	0	0	0	0	0	0	0	0	0	0	0
071212	12:27:29	10006	Trial2BackFr	N	3	0	1000	1	61	12:27:29	2085647	0	0	0	0	0	0	0	0	0	0	0	0	0	0	0	0	0
071212	12:27:29	10006	Trial2BackFr	N	3	0	1000	1	62	12:27:29	2087166	0	0	0	0	0	0	0	0	0	0	0	0	0	0	0	0	0
071212	12:27:29	10006	Trial2BackFr	N	3	0	1000	1	63	12:27:29	2088686	0	0	0	0	0	0	0	0	0	0	0	0	0	0	0	0	0
071212	12:27:29	10006	Trial2BackFr	N	3	0	1000	1	64	12:27:29	2090205	0	0	0	0	0	0	0	0	0	0	0	0	0	0	0	0	0
071212	12:27:29	10006	Trial2BackFr	N	3	0	1000	1	65	12:27:29	2091725	0	0	0	0	0	0	0	0	0	0	0	0	0	0	0	0	0
071212	12:27:29	10006	Trial2BackFr	Y	3	57	398	1	66	12:27:29	2092657	0	0	0	0	0	0	0	0	0	0	0	0	0	0	0	0	0
071212	12:27:29	10006	Trial2BackFr	N	3	0	1000	1	67	12:27:29	2094750	0	0	0	0	0	0	0	0	0	0	0	0	0	0	0	0	0
071212	12:27:29	10006	Trial2BackFr	N	3	0	1000	1	68	12:27:29	2096269	0	0	0	0	0	0	0	0	0	0	0	0	0	0	0	0	0
071212	12:27:29	10006	Trial2BackFr	N	3	0	1000	1	69	12:27:29	2097789	0	0	0	0	0	0	0	0	0	0	0	0	0	0	0	0	0
071212	12:27:29	10006	Trial2BackFr	Y	3	57	670	1	70	12:27:29	2098988	0	0	0	0	0	0	0	0	0	0	0	0	0	0	0	0	0
071212	12:27:29	10006	Trial2BackFr	N	3	0	1000	1	71	12:27:29	2100814	0	0	0	0	0	0	0	0	0	0	0	0	0	0	0	0	0
071212	12:27:29	10006	Trial2BackFr	N	3	0	1000	1	72	12:27:29	2102333	0	0	0	0	0	0	0	0	0	0	0	0	0	0	0	0	0
071212	12:27:29	10006	Trial2BackFr	N	3	0	1000	1	73	12:27:29	2103853	0	0	0	0	0	0	0	0	0	0	0	0	0	0	0	0	0
071212	12:27:29	10006	Trial2BackFr	N	3	0	1000	1	74	12:27:29	2105372	0	0	0	0	0	0	0	0	0	0	0	0	0	0	0	0	0
071212	12:27:29	10006	Trial2BackFr	N	3	0	1000	1	75	12:27:29	2106892	0	0	0	0	0	0	0	0	0	0	0	0	0	0	0	0	0
071212	12:27:29	10006	Trial2BackFr	Y	3	57	623	1	76	12:27:29	2108038	0	0	0	0	0	0	0	0	0	0	0	0	0	0	0	0	0
071212	12:27:29	10006	Trial2BackFr	N	3	0	1000	1	77	12:27:29	2109917	0	0	0	0	0	0	0	0	0	0	0	0	0	0	0	0	0
071212	12:27:29	10006	Trial2BackFr	N	3	0	1000	1	78	12:27:29	2111436	0	0	0	0	0	0	0	0	0	0	0	0	0	0	0	0	0
071212	12:27:29	10006	Trial2BackFr	N	3	0	1000	1	79	12:27:29	2112956	0	0	0	0	0	0	0	0	0	0	0	0	0	0	0	0	0
071212	12:27:29	10006	Trial2BackFr	N	3	0	1000	1	80	12:27:29	2114475	0	0	0	0	0	0	0	0	0	0	0	0	0	0	0	0	0
071212	12:27:29	10006	Trial2BackFr	N	3	0	1000	1	81	12:27:29	2115994	0	0	0	0	0	0	0	0	0	0	0	0	0	0	0	0	0
071212	12:27:29	10006	Trial2BackFr	N	3	0	1000	1	82	12:27:29	2117514	0	0	0	0	0	0	0	0	0	0	0	0	0	0	0	0	0
071212	12:27:29	10006	Trial2BackFr	N	3	0	1000	1	83	12:27:29	2119033	0	0	0	0	0	0	0	0	0	0	0	0	0	0	0	0	0
071212	12:27:29	10006	Trial2BackFr	N	3	0	1000	1	84	12:27:29	2120553	0	0	0	0	0	0	0	0	0	0	0	0	0	0	0	0	0
071212	12:27:29	10006	Trial2BackFr	N	3	0	1000	1	85	12:27:29	2122072	0	0	0	0	0	0	0	0	0	0	0	0	0	0	0	0	0
071212	12:27:29	10006	Trial2BackFr	Y	3	57	626	1	86	12:27:29	2123231	0	0	0	0	0	0	0	0	0	0	0	0	0	0	0	0	0
071212	12:27:29	10006	Trial2BackFr	N	3	0	1000	1	87	12:27:29	2125097	0	0	0	0	0	0	0	0	0	0	0	0	0	0	0	0	0
071212	12:27:29	10006	Trial2BackFr	N	3	0	1000	1	88	12:27:29	2126617	0	0	0	0	0	0	0	0	0	0	0	0	0	0	0	0	0
071212	12:27:29	10006	Trial2BackFr	N	3	0	1000	1	89	12:27:29	2128136	0	0	0	0	0	0	0	0	0	0	0	0	0	0	0	0	0
071212	12:27:29	10006	Trial2BackFr	N	3	0	1000	1	90	12:27:29	2129656	0	0	0	0	0	0	0	0	0	0	0	0	0	0	0	0	0
071212	12:27:29	10006	Trial2BackFr	N	3	0	1000	1	91	12:27:29	2131175	0	0	0	0	0	0	0	0	0	0	0	0	0	0	0	0	0
071212	12:27:29	10006	Trial2BackFr	N	3	0	1000	1	92	12:27:29	2132694	0	0	0	0	0	0	0	0	0	0	0	0	0	0	0	0	0
071212	12:27:29	10006	Trial2BackFr	N	3	0	1000	1	93	12:27:29	2134214	0	0	0	0	0	0	0	0	0	0	0	0	0	0	0	0	0
071212	12:27:29	10006	Trial2BackFr	N	3	0	1000	1	94	12:27:29	2135733	0	0	0	0	0	0	0	0	0	0	0	0	0	0	0	0	0
071212	12:27:29	10006	Trial2BackFr	Y	3	57	580	1	95	12:27:29	2136839	0	0	0	0	0	0	0	0	0	0	0	0	0	0	0	0	0
071212	12:27:29	10006	Trial2BackFr	N	3	0	1000	1	96	12:27:29	2138758	0	0	0	0	0	0	0	0	0	0	0	0	0	0	0	0	0
071212	12:27:29	10006	Trial2BackFr	N	3	0	1000	1	97	12:27:29	2140277	0	0	0	0	0	0	0	0	0	0	0	0	0	0	0	0	0
071212	12:27:29	10006	Trial2BackFr	N	3	0	1000	1	98	12:27:29	2141797	0	0	0	0	0	0	0	0	0	0	0	0	0	0	0	0	0
071212	12:27:29	10006	Trial2BackFr	N	3	0	1000	1	99	12:27:29	2143316	0	0	0	0	0	0	0	0	0	0	0	0	0	0	0	0	0
071212	12:27:29	10006	Trial2BackFr	Y	3	57	629	1	100	12:27:29	2144476	0	0	0	0	0	0	0	0	0	0	0	0	0	0	0	0	0
071212	12:27:29	10006	Trial2BackFr	N	3	0	1000	1	101	12:27:29	2146342	0	0	0	0	0	0	0	0	0	0	0	0	0	0	0	0	0
071212	12:27:29	10006	Trial2BackFr	N	3	0	1000	1	102	12:27:29	2147861	0	0	0	0	0	0	0	0	0	0	0	0	0	0	0	0	0
071212	12:27:29	10006	Trial2BackFr	N	3	0	1000	1	103	12:27:29	2149381	0	0	0	0	0	0	0	0	0	0	0	0	0	0	0	0	0
071212	12:27:29	10006	Trial2BackFr	Y	3	57	548	1	104	12:27:29	2150460	0	0	0	0	0	0	0	0	0	0	0	0	0	0	0	0	0
071212	12:27:29	10006	Trial2BackFr	N	3	0	1000	1	105	12:27:29	2152406	0	0	0	0	0	0	0	0	0	0	0	0	0	0	0	0	0
071212	12:27:29	10006	Trial2BackFr	N	3	0	1000	1	106	12:27:29	2153925	0	0	0	0	0	0	0	0	0	0	0	0	0	0	0	0	0
071212	12:27:29	10006	Trial2BackFr	N	3	0	1000	1	107	12:27:29	2155445	0	0	0	0	0	0	0	0	0	0	0	0	0	0	0	0	0
071212	12:27:29	10006	Trial2BackFr	N	3	0	1000	1	108	12:27:29	2156964	0	0	0	0	0	0	0	0	0	0	0	0	0	0	0	0	0
071212	12:27:29	10006	Trial2BackFr	N	3	0	1000	1	109	12:27:29	2158484	0	0	0	0	0	0	0	0	0	0	0	0	0	0	0	0	0
071212	12:27:29	10006	Trial2BackFr	Y	3	0	1000	0	109	12:27:29	2160003	0	0	0	0	0	0	0	0	0	0	0	0	0	0	0	0	0
071212	12:27:29	10006	Trial2BackFr	N	3	0	1000	1	110	12:27:29	2161522	0	0	0	0	0	0	0	0	0	0	0	0	0	0	0	0	0
071212	12:27:29	10006	Trial2BackFr	N	3	0	1000	1	111	12:27:29	2163042	0	0	0	0	0	0	0	0	0	0	0	0	0	0	0	0	0
071212	12:27:29	10006	Trial2BackFr	N	3	0	1000	1	112	12:27:29	2164561	0	0	0	0	0	0	0	0	0	0	0	0	0	0	0	0	0
071212	12:27:29	10006	Trial2BackFr	Y	3	57	695	1	113	12:27:29	2165787	0	0	0	0	0	0	0	0	0	0	0	0	0	0	0	0	0
071212	12:27:29	10006	Memory1R3moFr	ScoreFr	5	M1	48364	0	113	12:27:29	2248740	0	0	0	0	0	0	0	0	0	0	0	0	0	0	0	0	0
071212	12:27:29	10006	Memory1R3moFr	ScoreFr	5	M2	759	0	113	12:27:29	2249539	0	0	0	0	0	0	0	0	0	0	0	0	0	0	0	0	0
071212	12:27:29	10006	Memory1R3moFr	ScoreFr	5	M3	191	0	113	12:27:29	2249766	0	0	0	0	0	0	0	0	0	0	0	0	0	0	0	0	0
071212	12:27:29	10006	Memory1R3moFr	ScoreFr	5	M4	644	0	113	12:27:29	2250446	0	0	0	0	0	0	0	0	0	0	0	0	0	0	0	0	0
071212	12:27:29	10006	Memory1R3moFr	ScoreFr	5	M5	389	0	113	12:27:29	2250872	0	0	0	0	0	0	0	0	0	0	0	0	0	0	0	0	0
071212	12:27:29	10006	Memory1R3moFr	ScoreFr	5	M5	1770	0	113	12:27:29	2252685	0	0	0	0	0	0	0	0	0	0	0	0	0	0	0	0	0
071212	12:27:29	10006	Memory1R3moFr	ScoreFr	5	M4	382	0	113	12:27:29	2253111	0	0	0	0	0	0	0	0	0	0	0	0	0	0	0	0	0
071212	12:27:29	10006	Memory1R3moFr	ScoreFr	5	M6	1251	0	113	12:27:29	2254404	0	0	0	0	0	0	0	0	0	0	0	0	0	0	0	0	0
071212	12:27:29	10006	Memory1R3moFr	ScoreFr	5	M7	302	0	113	12:27:29	2254750	0	0	0	0	0	0	0	0	0	0	0	0	0	0	0	0	0
071212	12:27:29	10006	Memory1R3moFr	ScoreFr	5	M8	292	0	113	12:27:29	2255084	0	0	0	0	0	0	0	0	0	0	0	0	0	0	0	0	0
071212	12:27:29	10006	Memory1R3moFr	ScoreFr	5	Done	1550	0	113	12:27:29	2256670	0	0	0	0	0	0	0	0	0	0	0	0	0	0	0	0	0
071212	12:27:29	10006	Memory2R3moFr	ScoreFr2	5	11	61270	0	113	12:27:29	2334637	0	0	0	0	0	0	0	0	0	0	0	0	0	0	0	0	0
071212	12:27:29	10006	Memory2R3moFr	ScoreFr2	5	22	186	0	113	12:27:29	2334864	0	0	0	0	0	0	0	0	0	0	0	0	0	0	0	0	0
071212	12:27:29	10006	Memory2R3moFr	ScoreFr2	5	33	208	0	113	12:27:29	2335117	0	0	0	0	0	0	0	0	0	0	0	0	0	0	0	0	0
071212	12:27:29	10006	Memory2R3moFr	ScoreFr2	5	55	266	0	113	12:27:29	2335424	0	0	0	0	0	0	0	0	0	0	0	0	0	0	0	0	0
071212	12:27:29	10006	Memory2R3moFr	ScoreFr2	5	44	304	0	113	12:27:29	2335770	0	0	0	0	0	0	0	0	0	0	0	0	0	0	0	0	0
071212	12:27:29	10006	Memory2R3moFr	ScoreFr2	5	66	477	0	113	12:27:29	2336290	0	0	0	0	0	0	0	0	0	0	0	0	0	0	0	0	0
071212	12:27:29	10006	Memory2R3moFr	ScoreFr2	5	88	413	0	113	12:27:29	2336743	0	0	0	0	0	0	0	0	0	0	0	0	0	0	0	0	0
071212	12:27:29	10006	Memory2R3moFr	ScoreFr2	5	77	7744	0	113	12:27:29	2344526	0	0	0	0	0	0	0	0	0	0	0	0	0	0	0	0	0
071212	12:27:29	10006	Memory2R3moFr	ScoreFr2	5	Done	584	0	113	12:27:29	2345153	0	0	0	0	0	0	0	0	0	0	0	0	0	0	0	0	0
071212	12:27:29	10006	Memory3R3moFr	ScoreFr3	5	111	14705	0	113	12:27:29	2377833	0	0	0	0	0	0	0	0	0	0	0	0	0	0	0	0	0
071212	12:27:29	10006	Memory3R3moFr	ScoreFr3	5	222	261	0	113	12:27:29	2378139	0	0	0	0	0	0	0	0	0	0	0	0	0	0	0	0	0
071212	12:27:29	10006	Memory3R3moFr	ScoreFr3	5	333	243	0	113	12:27:29	2378419	0	0	0	0	0	0	0	0	0	0	0	0	0	0	0	0	0
071212	12:27:29	10006	Memory3R3moFr	ScoreFr3	5	444	267	0	113	12:27:29	2378726	0	0	0	0	0	0	0	0	0	0	0	0	0	0	0	0	0
071212	12:27:29	10006	Memory3R3moFr	ScoreFr3	5	555	232	0	113	12:27:29	2378992	0	0	0	0	0	0	0	0	0	0	0	0	0	0	0	0	0
071212	12:27:29	10006	Memory3R3moFr	ScoreFr3	5	777	878	0	113	12:27:29	2379912	0	0	0	0	0	0	0	0	0	0	0	0	0	0	0	0	0
071212	12:27:29	10006	Memory3R3moFr	ScoreFr3	5	666	422	0	113	12:27:29	2380378	0	0	0	0	0	0	0	0	0	0	0	0	0	0	0	0	0
071212	12:27:29	10006	Memory3R3moFr	ScoreFr3	5	888	507	0	113	12:27:29	2380925	0	0	0	0	0	0	0	0	0	0	0	0	0	0	0	0	0
071212	12:27:29	10006	Memory3R3moFr	ScoreFr3	5	Done	82694	0	113	12:27:29	2463664	0	0	0	0	0	0	0	0	0	0	0	0	0	0	0	0	0
071212	12:27:29	10006	LoriaFrLH3	Stop	6	5	4795	0	113	12:27:29	2539820	0	0	0	0	0	0	0	0	0	0	0	0	0	0	0	0	0
071212	12:27:29	10006	FrTrail	Trails	7	1Trails	1186	0	113	12:27:29	2566968	0	0	0	0	0	0	0	0	0	0	0	0	0	0	0	0	0
071212	12:27:29	10006	Serial7Fr3mo	Serial7Fr3mo	8	83	3252	0	113	12:27:29	2621532	1	0	0	0	0	0	0	0	0	0	0	0	0	0	0	0	0
071212	12:27:29	10006	Serial7Fr3mo	Serial7Fr3mo	8	76	9085	0	113	12:27:29	2630636	2	0	0	0	0	0	0	0	0	0	0	0	0	0	0	0	0
071212	12:27:29	10006	Serial7Fr3mo	Serial7Fr3mo	8	69	2502	0	113	12:27:29	2633156	3	0	0	0	0	0	0	0	0	0	0	0	0	0	0	0	0
071212	12:27:29	10006	Serial7Fr3mo	Serial7Fr3mo	8	62	2127	0	113	12:27:29	2635303	4	0	0	0	0	0	0	0	0	0	0	0	0	0	0	0	0
071212	12:27:29	10006	Serial7Fr3mo	Serial7Fr3mo	8	53	1763	0	113	12:27:29	2637087	4	0	0	0	0	0	0	0	0	0	0	0	0	0	0	0	0
071212	12:27:29	10006	corsiblockFrFwrd	recallseqFrFwrd	9	5	1463	0	113	12:27:29	2671833	4	0	0	0	0	0	0	0	0	0	0	0	0	0	0	0	0
071212	12:27:29	10006	corsiblockFrFwrd	recallseqFrFwrd	9	3	1237	0	113	12:27:29	2673112	4	0	0	0	0	0	0	0	0	0	0	0	0	0	0	0	0
071212	12:27:29	10006	corsiblockFrFwrd	recallseqFrFwrd	9	doneCorsiFr	2085	0	113	12:27:29	2675231	4	0	0	0	0	0	0	0	0	0	0	0	0	0	0	2	0
071212	12:27:29	10006	corsiblockFrFwrd	recallseqFrFwrd	9	8	1731	0	113	12:27:29	2683055	4	0	0	0	0	0	0	0	0	0	0	0	0	0	0	2	0
071212	12:27:29	10006	corsiblockFrFwrd	recallseqFrFwrd	9	6	1063	0	113	12:27:29	2684161	4	0	0	0	0	0	0	0	0	0	0	0	0	0	0	2	0
071212	12:27:29	10006	corsiblockFrFwrd	recallseqFrFwrd	9	1	1100	0	113	12:27:29	2685307	4	0	0	0	0	0	0	0	0	0	0	0	0	0	0	2	0
071212	12:27:29	10006	corsiblockFrFwrd	recallseqFrFwrd	9	doneCorsiFr	1497	0	113	12:27:29	2686840	4	0	0	0	0	0	0	0	0	0	0	0	0	0	0	3	0
071212	12:27:29	10006	corsiblockFrFwrd	recallseqFrFwrd	9	4	1090	0	113	12:27:29	2695023	4	0	0	0	0	0	0	0	0	0	0	0	0	0	0	3	0
071212	12:27:29	10006	corsiblockFrFwrd	recallseqFrFwrd	9	2	1006	0	113	12:27:29	2696063	4	0	0	0	0	0	0	0	0	0	0	0	0	0	0	3	0
071212	12:27:29	10006	corsiblockFrFwrd	recallseqFrFwrd	9	9	926	0	113	12:27:29	2697022	4	0	0	0	0	0	0	0	0	0	0	0	0	0	0	3	0
071212	12:27:29	10006	corsiblockFrFwrd	recallseqFrFwrd	9	8	982	0	113	12:27:29	2698049	4	0	0	0	0	0	0	0	0	0	0	0	0	0	0	3	0
071212	12:27:29	10006	corsiblockFrFwrd	recallseqFrFwrd	9	doneCorsiFr	1252	0	113	12:27:29	2699341	4	0	0	0	0	0	0	0	0	0	0	0	0	0	0	3	0
071212	12:27:29	10006	corsiblockFrFwrd	recallseqFrFwrd	9	2	1524	0	113	12:27:29	2707911	4	0	0	0	0	0	0	0	0	0	0	0	0	0	0	3	0
071212	12:27:29	10006	corsiblockFrFwrd	recallseqFrFwrd	9	9	1533	0	113	12:27:29	2709484	4	0	0	0	0	0	0	0	0	0	0	0	0	0	0	3	0
071212	12:27:29	10006	corsiblockFrFwrd	recallseqFrFwrd	9	5	936	0	113	12:27:29	2710457	4	0	0	0	0	0	0	0	0	0	0	0	0	0	0	3	0
071212	12:27:29	10006	corsiblockFrFwrd	recallseqFrFwrd	9	4	755	0	113	12:27:29	2711256	4	0	0	0	0	0	0	0	0	0	0	0	0	0	0	3	0
071212	12:27:29	10006	corsiblockFrFwrd	recallseqFrFwrd	9	doneCorsiFr	1364	0	113	12:27:29	2712656	4	0	0	0	0	0	0	0	0	0	0	0	0	0	0	3	0
071212	12:27:29	10006	corsiblockFrRev	recallseqFrRev	10	1	2252	0	113	12:27:29	2729276	4	0	0	0	0	0	0	0	0	0	0	0	0	0	0	3	0
071212	12:27:29	10006	corsiblockFrRev	recallseqFrRev	10	6	1184	0	113	12:27:29	2730502	4	0	0	0	0	0	0	0	0	0	0	0	0	0	0	3	0
071212	12:27:29	10006	corsiblockFrRev	recallseqFrRev	10	doneCorsiFr	1254	0	113	12:27:29	2731795	4	0	0	0	0	0	0	0	0	0	0	0	0	0	0	3	2
071212	12:27:29	10006	corsiblockFrRev	recallseqFrRev	10	2	2678	0	113	12:27:29	2740564	4	0	0	0	0	0	0	0	0	0	0	0	0	0	0	3	2
071212	12:27:29	10006	corsiblockFrRev	recallseqFrRev	10	9	935	0	113	12:27:29	2741537	4	0	0	0	0	0	0	0	0	0	0	0	0	0	0	3	2
071212	12:27:29	10006	corsiblockFrRev	recallseqFrRev	10	7	674	0	113	12:27:29	2742257	4	0	0	0	0	0	0	0	0	0	0	0	0	0	0	3	2
071212	12:27:29	10006	corsiblockFrRev	recallseqFrRev	10	doneCorsiFr	1306	0	113	12:27:29	2743603	4	0	0	0	0	0	0	0	0	0	0	0	0	0	0	3	3
071212	12:27:29	10006	corsiblockFrRev	recallseqFrRev	10	4	749	0	113	12:27:29	2751440	4	0	0	0	0	0	0	0	0	0	0	0	0	0	0	3	3
071212	12:27:29	10006	corsiblockFrRev	recallseqFrRev	10	3	899	0	113	12:27:29	2752373	4	0	0	0	0	0	0	0	0	0	0	0	0	0	0	3	3
071212	12:27:29	10006	corsiblockFrRev	recallseqFrRev	10	8	1006	0	113	12:27:29	2753412	4	0	0	0	0	0	0	0	0	0	0	0	0	0	0	3	3
071212	12:27:29	10006	corsiblockFrRev	recallseqFrRev	10	5	966	0	113	12:27:29	2754412	4	0	0	0	0	0	0	0	0	0	0	0	0	0	0	3	3
071212	12:27:29	10006	corsiblockFrRev	recallseqFrRev	10	doneCorsiFr	1079	0	113	12:27:29	2755531	4	0	0	0	0	0	0	0	0	0	0	0	0	0	0	3	4
071212	12:27:29	10006	corsiblockFrRev	recallseqFrRev	10	2	693	0	113	12:27:29	2764314	4	0	0	0	0	0	0	0	0	0	0	0	0	0	0	3	4
071212	12:27:29	10006	corsiblockFrRev	recallseqFrRev	10	1	944	0	113	12:27:29	2765301	4	0	0	0	0	0	0	0	0	0	0	0	0	0	0	3	4
071212	12:27:29	10006	corsiblockFrRev	recallseqFrRev	10	8	1053	0	113	12:27:29	2766394	4	0	0	0	0	0	0	0	0	0	0	0	0	0	0	3	4
071212	12:27:29	10006	corsiblockFrRev	recallseqFrRev	10	6	1113	0	113	12:27:29	2767540	4	0	0	0	0	0	0	0	0	0	0	0	0	0	0	3	4
071212	12:27:29	10006	corsiblockFrRev	recallseqFrRev	10	9	1023	0	113	12:27:29	2768606	4	0	0	0	0	0	0	0	0	0	0	0	0	0	0	3	4
071212	12:27:29	10006	corsiblockFrRev	recallseqFrRev	10	doneCorsiFr	2268	0	113	12:27:29	2770912	4	0	0	0	0	0	0	0	0	0	0	0	0	0	0	3	5
071212	12:27:29	10006	corsiblockFrRev	recallseqFrRev	10	8	777	0	113	12:27:29	2780774	4	0	0	0	0	0	0	0	0	0	0	0	0	0	0	3	5
071212	12:27:29	10006	corsiblockFrRev	recallseqFrRev	10	1	1380	0	113	12:27:29	2782187	4	0	0	0	0	0	0	0	0	0	0	0	0	0	0	3	5
071212	12:27:29	10006	corsiblockFrRev	recallseqFrRev	10	5	1039	0	113	12:27:29	2783267	4	0	0	0	0	0	0	0	0	0	0	0	0	0	0	3	5
071212	12:27:29	10006	corsiblockFrRev	recallseqFrRev	10	4	591	0	113	12:27:29	2783893	4	0	0	0	0	0	0	0	0	0	0	0	0	0	0	3	5
071212	12:27:29	10006	corsiblockFrRev	recallseqFrRev	10	3	4549	0	113	12:27:29	2788478	4	0	0	0	0	0	0	0	0	0	0	0	0	0	0	3	5
071212	12:27:29	10006	corsiblockFrRev	recallseqFrRev	10	resetCorsiFr	4756	0	113	12:27:29	2793276	4	0	0	0	0	0	0	0	0	0	0	0	0	0	0	3	5
071212	12:27:29	10006	corsiblockFrRev	recallseqFrRev	10	resetCorsiFr	1990	0	113	12:27:29	2795302	4	0	0	0	0	0	0	0	0	0	0	0	0	0	0	3	5
071212	12:27:29	10006	corsiblockFrRev	recallseqFrRev	10	1	22019	0	113	12:27:29	2817359	4	0	0	0	0	0	0	0	0	0	0	0	0	0	0	3	5
071212	12:27:29	10006	corsiblockFrRev	recallseqFrRev	10	4	3745	0	113	12:27:29	2821144	4	0	0	0	0	0	0	0	0	0	0	0	0	0	0	3	5
071212	12:27:29	10006	corsiblockFrRev	recallseqFrRev	10	5	712	0	113	12:27:29	2821891	4	0	0	0	0	0	0	0	0	0	0	0	0	0	0	3	5
071212	12:27:29	10006	corsiblockFrRev	recallseqFrRev	10	9	1139	0	113	12:27:29	2823090	4	0	0	0	0	0	0	0	0	0	0	0	0	0	0	3	5
071212	12:27:29	10006	corsiblockFrRev	recallseqFrRev	10	6	1279	0	113	12:27:29	2824410	4	0	0	0	0	0	0	0	0	0	0	0	0	0	0	3	5
071212	12:27:29	10006	corsiblockFrRev	recallseqFrRev	10	doneCorsiFr	1431	0	113	12:27:29	2825876	4	0	0	0	0	0	0	0	0	0	0	0	0	0	0	3	5
071212	12:27:29	10006	corsiblockFrRev	recallseqFrRev	10	2	1075	0	113	12:27:29	2836005	4	0	0	0	0	0	0	0	0	0	0	0	0	0	0	3	5
071212	12:27:29	10006	corsiblockFrRev	recallseqFrRev	10	5	1475	0	113	12:27:29	2837524	4	0	0	0	0	0	0	0	0	0	0	0	0	0	0	3	5
071212	12:27:29	10006	corsiblockFrRev	recallseqFrRev	10	9	1220	0	113	12:27:29	2838790	4	0	0	0	0	0	0	0	0	0	0	0	0	0	0	3	5
071212	12:27:29	10006	corsiblockFrRev	recallseqFrRev	10	3	1241	0	113	12:27:29	2840070	4	0	0	0	0	0	0	0	0	0	0	0	0	0	0	3	5
071212	12:27:29	10006	corsiblockFrRev	recallseqFrRev	10	4	970	0	113	12:27:29	2841083	4	0	0	0	0	0	0	0	0	0	0	0	0	0	0	3	5
071212	12:27:29	10006	corsiblockFrRev	recallseqFrRev	10	7	2637	0	113	12:27:29	2843762	4	0	0	0	0	0	0	0	0	0	0	0	0	0	0	3	5
071212	12:27:29	10006	corsiblockFrRev	recallseqFrRev	10	doneCorsiFr	1686	0	113	12:27:29	2845481	4	0	0	0	0	0	0	0	0	0	0	0	0	0	0	3	6
071212	12:27:29	10006	corsiblockFrRev	recallseqFrRev	10	2	1221	0	113	12:27:29	2855797	4	0	0	0	0	0	0	0	0	0	0	0	0	0	0	3	6
071212	12:27:29	10006	corsiblockFrRev	recallseqFrRev	10	5	1059	0	113	12:27:29	2856889	4	0	0	0	0	0	0	0	0	0	0	0	0	0	0	3	6
071212	12:27:29	10006	corsiblockFrRev	recallseqFrRev	10	9	1246	0	113	12:27:29	2858169	4	0	0	0	0	0	0	0	0	0	0	0	0	0	0	3	6
071212	12:27:29	10006	corsiblockFrRev	recallseqFrRev	10	7	942	0	113	12:27:29	2859155	4	0	0	0	0	0	0	0	0	0	0	0	0	0	0	3	6
071212	12:27:29	10006	corsiblockFrRev	recallseqFrRev	10	6	1412	0	113	12:27:29	2860608	4	0	0	0	0	0	0	0	0	0	0	0	0	0	0	3	6
071212	12:27:29	10006	corsiblockFrRev	recallseqFrRev	10	4	879	0	113	12:27:29	2861528	4	0	0	0	0	0	0	0	0	0	0	0	0	0	0	3	6
071212	12:27:29	10006	corsiblockFrRev	recallseqFrRev	10	doneCorsiFr	1240	0	113	12:27:29	2862807	4	0	0	0	0	0	0	0	0	0	0	0	0	0	0	3	6
071212	12:27:29	10006	corsiblockFrRev	recallseqFrRev	10	8	1118	0	113	12:27:29	2873976	4	0	0	0	0	0	0	0	0	0	0	0	0	0	0	3	6
071212	12:27:29	10006	corsiblockFrRev	recallseqFrRev	10	3	1527	0	113	12:27:29	2875548	4	0	0	0	0	0	0	0	0	0	0	0	0	0	0	3	6
071212	12:27:29	10006	corsiblockFrRev	recallseqFrRev	10	2	1146	0	113	12:27:29	2876735	4	0	0	0	0	0	0	0	0	0	0	0	0	0	0	3	6
071212	12:27:29	10006	corsiblockFrRev	recallseqFrRev	10	6	1152	0	113	12:27:29	2877921	4	0	0	0	0	0	0	0	0	0	0	0	0	0	0	3	6
071212	12:27:29	10006	corsiblockFrRev	recallseqFrRev	10	5	588	0	113	12:27:29	2878627	4	0	0	0	0	0	0	0	0	0	0	0	0	0	0	3	6
071212	12:27:29	10006	corsiblockFrRev	recallseqFrRev	10	4	588	0	113	12:27:29	2879253	4	0	0	0	0	0	0	0	0	0	0	0	0	0	0	3	6
071212	12:27:29	10006	corsiblockFrRev	recallseqFrRev	10	1	1033	0	113	12:27:29	2880320	4	0	0	0	0	0	0	0	0	0	0	0	0	0	0	3	6
071212	12:27:29	10006	corsiblockFrRev	recallseqFrRev	10	doneCorsiFr	1359	0	113	12:27:29	2881719	4	0	0	0	0	0	0	0	0	0	0	0	0	0	0	3	6
071212	12:27:29	10006	testFr3mo	WordsFr3mo	11	4Fr3mo	62547	0	113	12:27:29	2952477	4	0	0	0	1	0	0	0	0	0	0	0	0	0	0	3	6
071212	12:27:29	10006	testFr3mo	WordsFr3mo	11	5Fr3mo	264	0	113	12:27:29	2952784	4	0	0	0	1	1	0	0	0	0	0	0	0	0	0	3	6
071212	12:27:29	10006	testFr3mo	WordsFr3mo	11	6Fr3mo	1373	0	113	12:27:29	2954196	4	0	0	0	1	1	1	0	0	0	0	0	0	0	0	3	6
071212	12:27:29	10006	testFr3mo	WordsFr3mo	11	8Fr3mo	1337	0	113	12:27:29	2955569	4	0	0	0	1	1	1	0	1	0	0	0	0	0	0	3	6
071212	12:27:29	10006	testFr3mo	WordsFr3mo	11	DoneFr3mo	10763	0	113	12:27:29	2966378	4	0	0	0	1	1	1	0	1	0	0	0	0	0	0	3	6
071212	12:27:29	10006	testFr3mo	Cat1Fr3mo	11	0	1	0	113	12:27:29	2966394	4	0	0	0	1	1	1	0	1	0	0	0	0	0	0	3	6
071212	12:27:29	10006	testFr3mo	Ch1Fr3mo	11	RR1Fr3mo	4440	0	113	12:27:29	2970882	4	3	0	0	1	1	1	0	1	0	0	0	0	0	0	3	6
071212	12:27:29	10006	testFr3mo	Cat2Fr3mo	11	R2Fr3mo	15304	0	113	12:27:29	2986222	4	3	2	0	1	1	1	0	1	0	0	0	0	0	0	3	6
071212	12:27:29	10006	testFr3mo	Cat3Fr3mo	11	0	1	0	113	12:27:29	2986239	4	3	2	0	1	1	1	0	1	0	0	0	0	0	0	3	6
071212	12:27:29	10006	testFr3mo	Ch3Fr3mo	11	RR3Fr3mo	11349	0	113	12:27:29	2997604	4	3	2	3	1	1	1	0	1	0	0	0	0	0	0	3	6
071212	12:27:29	10006	testFr3mo	Cat7Fr3mo	11	R7Fr3mo	7495	0	113	12:27:29	3005134	4	3	2	3	1	1	1	2	1	0	0	0	0	0	0	3	6
071212	12:27:29	10006	DigitSpanFwrdFr3mo	Score1FwrdFr3mo	12	DS1	3286	0	113	12:27:29	3026619	4	3	2	3	1	1	1	2	1	0	0	0	0	0	0	3	6
071212	12:27:29	10006	DigitSpanFwrdFr3mo	Gate1FwrdFr3mo	12	0	1	0	113	12:27:29	3026634	4	3	2	3	1	1	1	2	1	3	0	0	0	0	0	3	6
071212	12:27:29	10006	DigitSpanFwrdFr3mo	Score2FwrdFr3mo	12	DS2	5845	0	113	12:27:29	3038187	4	3	2	3	1	1	1	2	1	3	0	0	0	0	0	3	6
071212	12:27:29	10006	DigitSpanFwrdFr3mo	Gate3FwrdFr3mo	12	0	1	0	113	12:27:29	3038203	4	3	2	3	1	1	1	2	1	3	0	0	0	0	0	3	6
071212	12:27:29	10006	DigitSpanFwrdFr3mo	Score22FwrdFr3mo	12	DS1	27880	0	113	12:27:29	3072146	4	3	2	3	1	1	1	2	1	3	0	0	0	0	0	3	6
071212	12:27:29	10006	DigitSpanFwrdFr3mo	Gate4FwrdFr3mo	12	0	1	0	113	12:27:29	3072162	4	3	2	3	1	1	1	2	1	4	0	0	0	0	0	3	6
071212	12:27:29	10006	DigitSpanFwrdFr3mo	Score3FwrdFr3mo	12	DS2	7897	0	113	12:27:29	3087354	4	3	2	3	1	1	1	2	1	4	0	0	0	0	0	3	6
071212	12:27:29	10006	DigitSpanFwrdFr3mo	Gate5FwrdFr3mo	12	0	1	0	113	12:27:29	3087369	4	3	2	3	1	1	1	2	1	4	0	0	0	0	0	3	6
071212	12:27:29	10006	DigitSpanFwrdFr3mo	Score33FwrdFr3mo	12	DS2	36130	0	113	12:27:29	3130735	4	3	2	3	1	1	1	2	1	4	0	0	0	0	0	3	6
071212	12:27:29	10006	DigitSpanFr3mo	Score1Fr3mo	13	DS1	3907	0	113	12:27:29	3166508	4	3	2	3	1	1	1	2	1	4	0	0	0	0	0	3	6
071212	12:27:29	10006	DigitSpanFr3mo	Gate1Fr3mo	13	0	1	0	113	12:27:29	3166523	4	3	2	3	1	1	1	2	1	4	2	0	0	0	0	3	6
071212	12:27:29	10006	DigitSpanFr3mo	Score2Fr3mo	13	DS2	5412	0	113	12:27:29	3176516	4	3	2	3	1	1	1	2	1	4	2	0	0	0	0	3	6
071212	12:27:29	10006	DigitSpanFr3mo	Gate3Fr3mo	13	0	1	0	113	12:27:29	3176533	4	3	2	3	1	1	1	2	1	4	2	0	0	0	0	3	6
071212	12:27:29	10006	DigitSpanFr3mo	Score22Fr3mo	13	DS1	5877	0	113	12:27:29	3186646	4	3	2	3	1	1	1	2	1	4	2	0	0	0	0	3	6
071212	12:27:29	10006	DigitSpanFr3mo	Gate4Fr3mo	13	0	1	0	113	12:27:29	3186661	4	3	2	3	1	1	1	2	1	4	3	0	0	0	0	3	6
071212	12:27:29	10006	DigitSpanFr3mo	Score3Fr3mo	13	DS2	5838	0	113	12:27:29	3198227	4	3	2	3	1	1	1	2	1	4	3	0	0	0	0	3	6
071212	12:27:29	10006	DigitSpanFr3mo	Gate5Fr3mo	13	0	1	0	113	12:27:29	3198243	4	3	2	3	1	1	1	2	1	4	3	0	0	0	0	3	6
071212	12:27:29	10006	DigitSpanFr3mo	Score33Fr3mo	13	DS1	7198	0	113	12:27:29	3211515	4	3	2	3	1	1	1	2	1	4	3	0	0	0	0	3	6
071212	12:27:29	10006	DigitSpanFr3mo	Gate6Fr3mo	13	0	1	0	113	12:27:29	3211531	4	3	2	3	1	1	1	2	1	4	4	0	0	0	0	3	6
071212	12:27:29	10006	DigitSpanFr3mo	Score4Fr3mo	13	DS2	12694	0	113	12:27:29	3231493	4	3	2	3	1	1	1	2	1	4	4	0	0	0	0	3	6
071212	12:27:29	10006	DigitSpanFr3mo	Gate7Fr3mo	13	0	1	0	113	12:27:29	3231509	4	3	2	3	1	1	1	2	1	4	4	0	0	0	0	3	6
071212	12:27:29	10006	DigitSpanFr3mo	Score44Fr3mo	13	DS2	17341	0	113	12:27:29	3256057	4	3	2	3	1	1	1	2	1	4	4	0	0	0	0	3	6
071212	12:27:29	10006	Trial	IncongruentRight	14	205	612	1	113	12:27:29	3292442	4	3	2	3	1	1	1	2	1	4	4	0	0	0	0	3	6
071212	12:27:29	10006	Trial	IncongruentLeft	14	203	540	1	113	12:27:29	3293361	4	3	2	3	1	1	1	2	1	4	4	0	0	0	0	3	6
071212	12:27:29	10006	Trial	CongruentRight	14	205	405	1	113	12:27:29	3294227	4	3	2	3	1	1	1	2	1	4	4	0	0	0	0	3	6
071212	12:27:29	10006	Trial	IncongruentRight	14	205	413	1	113	12:27:29	3295240	4	3	2	3	1	1	1	2	1	4	4	0	0	0	0	3	6
071212	12:27:29	10006	Trial	CongruentLeft	14	203	520	1	113	12:27:29	3296360	4	3	2	3	1	1	1	2	1	4	4	0	0	0	0	3	6
071212	12:27:29	10006	Trial	CongruentRight	14	205	465	1	113	12:27:29	3297306	4	3	2	3	1	1	1	2	1	4	4	0	0	0	0	3	6
071212	12:27:29	10006	Trial	IncongruentRight	14	205	457	1	113	12:27:29	3298293	4	3	2	3	1	1	1	2	1	4	4	0	0	0	0	3	6
071212	12:27:29	10006	Trial	CongruentLeft	14	203	417	1	113	12:27:29	3299252	4	3	2	3	1	1	1	2	1	4	4	0	0	0	0	3	6
071212	12:27:29	10006	Trial	IncongruentLeft	14	203	489	1	113	12:27:29	3300318	4	3	2	3	1	1	1	2	1	4	4	0	0	0	0	3	6
071212	12:27:29	10006	Trial	IncongruentLeft	14	203	466	1	113	12:27:29	3301305	4	3	2	3	1	1	1	2	1	4	4	0	0	0	0	3	6
071212	12:27:29	10006	Trial	CongruentRight	14	205	490	1	113	12:27:29	3302317	4	3	2	3	1	1	1	2	1	4	4	0	0	0	0	3	6
071212	12:27:29	10006	Trial	IncongruentRight	14	205	451	1	113	12:27:29	3303277	4	3	2	3	1	1	1	2	1	4	4	0	0	0	0	3	6
071212	12:27:29	10006	Trial	CongruentLeft	14	203	411	1	113	12:27:29	3304250	4	3	2	3	1	1	1	2	1	4	4	0	0	0	0	3	6
071212	12:27:29	10006	Trial	CongruentRight	14	205	419	1	113	12:27:29	3305249	4	3	2	3	1	1	1	2	1	4	4	0	0	0	0	3	6
071212	12:27:29	10006	Trial	IncongruentLeft	14	203	396	1	113	12:27:29	3306223	4	3	2	3	1	1	1	2	1	4	4	0	0	0	0	3	6
071212	12:27:29	10006	Trial	IncongruentRight	14	205	580	1	113	12:27:29	3307409	4	3	2	3	1	1	1	2	1	4	4	0	0	0	0	3	6
071212	12:27:29	10006	Trial	CongruentRight	14	205	541	1	113	12:27:29	3308368	4	3	2	3	1	1	1	2	1	4	4	0	0	0	0	3	6
071212	12:27:29	10006	Trial	CongruentLeft	14	203	437	1	113	12:27:29	3309261	4	3	2	3	1	1	1	2	1	4	4	0	0	0	0	3	6
071212	12:27:29	10006	Trial	CongruentRight	14	205	430	1	113	12:27:29	3310261	4	3	2	3	1	1	1	2	1	4	4	0	0	0	0	3	6
071212	12:27:29	10006	Trial	IncongruentRight	14	205	454	1	113	12:27:29	3311287	4	3	2	3	1	1	1	2	1	4	4	0	0	0	0	3	6
071212	12:27:29	10006	Trial	IncongruentLeft	14	203	478	1	113	12:27:29	3312313	4	3	2	3	1	1	1	2	1	4	4	0	0	0	0	3	6
071212	12:27:29	10006	Trial	IncongruentLeft	14	203	653	1	113	12:27:29	3313486	4	3	2	3	1	1	1	2	1	4	4	0	0	0	0	3	6
071212	12:27:29	10006	Trial	CongruentLeft	14	203	463	1	113	12:27:29	3314286	4	3	2	3	1	1	1	2	1	4	4	0	0	0	0	3	6
071212	12:27:29	10006	Trial	CongruentRight	14	205	439	1	113	12:27:29	3315272	4	3	2	3	1	1	1	2	1	4	4	0	0	0	0	3	6
071212	12:27:29	10006	Trial	IncongruentLeft	14	203	560	1	113	12:27:29	3316392	4	3	2	3	1	1	1	2	1	4	4	0	0	0	0	3	6
071212	12:27:29	10006	Trial	IncongruentRight	14	205	520	1	113	12:27:29	3317351	4	3	2	3	1	1	1	2	1	4	4	0	0	0	0	3	6
071212	12:27:29	10006	Trial	CongruentRight	14	205	432	1	113	12:27:29	3318258	4	3	2	3	1	1	1	2	1	4	4	0	0	0	0	3	6
071212	12:27:29	10006	Trial	CongruentLeft	14	203	489	1	113	12:27:29	3319310	4	3	2	3	1	1	1	2	1	4	4	0	0	0	0	3	6
071212	12:27:29	10006	Trial	IncongruentRight	14	205	497	1	113	12:27:29	3320323	4	3	2	3	1	1	1	2	1	4	4	0	0	0	0	3	6
071212	12:27:29	10006	Trial	IncongruentLeft	14	203	554	1	113	12:27:29	3321376	4	3	2	3	1	1	1	2	1	4	4	0	0	0	0	3	6
071212	12:27:29	10006	Trial	IncongruentRight	14	205	466	1	113	12:27:29	3322296	4	3	2	3	1	1	1	2	1	4	4	0	0	0	0	3	6
071212	12:27:29	10006	Trial	CongruentRight	14	205	474	1	113	12:27:29	3323295	4	3	2	3	1	1	1	2	1	4	4	0	0	0	0	3	6
071212	12:27:29	10006	Trial	IncongruentLeft	14	203	435	1	113	12:27:29	3324255	4	3	2	3	1	1	1	2	1	4	4	0	0	0	0	3	6
071212	12:27:29	10006	Trial	CongruentLeft	14	203	411	1	113	12:27:29	3325241	4	3	2	3	1	1	1	2	1	4	4	0	0	0	0	3	6
071212	12:27:29	10006	Trial	CongruentRight	14	205	438	1	113	12:27:29	3326281	4	3	2	3	1	1	1	2	1	4	4	0	0	0	0	3	6
071212	12:27:29	10006	Trial	IncongruentLeft	14	203	398	1	113	12:27:29	3327241	4	3	2	3	1	1	1	2	1	4	4	0	0	0	0	3	6
071212	12:27:29	10006	Trial	IncongruentRight	14	205	439	1	113	12:27:29	3328280	4	3	2	3	1	1	1	2	1	4	4	0	0	0	0	3	6
071212	12:27:29	10006	Trial	IncongruentRight	14	205	559	1	113	12:27:29	3329400	4	3	2	3	1	1	1	2	1	4	4	0	0	0	0	3	6
071212	12:27:29	10006	Trial	CongruentLeft	14	203	472	1	113	12:27:29	3330306	4	3	2	3	1	1	1	2	1	4	4	0	0	0	0	3	6
071212	12:27:29	10006	Trial	IncongruentLeft	14	203	528	1	113	12:27:29	3331359	4	3	2	3	1	1	1	2	1	4	4	0	0	0	0	3	6
071212	12:27:29	10006	Trial	CongruentRight	14	205	441	1	113	12:27:29	3332278	4	3	2	3	1	1	1	2	1	4	4	0	0	0	0	3	6
071212	12:27:29	10006	Trial	CongruentLeft	14	203	385	1	113	12:27:29	3333225	4	3	2	3	1	1	1	2	1	4	4	0	0	0	0	3	6
071212	12:27:29	10006	Trial	IncongruentRight	14	205	409	1	113	12:27:29	3334237	4	3	2	3	1	1	1	2	1	4	4	0	0	0	0	3	6
071212	12:27:29	10006	Trial	CongruentRight	14	205	386	1	113	12:27:29	3335224	4	3	2	3	1	1	1	2	1	4	4	0	0	0	0	3	6
071212	12:27:29	10006	Trial	IncongruentLeft	14	203	378	1	113	12:27:29	3336210	4	3	2	3	1	1	1	2	1	4	4	0	0	0	0	3	6
071212	12:27:29	10006	Trial	CongruentLeft	14	203	418	1	113	12:27:29	3337250	4	3	2	3	1	1	1	2	1	4	4	0	0	0	0	3	6
071212	12:27:29	10006	Trial	IncongruentLeft	14	203	443	1	113	12:27:29	3338276	4	3	2	3	1	1	1	2	1	4	4	0	0	0	0	3	6
071212	12:27:29	10006	Trial	IncongruentRight	14	205	499	1	113	12:27:29	3339329	4	3	2	3	1	1	1	2	1	4	4	0	0	0	0	3	6
071212	12:27:29	10006	Trial	CongruentRight	14	205	476	1	113	12:27:29	3340302	4	3	2	3	1	1	1	2	1	4	4	0	0	0	0	3	6
071212	12:27:29	10006	Trial	CongruentLeft	14	203	420	1	113	12:27:29	3341248	4	3	2	3	1	1	1	2	1	4	4	0	0	0	0	3	6
071212	12:27:29	10006	Trial	CongruentLeft	14	203	479	1	113	12:27:29	3342314	4	3	2	3	1	1	1	2	1	4	4	0	0	0	0	3	6
071212	12:27:29	10006	Trial	IncongruentRight	14	205	453	1	113	12:27:29	3343287	4	3	2	3	1	1	1	2	1	4	4	0	0	0	0	3	6
071212	12:27:29	10006	Trial	IncongruentLeft	14	203	509	1	113	12:27:29	3344340	4	3	2	3	1	1	1	2	1	4	4	0	0	0	0	3	6
071212	12:27:29	10006	Trial	IncongruentRight	14	205	453	1	113	12:27:29	3345286	4	3	2	3	1	1	1	2	1	4	4	0	0	0	0	3	6
071212	12:27:29	10006	Trial	CongruentRight	14	205	478	1	113	12:27:29	3346312	4	3	2	3	1	1	1	2	1	4	4	0	0	0	0	3	6
071212	12:27:29	10006	Trial	CongruentRight	14	205	518	1	113	12:27:29	3347352	4	3	2	3	1	1	1	2	1	4	4	0	0	0	0	3	6
071212	12:27:29	10006	Trial	IncongruentLeft	14	203	463	1	113	12:27:29	3348285	4	3	2	3	1	1	1	2	1	4	4	0	0	0	0	3	6
071212	12:27:29	10006	Trial	CongruentLeft	14	203	439	1	113	12:27:29	3349271	4	3	2	3	1	1	1	2	1	4	4	0	0	0	0	3	6
071212	12:27:29	10006	Trial	CongruentRight	14	205	447	1	113	12:27:29	3350271	4	3	2	3	1	1	1	2	1	4	4	0	0	0	0	3	6
071212	12:27:29	10006	Trial	CongruentLeft	14	203	520	1	113	12:27:29	3351351	4	3	2	3	1	1	1	2	1	4	4	0	0	0	0	3	6
071212	12:27:29	10006	Trial	IncongruentRight	14	205	496	1	113	12:27:29	3352323	4	3	2	3	1	1	1	2	1	4	4	0	0	0	0	3	6
071212	12:27:29	10006	Trial	CongruentRight	14	205	488	1	113	12:27:29	3353310	4	3	2	3	1	1	1	2	1	4	4	0	0	0	0	3	6
071212	12:27:29	10006	Trial	CongruentLeft	14	203	417	1	113	12:27:29	3354243	4	3	2	3	1	1	1	2	1	4	4	0	0	0	0	3	6
071212	12:27:29	10006	Trial	IncongruentLeft	14	203	489	1	113	12:27:29	3355309	4	3	2	3	1	1	1	2	1	4	4	0	0	0	0	3	6
071212	12:27:29	10006	Trial	IncongruentLeft	14	203	466	1	113	12:27:29	3356295	4	3	2	3	1	1	1	2	1	4	4	0	0	0	0	3	6
071212	12:27:29	10006	Trial	CongruentRight	14	205	461	1	113	12:27:29	3357295	4	3	2	3	1	1	1	2	1	4	4	0	0	0	0	3	6
071212	12:27:29	10006	Trial	IncongruentRight	14	205	389	1	113	12:27:29	3358228	4	3	2	3	1	1	1	2	1	4	4	0	0	0	0	3	6
071212	12:27:29	10006	Trial	CongruentLeft	14	203	365	1	113	12:27:29	3359201	4	3	2	3	1	1	1	2	1	4	4	0	0	0	0	3	6
071212	12:27:29	10006	Trial	IncongruentRight	14	205	470	1	113	12:27:29	3360307	4	3	2	3	1	1	1	2	1	4	4	0	0	0	0	3	6
071212	12:27:29	10006	Trial	CongruentRight	14	205	494	1	113	12:27:29	3361333	4	3	2	3	1	1	1	2	1	4	4	0	0	0	0	3	6
071212	12:27:29	10006	Trial	IncongruentLeft	14	203	375	1	113	12:27:29	3362213	4	3	2	3	1	1	1	2	1	4	4	0	0	0	0	3	6
071212	12:27:29	10006	Trial	CongruentLeft	14	203	415	1	113	12:27:29	3363252	4	3	2	3	1	1	1	2	1	4	4	0	0	0	0	3	6
071212	12:27:29	10006	Trial	CongruentRight	14	205	423	1	113	12:27:29	3364252	4	3	2	3	1	1	1	2	1	4	4	0	0	0	0	3	6
071212	12:27:29	10006	Trial	IncongruentLeft	14	203	464	1	113	12:27:29	3365291	4	3	2	3	1	1	1	2	1	4	4	0	0	0	0	3	6
071212	12:27:29	10006	Trial	CongruentRight	14	205	408	1	113	12:27:29	3366238	4	3	2	3	1	1	1	2	1	4	4	0	0	0	0	3	6
071212	12:27:29	10006	Trial	CongruentRight	14	205	417	1	113	12:27:29	3367250	4	3	2	3	1	1	1	2	1	4	4	0	0	0	0	3	6
071212	12:27:29	10006	Trial	IncongruentRight	14	205	553	1	113	12:27:29	3368384	4	3	2	3	1	1	1	2	1	4	4	0	0	0	0	3	6
071212	12:27:29	10006	Trial	CongruentLeft	14	203	481	1	113	12:27:29	3369316	4	3	2	3	1	1	1	2	1	4	4	0	0	0	0	3	6
071212	12:27:29	10006	Trial	IncongruentLeft	14	203	410	1	113	12:27:29	3370236	4	3	2	3	1	1	1	2	1	4	4	0	0	0	0	3	6
071212	12:27:29	10006	Trial	CongruentLeft	14	203	498	1	113	12:27:29	3371329	4	3	2	3	1	1	1	2	1	4	4	0	0	0	0	3	6
071212	12:27:29	10006	Trial	IncongruentRight	14	205	426	1	113	12:27:29	3372262	4	3	2	3	1	1	1	2	1	4	4	0	0	0	0	3	6
071212	12:27:29	10006	Trial	IncongruentLeft	14	203	531	1	113	12:27:29	3373355	4	3	2	3	1	1	1	2	1	4	4	0	0	0	0	3	6
071212	12:27:29	10006	Trial	CongruentRight	14	205	443	1	113	12:27:29	3374274	4	3	2	3	1	1	1	2	1	4	4	0	0	0	0	3	6
071212	12:27:29	10006	Trial	CongruentLeft	14	203	356	1	113	12:27:29	3375181	4	3	2	3	1	1	1	2	1	4	4	0	0	0	0	3	6
071212	12:27:29	10006	Trial	IncongruentLeft	14	205	316	0	113	12:27:29	3376140	4	3	2	3	1	1	1	2	1	4	4	0	0	0	0	3	6
071212	12:27:29	10006	Trial	CongruentLeft	14	203	486	1	113	12:27:29	3377313	4	3	2	3	1	1	1	2	1	4	4	0	0	0	0	3	6
071212	12:27:29	10006	Trial	IncongruentRight	14	205	541	1	113	12:27:29	3378366	4	3	2	3	1	1	1	2	1	4	4	0	0	0	0	3	6
071212	12:27:29	10006	Trial	CongruentRight	14	205	517	1	113	12:27:29	3379339	4	3	2	3	1	1	1	2	1	4	4	0	0	0	0	3	6
071212	12:27:29	10006	Trial	IncongruentLeft	14	203	510	1	113	12:27:29	3380338	4	3	2	3	1	1	1	2	1	4	4	0	0	0	0	3	6
071212	12:27:29	10006	Trial	CongruentLeft	14	203	518	1	113	12:27:29	3381351	4	3	2	3	1	1	1	2	1	4	4	0	0	0	0	3	6
071212	12:27:29	10006	Trial	IncongruentRight	14	205	526	1	113	12:27:29	3382351	4	3	2	3	1	1	1	2	1	4	4	0	0	0	0	3	6
071212	12:27:29	10006	Trial	IncongruentLeft	14	203	583	1	113	12:27:29	3383404	4	3	2	3	1	1	1	2	1	4	4	0	0	0	0	3	6
071212	12:27:29	10006	Trial	CongruentLeft	14	203	495	1	113	12:27:29	3384324	4	3	2	3	1	1	1	2	1	4	4	0	0	0	0	3	6
071212	12:27:29	10006	Trial	IncongruentLeft	14	203	519	1	113	12:27:29	3385350	4	3	2	3	1	1	1	2	1	4	4	0	0	0	0	3	6
071212	12:27:29	10006	Trial	CongruentRight	14	205	432	1	113	12:27:29	3386256	4	3	2	3	1	1	1	2	1	4	4	0	0	0	0	3	6
071212	12:27:29	10006	Trial	CongruentLeft	14	203	472	1	113	12:27:29	3387296	4	3	2	3	1	1	1	2	1	4	4	0	0	0	0	3	6
071212	12:27:29	10006	Trial	IncongruentRight	14	205	465	1	113	12:27:29	3388295	4	3	2	3	1	1	1	2	1	4	4	0	0	0	0	3	6
071212	12:27:29	10006	Trial	CongruentLeft	14	203	524	1	113	12:27:29	3389362	4	3	2	3	1	1	1	2	1	4	4	0	0	0	0	3	6
071212	12:27:29	10006	Trial	CongruentRight	14	205	420	1	113	12:27:29	3390254	4	3	2	3	1	1	1	2	1	4	4	0	0	0	0	3	6
071212	12:27:29	10006	Trial	IncongruentLeft	14	203	364	1	113	12:27:29	3391201	4	3	2	3	1	1	1	2	1	4	4	0	0	0	0	3	6
071212	12:27:29	10006	Trial750Fr	IncongruentRight750	15	0	487	0	113	12:27:29	3402516	4	3	2	3	1	1	1	2	1	4	4	0	0	0	0	3	6
071212	12:27:29	10006	Trial750Fr	IncongruentLeft750	15	203	425	1	113	12:27:29	3403223	4	3	2	3	1	1	1	2	1	4	4	0	0	0	0	3	6
071212	12:27:29	10006	Trial750Fr	CongruentRight750	15	205	417	1	113	12:27:29	3403969	4	3	2	3	1	1	1	2	1	4	4	0	0	0	0	3	6
071212	12:27:29	10006	Trial750Fr	IncongruentRight750	15	205	407	1	113	12:27:29	3404702	4	3	2	3	1	1	1	2	1	4	4	0	0	0	0	3	6
071212	12:27:29	10006	Trial750Fr	CongruentLeft750	15	203	348	1	113	12:27:29	3405395	4	3	2	3	1	1	1	2	1	4	4	0	0	0	0	3	6
071212	12:27:29	10006	Trial750Fr	CongruentRight750	15	205	389	1	113	12:27:29	3406194	4	3	2	3	1	1	1	2	1	4	4	0	0	0	0	3	6
071212	12:27:29	10006	Trial750Fr	IncongruentRight750	15	205	458	1	113	12:27:29	3407008	4	3	2	3	1	1	1	2	1	4	4	0	0	0	0	3	6
071212	12:27:29	10006	Trial750Fr	CongruentLeft750	15	203	464	1	113	12:27:29	3407754	4	3	2	3	1	1	1	2	1	4	4	0	0	0	0	3	6
071212	12:27:29	10006	Trial750Fr	IncongruentLeft750	15	0	487	0	113	12:27:29	3408527	4	3	2	3	1	1	1	2	1	4	4	0	0	0	0	3	6
071212	12:27:29	10006	Trial750Fr	IncongruentLeft750	15	203	447	1	113	12:27:29	3409247	4	3	2	3	1	1	1	2	1	4	4	0	0	0	0	3	6
071212	12:27:29	10006	Trial750Fr	CongruentRight750	15	205	470	1	113	12:27:29	3410033	4	3	2	3	1	1	1	2	1	4	4	0	0	0	0	3	6
071212	12:27:29	10006	Trial750Fr	IncongruentRight750	15	205	460	1	113	12:27:29	3410766	4	3	2	3	1	1	1	2	1	4	4	0	0	0	0	3	6
071212	12:27:29	10006	Trial750Fr	CongruentLeft750	15	203	420	1	113	12:27:29	3411486	4	3	2	3	1	1	1	2	1	4	4	0	0	0	0	3	6
071212	12:27:29	10006	Trial750Fr	CongruentRight750	15	205	425	1	113	12:27:29	3412245	4	3	2	3	1	1	1	2	1	4	4	0	0	0	0	3	6
071212	12:27:29	10006	Trial750Fr	IncongruentLeft750	15	203	431	1	113	12:27:29	3412992	4	3	2	3	1	1	1	2	1	4	4	0	0	0	0	3	6
071212	12:27:29	10006	Trial750Fr	IncongruentRight750	15	205	391	1	113	12:27:29	3413711	4	3	2	3	1	1	1	2	1	4	4	0	0	0	0	3	6
071212	12:27:29	10006	Trial750Fr	CongruentRight750	15	0	487	0	113	12:27:29	3414538	4	3	2	3	1	1	1	2	1	4	4	0	0	0	0	3	6
071212	12:27:29	10006	Trial750Fr	CongruentLeft750	15	203	434	1	113	12:27:29	3415244	4	3	2	3	1	1	1	2	1	4	4	0	0	0	0	3	6
071212	12:27:29	10006	Trial750Fr	CongruentRight750	15	205	411	1	113	12:27:29	3415990	4	3	2	3	1	1	1	2	1	4	4	0	0	0	0	3	6
071212	12:27:29	10006	Trial750Fr	IncongruentRight750	15	0	487	0	113	12:27:29	3416803	4	3	2	3	1	1	1	2	1	4	4	0	0	0	0	3	6
071212	12:27:29	10006	Trial750Fr	IncongruentLeft750	15	203	411	1	113	12:27:29	3417496	4	3	2	3	1	1	1	2	1	4	4	0	0	0	0	3	6
071212	12:27:29	10006	Trial750Fr	IncongruentLeft750	15	0	487	0	113	12:27:29	3418323	4	3	2	3	1	1	1	2	1	4	4	0	0	0	0	3	6
071212	12:27:29	10006	Trial750Fr	CongruentLeft750	15	0	487	0	113	12:27:29	3419083	4	3	2	3	1	1	1	2	1	4	4	0	0	0	0	3	6
071212	12:27:29	10006	Trial750Fr	CongruentRight750	15	205	482	1	113	12:27:29	3419842	4	3	2	3	1	1	1	2	1	4	4	0	0	0	0	3	6
071212	12:27:29	10006	Trial750Fr	IncongruentLeft750	15	203	458	1	113	12:27:29	3420575	4	3	2	3	1	1	1	2	1	4	4	0	0	0	0	3	6
071212	12:27:29	10006	Trial750Fr	IncongruentRight750	15	205	434	1	113	12:27:29	3421308	4	3	2	3	1	1	1	2	1	4	4	0	0	0	0	3	6
071212	12:27:29	10006	Trial750Fr	CongruentRight750	15	205	472	1	113	12:27:29	3422094	4	3	2	3	1	1	1	2	1	4	4	0	0	0	0	3	6
071212	12:27:29	10006	Trial750Fr	CongruentLeft750	15	203	381	1	113	12:27:29	3422748	4	3	2	3	1	1	1	2	1	4	4	0	0	0	0	3	6
071212	12:27:29	10006	Trial750Fr	IncongruentRight750	15	205	374	1	113	12:27:29	3423507	4	3	2	3	1	1	1	2	1	4	4	0	0	0	0	3	6
071212	12:27:29	10006	Trial750Fr	IncongruentLeft750	15	203	348	1	113	12:27:29	3424227	4	3	2	3	1	1	1	2	1	4	4	0	0	0	0	3	6
071212	12:27:29	10006	Trial750Fr	IncongruentRight750	15	205	369	1	113	12:27:29	3424987	4	3	2	3	1	1	1	2	1	4	4	0	0	0	0	3	6
071212	12:27:29	10006	Trial750Fr	CongruentRight750	15	205	362	1	113	12:27:29	3425746	4	3	2	3	1	1	1	2	1	4	4	0	0	0	0	3	6
071212	12:27:29	10006	Trial750Fr	IncongruentLeft750	15	203	367	1	113	12:27:29	3426493	4	3	2	3	1	1	1	2	1	4	4	0	0	0	0	3	6
071212	12:27:29	10006	Trial750Fr	CongruentLeft750	15	203	453	1	113	12:27:29	3427332	4	3	2	3	1	1	1	2	1	4	4	0	0	0	0	3	6
071212	12:27:29	10006	Trial750Fr	CongruentRight750	15	205	474	1	113	12:27:29	3428092	4	3	2	3	1	1	1	2	1	4	4	0	0	0	0	3	6
071212	12:27:29	10006	Trial750Fr	IncongruentLeft750	15	203	422	1	113	12:27:29	3428799	4	3	2	3	1	1	1	2	1	4	4	0	0	0	0	3	6
071212	12:27:29	10006	Trial750Fr	IncongruentRight750	15	205	440	1	113	12:27:29	3429571	4	3	2	3	1	1	1	2	1	4	4	0	0	0	0	3	6
071212	12:27:29	10006	Trial750Fr	IncongruentRight750	15	203	398	0	113	12:27:29	3430278	4	3	2	3	1	1	1	2	1	4	4	0	0	0	0	3	6
071212	12:27:29	10006	Trial750Fr	CongruentLeft750	15	0	487	0	113	12:27:29	3431104	4	3	2	3	1	1	1	2	1	4	4	0	0	0	0	3	6
071212	12:27:29	10006	Trial750Fr	IncongruentLeft750	15	0	487	0	113	12:27:29	3431864	4	3	2	3	1	1	1	2	1	4	4	0	0	0	0	3	6
071212	12:27:29	10006	Trial750Fr	CongruentRight750	15	205	436	1	113	12:27:29	3432570	4	3	2	3	1	1	1	2	1	4	4	0	0	0	0	3	6
071212	12:27:29	10006	Trial750Fr	CongruentLeft750	15	0	487	0	113	12:27:29	3433370	4	3	2	3	1	1	1	2	1	4	4	0	0	0	0	3	6
071212	12:27:29	10006	Trial750Fr	IncongruentRight750	15	205	466	1	113	12:27:29	3434116	4	3	2	3	1	1	1	2	1	4	4	0	0	0	0	3	6
071212	12:27:29	10006	Trial750Fr	CongruentRight750	15	205	458	1	113	12:27:29	3434863	4	3	2	3	1	1	1	2	1	4	4	0	0	0	0	3	6
071212	12:27:29	10006	Trial750Fr	IncongruentLeft750	15	0	487	0	113	12:27:29	3435636	4	3	2	3	1	1	1	2	1	4	4	0	0	0	0	3	6
071212	12:27:29	10006	Trial750Fr	CongruentLeft750	15	0	487	0	113	12:27:29	3436396	4	3	2	3	1	1	1	2	1	4	4	0	0	0	0	3	6
071212	12:27:29	10006	Trial750Fr	IncongruentLeft750	15	0	487	0	113	12:27:29	3437155	4	3	2	3	1	1	1	2	1	4	4	0	0	0	0	3	6
071212	12:27:29	10006	Trial750Fr	IncongruentRight750	15	205	440	1	113	12:27:29	3437875	4	3	2	3	1	1	1	2	1	4	4	0	0	0	0	3	6
071212	12:27:29	10006	Trial750Fr	CongruentRight750	15	205	433	1	113	12:27:29	3438621	4	3	2	3	1	1	1	2	1	4	4	0	0	0	0	3	6
071212	12:27:29	10006	Trial750Fr	CongruentLeft750	15	203	438	1	113	12:27:29	3439381	4	3	2	3	1	1	1	2	1	4	4	0	0	0	0	3	6
071212	12:27:29	10006	Trial750Fr	CongruentLeft750	15	203	460	1	113	12:27:29	3440140	4	3	2	3	1	1	1	2	1	4	4	0	0	0	0	3	6
071212	12:27:29	10006	Trial750Fr	IncongruentRight750	15	0	487	0	113	12:27:29	3440914	4	3	2	3	1	1	1	2	1	4	4	0	0	0	0	3	6
071212	12:27:29	10006	Trial750Fr	IncongruentLeft750	15	203	426	1	113	12:27:29	3441620	4	3	2	3	1	1	1	2	1	4	4	0	0	0	0	3	6
071212	12:27:29	10006	Trial750Fr	IncongruentRight750	15	0	487	0	113	12:27:29	3442420	4	3	2	3	1	1	1	2	1	4	4	0	0	0	0	3	6
071212	12:27:29	10006	Trial750Fr	CongruentRight750	15	0	487	0	113	12:27:29	3443179	4	3	2	3	1	1	1	2	1	4	4	0	0	0	0	3	6
071212	12:27:29	10006	Trial750Fr	CongruentRight750	15	0	487	0	113	12:27:29	3443939	4	3	2	3	1	1	1	2	1	4	4	0	0	0	0	3	6
071212	12:27:29	10006	Trial750Fr	IncongruentLeft750	15	0	487	0	113	12:27:29	3444699	4	3	2	3	1	1	1	2	1	4	4	0	0	0	0	3	6
071212	12:27:29	10006	Trial750Fr	CongruentLeft750	15	0	487	0	113	12:27:29	3445458	4	3	2	3	1	1	1	2	1	4	4	0	0	0	0	3	6
071212	12:27:29	10006	Trial750Fr	CongruentRight750	15	0	487	0	113	12:27:29	3446218	4	3	2	3	1	1	1	2	1	4	4	0	0	0	0	3	6
071212	12:27:29	10006	Trial750Fr	CongruentLeft750	15	203	465	1	113	12:27:29	3446964	4	3	2	3	1	1	1	2	1	4	4	0	0	0	0	3	6
071212	12:27:29	10006	Trial750Fr	IncongruentRight750	15	205	442	1	113	12:27:29	3447697	4	3	2	3	1	1	1	2	1	4	4	0	0	0	0	3	6
071212	12:27:29	10006	Trial750Fr	CongruentRight750	15	0	487	0	113	12:27:29	3448484	4	3	2	3	1	1	1	2	1	4	4	0	0	0	0	3	6
071212	12:27:29	10006	Trial750Fr	CongruentLeft750	15	203	471	1	113	12:27:29	3449230	4	3	2	3	1	1	1	2	1	4	4	0	0	0	0	3	6
071212	12:27:29	10006	Trial750Fr	IncongruentLeft750	15	203	448	1	113	12:27:29	3449963	4	3	2	3	1	1	1	2	1	4	4	0	0	0	0	3	6
071212	12:27:29	10006	Trial750Fr	IncongruentLeft750	15	203	469	1	113	12:27:29	3450736	4	3	2	3	1	1	1	2	1	4	4	0	0	0	0	3	6
071212	12:27:29	10006	Trial750Fr	CongruentRight750	15	0	487	0	113	12:27:29	3451496	4	3	2	3	1	1	1	2	1	4	4	0	0	0	0	3	6
071212	12:27:29	10006	Trial750Fr	IncongruentRight750	15	205	451	1	113	12:27:29	3452229	4	3	2	3	1	1	1	2	1	4	4	0	0	0	0	3	6
071212	12:27:29	10006	Trial750Fr	CongruentLeft750	15	203	444	1	113	12:27:29	3452975	4	3	2	3	1	1	1	2	1	4	4	0	0	0	0	3	6
071212	12:27:29	10006	Trial750Fr	IncongruentRight750	15	0	487	0	113	12:27:29	3453762	4	3	2	3	1	1	1	2	1	4	4	0	0	0	0	3	6
071212	12:27:29	10006	Trial750Fr	CongruentRight750	15	0	487	0	113	12:27:29	3454521	4	3	2	3	1	1	1	2	1	4	4	0	0	0	0	3	6
071212	12:27:29	10006	Trial750Fr	IncongruentLeft750	15	0	487	0	113	12:27:29	3455281	4	3	2	3	1	1	1	2	1	4	4	0	0	0	0	3	6
071212	12:27:29	10006	Trial750Fr	CongruentLeft750	15	0	487	0	113	12:27:29	3456041	4	3	2	3	1	1	1	2	1	4	4	0	0	0	0	3	6
071212	12:27:29	10006	Trial750Fr	CongruentRight750	15	205	418	1	113	12:27:29	3456734	4	3	2	3	1	1	1	2	1	4	4	0	0	0	0	3	6
071212	12:27:29	10006	Trial750Fr	IncongruentLeft750	15	203	411	1	113	12:27:29	3457480	4	3	2	3	1	1	1	2	1	4	4	0	0	0	0	3	6
071212	12:27:29	10006	Trial750Fr	CongruentRight750	15	205	400	1	113	12:27:29	3458226	4	3	2	3	1	1	1	2	1	4	4	0	0	0	0	3	6
071212	12:27:29	10006	Trial750Fr	CongruentRight750	15	203	326	0	113	12:27:29	3458893	4	3	2	3	1	1	1	2	1	4	4	0	0	0	0	3	6
071212	12:27:29	10006	Trial750Fr	IncongruentRight750	15	205	462	1	113	12:27:29	3459786	4	3	2	3	1	1	1	2	1	4	4	0	0	0	0	3	6
071212	12:27:29	10006	Trial750Fr	CongruentLeft750	15	0	487	0	113	12:27:29	3460559	4	3	2	3	1	1	1	2	1	4	4	0	0	0	0	3	6
071212	12:27:29	10006	Trial750Fr	IncongruentLeft750	15	0	487	0	113	12:27:29	3461318	4	3	2	3	1	1	1	2	1	4	4	0	0	0	0	3	6
071212	12:27:29	10006	Trial750Fr	CongruentLeft750	15	0	487	0	113	12:27:29	3462078	4	3	2	3	1	1	1	2	1	4	4	0	0	0	0	3	6
071212	12:27:29	10006	Trial750Fr	IncongruentRight750	15	203	253	0	113	12:27:29	3462611	4	3	2	3	1	1	1	2	1	4	4	0	0	0	0	3	6
071212	12:27:29	10006	Trial750Fr	IncongruentLeft750	15	0	487	0	113	12:27:29	3463584	4	3	2	3	1	1	1	2	1	4	4	0	0	0	0	3	6
071212	12:27:29	10006	Trial750Fr	CongruentRight750	15	0	487	0	113	12:27:29	3464344	4	3	2	3	1	1	1	2	1	4	4	0	0	0	0	3	6
071212	12:27:29	10006	Trial750Fr	CongruentLeft750	15	203	435	1	113	12:27:29	3465050	4	3	2	3	1	1	1	2	1	4	4	0	0	0	0	3	6
071212	12:27:29	10006	Trial750Fr	IncongruentLeft750	15	203	443	1	113	12:27:29	3465823	4	3	2	3	1	1	1	2	1	4	4	0	0	0	0	3	6
071212	12:27:29	10006	Trial750Fr	CongruentLeft750	15	0	487	0	113	12:27:29	3466610	4	3	2	3	1	1	1	2	1	4	4	0	0	0	0	3	6
071212	12:27:29	10006	Trial750Fr	IncongruentRight750	15	205	457	1	113	12:27:29	3467343	4	3	2	3	1	1	1	2	1	4	4	0	0	0	0	3	6
071212	12:27:29	10006	Trial750Fr	CongruentRight750	15	0	487	0	113	12:27:29	3468116	4	3	2	3	1	1	1	2	1	4	4	0	0	0	0	3	6
071212	12:27:29	10006	Trial750Fr	IncongruentLeft750	15	203	471	1	113	12:27:29	3468862	4	3	2	3	1	1	1	2	1	4	4	0	0	0	0	3	6
071212	12:27:29	10006	Trial750Fr	CongruentLeft750	15	0	487	0	113	12:27:29	3469622	4	3	2	3	1	1	1	2	1	4	4	0	0	0	0	3	6
071212	12:27:29	10006	Trial750Fr	IncongruentRight750	15	205	405	1	113	12:27:29	3470302	4	3	2	3	1	1	1	2	1	4	4	0	0	0	0	3	6
071212	12:27:29	10006	Trial750Fr	IncongruentLeft750	15	203	349	1	113	12:27:29	3471008	4	3	2	3	1	1	1	2	1	4	4	0	0	0	0	3	6
071212	12:27:29	10006	Trial750Fr	CongruentLeft750	15	203	467	1	113	12:27:29	3471874	4	3	2	3	1	1	1	2	1	4	4	0	0	0	0	3	6
071212	12:27:29	10006	Trial750Fr	IncongruentLeft750	15	0	487	0	113	12:27:29	3472634	4	3	2	3	1	1	1	2	1	4	4	0	0	0	0	3	6
071212	12:27:29	10006	Trial750Fr	CongruentRight750	15	205	465	1	113	12:27:29	3473380	4	3	2	3	1	1	1	2	1	4	4	0	0	0	0	3	6
071212	12:27:29	10006	Trial750Fr	CongruentLeft750	15	205	393	0	113	12:27:29	3474060	4	3	2	3	1	1	1	2	1	4	4	0	0	0	0	3	6
071212	12:27:29	10006	Trial750Fr	IncongruentRight750	15	203	382	0	113	12:27:29	3474793	4	3	2	3	1	1	1	2	1	4	4	0	0	0	0	3	6
071212	12:27:29	10006	Trial750Fr	CongruentLeft750	15	0	487	0	113	12:27:29	3475646	4	3	2	3	1	1	1	2	1	4	4	0	0	0	0	3	6
071212	12:27:29	10006	Trial750Fr	CongruentRight750	15	0	487	0	113	12:27:29	3476406	4	3	2	3	1	1	1	2	1	4	4	0	0	0	0	3	6
071212	12:27:29	10006	Trial750Fr	IncongruentLeft750	15	205	5	0	113	12:27:29	3476686	4	3	2	3	1	1	1	2	1	4	4	0	0	0	0	3	6
071212	12:27:29	10006	WordsAbsFr3mo	PAbsFr3mo1	16	Abs1	4783	0	113	12:27:29	3494771	4	3	2	3	1	1	1	2	1	4	4	0	0	0	0	3	6
071212	12:27:29	10006	WordsAbsFr3mo	AbsFr3mo1	16	Abs1	31094	0	113	12:27:29	3525905	4	3	2	3	1	1	1	2	1	4	4	1	0	0	0	3	6
071212	12:27:29	10006	WordsAbsFr3mo	AbsFr3mo2	16	Abs1	13512	0	113	12:27:29	3539459	4	3	2	3	1	1	1	2	1	4	4	2	0	0	0	3	6
071212	12:27:29	10006	WordsAbsFr3mo	AbsFr3mo3	16	Abs1	26532	0	113	12:27:29	3566035	4	3	2	3	1	1	1	2	1	4	4	3	0	0	0	3	6
071212	12:27:29	10006	Trial2BackFrS	NS	17	0	1000	1	113	12:27:29	3618360	4	3	2	3	1	1	1	2	1	4	4	3	0	0	0	3	6
071212	12:27:29	10006	Trial2BackFrS	NS	17	0	1000	1	113	12:27:29	3619879	4	3	2	3	1	1	1	2	1	4	4	3	0	0	0	3	6
071212	12:27:29	10006	Trial2BackFrS	NS	17	0	1000	1	113	12:27:29	3621399	4	3	2	3	1	1	1	2	1	4	4	3	0	0	0	3	6
071212	12:27:29	10006	Trial2BackFrS	YS	17	57	579	1	113	12:27:29	3622505	4	3	2	3	1	1	1	2	1	4	4	3	0	0	0	3	6
071212	12:27:29	10006	Trial2BackFrS	NS	17	0	1000	1	113	12:27:29	3624425	4	3	2	3	1	1	1	2	1	4	4	3	0	0	0	3	6
071212	12:27:29	10006	Trial2BackFrS	NS	17	0	1000	1	113	12:27:29	3625943	4	3	2	3	1	1	1	2	1	4	4	3	0	0	0	3	6
071212	12:27:29	10006	Trial2BackFrS	NS	17	0	1000	1	113	12:27:29	3627463	4	3	2	3	1	1	1	2	1	4	4	3	0	0	0	3	6
071212	12:27:29	10006	Trial2BackFrS	NS	17	57	515	0	113	12:27:29	3628502	4	3	2	3	1	1	1	2	1	4	4	3	0	0	0	3	6
071212	12:27:29	10006	Trial2BackFrS	YS	17	0	1000	0	113	12:27:29	3630488	4	3	2	3	1	1	1	2	1	4	4	3	0	0	0	3	6
071212	12:27:29	10006	Trial2BackFrS	NS	17	0	1000	1	113	12:27:29	3632008	4	3	2	3	1	1	1	2	1	4	4	3	0	0	0	3	6
071212	12:27:29	10006	Trial2BackFrS	NS	17	0	1000	1	113	12:27:29	3633527	4	3	2	3	1	1	1	2	1	4	4	3	0	0	0	3	6
071212	12:27:29	10006	Trial2BackFrS	YS	17	0	1000	0	113	12:27:29	3635046	4	3	2	3	1	1	1	2	1	4	4	3	0	0	0	3	6
071212	12:27:29	10006	Trial2BackFrS	NS	17	0	1000	1	113	12:27:29	3636566	4	3	2	3	1	1	1	2	1	4	4	3	0	0	0	3	6
071212	12:27:29	10006	Trial2BackFrS	NS	17	0	1000	1	113	12:27:29	3638085	4	3	2	3	1	1	1	2	1	4	4	3	0	0	0	3	6
071212	12:27:29	10006	Trial2BackFrS	NS	17	0	1000	1	113	12:27:29	3639605	4	3	2	3	1	1	1	2	1	4	4	3	0	0	0	3	6
071212	12:27:29	10006	Trial2BackFrS	YS	17	57	564	1	113	12:27:29	3640697	4	3	2	3	1	1	1	2	1	4	4	3	0	0	0	3	6
071212	12:27:29	10006	Trial2BackFrS	NS	17	0	1000	1	113	12:27:29	3642630	4	3	2	3	1	1	1	2	1	4	4	3	0	0	0	3	6
071212	12:27:29	10006	Trial2BackFrS	NS	17	0	1000	1	113	12:27:29	3644149	4	3	2	3	1	1	1	2	1	4	4	3	0	0	0	3	6
071212	12:27:29	10006	Trial2BackFrS	NS	17	0	1000	1	113	12:27:29	3645669	4	3	2	3	1	1	1	2	1	4	4	3	0	0	0	3	6
071212	12:27:29	10006	Trial2BackFrS	NS	17	57	676	0	113	12:27:29	3646868	4	3	2	3	1	1	1	2	1	4	4	3	0	0	0	3	6
071212	12:27:29	10006	Trial2BackFrS	YS	17	0	1000	0	113	12:27:29	3648694	4	3	2	3	1	1	1	2	1	4	4	3	0	0	0	3	6
071212	12:27:29	10006	Trial2BackFrS	NS	17	0	1000	1	113	12:27:29	3650213	4	3	2	3	1	1	1	2	1	4	4	3	0	0	0	3	6
071212	12:27:29	10006	Trial2BackFrS	NS	17	0	1000	1	113	12:27:29	3651733	4	3	2	3	1	1	1	2	1	4	4	3	0	0	0	3	6
071212	12:27:29	10006	Trial2BackFrS	NS	17	0	1000	1	113	12:27:29	3653252	4	3	2	3	1	1	1	2	1	4	4	3	0	0	0	3	6
071212	12:27:29	10006	Trial2BackFrS	NS	17	57	884	0	113	12:27:29	3654665	4	3	2	3	1	1	1	2	1	4	4	3	0	0	0	3	6
071212	12:27:29	10006	Trial2BackFrS	NS	17	0	1000	1	113	12:27:29	3656277	4	3	2	3	1	1	1	2	1	4	4	3	0	0	0	3	6
071212	12:27:29	10006	Trial2BackFrS	NS	17	0	1000	1	113	12:27:29	3657797	4	3	2	3	1	1	1	2	1	4	4	3	0	0	0	3	6
071212	12:27:29	10006	Trial2BackFrS	NS	17	0	1000	1	113	12:27:29	3659316	4	3	2	3	1	1	1	2	1	4	4	3	0	0	0	3	6
071212	12:27:29	10006	Trial2BackFrS	NS	17	0	1000	1	113	12:27:29	3660836	4	3	2	3	1	1	1	2	1	4	4	3	0	0	0	3	6
071212	12:27:29	10006	Trial2BackFrS	NS	17	0	1000	1	113	12:27:29	3662355	4	3	2	3	1	1	1	2	1	4	4	3	0	0	0	3	6
071212	12:27:29	10006	Trial2BackFrS	NS	17	0	1000	1	113	12:27:29	3663874	4	3	2	3	1	1	1	2	1	4	4	3	0	0	0	3	6
071212	12:27:29	10006	Trial2BackFrS	YS	17	0	1000	0	113	12:27:29	3665394	4	3	2	3	1	1	1	2	1	4	4	3	0	0	0	3	6
071212	12:27:29	10006	Trial2BackFrS	NS	17	0	1000	1	113	12:27:29	3666913	4	3	2	3	1	1	1	2	1	4	4	3	0	0	0	3	6
071212	12:27:29	10006	Trial2BackFrS	NS	17	0	1000	1	113	12:27:29	3668432	4	3	2	3	1	1	1	2	1	4	4	3	0	0	0	3	6
071212	12:27:29	10006	Trial2BackFrS	NS	17	0	1000	1	113	12:27:29	3669952	4	3	2	3	1	1	1	2	1	4	4	3	0	0	0	3	6
071212	12:27:29	10006	Trial2BackFrS	YS	17	57	616	1	113	12:27:29	3671098	4	3	2	3	1	1	1	2	1	4	4	3	0	0	0	3	6
071212	12:27:29	10006	Trial2BackFrS	NS	17	0	1000	1	113	12:27:29	3672977	4	3	2	3	1	1	1	2	1	4	4	3	0	0	0	3	6
071212	12:27:29	10006	Trial2BackFrS	NS	17	0	1000	1	113	12:27:29	3674497	4	3	2	3	1	1	1	2	1	4	4	3	0	0	0	3	6
071212	12:27:29	10006	Trial2BackFrS	NS	17	0	1000	1	113	12:27:29	3676016	4	3	2	3	1	1	1	2	1	4	4	3	0	0	0	3	6
071212	12:27:29	10006	Trial2BackFrS	NS	17	57	808	0	113	12:27:29	3677349	4	3	2	3	1	1	1	2	1	4	4	3	0	0	0	3	6
071212	12:27:29	10006	Trial2BackFrS	NS	17	0	1000	1	113	12:27:29	3679041	4	3	2	3	1	1	1	2	1	4	4	3	0	0	0	3	6
071212	12:27:29	10006	Trial2BackFrS	NS	17	0	1000	1	113	12:27:29	3680561	4	3	2	3	1	1	1	2	1	4	4	3	0	0	0	3	6
071212	12:27:29	10006	Trial2BackFrS	NS	17	0	1000	1	113	12:27:29	3682080	4	3	2	3	1	1	1	2	1	4	4	3	0	0	0	3	6
071212	12:27:29	10006	Trial2BackFrS	YS	17	0	1000	0	113	12:27:29	3683599	4	3	2	3	1	1	1	2	1	4	4	3	0	0	0	3	6
071212	12:27:29	10006	Trial2BackFrS	NS	17	0	1000	1	113	12:27:29	3685119	4	3	2	3	1	1	1	2	1	4	4	3	0	0	0	3	6
071212	12:27:29	10006	Trial2BackFrS	NS	17	0	1000	1	113	12:27:29	3686638	4	3	2	3	1	1	1	2	1	4	4	3	0	0	0	3	6
071212	12:27:29	10006	Trial2BackFrS	NS	17	0	1000	1	113	12:27:29	3688158	4	3	2	3	1	1	1	2	1	4	4	3	0	0	0	3	6
071212	12:27:29	10006	Trial2BackFrS	NS	17	0	1000	1	113	12:27:29	3689677	4	3	2	3	1	1	1	2	1	4	4	3	0	0	0	3	6
071212	12:27:29	10006	Trial2BackFrS	YS	17	57	634	1	113	12:27:29	3690836	4	3	2	3	1	1	1	2	1	4	4	3	0	0	0	3	6
071212	12:27:29	10006	Trial2BackFrS	NS	17	0	1000	1	113	12:27:29	3692702	4	3	2	3	1	1	1	2	1	4	4	3	0	0	0	3	6
071212	12:27:29	10006	Trial2BackFrS	NS	17	0	1000	1	113	12:27:29	3694222	4	3	2	3	1	1	1	2	1	4	4	3	0	0	0	3	6
071212	12:27:29	10006	Trial2BackFrS	NS	17	0	1000	1	113	12:27:29	3695741	4	3	2	3	1	1	1	2	1	4	4	3	0	0	0	3	6
071212	12:27:29	10006	Trial2BackFrS	NS	17	0	1000	1	113	12:27:29	3697261	4	3	2	3	1	1	1	2	1	4	4	3	0	0	0	3	6
071212	12:27:29	10006	Trial2BackFrS	NS	17	57	666	0	113	12:27:29	3698460	4	3	2	3	1	1	1	2	1	4	4	3	0	0	0	3	6
071212	12:27:29	10006	Trial2BackFrS	NS	17	0	1000	1	113	12:27:29	3700286	4	3	2	3	1	1	1	2	1	4	4	3	0	0	0	3	6
071212	12:27:29	10006	Trial2BackFrS	YS	17	0	1000	0	113	12:27:29	3701805	4	3	2	3	1	1	1	2	1	4	4	3	0	0	0	3	6
071212	12:27:29	10006	Trial2BackFrS	NS	17	0	1000	1	113	12:27:29	3703325	4	3	2	3	1	1	1	2	1	4	4	3	0	0	0	3	6
071212	12:27:29	10006	Trial2BackFrS	NS	17	0	1000	1	113	12:27:29	3704844	4	3	2	3	1	1	1	2	1	4	4	3	0	0	0	3	6
071212	12:27:29	10006	Trial2BackFrS	NS	17	0	1000	1	113	12:27:29	3706363	4	3	2	3	1	1	1	2	1	4	4	3	0	0	0	3	6
071212	12:27:29	10006	Trial2BackFrS	NS	17	57	699	0	113	12:27:29	3707589	4	3	2	3	1	1	1	2	1	4	4	3	0	0	0	3	6
071212	12:27:29	10006	Trial2BackFrS	NS	17	0	1000	1	113	12:27:29	3709389	4	3	2	3	1	1	1	2	1	4	4	3	0	0	0	3	6
071212	12:27:29	10006	Trial2BackFrS	NS	17	0	1000	1	113	12:27:29	3710922	4	3	2	3	1	1	1	2	1	4	4	3	0	0	0	3	6
071212	12:27:29	10006	Trial2BackFrS	NS	17	0	1000	1	113	12:27:29	3712441	4	3	2	3	1	1	1	2	1	4	4	3	0	0	0	3	6
071212	12:27:29	10006	Trial2BackFrS	YS	17	0	1000	0	113	12:27:29	3713960	4	3	2	3	1	1	1	2	1	4	4	3	0	0	0	3	6
071212	12:27:29	10006	Trial2BackFrS	NS	17	0	1000	1	113	12:27:29	3715480	4	3	2	3	1	1	1	2	1	4	4	3	0	0	0	3	6
071212	12:27:29	10006	Trial2BackFrS	NS	17	0	1000	1	113	12:27:29	3716999	4	3	2	3	1	1	1	2	1	4	4	3	0	0	0	3	6
071212	12:27:29	10006	Trial2BackFrS	NS	17	57	639	0	113	12:27:29	3718172	4	3	2	3	1	1	1	2	1	4	4	3	0	0	0	3	6
071212	12:27:29	10006	Trial2BackFrS	NS	17	0	1000	1	113	12:27:29	3720024	4	3	2	3	1	1	1	2	1	4	4	3	0	0	0	3	6
071212	12:27:29	10006	Trial2BackFrS	YS	17	0	1000	0	113	12:27:29	3721544	4	3	2	3	1	1	1	2	1	4	4	3	0	0	0	3	6
071212	12:27:29	10006	Trial2BackFrS	NS	17	0	1000	1	113	12:27:29	3723063	4	3	2	3	1	1	1	2	1	4	4	3	0	0	0	3	6
071212	12:27:29	10006	Trial2BackFrS	NS	17	0	1000	1	113	12:27:29	3724582	4	3	2	3	1	1	1	2	1	4	4	3	0	0	0	3	6
071212	12:27:29	10006	Trial2BackFrS	YS	17	57	511	1	113	12:27:29	3725622	4	3	2	3	1	1	1	2	1	4	4	3	0	0	0	3	6
071212	12:27:29	10006	Trial2BackFrS	NS	17	0	1000	1	113	12:27:29	3727608	4	3	2	3	1	1	1	2	1	4	4	3	0	0	0	3	6
071212	12:27:29	10006	Trial2BackFrS	NS	17	0	1000	1	113	12:27:29	3729127	4	3	2	3	1	1	1	2	1	4	4	3	0	0	0	3	6
071212	12:27:29	10006	Trial2BackFrS	NS	17	0	1000	1	113	12:27:29	3730647	4	3	2	3	1	1	1	2	1	4	4	3	0	0	0	3	6
071212	12:27:29	10006	Trial2BackFrS	NS	17	0	1000	1	113	12:27:29	3732166	4	3	2	3	1	1	1	2	1	4	4	3	0	0	0	3	6
071212	12:27:29	10006	Trial2BackFrS	NS	17	0	1000	1	113	12:27:29	3733685	4	3	2	3	1	1	1	2	1	4	4	3	0	0	0	3	6
071212	12:27:29	10006	Trial2BackFrS	NS	17	0	1000	1	113	12:27:29	3735205	4	3	2	3	1	1	1	2	1	4	4	3	0	0	0	3	6
071212	12:27:29	10006	Trial2BackFrS	YS	17	57	513	1	113	12:27:29	3736244	4	3	2	3	1	1	1	2	1	4	4	3	0	0	0	3	6
071212	12:27:29	10006	Trial2BackFrS	NS	17	0	1000	1	113	12:27:29	3738230	4	3	2	3	1	1	1	2	1	4	4	3	0	0	0	3	6
071212	12:27:29	10006	Trial2BackFrS	NS	17	0	1000	1	113	12:27:29	3739750	4	3	2	3	1	1	1	2	1	4	4	3	0	0	0	3	6
071212	12:27:29	10006	Trial2BackFrS	NS	17	0	1000	1	113	12:27:29	3741269	4	3	2	3	1	1	1	2	1	4	4	3	0	0	0	3	6
071212	12:27:29	10006	Trial2BackFrS	NS	17	0	1000	1	113	12:27:29	3742788	4	3	2	3	1	1	1	2	1	4	4	3	0	0	0	3	6
071212	12:27:29	10006	Trial2BackFrS	YS	17	57	801	1	113	12:27:29	3744121	4	3	2	3	1	1	1	2	1	4	4	3	0	0	0	3	6
071212	12:27:29	10006	Trial2BackFrS	NS	17	0	1000	1	113	12:27:29	3745814	4	3	2	3	1	1	1	2	1	4	4	3	0	0	0	3	6
071212	12:27:29	10006	Trial2BackFrS	NS	17	0	1000	1	113	12:27:29	3747333	4	3	2	3	1	1	1	2	1	4	4	3	0	0	0	3	6
071212	12:27:29	10006	Trial2BackFrS	NS	17	0	1000	1	113	12:27:29	3748852	4	3	2	3	1	1	1	2	1	4	4	3	0	0	0	3	6
071212	12:27:29	10006	Trial2BackFrS	NS	17	57	534	0	113	12:27:29	3749945	4	3	2	3	1	1	1	2	1	4	4	3	0	0	0	3	6
071212	12:27:29	10006	Trial2BackFrS	YS	17	0	1000	0	113	12:27:29	3751904	4	3	2	3	1	1	1	2	1	4	4	3	0	0	0	3	6
071212	12:27:29	10006	Trial2BackFrS	NS	17	0	1000	1	113	12:27:29	3753424	4	3	2	3	1	1	1	2	1	4	4	3	0	0	0	3	6
071212	12:27:29	10006	Trial2BackFrS	NS	17	0	1000	1	113	12:27:29	3754943	4	3	2	3	1	1	1	2	1	4	4	3	0	0	0	3	6
071212	12:27:29	10006	Trial2BackFrS	YS	17	57	486	1	113	12:27:29	3755956	4	3	2	3	1	1	1	2	1	4	4	3	0	0	0	3	6
071212	12:27:29	10006	Trial2BackFrS	NS	17	0	1000	1	113	12:27:29	3757969	4	3	2	3	1	1	1	2	1	4	4	3	0	0	0	3	6
071212	12:27:29	10006	Trial2BackFrS	NS	17	0	1000	1	113	12:27:29	3759488	4	3	2	3	1	1	1	2	1	4	4	3	0	0	0	3	6
071212	12:27:29	10006	Trial2BackFrS	NS	17	0	1000	1	113	12:27:29	3761008	4	3	2	3	1	1	1	2	1	4	4	3	0	0	0	3	6
071212	12:27:29	10006	Trial2BackFrS	NS	17	57	565	0	113	12:27:29	3762100	4	3	2	3	1	1	1	2	1	4	4	3	0	0	0	3	6
071212	12:27:29	10006	Trial2BackFrS	NS	17	0	1000	1	113	12:27:29	3764033	4	3	2	3	1	1	1	2	1	4	4	3	0	0	0	3	6
071212	12:27:29	10006	Trial2BackFrS	NS	17	0	1000	1	113	12:27:29	3765552	4	3	2	3	1	1	1	2	1	4	4	3	0	0	0	3	6
071212	12:27:29	10006	Trial2BackFrS	NS	17	0	1000	1	113	12:27:29	3767072	4	3	2	3	1	1	1	2	1	4	4	3	0	0	0	3	6
071212	12:27:29	10006	Trial2BackFrS	NS	17	0	1000	1	113	12:27:29	3768591	4	3	2	3	1	1	1	2	1	4	4	3	0	0	0	3	6
071212	12:27:29	10006	Trial2BackFrS	YS	17	57	485	1	113	12:27:29	3769604	4	3	2	3	1	1	1	2	1	4	4	3	0	0	0	3	6
071212	12:27:29	10006	Trial2BackFrS	NS	17	0	1000	1	113	12:27:29	3771616	4	3	2	3	1	1	1	2	1	4	4	3	0	0	0	3	6
071212	12:27:29	10006	Trial2BackFrS	NS	17	0	1000	1	113	12:27:29	3773136	4	3	2	3	1	1	1	2	1	4	4	3	0	0	0	3	6
071212	12:27:29	10006	Trial2BackFrS	NS	17	0	1000	1	113	12:27:29	3774655	4	3	2	3	1	1	1	2	1	4	4	3	0	0	0	3	6
071212	12:27:29	10006	Trial2BackFrS	NS	17	0	1000	1	113	12:27:29	3776174	4	3	2	3	1	1	1	2	1	4	4	3	0	0	0	3	6
071212	12:27:29	10006	Trial2BackFrS	NS	17	0	1000	1	113	12:27:29	3777694	4	3	2	3	1	1	1	2	1	4	4	3	0	0	0	3	6
071212	12:27:29	10006	Trial2BackFrS	NS	17	0	1000	1	113	12:27:29	3779213	4	3	2	3	1	1	1	2	1	4	4	3	0	0	0	3	6
071212	12:27:29	10006	Trial2BackFrS	NS	17	57	583	0	113	12:27:29	3780319	4	3	2	3	1	1	1	2	1	4	4	3	0	0	0	3	6
071212	12:27:29	10006	Trial2BackFrS	YS	17	0	1000	0	113	12:27:29	3782239	4	3	2	3	1	1	1	2	1	4	4	3	0	0	0	3	6
071212	12:27:29	10006	Trial2BackFrS	NS	17	0	1000	1	113	12:27:29	3783758	4	3	2	3	1	1	1	2	1	4	4	3	0	0	0	3	6
071212	12:27:29	10006	Trial2BackFrS	NS	17	0	1000	1	113	12:27:29	3785277	4	3	2	3	1	1	1	2	1	4	4	3	0	0	0	3	6
071212	12:27:29	10006	Trial2BackFrS	NS	17	0	1000	1	113	12:27:29	3786797	4	3	2	3	1	1	1	2	1	4	4	3	0	0	0	3	6
071212	12:27:29	10006	Trial2BackFrS	NS	17	0	1000	1	113	12:27:29	3788316	4	3	2	3	1	1	1	2	1	4	4	3	0	0	0	3	6
071212	12:27:29	10006	Trial2BackFrS	NS	17	0	1000	1	113	12:27:29	3789836	4	3	2	3	1	1	1	2	1	4	4	3	0	0	0	3	6
071212	12:27:29	10006	Trial2BackFrS	NS	17	0	1000	1	113	12:27:29	3791355	4	3	2	3	1	1	1	2	1	4	4	3	0	0	0	3	6
071212	12:27:29	10006	Trial2BackFrS	NS	17	57	665	0	113	12:27:29	3792541	4	3	2	3	1	1	1	2	1	4	4	3	0	0	0	3	6
071212	12:27:29	10006	Trial2BackFrS	NS	17	0	1000	1	113	12:27:29	3794380	4	3	2	3	1	1	1	2	1	4	4	3	0	0	0	3	6
071212	12:27:29	10006	Trial2BackFrS	NS	17	0	1000	1	113	12:27:29	3795900	4	3	2	3	1	1	1	2	1	4	4	3	0	0	0	3	6
071212	12:27:29	10006	Trial2BackFrS	YS	17	57	616	1	113	12:27:29	3797046	4	3	2	3	1	1	1	2	1	4	4	3	0	0	0	3	6
071212	12:27:29	10006	Trial2BackFrS	NS	17	0	1000	1	113	12:27:29	3798925	4	3	2	3	1	1	1	2	1	4	4	3	0	0	0	3	6
071212	12:27:29	10006	ClockFr3mo	ClockFr3mo	19	Clock11	100700	0	113	12:27:29	3899737	4	3	2	3	1	1	1	2	1	4	4	3	0	1	0	3	6
071212	12:27:29	10006	ClockFr3mo	ClockFr3mo	19	Clock1	955	0	113	12:27:29	3900736	4	3	2	3	1	1	1	2	1	4	4	3	1	1	0	3	6
071212	12:27:29	10006	ClockFr3mo	ClockFr3mo	19	Clock111	796	0	113	12:27:29	3901576	4	3	2	3	1	1	1	2	1	4	4	3	1	1	1	3	6
071212	12:27:29	10006	ClockFr3mo	ClockFr3mo	19	Clockdone	2772	0	113	12:27:29	3904388	4	3	2	3	1	1	1	2	1	4	4	3	1	1	1	3	6
071212	12:27:29	10006	FASFrVF3mo	StopFrVF3mo	20	7	6177	0	113	12:27:29	4004335	4	3	2	3	1	1	1	2	1	4	4	3	1	1	1	3	6
