date	time	subject	blockcode	trialcode	values.TaskNumber	response	latency	correct	values.Score	script.starttime	script.elapsedtime	values.ScoreS7	values.Word1	values.Word2	values.Word3	values.Word4	values.Word5	values.Word6	values.Word7	values.Word8	values.DigitSpanFwrd	values.DigitSpanBack	values.ScoreAbs	values.Contour	values.Numbers	values.Hands	values.corsiblockspanFwrd	values.corsiblockspanRev
082812	14:53:25	10035	Language	Language	0	English	34844	0	0	14:53:25	34978	0	0	0	0	0	0	0	0	0	0	0	0	0	0	0	0	0
082812	14:53:25	10035	Session	Session	0	Baseline	1108	0	0	14:53:25	36164	0	0	0	0	0	0	0	0	0	0	0	0	0	0	0	0	0
082812	14:53:25	10035	HandEng	HandEng	0	Right	468302	0	0	14:53:25	504548	0	0	0	0	0	0	0	0	0	0	0	0	0	0	0	0	0
082812	14:53:25	10035	CubeEng	CubeEng	1	1Cube	58936	0	0	14:53:25	598136	0	0	0	0	0	0	0	0	0	0	0	0	0	0	0	0	0
082812	14:53:25	10035	pm.simpleEngRight	blank.simpleEng	2	0	1887	1	0	14:53:25	635334	0	0	0	0	0	0	0	0	0	0	0	0	0	0	0	0	0
082812	14:53:25	10035	pm.simpleEngRight	pm.simpleEng	2	57	388	0	0	14:53:25	635761	0	0	0	0	0	0	0	0	0	0	0	0	0	0	0	0	0
082812	14:53:25	10035	pm.simpleEngRight	blank.simpleEng	2	0	1587	1	0	14:53:25	637373	0	0	0	0	0	0	0	0	0	0	0	0	0	0	0	0	0
082812	14:53:25	10035	pm.simpleEngRight	pm.simpleEng	2	57	237	0	0	14:53:25	637639	0	0	0	0	0	0	0	0	0	0	0	0	0	0	0	0	0
082812	14:53:25	10035	pm.simpleEngRight	blank.simpleEng	2	0	2487	1	0	14:53:25	640145	0	0	0	0	0	0	0	0	0	0	0	0	0	0	0	0	0
082812	14:53:25	10035	pm.simpleEngRight	pm.simpleEng	2	57	232	0	0	14:53:25	640412	0	0	0	0	0	0	0	0	0	0	0	0	0	0	0	0	0
082812	14:53:25	10035	pm.simpleEngRight	blank.simpleEng	2	0	2287	1	0	14:53:25	642731	0	0	0	0	0	0	0	0	0	0	0	0	0	0	0	0	0
082812	14:53:25	10035	pm.simpleEngRight	pm.simpleEng	2	57	223	0	0	14:53:25	642984	0	0	0	0	0	0	0	0	0	0	0	0	0	0	0	0	0
082812	14:53:25	10035	pm.simpleEngRight	blank.simpleEng	2	0	2387	1	0	14:53:25	645396	0	0	0	0	0	0	0	0	0	0	0	0	0	0	0	0	0
082812	14:53:25	10035	pm.simpleEngRight	pm.simpleEng	2	57	261	0	0	14:53:25	645690	0	0	0	0	0	0	0	0	0	0	0	0	0	0	0	0	0
082812	14:53:25	10035	pm.simpleEngRight	blank.simpleEng	2	0	2087	1	0	14:53:25	647795	0	0	0	0	0	0	0	0	0	0	0	0	0	0	0	0	0
082812	14:53:25	10035	pm.simpleEngRight	pm.simpleEng	2	57	262	0	0	14:53:25	648089	0	0	0	0	0	0	0	0	0	0	0	0	0	0	0	0	0
082812	14:53:25	10035	pm.simpleEngRight	blank.simpleEng	2	0	1987	1	0	14:53:25	650101	0	0	0	0	0	0	0	0	0	0	0	0	0	0	0	0	0
082812	14:53:25	10035	pm.simpleEngRight	pm.simpleEng	2	57	244	0	0	14:53:25	650381	0	0	0	0	0	0	0	0	0	0	0	0	0	0	0	0	0
082812	14:53:25	10035	pm.simpleEngRight	blank.simpleEng	2	0	1487	1	0	14:53:25	651887	0	0	0	0	0	0	0	0	0	0	0	0	0	0	0	0	0
082812	14:53:25	10035	pm.simpleEngRight	pm.simpleEng	2	57	282	0	0	14:53:25	652207	0	0	0	0	0	0	0	0	0	0	0	0	0	0	0	0	0
082812	14:53:25	10035	pm.simpleEngRight	blank.simpleEng	2	0	2187	1	0	14:53:25	654419	0	0	0	0	0	0	0	0	0	0	0	0	0	0	0	0	0
082812	14:53:25	10035	pm.simpleEngRight	pm.simpleEng	2	57	230	0	0	14:53:25	654686	0	0	0	0	0	0	0	0	0	0	0	0	0	0	0	0	0
082812	14:53:25	10035	pm.simpleEngRight	blank.simpleEng	2	0	1787	1	0	14:53:25	656499	0	0	0	0	0	0	0	0	0	0	0	0	0	0	0	0	0
082812	14:53:25	10035	pm.simpleEngRight	pm.simpleEng	2	57	233	0	0	14:53:25	656765	0	0	0	0	0	0	0	0	0	0	0	0	0	0	0	0	0
082812	14:53:25	10035	pm.simpleEngRight	blank.simpleEng	2	0	1687	1	0	14:53:25	658471	0	0	0	0	0	0	0	0	0	0	0	0	0	0	0	0	0
082812	14:53:25	10035	pm.simpleEngRight	pm.simpleEng	2	57	274	0	0	14:53:25	658778	0	0	0	0	0	0	0	0	0	0	0	0	0	0	0	0	0
082812	14:53:25	10035	pm.simpleEngRight	blank.simpleEng	2	0	1487	1	0	14:53:25	660284	0	0	0	0	0	0	0	0	0	0	0	0	0	0	0	0	0
082812	14:53:25	10035	pm.simpleEngRight	pm.simpleEng	2	57	253	0	0	14:53:25	660577	0	0	0	0	0	0	0	0	0	0	0	0	0	0	0	0	0
082812	14:53:25	10035	pm.simpleEngRight	blank.simpleEng	2	0	2487	1	0	14:53:25	663082	0	0	0	0	0	0	0	0	0	0	0	0	0	0	0	0	0
082812	14:53:25	10035	pm.simpleEngRight	pm.simpleEng	2	57	222	0	0	14:53:25	663336	0	0	0	0	0	0	0	0	0	0	0	0	0	0	0	0	0
082812	14:53:25	10035	pm.simpleEngRight	blank.simpleEng	2	0	1887	1	0	14:53:25	665242	0	0	0	0	0	0	0	0	0	0	0	0	0	0	0	0	0
082812	14:53:25	10035	pm.simpleEngRight	pm.simpleEng	2	57	271	0	0	14:53:25	665548	0	0	0	0	0	0	0	0	0	0	0	0	0	0	0	0	0
082812	14:53:25	10035	pm.simpleEngRight	blank.simpleEng	2	0	1587	1	0	14:53:25	667161	0	0	0	0	0	0	0	0	0	0	0	0	0	0	0	0	0
082812	14:53:25	10035	pm.simpleEngRight	pm.simpleEng	2	57	240	0	0	14:53:25	667441	0	0	0	0	0	0	0	0	0	0	0	0	0	0	0	0	0
082812	14:53:25	10035	pm.simpleEngRight	blank.simpleEng	2	0	1987	1	0	14:53:25	669453	0	0	0	0	0	0	0	0	0	0	0	0	0	0	0	0	0
082812	14:53:25	10035	pm.simpleEngRight	pm.simpleEng	2	57	268	0	0	14:53:25	669760	0	0	0	0	0	0	0	0	0	0	0	0	0	0	0	0	0
082812	14:53:25	10035	pm.simpleEngRight	blank.simpleEng	2	0	2087	1	0	14:53:25	671866	0	0	0	0	0	0	0	0	0	0	0	0	0	0	0	0	0
082812	14:53:25	10035	pm.simpleEngRight	pm.simpleEng	2	57	255	0	0	14:53:25	672159	0	0	0	0	0	0	0	0	0	0	0	0	0	0	0	0	0
082812	14:53:25	10035	pm.simpleEngRight	blank.simpleEng	2	0	1787	1	0	14:53:25	673972	0	0	0	0	0	0	0	0	0	0	0	0	0	0	0	0	0
082812	14:53:25	10035	pm.simpleEngRight	pm.simpleEng	2	57	229	0	0	14:53:25	674238	0	0	0	0	0	0	0	0	0	0	0	0	0	0	0	0	0
082812	14:53:25	10035	pm.simpleEngRight	blank.simpleEng	2	0	2387	1	0	14:53:25	676651	0	0	0	0	0	0	0	0	0	0	0	0	0	0	0	0	0
082812	14:53:25	10035	pm.simpleEngRight	pm.simpleEng	2	57	222	0	0	14:53:25	676904	0	0	0	0	0	0	0	0	0	0	0	0	0	0	0	0	0
082812	14:53:25	10035	pm.simpleEngRight	blank.simpleEng	2	0	2187	1	0	14:53:25	679116	0	0	0	0	0	0	0	0	0	0	0	0	0	0	0	0	0
082812	14:53:25	10035	pm.simpleEngRight	pm.simpleEng	2	57	236	0	0	14:53:25	679383	0	0	0	0	0	0	0	0	0	0	0	0	0	0	0	0	0
082812	14:53:25	10035	pm.simpleEngRight	blank.simpleEng	2	0	2287	1	0	14:53:25	681689	0	0	0	0	0	0	0	0	0	0	0	0	0	0	0	0	0
082812	14:53:25	10035	pm.simpleEngRight	pm.simpleEng	2	57	224	0	0	14:53:25	681955	0	0	0	0	0	0	0	0	0	0	0	0	0	0	0	0	0
082812	14:53:25	10035	pm.simpleEngRight	blank.simpleEng	2	0	1687	1	0	14:53:25	683661	0	0	0	0	0	0	0	0	0	0	0	0	0	0	0	0	0
082812	14:53:25	10035	pm.simpleEngRight	pm.simpleEng	2	57	268	0	0	14:53:25	683968	0	0	0	0	0	0	0	0	0	0	0	0	0	0	0	0	0
082812	14:53:25	10035	pm.simpleEngRight	blank.simpleEng	2	0	1687	1	0	14:53:25	685673	0	0	0	0	0	0	0	0	0	0	0	0	0	0	0	0	0
082812	14:53:25	10035	pm.simpleEngRight	pm.simpleEng	2	57	239	0	0	14:53:25	685953	0	0	0	0	0	0	0	0	0	0	0	0	0	0	0	0	0
082812	14:53:25	10035	pm.simpleEngRight	blank.simpleEng	2	0	1787	1	0	14:53:25	687766	0	0	0	0	0	0	0	0	0	0	0	0	0	0	0	0	0
082812	14:53:25	10035	pm.simpleEngRight	pm.simpleEng	2	57	242	0	0	14:53:25	688046	0	0	0	0	0	0	0	0	0	0	0	0	0	0	0	0	0
082812	14:53:25	10035	pm.simpleEngRight	blank.simpleEng	2	0	2487	1	0	14:53:25	690565	0	0	0	0	0	0	0	0	0	0	0	0	0	0	0	0	0
082812	14:53:25	10035	pm.simpleEngRight	pm.simpleEng	2	57	228	0	0	14:53:25	690831	0	0	0	0	0	0	0	0	0	0	0	0	0	0	0	0	0
082812	14:53:25	10035	pm.simpleEngRight	blank.simpleEng	2	0	1587	1	0	14:53:25	692444	0	0	0	0	0	0	0	0	0	0	0	0	0	0	0	0	0
082812	14:53:25	10035	pm.simpleEngRight	pm.simpleEng	2	57	252	0	0	14:53:25	692737	0	0	0	0	0	0	0	0	0	0	0	0	0	0	0	0	0
082812	14:53:25	10035	pm.simpleEngRight	blank.simpleEng	2	0	1887	1	0	14:53:25	694643	0	0	0	0	0	0	0	0	0	0	0	0	0	0	0	0	0
082812	14:53:25	10035	pm.simpleEngRight	pm.simpleEng	2	57	229	0	0	14:53:25	694910	0	0	0	0	0	0	0	0	0	0	0	0	0	0	0	0	0
082812	14:53:25	10035	pm.simpleEngRight	blank.simpleEng	2	0	2287	1	0	14:53:25	697229	0	0	0	0	0	0	0	0	0	0	0	0	0	0	0	0	0
082812	14:53:25	10035	pm.simpleEngRight	pm.simpleEng	2	57	219	0	0	14:53:25	697482	0	0	0	0	0	0	0	0	0	0	0	0	0	0	0	0	0
082812	14:53:25	10035	pm.simpleEngRight	blank.simpleEng	2	0	1987	1	0	14:53:25	699495	0	0	0	0	0	0	0	0	0	0	0	0	0	0	0	0	0
082812	14:53:25	10035	pm.simpleEngRight	pm.simpleEng	2	57	242	0	0	14:53:25	699775	0	0	0	0	0	0	0	0	0	0	0	0	0	0	0	0	0
082812	14:53:25	10035	pm.simpleEngRight	blank.simpleEng	2	0	2187	1	0	14:53:25	701987	0	0	0	0	0	0	0	0	0	0	0	0	0	0	0	0	0
082812	14:53:25	10035	pm.simpleEngRight	pm.simpleEng	2	57	229	0	0	14:53:25	702254	0	0	0	0	0	0	0	0	0	0	0	0	0	0	0	0	0
082812	14:53:25	10035	pm.simpleEngRight	blank.simpleEng	2	0	1487	1	0	14:53:25	703760	0	0	0	0	0	0	0	0	0	0	0	0	0	0	0	0	0
082812	14:53:25	10035	pm.simpleEngRight	pm.simpleEng	2	57	281	0	0	14:53:25	704079	0	0	0	0	0	0	0	0	0	0	0	0	0	0	0	0	0
082812	14:53:25	10035	pm.simpleEngRight	blank.simpleEng	2	0	2087	1	0	14:53:25	706198	0	0	0	0	0	0	0	0	0	0	0	0	0	0	0	0	0
082812	14:53:25	10035	pm.simpleEngRight	pm.simpleEng	2	57	241	0	0	14:53:25	706478	0	0	0	0	0	0	0	0	0	0	0	0	0	0	0	0	0
082812	14:53:25	10035	pm.simpleEngRight	blank.simpleEng	2	0	2387	1	0	14:53:25	708891	0	0	0	0	0	0	0	0	0	0	0	0	0	0	0	0	0
082812	14:53:25	10035	pm.simpleEngRight	pm.simpleEng	2	57	398	0	0	14:53:25	709331	0	0	0	0	0	0	0	0	0	0	0	0	0	0	0	0	0
082812	14:53:25	10035	pm.simpleEngRight	blank.simpleEng	2	0	1687	1	0	14:53:25	711036	0	0	0	0	0	0	0	0	0	0	0	0	0	0	0	0	0
082812	14:53:25	10035	pm.simpleEngRight	pm.simpleEng	2	57	283	0	0	14:53:25	711356	0	0	0	0	0	0	0	0	0	0	0	0	0	0	0	0	0
082812	14:53:25	10035	pm.simpleEngRight	blank.simpleEng	2	0	1787	1	0	14:53:25	713169	0	0	0	0	0	0	0	0	0	0	0	0	0	0	0	0	0
082812	14:53:25	10035	pm.simpleEngRight	pm.simpleEng	2	57	231	0	0	14:53:25	713436	0	0	0	0	0	0	0	0	0	0	0	0	0	0	0	0	0
082812	14:53:25	10035	pm.simpleEngRight	blank.simpleEng	2	0	1887	1	0	14:53:25	715342	0	0	0	0	0	0	0	0	0	0	0	0	0	0	0	0	0
082812	14:53:25	10035	pm.simpleEngRight	pm.simpleEng	2	57	234	0	0	14:53:25	715608	0	0	0	0	0	0	0	0	0	0	0	0	0	0	0	0	0
082812	14:53:25	10035	pm.simpleEngRight	blank.simpleEng	2	0	1987	1	0	14:53:25	717621	0	0	0	0	0	0	0	0	0	0	0	0	0	0	0	0	0
082812	14:53:25	10035	pm.simpleEngRight	pm.simpleEng	2	57	243	0	0	14:53:25	717901	0	0	0	0	0	0	0	0	0	0	0	0	0	0	0	0	0
082812	14:53:25	10035	pm.simpleEngRight	blank.simpleEng	2	0	2287	1	0	14:53:25	720206	0	0	0	0	0	0	0	0	0	0	0	0	0	0	0	0	0
082812	14:53:25	10035	pm.simpleEngRight	pm.simpleEng	2	57	234	0	0	14:53:25	720473	0	0	0	0	0	0	0	0	0	0	0	0	0	0	0	0	0
082812	14:53:25	10035	pm.simpleEngRight	blank.simpleEng	2	0	1587	1	0	14:53:25	722086	0	0	0	0	0	0	0	0	0	0	0	0	0	0	0	0	0
082812	14:53:25	10035	pm.simpleEngRight	pm.simpleEng	2	57	322	0	0	14:53:25	722445	0	0	0	0	0	0	0	0	0	0	0	0	0	0	0	0	0
082812	14:53:25	10035	pm.simpleEngRight	blank.simpleEng	2	0	2087	1	0	14:53:25	724565	0	0	0	0	0	0	0	0	0	0	0	0	0	0	0	0	0
082812	14:53:25	10035	pm.simpleEngRight	pm.simpleEng	2	57	243	0	0	14:53:25	724844	0	0	0	0	0	0	0	0	0	0	0	0	0	0	0	0	0
082812	14:53:25	10035	Trial2BackEng	N	3	0	1000	1	1	14:53:25	775691	0	0	0	0	0	0	0	0	0	0	0	0	0	0	0	0	0
082812	14:53:25	10035	Trial2BackEng	N	3	0	1000	1	2	14:53:25	777210	0	0	0	0	0	0	0	0	0	0	0	0	0	0	0	0	0
082812	14:53:25	10035	Trial2BackEng	N	3	0	1000	1	3	14:53:25	778729	0	0	0	0	0	0	0	0	0	0	0	0	0	0	0	0	0
082812	14:53:25	10035	Trial2BackEng	N	3	0	1000	1	4	14:53:25	780249	0	0	0	0	0	0	0	0	0	0	0	0	0	0	0	0	0
082812	14:53:25	10035	Trial2BackEng	N	3	0	1000	1	5	14:53:25	781768	0	0	0	0	0	0	0	0	0	0	0	0	0	0	0	0	0
082812	14:53:25	10035	Trial2BackEng	N	3	0	1000	1	6	14:53:25	783287	0	0	0	0	0	0	0	0	0	0	0	0	0	0	0	0	0
082812	14:53:25	10035	Trial2BackEng	N	3	0	1000	1	7	14:53:25	784807	0	0	0	0	0	0	0	0	0	0	0	0	0	0	0	0	0
082812	14:53:25	10035	Trial2BackEng	N	3	0	1000	1	8	14:53:25	786326	0	0	0	0	0	0	0	0	0	0	0	0	0	0	0	0	0
082812	14:53:25	10035	Trial2BackEng	Y	3	57	773	1	9	14:53:25	787632	0	0	0	0	0	0	0	0	0	0	0	0	0	0	0	0	0
082812	14:53:25	10035	Trial2BackEng	N	3	0	1000	1	10	14:53:25	789352	0	0	0	0	0	0	0	0	0	0	0	0	0	0	0	0	0
082812	14:53:25	10035	Trial2BackEng	N	3	0	1000	1	11	14:53:25	790871	0	0	0	0	0	0	0	0	0	0	0	0	0	0	0	0	0
082812	14:53:25	10035	Trial2BackEng	N	3	0	1000	1	12	14:53:25	792390	0	0	0	0	0	0	0	0	0	0	0	0	0	0	0	0	0
082812	14:53:25	10035	Trial2BackEng	Y	3	57	580	1	13	14:53:25	793496	0	0	0	0	0	0	0	0	0	0	0	0	0	0	0	0	0
082812	14:53:25	10035	Trial2BackEng	N	3	0	1000	1	14	14:53:25	795416	0	0	0	0	0	0	0	0	0	0	0	0	0	0	0	0	0
082812	14:53:25	10035	Trial2BackEng	N	3	0	1000	1	15	14:53:25	796935	0	0	0	0	0	0	0	0	0	0	0	0	0	0	0	0	0
082812	14:53:25	10035	Trial2BackEng	N	3	0	1000	1	16	14:53:25	798455	0	0	0	0	0	0	0	0	0	0	0	0	0	0	0	0	0
082812	14:53:25	10035	Trial2BackEng	N	3	0	1000	1	17	14:53:25	799974	0	0	0	0	0	0	0	0	0	0	0	0	0	0	0	0	0
082812	14:53:25	10035	Trial2BackEng	N	3	0	1000	1	18	14:53:25	801493	0	0	0	0	0	0	0	0	0	0	0	0	0	0	0	0	0
082812	14:53:25	10035	Trial2BackEng	Y	3	57	613	1	19	14:53:25	802640	0	0	0	0	0	0	0	0	0	0	0	0	0	0	0	0	0
082812	14:53:25	10035	Trial2BackEng	N	3	0	1000	1	20	14:53:25	804519	0	0	0	0	0	0	0	0	0	0	0	0	0	0	0	0	0
082812	14:53:25	10035	Trial2BackEng	N	3	0	1000	1	21	14:53:25	806038	0	0	0	0	0	0	0	0	0	0	0	0	0	0	0	0	0
082812	14:53:25	10035	Trial2BackEng	N	3	0	1000	1	22	14:53:25	807558	0	0	0	0	0	0	0	0	0	0	0	0	0	0	0	0	0
082812	14:53:25	10035	Trial2BackEng	N	3	0	1000	1	23	14:53:25	809077	0	0	0	0	0	0	0	0	0	0	0	0	0	0	0	0	0
082812	14:53:25	10035	Trial2BackEng	Y	3	57	469	1	24	14:53:25	810076	0	0	0	0	0	0	0	0	0	0	0	0	0	0	0	0	0
082812	14:53:25	10035	Trial2BackEng	N	3	0	1000	1	25	14:53:25	812102	0	0	0	0	0	0	0	0	0	0	0	0	0	0	0	0	0
082812	14:53:25	10035	Trial2BackEng	N	3	0	1000	1	26	14:53:25	813622	0	0	0	0	0	0	0	0	0	0	0	0	0	0	0	0	0
082812	14:53:25	10035	Trial2BackEng	N	3	0	1000	1	27	14:53:25	815141	0	0	0	0	0	0	0	0	0	0	0	0	0	0	0	0	0
082812	14:53:25	10035	Trial2BackEng	N	3	0	1000	1	28	14:53:25	816661	0	0	0	0	0	0	0	0	0	0	0	0	0	0	0	0	0
082812	14:53:25	10035	Trial2BackEng	N	3	0	1000	1	29	14:53:25	818180	0	0	0	0	0	0	0	0	0	0	0	0	0	0	0	0	0
082812	14:53:25	10035	Trial2BackEng	N	3	0	1000	1	30	14:53:25	819699	0	0	0	0	0	0	0	0	0	0	0	0	0	0	0	0	0
082812	14:53:25	10035	Trial2BackEng	Y	3	57	599	1	31	14:53:25	820832	0	0	0	0	0	0	0	0	0	0	0	0	0	0	0	0	0
082812	14:53:25	10035	Trial2BackEng	N	3	0	1000	1	32	14:53:25	822725	0	0	0	0	0	0	0	0	0	0	0	0	0	0	0	0	0
082812	14:53:25	10035	Trial2BackEng	N	3	0	1000	1	33	14:53:25	824244	0	0	0	0	0	0	0	0	0	0	0	0	0	0	0	0	0
082812	14:53:25	10035	Trial2BackEng	N	3	0	1000	1	34	14:53:25	825764	0	0	0	0	0	0	0	0	0	0	0	0	0	0	0	0	0
082812	14:53:25	10035	Trial2BackEng	Y	3	57	486	1	35	14:53:25	826777	0	0	0	0	0	0	0	0	0	0	0	0	0	0	0	0	0
082812	14:53:25	10035	Trial2BackEng	N	3	0	1000	1	36	14:53:25	828789	0	0	0	0	0	0	0	0	0	0	0	0	0	0	0	0	0
082812	14:53:25	10035	Trial2BackEng	N	3	0	1000	1	37	14:53:25	830309	0	0	0	0	0	0	0	0	0	0	0	0	0	0	0	0	0
082812	14:53:25	10035	Trial2BackEng	N	3	0	1000	1	38	14:53:25	831828	0	0	0	0	0	0	0	0	0	0	0	0	0	0	0	0	0
082812	14:53:25	10035	Trial2BackEng	N	3	0	1000	1	39	14:53:25	833347	0	0	0	0	0	0	0	0	0	0	0	0	0	0	0	0	0
082812	14:53:25	10035	Trial2BackEng	N	3	0	1000	1	40	14:53:25	834866	0	0	0	0	0	0	0	0	0	0	0	0	0	0	0	0	0
082812	14:53:25	10035	Trial2BackEng	N	3	0	1000	1	41	14:53:25	836386	0	0	0	0	0	0	0	0	0	0	0	0	0	0	0	0	0
082812	14:53:25	10035	Trial2BackEng	Y	3	57	424	1	42	14:53:25	837332	0	0	0	0	0	0	0	0	0	0	0	0	0	0	0	0	0
082812	14:53:25	10035	Trial2BackEng	N	3	0	1000	1	43	14:53:25	839411	0	0	0	0	0	0	0	0	0	0	0	0	0	0	0	0	0
082812	14:53:25	10035	Trial2BackEng	N	3	0	1000	1	44	14:53:25	840931	0	0	0	0	0	0	0	0	0	0	0	0	0	0	0	0	0
082812	14:53:25	10035	Trial2BackEng	N	3	0	1000	1	45	14:53:25	842450	0	0	0	0	0	0	0	0	0	0	0	0	0	0	0	0	0
082812	14:53:25	10035	Trial2BackEng	N	3	0	1000	1	46	14:53:25	843970	0	0	0	0	0	0	0	0	0	0	0	0	0	0	0	0	0
082812	14:53:25	10035	Trial2BackEng	Y	3	57	440	1	47	14:53:25	844943	0	0	0	0	0	0	0	0	0	0	0	0	0	0	0	0	0
082812	14:53:25	10035	Trial2BackEng	N	3	0	1000	1	48	14:53:25	846995	0	0	0	0	0	0	0	0	0	0	0	0	0	0	0	0	0
082812	14:53:25	10035	Trial2BackEng	N	3	0	1000	1	49	14:53:25	848514	0	0	0	0	0	0	0	0	0	0	0	0	0	0	0	0	0
082812	14:53:25	10035	Trial2BackEng	N	3	0	1000	1	50	14:53:25	850034	0	0	0	0	0	0	0	0	0	0	0	0	0	0	0	0	0
082812	14:53:25	10035	Trial2BackEng	N	3	0	1000	1	51	14:53:25	851553	0	0	0	0	0	0	0	0	0	0	0	0	0	0	0	0	0
082812	14:53:25	10035	Trial2BackEng	N	3	0	1000	1	52	14:53:25	853073	0	0	0	0	0	0	0	0	0	0	0	0	0	0	0	0	0
082812	14:53:25	10035	Trial2BackEng	Y	3	57	489	1	53	14:53:25	854085	0	0	0	0	0	0	0	0	0	0	0	0	0	0	0	0	0
082812	14:53:25	10035	Trial2BackEng	N	3	0	1000	1	54	14:53:25	856098	0	0	0	0	0	0	0	0	0	0	0	0	0	0	0	0	0
082812	14:53:25	10035	Trial2BackEng	N	3	0	1000	1	55	14:53:25	857617	0	0	0	0	0	0	0	0	0	0	0	0	0	0	0	0	0
082812	14:53:25	10035	Trial2BackEng	N	3	0	1000	1	56	14:53:25	859137	0	0	0	0	0	0	0	0	0	0	0	0	0	0	0	0	0
082812	14:53:25	10035	Trial2BackEng	N	3	0	1000	1	57	14:53:25	860656	0	0	0	0	0	0	0	0	0	0	0	0	0	0	0	0	0
082812	14:53:25	10035	Trial2BackEng	N	3	0	1000	1	58	14:53:25	862176	0	0	0	0	0	0	0	0	0	0	0	0	0	0	0	0	0
082812	14:53:25	10035	Trial2BackEng	N	3	0	1000	1	59	14:53:25	863695	0	0	0	0	0	0	0	0	0	0	0	0	0	0	0	0	0
082812	14:53:25	10035	Trial2BackEng	Y	3	57	570	1	60	14:53:25	864788	0	0	0	0	0	0	0	0	0	0	0	0	0	0	0	0	0
082812	14:53:25	10035	Trial2BackEng	N	3	0	1000	1	61	14:53:25	866720	0	0	0	0	0	0	0	0	0	0	0	0	0	0	0	0	0
082812	14:53:25	10035	Trial2BackEng	N	3	0	1000	1	62	14:53:25	868240	0	0	0	0	0	0	0	0	0	0	0	0	0	0	0	0	0
082812	14:53:25	10035	Trial2BackEng	Y	3	57	633	1	63	14:53:25	869399	0	0	0	0	0	0	0	0	0	0	0	0	0	0	0	0	0
082812	14:53:25	10035	Trial2BackEng	N	3	0	1000	1	64	14:53:25	871265	0	0	0	0	0	0	0	0	0	0	0	0	0	0	0	0	0
082812	14:53:25	10035	Trial2BackEng	N	3	0	1000	1	65	14:53:25	872785	0	0	0	0	0	0	0	0	0	0	0	0	0	0	0	0	0
082812	14:53:25	10035	Trial2BackEng	N	3	0	1000	1	66	14:53:25	874304	0	0	0	0	0	0	0	0	0	0	0	0	0	0	0	0	0
082812	14:53:25	10035	Trial2BackEng	N	3	0	1000	1	67	14:53:25	875823	0	0	0	0	0	0	0	0	0	0	0	0	0	0	0	0	0
082812	14:53:25	10035	Trial2BackEng	N	3	0	1000	1	68	14:53:25	877343	0	0	0	0	0	0	0	0	0	0	0	0	0	0	0	0	0
082812	14:53:25	10035	Trial2BackEng	N	3	0	1000	1	69	14:53:25	878862	0	0	0	0	0	0	0	0	0	0	0	0	0	0	0	0	0
082812	14:53:25	10035	Trial2BackEng	N	3	57	522	0	69	14:53:25	879915	0	0	0	0	0	0	0	0	0	0	0	0	0	0	0	0	0
082812	14:53:25	10035	Trial2BackEng	N	3	0	1000	1	70	14:53:25	881888	0	0	0	0	0	0	0	0	0	0	0	0	0	0	0	0	0
082812	14:53:25	10035	Trial2BackEng	N	3	0	1000	1	71	14:53:25	883407	0	0	0	0	0	0	0	0	0	0	0	0	0	0	0	0	0
082812	14:53:25	10035	Trial2BackEng	N	3	0	1000	1	72	14:53:25	884926	0	0	0	0	0	0	0	0	0	0	0	0	0	0	0	0	0
082812	14:53:25	10035	Trial2BackEng	Y	3	57	602	1	73	14:53:25	886059	0	0	0	0	0	0	0	0	0	0	0	0	0	0	0	0	0
082812	14:53:25	10035	Trial2BackEng	N	3	0	1000	1	74	14:53:25	887952	0	0	0	0	0	0	0	0	0	0	0	0	0	0	0	0	0
082812	14:53:25	10035	Trial2BackEng	N	3	0	1000	1	75	14:53:25	889471	0	0	0	0	0	0	0	0	0	0	0	0	0	0	0	0	0
082812	14:53:25	10035	Trial2BackEng	N	3	0	1000	1	76	14:53:25	890991	0	0	0	0	0	0	0	0	0	0	0	0	0	0	0	0	0
082812	14:53:25	10035	Trial2BackEng	Y	3	57	650	1	77	14:53:25	892164	0	0	0	0	0	0	0	0	0	0	0	0	0	0	0	0	0
082812	14:53:25	10035	Trial2BackEng	N	3	0	1000	1	78	14:53:25	894016	0	0	0	0	0	0	0	0	0	0	0	0	0	0	0	0	0
082812	14:53:25	10035	Trial2BackEng	N	3	0	1000	1	79	14:53:25	895535	0	0	0	0	0	0	0	0	0	0	0	0	0	0	0	0	0
082812	14:53:25	10035	Trial2BackEng	N	3	0	1000	1	80	14:53:25	897055	0	0	0	0	0	0	0	0	0	0	0	0	0	0	0	0	0
082812	14:53:25	10035	Trial2BackEng	N	3	0	1000	1	81	14:53:25	898574	0	0	0	0	0	0	0	0	0	0	0	0	0	0	0	0	0
082812	14:53:25	10035	Trial2BackEng	N	3	0	1000	1	82	14:53:25	900094	0	0	0	0	0	0	0	0	0	0	0	0	0	0	0	0	0
082812	14:53:25	10035	Trial2BackEng	Y	3	57	955	1	83	14:53:25	901573	0	0	0	0	0	0	0	0	0	0	0	0	0	0	0	0	0
082812	14:53:25	10035	Trial2BackEng	N	3	0	1000	1	84	14:53:25	903119	0	0	0	0	0	0	0	0	0	0	0	0	0	0	0	0	0
082812	14:53:25	10035	Trial2BackEng	N	3	0	1000	1	85	14:53:25	904638	0	0	0	0	0	0	0	0	0	0	0	0	0	0	0	0	0
082812	14:53:25	10035	Trial2BackEng	N	3	0	1000	1	86	14:53:25	906158	0	0	0	0	0	0	0	0	0	0	0	0	0	0	0	0	0
082812	14:53:25	10035	Trial2BackEng	N	3	0	1000	1	87	14:53:25	907677	0	0	0	0	0	0	0	0	0	0	0	0	0	0	0	0	0
082812	14:53:25	10035	Trial2BackEng	N	3	0	1000	1	88	14:53:25	909197	0	0	0	0	0	0	0	0	0	0	0	0	0	0	0	0	0
082812	14:53:25	10035	Trial2BackEng	N	3	0	1000	1	89	14:53:25	910716	0	0	0	0	0	0	0	0	0	0	0	0	0	0	0	0	0
082812	14:53:25	10035	Trial2BackEng	N	3	0	1000	1	90	14:53:25	912235	0	0	0	0	0	0	0	0	0	0	0	0	0	0	0	0	0
082812	14:53:25	10035	Trial2BackEng	N	3	0	1000	1	91	14:53:25	913755	0	0	0	0	0	0	0	0	0	0	0	0	0	0	0	0	0
082812	14:53:25	10035	Trial2BackEng	N	3	0	1000	1	92	14:53:25	915274	0	0	0	0	0	0	0	0	0	0	0	0	0	0	0	0	0
082812	14:53:25	10035	Trial2BackEng	Y	3	57	574	1	93	14:53:25	916380	0	0	0	0	0	0	0	0	0	0	0	0	0	0	0	0	0
082812	14:53:25	10035	Trial2BackEng	N	3	0	1000	1	94	14:53:25	918300	0	0	0	0	0	0	0	0	0	0	0	0	0	0	0	0	0
082812	14:53:25	10035	Trial2BackEng	N	3	0	1000	1	95	14:53:25	919819	0	0	0	0	0	0	0	0	0	0	0	0	0	0	0	0	0
082812	14:53:25	10035	Trial2BackEng	N	3	0	1000	1	96	14:53:25	921338	0	0	0	0	0	0	0	0	0	0	0	0	0	0	0	0	0
082812	14:53:25	10035	Trial2BackEng	N	3	0	1000	1	97	14:53:25	922858	0	0	0	0	0	0	0	0	0	0	0	0	0	0	0	0	0
082812	14:53:25	10035	Trial2BackEng	N	3	0	1000	1	98	14:53:25	924377	0	0	0	0	0	0	0	0	0	0	0	0	0	0	0	0	0
082812	14:53:25	10035	Trial2BackEng	N	3	0	1000	1	99	14:53:25	925896	0	0	0	0	0	0	0	0	0	0	0	0	0	0	0	0	0
082812	14:53:25	10035	Trial2BackEng	N	3	0	1000	1	100	14:53:25	927416	0	0	0	0	0	0	0	0	0	0	0	0	0	0	0	0	0
082812	14:53:25	10035	Trial2BackEng	N	3	0	1000	1	101	14:53:25	928935	0	0	0	0	0	0	0	0	0	0	0	0	0	0	0	0	0
082812	14:53:25	10035	Trial2BackEng	Y	3	57	800	1	102	14:53:25	930268	0	0	0	0	0	0	0	0	0	0	0	0	0	0	0	0	0
082812	14:53:25	10035	Trial2BackEng	N	3	0	1000	1	103	14:53:25	931961	0	0	0	0	0	0	0	0	0	0	0	0	0	0	0	0	0
082812	14:53:25	10035	Trial2BackEng	N	3	0	1000	1	104	14:53:25	933480	0	0	0	0	0	0	0	0	0	0	0	0	0	0	0	0	0
082812	14:53:25	10035	Trial2BackEng	N	3	0	1000	1	105	14:53:25	934999	0	0	0	0	0	0	0	0	0	0	0	0	0	0	0	0	0
082812	14:53:25	10035	Trial2BackEng	N	3	0	1000	1	106	14:53:25	936519	0	0	0	0	0	0	0	0	0	0	0	0	0	0	0	0	0
082812	14:53:25	10035	Trial2BackEng	Y	3	57	864	1	107	14:53:25	937918	0	0	0	0	0	0	0	0	0	0	0	0	0	0	0	0	0
082812	14:53:25	10035	Trial2BackEng	N	3	0	1000	1	108	14:53:25	939544	0	0	0	0	0	0	0	0	0	0	0	0	0	0	0	0	0
082812	14:53:25	10035	Trial2BackEng	N	3	0	1000	1	109	14:53:25	941063	0	0	0	0	0	0	0	0	0	0	0	0	0	0	0	0	0
082812	14:53:25	10035	Trial2BackEng	N	3	0	1000	1	110	14:53:25	942583	0	0	0	0	0	0	0	0	0	0	0	0	0	0	0	0	0
082812	14:53:25	10035	Trial2BackEng	Y	3	57	720	1	111	14:53:25	943836	0	0	0	0	0	0	0	0	0	0	0	0	0	0	0	0	0
082812	14:53:25	10035	Trial2BackEng	N	3	0	1000	1	112	14:53:25	945608	0	0	0	0	0	0	0	0	0	0	0	0	0	0	0	0	0
082812	14:53:25	10035	Trial2BackEng	N	3	0	1000	1	113	14:53:25	947128	0	0	0	0	0	0	0	0	0	0	0	0	0	0	0	0	0
082812	14:53:25	10035	Trial2BackEng	N	3	0	1000	1	114	14:53:25	948647	0	0	0	0	0	0	0	0	0	0	0	0	0	0	0	0	0
082812	14:53:25	10035	Trial2BackEng	N	3	0	1000	1	115	14:53:25	950167	0	0	0	0	0	0	0	0	0	0	0	0	0	0	0	0	0
082812	14:53:25	10035	Trial2BackEng	N	3	0	1000	1	116	14:53:25	951686	0	0	0	0	0	0	0	0	0	0	0	0	0	0	0	0	0
082812	14:53:25	10035	Trial2BackEng	Y	3	57	641	1	117	14:53:25	952859	0	0	0	0	0	0	0	0	0	0	0	0	0	0	0	0	0
082812	14:53:25	10035	Trial2BackEng	N	3	0	1000	1	118	14:53:25	954711	0	0	0	0	0	0	0	0	0	0	0	0	0	0	0	0	0
082812	14:53:25	10035	Trial2BackEng	N	3	0	1000	1	119	14:53:25	956231	0	0	0	0	0	0	0	0	0	0	0	0	0	0	0	0	0
082812	14:53:25	10035	Trial2BackEng	N	3	0	1000	1	120	14:53:25	957750	0	0	0	0	0	0	0	0	0	0	0	0	0	0	0	0	0
082812	14:53:25	10035	Trial2BackEng	Y	3	57	641	1	121	14:53:25	958923	0	0	0	0	0	0	0	0	0	0	0	0	0	0	0	0	0
082812	14:53:25	10035	Trial3BackEng	NN	4	0	1000	1	121	14:53:25	992190	0	0	0	0	0	0	0	0	0	0	0	0	0	0	0	0	0
082812	14:53:25	10035	Trial3BackEng	NN	4	0	1000	1	121	14:53:25	993709	0	0	0	0	0	0	0	0	0	0	0	0	0	0	0	0	0
082812	14:53:25	10035	Trial3BackEng	NN	4	0	1000	1	121	14:53:25	995228	0	0	0	0	0	0	0	0	0	0	0	0	0	0	0	0	0
082812	14:53:25	10035	Trial3BackEng	YY	4	57	377	1	121	14:53:25	996135	0	0	0	0	0	0	0	0	0	0	0	0	0	0	0	0	0
082812	14:53:25	10035	Trial3BackEng	NN	4	0	1000	1	121	14:53:25	998254	0	0	0	0	0	0	0	0	0	0	0	0	0	0	0	0	0
082812	14:53:25	10035	Trial3BackEng	NN	4	0	1000	1	121	14:53:25	999773	0	0	0	0	0	0	0	0	0	0	0	0	0	0	0	0	0
082812	14:53:25	10035	Trial3BackEng	NN	4	0	1000	1	121	14:53:25	1001293	0	0	0	0	0	0	0	0	0	0	0	0	0	0	0	0	0
082812	14:53:25	10035	Trial3BackEng	NN	4	0	1000	1	121	14:53:25	1002812	0	0	0	0	0	0	0	0	0	0	0	0	0	0	0	0	0
082812	14:53:25	10035	Trial3BackEng	YY	4	57	473	1	121	14:53:25	1003811	0	0	0	0	0	0	0	0	0	0	0	0	0	0	0	0	0
082812	14:53:25	10035	Trial3BackEng	NN	4	0	1000	1	121	14:53:25	1005837	0	0	0	0	0	0	0	0	0	0	0	0	0	0	0	0	0
082812	14:53:25	10035	Trial3BackEng	NN	4	0	1000	1	121	14:53:25	1007357	0	0	0	0	0	0	0	0	0	0	0	0	0	0	0	0	0
082812	14:53:25	10035	Trial3BackEng	NN	4	0	1000	1	121	14:53:25	1008876	0	0	0	0	0	0	0	0	0	0	0	0	0	0	0	0	0
082812	14:53:25	10035	Trial3BackEng	NN	4	0	1000	1	121	14:53:25	1010396	0	0	0	0	0	0	0	0	0	0	0	0	0	0	0	0	0
082812	14:53:25	10035	Trial3BackEng	NN	4	0	1000	1	121	14:53:25	1011915	0	0	0	0	0	0	0	0	0	0	0	0	0	0	0	0	0
082812	14:53:25	10035	Trial3BackEng	NN	4	0	1000	1	121	14:53:25	1013434	0	0	0	0	0	0	0	0	0	0	0	0	0	0	0	0	0
082812	14:53:25	10035	Trial3BackEng	NN	4	0	1000	1	121	14:53:25	1014954	0	0	0	0	0	0	0	0	0	0	0	0	0	0	0	0	0
082812	14:53:25	10035	Trial3BackEng	YY	4	57	524	1	121	14:53:25	1016006	0	0	0	0	0	0	0	0	0	0	0	0	0	0	0	0	0
082812	14:53:25	10035	Trial3BackEng	NN	4	0	1000	1	121	14:53:25	1017979	0	0	0	0	0	0	0	0	0	0	0	0	0	0	0	0	0
082812	14:53:25	10035	Trial3BackEng	NN	4	0	1000	1	121	14:53:25	1019499	0	0	0	0	0	0	0	0	0	0	0	0	0	0	0	0	0
082812	14:53:25	10035	Trial3BackEng	NN	4	0	1000	1	121	14:53:25	1021018	0	0	0	0	0	0	0	0	0	0	0	0	0	0	0	0	0
082812	14:53:25	10035	Trial3BackEng	NN	4	0	1000	1	121	14:53:25	1022537	0	0	0	0	0	0	0	0	0	0	0	0	0	0	0	0	0
082812	14:53:25	10035	Trial3BackEng	NN	4	0	1000	1	121	14:53:25	1024057	0	0	0	0	0	0	0	0	0	0	0	0	0	0	0	0	0
082812	14:53:25	10035	Trial3BackEng	YY	4	57	973	1	121	14:53:25	1025563	0	0	0	0	0	0	0	0	0	0	0	0	0	0	0	0	0
082812	14:53:25	10035	Trial3BackEng	NN	4	0	1000	1	121	14:53:25	1027082	0	0	0	0	0	0	0	0	0	0	0	0	0	0	0	0	0
082812	14:53:25	10035	Trial3BackEng	NN	4	0	1000	1	121	14:53:25	1028602	0	0	0	0	0	0	0	0	0	0	0	0	0	0	0	0	0
082812	14:53:25	10035	Trial3BackEng	NN	4	0	1000	1	121	14:53:25	1030148	0	0	0	0	0	0	0	0	0	0	0	0	0	0	0	0	0
082812	14:53:25	10035	Trial3BackEng	YY	4	57	834	1	121	14:53:25	1031507	0	0	0	0	0	0	0	0	0	0	0	0	0	0	0	0	0
082812	14:53:25	10035	Trial3BackEng	NN	4	0	1000	1	121	14:53:25	1033173	0	0	0	0	0	0	0	0	0	0	0	0	0	0	0	0	0
082812	14:53:25	10035	Trial3BackEng	NN	4	0	1000	1	121	14:53:25	1034692	0	0	0	0	0	0	0	0	0	0	0	0	0	0	0	0	0
082812	14:53:25	10035	Trial3BackEng	NN	4	0	1000	1	121	14:53:25	1036212	0	0	0	0	0	0	0	0	0	0	0	0	0	0	0	0	0
082812	14:53:25	10035	Trial3BackEng	YY	4	57	433	1	121	14:53:25	1037171	0	0	0	0	0	0	0	0	0	0	0	0	0	0	0	0	0
082812	14:53:25	10035	Trial3BackEng	NN	4	0	1000	1	121	14:53:25	1039237	0	0	0	0	0	0	0	0	0	0	0	0	0	0	0	0	0
082812	14:53:25	10035	Trial3BackEng	NN	4	0	1000	1	121	14:53:25	1040757	0	0	0	0	0	0	0	0	0	0	0	0	0	0	0	0	0
082812	14:53:25	10035	Trial3BackEng	NN	4	0	1000	1	121	14:53:25	1042276	0	0	0	0	0	0	0	0	0	0	0	0	0	0	0	0	0
082812	14:53:25	10035	Trial3BackEng	NN	4	0	1000	1	121	14:53:25	1043795	0	0	0	0	0	0	0	0	0	0	0	0	0	0	0	0	0
082812	14:53:25	10035	Trial3BackEng	NN	4	0	1000	1	121	14:53:25	1045315	0	0	0	0	0	0	0	0	0	0	0	0	0	0	0	0	0
082812	14:53:25	10035	Trial3BackEng	NN	4	0	1000	1	121	14:53:25	1046834	0	0	0	0	0	0	0	0	0	0	0	0	0	0	0	0	0
082812	14:53:25	10035	Trial3BackEng	NN	4	0	1000	1	121	14:53:25	1048353	0	0	0	0	0	0	0	0	0	0	0	0	0	0	0	0	0
082812	14:53:25	10035	Trial3BackEng	NN	4	0	1000	1	121	14:53:25	1049873	0	0	0	0	0	0	0	0	0	0	0	0	0	0	0	0	0
082812	14:53:25	10035	Trial3BackEng	NN	4	0	1000	1	121	14:53:25	1051392	0	0	0	0	0	0	0	0	0	0	0	0	0	0	0	0	0
082812	14:53:25	10035	Trial3BackEng	NN	4	57	852	0	121	14:53:25	1052778	0	0	0	0	0	0	0	0	0	0	0	0	0	0	0	0	0
082812	14:53:25	10035	Trial3BackEng	YY	4	0	1000	0	121	14:53:25	1054418	0	0	0	0	0	0	0	0	0	0	0	0	0	0	0	0	0
082812	14:53:25	10035	Trial3BackEng	NN	4	0	1000	1	121	14:53:25	1055937	0	0	0	0	0	0	0	0	0	0	0	0	0	0	0	0	0
082812	14:53:25	10035	Trial3BackEng	NN	4	0	1000	1	121	14:53:25	1057457	0	0	0	0	0	0	0	0	0	0	0	0	0	0	0	0	0
082812	14:53:25	10035	Trial3BackEng	NN	4	0	1000	1	121	14:53:25	1058976	0	0	0	0	0	0	0	0	0	0	0	0	0	0	0	0	0
082812	14:53:25	10035	Trial3BackEng	NN	4	0	1000	1	121	14:53:25	1060495	0	0	0	0	0	0	0	0	0	0	0	0	0	0	0	0	0
082812	14:53:25	10035	Trial3BackEng	YY	4	0	1000	0	121	14:53:25	1062015	0	0	0	0	0	0	0	0	0	0	0	0	0	0	0	0	0
082812	14:53:25	10035	Trial3BackEng	NN	4	0	1000	1	121	14:53:25	1063534	0	0	0	0	0	0	0	0	0	0	0	0	0	0	0	0	0
082812	14:53:25	10035	Trial3BackEng	NN	4	0	1000	1	121	14:53:25	1065053	0	0	0	0	0	0	0	0	0	0	0	0	0	0	0	0	0
082812	14:53:25	10035	Trial3BackEng	NN	4	0	1000	1	121	14:53:25	1066573	0	0	0	0	0	0	0	0	0	0	0	0	0	0	0	0	0
082812	14:53:25	10035	Trial3BackEng	NN	4	0	1000	1	121	14:53:25	1068092	0	0	0	0	0	0	0	0	0	0	0	0	0	0	0	0	0
082812	14:53:25	10035	Trial3BackEng	NN	4	0	1000	1	121	14:53:25	1069612	0	0	0	0	0	0	0	0	0	0	0	0	0	0	0	0	0
082812	14:53:25	10035	Trial3BackEng	YY	4	0	1000	0	121	14:53:25	1071131	0	0	0	0	0	0	0	0	0	0	0	0	0	0	0	0	0
082812	14:53:25	10035	Trial3BackEng	NN	4	0	1000	1	121	14:53:25	1072650	0	0	0	0	0	0	0	0	0	0	0	0	0	0	0	0	0
082812	14:53:25	10035	Trial3BackEng	NN	4	0	1000	1	121	14:53:25	1074170	0	0	0	0	0	0	0	0	0	0	0	0	0	0	0	0	0
082812	14:53:25	10035	Trial3BackEng	NN	4	0	1000	1	121	14:53:25	1075689	0	0	0	0	0	0	0	0	0	0	0	0	0	0	0	0	0
082812	14:53:25	10035	Trial3BackEng	NN	4	0	1000	1	121	14:53:25	1077209	0	0	0	0	0	0	0	0	0	0	0	0	0	0	0	0	0
082812	14:53:25	10035	Trial3BackEng	NN	4	57	635	0	121	14:53:25	1078368	0	0	0	0	0	0	0	0	0	0	0	0	0	0	0	0	0
082812	14:53:25	10035	Trial3BackEng	NN	4	0	1000	1	121	14:53:25	1080234	0	0	0	0	0	0	0	0	0	0	0	0	0	0	0	0	0
082812	14:53:25	10035	Trial3BackEng	YY	4	0	1000	0	121	14:53:25	1081754	0	0	0	0	0	0	0	0	0	0	0	0	0	0	0	0	0
082812	14:53:25	10035	Trial3BackEng	NN	4	0	1000	1	121	14:53:25	1083273	0	0	0	0	0	0	0	0	0	0	0	0	0	0	0	0	0
082812	14:53:25	10035	Trial3BackEng	NN	4	0	1000	1	121	14:53:25	1084792	0	0	0	0	0	0	0	0	0	0	0	0	0	0	0	0	0
082812	14:53:25	10035	Trial3BackEng	NN	4	0	1000	1	121	14:53:25	1086312	0	0	0	0	0	0	0	0	0	0	0	0	0	0	0	0	0
082812	14:53:25	10035	Trial3BackEng	YY	4	57	828	1	121	14:53:25	1087671	0	0	0	0	0	0	0	0	0	0	0	0	0	0	0	0	0
082812	14:53:25	10035	Trial3BackEng	NN	4	0	1000	1	121	14:53:25	1089337	0	0	0	0	0	0	0	0	0	0	0	0	0	0	0	0	0
082812	14:53:25	10035	Trial3BackEng	NN	4	0	1000	1	121	14:53:25	1090857	0	0	0	0	0	0	0	0	0	0	0	0	0	0	0	0	0
082812	14:53:25	10035	Trial3BackEng	NN	4	0	1000	1	121	14:53:25	1092376	0	0	0	0	0	0	0	0	0	0	0	0	0	0	0	0	0
082812	14:53:25	10035	Trial3BackEng	NN	4	0	1000	1	121	14:53:25	1093895	0	0	0	0	0	0	0	0	0	0	0	0	0	0	0	0	0
082812	14:53:25	10035	Trial3BackEng	NN	4	0	1000	1	121	14:53:25	1095415	0	0	0	0	0	0	0	0	0	0	0	0	0	0	0	0	0
082812	14:53:25	10035	Trial3BackEng	NN	4	0	1000	1	121	14:53:25	1096934	0	0	0	0	0	0	0	0	0	0	0	0	0	0	0	0	0
082812	14:53:25	10035	Trial3BackEng	NN	4	0	1000	1	121	14:53:25	1098453	0	0	0	0	0	0	0	0	0	0	0	0	0	0	0	0	0
082812	14:53:25	10035	Trial3BackEng	NN	4	0	1000	1	121	14:53:25	1099973	0	0	0	0	0	0	0	0	0	0	0	0	0	0	0	0	0
082812	14:53:25	10035	Trial3BackEng	NN	4	0	1000	1	121	14:53:25	1101492	0	0	0	0	0	0	0	0	0	0	0	0	0	0	0	0	0
082812	14:53:25	10035	Trial3BackEng	YY	4	57	687	1	121	14:53:25	1102705	0	0	0	0	0	0	0	0	0	0	0	0	0	0	0	0	0
082812	14:53:25	10035	Trial3BackEng	NN	4	0	1000	1	121	14:53:25	1104518	0	0	0	0	0	0	0	0	0	0	0	0	0	0	0	0	0
082812	14:53:25	10035	Trial3BackEng	NN	4	0	1000	1	121	14:53:25	1106037	0	0	0	0	0	0	0	0	0	0	0	0	0	0	0	0	0
082812	14:53:25	10035	Trial3BackEng	NN	4	0	1000	1	121	14:53:25	1107556	0	0	0	0	0	0	0	0	0	0	0	0	0	0	0	0	0
082812	14:53:25	10035	Trial3BackEng	YY	4	57	623	1	121	14:53:25	1108702	0	0	0	0	0	0	0	0	0	0	0	0	0	0	0	0	0
082812	14:53:25	10035	Trial3BackEng	NN	4	0	1000	1	121	14:53:25	1110582	0	0	0	0	0	0	0	0	0	0	0	0	0	0	0	0	0
082812	14:53:25	10035	Trial3BackEng	NN	4	0	1000	1	121	14:53:25	1112101	0	0	0	0	0	0	0	0	0	0	0	0	0	0	0	0	0
082812	14:53:25	10035	Trial3BackEng	NN	4	0	1000	1	121	14:53:25	1113621	0	0	0	0	0	0	0	0	0	0	0	0	0	0	0	0	0
082812	14:53:25	10035	Trial3BackEng	NN	4	0	1000	1	121	14:53:25	1115140	0	0	0	0	0	0	0	0	0	0	0	0	0	0	0	0	0
082812	14:53:25	10035	Trial3BackEng	NN	4	0	1000	1	121	14:53:25	1116659	0	0	0	0	0	0	0	0	0	0	0	0	0	0	0	0	0
082812	14:53:25	10035	Trial3BackEng	YY	4	57	464	1	121	14:53:25	1117646	0	0	0	0	0	0	0	0	0	0	0	0	0	0	0	0	0
082812	14:53:25	10035	Trial3BackEng	NN	4	0	1000	1	121	14:53:25	1119685	0	0	0	0	0	0	0	0	0	0	0	0	0	0	0	0	0
082812	14:53:25	10035	Trial3BackEng	NN	4	0	1000	1	121	14:53:25	1121204	0	0	0	0	0	0	0	0	0	0	0	0	0	0	0	0	0
082812	14:53:25	10035	Trial3BackEng	NN	4	0	1000	1	121	14:53:25	1122723	0	0	0	0	0	0	0	0	0	0	0	0	0	0	0	0	0
082812	14:53:25	10035	Trial3BackEng	NN	4	0	1000	1	121	14:53:25	1124243	0	0	0	0	0	0	0	0	0	0	0	0	0	0	0	0	0
082812	14:53:25	10035	Trial3BackEng	NN	4	0	1000	1	121	14:53:25	1125762	0	0	0	0	0	0	0	0	0	0	0	0	0	0	0	0	0
082812	14:53:25	10035	Trial3BackEng	NN	4	0	1000	1	121	14:53:25	1127282	0	0	0	0	0	0	0	0	0	0	0	0	0	0	0	0	0
082812	14:53:25	10035	Trial3BackEng	NN	4	0	1000	1	121	14:53:25	1128801	0	0	0	0	0	0	0	0	0	0	0	0	0	0	0	0	0
082812	14:53:25	10035	Trial3BackEng	NN	4	0	1000	1	121	14:53:25	1130320	0	0	0	0	0	0	0	0	0	0	0	0	0	0	0	0	0
082812	14:53:25	10035	Trial3BackEng	NN	4	0	1000	1	121	14:53:25	1131840	0	0	0	0	0	0	0	0	0	0	0	0	0	0	0	0	0
082812	14:53:25	10035	Trial3BackEng	YY	4	57	339	1	121	14:53:25	1132706	0	0	0	0	0	0	0	0	0	0	0	0	0	0	0	0	0
082812	14:53:25	10035	Trial3BackEng	NN	4	0	1000	1	121	14:53:25	1134865	0	0	0	0	0	0	0	0	0	0	0	0	0	0	0	0	0
082812	14:53:25	10035	Trial3BackEng	NN	4	0	1000	1	121	14:53:25	1136385	0	0	0	0	0	0	0	0	0	0	0	0	0	0	0	0	0
082812	14:53:25	10035	Trial3BackEng	NN	4	0	1000	1	121	14:53:25	1137904	0	0	0	0	0	0	0	0	0	0	0	0	0	0	0	0	0
082812	14:53:25	10035	Trial3BackEng	NN	4	0	1000	1	121	14:53:25	1139423	0	0	0	0	0	0	0	0	0	0	0	0	0	0	0	0	0
082812	14:53:25	10035	Trial3BackEng	NN	4	0	1000	1	121	14:53:25	1140943	0	0	0	0	0	0	0	0	0	0	0	0	0	0	0	0	0
082812	14:53:25	10035	Trial3BackEng	NN	4	0	1000	1	121	14:53:25	1142462	0	0	0	0	0	0	0	0	0	0	0	0	0	0	0	0	0
082812	14:53:25	10035	Trial3BackEng	NN	4	0	1000	1	121	14:53:25	1143982	0	0	0	0	0	0	0	0	0	0	0	0	0	0	0	0	0
082812	14:53:25	10035	Trial3BackEng	NN	4	0	1000	1	121	14:53:25	1145501	0	0	0	0	0	0	0	0	0	0	0	0	0	0	0	0	0
082812	14:53:25	10035	Trial3BackEng	YY	4	57	502	1	121	14:53:25	1146527	0	0	0	0	0	0	0	0	0	0	0	0	0	0	0	0	0
082812	14:53:25	10035	Trial3BackEng	NN	4	0	1000	1	121	14:53:25	1148526	0	0	0	0	0	0	0	0	0	0	0	0	0	0	0	0	0
082812	14:53:25	10035	Trial3BackEng	NN	4	0	1000	1	121	14:53:25	1150046	0	0	0	0	0	0	0	0	0	0	0	0	0	0	0	0	0
082812	14:53:25	10035	Trial3BackEng	NN	4	0	1000	1	121	14:53:25	1151565	0	0	0	0	0	0	0	0	0	0	0	0	0	0	0	0	0
082812	14:53:25	10035	Trial3BackEng	NN	4	0	1000	1	121	14:53:25	1153085	0	0	0	0	0	0	0	0	0	0	0	0	0	0	0	0	0
082812	14:53:25	10035	Trial3BackEng	YY	4	0	1000	0	121	14:53:25	1154604	0	0	0	0	0	0	0	0	0	0	0	0	0	0	0	0	0
082812	14:53:25	10035	Trial3BackEng	NN	4	0	1000	1	121	14:53:25	1156123	0	0	0	0	0	0	0	0	0	0	0	0	0	0	0	0	0
082812	14:53:25	10035	Trial3BackEng	NN	4	0	1000	1	121	14:53:25	1157643	0	0	0	0	0	0	0	0	0	0	0	0	0	0	0	0	0
082812	14:53:25	10035	Trial3BackEng	NN	4	0	1000	1	121	14:53:25	1159162	0	0	0	0	0	0	0	0	0	0	0	0	0	0	0	0	0
082812	14:53:25	10035	Trial3BackEng	YY	4	57	376	1	121	14:53:25	1160068	0	0	0	0	0	0	0	0	0	0	0	0	0	0	0	0	0
082812	14:53:25	10035	Trial3BackEng	NN	4	0	1000	1	121	14:53:25	1162188	0	0	0	0	0	0	0	0	0	0	0	0	0	0	0	0	0
082812	14:53:25	10035	Trial3BackEng	NN	4	0	1000	1	121	14:53:25	1163707	0	0	0	0	0	0	0	0	0	0	0	0	0	0	0	0	0
082812	14:53:25	10035	Trial3BackEng	NN	4	0	1000	1	121	14:53:25	1165226	0	0	0	0	0	0	0	0	0	0	0	0	0	0	0	0	0
082812	14:53:25	10035	Trial3BackEng	NN	4	0	1000	1	121	14:53:25	1166746	0	0	0	0	0	0	0	0	0	0	0	0	0	0	0	0	0
082812	14:53:25	10035	Trial3BackEng	NN	4	0	1000	1	121	14:53:25	1168265	0	0	0	0	0	0	0	0	0	0	0	0	0	0	0	0	0
082812	14:53:25	10035	Trial3BackEng	YY	4	0	1000	0	121	14:53:25	1169784	0	0	0	0	0	0	0	0	0	0	0	0	0	0	0	0	0
082812	14:53:25	10035	Trial3BackEng	NN	4	0	1000	1	121	14:53:25	1171304	0	0	0	0	0	0	0	0	0	0	0	0	0	0	0	0	0
082812	14:53:25	10035	Trial3BackEng	NN	4	0	1000	1	121	14:53:25	1172823	0	0	0	0	0	0	0	0	0	0	0	0	0	0	0	0	0
082812	14:53:25	10035	Trial3BackEng	NN	4	0	1000	1	121	14:53:25	1174343	0	0	0	0	0	0	0	0	0	0	0	0	0	0	0	0	0
082812	14:53:25	10035	Trial3BackEng	YY	4	57	379	1	121	14:53:25	1175249	0	0	0	0	0	0	0	0	0	0	0	0	0	0	0	0	0
082812	14:53:25	10035	Memory1RBaseline	Score	5	M1	18861	0	121	14:53:25	1229094	0	0	0	0	0	0	0	0	0	0	0	0	0	0	0	0	0
082812	14:53:25	10035	Memory1RBaseline	Score	5	M3	283	0	121	14:53:25	1229414	0	0	0	0	0	0	0	0	0	0	0	0	0	0	0	0	0
082812	14:53:25	10035	Memory1RBaseline	Score	5	M2	412	0	121	14:53:25	1229867	0	0	0	0	0	0	0	0	0	0	0	0	0	0	0	0	0
082812	14:53:25	10035	Memory1RBaseline	Score	5	M3	230	0	121	14:53:25	1230134	0	0	0	0	0	0	0	0	0	0	0	0	0	0	0	0	0
082812	14:53:25	10035	Memory1RBaseline	Score	5	M4	2987	0	121	14:53:25	1233159	0	0	0	0	0	0	0	0	0	0	0	0	0	0	0	0	0
082812	14:53:25	10035	Memory1RBaseline	Score	5	M6	178	0	121	14:53:25	1233372	0	0	0	0	0	0	0	0	0	0	0	0	0	0	0	0	0
082812	14:53:25	10035	Memory1RBaseline	Score	5	M5	477	0	121	14:53:25	1233892	0	0	0	0	0	0	0	0	0	0	0	0	0	0	0	0	0
082812	14:53:25	10035	Memory1RBaseline	Score	5	M6	446	0	121	14:53:25	1234372	0	0	0	0	0	0	0	0	0	0	0	0	0	0	0	0	0
082812	14:53:25	10035	Memory1RBaseline	Score	5	M7	1326	0	121	14:53:25	1235731	0	0	0	0	0	0	0	0	0	0	0	0	0	0	0	0	0
082812	14:53:25	10035	Memory1RBaseline	Score	5	M8	694	0	121	14:53:25	1236464	0	0	0	0	0	0	0	0	0	0	0	0	0	0	0	0	0
082812	14:53:25	10035	Memory1RBaseline	Score	5	Done	2497	0	121	14:53:25	1238997	0	0	0	0	0	0	0	0	0	0	0	0	0	0	0	0	0
082812	14:53:25	10035	Memory2RBaseline	Score2	5	88	23646	0	121	14:53:25	1283765	0	0	0	0	0	0	0	0	0	0	0	0	0	0	0	0	0
082812	14:53:25	10035	Memory2RBaseline	Score2	5	66	562	0	121	14:53:25	1284365	0	0	0	0	0	0	0	0	0	0	0	0	0	0	0	0	0
082812	14:53:25	10035	Memory2RBaseline	Score2	5	55	315	0	121	14:53:25	1284725	0	0	0	0	0	0	0	0	0	0	0	0	0	0	0	0	0
082812	14:53:25	10035	Memory2RBaseline	Score2	5	44	331	0	121	14:53:25	1285098	0	0	0	0	0	0	0	0	0	0	0	0	0	0	0	0	0
082812	14:53:25	10035	Memory2RBaseline	Score2	5	33	358	0	121	14:53:25	1285498	0	0	0	0	0	0	0	0	0	0	0	0	0	0	0	0	0
082812	14:53:25	10035	Memory2RBaseline	Score2	5	22	318	0	121	14:53:25	1285858	0	0	0	0	0	0	0	0	0	0	0	0	0	0	0	0	0
082812	14:53:25	10035	Memory2RBaseline	Score2	5	11	428	0	121	14:53:25	1286324	0	0	0	0	0	0	0	0	0	0	0	0	0	0	0	0	0
082812	14:53:25	10035	Memory2RBaseline	Score2	5	Done	796	0	121	14:53:25	1287164	0	0	0	0	0	0	0	0	0	0	0	0	0	0	0	0	0
082812	14:53:25	10035	Memory3RBaseline	Score3	5	111	15329	0	121	14:53:25	1323829	0	0	0	0	0	0	0	0	0	0	0	0	0	0	0	0	0
082812	14:53:25	10035	Memory3RBaseline	Score3	5	222	258	0	121	14:53:25	1324122	0	0	0	0	0	0	0	0	0	0	0	0	0	0	0	0	0
082812	14:53:25	10035	Memory3RBaseline	Score3	5	333	765	0	121	14:53:25	1324922	0	0	0	0	0	0	0	0	0	0	0	0	0	0	0	0	0
082812	14:53:25	10035	Memory3RBaseline	Score3	5	444	877	0	121	14:53:25	1325842	0	0	0	0	0	0	0	0	0	0	0	0	0	0	0	0	0
082812	14:53:25	10035	Memory3RBaseline	Score3	5	555	309	0	121	14:53:25	1326188	0	0	0	0	0	0	0	0	0	0	0	0	0	0	0	0	0
082812	14:53:25	10035	Memory3RBaseline	Score3	5	666	395	0	121	14:53:25	1326628	0	0	0	0	0	0	0	0	0	0	0	0	0	0	0	0	0
082812	14:53:25	10035	Memory3RBaseline	Score3	5	777	459	0	121	14:53:25	1327121	0	0	0	0	0	0	0	0	0	0	0	0	0	0	0	0	0
082812	14:53:25	10035	Memory3RBaseline	Score3	5	888	446	0	121	14:53:25	1327601	0	0	0	0	0	0	0	0	0	0	0	0	0	0	0	0	0
082812	14:53:25	10035	Memory3RBaseline	Score3	5	Done	3950	0	121	14:53:25	1331586	0	0	0	0	0	0	0	0	0	0	0	0	0	0	0	0	0
082812	14:53:25	10035	LoriaEngLH3	Stop	6	4	4330	0	121	14:53:25	1408183	0	0	0	0	0	0	0	0	0	0	0	0	0	0	0	0	0
082812	14:53:25	10035	EngTrail	Trails	7	1Trails	1532	0	121	14:53:25	1450205	0	0	0	0	0	0	0	0	0	0	0	0	0	0	0	0	0
082812	14:53:25	10035	Serial7EngBaseline	Serial7EngBaseline	8	83	7630	0	121	14:53:25	1491563	1	0	0	0	0	0	0	0	0	0	0	0	0	0	0	0	0
082812	14:53:25	10035	Serial7EngBaseline	Serial7EngBaseline	8	76	2454	0	121	14:53:25	1494042	2	0	0	0	0	0	0	0	0	0	0	0	0	0	0	0	0
082812	14:53:25	10035	Serial7EngBaseline	Serial7EngBaseline	8	69	2222	0	121	14:53:25	1496281	3	0	0	0	0	0	0	0	0	0	0	0	0	0	0	0	0
082812	14:53:25	10035	Serial7EngBaseline	Serial7EngBaseline	8	62	2009	0	121	14:53:25	1498307	4	0	0	0	0	0	0	0	0	0	0	0	0	0	0	0	0
082812	14:53:25	10035	Serial7EngBaseline	Serial7EngBaseline	8	53	2197	0	121	14:53:25	1500533	4	0	0	0	0	0	0	0	0	0	0	0	0	0	0	0	0
082812	14:53:25	10035	corsiblockEngFwrd	recallseqEngFwrd	9	9	1730	0	121	14:53:25	1536798	4	0	0	0	0	0	0	0	0	0	0	0	0	0	0	0	0
082812	14:53:25	10035	corsiblockEngFwrd	recallseqEngFwrd	9	4	982	0	121	14:53:25	1537824	4	0	0	0	0	0	0	0	0	0	0	0	0	0	0	0	0
082812	14:53:25	10035	corsiblockEngFwrd	recallseqEngFwrd	9	doneCorsiEng	1563	0	121	14:53:25	1539424	4	0	0	0	0	0	0	0	0	0	0	0	0	0	0	2	0
082812	14:53:25	10035	corsiblockEngFwrd	recallseqEngFwrd	9	1	953	0	121	14:53:25	1546461	4	0	0	0	0	0	0	0	0	0	0	0	0	0	0	2	0
082812	14:53:25	10035	corsiblockEngFwrd	recallseqEngFwrd	9	5	942	0	121	14:53:25	1547447	4	0	0	0	0	0	0	0	0	0	0	0	0	0	0	2	0
082812	14:53:25	10035	corsiblockEngFwrd	recallseqEngFwrd	9	2	724	0	121	14:53:25	1548207	4	0	0	0	0	0	0	0	0	0	0	0	0	0	0	2	0
082812	14:53:25	10035	corsiblockEngFwrd	recallseqEngFwrd	9	doneCorsiEng	1189	0	121	14:53:25	1549433	4	0	0	0	0	0	0	0	0	0	0	0	0	0	0	3	0
082812	14:53:25	10035	corsiblockEngFwrd	recallseqEngFwrd	9	6	519	0	121	14:53:25	1557043	4	0	0	0	0	0	0	0	0	0	0	0	0	0	0	3	0
082812	14:53:25	10035	corsiblockEngFwrd	recallseqEngFwrd	9	7	1176	0	121	14:53:25	1558256	4	0	0	0	0	0	0	0	0	0	0	0	0	0	0	3	0
082812	14:53:25	10035	corsiblockEngFwrd	recallseqEngFwrd	9	8	611	0	121	14:53:25	1558909	4	0	0	0	0	0	0	0	0	0	0	0	0	0	0	3	0
082812	14:53:25	10035	corsiblockEngFwrd	recallseqEngFwrd	9	3	854	0	121	14:53:25	1559802	4	0	0	0	0	0	0	0	0	0	0	0	0	0	0	3	0
082812	14:53:25	10035	corsiblockEngFwrd	recallseqEngFwrd	9	doneCorsiEng	1097	0	121	14:53:25	1560935	4	0	0	0	0	0	0	0	0	0	0	0	0	0	0	4	0
082812	14:53:25	10035	corsiblockEngFwrd	recallseqEngFwrd	9	7	698	0	121	14:53:25	1569718	4	0	0	0	0	0	0	0	0	0	0	0	0	0	0	4	0
082812	14:53:25	10035	corsiblockEngFwrd	recallseqEngFwrd	9	5	813	0	121	14:53:25	1570571	4	0	0	0	0	0	0	0	0	0	0	0	0	0	0	4	0
082812	14:53:25	10035	corsiblockEngFwrd	recallseqEngFwrd	9	2	792	0	121	14:53:25	1571397	4	0	0	0	0	0	0	0	0	0	0	0	0	0	0	4	0
082812	14:53:25	10035	corsiblockEngFwrd	recallseqEngFwrd	9	6	885	0	121	14:53:25	1572317	4	0	0	0	0	0	0	0	0	0	0	0	0	0	0	4	0
082812	14:53:25	10035	corsiblockEngFwrd	recallseqEngFwrd	9	8	902	0	121	14:53:25	1573263	4	0	0	0	0	0	0	0	0	0	0	0	0	0	0	4	0
082812	14:53:25	10035	corsiblockEngFwrd	recallseqEngFwrd	9	doneCorsiEng	947	0	121	14:53:25	1574250	4	0	0	0	0	0	0	0	0	0	0	0	0	0	0	5	0
082812	14:53:25	10035	corsiblockEngFwrd	recallseqEngFwrd	9	4	943	0	121	14:53:25	1584286	4	0	0	0	0	0	0	0	0	0	0	0	0	0	0	5	0
082812	14:53:25	10035	corsiblockEngFwrd	recallseqEngFwrd	9	9	1133	0	121	14:53:25	1585459	4	0	0	0	0	0	0	0	0	0	0	0	0	0	0	5	0
082812	14:53:25	10035	corsiblockEngFwrd	recallseqEngFwrd	9	1	1088	0	121	14:53:25	1586591	4	0	0	0	0	0	0	0	0	0	0	0	0	0	0	5	0
082812	14:53:25	10035	corsiblockEngFwrd	recallseqEngFwrd	9	3	739	0	121	14:53:25	1587364	4	0	0	0	0	0	0	0	0	0	0	0	0	0	0	5	0
082812	14:53:25	10035	corsiblockEngFwrd	recallseqEngFwrd	9	4	2606	0	121	14:53:25	1590003	4	0	0	0	0	0	0	0	0	0	0	0	0	0	0	5	0
082812	14:53:25	10035	corsiblockEngFwrd	recallseqEngFwrd	9	2	767	0	121	14:53:25	1590816	4	0	0	0	0	0	0	0	0	0	0	0	0	0	0	5	0
082812	14:53:25	10035	corsiblockEngFwrd	recallseqEngFwrd	9	doneCorsiEng	970	0	121	14:53:25	1591829	4	0	0	0	0	0	0	0	0	0	0	0	0	0	0	6	0
082812	14:53:25	10035	corsiblockEngFwrd	recallseqEngFwrd	9	6	2204	0	121	14:53:25	1604118	4	0	0	0	0	0	0	0	0	0	0	0	0	0	0	6	0
082812	14:53:25	10035	corsiblockEngFwrd	recallseqEngFwrd	9	1	1308	0	121	14:53:25	1605464	4	0	0	0	0	0	0	0	0	0	0	0	0	0	0	6	0
082812	14:53:25	10035	corsiblockEngFwrd	recallseqEngFwrd	9	3	810	0	121	14:53:25	1606317	4	0	0	0	0	0	0	0	0	0	0	0	0	0	0	6	0
082812	14:53:25	10035	corsiblockEngFwrd	recallseqEngFwrd	9	8	1125	0	121	14:53:25	1607476	4	0	0	0	0	0	0	0	0	0	0	0	0	0	0	6	0
082812	14:53:25	10035	corsiblockEngFwrd	recallseqEngFwrd	9	7	2606	0	121	14:53:25	1610115	4	0	0	0	0	0	0	0	0	0	0	0	0	0	0	6	0
082812	14:53:25	10035	corsiblockEngFwrd	recallseqEngFwrd	9	9	463	0	121	14:53:25	1610622	4	0	0	0	0	0	0	0	0	0	0	0	0	0	0	6	0
082812	14:53:25	10035	corsiblockEngFwrd	recallseqEngFwrd	9	doneCorsiEng	2204	0	121	14:53:25	1612861	4	0	0	0	0	0	0	0	0	0	0	0	0	0	0	6	0
082812	14:53:25	10035	corsiblockEngFwrd	recallseqEngFwrd	9	6	1852	0	121	14:53:25	1624763	4	0	0	0	0	0	0	0	0	0	0	0	0	0	0	6	0
082812	14:53:25	10035	corsiblockEngFwrd	recallseqEngFwrd	9	8	903	0	121	14:53:25	1625709	4	0	0	0	0	0	0	0	0	0	0	0	0	0	0	6	0
082812	14:53:25	10035	corsiblockEngFwrd	recallseqEngFwrd	9	4	1701	0	121	14:53:25	1627455	4	0	0	0	0	0	0	0	0	0	0	0	0	0	0	6	0
082812	14:53:25	10035	corsiblockEngFwrd	recallseqEngFwrd	9	1	2331	0	121	14:53:25	1629827	4	0	0	0	0	0	0	0	0	0	0	0	0	0	0	6	0
082812	14:53:25	10035	corsiblockEngFwrd	recallseqEngFwrd	9	7	2103	0	121	14:53:25	1631973	4	0	0	0	0	0	0	0	0	0	0	0	0	0	0	6	0
082812	14:53:25	10035	corsiblockEngFwrd	recallseqEngFwrd	9	5	1245	0	121	14:53:25	1633252	4	0	0	0	0	0	0	0	0	0	0	0	0	0	0	6	0
082812	14:53:25	10035	corsiblockEngFwrd	recallseqEngFwrd	9	2	669	0	121	14:53:25	1633959	4	0	0	0	0	0	0	0	0	0	0	0	0	0	0	6	0
082812	14:53:25	10035	corsiblockEngFwrd	recallseqEngFwrd	9	doneCorsiEng	1243	0	121	14:53:25	1635238	4	0	0	0	0	0	0	0	0	0	0	0	0	0	0	6	0
082812	14:53:25	10035	corsiblockEngRev	recallseqEngRev	10	6	1494	0	121	14:53:25	1653191	4	0	0	0	0	0	0	0	0	0	0	0	0	0	0	6	0
082812	14:53:25	10035	corsiblockEngRev	recallseqEngRev	10	2	658	0	121	14:53:25	1653884	4	0	0	0	0	0	0	0	0	0	0	0	0	0	0	6	0
082812	14:53:25	10035	corsiblockEngRev	recallseqEngRev	10	doneCorsiEng	949	0	121	14:53:25	1654870	4	0	0	0	0	0	0	0	0	0	0	0	0	0	0	6	2
082812	14:53:25	10035	corsiblockEngRev	recallseqEngRev	10	9	711	0	121	14:53:25	1661668	4	0	0	0	0	0	0	0	0	0	0	0	0	0	0	6	2
082812	14:53:25	10035	corsiblockEngRev	recallseqEngRev	10	7	541	0	121	14:53:25	1662254	4	0	0	0	0	0	0	0	0	0	0	0	0	0	0	6	2
082812	14:53:25	10035	corsiblockEngRev	recallseqEngRev	10	5	883	0	121	14:53:25	1663174	4	0	0	0	0	0	0	0	0	0	0	0	0	0	0	6	2
082812	14:53:25	10035	corsiblockEngRev	recallseqEngRev	10	doneCorsiEng	667	0	121	14:53:25	1663880	4	0	0	0	0	0	0	0	0	0	0	0	0	0	0	6	3
082812	14:53:25	10035	corsiblockEngRev	recallseqEngRev	10	8	853	0	121	14:53:25	1671824	4	0	0	0	0	0	0	0	0	0	0	0	0	0	0	6	3
082812	14:53:25	10035	corsiblockEngRev	recallseqEngRev	10	1	833	0	121	14:53:25	1672690	4	0	0	0	0	0	0	0	0	0	0	0	0	0	0	6	3
082812	14:53:25	10035	corsiblockEngRev	recallseqEngRev	10	3	703	0	121	14:53:25	1673436	4	0	0	0	0	0	0	0	0	0	0	0	0	0	0	6	3
082812	14:53:25	10035	corsiblockEngRev	recallseqEngRev	10	4	636	0	121	14:53:25	1674116	4	0	0	0	0	0	0	0	0	0	0	0	0	0	0	6	3
082812	14:53:25	10035	corsiblockEngRev	recallseqEngRev	10	doneCorsiEng	1077	0	121	14:53:25	1675236	4	0	0	0	0	0	0	0	0	0	0	0	0	0	0	6	4
082812	14:53:25	10035	corsiblockEngRev	recallseqEngRev	10	6	1227	0	121	14:53:25	1684552	4	0	0	0	0	0	0	0	0	0	0	0	0	0	0	6	4
082812	14:53:25	10035	corsiblockEngRev	recallseqEngRev	10	9	712	0	121	14:53:25	1685298	4	0	0	0	0	0	0	0	0	0	0	0	0	0	0	6	4
082812	14:53:25	10035	corsiblockEngRev	recallseqEngRev	10	4	709	0	121	14:53:25	1686045	4	0	0	0	0	0	0	0	0	0	0	0	0	0	0	6	4
082812	14:53:25	10035	corsiblockEngRev	recallseqEngRev	10	5	580	0	121	14:53:25	1686658	4	0	0	0	0	0	0	0	0	0	0	0	0	0	0	6	4
082812	14:53:25	10035	corsiblockEngRev	recallseqEngRev	10	2	679	0	121	14:53:25	1687377	4	0	0	0	0	0	0	0	0	0	0	0	0	0	0	6	4
082812	14:53:25	10035	corsiblockEngRev	recallseqEngRev	10	doneCorsiEng	831	0	121	14:53:25	1688244	4	0	0	0	0	0	0	0	0	0	0	0	0	0	0	6	5
082812	14:53:25	10035	corsiblockEngRev	recallseqEngRev	10	2	1443	0	121	14:53:25	1698773	4	0	0	0	0	0	0	0	0	0	0	0	0	0	0	6	5
082812	14:53:25	10035	corsiblockEngRev	recallseqEngRev	10	7	795	0	121	14:53:25	1699612	4	0	0	0	0	0	0	0	0	0	0	0	0	0	0	6	5
082812	14:53:25	10035	corsiblockEngRev	recallseqEngRev	10	1	836	0	121	14:53:25	1700492	4	0	0	0	0	0	0	0	0	0	0	0	0	0	0	6	5
082812	14:53:25	10035	corsiblockEngRev	recallseqEngRev	10	7	900	0	121	14:53:25	1701425	4	0	0	0	0	0	0	0	0	0	0	0	0	0	0	6	5
082812	14:53:25	10035	corsiblockEngRev	recallseqEngRev	10	8	1735	0	121	14:53:25	1703197	4	0	0	0	0	0	0	0	0	0	0	0	0	0	0	6	5
082812	14:53:25	10035	corsiblockEngRev	recallseqEngRev	10	3	778	0	121	14:53:25	1704011	4	0	0	0	0	0	0	0	0	0	0	0	0	0	0	6	5
082812	14:53:25	10035	corsiblockEngRev	recallseqEngRev	10	doneCorsiEng	1101	0	121	14:53:25	1705157	4	0	0	0	0	0	0	0	0	0	0	0	0	0	0	6	6
082812	14:53:25	10035	corsiblockEngRev	recallseqEngRev	10	1	1289	0	121	14:53:25	1716539	4	0	0	0	0	0	0	0	0	0	0	0	0	0	0	6	6
082812	14:53:25	10035	corsiblockEngRev	recallseqEngRev	10	3	788	0	121	14:53:25	1717365	4	0	0	0	0	0	0	0	0	0	0	0	0	0	0	6	6
082812	14:53:25	10035	corsiblockEngRev	recallseqEngRev	10	6	691	0	121	14:53:25	1718098	4	0	0	0	0	0	0	0	0	0	0	0	0	0	0	6	6
082812	14:53:25	10035	corsiblockEngRev	recallseqEngRev	10	9	870	0	121	14:53:25	1719005	4	0	0	0	0	0	0	0	0	0	0	0	0	0	0	6	6
082812	14:53:25	10035	corsiblockEngRev	recallseqEngRev	10	4	787	0	121	14:53:25	1719831	4	0	0	0	0	0	0	0	0	0	0	0	0	0	0	6	6
082812	14:53:25	10035	corsiblockEngRev	recallseqEngRev	10	5	849	0	121	14:53:25	1720724	4	0	0	0	0	0	0	0	0	0	0	0	0	0	0	6	6
082812	14:53:25	10035	corsiblockEngRev	recallseqEngRev	10	7	3083	0	121	14:53:25	1723843	4	0	0	0	0	0	0	0	0	0	0	0	0	0	0	6	6
082812	14:53:25	10035	corsiblockEngRev	recallseqEngRev	10	doneCorsiEng	885	0	121	14:53:25	1724762	4	0	0	0	0	0	0	0	0	0	0	0	0	0	0	6	6
082812	14:53:25	10035	corsiblockEngRev	recallseqEngRev	10	1	1443	0	121	14:53:25	1736251	4	0	0	0	0	0	0	0	0	0	0	0	0	0	0	6	6
082812	14:53:25	10035	corsiblockEngRev	recallseqEngRev	10	5	780	0	121	14:53:25	1737064	4	0	0	0	0	0	0	0	0	0	0	0	0	0	0	6	6
082812	14:53:25	10035	corsiblockEngRev	recallseqEngRev	10	3	999	0	121	14:53:25	1738104	4	0	0	0	0	0	0	0	0	0	0	0	0	0	0	6	6
082812	14:53:25	10035	corsiblockEngRev	recallseqEngRev	10	8	2079	0	121	14:53:25	1740223	4	0	0	0	0	0	0	0	0	0	0	0	0	0	0	6	6
082812	14:53:25	10035	corsiblockEngRev	recallseqEngRev	10	2	800	0	121	14:53:25	1741062	4	0	0	0	0	0	0	0	0	0	0	0	0	0	0	6	6
082812	14:53:25	10035	corsiblockEngRev	recallseqEngRev	10	4	1144	0	121	14:53:25	1742249	4	0	0	0	0	0	0	0	0	0	0	0	0	0	0	6	6
082812	14:53:25	10035	corsiblockEngRev	recallseqEngRev	10	6	607	0	121	14:53:25	1742888	4	0	0	0	0	0	0	0	0	0	0	0	0	0	0	6	6
082812	14:53:25	10035	corsiblockEngRev	recallseqEngRev	10	doneCorsiEng	1031	0	121	14:53:25	1743955	4	0	0	0	0	0	0	0	0	0	0	0	0	0	0	6	6
082812	14:53:25	10035	testEngBaseline	WordsEngBaseline	11	1EngBaseline	1289	0	121	14:53:25	1790216	4	1	0	0	0	0	0	0	0	0	0	0	0	0	0	6	6
082812	14:53:25	10035	testEngBaseline	WordsEngBaseline	11	2EngBaseline	333	0	121	14:53:25	1790589	4	1	1	0	0	0	0	0	0	0	0	0	0	0	0	6	6
082812	14:53:25	10035	testEngBaseline	WordsEngBaseline	11	3EngBaseline	320	0	121	14:53:25	1790949	4	1	1	1	0	0	0	0	0	0	0	0	0	0	0	6	6
082812	14:53:25	10035	testEngBaseline	WordsEngBaseline	11	4EngBaseline	288	0	121	14:53:25	1791282	4	1	1	1	1	0	0	0	0	0	0	0	0	0	0	6	6
082812	14:53:25	10035	testEngBaseline	WordsEngBaseline	11	5EngBaseline	267	0	121	14:53:25	1791589	4	1	1	1	1	1	0	0	0	0	0	0	0	0	0	6	6
082812	14:53:25	10035	testEngBaseline	WordsEngBaseline	11	6EngBaseline	280	0	121	14:53:25	1791909	4	1	1	1	1	1	1	0	0	0	0	0	0	0	0	6	6
082812	14:53:25	10035	testEngBaseline	WordsEngBaseline	11	7EngBaseline	313	0	121	14:53:25	1792269	4	1	1	1	1	1	1	1	0	0	0	0	0	0	0	6	6
082812	14:53:25	10035	testEngBaseline	WordsEngBaseline	11	DoneEngBaseline	6376	0	121	14:53:25	1798693	4	1	1	1	1	1	1	1	0	0	0	0	0	0	0	6	6
082812	14:53:25	10035	testEngBaseline	Cat8EngBaseline	11	R8EngBaseline	4837	0	121	14:53:25	1803623	4	1	1	1	1	1	1	1	2	0	0	0	0	0	0	6	6
082812	14:53:25	10035	DigitSpanFwrdEngBaseline	Score1FwrdEngBaseline	12	DS1	5594	0	121	14:53:25	1825281	4	1	1	1	1	1	1	1	2	0	0	0	0	0	0	6	6
082812	14:53:25	10035	DigitSpanFwrdEngBaseline	Gate1FwrdEngBaseline	12	0	1	0	121	14:53:25	1825297	4	1	1	1	1	1	1	1	2	3	0	0	0	0	0	6	6
082812	14:53:25	10035	DigitSpanFwrdEngBaseline	Score2FwrdEngBaseline	12	DS1	3441	0	121	14:53:25	1834491	4	1	1	1	1	1	1	1	2	3	0	0	0	0	0	6	6
082812	14:53:25	10035	DigitSpanFwrdEngBaseline	Gate3FwrdEngBaseline	12	0	1	0	121	14:53:25	1834507	4	1	1	1	1	1	1	1	2	4	0	0	0	0	0	6	6
082812	14:53:25	10035	DigitSpanFwrdEngBaseline	Score3FwrdEngBaseline	12	DS1	4465	0	121	14:53:25	1846766	4	1	1	1	1	1	1	1	2	4	0	0	0	0	0	6	6
082812	14:53:25	10035	DigitSpanFwrdEngBaseline	Gate5FwrdEngBaseline	12	0	1	0	121	14:53:25	1846781	4	1	1	1	1	1	1	1	2	5	0	0	0	0	0	6	6
082812	14:53:25	10035	DigitSpanFwrdEngBaseline	Score4FwrdEngBaseline	12	DS1	3555	0	121	14:53:25	1859881	4	1	1	1	1	1	1	1	2	5	0	0	0	0	0	6	6
082812	14:53:25	10035	DigitSpanFwrdEngBaseline	Gate7FwrdEngBaseline	12	0	1	0	121	14:53:25	1859896	4	1	1	1	1	1	1	1	2	6	0	0	0	0	0	6	6
082812	14:53:25	10035	DigitSpanFwrdEngBaseline	Score5FwrdEngBaseline	12	DS1	5566	0	121	14:53:25	1876541	4	1	1	1	1	1	1	1	2	6	0	0	0	0	0	6	6
082812	14:53:25	10035	DigitSpanFwrdEngBaseline	Gate9FwrdEngBaseline	12	0	1	0	121	14:53:25	1876556	4	1	1	1	1	1	1	1	2	7	0	0	0	0	0	6	6
082812	14:53:25	10035	DigitSpanFwrdEngBaseline	Score6FwrdEngBaseline	12	DS2	6693	0	121	14:53:25	1896586	4	1	1	1	1	1	1	1	2	7	0	0	0	0	0	6	6
082812	14:53:25	10035	DigitSpanFwrdEngBaseline	Gate11FwrdEngBaseline	12	0	1	0	121	14:53:25	1896601	4	1	1	1	1	1	1	1	2	7	0	0	0	0	0	6	6
082812	14:53:25	10035	DigitSpanFwrdEngBaseline	Score66FwrdEngBaseline	12	DS2	5597	0	121	14:53:25	1915405	4	1	1	1	1	1	1	1	2	7	0	0	0	0	0	6	6
082812	14:53:25	10035	DigitSpanEngBaseline	Score1EngBaseline	13	DS1	4339	0	121	14:53:25	1931652	4	1	1	1	1	1	1	1	2	7	0	0	0	0	0	6	6
082812	14:53:25	10035	DigitSpanEngBaseline	Gate1EngBaseline	13	0	1	0	121	14:53:25	1931667	4	1	1	1	1	1	1	1	2	7	2	0	0	0	0	6	6
082812	14:53:25	10035	DigitSpanEngBaseline	Score2EngBaseline	13	DS1	5807	0	121	14:53:25	1942194	4	1	1	1	1	1	1	1	2	7	2	0	0	0	0	6	6
082812	14:53:25	10035	DigitSpanEngBaseline	Gate3EngBaseline	13	0	1	0	121	14:53:25	1942209	4	1	1	1	1	1	1	1	2	7	3	0	0	0	0	6	6
082812	14:53:25	10035	DigitSpanEngBaseline	Score3EngBaseline	13	DS1	8636	0	121	14:53:25	1957428	4	1	1	1	1	1	1	1	2	7	3	0	0	0	0	6	6
082812	14:53:25	10035	DigitSpanEngBaseline	Gate5EngBaseline	13	0	1	0	121	14:53:25	1957443	4	1	1	1	1	1	1	1	2	7	4	0	0	0	0	6	6
082812	14:53:25	10035	DigitSpanEngBaseline	Score4EngBaseline	13	DS1	13455	0	121	14:53:25	1978939	4	1	1	1	1	1	1	1	2	7	4	0	0	0	0	6	6
082812	14:53:25	10035	DigitSpanEngBaseline	Gate7EngBaseline	13	0	1	0	121	14:53:25	1978955	4	1	1	1	1	1	1	1	2	7	5	0	0	0	0	6	6
082812	14:53:25	10035	DigitSpanEngBaseline	Score5EngBaseline	13	DS1	20003	0	121	14:53:25	2008621	4	1	1	1	1	1	1	1	2	7	5	0	0	0	0	6	6
082812	14:53:25	10035	DigitSpanEngBaseline	Gate9EngBaseline	13	0	1	0	121	14:53:25	2008636	4	1	1	1	1	1	1	1	2	7	6	0	0	0	0	6	6
082812	14:53:25	10035	DigitSpanEngBaseline	Score6EngBaseline	13	DS2	24865	0	121	14:53:25	2045472	4	1	1	1	1	1	1	1	2	7	6	0	0	0	0	6	6
082812	14:53:25	10035	DigitSpanEngBaseline	Gate11EngBaseline	13	0	1	0	121	14:53:25	2045488	4	1	1	1	1	1	1	1	2	7	6	0	0	0	0	6	6
082812	14:53:25	10035	DigitSpanEngBaseline	Score66EngBaseline	13	DS2	18268	0	121	14:53:25	2074607	4	1	1	1	1	1	1	1	2	7	6	0	0	0	0	6	6
082812	14:53:25	10035	Trial	IncongruentRight	14	205	730	1	121	14:53:25	2112632	4	1	1	1	1	1	1	1	2	7	6	0	0	0	0	6	6
082812	14:53:25	10035	Trial	IncongruentLeft	14	203	562	1	121	14:53:25	2113471	4	1	1	1	1	1	1	1	2	7	6	0	0	0	0	6	6
082812	14:53:25	10035	Trial	CongruentRight	14	205	443	1	121	14:53:25	2114351	4	1	1	1	1	1	1	1	2	7	6	0	0	0	0	6	6
082812	14:53:25	10035	Trial	IncongruentRight	14	203	390	0	121	14:53:25	2115310	4	1	1	1	1	1	1	1	2	7	6	0	0	0	0	6	6
082812	14:53:25	10035	Trial	CongruentLeft	14	203	446	1	121	14:53:25	2116363	4	1	1	1	1	1	1	1	2	7	6	0	0	0	0	6	6
082812	14:53:25	10035	Trial	CongruentRight	14	205	455	1	121	14:53:25	2117376	4	1	1	1	1	1	1	1	2	7	6	0	0	0	0	6	6
082812	14:53:25	10035	Trial	IncongruentRight	14	205	527	1	121	14:53:25	2118442	4	1	1	1	1	1	1	1	2	7	6	0	0	0	0	6	6
082812	14:53:25	10035	Trial	CongruentLeft	14	203	487	1	121	14:53:25	2119402	4	1	1	1	1	1	1	1	2	7	6	0	0	0	0	6	6
082812	14:53:25	10035	Trial	IncongruentLeft	14	203	496	1	121	14:53:25	2120415	4	1	1	1	1	1	1	1	2	7	6	0	0	0	0	6	6
082812	14:53:25	10035	Trial	IncongruentLeft	14	203	472	1	121	14:53:25	2121388	4	1	1	1	1	1	1	1	2	7	6	0	0	0	0	6	6
082812	14:53:25	10035	Trial	CongruentRight	14	205	385	1	121	14:53:25	2122308	4	1	1	1	1	1	1	1	2	7	6	0	0	0	0	6	6
082812	14:53:25	10035	Trial	IncongruentRight	14	205	457	1	121	14:53:25	2123374	4	1	1	1	1	1	1	1	2	7	6	0	0	0	0	6	6
082812	14:53:25	10035	Trial	CongruentLeft	14	203	465	1	121	14:53:25	2124387	4	1	1	1	1	1	1	1	2	7	6	0	0	0	0	6	6
082812	14:53:25	10035	Trial	CongruentRight	14	205	489	1	121	14:53:25	2125400	4	1	1	1	1	1	1	1	2	7	6	0	0	0	0	6	6
082812	14:53:25	10035	Trial	IncongruentLeft	14	203	402	1	121	14:53:25	2126319	4	1	1	1	1	1	1	1	2	7	6	0	0	0	0	6	6
082812	14:53:25	10035	Trial	IncongruentRight	14	205	522	1	121	14:53:25	2127439	4	1	1	1	1	1	1	1	2	7	6	0	0	0	0	6	6
082812	14:53:25	10035	Trial	CongruentRight	14	205	435	1	121	14:53:25	2128345	4	1	1	1	1	1	1	1	2	7	6	0	0	0	0	6	6
082812	14:53:25	10035	Trial	CongruentLeft	14	203	523	1	121	14:53:25	2129438	4	1	1	1	1	1	1	1	2	7	6	0	0	0	0	6	6
082812	14:53:25	10035	Trial	CongruentRight	14	205	532	1	121	14:53:25	2130451	4	1	1	1	1	1	1	1	2	7	6	0	0	0	0	6	6
082812	14:53:25	10035	Trial	IncongruentRight	14	205	508	1	121	14:53:25	2131424	4	1	1	1	1	1	1	1	2	7	6	0	0	0	0	6	6
082812	14:53:25	10035	Trial	IncongruentLeft	14	203	484	1	121	14:53:25	2132397	4	1	1	1	1	1	1	1	2	7	6	0	0	0	0	6	6
082812	14:53:25	10035	Trial	IncongruentLeft	14	203	397	1	121	14:53:25	2133303	4	1	1	1	1	1	1	1	2	7	6	0	0	0	0	6	6
082812	14:53:25	10035	Trial	CongruentLeft	14	203	389	1	121	14:53:25	2134303	4	1	1	1	1	1	1	1	2	7	6	0	0	0	0	6	6
082812	14:53:25	10035	Trial	CongruentRight	14	205	478	1	121	14:53:25	2135382	4	1	1	1	1	1	1	1	2	7	6	0	0	0	0	6	6
082812	14:53:25	10035	Trial	IncongruentLeft	14	203	502	1	121	14:53:25	2136408	4	1	1	1	1	1	1	1	2	7	6	0	0	0	0	6	6
082812	14:53:25	10035	Trial	IncongruentRight	14	205	558	1	121	14:53:25	2137475	4	1	1	1	1	1	1	1	2	7	6	0	0	0	0	6	6
082812	14:53:25	10035	Trial	CongruentRight	14	205	663	1	121	14:53:25	2138568	4	1	1	1	1	1	1	1	2	7	6	0	0	0	0	6	6
082812	14:53:25	10035	Trial	CongruentLeft	14	203	703	1	121	14:53:25	2139607	4	1	1	1	1	1	1	1	2	7	6	0	0	0	0	6	6
082812	14:53:25	10035	Trial	IncongruentRight	14	205	583	1	121	14:53:25	2140487	4	1	1	1	1	1	1	1	2	7	6	0	0	0	0	6	6
082812	14:53:25	10035	Trial	IncongruentLeft	14	203	463	1	121	14:53:25	2141367	4	1	1	1	1	1	1	1	2	7	6	0	0	0	0	6	6
082812	14:53:25	10035	Trial	IncongruentRight	14	205	376	1	121	14:53:25	2142286	4	1	1	1	1	1	1	1	2	7	6	0	0	0	0	6	6
082812	14:53:25	10035	Trial	CongruentRight	14	205	512	1	121	14:53:25	2143419	4	1	1	1	1	1	1	1	2	7	6	0	0	0	0	6	6
082812	14:53:25	10035	Trial	IncongruentLeft	14	203	441	1	121	14:53:25	2144352	4	1	1	1	1	1	1	1	2	7	6	0	0	0	0	6	6
082812	14:53:25	10035	Trial	CongruentLeft	14	203	417	1	121	14:53:25	2145325	4	1	1	1	1	1	1	1	2	7	6	0	0	0	0	6	6
082812	14:53:25	10035	Trial	CongruentRight	14	205	522	1	121	14:53:25	2146431	4	1	1	1	1	1	1	1	2	7	6	0	0	0	0	6	6
082812	14:53:25	10035	Trial	IncongruentLeft	14	203	549	1	121	14:53:25	2147471	4	1	1	1	1	1	1	1	2	7	6	0	0	0	0	6	6
082812	14:53:25	10035	Trial	IncongruentRight	14	205	429	1	121	14:53:25	2148350	4	1	1	1	1	1	1	1	2	7	6	0	0	0	0	6	6
082812	14:53:25	10035	Trial	IncongruentRight	14	205	502	1	121	14:53:25	2149416	4	1	1	1	1	1	1	1	2	7	6	0	0	0	0	6	6
082812	14:53:25	10035	Trial	CongruentLeft	14	203	430	1	121	14:53:25	2150350	4	1	1	1	1	1	1	1	2	7	6	0	0	0	0	6	6
082812	14:53:25	10035	Trial	IncongruentLeft	14	203	406	1	121	14:53:25	2151323	4	1	1	1	1	1	1	1	2	7	6	0	0	0	0	6	6
082812	14:53:25	10035	Trial	CongruentRight	14	205	367	1	121	14:53:25	2152282	4	1	1	1	1	1	1	1	2	7	6	0	0	0	0	6	6
082812	14:53:25	10035	Trial	CongruentLeft	14	203	455	1	121	14:53:25	2153375	4	1	1	1	1	1	1	1	2	7	6	0	0	0	0	6	6
082812	14:53:25	10035	Trial	IncongruentRight	14	205	431	1	121	14:53:25	2154348	4	1	1	1	1	1	1	1	2	7	6	0	0	0	0	6	6
082812	14:53:25	10035	Trial	CongruentRight	14	205	456	1	121	14:53:25	2155374	4	1	1	1	1	1	1	1	2	7	6	0	0	0	0	6	6
082812	14:53:25	10035	Trial	IncongruentLeft	14	203	512	1	121	14:53:25	2156427	4	1	1	1	1	1	1	1	2	7	6	0	0	0	0	6	6
082812	14:53:25	10035	Trial	CongruentLeft	14	203	457	1	121	14:53:25	2157373	4	1	1	1	1	1	1	1	2	7	6	0	0	0	0	6	6
082812	14:53:25	10035	Trial	IncongruentLeft	14	203	481	1	121	14:53:25	2158400	4	1	1	1	1	1	1	1	2	7	6	0	0	0	0	6	6
082812	14:53:25	10035	Trial	IncongruentRight	14	205	441	1	121	14:53:25	2159359	4	1	1	1	1	1	1	1	2	7	6	0	0	0	0	6	6
082812	14:53:25	10035	Trial	CongruentRight	14	205	386	1	121	14:53:25	2160306	4	1	1	1	1	1	1	1	2	7	6	0	0	0	0	6	6
082812	14:53:25	10035	Trial	CongruentLeft	14	203	490	1	121	14:53:25	2161399	4	1	1	1	1	1	1	1	2	7	6	0	0	0	0	6	6
082812	14:53:25	10035	Trial	CongruentLeft	14	203	402	1	121	14:53:25	2162318	4	1	1	1	1	1	1	1	2	7	6	0	0	0	0	6	6
082812	14:53:25	10035	Trial	IncongruentRight	14	205	379	1	121	14:53:25	2163291	4	1	1	1	1	1	1	1	2	7	6	0	0	0	0	6	6
082812	14:53:25	10035	Trial	IncongruentLeft	14	203	483	1	121	14:53:25	2164397	4	1	1	1	1	1	1	1	2	7	6	0	0	0	0	6	6
082812	14:53:25	10035	Trial	IncongruentRight	14	205	427	1	121	14:53:25	2165344	4	1	1	1	1	1	1	1	2	7	6	0	0	0	0	6	6
082812	14:53:25	10035	Trial	CongruentRight	14	205	452	1	121	14:53:25	2166370	4	1	1	1	1	1	1	1	2	7	6	0	0	0	0	6	6
082812	14:53:25	10035	Trial	CongruentRight	14	205	412	1	121	14:53:25	2167329	4	1	1	1	1	1	1	1	2	7	6	0	0	0	0	6	6
082812	14:53:25	10035	Trial	IncongruentLeft	14	203	485	1	121	14:53:25	2168396	4	1	1	1	1	1	1	1	2	7	6	0	0	0	0	6	6
082812	14:53:25	10035	Trial	CongruentLeft	14	203	397	1	121	14:53:25	2169302	4	1	1	1	1	1	1	1	2	7	6	0	0	0	0	6	6
082812	14:53:25	10035	Trial	CongruentRight	14	205	454	1	121	14:53:25	2170368	4	1	1	1	1	1	1	1	2	7	6	0	0	0	0	6	6
082812	14:53:25	10035	Trial	CongruentLeft	14	203	382	1	121	14:53:25	2171288	4	1	1	1	1	1	1	1	2	7	6	0	0	0	0	6	6
082812	14:53:25	10035	Trial	IncongruentRight	14	205	550	1	121	14:53:25	2172461	4	1	1	1	1	1	1	1	2	7	6	0	0	0	0	6	6
082812	14:53:25	10035	Trial	CongruentRight	14	205	510	1	121	14:53:25	2173420	4	1	1	1	1	1	1	1	2	7	6	0	0	0	0	6	6
082812	14:53:25	10035	Trial	CongruentLeft	14	203	359	1	121	14:53:25	2174273	4	1	1	1	1	1	1	1	2	7	6	0	0	0	0	6	6
082812	14:53:25	10035	Trial	IncongruentLeft	14	203	319	1	121	14:53:25	2175233	4	1	1	1	1	1	1	1	2	7	6	0	0	0	0	6	6
082812	14:53:25	10035	Trial	IncongruentLeft	14	203	520	1	121	14:53:25	2176432	4	1	1	1	1	1	1	1	2	7	6	0	0	0	0	6	6
082812	14:53:25	10035	Trial	CongruentRight	14	205	432	1	121	14:53:25	2177339	4	1	1	1	1	1	1	1	2	7	6	0	0	0	0	6	6
082812	14:53:25	10035	Trial	IncongruentRight	14	203	457	0	121	14:53:25	2178365	4	1	1	1	1	1	1	1	2	7	6	0	0	0	0	6	6
082812	14:53:25	10035	Trial	CongruentLeft	14	203	564	1	121	14:53:25	2179485	4	1	1	1	1	1	1	1	2	7	6	0	0	0	0	6	6
082812	14:53:25	10035	Trial	IncongruentRight	14	0	737	0	121	14:53:25	2180644	4	1	1	1	1	1	1	1	2	7	6	0	0	0	0	6	6
082812	14:53:25	10035	Trial	CongruentRight	14	205	564	1	121	14:53:25	2181484	4	1	1	1	1	1	1	1	2	7	6	0	0	0	0	6	6
082812	14:53:25	10035	Trial	IncongruentLeft	14	203	525	1	121	14:53:25	2182443	4	1	1	1	1	1	1	1	2	7	6	0	0	0	0	6	6
082812	14:53:25	10035	Trial	CongruentLeft	14	203	453	1	121	14:53:25	2183376	4	1	1	1	1	1	1	1	2	7	6	0	0	0	0	6	6
082812	14:53:25	10035	Trial	CongruentRight	14	205	512	1	121	14:53:25	2184442	4	1	1	1	1	1	1	1	2	7	6	0	0	0	0	6	6
082812	14:53:25	10035	Trial	IncongruentLeft	14	203	520	1	121	14:53:25	2185455	4	1	1	1	1	1	1	1	2	7	6	0	0	0	0	6	6
082812	14:53:25	10035	Trial	CongruentRight	14	205	433	1	121	14:53:25	2186362	4	1	1	1	1	1	1	1	2	7	6	0	0	0	0	6	6
082812	14:53:25	10035	Trial	CongruentRight	14	205	441	1	121	14:53:25	2187375	4	1	1	1	1	1	1	1	2	7	6	0	0	0	0	6	6
082812	14:53:25	10035	Trial	IncongruentRight	14	205	539	1	121	14:53:25	2188494	4	1	1	1	1	1	1	1	2	7	6	0	0	0	0	6	6
082812	14:53:25	10035	Trial	CongruentLeft	14	0	737	0	121	14:53:25	2189654	4	1	1	1	1	1	1	1	2	7	6	0	0	0	0	6	6
082812	14:53:25	10035	Trial	IncongruentLeft	14	0	737	0	121	14:53:25	2190667	4	1	1	1	1	1	1	1	2	7	6	0	0	0	0	6	6
082812	14:53:25	10035	Trial	CongruentLeft	14	0	737	0	121	14:53:25	2191680	4	1	1	1	1	1	1	1	2	7	6	0	0	0	0	6	6
082812	14:53:25	10035	Trial	IncongruentRight	14	0	737	0	121	14:53:25	2192693	4	1	1	1	1	1	1	1	2	7	6	0	0	0	0	6	6
082812	14:53:25	10035	Trial	IncongruentLeft	14	203	659	1	121	14:53:25	2193625	4	1	1	1	1	1	1	1	2	7	6	0	0	0	0	6	6
082812	14:53:25	10035	Trial	CongruentRight	14	205	428	1	121	14:53:25	2194398	4	1	1	1	1	1	1	1	2	7	6	0	0	0	0	6	6
082812	14:53:25	10035	Trial	CongruentLeft	14	203	404	1	121	14:53:25	2195371	4	1	1	1	1	1	1	1	2	7	6	0	0	0	0	6	6
082812	14:53:25	10035	Trial	IncongruentLeft	14	203	559	1	121	14:53:25	2196545	4	1	1	1	1	1	1	1	2	7	6	0	0	0	0	6	6
082812	14:53:25	10035	Trial	CongruentLeft	14	203	471	1	121	14:53:25	2197450	4	1	1	1	1	1	1	1	2	7	6	0	0	0	0	6	6
082812	14:53:25	10035	Trial	IncongruentRight	14	205	720	1	121	14:53:25	2198703	4	1	1	1	1	1	1	1	2	7	6	0	0	0	0	6	6
082812	14:53:25	10035	Trial	CongruentRight	14	205	712	1	121	14:53:25	2199690	4	1	1	1	1	1	1	1	2	7	6	0	0	0	0	6	6
082812	14:53:25	10035	Trial	IncongruentLeft	14	0	737	0	121	14:53:25	2200716	4	1	1	1	1	1	1	1	2	7	6	0	0	0	0	6	6
082812	14:53:25	10035	Trial	CongruentLeft	14	0	737	0	121	14:53:25	2201729	4	1	1	1	1	1	1	1	2	7	6	0	0	0	0	6	6
082812	14:53:25	10035	Trial	IncongruentRight	14	205	679	1	121	14:53:25	2202689	4	1	1	1	1	1	1	1	2	7	6	0	0	0	0	6	6
082812	14:53:25	10035	Trial	IncongruentLeft	14	203	431	1	121	14:53:25	2203435	4	1	1	1	1	1	1	1	2	7	6	0	0	0	0	6	6
082812	14:53:25	10035	Trial	CongruentLeft	14	203	536	1	121	14:53:25	2204541	4	1	1	1	1	1	1	1	2	7	6	0	0	0	0	6	6
082812	14:53:25	10035	Trial	IncongruentLeft	14	203	450	1	121	14:53:25	2205461	4	1	1	1	1	1	1	1	2	7	6	0	0	0	0	6	6
082812	14:53:25	10035	Trial	CongruentRight	14	205	491	1	121	14:53:25	2206514	4	1	1	1	1	1	1	1	2	7	6	0	0	0	0	6	6
082812	14:53:25	10035	Trial	CongruentLeft	14	203	420	1	121	14:53:25	2207433	4	1	1	1	1	1	1	1	2	7	6	0	0	0	0	6	6
082812	14:53:25	10035	Trial	IncongruentRight	14	205	492	1	121	14:53:25	2208513	4	1	1	1	1	1	1	1	2	7	6	0	0	0	0	6	6
082812	14:53:25	10035	Trial	CongruentLeft	14	203	468	1	121	14:53:25	2209486	4	1	1	1	1	1	1	1	2	7	6	0	0	0	0	6	6
082812	14:53:25	10035	Trial	CongruentRight	14	205	413	1	121	14:53:25	2210432	4	1	1	1	1	1	1	1	2	7	6	0	0	0	0	6	6
082812	14:53:25	10035	Trial	IncongruentLeft	14	203	440	1	121	14:53:25	2211458	4	1	1	1	1	1	1	1	2	7	6	0	0	0	0	6	6
082812	14:53:25	10035	Trial750Eng	IncongruentRight750	15	0	487	0	121	14:53:25	2220415	4	1	1	1	1	1	1	1	2	7	6	0	0	0	0	6	6
082812	14:53:25	10035	Trial750Eng	IncongruentLeft750	15	203	457	1	121	14:53:25	2221148	4	1	1	1	1	1	1	1	2	7	6	0	0	0	0	6	6
082812	14:53:25	10035	Trial750Eng	CongruentRight750	15	205	273	1	121	14:53:25	2221721	4	1	1	1	1	1	1	1	2	7	6	0	0	0	0	6	6
082812	14:53:25	10035	Trial750Eng	IncongruentRight750	15	203	454	0	121	14:53:25	2222654	4	1	1	1	1	1	1	1	2	7	6	0	0	0	0	6	6
082812	14:53:25	10035	Trial750Eng	CongruentLeft750	15	203	444	1	121	14:53:25	2223387	4	1	1	1	1	1	1	1	2	7	6	0	0	0	0	6	6
082812	14:53:25	10035	Trial750Eng	CongruentRight750	15	205	481	1	121	14:53:25	2224173	4	1	1	1	1	1	1	1	2	7	6	0	0	0	0	6	6
082812	14:53:25	10035	Trial750Eng	IncongruentRight750	15	205	426	1	121	14:53:25	2224880	4	1	1	1	1	1	1	1	2	7	6	0	0	0	0	6	6
082812	14:53:25	10035	Trial750Eng	CongruentLeft750	15	203	466	1	121	14:53:25	2225679	4	1	1	1	1	1	1	1	2	7	6	0	0	0	0	6	6
082812	14:53:25	10035	Trial750Eng	IncongruentLeft750	15	203	376	1	121	14:53:25	2226332	4	1	1	1	1	1	1	1	2	7	6	0	0	0	0	6	6
082812	14:53:25	10035	Trial750Eng	IncongruentLeft750	15	203	400	1	121	14:53:25	2227119	4	1	1	1	1	1	1	1	2	7	6	0	0	0	0	6	6
082812	14:53:25	10035	Trial750Eng	CongruentRight750	15	205	342	1	121	14:53:25	2227798	4	1	1	1	1	1	1	1	2	7	6	0	0	0	0	6	6
082812	14:53:25	10035	Trial750Eng	IncongruentRight750	15	205	332	1	121	14:53:25	2228545	4	1	1	1	1	1	1	1	2	7	6	0	0	0	0	6	6
082812	14:53:25	10035	Trial750Eng	CongruentLeft750	15	205	324	0	121	14:53:25	2229291	4	1	1	1	1	1	1	1	2	7	6	0	0	0	0	6	6
082812	14:53:25	10035	Trial750Eng	CongruentRight750	15	205	393	1	121	14:53:25	2230104	4	1	1	1	1	1	1	1	2	7	6	0	0	0	0	6	6
082812	14:53:25	10035	Trial750Eng	IncongruentLeft750	15	203	367	1	121	14:53:25	2230824	4	1	1	1	1	1	1	1	2	7	6	0	0	0	0	6	6
082812	14:53:25	10035	Trial750Eng	IncongruentRight750	15	205	388	1	121	14:53:25	2231597	4	1	1	1	1	1	1	1	2	7	6	0	0	0	0	6	6
082812	14:53:25	10035	Trial750Eng	CongruentRight750	15	203	221	0	121	14:53:25	2232183	4	1	1	1	1	1	1	1	2	7	6	0	0	0	0	6	6
082812	14:53:25	10035	Trial750Eng	CongruentLeft750	15	203	435	1	121	14:53:25	2233143	4	1	1	1	1	1	1	1	2	7	6	0	0	0	0	6	6
082812	14:53:25	10035	Trial750Eng	CongruentRight750	15	205	360	1	121	14:53:25	2233823	4	1	1	1	1	1	1	1	2	7	6	0	0	0	0	6	6
082812	14:53:25	10035	Trial750Eng	IncongruentRight750	15	203	302	0	121	14:53:25	2234502	4	1	1	1	1	1	1	1	2	7	6	0	0	0	0	6	6
082812	14:53:25	10035	Trial750Eng	IncongruentLeft750	15	0	487	0	121	14:53:25	2235435	4	1	1	1	1	1	1	1	2	7	6	0	0	0	0	6	6
082812	14:53:25	10035	Trial750Eng	IncongruentLeft750	15	0	487	0	121	14:53:25	2236195	4	1	1	1	1	1	1	1	2	7	6	0	0	0	0	6	6
082812	14:53:25	10035	Trial750Eng	CongruentLeft750	15	205	468	0	121	14:53:25	2236941	4	1	1	1	1	1	1	1	2	7	6	0	0	0	0	6	6
082812	14:53:25	10035	Trial750Eng	CongruentRight750	15	0	487	0	121	14:53:25	2237701	4	1	1	1	1	1	1	1	2	7	6	0	0	0	0	6	6
082812	14:53:25	10035	Trial750Eng	IncongruentLeft750	15	0	487	0	121	14:53:25	2238461	4	1	1	1	1	1	1	1	2	7	6	0	0	0	0	6	6
082812	14:53:25	10035	Trial750Eng	IncongruentRight750	15	205	298	1	121	14:53:25	2239034	4	1	1	1	1	1	1	1	2	7	6	0	0	0	0	6	6
082812	14:53:25	10035	Trial750Eng	CongruentRight750	15	203	291	0	121	14:53:25	2239780	4	1	1	1	1	1	1	1	2	7	6	0	0	0	0	6	6
082812	14:53:25	10035	Trial750Eng	CongruentLeft750	15	203	344	1	121	14:53:25	2240593	4	1	1	1	1	1	1	1	2	7	6	0	0	0	0	6	6
082812	14:53:25	10035	Trial750Eng	IncongruentRight750	15	205	462	1	121	14:53:25	2241446	4	1	1	1	1	1	1	1	2	7	6	0	0	0	0	6	6
082812	14:53:25	10035	Trial750Eng	IncongruentLeft750	15	203	294	1	121	14:53:25	2242046	4	1	1	1	1	1	1	1	2	7	6	0	0	0	0	6	6
082812	14:53:25	10035	Trial750Eng	IncongruentRight750	15	205	236	1	121	14:53:25	2242726	4	1	1	1	1	1	1	1	2	7	6	0	0	0	0	6	6
082812	14:53:25	10035	Trial750Eng	CongruentRight750	15	203	82	0	121	14:53:25	2243325	4	1	1	1	1	1	1	1	2	7	6	0	0	0	0	6	6
082812	14:53:25	10035	Trial750Eng	IncongruentLeft750	15	205	311	0	121	14:53:25	2244298	4	1	1	1	1	1	1	1	2	7	6	0	0	0	0	6	6
082812	14:53:25	10035	Trial750Eng	CongruentLeft750	15	203	431	1	121	14:53:25	2245178	4	1	1	1	1	1	1	1	2	7	6	0	0	0	0	6	6
082812	14:53:25	10035	Trial750Eng	CongruentRight750	15	205	453	1	121	14:53:25	2245951	4	1	1	1	1	1	1	1	2	7	6	0	0	0	0	6	6
082812	14:53:25	10035	Trial750Eng	IncongruentLeft750	15	0	487	0	121	14:53:25	2246724	4	1	1	1	1	1	1	1	2	7	6	0	0	0	0	6	6
082812	14:53:25	10035	Trial750Eng	IncongruentRight750	15	205	306	1	121	14:53:25	2247310	4	1	1	1	1	1	1	1	2	7	6	0	0	0	0	6	6
082812	14:53:25	10035	Trial750Eng	IncongruentRight750	15	203	333	0	121	14:53:25	2248113	4	1	1	1	1	1	1	1	2	7	6	0	0	0	0	6	6
082812	14:53:25	10035	Trial750Eng	CongruentLeft750	15	205	33	0	121	14:53:25	2248537	4	1	1	1	1	1	1	1	2	7	6	0	0	0	0	6	6
082812	14:53:25	10035	Trial750Eng	IncongruentLeft750	15	0	487	0	121	14:53:25	2249736	4	1	1	1	1	1	1	1	2	7	6	0	0	0	0	6	6
082812	14:53:25	10035	Trial750Eng	CongruentRight750	15	203	271	0	121	14:53:25	2250283	4	1	1	1	1	1	1	1	2	7	6	0	0	0	0	6	6
082812	14:53:25	10035	Trial750Eng	CongruentLeft750	15	205	279	0	121	14:53:25	2251056	4	1	1	1	1	1	1	1	2	7	6	0	0	0	0	6	6
082812	14:53:25	10035	Trial750Eng	IncongruentRight750	15	205	476	1	121	14:53:25	2251989	4	1	1	1	1	1	1	1	2	7	6	0	0	0	0	6	6
082812	14:53:25	10035	Trial750Eng	CongruentRight750	15	205	389	1	121	14:53:25	2252655	4	1	1	1	1	1	1	1	2	7	6	0	0	0	0	6	6
082812	14:53:25	10035	Trial750Eng	IncongruentLeft750	15	205	378	0	121	14:53:25	2253401	4	1	1	1	1	1	1	1	2	7	6	0	0	0	0	6	6
082812	14:53:25	10035	Trial750Eng	CongruentLeft750	15	0	487	0	121	14:53:25	2254254	4	1	1	1	1	1	1	1	2	7	6	0	0	0	0	6	6
082812	14:53:25	10035	Trial750Eng	IncongruentLeft750	15	0	487	0	121	14:53:25	2255014	4	1	1	1	1	1	1	1	2	7	6	0	0	0	0	6	6
082812	14:53:25	10035	Trial750Eng	IncongruentRight750	15	205	384	1	121	14:53:25	2255680	4	1	1	1	1	1	1	1	2	7	6	0	0	0	0	6	6
082812	14:53:25	10035	Trial750Eng	CongruentRight750	15	0	487	0	121	14:53:25	2256520	4	1	1	1	1	1	1	1	2	7	6	0	0	0	0	6	6
082812	14:53:25	10035	Trial750Eng	CongruentLeft750	15	203	430	1	121	14:53:25	2257226	4	1	1	1	1	1	1	1	2	7	6	0	0	0	0	6	6
082812	14:53:25	10035	Trial750Eng	CongruentLeft750	15	0	487	0	121	14:53:25	2258026	4	1	1	1	1	1	1	1	2	7	6	0	0	0	0	6	6
082812	14:53:25	10035	Trial750Eng	IncongruentRight750	15	205	444	1	121	14:53:25	2258746	4	1	1	1	1	1	1	1	2	7	6	0	0	0	0	6	6
082812	14:53:25	10035	Trial750Eng	IncongruentLeft750	15	203	436	1	121	14:53:25	2259492	4	1	1	1	1	1	1	1	2	7	6	0	0	0	0	6	6
082812	14:53:25	10035	Trial750Eng	IncongruentRight750	15	205	346	1	121	14:53:25	2260159	4	1	1	1	1	1	1	1	2	7	6	0	0	0	0	6	6
082812	14:53:25	10035	Trial750Eng	CongruentRight750	15	203	272	0	121	14:53:25	2260825	4	1	1	1	1	1	1	1	2	7	6	0	0	0	0	6	6
082812	14:53:25	10035	Trial750Eng	CongruentRight750	15	0	487	0	121	14:53:25	2261785	4	1	1	1	1	1	1	1	2	7	6	0	0	0	0	6	6
082812	14:53:25	10035	Trial750Eng	IncongruentLeft750	15	205	205	0	121	14:53:25	2262264	4	1	1	1	1	1	1	1	2	7	6	0	0	0	0	6	6
082812	14:53:25	10035	Trial750Eng	CongruentLeft750	15	203	422	1	121	14:53:25	2263237	4	1	1	1	1	1	1	1	2	7	6	0	0	0	0	6	6
082812	14:53:25	10035	Trial750Eng	CongruentRight750	15	205	476	1	121	14:53:25	2264037	4	1	1	1	1	1	1	1	2	7	6	0	0	0	0	6	6
082812	14:53:25	10035	Trial750Eng	CongruentLeft750	15	203	465	1	121	14:53:25	2264783	4	1	1	1	1	1	1	1	2	7	6	0	0	0	0	6	6
082812	14:53:25	10035	Trial750Eng	IncongruentRight750	15	205	298	1	121	14:53:25	2265370	4	1	1	1	1	1	1	1	2	7	6	0	0	0	0	6	6
082812	14:53:25	10035	Trial750Eng	CongruentRight750	15	203	319	0	121	14:53:25	2266143	4	1	1	1	1	1	1	1	2	7	6	0	0	0	0	6	6
082812	14:53:25	10035	Trial750Eng	CongruentLeft750	15	203	389	1	121	14:53:25	2266956	4	1	1	1	1	1	1	1	2	7	6	0	0	0	0	6	6
082812	14:53:25	10035	Trial750Eng	IncongruentLeft750	15	0	487	0	121	14:53:25	2267796	4	1	1	1	1	1	1	1	2	7	6	0	0	0	0	6	6
082812	14:53:25	10035	Trial750Eng	IncongruentLeft750	15	0	487	0	121	14:53:25	2268555	4	1	1	1	1	1	1	1	2	7	6	0	0	0	0	6	6
082812	14:53:25	10035	Trial750Eng	CongruentRight750	15	205	427	1	121	14:53:25	2269262	4	1	1	1	1	1	1	1	2	7	6	0	0	0	0	6	6
082812	14:53:25	10035	Trial750Eng	IncongruentRight750	15	0	487	0	121	14:53:25	2270061	4	1	1	1	1	1	1	1	2	7	6	0	0	0	0	6	6
082812	14:53:25	10035	Trial750Eng	CongruentLeft750	15	203	457	1	121	14:53:25	2270794	4	1	1	1	1	1	1	1	2	7	6	0	0	0	0	6	6
082812	14:53:25	10035	Trial750Eng	IncongruentRight750	15	205	417	1	121	14:53:25	2271514	4	1	1	1	1	1	1	1	2	7	6	0	0	0	0	6	6
082812	14:53:25	10035	Trial750Eng	CongruentRight750	15	0	487	0	121	14:53:25	2272327	4	1	1	1	1	1	1	1	2	7	6	0	0	0	0	6	6
082812	14:53:25	10035	Trial750Eng	IncongruentLeft750	15	203	415	1	121	14:53:25	2273020	4	1	1	1	1	1	1	1	2	7	6	0	0	0	0	6	6
082812	14:53:25	10035	Trial750Eng	CongruentLeft750	15	203	391	1	121	14:53:25	2273753	4	1	1	1	1	1	1	1	2	7	6	0	0	0	0	6	6
082812	14:53:25	10035	Trial750Eng	CongruentRight750	15	205	365	1	121	14:53:25	2274473	4	1	1	1	1	1	1	1	2	7	6	0	0	0	0	6	6
082812	14:53:25	10035	Trial750Eng	IncongruentLeft750	15	203	307	1	121	14:53:25	2275166	4	1	1	1	1	1	1	1	2	7	6	0	0	0	0	6	6
082812	14:53:25	10035	Trial750Eng	CongruentRight750	15	205	267	1	121	14:53:25	2275886	4	1	1	1	1	1	1	1	2	7	6	0	0	0	0	6	6
082812	14:53:25	10035	Trial750Eng	CongruentRight750	15	203	337	0	121	14:53:25	2276699	4	1	1	1	1	1	1	1	2	7	6	0	0	0	0	6	6
082812	14:53:25	10035	Trial750Eng	IncongruentRight750	15	205	390	1	121	14:53:25	2277498	4	1	1	1	1	1	1	1	2	7	6	0	0	0	0	6	6
082812	14:53:25	10035	Trial750Eng	CongruentLeft750	15	203	476	1	121	14:53:25	2278325	4	1	1	1	1	1	1	1	2	7	6	0	0	0	0	6	6
082812	14:53:25	10035	Trial750Eng	IncongruentLeft750	15	0	487	0	121	14:53:25	2279098	4	1	1	1	1	1	1	1	2	7	6	0	0	0	0	6	6
082812	14:53:25	10035	Trial750Eng	CongruentLeft750	15	0	487	0	121	14:53:25	2279857	4	1	1	1	1	1	1	1	2	7	6	0	0	0	0	6	6
082812	14:53:25	10035	Trial750Eng	IncongruentRight750	15	205	388	1	121	14:53:25	2280524	4	1	1	1	1	1	1	1	2	7	6	0	0	0	0	6	6
082812	14:53:25	10035	Trial750Eng	IncongruentLeft750	15	203	429	1	121	14:53:25	2281324	4	1	1	1	1	1	1	1	2	7	6	0	0	0	0	6	6
082812	14:53:25	10035	Trial750Eng	CongruentRight750	15	205	339	1	121	14:53:25	2281977	4	1	1	1	1	1	1	1	2	7	6	0	0	0	0	6	6
082812	14:53:25	10035	Trial750Eng	CongruentLeft750	15	203	376	1	121	14:53:25	2282763	4	1	1	1	1	1	1	1	2	7	6	0	0	0	0	6	6
082812	14:53:25	10035	Trial750Eng	IncongruentLeft750	15	0	487	0	121	14:53:25	2283616	4	1	1	1	1	1	1	1	2	7	6	0	0	0	0	6	6
082812	14:53:25	10035	Trial750Eng	CongruentLeft750	15	0	487	0	121	14:53:25	2284376	4	1	1	1	1	1	1	1	2	7	6	0	0	0	0	6	6
082812	14:53:25	10035	Trial750Eng	IncongruentRight750	15	205	414	1	121	14:53:25	2285068	4	1	1	1	1	1	1	1	2	7	6	0	0	0	0	6	6
082812	14:53:25	10035	Trial750Eng	CongruentRight750	15	205	471	1	121	14:53:25	2285882	4	1	1	1	1	1	1	1	2	7	6	0	0	0	0	6	6
082812	14:53:25	10035	Trial750Eng	IncongruentLeft750	15	203	476	1	121	14:53:25	2286628	4	1	1	1	1	1	1	1	2	7	6	0	0	0	0	6	6
082812	14:53:25	10035	Trial750Eng	CongruentLeft750	15	203	405	1	121	14:53:25	2287321	4	1	1	1	1	1	1	1	2	7	6	0	0	0	0	6	6
082812	14:53:25	10035	Trial750Eng	IncongruentRight750	15	205	426	1	121	14:53:25	2288094	4	1	1	1	1	1	1	1	2	7	6	0	0	0	0	6	6
082812	14:53:25	10035	Trial750Eng	IncongruentLeft750	15	0	487	0	121	14:53:25	2288894	4	1	1	1	1	1	1	1	2	7	6	0	0	0	0	6	6
082812	14:53:25	10035	Trial750Eng	CongruentLeft750	15	205	376	0	121	14:53:25	2289547	4	1	1	1	1	1	1	1	2	7	6	0	0	0	0	6	6
082812	14:53:25	10035	Trial750Eng	IncongruentLeft750	15	203	353	1	121	14:53:25	2290280	4	1	1	1	1	1	1	1	2	7	6	0	0	0	0	6	6
082812	14:53:25	10035	Trial750Eng	CongruentRight750	15	205	406	1	121	14:53:25	2291080	4	1	1	1	1	1	1	1	2	7	6	0	0	0	0	6	6
082812	14:53:25	10035	Trial750Eng	CongruentLeft750	15	203	443	1	121	14:53:25	2291866	4	1	1	1	1	1	1	1	2	7	6	0	0	0	0	6	6
082812	14:53:25	10035	Trial750Eng	IncongruentRight750	15	205	404	1	121	14:53:25	2292586	4	1	1	1	1	1	1	1	2	7	6	0	0	0	0	6	6
082812	14:53:25	10035	Trial750Eng	CongruentLeft750	15	203	362	1	121	14:53:25	2293292	4	1	1	1	1	1	1	1	2	7	6	0	0	0	0	6	6
082812	14:53:25	10035	Trial750Eng	CongruentRight750	15	205	319	1	121	14:53:25	2293998	4	1	1	1	1	1	1	1	2	7	6	0	0	0	0	6	6
082812	14:53:25	10035	Trial750Eng	IncongruentLeft750	15	203	341	1	121	14:53:25	2294758	4	1	1	1	1	1	1	1	2	7	6	0	0	0	0	6	6
082812	14:53:25	10035	WordsAbsEngBaseline	PAbsEngBaseline1	16	Abs1	6337	0	121	14:53:25	2309219	4	1	1	1	1	1	1	1	2	7	6	0	0	0	0	6	6
082812	14:53:25	10035	WordsAbsEngBaseline	AbsEngBaseline1	16	Abs1	3111	0	121	14:53:25	2312364	4	1	1	1	1	1	1	1	2	7	6	1	0	0	0	6	6
082812	14:53:25	10035	WordsAbsEngBaseline	AbsEngBaseline2	16	Abs1	7238	0	121	14:53:25	2319641	4	1	1	1	1	1	1	1	2	7	6	2	0	0	0	6	6
082812	14:53:25	10035	WordsAbsEngBaseline	AbsEngBaseline3	16	Abs1	22992	0	121	14:53:25	2342672	4	1	1	1	1	1	1	1	2	7	6	3	0	0	0	6	6
082812	14:53:25	10035	Trial2BackEngS	NS	17	0	1000	1	121	14:53:25	2381337	4	1	1	1	1	1	1	1	2	7	6	3	0	0	0	6	6
082812	14:53:25	10035	Trial2BackEngS	NS	17	0	1000	1	121	14:53:25	2382856	4	1	1	1	1	1	1	1	2	7	6	3	0	0	0	6	6
082812	14:53:25	10035	Trial2BackEngS	NS	17	0	1000	1	121	14:53:25	2384375	4	1	1	1	1	1	1	1	2	7	6	3	0	0	0	6	6
082812	14:53:25	10035	Trial2BackEngS	YS	17	57	576	1	121	14:53:25	2385481	4	1	1	1	1	1	1	1	2	7	6	3	0	0	0	6	6
082812	14:53:25	10035	Trial2BackEngS	NS	17	0	1000	1	121	14:53:25	2387401	4	1	1	1	1	1	1	1	2	7	6	3	0	0	0	6	6
082812	14:53:25	10035	Trial2BackEngS	NS	17	0	1000	1	121	14:53:25	2388920	4	1	1	1	1	1	1	1	2	7	6	3	0	0	0	6	6
082812	14:53:25	10035	Trial2BackEngS	NS	17	0	1000	1	121	14:53:25	2390439	4	1	1	1	1	1	1	1	2	7	6	3	0	0	0	6	6
082812	14:53:25	10035	Trial2BackEngS	NS	17	0	1000	1	121	14:53:25	2391959	4	1	1	1	1	1	1	1	2	7	6	3	0	0	0	6	6
082812	14:53:25	10035	Trial2BackEngS	YS	17	57	576	1	121	14:53:25	2393065	4	1	1	1	1	1	1	1	2	7	6	3	0	0	0	6	6
082812	14:53:25	10035	Trial2BackEngS	NS	17	0	1000	1	121	14:53:25	2394984	4	1	1	1	1	1	1	1	2	7	6	3	0	0	0	6	6
082812	14:53:25	10035	Trial2BackEngS	NS	17	0	1000	1	121	14:53:25	2396504	4	1	1	1	1	1	1	1	2	7	6	3	0	0	0	6	6
082812	14:53:25	10035	Trial2BackEngS	YS	17	0	1000	0	121	14:53:25	2398023	4	1	1	1	1	1	1	1	2	7	6	3	0	0	0	6	6
082812	14:53:25	10035	Trial2BackEngS	NS	17	0	1000	1	121	14:53:25	2399542	4	1	1	1	1	1	1	1	2	7	6	3	0	0	0	6	6
082812	14:53:25	10035	Trial2BackEngS	NS	17	57	769	0	121	14:53:25	2400835	4	1	1	1	1	1	1	1	2	7	6	3	0	0	0	6	6
082812	14:53:25	10035	Trial2BackEngS	NS	17	0	1000	1	121	14:53:25	2402568	4	1	1	1	1	1	1	1	2	7	6	3	0	0	0	6	6
082812	14:53:25	10035	Trial2BackEngS	YS	17	0	1000	0	121	14:53:25	2404087	4	1	1	1	1	1	1	1	2	7	6	3	0	0	0	6	6
082812	14:53:25	10035	Trial2BackEngS	NS	17	0	1000	1	121	14:53:25	2405607	4	1	1	1	1	1	1	1	2	7	6	3	0	0	0	6	6
082812	14:53:25	10035	Trial2BackEngS	NS	17	0	1000	1	121	14:53:25	2407126	4	1	1	1	1	1	1	1	2	7	6	3	0	0	0	6	6
082812	14:53:25	10035	Trial2BackEngS	NS	17	0	1000	1	121	14:53:25	2408645	4	1	1	1	1	1	1	1	2	7	6	3	0	0	0	6	6
082812	14:53:25	10035	Trial2BackEngS	NS	17	0	1000	1	121	14:53:25	2410165	4	1	1	1	1	1	1	1	2	7	6	3	0	0	0	6	6
082812	14:53:25	10035	Trial2BackEngS	YS	17	57	594	1	121	14:53:25	2411284	4	1	1	1	1	1	1	1	2	7	6	3	0	0	0	6	6
082812	14:53:25	10035	Trial2BackEngS	NS	17	0	1000	1	121	14:53:25	2413190	4	1	1	1	1	1	1	1	2	7	6	3	0	0	0	6	6
082812	14:53:25	10035	Trial2BackEngS	NS	17	0	1000	1	121	14:53:25	2414710	4	1	1	1	1	1	1	1	2	7	6	3	0	0	0	6	6
082812	14:53:25	10035	Trial2BackEngS	NS	17	0	1000	1	121	14:53:25	2416229	4	1	1	1	1	1	1	1	2	7	6	3	0	0	0	6	6
082812	14:53:25	10035	Trial2BackEngS	NS	17	57	722	0	121	14:53:25	2417482	4	1	1	1	1	1	1	1	2	7	6	3	0	0	0	6	6
082812	14:53:25	10035	Trial2BackEngS	NS	17	0	1000	1	121	14:53:25	2419254	4	1	1	1	1	1	1	1	2	7	6	3	0	0	0	6	6
082812	14:53:25	10035	Trial2BackEngS	NS	17	0	1000	1	121	14:53:25	2420774	4	1	1	1	1	1	1	1	2	7	6	3	0	0	0	6	6
082812	14:53:25	10035	Trial2BackEngS	NS	17	0	1000	1	121	14:53:25	2422293	4	1	1	1	1	1	1	1	2	7	6	3	0	0	0	6	6
082812	14:53:25	10035	Trial2BackEngS	NS	17	0	1000	1	121	14:53:25	2423812	4	1	1	1	1	1	1	1	2	7	6	3	0	0	0	6	6
082812	14:53:25	10035	Trial2BackEngS	NS	17	57	866	0	121	14:53:25	2425212	4	1	1	1	1	1	1	1	2	7	6	3	0	0	0	6	6
082812	14:53:25	10035	Trial2BackEngS	NS	17	0	1000	1	121	14:53:25	2426838	4	1	1	1	1	1	1	1	2	7	6	3	0	0	0	6	6
082812	14:53:25	10035	Trial2BackEngS	YS	17	57	737	1	121	14:53:25	2428104	4	1	1	1	1	1	1	1	2	7	6	3	0	0	0	6	6
082812	14:53:25	10035	Trial2BackEngS	NS	17	0	1000	1	121	14:53:25	2429863	4	1	1	1	1	1	1	1	2	7	6	3	0	0	0	6	6
082812	14:53:25	10035	Trial2BackEngS	NS	17	0	1000	1	121	14:53:25	2431383	4	1	1	1	1	1	1	1	2	7	6	3	0	0	0	6	6
082812	14:53:25	10035	Trial2BackEngS	NS	17	0	1000	1	121	14:53:25	2432902	4	1	1	1	1	1	1	1	2	7	6	3	0	0	0	6	6
082812	14:53:25	10035	Trial2BackEngS	YS	17	57	512	1	121	14:53:25	2433942	4	1	1	1	1	1	1	1	2	7	6	3	0	0	0	6	6
082812	14:53:25	10035	Trial2BackEngS	NS	17	0	1000	1	121	14:53:25	2435928	4	1	1	1	1	1	1	1	2	7	6	3	0	0	0	6	6
082812	14:53:25	10035	Trial2BackEngS	NS	17	0	1000	1	121	14:53:25	2437447	4	1	1	1	1	1	1	1	2	7	6	3	0	0	0	6	6
082812	14:53:25	10035	Trial2BackEngS	NS	17	0	1000	1	121	14:53:25	2438966	4	1	1	1	1	1	1	1	2	7	6	3	0	0	0	6	6
082812	14:53:25	10035	Trial2BackEngS	NS	17	0	1000	1	121	14:53:25	2440499	4	1	1	1	1	1	1	1	2	7	6	3	0	0	0	6	6
082812	14:53:25	10035	Trial2BackEngS	NS	17	0	1000	1	121	14:53:25	2442018	4	1	1	1	1	1	1	1	2	7	6	3	0	0	0	6	6
082812	14:53:25	10035	Trial2BackEngS	NS	17	0	1000	1	121	14:53:25	2443538	4	1	1	1	1	1	1	1	2	7	6	3	0	0	0	6	6
082812	14:53:25	10035	Trial2BackEngS	NS	17	0	1000	1	121	14:53:25	2445057	4	1	1	1	1	1	1	1	2	7	6	3	0	0	0	6	6
082812	14:53:25	10035	Trial2BackEngS	YS	17	57	805	1	121	14:53:25	2446390	4	1	1	1	1	1	1	1	2	7	6	3	0	0	0	6	6
082812	14:53:25	10035	Trial2BackEngS	NS	17	0	1000	1	121	14:53:25	2448083	4	1	1	1	1	1	1	1	2	7	6	3	0	0	0	6	6
082812	14:53:25	10035	Trial2BackEngS	NS	17	0	1000	1	121	14:53:25	2449602	4	1	1	1	1	1	1	1	2	7	6	3	0	0	0	6	6
082812	14:53:25	10035	Trial2BackEngS	NS	17	0	1000	1	121	14:53:25	2451121	4	1	1	1	1	1	1	1	2	7	6	3	0	0	0	6	6
082812	14:53:25	10035	Trial2BackEngS	NS	17	0	1000	1	121	14:53:25	2452641	4	1	1	1	1	1	1	1	2	7	6	3	0	0	0	6	6
082812	14:53:25	10035	Trial2BackEngS	YS	17	57	677	1	121	14:53:25	2453840	4	1	1	1	1	1	1	1	2	7	6	3	0	0	0	6	6
082812	14:53:25	10035	Trial2BackEngS	NS	17	0	1000	1	121	14:53:25	2455666	4	1	1	1	1	1	1	1	2	7	6	3	0	0	0	6	6
082812	14:53:25	10035	Trial2BackEngS	NS	17	0	1000	1	121	14:53:25	2457186	4	1	1	1	1	1	1	1	2	7	6	3	0	0	0	6	6
082812	14:53:25	10035	Trial2BackEngS	NS	17	0	1000	1	121	14:53:25	2458705	4	1	1	1	1	1	1	1	2	7	6	3	0	0	0	6	6
082812	14:53:25	10035	Trial2BackEngS	NS	17	0	1000	1	121	14:53:25	2460224	4	1	1	1	1	1	1	1	2	7	6	3	0	0	0	6	6
082812	14:53:25	10035	Trial2BackEngS	NS	17	0	1000	1	121	14:53:25	2461744	4	1	1	1	1	1	1	1	2	7	6	3	0	0	0	6	6
082812	14:53:25	10035	Trial2BackEngS	NS	17	0	1000	1	121	14:53:25	2463263	4	1	1	1	1	1	1	1	2	7	6	3	0	0	0	6	6
082812	14:53:25	10035	Trial2BackEngS	YS	17	57	710	1	121	14:53:25	2464503	4	1	1	1	1	1	1	1	2	7	6	3	0	0	0	6	6
082812	14:53:25	10035	Trial2BackEngS	NS	17	0	1000	1	121	14:53:25	2466289	4	1	1	1	1	1	1	1	2	7	6	3	0	0	0	6	6
082812	14:53:25	10035	Trial2BackEngS	NS	17	0	1000	1	121	14:53:25	2467808	4	1	1	1	1	1	1	1	2	7	6	3	0	0	0	6	6
082812	14:53:25	10035	Trial2BackEngS	NS	17	0	1000	1	121	14:53:25	2469327	4	1	1	1	1	1	1	1	2	7	6	3	0	0	0	6	6
082812	14:53:25	10035	Trial2BackEngS	NS	17	57	902	0	121	14:53:25	2470753	4	1	1	1	1	1	1	1	2	7	6	3	0	0	0	6	6
082812	14:53:25	10035	Trial2BackEngS	NS	17	0	1000	1	121	14:53:25	2472353	4	1	1	1	1	1	1	1	2	7	6	3	0	0	0	6	6
082812	14:53:25	10035	Trial2BackEngS	NS	17	0	1000	1	121	14:53:25	2473872	4	1	1	1	1	1	1	1	2	7	6	3	0	0	0	6	6
082812	14:53:25	10035	Trial2BackEngS	NS	17	0	1000	1	121	14:53:25	2475392	4	1	1	1	1	1	1	1	2	7	6	3	0	0	0	6	6
082812	14:53:25	10035	Trial2BackEngS	YS	17	0	1000	0	121	14:53:25	2476911	4	1	1	1	1	1	1	1	2	7	6	3	0	0	0	6	6
082812	14:53:25	10035	Trial2BackEngS	NS	17	0	1000	1	121	14:53:25	2478431	4	1	1	1	1	1	1	1	2	7	6	3	0	0	0	6	6
082812	14:53:25	10035	Trial2BackEngS	NS	17	0	1000	1	121	14:53:25	2479950	4	1	1	1	1	1	1	1	2	7	6	3	0	0	0	6	6
082812	14:53:25	10035	Trial2BackEngS	NS	17	0	1000	1	121	14:53:25	2481469	4	1	1	1	1	1	1	1	2	7	6	3	0	0	0	6	6
082812	14:53:25	10035	Trial2BackEngS	NS	17	0	1000	1	121	14:53:25	2482988	4	1	1	1	1	1	1	1	2	7	6	3	0	0	0	6	6
082812	14:53:25	10035	Trial2BackEngS	YS	17	0	1000	0	121	14:53:25	2484508	4	1	1	1	1	1	1	1	2	7	6	3	0	0	0	6	6
082812	14:53:25	10035	Trial2BackEngS	NS	17	0	1000	1	121	14:53:25	2486027	4	1	1	1	1	1	1	1	2	7	6	3	0	0	0	6	6
082812	14:53:25	10035	Trial2BackEngS	NS	17	0	1000	1	121	14:53:25	2487547	4	1	1	1	1	1	1	1	2	7	6	3	0	0	0	6	6
082812	14:53:25	10035	Trial2BackEngS	YS	17	57	699	1	121	14:53:25	2488773	4	1	1	1	1	1	1	1	2	7	6	3	0	0	0	6	6
082812	14:53:25	10035	Trial2BackEngS	NS	17	0	1000	1	121	14:53:25	2490572	4	1	1	1	1	1	1	1	2	7	6	3	0	0	0	6	6
082812	14:53:25	10035	Trial2BackEngS	NS	17	0	1000	1	121	14:53:25	2492092	4	1	1	1	1	1	1	1	2	7	6	3	0	0	0	6	6
082812	14:53:25	10035	Trial2BackEngS	NS	17	57	713	0	121	14:53:25	2493331	4	1	1	1	1	1	1	1	2	7	6	3	0	0	0	6	6
082812	14:53:25	10035	Trial2BackEngS	NS	17	0	1000	1	121	14:53:25	2495117	4	1	1	1	1	1	1	1	2	7	6	3	0	0	0	6	6
082812	14:53:25	10035	Trial2BackEngS	NS	17	0	1000	1	121	14:53:25	2496636	4	1	1	1	1	1	1	1	2	7	6	3	0	0	0	6	6
082812	14:53:25	10035	Trial2BackEngS	NS	17	0	1000	1	121	14:53:25	2498156	4	1	1	1	1	1	1	1	2	7	6	3	0	0	0	6	6
082812	14:53:25	10035	Trial2BackEngS	YS	17	57	649	1	121	14:53:25	2499329	4	1	1	1	1	1	1	1	2	7	6	3	0	0	0	6	6
082812	14:53:25	10035	Trial2BackEngS	NS	17	0	1000	1	121	14:53:25	2501181	4	1	1	1	1	1	1	1	2	7	6	3	0	0	0	6	6
082812	14:53:25	10035	Trial2BackEngS	NS	17	0	1000	1	121	14:53:25	2502701	4	1	1	1	1	1	1	1	2	7	6	3	0	0	0	6	6
082812	14:53:25	10035	Trial2BackEngS	NS	17	0	1000	1	121	14:53:25	2504220	4	1	1	1	1	1	1	1	2	7	6	3	0	0	0	6	6
082812	14:53:25	10035	Trial2BackEngS	NS	17	0	1000	1	121	14:53:25	2505739	4	1	1	1	1	1	1	1	2	7	6	3	0	0	0	6	6
082812	14:53:25	10035	Trial2BackEngS	YS	17	57	873	1	121	14:53:25	2507139	4	1	1	1	1	1	1	1	2	7	6	3	0	0	0	6	6
082812	14:53:25	10035	Trial2BackEngS	NS	17	0	1000	1	121	14:53:25	2508765	4	1	1	1	1	1	1	1	2	7	6	3	0	0	0	6	6
082812	14:53:25	10035	Trial2BackEngS	NS	17	0	1000	1	121	14:53:25	2510284	4	1	1	1	1	1	1	1	2	7	6	3	0	0	0	6	6
082812	14:53:25	10035	Trial2BackEngS	NS	17	0	1000	1	121	14:53:25	2511804	4	1	1	1	1	1	1	1	2	7	6	3	0	0	0	6	6
082812	14:53:25	10035	Trial2BackEngS	NS	17	57	649	0	121	14:53:25	2512976	4	1	1	1	1	1	1	1	2	7	6	3	0	0	0	6	6
082812	14:53:25	10035	Trial2BackEngS	YS	17	0	1000	0	121	14:53:25	2514829	4	1	1	1	1	1	1	1	2	7	6	3	0	0	0	6	6
082812	14:53:25	10035	Trial2BackEngS	NS	17	0	1000	1	121	14:53:25	2516348	4	1	1	1	1	1	1	1	2	7	6	3	0	0	0	6	6
082812	14:53:25	10035	Trial2BackEngS	NS	17	0	1000	1	121	14:53:25	2517868	4	1	1	1	1	1	1	1	2	7	6	3	0	0	0	6	6
082812	14:53:25	10035	Trial2BackEngS	YS	17	0	1000	0	121	14:53:25	2519387	4	1	1	1	1	1	1	1	2	7	6	3	0	0	0	6	6
082812	14:53:25	10035	Trial2BackEngS	NS	17	57	489	0	121	14:53:25	2520400	4	1	1	1	1	1	1	1	2	7	6	3	0	0	0	6	6
082812	14:53:25	10035	Trial2BackEngS	NS	17	0	1000	1	121	14:53:25	2522413	4	1	1	1	1	1	1	1	2	7	6	3	0	0	0	6	6
082812	14:53:25	10035	Trial2BackEngS	NS	17	0	1000	1	121	14:53:25	2523932	4	1	1	1	1	1	1	1	2	7	6	3	0	0	0	6	6
082812	14:53:25	10035	Trial2BackEngS	NS	17	0	1000	1	121	14:53:25	2525451	4	1	1	1	1	1	1	1	2	7	6	3	0	0	0	6	6
082812	14:53:25	10035	Trial2BackEngS	NS	17	0	1000	1	121	14:53:25	2526971	4	1	1	1	1	1	1	1	2	7	6	3	0	0	0	6	6
082812	14:53:25	10035	Trial2BackEngS	NS	17	0	1000	1	121	14:53:25	2528490	4	1	1	1	1	1	1	1	2	7	6	3	0	0	0	6	6
082812	14:53:25	10035	Trial2BackEngS	NS	17	0	1000	1	121	14:53:25	2530010	4	1	1	1	1	1	1	1	2	7	6	3	0	0	0	6	6
082812	14:53:25	10035	Trial2BackEngS	NS	17	0	1000	1	121	14:53:25	2531529	4	1	1	1	1	1	1	1	2	7	6	3	0	0	0	6	6
082812	14:53:25	10035	Trial2BackEngS	YS	17	57	939	1	121	14:53:25	2532995	4	1	1	1	1	1	1	1	2	7	6	3	0	0	0	6	6
082812	14:53:25	10035	Trial2BackEngS	NS	17	0	1000	1	121	14:53:25	2534555	4	1	1	1	1	1	1	1	2	7	6	3	0	0	0	6	6
082812	14:53:25	10035	Trial2BackEngS	NS	17	0	1000	1	121	14:53:25	2536074	4	1	1	1	1	1	1	1	2	7	6	3	0	0	0	6	6
082812	14:53:25	10035	Trial2BackEngS	NS	17	0	1000	1	121	14:53:25	2537593	4	1	1	1	1	1	1	1	2	7	6	3	0	0	0	6	6
082812	14:53:25	10035	Trial2BackEngS	NS	17	0	1000	1	121	14:53:25	2539113	4	1	1	1	1	1	1	1	2	7	6	3	0	0	0	6	6
082812	14:53:25	10035	Trial2BackEngS	NS	17	0	1000	1	121	14:53:25	2540632	4	1	1	1	1	1	1	1	2	7	6	3	0	0	0	6	6
082812	14:53:25	10035	Trial2BackEngS	NS	17	0	1000	1	121	14:53:25	2542151	4	1	1	1	1	1	1	1	2	7	6	3	0	0	0	6	6
082812	14:53:25	10035	Trial2BackEngS	NS	17	0	1000	1	121	14:53:25	2543671	4	1	1	1	1	1	1	1	2	7	6	3	0	0	0	6	6
082812	14:53:25	10035	Trial2BackEngS	YS	17	57	605	1	121	14:53:25	2544804	4	1	1	1	1	1	1	1	2	7	6	3	0	0	0	6	6
082812	14:53:25	10035	Trial2BackEngS	NS	17	0	1000	1	121	14:53:25	2546696	4	1	1	1	1	1	1	1	2	7	6	3	0	0	0	6	6
082812	14:53:25	10035	Trial2BackEngS	NS	17	0	1000	1	121	14:53:25	2548215	4	1	1	1	1	1	1	1	2	7	6	3	0	0	0	6	6
082812	14:53:25	10035	Trial2BackEngS	NS	17	0	1000	1	121	14:53:25	2549735	4	1	1	1	1	1	1	1	2	7	6	3	0	0	0	6	6
082812	14:53:25	10035	Trial2BackEngS	NS	17	0	1000	1	121	14:53:25	2551254	4	1	1	1	1	1	1	1	2	7	6	3	0	0	0	6	6
082812	14:53:25	10035	Trial2BackEngS	NS	17	0	1000	1	121	14:53:25	2552774	4	1	1	1	1	1	1	1	2	7	6	3	0	0	0	6	6
082812	14:53:25	10035	Trial2BackEngS	NS	17	0	1000	1	121	14:53:25	2554293	4	1	1	1	1	1	1	1	2	7	6	3	0	0	0	6	6
082812	14:53:25	10035	Trial2BackEngS	NS	17	0	1000	1	121	14:53:25	2555813	4	1	1	1	1	1	1	1	2	7	6	3	0	0	0	6	6
082812	14:53:25	10035	Trial2BackEngS	NS	17	0	1000	1	121	14:53:25	2557332	4	1	1	1	1	1	1	1	2	7	6	3	0	0	0	6	6
082812	14:53:25	10035	Trial2BackEngS	NS	17	0	1000	1	121	14:53:25	2558851	4	1	1	1	1	1	1	1	2	7	6	3	0	0	0	6	6
082812	14:53:25	10035	Trial2BackEngS	YS	17	57	688	1	121	14:53:25	2560064	4	1	1	1	1	1	1	1	2	7	6	3	0	0	0	6	6
082812	14:53:25	10035	Trial2BackEngS	NS	17	0	1000	1	121	14:53:25	2561877	4	1	1	1	1	1	1	1	2	7	6	3	0	0	0	6	6
082812	14:53:25	10035	ClockEngBaseline	ClockEngBaseline	19	Clock1	59018	0	121	14:53:25	2621000	4	1	1	1	1	1	1	1	2	7	6	3	1	0	0	6	6
082812	14:53:25	10035	ClockEngBaseline	ClockEngBaseline	19	Clock22	578	0	121	14:53:25	2621613	4	1	1	1	1	1	1	1	2	7	6	3	1	0	0	6	6
082812	14:53:25	10035	ClockEngBaseline	ClockEngBaseline	19	Clock111	590	0	121	14:53:25	2622239	4	1	1	1	1	1	1	1	2	7	6	3	1	0	1	6	6
082812	14:53:25	10035	ClockEngBaseline	ClockEngBaseline	19	Clockdone	987	0	121	14:53:25	2623265	4	1	1	1	1	1	1	1	2	7	6	3	1	0	1	6	6
082812	14:53:25	10035	FASEngVFBaseline	StopEngVFBaseline	20	12	4355	0	121	14:53:25	2727892	4	1	1	1	1	1	1	1	2	7	6	3	1	0	1	6	6
