date	time	subject	blockcode	trialcode	values.TaskNumber	response	latency	correct	values.Score	script.starttime	script.elapsedtime	values.ScoreS7	values.Word1	values.Word2	values.Word3	values.Word4	values.Word5	values.Word6	values.Word7	values.Word8	values.DigitSpanFwrd	values.DigitSpanBack	values.ScoreAbs	values.Contour	values.Numbers	values.Hands	values.corsiblockspanFwrd	values.corsiblockspanRev
071812	15:22:49	10003	Language	Language	0	French	2863	0	0	15:22:49	3119	0	0	0	0	0	0	0	0	0	0	0	0	0	0	0	0	0
071812	15:22:49	10003	Session	Session	0	3mo	1010	0	0	15:22:49	4212	0	0	0	0	0	0	0	0	0	0	0	0	0	0	0	0	0
071812	15:22:49	10003	HandFr	HandFr	0	RightFr	339717	0	0	15:22:49	344009	0	0	0	0	0	0	0	0	0	0	0	0	0	0	0	0	0
071812	15:22:49	10003	AudioCheckFr	WordsFr	0	0	0	0	0	15:22:49	374477	0	0	0	0	0	0	0	0	0	0	0	0	0	0	0	0	0
071812	15:22:49	10003	CubeFr	CubeFr	1	1Cube	50450	0	0	15:22:49	426707	0	0	0	0	0	0	0	0	0	0	0	0	0	0	0	0	0
071812	15:22:49	10003	pm.simpleFrRight	blank.simpleFr	2	0	1687	1	0	15:22:49	463053	0	0	0	0	0	0	0	0	0	0	0	0	0	0	0	0	0
071812	15:22:49	10003	pm.simpleFrRight	pm.simpleFr	2	57	491	0	0	15:22:49	463586	0	0	0	0	0	0	0	0	0	0	0	0	0	0	0	0	0
071812	15:22:49	10003	pm.simpleFrRight	blank.simpleFr	2	0	1987	1	0	15:22:49	465598	0	0	0	0	0	0	0	0	0	0	0	0	0	0	0	0	0
071812	15:22:49	10003	pm.simpleFrRight	pm.simpleFr	2	57	346	0	0	15:22:49	465985	0	0	0	0	0	0	0	0	0	0	0	0	0	0	0	0	0
071812	15:22:49	10003	pm.simpleFrRight	blank.simpleFr	2	0	1787	1	0	15:22:49	467797	0	0	0	0	0	0	0	0	0	0	0	0	0	0	0	0	0
071812	15:22:49	10003	pm.simpleFrRight	pm.simpleFr	2	57	323	0	0	15:22:49	468157	0	0	0	0	0	0	0	0	0	0	0	0	0	0	0	0	0
071812	15:22:49	10003	pm.simpleFrRight	blank.simpleFr	2	0	2087	1	0	15:22:49	470276	0	0	0	0	0	0	0	0	0	0	0	0	0	0	0	0	0
071812	15:22:49	10003	pm.simpleFrRight	pm.simpleFr	2	57	355	0	0	15:22:49	470663	0	0	0	0	0	0	0	0	0	0	0	0	0	0	0	0	0
071812	15:22:49	10003	pm.simpleFrRight	blank.simpleFr	2	0	2287	1	0	15:22:49	472982	0	0	0	0	0	0	0	0	0	0	0	0	0	0	0	0	0
071812	15:22:49	10003	pm.simpleFrRight	pm.simpleFr	2	57	321	0	0	15:22:49	473342	0	0	0	0	0	0	0	0	0	0	0	0	0	0	0	0	0
071812	15:22:49	10003	pm.simpleFrRight	blank.simpleFr	2	0	1887	1	0	15:22:49	475261	0	0	0	0	0	0	0	0	0	0	0	0	0	0	0	0	0
071812	15:22:49	10003	pm.simpleFrRight	pm.simpleFr	2	57	299	0	0	15:22:49	475594	0	0	0	0	0	0	0	0	0	0	0	0	0	0	0	0	0
071812	15:22:49	10003	pm.simpleFrRight	blank.simpleFr	2	0	2387	1	0	15:22:49	478006	0	0	0	0	0	0	0	0	0	0	0	0	0	0	0	0	0
071812	15:22:49	10003	pm.simpleFrRight	pm.simpleFr	2	57	273	0	0	15:22:49	478313	0	0	0	0	0	0	0	0	0	0	0	0	0	0	0	0	0
071812	15:22:49	10003	pm.simpleFrRight	blank.simpleFr	2	0	2487	1	0	15:22:49	480832	0	0	0	0	0	0	0	0	0	0	0	0	0	0	0	0	0
071812	15:22:49	10003	pm.simpleFrRight	pm.simpleFr	2	57	328	0	0	15:22:49	481192	0	0	0	0	0	0	0	0	0	0	0	0	0	0	0	0	0
071812	15:22:49	10003	pm.simpleFrRight	blank.simpleFr	2	0	1587	1	0	15:22:49	482805	0	0	0	0	0	0	0	0	0	0	0	0	0	0	0	0	0
071812	15:22:49	10003	pm.simpleFrRight	pm.simpleFr	2	57	355	0	0	15:22:49	483191	0	0	0	0	0	0	0	0	0	0	0	0	0	0	0	0	0
071812	15:22:49	10003	pm.simpleFrRight	blank.simpleFr	2	0	2187	1	0	15:22:49	485403	0	0	0	0	0	0	0	0	0	0	0	0	0	0	0	0	0
071812	15:22:49	10003	pm.simpleFrRight	pm.simpleFr	2	57	316	0	0	15:22:49	485750	0	0	0	0	0	0	0	0	0	0	0	0	0	0	0	0	0
071812	15:22:49	10003	pm.simpleFrRight	blank.simpleFr	2	0	1487	1	0	15:22:49	487269	0	0	0	0	0	0	0	0	0	0	0	0	0	0	0	0	0
071812	15:22:49	10003	pm.simpleFrRight	pm.simpleFr	2	57	370	0	0	15:22:49	487669	0	0	0	0	0	0	0	0	0	0	0	0	0	0	0	0	0
071812	15:22:49	10003	pm.simpleFrRight	blank.simpleFr	2	0	2487	1	0	15:22:49	490188	0	0	0	0	0	0	0	0	0	0	0	0	0	0	0	0	0
071812	15:22:49	10003	pm.simpleFrRight	pm.simpleFr	2	57	268	0	0	15:22:49	490495	0	0	0	0	0	0	0	0	0	0	0	0	0	0	0	0	0
071812	15:22:49	10003	pm.simpleFrRight	blank.simpleFr	2	0	1887	1	0	15:22:49	492414	0	0	0	0	0	0	0	0	0	0	0	0	0	0	0	0	0
071812	15:22:49	10003	pm.simpleFrRight	pm.simpleFr	2	57	253	0	0	15:22:49	492707	0	0	0	0	0	0	0	0	0	0	0	0	0	0	0	0	0
071812	15:22:49	10003	pm.simpleFrRight	blank.simpleFr	2	0	1587	1	0	15:22:49	494320	0	0	0	0	0	0	0	0	0	0	0	0	0	0	0	0	0
071812	15:22:49	10003	pm.simpleFrRight	pm.simpleFr	2	57	312	0	0	15:22:49	494666	0	0	0	0	0	0	0	0	0	0	0	0	0	0	0	0	0
071812	15:22:49	10003	pm.simpleFrRight	blank.simpleFr	2	0	1687	1	0	15:22:49	496372	0	0	0	0	0	0	0	0	0	0	0	0	0	0	0	0	0
071812	15:22:49	10003	pm.simpleFrRight	pm.simpleFr	2	57	323	0	0	15:22:49	496732	0	0	0	0	0	0	0	0	0	0	0	0	0	0	0	0	0
071812	15:22:49	10003	pm.simpleFrRight	blank.simpleFr	2	0	2287	1	0	15:22:49	499051	0	0	0	0	0	0	0	0	0	0	0	0	0	0	0	0	0
071812	15:22:49	10003	pm.simpleFrRight	pm.simpleFr	2	57	284	0	0	15:22:49	499371	0	0	0	0	0	0	0	0	0	0	0	0	0	0	0	0	0
071812	15:22:49	10003	pm.simpleFrRight	blank.simpleFr	2	0	2087	1	0	15:22:49	501490	0	0	0	0	0	0	0	0	0	0	0	0	0	0	0	0	0
071812	15:22:49	10003	pm.simpleFrRight	pm.simpleFr	2	57	261	0	0	15:22:49	501784	0	0	0	0	0	0	0	0	0	0	0	0	0	0	0	0	0
071812	15:22:49	10003	pm.simpleFrRight	blank.simpleFr	2	0	1987	1	0	15:22:49	503796	0	0	0	0	0	0	0	0	0	0	0	0	0	0	0	0	0
071812	15:22:49	10003	pm.simpleFrRight	pm.simpleFr	2	57	291	0	0	15:22:49	504129	0	0	0	0	0	0	0	0	0	0	0	0	0	0	0	0	0
071812	15:22:49	10003	pm.simpleFrRight	blank.simpleFr	2	0	1487	1	0	15:22:49	505649	0	0	0	0	0	0	0	0	0	0	0	0	0	0	0	0	0
071812	15:22:49	10003	pm.simpleFrRight	pm.simpleFr	2	57	262	0	0	15:22:49	505942	0	0	0	0	0	0	0	0	0	0	0	0	0	0	0	0	0
071812	15:22:49	10003	pm.simpleFrRight	blank.simpleFr	2	0	2387	1	0	15:22:49	508354	0	0	0	0	0	0	0	0	0	0	0	0	0	0	0	0	0
071812	15:22:49	10003	pm.simpleFrRight	pm.simpleFr	2	57	261	0	0	15:22:49	508647	0	0	0	0	0	0	0	0	0	0	0	0	0	0	0	0	0
071812	15:22:49	10003	pm.simpleFrRight	blank.simpleFr	2	0	1787	1	0	15:22:49	510460	0	0	0	0	0	0	0	0	0	0	0	0	0	0	0	0	0
071812	15:22:49	10003	pm.simpleFrRight	pm.simpleFr	2	57	283	0	0	15:22:49	510780	0	0	0	0	0	0	0	0	0	0	0	0	0	0	0	0	0
071812	15:22:49	10003	pm.simpleFrRight	blank.simpleFr	2	0	2187	1	0	15:22:49	512992	0	0	0	0	0	0	0	0	0	0	0	0	0	0	0	0	0
071812	15:22:49	10003	pm.simpleFrRight	pm.simpleFr	2	57	231	0	0	15:22:49	513259	0	0	0	0	0	0	0	0	0	0	0	0	0	0	0	0	0
071812	15:22:49	10003	pm.simpleFrRight	blank.simpleFr	2	0	2087	1	0	15:22:49	515378	0	0	0	0	0	0	0	0	0	0	0	0	0	0	0	0	0
071812	15:22:49	10003	pm.simpleFrRight	pm.simpleFr	2	57	213	0	0	15:22:49	515631	0	0	0	0	0	0	0	0	0	0	0	0	0	0	0	0	0
071812	15:22:49	10003	pm.simpleFrRight	blank.simpleFr	2	0	1987	1	0	15:22:49	517644	0	0	0	0	0	0	0	0	0	0	0	0	0	0	0	0	0
071812	15:22:49	10003	pm.simpleFrRight	pm.simpleFr	2	57	267	0	0	15:22:49	517951	0	0	0	0	0	0	0	0	0	0	0	0	0	0	0	0	0
071812	15:22:49	10003	pm.simpleFrRight	blank.simpleFr	2	0	2387	1	0	15:22:49	520363	0	0	0	0	0	0	0	0	0	0	0	0	0	0	0	0	0
071812	15:22:49	10003	pm.simpleFrRight	pm.simpleFr	2	57	268	0	0	15:22:49	520669	0	0	0	0	0	0	0	0	0	0	0	0	0	0	0	0	0
071812	15:22:49	10003	pm.simpleFrRight	blank.simpleFr	2	0	1587	1	0	15:22:49	522282	0	0	0	0	0	0	0	0	0	0	0	0	0	0	0	0	0
071812	15:22:49	10003	pm.simpleFrRight	pm.simpleFr	2	57	268	0	0	15:22:49	522588	0	0	0	0	0	0	0	0	0	0	0	0	0	0	0	0	0
071812	15:22:49	10003	pm.simpleFrRight	blank.simpleFr	2	0	2287	1	0	15:22:49	524908	0	0	0	0	0	0	0	0	0	0	0	0	0	0	0	0	0
071812	15:22:49	10003	pm.simpleFrRight	pm.simpleFr	2	57	283	0	0	15:22:49	525227	0	0	0	0	0	0	0	0	0	0	0	0	0	0	0	0	0
071812	15:22:49	10003	pm.simpleFrRight	blank.simpleFr	2	0	2187	1	0	15:22:49	527440	0	0	0	0	0	0	0	0	0	0	0	0	0	0	0	0	0
071812	15:22:49	10003	pm.simpleFrRight	pm.simpleFr	2	57	311	0	0	15:22:49	527786	0	0	0	0	0	0	0	0	0	0	0	0	0	0	0	0	0
071812	15:22:49	10003	pm.simpleFrRight	blank.simpleFr	2	0	1487	1	0	15:22:49	529306	0	0	0	0	0	0	0	0	0	0	0	0	0	0	0	0	0
071812	15:22:49	10003	pm.simpleFrRight	pm.simpleFr	2	57	316	0	0	15:22:49	529652	0	0	0	0	0	0	0	0	0	0	0	0	0	0	0	0	0
071812	15:22:49	10003	pm.simpleFrRight	blank.simpleFr	2	0	2487	1	0	15:22:49	532171	0	0	0	0	0	0	0	0	0	0	0	0	0	0	0	0	0
071812	15:22:49	10003	pm.simpleFrRight	pm.simpleFr	2	57	267	0	0	15:22:49	532478	0	0	0	0	0	0	0	0	0	0	0	0	0	0	0	0	0
071812	15:22:49	10003	pm.simpleFrRight	blank.simpleFr	2	0	1887	1	0	15:22:49	534397	0	0	0	0	0	0	0	0	0	0	0	0	0	0	0	0	0
071812	15:22:49	10003	pm.simpleFrRight	pm.simpleFr	2	57	313	0	0	15:22:49	534744	0	0	0	0	0	0	0	0	0	0	0	0	0	0	0	0	0
071812	15:22:49	10003	pm.simpleFrRight	blank.simpleFr	2	0	1787	1	0	15:22:49	536556	0	0	0	0	0	0	0	0	0	0	0	0	0	0	0	0	0
071812	15:22:49	10003	pm.simpleFrRight	pm.simpleFr	2	57	330	0	0	15:22:49	536929	0	0	0	0	0	0	0	0	0	0	0	0	0	0	0	0	0
071812	15:22:49	10003	pm.simpleFrRight	blank.simpleFr	2	0	1687	1	0	15:22:49	538649	0	0	0	0	0	0	0	0	0	0	0	0	0	0	0	0	0
071812	15:22:49	10003	pm.simpleFrRight	pm.simpleFr	2	57	350	0	0	15:22:49	539035	0	0	0	0	0	0	0	0	0	0	0	0	0	0	0	0	0
071812	15:22:49	10003	pm.simpleFrRight	blank.simpleFr	2	0	2087	1	0	15:22:49	541154	0	0	0	0	0	0	0	0	0	0	0	0	0	0	0	0	0
071812	15:22:49	10003	pm.simpleFrRight	pm.simpleFr	2	57	244	0	0	15:22:49	541434	0	0	0	0	0	0	0	0	0	0	0	0	0	0	0	0	0
071812	15:22:49	10003	pm.simpleFrRight	blank.simpleFr	2	0	2487	1	0	15:22:49	543953	0	0	0	0	0	0	0	0	0	0	0	0	0	0	0	0	0
071812	15:22:49	10003	pm.simpleFrRight	pm.simpleFr	2	57	325	0	0	15:22:49	544313	0	0	0	0	0	0	0	0	0	0	0	0	0	0	0	0	0
071812	15:22:49	10003	pm.simpleFrRight	blank.simpleFr	2	0	1587	1	0	15:22:49	545926	0	0	0	0	0	0	0	0	0	0	0	0	0	0	0	0	0
071812	15:22:49	10003	pm.simpleFrRight	pm.simpleFr	2	57	336	0	0	15:22:49	546299	0	0	0	0	0	0	0	0	0	0	0	0	0	0	0	0	0
071812	15:22:49	10003	pm.simpleFrRight	blank.simpleFr	2	0	1487	1	0	15:22:49	547818	0	0	0	0	0	0	0	0	0	0	0	0	0	0	0	0	0
071812	15:22:49	10003	pm.simpleFrRight	pm.simpleFr	2	57	316	0	0	15:22:49	548165	0	0	0	0	0	0	0	0	0	0	0	0	0	0	0	0	0
071812	15:22:49	10003	pm.simpleFrRight	blank.simpleFr	2	0	2187	1	0	15:22:49	550377	0	0	0	0	0	0	0	0	0	0	0	0	0	0	0	0	0
071812	15:22:49	10003	pm.simpleFrRight	pm.simpleFr	2	57	269	0	0	15:22:49	550684	0	0	0	0	0	0	0	0	0	0	0	0	0	0	0	0	0
071812	15:22:49	10003	pm.simpleFrRight	blank.simpleFr	2	0	1987	1	0	15:22:49	552696	0	0	0	0	0	0	0	0	0	0	0	0	0	0	0	0	0
071812	15:22:49	10003	pm.simpleFrRight	pm.simpleFr	2	57	222	0	0	15:22:49	552950	0	0	0	0	0	0	0	0	0	0	0	0	0	0	0	0	0
071812	15:22:49	10003	pm.simpleFrRight	blank.simpleFr	2	0	2287	1	0	15:22:49	555269	0	0	0	0	0	0	0	0	0	0	0	0	0	0	0	0	0
071812	15:22:49	10003	pm.simpleFrRight	pm.simpleFr	2	57	258	0	0	15:22:49	555562	0	0	0	0	0	0	0	0	0	0	0	0	0	0	0	0	0
071812	15:22:49	10003	Trial2BackFr	N	3	0	1000	1	1	15:22:49	619176	0	0	0	0	0	0	0	0	0	0	0	0	0	0	0	0	0
071812	15:22:49	10003	Trial2BackFr	N	3	0	1000	1	2	15:22:49	620696	0	0	0	0	0	0	0	0	0	0	0	0	0	0	0	0	0
071812	15:22:49	10003	Trial2BackFr	N	3	0	1000	1	3	15:22:49	622215	0	0	0	0	0	0	0	0	0	0	0	0	0	0	0	0	0
071812	15:22:49	10003	Trial2BackFr	N	3	0	1000	1	4	15:22:49	623735	0	0	0	0	0	0	0	0	0	0	0	0	0	0	0	0	0
071812	15:22:49	10003	Trial2BackFr	N	3	0	1000	1	5	15:22:49	625254	0	0	0	0	0	0	0	0	0	0	0	0	0	0	0	0	0
071812	15:22:49	10003	Trial2BackFr	N	3	0	1000	1	6	15:22:49	626773	0	0	0	0	0	0	0	0	0	0	0	0	0	0	0	0	0
071812	15:22:49	10003	Trial2BackFr	N	3	0	1000	1	7	15:22:49	628293	0	0	0	0	0	0	0	0	0	0	0	0	0	0	0	0	0
071812	15:22:49	10003	Trial2BackFr	N	3	0	1000	1	8	15:22:49	629812	0	0	0	0	0	0	0	0	0	0	0	0	0	0	0	0	0
071812	15:22:49	10003	Trial2BackFr	Y	3	57	581	1	9	15:22:49	630918	0	0	0	0	0	0	0	0	0	0	0	0	0	0	0	0	0
071812	15:22:49	10003	Trial2BackFr	N	3	0	1000	1	10	15:22:49	632838	0	0	0	0	0	0	0	0	0	0	0	0	0	0	0	0	0
071812	15:22:49	10003	Trial2BackFr	N	3	0	1000	1	11	15:22:49	634357	0	0	0	0	0	0	0	0	0	0	0	0	0	0	0	0	0
071812	15:22:49	10003	Trial2BackFr	N	3	0	1000	1	12	15:22:49	635876	0	0	0	0	0	0	0	0	0	0	0	0	0	0	0	0	0
071812	15:22:49	10003	Trial2BackFr	Y	3	57	501	1	13	15:22:49	636902	0	0	0	0	0	0	0	0	0	0	0	0	0	0	0	0	0
071812	15:22:49	10003	Trial2BackFr	N	3	0	1000	1	14	15:22:49	638902	0	0	0	0	0	0	0	0	0	0	0	0	0	0	0	0	0
071812	15:22:49	10003	Trial2BackFr	N	3	0	1000	1	15	15:22:49	640421	0	0	0	0	0	0	0	0	0	0	0	0	0	0	0	0	0
071812	15:22:49	10003	Trial2BackFr	N	3	0	1000	1	16	15:22:49	641941	0	0	0	0	0	0	0	0	0	0	0	0	0	0	0	0	0
071812	15:22:49	10003	Trial2BackFr	N	3	0	1000	1	17	15:22:49	643460	0	0	0	0	0	0	0	0	0	0	0	0	0	0	0	0	0
071812	15:22:49	10003	Trial2BackFr	N	3	0	1000	1	18	15:22:49	644979	0	0	0	0	0	0	0	0	0	0	0	0	0	0	0	0	0
071812	15:22:49	10003	Trial2BackFr	Y	3	57	837	1	19	15:22:49	646339	0	0	0	0	0	0	0	0	0	0	0	0	0	0	0	0	0
071812	15:22:49	10003	Trial2BackFr	N	3	0	1000	1	20	15:22:49	648005	0	0	0	0	0	0	0	0	0	0	0	0	0	0	0	0	0
071812	15:22:49	10003	Trial2BackFr	N	3	0	1000	1	21	15:22:49	649524	0	0	0	0	0	0	0	0	0	0	0	0	0	0	0	0	0
071812	15:22:49	10003	Trial2BackFr	N	3	0	1000	1	22	15:22:49	651044	0	0	0	0	0	0	0	0	0	0	0	0	0	0	0	0	0
071812	15:22:49	10003	Trial2BackFr	N	3	0	1000	1	23	15:22:49	652563	0	0	0	0	0	0	0	0	0	0	0	0	0	0	0	0	0
071812	15:22:49	10003	Trial2BackFr	Y	3	57	646	1	24	15:22:49	653736	0	0	0	0	0	0	0	0	0	0	0	0	0	0	0	0	0
071812	15:22:49	10003	Trial2BackFr	N	3	0	1000	1	25	15:22:49	655588	0	0	0	0	0	0	0	0	0	0	0	0	0	0	0	0	0
071812	15:22:49	10003	Trial2BackFr	N	3	0	1000	1	26	15:22:49	657108	0	0	0	0	0	0	0	0	0	0	0	0	0	0	0	0	0
071812	15:22:49	10003	Trial2BackFr	N	3	0	1000	1	27	15:22:49	658627	0	0	0	0	0	0	0	0	0	0	0	0	0	0	0	0	0
071812	15:22:49	10003	Trial2BackFr	N	3	0	1000	1	28	15:22:49	660147	0	0	0	0	0	0	0	0	0	0	0	0	0	0	0	0	0
071812	15:22:49	10003	Trial2BackFr	N	3	0	1000	1	29	15:22:49	661666	0	0	0	0	0	0	0	0	0	0	0	0	0	0	0	0	0
071812	15:22:49	10003	Trial2BackFr	N	3	0	1000	1	30	15:22:49	663185	0	0	0	0	0	0	0	0	0	0	0	0	0	0	0	0	0
071812	15:22:49	10003	Trial2BackFr	Y	3	57	647	1	31	15:22:49	664358	0	0	0	0	0	0	0	0	0	0	0	0	0	0	0	0	0
071812	15:22:49	10003	Trial2BackFr	N	3	0	1000	1	32	15:22:49	666211	0	0	0	0	0	0	0	0	0	0	0	0	0	0	0	0	0
071812	15:22:49	10003	Trial2BackFr	N	3	0	1000	1	33	15:22:49	667730	0	0	0	0	0	0	0	0	0	0	0	0	0	0	0	0	0
071812	15:22:49	10003	Trial2BackFr	N	3	0	1000	1	34	15:22:49	669250	0	0	0	0	0	0	0	0	0	0	0	0	0	0	0	0	0
071812	15:22:49	10003	Trial2BackFr	Y	3	57	615	1	35	15:22:49	670396	0	0	0	0	0	0	0	0	0	0	0	0	0	0	0	0	0
071812	15:22:49	10003	Trial2BackFr	N	3	0	1000	1	36	15:22:49	672275	0	0	0	0	0	0	0	0	0	0	0	0	0	0	0	0	0
071812	15:22:49	10003	Trial2BackFr	N	3	0	1000	1	37	15:22:49	673794	0	0	0	0	0	0	0	0	0	0	0	0	0	0	0	0	0
071812	15:22:49	10003	Trial2BackFr	N	3	0	1000	1	38	15:22:49	675314	0	0	0	0	0	0	0	0	0	0	0	0	0	0	0	0	0
071812	15:22:49	10003	Trial2BackFr	N	3	0	1000	1	39	15:22:49	676833	0	0	0	0	0	0	0	0	0	0	0	0	0	0	0	0	0
071812	15:22:49	10003	Trial2BackFr	N	3	0	1000	1	40	15:22:49	678353	0	0	0	0	0	0	0	0	0	0	0	0	0	0	0	0	0
071812	15:22:49	10003	Trial2BackFr	N	3	0	1000	1	41	15:22:49	679872	0	0	0	0	0	0	0	0	0	0	0	0	0	0	0	0	0
071812	15:22:49	10003	Trial2BackFr	Y	3	57	680	1	42	15:22:49	681085	0	0	0	0	0	0	0	0	0	0	0	0	0	0	0	0	0
071812	15:22:49	10003	Trial2BackFr	N	3	0	1000	1	43	15:22:49	682897	0	0	0	0	0	0	0	0	0	0	0	0	0	0	0	0	0
071812	15:22:49	10003	Trial2BackFr	N	3	0	1000	1	44	15:22:49	684417	0	0	0	0	0	0	0	0	0	0	0	0	0	0	0	0	0
071812	15:22:49	10003	Trial2BackFr	N	3	0	1000	1	45	15:22:49	685936	0	0	0	0	0	0	0	0	0	0	0	0	0	0	0	0	0
071812	15:22:49	10003	Trial2BackFr	N	3	0	1000	1	46	15:22:49	687455	0	0	0	0	0	0	0	0	0	0	0	0	0	0	0	0	0
071812	15:22:49	10003	Trial2BackFr	Y	3	57	520	1	47	15:22:49	688508	0	0	0	0	0	0	0	0	0	0	0	0	0	0	0	0	0
071812	15:22:49	10003	Trial2BackFr	N	3	0	1000	1	48	15:22:49	690481	0	0	0	0	0	0	0	0	0	0	0	0	0	0	0	0	0
071812	15:22:49	10003	Trial2BackFr	N	3	0	1000	1	49	15:22:49	692000	0	0	0	0	0	0	0	0	0	0	0	0	0	0	0	0	0
071812	15:22:49	10003	Trial2BackFr	N	3	0	1000	1	50	15:22:49	693520	0	0	0	0	0	0	0	0	0	0	0	0	0	0	0	0	0
071812	15:22:49	10003	Trial2BackFr	N	3	0	1000	1	51	15:22:49	695039	0	0	0	0	0	0	0	0	0	0	0	0	0	0	0	0	0
071812	15:22:49	10003	Trial2BackFr	N	3	0	1000	1	52	15:22:49	696559	0	0	0	0	0	0	0	0	0	0	0	0	0	0	0	0	0
071812	15:22:49	10003	Trial2BackFr	Y	3	57	681	1	53	15:22:49	697771	0	0	0	0	0	0	0	0	0	0	0	0	0	0	0	0	0
071812	15:22:49	10003	Trial2BackFr	N	3	0	1000	1	54	15:22:49	699584	0	0	0	0	0	0	0	0	0	0	0	0	0	0	0	0	0
071812	15:22:49	10003	Trial2BackFr	N	3	0	1000	1	55	15:22:49	701103	0	0	0	0	0	0	0	0	0	0	0	0	0	0	0	0	0
071812	15:22:49	10003	Trial2BackFr	N	3	0	1000	1	56	15:22:49	702623	0	0	0	0	0	0	0	0	0	0	0	0	0	0	0	0	0
071812	15:22:49	10003	Trial2BackFr	N	3	0	1000	1	57	15:22:49	704142	0	0	0	0	0	0	0	0	0	0	0	0	0	0	0	0	0
071812	15:22:49	10003	Trial2BackFr	N	3	0	1000	1	58	15:22:49	705662	0	0	0	0	0	0	0	0	0	0	0	0	0	0	0	0	0
071812	15:22:49	10003	Trial2BackFr	N	3	0	1000	1	59	15:22:49	707181	0	0	0	0	0	0	0	0	0	0	0	0	0	0	0	0	0
071812	15:22:49	10003	Trial2BackFr	Y	3	57	698	1	60	15:22:49	708407	0	0	0	0	0	0	0	0	0	0	0	0	0	0	0	0	0
071812	15:22:49	10003	Trial2BackFr	N	3	0	1000	1	61	15:22:49	710206	0	0	0	0	0	0	0	0	0	0	0	0	0	0	0	0	0
071812	15:22:49	10003	Trial2BackFr	N	3	0	1000	1	62	15:22:49	711726	0	0	0	0	0	0	0	0	0	0	0	0	0	0	0	0	0
071812	15:22:49	10003	Trial2BackFr	Y	3	57	585	1	63	15:22:49	712845	0	0	0	0	0	0	0	0	0	0	0	0	0	0	0	0	0
071812	15:22:49	10003	Trial2BackFr	N	3	0	1000	1	64	15:22:49	714751	0	0	0	0	0	0	0	0	0	0	0	0	0	0	0	0	0
071812	15:22:49	10003	Trial2BackFr	N	3	0	1000	1	65	15:22:49	716270	0	0	0	0	0	0	0	0	0	0	0	0	0	0	0	0	0
071812	15:22:49	10003	Trial2BackFr	N	3	0	1000	1	66	15:22:49	717790	0	0	0	0	0	0	0	0	0	0	0	0	0	0	0	0	0
071812	15:22:49	10003	Trial2BackFr	N	3	0	1000	1	67	15:22:49	719309	0	0	0	0	0	0	0	0	0	0	0	0	0	0	0	0	0
071812	15:22:49	10003	Trial2BackFr	N	3	0	1000	1	68	15:22:49	720829	0	0	0	0	0	0	0	0	0	0	0	0	0	0	0	0	0
071812	15:22:49	10003	Trial2BackFr	N	3	0	1000	1	69	15:22:49	722348	0	0	0	0	0	0	0	0	0	0	0	0	0	0	0	0	0
071812	15:22:49	10003	Trial2BackFr	N	3	57	395	0	69	15:22:49	723268	0	0	0	0	0	0	0	0	0	0	0	0	0	0	0	0	0
071812	15:22:49	10003	Trial2BackFr	N	3	0	1000	1	70	15:22:49	725374	0	0	0	0	0	0	0	0	0	0	0	0	0	0	0	0	0
071812	15:22:49	10003	Trial2BackFr	N	3	0	1000	1	71	15:22:49	726893	0	0	0	0	0	0	0	0	0	0	0	0	0	0	0	0	0
071812	15:22:49	10003	Trial2BackFr	N	3	0	1000	1	72	15:22:49	728412	0	0	0	0	0	0	0	0	0	0	0	0	0	0	0	0	0
071812	15:22:49	10003	Trial2BackFr	Y	3	57	539	1	73	15:22:49	729478	0	0	0	0	0	0	0	0	0	0	0	0	0	0	0	0	0
071812	15:22:49	10003	Trial2BackFr	N	3	0	1000	1	74	15:22:49	731438	0	0	0	0	0	0	0	0	0	0	0	0	0	0	0	0	0
071812	15:22:49	10003	Trial2BackFr	N	3	0	1000	1	75	15:22:49	732957	0	0	0	0	0	0	0	0	0	0	0	0	0	0	0	0	0
071812	15:22:49	10003	Trial2BackFr	N	3	0	1000	1	76	15:22:49	734476	0	0	0	0	0	0	0	0	0	0	0	0	0	0	0	0	0
071812	15:22:49	10003	Trial2BackFr	Y	3	57	778	1	77	15:22:49	735783	0	0	0	0	0	0	0	0	0	0	0	0	0	0	0	0	0
071812	15:22:49	10003	Trial2BackFr	N	3	0	1000	1	78	15:22:49	737502	0	0	0	0	0	0	0	0	0	0	0	0	0	0	0	0	0
071812	15:22:49	10003	Trial2BackFr	N	3	0	1000	1	79	15:22:49	739021	0	0	0	0	0	0	0	0	0	0	0	0	0	0	0	0	0
071812	15:22:49	10003	Trial2BackFr	N	3	0	1000	1	80	15:22:49	740541	0	0	0	0	0	0	0	0	0	0	0	0	0	0	0	0	0
071812	15:22:49	10003	Trial2BackFr	N	3	0	1000	1	81	15:22:49	742060	0	0	0	0	0	0	0	0	0	0	0	0	0	0	0	0	0
071812	15:22:49	10003	Trial2BackFr	N	3	0	1000	1	82	15:22:49	743579	0	0	0	0	0	0	0	0	0	0	0	0	0	0	0	0	0
071812	15:22:49	10003	Trial2BackFr	Y	3	57	507	1	83	15:22:49	744619	0	0	0	0	0	0	0	0	0	0	0	0	0	0	0	0	0
071812	15:22:49	10003	Trial2BackFr	N	3	0	1000	1	84	15:22:49	746605	0	0	0	0	0	0	0	0	0	0	0	0	0	0	0	0	0
071812	15:22:49	10003	Trial2BackFr	N	3	0	1000	1	85	15:22:49	748124	0	0	0	0	0	0	0	0	0	0	0	0	0	0	0	0	0
071812	15:22:49	10003	Trial2BackFr	N	3	0	1000	1	86	15:22:49	749644	0	0	0	0	0	0	0	0	0	0	0	0	0	0	0	0	0
071812	15:22:49	10003	Trial2BackFr	N	3	0	1000	1	87	15:22:49	751163	0	0	0	0	0	0	0	0	0	0	0	0	0	0	0	0	0
071812	15:22:49	10003	Trial2BackFr	N	3	0	1000	1	88	15:22:49	752682	0	0	0	0	0	0	0	0	0	0	0	0	0	0	0	0	0
071812	15:22:49	10003	Trial2BackFr	N	3	0	1000	1	89	15:22:49	754202	0	0	0	0	0	0	0	0	0	0	0	0	0	0	0	0	0
071812	15:22:49	10003	Trial2BackFr	N	3	0	1000	1	90	15:22:49	755721	0	0	0	0	0	0	0	0	0	0	0	0	0	0	0	0	0
071812	15:22:49	10003	Trial2BackFr	N	3	0	1000	1	91	15:22:49	757241	0	0	0	0	0	0	0	0	0	0	0	0	0	0	0	0	0
071812	15:22:49	10003	Trial2BackFr	N	3	0	1000	1	92	15:22:49	758760	0	0	0	0	0	0	0	0	0	0	0	0	0	0	0	0	0
071812	15:22:49	10003	Trial2BackFr	Y	3	57	510	1	93	15:22:49	759800	0	0	0	0	0	0	0	0	0	0	0	0	0	0	0	0	0
071812	15:22:49	10003	Trial2BackFr	N	3	0	1000	1	94	15:22:49	761785	0	0	0	0	0	0	0	0	0	0	0	0	0	0	0	0	0
071812	15:22:49	10003	Trial2BackFr	N	3	0	1000	1	95	15:22:49	763305	0	0	0	0	0	0	0	0	0	0	0	0	0	0	0	0	0
071812	15:22:49	10003	Trial2BackFr	N	3	0	1000	1	96	15:22:49	764824	0	0	0	0	0	0	0	0	0	0	0	0	0	0	0	0	0
071812	15:22:49	10003	Trial2BackFr	N	3	0	1000	1	97	15:22:49	766344	0	0	0	0	0	0	0	0	0	0	0	0	0	0	0	0	0
071812	15:22:49	10003	Trial2BackFr	N	3	0	1000	1	98	15:22:49	767863	0	0	0	0	0	0	0	0	0	0	0	0	0	0	0	0	0
071812	15:22:49	10003	Trial2BackFr	N	3	0	1000	1	99	15:22:49	769382	0	0	0	0	0	0	0	0	0	0	0	0	0	0	0	0	0
071812	15:22:49	10003	Trial2BackFr	N	3	0	1000	1	100	15:22:49	770902	0	0	0	0	0	0	0	0	0	0	0	0	0	0	0	0	0
071812	15:22:49	10003	Trial2BackFr	N	3	0	1000	1	101	15:22:49	772421	0	0	0	0	0	0	0	0	0	0	0	0	0	0	0	0	0
071812	15:22:49	10003	Trial2BackFr	Y	3	57	593	1	102	15:22:49	773541	0	0	0	0	0	0	0	0	0	0	0	0	0	0	0	0	0
071812	15:22:49	10003	Trial2BackFr	N	3	0	1000	1	103	15:22:49	775447	0	0	0	0	0	0	0	0	0	0	0	0	0	0	0	0	0
071812	15:22:49	10003	Trial2BackFr	N	3	0	1000	1	104	15:22:49	776966	0	0	0	0	0	0	0	0	0	0	0	0	0	0	0	0	0
071812	15:22:49	10003	Trial2BackFr	N	3	0	1000	1	105	15:22:49	778485	0	0	0	0	0	0	0	0	0	0	0	0	0	0	0	0	0
071812	15:22:49	10003	Trial2BackFr	N	3	0	1000	1	106	15:22:49	780005	0	0	0	0	0	0	0	0	0	0	0	0	0	0	0	0	0
071812	15:22:49	10003	Trial2BackFr	Y	3	57	593	1	107	15:22:49	781124	0	0	0	0	0	0	0	0	0	0	0	0	0	0	0	0	0
071812	15:22:49	10003	Trial2BackFr	N	3	0	1000	1	108	15:22:49	783030	0	0	0	0	0	0	0	0	0	0	0	0	0	0	0	0	0
071812	15:22:49	10003	Trial2BackFr	N	3	0	1000	1	109	15:22:49	784550	0	0	0	0	0	0	0	0	0	0	0	0	0	0	0	0	0
071812	15:22:49	10003	Trial2BackFr	N	3	0	1000	1	110	15:22:49	786069	0	0	0	0	0	0	0	0	0	0	0	0	0	0	0	0	0
071812	15:22:49	10003	Trial2BackFr	Y	3	57	768	1	111	15:22:49	787362	0	0	0	0	0	0	0	0	0	0	0	0	0	0	0	0	0
071812	15:22:49	10003	Trial2BackFr	N	3	0	1000	1	112	15:22:49	789094	0	0	0	0	0	0	0	0	0	0	0	0	0	0	0	0	0
071812	15:22:49	10003	Trial2BackFr	N	3	0	1000	1	113	15:22:49	790614	0	0	0	0	0	0	0	0	0	0	0	0	0	0	0	0	0
071812	15:22:49	10003	Trial2BackFr	N	3	0	1000	1	114	15:22:49	792133	0	0	0	0	0	0	0	0	0	0	0	0	0	0	0	0	0
071812	15:22:49	10003	Trial2BackFr	N	3	0	1000	1	115	15:22:49	793652	0	0	0	0	0	0	0	0	0	0	0	0	0	0	0	0	0
071812	15:22:49	10003	Trial2BackFr	N	3	0	1000	1	116	15:22:49	795172	0	0	0	0	0	0	0	0	0	0	0	0	0	0	0	0	0
071812	15:22:49	10003	Trial2BackFr	Y	3	57	609	1	117	15:22:49	796304	0	0	0	0	0	0	0	0	0	0	0	0	0	0	0	0	0
071812	15:22:49	10003	Trial2BackFr	N	3	0	1000	1	118	15:22:49	798197	0	0	0	0	0	0	0	0	0	0	0	0	0	0	0	0	0
071812	15:22:49	10003	Trial2BackFr	N	3	0	1000	1	119	15:22:49	799717	0	0	0	0	0	0	0	0	0	0	0	0	0	0	0	0	0
071812	15:22:49	10003	Trial2BackFr	N	3	0	1000	1	120	15:22:49	801236	0	0	0	0	0	0	0	0	0	0	0	0	0	0	0	0	0
071812	15:22:49	10003	Trial2BackFr	Y	3	57	545	1	121	15:22:49	802316	0	0	0	0	0	0	0	0	0	0	0	0	0	0	0	0	0
071812	15:22:49	10003	Trial3BackFr	NN	4	0	1000	1	121	15:22:49	848470	0	0	0	0	0	0	0	0	0	0	0	0	0	0	0	0	0
071812	15:22:49	10003	Trial3BackFr	NN	4	0	1000	1	121	15:22:49	849990	0	0	0	0	0	0	0	0	0	0	0	0	0	0	0	0	0
071812	15:22:49	10003	Trial3BackFr	NN	4	0	1000	1	121	15:22:49	851509	0	0	0	0	0	0	0	0	0	0	0	0	0	0	0	0	0
071812	15:22:49	10003	Trial3BackFr	YY	4	57	719	1	121	15:22:49	852762	0	0	0	0	0	0	0	0	0	0	0	0	0	0	0	0	0
071812	15:22:49	10003	Trial3BackFr	NN	4	0	1000	1	121	15:22:49	854534	0	0	0	0	0	0	0	0	0	0	0	0	0	0	0	0	0
071812	15:22:49	10003	Trial3BackFr	NN	4	0	1000	1	121	15:22:49	856054	0	0	0	0	0	0	0	0	0	0	0	0	0	0	0	0	0
071812	15:22:49	10003	Trial3BackFr	NN	4	0	1000	1	121	15:22:49	857573	0	0	0	0	0	0	0	0	0	0	0	0	0	0	0	0	0
071812	15:22:49	10003	Trial3BackFr	NN	4	0	1000	1	121	15:22:49	859093	0	0	0	0	0	0	0	0	0	0	0	0	0	0	0	0	0
071812	15:22:49	10003	Trial3BackFr	YY	4	57	511	1	121	15:22:49	860132	0	0	0	0	0	0	0	0	0	0	0	0	0	0	0	0	0
071812	15:22:49	10003	Trial3BackFr	NN	4	0	1000	1	121	15:22:49	862118	0	0	0	0	0	0	0	0	0	0	0	0	0	0	0	0	0
071812	15:22:49	10003	Trial3BackFr	NN	4	0	1000	1	121	15:22:49	863637	0	0	0	0	0	0	0	0	0	0	0	0	0	0	0	0	0
071812	15:22:49	10003	Trial3BackFr	NN	4	0	1000	1	121	15:22:49	865157	0	0	0	0	0	0	0	0	0	0	0	0	0	0	0	0	0
071812	15:22:49	10003	Trial3BackFr	NN	4	0	1000	1	121	15:22:49	866676	0	0	0	0	0	0	0	0	0	0	0	0	0	0	0	0	0
071812	15:22:49	10003	Trial3BackFr	NN	4	0	1000	1	121	15:22:49	868196	0	0	0	0	0	0	0	0	0	0	0	0	0	0	0	0	0
071812	15:22:49	10003	Trial3BackFr	NN	4	57	864	0	121	15:22:49	869582	0	0	0	0	0	0	0	0	0	0	0	0	0	0	0	0	0
071812	15:22:49	10003	Trial3BackFr	NN	4	0	1000	1	121	15:22:49	871221	0	0	0	0	0	0	0	0	0	0	0	0	0	0	0	0	0
071812	15:22:49	10003	Trial3BackFr	YY	4	57	734	1	121	15:22:49	872487	0	0	0	0	0	0	0	0	0	0	0	0	0	0	0	0	0
071812	15:22:49	10003	Trial3BackFr	NN	4	0	1000	1	121	15:22:49	874247	0	0	0	0	0	0	0	0	0	0	0	0	0	0	0	0	0
071812	15:22:49	10003	Trial3BackFr	NN	4	0	1000	1	121	15:22:49	875766	0	0	0	0	0	0	0	0	0	0	0	0	0	0	0	0	0
071812	15:22:49	10003	Trial3BackFr	NN	4	0	1000	1	121	15:22:49	877285	0	0	0	0	0	0	0	0	0	0	0	0	0	0	0	0	0
071812	15:22:49	10003	Trial3BackFr	NN	4	0	1000	1	121	15:22:49	878805	0	0	0	0	0	0	0	0	0	0	0	0	0	0	0	0	0
071812	15:22:49	10003	Trial3BackFr	NN	4	0	1000	1	121	15:22:49	880324	0	0	0	0	0	0	0	0	0	0	0	0	0	0	0	0	0
071812	15:22:49	10003	Trial3BackFr	YY	4	57	575	1	121	15:22:49	881430	0	0	0	0	0	0	0	0	0	0	0	0	0	0	0	0	0
071812	15:22:49	10003	Trial3BackFr	NN	4	0	1000	1	121	15:22:49	883350	0	0	0	0	0	0	0	0	0	0	0	0	0	0	0	0	0
071812	15:22:49	10003	Trial3BackFr	NN	4	0	1000	1	121	15:22:49	884869	0	0	0	0	0	0	0	0	0	0	0	0	0	0	0	0	0
071812	15:22:49	10003	Trial3BackFr	NN	4	0	1000	1	121	15:22:49	886388	0	0	0	0	0	0	0	0	0	0	0	0	0	0	0	0	0
071812	15:22:49	10003	Trial3BackFr	YY	4	0	1000	0	121	15:22:49	887908	0	0	0	0	0	0	0	0	0	0	0	0	0	0	0	0	0
071812	15:22:49	10003	Trial3BackFr	NN	4	0	1000	1	121	15:22:49	889427	0	0	0	0	0	0	0	0	0	0	0	0	0	0	0	0	0
071812	15:22:49	10003	Trial3BackFr	NN	4	0	1000	1	121	15:22:49	890946	0	0	0	0	0	0	0	0	0	0	0	0	0	0	0	0	0
071812	15:22:49	10003	Trial3BackFr	NN	4	0	1000	1	121	15:22:49	892466	0	0	0	0	0	0	0	0	0	0	0	0	0	0	0	0	0
071812	15:22:49	10003	Trial3BackFr	YY	4	0	1000	0	121	15:22:49	893985	0	0	0	0	0	0	0	0	0	0	0	0	0	0	0	0	0
071812	15:22:49	10003	Trial3BackFr	NN	4	0	1000	1	121	15:22:49	895505	0	0	0	0	0	0	0	0	0	0	0	0	0	0	0	0	0
071812	15:22:49	10003	Trial3BackFr	NN	4	0	1000	1	121	15:22:49	897024	0	0	0	0	0	0	0	0	0	0	0	0	0	0	0	0	0
071812	15:22:49	10003	Trial3BackFr	NN	4	0	1000	1	121	15:22:49	898543	0	0	0	0	0	0	0	0	0	0	0	0	0	0	0	0	0
071812	15:22:49	10003	Trial3BackFr	NN	4	0	1000	1	121	15:22:49	900063	0	0	0	0	0	0	0	0	0	0	0	0	0	0	0	0	0
071812	15:22:49	10003	Trial3BackFr	NN	4	0	1000	1	121	15:22:49	901582	0	0	0	0	0	0	0	0	0	0	0	0	0	0	0	0	0
071812	15:22:49	10003	Trial3BackFr	NN	4	0	1000	1	121	15:22:49	903102	0	0	0	0	0	0	0	0	0	0	0	0	0	0	0	0	0
071812	15:22:49	10003	Trial3BackFr	NN	4	0	1000	1	121	15:22:49	904621	0	0	0	0	0	0	0	0	0	0	0	0	0	0	0	0	0
071812	15:22:49	10003	Trial3BackFr	NN	4	0	1000	1	121	15:22:49	906140	0	0	0	0	0	0	0	0	0	0	0	0	0	0	0	0	0
071812	15:22:49	10003	Trial3BackFr	NN	4	0	1000	1	121	15:22:49	907660	0	0	0	0	0	0	0	0	0	0	0	0	0	0	0	0	0
071812	15:22:49	10003	Trial3BackFr	NN	4	0	1000	1	121	15:22:49	909179	0	0	0	0	0	0	0	0	0	0	0	0	0	0	0	0	0
071812	15:22:49	10003	Trial3BackFr	YY	4	57	488	1	121	15:22:49	910192	0	0	0	0	0	0	0	0	0	0	0	0	0	0	0	0	0
071812	15:22:49	10003	Trial3BackFr	NN	4	0	1000	1	121	15:22:49	912205	0	0	0	0	0	0	0	0	0	0	0	0	0	0	0	0	0
071812	15:22:49	10003	Trial3BackFr	NN	4	0	1000	1	121	15:22:49	913724	0	0	0	0	0	0	0	0	0	0	0	0	0	0	0	0	0
071812	15:22:49	10003	Trial3BackFr	NN	4	0	1000	1	121	15:22:49	915243	0	0	0	0	0	0	0	0	0	0	0	0	0	0	0	0	0
071812	15:22:49	10003	Trial3BackFr	NN	4	0	1000	1	121	15:22:49	916763	0	0	0	0	0	0	0	0	0	0	0	0	0	0	0	0	0
071812	15:22:49	10003	Trial3BackFr	YY	4	57	584	1	121	15:22:49	917869	0	0	0	0	0	0	0	0	0	0	0	0	0	0	0	0	0
071812	15:22:49	10003	Trial3BackFr	NN	4	0	1000	1	121	15:22:49	919788	0	0	0	0	0	0	0	0	0	0	0	0	0	0	0	0	0
071812	15:22:49	10003	Trial3BackFr	NN	4	0	1000	1	121	15:22:49	921308	0	0	0	0	0	0	0	0	0	0	0	0	0	0	0	0	0
071812	15:22:49	10003	Trial3BackFr	NN	4	0	1000	1	121	15:22:49	922827	0	0	0	0	0	0	0	0	0	0	0	0	0	0	0	0	0
071812	15:22:49	10003	Trial3BackFr	NN	4	0	1000	1	121	15:22:49	924346	0	0	0	0	0	0	0	0	0	0	0	0	0	0	0	0	0
071812	15:22:49	10003	Trial3BackFr	NN	4	0	1000	1	121	15:22:49	925866	0	0	0	0	0	0	0	0	0	0	0	0	0	0	0	0	0
071812	15:22:49	10003	Trial3BackFr	YY	4	57	456	1	121	15:22:49	926852	0	0	0	0	0	0	0	0	0	0	0	0	0	0	0	0	0
071812	15:22:49	10003	Trial3BackFr	NN	4	0	1000	1	121	15:22:49	928891	0	0	0	0	0	0	0	0	0	0	0	0	0	0	0	0	0
071812	15:22:49	10003	Trial3BackFr	NN	4	0	1000	1	121	15:22:49	930410	0	0	0	0	0	0	0	0	0	0	0	0	0	0	0	0	0
071812	15:22:49	10003	Trial3BackFr	NN	4	0	1000	1	121	15:22:49	931930	0	0	0	0	0	0	0	0	0	0	0	0	0	0	0	0	0
071812	15:22:49	10003	Trial3BackFr	NN	4	0	1000	1	121	15:22:49	933449	0	0	0	0	0	0	0	0	0	0	0	0	0	0	0	0	0
071812	15:22:49	10003	Trial3BackFr	NN	4	0	1000	1	121	15:22:49	934969	0	0	0	0	0	0	0	0	0	0	0	0	0	0	0	0	0
071812	15:22:49	10003	Trial3BackFr	NN	4	0	1000	1	121	15:22:49	936488	0	0	0	0	0	0	0	0	0	0	0	0	0	0	0	0	0
071812	15:22:49	10003	Trial3BackFr	YY	4	57	762	1	121	15:22:49	937781	0	0	0	0	0	0	0	0	0	0	0	0	0	0	0	0	0
071812	15:22:49	10003	Trial3BackFr	NN	4	0	1000	1	121	15:22:49	939513	0	0	0	0	0	0	0	0	0	0	0	0	0	0	0	0	0
071812	15:22:49	10003	Trial3BackFr	NN	4	0	1000	1	121	15:22:49	941033	0	0	0	0	0	0	0	0	0	0	0	0	0	0	0	0	0
071812	15:22:49	10003	Trial3BackFr	NN	4	0	1000	1	121	15:22:49	942552	0	0	0	0	0	0	0	0	0	0	0	0	0	0	0	0	0
071812	15:22:49	10003	Trial3BackFr	YY	4	57	554	1	121	15:22:49	943632	0	0	0	0	0	0	0	0	0	0	0	0	0	0	0	0	0
071812	15:22:49	10003	Trial3BackFr	NN	4	0	1000	1	121	15:22:49	945578	0	0	0	0	0	0	0	0	0	0	0	0	0	0	0	0	0
071812	15:22:49	10003	Trial3BackFr	NN	4	0	1000	1	121	15:22:49	947097	0	0	0	0	0	0	0	0	0	0	0	0	0	0	0	0	0
071812	15:22:49	10003	Trial3BackFr	NN	4	0	1000	1	121	15:22:49	948616	0	0	0	0	0	0	0	0	0	0	0	0	0	0	0	0	0
071812	15:22:49	10003	Trial3BackFr	NN	4	0	1000	1	121	15:22:49	950136	0	0	0	0	0	0	0	0	0	0	0	0	0	0	0	0	0
071812	15:22:49	10003	Trial3BackFr	NN	4	0	1000	1	121	15:22:49	951655	0	0	0	0	0	0	0	0	0	0	0	0	0	0	0	0	0
071812	15:22:49	10003	Trial3BackFr	NN	4	0	1000	1	121	15:22:49	953175	0	0	0	0	0	0	0	0	0	0	0	0	0	0	0	0	0
071812	15:22:49	10003	Trial3BackFr	NN	4	0	1000	1	121	15:22:49	954694	0	0	0	0	0	0	0	0	0	0	0	0	0	0	0	0	0
071812	15:22:49	10003	Trial3BackFr	NN	4	0	1000	1	121	15:22:49	956213	0	0	0	0	0	0	0	0	0	0	0	0	0	0	0	0	0
071812	15:22:49	10003	Trial3BackFr	NN	4	0	1000	1	121	15:22:49	957733	0	0	0	0	0	0	0	0	0	0	0	0	0	0	0	0	0
071812	15:22:49	10003	Trial3BackFr	YY	4	57	653	1	121	15:22:49	958919	0	0	0	0	0	0	0	0	0	0	0	0	0	0	0	0	0
071812	15:22:49	10003	Trial3BackFr	NN	4	0	1000	1	121	15:22:49	960758	0	0	0	0	0	0	0	0	0	0	0	0	0	0	0	0	0
071812	15:22:49	10003	Trial3BackFr	NN	4	0	1000	1	121	15:22:49	962278	0	0	0	0	0	0	0	0	0	0	0	0	0	0	0	0	0
071812	15:22:49	10003	Trial3BackFr	NN	4	0	1000	1	121	15:22:49	963797	0	0	0	0	0	0	0	0	0	0	0	0	0	0	0	0	0
071812	15:22:49	10003	Trial3BackFr	YY	4	57	764	1	121	15:22:49	965090	0	0	0	0	0	0	0	0	0	0	0	0	0	0	0	0	0
071812	15:22:49	10003	Trial3BackFr	NN	4	0	1000	1	121	15:22:49	966822	0	0	0	0	0	0	0	0	0	0	0	0	0	0	0	0	0
071812	15:22:49	10003	Trial3BackFr	NN	4	0	1000	1	121	15:22:49	968342	0	0	0	0	0	0	0	0	0	0	0	0	0	0	0	0	0
071812	15:22:49	10003	Trial3BackFr	NN	4	0	1000	1	121	15:22:49	969861	0	0	0	0	0	0	0	0	0	0	0	0	0	0	0	0	0
071812	15:22:49	10003	Trial3BackFr	NN	4	0	1000	1	121	15:22:49	971381	0	0	0	0	0	0	0	0	0	0	0	0	0	0	0	0	0
071812	15:22:49	10003	Trial3BackFr	NN	4	0	1000	1	121	15:22:49	972900	0	0	0	0	0	0	0	0	0	0	0	0	0	0	0	0	0
071812	15:22:49	10003	Trial3BackFr	YY	4	57	669	1	121	15:22:49	974099	0	0	0	0	0	0	0	0	0	0	0	0	0	0	0	0	0
071812	15:22:49	10003	Trial3BackFr	NN	4	0	1000	1	121	15:22:49	975925	0	0	0	0	0	0	0	0	0	0	0	0	0	0	0	0	0
071812	15:22:49	10003	Trial3BackFr	NN	4	0	1000	1	121	15:22:49	977445	0	0	0	0	0	0	0	0	0	0	0	0	0	0	0	0	0
071812	15:22:49	10003	Trial3BackFr	NN	4	0	1000	1	121	15:22:49	978964	0	0	0	0	0	0	0	0	0	0	0	0	0	0	0	0	0
071812	15:22:49	10003	Trial3BackFr	NN	4	0	1000	1	121	15:22:49	980484	0	0	0	0	0	0	0	0	0	0	0	0	0	0	0	0	0
071812	15:22:49	10003	Trial3BackFr	NN	4	0	1000	1	121	15:22:49	982003	0	0	0	0	0	0	0	0	0	0	0	0	0	0	0	0	0
071812	15:22:49	10003	Trial3BackFr	NN	4	0	1000	1	121	15:22:49	983522	0	0	0	0	0	0	0	0	0	0	0	0	0	0	0	0	0
071812	15:22:49	10003	Trial3BackFr	NN	4	0	1000	1	121	15:22:49	985042	0	0	0	0	0	0	0	0	0	0	0	0	0	0	0	0	0
071812	15:22:49	10003	Trial3BackFr	NN	4	57	623	0	121	15:22:49	986188	0	0	0	0	0	0	0	0	0	0	0	0	0	0	0	0	0
071812	15:22:49	10003	Trial3BackFr	NN	4	0	1000	1	121	15:22:49	988067	0	0	0	0	0	0	0	0	0	0	0	0	0	0	0	0	0
071812	15:22:49	10003	Trial3BackFr	YY	4	0	1000	0	121	15:22:49	989587	0	0	0	0	0	0	0	0	0	0	0	0	0	0	0	0	0
071812	15:22:49	10003	Trial3BackFr	NN	4	0	1000	1	121	15:22:49	991106	0	0	0	0	0	0	0	0	0	0	0	0	0	0	0	0	0
071812	15:22:49	10003	Trial3BackFr	NN	4	0	1000	1	121	15:22:49	992625	0	0	0	0	0	0	0	0	0	0	0	0	0	0	0	0	0
071812	15:22:49	10003	Trial3BackFr	NN	4	0	1000	1	121	15:22:49	994145	0	0	0	0	0	0	0	0	0	0	0	0	0	0	0	0	0
071812	15:22:49	10003	Trial3BackFr	NN	4	0	1000	1	121	15:22:49	995677	0	0	0	0	0	0	0	0	0	0	0	0	0	0	0	0	0
071812	15:22:49	10003	Trial3BackFr	NN	4	0	1000	1	121	15:22:49	997197	0	0	0	0	0	0	0	0	0	0	0	0	0	0	0	0	0
071812	15:22:49	10003	Trial3BackFr	NN	4	0	1000	1	121	15:22:49	998716	0	0	0	0	0	0	0	0	0	0	0	0	0	0	0	0	0
071812	15:22:49	10003	Trial3BackFr	NN	4	57	660	0	121	15:22:49	999902	0	0	0	0	0	0	0	0	0	0	0	0	0	0	0	0	0
071812	15:22:49	10003	Trial3BackFr	NN	4	0	1000	1	121	15:22:49	1001742	0	0	0	0	0	0	0	0	0	0	0	0	0	0	0	0	0
071812	15:22:49	10003	Trial3BackFr	YY	4	0	1000	0	121	15:22:49	1003261	0	0	0	0	0	0	0	0	0	0	0	0	0	0	0	0	0
071812	15:22:49	10003	Trial3BackFr	NN	4	0	1000	1	121	15:22:49	1004780	0	0	0	0	0	0	0	0	0	0	0	0	0	0	0	0	0
071812	15:22:49	10003	Trial3BackFr	NN	4	0	1000	1	121	15:22:49	1006300	0	0	0	0	0	0	0	0	0	0	0	0	0	0	0	0	0
071812	15:22:49	10003	Trial3BackFr	NN	4	0	1000	1	121	15:22:49	1007819	0	0	0	0	0	0	0	0	0	0	0	0	0	0	0	0	0
071812	15:22:49	10003	Trial3BackFr	NN	4	0	1000	1	121	15:22:49	1009339	0	0	0	0	0	0	0	0	0	0	0	0	0	0	0	0	0
071812	15:22:49	10003	Trial3BackFr	YY	4	57	742	1	121	15:22:49	1010605	0	0	0	0	0	0	0	0	0	0	0	0	0	0	0	0	0
071812	15:22:49	10003	Trial3BackFr	NN	4	0	1000	1	121	15:22:49	1012364	0	0	0	0	0	0	0	0	0	0	0	0	0	0	0	0	0
071812	15:22:49	10003	Trial3BackFr	NN	4	0	1000	1	121	15:22:49	1013883	0	0	0	0	0	0	0	0	0	0	0	0	0	0	0	0	0
071812	15:22:49	10003	Trial3BackFr	NN	4	0	1000	1	121	15:22:49	1015403	0	0	0	0	0	0	0	0	0	0	0	0	0	0	0	0	0
071812	15:22:49	10003	Trial3BackFr	YY	4	57	549	1	121	15:22:49	1016482	0	0	0	0	0	0	0	0	0	0	0	0	0	0	0	0	0
071812	15:22:49	10003	Trial3BackFr	NN	4	0	1000	1	121	15:22:49	1018428	0	0	0	0	0	0	0	0	0	0	0	0	0	0	0	0	0
071812	15:22:49	10003	Trial3BackFr	NN	4	0	1000	1	121	15:22:49	1019948	0	0	0	0	0	0	0	0	0	0	0	0	0	0	0	0	0
071812	15:22:49	10003	Trial3BackFr	NN	4	0	1000	1	121	15:22:49	1021467	0	0	0	0	0	0	0	0	0	0	0	0	0	0	0	0	0
071812	15:22:49	10003	Trial3BackFr	NN	4	57	501	0	121	15:22:49	1022493	0	0	0	0	0	0	0	0	0	0	0	0	0	0	0	0	0
071812	15:22:49	10003	Trial3BackFr	NN	4	0	1000	1	121	15:22:49	1024493	0	0	0	0	0	0	0	0	0	0	0	0	0	0	0	0	0
071812	15:22:49	10003	Trial3BackFr	YY	4	0	1000	0	121	15:22:49	1026012	0	0	0	0	0	0	0	0	0	0	0	0	0	0	0	0	0
071812	15:22:49	10003	Trial3BackFr	NN	4	0	1000	1	121	15:22:49	1027531	0	0	0	0	0	0	0	0	0	0	0	0	0	0	0	0	0
071812	15:22:49	10003	Trial3BackFr	NN	4	0	1000	1	121	15:22:49	1029051	0	0	0	0	0	0	0	0	0	0	0	0	0	0	0	0	0
071812	15:22:49	10003	Trial3BackFr	NN	4	0	1000	1	121	15:22:49	1030570	0	0	0	0	0	0	0	0	0	0	0	0	0	0	0	0	0
071812	15:22:49	10003	Trial3BackFr	YY	4	57	630	1	121	15:22:49	1031730	0	0	0	0	0	0	0	0	0	0	0	0	0	0	0	0	0
071812	15:22:49	10003	Memory1R3moFr	ScoreFr	5	M1	31996	0	121	15:22:49	1097397	0	0	0	0	0	0	0	0	0	0	0	0	0	0	0	0	0
071812	15:22:49	10003	Memory1R3moFr	ScoreFr	5	M2	444	0	121	15:22:49	1097876	0	0	0	0	0	0	0	0	0	0	0	0	0	0	0	0	0
071812	15:22:49	10003	Memory1R3moFr	ScoreFr	5	M4	1628	0	121	15:22:49	1099542	0	0	0	0	0	0	0	0	0	0	0	0	0	0	0	0	0
071812	15:22:49	10003	Memory1R3moFr	ScoreFr	5	M6	194	0	121	15:22:49	1099782	0	0	0	0	0	0	0	0	0	0	0	0	0	0	0	0	0
071812	15:22:49	10003	Memory1R3moFr	ScoreFr	5	M5	346	0	121	15:22:49	1100169	0	0	0	0	0	0	0	0	0	0	0	0	0	0	0	0	0
071812	15:22:49	10003	Memory1R3moFr	ScoreFr	5	M8	1960	0	121	15:22:49	1102168	0	0	0	0	0	0	0	0	0	0	0	0	0	0	0	0	0
071812	15:22:49	10003	Memory1R3moFr	ScoreFr	5	Done	1385	0	121	15:22:49	1103594	0	0	0	0	0	0	0	0	0	0	0	0	0	0	0	0	0
071812	15:22:49	10003	Memory2R3moFr	ScoreFr2	5	11	18104	0	121	15:22:49	1141939	0	0	0	0	0	0	0	0	0	0	0	0	0	0	0	0	0
071812	15:22:49	10003	Memory2R3moFr	ScoreFr2	5	22	173	0	121	15:22:49	1142152	0	0	0	0	0	0	0	0	0	0	0	0	0	0	0	0	0
071812	15:22:49	10003	Memory2R3moFr	ScoreFr2	5	44	680	0	121	15:22:49	1142872	0	0	0	0	0	0	0	0	0	0	0	0	0	0	0	0	0
071812	15:22:49	10003	Memory2R3moFr	ScoreFr2	5	44	224	0	121	15:22:49	1143138	0	0	0	0	0	0	0	0	0	0	0	0	0	0	0	0	0
071812	15:22:49	10003	Memory2R3moFr	ScoreFr2	5	33	198	0	121	15:22:49	1143378	0	0	0	0	0	0	0	0	0	0	0	0	0	0	0	0	0
071812	15:22:49	10003	Memory2R3moFr	ScoreFr2	5	44	301	0	121	15:22:49	1143724	0	0	0	0	0	0	0	0	0	0	0	0	0	0	0	0	0
071812	15:22:49	10003	Memory2R3moFr	ScoreFr2	5	55	267	0	121	15:22:49	1144031	0	0	0	0	0	0	0	0	0	0	0	0	0	0	0	0	0
071812	15:22:49	10003	Memory2R3moFr	ScoreFr2	5	66	289	0	121	15:22:49	1144364	0	0	0	0	0	0	0	0	0	0	0	0	0	0	0	0	0
071812	15:22:49	10003	Memory2R3moFr	ScoreFr2	5	77	291	0	121	15:22:49	1144697	0	0	0	0	0	0	0	0	0	0	0	0	0	0	0	0	0
071812	15:22:49	10003	Memory2R3moFr	ScoreFr2	5	88	262	0	121	15:22:49	1145004	0	0	0	0	0	0	0	0	0	0	0	0	0	0	0	0	0
071812	15:22:49	10003	Memory2R3moFr	ScoreFr2	5	Done	835	0	121	15:22:49	1145884	0	0	0	0	0	0	0	0	0	0	0	0	0	0	0	0	0
071812	15:22:49	10003	Memory3R3moFr	ScoreFr3	5	111	25266	0	121	15:22:49	1190346	0	0	0	0	0	0	0	0	0	0	0	0	0	0	0	0	0
071812	15:22:49	10003	Memory3R3moFr	ScoreFr3	5	222	269	0	121	15:22:49	1190652	0	0	0	0	0	0	0	0	0	0	0	0	0	0	0	0	0
071812	15:22:49	10003	Memory3R3moFr	ScoreFr3	5	333	298	0	121	15:22:49	1190985	0	0	0	0	0	0	0	0	0	0	0	0	0	0	0	0	0
071812	15:22:49	10003	Memory3R3moFr	ScoreFr3	5	444	277	0	121	15:22:49	1191305	0	0	0	0	0	0	0	0	0	0	0	0	0	0	0	0	0
071812	15:22:49	10003	Memory3R3moFr	ScoreFr3	5	555	453	0	121	15:22:49	1191798	0	0	0	0	0	0	0	0	0	0	0	0	0	0	0	0	0
071812	15:22:49	10003	Memory3R3moFr	ScoreFr3	5	555	1728	0	121	15:22:49	1193571	0	0	0	0	0	0	0	0	0	0	0	0	0	0	0	0	0
071812	15:22:49	10003	Memory3R3moFr	ScoreFr3	5	666	355	0	121	15:22:49	1193971	0	0	0	0	0	0	0	0	0	0	0	0	0	0	0	0	0
071812	15:22:49	10003	Memory3R3moFr	ScoreFr3	5	777	388	0	121	15:22:49	1194397	0	0	0	0	0	0	0	0	0	0	0	0	0	0	0	0	0
071812	15:22:49	10003	Memory3R3moFr	ScoreFr3	5	888	305	0	121	15:22:49	1194744	0	0	0	0	0	0	0	0	0	0	0	0	0	0	0	0	0
071812	15:22:49	10003	Memory3R3moFr	ScoreFr3	5	Done	22013	0	121	15:22:49	1216842	0	0	0	0	0	0	0	0	0	0	0	0	0	0	0	0	0
071812	15:22:49	10003	LoriaFrLH3	Stop	6	8	5824	0	121	15:22:49	1303968	0	0	0	0	0	0	0	0	0	0	0	0	0	0	0	0	0
071812	15:22:49	10003	FrTrail	Trails	7	1Trails	12662	0	121	15:22:49	1325891	0	0	0	0	0	0	0	0	0	0	0	0	0	0	0	0	0
071812	15:22:49	10003	Serial7Fr3mo	Serial7Fr3mo	8	83	34124	0	121	15:22:49	1370691	1	0	0	0	0	0	0	0	0	0	0	0	0	0	0	0	0
071812	15:22:49	10003	Serial7Fr3mo	Serial7Fr3mo	8	76	2535	0	121	15:22:49	1373250	2	0	0	0	0	0	0	0	0	0	0	0	0	0	0	0	0
071812	15:22:49	10003	Serial7Fr3mo	Serial7Fr3mo	8	66	2864	0	121	15:22:49	1376142	2	0	0	0	0	0	0	0	0	0	0	0	0	0	0	0	0
071812	15:22:49	10003	Serial7Fr3mo	Serial7Fr3mo	8	59	2200	0	121	15:22:49	1378355	3	0	0	0	0	0	0	0	0	0	0	0	0	0	0	0	0
071812	15:22:49	10003	Serial7Fr3mo	Serial7Fr3mo	8	52	2225	0	121	15:22:49	1380607	4	0	0	0	0	0	0	0	0	0	0	0	0	0	0	0	0
071812	15:22:49	10003	corsiblockFrFwrd	recallseqFrFwrd	9	1	2761	0	121	15:22:49	1429627	4	0	0	0	0	0	0	0	0	0	0	0	0	0	0	0	0
071812	15:22:49	10003	corsiblockFrFwrd	recallseqFrFwrd	9	3	794	0	121	15:22:49	1430467	4	0	0	0	0	0	0	0	0	0	0	0	0	0	0	0	0
071812	15:22:49	10003	corsiblockFrFwrd	recallseqFrFwrd	9	doneCorsiFr	1027	0	121	15:22:49	1431533	4	0	0	0	0	0	0	0	0	0	0	0	0	0	0	2	0
071812	15:22:49	10003	corsiblockFrFwrd	recallseqFrFwrd	9	2	1085	0	121	15:22:49	1438703	4	0	0	0	0	0	0	0	0	0	0	0	0	0	0	2	0
071812	15:22:49	10003	corsiblockFrFwrd	recallseqFrFwrd	9	8	982	0	121	15:22:49	1439730	4	0	0	0	0	0	0	0	0	0	0	0	0	0	0	2	0
071812	15:22:49	10003	corsiblockFrFwrd	recallseqFrFwrd	9	9	875	0	121	15:22:49	1440649	4	0	0	0	0	0	0	0	0	0	0	0	0	0	0	2	0
071812	15:22:49	10003	corsiblockFrFwrd	recallseqFrFwrd	9	doneCorsiFr	1612	0	121	15:22:49	1442302	4	0	0	0	0	0	0	0	0	0	0	0	0	0	0	3	0
071812	15:22:49	10003	corsiblockFrFwrd	recallseqFrFwrd	9	6	973	0	121	15:22:49	1450365	4	0	0	0	0	0	0	0	0	0	0	0	0	0	0	3	0
071812	15:22:49	10003	corsiblockFrFwrd	recallseqFrFwrd	9	7	1008	0	121	15:22:49	1451418	4	0	0	0	0	0	0	0	0	0	0	0	0	0	0	3	0
071812	15:22:49	10003	corsiblockFrFwrd	recallseqFrFwrd	9	5	779	0	121	15:22:49	1452231	4	0	0	0	0	0	0	0	0	0	0	0	0	0	0	3	0
071812	15:22:49	10003	corsiblockFrFwrd	recallseqFrFwrd	9	4	774	0	121	15:22:49	1453044	4	0	0	0	0	0	0	0	0	0	0	0	0	0	0	3	0
071812	15:22:49	10003	corsiblockFrFwrd	recallseqFrFwrd	9	doneCorsiFr	1449	0	121	15:22:49	1454537	4	0	0	0	0	0	0	0	0	0	0	0	0	0	0	4	0
071812	15:22:49	10003	corsiblockFrFwrd	recallseqFrFwrd	9	3	1874	0	121	15:22:49	1464506	4	0	0	0	0	0	0	0	0	0	0	0	0	0	0	4	0
071812	15:22:49	10003	corsiblockFrFwrd	recallseqFrFwrd	9	6	1140	0	121	15:22:49	1465679	4	0	0	0	0	0	0	0	0	0	0	0	0	0	0	4	0
071812	15:22:49	10003	corsiblockFrFwrd	recallseqFrFwrd	9	4	999	0	121	15:22:49	1466719	4	0	0	0	0	0	0	0	0	0	0	0	0	0	0	4	0
071812	15:22:49	10003	corsiblockFrFwrd	recallseqFrFwrd	9	8	878	0	121	15:22:49	1467638	4	0	0	0	0	0	0	0	0	0	0	0	0	0	0	4	0
071812	15:22:49	10003	corsiblockFrFwrd	recallseqFrFwrd	9	7	814	0	121	15:22:49	1468492	4	0	0	0	0	0	0	0	0	0	0	0	0	0	0	4	0
071812	15:22:49	10003	corsiblockFrFwrd	recallseqFrFwrd	9	doneCorsiFr	1041	0	121	15:22:49	1469571	4	0	0	0	0	0	0	0	0	0	0	0	0	0	0	5	0
071812	15:22:49	10003	corsiblockFrFwrd	recallseqFrFwrd	9	9	1736	0	121	15:22:49	1480393	4	0	0	0	0	0	0	0	0	0	0	0	0	0	0	5	0
071812	15:22:49	10003	corsiblockFrFwrd	recallseqFrFwrd	9	2	1107	0	121	15:22:49	1481540	4	0	0	0	0	0	0	0	0	0	0	0	0	0	0	5	0
071812	15:22:49	10003	corsiblockFrFwrd	recallseqFrFwrd	9	5	1033	0	121	15:22:49	1482606	4	0	0	0	0	0	0	0	0	0	0	0	0	0	0	5	0
071812	15:22:49	10003	corsiblockFrFwrd	recallseqFrFwrd	9	1	1031	0	121	15:22:49	1483672	4	0	0	0	0	0	0	0	0	0	0	0	0	0	0	5	0
071812	15:22:49	10003	corsiblockFrFwrd	recallseqFrFwrd	9	8	1005	0	121	15:22:49	1484712	4	0	0	0	0	0	0	0	0	0	0	0	0	0	0	5	0
071812	15:22:49	10003	corsiblockFrFwrd	recallseqFrFwrd	9	9	1693	0	121	15:22:49	1486444	4	0	0	0	0	0	0	0	0	0	0	0	0	0	0	5	0
071812	15:22:49	10003	corsiblockFrFwrd	recallseqFrFwrd	9	2	808	0	121	15:22:49	1487297	4	0	0	0	0	0	0	0	0	0	0	0	0	0	0	5	0
071812	15:22:49	10003	corsiblockFrFwrd	recallseqFrFwrd	9	doneCorsiFr	1555	0	121	15:22:49	1488897	4	0	0	0	0	0	0	0	0	0	0	0	0	0	0	5	0
071812	15:22:49	10003	corsiblockFrFwrd	recallseqFrFwrd	9	6	1346	0	121	15:22:49	1499292	4	0	0	0	0	0	0	0	0	0	0	0	0	0	0	5	0
071812	15:22:49	10003	corsiblockFrFwrd	recallseqFrFwrd	9	3	920	0	121	15:22:49	1500252	4	0	0	0	0	0	0	0	0	0	0	0	0	0	0	5	0
071812	15:22:49	10003	corsiblockFrFwrd	recallseqFrFwrd	9	1	880	0	121	15:22:49	1501172	4	0	0	0	0	0	0	0	0	0	0	0	0	0	0	5	0
071812	15:22:49	10003	corsiblockFrFwrd	recallseqFrFwrd	9	9	1024	0	121	15:22:49	1502238	4	0	0	0	0	0	0	0	0	0	0	0	0	0	0	5	0
071812	15:22:49	10003	corsiblockFrFwrd	recallseqFrFwrd	9	4	1126	0	121	15:22:49	1503397	4	0	0	0	0	0	0	0	0	0	0	0	0	0	0	5	0
071812	15:22:49	10003	corsiblockFrFwrd	recallseqFrFwrd	9	5	759	0	121	15:22:49	1504197	4	0	0	0	0	0	0	0	0	0	0	0	0	0	0	5	0
071812	15:22:49	10003	corsiblockFrFwrd	recallseqFrFwrd	9	doneCorsiFr	1423	0	121	15:22:49	1505663	4	0	0	0	0	0	0	0	0	0	0	0	0	0	0	6	0
071812	15:22:49	10003	corsiblockFrFwrd	recallseqFrFwrd	9	7	2091	0	121	15:22:49	1516845	4	0	0	0	0	0	0	0	0	0	0	0	0	0	0	6	0
071812	15:22:49	10003	corsiblockFrFwrd	recallseqFrFwrd	9	3	1190	0	121	15:22:49	1518071	4	0	0	0	0	0	0	0	0	0	0	0	0	0	0	6	0
071812	15:22:49	10003	corsiblockFrFwrd	recallseqFrFwrd	9	6	1188	0	121	15:22:49	1519298	4	0	0	0	0	0	0	0	0	0	0	0	0	0	0	6	0
071812	15:22:49	10003	corsiblockFrFwrd	recallseqFrFwrd	9	8	1602	0	121	15:22:49	1520937	4	0	0	0	0	0	0	0	0	0	0	0	0	0	0	6	0
071812	15:22:49	10003	corsiblockFrFwrd	recallseqFrFwrd	9	4	1019	0	121	15:22:49	1521990	4	0	0	0	0	0	0	0	0	0	0	0	0	0	0	6	0
071812	15:22:49	10003	corsiblockFrFwrd	recallseqFrFwrd	9	5	894	0	121	15:22:49	1522923	4	0	0	0	0	0	0	0	0	0	0	0	0	0	0	6	0
071812	15:22:49	10003	corsiblockFrFwrd	recallseqFrFwrd	9	7	1009	0	121	15:22:49	1523976	4	0	0	0	0	0	0	0	0	0	0	0	0	0	0	6	0
071812	15:22:49	10003	corsiblockFrFwrd	recallseqFrFwrd	9	doneCorsiFr	1644	0	121	15:22:49	1525655	4	0	0	0	0	0	0	0	0	0	0	0	0	0	0	6	0
071812	15:22:49	10003	corsiblockFrFwrd	recallseqFrFwrd	9	1	2147	0	121	15:22:49	1537850	4	0	0	0	0	0	0	0	0	0	0	0	0	0	0	6	0
071812	15:22:49	10003	corsiblockFrFwrd	recallseqFrFwrd	9	2	1041	0	121	15:22:49	1538930	4	0	0	0	0	0	0	0	0	0	0	0	0	0	0	6	0
071812	15:22:49	10003	corsiblockFrFwrd	recallseqFrFwrd	9	5	945	0	121	15:22:49	1539916	4	0	0	0	0	0	0	0	0	0	0	0	0	0	0	6	0
071812	15:22:49	10003	corsiblockFrFwrd	recallseqFrFwrd	9	9	1055	0	121	15:22:49	1541009	4	0	0	0	0	0	0	0	0	0	0	0	0	0	0	6	0
071812	15:22:49	10003	corsiblockFrFwrd	recallseqFrFwrd	9	3	1018	0	121	15:22:49	1542062	4	0	0	0	0	0	0	0	0	0	0	0	0	0	0	6	0
071812	15:22:49	10003	corsiblockFrFwrd	recallseqFrFwrd	9	2	1757	0	121	15:22:49	1543861	4	0	0	0	0	0	0	0	0	0	0	0	0	0	0	6	0
071812	15:22:49	10003	corsiblockFrFwrd	recallseqFrFwrd	9	doneCorsiFr	950	0	121	15:22:49	1544847	4	0	0	0	0	0	0	0	0	0	0	0	0	0	0	6	0
071812	15:22:49	10003	corsiblockFrRev	recallseqFrRev	10	5	1179	0	121	15:22:49	1558708	4	0	0	0	0	0	0	0	0	0	0	0	0	0	0	6	0
071812	15:22:49	10003	corsiblockFrRev	recallseqFrRev	10	1	902	0	121	15:22:49	1559655	4	0	0	0	0	0	0	0	0	0	0	0	0	0	0	6	0
071812	15:22:49	10003	corsiblockFrRev	recallseqFrRev	10	doneCorsiFr	964	0	121	15:22:49	1560654	4	0	0	0	0	0	0	0	0	0	0	0	0	0	0	6	2
071812	15:22:49	10003	corsiblockFrRev	recallseqFrRev	10	3	1361	0	121	15:22:49	1568104	4	0	0	0	0	0	0	0	0	0	0	0	0	0	0	6	2
071812	15:22:49	10003	corsiblockFrRev	recallseqFrRev	10	7	970	0	121	15:22:49	1569118	4	0	0	0	0	0	0	0	0	0	0	0	0	0	0	6	2
071812	15:22:49	10003	corsiblockFrRev	recallseqFrRev	10	6	1093	0	121	15:22:49	1570250	4	0	0	0	0	0	0	0	0	0	0	0	0	0	0	6	2
071812	15:22:49	10003	corsiblockFrRev	recallseqFrRev	10	doneCorsiFr	872	0	121	15:22:49	1571170	4	0	0	0	0	0	0	0	0	0	0	0	0	0	0	6	3
071812	15:22:49	10003	corsiblockFrRev	recallseqFrRev	10	9	2710	0	121	15:22:49	1580966	4	0	0	0	0	0	0	0	0	0	0	0	0	0	0	6	3
071812	15:22:49	10003	corsiblockFrRev	recallseqFrRev	10	8	892	0	121	15:22:49	1581899	4	0	0	0	0	0	0	0	0	0	0	0	0	0	0	6	3
071812	15:22:49	10003	corsiblockFrRev	recallseqFrRev	10	4	1311	0	121	15:22:49	1583245	4	0	0	0	0	0	0	0	0	0	0	0	0	0	0	6	3
071812	15:22:49	10003	corsiblockFrRev	recallseqFrRev	10	2	645	0	121	15:22:49	1583925	4	0	0	0	0	0	0	0	0	0	0	0	0	0	0	6	3
071812	15:22:49	10003	corsiblockFrRev	recallseqFrRev	10	doneCorsiFr	1117	0	121	15:22:49	1585084	4	0	0	0	0	0	0	0	0	0	0	0	0	0	0	6	3
071812	15:22:49	10003	corsiblockFrRev	recallseqFrRev	10	9	1619	0	121	15:22:49	1593748	4	0	0	0	0	0	0	0	0	0	0	0	0	0	0	6	3
071812	15:22:49	10003	corsiblockFrRev	recallseqFrRev	10	8	1134	0	121	15:22:49	1594920	4	0	0	0	0	0	0	0	0	0	0	0	0	0	0	6	3
071812	15:22:49	10003	corsiblockFrRev	recallseqFrRev	10	7	682	0	121	15:22:49	1595640	4	0	0	0	0	0	0	0	0	0	0	0	0	0	0	6	3
071812	15:22:49	10003	corsiblockFrRev	recallseqFrRev	10	5	898	0	121	15:22:49	1596573	4	0	0	0	0	0	0	0	0	0	0	0	0	0	0	6	3
071812	15:22:49	10003	corsiblockFrRev	recallseqFrRev	10	doneCorsiFr	805	0	121	15:22:49	1597413	4	0	0	0	0	0	0	0	0	0	0	0	0	0	0	6	4
071812	15:22:49	10003	corsiblockFrRev	recallseqFrRev	10	3	2834	0	121	15:22:49	1607342	4	0	0	0	0	0	0	0	0	0	0	0	0	0	0	6	4
071812	15:22:49	10003	corsiblockFrRev	recallseqFrRev	10	1	1148	0	121	15:22:49	1608528	4	0	0	0	0	0	0	0	0	0	0	0	0	0	0	6	4
071812	15:22:49	10003	corsiblockFrRev	recallseqFrRev	10	2	913	0	121	15:22:49	1609475	4	0	0	0	0	0	0	0	0	0	0	0	0	0	0	6	4
071812	15:22:49	10003	corsiblockFrRev	recallseqFrRev	10	6	3655	0	121	15:22:49	1613166	4	0	0	0	0	0	0	0	0	0	0	0	0	0	0	6	4
071812	15:22:49	10003	corsiblockFrRev	recallseqFrRev	10	4	611	0	121	15:22:49	1613820	4	0	0	0	0	0	0	0	0	0	0	0	0	0	0	6	4
071812	15:22:49	10003	corsiblockFrRev	recallseqFrRev	10	doneCorsiFr	998	0	121	15:22:49	1614859	4	0	0	0	0	0	0	0	0	0	0	0	0	0	0	6	5
071812	15:22:49	10003	corsiblockFrRev	recallseqFrRev	10	8	1828	0	121	15:22:49	1625775	4	0	0	0	0	0	0	0	0	0	0	0	0	0	0	6	5
071812	15:22:49	10003	corsiblockFrRev	recallseqFrRev	10	2	819	0	121	15:22:49	1626628	4	0	0	0	0	0	0	0	0	0	0	0	0	0	0	6	5
071812	15:22:49	10003	corsiblockFrRev	recallseqFrRev	10	4	965	0	121	15:22:49	1627627	4	0	0	0	0	0	0	0	0	0	0	0	0	0	0	6	5
071812	15:22:49	10003	corsiblockFrRev	recallseqFrRev	10	5	958	0	121	15:22:49	1628627	4	0	0	0	0	0	0	0	0	0	0	0	0	0	0	6	5
071812	15:22:49	10003	corsiblockFrRev	recallseqFrRev	10	7	982	0	121	15:22:49	1629653	4	0	0	0	0	0	0	0	0	0	0	0	0	0	0	6	5
071812	15:22:49	10003	corsiblockFrRev	recallseqFrRev	10	9	780	0	121	15:22:49	1630466	4	0	0	0	0	0	0	0	0	0	0	0	0	0	0	6	5
071812	15:22:49	10003	corsiblockFrRev	recallseqFrRev	10	doneCorsiFr	1287	0	121	15:22:49	1631799	4	0	0	0	0	0	0	0	0	0	0	0	0	0	0	6	5
071812	15:22:49	10003	corsiblockFrRev	recallseqFrRev	10	5	1216	0	121	15:22:49	1642061	4	0	0	0	0	0	0	0	0	0	0	0	0	0	0	6	5
071812	15:22:49	10003	corsiblockFrRev	recallseqFrRev	10	1	1363	0	121	15:22:49	1643461	4	0	0	0	0	0	0	0	0	0	0	0	0	0	0	6	5
071812	15:22:49	10003	corsiblockFrRev	recallseqFrRev	10	2	1121	0	121	15:22:49	1644647	4	0	0	0	0	0	0	0	0	0	0	0	0	0	0	6	5
071812	15:22:49	10003	corsiblockFrRev	recallseqFrRev	10	1	3370	0	121	15:22:49	1648059	4	0	0	0	0	0	0	0	0	0	0	0	0	0	0	6	5
071812	15:22:49	10003	corsiblockFrRev	recallseqFrRev	10	3	926	0	121	15:22:49	1649019	4	0	0	0	0	0	0	0	0	0	0	0	0	0	0	6	5
071812	15:22:49	10003	corsiblockFrRev	recallseqFrRev	10	6	934	0	121	15:22:49	1649992	4	0	0	0	0	0	0	0	0	0	0	0	0	0	0	6	5
071812	15:22:49	10003	corsiblockFrRev	recallseqFrRev	10	doneCorsiFr	1081	0	121	15:22:49	1651111	4	0	0	0	0	0	0	0	0	0	0	0	0	0	0	6	6
071812	15:22:49	10003	corsiblockFrRev	recallseqFrRev	10	4	1367	0	121	15:22:49	1661574	4	0	0	0	0	0	0	0	0	0	0	0	0	0	0	6	6
071812	15:22:49	10003	corsiblockFrRev	recallseqFrRev	10	6	907	0	121	15:22:49	1662520	4	0	0	0	0	0	0	0	0	0	0	0	0	0	0	6	6
071812	15:22:49	10003	corsiblockFrRev	recallseqFrRev	10	3	985	0	121	15:22:49	1663546	4	0	0	0	0	0	0	0	0	0	0	0	0	0	0	6	6
071812	15:22:49	10003	corsiblockFrRev	recallseqFrRev	10	8	2334	0	121	15:22:49	1665919	4	0	0	0	0	0	0	0	0	0	0	0	0	0	0	6	6
071812	15:22:49	10003	corsiblockFrRev	recallseqFrRev	10	9	1170	0	121	15:22:49	1667131	4	0	0	0	0	0	0	0	0	0	0	0	0	0	0	6	6
071812	15:22:49	10003	corsiblockFrRev	recallseqFrRev	10	7	925	0	121	15:22:49	1668091	4	0	0	0	0	0	0	0	0	0	0	0	0	0	0	6	6
071812	15:22:49	10003	corsiblockFrRev	recallseqFrRev	10	9	2485	0	121	15:22:49	1670610	4	0	0	0	0	0	0	0	0	0	0	0	0	0	0	6	6
071812	15:22:49	10003	corsiblockFrRev	recallseqFrRev	10	doneCorsiFr	1270	0	121	15:22:49	1671916	4	0	0	0	0	0	0	0	0	0	0	0	0	0	0	6	6
071812	15:22:49	10003	corsiblockFrRev	recallseqFrRev	10	6	1379	0	121	15:22:49	1683338	4	0	0	0	0	0	0	0	0	0	0	0	0	0	0	6	6
071812	15:22:49	10003	corsiblockFrRev	recallseqFrRev	10	9	1350	0	121	15:22:49	1684725	4	0	0	0	0	0	0	0	0	0	0	0	0	0	0	6	6
071812	15:22:49	10003	corsiblockFrRev	recallseqFrRev	10	1	1108	0	121	15:22:49	1685870	4	0	0	0	0	0	0	0	0	0	0	0	0	0	0	6	6
071812	15:22:49	10003	corsiblockFrRev	recallseqFrRev	10	3	1242	0	121	15:22:49	1687150	4	0	0	0	0	0	0	0	0	0	0	0	0	0	0	6	6
071812	15:22:49	10003	corsiblockFrRev	recallseqFrRev	10	8	2194	0	121	15:22:49	1689389	4	0	0	0	0	0	0	0	0	0	0	0	0	0	0	6	6
071812	15:22:49	10003	corsiblockFrRev	recallseqFrRev	10	7	1890	0	121	15:22:49	1691322	4	0	0	0	0	0	0	0	0	0	0	0	0	0	0	6	6
071812	15:22:49	10003	corsiblockFrRev	recallseqFrRev	10	doneCorsiFr	1158	0	121	15:22:49	1692521	4	0	0	0	0	0	0	0	0	0	0	0	0	0	0	6	6
071812	15:22:49	10003	testFr3mo	WordsFr3mo	11	5Fr3mo	28727	0	121	15:22:49	1730866	4	0	0	0	0	1	0	0	0	0	0	0	0	0	0	6	6
071812	15:22:49	10003	testFr3mo	WordsFr3mo	11	4Fr3mo	262	0	121	15:22:49	1731172	4	0	0	0	1	1	0	0	0	0	0	0	0	0	0	6	6
071812	15:22:49	10003	testFr3mo	WordsFr3mo	11	3Fr3mo	427	0	121	15:22:49	1731639	4	0	0	1	1	1	0	0	0	0	0	0	0	0	0	6	6
071812	15:22:49	10003	testFr3mo	WordsFr3mo	11	2Fr3mo	472	0	121	15:22:49	1732145	4	0	1	1	1	1	0	0	0	0	0	0	0	0	0	6	6
071812	15:22:49	10003	testFr3mo	WordsFr3mo	11	7Fr3mo	766	0	121	15:22:49	1732945	4	0	1	1	1	1	0	1	0	0	0	0	0	0	0	6	6
071812	15:22:49	10003	testFr3mo	WordsFr3mo	11	8Fr3mo	1278	0	121	15:22:49	1734264	4	0	1	1	1	1	0	1	1	0	0	0	0	0	0	6	6
071812	15:22:49	10003	testFr3mo	WordsFr3mo	11	DoneFr3mo	25406	0	121	15:22:49	1759707	4	0	1	1	1	1	0	1	1	0	0	0	0	0	0	6	6
071812	15:22:49	10003	testFr3mo	Cat1Fr3mo	11	0	1	0	121	15:22:49	1759723	4	0	1	1	1	1	0	1	1	0	0	0	0	0	0	6	6
071812	15:22:49	10003	testFr3mo	Ch1Fr3mo	11	RR1Fr3mo	4593	0	121	15:22:49	1764372	4	3	1	1	1	1	0	1	1	0	0	0	0	0	0	6	6
071812	15:22:49	10003	testFr3mo	Cat6Fr3mo	11	W6Fr3mo	10634	0	121	15:22:49	1775047	4	3	1	1	1	1	0	1	1	0	0	0	0	0	0	6	6
071812	15:22:49	10003	testFr3mo	Ch6Fr3mo	11	RR6Fr3mo	3310	0	121	15:22:49	1778393	4	3	1	1	1	1	3	1	1	0	0	0	0	0	0	6	6
071812	15:22:49	10003	DigitSpanFwrdFr3mo	Score1FwrdFr3mo	12	DS1	4091	0	121	15:22:49	1803263	4	3	1	1	1	1	3	1	1	0	0	0	0	0	0	6	6
071812	15:22:49	10003	DigitSpanFwrdFr3mo	Gate1FwrdFr3mo	12	0	1	0	121	15:22:49	1803278	4	3	1	1	1	1	3	1	1	3	0	0	0	0	0	6	6
071812	15:22:49	10003	DigitSpanFwrdFr3mo	Score2FwrdFr3mo	12	DS1	6033	0	121	15:22:49	1815018	4	3	1	1	1	1	3	1	1	3	0	0	0	0	0	6	6
071812	15:22:49	10003	DigitSpanFwrdFr3mo	Gate3FwrdFr3mo	12	0	1	0	121	15:22:49	1815033	4	3	1	1	1	1	3	1	1	4	0	0	0	0	0	6	6
071812	15:22:49	10003	DigitSpanFwrdFr3mo	Score3FwrdFr3mo	12	DS1	8300	0	121	15:22:49	1830585	4	3	1	1	1	1	3	1	1	4	0	0	0	0	0	6	6
071812	15:22:49	10003	DigitSpanFwrdFr3mo	Gate5FwrdFr3mo	12	0	1	0	121	15:22:49	1830600	4	3	1	1	1	1	3	1	1	5	0	0	0	0	0	6	6
071812	15:22:49	10003	DigitSpanFwrdFr3mo	Score4FwrdFr3mo	12	DS1	9647	0	121	15:22:49	1848791	4	3	1	1	1	1	3	1	1	5	0	0	0	0	0	6	6
071812	15:22:49	10003	DigitSpanFwrdFr3mo	Gate7FwrdFr3mo	12	0	1	0	121	15:22:49	1848806	4	3	1	1	1	1	3	1	1	6	0	0	0	0	0	6	6
071812	15:22:49	10003	DigitSpanFwrdFr3mo	Score5FwrdFr3mo	12	DS1	12440	0	121	15:22:49	1873328	4	3	1	1	1	1	3	1	1	6	0	0	0	0	0	6	6
071812	15:22:49	10003	DigitSpanFwrdFr3mo	Gate9FwrdFr3mo	12	0	1	0	121	15:22:49	1873344	4	3	1	1	1	1	3	1	1	7	0	0	0	0	0	6	6
071812	15:22:49	10003	DigitSpanFwrdFr3mo	Score6FwrdFr3mo	12	DS2	16659	0	121	15:22:49	1901876	4	3	1	1	1	1	3	1	1	7	0	0	0	0	0	6	6
071812	15:22:49	10003	DigitSpanFwrdFr3mo	Gate11FwrdFr3mo	12	0	1	0	121	15:22:49	1901891	4	3	1	1	1	1	3	1	1	7	0	0	0	0	0	6	6
071812	15:22:49	10003	DigitSpanFwrdFr3mo	Score66FwrdFr3mo	12	DS2	18155	0	121	15:22:49	1931784	4	3	1	1	1	1	3	1	1	7	0	0	0	0	0	6	6
071812	15:22:49	10003	DigitSpanFr3mo	Score1Fr3mo	13	DS1	4002	0	121	15:22:49	1947631	4	3	1	1	1	1	3	1	1	7	0	0	0	0	0	6	6
071812	15:22:49	10003	DigitSpanFr3mo	Gate1Fr3mo	13	0	1	0	121	15:22:49	1947646	4	3	1	1	1	1	3	1	1	7	2	0	0	0	0	6	6
071812	15:22:49	10003	DigitSpanFr3mo	Score2Fr3mo	13	DS1	6560	0	121	15:22:49	1958800	4	3	1	1	1	1	3	1	1	7	2	0	0	0	0	6	6
071812	15:22:49	10003	DigitSpanFr3mo	Gate3Fr3mo	13	0	1	0	121	15:22:49	1958815	4	3	1	1	1	1	3	1	1	7	3	0	0	0	0	6	6
071812	15:22:49	10003	DigitSpanFr3mo	Score3Fr3mo	13	DS1	5561	0	121	15:22:49	1970102	4	3	1	1	1	1	3	1	1	7	3	0	0	0	0	6	6
071812	15:22:49	10003	DigitSpanFr3mo	Gate5Fr3mo	13	0	1	0	121	15:22:49	1970117	4	3	1	1	1	1	3	1	1	7	4	0	0	0	0	6	6
071812	15:22:49	10003	DigitSpanFr3mo	Score4Fr3mo	13	DS1	12041	0	121	15:22:49	1989427	4	3	1	1	1	1	3	1	1	7	4	0	0	0	0	6	6
071812	15:22:49	10003	DigitSpanFr3mo	Gate7Fr3mo	13	0	1	0	121	15:22:49	1989443	4	3	1	1	1	1	3	1	1	7	5	0	0	0	0	6	6
071812	15:22:49	10003	DigitSpanFr3mo	Score5Fr3mo	13	DS1	15111	0	121	15:22:49	2013084	4	3	1	1	1	1	3	1	1	7	5	0	0	0	0	6	6
071812	15:22:49	10003	DigitSpanFr3mo	Gate9Fr3mo	13	0	1	0	121	15:22:49	2013100	4	3	1	1	1	1	3	1	1	7	6	0	0	0	0	6	6
071812	15:22:49	10003	DigitSpanFr3mo	Score6Fr3mo	13	DS2	22864	0	121	15:22:49	2045738	4	3	1	1	1	1	3	1	1	7	6	0	0	0	0	6	6
071812	15:22:49	10003	DigitSpanFr3mo	Gate11Fr3mo	13	0	1	0	121	15:22:49	2045753	4	3	1	1	1	1	3	1	1	7	6	0	0	0	0	6	6
071812	15:22:49	10003	DigitSpanFr3mo	Score66Fr3mo	13	DS1	26089	0	121	15:22:49	2081496	4	3	1	1	1	1	3	1	1	7	7	0	0	0	0	6	6
071812	15:22:49	10003	Trial	IncongruentRight	14	0	737	0	121	15:22:49	2128131	4	3	1	1	1	1	3	1	1	7	7	0	0	0	0	6	6
071812	15:22:49	10003	Trial	IncongruentLeft	14	203	484	1	121	15:22:49	2128891	4	3	1	1	1	1	3	1	1	7	7	0	0	0	0	6	6
071812	15:22:49	10003	Trial	CongruentRight	14	205	413	1	121	15:22:49	2129824	4	3	1	1	1	1	3	1	1	7	7	0	0	0	0	6	6
071812	15:22:49	10003	Trial	IncongruentRight	14	205	406	1	121	15:22:49	2130810	4	3	1	1	1	1	3	1	1	7	7	0	0	0	0	6	6
071812	15:22:49	10003	Trial	CongruentLeft	14	203	445	1	121	15:22:49	2131849	4	3	1	1	1	1	3	1	1	7	7	0	0	0	0	6	6
071812	15:22:49	10003	Trial	CongruentRight	14	205	376	1	121	15:22:49	2132796	4	3	1	1	1	1	3	1	1	7	7	0	0	0	0	6	6
071812	15:22:49	10003	Trial	IncongruentRight	14	205	369	1	121	15:22:49	2133782	4	3	1	1	1	1	3	1	1	7	7	0	0	0	0	6	6
071812	15:22:49	10003	Trial	CongruentLeft	14	203	489	1	121	15:22:49	2134901	4	3	1	1	1	1	3	1	1	7	7	0	0	0	0	6	6
071812	15:22:49	10003	Trial	IncongruentLeft	14	203	481	1	121	15:22:49	2135901	4	3	1	1	1	1	3	1	1	7	7	0	0	0	0	6	6
071812	15:22:49	10003	Trial	IncongruentLeft	14	203	394	1	121	15:22:49	2136807	4	3	1	1	1	1	3	1	1	7	7	0	0	0	0	6	6
071812	15:22:49	10003	Trial	CongruentRight	14	205	434	1	121	15:22:49	2137847	4	3	1	1	1	1	3	1	1	7	7	0	0	0	0	6	6
071812	15:22:49	10003	Trial	IncongruentRight	14	205	395	1	121	15:22:49	2138807	4	3	1	1	1	1	3	1	1	7	7	0	0	0	0	6	6
071812	15:22:49	10003	Trial	CongruentLeft	14	203	419	1	121	15:22:49	2139833	4	3	1	1	1	1	3	1	1	7	7	0	0	0	0	6	6
071812	15:22:49	10003	Trial	CongruentRight	14	205	395	1	121	15:22:49	2140806	4	3	1	1	1	1	3	1	1	7	7	0	0	0	0	6	6
071812	15:22:49	10003	Trial	IncongruentLeft	14	203	356	1	121	15:22:49	2141765	4	3	1	1	1	1	3	1	1	7	7	0	0	0	0	6	6
071812	15:22:49	10003	Trial	IncongruentRight	14	205	316	1	121	15:22:49	2142725	4	3	1	1	1	1	3	1	1	7	7	0	0	0	0	6	6
071812	15:22:49	10003	Trial	CongruentRight	14	205	357	1	121	15:22:49	2143765	4	3	1	1	1	1	3	1	1	7	7	0	0	0	0	6	6
071812	15:22:49	10003	Trial	CongruentLeft	14	205	365	0	121	15:22:49	2144777	4	3	1	1	1	1	3	1	1	7	7	0	0	0	0	6	6
071812	15:22:49	10003	Trial	CongruentRight	14	205	342	1	121	15:22:49	2145750	4	3	1	1	1	1	3	1	1	7	7	0	0	0	0	6	6
071812	15:22:49	10003	Trial	IncongruentRight	14	203	334	0	121	15:22:49	2146750	4	3	1	1	1	1	3	1	1	7	7	0	0	0	0	6	6
071812	15:22:49	10003	Trial	IncongruentLeft	14	203	422	1	121	15:22:49	2147830	4	3	1	1	1	1	3	1	1	7	7	0	0	0	0	6	6
071812	15:22:49	10003	Trial	IncongruentLeft	14	203	415	1	121	15:22:49	2148829	4	3	1	1	1	1	3	1	1	7	7	0	0	0	0	6	6
071812	15:22:49	10003	Trial	CongruentLeft	14	203	439	1	121	15:22:49	2149856	4	3	1	1	1	1	3	1	1	7	7	0	0	0	0	6	6
071812	15:22:49	10003	Trial	CongruentRight	14	205	431	1	121	15:22:49	2150842	4	3	1	1	1	1	3	1	1	7	7	0	0	0	0	6	6
071812	15:22:49	10003	Trial	IncongruentLeft	14	203	424	1	121	15:22:49	2151828	4	3	1	1	1	1	3	1	1	7	7	0	0	0	0	6	6
071812	15:22:49	10003	Trial	IncongruentRight	14	205	368	1	121	15:22:49	2152774	4	3	1	1	1	1	3	1	1	7	7	0	0	0	0	6	6
071812	15:22:49	10003	Trial	CongruentRight	14	205	344	1	121	15:22:49	2153761	4	3	1	1	1	1	3	1	1	7	7	0	0	0	0	6	6
071812	15:22:49	10003	Trial	CongruentLeft	14	203	401	1	121	15:22:49	2154813	4	3	1	1	1	1	3	1	1	7	7	0	0	0	0	6	6
071812	15:22:49	10003	Trial	IncongruentRight	14	205	361	1	121	15:22:49	2155773	4	3	1	1	1	1	3	1	1	7	7	0	0	0	0	6	6
071812	15:22:49	10003	Trial	IncongruentLeft	14	203	338	1	121	15:22:49	2156746	4	3	1	1	1	1	3	1	1	7	7	0	0	0	0	6	6
071812	15:22:49	10003	Trial	IncongruentRight	14	205	346	1	121	15:22:49	2157759	4	3	1	1	1	1	3	1	1	7	7	0	0	0	0	6	6
071812	15:22:49	10003	Trial	CongruentRight	14	205	402	1	121	15:22:49	2158812	4	3	1	1	1	1	3	1	1	7	7	0	0	0	0	6	6
071812	15:22:49	10003	Trial	IncongruentLeft	14	203	427	1	121	15:22:49	2159838	4	3	1	1	1	1	3	1	1	7	7	0	0	0	0	6	6
071812	15:22:49	10003	Trial	CongruentLeft	14	203	403	1	121	15:22:49	2160811	4	3	1	1	1	1	3	1	1	7	7	0	0	0	0	6	6
071812	15:22:49	10003	Trial	CongruentRight	14	203	363	0	121	15:22:49	2161770	4	3	1	1	1	1	3	1	1	7	7	0	0	0	0	6	6
071812	15:22:49	10003	Trial	IncongruentLeft	14	203	548	1	121	15:22:49	2162957	4	3	1	1	1	1	3	1	1	7	7	0	0	0	0	6	6
071812	15:22:49	10003	Trial	IncongruentRight	14	205	428	1	121	15:22:49	2163837	4	3	1	1	1	1	3	1	1	7	7	0	0	0	0	6	6
071812	15:22:49	10003	Trial	IncongruentRight	14	205	439	1	121	15:22:49	2164863	4	3	1	1	1	1	3	1	1	7	7	0	0	0	0	6	6
071812	15:22:49	10003	Trial	CongruentLeft	14	203	384	1	121	15:22:49	2165796	4	3	1	1	1	1	3	1	1	7	7	0	0	0	0	6	6
071812	15:22:49	10003	Trial	IncongruentLeft	14	203	488	1	121	15:22:49	2166902	4	3	1	1	1	1	3	1	1	7	7	0	0	0	0	6	6
071812	15:22:49	10003	Trial	CongruentRight	14	205	400	1	121	15:22:49	2167821	4	3	1	1	1	1	3	1	1	7	7	0	0	0	0	6	6
071812	15:22:49	10003	Trial	CongruentLeft	14	203	441	1	121	15:22:49	2168861	4	3	1	1	1	1	3	1	1	7	7	0	0	0	0	6	6
071812	15:22:49	10003	Trial	IncongruentRight	14	205	369	1	121	15:22:49	2169781	4	3	1	1	1	1	3	1	1	7	7	0	0	0	0	6	6
071812	15:22:49	10003	Trial	CongruentRight	14	205	426	1	121	15:22:49	2170847	4	3	1	1	1	1	3	1	1	7	7	0	0	0	0	6	6
071812	15:22:49	10003	Trial	IncongruentLeft	14	203	402	1	121	15:22:49	2171820	4	3	1	1	1	1	3	1	1	7	7	0	0	0	0	6	6
071812	15:22:49	10003	Trial	CongruentLeft	14	203	522	1	121	15:22:49	2172940	4	3	1	1	1	1	3	1	1	7	7	0	0	0	0	6	6
071812	15:22:49	10003	Trial	IncongruentLeft	14	203	515	1	121	15:22:49	2173926	4	3	1	1	1	1	3	1	1	7	7	0	0	0	0	6	6
071812	15:22:49	10003	Trial	IncongruentRight	14	205	427	1	121	15:22:49	2174845	4	3	1	1	1	1	3	1	1	7	7	0	0	0	0	6	6
071812	15:22:49	10003	Trial	CongruentRight	14	205	403	1	121	15:22:49	2175818	4	3	1	1	1	1	3	1	1	7	7	0	0	0	0	6	6
071812	15:22:49	10003	Trial	CongruentLeft	14	203	492	1	121	15:22:49	2176911	4	3	1	1	1	1	3	1	1	7	7	0	0	0	0	6	6
071812	15:22:49	10003	Trial	CongruentLeft	14	203	436	1	121	15:22:49	2177844	4	3	1	1	1	1	3	1	1	7	7	0	0	0	0	6	6
071812	15:22:49	10003	Trial	IncongruentRight	14	205	413	1	121	15:22:49	2178830	4	3	1	1	1	1	3	1	1	7	7	0	0	0	0	6	6
071812	15:22:49	10003	Trial	IncongruentLeft	14	203	421	1	121	15:22:49	2179830	4	3	1	1	1	1	3	1	1	7	7	0	0	0	0	6	6
071812	15:22:49	10003	Trial	IncongruentRight	14	205	397	1	121	15:22:49	2180803	4	3	1	1	1	1	3	1	1	7	7	0	0	0	0	6	6
071812	15:22:49	10003	Trial	CongruentRight	14	205	406	1	121	15:22:49	2181816	4	3	1	1	1	1	3	1	1	7	7	0	0	0	0	6	6
071812	15:22:49	10003	Trial	CongruentRight	14	205	382	1	121	15:22:49	2182789	4	3	1	1	1	1	3	1	1	7	7	0	0	0	0	6	6
071812	15:22:49	10003	Trial	IncongruentLeft	14	203	423	1	121	15:22:49	2183828	4	3	1	1	1	1	3	1	1	7	7	0	0	0	0	6	6
071812	15:22:49	10003	Trial	CongruentLeft	14	203	399	1	121	15:22:49	2184815	4	3	1	1	1	1	3	1	1	7	7	0	0	0	0	6	6
071812	15:22:49	10003	Trial	CongruentRight	14	205	455	1	121	15:22:49	2185868	4	3	1	1	1	1	3	1	1	7	7	0	0	0	0	6	6
071812	15:22:49	10003	Trial	CongruentLeft	14	203	416	1	121	15:22:49	2186827	4	3	1	1	1	1	3	1	1	7	7	0	0	0	0	6	6
071812	15:22:49	10003	Trial	IncongruentRight	14	205	392	1	121	15:22:49	2187800	4	3	1	1	1	1	3	1	1	7	7	0	0	0	0	6	6
071812	15:22:49	10003	Trial	CongruentRight	14	205	384	1	121	15:22:49	2188800	4	3	1	1	1	1	3	1	1	7	7	0	0	0	0	6	6
071812	15:22:49	10003	Trial	CongruentLeft	14	203	425	1	121	15:22:49	2189839	4	3	1	1	1	1	3	1	1	7	7	0	0	0	0	6	6
071812	15:22:49	10003	Trial	IncongruentLeft	14	203	433	1	121	15:22:49	2190839	4	3	1	1	1	1	3	1	1	7	7	0	0	0	0	6	6
071812	15:22:49	10003	Trial	IncongruentLeft	14	203	410	1	121	15:22:49	2191812	4	3	1	1	1	1	3	1	1	7	7	0	0	0	0	6	6
071812	15:22:49	10003	Trial	CongruentRight	14	205	418	1	121	15:22:49	2192825	4	3	1	1	1	1	3	1	1	7	7	0	0	0	0	6	6
071812	15:22:49	10003	Trial	IncongruentRight	14	205	362	1	121	15:22:49	2193771	4	3	1	1	1	1	3	1	1	7	7	0	0	0	0	6	6
071812	15:22:49	10003	Trial	CongruentLeft	14	203	403	1	121	15:22:49	2194811	4	3	1	1	1	1	3	1	1	7	7	0	0	0	0	6	6
071812	15:22:49	10003	Trial	IncongruentRight	14	205	398	1	121	15:22:49	2195824	4	3	1	1	1	1	3	1	1	7	7	0	0	0	0	6	6
071812	15:22:49	10003	Trial	CongruentRight	14	205	454	1	121	15:22:49	2196876	4	3	1	1	1	1	3	1	1	7	7	0	0	0	0	6	6
071812	15:22:49	10003	Trial	IncongruentLeft	14	203	431	1	121	15:22:49	2197850	4	3	1	1	1	1	3	1	1	7	7	0	0	0	0	6	6
071812	15:22:49	10003	Trial	CongruentLeft	14	203	407	1	121	15:22:49	2198822	4	3	1	1	1	1	3	1	1	7	7	0	0	0	0	6	6
071812	15:22:49	10003	Trial	CongruentRight	14	205	351	1	121	15:22:49	2199769	4	3	1	1	1	1	3	1	1	7	7	0	0	0	0	6	6
071812	15:22:49	10003	Trial	IncongruentLeft	14	203	392	1	121	15:22:49	2200808	4	3	1	1	1	1	3	1	1	7	7	0	0	0	0	6	6
071812	15:22:49	10003	Trial	CongruentRight	14	205	352	1	121	15:22:49	2201768	4	3	1	1	1	1	3	1	1	7	7	0	0	0	0	6	6
071812	15:22:49	10003	Trial	CongruentRight	14	205	392	1	121	15:22:49	2202807	4	3	1	1	1	1	3	1	1	7	7	0	0	0	0	6	6
071812	15:22:49	10003	Trial	IncongruentRight	14	205	449	1	121	15:22:49	2203860	4	3	1	1	1	1	3	1	1	7	7	0	0	0	0	6	6
071812	15:22:49	10003	Trial	CongruentLeft	14	203	441	1	121	15:22:49	2204860	4	3	1	1	1	1	3	1	1	7	7	0	0	0	0	6	6
071812	15:22:49	10003	Trial	IncongruentLeft	14	203	498	1	121	15:22:49	2205913	4	3	1	1	1	1	3	1	1	7	7	0	0	0	0	6	6
071812	15:22:49	10003	Trial	CongruentLeft	14	203	410	1	121	15:22:49	2206819	4	3	1	1	1	1	3	1	1	7	7	0	0	0	0	6	6
071812	15:22:49	10003	Trial	IncongruentRight	14	205	418	1	121	15:22:49	2207832	4	3	1	1	1	1	3	1	1	7	7	0	0	0	0	6	6
071812	15:22:49	10003	Trial	IncongruentLeft	14	203	427	1	121	15:22:49	2208845	4	3	1	1	1	1	3	1	1	7	7	0	0	0	0	6	6
071812	15:22:49	10003	Trial	CongruentRight	14	205	371	1	121	15:22:49	2209791	4	3	1	1	1	1	3	1	1	7	7	0	0	0	0	6	6
071812	15:22:49	10003	Trial	CongruentLeft	14	203	427	1	121	15:22:49	2210844	4	3	1	1	1	1	3	1	1	7	7	0	0	0	0	6	6
071812	15:22:49	10003	Trial	IncongruentLeft	14	203	404	1	121	15:22:49	2211817	4	3	1	1	1	1	3	1	1	7	7	0	0	0	0	6	6
071812	15:22:49	10003	Trial	CongruentLeft	14	203	476	1	121	15:22:49	2212883	4	3	1	1	1	1	3	1	1	7	7	0	0	0	0	6	6
071812	15:22:49	10003	Trial	IncongruentRight	14	205	437	1	121	15:22:49	2213843	4	3	1	1	1	1	3	1	1	7	7	0	0	0	0	6	6
071812	15:22:49	10003	Trial	CongruentRight	14	205	429	1	121	15:22:49	2214843	4	3	1	1	1	1	3	1	1	7	7	0	0	0	0	6	6
071812	15:22:49	10003	Trial	IncongruentLeft	14	203	437	1	121	15:22:49	2215842	4	3	1	1	1	1	3	1	1	7	7	0	0	0	0	6	6
071812	15:22:49	10003	Trial	CongruentLeft	14	203	526	1	121	15:22:49	2216935	4	3	1	1	1	1	3	1	1	7	7	0	0	0	0	6	6
071812	15:22:49	10003	Trial	IncongruentRight	14	205	454	1	121	15:22:49	2217868	4	3	1	1	1	1	3	1	1	7	7	0	0	0	0	6	6
071812	15:22:49	10003	Trial	IncongruentLeft	14	203	430	1	121	15:22:49	2218841	4	3	1	1	1	1	3	1	1	7	7	0	0	0	0	6	6
071812	15:22:49	10003	Trial	CongruentLeft	14	203	406	1	121	15:22:49	2219814	4	3	1	1	1	1	3	1	1	7	7	0	0	0	0	6	6
071812	15:22:49	10003	Trial	IncongruentLeft	14	203	367	1	121	15:22:49	2220773	4	3	1	1	1	1	3	1	1	7	7	0	0	0	0	6	6
071812	15:22:49	10003	Trial	CongruentRight	14	203	376	0	121	15:22:49	2221786	4	3	1	1	1	1	3	1	1	7	7	0	0	0	0	6	6
071812	15:22:49	10003	Trial	CongruentLeft	14	203	512	1	121	15:22:49	2222919	4	3	1	1	1	1	3	1	1	7	7	0	0	0	0	6	6
071812	15:22:49	10003	Trial	IncongruentRight	14	205	488	1	121	15:22:49	2223892	4	3	1	1	1	1	3	1	1	7	7	0	0	0	0	6	6
071812	15:22:49	10003	Trial	CongruentLeft	14	203	545	1	121	15:22:49	2224959	4	3	1	1	1	1	3	1	1	7	7	0	0	0	0	6	6
071812	15:22:49	10003	Trial	CongruentRight	14	205	489	1	121	15:22:49	2225892	4	3	1	1	1	1	3	1	1	7	7	0	0	0	0	6	6
071812	15:22:49	10003	Trial	IncongruentLeft	14	203	434	1	121	15:22:49	2226838	4	3	1	1	1	1	3	1	1	7	7	0	0	0	0	6	6
071812	15:22:49	10003	Trial750Fr	IncongruentRight750	15	0	487	0	121	15:22:49	2238899	4	3	1	1	1	1	3	1	1	7	7	0	0	0	0	6	6
071812	15:22:49	10003	Trial750Fr	IncongruentLeft750	15	203	401	1	121	15:22:49	2239580	4	3	1	1	1	1	3	1	1	7	7	0	0	0	0	6	6
071812	15:22:49	10003	Trial750Fr	CongruentRight750	15	205	329	1	121	15:22:49	2240259	4	3	1	1	1	1	3	1	1	7	7	0	0	0	0	6	6
071812	15:22:49	10003	Trial750Fr	IncongruentRight750	15	203	351	0	121	15:22:49	2241032	4	3	1	1	1	1	3	1	1	7	7	0	0	0	0	6	6
071812	15:22:49	10003	Trial750Fr	CongruentLeft750	15	203	372	1	121	15:22:49	2241805	4	3	1	1	1	1	3	1	1	7	7	0	0	0	0	6	6
071812	15:22:49	10003	Trial750Fr	CongruentRight750	15	205	381	1	121	15:22:49	2242565	4	3	1	1	1	1	3	1	1	7	7	0	0	0	0	6	6
071812	15:22:49	10003	Trial750Fr	IncongruentRight750	15	205	418	1	121	15:22:49	2243351	4	3	1	1	1	1	3	1	1	7	7	0	0	0	0	6	6
071812	15:22:49	10003	Trial750Fr	CongruentLeft750	15	203	393	1	121	15:22:49	2244071	4	3	1	1	1	1	3	1	1	7	7	0	0	0	0	6	6
071812	15:22:49	10003	Trial750Fr	IncongruentLeft750	15	205	397	0	121	15:22:49	2244831	4	3	1	1	1	1	3	1	1	7	7	0	0	0	0	6	6
071812	15:22:49	10003	Trial750Fr	IncongruentLeft750	15	0	487	0	121	15:22:49	2245657	4	3	1	1	1	1	3	1	1	7	7	0	0	0	0	6	6
071812	15:22:49	10003	Trial750Fr	CongruentRight750	15	205	428	1	121	15:22:49	2246363	4	3	1	1	1	1	3	1	1	7	7	0	0	0	0	6	6
071812	15:22:49	10003	Trial750Fr	IncongruentRight750	15	205	388	1	121	15:22:49	2247083	4	3	1	1	1	1	3	1	1	7	7	0	0	0	0	6	6
071812	15:22:49	10003	Trial750Fr	CongruentLeft750	15	203	377	1	121	15:22:49	2247816	4	3	1	1	1	1	3	1	1	7	7	0	0	0	0	6	6
071812	15:22:49	10003	Trial750Fr	CongruentRight750	15	205	386	1	121	15:22:49	2248589	4	3	1	1	1	1	3	1	1	7	7	0	0	0	0	6	6
071812	15:22:49	10003	Trial750Fr	IncongruentLeft750	15	203	423	1	121	15:22:49	2249362	4	3	1	1	1	1	3	1	1	7	7	0	0	0	0	6	6
071812	15:22:49	10003	Trial750Fr	IncongruentRight750	15	205	413	1	121	15:22:49	2250108	4	3	1	1	1	1	3	1	1	7	7	0	0	0	0	6	6
071812	15:22:49	10003	Trial750Fr	CongruentRight750	15	205	354	1	121	15:22:49	2250788	4	3	1	1	1	1	3	1	1	7	7	0	0	0	0	6	6
071812	15:22:49	10003	Trial750Fr	CongruentLeft750	15	203	392	1	121	15:22:49	2251574	4	3	1	1	1	1	3	1	1	7	7	0	0	0	0	6	6
071812	15:22:49	10003	Trial750Fr	CongruentRight750	15	205	384	1	121	15:22:49	2252334	4	3	1	1	1	1	3	1	1	7	7	0	0	0	0	6	6
071812	15:22:49	10003	Trial750Fr	IncongruentRight750	15	205	454	1	121	15:22:49	2253147	4	3	1	1	1	1	3	1	1	7	7	0	0	0	0	6	6
071812	15:22:49	10003	Trial750Fr	IncongruentLeft750	15	203	412	1	121	15:22:49	2253854	4	3	1	1	1	1	3	1	1	7	7	0	0	0	0	6	6
071812	15:22:49	10003	Trial750Fr	IncongruentLeft750	15	203	449	1	121	15:22:49	2254627	4	3	1	1	1	1	3	1	1	7	7	0	0	0	0	6	6
071812	15:22:49	10003	Trial750Fr	CongruentLeft750	15	203	410	1	121	15:22:49	2255346	4	3	1	1	1	1	3	1	1	7	7	0	0	0	0	6	6
071812	15:22:49	10003	Trial750Fr	CongruentRight750	15	205	383	1	121	15:22:49	2256066	4	3	1	1	1	1	3	1	1	7	7	0	0	0	0	6	6
071812	15:22:49	10003	Trial750Fr	IncongruentLeft750	15	203	453	1	121	15:22:49	2256892	4	3	1	1	1	1	3	1	1	7	7	0	0	0	0	6	6
071812	15:22:49	10003	Trial750Fr	IncongruentRight750	15	0	487	0	121	15:22:49	2257665	4	3	1	1	1	1	3	1	1	7	7	0	0	0	0	6	6
071812	15:22:49	10003	Trial750Fr	CongruentRight750	15	205	483	1	121	15:22:49	2258425	4	3	1	1	1	1	3	1	1	7	7	0	0	0	0	6	6
071812	15:22:49	10003	Trial750Fr	CongruentLeft750	15	203	417	1	121	15:22:49	2259145	4	3	1	1	1	1	3	1	1	7	7	0	0	0	0	6	6
071812	15:22:49	10003	Trial750Fr	IncongruentRight750	15	205	419	1	121	15:22:49	2259878	4	3	1	1	1	1	3	1	1	7	7	0	0	0	0	6	6
071812	15:22:49	10003	Trial750Fr	IncongruentLeft750	15	203	425	1	121	15:22:49	2260638	4	3	1	1	1	1	3	1	1	7	7	0	0	0	0	6	6
071812	15:22:49	10003	Trial750Fr	IncongruentRight750	15	205	447	1	121	15:22:49	2261398	4	3	1	1	1	1	3	1	1	7	7	0	0	0	0	6	6
071812	15:22:49	10003	Trial750Fr	CongruentRight750	15	205	439	1	121	15:22:49	2262157	4	3	1	1	1	1	3	1	1	7	7	0	0	0	0	6	6
071812	15:22:49	10003	Trial750Fr	IncongruentLeft750	15	203	460	1	121	15:22:49	2262916	4	3	1	1	1	1	3	1	1	7	7	0	0	0	0	6	6
071812	15:22:49	10003	Trial750Fr	CongruentLeft750	15	203	434	1	121	15:22:49	2263636	4	3	1	1	1	1	3	1	1	7	7	0	0	0	0	6	6
071812	15:22:49	10003	Trial750Fr	CongruentRight750	15	205	426	1	121	15:22:49	2264396	4	3	1	1	1	1	3	1	1	7	7	0	0	0	0	6	6
071812	15:22:49	10003	Trial750Fr	IncongruentLeft750	15	203	432	1	121	15:22:49	2265142	4	3	1	1	1	1	3	1	1	7	7	0	0	0	0	6	6
071812	15:22:49	10003	Trial750Fr	IncongruentRight750	15	205	406	1	121	15:22:49	2265862	4	3	1	1	1	1	3	1	1	7	7	0	0	0	0	6	6
071812	15:22:49	10003	Trial750Fr	IncongruentRight750	15	205	363	1	121	15:22:49	2266568	4	3	1	1	1	1	3	1	1	7	7	0	0	0	0	6	6
071812	15:22:49	10003	Trial750Fr	CongruentLeft750	15	203	403	1	121	15:22:49	2267368	4	3	1	1	1	1	3	1	1	7	7	0	0	0	0	6	6
071812	15:22:49	10003	Trial750Fr	IncongruentLeft750	15	205	393	0	121	15:22:49	2268101	4	3	1	1	1	1	3	1	1	7	7	0	0	0	0	6	6
071812	15:22:49	10003	Trial750Fr	CongruentRight750	15	205	463	1	121	15:22:49	2268914	4	3	1	1	1	1	3	1	1	7	7	0	0	0	0	6	6
071812	15:22:49	10003	Trial750Fr	CongruentLeft750	15	203	455	1	121	15:22:49	2269674	4	3	1	1	1	1	3	1	1	7	7	0	0	0	0	6	6
071812	15:22:49	10003	Trial750Fr	IncongruentRight750	15	205	445	1	121	15:22:49	2270407	4	3	1	1	1	1	3	1	1	7	7	0	0	0	0	6	6
071812	15:22:49	10003	Trial750Fr	CongruentRight750	15	205	434	1	121	15:22:49	2271140	4	3	1	1	1	1	3	1	1	7	7	0	0	0	0	6	6
071812	15:22:49	10003	Trial750Fr	IncongruentLeft750	15	203	410	1	121	15:22:49	2271873	4	3	1	1	1	1	3	1	1	7	7	0	0	0	0	6	6
071812	15:22:49	10003	Trial750Fr	CongruentLeft750	15	203	448	1	121	15:22:49	2272659	4	3	1	1	1	1	3	1	1	7	7	0	0	0	0	6	6
071812	15:22:49	10003	Trial750Fr	IncongruentLeft750	15	203	438	1	121	15:22:49	2273406	4	3	1	1	1	1	3	1	1	7	7	0	0	0	0	6	6
071812	15:22:49	10003	Trial750Fr	IncongruentRight750	15	205	411	1	121	15:22:49	2274125	4	3	1	1	1	1	3	1	1	7	7	0	0	0	0	6	6
071812	15:22:49	10003	Trial750Fr	CongruentRight750	15	205	468	1	121	15:22:49	2274938	4	3	1	1	1	1	3	1	1	7	7	0	0	0	0	6	6
071812	15:22:49	10003	Trial750Fr	CongruentLeft750	15	203	457	1	121	15:22:49	2275671	4	3	1	1	1	1	3	1	1	7	7	0	0	0	0	6	6
071812	15:22:49	10003	Trial750Fr	CongruentLeft750	15	203	450	1	121	15:22:49	2276418	4	3	1	1	1	1	3	1	1	7	7	0	0	0	0	6	6
071812	15:22:49	10003	Trial750Fr	IncongruentRight750	15	205	439	1	121	15:22:49	2277164	4	3	1	1	1	1	3	1	1	7	7	0	0	0	0	6	6
071812	15:22:49	10003	Trial750Fr	IncongruentLeft750	15	0	487	0	121	15:22:49	2277950	4	3	1	1	1	1	3	1	1	7	7	0	0	0	0	6	6
071812	15:22:49	10003	Trial750Fr	IncongruentRight750	15	0	487	0	121	15:22:49	2278710	4	3	1	1	1	1	3	1	1	7	7	0	0	0	0	6	6
071812	15:22:49	10003	Trial750Fr	CongruentRight750	15	0	487	0	121	15:22:49	2279470	4	3	1	1	1	1	3	1	1	7	7	0	0	0	0	6	6
071812	15:22:49	10003	Trial750Fr	CongruentRight750	15	0	487	0	121	15:22:49	2280230	4	3	1	1	1	1	3	1	1	7	7	0	0	0	0	6	6
071812	15:22:49	10003	Trial750Fr	IncongruentLeft750	15	203	477	1	121	15:22:49	2280989	4	3	1	1	1	1	3	1	1	7	7	0	0	0	0	6	6
071812	15:22:49	10003	Trial750Fr	CongruentLeft750	15	203	454	1	121	15:22:49	2281722	4	3	1	1	1	1	3	1	1	7	7	0	0	0	0	6	6
071812	15:22:49	10003	Trial750Fr	CongruentRight750	15	205	383	1	121	15:22:49	2282402	4	3	1	1	1	1	3	1	1	7	7	0	0	0	0	6	6
071812	15:22:49	10003	Trial750Fr	CongruentLeft750	15	203	423	1	121	15:22:49	2283189	4	3	1	1	1	1	3	1	1	7	7	0	0	0	0	6	6
071812	15:22:49	10003	Trial750Fr	IncongruentRight750	15	205	378	1	121	15:22:49	2283895	4	3	1	1	1	1	3	1	1	7	7	0	0	0	0	6	6
071812	15:22:49	10003	Trial750Fr	CongruentRight750	15	0	487	0	121	15:22:49	2284748	4	3	1	1	1	1	3	1	1	7	7	0	0	0	0	6	6
071812	15:22:49	10003	Trial750Fr	CongruentLeft750	15	203	471	1	121	15:22:49	2285494	4	3	1	1	1	1	3	1	1	7	7	0	0	0	0	6	6
071812	15:22:49	10003	Trial750Fr	IncongruentLeft750	15	0	487	0	121	15:22:49	2286254	4	3	1	1	1	1	3	1	1	7	7	0	0	0	0	6	6
071812	15:22:49	10003	Trial750Fr	IncongruentLeft750	15	0	487	0	121	15:22:49	2287014	4	3	1	1	1	1	3	1	1	7	7	0	0	0	0	6	6
071812	15:22:49	10003	Trial750Fr	CongruentRight750	15	0	487	0	121	15:22:49	2287773	4	3	1	1	1	1	3	1	1	7	7	0	0	0	0	6	6
071812	15:22:49	10003	Trial750Fr	IncongruentRight750	15	0	487	0	121	15:22:49	2288533	4	3	1	1	1	1	3	1	1	7	7	0	0	0	0	6	6
071812	15:22:49	10003	Trial750Fr	CongruentLeft750	15	0	487	0	121	15:22:49	2289292	4	3	1	1	1	1	3	1	1	7	7	0	0	0	0	6	6
071812	15:22:49	10003	Trial750Fr	IncongruentRight750	15	205	470	1	121	15:22:49	2290039	4	3	1	1	1	1	3	1	1	7	7	0	0	0	0	6	6
071812	15:22:49	10003	Trial750Fr	CongruentRight750	15	0	487	0	121	15:22:49	2290799	4	3	1	1	1	1	3	1	1	7	7	0	0	0	0	6	6
071812	15:22:49	10003	Trial750Fr	IncongruentLeft750	15	0	487	0	121	15:22:49	2291558	4	3	1	1	1	1	3	1	1	7	7	0	0	0	0	6	6
071812	15:22:49	10003	Trial750Fr	CongruentLeft750	15	0	487	0	121	15:22:49	2292318	4	3	1	1	1	1	3	1	1	7	7	0	0	0	0	6	6
071812	15:22:49	10003	Trial750Fr	CongruentRight750	15	205	485	1	121	15:22:49	2293078	4	3	1	1	1	1	3	1	1	7	7	0	0	0	0	6	6
071812	15:22:49	10003	Trial750Fr	IncongruentLeft750	15	203	445	1	121	15:22:49	2293797	4	3	1	1	1	1	3	1	1	7	7	0	0	0	0	6	6
071812	15:22:49	10003	Trial750Fr	CongruentRight750	15	205	358	1	121	15:22:49	2294477	4	3	1	1	1	1	3	1	1	7	7	0	0	0	0	6	6
071812	15:22:49	10003	Trial750Fr	CongruentRight750	15	0	487	0	121	15:22:49	2295343	4	3	1	1	1	1	3	1	1	7	7	0	0	0	0	6	6
071812	15:22:49	10003	Trial750Fr	IncongruentRight750	15	0	487	0	121	15:22:49	2296103	4	3	1	1	1	1	3	1	1	7	7	0	0	0	0	6	6
071812	15:22:49	10003	Trial750Fr	CongruentLeft750	15	0	487	0	121	15:22:49	2296863	4	3	1	1	1	1	3	1	1	7	7	0	0	0	0	6	6
071812	15:22:49	10003	Trial750Fr	IncongruentLeft750	15	0	487	0	121	15:22:49	2297623	4	3	1	1	1	1	3	1	1	7	7	0	0	0	0	6	6
071812	15:22:49	10003	Trial750Fr	CongruentLeft750	15	0	487	0	121	15:22:49	2298382	4	3	1	1	1	1	3	1	1	7	7	0	0	0	0	6	6
071812	15:22:49	10003	Trial750Fr	IncongruentRight750	15	205	312	1	121	15:22:49	2298982	4	3	1	1	1	1	3	1	1	7	7	0	0	0	0	6	6
071812	15:22:49	10003	Trial750Fr	IncongruentLeft750	15	203	446	1	121	15:22:49	2299862	4	3	1	1	1	1	3	1	1	7	7	0	0	0	0	6	6
071812	15:22:49	10003	Trial750Fr	CongruentRight750	15	205	467	1	121	15:22:49	2300635	4	3	1	1	1	1	3	1	1	7	7	0	0	0	0	6	6
071812	15:22:49	10003	Trial750Fr	CongruentLeft750	15	203	440	1	121	15:22:49	2301354	4	3	1	1	1	1	3	1	1	7	7	0	0	0	0	6	6
071812	15:22:49	10003	Trial750Fr	IncongruentLeft750	15	205	320	0	121	15:22:49	2301994	4	3	1	1	1	1	3	1	1	7	7	0	0	0	0	6	6
071812	15:22:49	10003	Trial750Fr	CongruentLeft750	15	0	487	0	121	15:22:49	2302900	4	3	1	1	1	1	3	1	1	7	7	0	0	0	0	6	6
071812	15:22:49	10003	Trial750Fr	IncongruentRight750	15	0	487	0	121	15:22:49	2303660	4	3	1	1	1	1	3	1	1	7	7	0	0	0	0	6	6
071812	15:22:49	10003	Trial750Fr	CongruentRight750	15	0	487	0	121	15:22:49	2304420	4	3	1	1	1	1	3	1	1	7	7	0	0	0	0	6	6
071812	15:22:49	10003	Trial750Fr	IncongruentLeft750	15	203	463	1	121	15:22:49	2305153	4	3	1	1	1	1	3	1	1	7	7	0	0	0	0	6	6
071812	15:22:49	10003	Trial750Fr	CongruentLeft750	15	0	487	0	121	15:22:49	2305926	4	3	1	1	1	1	3	1	1	7	7	0	0	0	0	6	6
071812	15:22:49	10003	Trial750Fr	IncongruentRight750	15	0	487	0	121	15:22:49	2306685	4	3	1	1	1	1	3	1	1	7	7	0	0	0	0	6	6
071812	15:22:49	10003	Trial750Fr	IncongruentLeft750	15	0	487	0	121	15:22:49	2307445	4	3	1	1	1	1	3	1	1	7	7	0	0	0	0	6	6
071812	15:22:49	10003	Trial750Fr	CongruentLeft750	15	0	487	0	121	15:22:49	2308205	4	3	1	1	1	1	3	1	1	7	7	0	0	0	0	6	6
071812	15:22:49	10003	Trial750Fr	IncongruentLeft750	15	0	487	0	121	15:22:49	2308964	4	3	1	1	1	1	3	1	1	7	7	0	0	0	0	6	6
071812	15:22:49	10003	Trial750Fr	CongruentRight750	15	205	334	1	121	15:22:49	2309578	4	3	1	1	1	1	3	1	1	7	7	0	0	0	0	6	6
071812	15:22:49	10003	Trial750Fr	CongruentLeft750	15	203	390	1	121	15:22:49	2310390	4	3	1	1	1	1	3	1	1	7	7	0	0	0	0	6	6
071812	15:22:49	10003	Trial750Fr	IncongruentRight750	15	205	364	1	121	15:22:49	2311110	4	3	1	1	1	1	3	1	1	7	7	0	0	0	0	6	6
071812	15:22:49	10003	Trial750Fr	CongruentLeft750	15	203	386	1	121	15:22:49	2311883	4	3	1	1	1	1	3	1	1	7	7	0	0	0	0	6	6
071812	15:22:49	10003	Trial750Fr	CongruentRight750	15	205	410	1	121	15:22:49	2312656	4	3	1	1	1	1	3	1	1	7	7	0	0	0	0	6	6
071812	15:22:49	10003	Trial750Fr	IncongruentLeft750	15	203	400	1	121	15:22:49	2313403	4	3	1	1	1	1	3	1	1	7	7	0	0	0	0	6	6
071812	15:22:49	10003	WordsAbsFr3mo	PAbsFr3mo1	16	Abs1	4768	0	121	15:22:49	2330876	4	3	1	1	1	1	3	1	1	7	7	0	0	0	0	6	6
071812	15:22:49	10003	WordsAbsFr3mo	AbsFr3mo1	16	Abs1	3566	0	121	15:22:49	2334501	4	3	1	1	1	1	3	1	1	7	7	1	0	0	0	6	6
071812	15:22:49	10003	WordsAbsFr3mo	AbsFr3mo2	16	Abs1	5460	0	121	15:22:49	2340005	4	3	1	1	1	1	3	1	1	7	7	2	0	0	0	6	6
071812	15:22:49	10003	WordsAbsFr3mo	AbsFr3mo3	16	Abs1	11555	0	121	15:22:49	2351601	4	3	1	1	1	1	3	1	1	7	7	3	0	0	0	6	6
071812	15:22:49	10003	Trial2BackFrS	NS	17	0	1000	1	121	15:22:49	2393224	4	3	1	1	1	1	3	1	1	7	7	3	0	0	0	6	6
071812	15:22:49	10003	Trial2BackFrS	NS	17	0	1000	1	121	15:22:49	2394743	4	3	1	1	1	1	3	1	1	7	7	3	0	0	0	6	6
071812	15:22:49	10003	Trial2BackFrS	NS	17	0	1000	1	121	15:22:49	2396263	4	3	1	1	1	1	3	1	1	7	7	3	0	0	0	6	6
071812	15:22:49	10003	Trial2BackFrS	YS	17	0	1000	0	121	15:22:49	2397782	4	3	1	1	1	1	3	1	1	7	7	3	0	0	0	6	6
071812	15:22:49	10003	Trial2BackFrS	NS	17	0	1000	1	121	15:22:49	2399301	4	3	1	1	1	1	3	1	1	7	7	3	0	0	0	6	6
071812	15:22:49	10003	Trial2BackFrS	NS	17	0	1000	1	121	15:22:49	2400821	4	3	1	1	1	1	3	1	1	7	7	3	0	0	0	6	6
071812	15:22:49	10003	Trial2BackFrS	NS	17	0	1000	1	121	15:22:49	2402340	4	3	1	1	1	1	3	1	1	7	7	3	0	0	0	6	6
071812	15:22:49	10003	Trial2BackFrS	NS	17	0	1000	1	121	15:22:49	2403860	4	3	1	1	1	1	3	1	1	7	7	3	0	0	0	6	6
071812	15:22:49	10003	Trial2BackFrS	YS	17	57	513	1	121	15:22:49	2404899	4	3	1	1	1	1	3	1	1	7	7	3	0	0	0	6	6
071812	15:22:49	10003	Trial2BackFrS	NS	17	0	1000	1	121	15:22:49	2406885	4	3	1	1	1	1	3	1	1	7	7	3	0	0	0	6	6
071812	15:22:49	10003	Trial2BackFrS	NS	17	0	1000	1	121	15:22:49	2408404	4	3	1	1	1	1	3	1	1	7	7	3	0	0	0	6	6
071812	15:22:49	10003	Trial2BackFrS	YS	17	0	1000	0	121	15:22:49	2409924	4	3	1	1	1	1	3	1	1	7	7	3	0	0	0	6	6
071812	15:22:49	10003	Trial2BackFrS	NS	17	57	705	0	121	15:22:49	2411150	4	3	1	1	1	1	3	1	1	7	7	3	0	0	0	6	6
071812	15:22:49	10003	Trial2BackFrS	NS	17	0	1000	1	121	15:22:49	2412950	4	3	1	1	1	1	3	1	1	7	7	3	0	0	0	6	6
071812	15:22:49	10003	Trial2BackFrS	NS	17	0	1000	1	121	15:22:49	2414468	4	3	1	1	1	1	3	1	1	7	7	3	0	0	0	6	6
071812	15:22:49	10003	Trial2BackFrS	YS	17	0	1000	0	121	15:22:49	2415988	4	3	1	1	1	1	3	1	1	7	7	3	0	0	0	6	6
071812	15:22:49	10003	Trial2BackFrS	NS	17	0	1000	1	121	15:22:49	2417507	4	3	1	1	1	1	3	1	1	7	7	3	0	0	0	6	6
071812	15:22:49	10003	Trial2BackFrS	NS	17	0	1000	1	121	15:22:49	2419027	4	3	1	1	1	1	3	1	1	7	7	3	0	0	0	6	6
071812	15:22:49	10003	Trial2BackFrS	NS	17	0	1000	1	121	15:22:49	2420546	4	3	1	1	1	1	3	1	1	7	7	3	0	0	0	6	6
071812	15:22:49	10003	Trial2BackFrS	NS	17	57	578	0	121	15:22:49	2421652	4	3	1	1	1	1	3	1	1	7	7	3	0	0	0	6	6
071812	15:22:49	10003	Trial2BackFrS	YS	17	0	1000	0	121	15:22:49	2423572	4	3	1	1	1	1	3	1	1	7	7	3	0	0	0	6	6
071812	15:22:49	10003	Trial2BackFrS	NS	17	0	1000	1	121	15:22:49	2425091	4	3	1	1	1	1	3	1	1	7	7	3	0	0	0	6	6
071812	15:22:49	10003	Trial2BackFrS	NS	17	0	1000	1	121	15:22:49	2426610	4	3	1	1	1	1	3	1	1	7	7	3	0	0	0	6	6
071812	15:22:49	10003	Trial2BackFrS	NS	17	0	1000	1	121	15:22:49	2428143	4	3	1	1	1	1	3	1	1	7	7	3	0	0	0	6	6
071812	15:22:49	10003	Trial2BackFrS	NS	17	57	517	0	121	15:22:49	2429182	4	3	1	1	1	1	3	1	1	7	7	3	0	0	0	6	6
071812	15:22:49	10003	Trial2BackFrS	NS	17	0	1000	1	121	15:22:49	2431168	4	3	1	1	1	1	3	1	1	7	7	3	0	0	0	6	6
071812	15:22:49	10003	Trial2BackFrS	NS	17	0	1000	1	121	15:22:49	2432688	4	3	1	1	1	1	3	1	1	7	7	3	0	0	0	6	6
071812	15:22:49	10003	Trial2BackFrS	NS	17	0	1000	1	121	15:22:49	2434207	4	3	1	1	1	1	3	1	1	7	7	3	0	0	0	6	6
071812	15:22:49	10003	Trial2BackFrS	NS	17	0	1000	1	121	15:22:49	2435727	4	3	1	1	1	1	3	1	1	7	7	3	0	0	0	6	6
071812	15:22:49	10003	Trial2BackFrS	NS	17	0	1000	1	121	15:22:49	2437246	4	3	1	1	1	1	3	1	1	7	7	3	0	0	0	6	6
071812	15:22:49	10003	Trial2BackFrS	NS	17	0	1000	1	121	15:22:49	2438765	4	3	1	1	1	1	3	1	1	7	7	3	0	0	0	6	6
071812	15:22:49	10003	Trial2BackFrS	YS	17	57	662	1	121	15:22:49	2439951	4	3	1	1	1	1	3	1	1	7	7	3	0	0	0	6	6
071812	15:22:49	10003	Trial2BackFrS	NS	17	0	1000	1	121	15:22:49	2441791	4	3	1	1	1	1	3	1	1	7	7	3	0	0	0	6	6
071812	15:22:49	10003	Trial2BackFrS	NS	17	0	1000	1	121	15:22:49	2443310	4	3	1	1	1	1	3	1	1	7	7	3	0	0	0	6	6
071812	15:22:49	10003	Trial2BackFrS	NS	17	0	1000	1	121	15:22:49	2444830	4	3	1	1	1	1	3	1	1	7	7	3	0	0	0	6	6
071812	15:22:49	10003	Trial2BackFrS	YS	17	57	630	1	121	15:22:49	2445989	4	3	1	1	1	1	3	1	1	7	7	3	0	0	0	6	6
071812	15:22:49	10003	Trial2BackFrS	NS	17	0	1000	1	121	15:22:49	2447855	4	3	1	1	1	1	3	1	1	7	7	3	0	0	0	6	6
071812	15:22:49	10003	Trial2BackFrS	NS	17	0	1000	1	121	15:22:49	2449374	4	3	1	1	1	1	3	1	1	7	7	3	0	0	0	6	6
071812	15:22:49	10003	Trial2BackFrS	NS	17	0	1000	1	121	15:22:49	2450894	4	3	1	1	1	1	3	1	1	7	7	3	0	0	0	6	6
071812	15:22:49	10003	Trial2BackFrS	NS	17	0	1000	1	121	15:22:49	2452413	4	3	1	1	1	1	3	1	1	7	7	3	0	0	0	6	6
071812	15:22:49	10003	Trial2BackFrS	NS	17	0	1000	1	121	15:22:49	2453933	4	3	1	1	1	1	3	1	1	7	7	3	0	0	0	6	6
071812	15:22:49	10003	Trial2BackFrS	NS	17	0	1000	1	121	15:22:49	2455452	4	3	1	1	1	1	3	1	1	7	7	3	0	0	0	6	6
071812	15:22:49	10003	Trial2BackFrS	NS	17	0	1000	1	121	15:22:49	2456971	4	3	1	1	1	1	3	1	1	7	7	3	0	0	0	6	6
071812	15:22:49	10003	Trial2BackFrS	YS	17	0	1000	0	121	15:22:49	2458491	4	3	1	1	1	1	3	1	1	7	7	3	0	0	0	6	6
071812	15:22:49	10003	Trial2BackFrS	NS	17	0	1000	1	121	15:22:49	2460010	4	3	1	1	1	1	3	1	1	7	7	3	0	0	0	6	6
071812	15:22:49	10003	Trial2BackFrS	NS	17	0	1000	1	121	15:22:49	2461530	4	3	1	1	1	1	3	1	1	7	7	3	0	0	0	6	6
071812	15:22:49	10003	Trial2BackFrS	NS	17	0	1000	1	121	15:22:49	2463049	4	3	1	1	1	1	3	1	1	7	7	3	0	0	0	6	6
071812	15:22:49	10003	Trial2BackFrS	NS	17	0	1000	1	121	15:22:49	2464568	4	3	1	1	1	1	3	1	1	7	7	3	0	0	0	6	6
071812	15:22:49	10003	Trial2BackFrS	YS	17	57	475	1	121	15:22:49	2465568	4	3	1	1	1	1	3	1	1	7	7	3	0	0	0	6	6
071812	15:22:49	10003	Trial2BackFrS	NS	17	0	1000	1	121	15:22:49	2467594	4	3	1	1	1	1	3	1	1	7	7	3	0	0	0	6	6
071812	15:22:49	10003	Trial2BackFrS	NS	17	0	1000	1	121	15:22:49	2469113	4	3	1	1	1	1	3	1	1	7	7	3	0	0	0	6	6
071812	15:22:49	10003	Trial2BackFrS	NS	17	0	1000	1	121	15:22:49	2470632	4	3	1	1	1	1	3	1	1	7	7	3	0	0	0	6	6
071812	15:22:49	10003	Trial2BackFrS	NS	17	0	1000	1	121	15:22:49	2472152	4	3	1	1	1	1	3	1	1	7	7	3	0	0	0	6	6
071812	15:22:49	10003	Trial2BackFrS	NS	17	0	1000	1	121	15:22:49	2473671	4	3	1	1	1	1	3	1	1	7	7	3	0	0	0	6	6
071812	15:22:49	10003	Trial2BackFrS	NS	17	0	1000	1	121	15:22:49	2475191	4	3	1	1	1	1	3	1	1	7	7	3	0	0	0	6	6
071812	15:22:49	10003	Trial2BackFrS	YS	17	0	1000	0	121	15:22:49	2476710	4	3	1	1	1	1	3	1	1	7	7	3	0	0	0	6	6
071812	15:22:49	10003	Trial2BackFrS	NS	17	0	1000	1	121	15:22:49	2478229	4	3	1	1	1	1	3	1	1	7	7	3	0	0	0	6	6
071812	15:22:49	10003	Trial2BackFrS	NS	17	0	1000	1	121	15:22:49	2479749	4	3	1	1	1	1	3	1	1	7	7	3	0	0	0	6	6
071812	15:22:49	10003	Trial2BackFrS	NS	17	0	1000	1	121	15:22:49	2481268	4	3	1	1	1	1	3	1	1	7	7	3	0	0	0	6	6
071812	15:22:49	10003	Trial2BackFrS	NS	17	57	639	0	121	15:22:49	2482441	4	3	1	1	1	1	3	1	1	7	7	3	0	0	0	6	6
071812	15:22:49	10003	Trial2BackFrS	NS	17	0	1000	1	121	15:22:49	2484294	4	3	1	1	1	1	3	1	1	7	7	3	0	0	0	6	6
071812	15:22:49	10003	Trial2BackFrS	NS	17	0	1000	1	121	15:22:49	2485813	4	3	1	1	1	1	3	1	1	7	7	3	0	0	0	6	6
071812	15:22:49	10003	Trial2BackFrS	NS	17	0	1000	1	121	15:22:49	2487332	4	3	1	1	1	1	3	1	1	7	7	3	0	0	0	6	6
071812	15:22:49	10003	Trial2BackFrS	YS	17	57	622	1	121	15:22:49	2488479	4	3	1	1	1	1	3	1	1	7	7	3	0	0	0	6	6
071812	15:22:49	10003	Trial2BackFrS	NS	17	0	1000	1	121	15:22:49	2490358	4	3	1	1	1	1	3	1	1	7	7	3	0	0	0	6	6
071812	15:22:49	10003	Trial2BackFrS	NS	17	0	1000	1	121	15:22:49	2491877	4	3	1	1	1	1	3	1	1	7	7	3	0	0	0	6	6
071812	15:22:49	10003	Trial2BackFrS	NS	17	0	1000	1	121	15:22:49	2493397	4	3	1	1	1	1	3	1	1	7	7	3	0	0	0	6	6
071812	15:22:49	10003	Trial2BackFrS	NS	17	0	1000	1	121	15:22:49	2494916	4	3	1	1	1	1	3	1	1	7	7	3	0	0	0	6	6
071812	15:22:49	10003	Trial2BackFrS	YS	17	57	526	1	121	15:22:49	2495969	4	3	1	1	1	1	3	1	1	7	7	3	0	0	0	6	6
071812	15:22:49	10003	Trial2BackFrS	NS	17	0	1000	1	121	15:22:49	2497941	4	3	1	1	1	1	3	1	1	7	7	3	0	0	0	6	6
071812	15:22:49	10003	Trial2BackFrS	NS	17	0	1000	1	121	15:22:49	2499461	4	3	1	1	1	1	3	1	1	7	7	3	0	0	0	6	6
071812	15:22:49	10003	Trial2BackFrS	YS	17	57	669	1	121	15:22:49	2500660	4	3	1	1	1	1	3	1	1	7	7	3	0	0	0	6	6
071812	15:22:49	10003	Trial2BackFrS	NS	17	0	1000	1	121	15:22:49	2502486	4	3	1	1	1	1	3	1	1	7	7	3	0	0	0	6	6
071812	15:22:49	10003	Trial2BackFrS	NS	17	0	1000	1	121	15:22:49	2504006	4	3	1	1	1	1	3	1	1	7	7	3	0	0	0	6	6
071812	15:22:49	10003	Trial2BackFrS	NS	17	0	1000	1	121	15:22:49	2505525	4	3	1	1	1	1	3	1	1	7	7	3	0	0	0	6	6
071812	15:22:49	10003	Trial2BackFrS	NS	17	0	1000	1	121	15:22:49	2507044	4	3	1	1	1	1	3	1	1	7	7	3	0	0	0	6	6
071812	15:22:49	10003	Trial2BackFrS	NS	17	0	1000	1	121	15:22:49	2508564	4	3	1	1	1	1	3	1	1	7	7	3	0	0	0	6	6
071812	15:22:49	10003	Trial2BackFrS	NS	17	0	1000	1	121	15:22:49	2510083	4	3	1	1	1	1	3	1	1	7	7	3	0	0	0	6	6
071812	15:22:49	10003	Trial2BackFrS	YS	17	57	655	1	121	15:22:49	2511269	4	3	1	1	1	1	3	1	1	7	7	3	0	0	0	6	6
071812	15:22:49	10003	Trial2BackFrS	NS	17	0	1000	1	121	15:22:49	2513109	4	3	1	1	1	1	3	1	1	7	7	3	0	0	0	6	6
071812	15:22:49	10003	Trial2BackFrS	NS	17	0	1000	1	121	15:22:49	2514628	4	3	1	1	1	1	3	1	1	7	7	3	0	0	0	6	6
071812	15:22:49	10003	Trial2BackFrS	NS	17	0	1000	1	121	15:22:49	2516147	4	3	1	1	1	1	3	1	1	7	7	3	0	0	0	6	6
071812	15:22:49	10003	Trial2BackFrS	NS	17	0	1000	1	121	15:22:49	2517667	4	3	1	1	1	1	3	1	1	7	7	3	0	0	0	6	6
071812	15:22:49	10003	Trial2BackFrS	YS	17	57	447	1	121	15:22:49	2518640	4	3	1	1	1	1	3	1	1	7	7	3	0	0	0	6	6
071812	15:22:49	10003	Trial2BackFrS	NS	17	0	1000	1	121	15:22:49	2520692	4	3	1	1	1	1	3	1	1	7	7	3	0	0	0	6	6
071812	15:22:49	10003	Trial2BackFrS	NS	17	0	1000	1	121	15:22:49	2522212	4	3	1	1	1	1	3	1	1	7	7	3	0	0	0	6	6
071812	15:22:49	10003	Trial2BackFrS	NS	17	0	1000	1	121	15:22:49	2523731	4	3	1	1	1	1	3	1	1	7	7	3	0	0	0	6	6
071812	15:22:49	10003	Trial2BackFrS	NS	17	0	1000	1	121	15:22:49	2525250	4	3	1	1	1	1	3	1	1	7	7	3	0	0	0	6	6
071812	15:22:49	10003	Trial2BackFrS	YS	17	0	1000	0	121	15:22:49	2526770	4	3	1	1	1	1	3	1	1	7	7	3	0	0	0	6	6
071812	15:22:49	10003	Trial2BackFrS	NS	17	0	1000	1	121	15:22:49	2528289	4	3	1	1	1	1	3	1	1	7	7	3	0	0	0	6	6
071812	15:22:49	10003	Trial2BackFrS	NS	17	0	1000	1	121	15:22:49	2529809	4	3	1	1	1	1	3	1	1	7	7	3	0	0	0	6	6
071812	15:22:49	10003	Trial2BackFrS	YS	17	57	513	1	121	15:22:49	2530848	4	3	1	1	1	1	3	1	1	7	7	3	0	0	0	6	6
071812	15:22:49	10003	Trial2BackFrS	NS	17	0	1000	1	121	15:22:49	2532834	4	3	1	1	1	1	3	1	1	7	7	3	0	0	0	6	6
071812	15:22:49	10003	Trial2BackFrS	NS	17	0	1000	1	121	15:22:49	2534354	4	3	1	1	1	1	3	1	1	7	7	3	0	0	0	6	6
071812	15:22:49	10003	Trial2BackFrS	NS	17	0	1000	1	121	15:22:49	2535873	4	3	1	1	1	1	3	1	1	7	7	3	0	0	0	6	6
071812	15:22:49	10003	Trial2BackFrS	NS	17	0	1000	1	121	15:22:49	2537392	4	3	1	1	1	1	3	1	1	7	7	3	0	0	0	6	6
071812	15:22:49	10003	Trial2BackFrS	NS	17	0	1000	1	121	15:22:49	2538912	4	3	1	1	1	1	3	1	1	7	7	3	0	0	0	6	6
071812	15:22:49	10003	Trial2BackFrS	NS	17	0	1000	1	121	15:22:49	2540431	4	3	1	1	1	1	3	1	1	7	7	3	0	0	0	6	6
071812	15:22:49	10003	Trial2BackFrS	NS	17	0	1000	1	121	15:22:49	2541950	4	3	1	1	1	1	3	1	1	7	7	3	0	0	0	6	6
071812	15:22:49	10003	Trial2BackFrS	NS	17	0	1000	1	121	15:22:49	2543470	4	3	1	1	1	1	3	1	1	7	7	3	0	0	0	6	6
071812	15:22:49	10003	Trial2BackFrS	YS	17	57	404	1	121	15:22:49	2544403	4	3	1	1	1	1	3	1	1	7	7	3	0	0	0	6	6
071812	15:22:49	10003	Trial2BackFrS	NS	17	0	1000	1	121	15:22:49	2546495	4	3	1	1	1	1	3	1	1	7	7	3	0	0	0	6	6
071812	15:22:49	10003	Trial2BackFrS	NS	17	0	1000	1	121	15:22:49	2548015	4	3	1	1	1	1	3	1	1	7	7	3	0	0	0	6	6
071812	15:22:49	10003	Trial2BackFrS	NS	17	0	1000	1	121	15:22:49	2549534	4	3	1	1	1	1	3	1	1	7	7	3	0	0	0	6	6
071812	15:22:49	10003	Trial2BackFrS	NS	17	0	1000	1	121	15:22:49	2551053	4	3	1	1	1	1	3	1	1	7	7	3	0	0	0	6	6
071812	15:22:49	10003	Trial2BackFrS	NS	17	0	1000	1	121	15:22:49	2552573	4	3	1	1	1	1	3	1	1	7	7	3	0	0	0	6	6
071812	15:22:49	10003	Trial2BackFrS	NS	17	0	1000	1	121	15:22:49	2554092	4	3	1	1	1	1	3	1	1	7	7	3	0	0	0	6	6
071812	15:22:49	10003	Trial2BackFrS	NS	17	0	1000	1	121	15:22:49	2555611	4	3	1	1	1	1	3	1	1	7	7	3	0	0	0	6	6
071812	15:22:49	10003	Trial2BackFrS	YS	17	57	725	1	121	15:22:49	2556864	4	3	1	1	1	1	3	1	1	7	7	3	0	0	0	6	6
071812	15:22:49	10003	Trial2BackFrS	NS	17	0	1000	1	121	15:22:49	2558637	4	3	1	1	1	1	3	1	1	7	7	3	0	0	0	6	6
071812	15:22:49	10003	Trial2BackFrS	NS	17	0	1000	1	121	15:22:49	2560156	4	3	1	1	1	1	3	1	1	7	7	3	0	0	0	6	6
071812	15:22:49	10003	Trial2BackFrS	NS	17	0	1000	1	121	15:22:49	2561676	4	3	1	1	1	1	3	1	1	7	7	3	0	0	0	6	6
071812	15:22:49	10003	Trial2BackFrS	NS	17	0	1000	1	121	15:22:49	2563195	4	3	1	1	1	1	3	1	1	7	7	3	0	0	0	6	6
071812	15:22:49	10003	Trial2BackFrS	NS	17	0	1000	1	121	15:22:49	2564715	4	3	1	1	1	1	3	1	1	7	7	3	0	0	0	6	6
071812	15:22:49	10003	Trial2BackFrS	NS	17	0	1000	1	121	15:22:49	2566234	4	3	1	1	1	1	3	1	1	7	7	3	0	0	0	6	6
071812	15:22:49	10003	Trial2BackFrS	NS	17	0	1000	1	121	15:22:49	2567753	4	3	1	1	1	1	3	1	1	7	7	3	0	0	0	6	6
071812	15:22:49	10003	Trial2BackFrS	NS	17	0	1000	1	121	15:22:49	2569273	4	3	1	1	1	1	3	1	1	7	7	3	0	0	0	6	6
071812	15:22:49	10003	Trial2BackFrS	NS	17	0	1000	1	121	15:22:49	2570792	4	3	1	1	1	1	3	1	1	7	7	3	0	0	0	6	6
071812	15:22:49	10003	Trial2BackFrS	YS	17	0	1000	0	121	15:22:49	2572311	4	3	1	1	1	1	3	1	1	7	7	3	0	0	0	6	6
071812	15:22:49	10003	Trial2BackFrS	NS	17	0	1000	1	121	15:22:49	2573831	4	3	1	1	1	1	3	1	1	7	7	3	0	0	0	6	6
071812	15:22:49	10003	ClockFr3mo	ClockFr3mo	19	Clock1	60582	0	121	15:22:49	2634526	4	3	1	1	1	1	3	1	1	7	7	3	1	0	0	6	6
071812	15:22:49	10003	ClockFr3mo	ClockFr3mo	19	Clock11	307	0	121	15:22:49	2634873	4	3	1	1	1	1	3	1	1	7	7	3	1	1	0	6	6
071812	15:22:49	10003	ClockFr3mo	ClockFr3mo	19	Clock111	536	0	121	15:22:49	2635446	4	3	1	1	1	1	3	1	1	7	7	3	1	1	1	6	6
071812	15:22:49	10003	ClockFr3mo	ClockFr3mo	19	Clockdone	443	0	121	15:22:49	2635926	4	3	1	1	1	1	3	1	1	7	7	3	1	1	1	6	6
071812	15:22:49	10003	FASFrVF3mo	StopFrVF3mo	20	19	8860	0	121	15:22:49	2763596	4	3	1	1	1	1	3	1	1	7	7	3	1	1	1	6	6
