date	time	subject	blockcode	trialcode	values.TaskNumber	response	latency	correct	values.Score	script.starttime	script.elapsedtime	values.ScoreS7	values.Word1	values.Word2	values.Word3	values.Word4	values.Word5	values.Word6	values.Word7	values.Word8	values.DigitSpanFwrd	values.DigitSpanBack	values.ScoreAbs	values.Contour	values.Numbers	values.Hands	values.corsiblockspanFwrd	values.corsiblockspanRev
071212	16:18:20	10025	Language	Language	0	English	859627	0	0	16:18:20	859834	0	0	0	0	0	0	0	0	0	0	0	0	0	0	0	0	0
071212	16:18:20	10025	Session	Session	0	Baseline	670	0	0	16:18:20	860579	0	0	0	0	0	0	0	0	0	0	0	0	0	0	0	0	0
071212	16:18:20	10025	HandEng	HandEng	0	Right	2478	0	0	16:18:20	863151	0	0	0	0	0	0	0	0	0	0	0	0	0	0	0	0	0
071212	16:18:20	10025	CubeEng	CubeEng	1	1Cube	25508	0	0	16:18:20	931869	0	0	0	0	0	0	0	0	0	0	0	0	0	0	0	0	0
071212	16:18:20	10025	pm.simpleEngRight	blank.simpleEng	2	0	2387	1	0	16:18:20	959058	0	0	0	0	0	0	0	0	0	0	0	0	0	0	0	0	0
071212	16:18:20	10025	pm.simpleEngRight	pm.simpleEng	2	57	456	0	0	16:18:20	959551	0	0	0	0	0	0	0	0	0	0	0	0	0	0	0	0	0
071212	16:18:20	10025	pm.simpleEngRight	blank.simpleEng	2	0	1587	1	0	16:18:20	961164	0	0	0	0	0	0	0	0	0	0	0	0	0	0	0	0	0
071212	16:18:20	10025	pm.simpleEngRight	pm.simpleEng	2	57	446	0	0	16:18:20	961644	0	0	0	0	0	0	0	0	0	0	0	0	0	0	0	0	0
071212	16:18:20	10025	pm.simpleEngRight	blank.simpleEng	2	0	1687	1	0	16:18:20	963363	0	0	0	0	0	0	0	0	0	0	0	0	0	0	0	0	0
071212	16:18:20	10025	pm.simpleEngRight	pm.simpleEng	2	57	342	0	0	16:18:20	963736	0	0	0	0	0	0	0	0	0	0	0	0	0	0	0	0	0
071212	16:18:20	10025	pm.simpleEngRight	blank.simpleEng	2	0	1787	1	0	16:18:20	965549	0	0	0	0	0	0	0	0	0	0	0	0	0	0	0	0	0
071212	16:18:20	10025	pm.simpleEngRight	pm.simpleEng	2	57	352	0	0	16:18:20	965935	0	0	0	0	0	0	0	0	0	0	0	0	0	0	0	0	0
071212	16:18:20	10025	pm.simpleEngRight	blank.simpleEng	2	0	2487	1	0	16:18:20	968454	0	0	0	0	0	0	0	0	0	0	0	0	0	0	0	0	0
071212	16:18:20	10025	pm.simpleEngRight	pm.simpleEng	2	57	387	0	0	16:18:20	968881	0	0	0	0	0	0	0	0	0	0	0	0	0	0	0	0	0
071212	16:18:20	10025	pm.simpleEngRight	blank.simpleEng	2	0	2287	1	0	16:18:20	971200	0	0	0	0	0	0	0	0	0	0	0	0	0	0	0	0	0
071212	16:18:20	10025	pm.simpleEngRight	pm.simpleEng	2	57	282	0	0	16:18:20	971519	0	0	0	0	0	0	0	0	0	0	0	0	0	0	0	0	0
071212	16:18:20	10025	pm.simpleEngRight	blank.simpleEng	2	0	2187	1	0	16:18:20	973732	0	0	0	0	0	0	0	0	0	0	0	0	0	0	0	0	0
071212	16:18:20	10025	pm.simpleEngRight	pm.simpleEng	2	57	389	0	0	16:18:20	974159	0	0	0	0	0	0	0	0	0	0	0	0	0	0	0	0	0
071212	16:18:20	10025	pm.simpleEngRight	blank.simpleEng	2	0	1987	1	0	16:18:20	976171	0	0	0	0	0	0	0	0	0	0	0	0	0	0	0	0	0
071212	16:18:20	10025	pm.simpleEngRight	pm.simpleEng	2	57	318	0	0	16:18:20	976531	0	0	0	0	0	0	0	0	0	0	0	0	0	0	0	0	0
071212	16:18:20	10025	pm.simpleEngRight	blank.simpleEng	2	0	1487	1	0	16:18:20	978050	0	0	0	0	0	0	0	0	0	0	0	0	0	0	0	0	0
071212	16:18:20	10025	pm.simpleEngRight	pm.simpleEng	2	57	391	0	0	16:18:20	978477	0	0	0	0	0	0	0	0	0	0	0	0	0	0	0	0	0
071212	16:18:20	10025	pm.simpleEngRight	blank.simpleEng	2	0	1887	1	0	16:18:20	980396	0	0	0	0	0	0	0	0	0	0	0	0	0	0	0	0	0
071212	16:18:20	10025	pm.simpleEngRight	pm.simpleEng	2	57	285	0	0	16:18:20	980716	0	0	0	0	0	0	0	0	0	0	0	0	0	0	0	0	0
071212	16:18:20	10025	pm.simpleEngRight	blank.simpleEng	2	0	2087	1	0	16:18:20	982835	0	0	0	0	0	0	0	0	0	0	0	0	0	0	0	0	0
071212	16:18:20	10025	pm.simpleEngRight	pm.simpleEng	2	57	310	0	0	16:18:20	983182	0	0	0	0	0	0	0	0	0	0	0	0	0	0	0	0	0
071212	16:18:20	10025	pm.simpleEngRight	blank.simpleEng	2	0	1487	1	0	16:18:20	984687	0	0	0	0	0	0	0	0	0	0	0	0	0	0	0	0	0
071212	16:18:20	10025	pm.simpleEngRight	pm.simpleEng	2	57	282	0	0	16:18:20	985007	0	0	0	0	0	0	0	0	0	0	0	0	0	0	0	0	0
071212	16:18:20	10025	pm.simpleEngRight	blank.simpleEng	2	0	2487	1	0	16:18:20	987526	0	0	0	0	0	0	0	0	0	0	0	0	0	0	0	0	0
071212	16:18:20	10025	pm.simpleEngRight	pm.simpleEng	2	57	306	0	0	16:18:20	987873	0	0	0	0	0	0	0	0	0	0	0	0	0	0	0	0	0
071212	16:18:20	10025	pm.simpleEngRight	blank.simpleEng	2	0	1687	1	0	16:18:20	989579	0	0	0	0	0	0	0	0	0	0	0	0	0	0	0	0	0
071212	16:18:20	10025	pm.simpleEngRight	pm.simpleEng	2	57	365	0	0	16:18:20	989979	0	0	0	0	0	0	0	0	0	0	0	0	0	0	0	0	0
071212	16:18:20	10025	pm.simpleEngRight	blank.simpleEng	2	0	1987	1	0	16:18:20	991991	0	0	0	0	0	0	0	0	0	0	0	0	0	0	0	0	0
071212	16:18:20	10025	pm.simpleEngRight	pm.simpleEng	2	57	242	0	0	16:18:20	992271	0	0	0	0	0	0	0	0	0	0	0	0	0	0	0	0	0
071212	16:18:20	10025	pm.simpleEngRight	blank.simpleEng	2	0	2287	1	0	16:18:20	994590	0	0	0	0	0	0	0	0	0	0	0	0	0	0	0	0	0
071212	16:18:20	10025	pm.simpleEngRight	pm.simpleEng	2	57	251	0	0	16:18:20	994883	0	0	0	0	0	0	0	0	0	0	0	0	0	0	0	0	0
071212	16:18:20	10025	pm.simpleEngRight	blank.simpleEng	2	0	2187	1	0	16:18:20	997096	0	0	0	0	0	0	0	0	0	0	0	0	0	0	0	0	0
071212	16:18:20	10025	pm.simpleEngRight	pm.simpleEng	2	57	257	0	0	16:18:20	997389	0	0	0	0	0	0	0	0	0	0	0	0	0	0	0	0	0
071212	16:18:20	10025	pm.simpleEngRight	blank.simpleEng	2	0	1587	1	0	16:18:20	999002	0	0	0	0	0	0	0	0	0	0	0	0	0	0	0	0	0
071212	16:18:20	10025	pm.simpleEngRight	pm.simpleEng	2	57	271	0	0	16:18:20	999308	0	0	0	0	0	0	0	0	0	0	0	0	0	0	0	0	0
071212	16:18:20	10025	pm.simpleEngRight	blank.simpleEng	2	0	1787	1	0	16:18:20	1001121	0	0	0	0	0	0	0	0	0	0	0	0	0	0	0	0	0
071212	16:18:20	10025	pm.simpleEngRight	pm.simpleEng	2	57	264	0	0	16:18:20	1001427	0	0	0	0	0	0	0	0	0	0	0	0	0	0	0	0	0
071212	16:18:20	10025	pm.simpleEngRight	blank.simpleEng	2	0	1887	1	0	16:18:20	1003346	0	0	0	0	0	0	0	0	0	0	0	0	0	0	0	0	0
071212	16:18:20	10025	pm.simpleEngRight	pm.simpleEng	2	57	246	0	0	16:18:20	1003626	0	0	0	0	0	0	0	0	0	0	0	0	0	0	0	0	0
071212	16:18:20	10025	pm.simpleEngRight	blank.simpleEng	2	0	2387	1	0	16:18:20	1006039	0	0	0	0	0	0	0	0	0	0	0	0	0	0	0	0	0
071212	16:18:20	10025	pm.simpleEngRight	pm.simpleEng	2	57	306	0	0	16:18:20	1006385	0	0	0	0	0	0	0	0	0	0	0	0	0	0	0	0	0
071212	16:18:20	10025	pm.simpleEngRight	blank.simpleEng	2	0	2087	1	0	16:18:20	1008504	0	0	0	0	0	0	0	0	0	0	0	0	0	0	0	0	0
071212	16:18:20	10025	pm.simpleEngRight	pm.simpleEng	2	57	256	0	0	16:18:20	1008798	0	0	0	0	0	0	0	0	0	0	0	0	0	0	0	0	0
071212	16:18:20	10025	pm.simpleEngRight	blank.simpleEng	2	0	1587	1	0	16:18:20	1010410	0	0	0	0	0	0	0	0	0	0	0	0	0	0	0	0	0
071212	16:18:20	10025	pm.simpleEngRight	pm.simpleEng	2	57	238	0	0	16:18:20	1010690	0	0	0	0	0	0	0	0	0	0	0	0	0	0	0	0	0
071212	16:18:20	10025	pm.simpleEngRight	blank.simpleEng	2	0	2487	1	0	16:18:20	1013209	0	0	0	0	0	0	0	0	0	0	0	0	0	0	0	0	0
071212	16:18:20	10025	pm.simpleEngRight	pm.simpleEng	2	57	239	0	0	16:18:20	1013489	0	0	0	0	0	0	0	0	0	0	0	0	0	0	0	0	0
071212	16:18:20	10025	pm.simpleEngRight	blank.simpleEng	2	0	1787	1	0	16:18:20	1015302	0	0	0	0	0	0	0	0	0	0	0	0	0	0	0	0	0
071212	16:18:20	10025	pm.simpleEngRight	pm.simpleEng	2	57	274	0	0	16:18:20	1015608	0	0	0	0	0	0	0	0	0	0	0	0	0	0	0	0	0
071212	16:18:20	10025	pm.simpleEngRight	blank.simpleEng	2	0	2087	1	0	16:18:20	1017727	0	0	0	0	0	0	0	0	0	0	0	0	0	0	0	0	0
071212	16:18:20	10025	pm.simpleEngRight	pm.simpleEng	2	57	232	0	0	16:18:20	1017994	0	0	0	0	0	0	0	0	0	0	0	0	0	0	0	0	0
071212	16:18:20	10025	pm.simpleEngRight	blank.simpleEng	2	0	2387	1	0	16:18:20	1020406	0	0	0	0	0	0	0	0	0	0	0	0	0	0	0	0	0
071212	16:18:20	10025	pm.simpleEngRight	pm.simpleEng	2	57	274	0	0	16:18:20	1020713	0	0	0	0	0	0	0	0	0	0	0	0	0	0	0	0	0
071212	16:18:20	10025	pm.simpleEngRight	blank.simpleEng	2	0	1687	1	0	16:18:20	1022432	0	0	0	0	0	0	0	0	0	0	0	0	0	0	0	0	0
071212	16:18:20	10025	pm.simpleEngRight	pm.simpleEng	2	57	248	0	0	16:18:20	1022712	0	0	0	0	0	0	0	0	0	0	0	0	0	0	0	0	0
071212	16:18:20	10025	pm.simpleEngRight	blank.simpleEng	2	0	2287	1	0	16:18:20	1025031	0	0	0	0	0	0	0	0	0	0	0	0	0	0	0	0	0
071212	16:18:20	10025	pm.simpleEngRight	pm.simpleEng	2	57	257	0	0	16:18:20	1025324	0	0	0	0	0	0	0	0	0	0	0	0	0	0	0	0	0
071212	16:18:20	10025	pm.simpleEngRight	blank.simpleEng	2	0	1887	1	0	16:18:20	1027243	0	0	0	0	0	0	0	0	0	0	0	0	0	0	0	0	0
071212	16:18:20	10025	pm.simpleEngRight	pm.simpleEng	2	57	301	0	0	16:18:20	1027576	0	0	0	0	0	0	0	0	0	0	0	0	0	0	0	0	0
071212	16:18:20	10025	pm.simpleEngRight	blank.simpleEng	2	0	1487	1	0	16:18:20	1029082	0	0	0	0	0	0	0	0	0	0	0	0	0	0	0	0	0
071212	16:18:20	10025	pm.simpleEngRight	pm.simpleEng	2	57	317	0	0	16:18:20	1029442	0	0	0	0	0	0	0	0	0	0	0	0	0	0	0	0	0
071212	16:18:20	10025	pm.simpleEngRight	blank.simpleEng	2	0	1987	1	0	16:18:20	1031455	0	0	0	0	0	0	0	0	0	0	0	0	0	0	0	0	0
071212	16:18:20	10025	pm.simpleEngRight	pm.simpleEng	2	57	265	0	0	16:18:20	1031761	0	0	0	0	0	0	0	0	0	0	0	0	0	0	0	0	0
071212	16:18:20	10025	pm.simpleEngRight	blank.simpleEng	2	0	2187	1	0	16:18:20	1033974	0	0	0	0	0	0	0	0	0	0	0	0	0	0	0	0	0
071212	16:18:20	10025	pm.simpleEngRight	pm.simpleEng	2	57	274	0	0	16:18:20	1034280	0	0	0	0	0	0	0	0	0	0	0	0	0	0	0	0	0
071212	16:18:20	10025	pm.simpleEngRight	blank.simpleEng	2	0	1887	1	0	16:18:20	1036200	0	0	0	0	0	0	0	0	0	0	0	0	0	0	0	0	0
071212	16:18:20	10025	pm.simpleEngRight	pm.simpleEng	2	57	224	0	0	16:18:20	1036466	0	0	0	0	0	0	0	0	0	0	0	0	0	0	0	0	0
071212	16:18:20	10025	pm.simpleEngRight	blank.simpleEng	2	0	1587	1	0	16:18:20	1038079	0	0	0	0	0	0	0	0	0	0	0	0	0	0	0	0	0
071212	16:18:20	10025	pm.simpleEngRight	pm.simpleEng	2	57	233	0	0	16:18:20	1038345	0	0	0	0	0	0	0	0	0	0	0	0	0	0	0	0	0
071212	16:18:20	10025	pm.simpleEngRight	blank.simpleEng	2	0	1987	1	0	16:18:20	1040358	0	0	0	0	0	0	0	0	0	0	0	0	0	0	0	0	0
071212	16:18:20	10025	pm.simpleEngRight	pm.simpleEng	2	57	241	0	0	16:18:20	1040638	0	0	0	0	0	0	0	0	0	0	0	0	0	0	0	0	0
071212	16:18:20	10025	pm.simpleEngRight	blank.simpleEng	2	0	2387	1	0	16:18:20	1043050	0	0	0	0	0	0	0	0	0	0	0	0	0	0	0	0	0
071212	16:18:20	10025	pm.simpleEngRight	pm.simpleEng	2	57	877	0	0	16:18:20	1043970	0	0	0	0	0	0	0	0	0	0	0	0	0	0	0	0	0
071212	16:18:20	10025	pm.simpleEngRight	blank.simpleEng	2	0	2287	1	0	16:18:20	1046289	0	0	0	0	0	0	0	0	0	0	0	0	0	0	0	0	0
071212	16:18:20	10025	pm.simpleEngRight	pm.simpleEng	2	57	246	0	0	16:18:20	1046569	0	0	0	0	0	0	0	0	0	0	0	0	0	0	0	0	0
071212	16:18:20	10025	pm.simpleEngRight	blank.simpleEng	2	0	2187	1	0	16:18:20	1048781	0	0	0	0	0	0	0	0	0	0	0	0	0	0	0	0	0
071212	16:18:20	10025	pm.simpleEngRight	pm.simpleEng	2	57	250	0	0	16:18:20	1049061	0	0	0	0	0	0	0	0	0	0	0	0	0	0	0	0	0
071212	16:18:20	10025	pm.simpleEngRight	blank.simpleEng	2	0	2087	1	0	16:18:20	1051180	0	0	0	0	0	0	0	0	0	0	0	0	0	0	0	0	0
071212	16:18:20	10025	pm.simpleEngRight	pm.simpleEng	2	57	218	0	0	16:18:20	1051433	0	0	0	0	0	0	0	0	0	0	0	0	0	0	0	0	0
071212	16:18:20	10025	Trial2BackEng	N	3	0	1000	1	1	16:18:20	1116313	0	0	0	0	0	0	0	0	0	0	0	0	0	0	0	0	0
071212	16:18:20	10025	Trial2BackEng	N	3	0	1000	1	2	16:18:20	1117833	0	0	0	0	0	0	0	0	0	0	0	0	0	0	0	0	0
071212	16:18:20	10025	Trial2BackEng	N	3	0	1000	1	3	16:18:20	1119352	0	0	0	0	0	0	0	0	0	0	0	0	0	0	0	0	0
071212	16:18:20	10025	Trial2BackEng	N	3	0	1000	1	4	16:18:20	1120871	0	0	0	0	0	0	0	0	0	0	0	0	0	0	0	0	0
071212	16:18:20	10025	Trial2BackEng	N	3	0	1000	1	5	16:18:20	1122391	0	0	0	0	0	0	0	0	0	0	0	0	0	0	0	0	0
071212	16:18:20	10025	Trial2BackEng	N	3	0	1000	1	6	16:18:20	1123910	0	0	0	0	0	0	0	0	0	0	0	0	0	0	0	0	0
071212	16:18:20	10025	Trial2BackEng	N	3	0	1000	1	7	16:18:20	1125430	0	0	0	0	0	0	0	0	0	0	0	0	0	0	0	0	0
071212	16:18:20	10025	Trial2BackEng	N	3	0	1000	1	8	16:18:20	1126949	0	0	0	0	0	0	0	0	0	0	0	0	0	0	0	0	0
071212	16:18:20	10025	Trial2BackEng	Y	3	57	660	1	9	16:18:20	1128135	0	0	0	0	0	0	0	0	0	0	0	0	0	0	0	0	0
071212	16:18:20	10025	Trial2BackEng	N	3	0	1000	1	10	16:18:20	1129975	0	0	0	0	0	0	0	0	0	0	0	0	0	0	0	0	0
071212	16:18:20	10025	Trial2BackEng	N	3	0	1000	1	11	16:18:20	1131494	0	0	0	0	0	0	0	0	0	0	0	0	0	0	0	0	0
071212	16:18:20	10025	Trial2BackEng	N	3	0	1000	1	12	16:18:20	1133013	0	0	0	0	0	0	0	0	0	0	0	0	0	0	0	0	0
071212	16:18:20	10025	Trial2BackEng	Y	3	57	660	1	13	16:18:20	1134199	0	0	0	0	0	0	0	0	0	0	0	0	0	0	0	0	0
071212	16:18:20	10025	Trial2BackEng	N	3	0	1000	1	14	16:18:20	1136038	0	0	0	0	0	0	0	0	0	0	0	0	0	0	0	0	0
071212	16:18:20	10025	Trial2BackEng	N	3	0	1000	1	15	16:18:20	1137558	0	0	0	0	0	0	0	0	0	0	0	0	0	0	0	0	0
071212	16:18:20	10025	Trial2BackEng	N	3	0	1000	1	16	16:18:20	1139077	0	0	0	0	0	0	0	0	0	0	0	0	0	0	0	0	0
071212	16:18:20	10025	Trial2BackEng	N	3	0	1000	1	17	16:18:20	1140596	0	0	0	0	0	0	0	0	0	0	0	0	0	0	0	0	0
071212	16:18:20	10025	Trial2BackEng	N	3	0	1000	1	18	16:18:20	1142116	0	0	0	0	0	0	0	0	0	0	0	0	0	0	0	0	0
071212	16:18:20	10025	Trial2BackEng	Y	3	57	405	1	19	16:18:20	1143049	0	0	0	0	0	0	0	0	0	0	0	0	0	0	0	0	0
071212	16:18:20	10025	Trial2BackEng	N	3	0	1000	1	20	16:18:20	1145141	0	0	0	0	0	0	0	0	0	0	0	0	0	0	0	0	0
071212	16:18:20	10025	Trial2BackEng	N	3	0	1000	1	21	16:18:20	1146661	0	0	0	0	0	0	0	0	0	0	0	0	0	0	0	0	0
071212	16:18:20	10025	Trial2BackEng	N	3	0	1000	1	22	16:18:20	1148180	0	0	0	0	0	0	0	0	0	0	0	0	0	0	0	0	0
071212	16:18:20	10025	Trial2BackEng	N	3	0	1000	1	23	16:18:20	1149699	0	0	0	0	0	0	0	0	0	0	0	0	0	0	0	0	0
071212	16:18:20	10025	Trial2BackEng	Y	3	57	357	1	24	16:18:20	1150579	0	0	0	0	0	0	0	0	0	0	0	0	0	0	0	0	0
071212	16:18:20	10025	Trial2BackEng	N	3	0	1000	1	25	16:18:20	1152725	0	0	0	0	0	0	0	0	0	0	0	0	0	0	0	0	0
071212	16:18:20	10025	Trial2BackEng	N	3	0	1000	1	26	16:18:20	1154244	0	0	0	0	0	0	0	0	0	0	0	0	0	0	0	0	0
071212	16:18:20	10025	Trial2BackEng	N	3	0	1000	1	27	16:18:20	1155764	0	0	0	0	0	0	0	0	0	0	0	0	0	0	0	0	0
071212	16:18:20	10025	Trial2BackEng	N	3	0	1000	1	28	16:18:20	1157283	0	0	0	0	0	0	0	0	0	0	0	0	0	0	0	0	0
071212	16:18:20	10025	Trial2BackEng	N	3	0	1000	1	29	16:18:20	1158802	0	0	0	0	0	0	0	0	0	0	0	0	0	0	0	0	0
071212	16:18:20	10025	Trial2BackEng	N	3	0	1000	1	30	16:18:20	1160322	0	0	0	0	0	0	0	0	0	0	0	0	0	0	0	0	0
071212	16:18:20	10025	Trial2BackEng	Y	3	57	358	1	31	16:18:20	1161215	0	0	0	0	0	0	0	0	0	0	0	0	0	0	0	0	0
071212	16:18:20	10025	Trial2BackEng	N	3	0	1000	1	32	16:18:20	1163347	0	0	0	0	0	0	0	0	0	0	0	0	0	0	0	0	0
071212	16:18:20	10025	Trial2BackEng	N	3	0	1000	1	33	16:18:20	1164867	0	0	0	0	0	0	0	0	0	0	0	0	0	0	0	0	0
071212	16:18:20	10025	Trial2BackEng	N	3	0	1000	1	34	16:18:20	1166399	0	0	0	0	0	0	0	0	0	0	0	0	0	0	0	0	0
071212	16:18:20	10025	Trial2BackEng	Y	3	57	409	1	35	16:18:20	1167332	0	0	0	0	0	0	0	0	0	0	0	0	0	0	0	0	0
071212	16:18:20	10025	Trial2BackEng	N	3	0	1000	1	36	16:18:20	1169425	0	0	0	0	0	0	0	0	0	0	0	0	0	0	0	0	0
071212	16:18:20	10025	Trial2BackEng	N	3	0	1000	1	37	16:18:20	1170944	0	0	0	0	0	0	0	0	0	0	0	0	0	0	0	0	0
071212	16:18:20	10025	Trial2BackEng	N	3	0	1000	1	38	16:18:20	1172463	0	0	0	0	0	0	0	0	0	0	0	0	0	0	0	0	0
071212	16:18:20	10025	Trial2BackEng	N	3	0	1000	1	39	16:18:20	1173983	0	0	0	0	0	0	0	0	0	0	0	0	0	0	0	0	0
071212	16:18:20	10025	Trial2BackEng	N	3	0	1000	1	40	16:18:20	1175502	0	0	0	0	0	0	0	0	0	0	0	0	0	0	0	0	0
071212	16:18:20	10025	Trial2BackEng	N	3	0	1000	1	41	16:18:20	1177021	0	0	0	0	0	0	0	0	0	0	0	0	0	0	0	0	0
071212	16:18:20	10025	Trial2BackEng	Y	3	57	394	1	42	16:18:20	1177941	0	0	0	0	0	0	0	0	0	0	0	0	0	0	0	0	0
071212	16:18:20	10025	Trial2BackEng	N	3	0	1000	1	43	16:18:20	1180047	0	0	0	0	0	0	0	0	0	0	0	0	0	0	0	0	0
071212	16:18:20	10025	Trial2BackEng	N	3	0	1000	1	44	16:18:20	1181566	0	0	0	0	0	0	0	0	0	0	0	0	0	0	0	0	0
071212	16:18:20	10025	Trial2BackEng	N	3	0	1000	1	45	16:18:20	1183086	0	0	0	0	0	0	0	0	0	0	0	0	0	0	0	0	0
071212	16:18:20	10025	Trial2BackEng	N	3	0	1000	1	46	16:18:20	1184605	0	0	0	0	0	0	0	0	0	0	0	0	0	0	0	0	0
071212	16:18:20	10025	Trial2BackEng	Y	3	57	362	1	47	16:18:20	1185498	0	0	0	0	0	0	0	0	0	0	0	0	0	0	0	0	0
071212	16:18:20	10025	Trial2BackEng	N	3	0	1000	1	48	16:18:20	1187630	0	0	0	0	0	0	0	0	0	0	0	0	0	0	0	0	0
071212	16:18:20	10025	Trial2BackEng	N	3	0	1000	1	49	16:18:20	1189150	0	0	0	0	0	0	0	0	0	0	0	0	0	0	0	0	0
071212	16:18:20	10025	Trial2BackEng	N	3	0	1000	1	50	16:18:20	1190669	0	0	0	0	0	0	0	0	0	0	0	0	0	0	0	0	0
071212	16:18:20	10025	Trial2BackEng	N	3	0	1000	1	51	16:18:20	1192189	0	0	0	0	0	0	0	0	0	0	0	0	0	0	0	0	0
071212	16:18:20	10025	Trial2BackEng	N	3	0	1000	1	52	16:18:20	1193708	0	0	0	0	0	0	0	0	0	0	0	0	0	0	0	0	0
071212	16:18:20	10025	Trial2BackEng	Y	3	57	347	1	53	16:18:20	1194587	0	0	0	0	0	0	0	0	0	0	0	0	0	0	0	0	0
071212	16:18:20	10025	Trial2BackEng	N	3	0	1000	1	54	16:18:20	1196733	0	0	0	0	0	0	0	0	0	0	0	0	0	0	0	0	0
071212	16:18:20	10025	Trial2BackEng	N	3	0	1000	1	55	16:18:20	1198253	0	0	0	0	0	0	0	0	0	0	0	0	0	0	0	0	0
071212	16:18:20	10025	Trial2BackEng	N	3	0	1000	1	56	16:18:20	1199772	0	0	0	0	0	0	0	0	0	0	0	0	0	0	0	0	0
071212	16:18:20	10025	Trial2BackEng	N	3	0	1000	1	57	16:18:20	1201291	0	0	0	0	0	0	0	0	0	0	0	0	0	0	0	0	0
071212	16:18:20	10025	Trial2BackEng	N	3	0	1000	1	58	16:18:20	1202811	0	0	0	0	0	0	0	0	0	0	0	0	0	0	0	0	0
071212	16:18:20	10025	Trial2BackEng	N	3	0	1000	1	59	16:18:20	1204330	0	0	0	0	0	0	0	0	0	0	0	0	0	0	0	0	0
071212	16:18:20	10025	Trial2BackEng	Y	3	57	396	1	60	16:18:20	1205250	0	0	0	0	0	0	0	0	0	0	0	0	0	0	0	0	0
071212	16:18:20	10025	Trial2BackEng	N	3	0	1000	1	61	16:18:20	1207356	0	0	0	0	0	0	0	0	0	0	0	0	0	0	0	0	0
071212	16:18:20	10025	Trial2BackEng	N	3	0	1000	1	62	16:18:20	1208875	0	0	0	0	0	0	0	0	0	0	0	0	0	0	0	0	0
071212	16:18:20	10025	Trial2BackEng	Y	3	57	459	1	63	16:18:20	1209861	0	0	0	0	0	0	0	0	0	0	0	0	0	0	0	0	0
071212	16:18:20	10025	Trial2BackEng	N	3	0	1000	1	64	16:18:20	1211900	0	0	0	0	0	0	0	0	0	0	0	0	0	0	0	0	0
071212	16:18:20	10025	Trial2BackEng	N	3	0	1000	1	65	16:18:20	1213420	0	0	0	0	0	0	0	0	0	0	0	0	0	0	0	0	0
071212	16:18:20	10025	Trial2BackEng	N	3	0	1000	1	66	16:18:20	1214939	0	0	0	0	0	0	0	0	0	0	0	0	0	0	0	0	0
071212	16:18:20	10025	Trial2BackEng	N	3	0	1000	1	67	16:18:20	1216458	0	0	0	0	0	0	0	0	0	0	0	0	0	0	0	0	0
071212	16:18:20	10025	Trial2BackEng	N	3	0	1000	1	68	16:18:20	1217978	0	0	0	0	0	0	0	0	0	0	0	0	0	0	0	0	0
071212	16:18:20	10025	Trial2BackEng	N	3	0	1000	1	69	16:18:20	1219497	0	0	0	0	0	0	0	0	0	0	0	0	0	0	0	0	0
071212	16:18:20	10025	Trial2BackEng	N	3	0	1000	1	70	16:18:20	1221017	0	0	0	0	0	0	0	0	0	0	0	0	0	0	0	0	0
071212	16:18:20	10025	Trial2BackEng	N	3	0	1000	1	71	16:18:20	1222536	0	0	0	0	0	0	0	0	0	0	0	0	0	0	0	0	0
071212	16:18:20	10025	Trial2BackEng	N	3	0	1000	1	72	16:18:20	1224055	0	0	0	0	0	0	0	0	0	0	0	0	0	0	0	0	0
071212	16:18:20	10025	Trial2BackEng	N	3	0	1000	1	73	16:18:20	1225575	0	0	0	0	0	0	0	0	0	0	0	0	0	0	0	0	0
071212	16:18:20	10025	Trial2BackEng	Y	3	57	479	1	74	16:18:20	1226588	0	0	0	0	0	0	0	0	0	0	0	0	0	0	0	0	0
071212	16:18:20	10025	Trial2BackEng	N	3	0	1000	1	75	16:18:20	1228600	0	0	0	0	0	0	0	0	0	0	0	0	0	0	0	0	0
071212	16:18:20	10025	Trial2BackEng	N	3	0	1000	1	76	16:18:20	1230119	0	0	0	0	0	0	0	0	0	0	0	0	0	0	0	0	0
071212	16:18:20	10025	Trial2BackEng	N	3	0	1000	1	77	16:18:20	1231639	0	0	0	0	0	0	0	0	0	0	0	0	0	0	0	0	0
071212	16:18:20	10025	Trial2BackEng	Y	3	57	847	1	78	16:18:20	1233012	0	0	0	0	0	0	0	0	0	0	0	0	0	0	0	0	0
071212	16:18:20	10025	Trial2BackEng	N	3	0	1000	1	79	16:18:20	1234664	0	0	0	0	0	0	0	0	0	0	0	0	0	0	0	0	0
071212	16:18:20	10025	Trial2BackEng	N	3	0	1000	1	80	16:18:20	1236184	0	0	0	0	0	0	0	0	0	0	0	0	0	0	0	0	0
071212	16:18:20	10025	Trial2BackEng	N	3	0	1000	1	81	16:18:20	1237703	0	0	0	0	0	0	0	0	0	0	0	0	0	0	0	0	0
071212	16:18:20	10025	Trial2BackEng	N	3	0	1000	1	82	16:18:20	1239222	0	0	0	0	0	0	0	0	0	0	0	0	0	0	0	0	0
071212	16:18:20	10025	Trial2BackEng	N	3	0	1000	1	83	16:18:20	1240742	0	0	0	0	0	0	0	0	0	0	0	0	0	0	0	0	0
071212	16:18:20	10025	Trial2BackEng	Y	3	57	384	1	84	16:18:20	1241648	0	0	0	0	0	0	0	0	0	0	0	0	0	0	0	0	0
071212	16:18:20	10025	Trial2BackEng	N	3	0	1000	1	85	16:18:20	1243767	0	0	0	0	0	0	0	0	0	0	0	0	0	0	0	0	0
071212	16:18:20	10025	Trial2BackEng	N	3	0	1000	1	86	16:18:20	1245286	0	0	0	0	0	0	0	0	0	0	0	0	0	0	0	0	0
071212	16:18:20	10025	Trial2BackEng	N	3	0	1000	1	87	16:18:20	1246806	0	0	0	0	0	0	0	0	0	0	0	0	0	0	0	0	0
071212	16:18:20	10025	Trial2BackEng	N	3	0	1000	1	88	16:18:20	1248325	0	0	0	0	0	0	0	0	0	0	0	0	0	0	0	0	0
071212	16:18:20	10025	Trial2BackEng	N	3	0	1000	1	89	16:18:20	1249845	0	0	0	0	0	0	0	0	0	0	0	0	0	0	0	0	0
071212	16:18:20	10025	Trial2BackEng	N	3	57	480	0	89	16:18:20	1250858	0	0	0	0	0	0	0	0	0	0	0	0	0	0	0	0	0
071212	16:18:20	10025	Trial2BackEng	N	3	0	1000	1	90	16:18:20	1252870	0	0	0	0	0	0	0	0	0	0	0	0	0	0	0	0	0
071212	16:18:20	10025	Trial2BackEng	N	3	0	1000	1	91	16:18:20	1254389	0	0	0	0	0	0	0	0	0	0	0	0	0	0	0	0	0
071212	16:18:20	10025	Trial2BackEng	N	3	0	1000	1	92	16:18:20	1255909	0	0	0	0	0	0	0	0	0	0	0	0	0	0	0	0	0
071212	16:18:20	10025	Trial2BackEng	Y	3	57	640	1	93	16:18:20	1257082	0	0	0	0	0	0	0	0	0	0	0	0	0	0	0	0	0
071212	16:18:20	10025	Trial2BackEng	N	3	0	1000	1	94	16:18:20	1258934	0	0	0	0	0	0	0	0	0	0	0	0	0	0	0	0	0
071212	16:18:20	10025	Trial2BackEng	N	3	0	1000	1	95	16:18:20	1260454	0	0	0	0	0	0	0	0	0	0	0	0	0	0	0	0	0
071212	16:18:20	10025	Trial2BackEng	N	3	0	1000	1	96	16:18:20	1261973	0	0	0	0	0	0	0	0	0	0	0	0	0	0	0	0	0
071212	16:18:20	10025	Trial2BackEng	N	3	0	1000	1	97	16:18:20	1263492	0	0	0	0	0	0	0	0	0	0	0	0	0	0	0	0	0
071212	16:18:20	10025	Trial2BackEng	N	3	0	1000	1	98	16:18:20	1265012	0	0	0	0	0	0	0	0	0	0	0	0	0	0	0	0	0
071212	16:18:20	10025	Trial2BackEng	N	3	0	1000	1	99	16:18:20	1266531	0	0	0	0	0	0	0	0	0	0	0	0	0	0	0	0	0
071212	16:18:20	10025	Trial2BackEng	N	3	0	1000	1	100	16:18:20	1268050	0	0	0	0	0	0	0	0	0	0	0	0	0	0	0	0	0
071212	16:18:20	10025	Trial2BackEng	N	3	0	1000	1	101	16:18:20	1269570	0	0	0	0	0	0	0	0	0	0	0	0	0	0	0	0	0
071212	16:18:20	10025	Trial2BackEng	Y	3	57	403	1	102	16:18:20	1270503	0	0	0	0	0	0	0	0	0	0	0	0	0	0	0	0	0
071212	16:18:20	10025	Trial2BackEng	N	3	0	1000	1	103	16:18:20	1272595	0	0	0	0	0	0	0	0	0	0	0	0	0	0	0	0	0
071212	16:18:20	10025	Trial2BackEng	N	3	0	1000	1	104	16:18:20	1274115	0	0	0	0	0	0	0	0	0	0	0	0	0	0	0	0	0
071212	16:18:20	10025	Trial2BackEng	N	3	0	1000	1	105	16:18:20	1275634	0	0	0	0	0	0	0	0	0	0	0	0	0	0	0	0	0
071212	16:18:20	10025	Trial2BackEng	N	3	0	1000	1	106	16:18:20	1277153	0	0	0	0	0	0	0	0	0	0	0	0	0	0	0	0	0
071212	16:18:20	10025	Trial2BackEng	Y	3	0	1000	0	106	16:18:20	1278673	0	0	0	0	0	0	0	0	0	0	0	0	0	0	0	0	0
071212	16:18:20	10025	Trial2BackEng	N	3	0	1000	1	107	16:18:20	1280192	0	0	0	0	0	0	0	0	0	0	0	0	0	0	0	0	0
071212	16:18:20	10025	Trial2BackEng	N	3	0	1000	1	108	16:18:20	1281711	0	0	0	0	0	0	0	0	0	0	0	0	0	0	0	0	0
071212	16:18:20	10025	Trial2BackEng	N	3	0	1000	1	109	16:18:20	1283231	0	0	0	0	0	0	0	0	0	0	0	0	0	0	0	0	0
071212	16:18:20	10025	Trial2BackEng	Y	3	57	373	1	110	16:18:20	1284137	0	0	0	0	0	0	0	0	0	0	0	0	0	0	0	0	0
071212	16:18:20	10025	Trial2BackEng	N	3	0	1000	1	111	16:18:20	1286256	0	0	0	0	0	0	0	0	0	0	0	0	0	0	0	0	0
071212	16:18:20	10025	Trial2BackEng	N	3	0	1000	1	112	16:18:20	1287775	0	0	0	0	0	0	0	0	0	0	0	0	0	0	0	0	0
071212	16:18:20	10025	Trial2BackEng	N	3	0	1000	1	113	16:18:20	1289295	0	0	0	0	0	0	0	0	0	0	0	0	0	0	0	0	0
071212	16:18:20	10025	Trial2BackEng	N	3	0	1000	1	114	16:18:20	1290814	0	0	0	0	0	0	0	0	0	0	0	0	0	0	0	0	0
071212	16:18:20	10025	Trial2BackEng	N	3	0	1000	1	115	16:18:20	1292334	0	0	0	0	0	0	0	0	0	0	0	0	0	0	0	0	0
071212	16:18:20	10025	Trial2BackEng	Y	3	57	662	1	116	16:18:20	1293520	0	0	0	0	0	0	0	0	0	0	0	0	0	0	0	0	0
071212	16:18:20	10025	Trial2BackEng	N	3	0	1000	1	117	16:18:20	1295359	0	0	0	0	0	0	0	0	0	0	0	0	0	0	0	0	0
071212	16:18:20	10025	Trial2BackEng	N	3	0	1000	1	118	16:18:20	1296878	0	0	0	0	0	0	0	0	0	0	0	0	0	0	0	0	0
071212	16:18:20	10025	Trial2BackEng	N	3	0	1000	1	119	16:18:20	1298398	0	0	0	0	0	0	0	0	0	0	0	0	0	0	0	0	0
071212	16:18:20	10025	Trial2BackEng	Y	3	57	598	1	120	16:18:20	1299531	0	0	0	0	0	0	0	0	0	0	0	0	0	0	0	0	0
071212	16:18:20	10025	Trial3BackEng	NN	4	0	1000	1	120	16:18:20	1357133	0	0	0	0	0	0	0	0	0	0	0	0	0	0	0	0	0
071212	16:18:20	10025	Trial3BackEng	NN	4	0	1000	1	120	16:18:20	1358653	0	0	0	0	0	0	0	0	0	0	0	0	0	0	0	0	0
071212	16:18:20	10025	Trial3BackEng	NN	4	0	1000	1	120	16:18:20	1360172	0	0	0	0	0	0	0	0	0	0	0	0	0	0	0	0	0
071212	16:18:20	10025	Trial3BackEng	YY	4	57	581	1	120	16:18:20	1361278	0	0	0	0	0	0	0	0	0	0	0	0	0	0	0	0	0
071212	16:18:20	10025	Trial3BackEng	NN	4	0	1000	1	120	16:18:20	1363198	0	0	0	0	0	0	0	0	0	0	0	0	0	0	0	0	0
071212	16:18:20	10025	Trial3BackEng	NN	4	0	1000	1	120	16:18:20	1364717	0	0	0	0	0	0	0	0	0	0	0	0	0	0	0	0	0
071212	16:18:20	10025	Trial3BackEng	NN	4	0	1000	1	120	16:18:20	1366236	0	0	0	0	0	0	0	0	0	0	0	0	0	0	0	0	0
071212	16:18:20	10025	Trial3BackEng	NN	4	0	1000	1	120	16:18:20	1367756	0	0	0	0	0	0	0	0	0	0	0	0	0	0	0	0	0
071212	16:18:20	10025	Trial3BackEng	YY	4	57	341	1	120	16:18:20	1368622	0	0	0	0	0	0	0	0	0	0	0	0	0	0	0	0	0
071212	16:18:20	10025	Trial3BackEng	NN	4	0	1000	1	120	16:18:20	1370781	0	0	0	0	0	0	0	0	0	0	0	0	0	0	0	0	0
071212	16:18:20	10025	Trial3BackEng	NN	4	0	1000	1	120	16:18:20	1372300	0	0	0	0	0	0	0	0	0	0	0	0	0	0	0	0	0
071212	16:18:20	10025	Trial3BackEng	NN	4	0	1000	1	120	16:18:20	1373820	0	0	0	0	0	0	0	0	0	0	0	0	0	0	0	0	0
071212	16:18:20	10025	Trial3BackEng	NN	4	0	1000	1	120	16:18:20	1375339	0	0	0	0	0	0	0	0	0	0	0	0	0	0	0	0	0
071212	16:18:20	10025	Trial3BackEng	NN	4	0	1000	1	120	16:18:20	1376859	0	0	0	0	0	0	0	0	0	0	0	0	0	0	0	0	0
071212	16:18:20	10025	Trial3BackEng	NN	4	0	1000	1	120	16:18:20	1378378	0	0	0	0	0	0	0	0	0	0	0	0	0	0	0	0	0
071212	16:18:20	10025	Trial3BackEng	NN	4	0	1000	1	120	16:18:20	1379897	0	0	0	0	0	0	0	0	0	0	0	0	0	0	0	0	0
071212	16:18:20	10025	Trial3BackEng	YY	4	0	1000	0	120	16:18:20	1381417	0	0	0	0	0	0	0	0	0	0	0	0	0	0	0	0	0
071212	16:18:20	10025	Trial3BackEng	NN	4	0	1000	1	120	16:18:20	1382936	0	0	0	0	0	0	0	0	0	0	0	0	0	0	0	0	0
071212	16:18:20	10025	Trial3BackEng	NN	4	0	1000	1	120	16:18:20	1384455	0	0	0	0	0	0	0	0	0	0	0	0	0	0	0	0	0
071212	16:18:20	10025	Trial3BackEng	NN	4	0	1000	1	120	16:18:20	1385975	0	0	0	0	0	0	0	0	0	0	0	0	0	0	0	0	0
071212	16:18:20	10025	Trial3BackEng	NN	4	0	1000	1	120	16:18:20	1387494	0	0	0	0	0	0	0	0	0	0	0	0	0	0	0	0	0
071212	16:18:20	10025	Trial3BackEng	NN	4	0	1000	1	120	16:18:20	1389013	0	0	0	0	0	0	0	0	0	0	0	0	0	0	0	0	0
071212	16:18:20	10025	Trial3BackEng	YY	4	57	571	1	120	16:18:20	1390106	0	0	0	0	0	0	0	0	0	0	0	0	0	0	0	0	0
071212	16:18:20	10025	Trial3BackEng	NN	4	0	1000	1	120	16:18:20	1392039	0	0	0	0	0	0	0	0	0	0	0	0	0	0	0	0	0
071212	16:18:20	10025	Trial3BackEng	NN	4	0	1000	1	120	16:18:20	1393558	0	0	0	0	0	0	0	0	0	0	0	0	0	0	0	0	0
071212	16:18:20	10025	Trial3BackEng	NN	4	0	1000	1	120	16:18:20	1395077	0	0	0	0	0	0	0	0	0	0	0	0	0	0	0	0	0
071212	16:18:20	10025	Trial3BackEng	YY	4	57	874	1	120	16:18:20	1396477	0	0	0	0	0	0	0	0	0	0	0	0	0	0	0	0	0
071212	16:18:20	10025	Trial3BackEng	NN	4	0	1000	1	120	16:18:20	1398103	0	0	0	0	0	0	0	0	0	0	0	0	0	0	0	0	0
071212	16:18:20	10025	Trial3BackEng	NN	4	0	1000	1	120	16:18:20	1399622	0	0	0	0	0	0	0	0	0	0	0	0	0	0	0	0	0
071212	16:18:20	10025	Trial3BackEng	NN	4	0	1000	1	120	16:18:20	1401142	0	0	0	0	0	0	0	0	0	0	0	0	0	0	0	0	0
071212	16:18:20	10025	Trial3BackEng	YY	4	57	714	1	120	16:18:20	1402381	0	0	0	0	0	0	0	0	0	0	0	0	0	0	0	0	0
071212	16:18:20	10025	Trial3BackEng	NN	4	0	1000	1	120	16:18:20	1404167	0	0	0	0	0	0	0	0	0	0	0	0	0	0	0	0	0
071212	16:18:20	10025	Trial3BackEng	NN	4	0	1000	1	120	16:18:20	1405687	0	0	0	0	0	0	0	0	0	0	0	0	0	0	0	0	0
071212	16:18:20	10025	Trial3BackEng	NN	4	0	1000	1	120	16:18:20	1407206	0	0	0	0	0	0	0	0	0	0	0	0	0	0	0	0	0
071212	16:18:20	10025	Trial3BackEng	NN	4	0	1000	1	120	16:18:20	1408725	0	0	0	0	0	0	0	0	0	0	0	0	0	0	0	0	0
071212	16:18:20	10025	Trial3BackEng	NN	4	0	1000	1	120	16:18:20	1410244	0	0	0	0	0	0	0	0	0	0	0	0	0	0	0	0	0
071212	16:18:20	10025	Trial3BackEng	NN	4	0	1000	1	120	16:18:20	1411764	0	0	0	0	0	0	0	0	0	0	0	0	0	0	0	0	0
071212	16:18:20	10025	Trial3BackEng	NN	4	0	1000	1	120	16:18:20	1413283	0	0	0	0	0	0	0	0	0	0	0	0	0	0	0	0	0
071212	16:18:20	10025	Trial3BackEng	NN	4	0	1000	1	120	16:18:20	1414803	0	0	0	0	0	0	0	0	0	0	0	0	0	0	0	0	0
071212	16:18:20	10025	Trial3BackEng	NN	4	0	1000	1	120	16:18:20	1416322	0	0	0	0	0	0	0	0	0	0	0	0	0	0	0	0	0
071212	16:18:20	10025	Trial3BackEng	NN	4	0	1000	1	120	16:18:20	1417842	0	0	0	0	0	0	0	0	0	0	0	0	0	0	0	0	0
071212	16:18:20	10025	Trial3BackEng	YY	4	57	430	1	120	16:18:20	1418801	0	0	0	0	0	0	0	0	0	0	0	0	0	0	0	0	0
071212	16:18:20	10025	Trial3BackEng	NN	4	0	1000	1	120	16:18:20	1420867	0	0	0	0	0	0	0	0	0	0	0	0	0	0	0	0	0
071212	16:18:20	10025	Trial3BackEng	NN	4	0	1000	1	120	16:18:20	1422386	0	0	0	0	0	0	0	0	0	0	0	0	0	0	0	0	0
071212	16:18:20	10025	Trial3BackEng	NN	4	0	1000	1	120	16:18:20	1423906	0	0	0	0	0	0	0	0	0	0	0	0	0	0	0	0	0
071212	16:18:20	10025	Trial3BackEng	NN	4	0	1000	1	120	16:18:20	1425425	0	0	0	0	0	0	0	0	0	0	0	0	0	0	0	0	0
071212	16:18:20	10025	Trial3BackEng	YY	4	57	510	1	120	16:18:20	1426465	0	0	0	0	0	0	0	0	0	0	0	0	0	0	0	0	0
071212	16:18:20	10025	Trial3BackEng	NN	4	0	1000	1	120	16:18:20	1428450	0	0	0	0	0	0	0	0	0	0	0	0	0	0	0	0	0
071212	16:18:20	10025	Trial3BackEng	NN	4	0	1000	1	120	16:18:20	1429970	0	0	0	0	0	0	0	0	0	0	0	0	0	0	0	0	0
071212	16:18:20	10025	Trial3BackEng	NN	4	0	1000	1	120	16:18:20	1431489	0	0	0	0	0	0	0	0	0	0	0	0	0	0	0	0	0
071212	16:18:20	10025	Trial3BackEng	NN	4	0	1000	1	120	16:18:20	1433008	0	0	0	0	0	0	0	0	0	0	0	0	0	0	0	0	0
071212	16:18:20	10025	Trial3BackEng	NN	4	0	1000	1	120	16:18:20	1434528	0	0	0	0	0	0	0	0	0	0	0	0	0	0	0	0	0
071212	16:18:20	10025	Trial3BackEng	YY	4	57	607	1	120	16:18:20	1435661	0	0	0	0	0	0	0	0	0	0	0	0	0	0	0	0	0
071212	16:18:20	10025	Trial3BackEng	NN	4	0	1000	1	120	16:18:20	1437553	0	0	0	0	0	0	0	0	0	0	0	0	0	0	0	0	0
071212	16:18:20	10025	Trial3BackEng	NN	4	0	1000	1	120	16:18:20	1439073	0	0	0	0	0	0	0	0	0	0	0	0	0	0	0	0	0
071212	16:18:20	10025	Trial3BackEng	NN	4	0	1000	1	120	16:18:20	1440592	0	0	0	0	0	0	0	0	0	0	0	0	0	0	0	0	0
071212	16:18:20	10025	Trial3BackEng	NN	4	0	1000	1	120	16:18:20	1442111	0	0	0	0	0	0	0	0	0	0	0	0	0	0	0	0	0
071212	16:18:20	10025	Trial3BackEng	NN	4	0	1000	1	120	16:18:20	1443631	0	0	0	0	0	0	0	0	0	0	0	0	0	0	0	0	0
071212	16:18:20	10025	Trial3BackEng	NN	4	0	1000	1	120	16:18:20	1445150	0	0	0	0	0	0	0	0	0	0	0	0	0	0	0	0	0
071212	16:18:20	10025	Trial3BackEng	YY	4	57	944	1	120	16:18:20	1446616	0	0	0	0	0	0	0	0	0	0	0	0	0	0	0	0	0
071212	16:18:20	10025	Trial3BackEng	NN	4	0	1000	1	120	16:18:20	1448176	0	0	0	0	0	0	0	0	0	0	0	0	0	0	0	0	0
071212	16:18:20	10025	Trial3BackEng	NN	4	0	1000	1	120	16:18:20	1449695	0	0	0	0	0	0	0	0	0	0	0	0	0	0	0	0	0
071212	16:18:20	10025	Trial3BackEng	NN	4	0	1000	1	120	16:18:20	1451214	0	0	0	0	0	0	0	0	0	0	0	0	0	0	0	0	0
071212	16:18:20	10025	Trial3BackEng	YY	4	57	832	1	120	16:18:20	1452574	0	0	0	0	0	0	0	0	0	0	0	0	0	0	0	0	0
071212	16:18:20	10025	Trial3BackEng	NN	4	0	1000	1	120	16:18:20	1454240	0	0	0	0	0	0	0	0	0	0	0	0	0	0	0	0	0
071212	16:18:20	10025	Trial3BackEng	NN	4	0	1000	1	120	16:18:20	1455759	0	0	0	0	0	0	0	0	0	0	0	0	0	0	0	0	0
071212	16:18:20	10025	Trial3BackEng	NN	4	0	1000	1	120	16:18:20	1457279	0	0	0	0	0	0	0	0	0	0	0	0	0	0	0	0	0
071212	16:18:20	10025	Trial3BackEng	NN	4	0	1000	1	120	16:18:20	1458798	0	0	0	0	0	0	0	0	0	0	0	0	0	0	0	0	0
071212	16:18:20	10025	Trial3BackEng	NN	4	0	1000	1	120	16:18:20	1460317	0	0	0	0	0	0	0	0	0	0	0	0	0	0	0	0	0
071212	16:18:20	10025	Trial3BackEng	NN	4	0	1000	1	120	16:18:20	1461837	0	0	0	0	0	0	0	0	0	0	0	0	0	0	0	0	0
071212	16:18:20	10025	Trial3BackEng	NN	4	0	1000	1	120	16:18:20	1463356	0	0	0	0	0	0	0	0	0	0	0	0	0	0	0	0	0
071212	16:18:20	10025	Trial3BackEng	NN	4	57	402	0	120	16:18:20	1464289	0	0	0	0	0	0	0	0	0	0	0	0	0	0	0	0	0
071212	16:18:20	10025	Trial3BackEng	NN	4	0	1000	1	120	16:18:20	1466381	0	0	0	0	0	0	0	0	0	0	0	0	0	0	0	0	0
071212	16:18:20	10025	Trial3BackEng	YY	4	0	1000	0	120	16:18:20	1467901	0	0	0	0	0	0	0	0	0	0	0	0	0	0	0	0	0
071212	16:18:20	10025	Trial3BackEng	NN	4	0	1000	1	120	16:18:20	1469420	0	0	0	0	0	0	0	0	0	0	0	0	0	0	0	0	0
071212	16:18:20	10025	Trial3BackEng	NN	4	0	1000	1	120	16:18:20	1470939	0	0	0	0	0	0	0	0	0	0	0	0	0	0	0	0	0
071212	16:18:20	10025	Trial3BackEng	NN	4	0	1000	1	120	16:18:20	1472459	0	0	0	0	0	0	0	0	0	0	0	0	0	0	0	0	0
071212	16:18:20	10025	Trial3BackEng	YY	4	57	851	1	120	16:18:20	1473832	0	0	0	0	0	0	0	0	0	0	0	0	0	0	0	0	0
071212	16:18:20	10025	Trial3BackEng	NN	4	0	1000	1	120	16:18:20	1475484	0	0	0	0	0	0	0	0	0	0	0	0	0	0	0	0	0
071212	16:18:20	10025	Trial3BackEng	NN	4	0	1000	1	120	16:18:20	1477004	0	0	0	0	0	0	0	0	0	0	0	0	0	0	0	0	0
071212	16:18:20	10025	Trial3BackEng	NN	4	0	1000	1	120	16:18:20	1478523	0	0	0	0	0	0	0	0	0	0	0	0	0	0	0	0	0
071212	16:18:20	10025	Trial3BackEng	NN	4	0	1000	1	120	16:18:20	1480042	0	0	0	0	0	0	0	0	0	0	0	0	0	0	0	0	0
071212	16:18:20	10025	Trial3BackEng	NN	4	0	1000	1	120	16:18:20	1481562	0	0	0	0	0	0	0	0	0	0	0	0	0	0	0	0	0
071212	16:18:20	10025	Trial3BackEng	YY	4	57	515	1	120	16:18:20	1482601	0	0	0	0	0	0	0	0	0	0	0	0	0	0	0	0	0
071212	16:18:20	10025	Trial3BackEng	NN	4	0	1000	1	120	16:18:20	1484587	0	0	0	0	0	0	0	0	0	0	0	0	0	0	0	0	0
071212	16:18:20	10025	Trial3BackEng	NN	4	0	1000	1	120	16:18:20	1486107	0	0	0	0	0	0	0	0	0	0	0	0	0	0	0	0	0
071212	16:18:20	10025	Trial3BackEng	NN	4	0	1000	1	120	16:18:20	1487626	0	0	0	0	0	0	0	0	0	0	0	0	0	0	0	0	0
071212	16:18:20	10025	Trial3BackEng	NN	4	0	1000	1	120	16:18:20	1489145	0	0	0	0	0	0	0	0	0	0	0	0	0	0	0	0	0
071212	16:18:20	10025	Trial3BackEng	NN	4	0	1000	1	120	16:18:20	1490665	0	0	0	0	0	0	0	0	0	0	0	0	0	0	0	0	0
071212	16:18:20	10025	Trial3BackEng	NN	4	0	1000	1	120	16:18:20	1492184	0	0	0	0	0	0	0	0	0	0	0	0	0	0	0	0	0
071212	16:18:20	10025	Trial3BackEng	NN	4	0	1000	1	120	16:18:20	1493703	0	0	0	0	0	0	0	0	0	0	0	0	0	0	0	0	0
071212	16:18:20	10025	Trial3BackEng	NN	4	0	1000	1	120	16:18:20	1495223	0	0	0	0	0	0	0	0	0	0	0	0	0	0	0	0	0
071212	16:18:20	10025	Trial3BackEng	NN	4	0	1000	1	120	16:18:20	1496742	0	0	0	0	0	0	0	0	0	0	0	0	0	0	0	0	0
071212	16:18:20	10025	Trial3BackEng	YY	4	57	615	1	120	16:18:20	1497888	0	0	0	0	0	0	0	0	0	0	0	0	0	0	0	0	0
071212	16:18:20	10025	Trial3BackEng	NN	4	0	1000	1	120	16:18:20	1499768	0	0	0	0	0	0	0	0	0	0	0	0	0	0	0	0	0
071212	16:18:20	10025	Trial3BackEng	NN	4	0	1000	1	120	16:18:20	1501287	0	0	0	0	0	0	0	0	0	0	0	0	0	0	0	0	0
071212	16:18:20	10025	Trial3BackEng	NN	4	0	1000	1	120	16:18:20	1502806	0	0	0	0	0	0	0	0	0	0	0	0	0	0	0	0	0
071212	16:18:20	10025	Trial3BackEng	NN	4	0	1000	1	120	16:18:20	1504326	0	0	0	0	0	0	0	0	0	0	0	0	0	0	0	0	0
071212	16:18:20	10025	Trial3BackEng	NN	4	0	1000	1	120	16:18:20	1505845	0	0	0	0	0	0	0	0	0	0	0	0	0	0	0	0	0
071212	16:18:20	10025	Trial3BackEng	NN	4	0	1000	1	120	16:18:20	1507364	0	0	0	0	0	0	0	0	0	0	0	0	0	0	0	0	0
071212	16:18:20	10025	Trial3BackEng	NN	4	0	1000	1	120	16:18:20	1508884	0	0	0	0	0	0	0	0	0	0	0	0	0	0	0	0	0
071212	16:18:20	10025	Trial3BackEng	NN	4	0	1000	1	120	16:18:20	1510403	0	0	0	0	0	0	0	0	0	0	0	0	0	0	0	0	0
071212	16:18:20	10025	Trial3BackEng	YY	4	57	761	1	120	16:18:20	1511696	0	0	0	0	0	0	0	0	0	0	0	0	0	0	0	0	0
071212	16:18:20	10025	Trial3BackEng	NN	4	0	1000	1	120	16:18:20	1513429	0	0	0	0	0	0	0	0	0	0	0	0	0	0	0	0	0
071212	16:18:20	10025	Trial3BackEng	NN	4	0	1000	1	120	16:18:20	1514948	0	0	0	0	0	0	0	0	0	0	0	0	0	0	0	0	0
071212	16:18:20	10025	Trial3BackEng	NN	4	0	1000	1	120	16:18:20	1516467	0	0	0	0	0	0	0	0	0	0	0	0	0	0	0	0	0
071212	16:18:20	10025	Trial3BackEng	NN	4	0	1000	1	120	16:18:20	1517987	0	0	0	0	0	0	0	0	0	0	0	0	0	0	0	0	0
071212	16:18:20	10025	Trial3BackEng	YY	4	57	521	1	120	16:18:20	1519040	0	0	0	0	0	0	0	0	0	0	0	0	0	0	0	0	0
071212	16:18:20	10025	Trial3BackEng	NN	4	0	1000	1	120	16:18:20	1521012	0	0	0	0	0	0	0	0	0	0	0	0	0	0	0	0	0
071212	16:18:20	10025	Trial3BackEng	NN	4	0	1000	1	120	16:18:20	1522531	0	0	0	0	0	0	0	0	0	0	0	0	0	0	0	0	0
071212	16:18:20	10025	Trial3BackEng	NN	4	0	1000	1	120	16:18:20	1524051	0	0	0	0	0	0	0	0	0	0	0	0	0	0	0	0	0
071212	16:18:20	10025	Trial3BackEng	YY	4	57	761	1	120	16:18:20	1525344	0	0	0	0	0	0	0	0	0	0	0	0	0	0	0	0	0
071212	16:18:20	10025	Trial3BackEng	NN	4	0	1000	1	120	16:18:20	1527076	0	0	0	0	0	0	0	0	0	0	0	0	0	0	0	0	0
071212	16:18:20	10025	Trial3BackEng	NN	4	0	1000	1	120	16:18:20	1528596	0	0	0	0	0	0	0	0	0	0	0	0	0	0	0	0	0
071212	16:18:20	10025	Trial3BackEng	NN	4	0	1000	1	120	16:18:20	1530115	0	0	0	0	0	0	0	0	0	0	0	0	0	0	0	0	0
071212	16:18:20	10025	Trial3BackEng	NN	4	0	1000	1	120	16:18:20	1531634	0	0	0	0	0	0	0	0	0	0	0	0	0	0	0	0	0
071212	16:18:20	10025	Trial3BackEng	NN	4	0	1000	1	120	16:18:20	1533154	0	0	0	0	0	0	0	0	0	0	0	0	0	0	0	0	0
071212	16:18:20	10025	Trial3BackEng	YY	4	57	714	1	120	16:18:20	1534393	0	0	0	0	0	0	0	0	0	0	0	0	0	0	0	0	0
071212	16:18:20	10025	Trial3BackEng	NN	4	0	1000	1	120	16:18:20	1536179	0	0	0	0	0	0	0	0	0	0	0	0	0	0	0	0	0
071212	16:18:20	10025	Trial3BackEng	NN	4	0	1000	1	120	16:18:20	1537699	0	0	0	0	0	0	0	0	0	0	0	0	0	0	0	0	0
071212	16:18:20	10025	Trial3BackEng	NN	4	0	1000	1	120	16:18:20	1539218	0	0	0	0	0	0	0	0	0	0	0	0	0	0	0	0	0
071212	16:18:20	10025	Trial3BackEng	YY	4	57	729	1	120	16:18:20	1540470	0	0	0	0	0	0	0	0	0	0	0	0	0	0	0	0	0
071212	16:18:20	10025	Memory1RBaseline	Score	5	M1	24494	0	120	16:18:20	1610535	0	0	0	0	0	0	0	0	0	0	0	0	0	0	0	0	0
071212	16:18:20	10025	Memory1RBaseline	Score	5	M2	999	0	120	16:18:20	1611575	0	0	0	0	0	0	0	0	0	0	0	0	0	0	0	0	0
071212	16:18:20	10025	Memory1RBaseline	Score	5	M3	327	0	120	16:18:20	1611948	0	0	0	0	0	0	0	0	0	0	0	0	0	0	0	0	0
071212	16:18:20	10025	Memory1RBaseline	Score	5	M5	1818	0	120	16:18:20	1613800	0	0	0	0	0	0	0	0	0	0	0	0	0	0	0	0	0
071212	16:18:20	10025	Memory1RBaseline	Score	5	M7	502	0	120	16:18:20	1614347	0	0	0	0	0	0	0	0	0	0	0	0	0	0	0	0	0
071212	16:18:20	10025	Memory1RBaseline	Score	5	M8	371	0	120	16:18:20	1614760	0	0	0	0	0	0	0	0	0	0	0	0	0	0	0	0	0
071212	16:18:20	10025	Memory1RBaseline	Score	5	Done	822	0	120	16:18:20	1615627	0	0	0	0	0	0	0	0	0	0	0	0	0	0	0	0	0
071212	16:18:20	10025	Memory2RBaseline	Score2	5	11	7864	0	120	16:18:20	1644268	0	0	0	0	0	0	0	0	0	0	0	0	0	0	0	0	0
071212	16:18:20	10025	Memory2RBaseline	Score2	5	22	185	0	120	16:18:20	1644494	0	0	0	0	0	0	0	0	0	0	0	0	0	0	0	0	0
071212	16:18:20	10025	Memory2RBaseline	Score2	5	33	239	0	120	16:18:20	1644774	0	0	0	0	0	0	0	0	0	0	0	0	0	0	0	0	0
071212	16:18:20	10025	Memory2RBaseline	Score2	5	44	223	0	120	16:18:20	1645041	0	0	0	0	0	0	0	0	0	0	0	0	0	0	0	0	0
071212	16:18:20	10025	Memory2RBaseline	Score2	5	55	228	0	120	16:18:20	1645307	0	0	0	0	0	0	0	0	0	0	0	0	0	0	0	0	0
071212	16:18:20	10025	Memory2RBaseline	Score2	5	66	241	0	120	16:18:20	1645587	0	0	0	0	0	0	0	0	0	0	0	0	0	0	0	0	0
071212	16:18:20	10025	Memory2RBaseline	Score2	5	77	250	0	120	16:18:20	1645881	0	0	0	0	0	0	0	0	0	0	0	0	0	0	0	0	0
071212	16:18:20	10025	Memory2RBaseline	Score2	5	88	236	0	120	16:18:20	1646160	0	0	0	0	0	0	0	0	0	0	0	0	0	0	0	0	0
071212	16:18:20	10025	Memory2RBaseline	Score2	5	Done	757	0	120	16:18:20	1646960	0	0	0	0	0	0	0	0	0	0	0	0	0	0	0	0	0
071212	16:18:20	10025	Memory3RBaseline	Score3	5	111	7871	0	120	16:18:20	1675681	0	0	0	0	0	0	0	0	0	0	0	0	0	0	0	0	0
071212	16:18:20	10025	Memory3RBaseline	Score3	5	222	314	0	120	16:18:20	1676041	0	0	0	0	0	0	0	0	0	0	0	0	0	0	0	0	0
071212	16:18:20	10025	Memory3RBaseline	Score3	5	333	522	0	120	16:18:20	1676601	0	0	0	0	0	0	0	0	0	0	0	0	0	0	0	0	0
071212	16:18:20	10025	Memory3RBaseline	Score3	5	444	355	0	120	16:18:20	1677001	0	0	0	0	0	0	0	0	0	0	0	0	0	0	0	0	0
071212	16:18:20	10025	Memory3RBaseline	Score3	5	555	371	0	120	16:18:20	1677414	0	0	0	0	0	0	0	0	0	0	0	0	0	0	0	0	0
071212	16:18:20	10025	Memory3RBaseline	Score3	5	666	1174	0	120	16:18:20	1678627	0	0	0	0	0	0	0	0	0	0	0	0	0	0	0	0	0
071212	16:18:20	10025	Memory3RBaseline	Score3	5	777	329	0	120	16:18:20	1679000	0	0	0	0	0	0	0	0	0	0	0	0	0	0	0	0	0
071212	16:18:20	10025	Memory3RBaseline	Score3	5	888	315	0	120	16:18:20	1679360	0	0	0	0	0	0	0	0	0	0	0	0	0	0	0	0	0
071212	16:18:20	10025	Memory3RBaseline	Score3	5	Done	3460	0	120	16:18:20	1682865	0	0	0	0	0	0	0	0	0	0	0	0	0	0	0	0	0
071212	16:18:20	10025	LoriaEngLH3	Stop	6	7	7481	0	120	16:18:20	1762914	0	0	0	0	0	0	0	0	0	0	0	0	0	0	0	0	0
071212	16:18:20	10025	EngTrail	Trails	7	1Trails	599	0	120	16:18:20	1806801	0	0	0	0	0	0	0	0	0	0	0	0	0	0	0	0	0
071212	16:18:20	10025	Serial7EngBaseline	Serial7EngBaseline	8	83	4670	0	120	16:18:20	1844413	1	0	0	0	0	0	0	0	0	0	0	0	0	0	0	0	0
071212	16:18:20	10025	Serial7EngBaseline	Serial7EngBaseline	8	76	1949	0	120	16:18:20	1846386	2	0	0	0	0	0	0	0	0	0	0	0	0	0	0	0	0
071212	16:18:20	10025	Serial7EngBaseline	Serial7EngBaseline	8	69	1873	0	120	16:18:20	1848278	3	0	0	0	0	0	0	0	0	0	0	0	0	0	0	0	0
071212	16:18:20	10025	Serial7EngBaseline	Serial7EngBaseline	8	62	2028	0	120	16:18:20	1850331	4	0	0	0	0	0	0	0	0	0	0	0	0	0	0	0	0
071212	16:18:20	10025	Serial7EngBaseline	Serial7EngBaseline	8	55	1454	0	120	16:18:20	1851810	5	0	0	0	0	0	0	0	0	0	0	0	0	0	0	0	0
071212	16:18:20	10025	corsiblockEngFwrd	recallseqEngFwrd	9	1	1647	0	120	16:18:20	1901203	5	0	0	0	0	0	0	0	0	0	0	0	0	0	0	0	0
071212	16:18:20	10025	corsiblockEngFwrd	recallseqEngFwrd	9	9	1347	0	120	16:18:20	1902589	5	0	0	0	0	0	0	0	0	0	0	0	0	0	0	0	0
071212	16:18:20	10025	corsiblockEngFwrd	recallseqEngFwrd	9	doneCorsiEng	6985	0	120	16:18:20	1909613	5	0	0	0	0	0	0	0	0	0	0	0	0	0	0	2	0
071212	16:18:20	10025	corsiblockEngFwrd	recallseqEngFwrd	9	6	1502	0	120	16:18:20	1917210	5	0	0	0	0	0	0	0	0	0	0	0	0	0	0	2	0
071212	16:18:20	10025	corsiblockEngFwrd	recallseqEngFwrd	9	7	1195	0	120	16:18:20	1918449	5	0	0	0	0	0	0	0	0	0	0	0	0	0	0	2	0
071212	16:18:20	10025	corsiblockEngFwrd	recallseqEngFwrd	9	8	956	0	120	16:18:20	1919449	5	0	0	0	0	0	0	0	0	0	0	0	0	0	0	2	0
071212	16:18:20	10025	corsiblockEngFwrd	recallseqEngFwrd	9	doneCorsiEng	1012	0	120	16:18:20	1920502	5	0	0	0	0	0	0	0	0	0	0	0	0	0	0	3	0
071212	16:18:20	10025	corsiblockEngFwrd	recallseqEngFwrd	9	3	1099	0	120	16:18:20	1928698	5	0	0	0	0	0	0	0	0	0	0	0	0	0	0	3	0
071212	16:18:20	10025	corsiblockEngFwrd	recallseqEngFwrd	9	5	651	0	120	16:18:20	1929391	5	0	0	0	0	0	0	0	0	0	0	0	0	0	0	3	0
071212	16:18:20	10025	corsiblockEngFwrd	recallseqEngFwrd	9	4	421	0	120	16:18:20	1929858	5	0	0	0	0	0	0	0	0	0	0	0	0	0	0	3	0
071212	16:18:20	10025	corsiblockEngFwrd	recallseqEngFwrd	9	2	1507	0	120	16:18:20	1931404	5	0	0	0	0	0	0	0	0	0	0	0	0	0	0	3	0
071212	16:18:20	10025	corsiblockEngFwrd	recallseqEngFwrd	9	doneCorsiEng	1137	0	120	16:18:20	1932577	5	0	0	0	0	0	0	0	0	0	0	0	0	0	0	4	0
071212	16:18:20	10025	corsiblockEngFwrd	recallseqEngFwrd	9	3	1314	0	120	16:18:20	1941986	5	0	0	0	0	0	0	0	0	0	0	0	0	0	0	4	0
071212	16:18:20	10025	corsiblockEngFwrd	recallseqEngFwrd	9	1	858	0	120	16:18:20	1942879	5	0	0	0	0	0	0	0	0	0	0	0	0	0	0	4	0
071212	16:18:20	10025	corsiblockEngFwrd	recallseqEngFwrd	9	8	1685	0	120	16:18:20	1944598	5	0	0	0	0	0	0	0	0	0	0	0	0	0	0	4	0
071212	16:18:20	10025	corsiblockEngFwrd	recallseqEngFwrd	9	7	718	0	120	16:18:20	1945358	5	0	0	0	0	0	0	0	0	0	0	0	0	0	0	4	0
071212	16:18:20	10025	corsiblockEngFwrd	recallseqEngFwrd	9	9	398	0	120	16:18:20	1945798	5	0	0	0	0	0	0	0	0	0	0	0	0	0	0	4	0
071212	16:18:20	10025	corsiblockEngFwrd	recallseqEngFwrd	9	doneCorsiEng	2117	0	120	16:18:20	1947957	5	0	0	0	0	0	0	0	0	0	0	0	0	0	0	5	0
071212	16:18:20	10025	corsiblockEngFwrd	recallseqEngFwrd	9	2	1092	0	120	16:18:20	1958139	5	0	0	0	0	0	0	0	0	0	0	0	0	0	0	5	0
071212	16:18:20	10025	corsiblockEngFwrd	recallseqEngFwrd	9	4	1384	0	120	16:18:20	1959566	5	0	0	0	0	0	0	0	0	0	0	0	0	0	0	5	0
071212	16:18:20	10025	corsiblockEngFwrd	recallseqEngFwrd	9	6	510	0	120	16:18:20	1960112	5	0	0	0	0	0	0	0	0	0	0	0	0	0	0	5	0
071212	16:18:20	10025	corsiblockEngFwrd	recallseqEngFwrd	9	5	747	0	120	16:18:20	1960898	5	0	0	0	0	0	0	0	0	0	0	0	0	0	0	5	0
071212	16:18:20	10025	corsiblockEngFwrd	recallseqEngFwrd	9	8	578	0	120	16:18:20	1961511	5	0	0	0	0	0	0	0	0	0	0	0	0	0	0	5	0
071212	16:18:20	10025	corsiblockEngFwrd	recallseqEngFwrd	9	6	844	0	120	16:18:20	1962391	5	0	0	0	0	0	0	0	0	0	0	0	0	0	0	5	0
071212	16:18:20	10025	corsiblockEngFwrd	recallseqEngFwrd	9	doneCorsiEng	884	0	120	16:18:20	1963311	5	0	0	0	0	0	0	0	0	0	0	0	0	0	0	6	0
071212	16:18:20	10025	corsiblockEngFwrd	recallseqEngFwrd	9	9	1196	0	120	16:18:20	1974599	5	0	0	0	0	0	0	0	0	0	0	0	0	0	0	6	0
071212	16:18:20	10025	corsiblockEngFwrd	recallseqEngFwrd	9	4	1260	0	120	16:18:20	1975905	5	0	0	0	0	0	0	0	0	0	0	0	0	0	0	6	0
071212	16:18:20	10025	corsiblockEngFwrd	recallseqEngFwrd	9	3	1330	0	120	16:18:20	1977278	5	0	0	0	0	0	0	0	0	0	0	0	0	0	0	6	0
071212	16:18:20	10025	corsiblockEngFwrd	recallseqEngFwrd	9	1	549	0	120	16:18:20	1977865	5	0	0	0	0	0	0	0	0	0	0	0	0	0	0	6	0
071212	16:18:20	10025	corsiblockEngFwrd	recallseqEngFwrd	9	8	899	0	120	16:18:20	1978798	5	0	0	0	0	0	0	0	0	0	0	0	0	0	0	6	0
071212	16:18:20	10025	corsiblockEngFwrd	recallseqEngFwrd	9	2	934	0	120	16:18:20	1979771	5	0	0	0	0	0	0	0	0	0	0	0	0	0	0	6	0
071212	16:18:20	10025	corsiblockEngFwrd	recallseqEngFwrd	9	doneCorsiEng	1585	0	120	16:18:20	1981397	5	0	0	0	0	0	0	0	0	0	0	0	0	0	0	6	0
071212	16:18:20	10025	corsiblockEngFwrd	recallseqEngFwrd	9	1	1109	0	120	16:18:20	1992552	5	0	0	0	0	0	0	0	0	0	0	0	0	0	0	6	0
071212	16:18:20	10025	corsiblockEngFwrd	recallseqEngFwrd	9	2	691	0	120	16:18:20	1993285	5	0	0	0	0	0	0	0	0	0	0	0	0	0	0	6	0
071212	16:18:20	10025	corsiblockEngFwrd	recallseqEngFwrd	9	4	670	0	120	16:18:20	1993991	5	0	0	0	0	0	0	0	0	0	0	0	0	0	0	6	0
071212	16:18:20	10025	corsiblockEngFwrd	recallseqEngFwrd	9	8	611	0	120	16:18:20	1994644	5	0	0	0	0	0	0	0	0	0	0	0	0	0	0	6	0
071212	16:18:20	10025	corsiblockEngFwrd	recallseqEngFwrd	9	5	511	0	120	16:18:20	1995191	5	0	0	0	0	0	0	0	0	0	0	0	0	0	0	6	0
071212	16:18:20	10025	corsiblockEngFwrd	recallseqEngFwrd	9	9	780	0	120	16:18:20	1996004	5	0	0	0	0	0	0	0	0	0	0	0	0	0	0	6	0
071212	16:18:20	10025	corsiblockEngFwrd	recallseqEngFwrd	9	3	895	0	120	16:18:20	1996937	5	0	0	0	0	0	0	0	0	0	0	0	0	0	0	6	0
071212	16:18:20	10025	corsiblockEngFwrd	recallseqEngFwrd	9	doneCorsiEng	931	0	120	16:18:20	1997910	5	0	0	0	0	0	0	0	0	0	0	0	0	0	0	7	0
071212	16:18:20	10025	corsiblockEngFwrd	recallseqEngFwrd	9	7	828	0	120	16:18:20	2008825	5	0	0	0	0	0	0	0	0	0	0	0	0	0	0	7	0
071212	16:18:20	10025	corsiblockEngFwrd	recallseqEngFwrd	9	2	457	0	120	16:18:20	2009318	5	0	0	0	0	0	0	0	0	0	0	0	0	0	0	7	0
071212	16:18:20	10025	corsiblockEngFwrd	recallseqEngFwrd	9	3	933	0	120	16:18:20	2010291	5	0	0	0	0	0	0	0	0	0	0	0	0	0	0	7	0
071212	16:18:20	10025	corsiblockEngFwrd	recallseqEngFwrd	9	6	791	0	120	16:18:20	2011118	5	0	0	0	0	0	0	0	0	0	0	0	0	0	0	7	0
071212	16:18:20	10025	corsiblockEngFwrd	recallseqEngFwrd	9	7	1980	0	120	16:18:20	2013143	5	0	0	0	0	0	0	0	0	0	0	0	0	0	0	7	0
071212	16:18:20	10025	corsiblockEngFwrd	recallseqEngFwrd	9	2	907	0	120	16:18:20	2014090	5	0	0	0	0	0	0	0	0	0	0	0	0	0	0	7	0
071212	16:18:20	10025	corsiblockEngFwrd	recallseqEngFwrd	9	4	609	0	120	16:18:20	2014743	5	0	0	0	0	0	0	0	0	0	0	0	0	0	0	7	0
071212	16:18:20	10025	corsiblockEngFwrd	recallseqEngFwrd	9	1	683	0	120	16:18:20	2015462	5	0	0	0	0	0	0	0	0	0	0	0	0	0	0	7	0
071212	16:18:20	10025	corsiblockEngFwrd	recallseqEngFwrd	9	doneCorsiEng	1420	0	120	16:18:20	2016915	5	0	0	0	0	0	0	0	0	0	0	0	0	0	0	7	0
071212	16:18:20	10025	corsiblockEngFwrd	recallseqEngFwrd	9	5	869	0	120	16:18:20	2028831	5	0	0	0	0	0	0	0	0	0	0	0	0	0	0	7	0
071212	16:18:20	10025	corsiblockEngFwrd	recallseqEngFwrd	9	9	715	0	120	16:18:20	2029590	5	0	0	0	0	0	0	0	0	0	0	0	0	0	0	7	0
071212	16:18:20	10025	corsiblockEngFwrd	recallseqEngFwrd	9	8	684	0	120	16:18:20	2030310	5	0	0	0	0	0	0	0	0	0	0	0	0	0	0	7	0
071212	16:18:20	10025	corsiblockEngFwrd	recallseqEngFwrd	9	2	660	0	120	16:18:20	2031003	5	0	0	0	0	0	0	0	0	0	0	0	0	0	0	7	0
071212	16:18:20	10025	corsiblockEngFwrd	recallseqEngFwrd	9	3	527	0	120	16:18:20	2031576	5	0	0	0	0	0	0	0	0	0	0	0	0	0	0	7	0
071212	16:18:20	10025	corsiblockEngFwrd	recallseqEngFwrd	9	6	554	0	120	16:18:20	2032176	5	0	0	0	0	0	0	0	0	0	0	0	0	0	0	7	0
071212	16:18:20	10025	corsiblockEngFwrd	recallseqEngFwrd	9	5	594	0	120	16:18:20	2032815	5	0	0	0	0	0	0	0	0	0	0	0	0	0	0	7	0
071212	16:18:20	10025	corsiblockEngFwrd	recallseqEngFwrd	9	8	569	0	120	16:18:20	2033428	5	0	0	0	0	0	0	0	0	0	0	0	0	0	0	7	0
071212	16:18:20	10025	corsiblockEngFwrd	recallseqEngFwrd	9	doneCorsiEng	998	0	120	16:18:20	2034468	5	0	0	0	0	0	0	0	0	0	0	0	0	0	0	8	0
071212	16:18:20	10025	corsiblockEngFwrd	recallseqEngFwrd	9	4	1044	0	120	16:18:20	2046597	5	0	0	0	0	0	0	0	0	0	0	0	0	0	0	8	0
071212	16:18:20	10025	corsiblockEngFwrd	recallseqEngFwrd	9	9	773	0	120	16:18:20	2047409	5	0	0	0	0	0	0	0	0	0	0	0	0	0	0	8	0
071212	16:18:20	10025	corsiblockEngFwrd	recallseqEngFwrd	9	7	560	0	120	16:18:20	2048009	5	0	0	0	0	0	0	0	0	0	0	0	0	0	0	8	0
071212	16:18:20	10025	corsiblockEngFwrd	recallseqEngFwrd	9	1	743	0	120	16:18:20	2048795	5	0	0	0	0	0	0	0	0	0	0	0	0	0	0	8	0
071212	16:18:20	10025	corsiblockEngFwrd	recallseqEngFwrd	9	6	654	0	120	16:18:20	2049489	5	0	0	0	0	0	0	0	0	0	0	0	0	0	0	8	0
071212	16:18:20	10025	corsiblockEngFwrd	recallseqEngFwrd	9	5	1216	0	120	16:18:20	2050741	5	0	0	0	0	0	0	0	0	0	0	0	0	0	0	8	0
071212	16:18:20	10025	corsiblockEngFwrd	recallseqEngFwrd	9	8	1340	0	120	16:18:20	2052114	5	0	0	0	0	0	0	0	0	0	0	0	0	0	0	8	0
071212	16:18:20	10025	corsiblockEngFwrd	recallseqEngFwrd	9	4	591	0	120	16:18:20	2052740	5	0	0	0	0	0	0	0	0	0	0	0	0	0	0	8	0
071212	16:18:20	10025	corsiblockEngFwrd	recallseqEngFwrd	9	2	789	0	120	16:18:20	2053567	5	0	0	0	0	0	0	0	0	0	0	0	0	0	0	8	0
071212	16:18:20	10025	corsiblockEngFwrd	recallseqEngFwrd	9	doneCorsiEng	1003	0	120	16:18:20	2054606	5	0	0	0	0	0	0	0	0	0	0	0	0	0	0	8	0
071212	16:18:20	10025	corsiblockEngFwrd	recallseqEngFwrd	9	1	906	0	120	16:18:20	2067561	5	0	0	0	0	0	0	0	0	0	0	0	0	0	0	8	0
071212	16:18:20	10025	corsiblockEngFwrd	recallseqEngFwrd	9	3	1191	0	120	16:18:20	2068787	5	0	0	0	0	0	0	0	0	0	0	0	0	0	0	8	0
071212	16:18:20	10025	corsiblockEngFwrd	recallseqEngFwrd	9	6	565	0	120	16:18:20	2069387	5	0	0	0	0	0	0	0	0	0	0	0	0	0	0	8	0
071212	16:18:20	10025	corsiblockEngFwrd	recallseqEngFwrd	9	7	758	0	120	16:18:20	2070187	5	0	0	0	0	0	0	0	0	0	0	0	0	0	0	8	0
071212	16:18:20	10025	corsiblockEngFwrd	recallseqEngFwrd	9	9	614	0	120	16:18:20	2070840	5	0	0	0	0	0	0	0	0	0	0	0	0	0	0	8	0
071212	16:18:20	10025	corsiblockEngFwrd	recallseqEngFwrd	9	4	889	0	120	16:18:20	2071773	5	0	0	0	0	0	0	0	0	0	0	0	0	0	0	8	0
071212	16:18:20	10025	corsiblockEngFwrd	recallseqEngFwrd	9	5	540	0	120	16:18:20	2072346	5	0	0	0	0	0	0	0	0	0	0	0	0	0	0	8	0
071212	16:18:20	10025	corsiblockEngFwrd	recallseqEngFwrd	9	7	815	0	120	16:18:20	2073199	5	0	0	0	0	0	0	0	0	0	0	0	0	0	0	8	0
071212	16:18:20	10025	corsiblockEngFwrd	recallseqEngFwrd	9	3	514	0	120	16:18:20	2073758	5	0	0	0	0	0	0	0	0	0	0	0	0	0	0	8	0
071212	16:18:20	10025	corsiblockEngFwrd	recallseqEngFwrd	9	1	698	0	120	16:18:20	2074491	5	0	0	0	0	0	0	0	0	0	0	0	0	0	0	8	0
071212	16:18:20	10025	corsiblockEngFwrd	recallseqEngFwrd	9	doneCorsiEng	1509	0	120	16:18:20	2076037	5	0	0	0	0	0	0	0	0	0	0	0	0	0	0	8	0
071212	16:18:20	10025	corsiblockEngRev	recallseqEngRev	10	2	950	0	120	16:18:20	2088179	5	0	0	0	0	0	0	0	0	0	0	0	0	0	0	8	0
071212	16:18:20	10025	corsiblockEngRev	recallseqEngRev	10	3	909	0	120	16:18:20	2089125	5	0	0	0	0	0	0	0	0	0	0	0	0	0	0	8	0
071212	16:18:20	10025	corsiblockEngRev	recallseqEngRev	10	resetCorsiEng	1754	0	120	16:18:20	2090925	5	0	0	0	0	0	0	0	0	0	0	0	0	0	0	8	0
071212	16:18:20	10025	corsiblockEngRev	recallseqEngRev	10	resetCorsiEng	1091	0	120	16:18:20	2092057	5	0	0	0	0	0	0	0	0	0	0	0	0	0	0	8	0
071212	16:18:20	10025	corsiblockEngRev	recallseqEngRev	10	resetCorsiEng	1566	0	120	16:18:20	2093657	5	0	0	0	0	0	0	0	0	0	0	0	0	0	0	8	0
071212	16:18:20	10025	corsiblockEngRev	recallseqEngRev	10	3	4951	0	120	16:18:20	2098641	5	0	0	0	0	0	0	0	0	0	0	0	0	0	0	8	0
071212	16:18:20	10025	corsiblockEngRev	recallseqEngRev	10	2	630	0	120	16:18:20	2099308	5	0	0	0	0	0	0	0	0	0	0	0	0	0	0	8	0
071212	16:18:20	10025	corsiblockEngRev	recallseqEngRev	10	doneCorsiEng	1068	0	120	16:18:20	2100414	5	0	0	0	0	0	0	0	0	0	0	0	0	0	0	8	2
071212	16:18:20	10025	corsiblockEngRev	recallseqEngRev	10	7	814	0	120	16:18:20	2107318	5	0	0	0	0	0	0	0	0	0	0	0	0	0	0	8	2
071212	16:18:20	10025	corsiblockEngRev	recallseqEngRev	10	9	633	0	120	16:18:20	2107984	5	0	0	0	0	0	0	0	0	0	0	0	0	0	0	8	2
071212	16:18:20	10025	corsiblockEngRev	recallseqEngRev	10	8	990	0	120	16:18:20	2109010	5	0	0	0	0	0	0	0	0	0	0	0	0	0	0	8	2
071212	16:18:20	10025	corsiblockEngRev	recallseqEngRev	10	doneCorsiEng	804	0	120	16:18:20	2109850	5	0	0	0	0	0	0	0	0	0	0	0	0	0	0	8	3
071212	16:18:20	10025	corsiblockEngRev	recallseqEngRev	10	5	794	0	120	16:18:20	2117740	5	0	0	0	0	0	0	0	0	0	0	0	0	0	0	8	3
071212	16:18:20	10025	corsiblockEngRev	recallseqEngRev	10	6	491	0	120	16:18:20	2118273	5	0	0	0	0	0	0	0	0	0	0	0	0	0	0	8	3
071212	16:18:20	10025	corsiblockEngRev	recallseqEngRev	10	1	734	0	120	16:18:20	2119046	5	0	0	0	0	0	0	0	0	0	0	0	0	0	0	8	3
071212	16:18:20	10025	corsiblockEngRev	recallseqEngRev	10	4	896	0	120	16:18:20	2119979	5	0	0	0	0	0	0	0	0	0	0	0	0	0	0	8	3
071212	16:18:20	10025	corsiblockEngRev	recallseqEngRev	10	doneCorsiEng	980	0	120	16:18:20	2120992	5	0	0	0	0	0	0	0	0	0	0	0	0	0	0	8	4
071212	16:18:20	10025	corsiblockEngRev	recallseqEngRev	10	5	1269	0	120	16:18:20	2130348	5	0	0	0	0	0	0	0	0	0	0	0	0	0	0	8	4
071212	16:18:20	10025	corsiblockEngRev	recallseqEngRev	10	9	914	0	120	16:18:20	2131308	5	0	0	0	0	0	0	0	0	0	0	0	0	0	0	8	4
071212	16:18:20	10025	corsiblockEngRev	recallseqEngRev	10	8	1458	0	120	16:18:20	2132801	5	0	0	0	0	0	0	0	0	0	0	0	0	0	0	8	4
071212	16:18:20	10025	corsiblockEngRev	recallseqEngRev	10	7	470	0	120	16:18:20	2133307	5	0	0	0	0	0	0	0	0	0	0	0	0	0	0	8	4
071212	16:18:20	10025	corsiblockEngRev	recallseqEngRev	10	1	1043	0	120	16:18:20	2134387	5	0	0	0	0	0	0	0	0	0	0	0	0	0	0	8	4
071212	16:18:20	10025	corsiblockEngRev	recallseqEngRev	10	doneCorsiEng	1364	0	120	16:18:20	2135786	5	0	0	0	0	0	0	0	0	0	0	0	0	0	0	8	5
071212	16:18:20	10025	corsiblockEngRev	recallseqEngRev	10	4	922	0	120	16:18:20	2145795	5	0	0	0	0	0	0	0	0	0	0	0	0	0	0	8	5
071212	16:18:20	10025	corsiblockEngRev	recallseqEngRev	10	9	1387	0	120	16:18:20	2147221	5	0	0	0	0	0	0	0	0	0	0	0	0	0	0	8	5
071212	16:18:20	10025	corsiblockEngRev	recallseqEngRev	10	6	665	0	120	16:18:20	2147928	5	0	0	0	0	0	0	0	0	0	0	0	0	0	0	8	5
071212	16:18:20	10025	corsiblockEngRev	recallseqEngRev	10	2	646	0	120	16:18:20	2148607	5	0	0	0	0	0	0	0	0	0	0	0	0	0	0	8	5
071212	16:18:20	10025	corsiblockEngRev	recallseqEngRev	10	3	551	0	120	16:18:20	2149194	5	0	0	0	0	0	0	0	0	0	0	0	0	0	0	8	5
071212	16:18:20	10025	corsiblockEngRev	recallseqEngRev	10	doneCorsiEng	789	0	120	16:18:20	2150020	5	0	0	0	0	0	0	0	0	0	0	0	0	0	0	8	5
071212	16:18:20	10025	corsiblockEngRev	recallseqEngRev	10	7	919	0	120	16:18:20	2159989	5	0	0	0	0	0	0	0	0	0	0	0	0	0	0	8	5
071212	16:18:20	10025	corsiblockEngRev	recallseqEngRev	10	8	424	0	120	16:18:20	2160456	5	0	0	0	0	0	0	0	0	0	0	0	0	0	0	8	5
071212	16:18:20	10025	corsiblockEngRev	recallseqEngRev	10	5	965	0	120	16:18:20	2161455	5	0	0	0	0	0	0	0	0	0	0	0	0	0	0	8	5
071212	16:18:20	10025	corsiblockEngRev	recallseqEngRev	10	2	734	0	120	16:18:20	2162228	5	0	0	0	0	0	0	0	0	0	0	0	0	0	0	8	5
071212	16:18:20	10025	corsiblockEngRev	recallseqEngRev	10	1	641	0	120	16:18:20	2162908	5	0	0	0	0	0	0	0	0	0	0	0	0	0	0	8	5
071212	16:18:20	10025	corsiblockEngRev	recallseqEngRev	10	6	713	0	120	16:18:20	2163654	5	0	0	0	0	0	0	0	0	0	0	0	0	0	0	8	5
071212	16:18:20	10025	corsiblockEngRev	recallseqEngRev	10	doneCorsiEng	782	0	120	16:18:20	2164481	5	0	0	0	0	0	0	0	0	0	0	0	0	0	0	8	6
071212	16:18:20	10025	corsiblockEngRev	recallseqEngRev	10	8	819	0	120	16:18:20	2174383	5	0	0	0	0	0	0	0	0	0	0	0	0	0	0	8	6
071212	16:18:20	10025	corsiblockEngRev	recallseqEngRev	10	5	566	0	120	16:18:20	2174983	5	0	0	0	0	0	0	0	0	0	0	0	0	0	0	8	6
071212	16:18:20	10025	corsiblockEngRev	recallseqEngRev	10	2	598	0	120	16:18:20	2175623	5	0	0	0	0	0	0	0	0	0	0	0	0	0	0	8	6
071212	16:18:20	10025	corsiblockEngRev	recallseqEngRev	10	6	526	0	120	16:18:20	2176183	5	0	0	0	0	0	0	0	0	0	0	0	0	0	0	8	6
071212	16:18:20	10025	corsiblockEngRev	recallseqEngRev	10	9	767	0	120	16:18:20	2176982	5	0	0	0	0	0	0	0	0	0	0	0	0	0	0	8	6
071212	16:18:20	10025	corsiblockEngRev	recallseqEngRev	10	3	791	0	120	16:18:20	2177809	5	0	0	0	0	0	0	0	0	0	0	0	0	0	0	8	6
071212	16:18:20	10025	corsiblockEngRev	recallseqEngRev	10	9	1948	0	120	16:18:20	2179794	5	0	0	0	0	0	0	0	0	0	0	0	0	0	0	8	6
071212	16:18:20	10025	corsiblockEngRev	recallseqEngRev	10	doneCorsiEng	867	0	120	16:18:20	2180701	5	0	0	0	0	0	0	0	0	0	0	0	0	0	0	8	6
071212	16:18:20	10025	corsiblockEngRev	recallseqEngRev	10	6	742	0	120	16:18:20	2191496	5	0	0	0	0	0	0	0	0	0	0	0	0	0	0	8	6
071212	16:18:20	10025	corsiblockEngRev	recallseqEngRev	10	7	836	0	120	16:18:20	2192376	5	0	0	0	0	0	0	0	0	0	0	0	0	0	0	8	6
071212	16:18:20	10025	corsiblockEngRev	recallseqEngRev	10	3	900	0	120	16:18:20	2193322	5	0	0	0	0	0	0	0	0	0	0	0	0	0	0	8	6
071212	16:18:20	10025	corsiblockEngRev	recallseqEngRev	10	1	786	0	120	16:18:20	2194149	5	0	0	0	0	0	0	0	0	0	0	0	0	0	0	8	6
071212	16:18:20	10025	corsiblockEngRev	recallseqEngRev	10	2	1272	0	120	16:18:20	2195455	5	0	0	0	0	0	0	0	0	0	0	0	0	0	0	8	6
071212	16:18:20	10025	corsiblockEngRev	recallseqEngRev	10	4	710	0	120	16:18:20	2196201	5	0	0	0	0	0	0	0	0	0	0	0	0	0	0	8	6
071212	16:18:20	10025	corsiblockEngRev	recallseqEngRev	10	7	571	0	120	16:18:20	2196814	5	0	0	0	0	0	0	0	0	0	0	0	0	0	0	8	6
071212	16:18:20	10025	corsiblockEngRev	recallseqEngRev	10	doneCorsiEng	1022	0	120	16:18:20	2197880	5	0	0	0	0	0	0	0	0	0	0	0	0	0	0	8	6
071212	16:18:20	10025	testEngBaseline	WordsEngBaseline	11	1EngBaseline	920	0	120	16:18:20	2218739	5	1	0	0	0	0	0	0	0	0	0	0	0	0	0	8	6
071212	16:18:20	10025	testEngBaseline	WordsEngBaseline	11	2EngBaseline	209	0	120	16:18:20	2218992	5	1	1	0	0	0	0	0	0	0	0	0	0	0	0	8	6
071212	16:18:20	10025	testEngBaseline	WordsEngBaseline	11	3EngBaseline	604	0	120	16:18:20	2219632	5	1	1	1	0	0	0	0	0	0	0	0	0	0	0	8	6
071212	16:18:20	10025	testEngBaseline	WordsEngBaseline	11	4EngBaseline	204	0	120	16:18:20	2219872	5	1	1	1	1	0	0	0	0	0	0	0	0	0	0	8	6
071212	16:18:20	10025	testEngBaseline	WordsEngBaseline	11	5EngBaseline	253	0	120	16:18:20	2220165	5	1	1	1	1	1	0	0	0	0	0	0	0	0	0	8	6
071212	16:18:20	10025	testEngBaseline	WordsEngBaseline	11	6EngBaseline	207	0	120	16:18:20	2220418	5	1	1	1	1	1	1	0	0	0	0	0	0	0	0	8	6
071212	16:18:20	10025	testEngBaseline	WordsEngBaseline	11	7EngBaseline	298	0	120	16:18:20	2220751	5	1	1	1	1	1	1	1	0	0	0	0	0	0	0	8	6
071212	16:18:20	10025	testEngBaseline	WordsEngBaseline	11	8EngBaseline	541	0	120	16:18:20	2221338	5	1	1	1	1	1	1	1	1	0	0	0	0	0	0	8	6
071212	16:18:20	10025	testEngBaseline	WordsEngBaseline	11	DoneEngBaseline	1298	0	120	16:18:20	2222670	5	1	1	1	1	1	1	1	1	0	0	0	0	0	0	8	6
071212	16:18:20	10025	DigitSpanFwrdEngBaseline	Score1FwrdEngBaseline	12	DS1	4620	0	120	16:18:20	2242835	5	1	1	1	1	1	1	1	1	0	0	0	0	0	0	8	6
071212	16:18:20	10025	DigitSpanFwrdEngBaseline	Gate1FwrdEngBaseline	12	0	1	0	120	16:18:20	2242850	5	1	1	1	1	1	1	1	1	3	0	0	0	0	0	8	6
071212	16:18:20	10025	DigitSpanFwrdEngBaseline	Score2FwrdEngBaseline	12	DS1	4304	0	120	16:18:20	2252924	5	1	1	1	1	1	1	1	1	3	0	0	0	0	0	8	6
071212	16:18:20	10025	DigitSpanFwrdEngBaseline	Gate3FwrdEngBaseline	12	0	1	0	120	16:18:20	2252939	5	1	1	1	1	1	1	1	1	4	0	0	0	0	0	8	6
071212	16:18:20	10025	DigitSpanFwrdEngBaseline	Score3FwrdEngBaseline	12	DS1	2410	0	120	16:18:20	2263133	5	1	1	1	1	1	1	1	1	4	0	0	0	0	0	8	6
071212	16:18:20	10025	DigitSpanFwrdEngBaseline	Gate5FwrdEngBaseline	12	0	1	0	120	16:18:20	2263149	5	1	1	1	1	1	1	1	1	5	0	0	0	0	0	8	6
071212	16:18:20	10025	DigitSpanFwrdEngBaseline	Score4FwrdEngBaseline	12	DS1	3468	0	120	16:18:20	2276167	5	1	1	1	1	1	1	1	1	5	0	0	0	0	0	8	6
071212	16:18:20	10025	DigitSpanFwrdEngBaseline	Gate7FwrdEngBaseline	12	0	1	0	120	16:18:20	2276183	5	1	1	1	1	1	1	1	1	6	0	0	0	0	0	8	6
071212	16:18:20	10025	DigitSpanFwrdEngBaseline	Score5FwrdEngBaseline	12	DS1	4414	0	120	16:18:20	2291654	5	1	1	1	1	1	1	1	1	6	0	0	0	0	0	8	6
071212	16:18:20	10025	DigitSpanFwrdEngBaseline	Gate9FwrdEngBaseline	12	0	1	0	120	16:18:20	2291670	5	1	1	1	1	1	1	1	1	7	0	0	0	0	0	8	6
071212	16:18:20	10025	DigitSpanFwrdEngBaseline	Score6FwrdEngBaseline	12	DS2	5675	0	120	16:18:20	2310660	5	1	1	1	1	1	1	1	1	7	0	0	0	0	0	8	6
071212	16:18:20	10025	DigitSpanFwrdEngBaseline	Gate11FwrdEngBaseline	12	0	1	0	120	16:18:20	2310675	5	1	1	1	1	1	1	1	1	7	0	0	0	0	0	8	6
071212	16:18:20	10025	DigitSpanFwrdEngBaseline	Score66FwrdEngBaseline	12	DS2	4959	0	120	16:18:20	2328839	5	1	1	1	1	1	1	1	1	7	0	0	0	0	0	8	6
071212	16:18:20	10025	DigitSpanEngBaseline	Score1EngBaseline	13	DS1	2728	0	120	16:18:20	2343779	5	1	1	1	1	1	1	1	1	7	0	0	0	0	0	8	6
071212	16:18:20	10025	DigitSpanEngBaseline	Gate1EngBaseline	13	0	1	0	120	16:18:20	2343795	5	1	1	1	1	1	1	1	1	7	2	0	0	0	0	8	6
071212	16:18:20	10025	DigitSpanEngBaseline	Score2EngBaseline	13	DS1	3537	0	120	16:18:20	2352043	5	1	1	1	1	1	1	1	1	7	2	0	0	0	0	8	6
071212	16:18:20	10025	DigitSpanEngBaseline	Gate3EngBaseline	13	0	1	0	120	16:18:20	2352058	5	1	1	1	1	1	1	1	1	7	3	0	0	0	0	8	6
071212	16:18:20	10025	DigitSpanEngBaseline	Score3EngBaseline	13	DS1	12090	0	120	16:18:20	2370741	5	1	1	1	1	1	1	1	1	7	3	0	0	0	0	8	6
071212	16:18:20	10025	DigitSpanEngBaseline	Gate5EngBaseline	13	0	1	0	120	16:18:20	2370757	5	1	1	1	1	1	1	1	1	7	4	0	0	0	0	8	6
071212	16:18:20	10025	DigitSpanEngBaseline	Score4EngBaseline	13	DS1	6834	0	120	16:18:20	2385642	5	1	1	1	1	1	1	1	1	7	4	0	0	0	0	8	6
071212	16:18:20	10025	DigitSpanEngBaseline	Gate7EngBaseline	13	0	1	0	120	16:18:20	2385657	5	1	1	1	1	1	1	1	1	7	5	0	0	0	0	8	6
071212	16:18:20	10025	DigitSpanEngBaseline	Score5EngBaseline	13	DS2	7088	0	120	16:18:20	2402408	5	1	1	1	1	1	1	1	1	7	5	0	0	0	0	8	6
071212	16:18:20	10025	DigitSpanEngBaseline	Gate9EngBaseline	13	0	1	0	120	16:18:20	2402424	5	1	1	1	1	1	1	1	1	7	5	0	0	0	0	8	6
071212	16:18:20	10025	DigitSpanEngBaseline	Score55EngBaseline	13	DS1	8595	0	120	16:18:20	2420774	5	1	1	1	1	1	1	1	1	7	5	0	0	0	0	8	6
071212	16:18:20	10025	DigitSpanEngBaseline	Gate10EngBaseline	13	0	1	0	120	16:18:20	2420789	5	1	1	1	1	1	1	1	1	7	6	0	0	0	0	8	6
071212	16:18:20	10025	DigitSpanEngBaseline	Score6EngBaseline	13	DS2	13945	0	120	16:18:20	2446697	5	1	1	1	1	1	1	1	1	7	6	0	0	0	0	8	6
071212	16:18:20	10025	DigitSpanEngBaseline	Gate11EngBaseline	13	0	1	0	120	16:18:20	2446712	5	1	1	1	1	1	1	1	1	7	6	0	0	0	0	8	6
071212	16:18:20	10025	DigitSpanEngBaseline	Score66EngBaseline	13	DS1	14324	0	120	16:18:20	2471846	5	1	1	1	1	1	1	1	1	7	7	0	0	0	0	8	6
071212	16:18:20	10025	Trial	IncongruentRight	14	205	461	1	120	16:18:20	2511577	5	1	1	1	1	1	1	1	1	7	7	0	0	0	0	8	6
071212	16:18:20	10025	Trial	IncongruentLeft	14	203	501	1	120	16:18:20	2512616	5	1	1	1	1	1	1	1	1	7	7	0	0	0	0	8	6
071212	16:18:20	10025	Trial	CongruentRight	14	205	510	1	120	16:18:20	2513629	5	1	1	1	1	1	1	1	1	7	7	0	0	0	0	8	6
071212	16:18:20	10025	Trial	IncongruentRight	14	205	583	1	120	16:18:20	2514695	5	1	1	1	1	1	1	1	1	7	7	0	0	0	0	8	6
071212	16:18:20	10025	Trial	CongruentLeft	14	203	546	1	120	16:18:20	2515681	5	1	1	1	1	1	1	1	1	7	7	0	0	0	0	8	6
071212	16:18:20	10025	Trial	CongruentRight	14	205	554	1	120	16:18:20	2516681	5	1	1	1	1	1	1	1	1	7	7	0	0	0	0	8	6
071212	16:18:20	10025	Trial	IncongruentRight	14	205	642	1	120	16:18:20	2517774	5	1	1	1	1	1	1	1	1	7	7	0	0	0	0	8	6
071212	16:18:20	10025	Trial	CongruentLeft	14	203	618	1	120	16:18:20	2518747	5	1	1	1	1	1	1	1	1	7	7	0	0	0	0	8	6
071212	16:18:20	10025	Trial	IncongruentLeft	14	203	691	1	120	16:18:20	2519826	5	1	1	1	1	1	1	1	1	7	7	0	0	0	0	8	6
071212	16:18:20	10025	Trial	IncongruentLeft	14	203	667	1	120	16:18:20	2520799	5	1	1	1	1	1	1	1	1	7	7	0	0	0	0	8	6
071212	16:18:20	10025	Trial	CongruentRight	14	205	611	1	120	16:18:20	2521746	5	1	1	1	1	1	1	1	1	7	7	0	0	0	0	8	6
071212	16:18:20	10025	Trial	IncongruentRight	14	205	588	1	120	16:18:20	2522719	5	1	1	1	1	1	1	1	1	7	7	0	0	0	0	8	6
071212	16:18:20	10025	Trial	CongruentLeft	14	203	567	1	120	16:18:20	2523691	5	1	1	1	1	1	1	1	1	7	7	0	0	0	0	8	6
071212	16:18:20	10025	Trial	CongruentRight	14	205	476	1	120	16:18:20	2524598	5	1	1	1	1	1	1	1	1	7	7	0	0	0	0	8	6
071212	16:18:20	10025	Trial	IncongruentLeft	14	203	517	1	120	16:18:20	2525637	5	1	1	1	1	1	1	1	1	7	7	0	0	0	0	8	6
071212	16:18:20	10025	Trial	IncongruentRight	14	205	686	1	120	16:18:20	2526810	5	1	1	1	1	1	1	1	1	7	7	0	0	0	0	8	6
071212	16:18:20	10025	Trial	CongruentRight	14	205	710	1	120	16:18:20	2527836	5	1	1	1	1	1	1	1	1	7	7	0	0	0	0	8	6
071212	16:18:20	10025	Trial	CongruentLeft	14	203	638	1	120	16:18:20	2528769	5	1	1	1	1	1	1	1	1	7	7	0	0	0	0	8	6
071212	16:18:20	10025	Trial	CongruentRight	14	205	695	1	120	16:18:20	2529822	5	1	1	1	1	1	1	1	1	7	7	0	0	0	0	8	6
071212	16:18:20	10025	Trial	IncongruentRight	14	0	737	0	120	16:18:20	2530848	5	1	1	1	1	1	1	1	1	7	7	0	0	0	0	8	6
071212	16:18:20	10025	Trial	IncongruentLeft	14	203	727	1	120	16:18:20	2531848	5	1	1	1	1	1	1	1	1	7	7	0	0	0	0	8	6
071212	16:18:20	10025	Trial	IncongruentLeft	14	0	737	0	120	16:18:20	2532861	5	1	1	1	1	1	1	1	1	7	7	0	0	0	0	8	6
071212	16:18:20	10025	Trial	CongruentLeft	14	203	667	1	120	16:18:20	2533807	5	1	1	1	1	1	1	1	1	7	7	0	0	0	0	8	6
071212	16:18:20	10025	Trial	CongruentRight	14	205	579	1	120	16:18:20	2534713	5	1	1	1	1	1	1	1	1	7	7	0	0	0	0	8	6
071212	16:18:20	10025	Trial	IncongruentLeft	14	203	604	1	120	16:18:20	2535740	5	1	1	1	1	1	1	1	1	7	7	0	0	0	0	8	6
071212	16:18:20	10025	Trial	IncongruentRight	14	205	631	1	120	16:18:20	2536779	5	1	1	1	1	1	1	1	1	7	7	0	0	0	0	8	6
071212	16:18:20	10025	Trial	CongruentRight	14	205	639	1	120	16:18:20	2537792	5	1	1	1	1	1	1	1	1	7	7	0	0	0	0	8	6
071212	16:18:20	10025	Trial	CongruentLeft	14	203	647	1	120	16:18:20	2538792	5	1	1	1	1	1	1	1	1	7	7	0	0	0	0	8	6
071212	16:18:20	10025	Trial	IncongruentRight	14	205	543	1	120	16:18:20	2539685	5	1	1	1	1	1	1	1	1	7	7	0	0	0	0	8	6
071212	16:18:20	10025	Trial	IncongruentLeft	14	203	488	1	120	16:18:20	2540631	5	1	1	1	1	1	1	1	1	7	7	0	0	0	0	8	6
071212	16:18:20	10025	Trial	IncongruentRight	14	205	369	1	120	16:18:20	2541511	5	1	1	1	1	1	1	1	1	7	7	0	0	0	0	8	6
071212	16:18:20	10025	Trial	CongruentRight	14	205	473	1	120	16:18:20	2542617	5	1	1	1	1	1	1	1	1	7	7	0	0	0	0	8	6
071212	16:18:20	10025	Trial	IncongruentLeft	14	203	434	1	120	16:18:20	2543576	5	1	1	1	1	1	1	1	1	7	7	0	0	0	0	8	6
071212	16:18:20	10025	Trial	CongruentLeft	14	203	458	1	120	16:18:20	2544603	5	1	1	1	1	1	1	1	1	7	7	0	0	0	0	8	6
071212	16:18:20	10025	Trial	CongruentRight	14	205	498	1	120	16:18:20	2545642	5	1	1	1	1	1	1	1	1	7	7	0	0	0	0	8	6
071212	16:18:20	10025	Trial	IncongruentLeft	14	203	475	1	120	16:18:20	2546615	5	1	1	1	1	1	1	1	1	7	7	0	0	0	0	8	6
071212	16:18:20	10025	Trial	IncongruentRight	14	205	515	1	120	16:18:20	2547655	5	1	1	1	1	1	1	1	1	7	7	0	0	0	0	8	6
071212	16:18:20	10025	Trial	IncongruentRight	14	205	619	1	120	16:18:20	2548761	5	1	1	1	1	1	1	1	1	7	7	0	0	0	0	8	6
071212	16:18:20	10025	Trial	CongruentLeft	14	203	436	1	120	16:18:20	2549574	5	1	1	1	1	1	1	1	1	7	7	0	0	0	0	8	6
071212	16:18:20	10025	Trial	IncongruentLeft	14	203	604	1	120	16:18:20	2550747	5	1	1	1	1	1	1	1	1	7	7	0	0	0	0	8	6
071212	16:18:20	10025	Trial	CongruentRight	14	205	484	1	120	16:18:20	2551626	5	1	1	1	1	1	1	1	1	7	7	0	0	0	0	8	6
071212	16:18:20	10025	Trial	CongruentLeft	14	203	413	1	120	16:18:20	2552559	5	1	1	1	1	1	1	1	1	7	7	0	0	0	0	8	6
071212	16:18:20	10025	Trial	IncongruentRight	14	205	533	1	120	16:18:20	2553679	5	1	1	1	1	1	1	1	1	7	7	0	0	0	0	8	6
071212	16:18:20	10025	Trial	CongruentRight	14	205	494	1	120	16:18:20	2554639	5	1	1	1	1	1	1	1	1	7	7	0	0	0	0	8	6
071212	16:18:20	10025	Trial	IncongruentLeft	14	203	534	1	120	16:18:20	2555678	5	1	1	1	1	1	1	1	1	7	7	0	0	0	0	8	6
071212	16:18:20	10025	Trial	CongruentLeft	14	203	478	1	120	16:18:20	2556624	5	1	1	1	1	1	1	1	1	7	7	0	0	0	0	8	6
071212	16:18:20	10025	Trial	IncongruentLeft	14	203	711	1	120	16:18:20	2557851	5	1	1	1	1	1	1	1	1	7	7	0	0	0	0	8	6
071212	16:18:20	10025	Trial	IncongruentRight	14	205	527	1	120	16:18:20	2558664	5	1	1	1	1	1	1	1	1	7	7	0	0	0	0	8	6
071212	16:18:20	10025	Trial	CongruentRight	14	205	455	1	120	16:18:20	2559597	5	1	1	1	1	1	1	1	1	7	7	0	0	0	0	8	6
071212	16:18:20	10025	Trial	CongruentLeft	14	203	496	1	120	16:18:20	2560636	5	1	1	1	1	1	1	1	1	7	7	0	0	0	0	8	6
071212	16:18:20	10025	Trial	CongruentLeft	14	203	440	1	120	16:18:20	2561582	5	1	1	1	1	1	1	1	1	7	7	0	0	0	0	8	6
071212	16:18:20	10025	Trial	IncongruentRight	14	205	593	1	120	16:18:20	2562729	5	1	1	1	1	1	1	1	1	7	7	0	0	0	0	8	6
071212	16:18:20	10025	Trial	IncongruentLeft	14	203	489	1	120	16:18:20	2563622	5	1	1	1	1	1	1	1	1	7	7	0	0	0	0	8	6
071212	16:18:20	10025	Trial	IncongruentRight	14	205	369	1	120	16:18:20	2564501	5	1	1	1	1	1	1	1	1	7	7	0	0	0	0	8	6
071212	16:18:20	10025	Trial	CongruentRight	14	205	570	1	120	16:18:20	2565701	5	1	1	1	1	1	1	1	1	7	7	0	0	0	0	8	6
071212	16:18:20	10025	Trial	CongruentRight	14	205	402	1	120	16:18:20	2566540	5	1	1	1	1	1	1	1	1	7	7	0	0	0	0	8	6
071212	16:18:20	10025	Trial	IncongruentLeft	14	203	477	1	120	16:18:20	2567620	5	1	1	1	1	1	1	1	1	7	7	0	0	0	0	8	6
071212	16:18:20	10025	Trial	CongruentLeft	14	203	582	1	120	16:18:20	2568726	5	1	1	1	1	1	1	1	1	7	7	0	0	0	0	8	6
071212	16:18:20	10025	Trial	CongruentRight	14	205	430	1	120	16:18:20	2569579	5	1	1	1	1	1	1	1	1	7	7	0	0	0	0	8	6
071212	16:18:20	10025	Trial	CongruentLeft	14	203	342	1	120	16:18:20	2570485	5	1	1	1	1	1	1	1	1	7	7	0	0	0	0	8	6
071212	16:18:20	10025	Trial	IncongruentRight	14	205	335	1	120	16:18:20	2571485	5	1	1	1	1	1	1	1	1	7	7	0	0	0	0	8	6
071212	16:18:20	10025	Trial	CongruentRight	14	205	407	1	120	16:18:20	2572551	5	1	1	1	1	1	1	1	1	7	7	0	0	0	0	8	6
071212	16:18:20	10025	Trial	CongruentLeft	14	203	448	1	120	16:18:20	2573591	5	1	1	1	1	1	1	1	1	7	7	0	0	0	0	8	6
071212	16:18:20	10025	Trial	IncongruentLeft	14	203	520	1	120	16:18:20	2574670	5	1	1	1	1	1	1	1	1	7	7	0	0	0	0	8	6
071212	16:18:20	10025	Trial	IncongruentLeft	14	203	560	1	120	16:18:20	2575710	5	1	1	1	1	1	1	1	1	7	7	0	0	0	0	8	6
071212	16:18:20	10025	Trial	CongruentRight	14	205	473	1	120	16:18:20	2576616	5	1	1	1	1	1	1	1	1	7	7	0	0	0	0	8	6
071212	16:18:20	10025	Trial	IncongruentRight	14	205	513	1	120	16:18:20	2577656	5	1	1	1	1	1	1	1	1	7	7	0	0	0	0	8	6
071212	16:18:20	10025	Trial	CongruentLeft	14	203	505	1	120	16:18:20	2578655	5	1	1	1	1	1	1	1	1	7	7	0	0	0	0	8	6
071212	16:18:20	10025	Trial	IncongruentRight	14	205	498	1	120	16:18:20	2579641	5	1	1	1	1	1	1	1	1	7	7	0	0	0	0	8	6
071212	16:18:20	10025	Trial	CongruentRight	14	205	474	1	120	16:18:20	2580615	5	1	1	1	1	1	1	1	1	7	7	0	0	0	0	8	6
071212	16:18:20	10025	Trial	IncongruentLeft	14	203	499	1	120	16:18:20	2581641	5	1	1	1	1	1	1	1	1	7	7	0	0	0	0	8	6
071212	16:18:20	10025	Trial	CongruentLeft	14	203	507	1	120	16:18:20	2582654	5	1	1	1	1	1	1	1	1	7	7	0	0	0	0	8	6
071212	16:18:20	10025	Trial	CongruentRight	14	205	515	1	120	16:18:20	2583653	5	1	1	1	1	1	1	1	1	7	7	0	0	0	0	8	6
071212	16:18:20	10025	Trial	IncongruentLeft	14	203	412	1	120	16:18:20	2584560	5	1	1	1	1	1	1	1	1	7	7	0	0	0	0	8	6
071212	16:18:20	10025	Trial	CongruentRight	14	205	484	1	120	16:18:20	2585626	5	1	1	1	1	1	1	1	1	7	7	0	0	0	0	8	6
071212	16:18:20	10025	Trial	CongruentRight	14	205	429	1	120	16:18:20	2586572	5	1	1	1	1	1	1	1	1	7	7	0	0	0	0	8	6
071212	16:18:20	10025	Trial	IncongruentRight	14	205	485	1	120	16:18:20	2587625	5	1	1	1	1	1	1	1	1	7	7	0	0	0	0	8	6
071212	16:18:20	10025	Trial	CongruentLeft	14	203	493	1	120	16:18:20	2588638	5	1	1	1	1	1	1	1	1	7	7	0	0	0	0	8	6
071212	16:18:20	10025	Trial	IncongruentLeft	14	203	478	1	120	16:18:20	2589624	5	1	1	1	1	1	1	1	1	7	7	0	0	0	0	8	6
071212	16:18:20	10025	Trial	CongruentLeft	14	203	526	1	120	16:18:20	2590664	5	1	1	1	1	1	1	1	1	7	7	0	0	0	0	8	6
071212	16:18:20	10025	Trial	IncongruentRight	14	205	438	1	120	16:18:20	2591583	5	1	1	1	1	1	1	1	1	7	7	0	0	0	0	8	6
071212	16:18:20	10025	Trial	IncongruentLeft	14	203	415	1	120	16:18:20	2592556	5	1	1	1	1	1	1	1	1	7	7	0	0	0	0	8	6
071212	16:18:20	10025	Trial	CongruentRight	14	205	679	1	120	16:18:20	2593822	5	1	1	1	1	1	1	1	1	7	7	0	0	0	0	8	6
071212	16:18:20	10025	Trial	CongruentLeft	14	203	383	1	120	16:18:20	2594515	5	1	1	1	1	1	1	1	1	7	7	0	0	0	0	8	6
071212	16:18:20	10025	Trial	IncongruentLeft	14	203	520	1	120	16:18:20	2595662	5	1	1	1	1	1	1	1	1	7	7	0	0	0	0	8	6
071212	16:18:20	10025	Trial	CongruentLeft	14	203	416	1	120	16:18:20	2596554	5	1	1	1	1	1	1	1	1	7	7	0	0	0	0	8	6
071212	16:18:20	10025	Trial	IncongruentRight	14	205	489	1	120	16:18:20	2597621	5	1	1	1	1	1	1	1	1	7	7	0	0	0	0	8	6
071212	16:18:20	10025	Trial	CongruentRight	14	205	387	1	120	16:18:20	2598540	5	1	1	1	1	1	1	1	1	7	7	0	0	0	0	8	6
071212	16:18:20	10025	Trial	IncongruentLeft	14	203	444	1	120	16:18:20	2599593	5	1	1	1	1	1	1	1	1	7	7	0	0	0	0	8	6
071212	16:18:20	10025	Trial	CongruentLeft	14	203	517	1	120	16:18:20	2600660	5	1	1	1	1	1	1	1	1	7	7	0	0	0	0	8	6
071212	16:18:20	10025	Trial	IncongruentRight	14	205	445	1	120	16:18:20	2601593	5	1	1	1	1	1	1	1	1	7	7	0	0	0	0	8	6
071212	16:18:20	10025	Trial	IncongruentLeft	14	203	453	1	120	16:18:20	2602605	5	1	1	1	1	1	1	1	1	7	7	0	0	0	0	8	6
071212	16:18:20	10025	Trial	CongruentLeft	14	203	382	1	120	16:18:20	2603525	5	1	1	1	1	1	1	1	1	7	7	0	0	0	0	8	6
071212	16:18:20	10025	Trial	IncongruentLeft	14	203	470	1	120	16:18:20	2604618	5	1	1	1	1	1	1	1	1	7	7	0	0	0	0	8	6
071212	16:18:20	10025	Trial	CongruentRight	14	205	479	1	120	16:18:20	2605631	5	1	1	1	1	1	1	1	1	7	7	0	0	0	0	8	6
071212	16:18:20	10025	Trial	CongruentLeft	14	203	503	1	120	16:18:20	2606644	5	1	1	1	1	1	1	1	1	7	7	0	0	0	0	8	6
071212	16:18:20	10025	Trial	IncongruentRight	14	205	447	1	120	16:18:20	2607590	5	1	1	1	1	1	1	1	1	7	7	0	0	0	0	8	6
071212	16:18:20	10025	Trial	CongruentLeft	14	203	408	1	120	16:18:20	2608550	5	1	1	1	1	1	1	1	1	7	7	0	0	0	0	8	6
071212	16:18:20	10025	Trial	CongruentRight	14	205	448	1	120	16:18:20	2609589	5	1	1	1	1	1	1	1	1	7	7	0	0	0	0	8	6
071212	16:18:20	10025	Trial	IncongruentLeft	14	203	440	1	120	16:18:20	2610589	5	1	1	1	1	1	1	1	1	7	7	0	0	0	0	8	6
071212	16:18:20	10025	Trial750Eng	IncongruentRight750	15	205	390	1	120	16:18:20	2620265	5	1	1	1	1	1	1	1	1	7	7	0	0	0	0	8	6
071212	16:18:20	10025	Trial750Eng	IncongruentLeft750	15	203	383	1	120	16:18:20	2621011	5	1	1	1	1	1	1	1	1	7	7	0	0	0	0	8	6
071212	16:18:20	10025	Trial750Eng	CongruentRight750	15	205	340	1	120	16:18:20	2621717	5	1	1	1	1	1	1	1	1	7	7	0	0	0	0	8	6
071212	16:18:20	10025	Trial750Eng	IncongruentRight750	15	205	330	1	120	16:18:20	2622451	5	1	1	1	1	1	1	1	1	7	7	0	0	0	0	8	6
071212	16:18:20	10025	Trial750Eng	CongruentLeft750	15	203	320	1	120	16:18:20	2623197	5	1	1	1	1	1	1	1	1	7	7	0	0	0	0	8	6
071212	16:18:20	10025	Trial750Eng	CongruentRight750	15	205	296	1	120	16:18:20	2623930	5	1	1	1	1	1	1	1	1	7	7	0	0	0	0	8	6
071212	16:18:20	10025	Trial750Eng	IncongruentRight750	15	205	398	1	120	16:18:20	2624783	5	1	1	1	1	1	1	1	1	7	7	0	0	0	0	8	6
071212	16:18:20	10025	Trial750Eng	CongruentLeft750	15	203	387	1	120	16:18:20	2625516	5	1	1	1	1	1	1	1	1	7	7	0	0	0	0	8	6
071212	16:18:20	10025	Trial750Eng	IncongruentLeft750	15	203	379	1	120	16:18:20	2626262	5	1	1	1	1	1	1	1	1	7	7	0	0	0	0	8	6
071212	16:18:20	10025	Trial750Eng	IncongruentLeft750	15	203	321	1	120	16:18:20	2626955	5	1	1	1	1	1	1	1	1	7	7	0	0	0	0	8	6
071212	16:18:20	10025	Trial750Eng	CongruentRight750	15	205	330	1	120	16:18:20	2627702	5	1	1	1	1	1	1	1	1	7	7	0	0	0	0	8	6
071212	16:18:20	10025	Trial750Eng	IncongruentRight750	15	203	316	0	120	16:18:20	2628435	5	1	1	1	1	1	1	1	1	7	7	0	0	0	0	8	6
071212	16:18:20	10025	Trial750Eng	CongruentLeft750	15	0	487	0	120	16:18:20	2629354	5	1	1	1	1	1	1	1	1	7	7	0	0	0	0	8	6
071212	16:18:20	10025	Trial750Eng	CongruentRight750	15	205	426	1	120	16:18:20	2630061	5	1	1	1	1	1	1	1	1	7	7	0	0	0	0	8	6
071212	16:18:20	10025	Trial750Eng	IncongruentLeft750	15	0	487	0	120	16:18:20	2630860	5	1	1	1	1	1	1	1	1	7	7	0	0	0	0	8	6
071212	16:18:20	10025	Trial750Eng	IncongruentRight750	15	0	487	0	120	16:18:20	2631620	5	1	1	1	1	1	1	1	1	7	7	0	0	0	0	8	6
071212	16:18:20	10025	Trial750Eng	CongruentRight750	15	205	400	1	120	16:18:20	2632300	5	1	1	1	1	1	1	1	1	7	7	0	0	0	0	8	6
071212	16:18:20	10025	Trial750Eng	CongruentLeft750	15	203	409	1	120	16:18:20	2633060	5	1	1	1	1	1	1	1	1	7	7	0	0	0	0	8	6
071212	16:18:20	10025	Trial750Eng	CongruentRight750	15	205	398	1	120	16:18:20	2633806	5	1	1	1	1	1	1	1	1	7	7	0	0	0	0	8	6
071212	16:18:20	10025	Trial750Eng	IncongruentRight750	15	205	452	1	120	16:18:20	2634605	5	1	1	1	1	1	1	1	1	7	7	0	0	0	0	8	6
071212	16:18:20	10025	Trial750Eng	IncongruentLeft750	15	0	487	0	120	16:18:20	2635378	5	1	1	1	1	1	1	1	1	7	7	0	0	0	0	8	6
071212	16:18:20	10025	Trial750Eng	IncongruentLeft750	15	0	487	0	120	16:18:20	2636165	5	1	1	1	1	1	1	1	1	7	7	0	0	0	0	8	6
071212	16:18:20	10025	Trial750Eng	CongruentLeft750	15	203	431	1	120	16:18:20	2636871	5	1	1	1	1	1	1	1	1	7	7	0	0	0	0	8	6
071212	16:18:20	10025	Trial750Eng	CongruentRight750	15	205	408	1	120	16:18:20	2637604	5	1	1	1	1	1	1	1	1	7	7	0	0	0	0	8	6
071212	16:18:20	10025	Trial750Eng	IncongruentLeft750	15	203	365	1	120	16:18:20	2638311	5	1	1	1	1	1	1	1	1	7	7	0	0	0	0	8	6
071212	16:18:20	10025	Trial750Eng	IncongruentRight750	15	205	371	1	120	16:18:20	2639070	5	1	1	1	1	1	1	1	1	7	7	0	0	0	0	8	6
071212	16:18:20	10025	Trial750Eng	CongruentRight750	15	205	428	1	120	16:18:20	2639883	5	1	1	1	1	1	1	1	1	7	7	0	0	0	0	8	6
071212	16:18:20	10025	Trial750Eng	CongruentLeft750	15	0	487	0	120	16:18:20	2640683	5	1	1	1	1	1	1	1	1	7	7	0	0	0	0	8	6
071212	16:18:20	10025	Trial750Eng	IncongruentRight750	15	205	409	1	120	16:18:20	2641363	5	1	1	1	1	1	1	1	1	7	7	0	0	0	0	8	6
071212	16:18:20	10025	Trial750Eng	IncongruentLeft750	15	203	370	1	120	16:18:20	2642082	5	1	1	1	1	1	1	1	1	7	7	0	0	0	0	8	6
071212	16:18:20	10025	Trial750Eng	IncongruentRight750	15	205	279	1	120	16:18:20	2642749	5	1	1	1	1	1	1	1	1	7	7	0	0	0	0	8	6
071212	16:18:20	10025	Trial750Eng	CongruentRight750	15	205	397	1	120	16:18:20	2643602	5	1	1	1	1	1	1	1	1	7	7	0	0	0	0	8	6
071212	16:18:20	10025	Trial750Eng	IncongruentLeft750	15	203	405	1	120	16:18:20	2644375	5	1	1	1	1	1	1	1	1	7	7	0	0	0	0	8	6
071212	16:18:20	10025	Trial750Eng	CongruentLeft750	15	203	378	1	120	16:18:20	2645095	5	1	1	1	1	1	1	1	1	7	7	0	0	0	0	8	6
071212	16:18:20	10025	Trial750Eng	CongruentRight750	15	205	480	1	120	16:18:20	2645947	5	1	1	1	1	1	1	1	1	7	7	0	0	0	0	8	6
071212	16:18:20	10025	Trial750Eng	IncongruentLeft750	15	203	441	1	120	16:18:20	2646667	5	1	1	1	1	1	1	1	1	7	7	0	0	0	0	8	6
071212	16:18:20	10025	Trial750Eng	IncongruentRight750	15	205	401	1	120	16:18:20	2647387	5	1	1	1	1	1	1	1	1	7	7	0	0	0	0	8	6
071212	16:18:20	10025	Trial750Eng	IncongruentRight750	15	0	487	0	120	16:18:20	2648213	5	1	1	1	1	1	1	1	1	7	7	0	0	0	0	8	6
071212	16:18:20	10025	Trial750Eng	CongruentLeft750	15	203	431	1	120	16:18:20	2648920	5	1	1	1	1	1	1	1	1	7	7	0	0	0	0	8	6
071212	16:18:20	10025	Trial750Eng	IncongruentLeft750	15	205	247	0	120	16:18:20	2649493	5	1	1	1	1	1	1	1	1	7	7	0	0	0	0	8	6
071212	16:18:20	10025	Trial750Eng	CongruentRight750	15	205	477	1	120	16:18:20	2650465	5	1	1	1	1	1	1	1	1	7	7	0	0	0	0	8	6
071212	16:18:20	10025	Trial750Eng	CongruentLeft750	15	203	402	1	120	16:18:20	2651145	5	1	1	1	1	1	1	1	1	7	7	0	0	0	0	8	6
071212	16:18:20	10025	Trial750Eng	IncongruentRight750	15	205	299	1	120	16:18:20	2651798	5	1	1	1	1	1	1	1	1	7	7	0	0	0	0	8	6
071212	16:18:20	10025	Trial750Eng	CongruentRight750	15	205	352	1	120	16:18:20	2652598	5	1	1	1	1	1	1	1	1	7	7	0	0	0	0	8	6
071212	16:18:20	10025	Trial750Eng	IncongruentLeft750	15	205	358	0	120	16:18:20	2653358	5	1	1	1	1	1	1	1	1	7	7	0	0	0	0	8	6
071212	16:18:20	10025	Trial750Eng	CongruentLeft750	15	0	487	0	120	16:18:20	2654224	5	1	1	1	1	1	1	1	1	7	7	0	0	0	0	8	6
071212	16:18:20	10025	Trial750Eng	IncongruentLeft750	15	0	487	0	120	16:18:20	2654984	5	1	1	1	1	1	1	1	1	7	7	0	0	0	0	8	6
071212	16:18:20	10025	Trial750Eng	IncongruentRight750	15	205	460	1	120	16:18:20	2655717	5	1	1	1	1	1	1	1	1	7	7	0	0	0	0	8	6
071212	16:18:20	10025	Trial750Eng	CongruentRight750	15	0	487	0	120	16:18:20	2656490	5	1	1	1	1	1	1	1	1	7	7	0	0	0	0	8	6
071212	16:18:20	10025	Trial750Eng	CongruentLeft750	15	203	394	1	120	16:18:20	2657156	5	1	1	1	1	1	1	1	1	7	7	0	0	0	0	8	6
071212	16:18:20	10025	Trial750Eng	CongruentLeft750	15	203	434	1	120	16:18:20	2657956	5	1	1	1	1	1	1	1	1	7	7	0	0	0	0	8	6
071212	16:18:20	10025	Trial750Eng	IncongruentRight750	15	205	296	1	120	16:18:20	2658569	5	1	1	1	1	1	1	1	1	7	7	0	0	0	0	8	6
071212	16:18:20	10025	Trial750Eng	IncongruentLeft750	15	203	430	1	120	16:18:20	2659449	5	1	1	1	1	1	1	1	1	7	7	0	0	0	0	8	6
071212	16:18:20	10025	Trial750Eng	IncongruentRight750	15	205	246	1	120	16:18:20	2660022	5	1	1	1	1	1	1	1	1	7	7	0	0	0	0	8	6
071212	16:18:20	10025	Trial750Eng	CongruentRight750	15	203	268	0	120	16:18:20	2660795	5	1	1	1	1	1	1	1	1	7	7	0	0	0	0	8	6
071212	16:18:20	10025	Trial750Eng	CongruentRight750	15	0	487	0	120	16:18:20	2661754	5	1	1	1	1	1	1	1	1	7	7	0	0	0	0	8	6
071212	16:18:20	10025	Trial750Eng	IncongruentLeft750	15	0	487	0	120	16:18:20	2662514	5	1	1	1	1	1	1	1	1	7	7	0	0	0	0	8	6
071212	16:18:20	10025	Trial750Eng	CongruentLeft750	15	203	434	1	120	16:18:20	2663220	5	1	1	1	1	1	1	1	1	7	7	0	0	0	0	8	6
071212	16:18:20	10025	Trial750Eng	CongruentRight750	15	205	442	1	120	16:18:20	2663993	5	1	1	1	1	1	1	1	1	7	7	0	0	0	0	8	6
071212	16:18:20	10025	Trial750Eng	CongruentLeft750	15	203	256	1	120	16:18:20	2664553	5	1	1	1	1	1	1	1	1	7	7	0	0	0	0	8	6
071212	16:18:20	10025	Trial750Eng	IncongruentRight750	15	205	261	1	120	16:18:20	2665299	5	1	1	1	1	1	1	1	1	7	7	0	0	0	0	8	6
071212	16:18:20	10025	Trial750Eng	CongruentRight750	15	203	222	0	120	16:18:20	2666019	5	1	1	1	1	1	1	1	1	7	7	0	0	0	0	8	6
071212	16:18:20	10025	Trial750Eng	CongruentLeft750	15	203	307	1	120	16:18:20	2666859	5	1	1	1	1	1	1	1	1	7	7	0	0	0	0	8	6
071212	16:18:20	10025	Trial750Eng	IncongruentLeft750	15	203	409	1	120	16:18:20	2667699	5	1	1	1	1	1	1	1	1	7	7	0	0	0	0	8	6
071212	16:18:20	10025	Trial750Eng	IncongruentLeft750	15	203	334	1	120	16:18:20	2668378	5	1	1	1	1	1	1	1	1	7	7	0	0	0	0	8	6
071212	16:18:20	10025	Trial750Eng	CongruentRight750	15	203	279	0	120	16:18:20	2669085	5	1	1	1	1	1	1	1	1	7	7	0	0	0	0	8	6
071212	16:18:20	10025	Trial750Eng	IncongruentRight750	15	203	268	0	120	16:18:20	2669818	5	1	1	1	1	1	1	1	1	7	7	0	0	0	0	8	6
071212	16:18:20	10025	Trial750Eng	CongruentLeft750	15	0	487	0	120	16:18:20	2670777	5	1	1	1	1	1	1	1	1	7	7	0	0	0	0	8	6
071212	16:18:20	10025	Trial750Eng	IncongruentRight750	15	205	394	1	120	16:18:20	2671444	5	1	1	1	1	1	1	1	1	7	7	0	0	0	0	8	6
071212	16:18:20	10025	Trial750Eng	CongruentRight750	15	0	487	0	120	16:18:20	2672284	5	1	1	1	1	1	1	1	1	7	7	0	0	0	0	8	6
071212	16:18:20	10025	Trial750Eng	IncongruentLeft750	15	203	344	1	120	16:18:20	2672896	5	1	1	1	1	1	1	1	1	7	7	0	0	0	0	8	6
071212	16:18:20	10025	Trial750Eng	CongruentLeft750	15	0	487	0	120	16:18:20	2673789	5	1	1	1	1	1	1	1	1	7	7	0	0	0	0	8	6
071212	16:18:20	10025	Trial750Eng	CongruentRight750	15	205	358	1	120	16:18:20	2674429	5	1	1	1	1	1	1	1	1	7	7	0	0	0	0	8	6
071212	16:18:20	10025	Trial750Eng	IncongruentLeft750	15	203	334	1	120	16:18:20	2675162	5	1	1	1	1	1	1	1	1	7	7	0	0	0	0	8	6
071212	16:18:20	10025	Trial750Eng	CongruentRight750	15	205	276	1	120	16:18:20	2675842	5	1	1	1	1	1	1	1	1	7	7	0	0	0	0	8	6
071212	16:18:20	10025	Trial750Eng	CongruentRight750	15	205	362	1	120	16:18:20	2676681	5	1	1	1	1	1	1	1	1	7	7	0	0	0	0	8	6
071212	16:18:20	10025	Trial750Eng	IncongruentRight750	15	203	306	0	120	16:18:20	2677388	5	1	1	1	1	1	1	1	1	7	7	0	0	0	0	8	6
071212	16:18:20	10025	Trial750Eng	CongruentLeft750	15	203	456	1	120	16:18:20	2678281	5	1	1	1	1	1	1	1	1	7	7	0	0	0	0	8	6
071212	16:18:20	10025	Trial750Eng	IncongruentLeft750	15	203	381	1	120	16:18:20	2678947	5	1	1	1	1	1	1	1	1	7	7	0	0	0	0	8	6
071212	16:18:20	10025	Trial750Eng	CongruentLeft750	15	203	354	1	120	16:18:20	2679667	5	1	1	1	1	1	1	1	1	7	7	0	0	0	0	8	6
071212	16:18:20	10025	Trial750Eng	IncongruentRight750	15	205	442	1	120	16:18:20	2680520	5	1	1	1	1	1	1	1	1	7	7	0	0	0	0	8	6
071212	16:18:20	10025	Trial750Eng	IncongruentLeft750	15	203	384	1	120	16:18:20	2681213	5	1	1	1	1	1	1	1	1	7	7	0	0	0	0	8	6
071212	16:18:20	10025	Trial750Eng	CongruentRight750	15	205	326	1	120	16:18:20	2681892	5	1	1	1	1	1	1	1	1	7	7	0	0	0	0	8	6
071212	16:18:20	10025	Trial750Eng	CongruentLeft750	15	203	268	1	120	16:18:20	2682586	5	1	1	1	1	1	1	1	1	7	7	0	0	0	0	8	6
071212	16:18:20	10025	Trial750Eng	IncongruentLeft750	15	203	388	1	120	16:18:20	2683465	5	1	1	1	1	1	1	1	1	7	7	0	0	0	0	8	6
071212	16:18:20	10025	Trial750Eng	CongruentLeft750	15	203	362	1	120	16:18:20	2684185	5	1	1	1	1	1	1	1	1	7	7	0	0	0	0	8	6
071212	16:18:20	10025	Trial750Eng	IncongruentRight750	15	203	303	0	120	16:18:20	2684865	5	1	1	1	1	1	1	1	1	7	7	0	0	0	0	8	6
071212	16:18:20	10025	Trial750Eng	CongruentRight750	15	0	487	0	120	16:18:20	2685798	5	1	1	1	1	1	1	1	1	7	7	0	0	0	0	8	6
071212	16:18:20	10025	Trial750Eng	IncongruentLeft750	15	203	365	1	120	16:18:20	2686437	5	1	1	1	1	1	1	1	1	7	7	0	0	0	0	8	6
071212	16:18:20	10025	Trial750Eng	CongruentLeft750	15	205	165	0	120	16:18:20	2686997	5	1	1	1	1	1	1	1	1	7	7	0	0	0	0	8	6
071212	16:18:20	10025	Trial750Eng	IncongruentRight750	15	0	487	0	120	16:18:20	2688063	5	1	1	1	1	1	1	1	1	7	7	0	0	0	0	8	6
071212	16:18:20	10025	Trial750Eng	IncongruentLeft750	15	205	275	0	120	16:18:20	2688610	5	1	1	1	1	1	1	1	1	7	7	0	0	0	0	8	6
071212	16:18:20	10025	Trial750Eng	CongruentLeft750	15	0	487	0	120	16:18:20	2689569	5	1	1	1	1	1	1	1	1	7	7	0	0	0	0	8	6
071212	16:18:20	10025	Trial750Eng	IncongruentLeft750	15	0	487	0	120	16:18:20	2690329	5	1	1	1	1	1	1	1	1	7	7	0	0	0	0	8	6
071212	16:18:20	10025	Trial750Eng	CongruentRight750	15	205	409	1	120	16:18:20	2691009	5	1	1	1	1	1	1	1	1	7	7	0	0	0	0	8	6
071212	16:18:20	10025	Trial750Eng	CongruentLeft750	15	203	242	1	120	16:18:20	2691608	5	1	1	1	1	1	1	1	1	7	7	0	0	0	0	8	6
071212	16:18:20	10025	Trial750Eng	IncongruentRight750	15	203	328	0	120	16:18:20	2692435	5	1	1	1	1	1	1	1	1	7	7	0	0	0	0	8	6
071212	16:18:20	10025	Trial750Eng	CongruentLeft750	15	203	237	1	120	16:18:20	2693088	5	1	1	1	1	1	1	1	1	7	7	0	0	0	0	8	6
071212	16:18:20	10025	Trial750Eng	CongruentRight750	15	205	373	1	120	16:18:20	2693994	5	1	1	1	1	1	1	1	1	7	7	0	0	0	0	8	6
071212	16:18:20	10025	Trial750Eng	IncongruentLeft750	15	203	315	1	120	16:18:20	2694674	5	1	1	1	1	1	1	1	1	7	7	0	0	0	0	8	6
071212	16:18:20	10025	WordsAbsEngBaseline	PAbsEngBaseline1	16	Abs1	3557	0	120	16:18:20	2706509	5	1	1	1	1	1	1	1	1	7	7	0	0	0	0	8	6
071212	16:18:20	10025	WordsAbsEngBaseline	AbsEngBaseline1	16	Abs1	2902	0	120	16:18:20	2709454	5	1	1	1	1	1	1	1	1	7	7	1	0	0	0	8	6
071212	16:18:20	10025	WordsAbsEngBaseline	AbsEngBaseline2	16	Abs1	5053	0	120	16:18:20	2714546	5	1	1	1	1	1	1	1	1	7	7	2	0	0	0	8	6
071212	16:18:20	10025	WordsAbsEngBaseline	AbsEngBaseline3	16	Abs1	4441	0	120	16:18:20	2719024	5	1	1	1	1	1	1	1	1	7	7	3	0	0	0	8	6
071212	16:18:20	10025	Trial2BackEngS	NS	17	0	1000	1	120	16:18:20	2763805	5	1	1	1	1	1	1	1	1	7	7	3	0	0	0	8	6
071212	16:18:20	10025	Trial2BackEngS	NS	17	0	1000	1	120	16:18:20	2765325	5	1	1	1	1	1	1	1	1	7	7	3	0	0	0	8	6
071212	16:18:20	10025	Trial2BackEngS	NS	17	0	1000	1	120	16:18:20	2766844	5	1	1	1	1	1	1	1	1	7	7	3	0	0	0	8	6
071212	16:18:20	10025	Trial2BackEngS	YS	17	57	408	1	120	16:18:20	2767777	5	1	1	1	1	1	1	1	1	7	7	3	0	0	0	8	6
071212	16:18:20	10025	Trial2BackEngS	NS	17	0	1000	1	120	16:18:20	2769869	5	1	1	1	1	1	1	1	1	7	7	3	0	0	0	8	6
071212	16:18:20	10025	Trial2BackEngS	NS	17	0	1000	1	120	16:18:20	2771389	5	1	1	1	1	1	1	1	1	7	7	3	0	0	0	8	6
071212	16:18:20	10025	Trial2BackEngS	NS	17	0	1000	1	120	16:18:20	2772908	5	1	1	1	1	1	1	1	1	7	7	3	0	0	0	8	6
071212	16:18:20	10025	Trial2BackEngS	NS	17	0	1000	1	120	16:18:20	2774428	5	1	1	1	1	1	1	1	1	7	7	3	0	0	0	8	6
071212	16:18:20	10025	Trial2BackEngS	YS	17	57	360	1	120	16:18:20	2775320	5	1	1	1	1	1	1	1	1	7	7	3	0	0	0	8	6
071212	16:18:20	10025	Trial2BackEngS	NS	17	0	1000	1	120	16:18:20	2777453	5	1	1	1	1	1	1	1	1	7	7	3	0	0	0	8	6
071212	16:18:20	10025	Trial2BackEngS	NS	17	0	1000	1	120	16:18:20	2778972	5	1	1	1	1	1	1	1	1	7	7	3	0	0	0	8	6
071212	16:18:20	10025	Trial2BackEngS	YS	17	0	1000	0	120	16:18:20	2780492	5	1	1	1	1	1	1	1	1	7	7	3	0	0	0	8	6
071212	16:18:20	10025	Trial2BackEngS	NS	17	0	1000	1	120	16:18:20	2782011	5	1	1	1	1	1	1	1	1	7	7	3	0	0	0	8	6
071212	16:18:20	10025	Trial2BackEngS	NS	17	0	1000	1	120	16:18:20	2783530	5	1	1	1	1	1	1	1	1	7	7	3	0	0	0	8	6
071212	16:18:20	10025	Trial2BackEngS	NS	17	0	1000	1	120	16:18:20	2785050	5	1	1	1	1	1	1	1	1	7	7	3	0	0	0	8	6
071212	16:18:20	10025	Trial2BackEngS	YS	17	57	362	1	120	16:18:20	2785943	5	1	1	1	1	1	1	1	1	7	7	3	0	0	0	8	6
071212	16:18:20	10025	Trial2BackEngS	NS	17	0	1000	1	120	16:18:20	2788075	5	1	1	1	1	1	1	1	1	7	7	3	0	0	0	8	6
071212	16:18:20	10025	Trial2BackEngS	NS	17	0	1000	1	120	16:18:20	2789595	5	1	1	1	1	1	1	1	1	7	7	3	0	0	0	8	6
071212	16:18:20	10025	Trial2BackEngS	NS	17	0	1000	1	120	16:18:20	2791114	5	1	1	1	1	1	1	1	1	7	7	3	0	0	0	8	6
071212	16:18:20	10025	Trial2BackEngS	NS	17	0	1000	1	120	16:18:20	2792633	5	1	1	1	1	1	1	1	1	7	7	3	0	0	0	8	6
071212	16:18:20	10025	Trial2BackEngS	YS	17	57	362	1	120	16:18:20	2793526	5	1	1	1	1	1	1	1	1	7	7	3	0	0	0	8	6
071212	16:18:20	10025	Trial2BackEngS	NS	17	0	1000	1	120	16:18:20	2795659	5	1	1	1	1	1	1	1	1	7	7	3	0	0	0	8	6
071212	16:18:20	10025	Trial2BackEngS	NS	17	0	1000	1	120	16:18:20	2797178	5	1	1	1	1	1	1	1	1	7	7	3	0	0	0	8	6
071212	16:18:20	10025	Trial2BackEngS	NS	17	0	1000	1	120	16:18:20	2798698	5	1	1	1	1	1	1	1	1	7	7	3	0	0	0	8	6
071212	16:18:20	10025	Trial2BackEngS	NS	17	57	633	0	120	16:18:20	2799857	5	1	1	1	1	1	1	1	1	7	7	3	0	0	0	8	6
071212	16:18:20	10025	Trial2BackEngS	NS	17	0	1000	1	120	16:18:20	2801723	5	1	1	1	1	1	1	1	1	7	7	3	0	0	0	8	6
071212	16:18:20	10025	Trial2BackEngS	NS	17	0	1000	1	120	16:18:20	2803242	5	1	1	1	1	1	1	1	1	7	7	3	0	0	0	8	6
071212	16:18:20	10025	Trial2BackEngS	NS	17	0	1000	1	120	16:18:20	2804762	5	1	1	1	1	1	1	1	1	7	7	3	0	0	0	8	6
071212	16:18:20	10025	Trial2BackEngS	NS	17	0	1000	1	120	16:18:20	2806281	5	1	1	1	1	1	1	1	1	7	7	3	0	0	0	8	6
071212	16:18:20	10025	Trial2BackEngS	NS	17	0	1000	1	120	16:18:20	2807800	5	1	1	1	1	1	1	1	1	7	7	3	0	0	0	8	6
071212	16:18:20	10025	Trial2BackEngS	NS	17	0	1000	1	120	16:18:20	2809320	5	1	1	1	1	1	1	1	1	7	7	3	0	0	0	8	6
071212	16:18:20	10025	Trial2BackEngS	YS	17	57	507	1	120	16:18:20	2810359	5	1	1	1	1	1	1	1	1	7	7	3	0	0	0	8	6
071212	16:18:20	10025	Trial2BackEngS	NS	17	0	1000	1	120	16:18:20	2812345	5	1	1	1	1	1	1	1	1	7	7	3	0	0	0	8	6
071212	16:18:20	10025	Trial2BackEngS	NS	17	0	1000	1	120	16:18:20	2813865	5	1	1	1	1	1	1	1	1	7	7	3	0	0	0	8	6
071212	16:18:20	10025	Trial2BackEngS	NS	17	0	1000	1	120	16:18:20	2815384	5	1	1	1	1	1	1	1	1	7	7	3	0	0	0	8	6
071212	16:18:20	10025	Trial2BackEngS	YS	17	0	1000	0	120	16:18:20	2816903	5	1	1	1	1	1	1	1	1	7	7	3	0	0	0	8	6
071212	16:18:20	10025	Trial2BackEngS	NS	17	0	1000	1	120	16:18:20	2818423	5	1	1	1	1	1	1	1	1	7	7	3	0	0	0	8	6
071212	16:18:20	10025	Trial2BackEngS	NS	17	0	1000	1	120	16:18:20	2819942	5	1	1	1	1	1	1	1	1	7	7	3	0	0	0	8	6
071212	16:18:20	10025	Trial2BackEngS	NS	17	0	1000	1	120	16:18:20	2821461	5	1	1	1	1	1	1	1	1	7	7	3	0	0	0	8	6
071212	16:18:20	10025	Trial2BackEngS	NS	17	0	1000	1	120	16:18:20	2822981	5	1	1	1	1	1	1	1	1	7	7	3	0	0	0	8	6
071212	16:18:20	10025	Trial2BackEngS	NS	17	0	1000	1	120	16:18:20	2824500	5	1	1	1	1	1	1	1	1	7	7	3	0	0	0	8	6
071212	16:18:20	10025	Trial2BackEngS	NS	17	0	1000	1	120	16:18:20	2826020	5	1	1	1	1	1	1	1	1	7	7	3	0	0	0	8	6
071212	16:18:20	10025	Trial2BackEngS	NS	17	0	1000	1	120	16:18:20	2827539	5	1	1	1	1	1	1	1	1	7	7	3	0	0	0	8	6
071212	16:18:20	10025	Trial2BackEngS	YS	17	57	559	1	120	16:18:20	2828632	5	1	1	1	1	1	1	1	1	7	7	3	0	0	0	8	6
071212	16:18:20	10025	Trial2BackEngS	NS	17	0	1000	1	120	16:18:20	2830564	5	1	1	1	1	1	1	1	1	7	7	3	0	0	0	8	6
071212	16:18:20	10025	Trial2BackEngS	NS	17	0	1000	1	120	16:18:20	2832084	5	1	1	1	1	1	1	1	1	7	7	3	0	0	0	8	6
071212	16:18:20	10025	Trial2BackEngS	NS	17	0	1000	1	120	16:18:20	2833603	5	1	1	1	1	1	1	1	1	7	7	3	0	0	0	8	6
071212	16:18:20	10025	Trial2BackEngS	NS	17	0	1000	1	120	16:18:20	2835122	5	1	1	1	1	1	1	1	1	7	7	3	0	0	0	8	6
071212	16:18:20	10025	Trial2BackEngS	YS	17	57	399	1	120	16:18:20	2836056	5	1	1	1	1	1	1	1	1	7	7	3	0	0	0	8	6
071212	16:18:20	10025	Trial2BackEngS	NS	17	0	1000	1	120	16:18:20	2838148	5	1	1	1	1	1	1	1	1	7	7	3	0	0	0	8	6
071212	16:18:20	10025	Trial2BackEngS	NS	17	0	1000	1	120	16:18:20	2839667	5	1	1	1	1	1	1	1	1	7	7	3	0	0	0	8	6
071212	16:18:20	10025	Trial2BackEngS	NS	17	0	1000	1	120	16:18:20	2841187	5	1	1	1	1	1	1	1	1	7	7	3	0	0	0	8	6
071212	16:18:20	10025	Trial2BackEngS	NS	17	0	1000	1	120	16:18:20	2842706	5	1	1	1	1	1	1	1	1	7	7	3	0	0	0	8	6
071212	16:18:20	10025	Trial2BackEngS	NS	17	0	1000	1	120	16:18:20	2844225	5	1	1	1	1	1	1	1	1	7	7	3	0	0	0	8	6
071212	16:18:20	10025	Trial2BackEngS	NS	17	0	1000	1	120	16:18:20	2845745	5	1	1	1	1	1	1	1	1	7	7	3	0	0	0	8	6
071212	16:18:20	10025	Trial2BackEngS	YS	17	57	401	1	120	16:18:20	2846678	5	1	1	1	1	1	1	1	1	7	7	3	0	0	0	8	6
071212	16:18:20	10025	Trial2BackEngS	NS	17	0	1000	1	120	16:18:20	2848770	5	1	1	1	1	1	1	1	1	7	7	3	0	0	0	8	6
071212	16:18:20	10025	Trial2BackEngS	NS	17	0	1000	1	120	16:18:20	2850289	5	1	1	1	1	1	1	1	1	7	7	3	0	0	0	8	6
071212	16:18:20	10025	Trial2BackEngS	NS	17	0	1000	1	120	16:18:20	2851809	5	1	1	1	1	1	1	1	1	7	7	3	0	0	0	8	6
071212	16:18:20	10025	Trial2BackEngS	NS	17	0	1000	1	120	16:18:20	2853328	5	1	1	1	1	1	1	1	1	7	7	3	0	0	0	8	6
071212	16:18:20	10025	Trial2BackEngS	NS	17	0	1000	1	120	16:18:20	2854848	5	1	1	1	1	1	1	1	1	7	7	3	0	0	0	8	6
071212	16:18:20	10025	Trial2BackEngS	NS	17	0	1000	1	120	16:18:20	2856367	5	1	1	1	1	1	1	1	1	7	7	3	0	0	0	8	6
071212	16:18:20	10025	Trial2BackEngS	NS	17	0	1000	1	120	16:18:20	2857886	5	1	1	1	1	1	1	1	1	7	7	3	0	0	0	8	6
071212	16:18:20	10025	Trial2BackEngS	YS	17	57	435	1	120	16:18:20	2858846	5	1	1	1	1	1	1	1	1	7	7	3	0	0	0	8	6
071212	16:18:20	10025	Trial2BackEngS	NS	17	0	1000	1	120	16:18:20	2860912	5	1	1	1	1	1	1	1	1	7	7	3	0	0	0	8	6
071212	16:18:20	10025	Trial2BackEngS	NS	17	0	1000	1	120	16:18:20	2862431	5	1	1	1	1	1	1	1	1	7	7	3	0	0	0	8	6
071212	16:18:20	10025	Trial2BackEngS	NS	17	0	1000	1	120	16:18:20	2863950	5	1	1	1	1	1	1	1	1	7	7	3	0	0	0	8	6
071212	16:18:20	10025	Trial2BackEngS	NS	17	0	1000	1	120	16:18:20	2865470	5	1	1	1	1	1	1	1	1	7	7	3	0	0	0	8	6
071212	16:18:20	10025	Trial2BackEngS	YS	17	57	419	1	120	16:18:20	2866416	5	1	1	1	1	1	1	1	1	7	7	3	0	0	0	8	6
071212	16:18:20	10025	Trial2BackEngS	NS	17	0	1000	1	120	16:18:20	2868495	5	1	1	1	1	1	1	1	1	7	7	3	0	0	0	8	6
071212	16:18:20	10025	Trial2BackEngS	NS	17	0	1000	1	120	16:18:20	2870015	5	1	1	1	1	1	1	1	1	7	7	3	0	0	0	8	6
071212	16:18:20	10025	Trial2BackEngS	YS	17	0	1000	0	120	16:18:20	2871534	5	1	1	1	1	1	1	1	1	7	7	3	0	0	0	8	6
071212	16:18:20	10025	Trial2BackEngS	NS	17	0	1000	1	120	16:18:20	2873053	5	1	1	1	1	1	1	1	1	7	7	3	0	0	0	8	6
071212	16:18:20	10025	Trial2BackEngS	NS	17	0	1000	1	120	16:18:20	2874573	5	1	1	1	1	1	1	1	1	7	7	3	0	0	0	8	6
071212	16:18:20	10025	Trial2BackEngS	NS	17	0	1000	1	120	16:18:20	2876092	5	1	1	1	1	1	1	1	1	7	7	3	0	0	0	8	6
071212	16:18:20	10025	Trial2BackEngS	NS	17	0	1000	1	120	16:18:20	2877611	5	1	1	1	1	1	1	1	1	7	7	3	0	0	0	8	6
071212	16:18:20	10025	Trial2BackEngS	NS	17	0	1000	1	120	16:18:20	2879131	5	1	1	1	1	1	1	1	1	7	7	3	0	0	0	8	6
071212	16:18:20	10025	Trial2BackEngS	NS	17	0	1000	1	120	16:18:20	2880650	5	1	1	1	1	1	1	1	1	7	7	3	0	0	0	8	6
071212	16:18:20	10025	Trial2BackEngS	YS	17	57	390	1	120	16:18:20	2881570	5	1	1	1	1	1	1	1	1	7	7	3	0	0	0	8	6
071212	16:18:20	10025	Trial2BackEngS	NS	17	0	1000	1	120	16:18:20	2883676	5	1	1	1	1	1	1	1	1	7	7	3	0	0	0	8	6
071212	16:18:20	10025	Trial2BackEngS	NS	17	0	1000	1	120	16:18:20	2885195	5	1	1	1	1	1	1	1	1	7	7	3	0	0	0	8	6
071212	16:18:20	10025	Trial2BackEngS	NS	17	0	1000	1	120	16:18:20	2886714	5	1	1	1	1	1	1	1	1	7	7	3	0	0	0	8	6
071212	16:18:20	10025	Trial2BackEngS	NS	17	0	1000	1	120	16:18:20	2888234	5	1	1	1	1	1	1	1	1	7	7	3	0	0	0	8	6
071212	16:18:20	10025	Trial2BackEngS	YS	17	57	422	1	120	16:18:20	2889180	5	1	1	1	1	1	1	1	1	7	7	3	0	0	0	8	6
071212	16:18:20	10025	Trial2BackEngS	NS	17	0	1000	1	120	16:18:20	2891259	5	1	1	1	1	1	1	1	1	7	7	3	0	0	0	8	6
071212	16:18:20	10025	Trial2BackEngS	NS	17	0	1000	1	120	16:18:20	2892779	5	1	1	1	1	1	1	1	1	7	7	3	0	0	0	8	6
071212	16:18:20	10025	Trial2BackEngS	NS	17	0	1000	1	120	16:18:20	2894298	5	1	1	1	1	1	1	1	1	7	7	3	0	0	0	8	6
071212	16:18:20	10025	Trial2BackEngS	NS	17	0	1000	1	120	16:18:20	2895817	5	1	1	1	1	1	1	1	1	7	7	3	0	0	0	8	6
071212	16:18:20	10025	Trial2BackEngS	YS	17	0	1000	0	120	16:18:20	2897337	5	1	1	1	1	1	1	1	1	7	7	3	0	0	0	8	6
071212	16:18:20	10025	Trial2BackEngS	NS	17	0	1000	1	120	16:18:20	2898856	5	1	1	1	1	1	1	1	1	7	7	3	0	0	0	8	6
071212	16:18:20	10025	Trial2BackEngS	NS	17	0	1000	1	120	16:18:20	2900375	5	1	1	1	1	1	1	1	1	7	7	3	0	0	0	8	6
071212	16:18:20	10025	Trial2BackEngS	YS	17	57	392	1	120	16:18:20	2901295	5	1	1	1	1	1	1	1	1	7	7	3	0	0	0	8	6
071212	16:18:20	10025	Trial2BackEngS	NS	17	0	1000	1	120	16:18:20	2903401	5	1	1	1	1	1	1	1	1	7	7	3	0	0	0	8	6
071212	16:18:20	10025	Trial2BackEngS	NS	17	0	1000	1	120	16:18:20	2904920	5	1	1	1	1	1	1	1	1	7	7	3	0	0	0	8	6
071212	16:18:20	10025	Trial2BackEngS	NS	17	0	1000	1	120	16:18:20	2906440	5	1	1	1	1	1	1	1	1	7	7	3	0	0	0	8	6
071212	16:18:20	10025	Trial2BackEngS	NS	17	0	1000	1	120	16:18:20	2907959	5	1	1	1	1	1	1	1	1	7	7	3	0	0	0	8	6
071212	16:18:20	10025	Trial2BackEngS	NS	17	0	1000	1	120	16:18:20	2909478	5	1	1	1	1	1	1	1	1	7	7	3	0	0	0	8	6
071212	16:18:20	10025	Trial2BackEngS	NS	17	0	1000	1	120	16:18:20	2910998	5	1	1	1	1	1	1	1	1	7	7	3	0	0	0	8	6
071212	16:18:20	10025	Trial2BackEngS	NS	17	0	1000	1	120	16:18:20	2912517	5	1	1	1	1	1	1	1	1	7	7	3	0	0	0	8	6
071212	16:18:20	10025	Trial2BackEngS	NS	17	0	1000	1	120	16:18:20	2914036	5	1	1	1	1	1	1	1	1	7	7	3	0	0	0	8	6
071212	16:18:20	10025	Trial2BackEngS	YS	17	57	955	1	120	16:18:20	2915516	5	1	1	1	1	1	1	1	1	7	7	3	0	0	0	8	6
071212	16:18:20	10025	Trial2BackEngS	NS	17	0	1000	1	120	16:18:20	2917062	5	1	1	1	1	1	1	1	1	7	7	3	0	0	0	8	6
071212	16:18:20	10025	Trial2BackEngS	NS	17	0	1000	1	120	16:18:20	2918581	5	1	1	1	1	1	1	1	1	7	7	3	0	0	0	8	6
071212	16:18:20	10025	Trial2BackEngS	NS	17	0	1000	1	120	16:18:20	2920100	5	1	1	1	1	1	1	1	1	7	7	3	0	0	0	8	6
071212	16:18:20	10025	Trial2BackEngS	NS	17	0	1000	1	120	16:18:20	2921620	5	1	1	1	1	1	1	1	1	7	7	3	0	0	0	8	6
071212	16:18:20	10025	Trial2BackEngS	NS	17	0	1000	1	120	16:18:20	2923139	5	1	1	1	1	1	1	1	1	7	7	3	0	0	0	8	6
071212	16:18:20	10025	Trial2BackEngS	NS	17	0	1000	1	120	16:18:20	2924659	5	1	1	1	1	1	1	1	1	7	7	3	0	0	0	8	6
071212	16:18:20	10025	Trial2BackEngS	NS	17	0	1000	1	120	16:18:20	2926178	5	1	1	1	1	1	1	1	1	7	7	3	0	0	0	8	6
071212	16:18:20	10025	Trial2BackEngS	YS	17	57	429	1	120	16:18:20	2927138	5	1	1	1	1	1	1	1	1	7	7	3	0	0	0	8	6
071212	16:18:20	10025	Trial2BackEngS	NS	17	0	1000	1	120	16:18:20	2929203	5	1	1	1	1	1	1	1	1	7	7	3	0	0	0	8	6
071212	16:18:20	10025	Trial2BackEngS	NS	17	0	1000	1	120	16:18:20	2930723	5	1	1	1	1	1	1	1	1	7	7	3	0	0	0	8	6
071212	16:18:20	10025	Trial2BackEngS	NS	17	0	1000	1	120	16:18:20	2932242	5	1	1	1	1	1	1	1	1	7	7	3	0	0	0	8	6
071212	16:18:20	10025	Trial2BackEngS	NS	17	0	1000	1	120	16:18:20	2933762	5	1	1	1	1	1	1	1	1	7	7	3	0	0	0	8	6
071212	16:18:20	10025	Trial2BackEngS	NS	17	0	1000	1	120	16:18:20	2935281	5	1	1	1	1	1	1	1	1	7	7	3	0	0	0	8	6
071212	16:18:20	10025	Trial2BackEngS	NS	17	0	1000	1	120	16:18:20	2936800	5	1	1	1	1	1	1	1	1	7	7	3	0	0	0	8	6
071212	16:18:20	10025	Trial2BackEngS	NS	17	0	1000	1	120	16:18:20	2938320	5	1	1	1	1	1	1	1	1	7	7	3	0	0	0	8	6
071212	16:18:20	10025	Trial2BackEngS	NS	17	0	1000	1	120	16:18:20	2939839	5	1	1	1	1	1	1	1	1	7	7	3	0	0	0	8	6
071212	16:18:20	10025	Trial2BackEngS	NS	17	0	1000	1	120	16:18:20	2941358	5	1	1	1	1	1	1	1	1	7	7	3	0	0	0	8	6
071212	16:18:20	10025	Trial2BackEngS	YS	17	57	528	1	120	16:18:20	2942411	5	1	1	1	1	1	1	1	1	7	7	3	0	0	0	8	6
071212	16:18:20	10025	Trial2BackEngS	NS	17	0	1000	1	120	16:18:20	2944384	5	1	1	1	1	1	1	1	1	7	7	3	0	0	0	8	6
071212	16:18:20	10025	Trial3BackEngS	NNS	18	0	1000	1	120	16:18:20	2989738	5	1	1	1	1	1	1	1	1	7	7	3	0	0	0	8	6
071212	16:18:20	10025	Trial3BackEngS	NNS	18	0	1000	1	120	16:18:20	2991258	5	1	1	1	1	1	1	1	1	7	7	3	0	0	0	8	6
071212	16:18:20	10025	Trial3BackEngS	NNS	18	0	1000	1	120	16:18:20	2992777	5	1	1	1	1	1	1	1	1	7	7	3	0	0	0	8	6
071212	16:18:20	10025	Trial3BackEngS	YYS	18	57	643	1	120	16:18:20	2993950	5	1	1	1	1	1	1	1	1	7	7	3	0	0	0	8	6
071212	16:18:20	10025	Trial3BackEngS	NNS	18	0	1000	1	120	16:18:20	2995803	5	1	1	1	1	1	1	1	1	7	7	3	0	0	0	8	6
071212	16:18:20	10025	Trial3BackEngS	NNS	18	0	1000	1	120	16:18:20	2997322	5	1	1	1	1	1	1	1	1	7	7	3	0	0	0	8	6
071212	16:18:20	10025	Trial3BackEngS	NNS	18	0	1000	1	120	16:18:20	2998841	5	1	1	1	1	1	1	1	1	7	7	3	0	0	0	8	6
071212	16:18:20	10025	Trial3BackEngS	NNS	18	0	1000	1	120	16:18:20	3000360	5	1	1	1	1	1	1	1	1	7	7	3	0	0	0	8	6
071212	16:18:20	10025	Trial3BackEngS	YYS	18	57	884	1	120	16:18:20	3001773	5	1	1	1	1	1	1	1	1	7	7	3	0	0	0	8	6
071212	16:18:20	10025	Trial3BackEngS	NNS	18	0	1000	1	120	16:18:20	3003386	5	1	1	1	1	1	1	1	1	7	7	3	0	0	0	8	6
071212	16:18:20	10025	Trial3BackEngS	NNS	18	0	1000	1	120	16:18:20	3004905	5	1	1	1	1	1	1	1	1	7	7	3	0	0	0	8	6
071212	16:18:20	10025	Trial3BackEngS	NNS	18	0	1000	1	120	16:18:20	3006425	5	1	1	1	1	1	1	1	1	7	7	3	0	0	0	8	6
071212	16:18:20	10025	Trial3BackEngS	NNS	18	0	1000	1	120	16:18:20	3007944	5	1	1	1	1	1	1	1	1	7	7	3	0	0	0	8	6
071212	16:18:20	10025	Trial3BackEngS	NNS	18	0	1000	1	120	16:18:20	3009463	5	1	1	1	1	1	1	1	1	7	7	3	0	0	0	8	6
071212	16:18:20	10025	Trial3BackEngS	NNS	18	57	788	0	120	16:18:20	3010783	5	1	1	1	1	1	1	1	1	7	7	3	0	0	0	8	6
071212	16:18:20	10025	Trial3BackEngS	NNS	18	0	1000	1	120	16:18:20	3012489	5	1	1	1	1	1	1	1	1	7	7	3	0	0	0	8	6
071212	16:18:20	10025	Trial3BackEngS	YYS	18	0	1000	0	120	16:18:20	3014008	5	1	1	1	1	1	1	1	1	7	7	3	0	0	0	8	6
071212	16:18:20	10025	Trial3BackEngS	NNS	18	0	1000	1	120	16:18:20	3015528	5	1	1	1	1	1	1	1	1	7	7	3	0	0	0	8	6
071212	16:18:20	10025	Trial3BackEngS	NNS	18	0	1000	1	120	16:18:20	3017047	5	1	1	1	1	1	1	1	1	7	7	3	0	0	0	8	6
071212	16:18:20	10025	Trial3BackEngS	NNS	18	0	1000	1	120	16:18:20	3018566	5	1	1	1	1	1	1	1	1	7	7	3	0	0	0	8	6
071212	16:18:20	10025	Trial3BackEngS	NNS	18	0	1000	1	120	16:18:20	3020086	5	1	1	1	1	1	1	1	1	7	7	3	0	0	0	8	6
071212	16:18:20	10025	Trial3BackEngS	NNS	18	0	1000	1	120	16:18:20	3021605	5	1	1	1	1	1	1	1	1	7	7	3	0	0	0	8	6
071212	16:18:20	10025	Trial3BackEngS	YYS	18	0	1000	0	120	16:18:20	3023124	5	1	1	1	1	1	1	1	1	7	7	3	0	0	0	8	6
071212	16:18:20	10025	Trial3BackEngS	NNS	18	0	1000	1	120	16:18:20	3024644	5	1	1	1	1	1	1	1	1	7	7	3	0	0	0	8	6
071212	16:18:20	10025	Trial3BackEngS	NNS	18	0	1000	1	120	16:18:20	3026163	5	1	1	1	1	1	1	1	1	7	7	3	0	0	0	8	6
071212	16:18:20	10025	Trial3BackEngS	NNS	18	0	1000	1	120	16:18:20	3027683	5	1	1	1	1	1	1	1	1	7	7	3	0	0	0	8	6
071212	16:18:20	10025	Trial3BackEngS	YYS	18	57	601	1	120	16:18:20	3028815	5	1	1	1	1	1	1	1	1	7	7	3	0	0	0	8	6
071212	16:18:20	10025	Trial3BackEngS	NNS	18	0	1000	1	120	16:18:20	3030708	5	1	1	1	1	1	1	1	1	7	7	3	0	0	0	8	6
