date	time	subject	blockcode	trialcode	values.TaskNumber	response	latency	correct	values.Score	script.starttime	script.elapsedtime	values.ScoreS7	values.Word1	values.Word2	values.Word3	values.Word4	values.Word5	values.Word6	values.Word7	values.Word8	values.DigitSpanFwrd	values.DigitSpanBack	values.ScoreAbs	values.Contour	values.Numbers	values.Hands	values.corsiblockspanFwrd	values.corsiblockspanRev
091012	12:45:18	10012	Language	Language	0	English	4318	0	0	12:45:18	4676	0	0	0	0	0	0	0	0	0	0	0	0	0	0	0	0	0
091012	12:45:18	10012	Session	Session	0	3mo	541	0	0	12:45:18	5304	0	0	0	0	0	0	0	0	0	0	0	0	0	0	0	0	0
091012	12:45:18	10012	HandEng	HandEng	0	Right	393661	0	0	12:45:18	399043	0	0	0	0	0	0	0	0	0	0	0	0	0	0	0	0	0
091012	12:45:18	10012	CubeEng	CubeEng	1	1Cube	16440	0	0	12:45:18	434295	0	0	0	0	0	0	0	0	0	0	0	0	0	0	0	0	0
091012	12:45:18	10012	pm.simpleEngRight	blank.simpleEng	2	0	2087	1	0	12:45:18	449729	0	0	0	0	0	0	0	0	0	0	0	0	0	0	0	0	0
091012	12:45:18	10012	pm.simpleEngRight	pm.simpleEng	2	57	563	0	0	12:45:18	450328	0	0	0	0	0	0	0	0	0	0	0	0	0	0	0	0	0
091012	12:45:18	10012	pm.simpleEngRight	blank.simpleEng	2	0	1787	1	0	12:45:18	452141	0	0	0	0	0	0	0	0	0	0	0	0	0	0	0	0	0
091012	12:45:18	10012	pm.simpleEngRight	pm.simpleEng	2	57	407	0	0	12:45:18	452580	0	0	0	0	0	0	0	0	0	0	0	0	0	0	0	0	0
091012	12:45:18	10012	pm.simpleEngRight	blank.simpleEng	2	0	1887	1	0	12:45:18	454500	0	0	0	0	0	0	0	0	0	0	0	0	0	0	0	0	0
091012	12:45:18	10012	pm.simpleEngRight	pm.simpleEng	2	57	334	0	0	12:45:18	454873	0	0	0	0	0	0	0	0	0	0	0	0	0	0	0	0	0
091012	12:45:18	10012	pm.simpleEngRight	blank.simpleEng	2	0	1587	1	0	12:45:18	456486	0	0	0	0	0	0	0	0	0	0	0	0	0	0	0	0	0
091012	12:45:18	10012	pm.simpleEngRight	pm.simpleEng	2	57	398	0	0	12:45:18	456926	0	0	0	0	0	0	0	0	0	0	0	0	0	0	0	0	0
091012	12:45:18	10012	pm.simpleEngRight	blank.simpleEng	2	0	2287	1	0	12:45:18	459245	0	0	0	0	0	0	0	0	0	0	0	0	0	0	0	0	0
091012	12:45:18	10012	pm.simpleEngRight	pm.simpleEng	2	57	375	0	0	12:45:18	459658	0	0	0	0	0	0	0	0	0	0	0	0	0	0	0	0	0
091012	12:45:18	10012	pm.simpleEngRight	blank.simpleEng	2	0	1687	1	0	12:45:18	461364	0	0	0	0	0	0	0	0	0	0	0	0	0	0	0	0	0
091012	12:45:18	10012	pm.simpleEngRight	pm.simpleEng	2	57	319	0	0	12:45:18	461724	0	0	0	0	0	0	0	0	0	0	0	0	0	0	0	0	0
091012	12:45:18	10012	pm.simpleEngRight	blank.simpleEng	2	0	2487	1	0	12:45:18	464243	0	0	0	0	0	0	0	0	0	0	0	0	0	0	0	0	0
091012	12:45:18	10012	pm.simpleEngRight	pm.simpleEng	2	57	321	0	0	12:45:18	464602	0	0	0	0	0	0	0	0	0	0	0	0	0	0	0	0	0
091012	12:45:18	10012	pm.simpleEngRight	blank.simpleEng	2	0	2387	1	0	12:45:18	467015	0	0	0	0	0	0	0	0	0	0	0	0	0	0	0	0	0
091012	12:45:18	10012	pm.simpleEngRight	pm.simpleEng	2	57	380	0	0	12:45:18	467428	0	0	0	0	0	0	0	0	0	0	0	0	0	0	0	0	0
091012	12:45:18	10012	pm.simpleEngRight	blank.simpleEng	2	0	2187	1	0	12:45:18	469640	0	0	0	0	0	0	0	0	0	0	0	0	0	0	0	0	0
091012	12:45:18	10012	pm.simpleEngRight	pm.simpleEng	2	57	347	0	0	12:45:18	470027	0	0	0	0	0	0	0	0	0	0	0	0	0	0	0	0	0
091012	12:45:18	10012	pm.simpleEngRight	blank.simpleEng	2	0	1487	1	0	12:45:18	471533	0	0	0	0	0	0	0	0	0	0	0	0	0	0	0	0	0
091012	12:45:18	10012	pm.simpleEngRight	pm.simpleEng	2	57	342	0	0	12:45:18	471906	0	0	0	0	0	0	0	0	0	0	0	0	0	0	0	0	0
091012	12:45:18	10012	pm.simpleEngRight	blank.simpleEng	2	0	1987	1	0	12:45:18	473919	0	0	0	0	0	0	0	0	0	0	0	0	0	0	0	0	0
091012	12:45:18	10012	pm.simpleEngRight	pm.simpleEng	2	57	292	0	0	12:45:18	474252	0	0	0	0	0	0	0	0	0	0	0	0	0	0	0	0	0
091012	12:45:18	10012	pm.simpleEngRight	blank.simpleEng	2	0	1987	1	0	12:45:18	476265	0	0	0	0	0	0	0	0	0	0	0	0	0	0	0	0	0
091012	12:45:18	10012	pm.simpleEngRight	pm.simpleEng	2	57	315	0	0	12:45:18	476611	0	0	0	0	0	0	0	0	0	0	0	0	0	0	0	0	0
091012	12:45:18	10012	pm.simpleEngRight	blank.simpleEng	2	0	1887	1	0	12:45:18	478530	0	0	0	0	0	0	0	0	0	0	0	0	0	0	0	0	0
091012	12:45:18	10012	pm.simpleEngRight	pm.simpleEng	2	57	368	0	0	12:45:18	478930	0	0	0	0	0	0	0	0	0	0	0	0	0	0	0	0	0
091012	12:45:18	10012	pm.simpleEngRight	blank.simpleEng	2	0	1587	1	0	12:45:18	480543	0	0	0	0	0	0	0	0	0	0	0	0	0	0	0	0	0
091012	12:45:18	10012	pm.simpleEngRight	pm.simpleEng	2	57	452	0	0	12:45:18	481036	0	0	0	0	0	0	0	0	0	0	0	0	0	0	0	0	0
091012	12:45:18	10012	pm.simpleEngRight	blank.simpleEng	2	0	1487	1	0	12:45:18	482556	0	0	0	0	0	0	0	0	0	0	0	0	0	0	0	0	0
091012	12:45:18	10012	pm.simpleEngRight	pm.simpleEng	2	57	440	0	0	12:45:18	483035	0	0	0	0	0	0	0	0	0	0	0	0	0	0	0	0	0
091012	12:45:18	10012	pm.simpleEngRight	blank.simpleEng	2	0	2087	1	0	12:45:18	485154	0	0	0	0	0	0	0	0	0	0	0	0	0	0	0	0	0
091012	12:45:18	10012	pm.simpleEngRight	pm.simpleEng	2	57	465	0	0	12:45:18	485661	0	0	0	0	0	0	0	0	0	0	0	0	0	0	0	0	0
091012	12:45:18	10012	pm.simpleEngRight	blank.simpleEng	2	0	2287	1	0	12:45:18	487980	0	0	0	0	0	0	0	0	0	0	0	0	0	0	0	0	0
091012	12:45:18	10012	pm.simpleEngRight	pm.simpleEng	2	57	311	0	0	12:45:18	488327	0	0	0	0	0	0	0	0	0	0	0	0	0	0	0	0	0
091012	12:45:18	10012	pm.simpleEngRight	blank.simpleEng	2	0	1687	1	0	12:45:18	490046	0	0	0	0	0	0	0	0	0	0	0	0	0	0	0	0	0
091012	12:45:18	10012	pm.simpleEngRight	pm.simpleEng	2	57	389	0	0	12:45:18	490472	0	0	0	0	0	0	0	0	0	0	0	0	0	0	0	0	0
091012	12:45:18	10012	pm.simpleEngRight	blank.simpleEng	2	0	1787	1	0	12:45:18	492285	0	0	0	0	0	0	0	0	0	0	0	0	0	0	0	0	0
091012	12:45:18	10012	pm.simpleEngRight	pm.simpleEng	2	57	566	0	0	12:45:18	492885	0	0	0	0	0	0	0	0	0	0	0	0	0	0	0	0	0
091012	12:45:18	10012	pm.simpleEngRight	blank.simpleEng	2	0	2387	1	0	12:45:18	495297	0	0	0	0	0	0	0	0	0	0	0	0	0	0	0	0	0
091012	12:45:18	10012	pm.simpleEngRight	pm.simpleEng	2	57	290	0	0	12:45:18	495617	0	0	0	0	0	0	0	0	0	0	0	0	0	0	0	0	0
091012	12:45:18	10012	pm.simpleEngRight	blank.simpleEng	2	0	2487	1	0	12:45:18	498136	0	0	0	0	0	0	0	0	0	0	0	0	0	0	0	0	0
091012	12:45:18	10012	pm.simpleEngRight	pm.simpleEng	2	57	379	0	0	12:45:18	498549	0	0	0	0	0	0	0	0	0	0	0	0	0	0	0	0	0
091012	12:45:18	10012	pm.simpleEngRight	blank.simpleEng	2	0	2187	1	0	12:45:18	500762	0	0	0	0	0	0	0	0	0	0	0	0	0	0	0	0	0
091012	12:45:18	10012	pm.simpleEngRight	pm.simpleEng	2	57	378	0	0	12:45:18	501175	0	0	0	0	0	0	0	0	0	0	0	0	0	0	0	0	0
091012	12:45:18	10012	pm.simpleEngRight	blank.simpleEng	2	0	1887	1	0	12:45:18	503081	0	0	0	0	0	0	0	0	0	0	0	0	0	0	0	0	0
091012	12:45:18	10012	pm.simpleEngRight	pm.simpleEng	2	57	426	0	0	12:45:18	503547	0	0	0	0	0	0	0	0	0	0	0	0	0	0	0	0	0
091012	12:45:18	10012	pm.simpleEngRight	blank.simpleEng	2	0	1587	1	0	12:45:18	505160	0	0	0	0	0	0	0	0	0	0	0	0	0	0	0	0	0
091012	12:45:18	10012	pm.simpleEngRight	pm.simpleEng	2	57	395	0	0	12:45:18	505586	0	0	0	0	0	0	0	0	0	0	0	0	0	0	0	0	0
091012	12:45:18	10012	pm.simpleEngRight	blank.simpleEng	2	0	2387	1	0	12:45:18	507999	0	0	0	0	0	0	0	0	0	0	0	0	0	0	0	0	0
091012	12:45:18	10012	pm.simpleEngRight	pm.simpleEng	2	57	340	0	0	12:45:18	508372	0	0	0	0	0	0	0	0	0	0	0	0	0	0	0	0	0
091012	12:45:18	10012	pm.simpleEngRight	blank.simpleEng	2	0	2187	1	0	12:45:18	510584	0	0	0	0	0	0	0	0	0	0	0	0	0	0	0	0	0
091012	12:45:18	10012	pm.simpleEngRight	pm.simpleEng	2	57	395	0	0	12:45:18	511011	0	0	0	0	0	0	0	0	0	0	0	0	0	0	0	0	0
091012	12:45:18	10012	pm.simpleEngRight	blank.simpleEng	2	0	2287	1	0	12:45:18	513330	0	0	0	0	0	0	0	0	0	0	0	0	0	0	0	0	0
091012	12:45:18	10012	pm.simpleEngRight	pm.simpleEng	2	57	400	0	0	12:45:18	513770	0	0	0	0	0	0	0	0	0	0	0	0	0	0	0	0	0
091012	12:45:18	10012	pm.simpleEngRight	blank.simpleEng	2	0	2487	1	0	12:45:18	516275	0	0	0	0	0	0	0	0	0	0	0	0	0	0	0	0	0
091012	12:45:18	10012	pm.simpleEngRight	pm.simpleEng	2	57	350	0	0	12:45:18	516662	0	0	0	0	0	0	0	0	0	0	0	0	0	0	0	0	0
091012	12:45:18	10012	pm.simpleEngRight	blank.simpleEng	2	0	1687	1	0	12:45:18	518381	0	0	0	0	0	0	0	0	0	0	0	0	0	0	0	0	0
091012	12:45:18	10012	pm.simpleEngRight	pm.simpleEng	2	57	437	0	0	12:45:18	518861	0	0	0	0	0	0	0	0	0	0	0	0	0	0	0	0	0
091012	12:45:18	10012	pm.simpleEngRight	blank.simpleEng	2	0	2087	1	0	12:45:18	520980	0	0	0	0	0	0	0	0	0	0	0	0	0	0	0	0	0
091012	12:45:18	10012	pm.simpleEngRight	pm.simpleEng	2	57	510	0	0	12:45:18	521527	0	0	0	0	0	0	0	0	0	0	0	0	0	0	0	0	0
091012	12:45:18	10012	pm.simpleEngRight	blank.simpleEng	2	0	1487	1	0	12:45:18	523046	0	0	0	0	0	0	0	0	0	0	0	0	0	0	0	0	0
091012	12:45:18	10012	pm.simpleEngRight	pm.simpleEng	2	57	349	0	0	12:45:18	523433	0	0	0	0	0	0	0	0	0	0	0	0	0	0	0	0	0
091012	12:45:18	10012	pm.simpleEngRight	blank.simpleEng	2	0	1787	1	0	12:45:18	525245	0	0	0	0	0	0	0	0	0	0	0	0	0	0	0	0	0
091012	12:45:18	10012	pm.simpleEngRight	pm.simpleEng	2	57	325	0	0	12:45:18	525605	0	0	0	0	0	0	0	0	0	0	0	0	0	0	0	0	0
091012	12:45:18	10012	pm.simpleEngRight	blank.simpleEng	2	0	1987	1	0	12:45:18	527618	0	0	0	0	0	0	0	0	0	0	0	0	0	0	0	0	0
091012	12:45:18	10012	pm.simpleEngRight	pm.simpleEng	2	57	337	0	0	12:45:18	527991	0	0	0	0	0	0	0	0	0	0	0	0	0	0	0	0	0
091012	12:45:18	10012	pm.simpleEngRight	blank.simpleEng	2	0	2487	1	0	12:45:18	530510	0	0	0	0	0	0	0	0	0	0	0	0	0	0	0	0	0
091012	12:45:18	10012	pm.simpleEngRight	pm.simpleEng	2	57	453	0	0	12:45:18	531003	0	0	0	0	0	0	0	0	0	0	0	0	0	0	0	0	0
091012	12:45:18	10012	pm.simpleEngRight	blank.simpleEng	2	0	1487	1	0	12:45:18	532523	0	0	0	0	0	0	0	0	0	0	0	0	0	0	0	0	0
091012	12:45:18	10012	pm.simpleEngRight	pm.simpleEng	2	57	360	0	0	12:45:18	532922	0	0	0	0	0	0	0	0	0	0	0	0	0	0	0	0	0
091012	12:45:18	10012	pm.simpleEngRight	blank.simpleEng	2	0	2287	1	0	12:45:18	535241	0	0	0	0	0	0	0	0	0	0	0	0	0	0	0	0	0
091012	12:45:18	10012	pm.simpleEngRight	pm.simpleEng	2	57	377	0	0	12:45:18	535654	0	0	0	0	0	0	0	0	0	0	0	0	0	0	0	0	0
091012	12:45:18	10012	pm.simpleEngRight	blank.simpleEng	2	0	1587	1	0	12:45:18	537267	0	0	0	0	0	0	0	0	0	0	0	0	0	0	0	0	0
091012	12:45:18	10012	pm.simpleEngRight	pm.simpleEng	2	57	463	0	0	12:45:18	537760	0	0	0	0	0	0	0	0	0	0	0	0	0	0	0	0	0
091012	12:45:18	10012	pm.simpleEngRight	blank.simpleEng	2	0	1987	1	0	12:45:18	539773	0	0	0	0	0	0	0	0	0	0	0	0	0	0	0	0	0
091012	12:45:18	10012	pm.simpleEngRight	pm.simpleEng	2	57	406	0	0	12:45:18	540213	0	0	0	0	0	0	0	0	0	0	0	0	0	0	0	0	0
091012	12:45:18	10012	pm.simpleEngRight	blank.simpleEng	2	0	2187	1	0	12:45:18	542425	0	0	0	0	0	0	0	0	0	0	0	0	0	0	0	0	0
091012	12:45:18	10012	pm.simpleEngRight	pm.simpleEng	2	57	505	0	0	12:45:18	542972	0	0	0	0	0	0	0	0	0	0	0	0	0	0	0	0	0
091012	12:45:18	10012	pm.simpleEngRight	blank.simpleEng	2	0	2387	1	0	12:45:18	545384	0	0	0	0	0	0	0	0	0	0	0	0	0	0	0	0	0
091012	12:45:18	10012	pm.simpleEngRight	pm.simpleEng	2	57	362	0	0	12:45:18	545784	0	0	0	0	0	0	0	0	0	0	0	0	0	0	0	0	0
091012	12:45:18	10012	Trial2BackEng	N	3	0	1000	1	1	12:45:18	588887	0	0	0	0	0	0	0	0	0	0	0	0	0	0	0	0	0
091012	12:45:18	10012	Trial2BackEng	N	3	0	1000	1	2	12:45:18	590406	0	0	0	0	0	0	0	0	0	0	0	0	0	0	0	0	0
091012	12:45:18	10012	Trial2BackEng	N	3	0	1000	1	3	12:45:18	591926	0	0	0	0	0	0	0	0	0	0	0	0	0	0	0	0	0
091012	12:45:18	10012	Trial2BackEng	N	3	0	1000	1	4	12:45:18	593445	0	0	0	0	0	0	0	0	0	0	0	0	0	0	0	0	0
091012	12:45:18	10012	Trial2BackEng	N	3	0	1000	1	5	12:45:18	594965	0	0	0	0	0	0	0	0	0	0	0	0	0	0	0	0	0
091012	12:45:18	10012	Trial2BackEng	N	3	0	1000	1	6	12:45:18	596484	0	0	0	0	0	0	0	0	0	0	0	0	0	0	0	0	0
091012	12:45:18	10012	Trial2BackEng	N	3	0	1000	1	7	12:45:18	598003	0	0	0	0	0	0	0	0	0	0	0	0	0	0	0	0	0
091012	12:45:18	10012	Trial2BackEng	N	3	0	1000	1	8	12:45:18	599523	0	0	0	0	0	0	0	0	0	0	0	0	0	0	0	0	0
091012	12:45:18	10012	Trial2BackEng	Y	3	0	1000	0	8	12:45:18	601042	0	0	0	0	0	0	0	0	0	0	0	0	0	0	0	0	0
091012	12:45:18	10012	Trial2BackEng	N	3	0	1000	1	9	12:45:18	602562	0	0	0	0	0	0	0	0	0	0	0	0	0	0	0	0	0
091012	12:45:18	10012	Trial2BackEng	N	3	0	1000	1	10	12:45:18	604081	0	0	0	0	0	0	0	0	0	0	0	0	0	0	0	0	0
091012	12:45:18	10012	Trial2BackEng	N	3	0	1000	1	11	12:45:18	605600	0	0	0	0	0	0	0	0	0	0	0	0	0	0	0	0	0
091012	12:45:18	10012	Trial2BackEng	Y	3	57	950	1	12	12:45:18	607080	0	0	0	0	0	0	0	0	0	0	0	0	0	0	0	0	0
091012	12:45:18	10012	Trial2BackEng	N	3	0	1000	1	13	12:45:18	608626	0	0	0	0	0	0	0	0	0	0	0	0	0	0	0	0	0
091012	12:45:18	10012	Trial2BackEng	N	3	0	1000	1	14	12:45:18	610145	0	0	0	0	0	0	0	0	0	0	0	0	0	0	0	0	0
091012	12:45:18	10012	Trial2BackEng	N	3	0	1000	1	15	12:45:18	611665	0	0	0	0	0	0	0	0	0	0	0	0	0	0	0	0	0
091012	12:45:18	10012	Trial2BackEng	N	3	0	1000	1	16	12:45:18	613184	0	0	0	0	0	0	0	0	0	0	0	0	0	0	0	0	0
091012	12:45:18	10012	Trial2BackEng	N	3	0	1000	1	17	12:45:18	614704	0	0	0	0	0	0	0	0	0	0	0	0	0	0	0	0	0
091012	12:45:18	10012	Trial2BackEng	Y	3	57	726	1	18	12:45:18	615956	0	0	0	0	0	0	0	0	0	0	0	0	0	0	0	0	0
091012	12:45:18	10012	Trial2BackEng	N	3	0	1000	1	19	12:45:18	617729	0	0	0	0	0	0	0	0	0	0	0	0	0	0	0	0	0
091012	12:45:18	10012	Trial2BackEng	N	3	0	1000	1	20	12:45:18	619248	0	0	0	0	0	0	0	0	0	0	0	0	0	0	0	0	0
091012	12:45:18	10012	Trial2BackEng	N	3	0	1000	1	21	12:45:18	620768	0	0	0	0	0	0	0	0	0	0	0	0	0	0	0	0	0
091012	12:45:18	10012	Trial2BackEng	N	3	0	1000	1	22	12:45:18	622287	0	0	0	0	0	0	0	0	0	0	0	0	0	0	0	0	0
091012	12:45:18	10012	Trial2BackEng	Y	3	0	1000	0	22	12:45:18	623807	0	0	0	0	0	0	0	0	0	0	0	0	0	0	0	0	0
091012	12:45:18	10012	Trial2BackEng	N	3	0	1000	1	23	12:45:18	625326	0	0	0	0	0	0	0	0	0	0	0	0	0	0	0	0	0
091012	12:45:18	10012	Trial2BackEng	N	3	0	1000	1	24	12:45:18	626846	0	0	0	0	0	0	0	0	0	0	0	0	0	0	0	0	0
091012	12:45:18	10012	Trial2BackEng	N	3	0	1000	1	25	12:45:18	628365	0	0	0	0	0	0	0	0	0	0	0	0	0	0	0	0	0
091012	12:45:18	10012	Trial2BackEng	N	3	0	1000	1	26	12:45:18	629884	0	0	0	0	0	0	0	0	0	0	0	0	0	0	0	0	0
091012	12:45:18	10012	Trial2BackEng	N	3	0	1000	1	27	12:45:18	631404	0	0	0	0	0	0	0	0	0	0	0	0	0	0	0	0	0
091012	12:45:18	10012	Trial2BackEng	N	3	0	1000	1	28	12:45:18	632923	0	0	0	0	0	0	0	0	0	0	0	0	0	0	0	0	0
091012	12:45:18	10012	Trial2BackEng	Y	3	57	571	1	29	12:45:18	634016	0	0	0	0	0	0	0	0	0	0	0	0	0	0	0	0	0
091012	12:45:18	10012	Trial2BackEng	N	3	0	1000	1	30	12:45:18	635962	0	0	0	0	0	0	0	0	0	0	0	0	0	0	0	0	0
091012	12:45:18	10012	Trial2BackEng	N	3	0	1000	1	31	12:45:18	637481	0	0	0	0	0	0	0	0	0	0	0	0	0	0	0	0	0
091012	12:45:18	10012	Trial2BackEng	N	3	0	1000	1	32	12:45:18	639001	0	0	0	0	0	0	0	0	0	0	0	0	0	0	0	0	0
091012	12:45:18	10012	Trial2BackEng	Y	3	57	525	1	33	12:45:18	640053	0	0	0	0	0	0	0	0	0	0	0	0	0	0	0	0	0
091012	12:45:18	10012	Trial2BackEng	N	3	0	1000	1	34	12:45:18	642026	0	0	0	0	0	0	0	0	0	0	0	0	0	0	0	0	0
091012	12:45:18	10012	Trial2BackEng	N	3	0	1000	1	35	12:45:18	643545	0	0	0	0	0	0	0	0	0	0	0	0	0	0	0	0	0
091012	12:45:18	10012	Trial2BackEng	N	3	0	1000	1	36	12:45:18	645065	0	0	0	0	0	0	0	0	0	0	0	0	0	0	0	0	0
091012	12:45:18	10012	Trial2BackEng	N	3	0	1000	1	37	12:45:18	646584	0	0	0	0	0	0	0	0	0	0	0	0	0	0	0	0	0
091012	12:45:18	10012	Trial2BackEng	N	3	0	1000	1	38	12:45:18	648104	0	0	0	0	0	0	0	0	0	0	0	0	0	0	0	0	0
091012	12:45:18	10012	Trial2BackEng	N	3	57	974	0	38	12:45:18	649610	0	0	0	0	0	0	0	0	0	0	0	0	0	0	0	0	0
091012	12:45:18	10012	Trial2BackEng	Y	3	0	1000	0	38	12:45:18	651129	0	0	0	0	0	0	0	0	0	0	0	0	0	0	0	0	0
091012	12:45:18	10012	Trial2BackEng	N	3	0	1000	1	39	12:45:18	652649	0	0	0	0	0	0	0	0	0	0	0	0	0	0	0	0	0
091012	12:45:18	10012	Trial2BackEng	N	3	0	1000	1	40	12:45:18	654168	0	0	0	0	0	0	0	0	0	0	0	0	0	0	0	0	0
091012	12:45:18	10012	Trial2BackEng	N	3	0	1000	1	41	12:45:18	655687	0	0	0	0	0	0	0	0	0	0	0	0	0	0	0	0	0
091012	12:45:18	10012	Trial2BackEng	N	3	0	1000	1	42	12:45:18	657207	0	0	0	0	0	0	0	0	0	0	0	0	0	0	0	0	0
091012	12:45:18	10012	Trial2BackEng	Y	3	0	1000	0	42	12:45:18	658726	0	0	0	0	0	0	0	0	0	0	0	0	0	0	0	0	0
091012	12:45:18	10012	Trial2BackEng	N	3	0	1000	1	43	12:45:18	660246	0	0	0	0	0	0	0	0	0	0	0	0	0	0	0	0	0
091012	12:45:18	10012	Trial2BackEng	N	3	0	1000	1	44	12:45:18	661765	0	0	0	0	0	0	0	0	0	0	0	0	0	0	0	0	0
091012	12:45:18	10012	Trial2BackEng	N	3	0	1000	1	45	12:45:18	663284	0	0	0	0	0	0	0	0	0	0	0	0	0	0	0	0	0
091012	12:45:18	10012	Trial2BackEng	N	3	0	1000	1	46	12:45:18	664804	0	0	0	0	0	0	0	0	0	0	0	0	0	0	0	0	0
091012	12:45:18	10012	Trial2BackEng	N	3	0	1000	1	47	12:45:18	666323	0	0	0	0	0	0	0	0	0	0	0	0	0	0	0	0	0
091012	12:45:18	10012	Trial2BackEng	Y	3	57	770	1	48	12:45:18	667616	0	0	0	0	0	0	0	0	0	0	0	0	0	0	0	0	0
091012	12:45:18	10012	Trial2BackEng	N	3	0	1000	1	49	12:45:18	669349	0	0	0	0	0	0	0	0	0	0	0	0	0	0	0	0	0
091012	12:45:18	10012	Trial2BackEng	N	3	0	1000	1	50	12:45:18	670868	0	0	0	0	0	0	0	0	0	0	0	0	0	0	0	0	0
091012	12:45:18	10012	Trial2BackEng	N	3	0	1000	1	51	12:45:18	672388	0	0	0	0	0	0	0	0	0	0	0	0	0	0	0	0	0
091012	12:45:18	10012	Trial2BackEng	N	3	0	1000	1	52	12:45:18	673907	0	0	0	0	0	0	0	0	0	0	0	0	0	0	0	0	0
091012	12:45:18	10012	Trial2BackEng	N	3	0	1000	1	53	12:45:18	675426	0	0	0	0	0	0	0	0	0	0	0	0	0	0	0	0	0
091012	12:45:18	10012	Trial2BackEng	N	3	0	1000	1	54	12:45:18	676946	0	0	0	0	0	0	0	0	0	0	0	0	0	0	0	0	0
091012	12:45:18	10012	Trial2BackEng	Y	3	57	596	1	55	12:45:18	678065	0	0	0	0	0	0	0	0	0	0	0	0	0	0	0	0	0
091012	12:45:18	10012	Trial2BackEng	N	3	0	1000	1	56	12:45:18	679971	0	0	0	0	0	0	0	0	0	0	0	0	0	0	0	0	0
091012	12:45:18	10012	Trial2BackEng	N	3	0	1000	1	57	12:45:18	681491	0	0	0	0	0	0	0	0	0	0	0	0	0	0	0	0	0
091012	12:45:18	10012	Trial2BackEng	Y	3	0	1000	0	57	12:45:18	683010	0	0	0	0	0	0	0	0	0	0	0	0	0	0	0	0	0
091012	12:45:18	10012	Trial2BackEng	N	3	0	1000	1	58	12:45:18	684529	0	0	0	0	0	0	0	0	0	0	0	0	0	0	0	0	0
091012	12:45:18	10012	Trial2BackEng	N	3	0	1000	1	59	12:45:18	686049	0	0	0	0	0	0	0	0	0	0	0	0	0	0	0	0	0
091012	12:45:18	10012	Trial2BackEng	N	3	0	1000	1	60	12:45:18	687568	0	0	0	0	0	0	0	0	0	0	0	0	0	0	0	0	0
091012	12:45:18	10012	Trial2BackEng	N	3	0	1000	1	61	12:45:18	689088	0	0	0	0	0	0	0	0	0	0	0	0	0	0	0	0	0
091012	12:45:18	10012	Trial2BackEng	N	3	0	1000	1	62	12:45:18	690607	0	0	0	0	0	0	0	0	0	0	0	0	0	0	0	0	0
091012	12:45:18	10012	Trial2BackEng	N	3	0	1000	1	63	12:45:18	692126	0	0	0	0	0	0	0	0	0	0	0	0	0	0	0	0	0
091012	12:45:18	10012	Trial2BackEng	N	3	0	1000	1	64	12:45:18	693646	0	0	0	0	0	0	0	0	0	0	0	0	0	0	0	0	0
091012	12:45:18	10012	Trial2BackEng	N	3	0	1000	1	65	12:45:18	695165	0	0	0	0	0	0	0	0	0	0	0	0	0	0	0	0	0
091012	12:45:18	10012	Trial2BackEng	N	3	0	1000	1	66	12:45:18	696685	0	0	0	0	0	0	0	0	0	0	0	0	0	0	0	0	0
091012	12:45:18	10012	Trial2BackEng	N	3	0	1000	1	67	12:45:18	698204	0	0	0	0	0	0	0	0	0	0	0	0	0	0	0	0	0
091012	12:45:18	10012	Trial2BackEng	Y	3	57	761	1	68	12:45:18	699497	0	0	0	0	0	0	0	0	0	0	0	0	0	0	0	0	0
091012	12:45:18	10012	Trial2BackEng	N	3	0	1000	1	69	12:45:18	701229	0	0	0	0	0	0	0	0	0	0	0	0	0	0	0	0	0
091012	12:45:18	10012	Trial2BackEng	N	3	0	1000	1	70	12:45:18	702749	0	0	0	0	0	0	0	0	0	0	0	0	0	0	0	0	0
091012	12:45:18	10012	Trial2BackEng	N	3	0	1000	1	71	12:45:18	704268	0	0	0	0	0	0	0	0	0	0	0	0	0	0	0	0	0
091012	12:45:18	10012	Trial2BackEng	Y	3	57	825	1	72	12:45:18	705628	0	0	0	0	0	0	0	0	0	0	0	0	0	0	0	0	0
091012	12:45:18	10012	Trial2BackEng	N	3	0	1000	1	73	12:45:18	707294	0	0	0	0	0	0	0	0	0	0	0	0	0	0	0	0	0
091012	12:45:18	10012	Trial2BackEng	N	3	0	1000	1	74	12:45:18	708813	0	0	0	0	0	0	0	0	0	0	0	0	0	0	0	0	0
091012	12:45:18	10012	Trial2BackEng	N	3	0	1000	1	75	12:45:18	710333	0	0	0	0	0	0	0	0	0	0	0	0	0	0	0	0	0
091012	12:45:18	10012	Trial2BackEng	N	3	0	1000	1	76	12:45:18	711852	0	0	0	0	0	0	0	0	0	0	0	0	0	0	0	0	0
091012	12:45:18	10012	Trial2BackEng	N	3	0	1000	1	77	12:45:18	713371	0	0	0	0	0	0	0	0	0	0	0	0	0	0	0	0	0
091012	12:45:18	10012	Trial2BackEng	Y	3	57	537	1	78	12:45:18	714437	0	0	0	0	0	0	0	0	0	0	0	0	0	0	0	0	0
091012	12:45:18	10012	Trial2BackEng	N	3	0	1000	1	79	12:45:18	716397	0	0	0	0	0	0	0	0	0	0	0	0	0	0	0	0	0
091012	12:45:18	10012	Trial2BackEng	N	3	0	1000	1	80	12:45:18	717916	0	0	0	0	0	0	0	0	0	0	0	0	0	0	0	0	0
091012	12:45:18	10012	Trial2BackEng	N	3	0	1000	1	81	12:45:18	719436	0	0	0	0	0	0	0	0	0	0	0	0	0	0	0	0	0
091012	12:45:18	10012	Trial2BackEng	N	3	0	1000	1	82	12:45:18	720955	0	0	0	0	0	0	0	0	0	0	0	0	0	0	0	0	0
091012	12:45:18	10012	Trial2BackEng	N	3	0	1000	1	83	12:45:18	722474	0	0	0	0	0	0	0	0	0	0	0	0	0	0	0	0	0
091012	12:45:18	10012	Trial2BackEng	N	3	0	1000	1	84	12:45:18	723994	0	0	0	0	0	0	0	0	0	0	0	0	0	0	0	0	0
091012	12:45:18	10012	Trial2BackEng	N	3	0	1000	1	85	12:45:18	725513	0	0	0	0	0	0	0	0	0	0	0	0	0	0	0	0	0
091012	12:45:18	10012	Trial2BackEng	N	3	0	1000	1	86	12:45:18	727033	0	0	0	0	0	0	0	0	0	0	0	0	0	0	0	0	0
091012	12:45:18	10012	Trial2BackEng	N	3	0	1000	1	87	12:45:18	728552	0	0	0	0	0	0	0	0	0	0	0	0	0	0	0	0	0
091012	12:45:18	10012	Trial2BackEng	Y	3	0	1000	0	87	12:45:18	730071	0	0	0	0	0	0	0	0	0	0	0	0	0	0	0	0	0
091012	12:45:18	10012	Trial2BackEng	N	3	0	1000	1	88	12:45:18	731591	0	0	0	0	0	0	0	0	0	0	0	0	0	0	0	0	0
091012	12:45:18	10012	Trial2BackEng	N	3	0	1000	1	89	12:45:18	733110	0	0	0	0	0	0	0	0	0	0	0	0	0	0	0	0	0
091012	12:45:18	10012	Trial2BackEng	N	3	0	1000	1	90	12:45:18	734629	0	0	0	0	0	0	0	0	0	0	0	0	0	0	0	0	0
091012	12:45:18	10012	Trial2BackEng	N	3	0	1000	1	91	12:45:18	736149	0	0	0	0	0	0	0	0	0	0	0	0	0	0	0	0	0
091012	12:45:18	10012	Trial2BackEng	N	3	0	1000	1	92	12:45:18	737668	0	0	0	0	0	0	0	0	0	0	0	0	0	0	0	0	0
091012	12:45:18	10012	Trial2BackEng	N	3	0	1000	1	93	12:45:18	739188	0	0	0	0	0	0	0	0	0	0	0	0	0	0	0	0	0
091012	12:45:18	10012	Trial2BackEng	N	3	0	1000	1	94	12:45:18	740707	0	0	0	0	0	0	0	0	0	0	0	0	0	0	0	0	0
091012	12:45:18	10012	Trial2BackEng	N	3	0	1000	1	95	12:45:18	742227	0	0	0	0	0	0	0	0	0	0	0	0	0	0	0	0	0
091012	12:45:18	10012	Trial2BackEng	Y	3	57	658	1	96	12:45:18	743413	0	0	0	0	0	0	0	0	0	0	0	0	0	0	0	0	0
091012	12:45:18	10012	Trial2BackEng	N	3	0	1000	1	97	12:45:18	745252	0	0	0	0	0	0	0	0	0	0	0	0	0	0	0	0	0
091012	12:45:18	10012	Trial2BackEng	N	3	0	1000	1	98	12:45:18	746771	0	0	0	0	0	0	0	0	0	0	0	0	0	0	0	0	0
091012	12:45:18	10012	Trial2BackEng	N	3	0	1000	1	99	12:45:18	748291	0	0	0	0	0	0	0	0	0	0	0	0	0	0	0	0	0
091012	12:45:18	10012	Trial2BackEng	N	3	0	1000	1	100	12:45:18	749810	0	0	0	0	0	0	0	0	0	0	0	0	0	0	0	0	0
091012	12:45:18	10012	Trial2BackEng	Y	3	57	818	1	101	12:45:18	751156	0	0	0	0	0	0	0	0	0	0	0	0	0	0	0	0	0
091012	12:45:18	10012	Trial2BackEng	N	3	0	1000	1	102	12:45:18	752836	0	0	0	0	0	0	0	0	0	0	0	0	0	0	0	0	0
091012	12:45:18	10012	Trial2BackEng	N	3	0	1000	1	103	12:45:18	754355	0	0	0	0	0	0	0	0	0	0	0	0	0	0	0	0	0
091012	12:45:18	10012	Trial2BackEng	N	3	0	1000	1	104	12:45:18	755874	0	0	0	0	0	0	0	0	0	0	0	0	0	0	0	0	0
091012	12:45:18	10012	Trial2BackEng	Y	3	57	482	1	105	12:45:18	756888	0	0	0	0	0	0	0	0	0	0	0	0	0	0	0	0	0
091012	12:45:18	10012	Trial2BackEng	N	3	0	1000	1	106	12:45:18	758900	0	0	0	0	0	0	0	0	0	0	0	0	0	0	0	0	0
091012	12:45:18	10012	Trial2BackEng	N	3	0	1000	1	107	12:45:18	760419	0	0	0	0	0	0	0	0	0	0	0	0	0	0	0	0	0
091012	12:45:18	10012	Trial2BackEng	N	3	0	1000	1	108	12:45:18	761939	0	0	0	0	0	0	0	0	0	0	0	0	0	0	0	0	0
091012	12:45:18	10012	Trial2BackEng	N	3	0	1000	1	109	12:45:18	763458	0	0	0	0	0	0	0	0	0	0	0	0	0	0	0	0	0
091012	12:45:18	10012	Trial2BackEng	N	3	0	1000	1	110	12:45:18	764978	0	0	0	0	0	0	0	0	0	0	0	0	0	0	0	0	0
091012	12:45:18	10012	Trial2BackEng	Y	3	57	723	1	111	12:45:18	766230	0	0	0	0	0	0	0	0	0	0	0	0	0	0	0	0	0
091012	12:45:18	10012	Trial2BackEng	N	3	0	1000	1	112	12:45:18	768003	0	0	0	0	0	0	0	0	0	0	0	0	0	0	0	0	0
091012	12:45:18	10012	Trial2BackEng	N	3	0	1000	1	113	12:45:18	769523	0	0	0	0	0	0	0	0	0	0	0	0	0	0	0	0	0
091012	12:45:18	10012	Trial2BackEng	N	3	0	1000	1	114	12:45:18	771042	0	0	0	0	0	0	0	0	0	0	0	0	0	0	0	0	0
091012	12:45:18	10012	Trial2BackEng	Y	3	0	1000	0	114	12:45:18	772561	0	0	0	0	0	0	0	0	0	0	0	0	0	0	0	0	0
091012	12:45:18	10012	Memory1R3mo	Score	5	M1	24629	0	114	12:45:18	825954	0	0	0	0	0	0	0	0	0	0	0	0	0	0	0	0	0
091012	12:45:18	10012	Memory1R3mo	Score	5	M2	303	0	114	12:45:18	826300	0	0	0	0	0	0	0	0	0	0	0	0	0	0	0	0	0
091012	12:45:18	10012	Memory1R3mo	Score	5	M4	1983	0	114	12:45:18	828326	0	0	0	0	0	0	0	0	0	0	0	0	0	0	0	0	0
091012	12:45:18	10012	Memory1R3mo	Score	5	M7	1707	0	114	12:45:18	830072	0	0	0	0	0	0	0	0	0	0	0	0	0	0	0	0	0
091012	12:45:18	10012	Memory1R3mo	Score	5	Done	321	0	114	12:45:18	830432	0	0	0	0	0	0	0	0	0	0	0	0	0	0	0	0	0
091012	12:45:18	10012	Memory2R3mo	Score2	5	11	17799	0	114	12:45:18	866951	0	0	0	0	0	0	0	0	0	0	0	0	0	0	0	0	0
091012	12:45:18	10012	Memory2R3mo	Score2	5	22	186	0	114	12:45:18	867178	0	0	0	0	0	0	0	0	0	0	0	0	0	0	0	0	0
091012	12:45:18	10012	Memory2R3mo	Score2	5	44	247	0	114	12:45:18	867471	0	0	0	0	0	0	0	0	0	0	0	0	0	0	0	0	0
091012	12:45:18	10012	Memory2R3mo	Score2	5	33	354	0	114	12:45:18	867870	0	0	0	0	0	0	0	0	0	0	0	0	0	0	0	0	0
091012	12:45:18	10012	Memory2R3mo	Score2	5	55	346	0	114	12:45:18	868257	0	0	0	0	0	0	0	0	0	0	0	0	0	0	0	0	0
091012	12:45:18	10012	Memory2R3mo	Score2	5	66	296	0	114	12:45:18	868590	0	0	0	0	0	0	0	0	0	0	0	0	0	0	0	0	0
091012	12:45:18	10012	Memory2R3mo	Score2	5	77	330	0	114	12:45:18	868964	0	0	0	0	0	0	0	0	0	0	0	0	0	0	0	0	0
091012	12:45:18	10012	Memory2R3mo	Score2	5	88	661	0	114	12:45:18	869670	0	0	0	0	0	0	0	0	0	0	0	0	0	0	0	0	0
091012	12:45:18	10012	Memory2R3mo	Score2	5	Done	11810	0	114	12:45:18	881519	0	0	0	0	0	0	0	0	0	0	0	0	0	0	0	0	0
091012	12:45:18	10012	Memory3R3mo	Score3	5	111	11452	0	114	12:45:18	913093	0	0	0	0	0	0	0	0	0	0	0	0	0	0	0	0	0
091012	12:45:18	10012	Memory3R3mo	Score3	5	222	299	0	114	12:45:18	913439	0	0	0	0	0	0	0	0	0	0	0	0	0	0	0	0	0
091012	12:45:18	10012	Memory3R3mo	Score3	5	333	217	0	114	12:45:18	913693	0	0	0	0	0	0	0	0	0	0	0	0	0	0	0	0	0
091012	12:45:18	10012	Memory3R3mo	Score3	5	444	324	0	114	12:45:18	914053	0	0	0	0	0	0	0	0	0	0	0	0	0	0	0	0	0
091012	12:45:18	10012	Memory3R3mo	Score3	5	555	444	0	114	12:45:18	914532	0	0	0	0	0	0	0	0	0	0	0	0	0	0	0	0	0
091012	12:45:18	10012	Memory3R3mo	Score3	5	666	300	0	114	12:45:18	914879	0	0	0	0	0	0	0	0	0	0	0	0	0	0	0	0	0
091012	12:45:18	10012	Memory3R3mo	Score3	5	777	417	0	114	12:45:18	915332	0	0	0	0	0	0	0	0	0	0	0	0	0	0	0	0	0
091012	12:45:18	10012	Memory3R3mo	Score3	5	888	676	0	114	12:45:18	916051	0	0	0	0	0	0	0	0	0	0	0	0	0	0	0	0	0
091012	12:45:18	10012	Memory3R3mo	Score3	5	Done	700	0	114	12:45:18	916798	0	0	0	0	0	0	0	0	0	0	0	0	0	0	0	0	0
091012	12:45:18	10012	LoriaEngLH3	Stop	6	7	6415	0	114	12:45:18	981108	0	0	0	0	0	0	0	0	0	0	0	0	0	0	0	0	0
091012	12:45:18	10012	EngTrail	Trails	7	1Trails	2022	0	114	12:45:18	1001459	0	0	0	0	0	0	0	0	0	0	0	0	0	0	0	0	0
091012	12:45:18	10012	Serial7Eng3mo	Serial7Eng3mo	8	83	6093	0	114	12:45:18	1029102	1	0	0	0	0	0	0	0	0	0	0	0	0	0	0	0	0
091012	12:45:18	10012	Serial7Eng3mo	Serial7Eng3mo	8	76	2977	0	114	12:45:18	1032101	2	0	0	0	0	0	0	0	0	0	0	0	0	0	0	0	0
091012	12:45:18	10012	Serial7Eng3mo	Serial7Eng3mo	8	69	4215	0	114	12:45:18	1036340	3	0	0	0	0	0	0	0	0	0	0	0	0	0	0	0	0
091012	12:45:18	10012	Serial7Eng3mo	Serial7Eng3mo	8	62	17970	0	114	12:45:18	1054335	4	0	0	0	0	0	0	0	0	0	0	0	0	0	0	0	0
091012	12:45:18	10012	Serial7Eng3mo	Serial7Eng3mo	8	55	3256	0	114	12:45:18	1057614	5	0	0	0	0	0	0	0	0	0	0	0	0	0	0	0	0
091012	12:45:18	10012	corsiblockEngFwrd	recallseqEngFwrd	9	6	2908	0	114	12:45:18	1079952	5	0	0	0	0	0	0	0	0	0	0	0	0	0	0	0	0
091012	12:45:18	10012	corsiblockEngFwrd	recallseqEngFwrd	9	3	1074	0	114	12:45:18	1081071	5	0	0	0	0	0	0	0	0	0	0	0	0	0	0	0	0
091012	12:45:18	10012	corsiblockEngFwrd	recallseqEngFwrd	9	doneCorsiEng	2123	0	114	12:45:18	1083230	5	0	0	0	0	0	0	0	0	0	0	0	0	0	0	2	0
091012	12:45:18	10012	corsiblockEngFwrd	recallseqEngFwrd	9	7	1673	0	114	12:45:18	1090987	5	0	0	0	0	0	0	0	0	0	0	0	0	0	0	2	0
091012	12:45:18	10012	corsiblockEngFwrd	recallseqEngFwrd	9	4	1191	0	114	12:45:18	1092213	5	0	0	0	0	0	0	0	0	0	0	0	0	0	0	2	0
091012	12:45:18	10012	corsiblockEngFwrd	recallseqEngFwrd	9	1	1005	0	114	12:45:18	1093253	5	0	0	0	0	0	0	0	0	0	0	0	0	0	0	2	0
091012	12:45:18	10012	corsiblockEngFwrd	recallseqEngFwrd	9	doneCorsiEng	1629	0	114	12:45:18	1094919	5	0	0	0	0	0	0	0	0	0	0	0	0	0	0	3	0
091012	12:45:18	10012	corsiblockEngFwrd	recallseqEngFwrd	9	8	615	0	114	12:45:18	1102623	5	0	0	0	0	0	0	0	0	0	0	0	0	0	0	3	0
091012	12:45:18	10012	corsiblockEngFwrd	recallseqEngFwrd	9	5	739	0	114	12:45:18	1103396	5	0	0	0	0	0	0	0	0	0	0	0	0	0	0	3	0
091012	12:45:18	10012	corsiblockEngFwrd	recallseqEngFwrd	9	2	678	0	114	12:45:18	1104115	5	0	0	0	0	0	0	0	0	0	0	0	0	0	0	3	0
091012	12:45:18	10012	corsiblockEngFwrd	recallseqEngFwrd	9	9	1078	0	114	12:45:18	1105235	5	0	0	0	0	0	0	0	0	0	0	0	0	0	0	3	0
091012	12:45:18	10012	corsiblockEngFwrd	recallseqEngFwrd	9	doneCorsiEng	1716	0	114	12:45:18	1106994	5	0	0	0	0	0	0	0	0	0	0	0	0	0	0	4	0
091012	12:45:18	10012	corsiblockEngFwrd	recallseqEngFwrd	9	8	725	0	114	12:45:18	1115804	5	0	0	0	0	0	0	0	0	0	0	0	0	0	0	4	0
091012	12:45:18	10012	corsiblockEngFwrd	recallseqEngFwrd	9	5	590	0	114	12:45:18	1116430	5	0	0	0	0	0	0	0	0	0	0	0	0	0	0	4	0
091012	12:45:18	10012	corsiblockEngFwrd	recallseqEngFwrd	9	7	771	0	114	12:45:18	1117244	5	0	0	0	0	0	0	0	0	0	0	0	0	0	0	4	0
091012	12:45:18	10012	corsiblockEngFwrd	recallseqEngFwrd	9	9	853	0	114	12:45:18	1118137	5	0	0	0	0	0	0	0	0	0	0	0	0	0	0	4	0
091012	12:45:18	10012	corsiblockEngFwrd	recallseqEngFwrd	9	3	1345	0	114	12:45:18	1119523	5	0	0	0	0	0	0	0	0	0	0	0	0	0	0	4	0
091012	12:45:18	10012	corsiblockEngFwrd	recallseqEngFwrd	9	doneCorsiEng	1798	0	114	12:45:18	1121362	5	0	0	0	0	0	0	0	0	0	0	0	0	0	0	5	0
091012	12:45:18	10012	corsiblockEngFwrd	recallseqEngFwrd	9	2	2624	0	114	12:45:18	1133077	5	0	0	0	0	0	0	0	0	0	0	0	0	0	0	5	0
091012	12:45:18	10012	corsiblockEngFwrd	recallseqEngFwrd	9	6	1109	0	114	12:45:18	1134224	5	0	0	0	0	0	0	0	0	0	0	0	0	0	0	5	0
091012	12:45:18	10012	corsiblockEngFwrd	recallseqEngFwrd	9	1	866	0	114	12:45:18	1135130	5	0	0	0	0	0	0	0	0	0	0	0	0	0	0	5	0
091012	12:45:18	10012	corsiblockEngFwrd	recallseqEngFwrd	9	4	952	0	114	12:45:18	1136116	5	0	0	0	0	0	0	0	0	0	0	0	0	0	0	5	0
091012	12:45:18	10012	corsiblockEngFwrd	recallseqEngFwrd	9	3	788	0	114	12:45:18	1136942	5	0	0	0	0	0	0	0	0	0	0	0	0	0	0	5	0
091012	12:45:18	10012	corsiblockEngFwrd	recallseqEngFwrd	9	4	923	0	114	12:45:18	1137902	5	0	0	0	0	0	0	0	0	0	0	0	0	0	0	5	0
091012	12:45:18	10012	corsiblockEngFwrd	recallseqEngFwrd	9	doneCorsiEng	1171	0	114	12:45:18	1139115	5	0	0	0	0	0	0	0	0	0	0	0	0	0	0	6	0
091012	12:45:18	10012	corsiblockEngFwrd	recallseqEngFwrd	9	8	2061	0	114	12:45:18	1151270	5	0	0	0	0	0	0	0	0	0	0	0	0	0	0	6	0
091012	12:45:18	10012	corsiblockEngFwrd	recallseqEngFwrd	9	7	1147	0	114	12:45:18	1152456	5	0	0	0	0	0	0	0	0	0	0	0	0	0	0	6	0
091012	12:45:18	10012	corsiblockEngFwrd	recallseqEngFwrd	9	2	1161	0	114	12:45:18	1153656	5	0	0	0	0	0	0	0	0	0	0	0	0	0	0	6	0
091012	12:45:18	10012	corsiblockEngFwrd	recallseqEngFwrd	9	5	705	0	114	12:45:18	1154402	5	0	0	0	0	0	0	0	0	0	0	0	0	0	0	6	0
091012	12:45:18	10012	corsiblockEngFwrd	recallseqEngFwrd	9	9	967	0	114	12:45:18	1155402	5	0	0	0	0	0	0	0	0	0	0	0	0	0	0	6	0
091012	12:45:18	10012	corsiblockEngFwrd	recallseqEngFwrd	9	1	839	0	114	12:45:18	1156282	5	0	0	0	0	0	0	0	0	0	0	0	0	0	0	6	0
091012	12:45:18	10012	corsiblockEngFwrd	recallseqEngFwrd	9	6	1360	0	114	12:45:18	1157681	5	0	0	0	0	0	0	0	0	0	0	0	0	0	0	6	0
091012	12:45:18	10012	corsiblockEngFwrd	recallseqEngFwrd	9	doneCorsiEng	1032	0	114	12:45:18	1158747	5	0	0	0	0	0	0	0	0	0	0	0	0	0	0	7	0
091012	12:45:18	10012	corsiblockEngFwrd	recallseqEngFwrd	9	9	2565	0	114	12:45:18	1172395	5	0	0	0	0	0	0	0	0	0	0	0	0	0	0	7	0
091012	12:45:18	10012	corsiblockEngFwrd	recallseqEngFwrd	9	5	822	0	114	12:45:18	1173261	5	0	0	0	0	0	0	0	0	0	0	0	0	0	0	7	0
091012	12:45:18	10012	corsiblockEngFwrd	recallseqEngFwrd	9	2	1011	0	114	12:45:18	1174314	5	0	0	0	0	0	0	0	0	0	0	0	0	0	0	7	0
091012	12:45:18	10012	corsiblockEngFwrd	recallseqEngFwrd	9	7	847	0	114	12:45:18	1175194	5	0	0	0	0	0	0	0	0	0	0	0	0	0	0	7	0
091012	12:45:18	10012	corsiblockEngFwrd	recallseqEngFwrd	9	6	895	0	114	12:45:18	1176127	5	0	0	0	0	0	0	0	0	0	0	0	0	0	0	7	0
091012	12:45:18	10012	corsiblockEngFwrd	recallseqEngFwrd	9	4	625	0	114	12:45:18	1176793	5	0	0	0	0	0	0	0	0	0	0	0	0	0	0	7	0
091012	12:45:18	10012	corsiblockEngFwrd	recallseqEngFwrd	9	1	895	0	114	12:45:18	1177726	5	0	0	0	0	0	0	0	0	0	0	0	0	0	0	7	0
091012	12:45:18	10012	corsiblockEngFwrd	recallseqEngFwrd	9	3	802	0	114	12:45:18	1178566	5	0	0	0	0	0	0	0	0	0	0	0	0	0	0	7	0
091012	12:45:18	10012	corsiblockEngFwrd	recallseqEngFwrd	9	doneCorsiEng	1155	0	114	12:45:18	1179766	5	0	0	0	0	0	0	0	0	0	0	0	0	0	0	7	0
091012	12:45:18	10012	corsiblockEngFwrd	recallseqEngFwrd	9	8	1130	0	114	12:45:18	1191948	5	0	0	0	0	0	0	0	0	0	0	0	0	0	0	7	0
091012	12:45:18	10012	corsiblockEngFwrd	recallseqEngFwrd	9	5	814	0	114	12:45:18	1192801	5	0	0	0	0	0	0	0	0	0	0	0	0	0	0	7	0
091012	12:45:18	10012	corsiblockEngFwrd	recallseqEngFwrd	9	6	904	0	114	12:45:18	1193747	5	0	0	0	0	0	0	0	0	0	0	0	0	0	0	7	0
091012	12:45:18	10012	corsiblockEngFwrd	recallseqEngFwrd	9	5	854	0	114	12:45:18	1194640	5	0	0	0	0	0	0	0	0	0	0	0	0	0	0	7	0
091012	12:45:18	10012	corsiblockEngFwrd	recallseqEngFwrd	9	2	872	0	114	12:45:18	1195546	5	0	0	0	0	0	0	0	0	0	0	0	0	0	0	7	0
091012	12:45:18	10012	corsiblockEngFwrd	recallseqEngFwrd	9	7	839	0	114	12:45:18	1196426	5	0	0	0	0	0	0	0	0	0	0	0	0	0	0	7	0
091012	12:45:18	10012	corsiblockEngFwrd	recallseqEngFwrd	9	4	1575	0	114	12:45:18	1198038	5	0	0	0	0	0	0	0	0	0	0	0	0	0	0	7	0
091012	12:45:18	10012	corsiblockEngFwrd	recallseqEngFwrd	9	1	994	0	114	12:45:18	1199078	5	0	0	0	0	0	0	0	0	0	0	0	0	0	0	7	0
091012	12:45:18	10012	corsiblockEngFwrd	recallseqEngFwrd	9	doneCorsiEng	1954	0	114	12:45:18	1201078	5	0	0	0	0	0	0	0	0	0	0	0	0	0	0	7	0
091012	12:45:18	10012	corsiblockEngRev	recallseqEngRev	10	2	1149	0	114	12:45:18	1214365	5	0	0	0	0	0	0	0	0	0	0	0	0	0	0	7	0
091012	12:45:18	10012	corsiblockEngRev	recallseqEngRev	10	3	795	0	114	12:45:18	1215205	5	0	0	0	0	0	0	0	0	0	0	0	0	0	0	7	0
091012	12:45:18	10012	corsiblockEngRev	recallseqEngRev	10	doneCorsiEng	1771	0	114	12:45:18	1217018	5	0	0	0	0	0	0	0	0	0	0	0	0	0	0	7	2
091012	12:45:18	10012	corsiblockEngRev	recallseqEngRev	10	1	780	0	114	12:45:18	1223882	5	0	0	0	0	0	0	0	0	0	0	0	0	0	0	7	2
091012	12:45:18	10012	corsiblockEngRev	recallseqEngRev	10	7	1174	0	114	12:45:18	1225094	5	0	0	0	0	0	0	0	0	0	0	0	0	0	0	7	2
091012	12:45:18	10012	corsiblockEngRev	recallseqEngRev	10	4	818	0	114	12:45:18	1225947	5	0	0	0	0	0	0	0	0	0	0	0	0	0	0	7	2
091012	12:45:18	10012	corsiblockEngRev	recallseqEngRev	10	doneCorsiEng	1573	0	114	12:45:18	1227560	5	0	0	0	0	0	0	0	0	0	0	0	0	0	0	7	3
091012	12:45:18	10012	corsiblockEngRev	recallseqEngRev	10	8	965	0	114	12:45:18	1235610	5	0	0	0	0	0	0	0	0	0	0	0	0	0	0	7	3
091012	12:45:18	10012	corsiblockEngRev	recallseqEngRev	10	5	702	0	114	12:45:18	1236357	5	0	0	0	0	0	0	0	0	0	0	0	0	0	0	7	3
091012	12:45:18	10012	corsiblockEngRev	recallseqEngRev	10	6	571	0	114	12:45:18	1236970	5	0	0	0	0	0	0	0	0	0	0	0	0	0	0	7	3
091012	12:45:18	10012	corsiblockEngRev	recallseqEngRev	10	9	1518	0	114	12:45:18	1238529	5	0	0	0	0	0	0	0	0	0	0	0	0	0	0	7	3
091012	12:45:18	10012	corsiblockEngRev	recallseqEngRev	10	doneCorsiEng	1127	0	114	12:45:18	1239702	5	0	0	0	0	0	0	0	0	0	0	0	0	0	0	7	4
091012	12:45:18	10012	corsiblockEngRev	recallseqEngRev	10	1	2311	0	114	12:45:18	1250098	5	0	0	0	0	0	0	0	0	0	0	0	0	0	0	7	4
091012	12:45:18	10012	corsiblockEngRev	recallseqEngRev	10	5	878	0	114	12:45:18	1251018	5	0	0	0	0	0	0	0	0	0	0	0	0	0	0	7	4
091012	12:45:18	10012	corsiblockEngRev	recallseqEngRev	10	2	751	0	114	12:45:18	1251804	5	0	0	0	0	0	0	0	0	0	0	0	0	0	0	7	4
091012	12:45:18	10012	corsiblockEngRev	recallseqEngRev	10	9	700	0	114	12:45:18	1252537	5	0	0	0	0	0	0	0	0	0	0	0	0	0	0	7	4
091012	12:45:18	10012	corsiblockEngRev	recallseqEngRev	10	6	879	0	114	12:45:18	1253457	5	0	0	0	0	0	0	0	0	0	0	0	0	0	0	7	4
091012	12:45:18	10012	corsiblockEngRev	recallseqEngRev	10	doneCorsiEng	1295	0	114	12:45:18	1254789	5	0	0	0	0	0	0	0	0	0	0	0	0	0	0	7	5
091012	12:45:18	10012	corsiblockEngRev	recallseqEngRev	10	5	817	0	114	12:45:18	1264692	5	0	0	0	0	0	0	0	0	0	0	0	0	0	0	7	5
091012	12:45:18	10012	corsiblockEngRev	recallseqEngRev	10	1	987	0	114	12:45:18	1265719	5	0	0	0	0	0	0	0	0	0	0	0	0	0	0	7	5
091012	12:45:18	10012	corsiblockEngRev	recallseqEngRev	10	7	753	0	114	12:45:18	1266505	5	0	0	0	0	0	0	0	0	0	0	0	0	0	0	7	5
091012	12:45:18	10012	corsiblockEngRev	recallseqEngRev	10	3	975	0	114	12:45:18	1267518	5	0	0	0	0	0	0	0	0	0	0	0	0	0	0	7	5
091012	12:45:18	10012	corsiblockEngRev	recallseqEngRev	10	4	866	0	114	12:45:18	1268424	5	0	0	0	0	0	0	0	0	0	0	0	0	0	0	7	5
091012	12:45:18	10012	corsiblockEngRev	recallseqEngRev	10	8	864	0	114	12:45:18	1269330	5	0	0	0	0	0	0	0	0	0	0	0	0	0	0	7	5
091012	12:45:18	10012	corsiblockEngRev	recallseqEngRev	10	doneCorsiEng	989	0	114	12:45:18	1270357	5	0	0	0	0	0	0	0	0	0	0	0	0	0	0	7	5
091012	12:45:18	10012	corsiblockEngRev	recallseqEngRev	10	8	1057	0	114	12:45:18	1280459	5	0	0	0	0	0	0	0	0	0	0	0	0	0	0	7	5
091012	12:45:18	10012	corsiblockEngRev	recallseqEngRev	10	4	1084	0	114	12:45:18	1281579	5	0	0	0	0	0	0	0	0	0	0	0	0	0	0	7	5
091012	12:45:18	10012	corsiblockEngRev	recallseqEngRev	10	6	789	0	114	12:45:18	1282405	5	0	0	0	0	0	0	0	0	0	0	0	0	0	0	7	5
091012	12:45:18	10012	corsiblockEngRev	recallseqEngRev	10	3	778	0	114	12:45:18	1283218	5	0	0	0	0	0	0	0	0	0	0	0	0	0	0	7	5
091012	12:45:18	10012	corsiblockEngRev	recallseqEngRev	10	9	933	0	114	12:45:18	1284191	5	0	0	0	0	0	0	0	0	0	0	0	0	0	0	7	5
091012	12:45:18	10012	corsiblockEngRev	recallseqEngRev	10	2	848	0	114	12:45:18	1285084	5	0	0	0	0	0	0	0	0	0	0	0	0	0	0	7	5
091012	12:45:18	10012	corsiblockEngRev	recallseqEngRev	10	doneCorsiEng	1331	0	114	12:45:18	1286457	5	0	0	0	0	0	0	0	0	0	0	0	0	0	0	7	6
091012	12:45:18	10012	corsiblockEngRev	recallseqEngRev	10	1	1245	0	114	12:45:18	1296786	5	0	0	0	0	0	0	0	0	0	0	0	0	0	0	7	6
091012	12:45:18	10012	corsiblockEngRev	recallseqEngRev	10	5	1085	0	114	12:45:18	1297906	5	0	0	0	0	0	0	0	0	0	0	0	0	0	0	7	6
091012	12:45:18	10012	corsiblockEngRev	recallseqEngRev	10	2	941	0	114	12:45:18	1298892	5	0	0	0	0	0	0	0	0	0	0	0	0	0	0	7	6
091012	12:45:18	10012	corsiblockEngRev	recallseqEngRev	10	7	2227	0	114	12:45:18	1301158	5	0	0	0	0	0	0	0	0	0	0	0	0	0	0	7	6
091012	12:45:18	10012	corsiblockEngRev	recallseqEngRev	10	9	1016	0	114	12:45:18	1302211	5	0	0	0	0	0	0	0	0	0	0	0	0	0	0	7	6
091012	12:45:18	10012	corsiblockEngRev	recallseqEngRev	10	7	805	0	114	12:45:18	1303051	5	0	0	0	0	0	0	0	0	0	0	0	0	0	0	7	6
091012	12:45:18	10012	corsiblockEngRev	recallseqEngRev	10	4	1589	0	114	12:45:18	1304677	5	0	0	0	0	0	0	0	0	0	0	0	0	0	0	7	6
091012	12:45:18	10012	corsiblockEngRev	recallseqEngRev	10	doneCorsiEng	891	0	114	12:45:18	1305609	5	0	0	0	0	0	0	0	0	0	0	0	0	0	0	7	6
091012	12:45:18	10012	corsiblockEngRev	recallseqEngRev	10	6	4580	0	114	12:45:18	1320244	5	0	0	0	0	0	0	0	0	0	0	0	0	0	0	7	6
091012	12:45:18	10012	corsiblockEngRev	recallseqEngRev	10	resetCorsiEng	4139	0	114	12:45:18	1324429	5	0	0	0	0	0	0	0	0	0	0	0	0	0	0	7	6
091012	12:45:18	10012	corsiblockEngRev	recallseqEngRev	10	2	3362	0	114	12:45:18	1327827	5	0	0	0	0	0	0	0	0	0	0	0	0	0	0	7	6
091012	12:45:18	10012	corsiblockEngRev	recallseqEngRev	10	7	572	0	114	12:45:18	1328441	5	0	0	0	0	0	0	0	0	0	0	0	0	0	0	7	6
091012	12:45:18	10012	corsiblockEngRev	recallseqEngRev	10	3	1094	0	114	12:45:18	1329574	5	0	0	0	0	0	0	0	0	0	0	0	0	0	0	7	6
091012	12:45:18	10012	corsiblockEngRev	recallseqEngRev	10	4	1346	0	114	12:45:18	1330960	5	0	0	0	0	0	0	0	0	0	0	0	0	0	0	7	6
091012	12:45:18	10012	corsiblockEngRev	recallseqEngRev	10	8	2104	0	114	12:45:18	1333105	5	0	0	0	0	0	0	0	0	0	0	0	0	0	0	7	6
091012	12:45:18	10012	corsiblockEngRev	recallseqEngRev	10	5	542	0	114	12:45:18	1333692	5	0	0	0	0	0	0	0	0	0	0	0	0	0	0	7	6
091012	12:45:18	10012	corsiblockEngRev	recallseqEngRev	10	6	459	0	114	12:45:18	1334185	5	0	0	0	0	0	0	0	0	0	0	0	0	0	0	7	6
091012	12:45:18	10012	corsiblockEngRev	recallseqEngRev	10	doneCorsiEng	1454	0	114	12:45:18	1335678	5	0	0	0	0	0	0	0	0	0	0	0	0	0	0	7	6
091012	12:45:18	10012	testEng3mo	WordsEng3mo	11	2Eng3mo	1517	0	114	12:45:18	1369944	5	0	1	0	0	0	0	0	0	0	0	0	0	0	0	7	6
091012	12:45:18	10012	testEng3mo	WordsEng3mo	11	4Eng3mo	1607	0	114	12:45:18	1371597	5	0	1	0	1	0	0	0	0	0	0	0	0	0	0	7	6
091012	12:45:18	10012	testEng3mo	WordsEng3mo	11	6Eng3mo	1586	0	114	12:45:18	1373223	5	0	1	0	1	0	1	0	0	0	0	0	0	0	0	7	6
091012	12:45:18	10012	testEng3mo	WordsEng3mo	11	8Eng3mo	1128	0	114	12:45:18	1374396	5	0	1	0	1	0	1	0	1	0	0	0	0	0	0	7	6
091012	12:45:18	10012	testEng3mo	WordsEng3mo	11	DoneEng3mo	13379	0	114	12:45:18	1387817	5	0	1	0	1	0	1	0	1	0	0	0	0	0	0	7	6
091012	12:45:18	10012	testEng3mo	Cat1Eng3mo	11	0	1	0	114	12:45:18	1387834	5	0	1	0	1	0	1	0	1	0	0	0	0	0	0	7	6
091012	12:45:18	10012	testEng3mo	Ch1Eng3mo	11	RR1Eng3mo	4949	0	114	12:45:18	1392802	5	3	1	0	1	0	1	0	1	0	0	0	0	0	0	7	6
091012	12:45:18	10012	testEng3mo	Cat3Eng3mo	11	0	1	0	114	12:45:18	1392819	5	3	1	0	1	0	1	0	1	0	0	0	0	0	0	7	6
091012	12:45:18	10012	testEng3mo	Ch3Eng3mo	11	RR3Eng3mo	4720	0	114	12:45:18	1397573	5	3	1	3	1	0	1	0	1	0	0	0	0	0	0	7	6
091012	12:45:18	10012	testEng3mo	Cat5Eng3mo	11	W5Eng3mo	7297	0	114	12:45:18	1404904	5	3	1	3	1	0	1	0	1	0	0	0	0	0	0	7	6
091012	12:45:18	10012	testEng3mo	Ch5Eng3mo	11	RR5Eng3mo	3823	0	114	12:45:18	1408769	5	3	1	3	1	3	1	0	1	0	0	0	0	0	0	7	6
091012	12:45:18	10012	testEng3mo	Cat7Eng3mo	11	R7Eng3mo	4798	0	114	12:45:18	1413607	5	3	1	3	1	3	1	2	1	0	0	0	0	0	0	7	6
091012	12:45:18	10012	DigitSpanFwrdEng3mo	Score1FwrdEng3mo	12	DS1	9121	0	114	12:45:18	1433546	5	3	1	3	1	3	1	2	1	0	0	0	0	0	0	7	6
091012	12:45:18	10012	DigitSpanFwrdEng3mo	Gate1FwrdEng3mo	12	0	1	0	114	12:45:18	1433561	5	3	1	3	1	3	1	2	1	3	0	0	0	0	0	7	6
091012	12:45:18	10012	DigitSpanFwrdEng3mo	Score2FwrdEng3mo	12	DS1	3029	0	114	12:45:18	1443155	5	3	1	3	1	3	1	2	1	3	0	0	0	0	0	7	6
091012	12:45:18	10012	DigitSpanFwrdEng3mo	Gate3FwrdEng3mo	12	0	1	0	114	12:45:18	1443170	5	3	1	3	1	3	1	2	1	4	0	0	0	0	0	7	6
091012	12:45:18	10012	DigitSpanFwrdEng3mo	Score3FwrdEng3mo	12	DS1	2747	0	114	12:45:18	1453964	5	3	1	3	1	3	1	2	1	4	0	0	0	0	0	7	6
091012	12:45:18	10012	DigitSpanFwrdEng3mo	Gate5FwrdEng3mo	12	0	1	0	114	12:45:18	1453980	5	3	1	3	1	3	1	2	1	5	0	0	0	0	0	7	6
091012	12:45:18	10012	DigitSpanFwrdEng3mo	Score4FwrdEng3mo	12	DS1	2757	0	114	12:45:18	1466279	5	3	1	3	1	3	1	2	1	5	0	0	0	0	0	7	6
091012	12:45:18	10012	DigitSpanFwrdEng3mo	Gate7FwrdEng3mo	12	0	1	0	114	12:45:18	1466294	5	3	1	3	1	3	1	2	1	6	0	0	0	0	0	7	6
091012	12:45:18	10012	DigitSpanFwrdEng3mo	Score5FwrdEng3mo	12	DS1	3160	0	114	12:45:18	1480500	5	3	1	3	1	3	1	2	1	6	0	0	0	0	0	7	6
091012	12:45:18	10012	DigitSpanFwrdEng3mo	Gate9FwrdEng3mo	12	0	1	0	114	12:45:18	1480515	5	3	1	3	1	3	1	2	1	7	0	0	0	0	0	7	6
091012	12:45:18	10012	DigitSpanFwrdEng3mo	Score6FwrdEng3mo	12	DS1	3361	0	114	12:45:18	1497227	5	3	1	3	1	3	1	2	1	8	0	0	0	0	0	7	6
091012	12:45:18	10012	DigitSpanEng3mo	Score1Eng3mo	13	DS1	4355	0	114	12:45:18	1509609	5	3	1	3	1	3	1	2	1	8	0	0	0	0	0	7	6
091012	12:45:18	10012	DigitSpanEng3mo	Gate1Eng3mo	13	0	1	0	114	12:45:18	1509624	5	3	1	3	1	3	1	2	1	8	2	0	0	0	0	7	6
091012	12:45:18	10012	DigitSpanEng3mo	Score2Eng3mo	13	DS1	1905	0	114	12:45:18	1516486	5	3	1	3	1	3	1	2	1	8	2	0	0	0	0	7	6
091012	12:45:18	10012	DigitSpanEng3mo	Gate3Eng3mo	13	0	1	0	114	12:45:18	1516501	5	3	1	3	1	3	1	2	1	8	3	0	0	0	0	7	6
091012	12:45:18	10012	DigitSpanEng3mo	Score3Eng3mo	13	DS1	3780	0	114	12:45:18	1526869	5	3	1	3	1	3	1	2	1	8	3	0	0	0	0	7	6
091012	12:45:18	10012	DigitSpanEng3mo	Gate5Eng3mo	13	0	1	0	114	12:45:18	1526884	5	3	1	3	1	3	1	2	1	8	4	0	0	0	0	7	6
091012	12:45:18	10012	DigitSpanEng3mo	Score4Eng3mo	13	DS2	5729	0	114	12:45:18	1540663	5	3	1	3	1	3	1	2	1	8	4	0	0	0	0	7	6
091012	12:45:18	10012	DigitSpanEng3mo	Gate7Eng3mo	13	0	1	0	114	12:45:18	1540679	5	3	1	3	1	3	1	2	1	8	4	0	0	0	0	7	6
091012	12:45:18	10012	DigitSpanEng3mo	Score44Eng3mo	13	DS1	9454	0	114	12:45:18	1558376	5	3	1	3	1	3	1	2	1	8	4	0	0	0	0	7	6
091012	12:45:18	10012	DigitSpanEng3mo	Gate8Eng3mo	13	0	1	0	114	12:45:18	1558392	5	3	1	3	1	3	1	2	1	8	5	0	0	0	0	7	6
091012	12:45:18	10012	DigitSpanEng3mo	Score5Eng3mo	13	DS1	10413	0	114	12:45:18	1578328	5	3	1	3	1	3	1	2	1	8	5	0	0	0	0	7	6
091012	12:45:18	10012	DigitSpanEng3mo	Gate9Eng3mo	13	0	1	0	114	12:45:18	1578344	5	3	1	3	1	3	1	2	1	8	6	0	0	0	0	7	6
091012	12:45:18	10012	DigitSpanEng3mo	Score6Eng3mo	13	DS1	13851	0	114	12:45:18	1604145	5	3	1	3	1	3	1	2	1	8	7	0	0	0	0	7	6
091012	12:45:18	10012	Trial	IncongruentRight	14	0	737	0	114	12:45:18	1630508	5	3	1	3	1	3	1	2	1	8	7	0	0	0	0	7	6
091012	12:45:18	10012	Trial	IncongruentLeft	14	203	686	1	114	12:45:18	1631467	5	3	1	3	1	3	1	2	1	8	7	0	0	0	0	7	6
091012	12:45:18	10012	Trial	CongruentRight	14	205	534	1	114	12:45:18	1632320	5	3	1	3	1	3	1	2	1	8	7	0	0	0	0	7	6
091012	12:45:18	10012	Trial	IncongruentRight	14	205	575	1	114	12:45:18	1633360	5	3	1	3	1	3	1	2	1	8	7	0	0	0	0	7	6
091012	12:45:18	10012	Trial	CongruentLeft	14	203	714	1	114	12:45:18	1634506	5	3	1	3	1	3	1	2	1	8	7	0	0	0	0	7	6
091012	12:45:18	10012	Trial	CongruentRight	14	205	610	1	114	12:45:18	1635399	5	3	1	3	1	3	1	2	1	8	7	0	0	0	0	7	6
091012	12:45:18	10012	Trial	IncongruentRight	14	205	682	1	114	12:45:18	1636479	5	3	1	3	1	3	1	2	1	8	7	0	0	0	0	7	6
091012	12:45:18	10012	Trial	CongruentLeft	14	203	691	1	114	12:45:18	1637492	5	3	1	3	1	3	1	2	1	8	7	0	0	0	0	7	6
091012	12:45:18	10012	Trial	IncongruentLeft	14	0	737	0	114	12:45:18	1638518	5	3	1	3	1	3	1	2	1	8	7	0	0	0	0	7	6
091012	12:45:18	10012	Trial	IncongruentLeft	14	203	116	1	114	12:45:18	1638904	5	3	1	3	1	3	1	2	1	8	7	0	0	0	0	7	6
091012	12:45:18	10012	Trial	CongruentRight	14	205	636	1	114	12:45:18	1640424	5	3	1	3	1	3	1	2	1	8	7	0	0	0	0	7	6
091012	12:45:18	10012	Trial	IncongruentRight	14	205	692	1	114	12:45:18	1641490	5	3	1	3	1	3	1	2	1	8	7	0	0	0	0	7	6
091012	12:45:18	10012	Trial	CongruentLeft	14	203	591	1	114	12:45:18	1642396	5	3	1	3	1	3	1	2	1	8	7	0	0	0	0	7	6
091012	12:45:18	10012	Trial	CongruentRight	14	205	504	1	114	12:45:18	1643302	5	3	1	3	1	3	1	2	1	8	7	0	0	0	0	7	6
091012	12:45:18	10012	Trial	IncongruentLeft	14	203	544	1	114	12:45:18	1644342	5	3	1	3	1	3	1	2	1	8	7	0	0	0	0	7	6
091012	12:45:18	10012	Trial	IncongruentRight	14	205	489	1	114	12:45:18	1645288	5	3	1	3	1	3	1	2	1	8	7	0	0	0	0	7	6
091012	12:45:18	10012	Trial	CongruentRight	14	205	481	1	114	12:45:18	1646288	5	3	1	3	1	3	1	2	1	8	7	0	0	0	0	7	6
091012	12:45:18	10012	Trial	CongruentLeft	14	203	489	1	114	12:45:18	1647288	5	3	1	3	1	3	1	2	1	8	7	0	0	0	0	7	6
091012	12:45:18	10012	Trial	CongruentRight	14	205	418	1	114	12:45:18	1648220	5	3	1	3	1	3	1	2	1	8	7	0	0	0	0	7	6
091012	12:45:18	10012	Trial	IncongruentRight	14	205	426	1	114	12:45:18	1649234	5	3	1	3	1	3	1	2	1	8	7	0	0	0	0	7	6
091012	12:45:18	10012	Trial	IncongruentLeft	14	203	387	1	114	12:45:18	1650193	5	3	1	3	1	3	1	2	1	8	7	0	0	0	0	7	6
091012	12:45:18	10012	Trial	IncongruentLeft	14	205	363	0	114	12:45:18	1651166	5	3	1	3	1	3	1	2	1	8	7	0	0	0	0	7	6
091012	12:45:18	10012	Trial	CongruentLeft	14	203	579	1	114	12:45:18	1652379	5	3	1	3	1	3	1	2	1	8	7	0	0	0	0	7	6
091012	12:45:18	10012	Trial	CongruentRight	14	205	604	1	114	12:45:18	1653405	5	3	1	3	1	3	1	2	1	8	7	0	0	0	0	7	6
091012	12:45:18	10012	Trial	IncongruentLeft	14	203	596	1	114	12:45:18	1654391	5	3	1	3	1	3	1	2	1	8	7	0	0	0	0	7	6
091012	12:45:18	10012	Trial	IncongruentRight	14	205	588	1	114	12:45:18	1655391	5	3	1	3	1	3	1	2	1	8	7	0	0	0	0	7	6
091012	12:45:18	10012	Trial	CongruentRight	14	205	677	1	114	12:45:18	1656470	5	3	1	3	1	3	1	2	1	8	7	0	0	0	0	7	6
091012	12:45:18	10012	Trial	CongruentLeft	14	203	605	1	114	12:45:18	1657404	5	3	1	3	1	3	1	2	1	8	7	0	0	0	0	7	6
091012	12:45:18	10012	Trial	IncongruentRight	14	205	581	1	114	12:45:18	1658377	5	3	1	3	1	3	1	2	1	8	7	0	0	0	0	7	6
091012	12:45:18	10012	Trial	IncongruentLeft	14	203	590	1	114	12:45:18	1659390	5	3	1	3	1	3	1	2	1	8	7	0	0	0	0	7	6
091012	12:45:18	10012	Trial	IncongruentRight	14	205	598	1	114	12:45:18	1660403	5	3	1	3	1	3	1	2	1	8	7	0	0	0	0	7	6
091012	12:45:18	10012	Trial	CongruentRight	14	205	607	1	114	12:45:18	1661402	5	3	1	3	1	3	1	2	1	8	7	0	0	0	0	7	6
091012	12:45:18	10012	Trial	IncongruentLeft	14	203	599	1	114	12:45:18	1662402	5	3	1	3	1	3	1	2	1	8	7	0	0	0	0	7	6
091012	12:45:18	10012	Trial	CongruentLeft	14	203	576	1	114	12:45:18	1663375	5	3	1	3	1	3	1	2	1	8	7	0	0	0	0	7	6
091012	12:45:18	10012	Trial	CongruentRight	14	205	520	1	114	12:45:18	1664321	5	3	1	3	1	3	1	2	1	8	7	0	0	0	0	7	6
091012	12:45:18	10012	Trial	IncongruentLeft	14	203	448	1	114	12:45:18	1665240	5	3	1	3	1	3	1	2	1	8	7	0	0	0	0	7	6
091012	12:45:18	10012	Trial	IncongruentRight	14	205	473	1	114	12:45:18	1666267	5	3	1	3	1	3	1	2	1	8	7	0	0	0	0	7	6
091012	12:45:18	10012	Trial	IncongruentRight	14	205	545	1	114	12:45:18	1667347	5	3	1	3	1	3	1	2	1	8	7	0	0	0	0	7	6
091012	12:45:18	10012	Trial	CongruentLeft	14	203	553	1	114	12:45:18	1668346	5	3	1	3	1	3	1	2	1	8	7	0	0	0	0	7	6
091012	12:45:18	10012	Trial	IncongruentLeft	14	203	658	1	114	12:45:18	1669452	5	3	1	3	1	3	1	2	1	8	7	0	0	0	0	7	6
091012	12:45:18	10012	Trial	CongruentRight	14	205	506	1	114	12:45:18	1670305	5	3	1	3	1	3	1	2	1	8	7	0	0	0	0	7	6
091012	12:45:18	10012	Trial	CongruentLeft	14	203	594	1	114	12:45:18	1671385	5	3	1	3	1	3	1	2	1	8	7	0	0	0	0	7	6
091012	12:45:18	10012	Trial	IncongruentRight	14	205	507	1	114	12:45:18	1672305	5	3	1	3	1	3	1	2	1	8	7	0	0	0	0	7	6
091012	12:45:18	10012	Trial	CongruentRight	14	205	595	1	114	12:45:18	1673384	5	3	1	3	1	3	1	2	1	8	7	0	0	0	0	7	6
091012	12:45:18	10012	Trial	IncongruentLeft	14	203	492	1	114	12:45:18	1674290	5	3	1	3	1	3	1	2	1	8	7	0	0	0	0	7	6
091012	12:45:18	10012	Trial	CongruentLeft	14	203	519	1	114	12:45:18	1675330	5	3	1	3	1	3	1	2	1	8	7	0	0	0	0	7	6
091012	12:45:18	10012	Trial	IncongruentLeft	14	203	543	1	114	12:45:18	1676343	5	3	1	3	1	3	1	2	1	8	7	0	0	0	0	7	6
091012	12:45:18	10012	Trial	IncongruentRight	14	205	536	1	114	12:45:18	1677342	5	3	1	3	1	3	1	2	1	8	7	0	0	0	0	7	6
091012	12:45:18	10012	Trial	CongruentRight	14	205	464	1	114	12:45:18	1678262	5	3	1	3	1	3	1	2	1	8	7	0	0	0	0	7	6
091012	12:45:18	10012	Trial	CongruentLeft	14	203	456	1	114	12:45:18	1679262	5	3	1	3	1	3	1	2	1	8	7	0	0	0	0	7	6
091012	12:45:18	10012	Trial	CongruentLeft	14	203	544	1	114	12:45:18	1680355	5	3	1	3	1	3	1	2	1	8	7	0	0	0	0	7	6
091012	12:45:18	10012	Trial	IncongruentRight	14	205	473	1	114	12:45:18	1681274	5	3	1	3	1	3	1	2	1	8	7	0	0	0	0	7	6
091012	12:45:18	10012	Trial	IncongruentLeft	14	203	497	1	114	12:45:18	1682300	5	3	1	3	1	3	1	2	1	8	7	0	0	0	0	7	6
091012	12:45:18	10012	Trial	IncongruentRight	14	205	490	1	114	12:45:18	1683287	5	3	1	3	1	3	1	2	1	8	7	0	0	0	0	7	6
091012	12:45:18	10012	Trial	CongruentRight	14	205	530	1	114	12:45:18	1684326	5	3	1	3	1	3	1	2	1	8	7	0	0	0	0	7	6
091012	12:45:18	10012	Trial	CongruentRight	14	205	666	1	114	12:45:18	1685473	5	3	1	3	1	3	1	2	1	8	7	0	0	0	0	7	6
091012	12:45:18	10012	Trial	IncongruentLeft	14	203	515	1	114	12:45:18	1686312	5	3	1	3	1	3	1	2	1	8	7	0	0	0	0	7	6
091012	12:45:18	10012	Trial	CongruentLeft	14	203	539	1	114	12:45:18	1687339	5	3	1	3	1	3	1	2	1	8	7	0	0	0	0	7	6
091012	12:45:18	10012	Trial	CongruentRight	14	205	452	1	114	12:45:18	1688258	5	3	1	3	1	3	1	2	1	8	7	0	0	0	0	7	6
091012	12:45:18	10012	Trial	CongruentLeft	14	203	508	1	114	12:45:18	1689311	5	3	1	3	1	3	1	2	1	8	7	0	0	0	0	7	6
091012	12:45:18	10012	Trial	IncongruentRight	14	205	516	1	114	12:45:18	1690311	5	3	1	3	1	3	1	2	1	8	7	0	0	0	0	7	6
091012	12:45:18	10012	Trial	CongruentRight	14	205	477	1	114	12:45:18	1691270	5	3	1	3	1	3	1	2	1	8	7	0	0	0	0	7	6
091012	12:45:18	10012	Trial	CongruentLeft	14	203	485	1	114	12:45:18	1692283	5	3	1	3	1	3	1	2	1	8	7	0	0	0	0	7	6
091012	12:45:18	10012	Trial	IncongruentLeft	14	203	446	1	114	12:45:18	1693243	5	3	1	3	1	3	1	2	1	8	7	0	0	0	0	7	6
091012	12:45:18	10012	Trial	IncongruentLeft	14	203	518	1	114	12:45:18	1694323	5	3	1	3	1	3	1	2	1	8	7	0	0	0	0	7	6
091012	12:45:18	10012	Trial	CongruentRight	14	205	494	1	114	12:45:18	1695296	5	3	1	3	1	3	1	2	1	8	7	0	0	0	0	7	6
091012	12:45:18	10012	Trial	IncongruentRight	14	205	471	1	114	12:45:18	1696268	5	3	1	3	1	3	1	2	1	8	7	0	0	0	0	7	6
091012	12:45:18	10012	Trial	CongruentLeft	14	203	479	1	114	12:45:18	1697282	5	3	1	3	1	3	1	2	1	8	7	0	0	0	0	7	6
091012	12:45:18	10012	Trial	IncongruentRight	14	205	488	1	114	12:45:18	1698281	5	3	1	3	1	3	1	2	1	8	7	0	0	0	0	7	6
091012	12:45:18	10012	Trial	CongruentRight	14	205	624	1	114	12:45:18	1699414	5	3	1	3	1	3	1	2	1	8	7	0	0	0	0	7	6
091012	12:45:18	10012	Trial	IncongruentLeft	14	203	536	1	114	12:45:18	1700334	5	3	1	3	1	3	1	2	1	8	7	0	0	0	0	7	6
091012	12:45:18	10012	Trial	CongruentLeft	14	203	657	1	114	12:45:18	1701453	5	3	1	3	1	3	1	2	1	8	7	0	0	0	0	7	6
091012	12:45:18	10012	Trial	CongruentRight	14	205	553	1	114	12:45:18	1702346	5	3	1	3	1	3	1	2	1	8	7	0	0	0	0	7	6
091012	12:45:18	10012	Trial	IncongruentLeft	14	203	609	1	114	12:45:18	1703399	5	3	1	3	1	3	1	2	1	8	7	0	0	0	0	7	6
091012	12:45:18	10012	Trial	CongruentRight	14	205	473	1	114	12:45:18	1704265	5	3	1	3	1	3	1	2	1	8	7	0	0	0	0	7	6
091012	12:45:18	10012	Trial	CongruentRight	14	205	450	1	114	12:45:18	1705238	5	3	1	3	1	3	1	2	1	8	7	0	0	0	0	7	6
091012	12:45:18	10012	Trial	IncongruentRight	14	205	491	1	114	12:45:18	1706278	5	3	1	3	1	3	1	2	1	8	7	0	0	0	0	7	6
091012	12:45:18	10012	Trial	CongruentLeft	14	203	371	1	114	12:45:18	1707157	5	3	1	3	1	3	1	2	1	8	7	0	0	0	0	7	6
091012	12:45:18	10012	Trial	IncongruentLeft	14	203	542	1	114	12:45:18	1708344	5	3	1	3	1	3	1	2	1	8	7	0	0	0	0	7	6
091012	12:45:18	10012	Trial	CongruentLeft	14	203	486	1	114	12:45:18	1709290	5	3	1	3	1	3	1	2	1	8	7	0	0	0	0	7	6
091012	12:45:18	10012	Trial	IncongruentRight	14	205	575	1	114	12:45:18	1710383	5	3	1	3	1	3	1	2	1	8	7	0	0	0	0	7	6
091012	12:45:18	10012	Trial	IncongruentLeft	14	203	647	1	114	12:45:18	1711449	5	3	1	3	1	3	1	2	1	8	7	0	0	0	0	7	6
091012	12:45:18	10012	Trial	CongruentRight	14	205	431	1	114	12:45:18	1712236	5	3	1	3	1	3	1	2	1	8	7	0	0	0	0	7	6
091012	12:45:18	10012	Trial	CongruentLeft	14	203	440	1	114	12:45:18	1713248	5	3	1	3	1	3	1	2	1	8	7	0	0	0	0	7	6
091012	12:45:18	10012	Trial	IncongruentLeft	14	203	592	1	114	12:45:18	1714395	5	3	1	3	1	3	1	2	1	8	7	0	0	0	0	7	6
091012	12:45:18	10012	Trial	CongruentLeft	14	203	630	1	114	12:45:18	1715434	5	3	1	3	1	3	1	2	1	8	7	0	0	0	0	7	6
091012	12:45:18	10012	Trial	IncongruentRight	14	205	513	1	114	12:45:18	1716314	5	3	1	3	1	3	1	2	1	8	7	0	0	0	0	7	6
091012	12:45:18	10012	Trial	CongruentRight	14	205	682	1	114	12:45:18	1717487	5	3	1	3	1	3	1	2	1	8	7	0	0	0	0	7	6
091012	12:45:18	10012	Trial	IncongruentLeft	14	203	610	1	114	12:45:18	1718406	5	3	1	3	1	3	1	2	1	8	7	0	0	0	0	7	6
091012	12:45:18	10012	Trial	CongruentLeft	14	203	634	1	114	12:45:18	1719433	5	3	1	3	1	3	1	2	1	8	7	0	0	0	0	7	6
091012	12:45:18	10012	Trial	IncongruentRight	14	205	578	1	114	12:45:18	1720379	5	3	1	3	1	3	1	2	1	8	7	0	0	0	0	7	6
091012	12:45:18	10012	Trial	IncongruentLeft	14	203	555	1	114	12:45:18	1721352	5	3	1	3	1	3	1	2	1	8	7	0	0	0	0	7	6
091012	12:45:18	10012	Trial	CongruentLeft	14	203	595	1	114	12:45:18	1722391	5	3	1	3	1	3	1	2	1	8	7	0	0	0	0	7	6
091012	12:45:18	10012	Trial	IncongruentLeft	14	0	737	0	114	12:45:18	1723524	5	3	1	3	1	3	1	2	1	8	7	0	0	0	0	7	6
091012	12:45:18	10012	Trial	CongruentRight	14	205	644	1	114	12:45:18	1724444	5	3	1	3	1	3	1	2	1	8	7	0	0	0	0	7	6
091012	12:45:18	10012	Trial	CongruentLeft	14	203	540	1	114	12:45:18	1725337	5	3	1	3	1	3	1	2	1	8	7	0	0	0	0	7	6
091012	12:45:18	10012	Trial	IncongruentRight	14	205	533	1	114	12:45:18	1726337	5	3	1	3	1	3	1	2	1	8	7	0	0	0	0	7	6
091012	12:45:18	10012	Trial	CongruentLeft	14	203	576	1	114	12:45:18	1727390	5	3	1	3	1	3	1	2	1	8	7	0	0	0	0	7	6
091012	12:45:18	10012	Trial	CongruentRight	14	205	616	1	114	12:45:18	1728429	5	3	1	3	1	3	1	2	1	8	7	0	0	0	0	7	6
091012	12:45:18	10012	Trial	IncongruentLeft	14	203	561	1	114	12:45:18	1729375	5	3	1	3	1	3	1	2	1	8	7	0	0	0	0	7	6
091012	12:45:18	10012	Trial750Eng	IncongruentRight750	15	0	487	0	114	12:45:18	1739105	5	3	1	3	1	3	1	2	1	8	7	0	0	0	0	7	6
091012	12:45:18	10012	Trial750Eng	IncongruentLeft750	15	0	487	0	114	12:45:18	1739865	5	3	1	3	1	3	1	2	1	8	7	0	0	0	0	7	6
091012	12:45:18	10012	Trial750Eng	CongruentRight750	15	0	487	0	114	12:45:18	1740624	5	3	1	3	1	3	1	2	1	8	7	0	0	0	0	7	6
091012	12:45:18	10012	Trial750Eng	IncongruentRight750	15	205	56	1	114	12:45:18	1740958	5	3	1	3	1	3	1	2	1	8	7	0	0	0	0	7	6
091012	12:45:18	10012	Trial750Eng	CongruentLeft750	15	0	487	0	114	12:45:18	1742130	5	3	1	3	1	3	1	2	1	8	7	0	0	0	0	7	6
091012	12:45:18	10012	Trial750Eng	CongruentRight750	15	203	38	0	114	12:45:18	1742450	5	3	1	3	1	3	1	2	1	8	7	0	0	0	0	7	6
091012	12:45:18	10012	Trial750Eng	IncongruentRight750	15	205	366	1	114	12:45:18	1743530	5	3	1	3	1	3	1	2	1	8	7	0	0	0	0	7	6
091012	12:45:18	10012	Trial750Eng	CongruentLeft750	15	203	388	1	114	12:45:18	1744303	5	3	1	3	1	3	1	2	1	8	7	0	0	0	0	7	6
091012	12:45:18	10012	Trial750Eng	IncongruentLeft750	15	0	487	0	114	12:45:18	1745143	5	3	1	3	1	3	1	2	1	8	7	0	0	0	0	7	6
091012	12:45:18	10012	Trial750Eng	IncongruentLeft750	15	0	487	0	114	12:45:18	1745902	5	3	1	3	1	3	1	2	1	8	7	0	0	0	0	7	6
091012	12:45:18	10012	Trial750Eng	CongruentRight750	15	203	26	0	114	12:45:18	1746209	5	3	1	3	1	3	1	2	1	8	7	0	0	0	0	7	6
091012	12:45:18	10012	Trial750Eng	IncongruentRight750	15	205	322	1	114	12:45:18	1747262	5	3	1	3	1	3	1	2	1	8	7	0	0	0	0	7	6
091012	12:45:18	10012	Trial750Eng	CongruentLeft750	15	0	487	0	114	12:45:18	1748168	5	3	1	3	1	3	1	2	1	8	7	0	0	0	0	7	6
091012	12:45:18	10012	Trial750Eng	CongruentRight750	15	205	464	1	114	12:45:18	1748901	5	3	1	3	1	3	1	2	1	8	7	0	0	0	0	7	6
091012	12:45:18	10012	Trial750Eng	IncongruentLeft750	15	203	472	1	114	12:45:18	1749674	5	3	1	3	1	3	1	2	1	8	7	0	0	0	0	7	6
091012	12:45:18	10012	Trial750Eng	IncongruentRight750	15	205	478	1	114	12:45:18	1750434	5	3	1	3	1	3	1	2	1	8	7	0	0	0	0	7	6
091012	12:45:18	10012	Trial750Eng	CongruentRight750	15	0	487	0	114	12:45:18	1751194	5	3	1	3	1	3	1	2	1	8	7	0	0	0	0	7	6
091012	12:45:18	10012	Trial750Eng	CongruentLeft750	15	205	127	0	114	12:45:18	1751593	5	3	1	3	1	3	1	2	1	8	7	0	0	0	0	7	6
091012	12:45:18	10012	Trial750Eng	CongruentRight750	15	0	487	0	114	12:45:18	1752700	5	3	1	3	1	3	1	2	1	8	7	0	0	0	0	7	6
091012	12:45:18	10012	Trial750Eng	IncongruentRight750	15	0	487	0	114	12:45:18	1753459	5	3	1	3	1	3	1	2	1	8	7	0	0	0	0	7	6
091012	12:45:18	10012	Trial750Eng	IncongruentLeft750	15	205	165	0	114	12:45:18	1753899	5	3	1	3	1	3	1	2	1	8	7	0	0	0	0	7	6
091012	12:45:18	10012	Trial750Eng	IncongruentLeft750	15	0	487	0	114	12:45:18	1754965	5	3	1	3	1	3	1	2	1	8	7	0	0	0	0	7	6
091012	12:45:18	10012	Trial750Eng	CongruentLeft750	15	0	487	0	114	12:45:18	1755725	5	3	1	3	1	3	1	2	1	8	7	0	0	0	0	7	6
091012	12:45:18	10012	Trial750Eng	CongruentRight750	15	0	487	0	114	12:45:18	1756485	5	3	1	3	1	3	1	2	1	8	7	0	0	0	0	7	6
091012	12:45:18	10012	Trial750Eng	IncongruentLeft750	15	0	487	0	114	12:45:18	1757245	5	3	1	3	1	3	1	2	1	8	7	0	0	0	0	7	6
091012	12:45:18	10012	Trial750Eng	IncongruentRight750	15	205	123	1	114	12:45:18	1757645	5	3	1	3	1	3	1	2	1	8	7	0	0	0	0	7	6
091012	12:45:18	10012	Trial750Eng	CongruentRight750	15	203	308	0	114	12:45:18	1758591	5	3	1	3	1	3	1	2	1	8	7	0	0	0	0	7	6
091012	12:45:18	10012	Trial750Eng	CongruentLeft750	15	0	487	0	114	12:45:18	1759510	5	3	1	3	1	3	1	2	1	8	7	0	0	0	0	7	6
091012	12:45:18	10012	Trial750Eng	IncongruentRight750	15	0	487	0	114	12:45:18	1760270	5	3	1	3	1	3	1	2	1	8	7	0	0	0	0	7	6
091012	12:45:18	10012	Trial750Eng	IncongruentLeft750	15	0	487	0	114	12:45:18	1761030	5	3	1	3	1	3	1	2	1	8	7	0	0	0	0	7	6
091012	12:45:18	10012	Trial750Eng	IncongruentRight750	15	0	487	0	114	12:45:18	1761789	5	3	1	3	1	3	1	2	1	8	7	0	0	0	0	7	6
091012	12:45:18	10012	Trial750Eng	CongruentRight750	15	0	487	0	114	12:45:18	1762549	5	3	1	3	1	3	1	2	1	8	7	0	0	0	0	7	6
091012	12:45:18	10012	Trial750Eng	IncongruentLeft750	15	0	487	0	114	12:45:18	1763309	5	3	1	3	1	3	1	2	1	8	7	0	0	0	0	7	6
091012	12:45:18	10012	Trial750Eng	CongruentLeft750	15	205	235	0	114	12:45:18	1763815	5	3	1	3	1	3	1	2	1	8	7	0	0	0	0	7	6
091012	12:45:18	10012	Trial750Eng	CongruentRight750	15	205	435	1	114	12:45:18	1764775	5	3	1	3	1	3	1	2	1	8	7	0	0	0	0	7	6
091012	12:45:18	10012	Trial750Eng	IncongruentLeft750	15	0	487	0	114	12:45:18	1765574	5	3	1	3	1	3	1	2	1	8	7	0	0	0	0	7	6
091012	12:45:18	10012	Trial750Eng	IncongruentRight750	15	0	487	0	114	12:45:18	1766334	5	3	1	3	1	3	1	2	1	8	7	0	0	0	0	7	6
091012	12:45:18	10012	Trial750Eng	IncongruentRight750	15	0	487	0	114	12:45:18	1767094	5	3	1	3	1	3	1	2	1	8	7	0	0	0	0	7	6
091012	12:45:18	10012	Trial750Eng	CongruentLeft750	15	0	487	0	114	12:45:18	1767854	5	3	1	3	1	3	1	2	1	8	7	0	0	0	0	7	6
091012	12:45:18	10012	Trial750Eng	IncongruentLeft750	15	0	487	0	114	12:45:18	1768613	5	3	1	3	1	3	1	2	1	8	7	0	0	0	0	7	6
091012	12:45:18	10012	Trial750Eng	CongruentRight750	15	203	3	0	114	12:45:18	1768894	5	3	1	3	1	3	1	2	1	8	7	0	0	0	0	7	6
091012	12:45:18	10012	Trial750Eng	CongruentLeft750	15	205	363	0	114	12:45:18	1770013	5	3	1	3	1	3	1	2	1	8	7	0	0	0	0	7	6
091012	12:45:18	10012	Trial750Eng	IncongruentRight750	15	0	487	0	114	12:45:18	1770879	5	3	1	3	1	3	1	2	1	8	7	0	0	0	0	7	6
091012	12:45:18	10012	Trial750Eng	CongruentRight750	15	205	9	1	114	12:45:18	1771160	5	3	1	3	1	3	1	2	1	8	7	0	0	0	0	7	6
091012	12:45:18	10012	Trial750Eng	IncongruentLeft750	15	0	487	0	114	12:45:18	1772385	5	3	1	3	1	3	1	2	1	8	7	0	0	0	0	7	6
091012	12:45:18	10012	Trial750Eng	CongruentLeft750	15	0	487	0	114	12:45:18	1773145	5	3	1	3	1	3	1	2	1	8	7	0	0	0	0	7	6
091012	12:45:18	10012	Trial750Eng	IncongruentLeft750	15	0	487	0	114	12:45:18	1773905	5	3	1	3	1	3	1	2	1	8	7	0	0	0	0	7	6
091012	12:45:18	10012	Trial750Eng	IncongruentRight750	15	203	151	0	114	12:45:18	1774331	5	3	1	3	1	3	1	2	1	8	7	0	0	0	0	7	6
091012	12:45:18	10012	Trial750Eng	CongruentRight750	15	0	487	0	114	12:45:18	1775411	5	3	1	3	1	3	1	2	1	8	7	0	0	0	0	7	6
091012	12:45:18	10012	Trial750Eng	CongruentLeft750	15	0	487	0	114	12:45:18	1776170	5	3	1	3	1	3	1	2	1	8	7	0	0	0	0	7	6
091012	12:45:18	10012	Trial750Eng	CongruentLeft750	15	0	487	0	114	12:45:18	1776930	5	3	1	3	1	3	1	2	1	8	7	0	0	0	0	7	6
091012	12:45:18	10012	Trial750Eng	IncongruentRight750	15	205	406	1	114	12:45:18	1777610	5	3	1	3	1	3	1	2	1	8	7	0	0	0	0	7	6
091012	12:45:18	10012	Trial750Eng	IncongruentLeft750	15	0	487	0	114	12:45:18	1778436	5	3	1	3	1	3	1	2	1	8	7	0	0	0	0	7	6
091012	12:45:18	10012	Trial750Eng	IncongruentRight750	15	0	487	0	114	12:45:18	1779196	5	3	1	3	1	3	1	2	1	8	7	0	0	0	0	7	6
091012	12:45:18	10012	Trial750Eng	CongruentRight750	15	0	487	0	114	12:45:18	1779956	5	3	1	3	1	3	1	2	1	8	7	0	0	0	0	7	6
091012	12:45:18	10012	Trial750Eng	CongruentRight750	15	0	487	0	114	12:45:18	1780715	5	3	1	3	1	3	1	2	1	8	7	0	0	0	0	7	6
091012	12:45:18	10012	Trial750Eng	IncongruentLeft750	15	205	253	0	114	12:45:18	1781248	5	3	1	3	1	3	1	2	1	8	7	0	0	0	0	7	6
091012	12:45:18	10012	Trial750Eng	CongruentLeft750	15	0	487	0	114	12:45:18	1782221	5	3	1	3	1	3	1	2	1	8	7	0	0	0	0	7	6
091012	12:45:18	10012	Trial750Eng	CongruentRight750	15	0	487	0	114	12:45:18	1782981	5	3	1	3	1	3	1	2	1	8	7	0	0	0	0	7	6
091012	12:45:18	10012	Trial750Eng	CongruentLeft750	15	0	487	0	114	12:45:18	1783741	5	3	1	3	1	3	1	2	1	8	7	0	0	0	0	7	6
091012	12:45:18	10012	Trial750Eng	IncongruentRight750	15	205	379	1	114	12:45:18	1784394	5	3	1	3	1	3	1	2	1	8	7	0	0	0	0	7	6
091012	12:45:18	10012	Trial750Eng	CongruentRight750	15	0	487	0	114	12:45:18	1785247	5	3	1	3	1	3	1	2	1	8	7	0	0	0	0	7	6
091012	12:45:18	10012	Trial750Eng	CongruentLeft750	15	0	487	0	114	12:45:18	1786007	5	3	1	3	1	3	1	2	1	8	7	0	0	0	0	7	6
091012	12:45:18	10012	Trial750Eng	IncongruentLeft750	15	0	487	0	114	12:45:18	1786766	5	3	1	3	1	3	1	2	1	8	7	0	0	0	0	7	6
091012	12:45:18	10012	Trial750Eng	IncongruentLeft750	15	203	41	1	114	12:45:18	1787086	5	3	1	3	1	3	1	2	1	8	7	0	0	0	0	7	6
091012	12:45:18	10012	Trial750Eng	CongruentRight750	15	205	466	1	114	12:45:18	1788273	5	3	1	3	1	3	1	2	1	8	7	0	0	0	0	7	6
091012	12:45:18	10012	Trial750Eng	IncongruentRight750	15	0	487	0	114	12:45:18	1789032	5	3	1	3	1	3	1	2	1	8	7	0	0	0	0	7	6
091012	12:45:18	10012	Trial750Eng	CongruentLeft750	15	0	487	0	114	12:45:18	1789792	5	3	1	3	1	3	1	2	1	8	7	0	0	0	0	7	6
091012	12:45:18	10012	Trial750Eng	IncongruentRight750	15	0	487	0	114	12:45:18	1790551	5	3	1	3	1	3	1	2	1	8	7	0	0	0	0	7	6
091012	12:45:18	10012	Trial750Eng	CongruentRight750	15	0	487	0	114	12:45:18	1791311	5	3	1	3	1	3	1	2	1	8	7	0	0	0	0	7	6
091012	12:45:18	10012	Trial750Eng	IncongruentLeft750	15	0	487	0	114	12:45:18	1792071	5	3	1	3	1	3	1	2	1	8	7	0	0	0	0	7	6
091012	12:45:18	10012	Trial750Eng	CongruentLeft750	15	0	487	0	114	12:45:18	1792831	5	3	1	3	1	3	1	2	1	8	7	0	0	0	0	7	6
091012	12:45:18	10012	Trial750Eng	CongruentRight750	15	0	487	0	114	12:45:18	1793590	5	3	1	3	1	3	1	2	1	8	7	0	0	0	0	7	6
091012	12:45:18	10012	Trial750Eng	IncongruentLeft750	15	0	487	0	114	12:45:18	1794350	5	3	1	3	1	3	1	2	1	8	7	0	0	0	0	7	6
091012	12:45:18	10012	Trial750Eng	CongruentRight750	15	0	487	0	114	12:45:18	1795110	5	3	1	3	1	3	1	2	1	8	7	0	0	0	0	7	6
091012	12:45:18	10012	Trial750Eng	CongruentRight750	15	0	487	0	114	12:45:18	1795869	5	3	1	3	1	3	1	2	1	8	7	0	0	0	0	7	6
091012	12:45:18	10012	Trial750Eng	IncongruentRight750	15	0	487	0	114	12:45:18	1796629	5	3	1	3	1	3	1	2	1	8	7	0	0	0	0	7	6
091012	12:45:18	10012	Trial750Eng	CongruentLeft750	15	0	487	0	114	12:45:18	1797389	5	3	1	3	1	3	1	2	1	8	7	0	0	0	0	7	6
091012	12:45:18	10012	Trial750Eng	IncongruentLeft750	15	203	267	1	114	12:45:18	1797935	5	3	1	3	1	3	1	2	1	8	7	0	0	0	0	7	6
091012	12:45:18	10012	Trial750Eng	CongruentLeft750	15	205	419	0	114	12:45:18	1798841	5	3	1	3	1	3	1	2	1	8	7	0	0	0	0	7	6
091012	12:45:18	10012	Trial750Eng	IncongruentRight750	15	0	487	0	114	12:45:18	1799655	5	3	1	3	1	3	1	2	1	8	7	0	0	0	0	7	6
091012	12:45:18	10012	Trial750Eng	IncongruentLeft750	15	0	487	0	114	12:45:18	1800441	5	3	1	3	1	3	1	2	1	8	7	0	0	0	0	7	6
091012	12:45:18	10012	Trial750Eng	CongruentRight750	15	0	487	0	114	12:45:18	1801201	5	3	1	3	1	3	1	2	1	8	7	0	0	0	0	7	6
091012	12:45:18	10012	Trial750Eng	CongruentLeft750	15	0	487	0	114	12:45:18	1801960	5	3	1	3	1	3	1	2	1	8	7	0	0	0	0	7	6
091012	12:45:18	10012	Trial750Eng	IncongruentLeft750	15	205	335	0	114	12:45:18	1802573	5	3	1	3	1	3	1	2	1	8	7	0	0	0	0	7	6
091012	12:45:18	10012	Trial750Eng	CongruentLeft750	15	205	456	0	114	12:45:18	1803453	5	3	1	3	1	3	1	2	1	8	7	0	0	0	0	7	6
091012	12:45:18	10012	Trial750Eng	IncongruentRight750	15	0	487	0	114	12:45:18	1804226	5	3	1	3	1	3	1	2	1	8	7	0	0	0	0	7	6
091012	12:45:18	10012	Trial750Eng	CongruentRight750	15	0	487	0	114	12:45:18	1804986	5	3	1	3	1	3	1	2	1	8	7	0	0	0	0	7	6
091012	12:45:18	10012	Trial750Eng	IncongruentLeft750	15	0	487	0	114	12:45:18	1805745	5	3	1	3	1	3	1	2	1	8	7	0	0	0	0	7	6
091012	12:45:18	10012	Trial750Eng	CongruentLeft750	15	0	487	0	114	12:45:18	1806505	5	3	1	3	1	3	1	2	1	8	7	0	0	0	0	7	6
091012	12:45:18	10012	Trial750Eng	IncongruentRight750	15	0	487	0	114	12:45:18	1807265	5	3	1	3	1	3	1	2	1	8	7	0	0	0	0	7	6
091012	12:45:18	10012	Trial750Eng	IncongruentLeft750	15	0	487	0	114	12:45:18	1808025	5	3	1	3	1	3	1	2	1	8	7	0	0	0	0	7	6
091012	12:45:18	10012	Trial750Eng	CongruentLeft750	15	205	383	0	114	12:45:18	1808678	5	3	1	3	1	3	1	2	1	8	7	0	0	0	0	7	6
091012	12:45:18	10012	Trial750Eng	IncongruentLeft750	15	0	487	0	114	12:45:18	1809531	5	3	1	3	1	3	1	2	1	8	7	0	0	0	0	7	6
091012	12:45:18	10012	Trial750Eng	CongruentRight750	15	0	487	0	114	12:45:18	1810290	5	3	1	3	1	3	1	2	1	8	7	0	0	0	0	7	6
091012	12:45:18	10012	Trial750Eng	CongruentLeft750	15	0	487	0	114	12:45:18	1811050	5	3	1	3	1	3	1	2	1	8	7	0	0	0	0	7	6
091012	12:45:18	10012	Trial750Eng	IncongruentRight750	15	205	110	1	114	12:45:18	1811437	5	3	1	3	1	3	1	2	1	8	7	0	0	0	0	7	6
091012	12:45:18	10012	Trial750Eng	CongruentLeft750	15	203	262	1	114	12:45:18	1812343	5	3	1	3	1	3	1	2	1	8	7	0	0	0	0	7	6
091012	12:45:18	10012	Trial750Eng	CongruentRight750	15	205	299	1	114	12:45:18	1813129	5	3	1	3	1	3	1	2	1	8	7	0	0	0	0	7	6
091012	12:45:18	10012	Trial750Eng	IncongruentLeft750	15	203	353	1	114	12:45:18	1813929	5	3	1	3	1	3	1	2	1	8	7	0	0	0	0	7	6
091012	12:45:18	10012	WordsAbsEng3mo	PAbsEng3mo1	16	Abs1	2934	0	114	12:45:18	1825511	5	3	1	3	1	3	1	2	1	8	7	0	0	0	0	7	6
091012	12:45:18	10012	WordsAbsEng3mo	AbsEng3mo1	16	Abs1	2202	0	114	12:45:18	1827750	5	3	1	3	1	3	1	2	1	8	7	1	0	0	0	7	6
091012	12:45:18	10012	WordsAbsEng3mo	AbsEng3mo2	16	Abs1	2827	0	114	12:45:18	1830616	5	3	1	3	1	3	1	2	1	8	7	2	0	0	0	7	6
091012	12:45:18	10012	WordsAbsEng3mo	AbsEng3mo3	16	Abs1	7233	0	114	12:45:18	1837893	5	3	1	3	1	3	1	2	1	8	7	3	0	0	0	7	6
091012	12:45:18	10012	Trial2BackEngS	NS	17	0	1000	1	114	12:45:18	1877397	5	3	1	3	1	3	1	2	1	8	7	3	0	0	0	7	6
091012	12:45:18	10012	Trial2BackEngS	NS	17	0	1000	1	114	12:45:18	1878917	5	3	1	3	1	3	1	2	1	8	7	3	0	0	0	7	6
091012	12:45:18	10012	Trial2BackEngS	NS	17	0	1000	1	114	12:45:18	1880436	5	3	1	3	1	3	1	2	1	8	7	3	0	0	0	7	6
091012	12:45:18	10012	Trial2BackEngS	YS	17	57	486	1	114	12:45:18	1881449	5	3	1	3	1	3	1	2	1	8	7	3	0	0	0	7	6
091012	12:45:18	10012	Trial2BackEngS	NS	17	0	1000	1	114	12:45:18	1883462	5	3	1	3	1	3	1	2	1	8	7	3	0	0	0	7	6
091012	12:45:18	10012	Trial2BackEngS	NS	17	0	1000	1	114	12:45:18	1884981	5	3	1	3	1	3	1	2	1	8	7	3	0	0	0	7	6
091012	12:45:18	10012	Trial2BackEngS	NS	17	0	1000	1	114	12:45:18	1886500	5	3	1	3	1	3	1	2	1	8	7	3	0	0	0	7	6
091012	12:45:18	10012	Trial2BackEngS	NS	17	0	1000	1	114	12:45:18	1888020	5	3	1	3	1	3	1	2	1	8	7	3	0	0	0	7	6
091012	12:45:18	10012	Trial2BackEngS	YS	17	0	1000	0	114	12:45:18	1889539	5	3	1	3	1	3	1	2	1	8	7	3	0	0	0	7	6
091012	12:45:18	10012	Trial2BackEngS	NS	17	0	1000	1	114	12:45:18	1891059	5	3	1	3	1	3	1	2	1	8	7	3	0	0	0	7	6
091012	12:45:18	10012	Trial2BackEngS	NS	17	0	1000	1	114	12:45:18	1892578	5	3	1	3	1	3	1	2	1	8	7	3	0	0	0	7	6
091012	12:45:18	10012	Trial2BackEngS	YS	17	0	1000	0	114	12:45:18	1894097	5	3	1	3	1	3	1	2	1	8	7	3	0	0	0	7	6
091012	12:45:18	10012	Trial2BackEngS	NS	17	0	1000	1	114	12:45:18	1895617	5	3	1	3	1	3	1	2	1	8	7	3	0	0	0	7	6
091012	12:45:18	10012	Trial2BackEngS	NS	17	0	1000	1	114	12:45:18	1897136	5	3	1	3	1	3	1	2	1	8	7	3	0	0	0	7	6
091012	12:45:18	10012	Trial2BackEngS	NS	17	0	1000	1	114	12:45:18	1898656	5	3	1	3	1	3	1	2	1	8	7	3	0	0	0	7	6
091012	12:45:18	10012	Trial2BackEngS	YS	17	57	795	1	114	12:45:18	1899975	5	3	1	3	1	3	1	2	1	8	7	3	0	0	0	7	6
091012	12:45:18	10012	Trial2BackEngS	NS	17	0	1000	1	114	12:45:18	1901681	5	3	1	3	1	3	1	2	1	8	7	3	0	0	0	7	6
091012	12:45:18	10012	Trial2BackEngS	NS	17	0	1000	1	114	12:45:18	1903200	5	3	1	3	1	3	1	2	1	8	7	3	0	0	0	7	6
091012	12:45:18	10012	Trial2BackEngS	NS	17	0	1000	1	114	12:45:18	1904720	5	3	1	3	1	3	1	2	1	8	7	3	0	0	0	7	6
091012	12:45:18	10012	Trial2BackEngS	NS	17	0	1000	1	114	12:45:18	1906239	5	3	1	3	1	3	1	2	1	8	7	3	0	0	0	7	6
091012	12:45:18	10012	Trial2BackEngS	YS	17	57	571	1	114	12:45:18	1907332	5	3	1	3	1	3	1	2	1	8	7	3	0	0	0	7	6
091012	12:45:18	10012	Trial2BackEngS	NS	17	0	1000	1	114	12:45:18	1909265	5	3	1	3	1	3	1	2	1	8	7	3	0	0	0	7	6
091012	12:45:18	10012	Trial2BackEngS	NS	17	0	1000	1	114	12:45:18	1910784	5	3	1	3	1	3	1	2	1	8	7	3	0	0	0	7	6
091012	12:45:18	10012	Trial2BackEngS	NS	17	0	1000	1	114	12:45:18	1912303	5	3	1	3	1	3	1	2	1	8	7	3	0	0	0	7	6
091012	12:45:18	10012	Trial2BackEngS	NS	17	0	1000	1	114	12:45:18	1913823	5	3	1	3	1	3	1	2	1	8	7	3	0	0	0	7	6
091012	12:45:18	10012	Trial2BackEngS	NS	17	0	1000	1	114	12:45:18	1915342	5	3	1	3	1	3	1	2	1	8	7	3	0	0	0	7	6
091012	12:45:18	10012	Trial2BackEngS	NS	17	0	1000	1	114	12:45:18	1916862	5	3	1	3	1	3	1	2	1	8	7	3	0	0	0	7	6
091012	12:45:18	10012	Trial2BackEngS	NS	17	0	1000	1	114	12:45:18	1918381	5	3	1	3	1	3	1	2	1	8	7	3	0	0	0	7	6
091012	12:45:18	10012	Trial2BackEngS	NS	17	0	1000	1	114	12:45:18	1919900	5	3	1	3	1	3	1	2	1	8	7	3	0	0	0	7	6
091012	12:45:18	10012	Trial2BackEngS	NS	17	0	1000	1	114	12:45:18	1921420	5	3	1	3	1	3	1	2	1	8	7	3	0	0	0	7	6
091012	12:45:18	10012	Trial2BackEngS	NS	17	0	1000	1	114	12:45:18	1922939	5	3	1	3	1	3	1	2	1	8	7	3	0	0	0	7	6
091012	12:45:18	10012	Trial2BackEngS	YS	17	0	1000	0	114	12:45:18	1924459	5	3	1	3	1	3	1	2	1	8	7	3	0	0	0	7	6
091012	12:45:18	10012	Trial2BackEngS	NS	17	0	1000	1	114	12:45:18	1925978	5	3	1	3	1	3	1	2	1	8	7	3	0	0	0	7	6
091012	12:45:18	10012	Trial2BackEngS	NS	17	0	1000	1	114	12:45:18	1927497	5	3	1	3	1	3	1	2	1	8	7	3	0	0	0	7	6
091012	12:45:18	10012	Trial2BackEngS	NS	17	0	1000	1	114	12:45:18	1929017	5	3	1	3	1	3	1	2	1	8	7	3	0	0	0	7	6
091012	12:45:18	10012	Trial2BackEngS	YS	17	57	801	1	114	12:45:18	1930350	5	3	1	3	1	3	1	2	1	8	7	3	0	0	0	7	6
091012	12:45:18	10012	Trial2BackEngS	NS	17	0	1000	1	114	12:45:18	1932042	5	3	1	3	1	3	1	2	1	8	7	3	0	0	0	7	6
091012	12:45:18	10012	Trial2BackEngS	NS	17	0	1000	1	114	12:45:18	1933562	5	3	1	3	1	3	1	2	1	8	7	3	0	0	0	7	6
091012	12:45:18	10012	Trial2BackEngS	NS	17	0	1000	1	114	12:45:18	1935081	5	3	1	3	1	3	1	2	1	8	7	3	0	0	0	7	6
091012	12:45:18	10012	Trial2BackEngS	NS	17	0	1000	1	114	12:45:18	1936601	5	3	1	3	1	3	1	2	1	8	7	3	0	0	0	7	6
091012	12:45:18	10012	Trial2BackEngS	NS	17	0	1000	1	114	12:45:18	1938120	5	3	1	3	1	3	1	2	1	8	7	3	0	0	0	7	6
091012	12:45:18	10012	Trial2BackEngS	NS	17	0	1000	1	114	12:45:18	1939639	5	3	1	3	1	3	1	2	1	8	7	3	0	0	0	7	6
091012	12:45:18	10012	Trial2BackEngS	NS	17	0	1000	1	114	12:45:18	1941159	5	3	1	3	1	3	1	2	1	8	7	3	0	0	0	7	6
091012	12:45:18	10012	Trial2BackEngS	YS	17	57	547	1	114	12:45:18	1942238	5	3	1	3	1	3	1	2	1	8	7	3	0	0	0	7	6
091012	12:45:18	10012	Trial2BackEngS	NS	17	0	1000	1	114	12:45:18	1944184	5	3	1	3	1	3	1	2	1	8	7	3	0	0	0	7	6
091012	12:45:18	10012	Trial2BackEngS	NS	17	0	1000	1	114	12:45:18	1945704	5	3	1	3	1	3	1	2	1	8	7	3	0	0	0	7	6
091012	12:45:18	10012	Trial2BackEngS	NS	17	0	1000	1	114	12:45:18	1947223	5	3	1	3	1	3	1	2	1	8	7	3	0	0	0	7	6
091012	12:45:18	10012	Trial2BackEngS	NS	17	0	1000	1	114	12:45:18	1948742	5	3	1	3	1	3	1	2	1	8	7	3	0	0	0	7	6
091012	12:45:18	10012	Trial2BackEngS	YS	17	57	499	1	114	12:45:18	1949769	5	3	1	3	1	3	1	2	1	8	7	3	0	0	0	7	6
091012	12:45:18	10012	Trial2BackEngS	NS	17	0	1000	1	114	12:45:18	1951768	5	3	1	3	1	3	1	2	1	8	7	3	0	0	0	7	6
091012	12:45:18	10012	Trial2BackEngS	NS	17	0	1000	1	114	12:45:18	1953287	5	3	1	3	1	3	1	2	1	8	7	3	0	0	0	7	6
091012	12:45:18	10012	Trial2BackEngS	NS	17	0	1000	1	114	12:45:18	1954807	5	3	1	3	1	3	1	2	1	8	7	3	0	0	0	7	6
091012	12:45:18	10012	Trial2BackEngS	NS	17	0	1000	1	114	12:45:18	1956326	5	3	1	3	1	3	1	2	1	8	7	3	0	0	0	7	6
091012	12:45:18	10012	Trial2BackEngS	NS	17	0	1000	1	114	12:45:18	1957846	5	3	1	3	1	3	1	2	1	8	7	3	0	0	0	7	6
091012	12:45:18	10012	Trial2BackEngS	NS	17	0	1000	1	114	12:45:18	1959365	5	3	1	3	1	3	1	2	1	8	7	3	0	0	0	7	6
091012	12:45:18	10012	Trial2BackEngS	YS	17	57	548	1	114	12:45:18	1960444	5	3	1	3	1	3	1	2	1	8	7	3	0	0	0	7	6
091012	12:45:18	10012	Trial2BackEngS	NS	17	0	1000	1	114	12:45:18	1962390	5	3	1	3	1	3	1	2	1	8	7	3	0	0	0	7	6
091012	12:45:18	10012	Trial2BackEngS	NS	17	0	1000	1	114	12:45:18	1963910	5	3	1	3	1	3	1	2	1	8	7	3	0	0	0	7	6
091012	12:45:18	10012	Trial2BackEngS	NS	17	0	1000	1	114	12:45:18	1965429	5	3	1	3	1	3	1	2	1	8	7	3	0	0	0	7	6
091012	12:45:18	10012	Trial2BackEngS	NS	17	0	1000	1	114	12:45:18	1966949	5	3	1	3	1	3	1	2	1	8	7	3	0	0	0	7	6
091012	12:45:18	10012	Trial2BackEngS	NS	17	0	1000	1	114	12:45:18	1968468	5	3	1	3	1	3	1	2	1	8	7	3	0	0	0	7	6
091012	12:45:18	10012	Trial2BackEngS	NS	17	0	1000	1	114	12:45:18	1969987	5	3	1	3	1	3	1	2	1	8	7	3	0	0	0	7	6
091012	12:45:18	10012	Trial2BackEngS	NS	17	0	1000	1	114	12:45:18	1971507	5	3	1	3	1	3	1	2	1	8	7	3	0	0	0	7	6
091012	12:45:18	10012	Trial2BackEngS	YS	17	0	1000	0	114	12:45:18	1973026	5	3	1	3	1	3	1	2	1	8	7	3	0	0	0	7	6
091012	12:45:18	10012	Trial2BackEngS	NS	17	0	1000	1	114	12:45:18	1974546	5	3	1	3	1	3	1	2	1	8	7	3	0	0	0	7	6
091012	12:45:18	10012	Trial2BackEngS	NS	17	0	1000	1	114	12:45:18	1976065	5	3	1	3	1	3	1	2	1	8	7	3	0	0	0	7	6
091012	12:45:18	10012	Trial2BackEngS	NS	17	0	1000	1	114	12:45:18	1977584	5	3	1	3	1	3	1	2	1	8	7	3	0	0	0	7	6
091012	12:45:18	10012	Trial2BackEngS	NS	17	0	1000	1	114	12:45:18	1979104	5	3	1	3	1	3	1	2	1	8	7	3	0	0	0	7	6
091012	12:45:18	10012	Trial2BackEngS	YS	17	0	1000	0	114	12:45:18	1980623	5	3	1	3	1	3	1	2	1	8	7	3	0	0	0	7	6
091012	12:45:18	10012	Trial2BackEngS	NS	17	0	1000	1	114	12:45:18	1982143	5	3	1	3	1	3	1	2	1	8	7	3	0	0	0	7	6
091012	12:45:18	10012	Trial2BackEngS	NS	17	0	1000	1	114	12:45:18	1983662	5	3	1	3	1	3	1	2	1	8	7	3	0	0	0	7	6
091012	12:45:18	10012	Trial2BackEngS	YS	17	57	939	1	114	12:45:18	1985128	5	3	1	3	1	3	1	2	1	8	7	3	0	0	0	7	6
091012	12:45:18	10012	Trial2BackEngS	NS	17	0	1000	1	114	12:45:18	1986688	5	3	1	3	1	3	1	2	1	8	7	3	0	0	0	7	6
091012	12:45:18	10012	Trial2BackEngS	NS	17	0	1000	1	114	12:45:18	1988207	5	3	1	3	1	3	1	2	1	8	7	3	0	0	0	7	6
091012	12:45:18	10012	Trial2BackEngS	NS	17	0	1000	1	114	12:45:18	1989726	5	3	1	3	1	3	1	2	1	8	7	3	0	0	0	7	6
091012	12:45:18	10012	Trial2BackEngS	NS	17	0	1000	1	114	12:45:18	1991246	5	3	1	3	1	3	1	2	1	8	7	3	0	0	0	7	6
091012	12:45:18	10012	Trial2BackEngS	NS	17	0	1000	1	114	12:45:18	1992765	5	3	1	3	1	3	1	2	1	8	7	3	0	0	0	7	6
091012	12:45:18	10012	Trial2BackEngS	NS	17	0	1000	1	114	12:45:18	1994285	5	3	1	3	1	3	1	2	1	8	7	3	0	0	0	7	6
091012	12:45:18	10012	Trial2BackEngS	YS	17	57	508	1	114	12:45:18	1995324	5	3	1	3	1	3	1	2	1	8	7	3	0	0	0	7	6
091012	12:45:18	10012	Trial2BackEngS	NS	17	0	1000	1	114	12:45:18	1997310	5	3	1	3	1	3	1	2	1	8	7	3	0	0	0	7	6
091012	12:45:18	10012	Trial2BackEngS	NS	17	0	1000	1	114	12:45:18	1998830	5	3	1	3	1	3	1	2	1	8	7	3	0	0	0	7	6
091012	12:45:18	10012	Trial2BackEngS	NS	17	0	1000	1	114	12:45:18	2000349	5	3	1	3	1	3	1	2	1	8	7	3	0	0	0	7	6
091012	12:45:18	10012	Trial2BackEngS	NS	17	0	1000	1	114	12:45:18	2001868	5	3	1	3	1	3	1	2	1	8	7	3	0	0	0	7	6
091012	12:45:18	10012	Trial2BackEngS	YS	17	57	685	1	114	12:45:18	2003081	5	3	1	3	1	3	1	2	1	8	7	3	0	0	0	7	6
091012	12:45:18	10012	Trial2BackEngS	NS	17	0	1000	1	114	12:45:18	2004894	5	3	1	3	1	3	1	2	1	8	7	3	0	0	0	7	6
091012	12:45:18	10012	Trial2BackEngS	NS	17	0	1000	1	114	12:45:18	2006413	5	3	1	3	1	3	1	2	1	8	7	3	0	0	0	7	6
091012	12:45:18	10012	Trial2BackEngS	NS	17	0	1000	1	114	12:45:18	2007933	5	3	1	3	1	3	1	2	1	8	7	3	0	0	0	7	6
091012	12:45:18	10012	Trial2BackEngS	NS	17	57	924	0	114	12:45:18	2009385	5	3	1	3	1	3	1	2	1	8	7	3	0	0	0	7	6
091012	12:45:18	10012	Trial2BackEngS	YS	17	0	1000	0	114	12:45:18	2010958	5	3	1	3	1	3	1	2	1	8	7	3	0	0	0	7	6
091012	12:45:18	10012	Trial2BackEngS	NS	17	0	1000	1	114	12:45:18	2012477	5	3	1	3	1	3	1	2	1	8	7	3	0	0	0	7	6
091012	12:45:18	10012	Trial2BackEngS	NS	17	0	1000	1	114	12:45:18	2013997	5	3	1	3	1	3	1	2	1	8	7	3	0	0	0	7	6
091012	12:45:18	10012	Trial2BackEngS	YS	17	0	1000	0	114	12:45:18	2015516	5	3	1	3	1	3	1	2	1	8	7	3	0	0	0	7	6
091012	12:45:18	10012	Trial2BackEngS	NS	17	0	1000	1	114	12:45:18	2017036	5	3	1	3	1	3	1	2	1	8	7	3	0	0	0	7	6
091012	12:45:18	10012	Trial2BackEngS	NS	17	0	1000	1	114	12:45:18	2018555	5	3	1	3	1	3	1	2	1	8	7	3	0	0	0	7	6
091012	12:45:18	10012	Trial2BackEngS	NS	17	0	1000	1	114	12:45:18	2020074	5	3	1	3	1	3	1	2	1	8	7	3	0	0	0	7	6
091012	12:45:18	10012	Trial2BackEngS	NS	17	0	1000	1	114	12:45:18	2021594	5	3	1	3	1	3	1	2	1	8	7	3	0	0	0	7	6
091012	12:45:18	10012	Trial2BackEngS	NS	17	0	1000	1	114	12:45:18	2023113	5	3	1	3	1	3	1	2	1	8	7	3	0	0	0	7	6
091012	12:45:18	10012	Trial2BackEngS	NS	17	0	1000	1	114	12:45:18	2024633	5	3	1	3	1	3	1	2	1	8	7	3	0	0	0	7	6
091012	12:45:18	10012	Trial2BackEngS	NS	17	0	1000	1	114	12:45:18	2026152	5	3	1	3	1	3	1	2	1	8	7	3	0	0	0	7	6
091012	12:45:18	10012	Trial2BackEngS	NS	17	0	1000	1	114	12:45:18	2027671	5	3	1	3	1	3	1	2	1	8	7	3	0	0	0	7	6
091012	12:45:18	10012	Trial2BackEngS	YS	17	0	1000	0	114	12:45:18	2029191	5	3	1	3	1	3	1	2	1	8	7	3	0	0	0	7	6
091012	12:45:18	10012	Trial2BackEngS	NS	17	0	1000	1	114	12:45:18	2030710	5	3	1	3	1	3	1	2	1	8	7	3	0	0	0	7	6
091012	12:45:18	10012	Trial2BackEngS	NS	17	0	1000	1	114	12:45:18	2032230	5	3	1	3	1	3	1	2	1	8	7	3	0	0	0	7	6
091012	12:45:18	10012	Trial2BackEngS	NS	17	0	1000	1	114	12:45:18	2033749	5	3	1	3	1	3	1	2	1	8	7	3	0	0	0	7	6
091012	12:45:18	10012	Trial2BackEngS	NS	17	0	1000	1	114	12:45:18	2035268	5	3	1	3	1	3	1	2	1	8	7	3	0	0	0	7	6
091012	12:45:18	10012	Trial2BackEngS	NS	17	0	1000	1	114	12:45:18	2036788	5	3	1	3	1	3	1	2	1	8	7	3	0	0	0	7	6
091012	12:45:18	10012	Trial2BackEngS	NS	17	0	1000	1	114	12:45:18	2038307	5	3	1	3	1	3	1	2	1	8	7	3	0	0	0	7	6
091012	12:45:18	10012	Trial2BackEngS	NS	17	0	1000	1	114	12:45:18	2039827	5	3	1	3	1	3	1	2	1	8	7	3	0	0	0	7	6
091012	12:45:18	10012	Trial2BackEngS	YS	17	0	1000	0	114	12:45:18	2041346	5	3	1	3	1	3	1	2	1	8	7	3	0	0	0	7	6
091012	12:45:18	10012	Trial2BackEngS	NS	17	0	1000	1	114	12:45:18	2042865	5	3	1	3	1	3	1	2	1	8	7	3	0	0	0	7	6
091012	12:45:18	10012	Trial2BackEngS	NS	17	0	1000	1	114	12:45:18	2044385	5	3	1	3	1	3	1	2	1	8	7	3	0	0	0	7	6
091012	12:45:18	10012	Trial2BackEngS	NS	17	0	1000	1	114	12:45:18	2045904	5	3	1	3	1	3	1	2	1	8	7	3	0	0	0	7	6
091012	12:45:18	10012	Trial2BackEngS	NS	17	0	1000	1	114	12:45:18	2047424	5	3	1	3	1	3	1	2	1	8	7	3	0	0	0	7	6
091012	12:45:18	10012	Trial2BackEngS	NS	17	0	1000	1	114	12:45:18	2048943	5	3	1	3	1	3	1	2	1	8	7	3	0	0	0	7	6
091012	12:45:18	10012	Trial2BackEngS	NS	17	0	1000	1	114	12:45:18	2050462	5	3	1	3	1	3	1	2	1	8	7	3	0	0	0	7	6
091012	12:45:18	10012	Trial2BackEngS	NS	17	0	1000	1	114	12:45:18	2051982	5	3	1	3	1	3	1	2	1	8	7	3	0	0	0	7	6
091012	12:45:18	10012	Trial2BackEngS	NS	17	0	1000	1	114	12:45:18	2053501	5	3	1	3	1	3	1	2	1	8	7	3	0	0	0	7	6
091012	12:45:18	10012	Trial2BackEngS	NS	17	0	1000	1	114	12:45:18	2055021	5	3	1	3	1	3	1	2	1	8	7	3	0	0	0	7	6
091012	12:45:18	10012	Trial2BackEngS	YS	17	57	507	1	114	12:45:18	2056060	5	3	1	3	1	3	1	2	1	8	7	3	0	0	0	7	6
091012	12:45:18	10012	Trial2BackEngS	NS	17	0	1000	1	114	12:45:18	2058046	5	3	1	3	1	3	1	2	1	8	7	3	0	0	0	7	6
091012	12:45:18	10012	ClockEng3mo	ClockEng3mo	19	Clock1	33308	0	114	12:45:18	2091460	5	3	1	3	1	3	1	2	1	8	7	3	1	0	0	7	6
091012	12:45:18	10012	ClockEng3mo	ClockEng3mo	19	Clock11	401	0	114	12:45:18	2091900	5	3	1	3	1	3	1	2	1	8	7	3	1	1	0	7	6
091012	12:45:18	10012	ClockEng3mo	ClockEng3mo	19	Clock111	522	0	114	12:45:18	2092459	5	3	1	3	1	3	1	2	1	8	7	3	1	1	1	7	6
091012	12:45:18	10012	ClockEng3mo	ClockEng3mo	19	Clockdone	698	0	114	12:45:18	2093192	5	3	1	3	1	3	1	2	1	8	7	3	1	1	1	7	6
091012	12:45:18	10012	FASEngVF3mo	StopEngVF3mo	20	16	8875	0	114	12:45:18	2189863	5	3	1	3	1	3	1	2	1	8	7	3	1	1	1	7	6
