date	time	subject	blockcode	trialcode	values.TaskNumber	response	latency	correct	values.Score	script.starttime	script.elapsedtime	values.ScoreS7	values.Word1	values.Word2	values.Word3	values.Word4	values.Word5	values.Word6	values.Word7	values.Word8	values.DigitSpanFwrd	values.DigitSpanBack	values.ScoreAbs	values.Contour	values.Numbers	values.Hands	values.corsiblockspanFwrd	values.corsiblockspanRev
072312	14:15:06	10027	Language	Language	0	English	3623	0	0	14:15:06	3710	0	0	0	0	0	0	0	0	0	0	0	0	0	0	0	0	0
072312	14:15:06	10027	Session	Session	0	Baseline	842	0	0	14:15:06	4630	0	0	0	0	0	0	0	0	0	0	0	0	0	0	0	0	0
072312	14:15:06	10027	HandEng	HandEng	0	Right	684872	0	0	14:15:06	689579	0	0	0	0	0	0	0	0	0	0	0	0	0	0	0	0	0
072312	14:15:06	10027	CubeEng	CubeEng	1	1Cube	40225	0	0	14:15:06	759683	0	0	0	0	0	0	0	0	0	0	0	0	0	0	0	0	0
072312	14:15:06	10027	pm.simpleEngRight	blank.simpleEng	2	0	2287	1	0	14:15:06	807891	0	0	0	0	0	0	0	0	0	0	0	0	0	0	0	0	0
072312	14:15:06	10027	pm.simpleEngRight	pm.simpleEng	2	57	540	0	0	14:15:06	808464	0	0	0	0	0	0	0	0	0	0	0	0	0	0	0	0	0
072312	14:15:06	10027	pm.simpleEngRight	blank.simpleEng	2	0	1887	1	0	14:15:06	810370	0	0	0	0	0	0	0	0	0	0	0	0	0	0	0	0	0
072312	14:15:06	10027	pm.simpleEngRight	pm.simpleEng	2	57	349	0	0	14:15:06	810756	0	0	0	0	0	0	0	0	0	0	0	0	0	0	0	0	0
072312	14:15:06	10027	pm.simpleEngRight	blank.simpleEng	2	0	2487	1	0	14:15:06	813275	0	0	0	0	0	0	0	0	0	0	0	0	0	0	0	0	0
072312	14:15:06	10027	pm.simpleEngRight	pm.simpleEng	2	57	276	0	0	14:15:06	813581	0	0	0	0	0	0	0	0	0	0	0	0	0	0	0	0	0
072312	14:15:06	10027	pm.simpleEngRight	blank.simpleEng	2	0	2187	1	0	14:15:06	815794	0	0	0	0	0	0	0	0	0	0	0	0	0	0	0	0	0
072312	14:15:06	10027	pm.simpleEngRight	pm.simpleEng	2	57	253	0	0	14:15:06	816087	0	0	0	0	0	0	0	0	0	0	0	0	0	0	0	0	0
072312	14:15:06	10027	pm.simpleEngRight	blank.simpleEng	2	0	2087	1	0	14:15:06	818193	0	0	0	0	0	0	0	0	0	0	0	0	0	0	0	0	0
072312	14:15:06	10027	pm.simpleEngRight	pm.simpleEng	2	57	413	0	0	14:15:06	818646	0	0	0	0	0	0	0	0	0	0	0	0	0	0	0	0	0
072312	14:15:06	10027	pm.simpleEngRight	blank.simpleEng	2	0	1487	1	0	14:15:06	820152	0	0	0	0	0	0	0	0	0	0	0	0	0	0	0	0	0
072312	14:15:06	10027	pm.simpleEngRight	pm.simpleEng	2	57	390	0	0	14:15:06	820579	0	0	0	0	0	0	0	0	0	0	0	0	0	0	0	0	0
072312	14:15:06	10027	pm.simpleEngRight	blank.simpleEng	2	0	1787	1	0	14:15:06	822391	0	0	0	0	0	0	0	0	0	0	0	0	0	0	0	0	0
072312	14:15:06	10027	pm.simpleEngRight	pm.simpleEng	2	57	263	0	0	14:15:06	822685	0	0	0	0	0	0	0	0	0	0	0	0	0	0	0	0	0
072312	14:15:06	10027	pm.simpleEngRight	blank.simpleEng	2	0	2387	1	0	14:15:06	825097	0	0	0	0	0	0	0	0	0	0	0	0	0	0	0	0	0
072312	14:15:06	10027	pm.simpleEngRight	pm.simpleEng	2	57	310	0	0	14:15:06	825443	0	0	0	0	0	0	0	0	0	0	0	0	0	0	0	0	0
072312	14:15:06	10027	pm.simpleEngRight	blank.simpleEng	2	0	1687	1	0	14:15:06	827163	0	0	0	0	0	0	0	0	0	0	0	0	0	0	0	0	0
072312	14:15:06	10027	pm.simpleEngRight	pm.simpleEng	2	57	323	0	0	14:15:06	827522	0	0	0	0	0	0	0	0	0	0	0	0	0	0	0	0	0
072312	14:15:06	10027	pm.simpleEngRight	blank.simpleEng	2	0	1987	1	0	14:15:06	829535	0	0	0	0	0	0	0	0	0	0	0	0	0	0	0	0	0
072312	14:15:06	10027	pm.simpleEngRight	pm.simpleEng	2	57	271	0	0	14:15:06	829841	0	0	0	0	0	0	0	0	0	0	0	0	0	0	0	0	0
072312	14:15:06	10027	pm.simpleEngRight	blank.simpleEng	2	0	1587	1	0	14:15:06	831454	0	0	0	0	0	0	0	0	0	0	0	0	0	0	0	0	0
072312	14:15:06	10027	pm.simpleEngRight	pm.simpleEng	2	57	256	0	0	14:15:06	831748	0	0	0	0	0	0	0	0	0	0	0	0	0	0	0	0	0
072312	14:15:06	10027	pm.simpleEngRight	blank.simpleEng	2	0	2387	1	0	14:15:06	834160	0	0	0	0	0	0	0	0	0	0	0	0	0	0	0	0	0
072312	14:15:06	10027	pm.simpleEngRight	pm.simpleEng	2	57	286	0	0	14:15:06	834480	0	0	0	0	0	0	0	0	0	0	0	0	0	0	0	0	0
072312	14:15:06	10027	pm.simpleEngRight	blank.simpleEng	2	0	1687	1	0	14:15:06	836199	0	0	0	0	0	0	0	0	0	0	0	0	0	0	0	0	0
072312	14:15:06	10027	pm.simpleEngRight	pm.simpleEng	2	57	279	0	0	14:15:06	836519	0	0	0	0	0	0	0	0	0	0	0	0	0	0	0	0	0
072312	14:15:06	10027	pm.simpleEngRight	blank.simpleEng	2	0	1787	1	0	14:15:06	838332	0	0	0	0	0	0	0	0	0	0	0	0	0	0	0	0	0
072312	14:15:06	10027	pm.simpleEngRight	pm.simpleEng	2	57	242	0	0	14:15:06	838612	0	0	0	0	0	0	0	0	0	0	0	0	0	0	0	0	0
072312	14:15:06	10027	pm.simpleEngRight	blank.simpleEng	2	0	1987	1	0	14:15:06	840637	0	0	0	0	0	0	0	0	0	0	0	0	0	0	0	0	0
072312	14:15:06	10027	pm.simpleEngRight	pm.simpleEng	2	57	257	0	0	14:15:06	840930	0	0	0	0	0	0	0	0	0	0	0	0	0	0	0	0	0
072312	14:15:06	10027	pm.simpleEngRight	blank.simpleEng	2	0	1487	1	0	14:15:06	842450	0	0	0	0	0	0	0	0	0	0	0	0	0	0	0	0	0
072312	14:15:06	10027	pm.simpleEngRight	pm.simpleEng	2	57	252	0	0	14:15:06	842743	0	0	0	0	0	0	0	0	0	0	0	0	0	0	0	0	0
072312	14:15:06	10027	pm.simpleEngRight	blank.simpleEng	2	0	2087	1	0	14:15:06	844862	0	0	0	0	0	0	0	0	0	0	0	0	0	0	0	0	0
072312	14:15:06	10027	pm.simpleEngRight	pm.simpleEng	2	57	272	0	0	14:15:06	845169	0	0	0	0	0	0	0	0	0	0	0	0	0	0	0	0	0
072312	14:15:06	10027	pm.simpleEngRight	blank.simpleEng	2	0	2487	1	0	14:15:06	847688	0	0	0	0	0	0	0	0	0	0	0	0	0	0	0	0	0
072312	14:15:06	10027	pm.simpleEngRight	pm.simpleEng	2	57	262	0	0	14:15:06	847981	0	0	0	0	0	0	0	0	0	0	0	0	0	0	0	0	0
072312	14:15:06	10027	pm.simpleEngRight	blank.simpleEng	2	0	1887	1	0	14:15:06	849900	0	0	0	0	0	0	0	0	0	0	0	0	0	0	0	0	0
072312	14:15:06	10027	pm.simpleEngRight	pm.simpleEng	2	57	289	0	0	14:15:06	850220	0	0	0	0	0	0	0	0	0	0	0	0	0	0	0	0	0
072312	14:15:06	10027	pm.simpleEngRight	blank.simpleEng	2	0	1587	1	0	14:15:06	851833	0	0	0	0	0	0	0	0	0	0	0	0	0	0	0	0	0
072312	14:15:06	10027	pm.simpleEngRight	pm.simpleEng	2	57	277	0	0	14:15:06	852153	0	0	0	0	0	0	0	0	0	0	0	0	0	0	0	0	0
072312	14:15:06	10027	pm.simpleEngRight	blank.simpleEng	2	0	2287	1	0	14:15:06	854472	0	0	0	0	0	0	0	0	0	0	0	0	0	0	0	0	0
072312	14:15:06	10027	pm.simpleEngRight	pm.simpleEng	2	57	262	0	0	14:15:06	854765	0	0	0	0	0	0	0	0	0	0	0	0	0	0	0	0	0
072312	14:15:06	10027	pm.simpleEngRight	blank.simpleEng	2	0	2187	1	0	14:15:06	856977	0	0	0	0	0	0	0	0	0	0	0	0	0	0	0	0	0
072312	14:15:06	10027	pm.simpleEngRight	pm.simpleEng	2	57	268	0	0	14:15:06	857284	0	0	0	0	0	0	0	0	0	0	0	0	0	0	0	0	0
072312	14:15:06	10027	pm.simpleEngRight	blank.simpleEng	2	0	1987	1	0	14:15:06	859296	0	0	0	0	0	0	0	0	0	0	0	0	0	0	0	0	0
072312	14:15:06	10027	pm.simpleEngRight	pm.simpleEng	2	57	269	0	0	14:15:06	859603	0	0	0	0	0	0	0	0	0	0	0	0	0	0	0	0	0
072312	14:15:06	10027	pm.simpleEngRight	blank.simpleEng	2	0	2087	1	0	14:15:06	861709	0	0	0	0	0	0	0	0	0	0	0	0	0	0	0	0	0
072312	14:15:06	10027	pm.simpleEngRight	pm.simpleEng	2	57	257	0	0	14:15:06	862002	0	0	0	0	0	0	0	0	0	0	0	0	0	0	0	0	0
072312	14:15:06	10027	pm.simpleEngRight	blank.simpleEng	2	0	1487	1	0	14:15:06	863508	0	0	0	0	0	0	0	0	0	0	0	0	0	0	0	0	0
072312	14:15:06	10027	pm.simpleEngRight	pm.simpleEng	2	57	233	0	0	14:15:06	863774	0	0	0	0	0	0	0	0	0	0	0	0	0	0	0	0	0
072312	14:15:06	10027	pm.simpleEngRight	blank.simpleEng	2	0	2187	1	0	14:15:06	865987	0	0	0	0	0	0	0	0	0	0	0	0	0	0	0	0	0
072312	14:15:06	10027	pm.simpleEngRight	pm.simpleEng	2	57	234	0	0	14:15:06	866253	0	0	0	0	0	0	0	0	0	0	0	0	0	0	0	0	0
072312	14:15:06	10027	pm.simpleEngRight	blank.simpleEng	2	0	2487	1	0	14:15:06	868759	0	0	0	0	0	0	0	0	0	0	0	0	0	0	0	0	0
072312	14:15:06	10027	pm.simpleEngRight	pm.simpleEng	2	57	262	0	0	14:15:06	869052	0	0	0	0	0	0	0	0	0	0	0	0	0	0	0	0	0
072312	14:15:06	10027	pm.simpleEngRight	blank.simpleEng	2	0	1587	1	0	14:15:06	870665	0	0	0	0	0	0	0	0	0	0	0	0	0	0	0	0	0
072312	14:15:06	10027	pm.simpleEngRight	pm.simpleEng	2	57	276	0	0	14:15:06	870972	0	0	0	0	0	0	0	0	0	0	0	0	0	0	0	0	0
072312	14:15:06	10027	pm.simpleEngRight	blank.simpleEng	2	0	1687	1	0	14:15:06	872691	0	0	0	0	0	0	0	0	0	0	0	0	0	0	0	0	0
072312	14:15:06	10027	pm.simpleEngRight	pm.simpleEng	2	57	250	0	0	14:15:06	872984	0	0	0	0	0	0	0	0	0	0	0	0	0	0	0	0	0
072312	14:15:06	10027	pm.simpleEngRight	blank.simpleEng	2	0	1787	1	0	14:15:06	874797	0	0	0	0	0	0	0	0	0	0	0	0	0	0	0	0	0
072312	14:15:06	10027	pm.simpleEngRight	pm.simpleEng	2	57	240	0	0	14:15:06	875077	0	0	0	0	0	0	0	0	0	0	0	0	0	0	0	0	0
072312	14:15:06	10027	pm.simpleEngRight	blank.simpleEng	2	0	2387	1	0	14:15:06	877489	0	0	0	0	0	0	0	0	0	0	0	0	0	0	0	0	0
072312	14:15:06	10027	pm.simpleEngRight	pm.simpleEng	2	57	252	0	0	14:15:06	877782	0	0	0	0	0	0	0	0	0	0	0	0	0	0	0	0	0
072312	14:15:06	10027	pm.simpleEngRight	blank.simpleEng	2	0	2287	1	0	14:15:06	880101	0	0	0	0	0	0	0	0	0	0	0	0	0	0	0	0	0
072312	14:15:06	10027	pm.simpleEngRight	pm.simpleEng	2	57	280	0	0	14:15:06	880421	0	0	0	0	0	0	0	0	0	0	0	0	0	0	0	0	0
072312	14:15:06	10027	pm.simpleEngRight	blank.simpleEng	2	0	1887	1	0	14:15:06	882327	0	0	0	0	0	0	0	0	0	0	0	0	0	0	0	0	0
072312	14:15:06	10027	pm.simpleEngRight	pm.simpleEng	2	57	262	0	0	14:15:06	882620	0	0	0	0	0	0	0	0	0	0	0	0	0	0	0	0	0
072312	14:15:06	10027	pm.simpleEngRight	blank.simpleEng	2	0	1687	1	0	14:15:06	884326	0	0	0	0	0	0	0	0	0	0	0	0	0	0	0	0	0
072312	14:15:06	10027	pm.simpleEngRight	pm.simpleEng	2	57	247	0	0	14:15:06	884606	0	0	0	0	0	0	0	0	0	0	0	0	0	0	0	0	0
072312	14:15:06	10027	pm.simpleEngRight	blank.simpleEng	2	0	2187	1	0	14:15:06	886819	0	0	0	0	0	0	0	0	0	0	0	0	0	0	0	0	0
072312	14:15:06	10027	pm.simpleEngRight	pm.simpleEng	2	57	250	0	0	14:15:06	887112	0	0	0	0	0	0	0	0	0	0	0	0	0	0	0	0	0
072312	14:15:06	10027	pm.simpleEngRight	blank.simpleEng	2	0	1887	1	0	14:15:06	889018	0	0	0	0	0	0	0	0	0	0	0	0	0	0	0	0	0
072312	14:15:06	10027	pm.simpleEngRight	pm.simpleEng	2	57	579	0	0	14:15:06	889631	0	0	0	0	0	0	0	0	0	0	0	0	0	0	0	0	0
072312	14:15:06	10027	pm.simpleEngRight	blank.simpleEng	2	0	2387	1	0	14:15:06	892043	0	0	0	0	0	0	0	0	0	0	0	0	0	0	0	0	0
072312	14:15:06	10027	pm.simpleEngRight	pm.simpleEng	2	57	242	0	0	14:15:06	892323	0	0	0	0	0	0	0	0	0	0	0	0	0	0	0	0	0
072312	14:15:06	10027	pm.simpleEngRight	blank.simpleEng	2	0	2087	1	0	14:15:06	894429	0	0	0	0	0	0	0	0	0	0	0	0	0	0	0	0	0
072312	14:15:06	10027	pm.simpleEngRight	pm.simpleEng	2	57	224	0	0	14:15:06	894696	0	0	0	0	0	0	0	0	0	0	0	0	0	0	0	0	0
072312	14:15:06	10027	pm.simpleEngRight	blank.simpleEng	2	0	2287	1	0	14:15:06	897015	0	0	0	0	0	0	0	0	0	0	0	0	0	0	0	0	0
072312	14:15:06	10027	pm.simpleEngRight	pm.simpleEng	2	57	246	0	0	14:15:06	897294	0	0	0	0	0	0	0	0	0	0	0	0	0	0	0	0	0
072312	14:15:06	10027	pm.simpleEngRight	blank.simpleEng	2	0	1787	1	0	14:15:06	899107	0	0	0	0	0	0	0	0	0	0	0	0	0	0	0	0	0
072312	14:15:06	10027	pm.simpleEngRight	pm.simpleEng	2	57	218	0	0	14:15:06	899360	0	0	0	0	0	0	0	0	0	0	0	0	0	0	0	0	0
072312	14:15:06	10027	Trial2BackEng	N	3	0	1000	1	1	14:15:06	964867	0	0	0	0	0	0	0	0	0	0	0	0	0	0	0	0	0
072312	14:15:06	10027	Trial2BackEng	N	3	0	1000	1	2	14:15:06	966386	0	0	0	0	0	0	0	0	0	0	0	0	0	0	0	0	0
072312	14:15:06	10027	Trial2BackEng	N	3	0	1000	1	3	14:15:06	967906	0	0	0	0	0	0	0	0	0	0	0	0	0	0	0	0	0
072312	14:15:06	10027	Trial2BackEng	N	3	0	1000	1	4	14:15:06	969425	0	0	0	0	0	0	0	0	0	0	0	0	0	0	0	0	0
072312	14:15:06	10027	Trial2BackEng	N	3	0	1000	1	5	14:15:06	970945	0	0	0	0	0	0	0	0	0	0	0	0	0	0	0	0	0
072312	14:15:06	10027	Trial2BackEng	N	3	0	1000	1	6	14:15:06	972464	0	0	0	0	0	0	0	0	0	0	0	0	0	0	0	0	0
072312	14:15:06	10027	Trial2BackEng	N	3	0	1000	1	7	14:15:06	973983	0	0	0	0	0	0	0	0	0	0	0	0	0	0	0	0	0
072312	14:15:06	10027	Trial2BackEng	N	3	0	1000	1	8	14:15:06	975503	0	0	0	0	0	0	0	0	0	0	0	0	0	0	0	0	0
072312	14:15:06	10027	Trial2BackEng	Y	3	57	976	1	9	14:15:06	977009	0	0	0	0	0	0	0	0	0	0	0	0	0	0	0	0	0
072312	14:15:06	10027	Trial2BackEng	N	3	0	1000	1	10	14:15:06	978528	0	0	0	0	0	0	0	0	0	0	0	0	0	0	0	0	0
072312	14:15:06	10027	Trial2BackEng	N	3	0	1000	1	11	14:15:06	980048	0	0	0	0	0	0	0	0	0	0	0	0	0	0	0	0	0
072312	14:15:06	10027	Trial2BackEng	N	3	0	1000	1	12	14:15:06	981567	0	0	0	0	0	0	0	0	0	0	0	0	0	0	0	0	0
072312	14:15:06	10027	Trial2BackEng	Y	3	0	1000	0	12	14:15:06	983086	0	0	0	0	0	0	0	0	0	0	0	0	0	0	0	0	0
072312	14:15:06	10027	Trial2BackEng	N	3	0	1000	1	13	14:15:06	984606	0	0	0	0	0	0	0	0	0	0	0	0	0	0	0	0	0
072312	14:15:06	10027	Trial2BackEng	N	3	0	1000	1	14	14:15:06	986125	0	0	0	0	0	0	0	0	0	0	0	0	0	0	0	0	0
072312	14:15:06	10027	Trial2BackEng	N	3	0	1000	1	15	14:15:06	987645	0	0	0	0	0	0	0	0	0	0	0	0	0	0	0	0	0
072312	14:15:06	10027	Trial2BackEng	N	3	0	1000	1	16	14:15:06	989164	0	0	0	0	0	0	0	0	0	0	0	0	0	0	0	0	0
072312	14:15:06	10027	Trial2BackEng	N	3	0	1000	1	17	14:15:06	990683	0	0	0	0	0	0	0	0	0	0	0	0	0	0	0	0	0
072312	14:15:06	10027	Trial2BackEng	Y	3	57	372	1	18	14:15:06	991590	0	0	0	0	0	0	0	0	0	0	0	0	0	0	0	0	0
072312	14:15:06	10027	Trial2BackEng	N	3	0	1000	1	19	14:15:06	993709	0	0	0	0	0	0	0	0	0	0	0	0	0	0	0	0	0
072312	14:15:06	10027	Trial2BackEng	N	3	0	1000	1	20	14:15:06	995228	0	0	0	0	0	0	0	0	0	0	0	0	0	0	0	0	0
072312	14:15:06	10027	Trial2BackEng	N	3	0	1000	1	21	14:15:06	996748	0	0	0	0	0	0	0	0	0	0	0	0	0	0	0	0	0
072312	14:15:06	10027	Trial2BackEng	N	3	0	1000	1	22	14:15:06	998267	0	0	0	0	0	0	0	0	0	0	0	0	0	0	0	0	0
072312	14:15:06	10027	Trial2BackEng	Y	3	57	500	1	23	14:15:06	999293	0	0	0	0	0	0	0	0	0	0	0	0	0	0	0	0	0
072312	14:15:06	10027	Trial2BackEng	N	3	0	1000	1	24	14:15:06	1001292	0	0	0	0	0	0	0	0	0	0	0	0	0	0	0	0	0
072312	14:15:06	10027	Trial2BackEng	N	3	0	1000	1	25	14:15:06	1002812	0	0	0	0	0	0	0	0	0	0	0	0	0	0	0	0	0
072312	14:15:06	10027	Trial2BackEng	N	3	0	1000	1	26	14:15:06	1004331	0	0	0	0	0	0	0	0	0	0	0	0	0	0	0	0	0
072312	14:15:06	10027	Trial2BackEng	N	3	0	1000	1	27	14:15:06	1005851	0	0	0	0	0	0	0	0	0	0	0	0	0	0	0	0	0
072312	14:15:06	10027	Trial2BackEng	N	3	0	1000	1	28	14:15:06	1007370	0	0	0	0	0	0	0	0	0	0	0	0	0	0	0	0	0
072312	14:15:06	10027	Trial2BackEng	N	3	0	1000	1	29	14:15:06	1008889	0	0	0	0	0	0	0	0	0	0	0	0	0	0	0	0	0
072312	14:15:06	10027	Trial2BackEng	Y	3	57	614	1	30	14:15:06	1010035	0	0	0	0	0	0	0	0	0	0	0	0	0	0	0	0	0
072312	14:15:06	10027	Trial2BackEng	N	3	0	1000	1	31	14:15:06	1011915	0	0	0	0	0	0	0	0	0	0	0	0	0	0	0	0	0
072312	14:15:06	10027	Trial2BackEng	N	3	0	1000	1	32	14:15:06	1013434	0	0	0	0	0	0	0	0	0	0	0	0	0	0	0	0	0
072312	14:15:06	10027	Trial2BackEng	N	3	0	1000	1	33	14:15:06	1014954	0	0	0	0	0	0	0	0	0	0	0	0	0	0	0	0	0
072312	14:15:06	10027	Trial2BackEng	Y	3	0	1000	0	33	14:15:06	1016473	0	0	0	0	0	0	0	0	0	0	0	0	0	0	0	0	0
072312	14:15:06	10027	Trial2BackEng	N	3	0	1000	1	34	14:15:06	1017992	0	0	0	0	0	0	0	0	0	0	0	0	0	0	0	0	0
072312	14:15:06	10027	Trial2BackEng	N	3	0	1000	1	35	14:15:06	1019512	0	0	0	0	0	0	0	0	0	0	0	0	0	0	0	0	0
072312	14:15:06	10027	Trial2BackEng	N	3	0	1000	1	36	14:15:06	1021031	0	0	0	0	0	0	0	0	0	0	0	0	0	0	0	0	0
072312	14:15:06	10027	Trial2BackEng	N	3	0	1000	1	37	14:15:06	1022550	0	0	0	0	0	0	0	0	0	0	0	0	0	0	0	0	0
072312	14:15:06	10027	Trial2BackEng	N	3	0	1000	1	38	14:15:06	1024070	0	0	0	0	0	0	0	0	0	0	0	0	0	0	0	0	0
072312	14:15:06	10027	Trial2BackEng	N	3	0	1000	1	39	14:15:06	1025589	0	0	0	0	0	0	0	0	0	0	0	0	0	0	0	0	0
072312	14:15:06	10027	Trial2BackEng	Y	3	57	713	1	40	14:15:06	1026829	0	0	0	0	0	0	0	0	0	0	0	0	0	0	0	0	0
072312	14:15:06	10027	Trial2BackEng	N	3	0	1000	1	41	14:15:06	1028615	0	0	0	0	0	0	0	0	0	0	0	0	0	0	0	0	0
072312	14:15:06	10027	Trial2BackEng	N	3	0	1000	1	42	14:15:06	1030134	0	0	0	0	0	0	0	0	0	0	0	0	0	0	0	0	0
072312	14:15:06	10027	Trial2BackEng	N	3	0	1000	1	43	14:15:06	1031653	0	0	0	0	0	0	0	0	0	0	0	0	0	0	0	0	0
072312	14:15:06	10027	Trial2BackEng	N	3	0	1000	1	44	14:15:06	1033173	0	0	0	0	0	0	0	0	0	0	0	0	0	0	0	0	0
072312	14:15:06	10027	Trial2BackEng	Y	3	57	409	1	45	14:15:06	1034106	0	0	0	0	0	0	0	0	0	0	0	0	0	0	0	0	0
072312	14:15:06	10027	Trial2BackEng	N	3	0	1000	1	46	14:15:06	1036198	0	0	0	0	0	0	0	0	0	0	0	0	0	0	0	0	0
072312	14:15:06	10027	Trial2BackEng	N	3	0	1000	1	47	14:15:06	1037718	0	0	0	0	0	0	0	0	0	0	0	0	0	0	0	0	0
072312	14:15:06	10027	Trial2BackEng	N	3	0	1000	1	48	14:15:06	1039237	0	0	0	0	0	0	0	0	0	0	0	0	0	0	0	0	0
072312	14:15:06	10027	Trial2BackEng	N	3	0	1000	1	49	14:15:06	1040756	0	0	0	0	0	0	0	0	0	0	0	0	0	0	0	0	0
072312	14:15:06	10027	Trial2BackEng	N	3	0	1000	1	50	14:15:06	1042276	0	0	0	0	0	0	0	0	0	0	0	0	0	0	0	0	0
072312	14:15:06	10027	Trial2BackEng	Y	3	57	464	1	51	14:15:06	1043275	0	0	0	0	0	0	0	0	0	0	0	0	0	0	0	0	0
072312	14:15:06	10027	Trial2BackEng	N	3	0	1000	1	52	14:15:06	1045301	0	0	0	0	0	0	0	0	0	0	0	0	0	0	0	0	0
072312	14:15:06	10027	Trial2BackEng	N	3	0	1000	1	53	14:15:06	1046821	0	0	0	0	0	0	0	0	0	0	0	0	0	0	0	0	0
072312	14:15:06	10027	Trial2BackEng	N	3	0	1000	1	54	14:15:06	1048340	0	0	0	0	0	0	0	0	0	0	0	0	0	0	0	0	0
072312	14:15:06	10027	Trial2BackEng	N	3	0	1000	1	55	14:15:06	1049859	0	0	0	0	0	0	0	0	0	0	0	0	0	0	0	0	0
072312	14:15:06	10027	Trial2BackEng	N	3	0	1000	1	56	14:15:06	1051379	0	0	0	0	0	0	0	0	0	0	0	0	0	0	0	0	0
072312	14:15:06	10027	Trial2BackEng	N	3	0	1000	1	57	14:15:06	1052898	0	0	0	0	0	0	0	0	0	0	0	0	0	0	0	0	0
072312	14:15:06	10027	Trial2BackEng	Y	3	57	860	1	58	14:15:06	1054284	0	0	0	0	0	0	0	0	0	0	0	0	0	0	0	0	0
072312	14:15:06	10027	Trial2BackEng	N	3	0	1000	1	59	14:15:06	1055924	0	0	0	0	0	0	0	0	0	0	0	0	0	0	0	0	0
072312	14:15:06	10027	Trial2BackEng	N	3	0	1000	1	60	14:15:06	1057443	0	0	0	0	0	0	0	0	0	0	0	0	0	0	0	0	0
072312	14:15:06	10027	Trial2BackEng	Y	3	57	458	1	61	14:15:06	1058429	0	0	0	0	0	0	0	0	0	0	0	0	0	0	0	0	0
072312	14:15:06	10027	Trial2BackEng	N	3	0	1000	1	62	14:15:06	1060468	0	0	0	0	0	0	0	0	0	0	0	0	0	0	0	0	0
072312	14:15:06	10027	Trial2BackEng	N	3	0	1000	1	63	14:15:06	1061988	0	0	0	0	0	0	0	0	0	0	0	0	0	0	0	0	0
072312	14:15:06	10027	Trial2BackEng	N	3	0	1000	1	64	14:15:06	1063507	0	0	0	0	0	0	0	0	0	0	0	0	0	0	0	0	0
072312	14:15:06	10027	Trial2BackEng	N	3	0	1000	1	65	14:15:06	1065026	0	0	0	0	0	0	0	0	0	0	0	0	0	0	0	0	0
072312	14:15:06	10027	Trial2BackEng	N	3	0	1000	1	66	14:15:06	1066546	0	0	0	0	0	0	0	0	0	0	0	0	0	0	0	0	0
072312	14:15:06	10027	Trial2BackEng	N	3	0	1000	1	67	14:15:06	1068065	0	0	0	0	0	0	0	0	0	0	0	0	0	0	0	0	0
072312	14:15:06	10027	Trial2BackEng	N	3	0	1000	1	68	14:15:06	1069585	0	0	0	0	0	0	0	0	0	0	0	0	0	0	0	0	0
072312	14:15:06	10027	Trial2BackEng	N	3	0	1000	1	69	14:15:06	1071104	0	0	0	0	0	0	0	0	0	0	0	0	0	0	0	0	0
072312	14:15:06	10027	Trial2BackEng	N	3	0	1000	1	70	14:15:06	1072624	0	0	0	0	0	0	0	0	0	0	0	0	0	0	0	0	0
072312	14:15:06	10027	Trial2BackEng	N	3	0	1000	1	71	14:15:06	1074143	0	0	0	0	0	0	0	0	0	0	0	0	0	0	0	0	0
072312	14:15:06	10027	Trial2BackEng	Y	3	57	606	1	72	14:15:06	1075276	0	0	0	0	0	0	0	0	0	0	0	0	0	0	0	0	0
072312	14:15:06	10027	Trial2BackEng	N	3	0	1000	1	73	14:15:06	1077168	0	0	0	0	0	0	0	0	0	0	0	0	0	0	0	0	0
072312	14:15:06	10027	Trial2BackEng	N	3	0	1000	1	74	14:15:06	1078688	0	0	0	0	0	0	0	0	0	0	0	0	0	0	0	0	0
072312	14:15:06	10027	Trial2BackEng	N	3	0	1000	1	75	14:15:06	1080207	0	0	0	0	0	0	0	0	0	0	0	0	0	0	0	0	0
072312	14:15:06	10027	Trial2BackEng	Y	3	57	398	1	76	14:15:06	1081140	0	0	0	0	0	0	0	0	0	0	0	0	0	0	0	0	0
072312	14:15:06	10027	Trial2BackEng	N	3	0	1000	1	77	14:15:06	1083233	0	0	0	0	0	0	0	0	0	0	0	0	0	0	0	0	0
072312	14:15:06	10027	Trial2BackEng	N	3	0	1000	1	78	14:15:06	1084752	0	0	0	0	0	0	0	0	0	0	0	0	0	0	0	0	0
072312	14:15:06	10027	Trial2BackEng	N	3	0	1000	1	79	14:15:06	1086271	0	0	0	0	0	0	0	0	0	0	0	0	0	0	0	0	0
072312	14:15:06	10027	Trial2BackEng	N	3	0	1000	1	80	14:15:06	1087791	0	0	0	0	0	0	0	0	0	0	0	0	0	0	0	0	0
072312	14:15:06	10027	Trial2BackEng	N	3	0	1000	1	81	14:15:06	1089310	0	0	0	0	0	0	0	0	0	0	0	0	0	0	0	0	0
072312	14:15:06	10027	Trial2BackEng	Y	3	0	1000	0	81	14:15:06	1090830	0	0	0	0	0	0	0	0	0	0	0	0	0	0	0	0	0
072312	14:15:06	10027	Trial2BackEng	N	3	0	1000	1	82	14:15:06	1092349	0	0	0	0	0	0	0	0	0	0	0	0	0	0	0	0	0
072312	14:15:06	10027	Trial2BackEng	N	3	0	1000	1	83	14:15:06	1093868	0	0	0	0	0	0	0	0	0	0	0	0	0	0	0	0	0
072312	14:15:06	10027	Trial2BackEng	N	3	0	1000	1	84	14:15:06	1095388	0	0	0	0	0	0	0	0	0	0	0	0	0	0	0	0	0
072312	14:15:06	10027	Trial2BackEng	N	3	0	1000	1	85	14:15:06	1096907	0	0	0	0	0	0	0	0	0	0	0	0	0	0	0	0	0
072312	14:15:06	10027	Trial2BackEng	N	3	0	1000	1	86	14:15:06	1098427	0	0	0	0	0	0	0	0	0	0	0	0	0	0	0	0	0
072312	14:15:06	10027	Trial2BackEng	N	3	0	1000	1	87	14:15:06	1099946	0	0	0	0	0	0	0	0	0	0	0	0	0	0	0	0	0
072312	14:15:06	10027	Trial2BackEng	N	3	0	1000	1	88	14:15:06	1101465	0	0	0	0	0	0	0	0	0	0	0	0	0	0	0	0	0
072312	14:15:06	10027	Trial2BackEng	N	3	0	1000	1	89	14:15:06	1102985	0	0	0	0	0	0	0	0	0	0	0	0	0	0	0	0	0
072312	14:15:06	10027	Trial2BackEng	N	3	0	1000	1	90	14:15:06	1104504	0	0	0	0	0	0	0	0	0	0	0	0	0	0	0	0	0
072312	14:15:06	10027	Trial2BackEng	Y	3	57	405	1	91	14:15:06	1105437	0	0	0	0	0	0	0	0	0	0	0	0	0	0	0	0	0
072312	14:15:06	10027	Trial2BackEng	N	3	0	1000	1	92	14:15:06	1107529	0	0	0	0	0	0	0	0	0	0	0	0	0	0	0	0	0
072312	14:15:06	10027	Trial2BackEng	N	3	0	1000	1	93	14:15:06	1109049	0	0	0	0	0	0	0	0	0	0	0	0	0	0	0	0	0
072312	14:15:06	10027	Trial2BackEng	N	3	0	1000	1	94	14:15:06	1110568	0	0	0	0	0	0	0	0	0	0	0	0	0	0	0	0	0
072312	14:15:06	10027	Trial2BackEng	N	3	0	1000	1	95	14:15:06	1112088	0	0	0	0	0	0	0	0	0	0	0	0	0	0	0	0	0
072312	14:15:06	10027	Trial2BackEng	N	3	0	1000	1	96	14:15:06	1113607	0	0	0	0	0	0	0	0	0	0	0	0	0	0	0	0	0
072312	14:15:06	10027	Trial2BackEng	N	3	0	1000	1	97	14:15:06	1115126	0	0	0	0	0	0	0	0	0	0	0	0	0	0	0	0	0
072312	14:15:06	10027	Trial2BackEng	N	3	0	1000	1	98	14:15:06	1116646	0	0	0	0	0	0	0	0	0	0	0	0	0	0	0	0	0
072312	14:15:06	10027	Trial2BackEng	N	3	0	1000	1	99	14:15:06	1118165	0	0	0	0	0	0	0	0	0	0	0	0	0	0	0	0	0
072312	14:15:06	10027	Trial2BackEng	Y	3	0	1000	0	99	14:15:06	1119685	0	0	0	0	0	0	0	0	0	0	0	0	0	0	0	0	0
072312	14:15:06	10027	Trial2BackEng	N	3	0	1000	1	100	14:15:06	1121204	0	0	0	0	0	0	0	0	0	0	0	0	0	0	0	0	0
072312	14:15:06	10027	Trial2BackEng	N	3	0	1000	1	101	14:15:06	1122723	0	0	0	0	0	0	0	0	0	0	0	0	0	0	0	0	0
072312	14:15:06	10027	Trial2BackEng	N	3	0	1000	1	102	14:15:06	1124243	0	0	0	0	0	0	0	0	0	0	0	0	0	0	0	0	0
072312	14:15:06	10027	Trial2BackEng	N	3	57	969	0	102	14:15:06	1125735	0	0	0	0	0	0	0	0	0	0	0	0	0	0	0	0	0
072312	14:15:06	10027	Trial2BackEng	Y	3	0	1000	0	102	14:15:06	1127268	0	0	0	0	0	0	0	0	0	0	0	0	0	0	0	0	0
072312	14:15:06	10027	Trial2BackEng	N	3	0	1000	1	103	14:15:06	1128788	0	0	0	0	0	0	0	0	0	0	0	0	0	0	0	0	0
072312	14:15:06	10027	Trial2BackEng	N	3	0	1000	1	104	14:15:06	1130307	0	0	0	0	0	0	0	0	0	0	0	0	0	0	0	0	0
072312	14:15:06	10027	Trial2BackEng	N	3	0	1000	1	105	14:15:06	1131826	0	0	0	0	0	0	0	0	0	0	0	0	0	0	0	0	0
072312	14:15:06	10027	Trial2BackEng	Y	3	0	1000	0	105	14:15:06	1133346	0	0	0	0	0	0	0	0	0	0	0	0	0	0	0	0	0
072312	14:15:06	10027	Trial2BackEng	N	3	0	1000	1	106	14:15:06	1134865	0	0	0	0	0	0	0	0	0	0	0	0	0	0	0	0	0
072312	14:15:06	10027	Trial2BackEng	N	3	0	1000	1	107	14:15:06	1136384	0	0	0	0	0	0	0	0	0	0	0	0	0	0	0	0	0
072312	14:15:06	10027	Trial2BackEng	N	3	0	1000	1	108	14:15:06	1137904	0	0	0	0	0	0	0	0	0	0	0	0	0	0	0	0	0
072312	14:15:06	10027	Trial2BackEng	N	3	0	1000	1	109	14:15:06	1139423	0	0	0	0	0	0	0	0	0	0	0	0	0	0	0	0	0
072312	14:15:06	10027	Trial2BackEng	N	3	0	1000	1	110	14:15:06	1140943	0	0	0	0	0	0	0	0	0	0	0	0	0	0	0	0	0
072312	14:15:06	10027	Trial2BackEng	Y	3	0	1000	0	110	14:15:06	1142462	0	0	0	0	0	0	0	0	0	0	0	0	0	0	0	0	0
072312	14:15:06	10027	Trial2BackEng	N	3	0	1000	1	111	14:15:06	1143981	0	0	0	0	0	0	0	0	0	0	0	0	0	0	0	0	0
072312	14:15:06	10027	Trial2BackEng	N	3	0	1000	1	112	14:15:06	1145501	0	0	0	0	0	0	0	0	0	0	0	0	0	0	0	0	0
072312	14:15:06	10027	Trial2BackEng	N	3	0	1000	1	113	14:15:06	1147020	0	0	0	0	0	0	0	0	0	0	0	0	0	0	0	0	0
072312	14:15:06	10027	Trial2BackEng	Y	3	57	751	1	114	14:15:06	1148299	0	0	0	0	0	0	0	0	0	0	0	0	0	0	0	0	0
072312	14:15:06	10027	Memory1RBaseline	Score	5	M1	42932	0	114	14:15:06	1245287	0	0	0	0	0	0	0	0	0	0	0	0	0	0	0	0	0
072312	14:15:06	10027	Memory1RBaseline	Score	5	M4	2107	0	114	14:15:06	1247433	0	0	0	0	0	0	0	0	0	0	0	0	0	0	0	0	0
072312	14:15:06	10027	Memory1RBaseline	Score	5	M7	1529	0	114	14:15:06	1249006	0	0	0	0	0	0	0	0	0	0	0	0	0	0	0	0	0
072312	14:15:06	10027	Memory1RBaseline	Score	5	Done	836	0	114	14:15:06	1249885	0	0	0	0	0	0	0	0	0	0	0	0	0	0	0	0	0
072312	14:15:06	10027	Memory2RBaseline	Score2	5	77	28022	0	114	14:15:06	1298959	0	0	0	0	0	0	0	0	0	0	0	0	0	0	0	0	0
072312	14:15:06	10027	Memory2RBaseline	Score2	5	88	218	0	114	14:15:06	1299212	0	0	0	0	0	0	0	0	0	0	0	0	0	0	0	0	0
072312	14:15:06	10027	Memory2RBaseline	Score2	5	55	573	0	114	14:15:06	1299825	0	0	0	0	0	0	0	0	0	0	0	0	0	0	0	0	0
072312	14:15:06	10027	Memory2RBaseline	Score2	5	44	312	0	114	14:15:06	1300172	0	0	0	0	0	0	0	0	0	0	0	0	0	0	0	0	0
072312	14:15:06	10027	Memory2RBaseline	Score2	5	33	245	0	114	14:15:06	1300452	0	0	0	0	0	0	0	0	0	0	0	0	0	0	0	0	0
072312	14:15:06	10027	Memory2RBaseline	Score2	5	22	237	0	114	14:15:06	1300731	0	0	0	0	0	0	0	0	0	0	0	0	0	0	0	0	0
072312	14:15:06	10027	Memory2RBaseline	Score2	5	11	629	0	114	14:15:06	1301398	0	0	0	0	0	0	0	0	0	0	0	0	0	0	0	0	0
072312	14:15:06	10027	Memory2RBaseline	Score2	5	Done	2955	0	114	14:15:06	1304397	0	0	0	0	0	0	0	0	0	0	0	0	0	0	0	0	0
072312	14:15:06	10027	Memory3RBaseline	Score3	5	111	35942	0	114	14:15:06	1362187	0	0	0	0	0	0	0	0	0	0	0	0	0	0	0	0	0
072312	14:15:06	10027	Memory3RBaseline	Score3	5	333	445	0	114	14:15:06	1362666	0	0	0	0	0	0	0	0	0	0	0	0	0	0	0	0	0
072312	14:15:06	10027	Memory3RBaseline	Score3	5	222	797	0	114	14:15:06	1363506	0	0	0	0	0	0	0	0	0	0	0	0	0	0	0	0	0
072312	14:15:06	10027	Memory3RBaseline	Score3	5	444	589	0	114	14:15:06	1364132	0	0	0	0	0	0	0	0	0	0	0	0	0	0	0	0	0
072312	14:15:06	10027	Memory3RBaseline	Score3	5	666	1947	0	114	14:15:06	1366118	0	0	0	0	0	0	0	0	0	0	0	0	0	0	0	0	0
072312	14:15:06	10027	Memory3RBaseline	Score3	5	777	313	0	114	14:15:06	1366478	0	0	0	0	0	0	0	0	0	0	0	0	0	0	0	0	0
072312	14:15:06	10027	Memory3RBaseline	Score3	5	888	416	0	114	14:15:06	1366931	0	0	0	0	0	0	0	0	0	0	0	0	0	0	0	0	0
072312	14:15:06	10027	Memory3RBaseline	Score3	5	555	31539	0	114	14:15:06	1398505	0	0	0	0	0	0	0	0	0	0	0	0	0	0	0	0	0
072312	14:15:06	10027	Memory3RBaseline	Score3	5	Done	1005	0	114	14:15:06	1399545	0	0	0	0	0	0	0	0	0	0	0	0	0	0	0	0	0
072312	14:15:06	10027	LoriaEngLH3	Stop	6	7	3846	0	114	14:15:06	1482380	0	0	0	0	0	0	0	0	0	0	0	0	0	0	0	0	0
072312	14:15:06	10027	EngTrail	Trails	7	1Trails	24738	0	114	14:15:06	1583417	0	0	0	0	0	0	0	0	0	0	0	0	0	0	0	0	0
072312	14:15:06	10027	Serial7EngBaseline	Serial7EngBaseline	8	83	3112	0	114	14:15:06	1667770	1	0	0	0	0	0	0	0	0	0	0	0	0	0	0	0	0
072312	14:15:06	10027	Serial7EngBaseline	Serial7EngBaseline	8	74	3025	0	114	14:15:06	1670823	1	0	0	0	0	0	0	0	0	0	0	0	0	0	0	0	0
072312	14:15:06	10027	Serial7EngBaseline	Serial7EngBaseline	8	67	2902	0	114	14:15:06	1673742	2	0	0	0	0	0	0	0	0	0	0	0	0	0	0	0	0
072312	14:15:06	10027	Serial7EngBaseline	Serial7EngBaseline	8	60	2351	0	114	14:15:06	1676114	3	0	0	0	0	0	0	0	0	0	0	0	0	0	0	0	0
072312	14:15:06	10027	Serial7EngBaseline	Serial7EngBaseline	8	53	3099	0	114	14:15:06	1679233	4	0	0	0	0	0	0	0	0	0	0	0	0	0	0	0	0
072312	14:15:06	10027	corsiblockEngFwrd	recallseqEngFwrd	9	2	6161	0	114	14:15:06	1760147	4	0	0	0	0	0	0	0	0	0	0	0	0	0	0	0	0
072312	14:15:06	10027	corsiblockEngFwrd	recallseqEngFwrd	9	1	1044	0	114	14:15:06	1761226	4	0	0	0	0	0	0	0	0	0	0	0	0	0	0	0	0
072312	14:15:06	10027	corsiblockEngFwrd	recallseqEngFwrd	9	doneCorsiEng	1284	0	114	14:15:06	1762546	4	0	0	0	0	0	0	0	0	0	0	0	0	0	0	2	0
072312	14:15:06	10027	corsiblockEngFwrd	recallseqEngFwrd	9	6	1490	0	114	14:15:06	1770130	4	0	0	0	0	0	0	0	0	0	0	0	0	0	0	2	0
072312	14:15:06	10027	corsiblockEngFwrd	recallseqEngFwrd	9	3	525	0	114	14:15:06	1770689	4	0	0	0	0	0	0	0	0	0	0	0	0	0	0	2	0
072312	14:15:06	10027	corsiblockEngFwrd	recallseqEngFwrd	9	9	1189	0	114	14:15:06	1771916	4	0	0	0	0	0	0	0	0	0	0	0	0	0	0	2	0
072312	14:15:06	10027	corsiblockEngFwrd	recallseqEngFwrd	9	doneCorsiEng	1339	0	114	14:15:06	1773288	4	0	0	0	0	0	0	0	0	0	0	0	0	0	0	3	0
072312	14:15:06	10027	corsiblockEngFwrd	recallseqEngFwrd	9	8	1275	0	114	14:15:06	1781658	4	0	0	0	0	0	0	0	0	0	0	0	0	0	0	3	0
072312	14:15:06	10027	corsiblockEngFwrd	recallseqEngFwrd	9	7	3524	0	114	14:15:06	1785217	4	0	0	0	0	0	0	0	0	0	0	0	0	0	0	3	0
072312	14:15:06	10027	corsiblockEngFwrd	recallseqEngFwrd	9	9	1389	0	114	14:15:06	1786643	4	0	0	0	0	0	0	0	0	0	0	0	0	0	0	3	0
072312	14:15:06	10027	corsiblockEngFwrd	recallseqEngFwrd	9	4	820	0	114	14:15:06	1787496	4	0	0	0	0	0	0	0	0	0	0	0	0	0	0	3	0
072312	14:15:06	10027	corsiblockEngFwrd	recallseqEngFwrd	9	doneCorsiEng	1534	0	114	14:15:06	1789069	4	0	0	0	0	0	0	0	0	0	0	0	0	0	0	3	0
072312	14:15:06	10027	corsiblockEngFwrd	recallseqEngFwrd	9	2	1239	0	114	14:15:06	1797359	4	0	0	0	0	0	0	0	0	0	0	0	0	0	0	3	0
072312	14:15:06	10027	corsiblockEngFwrd	recallseqEngFwrd	9	5	640	0	114	14:15:06	1798038	4	0	0	0	0	0	0	0	0	0	0	0	0	0	0	3	0
072312	14:15:06	10027	corsiblockEngFwrd	recallseqEngFwrd	9	7	576	0	114	14:15:06	1798651	4	0	0	0	0	0	0	0	0	0	0	0	0	0	0	3	0
072312	14:15:06	10027	corsiblockEngFwrd	recallseqEngFwrd	9	1	938	0	114	14:15:06	1799624	4	0	0	0	0	0	0	0	0	0	0	0	0	0	0	3	0
072312	14:15:06	10027	corsiblockEngFwrd	recallseqEngFwrd	9	doneCorsiEng	934	0	114	14:15:06	1800597	4	0	0	0	0	0	0	0	0	0	0	0	0	0	0	4	0
072312	14:15:06	10027	corsiblockEngFwrd	recallseqEngFwrd	9	6	1358	0	114	14:15:06	1809047	4	0	0	0	0	0	0	0	0	0	0	0	0	0	0	4	0
072312	14:15:06	10027	corsiblockEngFwrd	recallseqEngFwrd	9	4	462	0	114	14:15:06	1809553	4	0	0	0	0	0	0	0	0	0	0	0	0	0	0	4	0
072312	14:15:06	10027	corsiblockEngFwrd	recallseqEngFwrd	9	3	468	0	114	14:15:06	1810060	4	0	0	0	0	0	0	0	0	0	0	0	0	0	0	4	0
072312	14:15:06	10027	corsiblockEngFwrd	recallseqEngFwrd	9	8	626	0	114	14:15:06	1810726	4	0	0	0	0	0	0	0	0	0	0	0	0	0	0	4	0
072312	14:15:06	10027	corsiblockEngFwrd	recallseqEngFwrd	9	9	775	0	114	14:15:06	1811540	4	0	0	0	0	0	0	0	0	0	0	0	0	0	0	4	0
072312	14:15:06	10027	corsiblockEngFwrd	recallseqEngFwrd	9	doneCorsiEng	1010	0	114	14:15:06	1812592	4	0	0	0	0	0	0	0	0	0	0	0	0	0	0	5	0
072312	14:15:06	10027	corsiblockEngFwrd	recallseqEngFwrd	9	3	979	0	114	14:15:06	1822655	4	0	0	0	0	0	0	0	0	0	0	0	0	0	0	5	0
072312	14:15:06	10027	corsiblockEngFwrd	recallseqEngFwrd	9	1	1318	0	114	14:15:06	1824014	4	0	0	0	0	0	0	0	0	0	0	0	0	0	0	5	0
072312	14:15:06	10027	corsiblockEngFwrd	recallseqEngFwrd	9	9	1463	0	114	14:15:06	1825521	4	0	0	0	0	0	0	0	0	0	0	0	0	0	0	5	0
072312	14:15:06	10027	corsiblockEngFwrd	recallseqEngFwrd	9	8	621	0	114	14:15:06	1826187	4	0	0	0	0	0	0	0	0	0	0	0	0	0	0	5	0
072312	14:15:06	10027	corsiblockEngFwrd	recallseqEngFwrd	9	7	1522	0	114	14:15:06	1827746	4	0	0	0	0	0	0	0	0	0	0	0	0	0	0	5	0
072312	14:15:06	10027	corsiblockEngFwrd	recallseqEngFwrd	9	4	537	0	114	14:15:06	1828319	4	0	0	0	0	0	0	0	0	0	0	0	0	0	0	5	0
072312	14:15:06	10027	corsiblockEngFwrd	recallseqEngFwrd	9	doneCorsiEng	1062	0	114	14:15:06	1829426	4	0	0	0	0	0	0	0	0	0	0	0	0	0	0	5	0
072312	14:15:06	10027	corsiblockEngFwrd	recallseqEngFwrd	9	6	6657	0	114	14:15:06	1845126	4	0	0	0	0	0	0	0	0	0	0	0	0	0	0	5	0
072312	14:15:06	10027	corsiblockEngFwrd	recallseqEngFwrd	9	2	791	0	114	14:15:06	1845952	4	0	0	0	0	0	0	0	0	0	0	0	0	0	0	5	0
072312	14:15:06	10027	corsiblockEngFwrd	recallseqEngFwrd	9	7	869	0	114	14:15:06	1846859	4	0	0	0	0	0	0	0	0	0	0	0	0	0	0	5	0
072312	14:15:06	10027	corsiblockEngFwrd	recallseqEngFwrd	9	5	1338	0	114	14:15:06	1848231	4	0	0	0	0	0	0	0	0	0	0	0	0	0	0	5	0
072312	14:15:06	10027	corsiblockEngFwrd	recallseqEngFwrd	9	4	1493	0	114	14:15:06	1849764	4	0	0	0	0	0	0	0	0	0	0	0	0	0	0	5	0
072312	14:15:06	10027	corsiblockEngFwrd	recallseqEngFwrd	9	2	529	0	114	14:15:06	1850337	4	0	0	0	0	0	0	0	0	0	0	0	0	0	0	5	0
072312	14:15:06	10027	corsiblockEngFwrd	recallseqEngFwrd	9	doneCorsiEng	724	0	114	14:15:06	1851097	4	0	0	0	0	0	0	0	0	0	0	0	0	0	0	5	0
072312	14:15:06	10027	corsiblockEngRev	recallseqEngRev	10	7	1687	0	114	14:15:06	1868530	4	0	0	0	0	0	0	0	0	0	0	0	0	0	0	5	0
072312	14:15:06	10027	corsiblockEngRev	recallseqEngRev	10	6	675	0	114	14:15:06	1869250	4	0	0	0	0	0	0	0	0	0	0	0	0	0	0	5	0
072312	14:15:06	10027	corsiblockEngRev	recallseqEngRev	10	doneCorsiEng	795	0	114	14:15:06	1870090	4	0	0	0	0	0	0	0	0	0	0	0	0	0	0	5	2
072312	14:15:06	10027	corsiblockEngRev	recallseqEngRev	10	5	1048	0	114	14:15:06	1877233	4	0	0	0	0	0	0	0	0	0	0	0	0	0	0	5	2
072312	14:15:06	10027	corsiblockEngRev	recallseqEngRev	10	3	755	0	114	14:15:06	1878033	4	0	0	0	0	0	0	0	0	0	0	0	0	0	0	5	2
072312	14:15:06	10027	corsiblockEngRev	recallseqEngRev	10	2	603	0	114	14:15:06	1878672	4	0	0	0	0	0	0	0	0	0	0	0	0	0	0	5	2
072312	14:15:06	10027	corsiblockEngRev	recallseqEngRev	10	doneCorsiEng	892	0	114	14:15:06	1879605	4	0	0	0	0	0	0	0	0	0	0	0	0	0	0	5	3
072312	14:15:06	10027	corsiblockEngRev	recallseqEngRev	10	9	1180	0	114	14:15:06	1887869	4	0	0	0	0	0	0	0	0	0	0	0	0	0	0	5	3
072312	14:15:06	10027	corsiblockEngRev	recallseqEngRev	10	1	935	0	114	14:15:06	1888842	4	0	0	0	0	0	0	0	0	0	0	0	0	0	0	5	3
072312	14:15:06	10027	corsiblockEngRev	recallseqEngRev	10	4	770	0	114	14:15:06	1889655	4	0	0	0	0	0	0	0	0	0	0	0	0	0	0	5	3
072312	14:15:06	10027	corsiblockEngRev	recallseqEngRev	10	8	829	0	114	14:15:06	1890521	4	0	0	0	0	0	0	0	0	0	0	0	0	0	0	5	3
072312	14:15:06	10027	corsiblockEngRev	recallseqEngRev	10	doneCorsiEng	1123	0	114	14:15:06	1891681	4	0	0	0	0	0	0	0	0	0	0	0	0	0	0	5	4
072312	14:15:06	10027	corsiblockEngRev	recallseqEngRev	10	8	689	0	114	14:15:06	1900464	4	0	0	0	0	0	0	0	0	0	0	0	0	0	0	5	4
072312	14:15:06	10027	corsiblockEngRev	recallseqEngRev	10	6	788	0	114	14:15:06	1901290	4	0	0	0	0	0	0	0	0	0	0	0	0	0	0	5	4
072312	14:15:06	10027	corsiblockEngRev	recallseqEngRev	10	2	1426	0	114	14:15:06	1902756	4	0	0	0	0	0	0	0	0	0	0	0	0	0	0	5	4
072312	14:15:06	10027	corsiblockEngRev	recallseqEngRev	10	1	951	0	114	14:15:06	1903742	4	0	0	0	0	0	0	0	0	0	0	0	0	0	0	5	4
072312	14:15:06	10027	corsiblockEngRev	recallseqEngRev	10	9	565	0	114	14:15:06	1904342	4	0	0	0	0	0	0	0	0	0	0	0	0	0	0	5	4
072312	14:15:06	10027	corsiblockEngRev	recallseqEngRev	10	doneCorsiEng	893	0	114	14:15:06	1905275	4	0	0	0	0	0	0	0	0	0	0	0	0	0	0	5	4
072312	14:15:06	10027	corsiblockEngRev	recallseqEngRev	10	6	1598	0	114	14:15:06	1914924	4	0	0	0	0	0	0	0	0	0	0	0	0	0	0	5	4
072312	14:15:06	10027	corsiblockEngRev	recallseqEngRev	10	9	775	0	114	14:15:06	1915737	4	0	0	0	0	0	0	0	0	0	0	0	0	0	0	5	4
072312	14:15:06	10027	corsiblockEngRev	recallseqEngRev	10	7	547	0	114	14:15:06	1916324	4	0	0	0	0	0	0	0	0	0	0	0	0	0	0	5	4
072312	14:15:06	10027	corsiblockEngRev	recallseqEngRev	10	4	624	0	114	14:15:06	1916990	4	0	0	0	0	0	0	0	0	0	0	0	0	0	0	5	4
072312	14:15:06	10027	corsiblockEngRev	recallseqEngRev	10	3	469	0	114	14:15:06	1917497	4	0	0	0	0	0	0	0	0	0	0	0	0	0	0	5	4
072312	14:15:06	10027	corsiblockEngRev	recallseqEngRev	10	doneCorsiEng	875	0	114	14:15:06	1918416	4	0	0	0	0	0	0	0	0	0	0	0	0	0	0	5	5
072312	14:15:06	10027	corsiblockEngRev	recallseqEngRev	10	3	1361	0	114	14:15:06	1927866	4	0	0	0	0	0	0	0	0	0	0	0	0	0	0	5	5
072312	14:15:06	10027	corsiblockEngRev	recallseqEngRev	10	8	1057	0	114	14:15:06	1928959	4	0	0	0	0	0	0	0	0	0	0	0	0	0	0	5	5
072312	14:15:06	10027	corsiblockEngRev	recallseqEngRev	10	5	1156	0	114	14:15:06	1930158	4	0	0	0	0	0	0	0	0	0	0	0	0	0	0	5	5
072312	14:15:06	10027	corsiblockEngRev	recallseqEngRev	10	7	589	0	114	14:15:06	1930785	4	0	0	0	0	0	0	0	0	0	0	0	0	0	0	5	5
072312	14:15:06	10027	corsiblockEngRev	recallseqEngRev	10	1	907	0	114	14:15:06	1931731	4	0	0	0	0	0	0	0	0	0	0	0	0	0	0	5	5
072312	14:15:06	10027	corsiblockEngRev	recallseqEngRev	10	2	654	0	114	14:15:06	1932424	4	0	0	0	0	0	0	0	0	0	0	0	0	0	0	5	5
072312	14:15:06	10027	corsiblockEngRev	recallseqEngRev	10	doneCorsiEng	955	0	114	14:15:06	1933424	4	0	0	0	0	0	0	0	0	0	0	0	0	0	0	5	5
072312	14:15:06	10027	corsiblockEngRev	recallseqEngRev	10	1	1689	0	114	14:15:06	1944166	4	0	0	0	0	0	0	0	0	0	0	0	0	0	0	5	5
072312	14:15:06	10027	corsiblockEngRev	recallseqEngRev	10	5	724	0	114	14:15:06	1944926	4	0	0	0	0	0	0	0	0	0	0	0	0	0	0	5	5
072312	14:15:06	10027	corsiblockEngRev	recallseqEngRev	10	4	492	0	114	14:15:06	1945459	4	0	0	0	0	0	0	0	0	0	0	0	0	0	0	5	5
072312	14:15:06	10027	corsiblockEngRev	recallseqEngRev	10	7	520	0	114	14:15:06	1946019	4	0	0	0	0	0	0	0	0	0	0	0	0	0	0	5	5
072312	14:15:06	10027	corsiblockEngRev	recallseqEngRev	10	2	448	0	114	14:15:06	1946512	4	0	0	0	0	0	0	0	0	0	0	0	0	0	0	5	5
072312	14:15:06	10027	corsiblockEngRev	recallseqEngRev	10	9	571	0	114	14:15:06	1947125	4	0	0	0	0	0	0	0	0	0	0	0	0	0	0	5	5
072312	14:15:06	10027	corsiblockEngRev	recallseqEngRev	10	doneCorsiEng	990	0	114	14:15:06	1948151	4	0	0	0	0	0	0	0	0	0	0	0	0	0	0	5	5
072312	14:15:06	10027	testEngBaseline	WordsEngBaseline	11	1EngBaseline	645	0	114	14:15:06	1997105	4	1	0	0	0	0	0	0	0	0	0	0	0	0	0	5	5
072312	14:15:06	10027	testEngBaseline	WordsEngBaseline	11	2EngBaseline	497	0	114	14:15:06	1997638	4	1	1	0	0	0	0	0	0	0	0	0	0	0	0	5	5
072312	14:15:06	10027	testEngBaseline	WordsEngBaseline	11	3EngBaseline	244	0	114	14:15:06	1997918	4	1	1	1	0	0	0	0	0	0	0	0	0	0	0	5	5
072312	14:15:06	10027	testEngBaseline	WordsEngBaseline	11	4EngBaseline	540	0	114	14:15:06	1998504	4	1	1	1	1	0	0	0	0	0	0	0	0	0	0	5	5
072312	14:15:06	10027	testEngBaseline	WordsEngBaseline	11	5EngBaseline	498	0	114	14:15:06	1999037	4	1	1	1	1	1	0	0	0	0	0	0	0	0	0	5	5
072312	14:15:06	10027	testEngBaseline	WordsEngBaseline	11	6EngBaseline	461	0	114	14:15:06	1999544	4	1	1	1	1	1	1	0	0	0	0	0	0	0	0	5	5
072312	14:15:06	10027	testEngBaseline	WordsEngBaseline	11	7EngBaseline	474	0	114	14:15:06	2000064	4	1	1	1	1	1	1	1	0	0	0	0	0	0	0	5	5
072312	14:15:06	10027	testEngBaseline	WordsEngBaseline	11	8EngBaseline	394	0	114	14:15:06	2000503	4	1	1	1	1	1	1	1	1	0	0	0	0	0	0	5	5
072312	14:15:06	10027	testEngBaseline	WordsEngBaseline	11	DoneEngBaseline	610	0	114	14:15:06	2001156	4	1	1	1	1	1	1	1	1	0	0	0	0	0	0	5	5
072312	14:15:06	10027	DigitSpanFwrdEngBaseline	Score1FwrdEngBaseline	12	DS1	3827	0	114	14:15:06	2030465	4	1	1	1	1	1	1	1	1	0	0	0	0	0	0	5	5
072312	14:15:06	10027	DigitSpanFwrdEngBaseline	Gate1FwrdEngBaseline	12	0	1	0	114	14:15:06	2030480	4	1	1	1	1	1	1	1	1	3	0	0	0	0	0	5	5
072312	14:15:06	10027	DigitSpanFwrdEngBaseline	Score2FwrdEngBaseline	12	DS1	4481	0	114	14:15:06	2040727	4	1	1	1	1	1	1	1	1	3	0	0	0	0	0	5	5
072312	14:15:06	10027	DigitSpanFwrdEngBaseline	Gate3FwrdEngBaseline	12	0	1	0	114	14:15:06	2040742	4	1	1	1	1	1	1	1	1	4	0	0	0	0	0	5	5
072312	14:15:06	10027	DigitSpanFwrdEngBaseline	Score3FwrdEngBaseline	12	DS1	3571	0	114	14:15:06	2052122	4	1	1	1	1	1	1	1	1	4	0	0	0	0	0	5	5
072312	14:15:06	10027	DigitSpanFwrdEngBaseline	Gate5FwrdEngBaseline	12	0	1	0	114	14:15:06	2052137	4	1	1	1	1	1	1	1	1	5	0	0	0	0	0	5	5
072312	14:15:06	10027	DigitSpanFwrdEngBaseline	Score4FwrdEngBaseline	12	DS1	5195	0	114	14:15:06	2066876	4	1	1	1	1	1	1	1	1	5	0	0	0	0	0	5	5
072312	14:15:06	10027	DigitSpanFwrdEngBaseline	Gate7FwrdEngBaseline	12	0	1	0	114	14:15:06	2066891	4	1	1	1	1	1	1	1	1	6	0	0	0	0	0	5	5
072312	14:15:06	10027	DigitSpanFwrdEngBaseline	Score5FwrdEngBaseline	12	DS2	12224	0	114	14:15:06	2090173	4	1	1	1	1	1	1	1	1	6	0	0	0	0	0	5	5
072312	14:15:06	10027	DigitSpanFwrdEngBaseline	Gate9FwrdEngBaseline	12	0	1	0	114	14:15:06	2090189	4	1	1	1	1	1	1	1	1	6	0	0	0	0	0	5	5
072312	14:15:06	10027	DigitSpanFwrdEngBaseline	Score55FwrdEngBaseline	12	DS1	5453	0	114	14:15:06	2107047	4	1	1	1	1	1	1	1	1	6	0	0	0	0	0	5	5
072312	14:15:06	10027	DigitSpanFwrdEngBaseline	Gate10FwrdEngBaseline	12	0	1	0	114	14:15:06	2107062	4	1	1	1	1	1	1	1	1	7	0	0	0	0	0	5	5
072312	14:15:06	10027	DigitSpanFwrdEngBaseline	Score6FwrdEngBaseline	12	DS2	8089	0	114	14:15:06	2128505	4	1	1	1	1	1	1	1	1	7	0	0	0	0	0	5	5
072312	14:15:06	10027	DigitSpanFwrdEngBaseline	Gate11FwrdEngBaseline	12	0	1	0	114	14:15:06	2128520	4	1	1	1	1	1	1	1	1	7	0	0	0	0	0	5	5
072312	14:15:06	10027	DigitSpanFwrdEngBaseline	Score66FwrdEngBaseline	12	DS1	6926	0	114	14:15:06	2148629	4	1	1	1	1	1	1	1	1	8	0	0	0	0	0	5	5
072312	14:15:06	10027	DigitSpanEngBaseline	Score1EngBaseline	13	DS1	4435	0	114	14:15:06	2213497	4	1	1	1	1	1	1	1	1	8	0	0	0	0	0	5	5
072312	14:15:06	10027	DigitSpanEngBaseline	Gate1EngBaseline	13	0	1	0	114	14:15:06	2213512	4	1	1	1	1	1	1	1	1	8	2	0	0	0	0	5	5
072312	14:15:06	10027	DigitSpanEngBaseline	Score2EngBaseline	13	DS1	2614	0	114	14:15:06	2220827	4	1	1	1	1	1	1	1	1	8	2	0	0	0	0	5	5
072312	14:15:06	10027	DigitSpanEngBaseline	Gate3EngBaseline	13	0	1	0	114	14:15:06	2220842	4	1	1	1	1	1	1	1	1	8	3	0	0	0	0	5	5
072312	14:15:06	10027	DigitSpanEngBaseline	Score3EngBaseline	13	DS1	3380	0	114	14:15:06	2230796	4	1	1	1	1	1	1	1	1	8	3	0	0	0	0	5	5
072312	14:15:06	10027	DigitSpanEngBaseline	Gate5EngBaseline	13	0	1	0	114	14:15:06	2230812	4	1	1	1	1	1	1	1	1	8	4	0	0	0	0	5	5
072312	14:15:06	10027	DigitSpanEngBaseline	Score4EngBaseline	13	DS1	7489	0	114	14:15:06	2246350	4	1	1	1	1	1	1	1	1	8	4	0	0	0	0	5	5
072312	14:15:06	10027	DigitSpanEngBaseline	Gate7EngBaseline	13	0	1	0	114	14:15:06	2246365	4	1	1	1	1	1	1	1	1	8	5	0	0	0	0	5	5
072312	14:15:06	10027	DigitSpanEngBaseline	Score5EngBaseline	13	DS2	14010	0	114	14:15:06	2270034	4	1	1	1	1	1	1	1	1	8	5	0	0	0	0	5	5
072312	14:15:06	10027	DigitSpanEngBaseline	Gate9EngBaseline	13	0	1	0	114	14:15:06	2270049	4	1	1	1	1	1	1	1	1	8	5	0	0	0	0	5	5
072312	14:15:06	10027	DigitSpanEngBaseline	Score55EngBaseline	13	DS2	30661	0	114	14:15:06	2310444	4	1	1	1	1	1	1	1	1	8	5	0	0	0	0	5	5
072312	14:15:06	10027	Trial	IncongruentRight	14	205	679	1	114	14:15:06	2374565	4	1	1	1	1	1	1	1	1	8	5	0	0	0	0	5	5
072312	14:15:06	10027	Trial	IncongruentLeft	14	203	495	1	114	14:15:06	2375378	4	1	1	1	1	1	1	1	1	8	5	0	0	0	0	5	5
072312	14:15:06	10027	Trial	CongruentRight	14	205	424	1	114	14:15:06	2376297	4	1	1	1	1	1	1	1	1	8	5	0	0	0	0	5	5
072312	14:15:06	10027	Trial	IncongruentRight	14	205	576	1	114	14:15:06	2377457	4	1	1	1	1	1	1	1	1	8	5	0	0	0	0	5	5
072312	14:15:06	10027	Trial	CongruentLeft	14	203	441	1	114	14:15:06	2378323	4	1	1	1	1	1	1	1	1	8	5	0	0	0	0	5	5
072312	14:15:06	10027	Trial	CongruentRight	14	205	449	1	114	14:15:06	2379323	4	1	1	1	1	1	1	1	1	8	5	0	0	0	0	5	5
072312	14:15:06	10027	Trial	IncongruentRight	14	205	473	1	114	14:15:06	2380349	4	1	1	1	1	1	1	1	1	8	5	0	0	0	0	5	5
072312	14:15:06	10027	Trial	CongruentLeft	14	203	466	1	114	14:15:06	2381349	4	1	1	1	1	1	1	1	1	8	5	0	0	0	0	5	5
072312	14:15:06	10027	Trial	IncongruentLeft	14	203	634	1	114	14:15:06	2382508	4	1	1	1	1	1	1	1	1	8	5	0	0	0	0	5	5
072312	14:15:06	10027	Trial	IncongruentLeft	14	203	530	1	114	14:15:06	2383401	4	1	1	1	1	1	1	1	1	8	5	0	0	0	0	5	5
072312	14:15:06	10027	Trial	CongruentRight	14	205	395	1	114	14:15:06	2384267	4	1	1	1	1	1	1	1	1	8	5	0	0	0	0	5	5
072312	14:15:06	10027	Trial	IncongruentRight	14	205	547	1	114	14:15:06	2385427	4	1	1	1	1	1	1	1	1	8	5	0	0	0	0	5	5
072312	14:15:06	10027	Trial	CongruentLeft	14	203	476	1	114	14:15:06	2386346	4	1	1	1	1	1	1	1	1	8	5	0	0	0	0	5	5
072312	14:15:06	10027	Trial	CongruentRight	14	205	436	1	114	14:15:06	2387306	4	1	1	1	1	1	1	1	1	8	5	0	0	0	0	5	5
072312	14:15:06	10027	Trial	IncongruentLeft	14	203	429	1	114	14:15:06	2388306	4	1	1	1	1	1	1	1	1	8	5	0	0	0	0	5	5
072312	14:15:06	10027	Trial	IncongruentRight	14	205	421	1	114	14:15:06	2389292	4	1	1	1	1	1	1	1	1	8	5	0	0	0	0	5	5
072312	14:15:06	10027	Trial	CongruentRight	14	205	509	1	114	14:15:06	2390385	4	1	1	1	1	1	1	1	1	8	5	0	0	0	0	5	5
072312	14:15:06	10027	Trial	CongruentLeft	14	203	438	1	114	14:15:06	2391318	4	1	1	1	1	1	1	1	1	8	5	0	0	0	0	5	5
072312	14:15:06	10027	Trial	CongruentRight	14	205	350	1	114	14:15:06	2392224	4	1	1	1	1	1	1	1	1	8	5	0	0	0	0	5	5
072312	14:15:06	10027	Trial	IncongruentRight	14	205	518	1	114	14:15:06	2393397	4	1	1	1	1	1	1	1	1	8	5	0	0	0	0	5	5
072312	14:15:06	10027	Trial	IncongruentLeft	14	203	415	1	114	14:15:06	2394290	4	1	1	1	1	1	1	1	1	8	5	0	0	0	0	5	5
072312	14:15:06	10027	Trial	IncongruentLeft	14	203	551	1	114	14:15:06	2395423	4	1	1	1	1	1	1	1	1	8	5	0	0	0	0	5	5
072312	14:15:06	10027	Trial	CongruentLeft	14	203	479	1	114	14:15:06	2396356	4	1	1	1	1	1	1	1	1	8	5	0	0	0	0	5	5
072312	14:15:06	10027	Trial	CongruentRight	14	205	376	1	114	14:15:06	2397249	4	1	1	1	1	1	1	1	1	8	5	0	0	0	0	5	5
072312	14:15:06	10027	Trial	IncongruentLeft	14	203	465	1	114	14:15:06	2398342	4	1	1	1	1	1	1	1	1	8	5	0	0	0	0	5	5
072312	14:15:06	10027	Trial	IncongruentRight	14	205	441	1	114	14:15:06	2399315	4	1	1	1	1	1	1	1	1	8	5	0	0	0	0	5	5
072312	14:15:06	10027	Trial	CongruentRight	14	205	417	1	114	14:15:06	2400288	4	1	1	1	1	1	1	1	1	8	5	0	0	0	0	5	5
072312	14:15:06	10027	Trial	CongruentLeft	14	203	362	1	114	14:15:06	2401234	4	1	1	1	1	1	1	1	1	8	5	0	0	0	0	5	5
072312	14:15:06	10027	Trial	IncongruentRight	14	205	434	1	114	14:15:06	2402300	4	1	1	1	1	1	1	1	1	8	5	0	0	0	0	5	5
072312	14:15:06	10027	Trial	IncongruentLeft	14	205	394	0	114	14:15:06	2403260	4	1	1	1	1	1	1	1	1	8	5	0	0	0	0	5	5
072312	14:15:06	10027	Trial	IncongruentRight	14	0	737	0	114	14:15:06	2404606	4	1	1	1	1	1	1	1	1	8	5	0	0	0	0	5	5
072312	14:15:06	10027	Trial	CongruentRight	14	205	669	1	114	14:15:06	2405552	4	1	1	1	1	1	1	1	1	8	5	0	0	0	0	5	5
072312	14:15:06	10027	Trial	IncongruentLeft	14	203	518	1	114	14:15:06	2406405	4	1	1	1	1	1	1	1	1	8	5	0	0	0	0	5	5
072312	14:15:06	10027	Trial	CongruentLeft	14	203	574	1	114	14:15:06	2407458	4	1	1	1	1	1	1	1	1	8	5	0	0	0	0	5	5
072312	14:15:06	10027	Trial	CongruentRight	14	205	554	1	114	14:15:06	2408444	4	1	1	1	1	1	1	1	1	8	5	0	0	0	0	5	5
072312	14:15:06	10027	Trial	IncongruentLeft	14	203	466	1	114	14:15:06	2409364	4	1	1	1	1	1	1	1	1	8	5	0	0	0	0	5	5
072312	14:15:06	10027	Trial	IncongruentRight	14	0	737	0	114	14:15:06	2410617	4	1	1	1	1	1	1	1	1	8	5	0	0	0	0	5	5
072312	14:15:06	10027	Trial	IncongruentRight	14	205	578	1	114	14:15:06	2411470	4	1	1	1	1	1	1	1	1	8	5	0	0	0	0	5	5
072312	14:15:06	10027	Trial	CongruentLeft	14	203	475	1	114	14:15:06	2412363	4	1	1	1	1	1	1	1	1	8	5	0	0	0	0	5	5
072312	14:15:06	10027	Trial	IncongruentLeft	14	203	564	1	114	14:15:06	2413455	4	1	1	1	1	1	1	1	1	8	5	0	0	0	0	5	5
072312	14:15:06	10027	Trial	CongruentRight	14	205	496	1	114	14:15:06	2414415	4	1	1	1	1	1	1	1	1	8	5	0	0	0	0	5	5
072312	14:15:06	10027	Trial	CongruentLeft	14	203	487	1	114	14:15:06	2415388	4	1	1	1	1	1	1	1	1	8	5	0	0	0	0	5	5
072312	14:15:06	10027	Trial	IncongruentRight	14	205	495	1	114	14:15:06	2416401	4	1	1	1	1	1	1	1	1	8	5	0	0	0	0	5	5
072312	14:15:06	10027	Trial	CongruentRight	14	205	520	1	114	14:15:06	2417427	4	1	1	1	1	1	1	1	1	8	5	0	0	0	0	5	5
072312	14:15:06	10027	Trial	IncongruentLeft	14	203	400	1	114	14:15:06	2418307	4	1	1	1	1	1	1	1	1	8	5	0	0	0	0	5	5
072312	14:15:06	10027	Trial	CongruentLeft	14	203	489	1	114	14:15:06	2419386	4	1	1	1	1	1	1	1	1	8	5	0	0	0	0	5	5
072312	14:15:06	10027	Trial	IncongruentLeft	14	203	593	1	114	14:15:06	2420493	4	1	1	1	1	1	1	1	1	8	5	0	0	0	0	5	5
072312	14:15:06	10027	Trial	IncongruentRight	14	205	457	1	114	14:15:06	2421359	4	1	1	1	1	1	1	1	1	8	5	0	0	0	0	5	5
072312	14:15:06	10027	Trial	CongruentRight	14	205	465	1	114	14:15:06	2422372	4	1	1	1	1	1	1	1	1	8	5	0	0	0	0	5	5
072312	14:15:06	10027	Trial	CongruentLeft	14	203	442	1	114	14:15:06	2423345	4	1	1	1	1	1	1	1	1	8	5	0	0	0	0	5	5
072312	14:15:06	10027	Trial	CongruentLeft	14	203	466	1	114	14:15:06	2424371	4	1	1	1	1	1	1	1	1	8	5	0	0	0	0	5	5
072312	14:15:06	10027	Trial	IncongruentRight	14	205	475	1	114	14:15:06	2425371	4	1	1	1	1	1	1	1	1	8	5	0	0	0	0	5	5
072312	14:15:06	10027	Trial	IncongruentLeft	14	203	451	1	114	14:15:06	2426357	4	1	1	1	1	1	1	1	1	8	5	0	0	0	0	5	5
072312	14:15:06	10027	Trial	IncongruentRight	14	205	604	1	114	14:15:06	2427503	4	1	1	1	1	1	1	1	1	8	5	0	0	0	0	5	5
072312	14:15:06	10027	Trial	CongruentRight	14	205	500	1	114	14:15:06	2428396	4	1	1	1	1	1	1	1	1	8	5	0	0	0	0	5	5
072312	14:15:06	10027	Trial	CongruentRight	14	205	508	1	114	14:15:06	2429409	4	1	1	1	1	1	1	1	1	8	5	0	0	0	0	5	5
072312	14:15:06	10027	Trial	IncongruentLeft	14	203	501	1	114	14:15:06	2430395	4	1	1	1	1	1	1	1	1	8	5	0	0	0	0	5	5
072312	14:15:06	10027	Trial	CongruentLeft	14	203	429	1	114	14:15:06	2431328	4	1	1	1	1	1	1	1	1	8	5	0	0	0	0	5	5
072312	14:15:06	10027	Trial	CongruentRight	14	205	453	1	114	14:15:06	2432355	4	1	1	1	1	1	1	1	1	8	5	0	0	0	0	5	5
072312	14:15:06	10027	Trial	CongruentLeft	14	203	413	1	114	14:15:06	2433314	4	1	1	1	1	1	1	1	1	8	5	0	0	0	0	5	5
072312	14:15:06	10027	Trial	IncongruentRight	14	205	438	1	114	14:15:06	2434341	4	1	1	1	1	1	1	1	1	8	5	0	0	0	0	5	5
072312	14:15:06	10027	Trial	CongruentRight	14	205	398	1	114	14:15:06	2435300	4	1	1	1	1	1	1	1	1	8	5	0	0	0	0	5	5
072312	14:15:06	10027	Trial	CongruentLeft	14	203	439	1	114	14:15:06	2436340	4	1	1	1	1	1	1	1	1	8	5	0	0	0	0	5	5
072312	14:15:06	10027	Trial	IncongruentLeft	14	203	431	1	114	14:15:06	2437326	4	1	1	1	1	1	1	1	1	8	5	0	0	0	0	5	5
072312	14:15:06	10027	Trial	IncongruentLeft	14	203	424	1	114	14:15:06	2438312	4	1	1	1	1	1	1	1	1	8	5	0	0	0	0	5	5
072312	14:15:06	10027	Trial	CongruentRight	14	205	528	1	114	14:15:06	2439419	4	1	1	1	1	1	1	1	1	8	5	0	0	0	0	5	5
072312	14:15:06	10027	Trial	IncongruentRight	14	205	569	1	114	14:15:06	2440458	4	1	1	1	1	1	1	1	1	8	5	0	0	0	0	5	5
072312	14:15:06	10027	Trial	CongruentLeft	14	203	449	1	114	14:15:06	2441338	4	1	1	1	1	1	1	1	1	8	5	0	0	0	0	5	5
072312	14:15:06	10027	Trial	IncongruentRight	14	205	601	1	114	14:15:06	2442497	4	1	1	1	1	1	1	1	1	8	5	0	0	0	0	5	5
072312	14:15:06	10027	Trial	CongruentRight	14	205	674	1	114	14:15:06	2443563	4	1	1	1	1	1	1	1	1	8	5	0	0	0	0	5	5
072312	14:15:06	10027	Trial	IncongruentLeft	14	203	442	1	114	14:15:06	2444337	4	1	1	1	1	1	1	1	1	8	5	0	0	0	0	5	5
072312	14:15:06	10027	Trial	CongruentLeft	14	203	482	1	114	14:15:06	2445376	4	1	1	1	1	1	1	1	1	8	5	0	0	0	0	5	5
072312	14:15:06	10027	Trial	CongruentRight	14	205	461	1	114	14:15:06	2446362	4	1	1	1	1	1	1	1	1	8	5	0	0	0	0	5	5
072312	14:15:06	10027	Trial	IncongruentLeft	14	203	390	1	114	14:15:06	2447295	4	1	1	1	1	1	1	1	1	8	5	0	0	0	0	5	5
072312	14:15:06	10027	Trial	CongruentRight	14	205	510	1	114	14:15:06	2448415	4	1	1	1	1	1	1	1	1	8	5	0	0	0	0	5	5
072312	14:15:06	10027	Trial	CongruentRight	14	205	470	1	114	14:15:06	2449374	4	1	1	1	1	1	1	1	1	8	5	0	0	0	0	5	5
072312	14:15:06	10027	Trial	IncongruentRight	14	205	527	1	114	14:15:06	2450427	4	1	1	1	1	1	1	1	1	8	5	0	0	0	0	5	5
072312	14:15:06	10027	Trial	CongruentLeft	14	203	407	1	114	14:15:06	2451307	4	1	1	1	1	1	1	1	1	8	5	0	0	0	0	5	5
072312	14:15:06	10027	Trial	IncongruentLeft	14	203	448	1	114	14:15:06	2452346	4	1	1	1	1	1	1	1	1	8	5	0	0	0	0	5	5
072312	14:15:06	10027	Trial	CongruentLeft	14	203	424	1	114	14:15:06	2453319	4	1	1	1	1	1	1	1	1	8	5	0	0	0	0	5	5
072312	14:15:06	10027	Trial	IncongruentRight	14	205	448	1	114	14:15:06	2454346	4	1	1	1	1	1	1	1	1	8	5	0	0	0	0	5	5
072312	14:15:06	10027	Trial	IncongruentLeft	14	203	425	1	114	14:15:06	2455332	4	1	1	1	1	1	1	1	1	8	5	0	0	0	0	5	5
072312	14:15:06	10027	Trial	CongruentRight	14	205	497	1	114	14:15:06	2456398	4	1	1	1	1	1	1	1	1	8	5	0	0	0	0	5	5
072312	14:15:06	10027	Trial	CongruentLeft	14	203	473	1	114	14:15:06	2457371	4	1	1	1	1	1	1	1	1	8	5	0	0	0	0	5	5
072312	14:15:06	10027	Trial	IncongruentLeft	14	205	386	0	114	14:15:06	2458291	4	1	1	1	1	1	1	1	1	8	5	0	0	0	0	5	5
072312	14:15:06	10027	Trial	CongruentLeft	14	203	554	1	114	14:15:06	2459450	4	1	1	1	1	1	1	1	1	8	5	0	0	0	0	5	5
072312	14:15:06	10027	Trial	IncongruentRight	14	205	659	1	114	14:15:06	2460557	4	1	1	1	1	1	1	1	1	8	5	0	0	0	0	5	5
072312	14:15:06	10027	Trial	CongruentRight	14	0	737	0	114	14:15:06	2461623	4	1	1	1	1	1	1	1	1	8	5	0	0	0	0	5	5
072312	14:15:06	10027	Trial	IncongruentLeft	14	203	659	1	114	14:15:06	2462556	4	1	1	1	1	1	1	1	1	8	5	0	0	0	0	5	5
072312	14:15:06	10027	Trial	CongruentLeft	14	203	492	1	114	14:15:06	2463396	4	1	1	1	1	1	1	1	1	8	5	0	0	0	0	5	5
072312	14:15:06	10027	Trial	IncongruentRight	14	205	503	1	114	14:15:06	2464408	4	1	1	1	1	1	1	1	1	8	5	0	0	0	0	5	5
072312	14:15:06	10027	Trial	IncongruentLeft	14	203	607	1	114	14:15:06	2465514	4	1	1	1	1	1	1	1	1	8	5	0	0	0	0	5	5
072312	14:15:06	10027	Trial	CongruentLeft	14	203	520	1	114	14:15:06	2466434	4	1	1	1	1	1	1	1	1	8	5	0	0	0	0	5	5
072312	14:15:06	10027	Trial	IncongruentLeft	14	203	592	1	114	14:15:06	2467501	4	1	1	1	1	1	1	1	1	8	5	0	0	0	0	5	5
072312	14:15:06	10027	Trial	CongruentRight	14	205	520	1	114	14:15:06	2468433	4	1	1	1	1	1	1	1	1	8	5	0	0	0	0	5	5
072312	14:15:06	10027	Trial	CongruentLeft	14	203	497	1	114	14:15:06	2469406	4	1	1	1	1	1	1	1	1	8	5	0	0	0	0	5	5
072312	14:15:06	10027	Trial	IncongruentRight	14	205	665	1	114	14:15:06	2470579	4	1	1	1	1	1	1	1	1	8	5	0	0	0	0	5	5
072312	14:15:06	10027	Trial	CongruentLeft	14	203	417	1	114	14:15:06	2471325	4	1	1	1	1	1	1	1	1	8	5	0	0	0	0	5	5
072312	14:15:06	10027	Trial	CongruentRight	14	205	522	1	114	14:15:06	2472432	4	1	1	1	1	1	1	1	1	8	5	0	0	0	0	5	5
072312	14:15:06	10027	Trial	IncongruentLeft	14	203	434	1	114	14:15:06	2473338	4	1	1	1	1	1	1	1	1	8	5	0	0	0	0	5	5
072312	14:15:06	10027	Trial750Eng	IncongruentRight750	15	0	487	0	114	14:15:06	2480295	4	1	1	1	1	1	1	1	1	8	5	0	0	0	0	5	5
072312	14:15:06	10027	Trial750Eng	IncongruentLeft750	15	205	322	0	114	14:15:06	2480895	4	1	1	1	1	1	1	1	1	8	5	0	0	0	0	5	5
072312	14:15:06	10027	Trial750Eng	CongruentRight750	15	0	487	0	114	14:15:06	2481801	4	1	1	1	1	1	1	1	1	8	5	0	0	0	0	5	5
072312	14:15:06	10027	Trial750Eng	IncongruentRight750	15	0	487	0	114	14:15:06	2482561	4	1	1	1	1	1	1	1	1	8	5	0	0	0	0	5	5
072312	14:15:06	10027	Trial750Eng	CongruentLeft750	15	203	392	1	114	14:15:06	2483227	4	1	1	1	1	1	1	1	1	8	5	0	0	0	0	5	5
072312	14:15:06	10027	Trial750Eng	CongruentRight750	15	205	432	1	114	14:15:06	2484027	4	1	1	1	1	1	1	1	1	8	5	0	0	0	0	5	5
072312	14:15:06	10027	Trial750Eng	IncongruentRight750	15	205	471	1	114	14:15:06	2484814	4	1	1	1	1	1	1	1	1	8	5	0	0	0	0	5	5
072312	14:15:06	10027	Trial750Eng	CongruentLeft750	15	203	396	1	114	14:15:06	2485480	4	1	1	1	1	1	1	1	1	8	5	0	0	0	0	5	5
072312	14:15:06	10027	Trial750Eng	IncongruentLeft750	15	203	388	1	114	14:15:06	2486239	4	1	1	1	1	1	1	1	1	8	5	0	0	0	0	5	5
072312	14:15:06	10027	Trial750Eng	IncongruentLeft750	15	205	458	0	114	14:15:06	2487053	4	1	1	1	1	1	1	1	1	8	5	0	0	0	0	5	5
072312	14:15:06	10027	Trial750Eng	CongruentRight750	15	0	487	0	114	14:15:06	2487826	4	1	1	1	1	1	1	1	1	8	5	0	0	0	0	5	5
072312	14:15:06	10027	Trial750Eng	IncongruentRight750	15	205	456	1	114	14:15:06	2488559	4	1	1	1	1	1	1	1	1	8	5	0	0	0	0	5	5
072312	14:15:06	10027	Trial750Eng	CongruentLeft750	15	203	400	1	114	14:15:06	2489265	4	1	1	1	1	1	1	1	1	8	5	0	0	0	0	5	5
072312	14:15:06	10027	Trial750Eng	CongruentRight750	15	205	438	1	114	14:15:06	2490051	4	1	1	1	1	1	1	1	1	8	5	0	0	0	0	5	5
072312	14:15:06	10027	Trial750Eng	IncongruentLeft750	15	203	363	1	114	14:15:06	2490718	4	1	1	1	1	1	1	1	1	8	5	0	0	0	0	5	5
072312	14:15:06	10027	Trial750Eng	IncongruentRight750	15	205	401	1	114	14:15:06	2491504	4	1	1	1	1	1	1	1	1	8	5	0	0	0	0	5	5
072312	14:15:06	10027	Trial750Eng	CongruentRight750	15	205	441	1	114	14:15:06	2492304	4	1	1	1	1	1	1	1	1	8	5	0	0	0	0	5	5
072312	14:15:06	10027	Trial750Eng	CongruentLeft750	15	203	367	1	114	14:15:06	2492970	4	1	1	1	1	1	1	1	1	8	5	0	0	0	0	5	5
072312	14:15:06	10027	Trial750Eng	CongruentRight750	15	203	325	0	114	14:15:06	2493677	4	1	1	1	1	1	1	1	1	8	5	0	0	0	0	5	5
072312	14:15:06	10027	Trial750Eng	IncongruentRight750	15	0	487	0	114	14:15:06	2494583	4	1	1	1	1	1	1	1	1	8	5	0	0	0	0	5	5
072312	14:15:06	10027	Trial750Eng	IncongruentLeft750	15	203	434	1	114	14:15:06	2495289	4	1	1	1	1	1	1	1	1	8	5	0	0	0	0	5	5
072312	14:15:06	10027	Trial750Eng	IncongruentLeft750	15	0	487	0	114	14:15:06	2496089	4	1	1	1	1	1	1	1	1	8	5	0	0	0	0	5	5
072312	14:15:06	10027	Trial750Eng	CongruentLeft750	15	0	487	0	114	14:15:06	2496849	4	1	1	1	1	1	1	1	1	8	5	0	0	0	0	5	5
072312	14:15:06	10027	Trial750Eng	CongruentRight750	15	0	487	0	114	14:15:06	2497609	4	1	1	1	1	1	1	1	1	8	5	0	0	0	0	5	5
072312	14:15:06	10027	Trial750Eng	IncongruentLeft750	15	0	487	0	114	14:15:06	2498368	4	1	1	1	1	1	1	1	1	8	5	0	0	0	0	5	5
072312	14:15:06	10027	Trial750Eng	IncongruentRight750	15	205	393	1	114	14:15:06	2499035	4	1	1	1	1	1	1	1	1	8	5	0	0	0	0	5	5
072312	14:15:06	10027	Trial750Eng	CongruentRight750	15	205	386	1	114	14:15:06	2499794	4	1	1	1	1	1	1	1	1	8	5	0	0	0	0	5	5
072312	14:15:06	10027	Trial750Eng	CongruentLeft750	15	203	343	1	114	14:15:06	2500487	4	1	1	1	1	1	1	1	1	8	5	0	0	0	0	5	5
072312	14:15:06	10027	Trial750Eng	IncongruentRight750	15	203	413	0	114	14:15:06	2501314	4	1	1	1	1	1	1	1	1	8	5	0	0	0	0	5	5
072312	14:15:06	10027	Trial750Eng	IncongruentLeft750	15	0	487	0	114	14:15:06	2502126	4	1	1	1	1	1	1	1	1	8	5	0	0	0	0	5	5
072312	14:15:06	10027	Trial750Eng	IncongruentRight750	15	205	426	1	114	14:15:06	2502833	4	1	1	1	1	1	1	1	1	8	5	0	0	0	0	5	5
072312	14:15:06	10027	Trial750Eng	CongruentRight750	15	205	419	1	114	14:15:06	2503579	4	1	1	1	1	1	1	1	1	8	5	0	0	0	0	5	5
072312	14:15:06	10027	Trial750Eng	IncongruentLeft750	15	203	473	1	114	14:15:06	2504379	4	1	1	1	1	1	1	1	1	8	5	0	0	0	0	5	5
072312	14:15:06	10027	Trial750Eng	CongruentLeft750	15	203	462	1	114	14:15:06	2505112	4	1	1	1	1	1	1	1	1	8	5	0	0	0	0	5	5
072312	14:15:06	10027	Trial750Eng	CongruentRight750	15	0	487	0	114	14:15:06	2505885	4	1	1	1	1	1	1	1	1	8	5	0	0	0	0	5	5
072312	14:15:06	10027	Trial750Eng	IncongruentLeft750	15	203	476	1	114	14:15:06	2506631	4	1	1	1	1	1	1	1	1	8	5	0	0	0	0	5	5
072312	14:15:06	10027	Trial750Eng	IncongruentRight750	15	205	420	1	114	14:15:06	2507338	4	1	1	1	1	1	1	1	1	8	5	0	0	0	0	5	5
072312	14:15:06	10027	Trial750Eng	IncongruentRight750	15	0	487	0	114	14:15:06	2508151	4	1	1	1	1	1	1	1	1	8	5	0	0	0	0	5	5
072312	14:15:06	10027	Trial750Eng	CongruentLeft750	15	203	402	1	114	14:15:06	2508831	4	1	1	1	1	1	1	1	1	8	5	0	0	0	0	5	5
072312	14:15:06	10027	Trial750Eng	IncongruentLeft750	15	203	458	1	114	14:15:06	2509644	4	1	1	1	1	1	1	1	1	8	5	0	0	0	0	5	5
072312	14:15:06	10027	Trial750Eng	CongruentRight750	15	205	384	1	114	14:15:06	2510323	4	1	1	1	1	1	1	1	1	8	5	0	0	0	0	5	5
072312	14:15:06	10027	Trial750Eng	CongruentLeft750	15	0	487	0	114	14:15:06	2511163	4	1	1	1	1	1	1	1	1	8	5	0	0	0	0	5	5
072312	14:15:06	10027	Trial750Eng	IncongruentRight750	15	205	414	1	114	14:15:06	2511856	4	1	1	1	1	1	1	1	1	8	5	0	0	0	0	5	5
072312	14:15:06	10027	Trial750Eng	CongruentRight750	15	205	407	1	114	14:15:06	2512602	4	1	1	1	1	1	1	1	1	8	5	0	0	0	0	5	5
072312	14:15:06	10027	Trial750Eng	IncongruentLeft750	15	203	348	1	114	14:15:06	2513295	4	1	1	1	1	1	1	1	1	8	5	0	0	0	0	5	5
072312	14:15:06	10027	Trial750Eng	CongruentLeft750	15	203	418	1	114	14:15:06	2514108	4	1	1	1	1	1	1	1	1	8	5	0	0	0	0	5	5
072312	14:15:06	10027	Trial750Eng	IncongruentLeft750	15	205	378	0	114	14:15:06	2514828	4	1	1	1	1	1	1	1	1	8	5	0	0	0	0	5	5
072312	14:15:06	10027	Trial750Eng	IncongruentRight750	15	0	487	0	114	14:15:06	2515668	4	1	1	1	1	1	1	1	1	8	5	0	0	0	0	5	5
072312	14:15:06	10027	Trial750Eng	CongruentRight750	15	205	405	1	114	14:15:06	2516347	4	1	1	1	1	1	1	1	1	8	5	0	0	0	0	5	5
072312	14:15:06	10027	Trial750Eng	CongruentLeft750	15	203	398	1	114	14:15:06	2517094	4	1	1	1	1	1	1	1	1	8	5	0	0	0	0	5	5
072312	14:15:06	10027	Trial750Eng	CongruentLeft750	15	0	487	0	114	14:15:06	2517934	4	1	1	1	1	1	1	1	1	8	5	0	0	0	0	5	5
072312	14:15:06	10027	Trial750Eng	IncongruentRight750	15	0	487	0	114	14:15:06	2518693	4	1	1	1	1	1	1	1	1	8	5	0	0	0	0	5	5
072312	14:15:06	10027	Trial750Eng	IncongruentLeft750	15	0	487	0	114	14:15:06	2519453	4	1	1	1	1	1	1	1	1	8	5	0	0	0	0	5	5
072312	14:15:06	10027	Trial750Eng	IncongruentRight750	15	205	364	1	114	14:15:06	2520093	4	1	1	1	1	1	1	1	1	8	5	0	0	0	0	5	5
072312	14:15:06	10027	Trial750Eng	CongruentRight750	15	203	341	0	114	14:15:06	2520826	4	1	1	1	1	1	1	1	1	8	5	0	0	0	0	5	5
072312	14:15:06	10027	Trial750Eng	CongruentRight750	15	0	487	0	114	14:15:06	2521719	4	1	1	1	1	1	1	1	1	8	5	0	0	0	0	5	5
072312	14:15:06	10027	Trial750Eng	IncongruentLeft750	15	0	487	0	114	14:15:06	2522479	4	1	1	1	1	1	1	1	1	8	5	0	0	0	0	5	5
072312	14:15:06	10027	Trial750Eng	CongruentLeft750	15	0	487	0	114	14:15:06	2523238	4	1	1	1	1	1	1	1	1	8	5	0	0	0	0	5	5
072312	14:15:06	10027	Trial750Eng	CongruentRight750	15	0	487	0	114	14:15:06	2523998	4	1	1	1	1	1	1	1	1	8	5	0	0	0	0	5	5
072312	14:15:06	10027	Trial750Eng	CongruentLeft750	15	0	487	0	114	14:15:06	2524784	4	1	1	1	1	1	1	1	1	8	5	0	0	0	0	5	5
072312	14:15:06	10027	Trial750Eng	IncongruentRight750	15	205	456	1	114	14:15:06	2525517	4	1	1	1	1	1	1	1	1	8	5	0	0	0	0	5	5
072312	14:15:06	10027	Trial750Eng	CongruentRight750	15	205	449	1	114	14:15:06	2526263	4	1	1	1	1	1	1	1	1	8	5	0	0	0	0	5	5
072312	14:15:06	10027	Trial750Eng	CongruentLeft750	15	0	487	0	114	14:15:06	2527050	4	1	1	1	1	1	1	1	1	8	5	0	0	0	0	5	5
072312	14:15:06	10027	Trial750Eng	IncongruentLeft750	15	0	487	0	114	14:15:06	2527810	4	1	1	1	1	1	1	1	1	8	5	0	0	0	0	5	5
072312	14:15:06	10027	Trial750Eng	IncongruentLeft750	15	203	359	1	114	14:15:06	2528449	4	1	1	1	1	1	1	1	1	8	5	0	0	0	0	5	5
072312	14:15:06	10027	Trial750Eng	CongruentRight750	15	205	464	1	114	14:15:06	2529302	4	1	1	1	1	1	1	1	1	8	5	0	0	0	0	5	5
072312	14:15:06	10027	Trial750Eng	IncongruentRight750	15	205	421	1	114	14:15:06	2530008	4	1	1	1	1	1	1	1	1	8	5	0	0	0	0	5	5
072312	14:15:06	10027	Trial750Eng	CongruentLeft750	15	203	443	1	114	14:15:06	2530782	4	1	1	1	1	1	1	1	1	8	5	0	0	0	0	5	5
072312	14:15:06	10027	Trial750Eng	IncongruentRight750	15	205	403	1	114	14:15:06	2531501	4	1	1	1	1	1	1	1	1	8	5	0	0	0	0	5	5
072312	14:15:06	10027	Trial750Eng	CongruentRight750	15	205	409	1	114	14:15:06	2532248	4	1	1	1	1	1	1	1	1	8	5	0	0	0	0	5	5
072312	14:15:06	10027	Trial750Eng	IncongruentLeft750	15	203	398	1	114	14:15:06	2532994	4	1	1	1	1	1	1	1	1	8	5	0	0	0	0	5	5
072312	14:15:06	10027	Trial750Eng	CongruentLeft750	15	203	356	1	114	14:15:06	2533687	4	1	1	1	1	1	1	1	1	8	5	0	0	0	0	5	5
072312	14:15:06	10027	Trial750Eng	CongruentRight750	15	0	487	0	114	14:15:06	2534567	4	1	1	1	1	1	1	1	1	8	5	0	0	0	0	5	5
072312	14:15:06	10027	Trial750Eng	IncongruentLeft750	15	203	402	1	114	14:15:06	2535247	4	1	1	1	1	1	1	1	1	8	5	0	0	0	0	5	5
072312	14:15:06	10027	Trial750Eng	CongruentRight750	15	0	487	0	114	14:15:06	2536073	4	1	1	1	1	1	1	1	1	8	5	0	0	0	0	5	5
072312	14:15:06	10027	Trial750Eng	CongruentRight750	15	205	415	1	114	14:15:06	2536766	4	1	1	1	1	1	1	1	1	8	5	0	0	0	0	5	5
072312	14:15:06	10027	Trial750Eng	IncongruentRight750	15	0	487	0	114	14:15:06	2537579	4	1	1	1	1	1	1	1	1	8	5	0	0	0	0	5	5
072312	14:15:06	10027	Trial750Eng	CongruentLeft750	15	203	397	1	114	14:15:06	2538259	4	1	1	1	1	1	1	1	1	8	5	0	0	0	0	5	5
072312	14:15:06	10027	Trial750Eng	IncongruentLeft750	15	0	487	0	114	14:15:06	2539085	4	1	1	1	1	1	1	1	1	8	5	0	0	0	0	5	5
072312	14:15:06	10027	Trial750Eng	CongruentLeft750	15	203	379	1	114	14:15:06	2539738	4	1	1	1	1	1	1	1	1	8	5	0	0	0	0	5	5
072312	14:15:06	10027	Trial750Eng	IncongruentRight750	15	203	356	0	114	14:15:06	2540471	4	1	1	1	1	1	1	1	1	8	5	0	0	0	0	5	5
072312	14:15:06	10027	Trial750Eng	IncongruentLeft750	15	0	487	0	114	14:15:06	2541351	4	1	1	1	1	1	1	1	1	8	5	0	0	0	0	5	5
072312	14:15:06	10027	Trial750Eng	CongruentRight750	15	205	450	1	114	14:15:06	2542070	4	1	1	1	1	1	1	1	1	8	5	0	0	0	0	5	5
072312	14:15:06	10027	Trial750Eng	CongruentLeft750	15	0	487	0	114	14:15:06	2542857	4	1	1	1	1	1	1	1	1	8	5	0	0	0	0	5	5
072312	14:15:06	10027	Trial750Eng	IncongruentLeft750	15	0	487	0	114	14:15:06	2543617	4	1	1	1	1	1	1	1	1	8	5	0	0	0	0	5	5
072312	14:15:06	10027	Trial750Eng	CongruentLeft750	15	203	424	1	114	14:15:06	2544310	4	1	1	1	1	1	1	1	1	8	5	0	0	0	0	5	5
072312	14:15:06	10027	Trial750Eng	IncongruentRight750	15	205	368	1	114	14:15:06	2545016	4	1	1	1	1	1	1	1	1	8	5	0	0	0	0	5	5
072312	14:15:06	10027	Trial750Eng	CongruentRight750	15	205	406	1	114	14:15:06	2545802	4	1	1	1	1	1	1	1	1	8	5	0	0	0	0	5	5
072312	14:15:06	10027	Trial750Eng	IncongruentLeft750	15	205	475	0	114	14:15:06	2546615	4	1	1	1	1	1	1	1	1	8	5	0	0	0	0	5	5
072312	14:15:06	10027	Trial750Eng	CongruentLeft750	15	0	487	0	114	14:15:06	2547375	4	1	1	1	1	1	1	1	1	8	5	0	0	0	0	5	5
072312	14:15:06	10027	Trial750Eng	IncongruentRight750	15	205	425	1	114	14:15:06	2548081	4	1	1	1	1	1	1	1	1	8	5	0	0	0	0	5	5
072312	14:15:06	10027	Trial750Eng	IncongruentLeft750	15	203	466	1	114	14:15:06	2548881	4	1	1	1	1	1	1	1	1	8	5	0	0	0	0	5	5
072312	14:15:06	10027	Trial750Eng	CongruentLeft750	15	203	407	1	114	14:15:06	2549561	4	1	1	1	1	1	1	1	1	8	5	0	0	0	0	5	5
072312	14:15:06	10027	Trial750Eng	IncongruentLeft750	15	205	367	0	114	14:15:06	2550280	4	1	1	1	1	1	1	1	1	8	5	0	0	0	0	5	5
072312	14:15:06	10027	Trial750Eng	CongruentRight750	15	205	470	1	114	14:15:06	2551133	4	1	1	1	1	1	1	1	1	8	5	0	0	0	0	5	5
072312	14:15:06	10027	Trial750Eng	CongruentLeft750	15	203	459	1	114	14:15:06	2551867	4	1	1	1	1	1	1	1	1	8	5	0	0	0	0	5	5
072312	14:15:06	10027	Trial750Eng	IncongruentRight750	15	0	487	0	114	14:15:06	2552640	4	1	1	1	1	1	1	1	1	8	5	0	0	0	0	5	5
072312	14:15:06	10027	Trial750Eng	CongruentLeft750	15	203	425	1	114	14:15:06	2553346	4	1	1	1	1	1	1	1	1	8	5	0	0	0	0	5	5
072312	14:15:06	10027	Trial750Eng	CongruentRight750	15	205	449	1	114	14:15:06	2554119	4	1	1	1	1	1	1	1	1	8	5	0	0	0	0	5	5
072312	14:15:06	10027	Trial750Eng	IncongruentLeft750	15	203	390	1	114	14:15:06	2554812	4	1	1	1	1	1	1	1	1	8	5	0	0	0	0	5	5
072312	14:15:06	10027	WordsAbsEngBaseline	PAbsEngBaseline1	16	Abs1	6336	0	114	14:15:06	2566847	4	1	1	1	1	1	1	1	1	8	5	0	0	0	0	5	5
072312	14:15:06	10027	WordsAbsEngBaseline	AbsEngBaseline1	16	Abs1	20133	0	114	14:15:06	2587012	4	1	1	1	1	1	1	1	1	8	5	1	0	0	0	5	5
072312	14:15:06	10027	WordsAbsEngBaseline	AbsEngBaseline2	16	Abs2	35543	0	114	14:15:06	2622598	4	1	1	1	1	1	1	1	1	8	5	1	0	0	0	5	5
072312	14:15:06	10027	WordsAbsEngBaseline	AbsEngBaseline3	16	Abs1	8621	0	114	14:15:06	2631261	4	1	1	1	1	1	1	1	1	8	5	2	0	0	0	5	5
072312	14:15:06	10027	Trial2BackEngS	NS	17	0	1000	1	114	14:15:06	2682254	4	1	1	1	1	1	1	1	1	8	5	2	0	0	0	5	5
072312	14:15:06	10027	Trial2BackEngS	NS	17	0	1000	1	114	14:15:06	2683773	4	1	1	1	1	1	1	1	1	8	5	2	0	0	0	5	5
072312	14:15:06	10027	Trial2BackEngS	NS	17	0	1000	1	114	14:15:06	2685292	4	1	1	1	1	1	1	1	1	8	5	2	0	0	0	5	5
072312	14:15:06	10027	Trial2BackEngS	YS	17	0	1000	0	114	14:15:06	2686812	4	1	1	1	1	1	1	1	1	8	5	2	0	0	0	5	5
072312	14:15:06	10027	Trial2BackEngS	NS	17	0	1000	1	114	14:15:06	2688331	4	1	1	1	1	1	1	1	1	8	5	2	0	0	0	5	5
072312	14:15:06	10027	Trial2BackEngS	NS	17	0	1000	1	114	14:15:06	2689851	4	1	1	1	1	1	1	1	1	8	5	2	0	0	0	5	5
072312	14:15:06	10027	Trial2BackEngS	NS	17	0	1000	1	114	14:15:06	2691370	4	1	1	1	1	1	1	1	1	8	5	2	0	0	0	5	5
072312	14:15:06	10027	Trial2BackEngS	NS	17	0	1000	1	114	14:15:06	2692889	4	1	1	1	1	1	1	1	1	8	5	2	0	0	0	5	5
072312	14:15:06	10027	Trial2BackEngS	YS	17	57	639	1	114	14:15:06	2694062	4	1	1	1	1	1	1	1	1	8	5	2	0	0	0	5	5
072312	14:15:06	10027	Trial2BackEngS	NS	17	0	1000	1	114	14:15:06	2695915	4	1	1	1	1	1	1	1	1	8	5	2	0	0	0	5	5
072312	14:15:06	10027	Trial2BackEngS	NS	17	0	1000	1	114	14:15:06	2697434	4	1	1	1	1	1	1	1	1	8	5	2	0	0	0	5	5
072312	14:15:06	10027	Trial2BackEngS	YS	17	0	1000	0	114	14:15:06	2698954	4	1	1	1	1	1	1	1	1	8	5	2	0	0	0	5	5
072312	14:15:06	10027	Trial2BackEngS	NS	17	0	1000	1	114	14:15:06	2700473	4	1	1	1	1	1	1	1	1	8	5	2	0	0	0	5	5
072312	14:15:06	10027	Trial2BackEngS	NS	17	0	1000	1	114	14:15:06	2701992	4	1	1	1	1	1	1	1	1	8	5	2	0	0	0	5	5
072312	14:15:06	10027	Trial2BackEngS	NS	17	0	1000	1	114	14:15:06	2703512	4	1	1	1	1	1	1	1	1	8	5	2	0	0	0	5	5
072312	14:15:06	10027	Trial2BackEngS	YS	17	0	1000	0	114	14:15:06	2705031	4	1	1	1	1	1	1	1	1	8	5	2	0	0	0	5	5
072312	14:15:06	10027	Trial2BackEngS	NS	17	0	1000	1	114	14:15:06	2706551	4	1	1	1	1	1	1	1	1	8	5	2	0	0	0	5	5
072312	14:15:06	10027	Trial2BackEngS	NS	17	0	1000	1	114	14:15:06	2708070	4	1	1	1	1	1	1	1	1	8	5	2	0	0	0	5	5
072312	14:15:06	10027	Trial2BackEngS	NS	17	57	739	0	114	14:15:06	2709336	4	1	1	1	1	1	1	1	1	8	5	2	0	0	0	5	5
072312	14:15:06	10027	Trial2BackEngS	NS	17	0	1000	1	114	14:15:06	2711095	4	1	1	1	1	1	1	1	1	8	5	2	0	0	0	5	5
072312	14:15:06	10027	Trial2BackEngS	YS	17	57	849	1	114	14:15:06	2712468	4	1	1	1	1	1	1	1	1	8	5	2	0	0	0	5	5
072312	14:15:06	10027	Trial2BackEngS	NS	17	0	1000	1	114	14:15:06	2714121	4	1	1	1	1	1	1	1	1	8	5	2	0	0	0	5	5
072312	14:15:06	10027	Trial2BackEngS	NS	17	0	1000	1	114	14:15:06	2715641	4	1	1	1	1	1	1	1	1	8	5	2	0	0	0	5	5
072312	14:15:06	10027	Trial2BackEngS	NS	17	0	1000	1	114	14:15:06	2717160	4	1	1	1	1	1	1	1	1	8	5	2	0	0	0	5	5
072312	14:15:06	10027	Trial2BackEngS	NS	17	0	1000	1	114	14:15:06	2718679	4	1	1	1	1	1	1	1	1	8	5	2	0	0	0	5	5
072312	14:15:06	10027	Trial2BackEngS	NS	17	0	1000	1	114	14:15:06	2720198	4	1	1	1	1	1	1	1	1	8	5	2	0	0	0	5	5
072312	14:15:06	10027	Trial2BackEngS	NS	17	0	1000	1	114	14:15:06	2721718	4	1	1	1	1	1	1	1	1	8	5	2	0	0	0	5	5
072312	14:15:06	10027	Trial2BackEngS	NS	17	0	1000	1	114	14:15:06	2723237	4	1	1	1	1	1	1	1	1	8	5	2	0	0	0	5	5
072312	14:15:06	10027	Trial2BackEngS	NS	17	0	1000	1	114	14:15:06	2724757	4	1	1	1	1	1	1	1	1	8	5	2	0	0	0	5	5
072312	14:15:06	10027	Trial2BackEngS	NS	17	0	1000	1	114	14:15:06	2726276	4	1	1	1	1	1	1	1	1	8	5	2	0	0	0	5	5
072312	14:15:06	10027	Trial2BackEngS	NS	17	0	1000	1	114	14:15:06	2727795	4	1	1	1	1	1	1	1	1	8	5	2	0	0	0	5	5
072312	14:15:06	10027	Trial2BackEngS	YS	17	57	693	1	114	14:15:06	2729021	4	1	1	1	1	1	1	1	1	8	5	2	0	0	0	5	5
072312	14:15:06	10027	Trial2BackEngS	NS	17	0	1000	1	114	14:15:06	2730821	4	1	1	1	1	1	1	1	1	8	5	2	0	0	0	5	5
072312	14:15:06	10027	Trial2BackEngS	NS	17	0	1000	1	114	14:15:06	2732340	4	1	1	1	1	1	1	1	1	8	5	2	0	0	0	5	5
072312	14:15:06	10027	Trial2BackEngS	NS	17	0	1000	1	114	14:15:06	2733859	4	1	1	1	1	1	1	1	1	8	5	2	0	0	0	5	5
072312	14:15:06	10027	Trial2BackEngS	YS	17	57	516	1	114	14:15:06	2734899	4	1	1	1	1	1	1	1	1	8	5	2	0	0	0	5	5
072312	14:15:06	10027	Trial2BackEngS	NS	17	0	1000	1	114	14:15:06	2736885	4	1	1	1	1	1	1	1	1	8	5	2	0	0	0	5	5
072312	14:15:06	10027	Trial2BackEngS	NS	17	0	1000	1	114	14:15:06	2738404	4	1	1	1	1	1	1	1	1	8	5	2	0	0	0	5	5
072312	14:15:06	10027	Trial2BackEngS	NS	17	0	1000	1	114	14:15:06	2739924	4	1	1	1	1	1	1	1	1	8	5	2	0	0	0	5	5
072312	14:15:06	10027	Trial2BackEngS	NS	17	0	1000	1	114	14:15:06	2741443	4	1	1	1	1	1	1	1	1	8	5	2	0	0	0	5	5
072312	14:15:06	10027	Trial2BackEngS	NS	17	0	1000	1	114	14:15:06	2742963	4	1	1	1	1	1	1	1	1	8	5	2	0	0	0	5	5
072312	14:15:06	10027	Trial2BackEngS	NS	17	0	1000	1	114	14:15:06	2744482	4	1	1	1	1	1	1	1	1	8	5	2	0	0	0	5	5
072312	14:15:06	10027	Trial2BackEngS	NS	17	0	1000	1	114	14:15:06	2746001	4	1	1	1	1	1	1	1	1	8	5	2	0	0	0	5	5
072312	14:15:06	10027	Trial2BackEngS	YS	17	0	1000	0	114	14:15:06	2747521	4	1	1	1	1	1	1	1	1	8	5	2	0	0	0	5	5
072312	14:15:06	10027	Trial2BackEngS	NS	17	0	1000	1	114	14:15:06	2749040	4	1	1	1	1	1	1	1	1	8	5	2	0	0	0	5	5
072312	14:15:06	10027	Trial2BackEngS	NS	17	0	1000	1	114	14:15:06	2750559	4	1	1	1	1	1	1	1	1	8	5	2	0	0	0	5	5
072312	14:15:06	10027	Trial2BackEngS	NS	17	0	1000	1	114	14:15:06	2752079	4	1	1	1	1	1	1	1	1	8	5	2	0	0	0	5	5
072312	14:15:06	10027	Trial2BackEngS	NS	17	0	1000	1	114	14:15:06	2753598	4	1	1	1	1	1	1	1	1	8	5	2	0	0	0	5	5
072312	14:15:06	10027	Trial2BackEngS	YS	17	57	409	1	114	14:15:06	2754531	4	1	1	1	1	1	1	1	1	8	5	2	0	0	0	5	5
072312	14:15:06	10027	Trial2BackEngS	NS	17	0	1000	1	114	14:15:06	2756624	4	1	1	1	1	1	1	1	1	8	5	2	0	0	0	5	5
072312	14:15:06	10027	Trial2BackEngS	NS	17	0	1000	1	114	14:15:06	2758143	4	1	1	1	1	1	1	1	1	8	5	2	0	0	0	5	5
072312	14:15:06	10027	Trial2BackEngS	NS	17	0	1000	1	114	14:15:06	2759662	4	1	1	1	1	1	1	1	1	8	5	2	0	0	0	5	5
072312	14:15:06	10027	Trial2BackEngS	NS	17	0	1000	1	114	14:15:06	2761182	4	1	1	1	1	1	1	1	1	8	5	2	0	0	0	5	5
072312	14:15:06	10027	Trial2BackEngS	NS	17	0	1000	1	114	14:15:06	2762701	4	1	1	1	1	1	1	1	1	8	5	2	0	0	0	5	5
072312	14:15:06	10027	Trial2BackEngS	NS	17	0	1000	1	114	14:15:06	2764220	4	1	1	1	1	1	1	1	1	8	5	2	0	0	0	5	5
072312	14:15:06	10027	Trial2BackEngS	YS	17	57	907	1	114	14:15:06	2765660	4	1	1	1	1	1	1	1	1	8	5	2	0	0	0	5	5
072312	14:15:06	10027	Trial2BackEngS	NS	17	0	1000	1	114	14:15:06	2767246	4	1	1	1	1	1	1	1	1	8	5	2	0	0	0	5	5
072312	14:15:06	10027	Trial2BackEngS	NS	17	0	1000	1	114	14:15:06	2768765	4	1	1	1	1	1	1	1	1	8	5	2	0	0	0	5	5
072312	14:15:06	10027	Trial2BackEngS	NS	17	0	1000	1	114	14:15:06	2770285	4	1	1	1	1	1	1	1	1	8	5	2	0	0	0	5	5
072312	14:15:06	10027	Trial2BackEngS	NS	17	0	1000	1	114	14:15:06	2771804	4	1	1	1	1	1	1	1	1	8	5	2	0	0	0	5	5
072312	14:15:06	10027	Trial2BackEngS	NS	17	0	1000	1	114	14:15:06	2773323	4	1	1	1	1	1	1	1	1	8	5	2	0	0	0	5	5
072312	14:15:06	10027	Trial2BackEngS	NS	17	0	1000	1	114	14:15:06	2774843	4	1	1	1	1	1	1	1	1	8	5	2	0	0	0	5	5
072312	14:15:06	10027	Trial2BackEngS	NS	17	0	1000	1	114	14:15:06	2776362	4	1	1	1	1	1	1	1	1	8	5	2	0	0	0	5	5
072312	14:15:06	10027	Trial2BackEngS	YS	17	0	1000	0	114	14:15:06	2777882	4	1	1	1	1	1	1	1	1	8	5	2	0	0	0	5	5
072312	14:15:06	10027	Trial2BackEngS	NS	17	0	1000	1	114	14:15:06	2779401	4	1	1	1	1	1	1	1	1	8	5	2	0	0	0	5	5
072312	14:15:06	10027	Trial2BackEngS	NS	17	0	1000	1	114	14:15:06	2780921	4	1	1	1	1	1	1	1	1	8	5	2	0	0	0	5	5
072312	14:15:06	10027	Trial2BackEngS	NS	17	0	1000	1	114	14:15:06	2782440	4	1	1	1	1	1	1	1	1	8	5	2	0	0	0	5	5
072312	14:15:06	10027	Trial2BackEngS	NS	17	57	895	0	114	14:15:06	2783866	4	1	1	1	1	1	1	1	1	8	5	2	0	0	0	5	5
072312	14:15:06	10027	Trial2BackEngS	YS	17	0	1000	0	114	14:15:06	2785465	4	1	1	1	1	1	1	1	1	8	5	2	0	0	0	5	5
072312	14:15:06	10027	Trial2BackEngS	NS	17	0	1000	1	114	14:15:06	2786985	4	1	1	1	1	1	1	1	1	8	5	2	0	0	0	5	5
072312	14:15:06	10027	Trial2BackEngS	NS	17	0	1000	1	114	14:15:06	2788504	4	1	1	1	1	1	1	1	1	8	5	2	0	0	0	5	5
072312	14:15:06	10027	Trial2BackEngS	YS	17	57	414	1	114	14:15:06	2789450	4	1	1	1	1	1	1	1	1	8	5	2	0	0	0	5	5
072312	14:15:06	10027	Trial2BackEngS	NS	17	0	1000	1	114	14:15:06	2791529	4	1	1	1	1	1	1	1	1	8	5	2	0	0	0	5	5
072312	14:15:06	10027	Trial2BackEngS	NS	17	0	1000	1	114	14:15:06	2793049	4	1	1	1	1	1	1	1	1	8	5	2	0	0	0	5	5
072312	14:15:06	10027	Trial2BackEngS	NS	17	0	1000	1	114	14:15:06	2794568	4	1	1	1	1	1	1	1	1	8	5	2	0	0	0	5	5
072312	14:15:06	10027	Trial2BackEngS	NS	17	0	1000	1	114	14:15:06	2796088	4	1	1	1	1	1	1	1	1	8	5	2	0	0	0	5	5
072312	14:15:06	10027	Trial2BackEngS	NS	17	0	1000	1	114	14:15:06	2797607	4	1	1	1	1	1	1	1	1	8	5	2	0	0	0	5	5
072312	14:15:06	10027	Trial2BackEngS	NS	17	0	1000	1	114	14:15:06	2799126	4	1	1	1	1	1	1	1	1	8	5	2	0	0	0	5	5
072312	14:15:06	10027	Trial2BackEngS	YS	17	57	464	1	114	14:15:06	2800113	4	1	1	1	1	1	1	1	1	8	5	2	0	0	0	5	5
072312	14:15:06	10027	Trial2BackEngS	NS	17	0	1000	1	114	14:15:06	2802152	4	1	1	1	1	1	1	1	1	8	5	2	0	0	0	5	5
072312	14:15:06	10027	Trial2BackEngS	NS	17	0	1000	1	114	14:15:06	2803671	4	1	1	1	1	1	1	1	1	8	5	2	0	0	0	5	5
072312	14:15:06	10027	Trial2BackEngS	NS	17	0	1000	1	114	14:15:06	2805191	4	1	1	1	1	1	1	1	1	8	5	2	0	0	0	5	5
072312	14:15:06	10027	Trial2BackEngS	NS	17	0	1000	1	114	14:15:06	2806710	4	1	1	1	1	1	1	1	1	8	5	2	0	0	0	5	5
072312	14:15:06	10027	Trial2BackEngS	YS	17	57	400	1	114	14:15:06	2807643	4	1	1	1	1	1	1	1	1	8	5	2	0	0	0	5	5
072312	14:15:06	10027	Trial2BackEngS	NS	17	0	1000	1	114	14:15:06	2809736	4	1	1	1	1	1	1	1	1	8	5	2	0	0	0	5	5
072312	14:15:06	10027	Trial2BackEngS	NS	17	0	1000	1	114	14:15:06	2811255	4	1	1	1	1	1	1	1	1	8	5	2	0	0	0	5	5
072312	14:15:06	10027	Trial2BackEngS	NS	17	0	1000	1	114	14:15:06	2812774	4	1	1	1	1	1	1	1	1	8	5	2	0	0	0	5	5
072312	14:15:06	10027	Trial2BackEngS	NS	17	57	464	0	114	14:15:06	2813760	4	1	1	1	1	1	1	1	1	8	5	2	0	0	0	5	5
072312	14:15:06	10027	Trial2BackEngS	YS	17	0	1000	0	114	14:15:06	2815800	4	1	1	1	1	1	1	1	1	8	5	2	0	0	0	5	5
072312	14:15:06	10027	Trial2BackEngS	NS	17	0	1000	1	114	14:15:06	2817319	4	1	1	1	1	1	1	1	1	8	5	2	0	0	0	5	5
072312	14:15:06	10027	Trial2BackEngS	NS	17	0	1000	1	114	14:15:06	2818838	4	1	1	1	1	1	1	1	1	8	5	2	0	0	0	5	5
072312	14:15:06	10027	Trial2BackEngS	YS	17	57	399	1	114	14:15:06	2819771	4	1	1	1	1	1	1	1	1	8	5	2	0	0	0	5	5
072312	14:15:06	10027	Trial2BackEngS	NS	17	0	1000	1	114	14:15:06	2821864	4	1	1	1	1	1	1	1	1	8	5	2	0	0	0	5	5
072312	14:15:06	10027	Trial2BackEngS	NS	17	0	1000	1	114	14:15:06	2823383	4	1	1	1	1	1	1	1	1	8	5	2	0	0	0	5	5
072312	14:15:06	10027	Trial2BackEngS	NS	17	0	1000	1	114	14:15:06	2824903	4	1	1	1	1	1	1	1	1	8	5	2	0	0	0	5	5
072312	14:15:06	10027	Trial2BackEngS	NS	17	0	1000	1	114	14:15:06	2826422	4	1	1	1	1	1	1	1	1	8	5	2	0	0	0	5	5
072312	14:15:06	10027	Trial2BackEngS	NS	17	0	1000	1	114	14:15:06	2827941	4	1	1	1	1	1	1	1	1	8	5	2	0	0	0	5	5
072312	14:15:06	10027	Trial2BackEngS	NS	17	0	1000	1	114	14:15:06	2829461	4	1	1	1	1	1	1	1	1	8	5	2	0	0	0	5	5
072312	14:15:06	10027	Trial2BackEngS	NS	17	0	1000	1	114	14:15:06	2830980	4	1	1	1	1	1	1	1	1	8	5	2	0	0	0	5	5
072312	14:15:06	10027	Trial2BackEngS	NS	17	0	1000	1	114	14:15:06	2832500	4	1	1	1	1	1	1	1	1	8	5	2	0	0	0	5	5
072312	14:15:06	10027	Trial2BackEngS	YS	17	0	1000	0	114	14:15:06	2834019	4	1	1	1	1	1	1	1	1	8	5	2	0	0	0	5	5
072312	14:15:06	10027	Trial2BackEngS	NS	17	0	1000	1	114	14:15:06	2835538	4	1	1	1	1	1	1	1	1	8	5	2	0	0	0	5	5
072312	14:15:06	10027	Trial2BackEngS	NS	17	0	1000	1	114	14:15:06	2837058	4	1	1	1	1	1	1	1	1	8	5	2	0	0	0	5	5
072312	14:15:06	10027	Trial2BackEngS	NS	17	57	548	0	114	14:15:06	2838137	4	1	1	1	1	1	1	1	1	8	5	2	0	0	0	5	5
072312	14:15:06	10027	Trial2BackEngS	NS	17	0	1000	1	114	14:15:06	2840083	4	1	1	1	1	1	1	1	1	8	5	2	0	0	0	5	5
072312	14:15:06	10027	Trial2BackEngS	NS	17	0	1000	1	114	14:15:06	2841603	4	1	1	1	1	1	1	1	1	8	5	2	0	0	0	5	5
072312	14:15:06	10027	Trial2BackEngS	NS	17	0	1000	1	114	14:15:06	2843122	4	1	1	1	1	1	1	1	1	8	5	2	0	0	0	5	5
072312	14:15:06	10027	Trial2BackEngS	NS	17	0	1000	1	114	14:15:06	2844641	4	1	1	1	1	1	1	1	1	8	5	2	0	0	0	5	5
072312	14:15:06	10027	Trial2BackEngS	YS	17	0	1000	0	114	14:15:06	2846161	4	1	1	1	1	1	1	1	1	8	5	2	0	0	0	5	5
072312	14:15:06	10027	Trial2BackEngS	NS	17	0	1000	1	114	14:15:06	2847680	4	1	1	1	1	1	1	1	1	8	5	2	0	0	0	5	5
072312	14:15:06	10027	Trial2BackEngS	NS	17	0	1000	1	114	14:15:06	2849199	4	1	1	1	1	1	1	1	1	8	5	2	0	0	0	5	5
072312	14:15:06	10027	Trial2BackEngS	NS	17	0	1000	1	114	14:15:06	2850719	4	1	1	1	1	1	1	1	1	8	5	2	0	0	0	5	5
072312	14:15:06	10027	Trial2BackEngS	NS	17	0	1000	1	114	14:15:06	2852238	4	1	1	1	1	1	1	1	1	8	5	2	0	0	0	5	5
072312	14:15:06	10027	Trial2BackEngS	NS	17	0	1000	1	114	14:15:06	2853758	4	1	1	1	1	1	1	1	1	8	5	2	0	0	0	5	5
072312	14:15:06	10027	Trial2BackEngS	NS	17	0	1000	1	114	14:15:06	2855277	4	1	1	1	1	1	1	1	1	8	5	2	0	0	0	5	5
072312	14:15:06	10027	Trial2BackEngS	NS	17	0	1000	1	114	14:15:06	2856796	4	1	1	1	1	1	1	1	1	8	5	2	0	0	0	5	5
072312	14:15:06	10027	Trial2BackEngS	NS	17	0	1000	1	114	14:15:06	2858316	4	1	1	1	1	1	1	1	1	8	5	2	0	0	0	5	5
072312	14:15:06	10027	Trial2BackEngS	NS	17	0	1000	1	114	14:15:06	2859835	4	1	1	1	1	1	1	1	1	8	5	2	0	0	0	5	5
072312	14:15:06	10027	Trial2BackEngS	YS	17	0	1000	0	114	14:15:06	2861355	4	1	1	1	1	1	1	1	1	8	5	2	0	0	0	5	5
072312	14:15:06	10027	Trial2BackEngS	NS	17	0	1000	1	114	14:15:06	2862874	4	1	1	1	1	1	1	1	1	8	5	2	0	0	0	5	5
072312	14:15:06	10027	ClockEngBaseline	ClockEngBaseline	19	Clock1	68037	0	114	14:15:06	2931020	4	1	1	1	1	1	1	1	1	8	5	2	1	0	0	5	5
072312	14:15:06	10027	ClockEngBaseline	ClockEngBaseline	19	Clock11	631	0	114	14:15:06	2931686	4	1	1	1	1	1	1	1	1	8	5	2	1	1	0	5	5
072312	14:15:06	10027	ClockEngBaseline	ClockEngBaseline	19	Clock111	573	0	114	14:15:06	2932299	4	1	1	1	1	1	1	1	1	8	5	2	1	1	1	5	5
072312	14:15:06	10027	ClockEngBaseline	ClockEngBaseline	19	Clockdone	1440	0	114	14:15:06	2933779	4	1	1	1	1	1	1	1	1	8	5	2	1	1	1	5	5
072312	14:15:06	10027	FASEngVFBaseline	StopEngVFBaseline	20	12	5079	0	114	14:15:06	3054918	4	1	1	1	1	1	1	1	1	8	5	2	1	1	1	5	5
