date	time	subject	blockcode	trialcode	values.TaskNumber	response	latency	correct	values.Score	script.starttime	script.elapsedtime	values.ScoreS7	values.Word1	values.Word2	values.Word3	values.Word4	values.Word5	values.Word6	values.Word7	values.Word8	values.DigitSpanFwrd	values.DigitSpanBack	values.ScoreAbs	values.Contour	values.Numbers	values.Hands	values.corsiblockspanFwrd	values.corsiblockspanRev
090712	12:20:00	10021	Language	Language	0	French	4782	0	0	12:20:00	4908	0	0	0	0	0	0	0	0	0	0	0	0	0	0	0	0	0
090712	12:20:00	10021	Session	Session	0	3mo	959	0	0	12:20:00	5947	0	0	0	0	0	0	0	0	0	0	0	0	0	0	0	0	0
090712	12:20:00	10021	HandFr	HandFr	0	RightFr	2068600	0	0	12:20:00	2074634	0	0	0	0	0	0	0	0	0	0	0	0	0	0	0	0	0
090712	12:20:00	10021	AudioCheckFr	WordsFr	0	0	0	0	0	12:20:00	2097792	0	0	0	0	0	0	0	0	0	0	0	0	0	0	0	0	0
090712	12:20:00	10021	CubeFr	CubeFr	1	1Cube	43295	0	0	12:20:00	2143178	0	0	0	0	0	0	0	0	0	0	0	0	0	0	0	0	0
090712	12:20:00	10021	pm.simpleFrRight	blank.simpleFr	2	0	1487	1	0	12:20:00	2206552	0	0	0	0	0	0	0	0	0	0	0	0	0	0	0	0	0
090712	12:20:00	10021	pm.simpleFrRight	pm.simpleFr	2	57	1220	0	0	12:20:00	2207805	0	0	0	0	0	0	0	0	0	0	0	0	0	0	0	0	0
090712	12:20:00	10021	pm.simpleFrRight	blank.simpleFr	2	0	1887	1	0	12:20:00	2209711	0	0	0	0	0	0	0	0	0	0	0	0	0	0	0	0	0
090712	12:20:00	10021	pm.simpleFrRight	pm.simpleFr	2	57	750	0	0	12:20:00	2210497	0	0	0	0	0	0	0	0	0	0	0	0	0	0	0	0	0
090712	12:20:00	10021	pm.simpleFrRight	blank.simpleFr	2	0	1687	1	0	12:20:00	2212203	0	0	0	0	0	0	0	0	0	0	0	0	0	0	0	0	0
090712	12:20:00	10021	pm.simpleFrRight	pm.simpleFr	2	57	257	0	0	12:20:00	2212496	0	0	0	0	0	0	0	0	0	0	0	0	0	0	0	0	0
090712	12:20:00	10021	pm.simpleFrRight	blank.simpleFr	2	0	2387	1	0	12:20:00	2214908	0	0	0	0	0	0	0	0	0	0	0	0	0	0	0	0	0
090712	12:20:00	10021	pm.simpleFrRight	pm.simpleFr	2	57	96	0	0	12:20:00	2215042	0	0	0	0	0	0	0	0	0	0	0	0	0	0	0	0	0
090712	12:20:00	10021	pm.simpleFrRight	blank.simpleFr	2	0	2187	1	0	12:20:00	2217254	0	0	0	0	0	0	0	0	0	0	0	0	0	0	0	0	0
090712	12:20:00	10021	pm.simpleFrRight	pm.simpleFr	2	57	6	0	0	12:20:00	2217295	0	0	0	0	0	0	0	0	0	0	0	0	0	0	0	0	0
090712	12:20:00	10021	pm.simpleFrRight	blank.simpleFr	2	57	1310	0	0	12:20:00	2219640	0	0	0	0	0	0	0	0	0	0	0	0	0	0	0	0	0
090712	12:20:00	10021	pm.simpleFrRight	blank.simpleFr	2	0	1587	1	0	12:20:00	2221252	0	0	0	0	0	0	0	0	0	0	0	0	0	0	0	0	0
090712	12:20:00	10021	pm.simpleFrRight	pm.simpleFr	2	57	55	0	0	12:20:00	2221346	0	0	0	0	0	0	0	0	0	0	0	0	0	0	0	0	0
090712	12:20:00	10021	pm.simpleFrRight	blank.simpleFr	2	57	1546	0	0	12:20:00	2223931	0	0	0	0	0	0	0	0	0	0	0	0	0	0	0	0	0
090712	12:20:00	10021	pm.simpleFrRight	blank.simpleFr	2	0	1787	1	0	12:20:00	2225744	0	0	0	0	0	0	0	0	0	0	0	0	0	0	0	0	0
090712	12:20:00	10021	pm.simpleFrRight	pm.simpleFr	2	57	2251	0	0	12:20:00	2228036	0	0	0	0	0	0	0	0	0	0	0	0	0	0	0	0	0
090712	12:20:00	10021	pm.simpleFrRight	blank.simpleFr	2	0	2087	1	0	12:20:00	2230142	0	0	0	0	0	0	0	0	0	0	0	0	0	0	0	0	0
090712	12:20:00	10021	pm.simpleFrRight	pm.simpleFr	2	57	2926	0	0	12:20:00	2233101	0	0	0	0	0	0	0	0	0	0	0	0	0	0	0	0	0
090712	12:20:00	10021	pm.simpleFrRight	blank.simpleFr	2	0	1987	1	0	12:20:00	2235113	0	0	0	0	0	0	0	0	0	0	0	0	0	0	0	0	0
090712	12:20:00	10021	pm.simpleFrRight	pm.simpleFr	2	57	514	0	0	12:20:00	2235660	0	0	0	0	0	0	0	0	0	0	0	0	0	0	0	0	0
090712	12:20:00	10021	pm.simpleFrRight	blank.simpleFr	2	0	1887	1	0	12:20:00	2237566	0	0	0	0	0	0	0	0	0	0	0	0	0	0	0	0	0
090712	12:20:00	10021	pm.simpleFrRight	pm.simpleFr	2	57	750	0	0	12:20:00	2238352	0	0	0	0	0	0	0	0	0	0	0	0	0	0	0	0	0
090712	12:20:00	10021	pm.simpleFrRight	blank.simpleFr	2	0	2287	1	0	12:20:00	2240658	0	0	0	0	0	0	0	0	0	0	0	0	0	0	0	0	0
090712	12:20:00	10021	pm.simpleFrRight	pm.simpleFr	2	57	778	0	0	12:20:00	2241470	0	0	0	0	0	0	0	0	0	0	0	0	0	0	0	0	0
090712	12:20:00	10021	pm.simpleFrRight	blank.simpleFr	2	0	2187	1	0	12:20:00	2243683	0	0	0	0	0	0	0	0	0	0	0	0	0	0	0	0	0
090712	12:20:00	10021	pm.simpleFrRight	pm.simpleFr	2	57	472	0	0	12:20:00	2244189	0	0	0	0	0	0	0	0	0	0	0	0	0	0	0	0	0
090712	12:20:00	10021	pm.simpleFrRight	blank.simpleFr	2	0	2387	1	0	12:20:00	2246602	0	0	0	0	0	0	0	0	0	0	0	0	0	0	0	0	0
090712	12:20:00	10021	pm.simpleFrRight	pm.simpleFr	2	57	689	0	0	12:20:00	2247322	0	0	0	0	0	0	0	0	0	0	0	0	0	0	0	0	0
090712	12:20:00	10021	pm.simpleFrRight	blank.simpleFr	2	0	1587	1	0	12:20:00	2248934	0	0	0	0	0	0	0	0	0	0	0	0	0	0	0	0	0
090712	12:20:00	10021	pm.simpleFrRight	pm.simpleFr	2	57	453	0	0	12:20:00	2249427	0	0	0	0	0	0	0	0	0	0	0	0	0	0	0	0	0
090712	12:20:00	10021	pm.simpleFrRight	blank.simpleFr	2	0	1787	1	0	12:20:00	2251240	0	0	0	0	0	0	0	0	0	0	0	0	0	0	0	0	0
090712	12:20:00	10021	pm.simpleFrRight	pm.simpleFr	2	57	419	0	0	12:20:00	2251693	0	0	0	0	0	0	0	0	0	0	0	0	0	0	0	0	0
090712	12:20:00	10021	pm.simpleFrRight	blank.simpleFr	2	0	2087	1	0	12:20:00	2253812	0	0	0	0	0	0	0	0	0	0	0	0	0	0	0	0	0
090712	12:20:00	10021	pm.simpleFrRight	pm.simpleFr	2	57	470	0	0	12:20:00	2254319	0	0	0	0	0	0	0	0	0	0	0	0	0	0	0	0	0
090712	12:20:00	10021	pm.simpleFrRight	blank.simpleFr	2	0	1487	1	0	12:20:00	2255825	0	0	0	0	0	0	0	0	0	0	0	0	0	0	0	0	0
090712	12:20:00	10021	pm.simpleFrRight	pm.simpleFr	2	57	458	0	0	12:20:00	2256318	0	0	0	0	0	0	0	0	0	0	0	0	0	0	0	0	0
090712	12:20:00	10021	pm.simpleFrRight	blank.simpleFr	2	0	1687	1	0	12:20:00	2258024	0	0	0	0	0	0	0	0	0	0	0	0	0	0	0	0	0
090712	12:20:00	10021	pm.simpleFrRight	pm.simpleFr	2	57	531	0	0	12:20:00	2258597	0	0	0	0	0	0	0	0	0	0	0	0	0	0	0	0	0
090712	12:20:00	10021	pm.simpleFrRight	blank.simpleFr	2	57	2261	0	0	12:20:00	2261902	0	0	0	0	0	0	0	0	0	0	0	0	0	0	0	0	0
090712	12:20:00	10021	pm.simpleFrRight	blank.simpleFr	2	0	1987	1	0	12:20:00	2263915	0	0	0	0	0	0	0	0	0	0	0	0	0	0	0	0	0
090712	12:20:00	10021	pm.simpleFrRight	pm.simpleFr	2	57	591	0	0	12:20:00	2264541	0	0	0	0	0	0	0	0	0	0	0	0	0	0	0	0	0
090712	12:20:00	10021	pm.simpleFrRight	blank.simpleFr	2	0	1587	1	0	12:20:00	2266154	0	0	0	0	0	0	0	0	0	0	0	0	0	0	0	0	0
090712	12:20:00	10021	pm.simpleFrRight	pm.simpleFr	2	57	641	0	0	12:20:00	2266833	0	0	0	0	0	0	0	0	0	0	0	0	0	0	0	0	0
090712	12:20:00	10021	pm.simpleFrRight	blank.simpleFr	2	0	1687	1	0	12:20:00	2268539	0	0	0	0	0	0	0	0	0	0	0	0	0	0	0	0	0
090712	12:20:00	10021	pm.simpleFrRight	pm.simpleFr	2	57	815	0	0	12:20:00	2269392	0	0	0	0	0	0	0	0	0	0	0	0	0	0	0	0	0
090712	12:20:00	10021	pm.simpleFrRight	blank.simpleFr	2	0	2287	1	0	12:20:00	2271711	0	0	0	0	0	0	0	0	0	0	0	0	0	0	0	0	0
090712	12:20:00	10021	pm.simpleFrRight	pm.simpleFr	2	57	794	0	0	12:20:00	2272538	0	0	0	0	0	0	0	0	0	0	0	0	0	0	0	0	0
090712	12:20:00	10021	pm.simpleFrRight	blank.simpleFr	2	0	2187	1	0	12:20:00	2274750	0	0	0	0	0	0	0	0	0	0	0	0	0	0	0	0	0
090712	12:20:00	10021	pm.simpleFrRight	pm.simpleFr	2	57	700	0	0	12:20:00	2275483	0	0	0	0	0	0	0	0	0	0	0	0	0	0	0	0	0
090712	12:20:00	10021	pm.simpleFrRight	blank.simpleFr	2	0	1487	1	0	12:20:00	2276989	0	0	0	0	0	0	0	0	0	0	0	0	0	0	0	0	0
090712	12:20:00	10021	pm.simpleFrRight	pm.simpleFr	2	57	1021	0	0	12:20:00	2278042	0	0	0	0	0	0	0	0	0	0	0	0	0	0	0	0	0
090712	12:20:00	10021	pm.simpleFrRight	blank.simpleFr	2	0	1987	1	0	12:20:00	2280055	0	0	0	0	0	0	0	0	0	0	0	0	0	0	0	0	0
090712	12:20:00	10021	pm.simpleFrRight	pm.simpleFr	2	57	1955	0	0	12:20:00	2282041	0	0	0	0	0	0	0	0	0	0	0	0	0	0	0	0	0
090712	12:20:00	10021	pm.simpleFrRight	blank.simpleFr	2	0	2087	1	0	12:20:00	2284160	0	0	0	0	0	0	0	0	0	0	0	0	0	0	0	0	0
090712	12:20:00	10021	pm.simpleFrRight	pm.simpleFr	2	57	666	0	0	12:20:00	2284866	0	0	0	0	0	0	0	0	0	0	0	0	0	0	0	0	0
090712	12:20:00	10021	pm.simpleFrRight	blank.simpleFr	2	0	1887	1	0	12:20:00	2286785	0	0	0	0	0	0	0	0	0	0	0	0	0	0	0	0	0
090712	12:20:00	10021	pm.simpleFrRight	pm.simpleFr	2	57	600	0	0	12:20:00	2287425	0	0	0	0	0	0	0	0	0	0	0	0	0	0	0	0	0
090712	12:20:00	10021	pm.simpleFrRight	blank.simpleFr	2	0	2487	1	0	12:20:00	2289944	0	0	0	0	0	0	0	0	0	0	0	0	0	0	0	0	0
090712	12:20:00	10021	pm.simpleFrRight	pm.simpleFr	2	57	449	0	0	12:20:00	2290424	0	0	0	0	0	0	0	0	0	0	0	0	0	0	0	0	0
090712	12:20:00	10021	pm.simpleFrRight	blank.simpleFr	2	0	2387	1	0	12:20:00	2292836	0	0	0	0	0	0	0	0	0	0	0	0	0	0	0	0	0
090712	12:20:00	10021	pm.simpleFrRight	pm.simpleFr	2	57	613	0	0	12:20:00	2293489	0	0	0	0	0	0	0	0	0	0	0	0	0	0	0	0	0
090712	12:20:00	10021	pm.simpleFrRight	blank.simpleFr	2	0	1787	1	0	12:20:00	2295301	0	0	0	0	0	0	0	0	0	0	0	0	0	0	0	0	0
090712	12:20:00	10021	pm.simpleFrRight	pm.simpleFr	2	57	515	0	0	12:20:00	2295848	0	0	0	0	0	0	0	0	0	0	0	0	0	0	0	0	0
090712	12:20:00	10021	pm.simpleFrRight	blank.simpleFr	2	0	2387	1	0	12:20:00	2298260	0	0	0	0	0	0	0	0	0	0	0	0	0	0	0	0	0
090712	12:20:00	10021	pm.simpleFrRight	pm.simpleFr	2	57	565	0	0	12:20:00	2298860	0	0	0	0	0	0	0	0	0	0	0	0	0	0	0	0	0
090712	12:20:00	10021	pm.simpleFrRight	blank.simpleFr	2	0	2187	1	0	12:20:00	2301073	0	0	0	0	0	0	0	0	0	0	0	0	0	0	0	0	0
090712	12:20:00	10021	pm.simpleFrRight	pm.simpleFr	2	57	601	0	0	12:20:00	2301713	0	0	0	0	0	0	0	0	0	0	0	0	0	0	0	0	0
090712	12:20:00	10021	pm.simpleFrRight	blank.simpleFr	2	0	1687	1	0	12:20:00	2303418	0	0	0	0	0	0	0	0	0	0	0	0	0	0	0	0	0
090712	12:20:00	10021	pm.simpleFrRight	pm.simpleFr	2	57	911	0	0	12:20:00	2304364	0	0	0	0	0	0	0	0	0	0	0	0	0	0	0	0	0
090712	12:20:00	10021	pm.simpleFrRight	blank.simpleFr	2	0	1787	1	0	12:20:00	2306177	0	0	0	0	0	0	0	0	0	0	0	0	0	0	0	0	0
090712	12:20:00	10021	pm.simpleFrRight	pm.simpleFr	2	57	889	0	0	12:20:00	2307097	0	0	0	0	0	0	0	0	0	0	0	0	0	0	0	0	0
090712	12:20:00	10021	pm.simpleFrRight	blank.simpleFr	2	0	2087	1	0	12:20:00	2309203	0	0	0	0	0	0	0	0	0	0	0	0	0	0	0	0	0
090712	12:20:00	10021	pm.simpleFrRight	pm.simpleFr	2	57	550	0	0	12:20:00	2309789	0	0	0	0	0	0	0	0	0	0	0	0	0	0	0	0	0
090712	12:20:00	10021	pm.simpleFrRight	blank.simpleFr	2	0	1487	1	0	12:20:00	2311295	0	0	0	0	0	0	0	0	0	0	0	0	0	0	0	0	0
090712	12:20:00	10021	pm.simpleFrRight	pm.simpleFr	2	57	618	0	0	12:20:00	2311948	0	0	0	0	0	0	0	0	0	0	0	0	0	0	0	0	0
090712	12:20:00	10021	pm.simpleFrRight	blank.simpleFr	2	0	2287	1	0	12:20:00	2314267	0	0	0	0	0	0	0	0	0	0	0	0	0	0	0	0	0
090712	12:20:00	10021	pm.simpleFrRight	pm.simpleFr	2	57	637	0	0	12:20:00	2314947	0	0	0	0	0	0	0	0	0	0	0	0	0	0	0	0	0
090712	12:20:00	10021	pm.simpleFrRight	blank.simpleFr	2	0	2487	1	0	12:20:00	2317466	0	0	0	0	0	0	0	0	0	0	0	0	0	0	0	0	0
090712	12:20:00	10021	pm.simpleFrRight	pm.simpleFr	2	57	511	0	0	12:20:00	2318012	0	0	0	0	0	0	0	0	0	0	0	0	0	0	0	0	0
090712	12:20:00	10021	pm.simpleFrRight	blank.simpleFr	2	0	1987	1	0	12:20:00	2320025	0	0	0	0	0	0	0	0	0	0	0	0	0	0	0	0	0
090712	12:20:00	10021	pm.simpleFrRight	pm.simpleFr	2	57	864	0	0	12:20:00	2320931	0	0	0	0	0	0	0	0	0	0	0	0	0	0	0	0	0
090712	12:20:00	10021	pm.simpleFrRight	blank.simpleFr	2	0	1887	1	0	12:20:00	2322851	0	0	0	0	0	0	0	0	0	0	0	0	0	0	0	0	0
090712	12:20:00	10021	pm.simpleFrRight	pm.simpleFr	2	57	630	0	0	12:20:00	2323517	0	0	0	0	0	0	0	0	0	0	0	0	0	0	0	0	0
090712	12:20:00	10021	Trial2BackFr	N	3	0	1000	1	1	12:20:00	2406642	0	0	0	0	0	0	0	0	0	0	0	0	0	0	0	0	0
090712	12:20:00	10021	Trial2BackFr	N	3	0	1000	1	2	12:20:00	2408162	0	0	0	0	0	0	0	0	0	0	0	0	0	0	0	0	0
090712	12:20:00	10021	Trial2BackFr	N	3	0	1000	1	3	12:20:00	2409681	0	0	0	0	0	0	0	0	0	0	0	0	0	0	0	0	0
090712	12:20:00	10021	Trial2BackFr	N	3	57	777	0	3	12:20:00	2410987	0	0	0	0	0	0	0	0	0	0	0	0	0	0	0	0	0
090712	12:20:00	10021	Trial2BackFr	N	3	0	1000	1	4	12:20:00	2412706	0	0	0	0	0	0	0	0	0	0	0	0	0	0	0	0	0
090712	12:20:00	10021	Trial2BackFr	N	3	0	1000	1	5	12:20:00	2414226	0	0	0	0	0	0	0	0	0	0	0	0	0	0	0	0	0
090712	12:20:00	10021	Trial2BackFr	N	3	0	1000	1	6	12:20:00	2415745	0	0	0	0	0	0	0	0	0	0	0	0	0	0	0	0	0
090712	12:20:00	10021	Trial2BackFr	N	3	0	1000	1	7	12:20:00	2417264	0	0	0	0	0	0	0	0	0	0	0	0	0	0	0	0	0
090712	12:20:00	10021	Trial2BackFr	Y	3	0	1000	0	7	12:20:00	2418784	0	0	0	0	0	0	0	0	0	0	0	0	0	0	0	0	0
090712	12:20:00	10021	Trial2BackFr	N	3	0	1000	1	8	12:20:00	2420303	0	0	0	0	0	0	0	0	0	0	0	0	0	0	0	0	0
090712	12:20:00	10021	Trial2BackFr	N	3	0	1000	1	9	12:20:00	2421823	0	0	0	0	0	0	0	0	0	0	0	0	0	0	0	0	0
090712	12:20:00	10021	Trial2BackFr	N	3	0	1000	1	10	12:20:00	2423342	0	0	0	0	0	0	0	0	0	0	0	0	0	0	0	0	0
090712	12:20:00	10021	Trial2BackFr	Y	3	57	765	1	11	12:20:00	2424635	0	0	0	0	0	0	0	0	0	0	0	0	0	0	0	0	0
090712	12:20:00	10021	Trial2BackFr	N	3	0	1000	1	12	12:20:00	2426367	0	0	0	0	0	0	0	0	0	0	0	0	0	0	0	0	0
090712	12:20:00	10021	Trial2BackFr	N	3	0	1000	1	13	12:20:00	2427887	0	0	0	0	0	0	0	0	0	0	0	0	0	0	0	0	0
090712	12:20:00	10021	Trial2BackFr	N	3	0	1000	1	14	12:20:00	2429406	0	0	0	0	0	0	0	0	0	0	0	0	0	0	0	0	0
090712	12:20:00	10021	Trial2BackFr	N	3	0	1000	1	15	12:20:00	2430925	0	0	0	0	0	0	0	0	0	0	0	0	0	0	0	0	0
090712	12:20:00	10021	Trial2BackFr	N	3	0	1000	1	16	12:20:00	2432445	0	0	0	0	0	0	0	0	0	0	0	0	0	0	0	0	0
090712	12:20:00	10021	Trial2BackFr	Y	3	57	589	1	17	12:20:00	2433564	0	0	0	0	0	0	0	0	0	0	0	0	0	0	0	0	0
090712	12:20:00	10021	Trial2BackFr	N	3	0	1000	1	18	12:20:00	2435470	0	0	0	0	0	0	0	0	0	0	0	0	0	0	0	0	0
090712	12:20:00	10021	Trial2BackFr	N	3	0	1000	1	19	12:20:00	2436990	0	0	0	0	0	0	0	0	0	0	0	0	0	0	0	0	0
090712	12:20:00	10021	Trial2BackFr	N	3	0	1000	1	20	12:20:00	2438509	0	0	0	0	0	0	0	0	0	0	0	0	0	0	0	0	0
090712	12:20:00	10021	Trial2BackFr	N	3	0	1000	1	21	12:20:00	2440028	0	0	0	0	0	0	0	0	0	0	0	0	0	0	0	0	0
090712	12:20:00	10021	Trial2BackFr	Y	3	57	701	1	22	12:20:00	2441254	0	0	0	0	0	0	0	0	0	0	0	0	0	0	0	0	0
090712	12:20:00	10021	Trial2BackFr	N	3	0	1000	1	23	12:20:00	2443054	0	0	0	0	0	0	0	0	0	0	0	0	0	0	0	0	0
090712	12:20:00	10021	Trial2BackFr	N	3	0	1000	1	24	12:20:00	2444573	0	0	0	0	0	0	0	0	0	0	0	0	0	0	0	0	0
090712	12:20:00	10021	Trial2BackFr	N	3	0	1000	1	25	12:20:00	2446093	0	0	0	0	0	0	0	0	0	0	0	0	0	0	0	0	0
090712	12:20:00	10021	Trial2BackFr	N	3	0	1000	1	26	12:20:00	2447612	0	0	0	0	0	0	0	0	0	0	0	0	0	0	0	0	0
090712	12:20:00	10021	Trial2BackFr	N	3	0	1000	1	27	12:20:00	2449131	0	0	0	0	0	0	0	0	0	0	0	0	0	0	0	0	0
090712	12:20:00	10021	Trial2BackFr	N	3	0	1000	1	28	12:20:00	2450651	0	0	0	0	0	0	0	0	0	0	0	0	0	0	0	0	0
090712	12:20:00	10021	Trial2BackFr	Y	3	57	606	1	29	12:20:00	2451783	0	0	0	0	0	0	0	0	0	0	0	0	0	0	0	0	0
090712	12:20:00	10021	Trial2BackFr	N	3	0	1000	1	30	12:20:00	2453676	0	0	0	0	0	0	0	0	0	0	0	0	0	0	0	0	0
090712	12:20:00	10021	Trial2BackFr	N	3	0	1000	1	31	12:20:00	2455195	0	0	0	0	0	0	0	0	0	0	0	0	0	0	0	0	0
090712	12:20:00	10021	Trial2BackFr	N	3	0	1000	1	32	12:20:00	2456715	0	0	0	0	0	0	0	0	0	0	0	0	0	0	0	0	0
090712	12:20:00	10021	Trial2BackFr	Y	3	57	830	1	33	12:20:00	2458074	0	0	0	0	0	0	0	0	0	0	0	0	0	0	0	0	0
090712	12:20:00	10021	Trial2BackFr	N	3	0	1000	1	34	12:20:00	2459740	0	0	0	0	0	0	0	0	0	0	0	0	0	0	0	0	0
090712	12:20:00	10021	Trial2BackFr	N	3	0	1000	1	35	12:20:00	2461260	0	0	0	0	0	0	0	0	0	0	0	0	0	0	0	0	0
090712	12:20:00	10021	Trial2BackFr	N	3	0	1000	1	36	12:20:00	2462779	0	0	0	0	0	0	0	0	0	0	0	0	0	0	0	0	0
090712	12:20:00	10021	Trial2BackFr	N	3	0	1000	1	37	12:20:00	2464298	0	0	0	0	0	0	0	0	0	0	0	0	0	0	0	0	0
090712	12:20:00	10021	Trial2BackFr	N	3	57	737	0	37	12:20:00	2465578	0	0	0	0	0	0	0	0	0	0	0	0	0	0	0	0	0
090712	12:20:00	10021	Trial2BackFr	N	3	0	1000	1	38	12:20:00	2467323	0	0	0	0	0	0	0	0	0	0	0	0	0	0	0	0	0
090712	12:20:00	10021	Trial2BackFr	Y	3	0	1000	0	38	12:20:00	2468843	0	0	0	0	0	0	0	0	0	0	0	0	0	0	0	0	0
090712	12:20:00	10021	Trial2BackFr	N	3	0	1000	1	39	12:20:00	2470362	0	0	0	0	0	0	0	0	0	0	0	0	0	0	0	0	0
090712	12:20:00	10021	Trial2BackFr	N	3	0	1000	1	40	12:20:00	2471882	0	0	0	0	0	0	0	0	0	0	0	0	0	0	0	0	0
090712	12:20:00	10021	Trial2BackFr	N	3	0	1000	1	41	12:20:00	2473401	0	0	0	0	0	0	0	0	0	0	0	0	0	0	0	0	0
090712	12:20:00	10021	Trial2BackFr	N	3	57	463	0	41	12:20:00	2474387	0	0	0	0	0	0	0	0	0	0	0	0	0	0	0	0	0
090712	12:20:00	10021	Trial2BackFr	Y	3	0	1000	0	41	12:20:00	2476427	0	0	0	0	0	0	0	0	0	0	0	0	0	0	0	0	0
090712	12:20:00	10021	Trial2BackFr	N	3	0	1000	1	42	12:20:00	2477946	0	0	0	0	0	0	0	0	0	0	0	0	0	0	0	0	0
090712	12:20:00	10021	Trial2BackFr	N	3	0	1000	1	43	12:20:00	2479465	0	0	0	0	0	0	0	0	0	0	0	0	0	0	0	0	0
090712	12:20:00	10021	Trial2BackFr	N	3	0	1000	1	44	12:20:00	2480985	0	0	0	0	0	0	0	0	0	0	0	0	0	0	0	0	0
090712	12:20:00	10021	Trial2BackFr	N	3	0	1000	1	45	12:20:00	2482504	0	0	0	0	0	0	0	0	0	0	0	0	0	0	0	0	0
090712	12:20:00	10021	Trial2BackFr	N	3	0	1000	1	46	12:20:00	2484023	0	0	0	0	0	0	0	0	0	0	0	0	0	0	0	0	0
090712	12:20:00	10021	Trial2BackFr	Y	3	57	528	1	47	12:20:00	2485076	0	0	0	0	0	0	0	0	0	0	0	0	0	0	0	0	0
090712	12:20:00	10021	Trial2BackFr	N	3	0	1000	1	48	12:20:00	2487049	0	0	0	0	0	0	0	0	0	0	0	0	0	0	0	0	0
090712	12:20:00	10021	Trial2BackFr	N	3	0	1000	1	49	12:20:00	2488568	0	0	0	0	0	0	0	0	0	0	0	0	0	0	0	0	0
090712	12:20:00	10021	Trial2BackFr	N	3	0	1000	1	50	12:20:00	2490088	0	0	0	0	0	0	0	0	0	0	0	0	0	0	0	0	0
090712	12:20:00	10021	Trial2BackFr	N	3	0	1000	1	51	12:20:00	2491607	0	0	0	0	0	0	0	0	0	0	0	0	0	0	0	0	0
090712	12:20:00	10021	Trial2BackFr	N	3	0	1000	1	52	12:20:00	2493126	0	0	0	0	0	0	0	0	0	0	0	0	0	0	0	0	0
090712	12:20:00	10021	Trial2BackFr	N	3	0	1000	1	53	12:20:00	2494646	0	0	0	0	0	0	0	0	0	0	0	0	0	0	0	0	0
090712	12:20:00	10021	Trial2BackFr	Y	3	57	610	1	54	12:20:00	2495778	0	0	0	0	0	0	0	0	0	0	0	0	0	0	0	0	0
090712	12:20:00	10021	Trial2BackFr	N	3	0	1000	1	55	12:20:00	2497671	0	0	0	0	0	0	0	0	0	0	0	0	0	0	0	0	0
090712	12:20:00	10021	Trial2BackFr	N	3	0	1000	1	56	12:20:00	2499190	0	0	0	0	0	0	0	0	0	0	0	0	0	0	0	0	0
090712	12:20:00	10021	Trial2BackFr	Y	3	57	689	1	57	12:20:00	2500403	0	0	0	0	0	0	0	0	0	0	0	0	0	0	0	0	0
090712	12:20:00	10021	Trial2BackFr	N	3	0	1000	1	58	12:20:00	2502216	0	0	0	0	0	0	0	0	0	0	0	0	0	0	0	0	0
090712	12:20:00	10021	Trial2BackFr	N	3	0	1000	1	59	12:20:00	2503735	0	0	0	0	0	0	0	0	0	0	0	0	0	0	0	0	0
090712	12:20:00	10021	Trial2BackFr	N	3	0	1000	1	60	12:20:00	2505255	0	0	0	0	0	0	0	0	0	0	0	0	0	0	0	0	0
090712	12:20:00	10021	Trial2BackFr	N	3	0	1000	1	61	12:20:00	2506774	0	0	0	0	0	0	0	0	0	0	0	0	0	0	0	0	0
090712	12:20:00	10021	Trial2BackFr	N	3	0	1000	1	62	12:20:00	2508293	0	0	0	0	0	0	0	0	0	0	0	0	0	0	0	0	0
090712	12:20:00	10021	Trial2BackFr	N	3	0	1000	1	63	12:20:00	2509813	0	0	0	0	0	0	0	0	0	0	0	0	0	0	0	0	0
090712	12:20:00	10021	Trial2BackFr	N	3	0	1000	1	64	12:20:00	2511332	0	0	0	0	0	0	0	0	0	0	0	0	0	0	0	0	0
090712	12:20:00	10021	Trial2BackFr	N	3	0	1000	1	65	12:20:00	2512851	0	0	0	0	0	0	0	0	0	0	0	0	0	0	0	0	0
090712	12:20:00	10021	Trial2BackFr	N	3	0	1000	1	66	12:20:00	2514371	0	0	0	0	0	0	0	0	0	0	0	0	0	0	0	0	0
090712	12:20:00	10021	Trial2BackFr	N	3	0	1000	1	67	12:20:00	2515890	0	0	0	0	0	0	0	0	0	0	0	0	0	0	0	0	0
090712	12:20:00	10021	Trial2BackFr	Y	3	57	644	1	68	12:20:00	2517063	0	0	0	0	0	0	0	0	0	0	0	0	0	0	0	0	0
090712	12:20:00	10021	Trial2BackFr	N	3	0	1000	1	69	12:20:00	2518916	0	0	0	0	0	0	0	0	0	0	0	0	0	0	0	0	0
090712	12:20:00	10021	Trial2BackFr	N	3	0	1000	1	70	12:20:00	2520435	0	0	0	0	0	0	0	0	0	0	0	0	0	0	0	0	0
090712	12:20:00	10021	Trial2BackFr	N	3	0	1000	1	71	12:20:00	2521954	0	0	0	0	0	0	0	0	0	0	0	0	0	0	0	0	0
090712	12:20:00	10021	Trial2BackFr	Y	3	57	548	1	72	12:20:00	2523034	0	0	0	0	0	0	0	0	0	0	0	0	0	0	0	0	0
090712	12:20:00	10021	Trial2BackFr	N	3	0	1000	1	73	12:20:00	2524980	0	0	0	0	0	0	0	0	0	0	0	0	0	0	0	0	0
090712	12:20:00	10021	Trial2BackFr	N	3	0	1000	1	74	12:20:00	2526499	0	0	0	0	0	0	0	0	0	0	0	0	0	0	0	0	0
090712	12:20:00	10021	Trial2BackFr	N	3	0	1000	1	75	12:20:00	2528019	0	0	0	0	0	0	0	0	0	0	0	0	0	0	0	0	0
090712	12:20:00	10021	Trial2BackFr	N	3	0	1000	1	76	12:20:00	2529538	0	0	0	0	0	0	0	0	0	0	0	0	0	0	0	0	0
090712	12:20:00	10021	Trial2BackFr	N	3	0	1000	1	77	12:20:00	2531057	0	0	0	0	0	0	0	0	0	0	0	0	0	0	0	0	0
090712	12:20:00	10021	Trial2BackFr	Y	3	57	581	1	78	12:20:00	2532163	0	0	0	0	0	0	0	0	0	0	0	0	0	0	0	0	0
090712	12:20:00	10021	Trial2BackFr	N	3	0	1000	1	79	12:20:00	2534083	0	0	0	0	0	0	0	0	0	0	0	0	0	0	0	0	0
090712	12:20:00	10021	Trial2BackFr	N	3	0	1000	1	80	12:20:00	2535602	0	0	0	0	0	0	0	0	0	0	0	0	0	0	0	0	0
090712	12:20:00	10021	Trial2BackFr	N	3	0	1000	1	81	12:20:00	2537121	0	0	0	0	0	0	0	0	0	0	0	0	0	0	0	0	0
090712	12:20:00	10021	Trial2BackFr	N	3	0	1000	1	82	12:20:00	2538641	0	0	0	0	0	0	0	0	0	0	0	0	0	0	0	0	0
090712	12:20:00	10021	Trial2BackFr	N	3	0	1000	1	83	12:20:00	2540160	0	0	0	0	0	0	0	0	0	0	0	0	0	0	0	0	0
090712	12:20:00	10021	Trial2BackFr	N	3	0	1000	1	84	12:20:00	2541680	0	0	0	0	0	0	0	0	0	0	0	0	0	0	0	0	0
090712	12:20:00	10021	Trial2BackFr	N	3	0	1000	1	85	12:20:00	2543199	0	0	0	0	0	0	0	0	0	0	0	0	0	0	0	0	0
090712	12:20:00	10021	Trial2BackFr	N	3	0	1000	1	86	12:20:00	2544718	0	0	0	0	0	0	0	0	0	0	0	0	0	0	0	0	0
090712	12:20:00	10021	Trial2BackFr	N	3	0	1000	1	87	12:20:00	2546238	0	0	0	0	0	0	0	0	0	0	0	0	0	0	0	0	0
090712	12:20:00	10021	Trial2BackFr	Y	3	57	744	1	88	12:20:00	2547504	0	0	0	0	0	0	0	0	0	0	0	0	0	0	0	0	0
090712	12:20:00	10021	Trial2BackFr	N	3	0	1000	1	89	12:20:00	2549263	0	0	0	0	0	0	0	0	0	0	0	0	0	0	0	0	0
090712	12:20:00	10021	Trial2BackFr	N	3	0	1000	1	90	12:20:00	2550782	0	0	0	0	0	0	0	0	0	0	0	0	0	0	0	0	0
090712	12:20:00	10021	Trial2BackFr	N	3	0	1000	1	91	12:20:00	2552302	0	0	0	0	0	0	0	0	0	0	0	0	0	0	0	0	0
090712	12:20:00	10021	Trial2BackFr	N	3	0	1000	1	92	12:20:00	2553821	0	0	0	0	0	0	0	0	0	0	0	0	0	0	0	0	0
090712	12:20:00	10021	Trial2BackFr	N	3	0	1000	1	93	12:20:00	2555341	0	0	0	0	0	0	0	0	0	0	0	0	0	0	0	0	0
090712	12:20:00	10021	Trial2BackFr	N	3	57	889	0	93	12:20:00	2556753	0	0	0	0	0	0	0	0	0	0	0	0	0	0	0	0	0
090712	12:20:00	10021	Trial2BackFr	N	3	0	1000	1	94	12:20:00	2558366	0	0	0	0	0	0	0	0	0	0	0	0	0	0	0	0	0
090712	12:20:00	10021	Trial2BackFr	N	3	0	1000	1	95	12:20:00	2559885	0	0	0	0	0	0	0	0	0	0	0	0	0	0	0	0	0
090712	12:20:00	10021	Trial2BackFr	Y	3	57	808	1	96	12:20:00	2561218	0	0	0	0	0	0	0	0	0	0	0	0	0	0	0	0	0
090712	12:20:00	10021	Trial2BackFr	N	3	0	1000	1	97	12:20:00	2562911	0	0	0	0	0	0	0	0	0	0	0	0	0	0	0	0	0
090712	12:20:00	10021	Trial2BackFr	N	3	0	1000	1	98	12:20:00	2564430	0	0	0	0	0	0	0	0	0	0	0	0	0	0	0	0	0
090712	12:20:00	10021	Trial2BackFr	N	3	0	1000	1	99	12:20:00	2565949	0	0	0	0	0	0	0	0	0	0	0	0	0	0	0	0	0
090712	12:20:00	10021	Trial2BackFr	N	3	0	1000	1	100	12:20:00	2567469	0	0	0	0	0	0	0	0	0	0	0	0	0	0	0	0	0
090712	12:20:00	10021	Trial2BackFr	Y	3	57	696	1	101	12:20:00	2568695	0	0	0	0	0	0	0	0	0	0	0	0	0	0	0	0	0
090712	12:20:00	10021	Trial2BackFr	N	3	0	1000	1	102	12:20:00	2570494	0	0	0	0	0	0	0	0	0	0	0	0	0	0	0	0	0
090712	12:20:00	10021	Trial2BackFr	N	3	0	1000	1	103	12:20:00	2572014	0	0	0	0	0	0	0	0	0	0	0	0	0	0	0	0	0
090712	12:20:00	10021	Trial2BackFr	N	3	0	1000	1	104	12:20:00	2573533	0	0	0	0	0	0	0	0	0	0	0	0	0	0	0	0	0
090712	12:20:00	10021	Trial2BackFr	Y	3	57	616	1	105	12:20:00	2574680	0	0	0	0	0	0	0	0	0	0	0	0	0	0	0	0	0
090712	12:20:00	10021	Trial2BackFr	N	3	0	1000	1	106	12:20:00	2576558	0	0	0	0	0	0	0	0	0	0	0	0	0	0	0	0	0
090712	12:20:00	10021	Trial2BackFr	N	3	0	1000	1	107	12:20:00	2578078	0	0	0	0	0	0	0	0	0	0	0	0	0	0	0	0	0
090712	12:20:00	10021	Trial2BackFr	N	3	0	1000	1	108	12:20:00	2579597	0	0	0	0	0	0	0	0	0	0	0	0	0	0	0	0	0
090712	12:20:00	10021	Trial2BackFr	N	3	0	1000	1	109	12:20:00	2581117	0	0	0	0	0	0	0	0	0	0	0	0	0	0	0	0	0
090712	12:20:00	10021	Trial2BackFr	N	3	0	1000	1	110	12:20:00	2582636	0	0	0	0	0	0	0	0	0	0	0	0	0	0	0	0	0
090712	12:20:00	10021	Trial2BackFr	Y	3	57	857	1	111	12:20:00	2584022	0	0	0	0	0	0	0	0	0	0	0	0	0	0	0	0	0
090712	12:20:00	10021	Trial2BackFr	N	3	0	1000	1	112	12:20:00	2585661	0	0	0	0	0	0	0	0	0	0	0	0	0	0	0	0	0
090712	12:20:00	10021	Trial2BackFr	N	3	0	1000	1	113	12:20:00	2587181	0	0	0	0	0	0	0	0	0	0	0	0	0	0	0	0	0
090712	12:20:00	10021	Trial2BackFr	N	3	0	1000	1	114	12:20:00	2588700	0	0	0	0	0	0	0	0	0	0	0	0	0	0	0	0	0
090712	12:20:00	10021	Trial2BackFr	Y	3	57	696	1	115	12:20:00	2589926	0	0	0	0	0	0	0	0	0	0	0	0	0	0	0	0	0
090712	12:20:00	10021	Trial3BackFr	NN	4	0	1000	1	115	12:20:00	2647289	0	0	0	0	0	0	0	0	0	0	0	0	0	0	0	0	0
090712	12:20:00	10021	Trial3BackFr	NN	4	0	1000	1	115	12:20:00	2648808	0	0	0	0	0	0	0	0	0	0	0	0	0	0	0	0	0
090712	12:20:00	10021	Trial3BackFr	NN	4	0	1000	1	115	12:20:00	2650328	0	0	0	0	0	0	0	0	0	0	0	0	0	0	0	0	0
090712	12:20:00	10021	Trial3BackFr	YY	4	0	1000	0	115	12:20:00	2651847	0	0	0	0	0	0	0	0	0	0	0	0	0	0	0	0	0
090712	12:20:00	10021	Trial3BackFr	NN	4	0	1000	1	115	12:20:00	2653366	0	0	0	0	0	0	0	0	0	0	0	0	0	0	0	0	0
090712	12:20:00	10021	Trial3BackFr	NN	4	0	1000	1	115	12:20:00	2654886	0	0	0	0	0	0	0	0	0	0	0	0	0	0	0	0	0
090712	12:20:00	10021	Trial3BackFr	NN	4	0	1000	1	115	12:20:00	2656405	0	0	0	0	0	0	0	0	0	0	0	0	0	0	0	0	0
090712	12:20:00	10021	Trial3BackFr	NN	4	0	1000	1	115	12:20:00	2657925	0	0	0	0	0	0	0	0	0	0	0	0	0	0	0	0	0
090712	12:20:00	10021	Trial3BackFr	YY	4	57	765	1	115	12:20:00	2659217	0	0	0	0	0	0	0	0	0	0	0	0	0	0	0	0	0
090712	12:20:00	10021	Trial3BackFr	NN	4	0	1000	1	115	12:20:00	2660950	0	0	0	0	0	0	0	0	0	0	0	0	0	0	0	0	0
090712	12:20:00	10021	Trial3BackFr	NN	4	0	1000	1	115	12:20:00	2662469	0	0	0	0	0	0	0	0	0	0	0	0	0	0	0	0	0
090712	12:20:00	10021	Trial3BackFr	NN	4	0	1000	1	115	12:20:00	2663989	0	0	0	0	0	0	0	0	0	0	0	0	0	0	0	0	0
090712	12:20:00	10021	Trial3BackFr	NN	4	57	733	0	115	12:20:00	2665255	0	0	0	0	0	0	0	0	0	0	0	0	0	0	0	0	0
090712	12:20:00	10021	Trial3BackFr	NN	4	0	1000	1	115	12:20:00	2667014	0	0	0	0	0	0	0	0	0	0	0	0	0	0	0	0	0
090712	12:20:00	10021	Trial3BackFr	NN	4	0	1000	1	115	12:20:00	2668534	0	0	0	0	0	0	0	0	0	0	0	0	0	0	0	0	0
090712	12:20:00	10021	Trial3BackFr	NN	4	0	1000	1	115	12:20:00	2670053	0	0	0	0	0	0	0	0	0	0	0	0	0	0	0	0	0
090712	12:20:00	10021	Trial3BackFr	YY	4	0	1000	0	115	12:20:00	2671572	0	0	0	0	0	0	0	0	0	0	0	0	0	0	0	0	0
090712	12:20:00	10021	Trial3BackFr	NN	4	0	1000	1	115	12:20:00	2673092	0	0	0	0	0	0	0	0	0	0	0	0	0	0	0	0	0
090712	12:20:00	10021	Trial3BackFr	NN	4	0	1000	1	115	12:20:00	2674611	0	0	0	0	0	0	0	0	0	0	0	0	0	0	0	0	0
090712	12:20:00	10021	Trial3BackFr	NN	4	0	1000	1	115	12:20:00	2676130	0	0	0	0	0	0	0	0	0	0	0	0	0	0	0	0	0
090712	12:20:00	10021	Trial3BackFr	NN	4	0	1000	1	115	12:20:00	2677650	0	0	0	0	0	0	0	0	0	0	0	0	0	0	0	0	0
090712	12:20:00	10021	Trial3BackFr	NN	4	57	767	0	115	12:20:00	2678942	0	0	0	0	0	0	0	0	0	0	0	0	0	0	0	0	0
090712	12:20:00	10021	Trial3BackFr	YY	4	0	1000	0	115	12:20:00	2680675	0	0	0	0	0	0	0	0	0	0	0	0	0	0	0	0	0
090712	12:20:00	10021	Trial3BackFr	NN	4	57	238	0	115	12:20:00	2681435	0	0	0	0	0	0	0	0	0	0	0	0	0	0	0	0	0
090712	12:20:00	10021	Trial3BackFr	NN	4	0	1000	1	115	12:20:00	2683701	0	0	0	0	0	0	0	0	0	0	0	0	0	0	0	0	0
090712	12:20:00	10021	Trial3BackFr	NN	4	0	1000	1	115	12:20:00	2685220	0	0	0	0	0	0	0	0	0	0	0	0	0	0	0	0	0
090712	12:20:00	10021	Trial3BackFr	YY	4	0	1000	0	115	12:20:00	2686739	0	0	0	0	0	0	0	0	0	0	0	0	0	0	0	0	0
090712	12:20:00	10021	Trial3BackFr	NN	4	57	445	0	115	12:20:00	2687712	0	0	0	0	0	0	0	0	0	0	0	0	0	0	0	0	0
090712	12:20:00	10021	Trial3BackFr	NN	4	0	1000	1	115	12:20:00	2689765	0	0	0	0	0	0	0	0	0	0	0	0	0	0	0	0	0
090712	12:20:00	10021	Trial3BackFr	NN	4	0	1000	1	115	12:20:00	2691284	0	0	0	0	0	0	0	0	0	0	0	0	0	0	0	0	0
090712	12:20:00	10021	Trial3BackFr	YY	4	57	764	1	115	12:20:00	2692577	0	0	0	0	0	0	0	0	0	0	0	0	0	0	0	0	0
090712	12:20:00	10021	Trial3BackFr	NN	4	0	1000	1	115	12:20:00	2694309	0	0	0	0	0	0	0	0	0	0	0	0	0	0	0	0	0
090712	12:20:00	10021	Trial3BackFr	NN	4	0	1000	1	115	12:20:00	2695829	0	0	0	0	0	0	0	0	0	0	0	0	0	0	0	0	0
090712	12:20:00	10021	Trial3BackFr	NN	4	0	1000	1	115	12:20:00	2697348	0	0	0	0	0	0	0	0	0	0	0	0	0	0	0	0	0
090712	12:20:00	10021	Trial3BackFr	NN	4	0	1000	1	115	12:20:00	2698868	0	0	0	0	0	0	0	0	0	0	0	0	0	0	0	0	0
090712	12:20:00	10021	Trial3BackFr	NN	4	0	1000	1	115	12:20:00	2700387	0	0	0	0	0	0	0	0	0	0	0	0	0	0	0	0	0
090712	12:20:00	10021	Trial3BackFr	NN	4	0	1000	1	115	12:20:00	2701906	0	0	0	0	0	0	0	0	0	0	0	0	0	0	0	0	0
090712	12:20:00	10021	Trial3BackFr	NN	4	0	1000	1	115	12:20:00	2703426	0	0	0	0	0	0	0	0	0	0	0	0	0	0	0	0	0
090712	12:20:00	10021	Trial3BackFr	NN	4	0	1000	1	115	12:20:00	2704945	0	0	0	0	0	0	0	0	0	0	0	0	0	0	0	0	0
090712	12:20:00	10021	Trial3BackFr	NN	4	0	1000	1	115	12:20:00	2706464	0	0	0	0	0	0	0	0	0	0	0	0	0	0	0	0	0
090712	12:20:00	10021	Trial3BackFr	NN	4	57	608	0	115	12:20:00	2707597	0	0	0	0	0	0	0	0	0	0	0	0	0	0	0	0	0
090712	12:20:00	10021	Trial3BackFr	YY	4	0	1000	0	115	12:20:00	2709490	0	0	0	0	0	0	0	0	0	0	0	0	0	0	0	0	0
090712	12:20:00	10021	Trial3BackFr	NN	4	0	1000	1	115	12:20:00	2711009	0	0	0	0	0	0	0	0	0	0	0	0	0	0	0	0	0
090712	12:20:00	10021	Trial3BackFr	NN	4	0	1000	1	115	12:20:00	2712529	0	0	0	0	0	0	0	0	0	0	0	0	0	0	0	0	0
090712	12:20:00	10021	Trial3BackFr	NN	4	0	1000	1	115	12:20:00	2714048	0	0	0	0	0	0	0	0	0	0	0	0	0	0	0	0	0
090712	12:20:00	10021	Trial3BackFr	NN	4	0	1000	1	115	12:20:00	2715567	0	0	0	0	0	0	0	0	0	0	0	0	0	0	0	0	0
090712	12:20:00	10021	Trial3BackFr	YY	4	0	1000	0	115	12:20:00	2717087	0	0	0	0	0	0	0	0	0	0	0	0	0	0	0	0	0
090712	12:20:00	10021	Trial3BackFr	NN	4	0	1000	1	115	12:20:00	2718606	0	0	0	0	0	0	0	0	0	0	0	0	0	0	0	0	0
090712	12:20:00	10021	Trial3BackFr	NN	4	0	1000	1	115	12:20:00	2720125	0	0	0	0	0	0	0	0	0	0	0	0	0	0	0	0	0
090712	12:20:00	10021	Trial3BackFr	NN	4	0	1000	1	115	12:20:00	2721645	0	0	0	0	0	0	0	0	0	0	0	0	0	0	0	0	0
090712	12:20:00	10021	Trial3BackFr	NN	4	0	1000	1	115	12:20:00	2723164	0	0	0	0	0	0	0	0	0	0	0	0	0	0	0	0	0
090712	12:20:00	10021	Trial3BackFr	NN	4	57	483	0	115	12:20:00	2724177	0	0	0	0	0	0	0	0	0	0	0	0	0	0	0	0	0
090712	12:20:00	10021	Trial3BackFr	YY	4	0	1000	0	115	12:20:00	2726190	0	0	0	0	0	0	0	0	0	0	0	0	0	0	0	0	0
090712	12:20:00	10021	Trial3BackFr	NN	4	0	1000	1	115	12:20:00	2727709	0	0	0	0	0	0	0	0	0	0	0	0	0	0	0	0	0
090712	12:20:00	10021	Trial3BackFr	NN	4	0	1000	1	115	12:20:00	2729228	0	0	0	0	0	0	0	0	0	0	0	0	0	0	0	0	0
090712	12:20:00	10021	Trial3BackFr	NN	4	0	1000	1	115	12:20:00	2730748	0	0	0	0	0	0	0	0	0	0	0	0	0	0	0	0	0
090712	12:20:00	10021	Trial3BackFr	NN	4	0	1000	1	115	12:20:00	2732267	0	0	0	0	0	0	0	0	0	0	0	0	0	0	0	0	0
090712	12:20:00	10021	Trial3BackFr	NN	4	0	1000	1	115	12:20:00	2733786	0	0	0	0	0	0	0	0	0	0	0	0	0	0	0	0	0
090712	12:20:00	10021	Trial3BackFr	NN	4	0	1000	1	115	12:20:00	2735306	0	0	0	0	0	0	0	0	0	0	0	0	0	0	0	0	0
090712	12:20:00	10021	Trial3BackFr	YY	4	57	805	1	115	12:20:00	2736638	0	0	0	0	0	0	0	0	0	0	0	0	0	0	0	0	0
090712	12:20:00	10021	Trial3BackFr	NN	4	0	1000	1	115	12:20:00	2738331	0	0	0	0	0	0	0	0	0	0	0	0	0	0	0	0	0
090712	12:20:00	10021	Trial3BackFr	NN	4	0	1000	1	115	12:20:00	2739851	0	0	0	0	0	0	0	0	0	0	0	0	0	0	0	0	0
090712	12:20:00	10021	Trial3BackFr	NN	4	0	1000	1	115	12:20:00	2741370	0	0	0	0	0	0	0	0	0	0	0	0	0	0	0	0	0
090712	12:20:00	10021	Trial3BackFr	YY	4	57	709	1	115	12:20:00	2742610	0	0	0	0	0	0	0	0	0	0	0	0	0	0	0	0	0
090712	12:20:00	10021	Trial3BackFr	NN	4	0	1000	1	115	12:20:00	2744395	0	0	0	0	0	0	0	0	0	0	0	0	0	0	0	0	0
090712	12:20:00	10021	Trial3BackFr	NN	4	0	1000	1	115	12:20:00	2745915	0	0	0	0	0	0	0	0	0	0	0	0	0	0	0	0	0
090712	12:20:00	10021	Trial3BackFr	NN	4	0	1000	1	115	12:20:00	2747434	0	0	0	0	0	0	0	0	0	0	0	0	0	0	0	0	0
090712	12:20:00	10021	Trial3BackFr	NN	4	0	1000	1	115	12:20:00	2748954	0	0	0	0	0	0	0	0	0	0	0	0	0	0	0	0	0
090712	12:20:00	10021	Trial3BackFr	NN	4	0	1000	1	115	12:20:00	2750473	0	0	0	0	0	0	0	0	0	0	0	0	0	0	0	0	0
090712	12:20:00	10021	Trial3BackFr	NN	4	57	838	0	115	12:20:00	2751832	0	0	0	0	0	0	0	0	0	0	0	0	0	0	0	0	0
090712	12:20:00	10021	Trial3BackFr	NN	4	0	1000	1	115	12:20:00	2753498	0	0	0	0	0	0	0	0	0	0	0	0	0	0	0	0	0
090712	12:20:00	10021	Trial3BackFr	NN	4	0	1000	1	115	12:20:00	2755018	0	0	0	0	0	0	0	0	0	0	0	0	0	0	0	0	0
090712	12:20:00	10021	Trial3BackFr	NN	4	0	1000	1	115	12:20:00	2756537	0	0	0	0	0	0	0	0	0	0	0	0	0	0	0	0	0
090712	12:20:00	10021	Trial3BackFr	YY	4	0	1000	0	115	12:20:00	2758056	0	0	0	0	0	0	0	0	0	0	0	0	0	0	0	0	0
090712	12:20:00	10021	Trial3BackFr	NN	4	0	1000	1	115	12:20:00	2759576	0	0	0	0	0	0	0	0	0	0	0	0	0	0	0	0	0
090712	12:20:00	10021	Trial3BackFr	NN	4	0	1000	1	115	12:20:00	2761095	0	0	0	0	0	0	0	0	0	0	0	0	0	0	0	0	0
090712	12:20:00	10021	Trial3BackFr	NN	4	0	1000	1	115	12:20:00	2762614	0	0	0	0	0	0	0	0	0	0	0	0	0	0	0	0	0
090712	12:20:00	10021	Trial3BackFr	YY	4	57	696	1	115	12:20:00	2763841	0	0	0	0	0	0	0	0	0	0	0	0	0	0	0	0	0
090712	12:20:00	10021	Trial3BackFr	NN	4	0	1000	1	115	12:20:00	2765640	0	0	0	0	0	0	0	0	0	0	0	0	0	0	0	0	0
090712	12:20:00	10021	Trial3BackFr	NN	4	0	1000	1	115	12:20:00	2767159	0	0	0	0	0	0	0	0	0	0	0	0	0	0	0	0	0
090712	12:20:00	10021	Trial3BackFr	NN	4	0	1000	1	115	12:20:00	2768732	0	0	0	0	0	0	0	0	0	0	0	0	0	0	0	0	0
090712	12:20:00	10021	Trial3BackFr	NN	4	0	1000	1	115	12:20:00	2770251	0	0	0	0	0	0	0	0	0	0	0	0	0	0	0	0	0
090712	12:20:00	10021	Trial3BackFr	NN	4	0	1000	1	115	12:20:00	2771771	0	0	0	0	0	0	0	0	0	0	0	0	0	0	0	0	0
090712	12:20:00	10021	Trial3BackFr	YY	4	57	499	1	115	12:20:00	2772797	0	0	0	0	0	0	0	0	0	0	0	0	0	0	0	0	0
090712	12:20:00	10021	Trial3BackFr	NN	4	0	1000	1	115	12:20:00	2774796	0	0	0	0	0	0	0	0	0	0	0	0	0	0	0	0	0
090712	12:20:00	10021	Trial3BackFr	NN	4	0	1000	1	115	12:20:00	2776316	0	0	0	0	0	0	0	0	0	0	0	0	0	0	0	0	0
090712	12:20:00	10021	Trial3BackFr	NN	4	0	1000	1	115	12:20:00	2777835	0	0	0	0	0	0	0	0	0	0	0	0	0	0	0	0	0
090712	12:20:00	10021	Trial3BackFr	NN	4	0	1000	1	115	12:20:00	2779354	0	0	0	0	0	0	0	0	0	0	0	0	0	0	0	0	0
090712	12:20:00	10021	Trial3BackFr	NN	4	0	1000	1	115	12:20:00	2780874	0	0	0	0	0	0	0	0	0	0	0	0	0	0	0	0	0
090712	12:20:00	10021	Trial3BackFr	NN	4	0	1000	1	115	12:20:00	2782393	0	0	0	0	0	0	0	0	0	0	0	0	0	0	0	0	0
090712	12:20:00	10021	Trial3BackFr	NN	4	0	1000	1	115	12:20:00	2783912	0	0	0	0	0	0	0	0	0	0	0	0	0	0	0	0	0
090712	12:20:00	10021	Trial3BackFr	NN	4	57	789	0	115	12:20:00	2785232	0	0	0	0	0	0	0	0	0	0	0	0	0	0	0	0	0
090712	12:20:00	10021	Trial3BackFr	NN	4	0	1000	1	115	12:20:00	2786938	0	0	0	0	0	0	0	0	0	0	0	0	0	0	0	0	0
090712	12:20:00	10021	Trial3BackFr	YY	4	0	1000	0	115	12:20:00	2788457	0	0	0	0	0	0	0	0	0	0	0	0	0	0	0	0	0
090712	12:20:00	10021	Trial3BackFr	NN	4	0	1000	1	115	12:20:00	2789977	0	0	0	0	0	0	0	0	0	0	0	0	0	0	0	0	0
090712	12:20:00	10021	Trial3BackFr	NN	4	0	1000	1	115	12:20:00	2791496	0	0	0	0	0	0	0	0	0	0	0	0	0	0	0	0	0
090712	12:20:00	10021	Trial3BackFr	NN	4	0	1000	1	115	12:20:00	2793015	0	0	0	0	0	0	0	0	0	0	0	0	0	0	0	0	0
090712	12:20:00	10021	Trial3BackFr	NN	4	0	1000	1	115	12:20:00	2794534	0	0	0	0	0	0	0	0	0	0	0	0	0	0	0	0	0
090712	12:20:00	10021	Trial3BackFr	NN	4	0	1000	1	115	12:20:00	2796054	0	0	0	0	0	0	0	0	0	0	0	0	0	0	0	0	0
090712	12:20:00	10021	Trial3BackFr	NN	4	0	1000	1	115	12:20:00	2797573	0	0	0	0	0	0	0	0	0	0	0	0	0	0	0	0	0
090712	12:20:00	10021	Trial3BackFr	NN	4	57	952	0	115	12:20:00	2799053	0	0	0	0	0	0	0	0	0	0	0	0	0	0	0	0	0
090712	12:20:00	10021	Trial3BackFr	NN	4	0	1000	1	115	12:20:00	2800599	0	0	0	0	0	0	0	0	0	0	0	0	0	0	0	0	0
090712	12:20:00	10021	Trial3BackFr	YY	4	0	1000	0	115	12:20:00	2802118	0	0	0	0	0	0	0	0	0	0	0	0	0	0	0	0	0
090712	12:20:00	10021	Trial3BackFr	NN	4	0	1000	1	115	12:20:00	2803638	0	0	0	0	0	0	0	0	0	0	0	0	0	0	0	0	0
090712	12:20:00	10021	Trial3BackFr	NN	4	0	1000	1	115	12:20:00	2805157	0	0	0	0	0	0	0	0	0	0	0	0	0	0	0	0	0
090712	12:20:00	10021	Trial3BackFr	NN	4	0	1000	1	115	12:20:00	2806676	0	0	0	0	0	0	0	0	0	0	0	0	0	0	0	0	0
090712	12:20:00	10021	Trial3BackFr	NN	4	0	1000	1	115	12:20:00	2808196	0	0	0	0	0	0	0	0	0	0	0	0	0	0	0	0	0
090712	12:20:00	10021	Trial3BackFr	YY	4	57	793	1	115	12:20:00	2809515	0	0	0	0	0	0	0	0	0	0	0	0	0	0	0	0	0
090712	12:20:00	10021	Trial3BackFr	NN	4	0	1000	1	115	12:20:00	2811221	0	0	0	0	0	0	0	0	0	0	0	0	0	0	0	0	0
090712	12:20:00	10021	Trial3BackFr	NN	4	0	1000	1	115	12:20:00	2812740	0	0	0	0	0	0	0	0	0	0	0	0	0	0	0	0	0
090712	12:20:00	10021	Trial3BackFr	NN	4	0	1000	1	115	12:20:00	2814260	0	0	0	0	0	0	0	0	0	0	0	0	0	0	0	0	0
090712	12:20:00	10021	Trial3BackFr	YY	4	57	952	1	115	12:20:00	2815739	0	0	0	0	0	0	0	0	0	0	0	0	0	0	0	0	0
090712	12:20:00	10021	Trial3BackFr	NN	4	0	1000	1	115	12:20:00	2817285	0	0	0	0	0	0	0	0	0	0	0	0	0	0	0	0	0
090712	12:20:00	10021	Trial3BackFr	NN	4	0	1000	1	115	12:20:00	2818805	0	0	0	0	0	0	0	0	0	0	0	0	0	0	0	0	0
090712	12:20:00	10021	Trial3BackFr	NN	4	0	1000	1	115	12:20:00	2820324	0	0	0	0	0	0	0	0	0	0	0	0	0	0	0	0	0
090712	12:20:00	10021	Trial3BackFr	NN	4	57	920	0	115	12:20:00	2821777	0	0	0	0	0	0	0	0	0	0	0	0	0	0	0	0	0
090712	12:20:00	10021	Trial3BackFr	NN	4	0	1000	1	115	12:20:00	2823349	0	0	0	0	0	0	0	0	0	0	0	0	0	0	0	0	0
090712	12:20:00	10021	Trial3BackFr	YY	4	0	1000	0	115	12:20:00	2824869	0	0	0	0	0	0	0	0	0	0	0	0	0	0	0	0	0
090712	12:20:00	10021	Trial3BackFr	NN	4	0	1000	1	115	12:20:00	2826388	0	0	0	0	0	0	0	0	0	0	0	0	0	0	0	0	0
090712	12:20:00	10021	Trial3BackFr	NN	4	0	1000	1	115	12:20:00	2827907	0	0	0	0	0	0	0	0	0	0	0	0	0	0	0	0	0
090712	12:20:00	10021	Trial3BackFr	NN	4	0	1000	1	115	12:20:00	2829427	0	0	0	0	0	0	0	0	0	0	0	0	0	0	0	0	0
090712	12:20:00	10021	Trial3BackFr	YY	4	57	633	1	115	12:20:00	2830586	0	0	0	0	0	0	0	0	0	0	0	0	0	0	0	0	0
090712	12:20:00	10021	Memory1R3moFr	ScoreFr	5	M2	15498	0	115	12:20:00	2895586	0	0	0	0	0	0	0	0	0	0	0	0	0	0	0	0	0
090712	12:20:00	10021	Memory1R3moFr	ScoreFr	5	M3	278	0	115	12:20:00	2895906	0	0	0	0	0	0	0	0	0	0	0	0	0	0	0	0	0
090712	12:20:00	10021	Memory1R3moFr	ScoreFr	5	M7	2070	0	115	12:20:00	2898012	0	0	0	0	0	0	0	0	0	0	0	0	0	0	0	0	0
090712	12:20:00	10021	Memory1R3moFr	ScoreFr	5	M8	372	0	115	12:20:00	2898425	0	0	0	0	0	0	0	0	0	0	0	0	0	0	0	0	0
090712	12:20:00	10021	Memory1R3moFr	ScoreFr	5	Done	13247	0	115	12:20:00	2911713	0	0	0	0	0	0	0	0	0	0	0	0	0	0	0	0	0
090712	12:20:00	10021	Memory2R3moFr	ScoreFr2	5	22	14948	0	115	12:20:00	2944339	0	0	0	0	0	0	0	0	0	0	0	0	0	0	0	0	0
090712	12:20:00	10021	Memory2R3moFr	ScoreFr2	5	33	451	0	115	12:20:00	2944833	0	0	0	0	0	0	0	0	0	0	0	0	0	0	0	0	0
090712	12:20:00	10021	Memory2R3moFr	ScoreFr2	5	44	366	0	115	12:20:00	2945246	0	0	0	0	0	0	0	0	0	0	0	0	0	0	0	0	0
090712	12:20:00	10021	Memory2R3moFr	ScoreFr2	5	77	833	0	115	12:20:00	2946125	0	0	0	0	0	0	0	0	0	0	0	0	0	0	0	0	0
090712	12:20:00	10021	Memory2R3moFr	ScoreFr2	5	88	289	0	115	12:20:00	2946458	0	0	0	0	0	0	0	0	0	0	0	0	0	0	0	0	0
090712	12:20:00	10021	Memory2R3moFr	ScoreFr2	5	55	7020	0	115	12:20:00	2953522	0	0	0	0	0	0	0	0	0	0	0	0	0	0	0	0	0
090712	12:20:00	10021	Memory2R3moFr	ScoreFr2	5	Done	14732	0	115	12:20:00	2968289	0	0	0	0	0	0	0	0	0	0	0	0	0	0	0	0	0
090712	12:20:00	10021	Memory3R3moFr	ScoreFr3	5	222	20210	0	115	12:20:00	3006727	0	0	0	0	0	0	0	0	0	0	0	0	0	0	0	0	0
090712	12:20:00	10021	Memory3R3moFr	ScoreFr3	5	333	278	0	115	12:20:00	3007047	0	0	0	0	0	0	0	0	0	0	0	0	0	0	0	0	0
090712	12:20:00	10021	Memory3R3moFr	ScoreFr3	5	444	246	0	115	12:20:00	3007327	0	0	0	0	0	0	0	0	0	0	0	0	0	0	0	0	0
090712	12:20:00	10021	Memory3R3moFr	ScoreFr3	5	555	798	0	115	12:20:00	3008166	0	0	0	0	0	0	0	0	0	0	0	0	0	0	0	0	0
090712	12:20:00	10021	Memory3R3moFr	ScoreFr3	5	666	246	0	115	12:20:00	3008446	0	0	0	0	0	0	0	0	0	0	0	0	0	0	0	0	0
090712	12:20:00	10021	Memory3R3moFr	ScoreFr3	5	777	334	0	115	12:20:00	3008819	0	0	0	0	0	0	0	0	0	0	0	0	0	0	0	0	0
090712	12:20:00	10021	Memory3R3moFr	ScoreFr3	5	111	20704	0	115	12:20:00	3029557	0	0	0	0	0	0	0	0	0	0	0	0	0	0	0	0	0
090712	12:20:00	10021	Memory3R3moFr	ScoreFr3	5	888	10438	0	115	12:20:00	3040033	0	0	0	0	0	0	0	0	0	0	0	0	0	0	0	0	0
090712	12:20:00	10021	Memory3R3moFr	ScoreFr3	5	Done	1330	0	115	12:20:00	3041406	0	0	0	0	0	0	0	0	0	0	0	0	0	0	0	0	0
090712	12:20:00	10021	LoriaFrLH3	Stop	6	2	6592	0	115	12:20:00	3154334	0	0	0	0	0	0	0	0	0	0	0	0	0	0	0	0	0
090712	12:20:00	10021	FrTrail	Trails	7	1Trails	975	0	115	12:20:00	3194596	0	0	0	0	0	0	0	0	0	0	0	0	0	0	0	0	0
090712	12:20:00	10021	Serial7Fr3mo	Serial7Fr3mo	8	83	22606	0	115	12:20:00	3239940	1	0	0	0	0	0	0	0	0	0	0	0	0	0	0	0	0
090712	12:20:00	10021	Serial7Fr3mo	Serial7Fr3mo	8	76	18969	0	115	12:20:00	3258934	2	0	0	0	0	0	0	0	0	0	0	0	0	0	0	0	0
090712	12:20:00	10021	Serial7Fr3mo	Serial7Fr3mo	8	69	17215	0	115	12:20:00	3276168	3	0	0	0	0	0	0	0	0	0	0	0	0	0	0	0	0
090712	12:20:00	10021	Serial7Fr3mo	Serial7Fr3mo	8	63	23767	0	115	12:20:00	3299961	3	0	0	0	0	0	0	0	0	0	0	0	0	0	0	0	0
090712	12:20:00	10021	Serial7Fr3mo	Serial7Fr3mo	8	56	19736	0	115	12:20:00	3319715	4	0	0	0	0	0	0	0	0	0	0	0	0	0	0	0	0
090712	12:20:00	10021	corsiblockFrFwrd	recallseqFrFwrd	9	9	2100	0	115	12:20:00	3400574	4	0	0	0	0	0	0	0	0	0	0	0	0	0	0	0	0
090712	12:20:00	10021	corsiblockFrFwrd	recallseqFrFwrd	9	doneCorsiFr	3891	0	115	12:20:00	3404506	4	0	0	0	0	0	0	0	0	0	0	0	0	0	0	0	0
090712	12:20:00	10021	corsiblockFrFwrd	recallseqFrFwrd	9	3	1875	0	115	12:20:00	3411436	4	0	0	0	0	0	0	0	0	0	0	0	0	0	0	0	0
090712	12:20:00	10021	corsiblockFrFwrd	recallseqFrFwrd	9	doneCorsiFr	3397	0	115	12:20:00	3414875	4	0	0	0	0	0	0	0	0	0	0	0	0	0	0	0	0
090712	12:20:00	10021	corsiblockFrRev	recallseqFrRev	10	6	14757	0	115	12:20:00	3445716	4	0	0	0	0	0	0	0	0	0	0	0	0	0	0	0	0
090712	12:20:00	10021	corsiblockFrRev	recallseqFrRev	10	doneCorsiFr	1188	0	115	12:20:00	3446942	4	0	0	0	0	0	0	0	0	0	0	0	0	0	0	0	0
090712	12:20:00	10021	corsiblockFrRev	recallseqFrRev	10	5	1462	0	115	12:20:00	3453459	4	0	0	0	0	0	0	0	0	0	0	0	0	0	0	0	0
090712	12:20:00	10021	corsiblockFrRev	recallseqFrRev	10	doneCorsiFr	901	0	115	12:20:00	3454405	4	0	0	0	0	0	0	0	0	0	0	0	0	0	0	0	0
090712	12:20:00	10021	testFr3mo	WordsFr3mo	11	1Fr3mo	37983	0	115	12:20:00	3494376	4	1	0	0	0	0	0	0	0	0	0	0	0	0	0	0	0
090712	12:20:00	10021	testFr3mo	WordsFr3mo	11	4Fr3mo	1103	0	115	12:20:00	3495522	4	1	0	0	1	0	0	0	0	0	0	0	0	0	0	0	0
090712	12:20:00	10021	testFr3mo	WordsFr3mo	11	5Fr3mo	741	0	115	12:20:00	3496308	4	1	0	0	1	1	0	0	0	0	0	0	0	0	0	0	0
090712	12:20:00	10021	testFr3mo	WordsFr3mo	11	7Fr3mo	1786	0	115	12:20:00	3498134	4	1	0	0	1	1	0	1	0	0	0	0	0	0	0	0	0
090712	12:20:00	10021	testFr3mo	WordsFr3mo	11	8Fr3mo	201	0	115	12:20:00	3498374	4	1	0	0	1	1	0	1	1	0	0	0	0	0	0	0	0
090712	12:20:00	10021	testFr3mo	WordsFr3mo	11	DoneFr3mo	16224	0	115	12:20:00	3514634	4	1	0	0	1	1	0	1	1	0	0	0	0	0	0	0	0
090712	12:20:00	10021	testFr3mo	Cat2Fr3mo	11	W2Fr3mo	10884	0	115	12:20:00	3525562	4	1	0	0	1	1	0	1	1	0	0	0	0	0	0	0	0
090712	12:20:00	10021	testFr3mo	Ch2Fr3mo	11	RR2Fr3mo	3778	0	115	12:20:00	3529374	4	1	3	0	1	1	0	1	1	0	0	0	0	0	0	0	0
090712	12:20:00	10021	testFr3mo	Cat3Fr3mo	11	0	1	0	115	12:20:00	3529390	4	1	3	0	1	1	0	1	1	0	0	0	0	0	0	0	0
090712	12:20:00	10021	testFr3mo	Ch3Fr3mo	11	RR3Fr3mo	5451	0	115	12:20:00	3534878	4	1	3	3	1	1	0	1	1	0	0	0	0	0	0	0	0
090712	12:20:00	10021	testFr3mo	Cat6Fr3mo	11	W6Fr3mo	7207	0	115	12:20:00	3542129	4	1	3	3	1	1	0	1	1	0	0	0	0	0	0	0	0
090712	12:20:00	10021	testFr3mo	Ch6Fr3mo	11	RR6Fr3mo	10500	0	115	12:20:00	3552671	4	1	3	3	1	1	3	1	1	0	0	0	0	0	0	0	0
090712	12:20:00	10021	DigitSpanFwrdFr3mo	Score1FwrdFr3mo	12	DS1	4247	0	115	12:20:00	3579313	4	1	3	3	1	1	3	1	1	0	0	0	0	0	0	0	0
090712	12:20:00	10021	DigitSpanFwrdFr3mo	Gate1FwrdFr3mo	12	0	1	0	115	12:20:00	3579328	4	1	3	3	1	1	3	1	1	3	0	0	0	0	0	0	0
090712	12:20:00	10021	DigitSpanFwrdFr3mo	Score2FwrdFr3mo	12	DS1	3181	0	115	12:20:00	3588203	4	1	3	3	1	1	3	1	1	3	0	0	0	0	0	0	0
090712	12:20:00	10021	DigitSpanFwrdFr3mo	Gate3FwrdFr3mo	12	0	1	0	115	12:20:00	3588218	4	1	3	3	1	1	3	1	1	4	0	0	0	0	0	0	0
090712	12:20:00	10021	DigitSpanFwrdFr3mo	Score3FwrdFr3mo	12	DS2	8769	0	115	12:20:00	3604236	4	1	3	3	1	1	3	1	1	4	0	0	0	0	0	0	0
090712	12:20:00	10021	DigitSpanFwrdFr3mo	Gate5FwrdFr3mo	12	0	1	0	115	12:20:00	3604251	4	1	3	3	1	1	3	1	1	4	0	0	0	0	0	0	0
090712	12:20:00	10021	DigitSpanFwrdFr3mo	Score33FwrdFr3mo	12	DS1	4956	0	115	12:20:00	3616444	4	1	3	3	1	1	3	1	1	4	0	0	0	0	0	0	0
090712	12:20:00	10021	DigitSpanFwrdFr3mo	Gate6FwrdFr3mo	12	0	1	0	115	12:20:00	3616460	4	1	3	3	1	1	3	1	1	5	0	0	0	0	0	0	0
090712	12:20:00	10021	DigitSpanFwrdFr3mo	Score4FwrdFr3mo	12	DS2	7154	0	115	12:20:00	3632158	4	1	3	3	1	1	3	1	1	5	0	0	0	0	0	0	0
090712	12:20:00	10021	DigitSpanFwrdFr3mo	Gate7FwrdFr3mo	12	0	1	0	115	12:20:00	3632173	4	1	3	3	1	1	3	1	1	5	0	0	0	0	0	0	0
090712	12:20:00	10021	DigitSpanFwrdFr3mo	Score44FwrdFr3mo	12	DS2	5578	0	115	12:20:00	3646058	4	1	3	3	1	1	3	1	1	5	0	0	0	0	0	0	0
090712	12:20:00	10021	DigitSpanFr3mo	Score1Fr3mo	13	DS1	3631	0	115	12:20:00	3672474	4	1	3	3	1	1	3	1	1	5	0	0	0	0	0	0	0
090712	12:20:00	10021	DigitSpanFr3mo	Gate1Fr3mo	13	0	1	0	115	12:20:00	3672490	4	1	3	3	1	1	3	1	1	5	2	0	0	0	0	0	0
090712	12:20:00	10021	DigitSpanFr3mo	Score2Fr3mo	13	DS2	3853	0	115	12:20:00	3680911	4	1	3	3	1	1	3	1	1	5	2	0	0	0	0	0	0
090712	12:20:00	10021	DigitSpanFr3mo	Gate3Fr3mo	13	0	1	0	115	12:20:00	3680926	4	1	3	3	1	1	3	1	1	5	2	0	0	0	0	0	0
090712	12:20:00	10021	DigitSpanFr3mo	Score22Fr3mo	13	DS2	6726	0	115	12:20:00	3691880	4	1	3	3	1	1	3	1	1	5	2	0	0	0	0	0	0
090712	12:20:00	10021	Trial	IncongruentRight	14	0	737	0	115	12:20:00	3754987	4	1	3	3	1	1	3	1	1	5	2	0	0	0	0	0	0
090712	12:20:00	10021	Trial	IncongruentLeft	14	205	25	0	115	12:20:00	3755293	4	1	3	3	1	1	3	1	1	5	2	0	0	0	0	0	0
090712	12:20:00	10021	Trial	CongruentRight	14	203	529	0	115	12:20:00	3756786	4	1	3	3	1	1	3	1	1	5	2	0	0	0	0	0	0
090712	12:20:00	10021	Trial	IncongruentRight	14	0	737	0	115	12:20:00	3757999	4	1	3	3	1	1	3	1	1	5	2	0	0	0	0	0	0
090712	12:20:00	10021	Trial	CongruentLeft	14	205	196	0	115	12:20:00	3758465	4	1	3	3	1	1	3	1	1	5	2	0	0	0	0	0	0
090712	12:20:00	10021	Trial	CongruentRight	14	0	737	0	115	12:20:00	3760011	4	1	3	3	1	1	3	1	1	5	2	0	0	0	0	0	0
090712	12:20:00	10021	Trial	IncongruentRight	14	0	737	0	115	12:20:00	3761024	4	1	3	3	1	1	3	1	1	5	2	0	0	0	0	0	0
090712	12:20:00	10021	Trial	CongruentLeft	14	203	579	1	115	12:20:00	3761877	4	1	3	3	1	1	3	1	1	5	2	0	0	0	0	0	0
090712	12:20:00	10021	Trial	IncongruentLeft	14	0	737	0	115	12:20:00	3763037	4	1	3	3	1	1	3	1	1	5	2	0	0	0	0	0	0
090712	12:20:00	10021	Trial	IncongruentLeft	14	203	215	1	115	12:20:00	3763530	4	1	3	3	1	1	3	1	1	5	2	0	0	0	0	0	0
090712	12:20:00	10021	Trial	CongruentRight	14	0	737	0	115	12:20:00	3765049	4	1	3	3	1	1	3	1	1	5	2	0	0	0	0	0	0
090712	12:20:00	10021	Trial	IncongruentRight	14	0	737	0	115	12:20:00	3766075	4	1	3	3	1	1	3	1	1	5	2	0	0	0	0	0	0
090712	12:20:00	10021	Trial	CongruentLeft	14	205	40	0	115	12:20:00	3766395	4	1	3	3	1	1	3	1	1	5	2	0	0	0	0	0	0
090712	12:20:00	10021	Trial	CongruentRight	14	203	544	0	115	12:20:00	3767888	4	1	3	3	1	1	3	1	1	5	2	0	0	0	0	0	0
090712	12:20:00	10021	Trial	IncongruentLeft	14	0	737	0	115	12:20:00	3769087	4	1	3	3	1	1	3	1	1	5	2	0	0	0	0	0	0
090712	12:20:00	10021	Trial	IncongruentRight	14	203	452	0	115	12:20:00	3769821	4	1	3	3	1	1	3	1	1	5	2	0	0	0	0	0	0
090712	12:20:00	10021	Trial	CongruentRight	14	205	636	1	115	12:20:00	3770993	4	1	3	3	1	1	3	1	1	5	2	0	0	0	0	0	0
090712	12:20:00	10021	Trial	CongruentLeft	14	0	737	0	115	12:20:00	3772100	4	1	3	3	1	1	3	1	1	5	2	0	0	0	0	0	0
090712	12:20:00	10021	Trial	CongruentRight	14	0	737	0	115	12:20:00	3773112	4	1	3	3	1	1	3	1	1	5	2	0	0	0	0	0	0
090712	12:20:00	10021	Trial	IncongruentRight	14	0	737	0	115	12:20:00	3774125	4	1	3	3	1	1	3	1	1	5	2	0	0	0	0	0	0
090712	12:20:00	10021	Trial	IncongruentLeft	14	203	709	1	115	12:20:00	3775112	4	1	3	3	1	1	3	1	1	5	2	0	0	0	0	0	0
090712	12:20:00	10021	Trial	IncongruentLeft	14	0	737	0	115	12:20:00	3776138	4	1	3	3	1	1	3	1	1	5	2	0	0	0	0	0	0
090712	12:20:00	10021	Trial	CongruentLeft	14	203	649	1	115	12:20:00	3777058	4	1	3	3	1	1	3	1	1	5	2	0	0	0	0	0	0
090712	12:20:00	10021	Trial	CongruentRight	14	0	737	0	115	12:20:00	3778151	4	1	3	3	1	1	3	1	1	5	2	0	0	0	0	0	0
090712	12:20:00	10021	Trial	IncongruentLeft	14	205	700	0	115	12:20:00	3779123	4	1	3	3	1	1	3	1	1	5	2	0	0	0	0	0	0
090712	12:20:00	10021	Trial	IncongruentRight	14	0	737	0	115	12:20:00	3780163	4	1	3	3	1	1	3	1	1	5	2	0	0	0	0	0	0
090712	12:20:00	10021	Trial	CongruentRight	14	0	737	0	115	12:20:00	3781176	4	1	3	3	1	1	3	1	1	5	2	0	0	0	0	0	0
090712	12:20:00	10021	Trial	CongruentLeft	14	0	737	0	115	12:20:00	3782189	4	1	3	3	1	1	3	1	1	5	2	0	0	0	0	0	0
090712	12:20:00	10021	Trial	IncongruentRight	14	0	737	0	115	12:20:00	3783202	4	1	3	3	1	1	3	1	1	5	2	0	0	0	0	0	0
090712	12:20:00	10021	Trial	IncongruentLeft	14	0	737	0	115	12:20:00	3784215	4	1	3	3	1	1	3	1	1	5	2	0	0	0	0	0	0
090712	12:20:00	10021	Trial	IncongruentRight	14	0	737	0	115	12:20:00	3785227	4	1	3	3	1	1	3	1	1	5	2	0	0	0	0	0	0
090712	12:20:00	10021	Trial	CongruentRight	14	0	737	0	115	12:20:00	3786240	4	1	3	3	1	1	3	1	1	5	2	0	0	0	0	0	0
090712	12:20:00	10021	Trial	IncongruentLeft	14	0	737	0	115	12:20:00	3787253	4	1	3	3	1	1	3	1	1	5	2	0	0	0	0	0	0
090712	12:20:00	10021	Trial	CongruentLeft	14	0	737	0	115	12:20:00	3788266	4	1	3	3	1	1	3	1	1	5	2	0	0	0	0	0	0
090712	12:20:00	10021	Trial	CongruentRight	14	0	737	0	115	12:20:00	3789279	4	1	3	3	1	1	3	1	1	5	2	0	0	0	0	0	0
090712	12:20:00	10021	Trial	IncongruentLeft	14	0	737	0	115	12:20:00	3790292	4	1	3	3	1	1	3	1	1	5	2	0	0	0	0	0	0
090712	12:20:00	10021	Trial	IncongruentRight	14	0	737	0	115	12:20:00	3791305	4	1	3	3	1	1	3	1	1	5	2	0	0	0	0	0	0
090712	12:20:00	10021	Trial	IncongruentRight	14	0	737	0	115	12:20:00	3792318	4	1	3	3	1	1	3	1	1	5	2	0	0	0	0	0	0
090712	12:20:00	10021	Trial	CongruentLeft	14	0	737	0	115	12:20:00	3793331	4	1	3	3	1	1	3	1	1	5	2	0	0	0	0	0	0
090712	12:20:00	10021	Trial	IncongruentLeft	14	0	737	0	115	12:20:00	3794344	4	1	3	3	1	1	3	1	1	5	2	0	0	0	0	0	0
090712	12:20:00	10021	Trial	CongruentRight	14	205	59	1	115	12:20:00	3794677	4	1	3	3	1	1	3	1	1	5	2	0	0	0	0	0	0
090712	12:20:00	10021	Trial	CongruentLeft	14	0	737	0	115	12:20:00	3796356	4	1	3	3	1	1	3	1	1	5	2	0	0	0	0	0	0
090712	12:20:00	10021	Trial	IncongruentRight	14	0	737	0	115	12:20:00	3797369	4	1	3	3	1	1	3	1	1	5	2	0	0	0	0	0	0
090712	12:20:00	10021	Trial	CongruentRight	14	0	737	0	115	12:20:00	3798382	4	1	3	3	1	1	3	1	1	5	2	0	0	0	0	0	0
090712	12:20:00	10021	Trial	IncongruentLeft	14	203	196	1	115	12:20:00	3798849	4	1	3	3	1	1	3	1	1	5	2	0	0	0	0	0	0
090712	12:20:00	10021	Trial	CongruentLeft	14	205	588	0	115	12:20:00	3800248	4	1	3	3	1	1	3	1	1	5	2	0	0	0	0	0	0
090712	12:20:00	10021	Trial	IncongruentLeft	14	0	737	0	115	12:20:00	3801394	4	1	3	3	1	1	3	1	1	5	2	0	0	0	0	0	0
090712	12:20:00	10021	Trial	IncongruentRight	14	203	128	0	115	12:20:00	3801794	4	1	3	3	1	1	3	1	1	5	2	0	0	0	0	0	0
090712	12:20:00	10021	Trial	CongruentRight	14	205	648	1	115	12:20:00	3803313	4	1	3	3	1	1	3	1	1	5	2	0	0	0	0	0	0
090712	12:20:00	10021	Trial	CongruentLeft	14	0	737	0	115	12:20:00	3804406	4	1	3	3	1	1	3	1	1	5	2	0	0	0	0	0	0
090712	12:20:00	10021	Trial	CongruentLeft	14	203	188	1	115	12:20:00	3804873	4	1	3	3	1	1	3	1	1	5	2	0	0	0	0	0	0
090712	12:20:00	10021	Trial	IncongruentRight	14	0	737	0	115	12:20:00	3806419	4	1	3	3	1	1	3	1	1	5	2	0	0	0	0	0	0
090712	12:20:00	10021	Trial	IncongruentLeft	14	0	737	0	115	12:20:00	3807432	4	1	3	3	1	1	3	1	1	5	2	0	0	0	0	0	0
090712	12:20:00	10021	Trial	IncongruentRight	14	0	737	0	115	12:20:00	3808445	4	1	3	3	1	1	3	1	1	5	2	0	0	0	0	0	0
090712	12:20:00	10021	Trial	CongruentRight	14	0	737	0	115	12:20:00	3809457	4	1	3	3	1	1	3	1	1	5	2	0	0	0	0	0	0
090712	12:20:00	10021	Trial	CongruentRight	14	205	400	1	115	12:20:00	3810137	4	1	3	3	1	1	3	1	1	5	2	0	0	0	0	0	0
090712	12:20:00	10021	Trial	IncongruentLeft	14	203	632	1	115	12:20:00	3811364	4	1	3	3	1	1	3	1	1	5	2	0	0	0	0	0	0
090712	12:20:00	10021	Trial	CongruentLeft	14	0	737	0	115	12:20:00	3812470	4	1	3	3	1	1	3	1	1	5	2	0	0	0	0	0	0
090712	12:20:00	10021	Trial	CongruentRight	14	0	737	0	115	12:20:00	3813482	4	1	3	3	1	1	3	1	1	5	2	0	0	0	0	0	0
090712	12:20:00	10021	Trial	CongruentLeft	14	205	215	0	115	12:20:00	3813975	4	1	3	3	1	1	3	1	1	5	2	0	0	0	0	0	0
090712	12:20:00	10021	Trial	IncongruentRight	14	203	559	0	115	12:20:00	3815322	4	1	3	3	1	1	3	1	1	5	2	0	0	0	0	0	0
090712	12:20:00	10021	Trial	CongruentRight	14	0	737	0	115	12:20:00	3816495	4	1	3	3	1	1	3	1	1	5	2	0	0	0	0	0	0
090712	12:20:00	10021	Trial	CongruentLeft	14	0	737	0	115	12:20:00	3817507	4	1	3	3	1	1	3	1	1	5	2	0	0	0	0	0	0
090712	12:20:00	10021	Trial	IncongruentLeft	14	205	142	0	115	12:20:00	3817920	4	1	3	3	1	1	3	1	1	5	2	0	0	0	0	0	0
090712	12:20:00	10021	Trial	IncongruentLeft	14	0	737	0	115	12:20:00	3819520	4	1	3	3	1	1	3	1	1	5	2	0	0	0	0	0	0
090712	12:20:00	10021	Trial	CongruentRight	14	0	737	0	115	12:20:00	3820533	4	1	3	3	1	1	3	1	1	5	2	0	0	0	0	0	0
090712	12:20:00	10021	Trial	IncongruentRight	14	0	737	0	115	12:20:00	3821546	4	1	3	3	1	1	3	1	1	5	2	0	0	0	0	0	0
090712	12:20:00	10021	Trial	CongruentLeft	14	0	737	0	115	12:20:00	3822559	4	1	3	3	1	1	3	1	1	5	2	0	0	0	0	0	0
090712	12:20:00	10021	Trial	IncongruentRight	14	205	611	1	115	12:20:00	3823438	4	1	3	3	1	1	3	1	1	5	2	0	0	0	0	0	0
090712	12:20:00	10021	Trial	CongruentRight	14	0	737	0	115	12:20:00	3824571	4	1	3	3	1	1	3	1	1	5	2	0	0	0	0	0	0
090712	12:20:00	10021	Trial	IncongruentLeft	14	0	737	0	115	12:20:00	3825584	4	1	3	3	1	1	3	1	1	5	2	0	0	0	0	0	0
090712	12:20:00	10021	Trial	CongruentLeft	14	0	737	0	115	12:20:00	3826597	4	1	3	3	1	1	3	1	1	5	2	0	0	0	0	0	0
090712	12:20:00	10021	Trial	CongruentRight	14	0	737	0	115	12:20:00	3827610	4	1	3	3	1	1	3	1	1	5	2	0	0	0	0	0	0
090712	12:20:00	10021	Trial	IncongruentLeft	14	0	737	0	115	12:20:00	3828623	4	1	3	3	1	1	3	1	1	5	2	0	0	0	0	0	0
090712	12:20:00	10021	Trial	CongruentRight	14	203	322	0	115	12:20:00	3829223	4	1	3	3	1	1	3	1	1	5	2	0	0	0	0	0	0
090712	12:20:00	10021	Trial	CongruentRight	14	205	475	1	115	12:20:00	3830369	4	1	3	3	1	1	3	1	1	5	2	0	0	0	0	0	0
090712	12:20:00	10021	Trial	IncongruentRight	14	205	707	1	115	12:20:00	3831608	4	1	3	3	1	1	3	1	1	5	2	0	0	0	0	0	0
090712	12:20:00	10021	Trial	CongruentLeft	14	0	737	0	115	12:20:00	3832635	4	1	3	3	1	1	3	1	1	5	2	0	0	0	0	0	0
090712	12:20:00	10021	Trial	IncongruentLeft	14	0	737	0	115	12:20:00	3833661	4	1	3	3	1	1	3	1	1	5	2	0	0	0	0	0	0
090712	12:20:00	10021	Trial	CongruentLeft	14	203	4	1	115	12:20:00	3833942	4	1	3	3	1	1	3	1	1	5	2	0	0	0	0	0	0
090712	12:20:00	10021	Trial	IncongruentRight	14	205	668	1	115	12:20:00	3835607	4	1	3	3	1	1	3	1	1	5	2	0	0	0	0	0	0
090712	12:20:00	10021	Trial	IncongruentLeft	14	0	737	0	115	12:20:00	3836673	4	1	3	3	1	1	3	1	1	5	2	0	0	0	0	0	0
090712	12:20:00	10021	Trial	CongruentRight	14	0	737	0	115	12:20:00	3837686	4	1	3	3	1	1	3	1	1	5	2	0	0	0	0	0	0
090712	12:20:00	10021	Trial	CongruentLeft	14	0	737	0	115	12:20:00	3838699	4	1	3	3	1	1	3	1	1	5	2	0	0	0	0	0	0
090712	12:20:00	10021	Trial	IncongruentLeft	14	203	38	1	115	12:20:00	3839019	4	1	3	3	1	1	3	1	1	5	2	0	0	0	0	0	0
090712	12:20:00	10021	Trial	CongruentLeft	14	0	737	0	115	12:20:00	3840711	4	1	3	3	1	1	3	1	1	5	2	0	0	0	0	0	0
090712	12:20:00	10021	Trial	IncongruentRight	14	0	737	0	115	12:20:00	3841724	4	1	3	3	1	1	3	1	1	5	2	0	0	0	0	0	0
090712	12:20:00	10021	Trial	CongruentRight	14	0	737	0	115	12:20:00	3842737	4	1	3	3	1	1	3	1	1	5	2	0	0	0	0	0	0
090712	12:20:00	10021	Trial	IncongruentLeft	14	0	737	0	115	12:20:00	3843750	4	1	3	3	1	1	3	1	1	5	2	0	0	0	0	0	0
090712	12:20:00	10021	Trial	CongruentLeft	14	0	737	0	115	12:20:00	3844763	4	1	3	3	1	1	3	1	1	5	2	0	0	0	0	0	0
090712	12:20:00	10021	Trial	IncongruentRight	14	205	661	1	115	12:20:00	3845696	4	1	3	3	1	1	3	1	1	5	2	0	0	0	0	0	0
090712	12:20:00	10021	Trial	IncongruentLeft	14	0	737	0	115	12:20:00	3846775	4	1	3	3	1	1	3	1	1	5	2	0	0	0	0	0	0
090712	12:20:00	10021	Trial	CongruentLeft	14	0	737	0	115	12:20:00	3847788	4	1	3	3	1	1	3	1	1	5	2	0	0	0	0	0	0
090712	12:20:00	10021	Trial	IncongruentLeft	14	0	737	0	115	12:20:00	3848801	4	1	3	3	1	1	3	1	1	5	2	0	0	0	0	0	0
090712	12:20:00	10021	Trial	CongruentRight	14	0	737	0	115	12:20:00	3849814	4	1	3	3	1	1	3	1	1	5	2	0	0	0	0	0	0
090712	12:20:00	10021	Trial	CongruentLeft	14	0	737	0	115	12:20:00	3850827	4	1	3	3	1	1	3	1	1	5	2	0	0	0	0	0	0
090712	12:20:00	10021	Trial	IncongruentRight	14	205	536	1	115	12:20:00	3851733	4	1	3	3	1	1	3	1	1	5	2	0	0	0	0	0	0
090712	12:20:00	10021	Trial	CongruentLeft	14	0	737	0	115	12:20:00	3852933	4	1	3	3	1	1	3	1	1	5	2	0	0	0	0	0	0
090712	12:20:00	10021	Trial	CongruentRight	14	0	737	0	115	12:20:00	3853946	4	1	3	3	1	1	3	1	1	5	2	0	0	0	0	0	0
090712	12:20:00	10021	Trial	IncongruentLeft	14	203	182	1	115	12:20:00	3854399	4	1	3	3	1	1	3	1	1	5	2	0	0	0	0	0	0
090712	12:20:00	10021	WordsAbsFr3mo	PAbsFr3mo1	16	Abs1	4113	0	115	12:20:00	3874670	4	1	3	3	1	1	3	1	1	5	2	0	0	0	0	0	0
090712	12:20:00	10021	WordsAbsFr3mo	AbsFr3mo1	16	Abs1	4482	0	115	12:20:00	3879189	4	1	3	3	1	1	3	1	1	5	2	1	0	0	0	0	0
090712	12:20:00	10021	WordsAbsFr3mo	AbsFr3mo2	16	Abs2	40531	0	115	12:20:00	3919758	4	1	3	3	1	1	3	1	1	5	2	1	0	0	0	0	0
090712	12:20:00	10021	WordsAbsFr3mo	AbsFr3mo3	16	Abs2	31169	0	115	12:20:00	3950972	4	1	3	3	1	1	3	1	1	5	2	1	0	0	0	0	0
090712	12:20:00	10021	Trial2BackFrS	NS	17	0	1000	1	115	12:20:00	4057981	4	1	3	3	1	1	3	1	1	5	2	1	0	0	0	0	0
090712	12:20:00	10021	Trial2BackFrS	NS	17	0	1000	1	115	12:20:00	4059501	4	1	3	3	1	1	3	1	1	5	2	1	0	0	0	0	0
090712	12:20:00	10021	Trial2BackFrS	NS	17	0	1000	1	115	12:20:00	4061020	4	1	3	3	1	1	3	1	1	5	2	1	0	0	0	0	0
090712	12:20:00	10021	Trial2BackFrS	YS	17	57	881	1	115	12:20:00	4062432	4	1	3	3	1	1	3	1	1	5	2	1	0	0	0	0	0
090712	12:20:00	10021	Trial2BackFrS	NS	17	0	1000	1	115	12:20:00	4064045	4	1	3	3	1	1	3	1	1	5	2	1	0	0	0	0	0
090712	12:20:00	10021	Trial2BackFrS	NS	17	0	1000	1	115	12:20:00	4065564	4	1	3	3	1	1	3	1	1	5	2	1	0	0	0	0	0
090712	12:20:00	10021	Trial2BackFrS	NS	17	0	1000	1	115	12:20:00	4067084	4	1	3	3	1	1	3	1	1	5	2	1	0	0	0	0	0
090712	12:20:00	10021	Trial2BackFrS	NS	17	57	737	0	115	12:20:00	4068350	4	1	3	3	1	1	3	1	1	5	2	1	0	0	0	0	0
090712	12:20:00	10021	Trial2BackFrS	YS	17	0	1000	0	115	12:20:00	4070109	4	1	3	3	1	1	3	1	1	5	2	1	0	0	0	0	0
090712	12:20:00	10021	Trial2BackFrS	NS	17	0	1000	1	115	12:20:00	4071629	4	1	3	3	1	1	3	1	1	5	2	1	0	0	0	0	0
090712	12:20:00	10021	Trial2BackFrS	NS	17	0	1000	1	115	12:20:00	4073148	4	1	3	3	1	1	3	1	1	5	2	1	0	0	0	0	0
090712	12:20:00	10021	Trial2BackFrS	YS	17	0	1000	0	115	12:20:00	4074667	4	1	3	3	1	1	3	1	1	5	2	1	0	0	0	0	0
090712	12:20:00	10021	Trial2BackFrS	NS	17	57	865	0	115	12:20:00	4076067	4	1	3	3	1	1	3	1	1	5	2	1	0	0	0	0	0
090712	12:20:00	10021	Trial2BackFrS	NS	17	0	1000	1	115	12:20:00	4077693	4	1	3	3	1	1	3	1	1	5	2	1	0	0	0	0	0
090712	12:20:00	10021	Trial2BackFrS	NS	17	0	1000	1	115	12:20:00	4079212	4	1	3	3	1	1	3	1	1	5	2	1	0	0	0	0	0
090712	12:20:00	10021	Trial2BackFrS	YS	17	57	832	1	115	12:20:00	4080572	4	1	3	3	1	1	3	1	1	5	2	1	0	0	0	0	0
090712	12:20:00	10021	Trial2BackFrS	NS	17	0	1000	1	115	12:20:00	4082238	4	1	3	3	1	1	3	1	1	5	2	1	0	0	0	0	0
090712	12:20:00	10021	Trial2BackFrS	NS	17	0	1000	1	115	12:20:00	4083757	4	1	3	3	1	1	3	1	1	5	2	1	0	0	0	0	0
090712	12:20:00	10021	Trial2BackFrS	NS	17	57	719	0	115	12:20:00	4085010	4	1	3	3	1	1	3	1	1	5	2	1	0	0	0	0	0
090712	12:20:00	10021	Trial2BackFrS	NS	17	0	1000	1	115	12:20:00	4086782	4	1	3	3	1	1	3	1	1	5	2	1	0	0	0	0	0
090712	12:20:00	10021	Trial2BackFrS	YS	17	57	750	1	115	12:20:00	4088062	4	1	3	3	1	1	3	1	1	5	2	1	0	0	0	0	0
090712	12:20:00	10021	Trial2BackFrS	NS	17	0	1000	1	115	12:20:00	4089808	4	1	3	3	1	1	3	1	1	5	2	1	0	0	0	0	0
090712	12:20:00	10021	Trial2BackFrS	NS	17	0	1000	1	115	12:20:00	4091327	4	1	3	3	1	1	3	1	1	5	2	1	0	0	0	0	0
090712	12:20:00	10021	Trial2BackFrS	NS	17	0	1000	1	115	12:20:00	4092846	4	1	3	3	1	1	3	1	1	5	2	1	0	0	0	0	0
090712	12:20:00	10021	Trial2BackFrS	NS	17	0	1000	1	115	12:20:00	4094366	4	1	3	3	1	1	3	1	1	5	2	1	0	0	0	0	0
090712	12:20:00	10021	Trial2BackFrS	NS	17	57	638	0	115	12:20:00	4095525	4	1	3	3	1	1	3	1	1	5	2	1	0	0	0	0	0
090712	12:20:00	10021	Trial2BackFrS	NS	17	0	1000	1	115	12:20:00	4097391	4	1	3	3	1	1	3	1	1	5	2	1	0	0	0	0	0
090712	12:20:00	10021	Trial2BackFrS	NS	17	0	1000	1	115	12:20:00	4098910	4	1	3	3	1	1	3	1	1	5	2	1	0	0	0	0	0
090712	12:20:00	10021	Trial2BackFrS	NS	17	0	1000	1	115	12:20:00	4100430	4	1	3	3	1	1	3	1	1	5	2	1	0	0	0	0	0
090712	12:20:00	10021	Trial2BackFrS	NS	17	0	1000	1	115	12:20:00	4101949	4	1	3	3	1	1	3	1	1	5	2	1	0	0	0	0	0
090712	12:20:00	10021	Trial2BackFrS	NS	17	0	1000	1	115	12:20:00	4103469	4	1	3	3	1	1	3	1	1	5	2	1	0	0	0	0	0
090712	12:20:00	10021	Trial2BackFrS	YS	17	57	895	1	115	12:20:00	4104895	4	1	3	3	1	1	3	1	1	5	2	1	0	0	0	0	0
090712	12:20:00	10021	Trial2BackFrS	NS	17	0	1000	1	115	12:20:00	4106494	4	1	3	3	1	1	3	1	1	5	2	1	0	0	0	0	0
090712	12:20:00	10021	Trial2BackFrS	NS	17	0	1000	1	115	12:20:00	4108014	4	1	3	3	1	1	3	1	1	5	2	1	0	0	0	0	0
090712	12:20:00	10021	Trial2BackFrS	NS	17	0	1000	1	115	12:20:00	4109533	4	1	3	3	1	1	3	1	1	5	2	1	0	0	0	0	0
090712	12:20:00	10021	Trial2BackFrS	YS	17	57	814	1	115	12:20:00	4110879	4	1	3	3	1	1	3	1	1	5	2	1	0	0	0	0	0
090712	12:20:00	10021	Trial2BackFrS	NS	17	0	1000	1	115	12:20:00	4112558	4	1	3	3	1	1	3	1	1	5	2	1	0	0	0	0	0
090712	12:20:00	10021	Trial2BackFrS	NS	17	0	1000	1	115	12:20:00	4114078	4	1	3	3	1	1	3	1	1	5	2	1	0	0	0	0	0
090712	12:20:00	10021	Trial2BackFrS	NS	17	0	1000	1	115	12:20:00	4115597	4	1	3	3	1	1	3	1	1	5	2	1	0	0	0	0	0
090712	12:20:00	10021	Trial2BackFrS	NS	17	0	1000	1	115	12:20:00	4117116	4	1	3	3	1	1	3	1	1	5	2	1	0	0	0	0	0
090712	12:20:00	10021	Trial2BackFrS	NS	17	0	1000	1	115	12:20:00	4118636	4	1	3	3	1	1	3	1	1	5	2	1	0	0	0	0	0
090712	12:20:00	10021	Trial2BackFrS	NS	17	0	1000	1	115	12:20:00	4120155	4	1	3	3	1	1	3	1	1	5	2	1	0	0	0	0	0
090712	12:20:00	10021	Trial2BackFrS	NS	17	0	1000	1	115	12:20:00	4121675	4	1	3	3	1	1	3	1	1	5	2	1	0	0	0	0	0
090712	12:20:00	10021	Trial2BackFrS	YS	17	57	496	1	115	12:20:00	4122701	4	1	3	3	1	1	3	1	1	5	2	1	0	0	0	0	0
090712	12:20:00	10021	Trial2BackFrS	NS	17	0	1000	1	115	12:20:00	4124700	4	1	3	3	1	1	3	1	1	5	2	1	0	0	0	0	0
090712	12:20:00	10021	Trial2BackFrS	NS	17	0	1000	1	115	12:20:00	4126219	4	1	3	3	1	1	3	1	1	5	2	1	0	0	0	0	0
090712	12:20:00	10021	Trial2BackFrS	NS	17	0	1000	1	115	12:20:00	4127739	4	1	3	3	1	1	3	1	1	5	2	1	0	0	0	0	0
090712	12:20:00	10021	Trial2BackFrS	NS	17	0	1000	1	115	12:20:00	4129258	4	1	3	3	1	1	3	1	1	5	2	1	0	0	0	0	0
090712	12:20:00	10021	Trial2BackFrS	YS	17	57	561	1	115	12:20:00	4130351	4	1	3	3	1	1	3	1	1	5	2	1	0	0	0	0	0
090712	12:20:00	10021	Trial2BackFrS	NS	17	0	1000	1	115	12:20:00	4132284	4	1	3	3	1	1	3	1	1	5	2	1	0	0	0	0	0
090712	12:20:00	10021	Trial2BackFrS	NS	17	0	1000	1	115	12:20:00	4133803	4	1	3	3	1	1	3	1	1	5	2	1	0	0	0	0	0
090712	12:20:00	10021	Trial2BackFrS	NS	17	0	1000	1	115	12:20:00	4135322	4	1	3	3	1	1	3	1	1	5	2	1	0	0	0	0	0
090712	12:20:00	10021	Trial2BackFrS	NS	17	0	1000	1	115	12:20:00	4136841	4	1	3	3	1	1	3	1	1	5	2	1	0	0	0	0	0
090712	12:20:00	10021	Trial2BackFrS	NS	17	0	1000	1	115	12:20:00	4138361	4	1	3	3	1	1	3	1	1	5	2	1	0	0	0	0	0
090712	12:20:00	10021	Trial2BackFrS	NS	17	0	1000	1	115	12:20:00	4139880	4	1	3	3	1	1	3	1	1	5	2	1	0	0	0	0	0
090712	12:20:00	10021	Trial2BackFrS	YS	17	57	674	1	115	12:20:00	4141080	4	1	3	3	1	1	3	1	1	5	2	1	0	0	0	0	0
090712	12:20:00	10021	Trial2BackFrS	NS	17	0	1000	1	115	12:20:00	4142906	4	1	3	3	1	1	3	1	1	5	2	1	0	0	0	0	0
090712	12:20:00	10021	Trial2BackFrS	NS	17	0	1000	1	115	12:20:00	4144425	4	1	3	3	1	1	3	1	1	5	2	1	0	0	0	0	0
090712	12:20:00	10021	Trial2BackFrS	NS	17	0	1000	1	115	12:20:00	4145944	4	1	3	3	1	1	3	1	1	5	2	1	0	0	0	0	0
090712	12:20:00	10021	Trial2BackFrS	NS	17	0	1000	1	115	12:20:00	4147464	4	1	3	3	1	1	3	1	1	5	2	1	0	0	0	0	0
090712	12:20:00	10021	Trial2BackFrS	NS	17	0	1000	1	115	12:20:00	4148983	4	1	3	3	1	1	3	1	1	5	2	1	0	0	0	0	0
090712	12:20:00	10021	Trial2BackFrS	NS	17	57	611	0	115	12:20:00	4150116	4	1	3	3	1	1	3	1	1	5	2	1	0	0	0	0	0
090712	12:20:00	10021	Trial2BackFrS	NS	17	0	1000	1	115	12:20:00	4152009	4	1	3	3	1	1	3	1	1	5	2	1	0	0	0	0	0
090712	12:20:00	10021	Trial2BackFrS	YS	17	0	1000	0	115	12:20:00	4153528	4	1	3	3	1	1	3	1	1	5	2	1	0	0	0	0	0
090712	12:20:00	10021	Trial2BackFrS	NS	17	0	1000	1	115	12:20:00	4155047	4	1	3	3	1	1	3	1	1	5	2	1	0	0	0	0	0
090712	12:20:00	10021	Trial2BackFrS	NS	17	0	1000	1	115	12:20:00	4156567	4	1	3	3	1	1	3	1	1	5	2	1	0	0	0	0	0
090712	12:20:00	10021	Trial2BackFrS	NS	17	0	1000	1	115	12:20:00	4158086	4	1	3	3	1	1	3	1	1	5	2	1	0	0	0	0	0
090712	12:20:00	10021	Trial2BackFrS	NS	17	0	1000	1	115	12:20:00	4159605	4	1	3	3	1	1	3	1	1	5	2	1	0	0	0	0	0
090712	12:20:00	10021	Trial2BackFrS	YS	17	0	1000	0	115	12:20:00	4161125	4	1	3	3	1	1	3	1	1	5	2	1	0	0	0	0	0
090712	12:20:00	10021	Trial2BackFrS	NS	17	0	1000	1	115	12:20:00	4162644	4	1	3	3	1	1	3	1	1	5	2	1	0	0	0	0	0
090712	12:20:00	10021	Trial2BackFrS	NS	17	57	725	0	115	12:20:00	4163897	4	1	3	3	1	1	3	1	1	5	2	1	0	0	0	0	0
090712	12:20:00	10021	Trial2BackFrS	YS	17	0	1000	0	115	12:20:00	4165670	4	1	3	3	1	1	3	1	1	5	2	1	0	0	0	0	0
090712	12:20:00	10021	Trial2BackFrS	NS	17	0	1000	1	115	12:20:00	4167189	4	1	3	3	1	1	3	1	1	5	2	1	0	0	0	0	0
090712	12:20:00	10021	Trial2BackFrS	NS	17	0	1000	1	115	12:20:00	4168708	4	1	3	3	1	1	3	1	1	5	2	1	0	0	0	0	0
090712	12:20:00	10021	Trial2BackFrS	NS	17	0	1000	1	115	12:20:00	4170228	4	1	3	3	1	1	3	1	1	5	2	1	0	0	0	0	0
090712	12:20:00	10021	Trial2BackFrS	NS	17	0	1000	1	115	12:20:00	4171747	4	1	3	3	1	1	3	1	1	5	2	1	0	0	0	0	0
090712	12:20:00	10021	Trial2BackFrS	NS	17	0	1000	1	115	12:20:00	4173266	4	1	3	3	1	1	3	1	1	5	2	1	0	0	0	0	0
090712	12:20:00	10021	Trial2BackFrS	NS	17	0	1000	1	115	12:20:00	4174786	4	1	3	3	1	1	3	1	1	5	2	1	0	0	0	0	0
090712	12:20:00	10021	Trial2BackFrS	YS	17	57	679	1	115	12:20:00	4175999	4	1	3	3	1	1	3	1	1	5	2	1	0	0	0	0	0
090712	12:20:00	10021	Trial2BackFrS	NS	17	0	1000	1	115	12:20:00	4177811	4	1	3	3	1	1	3	1	1	5	2	1	0	0	0	0	0
090712	12:20:00	10021	Trial2BackFrS	NS	17	0	1000	1	115	12:20:00	4179331	4	1	3	3	1	1	3	1	1	5	2	1	0	0	0	0	0
090712	12:20:00	10021	Trial2BackFrS	NS	17	0	1000	1	115	12:20:00	4180850	4	1	3	3	1	1	3	1	1	5	2	1	0	0	0	0	0
090712	12:20:00	10021	Trial2BackFrS	NS	17	0	1000	1	115	12:20:00	4182369	4	1	3	3	1	1	3	1	1	5	2	1	0	0	0	0	0
090712	12:20:00	10021	Trial2BackFrS	YS	17	57	808	1	115	12:20:00	4183702	4	1	3	3	1	1	3	1	1	5	2	1	0	0	0	0	0
090712	12:20:00	10021	Trial2BackFrS	NS	17	0	1000	1	115	12:20:00	4185395	4	1	3	3	1	1	3	1	1	5	2	1	0	0	0	0	0
090712	12:20:00	10021	Trial2BackFrS	NS	17	0	1000	1	115	12:20:00	4186914	4	1	3	3	1	1	3	1	1	5	2	1	0	0	0	0	0
090712	12:20:00	10021	Trial2BackFrS	NS	17	0	1000	1	115	12:20:00	4188434	4	1	3	3	1	1	3	1	1	5	2	1	0	0	0	0	0
090712	12:20:00	10021	Trial2BackFrS	NS	17	0	1000	1	115	12:20:00	4189953	4	1	3	3	1	1	3	1	1	5	2	1	0	0	0	0	0
090712	12:20:00	10021	Trial2BackFrS	YS	17	0	1000	0	115	12:20:00	4191472	4	1	3	3	1	1	3	1	1	5	2	1	0	0	0	0	0
090712	12:20:00	10021	Trial2BackFrS	NS	17	0	1000	1	115	12:20:00	4192992	4	1	3	3	1	1	3	1	1	5	2	1	0	0	0	0	0
090712	12:20:00	10021	Trial2BackFrS	NS	17	57	585	0	115	12:20:00	4194098	4	1	3	3	1	1	3	1	1	5	2	1	0	0	0	0	0
090712	12:20:00	10021	Trial2BackFrS	YS	17	0	1000	0	115	12:20:00	4196017	4	1	3	3	1	1	3	1	1	5	2	1	0	0	0	0	0
090712	12:20:00	10021	Trial2BackFrS	NS	17	0	1000	1	115	12:20:00	4197536	4	1	3	3	1	1	3	1	1	5	2	1	0	0	0	0	0
090712	12:20:00	10021	Trial2BackFrS	NS	17	0	1000	1	115	12:20:00	4199056	4	1	3	3	1	1	3	1	1	5	2	1	0	0	0	0	0
090712	12:20:00	10021	Trial2BackFrS	NS	17	0	1000	1	115	12:20:00	4200575	4	1	3	3	1	1	3	1	1	5	2	1	0	0	0	0	0
090712	12:20:00	10021	Trial2BackFrS	NS	17	0	1000	1	115	12:20:00	4202095	4	1	3	3	1	1	3	1	1	5	2	1	0	0	0	0	0
090712	12:20:00	10021	Trial2BackFrS	NS	17	0	1000	1	115	12:20:00	4203614	4	1	3	3	1	1	3	1	1	5	2	1	0	0	0	0	0
090712	12:20:00	10021	Trial2BackFrS	NS	17	0	1000	1	115	12:20:00	4205133	4	1	3	3	1	1	3	1	1	5	2	1	0	0	0	0	0
090712	12:20:00	10021	Trial2BackFrS	NS	17	57	667	0	115	12:20:00	4206333	4	1	3	3	1	1	3	1	1	5	2	1	0	0	0	0	0
090712	12:20:00	10021	Trial2BackFrS	NS	17	0	1000	1	115	12:20:00	4208159	4	1	3	3	1	1	3	1	1	5	2	1	0	0	0	0	0
090712	12:20:00	10021	Trial2BackFrS	YS	17	57	697	1	115	12:20:00	4209385	4	1	3	3	1	1	3	1	1	5	2	1	0	0	0	0	0
090712	12:20:00	10021	Trial2BackFrS	NS	17	0	1000	1	115	12:20:00	4211184	4	1	3	3	1	1	3	1	1	5	2	1	0	0	0	0	0
090712	12:20:00	10021	Trial2BackFrS	NS	17	0	1000	1	115	12:20:00	4212704	4	1	3	3	1	1	3	1	1	5	2	1	0	0	0	0	0
090712	12:20:00	10021	Trial2BackFrS	NS	17	0	1000	1	115	12:20:00	4214223	4	1	3	3	1	1	3	1	1	5	2	1	0	0	0	0	0
090712	12:20:00	10021	Trial2BackFrS	NS	17	0	1000	1	115	12:20:00	4215742	4	1	3	3	1	1	3	1	1	5	2	1	0	0	0	0	0
090712	12:20:00	10021	Trial2BackFrS	NS	17	0	1000	1	115	12:20:00	4217262	4	1	3	3	1	1	3	1	1	5	2	1	0	0	0	0	0
090712	12:20:00	10021	Trial2BackFrS	NS	17	57	762	0	115	12:20:00	4218554	4	1	3	3	1	1	3	1	1	5	2	1	0	0	0	0	0
090712	12:20:00	10021	Trial2BackFrS	NS	17	0	1000	1	115	12:20:00	4220287	4	1	3	3	1	1	3	1	1	5	2	1	0	0	0	0	0
090712	12:20:00	10021	Trial2BackFrS	YS	17	0	1000	0	115	12:20:00	4221806	4	1	3	3	1	1	3	1	1	5	2	1	0	0	0	0	0
090712	12:20:00	10021	Trial2BackFrS	NS	17	0	1000	1	115	12:20:00	4223326	4	1	3	3	1	1	3	1	1	5	2	1	0	0	0	0	0
090712	12:20:00	10021	Trial2BackFrS	NS	17	0	1000	1	115	12:20:00	4224845	4	1	3	3	1	1	3	1	1	5	2	1	0	0	0	0	0
090712	12:20:00	10021	Trial2BackFrS	NS	17	0	1000	1	115	12:20:00	4226364	4	1	3	3	1	1	3	1	1	5	2	1	0	0	0	0	0
090712	12:20:00	10021	Trial2BackFrS	NS	17	0	1000	1	115	12:20:00	4227884	4	1	3	3	1	1	3	1	1	5	2	1	0	0	0	0	0
090712	12:20:00	10021	Trial2BackFrS	NS	17	0	1000	1	115	12:20:00	4229403	4	1	3	3	1	1	3	1	1	5	2	1	0	0	0	0	0
090712	12:20:00	10021	Trial2BackFrS	NS	17	0	1000	1	115	12:20:00	4230923	4	1	3	3	1	1	3	1	1	5	2	1	0	0	0	0	0
090712	12:20:00	10021	Trial2BackFrS	NS	17	0	1000	1	115	12:20:00	4232442	4	1	3	3	1	1	3	1	1	5	2	1	0	0	0	0	0
090712	12:20:00	10021	Trial2BackFrS	NS	17	0	1000	1	115	12:20:00	4233961	4	1	3	3	1	1	3	1	1	5	2	1	0	0	0	0	0
090712	12:20:00	10021	Trial2BackFrS	NS	17	57	846	0	115	12:20:00	4235334	4	1	3	3	1	1	3	1	1	5	2	1	0	0	0	0	0
090712	12:20:00	10021	Trial2BackFrS	YS	17	0	1000	0	115	12:20:00	4236987	4	1	3	3	1	1	3	1	1	5	2	1	0	0	0	0	0
090712	12:20:00	10021	Trial2BackFrS	NS	17	0	1000	1	115	12:20:00	4238506	4	1	3	3	1	1	3	1	1	5	2	1	0	0	0	0	0
090712	12:20:00	10021	ClockFr3mo	ClockFr3mo	19	Clock1	52684	0	115	12:20:00	4291298	4	1	3	3	1	1	3	1	1	5	2	1	1	0	0	0	0
090712	12:20:00	10021	ClockFr3mo	ClockFr3mo	19	Clock11	601	0	115	12:20:00	4291937	4	1	3	3	1	1	3	1	1	5	2	1	1	1	0	0	0
090712	12:20:00	10021	ClockFr3mo	ClockFr3mo	19	Clock111	698	0	115	12:20:00	4292670	4	1	3	3	1	1	3	1	1	5	2	1	1	1	1	0	0
090712	12:20:00	10021	ClockFr3mo	ClockFr3mo	19	Clockdone	684	0	115	12:20:00	4293390	4	1	3	3	1	1	3	1	1	5	2	1	1	1	1	0	0
090712	12:20:00	10021	FASFrVF3mo	StopFrVF3mo	20	12	228645	0	115	12:20:00	4669419	4	1	3	3	1	1	3	1	1	5	2	1	1	1	1	0	0
