date	time	subject	blockcode	trialcode	values.TaskNumber	response	latency	correct	values.Score	script.starttime	script.elapsedtime	values.ScoreS7	values.Word1	values.Word2	values.Word3	values.Word4	values.Word5	values.Word6	values.Word7	values.Word8	values.DigitSpanFwrd	values.DigitSpanBack	values.ScoreAbs	values.Contour	values.Numbers	values.Hands	values.corsiblockspanFwrd	values.corsiblockspanRev
062912	15:27:53	789689	Language	Language	0	French	1961	0	0	15:27:53	2236	0	0	0	0	0	0	0	0	0	0	0	0	0	0	0	0	0
062912	15:27:53	789689	Session	Session	0	Baseline	938	0	0	15:27:53	3291	0	0	0	0	0	0	0	0	0	0	0	0	0	0	0	0	0
062912	15:27:53	789689	HandFr	HandFr	0	RightFr	846	0	0	15:27:53	4222	0	0	0	0	0	0	0	0	0	0	0	0	0	0	0	0	0
062912	15:27:53	789689	AudioCheckFr	WordsFr	0	0	0	0	0	15:27:53	10377	0	0	0	0	0	0	0	0	0	0	0	0	0	0	0	0	0
062912	15:27:53	789689	CubeFr	CubeFr	1	1Cube	1435	0	0	15:27:53	12365	0	0	0	0	0	0	0	0	0	0	0	0	0	0	0	0	0
062912	15:27:53	789689	pm.simpleFrRight	blank.simpleFr	2	0	1987	1	0	15:27:53	15964	0	0	0	0	0	0	0	0	0	0	0	0	0	0	0	0	0
062912	15:27:53	789689	pm.simpleFrRight	pm.simpleFr	2	57	325	0	0	15:27:53	16324	0	0	0	0	0	0	0	0	0	0	0	0	0	0	0	0	0
062912	15:27:53	789689	pm.simpleFrRight	blank.simpleFr	2	0	1587	1	0	15:27:53	18145	0	0	0	0	0	0	0	0	0	0	0	0	0	0	0	0	0
062912	15:27:53	789689	pm.simpleFrRight	pm.simpleFr	2	57	274	0	0	15:27:53	18496	0	0	0	0	0	0	0	0	0	0	0	0	0	0	0	0	0
062912	15:27:53	789689	pm.simpleFrRight	blank.simpleFr	2	0	1487	1	0	15:27:53	20122	0	0	0	0	0	0	0	0	0	0	0	0	0	0	0	0	0
062912	15:27:53	789689	pm.simpleFrRight	pm.simpleFr	2	57	320	0	0	15:27:53	20495	0	0	0	0	0	0	0	0	0	0	0	0	0	0	0	0	0
062912	15:27:53	789689	pm.simpleFrRight	blank.simpleFr	2	0	2287	1	0	15:27:53	22814	0	0	0	0	0	0	0	0	0	0	0	0	0	0	0	0	0
062912	15:27:53	789689	pm.simpleFrRight	pm.simpleFr	2	57	247	0	0	15:27:53	23108	0	0	0	0	0	0	0	0	0	0	0	0	0	0	0	0	0
062912	15:27:53	789689	pm.simpleFrRight	blank.simpleFr	2	0	2387	1	0	15:27:53	25533	0	0	0	0	0	0	0	0	0	0	0	0	0	0	0	0	0
062912	15:27:53	789689	pm.simpleFrRight	pm.simpleFr	2	57	269	0	0	15:27:53	25840	0	0	0	0	0	0	0	0	0	0	0	0	0	0	0	0	0
062912	15:27:53	789689	pm.simpleFrRight	blank.simpleFr	2	0	2487	1	0	15:27:53	28358	0	0	0	0	0	0	0	0	0	0	0	0	0	0	0	0	0
062912	15:27:53	789689	pm.simpleFrRight	pm.simpleFr	2	57	258	0	0	15:27:53	28652	0	0	0	0	0	0	0	0	0	0	0	0	0	0	0	0	0
062912	15:27:53	789689	pm.simpleFrRight	blank.simpleFr	2	0	1787	1	0	15:27:53	30478	0	0	0	0	0	0	0	0	0	0	0	0	0	0	0	0	0
062912	15:27:53	789689	pm.simpleFrRight	pm.simpleFr	2	57	380	0	0	15:27:53	30891	0	0	0	0	0	0	0	0	0	0	0	0	0	0	0	0	0
062912	15:27:53	789689	pm.simpleFrRight	blank.simpleFr	2	0	1687	1	0	15:27:53	32610	0	0	0	0	0	0	0	0	0	0	0	0	0	0	0	0	0
062912	15:27:53	789689	pm.simpleFrRight	pm.simpleFr	2	57	344	0	0	15:27:53	32997	0	0	0	0	0	0	0	0	0	0	0	0	0	0	0	0	0
062912	15:27:53	789689	pm.simpleFrRight	blank.simpleFr	2	0	2187	1	0	15:27:53	35209	0	0	0	0	0	0	0	0	0	0	0	0	0	0	0	0	0
062912	15:27:53	789689	pm.simpleFrRight	pm.simpleFr	2	57	1056	0	0	15:27:53	36302	0	0	0	0	0	0	0	0	0	0	0	0	0	0	0	0	0
062912	15:27:53	789689	pm.simpleFrRight	blank.simpleFr	2	0	2087	1	0	15:27:53	38422	0	0	0	0	0	0	0	0	0	0	0	0	0	0	0	0	0
062912	15:27:53	789689	pm.simpleFrRight	pm.simpleFr	2	57	13653	0	0	15:27:53	52109	0	0	0	0	0	0	0	0	0	0	0	0	0	0	0	0	0
062912	15:27:53	789689	pm.simpleFrRight	blank.simpleFr	2	0	1887	1	0	15:27:53	54028	0	0	0	0	0	0	0	0	0	0	0	0	0	0	0	0	0
062912	15:27:53	789689	pm.simpleFrRight	pm.simpleFr	2	57	2381	0	0	15:27:53	56440	0	0	0	0	0	0	0	0	0	0	0	0	0	0	0	0	0
062912	15:27:53	789689	pm.simpleFrRight	blank.simpleFr	2	57	1537	0	0	15:27:53	59013	0	0	0	0	0	0	0	0	0	0	0	0	0	0	0	0	0
062912	15:27:53	789689	pm.simpleFrRight	blank.simpleFr	2	0	2287	1	0	15:27:53	61332	0	0	0	0	0	0	0	0	0	0	0	0	0	0	0	0	0
062912	15:27:53	789689	pm.simpleFrRight	pm.simpleFr	2	57	1941	0	0	15:27:53	63304	0	0	0	0	0	0	0	0	0	0	0	0	0	0	0	0	0
062912	15:27:53	789689	pm.simpleFrRight	blank.simpleFr	2	0	2187	1	0	15:27:53	65517	0	0	0	0	0	0	0	0	0	0	0	0	0	0	0	0	0
062912	15:27:53	789689	pm.simpleFrRight	pm.simpleFr	2	57	1625	0	0	15:27:53	67183	0	0	0	0	0	0	0	0	0	0	0	0	0	0	0	0	0
062912	15:27:53	789689	pm.simpleFrRight	blank.simpleFr	2	0	2387	1	0	15:27:53	69595	0	0	0	0	0	0	0	0	0	0	0	0	0	0	0	0	0
062912	15:27:53	789689	pm.simpleFrRight	pm.simpleFr	2	57	302	0	0	15:27:53	69928	0	0	0	0	0	0	0	0	0	0	0	0	0	0	0	0	0
062912	15:27:53	789689	pm.simpleFrRight	blank.simpleFr	2	0	2487	1	0	15:27:53	72447	0	0	0	0	0	0	0	0	0	0	0	0	0	0	0	0	0
062912	15:27:53	789689	pm.simpleFrRight	pm.simpleFr	2	57	247	0	0	15:27:53	72741	0	0	0	0	0	0	0	0	0	0	0	0	0	0	0	0	0
062912	15:27:53	789689	pm.simpleFrRight	blank.simpleFr	2	0	2087	1	0	15:27:53	74860	0	0	0	0	0	0	0	0	0	0	0	0	0	0	0	0	0
062912	15:27:53	789689	pm.simpleFrRight	pm.simpleFr	2	57	366	0	0	15:27:53	75260	0	0	0	0	0	0	0	0	0	0	0	0	0	0	0	0	0
062912	15:27:53	789689	pm.simpleFrRight	blank.simpleFr	2	0	1887	1	0	15:27:53	77179	0	0	0	0	0	0	0	0	0	0	0	0	0	0	0	0	0
062912	15:27:53	789689	pm.simpleFrRight	pm.simpleFr	2	57	387	0	0	15:27:53	77606	0	0	0	0	0	0	0	0	0	0	0	0	0	0	0	0	0
062912	15:27:53	789689	pm.simpleFrRight	blank.simpleFr	2	0	1987	1	0	15:27:53	79631	0	0	0	0	0	0	0	0	0	0	0	0	0	0	0	0	0
062912	15:27:53	789689	pm.simpleFrRight	pm.simpleFr	2	57	505	0	0	15:27:53	80181	0	0	0	0	0	0	0	0	0	0	0	0	0	0	0	0	0
062912	15:27:53	789689	pm.simpleFrRight	blank.simpleFr	2	0	1687	1	0	15:27:53	81897	0	0	0	0	0	0	0	0	0	0	0	0	0	0	0	0	0
062912	15:27:53	789689	pm.simpleFrRight	pm.simpleFr	2	57	464	0	0	15:27:53	82472	0	0	0	0	0	0	0	0	0	0	0	0	0	0	0	0	0
062912	15:27:53	789689	pm.simpleFrRight	blank.simpleFr	2	0	1587	1	0	15:27:53	84083	0	0	0	0	0	0	0	0	0	0	0	0	0	0	0	0	0
062912	15:27:53	789689	pm.simpleFrRight	pm.simpleFr	2	57	553	0	0	15:27:53	84671	0	0	0	0	0	0	0	0	0	0	0	0	0	0	0	0	0
062912	15:27:53	789689	pm.simpleFrRight	blank.simpleFr	2	0	1487	1	0	15:27:53	86202	0	0	0	0	0	0	0	0	0	0	0	0	0	0	0	0	0
062912	15:27:53	789689	pm.simpleFrRight	pm.simpleFr	2	57	2940	0	0	15:27:53	89187	0	0	0	0	0	0	0	0	0	0	0	0	0	0	0	0	0
062912	15:27:53	789689	pm.simpleFrRight	blank.simpleFr	2	0	2487	1	0	15:27:53	91707	0	0	0	0	0	0	0	0	0	0	0	0	0	0	0	0	0
062912	15:27:53	789689	pm.simpleFrRight	pm.simpleFr	2	57	223	0	0	15:27:53	91986	0	0	0	0	0	0	0	0	0	0	0	0	0	0	0	0	0
062912	15:27:53	789689	pm.simpleFrRight	blank.simpleFr	2	0	1587	1	0	15:27:53	93599	0	0	0	0	0	0	0	0	0	0	0	0	0	0	0	0	0
062912	15:27:53	789689	pm.simpleFrRight	pm.simpleFr	2	57	329	0	0	15:27:53	93972	0	0	0	0	0	0	0	0	0	0	0	0	0	0	0	0	0
062912	15:27:53	789689	pm.simpleFrRight	blank.simpleFr	2	0	1787	1	0	15:27:53	95798	0	0	0	0	0	0	0	0	0	0	0	0	0	0	0	0	0
062912	15:27:53	789689	pm.simpleFrRight	pm.simpleFr	2	57	355	0	0	15:27:53	96184	0	0	0	0	0	0	0	0	0	0	0	0	0	0	0	0	0
062912	15:27:53	789689	pm.simpleFrRight	blank.simpleFr	2	0	1887	1	0	15:27:53	98104	0	0	0	0	0	0	0	0	0	0	0	0	0	0	0	0	0
062912	15:27:53	789689	pm.simpleFrRight	pm.simpleFr	2	57	283	0	0	15:27:53	98437	0	0	0	0	0	0	0	0	0	0	0	0	0	0	0	0	0
062912	15:27:53	789689	pm.simpleFrRight	blank.simpleFr	2	0	2287	1	0	15:27:53	100756	0	0	0	0	0	0	0	0	0	0	0	0	0	0	0	0	0
062912	15:27:53	789689	pm.simpleFrRight	pm.simpleFr	2	57	244	0	0	15:27:53	101036	0	0	0	0	0	0	0	0	0	0	0	0	0	0	0	0	0
062912	15:27:53	789689	pm.simpleFrRight	blank.simpleFr	2	0	2187	1	0	15:27:53	103248	0	0	0	0	0	0	0	0	0	0	0	0	0	0	0	0	0
062912	15:27:53	789689	pm.simpleFrRight	pm.simpleFr	2	57	902	0	0	15:27:53	104195	0	0	0	0	0	0	0	0	0	0	0	0	0	0	0	0	0
062912	15:27:53	789689	pm.simpleFrRight	blank.simpleFr	2	0	1487	1	0	15:27:53	105714	0	0	0	0	0	0	0	0	0	0	0	0	0	0	0	0	0
062912	15:27:53	789689	pm.simpleFrRight	pm.simpleFr	2	57	295	0	0	15:27:53	106047	0	0	0	0	0	0	0	0	0	0	0	0	0	0	0	0	0
062912	15:27:53	789689	pm.simpleFrRight	blank.simpleFr	2	0	1687	1	0	15:27:53	107766	0	0	0	0	0	0	0	0	0	0	0	0	0	0	0	0	0
062912	15:27:53	789689	pm.simpleFrRight	pm.simpleFr	2	57	208	0	0	15:27:53	108086	0	0	0	0	0	0	0	0	0	0	0	0	0	0	0	0	0
062912	15:27:53	789689	pm.simpleFrRight	blank.simpleFr	2	0	2087	1	0	15:27:53	110206	0	0	0	0	0	0	0	0	0	0	0	0	0	0	0	0	0
062912	15:27:53	789689	pm.simpleFrRight	pm.simpleFr	2	57	218	0	0	15:27:53	110459	0	0	0	0	0	0	0	0	0	0	0	0	0	0	0	0	0
062912	15:27:53	789689	pm.simpleFrRight	blank.simpleFr	2	0	1987	1	0	15:27:53	112471	0	0	0	0	0	0	0	0	0	0	0	0	0	0	0	0	0
062912	15:27:53	789689	pm.simpleFrRight	pm.simpleFr	2	57	225	0	0	15:27:53	112738	0	0	0	0	0	0	0	0	0	0	0	0	0	0	0	0	0
062912	15:27:53	789689	pm.simpleFrRight	blank.simpleFr	2	0	2387	1	0	15:27:53	115150	0	0	0	0	0	0	0	0	0	0	0	0	0	0	0	0	0
062912	15:27:53	789689	pm.simpleFrRight	pm.simpleFr	2	57	250	0	0	15:27:53	115443	0	0	0	0	0	0	0	0	0	0	0	0	0	0	0	0	0
062912	15:27:53	789689	pm.simpleFrRight	blank.simpleFr	2	0	2287	1	0	15:27:53	117762	0	0	0	0	0	0	0	0	0	0	0	0	0	0	0	0	0
062912	15:27:53	789689	pm.simpleFrRight	pm.simpleFr	2	57	272	0	0	15:27:53	118083	0	0	0	0	0	0	0	0	0	0	0	0	0	0	0	0	0
062912	15:27:53	789689	pm.simpleFrRight	blank.simpleFr	2	0	2387	1	0	15:27:53	120495	0	0	0	0	0	0	0	0	0	0	0	0	0	0	0	0	0
062912	15:27:53	789689	pm.simpleFrRight	pm.simpleFr	2	57	256	0	0	15:27:53	120801	0	0	0	0	0	0	0	0	0	0	0	0	0	0	0	0	0
062912	15:27:53	789689	pm.simpleFrRight	blank.simpleFr	2	0	1687	1	0	15:27:53	122521	0	0	0	0	0	0	0	0	0	0	0	0	0	0	0	0	0
062912	15:27:53	789689	pm.simpleFrRight	pm.simpleFr	2	57	288	0	0	15:27:53	122840	0	0	0	0	0	0	0	0	0	0	0	0	0	0	0	0	0
062912	15:27:53	789689	pm.simpleFrRight	blank.simpleFr	2	0	2487	1	0	15:27:53	125359	0	0	0	0	0	0	0	0	0	0	0	0	0	0	0	0	0
062912	15:27:53	789689	pm.simpleFrRight	pm.simpleFr	2	57	312	0	0	15:27:53	125706	0	0	0	0	0	0	0	0	0	0	0	0	0	0	0	0	0
062912	15:27:53	789689	pm.simpleFrRight	blank.simpleFr	2	0	2087	1	0	15:27:53	127825	0	0	0	0	0	0	0	0	0	0	0	0	0	0	0	0	0
062912	15:27:53	789689	pm.simpleFrRight	pm.simpleFr	2	57	1926	0	0	15:27:53	129784	0	0	0	0	0	0	0	0	0	0	0	0	0	0	0	0	0
062912	15:27:53	789689	pm.simpleFrRight	blank.simpleFr	2	0	1887	1	0	15:27:53	131703	0	0	0	0	0	0	0	0	0	0	0	0	0	0	0	0	0
062912	15:27:53	789689	pm.simpleFrRight	pm.simpleFr	2	57	224	0	0	15:27:53	131970	0	0	0	0	0	0	0	0	0	0	0	0	0	0	0	0	0
062912	15:27:53	789689	pm.simpleFrRight	blank.simpleFr	2	0	1587	1	0	15:27:53	133583	0	0	0	0	0	0	0	0	0	0	0	0	0	0	0	0	0
062912	15:27:53	789689	pm.simpleFrRight	pm.simpleFr	2	57	282	0	0	15:27:53	133902	0	0	0	0	0	0	0	0	0	0	0	0	0	0	0	0	0
062912	15:27:53	789689	pm.simpleFrRight	blank.simpleFr	2	0	1987	1	0	15:27:53	135915	0	0	0	0	0	0	0	0	0	0	0	0	0	0	0	0	0
062912	15:27:53	789689	pm.simpleFrRight	pm.simpleFr	2	57	238	0	0	15:27:53	136195	0	0	0	0	0	0	0	0	0	0	0	0	0	0	0	0	0
062912	15:27:53	789689	Trial2BackFr	N	3	0	1000	1	1	15:27:53	162251	0	0	0	0	0	0	0	0	0	0	0	0	0	0	0	0	0
062912	15:27:53	789689	Trial2BackFr	N	3	0	1000	1	2	15:27:53	163771	0	0	0	0	0	0	0	0	0	0	0	0	0	0	0	0	0
062912	15:27:53	789689	Trial2BackFr	N	3	0	1000	1	3	15:27:53	165290	0	0	0	0	0	0	0	0	0	0	0	0	0	0	0	0	0
062912	15:27:53	789689	Trial2BackFr	N	3	0	1000	1	4	15:27:53	166809	0	0	0	0	0	0	0	0	0	0	0	0	0	0	0	0	0
062912	15:27:53	789689	Trial2BackFr	N	3	0	1000	1	5	15:27:53	168329	0	0	0	0	0	0	0	0	0	0	0	0	0	0	0	0	0
062912	15:27:53	789689	Trial2BackFr	N	3	0	1000	1	6	15:27:53	169848	0	0	0	0	0	0	0	0	0	0	0	0	0	0	0	0	0
062912	15:27:53	789689	Trial2BackFr	N	3	0	1000	1	7	15:27:53	171368	0	0	0	0	0	0	0	0	0	0	0	0	0	0	0	0	0
062912	15:27:53	789689	Trial2BackFr	N	3	0	1000	1	8	15:27:53	172887	0	0	0	0	0	0	0	0	0	0	0	0	0	0	0	0	0
062912	15:27:53	789689	Trial2BackFr	Y	3	0	1000	0	8	15:27:53	174406	0	0	0	0	0	0	0	0	0	0	0	0	0	0	0	0	0
062912	15:27:53	789689	Trial2BackFr	N	3	0	1000	1	9	15:27:53	175926	0	0	0	0	0	0	0	0	0	0	0	0	0	0	0	0	0
062912	15:27:53	789689	Trial2BackFr	N	3	0	1000	1	10	15:27:53	177445	0	0	0	0	0	0	0	0	0	0	0	0	0	0	0	0	0
062912	15:27:53	789689	Trial2BackFr	N	3	0	1000	1	11	15:27:53	178964	0	0	0	0	0	0	0	0	0	0	0	0	0	0	0	0	0
062912	15:27:53	789689	Trial2BackFr	Y	3	0	1000	0	11	15:27:53	180484	0	0	0	0	0	0	0	0	0	0	0	0	0	0	0	0	0
062912	15:27:53	789689	Trial2BackFr	N	3	0	1000	1	12	15:27:53	182003	0	0	0	0	0	0	0	0	0	0	0	0	0	0	0	0	0
062912	15:27:53	789689	Trial2BackFr	N	3	0	1000	1	13	15:27:53	183523	0	0	0	0	0	0	0	0	0	0	0	0	0	0	0	0	0
062912	15:27:53	789689	Trial2BackFr	N	3	0	1000	1	14	15:27:53	185042	0	0	0	0	0	0	0	0	0	0	0	0	0	0	0	0	0
062912	15:27:53	789689	Trial2BackFr	N	3	0	1000	1	15	15:27:53	186561	0	0	0	0	0	0	0	0	0	0	0	0	0	0	0	0	0
062912	15:27:53	789689	Trial2BackFr	N	3	0	1000	1	16	15:27:53	188081	0	0	0	0	0	0	0	0	0	0	0	0	0	0	0	0	0
062912	15:27:53	789689	Trial2BackFr	Y	3	0	1000	0	16	15:27:53	189600	0	0	0	0	0	0	0	0	0	0	0	0	0	0	0	0	0
062912	15:27:53	789689	Trial2BackFr	N	3	0	1000	1	17	15:27:53	191119	0	0	0	0	0	0	0	0	0	0	0	0	0	0	0	0	0
062912	15:27:53	789689	Trial2BackFr	N	3	0	1000	1	18	15:27:53	192639	0	0	0	0	0	0	0	0	0	0	0	0	0	0	0	0	0
062912	15:27:53	789689	Trial2BackFr	N	3	0	1000	1	19	15:27:53	194158	0	0	0	0	0	0	0	0	0	0	0	0	0	0	0	0	0
062912	15:27:53	789689	Trial2BackFr	N	3	0	1000	1	20	15:27:53	195678	0	0	0	0	0	0	0	0	0	0	0	0	0	0	0	0	0
062912	15:27:53	789689	Trial2BackFr	Y	3	0	1000	0	20	15:27:53	197197	0	0	0	0	0	0	0	0	0	0	0	0	0	0	0	0	0
062912	15:27:53	789689	Trial2BackFr	N	3	0	1000	1	21	15:27:53	198716	0	0	0	0	0	0	0	0	0	0	0	0	0	0	0	0	0
062912	15:27:53	789689	Trial2BackFr	N	3	0	1000	1	22	15:27:53	200236	0	0	0	0	0	0	0	0	0	0	0	0	0	0	0	0	0
062912	15:27:53	789689	Trial2BackFr	N	3	0	1000	1	23	15:27:53	201755	0	0	0	0	0	0	0	0	0	0	0	0	0	0	0	0	0
062912	15:27:53	789689	Trial2BackFr	N	3	0	1000	1	24	15:27:53	203275	0	0	0	0	0	0	0	0	0	0	0	0	0	0	0	0	0
062912	15:27:53	789689	Trial2BackFr	N	3	0	1000	1	25	15:27:53	204794	0	0	0	0	0	0	0	0	0	0	0	0	0	0	0	0	0
062912	15:27:53	789689	Trial2BackFr	N	3	0	1000	1	26	15:27:53	206313	0	0	0	0	0	0	0	0	0	0	0	0	0	0	0	0	0
062912	15:27:53	789689	Trial2BackFr	Y	3	0	1000	0	26	15:27:53	207833	0	0	0	0	0	0	0	0	0	0	0	0	0	0	0	0	0
062912	15:27:53	789689	Trial2BackFr	N	3	0	1000	1	27	15:27:53	209352	0	0	0	0	0	0	0	0	0	0	0	0	0	0	0	0	0
062912	15:27:53	789689	Trial2BackFr	N	3	0	1000	1	28	15:27:53	210871	0	0	0	0	0	0	0	0	0	0	0	0	0	0	0	0	0
062912	15:27:53	789689	Trial2BackFr	N	3	0	1000	1	29	15:27:53	212391	0	0	0	0	0	0	0	0	0	0	0	0	0	0	0	0	0
062912	15:27:53	789689	Trial2BackFr	Y	3	0	1000	0	29	15:27:53	213910	0	0	0	0	0	0	0	0	0	0	0	0	0	0	0	0	0
062912	15:27:53	789689	Trial2BackFr	N	3	0	1000	1	30	15:27:53	215430	0	0	0	0	0	0	0	0	0	0	0	0	0	0	0	0	0
062912	15:27:53	789689	Trial2BackFr	N	3	0	1000	1	31	15:27:53	216949	0	0	0	0	0	0	0	0	0	0	0	0	0	0	0	0	0
062912	15:27:53	789689	Trial2BackFr	N	3	0	1000	1	32	15:27:53	218482	0	0	0	0	0	0	0	0	0	0	0	0	0	0	0	0	0
062912	15:27:53	789689	Trial2BackFr	N	3	0	1000	1	33	15:27:53	220001	0	0	0	0	0	0	0	0	0	0	0	0	0	0	0	0	0
062912	15:27:53	789689	Trial2BackFr	N	3	0	1000	1	34	15:27:53	221520	0	0	0	0	0	0	0	0	0	0	0	0	0	0	0	0	0
062912	15:27:53	789689	Trial2BackFr	N	3	0	1000	1	35	15:27:53	223040	0	0	0	0	0	0	0	0	0	0	0	0	0	0	0	0	0
062912	15:27:53	789689	Trial2BackFr	Y	3	0	1000	0	35	15:27:53	224559	0	0	0	0	0	0	0	0	0	0	0	0	0	0	0	0	0
062912	15:27:53	789689	Trial2BackFr	N	3	0	1000	1	36	15:27:53	226079	0	0	0	0	0	0	0	0	0	0	0	0	0	0	0	0	0
062912	15:27:53	789689	Trial2BackFr	N	3	0	1000	1	37	15:27:53	227598	0	0	0	0	0	0	0	0	0	0	0	0	0	0	0	0	0
062912	15:27:53	789689	Trial2BackFr	N	3	0	1000	1	38	15:27:53	229117	0	0	0	0	0	0	0	0	0	0	0	0	0	0	0	0	0
062912	15:27:53	789689	Trial2BackFr	N	3	0	1000	1	39	15:27:53	230637	0	0	0	0	0	0	0	0	0	0	0	0	0	0	0	0	0
062912	15:27:53	789689	Trial2BackFr	Y	3	0	1000	0	39	15:27:53	232156	0	0	0	0	0	0	0	0	0	0	0	0	0	0	0	0	0
062912	15:27:53	789689	Trial2BackFr	N	3	0	1000	1	40	15:27:53	233676	0	0	0	0	0	0	0	0	0	0	0	0	0	0	0	0	0
062912	15:27:53	789689	Trial2BackFr	N	3	0	1000	1	41	15:27:53	235195	0	0	0	0	0	0	0	0	0	0	0	0	0	0	0	0	0
062912	15:27:53	789689	Trial2BackFr	N	3	0	1000	1	42	15:27:53	236714	0	0	0	0	0	0	0	0	0	0	0	0	0	0	0	0	0
062912	15:27:53	789689	Trial2BackFr	N	3	0	1000	1	43	15:27:53	238233	0	0	0	0	0	0	0	0	0	0	0	0	0	0	0	0	0
062912	15:27:53	789689	Trial2BackFr	N	3	0	1000	1	44	15:27:53	239753	0	0	0	0	0	0	0	0	0	0	0	0	0	0	0	0	0
062912	15:27:53	789689	Trial2BackFr	Y	3	0	1000	0	44	15:27:53	241272	0	0	0	0	0	0	0	0	0	0	0	0	0	0	0	0	0
062912	15:27:53	789689	Trial2BackFr	N	3	0	1000	1	45	15:27:53	242792	0	0	0	0	0	0	0	0	0	0	0	0	0	0	0	0	0
062912	15:27:53	789689	Trial2BackFr	N	3	0	1000	1	46	15:27:53	244311	0	0	0	0	0	0	0	0	0	0	0	0	0	0	0	0	0
062912	15:27:53	789689	Trial2BackFr	N	3	0	1000	1	47	15:27:53	245830	0	0	0	0	0	0	0	0	0	0	0	0	0	0	0	0	0
062912	15:27:53	789689	Trial2BackFr	N	3	0	1000	1	48	15:27:53	247350	0	0	0	0	0	0	0	0	0	0	0	0	0	0	0	0	0
062912	15:27:53	789689	Trial2BackFr	N	3	0	1000	1	49	15:27:53	248869	0	0	0	0	0	0	0	0	0	0	0	0	0	0	0	0	0
062912	15:27:53	789689	Trial2BackFr	N	3	0	1000	1	50	15:27:53	250389	0	0	0	0	0	0	0	0	0	0	0	0	0	0	0	0	0
062912	15:27:53	789689	Trial2BackFr	Y	3	0	1000	0	50	15:27:53	251908	0	0	0	0	0	0	0	0	0	0	0	0	0	0	0	0	0
062912	15:27:53	789689	Trial2BackFr	N	3	0	1000	1	51	15:27:53	253428	0	0	0	0	0	0	0	0	0	0	0	0	0	0	0	0	0
062912	15:27:53	789689	Trial2BackFr	N	3	0	1000	1	52	15:27:53	254947	0	0	0	0	0	0	0	0	0	0	0	0	0	0	0	0	0
062912	15:27:53	789689	Trial2BackFr	Y	3	0	1000	0	52	15:27:53	256466	0	0	0	0	0	0	0	0	0	0	0	0	0	0	0	0	0
062912	15:27:53	789689	Trial2BackFr	N	3	0	1000	1	53	15:27:53	257986	0	0	0	0	0	0	0	0	0	0	0	0	0	0	0	0	0
062912	15:27:53	789689	Trial2BackFr	N	3	0	1000	1	54	15:27:53	259505	0	0	0	0	0	0	0	0	0	0	0	0	0	0	0	0	0
062912	15:27:53	789689	Trial2BackFr	N	3	0	1000	1	55	15:27:53	261024	0	0	0	0	0	0	0	0	0	0	0	0	0	0	0	0	0
062912	15:27:53	789689	Trial2BackFr	N	3	0	1000	1	56	15:27:53	262544	0	0	0	0	0	0	0	0	0	0	0	0	0	0	0	0	0
062912	15:27:53	789689	Trial2BackFr	N	3	0	1000	1	57	15:27:53	264063	0	0	0	0	0	0	0	0	0	0	0	0	0	0	0	0	0
062912	15:27:53	789689	Trial2BackFr	N	3	0	1000	1	58	15:27:53	265583	0	0	0	0	0	0	0	0	0	0	0	0	0	0	0	0	0
062912	15:27:53	789689	Trial2BackFr	N	3	0	1000	1	59	15:27:53	267102	0	0	0	0	0	0	0	0	0	0	0	0	0	0	0	0	0
062912	15:27:53	789689	Trial2BackFr	N	3	0	1000	1	60	15:27:53	268621	0	0	0	0	0	0	0	0	0	0	0	0	0	0	0	0	0
062912	15:27:53	789689	Trial2BackFr	N	3	0	1000	1	61	15:27:53	270142	0	0	0	0	0	0	0	0	0	0	0	0	0	0	0	0	0
062912	15:27:53	789689	Trial2BackFr	N	3	0	1000	1	62	15:27:53	271660	0	0	0	0	0	0	0	0	0	0	0	0	0	0	0	0	0
062912	15:27:53	789689	Trial2BackFr	Y	3	0	1000	0	62	15:27:53	273180	0	0	0	0	0	0	0	0	0	0	0	0	0	0	0	0	0
062912	15:27:53	789689	Trial2BackFr	N	3	0	1000	1	63	15:27:53	274699	0	0	0	0	0	0	0	0	0	0	0	0	0	0	0	0	0
062912	15:27:53	789689	Trial2BackFr	N	3	0	1000	1	64	15:27:53	276218	0	0	0	0	0	0	0	0	0	0	0	0	0	0	0	0	0
062912	15:27:53	789689	Trial2BackFr	N	3	0	1000	1	65	15:27:53	277738	0	0	0	0	0	0	0	0	0	0	0	0	0	0	0	0	0
062912	15:27:53	789689	Trial2BackFr	Y	3	0	1000	0	65	15:27:53	279257	0	0	0	0	0	0	0	0	0	0	0	0	0	0	0	0	0
062912	15:27:53	789689	Trial2BackFr	N	3	0	1000	1	66	15:27:53	280776	0	0	0	0	0	0	0	0	0	0	0	0	0	0	0	0	0
062912	15:27:53	789689	Trial2BackFr	N	3	0	1000	1	67	15:27:53	282296	0	0	0	0	0	0	0	0	0	0	0	0	0	0	0	0	0
062912	15:27:53	789689	Trial2BackFr	N	3	0	1000	1	68	15:27:53	283815	0	0	0	0	0	0	0	0	0	0	0	0	0	0	0	0	0
062912	15:27:53	789689	Trial2BackFr	N	3	0	1000	1	69	15:27:53	285335	0	0	0	0	0	0	0	0	0	0	0	0	0	0	0	0	0
062912	15:27:53	789689	Trial2BackFr	N	3	0	1000	1	70	15:27:53	286854	0	0	0	0	0	0	0	0	0	0	0	0	0	0	0	0	0
062912	15:27:53	789689	Trial2BackFr	Y	3	0	1000	0	70	15:27:53	288373	0	0	0	0	0	0	0	0	0	0	0	0	0	0	0	0	0
062912	15:27:53	789689	Trial2BackFr	N	3	0	1000	1	71	15:27:53	289893	0	0	0	0	0	0	0	0	0	0	0	0	0	0	0	0	0
062912	15:27:53	789689	Trial2BackFr	N	3	0	1000	1	72	15:27:53	291412	0	0	0	0	0	0	0	0	0	0	0	0	0	0	0	0	0
062912	15:27:53	789689	Trial2BackFr	N	3	0	1000	1	73	15:27:53	292932	0	0	0	0	0	0	0	0	0	0	0	0	0	0	0	0	0
062912	15:27:53	789689	Trial2BackFr	N	3	0	1000	1	74	15:27:53	294451	0	0	0	0	0	0	0	0	0	0	0	0	0	0	0	0	0
062912	15:27:53	789689	Trial2BackFr	N	3	0	1000	1	75	15:27:53	295983	0	0	0	0	0	0	0	0	0	0	0	0	0	0	0	0	0
062912	15:27:53	789689	Trial2BackFr	N	3	0	1000	1	76	15:27:53	297530	0	0	0	0	0	0	0	0	0	0	0	0	0	0	0	0	0
062912	15:27:53	789689	Trial2BackFr	N	3	0	1000	1	77	15:27:53	299049	0	0	0	0	0	0	0	0	0	0	0	0	0	0	0	0	0
062912	15:27:53	789689	Trial2BackFr	N	3	0	1000	1	78	15:27:53	300568	0	0	0	0	0	0	0	0	0	0	0	0	0	0	0	0	0
062912	15:27:53	789689	Trial2BackFr	N	3	0	1000	1	79	15:27:53	302088	0	0	0	0	0	0	0	0	0	0	0	0	0	0	0	0	0
062912	15:27:53	789689	Trial2BackFr	Y	3	0	1000	0	79	15:27:53	303607	0	0	0	0	0	0	0	0	0	0	0	0	0	0	0	0	0
062912	15:27:53	789689	Trial2BackFr	N	3	57	244	0	79	15:27:53	304380	0	0	0	0	0	0	0	0	0	0	0	0	0	0	0	0	0
062912	15:27:53	789689	Trial2BackFr	N	3	0	1000	1	80	15:27:53	306633	0	0	0	0	0	0	0	0	0	0	0	0	0	0	0	0	0
062912	15:27:53	789689	Trial2BackFr	N	3	0	1000	1	81	15:27:53	308152	0	0	0	0	0	0	0	0	0	0	0	0	0	0	0	0	0
062912	15:27:53	789689	Trial2BackFr	N	3	0	1000	1	82	15:27:53	309671	0	0	0	0	0	0	0	0	0	0	0	0	0	0	0	0	0
062912	15:27:53	789689	Trial2BackFr	N	3	0	1000	1	83	15:27:53	311191	0	0	0	0	0	0	0	0	0	0	0	0	0	0	0	0	0
062912	15:27:53	789689	Trial2BackFr	N	3	0	1000	1	84	15:27:53	312710	0	0	0	0	0	0	0	0	0	0	0	0	0	0	0	0	0
062912	15:27:53	789689	Trial2BackFr	N	3	0	1000	1	85	15:27:53	314230	0	0	0	0	0	0	0	0	0	0	0	0	0	0	0	0	0
062912	15:27:53	789689	Trial2BackFr	N	3	0	1000	1	86	15:27:53	315749	0	0	0	0	0	0	0	0	0	0	0	0	0	0	0	0	0
062912	15:27:53	789689	Trial2BackFr	Y	3	0	1000	0	86	15:27:53	317268	0	0	0	0	0	0	0	0	0	0	0	0	0	0	0	0	0
062912	15:27:53	789689	Trial2BackFr	N	3	0	1000	1	87	15:27:53	318788	0	0	0	0	0	0	0	0	0	0	0	0	0	0	0	0	0
062912	15:27:53	789689	Trial2BackFr	N	3	0	1000	1	88	15:27:53	320307	0	0	0	0	0	0	0	0	0	0	0	0	0	0	0	0	0
062912	15:27:53	789689	Trial2BackFr	N	3	0	1000	1	89	15:27:53	321826	0	0	0	0	0	0	0	0	0	0	0	0	0	0	0	0	0
062912	15:27:53	789689	Trial2BackFr	N	3	0	1000	1	90	15:27:53	323346	0	0	0	0	0	0	0	0	0	0	0	0	0	0	0	0	0
062912	15:27:53	789689	Trial2BackFr	Y	3	0	1000	0	90	15:27:53	324865	0	0	0	0	0	0	0	0	0	0	0	0	0	0	0	0	0
062912	15:27:53	789689	Trial2BackFr	N	3	0	1000	1	91	15:27:53	326385	0	0	0	0	0	0	0	0	0	0	0	0	0	0	0	0	0
062912	15:27:53	789689	Trial2BackFr	N	3	0	1000	1	92	15:27:53	327904	0	0	0	0	0	0	0	0	0	0	0	0	0	0	0	0	0
062912	15:27:53	789689	Trial2BackFr	N	3	0	1000	1	93	15:27:53	329424	0	0	0	0	0	0	0	0	0	0	0	0	0	0	0	0	0
062912	15:27:53	789689	Trial2BackFr	Y	3	0	1000	0	93	15:27:53	330943	0	0	0	0	0	0	0	0	0	0	0	0	0	0	0	0	0
062912	15:27:53	789689	Trial2BackFr	N	3	57	712	0	93	15:27:53	332182	0	0	0	0	0	0	0	0	0	0	0	0	0	0	0	0	0
062912	15:27:53	789689	Trial2BackFr	N	3	0	1000	1	94	15:27:53	333968	0	0	0	0	0	0	0	0	0	0	0	0	0	0	0	0	0
062912	15:27:53	789689	Trial2BackFr	N	3	0	1000	1	95	15:27:53	335487	0	0	0	0	0	0	0	0	0	0	0	0	0	0	0	0	0
062912	15:27:53	789689	Trial2BackFr	N	3	0	1000	1	96	15:27:53	337007	0	0	0	0	0	0	0	0	0	0	0	0	0	0	0	0	0
062912	15:27:53	789689	Trial2BackFr	N	3	0	1000	1	97	15:27:53	338526	0	0	0	0	0	0	0	0	0	0	0	0	0	0	0	0	0
062912	15:27:53	789689	Trial2BackFr	Y	3	0	1000	0	97	15:27:53	340046	0	0	0	0	0	0	0	0	0	0	0	0	0	0	0	0	0
062912	15:27:53	789689	Trial2BackFr	N	3	0	1000	1	98	15:27:53	341566	0	0	0	0	0	0	0	0	0	0	0	0	0	0	0	0	0
062912	15:27:53	789689	Trial2BackFr	N	3	0	1000	1	99	15:27:53	343085	0	0	0	0	0	0	0	0	0	0	0	0	0	0	0	0	0
062912	15:27:53	789689	Trial2BackFr	N	3	0	1000	1	100	15:27:53	344604	0	0	0	0	0	0	0	0	0	0	0	0	0	0	0	0	0
062912	15:27:53	789689	Trial2BackFr	Y	3	0	1000	0	100	15:27:53	346123	0	0	0	0	0	0	0	0	0	0	0	0	0	0	0	0	0
062912	15:27:53	789689	Memory1RBaselineFr	ScoreFr	5	M7	831	0	100	15:27:53	366089	0	0	0	0	0	0	0	0	0	0	0	0	0	0	0	0	0
062912	15:27:53	789689	Memory1RBaselineFr	ScoreFr	5	M5	290	0	100	15:27:53	366422	0	0	0	0	0	0	0	0	0	0	0	0	0	0	0	0	0
062912	15:27:53	789689	Memory1RBaselineFr	ScoreFr	5	Done	484	0	100	15:27:53	366944	0	0	0	0	0	0	0	0	0	0	0	0	0	0	0	0	0
062912	15:27:53	789689	Memory2RBaselineFr	ScoreFr2	5	Done	3411	0	100	15:27:53	387549	0	0	0	0	0	0	0	0	0	0	0	0	0	0	0	0	0
062912	15:27:53	789689	Memory3RBaselineFr	ScoreFr3	5	Done	2269	0	100	15:27:53	410751	0	0	0	0	0	0	0	0	0	0	0	0	0	0	0	0	0
062912	15:27:53	789689	LoriaFrLH3	Stop	6	4	3327	0	100	15:27:53	458467	0	0	0	0	0	0	0	0	0	0	0	0	0	0	0	0	0
062912	15:27:53	789689	FrTrail	Trails	7	2Trails	870	0	100	15:27:53	461197	0	0	0	0	0	0	0	0	0	0	0	0	0	0	0	0	0
062912	15:27:53	789689	Serial7FrBaseline	Serial7FrBaseline	8	89	3068	0	100	15:27:53	466449	0	0	0	0	0	0	0	0	0	0	0	0	0	0	0	0	0
062912	15:27:53	789689	Serial7FrBaseline	Serial7FrBaseline	8	63	1639	0	100	15:27:53	468117	0	0	0	0	0	0	0	0	0	0	0	0	0	0	0	0	0
062912	15:27:53	789689	Serial7FrBaseline	Serial7FrBaseline	8	55	1779	0	100	15:27:53	469928	0	0	0	0	0	0	0	0	0	0	0	0	0	0	0	0	0
062912	15:27:53	789689	Serial7FrBaseline	Serial7FrBaseline	8	96	1841	0	100	15:27:53	471794	0	0	0	0	0	0	0	0	0	0	0	0	0	0	0	0	0
062912	15:27:53	789689	Serial7FrBaseline	Serial7FrBaseline	8	12	2118	0	100	15:27:53	473940	0	0	0	0	0	0	0	0	0	0	0	0	0	0	0	0	0
062912	15:27:53	789689	corsiblockFrFwrd	recallseqFrFwrd	9	8	9546	0	100	15:27:53	489573	0	0	0	0	0	0	0	0	0	0	0	0	0	0	0	0	0
062912	15:27:53	789689	corsiblockFrFwrd	recallseqFrFwrd	9	5	554	0	100	15:27:53	490173	0	0	0	0	0	0	0	0	0	0	0	0	0	0	0	0	0
062912	15:27:53	789689	corsiblockFrFwrd	recallseqFrFwrd	9	doneCorsiFr	584	0	100	15:27:53	490799	0	0	0	0	0	0	0	0	0	0	0	0	0	0	0	0	0
062912	15:27:53	789689	corsiblockFrFwrd	recallseqFrFwrd	9	6	2942	0	100	15:27:53	498796	0	0	0	0	0	0	0	0	0	0	0	0	0	0	0	0	0
062912	15:27:53	789689	corsiblockFrFwrd	recallseqFrFwrd	9	5	237	0	100	15:27:53	499076	0	0	0	0	0	0	0	0	0	0	0	0	0	0	0	0	0
062912	15:27:53	789689	corsiblockFrFwrd	recallseqFrFwrd	9	doneCorsiFr	558	0	100	15:27:53	499676	0	0	0	0	0	0	0	0	0	0	0	0	0	0	0	0	0
062912	15:27:53	789689	corsiblockFrRev	recallseqFrRev	10	8	11762	0	100	15:27:53	517842	0	0	0	0	0	0	0	0	0	0	0	0	0	0	0	0	0
062912	15:27:53	789689	corsiblockFrRev	recallseqFrRev	10	7	302	0	100	15:27:53	518188	0	0	0	0	0	0	0	0	0	0	0	0	0	0	0	0	0
062912	15:27:53	789689	corsiblockFrRev	recallseqFrRev	10	doneCorsiFr	515	0	100	15:27:53	518748	0	0	0	0	0	0	0	0	0	0	0	0	0	0	0	0	0
062912	15:27:53	789689	corsiblockFrRev	recallseqFrRev	10	5	1441	0	100	15:27:53	525239	0	0	0	0	0	0	0	0	0	0	0	0	0	0	0	0	0
062912	15:27:53	789689	corsiblockFrRev	recallseqFrRev	10	8	500	0	100	15:27:53	525786	0	0	0	0	0	0	0	0	0	0	0	0	0	0	0	0	0
062912	15:27:53	789689	corsiblockFrRev	recallseqFrRev	10	doneCorsiFr	494	0	100	15:27:53	526318	0	0	0	0	0	0	0	0	0	0	0	0	0	0	0	0	0
062912	15:27:53	789689	testFrBaseline	WordsFrBaseline	11	1FrBaseline	1394	0	100	15:27:53	529797	0	1	0	0	0	0	0	0	0	0	0	0	0	0	0	0	0
062912	15:27:53	789689	testFrBaseline	WordsFrBaseline	11	2FrBaseline	171	0	100	15:27:53	530010	0	1	1	0	0	0	0	0	0	0	0	0	0	0	0	0	0
062912	15:27:53	789689	testFrBaseline	WordsFrBaseline	11	3FrBaseline	230	0	100	15:27:53	530277	0	1	1	1	0	0	0	0	0	0	0	0	0	0	0	0	0
062912	15:27:53	789689	testFrBaseline	WordsFrBaseline	11	4FrBaseline	242	0	100	15:27:53	530557	0	1	1	1	1	0	0	0	0	0	0	0	0	0	0	0	0
062912	15:27:53	789689	testFrBaseline	WordsFrBaseline	11	5FrBaseline	1122	0	100	15:27:53	531716	0	1	1	1	1	1	0	0	0	0	0	0	0	0	0	0	0
062912	15:27:53	789689	testFrBaseline	WordsFrBaseline	11	6FrBaseline	252	0	100	15:27:53	532010	0	1	1	1	1	1	1	0	0	0	0	0	0	0	0	0	0
062912	15:27:53	789689	testFrBaseline	WordsFrBaseline	11	7FrBaseline	266	0	100	15:27:53	532383	0	1	1	1	1	1	1	1	0	0	0	0	0	0	0	0	0
062912	15:27:53	789689	testFrBaseline	WordsFrBaseline	11	8FrBaseline	266	0	100	15:27:53	532690	0	1	1	1	1	1	1	1	1	0	0	0	0	0	0	0	0
062912	15:27:53	789689	testFrBaseline	WordsFrBaseline	11	DoneFrBaseline	271	0	100	15:27:53	532996	0	1	1	1	1	1	1	1	1	0	0	0	0	0	0	0	0
062912	15:27:53	789689	DigitSpanFwrdFrBaseline	Score1FwrdFrBaseline	12	DS2	791	0	100	15:27:53	541339	0	1	1	1	1	1	1	1	1	0	0	0	0	0	0	0	0
062912	15:27:53	789689	DigitSpanFwrdFrBaseline	Gate1FwrdFrBaseline	12	0	1	0	100	15:27:53	541354	0	1	1	1	1	1	1	1	1	0	0	0	0	0	0	0	0
062912	15:27:53	789689	DigitSpanFwrdFrBaseline	Score11FwrdFrBaseline	12	DS2	362	0	100	15:27:53	546750	0	1	1	1	1	1	1	1	1	0	0	0	0	0	0	0	0
062912	15:27:53	789689	DigitSpanFrBaseline	Score1FrBaseline	13	DS2	1252	0	100	15:27:53	552561	0	1	1	1	1	1	1	1	1	0	0	0	0	0	0	0	0
062912	15:27:53	789689	DigitSpanFrBaseline	Gate1FrBaseline	13	0	1	0	100	15:27:53	552577	0	1	1	1	1	1	1	1	1	0	0	0	0	0	0	0	0
062912	15:27:53	789689	DigitSpanFrBaseline	Score11FrBaseline	13	DS2	1321	0	100	15:27:53	557039	0	1	1	1	1	1	1	1	1	0	0	0	0	0	0	0	0
062912	15:27:53	789689	Trial	IncongruentRight	14	0	737	0	100	15:27:53	584055	0	1	1	1	1	1	1	1	1	0	0	0	0	0	0	0	0
062912	15:27:53	789689	Trial	IncongruentLeft	14	0	737	0	100	15:27:53	585068	0	1	1	1	1	1	1	1	1	0	0	0	0	0	0	0	0
062912	15:27:53	789689	Trial	CongruentRight	14	0	737	0	100	15:27:53	586080	0	1	1	1	1	1	1	1	1	0	0	0	0	0	0	0	0
062912	15:27:53	789689	Trial	IncongruentRight	14	0	737	0	100	15:27:53	587093	0	1	1	1	1	1	1	1	1	0	0	0	0	0	0	0	0
062912	15:27:53	789689	Trial	CongruentLeft	14	0	737	0	100	15:27:53	588106	0	1	1	1	1	1	1	1	1	0	0	0	0	0	0	0	0
062912	15:27:53	789689	Trial	CongruentRight	14	0	737	0	100	15:27:53	589119	0	1	1	1	1	1	1	1	1	0	0	0	0	0	0	0	0
062912	15:27:53	789689	Trial	IncongruentRight	14	0	737	0	100	15:27:53	590132	0	1	1	1	1	1	1	1	1	0	0	0	0	0	0	0	0
062912	15:27:53	789689	Trial	CongruentLeft	14	0	737	0	100	15:27:53	591145	0	1	1	1	1	1	1	1	1	0	0	0	0	0	0	0	0
062912	15:27:53	789689	Trial	IncongruentLeft	14	0	737	0	100	15:27:53	592158	0	1	1	1	1	1	1	1	1	0	0	0	0	0	0	0	0
062912	15:27:53	789689	Trial	IncongruentLeft	14	0	737	0	100	15:27:53	593171	0	1	1	1	1	1	1	1	1	0	0	0	0	0	0	0	0
062912	15:27:53	789689	Trial	CongruentRight	14	0	737	0	100	15:27:53	594184	0	1	1	1	1	1	1	1	1	0	0	0	0	0	0	0	0
062912	15:27:53	789689	Trial	IncongruentRight	14	0	737	0	100	15:27:53	595197	0	1	1	1	1	1	1	1	1	0	0	0	0	0	0	0	0
062912	15:27:53	789689	Trial	CongruentLeft	14	0	737	0	100	15:27:53	596210	0	1	1	1	1	1	1	1	1	0	0	0	0	0	0	0	0
062912	15:27:53	789689	Trial	CongruentRight	14	0	737	0	100	15:27:53	597223	0	1	1	1	1	1	1	1	1	0	0	0	0	0	0	0	0
062912	15:27:53	789689	Trial	IncongruentLeft	14	0	737	0	100	15:27:53	598236	0	1	1	1	1	1	1	1	1	0	0	0	0	0	0	0	0
062912	15:27:53	789689	Trial	IncongruentRight	14	0	737	0	100	15:27:53	599248	0	1	1	1	1	1	1	1	1	0	0	0	0	0	0	0	0
062912	15:27:53	789689	Trial	CongruentRight	14	0	737	0	100	15:27:53	600261	0	1	1	1	1	1	1	1	1	0	0	0	0	0	0	0	0
062912	15:27:53	789689	Trial	CongruentLeft	14	0	737	0	100	15:27:53	601275	0	1	1	1	1	1	1	1	1	0	0	0	0	0	0	0	0
062912	15:27:53	789689	Trial	CongruentRight	14	0	737	0	100	15:27:53	602287	0	1	1	1	1	1	1	1	1	0	0	0	0	0	0	0	0
062912	15:27:53	789689	Trial	IncongruentRight	14	0	737	0	100	15:27:53	603300	0	1	1	1	1	1	1	1	1	0	0	0	0	0	0	0	0
062912	15:27:53	789689	Trial	IncongruentLeft	14	0	737	0	100	15:27:53	604313	0	1	1	1	1	1	1	1	1	0	0	0	0	0	0	0	0
062912	15:27:53	789689	Trial	IncongruentLeft	14	0	737	0	100	15:27:53	605326	0	1	1	1	1	1	1	1	1	0	0	0	0	0	0	0	0
062912	15:27:53	789689	Trial	CongruentLeft	14	0	737	0	100	15:27:53	606339	0	1	1	1	1	1	1	1	1	0	0	0	0	0	0	0	0
062912	15:27:53	789689	Trial	CongruentRight	14	0	737	0	100	15:27:53	607352	0	1	1	1	1	1	1	1	1	0	0	0	0	0	0	0	0
062912	15:27:53	789689	Trial	IncongruentLeft	14	0	737	0	100	15:27:53	608365	0	1	1	1	1	1	1	1	1	0	0	0	0	0	0	0	0
062912	15:27:53	789689	Trial	IncongruentRight	14	0	737	0	100	15:27:53	609378	0	1	1	1	1	1	1	1	1	0	0	0	0	0	0	0	0
062912	15:27:53	789689	Trial	CongruentRight	14	0	737	0	100	15:27:53	610391	0	1	1	1	1	1	1	1	1	0	0	0	0	0	0	0	0
062912	15:27:53	789689	Trial	CongruentLeft	14	0	737	0	100	15:27:53	611404	0	1	1	1	1	1	1	1	1	0	0	0	0	0	0	0	0
062912	15:27:53	789689	Trial	IncongruentRight	14	0	737	0	100	15:27:53	612416	0	1	1	1	1	1	1	1	1	0	0	0	0	0	0	0	0
062912	15:27:53	789689	Trial	IncongruentLeft	14	0	737	0	100	15:27:53	613429	0	1	1	1	1	1	1	1	1	0	0	0	0	0	0	0	0
062912	15:27:53	789689	Trial	IncongruentRight	14	0	737	0	100	15:27:53	614443	0	1	1	1	1	1	1	1	1	0	0	0	0	0	0	0	0
062912	15:27:53	789689	Trial	CongruentRight	14	0	737	0	100	15:27:53	615455	0	1	1	1	1	1	1	1	1	0	0	0	0	0	0	0	0
062912	15:27:53	789689	Trial	IncongruentLeft	14	0	737	0	100	15:27:53	616468	0	1	1	1	1	1	1	1	1	0	0	0	0	0	0	0	0
062912	15:27:53	789689	Trial	CongruentLeft	14	0	737	0	100	15:27:53	617481	0	1	1	1	1	1	1	1	1	0	0	0	0	0	0	0	0
062912	15:27:53	789689	Trial	CongruentRight	14	0	737	0	100	15:27:53	618494	0	1	1	1	1	1	1	1	1	0	0	0	0	0	0	0	0
062912	15:27:53	789689	Trial	IncongruentLeft	14	0	737	0	100	15:27:53	619507	0	1	1	1	1	1	1	1	1	0	0	0	0	0	0	0	0
062912	15:27:53	789689	Trial	IncongruentRight	14	0	737	0	100	15:27:53	620520	0	1	1	1	1	1	1	1	1	0	0	0	0	0	0	0	0
062912	15:27:53	789689	Trial	IncongruentRight	14	0	737	0	100	15:27:53	621533	0	1	1	1	1	1	1	1	1	0	0	0	0	0	0	0	0
062912	15:27:53	789689	Trial	CongruentLeft	14	0	737	0	100	15:27:53	622546	0	1	1	1	1	1	1	1	1	0	0	0	0	0	0	0	0
062912	15:27:53	789689	Trial	IncongruentLeft	14	0	737	0	100	15:27:53	623559	0	1	1	1	1	1	1	1	1	0	0	0	0	0	0	0	0
062912	15:27:53	789689	Trial	CongruentRight	14	0	737	0	100	15:27:53	624572	0	1	1	1	1	1	1	1	1	0	0	0	0	0	0	0	0
062912	15:27:53	789689	Trial	CongruentLeft	14	0	737	0	100	15:27:53	625584	0	1	1	1	1	1	1	1	1	0	0	0	0	0	0	0	0
062912	15:27:53	789689	Trial	IncongruentRight	14	0	737	0	100	15:27:53	626597	0	1	1	1	1	1	1	1	1	0	0	0	0	0	0	0	0
062912	15:27:53	789689	Trial	CongruentRight	14	0	737	0	100	15:27:53	627610	0	1	1	1	1	1	1	1	1	0	0	0	0	0	0	0	0
062912	15:27:53	789689	Trial	IncongruentLeft	14	0	737	0	100	15:27:53	628623	0	1	1	1	1	1	1	1	1	0	0	0	0	0	0	0	0
062912	15:27:53	789689	Trial	CongruentLeft	14	0	737	0	100	15:27:53	629636	0	1	1	1	1	1	1	1	1	0	0	0	0	0	0	0	0
062912	15:27:53	789689	Trial	IncongruentLeft	14	0	737	0	100	15:27:53	630649	0	1	1	1	1	1	1	1	1	0	0	0	0	0	0	0	0
062912	15:27:53	789689	Trial	IncongruentRight	14	0	737	0	100	15:27:53	631662	0	1	1	1	1	1	1	1	1	0	0	0	0	0	0	0	0
062912	15:27:53	789689	Trial	CongruentRight	14	0	737	0	100	15:27:53	632675	0	1	1	1	1	1	1	1	1	0	0	0	0	0	0	0	0
062912	15:27:53	789689	Trial	CongruentLeft	14	0	737	0	100	15:27:53	633688	0	1	1	1	1	1	1	1	1	0	0	0	0	0	0	0	0
062912	15:27:53	789689	Trial	CongruentLeft	14	0	737	0	100	15:27:53	634701	0	1	1	1	1	1	1	1	1	0	0	0	0	0	0	0	0
062912	15:27:53	789689	Trial	IncongruentRight	14	0	737	0	100	15:27:53	635714	0	1	1	1	1	1	1	1	1	0	0	0	0	0	0	0	0
062912	15:27:53	789689	Trial	IncongruentLeft	14	0	737	0	100	15:27:53	636727	0	1	1	1	1	1	1	1	1	0	0	0	0	0	0	0	0
062912	15:27:53	789689	Trial	IncongruentRight	14	0	737	0	100	15:27:53	637740	0	1	1	1	1	1	1	1	1	0	0	0	0	0	0	0	0
062912	15:27:53	789689	Trial	CongruentRight	14	0	737	0	100	15:27:53	638753	0	1	1	1	1	1	1	1	1	0	0	0	0	0	0	0	0
062912	15:27:53	789689	Trial	CongruentRight	14	0	737	0	100	15:27:53	639766	0	1	1	1	1	1	1	1	1	0	0	0	0	0	0	0	0
062912	15:27:53	789689	Trial	IncongruentLeft	14	0	737	0	100	15:27:53	640778	0	1	1	1	1	1	1	1	1	0	0	0	0	0	0	0	0
062912	15:27:53	789689	Trial	CongruentLeft	14	0	737	0	100	15:27:53	641791	0	1	1	1	1	1	1	1	1	0	0	0	0	0	0	0	0
062912	15:27:53	789689	Trial	CongruentRight	14	0	737	0	100	15:27:53	642804	0	1	1	1	1	1	1	1	1	0	0	0	0	0	0	0	0
062912	15:27:53	789689	Trial	CongruentLeft	14	0	737	0	100	15:27:53	643817	0	1	1	1	1	1	1	1	1	0	0	0	0	0	0	0	0
062912	15:27:53	789689	Trial	IncongruentRight	14	0	737	0	100	15:27:53	644830	0	1	1	1	1	1	1	1	1	0	0	0	0	0	0	0	0
062912	15:27:53	789689	Trial	CongruentRight	14	0	737	0	100	15:27:53	645843	0	1	1	1	1	1	1	1	1	0	0	0	0	0	0	0	0
062912	15:27:53	789689	Trial	CongruentLeft	14	0	737	0	100	15:27:53	646856	0	1	1	1	1	1	1	1	1	0	0	0	0	0	0	0	0
062912	15:27:53	789689	Trial	IncongruentLeft	14	0	737	0	100	15:27:53	647869	0	1	1	1	1	1	1	1	1	0	0	0	0	0	0	0	0
062912	15:27:53	789689	Trial	IncongruentLeft	14	0	737	0	100	15:27:53	648882	0	1	1	1	1	1	1	1	1	0	0	0	0	0	0	0	0
062912	15:27:53	789689	Trial	CongruentRight	14	0	737	0	100	15:27:53	649895	0	1	1	1	1	1	1	1	1	0	0	0	0	0	0	0	0
062912	15:27:53	789689	Trial	IncongruentRight	14	0	737	0	100	15:27:53	650908	0	1	1	1	1	1	1	1	1	0	0	0	0	0	0	0	0
062912	15:27:53	789689	Trial	CongruentLeft	14	0	737	0	100	15:27:53	651921	0	1	1	1	1	1	1	1	1	0	0	0	0	0	0	0	0
062912	15:27:53	789689	Trial	IncongruentRight	14	0	737	0	100	15:27:53	652934	0	1	1	1	1	1	1	1	1	0	0	0	0	0	0	0	0
062912	15:27:53	789689	Trial	CongruentRight	14	0	737	0	100	15:27:53	653973	0	1	1	1	1	1	1	1	1	0	0	0	0	0	0	0	0
062912	15:27:53	789689	Trial	IncongruentLeft	14	0	737	0	100	15:27:53	654986	0	1	1	1	1	1	1	1	1	0	0	0	0	0	0	0	0
062912	15:27:53	789689	Trial	CongruentLeft	14	0	737	0	100	15:27:53	655999	0	1	1	1	1	1	1	1	1	0	0	0	0	0	0	0	0
062912	15:27:53	789689	Trial	CongruentRight	14	0	737	0	100	15:27:53	657012	0	1	1	1	1	1	1	1	1	0	0	0	0	0	0	0	0
062912	15:27:53	789689	Trial	IncongruentLeft	14	0	737	0	100	15:27:53	658025	0	1	1	1	1	1	1	1	1	0	0	0	0	0	0	0	0
062912	15:27:53	789689	Trial	CongruentRight	14	0	737	0	100	15:27:53	659038	0	1	1	1	1	1	1	1	1	0	0	0	0	0	0	0	0
062912	15:27:53	789689	Trial	CongruentRight	14	0	737	0	100	15:27:53	660051	0	1	1	1	1	1	1	1	1	0	0	0	0	0	0	0	0
062912	15:27:53	789689	Trial	IncongruentRight	14	0	737	0	100	15:27:53	661064	0	1	1	1	1	1	1	1	1	0	0	0	0	0	0	0	0
062912	15:27:53	789689	Trial	CongruentLeft	14	0	737	0	100	15:27:53	662076	0	1	1	1	1	1	1	1	1	0	0	0	0	0	0	0	0
062912	15:27:53	789689	Trial	IncongruentLeft	14	0	737	0	100	15:27:53	663089	0	1	1	1	1	1	1	1	1	0	0	0	0	0	0	0	0
062912	15:27:53	789689	Trial	CongruentLeft	14	0	737	0	100	15:27:53	664102	0	1	1	1	1	1	1	1	1	0	0	0	0	0	0	0	0
062912	15:27:53	789689	Trial	IncongruentRight	14	0	737	0	100	15:27:53	665115	0	1	1	1	1	1	1	1	1	0	0	0	0	0	0	0	0
062912	15:27:53	789689	Trial	IncongruentLeft	14	0	737	0	100	15:27:53	666128	0	1	1	1	1	1	1	1	1	0	0	0	0	0	0	0	0
062912	15:27:53	789689	Trial	CongruentRight	14	0	737	0	100	15:27:53	667141	0	1	1	1	1	1	1	1	1	0	0	0	0	0	0	0	0
062912	15:27:53	789689	Trial	CongruentLeft	14	0	737	0	100	15:27:53	668154	0	1	1	1	1	1	1	1	1	0	0	0	0	0	0	0	0
062912	15:27:53	789689	Trial	IncongruentLeft	14	0	737	0	100	15:27:53	669167	0	1	1	1	1	1	1	1	1	0	0	0	0	0	0	0	0
062912	15:27:53	789689	Trial	CongruentLeft	14	0	737	0	100	15:27:53	670180	0	1	1	1	1	1	1	1	1	0	0	0	0	0	0	0	0
062912	15:27:53	789689	Trial	IncongruentRight	14	0	737	0	100	15:27:53	671193	0	1	1	1	1	1	1	1	1	0	0	0	0	0	0	0	0
062912	15:27:53	789689	Trial	CongruentRight	14	0	737	0	100	15:27:53	672206	0	1	1	1	1	1	1	1	1	0	0	0	0	0	0	0	0
062912	15:27:53	789689	Trial	IncongruentLeft	14	0	737	0	100	15:27:53	673219	0	1	1	1	1	1	1	1	1	0	0	0	0	0	0	0	0
062912	15:27:53	789689	Trial	CongruentLeft	14	0	737	0	100	15:27:53	674232	0	1	1	1	1	1	1	1	1	0	0	0	0	0	0	0	0
062912	15:27:53	789689	Trial	IncongruentRight	14	0	737	0	100	15:27:53	675245	0	1	1	1	1	1	1	1	1	0	0	0	0	0	0	0	0
062912	15:27:53	789689	Trial	IncongruentLeft	14	0	737	0	100	15:27:53	676257	0	1	1	1	1	1	1	1	1	0	0	0	0	0	0	0	0
062912	15:27:53	789689	Trial	CongruentLeft	14	0	737	0	100	15:27:53	677270	0	1	1	1	1	1	1	1	1	0	0	0	0	0	0	0	0
062912	15:27:53	789689	Trial	IncongruentLeft	14	0	737	0	100	15:27:53	678283	0	1	1	1	1	1	1	1	1	0	0	0	0	0	0	0	0
062912	15:27:53	789689	Trial	CongruentRight	14	0	737	0	100	15:27:53	679296	0	1	1	1	1	1	1	1	1	0	0	0	0	0	0	0	0
062912	15:27:53	789689	Trial	CongruentLeft	14	0	737	0	100	15:27:53	680309	0	1	1	1	1	1	1	1	1	0	0	0	0	0	0	0	0
062912	15:27:53	789689	Trial	IncongruentRight	14	0	737	0	100	15:27:53	681322	0	1	1	1	1	1	1	1	1	0	0	0	0	0	0	0	0
062912	15:27:53	789689	Trial	CongruentLeft	14	0	737	0	100	15:27:53	682335	0	1	1	1	1	1	1	1	1	0	0	0	0	0	0	0	0
062912	15:27:53	789689	Trial	CongruentRight	14	0	737	0	100	15:27:53	683348	0	1	1	1	1	1	1	1	1	0	0	0	0	0	0	0	0
062912	15:27:53	789689	Trial	IncongruentLeft	14	0	737	0	100	15:27:53	684361	0	1	1	1	1	1	1	1	1	0	0	0	0	0	0	0	0
062912	15:27:53	789689	WordsAbsFrBaseline	PAbsFrBaseline1	16	Abs2	1503	0	100	15:27:53	697396	0	1	1	1	1	1	1	1	1	0	0	0	0	0	0	0	0
062912	15:27:53	789689	WordsAbsFrBaseline	PAbsFrBaseline2	16	Abs2	560	0	100	15:27:53	697995	0	1	1	1	1	1	1	1	1	0	0	0	0	0	0	0	0
062912	15:27:53	789689	WordsAbsFrBaseline	PAbsFrBaseline3	16	AbsContinue	3528	0	100	15:27:53	701567	0	1	1	1	1	1	1	1	1	0	0	0	0	0	0	0	0
062912	15:27:53	789689	WordsAbsFrBaseline	AbsFrBaseline1	16	Abs1	962	0	100	15:27:53	702567	0	1	1	1	1	1	1	1	1	0	0	1	0	0	0	0	0
062912	15:27:53	789689	WordsAbsFrBaseline	AbsFrBaseline2	16	Abs1	1044	0	100	15:27:53	703646	0	1	1	1	1	1	1	1	1	0	0	2	0	0	0	0	0
062912	15:27:53	789689	WordsAbsFrBaseline	AbsFrBaseline3	16	Abs1	731	0	100	15:27:53	704419	0	1	1	1	1	1	1	1	1	0	0	3	0	0	0	0	0
062912	15:27:53	789689	Trial2BackFrS	NS	17	0	1000	1	100	15:27:53	802060	0	1	1	1	1	1	1	1	1	0	0	3	0	0	0	0	0
062912	15:27:53	789689	Trial2BackFrS	NS	17	0	1000	1	100	15:27:53	803579	0	1	1	1	1	1	1	1	1	0	0	3	0	0	0	0	0
062912	15:27:53	789689	Trial2BackFrS	NS	17	0	1000	1	100	15:27:53	805098	0	1	1	1	1	1	1	1	1	0	0	3	0	0	0	0	0
062912	15:27:53	789689	Trial2BackFrS	YS	17	0	1000	0	100	15:27:53	806618	0	1	1	1	1	1	1	1	1	0	0	3	0	0	0	0	0
062912	15:27:53	789689	Trial2BackFrS	NS	17	0	1000	1	100	15:27:53	808137	0	1	1	1	1	1	1	1	1	0	0	3	0	0	0	0	0
062912	15:27:53	789689	Trial2BackFrS	NS	17	0	1000	1	100	15:27:53	809657	0	1	1	1	1	1	1	1	1	0	0	3	0	0	0	0	0
062912	15:27:53	789689	Trial2BackFrS	NS	17	0	1000	1	100	15:27:53	811176	0	1	1	1	1	1	1	1	1	0	0	3	0	0	0	0	0
062912	15:27:53	789689	Trial2BackFrS	NS	17	0	1000	1	100	15:27:53	812696	0	1	1	1	1	1	1	1	1	0	0	3	0	0	0	0	0
062912	15:27:53	789689	Trial2BackFrS	YS	17	0	1000	0	100	15:27:53	814215	0	1	1	1	1	1	1	1	1	0	0	3	0	0	0	0	0
062912	15:27:53	789689	Trial2BackFrS	NS	17	0	1000	1	100	15:27:53	815734	0	1	1	1	1	1	1	1	1	0	0	3	0	0	0	0	0
062912	15:27:53	789689	Trial2BackFrS	NS	17	0	1000	1	100	15:27:53	817254	0	1	1	1	1	1	1	1	1	0	0	3	0	0	0	0	0
062912	15:27:53	789689	Trial2BackFrS	YS	17	0	1000	0	100	15:27:53	818773	0	1	1	1	1	1	1	1	1	0	0	3	0	0	0	0	0
062912	15:27:53	789689	Trial2BackFrS	NS	17	0	1000	1	100	15:27:53	820292	0	1	1	1	1	1	1	1	1	0	0	3	0	0	0	0	0
062912	15:27:53	789689	Trial2BackFrS	NS	17	0	1000	1	100	15:27:53	821812	0	1	1	1	1	1	1	1	1	0	0	3	0	0	0	0	0
062912	15:27:53	789689	Trial2BackFrS	NS	17	0	1000	1	100	15:27:53	823331	0	1	1	1	1	1	1	1	1	0	0	3	0	0	0	0	0
062912	15:27:53	789689	Trial2BackFrS	YS	17	0	1000	0	100	15:27:53	824850	0	1	1	1	1	1	1	1	1	0	0	3	0	0	0	0	0
062912	15:27:53	789689	Trial2BackFrS	NS	17	0	1000	1	100	15:27:53	826370	0	1	1	1	1	1	1	1	1	0	0	3	0	0	0	0	0
062912	15:27:53	789689	Trial2BackFrS	NS	17	0	1000	1	100	15:27:53	827889	0	1	1	1	1	1	1	1	1	0	0	3	0	0	0	0	0
062912	15:27:53	789689	Trial2BackFrS	NS	17	0	1000	1	100	15:27:53	829409	0	1	1	1	1	1	1	1	1	0	0	3	0	0	0	0	0
062912	15:27:53	789689	Trial2BackFrS	NS	17	0	1000	1	100	15:27:53	830928	0	1	1	1	1	1	1	1	1	0	0	3	0	0	0	0	0
062912	15:27:53	789689	Trial2BackFrS	YS	17	0	1000	0	100	15:27:53	832448	0	1	1	1	1	1	1	1	1	0	0	3	0	0	0	0	0
062912	15:27:53	789689	Trial2BackFrS	NS	17	0	1000	1	100	15:27:53	833967	0	1	1	1	1	1	1	1	1	0	0	3	0	0	0	0	0
062912	15:27:53	789689	Trial2BackFrS	NS	17	0	1000	1	100	15:27:53	835486	0	1	1	1	1	1	1	1	1	0	0	3	0	0	0	0	0
062912	15:27:53	789689	Trial2BackFrS	NS	17	0	1000	1	100	15:27:53	837006	0	1	1	1	1	1	1	1	1	0	0	3	0	0	0	0	0
062912	15:27:53	789689	Trial2BackFrS	NS	17	0	1000	1	100	15:27:53	838525	0	1	1	1	1	1	1	1	1	0	0	3	0	0	0	0	0
062912	15:27:53	789689	Trial2BackFrS	NS	17	0	1000	1	100	15:27:53	840044	0	1	1	1	1	1	1	1	1	0	0	3	0	0	0	0	0
062912	15:27:53	789689	Trial2BackFrS	NS	17	0	1000	1	100	15:27:53	841564	0	1	1	1	1	1	1	1	1	0	0	3	0	0	0	0	0
062912	15:27:53	789689	Trial2BackFrS	NS	17	0	1000	1	100	15:27:53	843083	0	1	1	1	1	1	1	1	1	0	0	3	0	0	0	0	0
062912	15:27:53	789689	Trial2BackFrS	NS	17	0	1000	1	100	15:27:53	844602	0	1	1	1	1	1	1	1	1	0	0	3	0	0	0	0	0
062912	15:27:53	789689	Trial2BackFrS	NS	17	0	1000	1	100	15:27:53	846122	0	1	1	1	1	1	1	1	1	0	0	3	0	0	0	0	0
062912	15:27:53	789689	Trial2BackFrS	NS	17	0	1000	1	100	15:27:53	847641	0	1	1	1	1	1	1	1	1	0	0	3	0	0	0	0	0
062912	15:27:53	789689	Trial2BackFrS	YS	17	0	1000	0	100	15:27:53	849161	0	1	1	1	1	1	1	1	1	0	0	3	0	0	0	0	0
062912	15:27:53	789689	Trial2BackFrS	NS	17	0	1000	1	100	15:27:53	850680	0	1	1	1	1	1	1	1	1	0	0	3	0	0	0	0	0
062912	15:27:53	789689	Trial2BackFrS	NS	17	0	1000	1	100	15:27:53	852199	0	1	1	1	1	1	1	1	1	0	0	3	0	0	0	0	0
062912	15:27:53	789689	Trial2BackFrS	NS	17	0	1000	1	100	15:27:53	853719	0	1	1	1	1	1	1	1	1	0	0	3	0	0	0	0	0
062912	15:27:53	789689	Trial2BackFrS	YS	17	0	1000	0	100	15:27:53	855238	0	1	1	1	1	1	1	1	1	0	0	3	0	0	0	0	0
062912	15:27:53	789689	Trial2BackFrS	NS	17	0	1000	1	100	15:27:53	856758	0	1	1	1	1	1	1	1	1	0	0	3	0	0	0	0	0
062912	15:27:53	789689	Trial2BackFrS	NS	17	0	1000	1	100	15:27:53	858277	0	1	1	1	1	1	1	1	1	0	0	3	0	0	0	0	0
062912	15:27:53	789689	Trial2BackFrS	NS	17	0	1000	1	100	15:27:53	859796	0	1	1	1	1	1	1	1	1	0	0	3	0	0	0	0	0
062912	15:27:53	789689	Trial2BackFrS	NS	17	0	1000	1	100	15:27:53	861316	0	1	1	1	1	1	1	1	1	0	0	3	0	0	0	0	0
062912	15:27:53	789689	Trial2BackFrS	NS	17	0	1000	1	100	15:27:53	862835	0	1	1	1	1	1	1	1	1	0	0	3	0	0	0	0	0
062912	15:27:53	789689	Trial2BackFrS	NS	17	0	1000	1	100	15:27:53	864354	0	1	1	1	1	1	1	1	1	0	0	3	0	0	0	0	0
062912	15:27:53	789689	Trial2BackFrS	NS	17	0	1000	1	100	15:27:53	865874	0	1	1	1	1	1	1	1	1	0	0	3	0	0	0	0	0
062912	15:27:53	789689	Trial2BackFrS	YS	17	0	1000	0	100	15:27:53	867393	0	1	1	1	1	1	1	1	1	0	0	3	0	0	0	0	0
062912	15:27:53	789689	Trial2BackFrS	NS	17	0	1000	1	100	15:27:53	868913	0	1	1	1	1	1	1	1	1	0	0	3	0	0	0	0	0
062912	15:27:53	789689	Trial2BackFrS	NS	17	0	1000	1	100	15:27:53	870432	0	1	1	1	1	1	1	1	1	0	0	3	0	0	0	0	0
062912	15:27:53	789689	Trial2BackFrS	NS	17	0	1000	1	100	15:27:53	871951	0	1	1	1	1	1	1	1	1	0	0	3	0	0	0	0	0
062912	15:27:53	789689	Trial2BackFrS	NS	17	0	1000	1	100	15:27:53	873471	0	1	1	1	1	1	1	1	1	0	0	3	0	0	0	0	0
062912	15:27:53	789689	Trial2BackFrS	YS	17	0	1000	0	100	15:27:53	874990	0	1	1	1	1	1	1	1	1	0	0	3	0	0	0	0	0
062912	15:27:53	789689	Trial2BackFrS	NS	17	0	1000	1	100	15:27:53	876510	0	1	1	1	1	1	1	1	1	0	0	3	0	0	0	0	0
062912	15:27:53	789689	Trial2BackFrS	NS	17	0	1000	1	100	15:27:53	878029	0	1	1	1	1	1	1	1	1	0	0	3	0	0	0	0	0
062912	15:27:53	789689	Trial2BackFrS	NS	17	0	1000	1	100	15:27:53	879548	0	1	1	1	1	1	1	1	1	0	0	3	0	0	0	0	0
062912	15:27:53	789689	Trial2BackFrS	NS	17	0	1000	1	100	15:27:53	881068	0	1	1	1	1	1	1	1	1	0	0	3	0	0	0	0	0
062912	15:27:53	789689	Trial2BackFrS	NS	17	0	1000	1	100	15:27:53	882587	0	1	1	1	1	1	1	1	1	0	0	3	0	0	0	0	0
062912	15:27:53	789689	Trial2BackFrS	NS	17	0	1000	1	100	15:27:53	884106	0	1	1	1	1	1	1	1	1	0	0	3	0	0	0	0	0
062912	15:27:53	789689	Trial2BackFrS	YS	17	0	1000	0	100	15:27:53	885626	0	1	1	1	1	1	1	1	1	0	0	3	0	0	0	0	0
062912	15:27:53	789689	Trial2BackFrS	NS	17	0	1000	1	100	15:27:53	887145	0	1	1	1	1	1	1	1	1	0	0	3	0	0	0	0	0
062912	15:27:53	789689	Trial2BackFrS	NS	17	0	1000	1	100	15:27:53	888665	0	1	1	1	1	1	1	1	1	0	0	3	0	0	0	0	0
062912	15:27:53	789689	Trial2BackFrS	NS	17	0	1000	1	100	15:27:53	890184	0	1	1	1	1	1	1	1	1	0	0	3	0	0	0	0	0
062912	15:27:53	789689	Trial2BackFrS	NS	17	0	1000	1	100	15:27:53	891703	0	1	1	1	1	1	1	1	1	0	0	3	0	0	0	0	0
062912	15:27:53	789689	Trial2BackFrS	NS	17	0	1000	1	100	15:27:53	893223	0	1	1	1	1	1	1	1	1	0	0	3	0	0	0	0	0
062912	15:27:53	789689	Trial2BackFrS	NS	17	0	1000	1	100	15:27:53	894742	0	1	1	1	1	1	1	1	1	0	0	3	0	0	0	0	0
062912	15:27:53	789689	Trial2BackFrS	NS	17	0	1000	1	100	15:27:53	896262	0	1	1	1	1	1	1	1	1	0	0	3	0	0	0	0	0
062912	15:27:53	789689	Trial2BackFrS	YS	17	0	1000	0	100	15:27:53	897781	0	1	1	1	1	1	1	1	1	0	0	3	0	0	0	0	0
062912	15:27:53	789689	Trial2BackFrS	NS	17	0	1000	1	100	15:27:53	899300	0	1	1	1	1	1	1	1	1	0	0	3	0	0	0	0	0
062912	15:27:53	789689	Trial2BackFrS	NS	17	0	1000	1	100	15:27:53	900820	0	1	1	1	1	1	1	1	1	0	0	3	0	0	0	0	0
062912	15:27:53	789689	Trial2BackFrS	NS	17	0	1000	1	100	15:27:53	902339	0	1	1	1	1	1	1	1	1	0	0	3	0	0	0	0	0
062912	15:27:53	789689	Trial2BackFrS	NS	17	0	1000	1	100	15:27:53	903858	0	1	1	1	1	1	1	1	1	0	0	3	0	0	0	0	0
062912	15:27:53	789689	Trial2BackFrS	YS	17	0	1000	0	100	15:27:53	905378	0	1	1	1	1	1	1	1	1	0	0	3	0	0	0	0	0
062912	15:27:53	789689	Trial2BackFrS	NS	17	0	1000	1	100	15:27:53	906897	0	1	1	1	1	1	1	1	1	0	0	3	0	0	0	0	0
062912	15:27:53	789689	Trial2BackFrS	NS	17	0	1000	1	100	15:27:53	908417	0	1	1	1	1	1	1	1	1	0	0	3	0	0	0	0	0
062912	15:27:53	789689	Trial2BackFrS	YS	17	0	1000	0	100	15:27:53	909936	0	1	1	1	1	1	1	1	1	0	0	3	0	0	0	0	0
062912	15:27:53	789689	Trial2BackFrS	NS	17	0	1000	1	100	15:27:53	911455	0	1	1	1	1	1	1	1	1	0	0	3	0	0	0	0	0
062912	15:27:53	789689	Trial2BackFrS	NS	17	0	1000	1	100	15:27:53	912975	0	1	1	1	1	1	1	1	1	0	0	3	0	0	0	0	0
062912	15:27:53	789689	Trial2BackFrS	NS	17	0	1000	1	100	15:27:53	914494	0	1	1	1	1	1	1	1	1	0	0	3	0	0	0	0	0
062912	15:27:53	789689	Trial2BackFrS	NS	17	0	1000	1	100	15:27:53	916014	0	1	1	1	1	1	1	1	1	0	0	3	0	0	0	0	0
062912	15:27:53	789689	Trial2BackFrS	NS	17	57	445	0	100	15:27:53	916987	0	1	1	1	1	1	1	1	1	0	0	3	0	0	0	0	0
062912	15:27:53	789689	Trial2BackFrS	NS	17	0	1000	1	100	15:27:53	919039	0	1	1	1	1	1	1	1	1	0	0	3	0	0	0	0	0
062912	15:27:53	789689	Trial2BackFrS	YS	17	0	1000	0	100	15:27:53	920558	0	1	1	1	1	1	1	1	1	0	0	3	0	0	0	0	0
062912	15:27:53	789689	Trial2BackFrS	NS	17	0	1000	1	100	15:27:53	922078	0	1	1	1	1	1	1	1	1	0	0	3	0	0	0	0	0
062912	15:27:53	789689	Trial2BackFrS	NS	17	0	1000	1	100	15:27:53	923597	0	1	1	1	1	1	1	1	1	0	0	3	0	0	0	0	0
062912	15:27:53	789689	Trial2BackFrS	NS	17	0	1000	1	100	15:27:53	925117	0	1	1	1	1	1	1	1	1	0	0	3	0	0	0	0	0
062912	15:27:53	789689	Trial2BackFrS	NS	17	0	1000	1	100	15:27:53	926636	0	1	1	1	1	1	1	1	1	0	0	3	0	0	0	0	0
062912	15:27:53	789689	Trial2BackFrS	YS	17	0	1000	0	100	15:27:53	928155	0	1	1	1	1	1	1	1	1	0	0	3	0	0	0	0	0
062912	15:27:53	789689	Trial2BackFrS	NS	17	0	1000	1	100	15:27:53	929675	0	1	1	1	1	1	1	1	1	0	0	3	0	0	0	0	0
062912	15:27:53	789689	Trial2BackFrS	NS	17	0	1000	1	100	15:27:53	931194	0	1	1	1	1	1	1	1	1	0	0	3	0	0	0	0	0
062912	15:27:53	789689	Trial2BackFrS	NS	17	0	1000	1	100	15:27:53	932713	0	1	1	1	1	1	1	1	1	0	0	3	0	0	0	0	0
062912	15:27:53	789689	Trial2BackFrS	NS	17	0	1000	1	100	15:27:53	934246	0	1	1	1	1	1	1	1	1	0	0	3	0	0	0	0	0
062912	15:27:53	789689	Trial2BackFrS	YS	17	0	1000	0	100	15:27:53	935766	0	1	1	1	1	1	1	1	1	0	0	3	0	0	0	0	0
062912	15:27:53	789689	Trial2BackFrS	NS	17	0	1000	1	100	15:27:53	937285	0	1	1	1	1	1	1	1	1	0	0	3	0	0	0	0	0
062912	15:27:53	789689	Trial2BackFrS	NS	17	0	1000	1	100	15:27:53	938804	0	1	1	1	1	1	1	1	1	0	0	3	0	0	0	0	0
062912	15:27:53	789689	Trial2BackFrS	YS	17	57	295	1	100	15:27:53	939631	0	1	1	1	1	1	1	1	1	0	0	3	0	0	0	0	0
062912	15:27:53	789689	Trial2BackFrS	NS	17	0	1000	1	100	15:27:53	941830	0	1	1	1	1	1	1	1	1	0	0	3	0	0	0	0	0
062912	15:27:53	789689	Trial2BackFrS	NS	17	0	1000	1	100	15:27:53	943349	0	1	1	1	1	1	1	1	1	0	0	3	0	0	0	0	0
062912	15:27:53	789689	Trial2BackFrS	NS	17	0	1000	1	100	15:27:53	944869	0	1	1	1	1	1	1	1	1	0	0	3	0	0	0	0	0
062912	15:27:53	789689	Trial2BackFrS	NS	17	0	1000	1	100	15:27:53	946388	0	1	1	1	1	1	1	1	1	0	0	3	0	0	0	0	0
062912	15:27:53	789689	Trial2BackFrS	NS	17	0	1000	1	100	15:27:53	947907	0	1	1	1	1	1	1	1	1	0	0	3	0	0	0	0	0
062912	15:27:53	789689	Trial2BackFrS	NS	17	0	1000	1	100	15:27:53	949427	0	1	1	1	1	1	1	1	1	0	0	3	0	0	0	0	0
062912	15:27:53	789689	Trial2BackFrS	NS	17	0	1000	1	100	15:27:53	950946	0	1	1	1	1	1	1	1	1	0	0	3	0	0	0	0	0
062912	15:27:53	789689	Trial2BackFrS	NS	17	0	1000	1	100	15:27:53	952465	0	1	1	1	1	1	1	1	1	0	0	3	0	0	0	0	0
062912	15:27:53	789689	Trial2BackFrS	YS	17	0	1000	0	100	15:27:53	953985	0	1	1	1	1	1	1	1	1	0	0	3	0	0	0	0	0
062912	15:27:53	789689	Trial2BackFrS	NS	17	57	74	0	100	15:27:53	954585	0	1	1	1	1	1	1	1	1	0	0	3	0	0	0	0	0
062912	15:27:53	789689	Trial2BackFrS	NS	17	0	1000	1	100	15:27:53	957010	0	1	1	1	1	1	1	1	1	0	0	3	0	0	0	0	0
062912	15:27:53	789689	Trial2BackFrS	NS	17	0	1000	1	100	15:27:53	958530	0	1	1	1	1	1	1	1	1	0	0	3	0	0	0	0	0
062912	15:27:53	789689	Trial2BackFrS	NS	17	0	1000	1	100	15:27:53	960049	0	1	1	1	1	1	1	1	1	0	0	3	0	0	0	0	0
062912	15:27:53	789689	Trial2BackFrS	NS	17	0	1000	1	100	15:27:53	961568	0	1	1	1	1	1	1	1	1	0	0	3	0	0	0	0	0
062912	15:27:53	789689	Trial2BackFrS	NS	17	0	1000	1	100	15:27:53	963101	0	1	1	1	1	1	1	1	1	0	0	3	0	0	0	0	0
062912	15:27:53	789689	Trial2BackFrS	NS	17	57	318	0	100	15:27:53	963941	0	1	1	1	1	1	1	1	1	0	0	3	0	0	0	0	0
062912	15:27:53	789689	Trial2BackFrS	YS	17	0	1000	0	100	15:27:53	966127	0	1	1	1	1	1	1	1	1	0	0	3	0	0	0	0	0
062912	15:27:53	789689	Trial2BackFrS	NS	17	0	1000	1	100	15:27:53	967646	0	1	1	1	1	1	1	1	1	0	0	3	0	0	0	0	0
062912	15:27:53	789689	Trial2BackFrS	NS	17	0	1000	1	100	15:27:53	969165	0	1	1	1	1	1	1	1	1	0	0	3	0	0	0	0	0
062912	15:27:53	789689	Trial2BackFrS	NS	17	0	1000	1	100	15:27:53	970685	0	1	1	1	1	1	1	1	1	0	0	3	0	0	0	0	0
062912	15:27:53	789689	Trial2BackFrS	NS	17	0	1000	1	100	15:27:53	972218	0	1	1	1	1	1	1	1	1	0	0	3	0	0	0	0	0
062912	15:27:53	789689	Trial2BackFrS	NS	17	0	1000	1	100	15:27:53	973737	0	1	1	1	1	1	1	1	1	0	0	3	0	0	0	0	0
062912	15:27:53	789689	Trial2BackFrS	NS	17	0	1000	1	100	15:27:53	975256	0	1	1	1	1	1	1	1	1	0	0	3	0	0	0	0	0
062912	15:27:53	789689	Trial2BackFrS	NS	17	0	1000	1	100	15:27:53	976776	0	1	1	1	1	1	1	1	1	0	0	3	0	0	0	0	0
062912	15:27:53	789689	Trial2BackFrS	NS	17	0	1000	1	100	15:27:53	978295	0	1	1	1	1	1	1	1	1	0	0	3	0	0	0	0	0
062912	15:27:53	789689	Trial2BackFrS	NS	17	0	1000	1	100	15:27:53	979814	0	1	1	1	1	1	1	1	1	0	0	3	0	0	0	0	0
062912	15:27:53	789689	Trial2BackFrS	YS	17	0	1000	0	100	15:27:53	981334	0	1	1	1	1	1	1	1	1	0	0	3	0	0	0	0	0
062912	15:27:53	789689	Trial2BackFrS	NS	17	0	1000	1	100	15:27:53	982853	0	1	1	1	1	1	1	1	1	0	0	3	0	0	0	0	0
062912	15:27:53	789689	ClockFrBaseline	ClockFrBaseline	19	Clock1	5680	0	100	15:27:53	988664	0	1	1	1	1	1	1	1	1	0	0	3	1	0	0	0	0
062912	15:27:53	789689	ClockFrBaseline	ClockFrBaseline	19	Clock11	619	0	100	15:27:53	989331	0	1	1	1	1	1	1	1	1	0	0	3	1	1	0	0	0
062912	15:27:53	789689	ClockFrBaseline	ClockFrBaseline	19	Clock111	634	0	100	15:27:53	990010	0	1	1	1	1	1	1	1	1	0	0	3	1	1	1	0	0
062912	15:27:53	789689	ClockFrBaseline	ClockFrBaseline	19	Clockdone	570	0	100	15:27:53	990624	0	1	1	1	1	1	1	1	1	0	0	3	1	1	1	0	0
062912	15:27:53	789689	FASFrVFBaseline	StopFrVFBaseline	20	12	4117	0	100	15:27:53	1070872	0	1	1	1	1	1	1	1	1	0	0	3	1	1	1	0	0
